1824_acc_x	1824_acc_y	1824_acc_z	1824_gyro_x	1824_gyro_y	1824_gyro_z	1824_mag_x	1824_mag_y	1824_mag_z	1825_acc_x	1825_acc_y	1825_acc_z	1825_gyro_x	1825_gyro_y	1825_gyro_z	1825_mag_x	1825_mag_y	1825_mag_z	1826_acc_x	1826_acc_y	1826_acc_z	1826_gyro_x	1826_gyro_y	1826_gyro_z	1826_mag_x	1826_mag_y	1826_mag_z
-0.5725	2.9975	9.0791	-0.1749	-0.2069	0.336	-1.5729	0.6488	-0.94	4.1221	1.7375	8.5618	-0.4716	0.9234	0.0587	0.6904	-0.024	-0.1141	8.9855	3.554	0.0588	-0.2716	1.0633	0.1395	-0.9246	-0.3573	0.3968
-0.5696	3.1704	9.2521	-0.3299	-0.1467	0.1855	-1.5592	0.7034	-0.9708	4.469	1.7952	8.7444	-0.4139	1.1095	0.0573	0.7025	-0.018	-0.1021	9.2801	3.2129	0.6361	-0.3666	0.9728	0.0802	-0.8916	-0.2987	0.4171
-0.7441	2.5833	9.5482	-0.1167	-0.2048	-0.003	-1.5791	0.7225	-0.988	4.2414	1.5083	8.7972	-0.3833	1.1413	0.1184	0.6844	-0.024	-0.1021	9.2225	3.0992	0.5777	-0.3371	1.1259	0.0191	-0.9238	-0.3186	0.4158
-0.0916	2.6474	9.0336	-0.2075	-0.1142	0.0309	-1.5765	0.6853	-0.9724	4.3005	1.7962	8.9168	-0.5676	1.1085	0.1196	0.6904	-0.024	-0.1081	9.3915	3.2127	0.5237	-0.4022	1.3102	-0.1004	-0.907	-0.2796	0.4351
-0.2149	2.4747	8.8584	-0.1156	-0.2975	0.241	-1.5791	0.7225	-0.988	4.3012	2.0265	8.9764	-0.5343	0.9849	0.0895	0.6844	-0.006	-0.1081	8.8226	3.4977	0.4562	-0.3383	1.3398	-0.0406	-0.8915	-0.2615	0.365
-0.0885	2.7035	9.208	-0.11	-0.023	0.3392	-1.5598	0.7418	-0.9528	4.1265	1.7385	8.7961	-0.5692	1.1383	-0.0034	0.6784	-0.024	-0.1201	9.1065	3.4405	0.4614	-0.3345	1.338	0.0822	-0.8918	-0.2991	0.3993
-0.6309	2.4715	9.143	-0.0511	-0.1135	0.2135	-1.5585	0.6845	-0.9714	4.015	1.8545	8.9701	-0.5035	1.017	0.1813	0.6965	-0.012	-0.1081	8.9971	3.4408	0.6883	-0.5248	1.401	-0.0653	-0.892	-0.3179	0.4165
-0.5695	3.112	9.2528	-0.2021	0.1296	0.1591	-1.56	0.7223	-0.9702	4.4709	1.3353	8.8009	-0.4727	0.9537	-0.0029	0.6844	-0.018	-0.0961	9.045	3.0422	0.1739	-0.7426	1.3405	-0.09	-0.8913	-0.2796	0.4177
-0.392	3.0556	9.0815	-0.2669	-0.0543	0.1559	-1.5927	0.6678	-0.9572	4.1306	1.9121	9.0312	-0.5672	1.0455	-0.0029	0.6784	-0.012	-0.1141	9.2164	2.9283	0.2342	-0.9232	1.4904	0.0703	-0.8916	-0.2987	0.4171
-0.8006	3.0474	9.7749	-0.2972	-0.0549	0.2178	-1.56	0.7223	-0.9702	4.2375	1.9101	8.6233	-0.5681	1.0761	-0.0338	0.6965	-0.024	-0.1081	9.215	3.2695	0.1772	-0.7698	1.3388	0.0337	-0.9079	-0.3183	0.4161
-0.3312	3.3466	9.1373	-0.1722	0.0688	0.1574	-1.5793	0.703	-1.0053	4.6974	1.622	8.6894	-0.4137	1.1098	0.088	0.6904	-0.024	-0.1081	9.0403	3.4401	-0.0547	-0.9463	1.3039	0.346	-0.9081	-0.3186	0.3984
-0.2106	3.1713	9.1416	-0.2352	0.0379	0.096	-1.5801	0.7219	-1.0048	4.0085	1.7954	8.6184	-0.535	1.0158	0.0893	0.6784	-0.024	-0.1081	9.3267	2.9849	0.0646	-1.0128	1.0317	0.2229	-0.8593	-0.2785	0.4361
-0.5058	2.8763	9.432	-0.298	-0.0238	0.0955	-1.5433	0.7014	-1.0033	4.5267	1.565	8.7444	-0.5359	1.0464	0.0584	0.6784	-0.018	-0.0961	9.2769	3.2696	0.4644	-1.0087	1.1517	0.3467	-0.9075	-0.2991	0.4167
-0.3263	2.8768	9.3768	-0.1456	-0.1444	0.091	-1.5603	0.7028	-0.9875	4.0664	1.4503	8.6179	-0.4718	0.9549	0.12	0.6724	-0.024	-0.1201	9.0475	3.5542	0.346	-0.9794	0.9087	0.3131	-0.9076	-0.2806	0.3818
-0.5723	2.8224	9.0813	-0.3287	-0.0549	0.1567	-1.5608	0.7412	-0.9696	4.0749	1.6249	9.0874	-0.5081	1.2016	0.088	0.6724	-0.012	-0.1021	9.0459	3.0991	0.2312	-1.136	0.9095	0.2564	-0.923	-0.2614	0.3999
-0.329	2.5288	9.206	-0.3302	-0.0851	0.0638	-1.5773	0.7042	-0.9718	4.24	1.738	8.7397	-0.5647	0.9852	0.1511	0.6904	-0.018	-0.1081	9.3397	3.4404	0.809	-1.0727	0.7565	0.3147	-0.9552	-0.3186	0.4507
-0.8682	2.9942	9.3658	-0.3297	-0.116	0.1554	-1.5987	0.761	-0.9878	3.902	1.5674	9.0252	-0.5339	0.9537	0.0589	0.6664	-0.018	-0.0961	9.2789	3.3835	0.579	-1.0727	0.7565	0.3147	-0.891	-0.2604	0.4183
-0.5146	3.1156	8.9619	-0.1134	-0.1446	0.2136	-1.5799	0.7414	-0.9874	4.412	1.6227	8.7425	-0.6304	1.1064	-0.0336	0.6784	-0.018	-0.1021	9.6178	3.838	0.5283	-0.7252	0.9057	0.5206	-0.8921	-0.3183	0.3987
-0.2706	3.0547	9.142	-0.2064	-0.1455	0.184	-1.6152	0.7241	-0.99	4.3611	1.7394	9.0934	-0.4438	1.0786	0.0884	0.6784	-0.018	-0.1081	9.2734	2.7576	0.2351	-0.7893	0.7848	0.4601	-0.9072	-0.2984	0.4523
-0.5059	2.9346	9.4313	-0.2396	-0.2063	0.06	-1.5603	0.7028	-0.9875	4.4719	1.3931	8.8597	-0.4485	1.2632	-0.0049	0.6844	-0.024	-0.0961	9.2234	3.1561	0.635	-0.9814	0.8791	0.2515	-0.8598	-0.2981	0.4177
-0.8068	2.8767	9.4267	-0.2075	-0.1757	0.1218	-1.6322	0.7255	-0.9743	4.2981	1.9107	8.8002	-0.4401	0.9246	0.1507	0.6784	-0.012	-0.0901	8.7641	3.2133	0.3405	-0.7336	0.9096	0.2443	-0.9228	-0.2611	0.4176
-0.5646	2.6422	9.4923	-0.1444	-0.1141	0.1531	-1.5995	0.7026	-1.0399	4.5307	1.7961	8.9798	-0.4401	0.9246	0.1507	0.6784	-0.012	-0.1021	9.2808	3.4973	0.6935	-0.7357	1.1544	0.1542	-0.9236	-0.2998	0.3986
-0.3342	3.2321	8.9636	-0.2678	-0.1462	0.2155	-1.5582	0.704	-0.954	4.1179	1.6214	8.3269	-0.3486	1.0195	0.2725	0.6904	-0.024	-0.1081	9.5698	3.4972	0.9849	-0.6727	1.1844	0.1832	-0.9077	-0.3179	0.4339
-0.2687	3.17	9.2574	-0.2701	-0.2068	0.0912	-1.5603	0.7028	-0.9875	4.3516	1.507	8.5651	-0.5028	0.9543	0.0895	0.6904	-0.012	-0.1021	9.3336	3.3264	0.4655	-0.6772	1.2475	0.0302	-0.939	-0.2806	0.4167
-0.7378	3.4536	9.946	-0.175	-0.1146	0.1842	-1.5801	0.7219	-1.0048	3.7229	1.9112	8.672	-0.5971	1.0146	0.0282	0.6904	-0.018	-0.1081	9.2182	3.2127	0.3489	-0.7034	1.2757	0.1849	-0.9228	-0.2611	0.4176
-0.5038	2.9332	9.5481	-0.3001	-0.0537	-0.0589	-1.5572	0.7046	-0.9372	4.2424	1.566	8.8561	-0.4163	1.2335	0.0873	0.6844	-0.024	-0.1141	9.1588	3.6677	0.2337	-0.6463	1.2475	0.0293	-0.9059	-0.2032	0.4198
-0.5154	2.8829	8.9064	-0.3886	0.036	0.1902	-1.5603	0.7028	-0.9875	4.2349	2.1396	8.5072	-0.5383	1.234	0.2724	0.6724	-0.006	-0.1141	9.3851	3.383	0.1804	-0.6723	1.3062	0.1842	-0.8906	-0.2597	0.4538
-0.3868	3.1103	9.3728	-0.2027	0.1299	0.0976	-1.577	0.7237	-0.9544	4.2937	1.9097	8.5658	-0.5068	1.1716	0.1804	0.6724	-0.018	-0.0961	8.8786	3.2701	0.3999	-0.7701	1.2475	0.033	-0.8915	-0.2799	0.3999
-0.1499	2.8211	9.1471	-0.4191	0.097	0.1304	-1.5448	0.7392	-1.0021	3.6674	1.509	8.7277	-0.631	1.2009	0.1502	0.6844	-0.018	-0.0961	8.9385	3.2701	0.5726	-0.5783	1.3666	0.2126	-0.9074	-0.2803	0.3996
-0.0827	3.1077	9.5533	-0.1726	0.0075	0.2176	-1.5399	0.7227	-0.9356	4.3575	1.2783	8.857	-0.5339	0.9537	0.0589	0.6844	-0.018	-0.1081	9.4468	3.6106	0.4678	-0.7692	1.247	0.0637	-0.9231	-0.2802	0.417
-0.1528	2.5898	8.9748	-0.2034	0.0687	0.1271	-1.5961	0.7239	-0.9722	4.1284	1.2211	8.8523	-0.5381	1.1389	0.0271	0.6904	-0.012	-0.1081	9.6773	3.2693	0.6434	-0.8229	1.4565	0.3128	-0.8918	-0.2991	0.3993
-0.75	3.0539	9.2504	-0.2653	0.0989	0.067	-1.543	0.7209	-0.9859	4.0681	1.7383	8.7364	-0.6608	1.0749	-0.064	0.6904	-0.012	-0.1021	9.2751	3.0421	0.3498	-0.8282	1.2761	0.1579	-0.9235	-0.2809	0.3815
-0.5085	2.5283	9.2612	-0.3273	0.129	0.0069	-1.5793	0.703	-1.0053	4.2412	1.6808	8.798	-0.6572	0.9206	-0.0324	0.6844	-0.03	-0.1021	9.2723	3.6675	0.2358	-0.984	1.2461	0.1316	-0.9072	-0.2799	0.4174
-0.6361	3.1748	8.9006	-0.3536	0.3422	0.1041	-1.5773	0.7042	-0.9718	4.4678	1.8524	8.686	-0.7493	0.9203	0.0296	0.6844	-0.018	-0.0961	9.1636	3.156	0.4622	-0.7967	1.4283	0.1582	-0.9385	-0.2426	0.4002
-0.3292	2.6455	9.2045	-0.6005	0.3704	0.0771	-1.5736	0.6676	-0.9394	4.1837	1.7959	8.7974	-0.7186	0.9521	0.0907	0.6904	0	-0.1021	9.2767	3.4402	0.4645	-0.7931	1.3961	0.2807	-0.8752	-0.2604	0.4008
-0.4447	2.9922	9.49	-0.5056	0.5242	0.0485	-1.577	0.7237	-0.9544	4.354	1.3925	8.6818	-0.7486	0.953	0.2138	0.6784	-0.018	-0.1141	9.3895	3.2126	0.4092	-1.0394	1.2125	0.3481	-0.9067	-0.2419	0.4008
-0.3241	2.8169	9.4943	-0.2027	0.1914	0.0067	-1.524	0.7207	-0.9681	4.2912	1.3913	8.3878	-0.747	0.8596	0.1529	0.6784	-0.018	-0.1081	9.5555	3.2691	0.1835	-0.94	1.2095	0.5602	-0.8584	-0.2399	0.4551
-0.1504	3.1713	9.1427	0.0421	0.1333	-0.1207	-1.5778	0.7426	-0.9538	3.7787	2.1409	8.6155	-0.7765	0.7975	0.1535	0.7025	-0.006	-0.1141	9.2814	2.9855	0.6931	-1.0385	0.9073	0.4071	-0.8908	-0.2416	0.4011
-0.624	2.8166	9.5474	-0.2348	0.0378	0.1268	-1.5229	0.7213	-0.9513	4.4065	1.6214	8.4496	-0.9016	0.8893	0.1844	0.6784	-0.018	-0.1141	9.443	3.2693	0.2386	-0.9456	0.9074	0.4043	-0.9233	-0.2991	0.4342
-0.5706	3.1711	9.1937	-0.2951	0.1288	0.1295	-1.5765	0.6853	-0.9724	4.1874	1.5091	8.9719	-0.342	0.7421	0.3663	0.6844	-0.024	-0.1021	9.4475	2.9851	0.4673	-1.0423	0.8786	0.284	-0.8909	-0.2789	0.4532
-0.2697	2.3543	9.1508	-0.3271	0.0982	0.0677	-1.5569	0.6468	-0.9725	4.2993	1.8535	8.8585	-0.5678	1.0764	-0.0031	0.6724	-0.006	-0.1081	9.2655	3.2692	-0.1651	-0.7958	0.8183	0.2454	-0.8586	-0.2217	0.4024
-0.6273	2.9355	9.3708	-0.2338	0.0989	0.1281	-1.5809	0.7408	-1.0042	4.4106	1.795	8.6847	-0.5344	0.9531	-0.0025	0.6844	-0.012	-0.1081	9.0425	3.3265	0.0597	-0.7105	0.7914	-0.0031	-0.8914	-0.2984	0.4348
-0.6918	2.9385	9.1361	-0.3914	-0.209	0.3079	-1.5618	0.7406	-0.9864	4.4066	1.5639	8.4493	-0.75	0.8876	-0.1545	0.6784	-0.006	-0.1141	9.3915	3.2127	0.5237	-0.5927	0.9771	-0.2203	-0.8911	-0.2608	0.4005
-0.6355	3.4659	8.9554	-0.1099	0.1	0.1573	-1.5464	0.7769	-1.0009	4.1838	1.7384	8.7972	-0.3804	1.018	0.1498	0.6784	-0.006	-0.1021	9.2761	3.099	0.407	-0.5294	1.1289	-0.1902	-0.8917	-0.2803	0.3821
-0.6308	3.1128	9.1934	-0.08	0.1007	0.0647	-1.5587	0.7424	-0.936	4.7026	1.7958	8.9831	-0.319	0.9865	0.0267	0.6784	-0.018	-0.0901	9.2772	3.0422	0.4642	-0.3487	1.3142	-0.3785	-0.9546	-0.2618	0.417
-0.5076	2.6443	9.3181	-0.2373	0.0081	-0.0584	-1.5964	0.7044	-0.9896	4.4718	2.141	8.9217	-0.6275	1.0149	0.0898	0.6664	-0.006	-0.1081	9.1638	2.9854	0.4621	0.1136	1.5591	-0.4826	-0.8757	-0.2984	0.4174
-0.4443	2.642	9.4944	-0.2015	0.0679	0.3115	-1.5786	0.7614	-0.9533	4.1314	1.3945	9.0288	-0.6247	0.8279	-0.0627	0.6784	-0.018	-0.0961	9.3868	2.8144	0.2372	0.1663	1.6244	-0.7909	-0.8903	-0.2405	0.4545
-0.5649	2.8172	9.4901	-0.2026	0.0991	0.1585	-1.5438	0.7398	-0.9853	4.1219	1.8525	8.5623	-0.4722	0.9861	0.1505	0.6904	-0.024	-0.1081	9.5	3.0986	0.2395	0.0076	1.87	-0.9378	-0.8755	-0.2981	0.4352
-0.3896	2.8207	9.2013	-0.328	0.0678	0.0363	-1.5953	0.705	-0.9728	4.0687	2.0262	8.7963	-0.84	0.8581	0.092	0.6844	-0.012	-0.1021	9.389	3.5538	0.4095	0.1829	1.8445	-1.2813	-0.9081	-0.3186	0.3984
-0.5123	2.939	9.0809	-0.2928	0.1894	0.2538	-1.5768	0.7432	-0.9371	3.8392	1.5662	8.7312	-0.409	0.8616	-0.0027	0.6724	-0.018	-0.1021	9.3911	3.6108	0.524	0.4302	1.7228	-1.2897	-0.8917	-0.2803	0.3821
-0.6246	3.2835	9.5416	-0.3562	0.1279	0.1918	-1.5603	0.7028	-0.9875	4.4767	1.797	9.1544	-0.6838	0.7669	0.0916	0.6904	-0.012	-0.1141	9.1042	3.611	0.3471	0.4699	1.8102	-1.0136	-0.907	-0.2796	0.4351
-0.6313	2.705	9.1401	-0.4792	0.2802	0.0121	-1.5971	0.7233	-0.989	4.3555	1.8531	8.801	-0.5612	0.7991	0.0907	0.6784	-0.012	-0.1081	9.4959	3.0415	0.0105	0.3087	1.5693	-1.1951	-0.891	-0.2604	0.4183
0.0313	3.1119	9.205	-0.3539	0.3423	0.0734	-1.5611	0.7217	-0.9869	4.2383	1.3925	8.621	-0.4984	0.7376	0.06	0.7025	-0.018	-0.1081	9.4463	3.1556	0.4102	0.1516	1.7227	-1.2813	-0.8754	-0.2792	0.418
-0.3268	3.2269	9.3724	-0.2923	0.3738	0.0118	-1.5451	0.7197	-1.0195	4.1822	2.0257	8.7399	-0.6847	0.7975	0.0607	0.6664	-0.024	-0.1081	9.3303	3.44	0.2939	0.058	1.4792	-1.2805	-0.891	-0.2604	0.4183
-0.392	3.0556	9.0815	-0.6315	0.4624	-0.0743	-1.5982	0.7227	-1.0058	4.3553	1.9682	8.8015	-0.7143	0.6718	-0.1227	0.6844	-0.024	-0.0961	9.1024	3.3265	0.2324	-0.1234	1.66	-1.1507	-0.8593	-0.2601	0.4012
-0.5778	3.0011	8.7871	-0.5657	0.5844	0.112	-1.6178	0.7612	-1.0056	4.359	1.6814	8.976	-0.6564	0.8582	-0.0934	0.6904	-0.03	-0.1201	9.4428	3.4399	0.2387	-0.1868	1.5083	-1.1807	-0.9076	-0.2806	0.3818
-0.6295	2.9953	9.2532	-0.4472	0.2493	0.1648	-1.5412	0.7026	-0.9697	4.358	1.6236	8.9171	-0.626	0.9215	0.0289	0.6965	-0.012	-0.1081	8.9336	3.0424	0.2863	-0.3408	1.4469	-1.1459	-0.8907	-0.2228	0.384
-0.3325	2.7644	9.0279	-0.3906	0.0368	0.0057	-1.525	0.7201	-0.9849	4.4672	1.5646	8.6262	-0.5627	0.8606	0.0596	0.6904	-0.012	-0.1021	8.9916	3.7249	0.4023	-0.2178	1.4778	-1.1801	-0.9076	-0.2806	0.3818
-0.3843	2.817	9.4933	-0.476	0.3097	0.2587	-1.5242	0.7012	-0.9855	4.3575	1.2783	8.857	-0.4402	0.9879	0.304	0.6965	-0.012	-0.1141	9.2207	2.8716	0.4631	-0.2428	1.2921	-0.9657	-0.9241	-0.3193	0.3803
-0.45	2.9375	9.1987	-0.5721	0.1871	0.1343	-1.5783	0.7036	-0.9886	3.7284	1.9125	8.9649	-0.4423	0.9852	0.0275	0.6844	-0.012	-0.1141	9.1614	3.2128	0.3478	-0.0973	1.327	-1.2771	-0.9075	-0.2991	0.4167
-0.7523	3.1721	9.1321	-0.3588	-0.0248	0.1885	-1.5783	0.7036	-0.9886	4.0063	1.7949	8.5012	-0.4451	1.1404	0.088	0.6604	-0.012	-0.1021	8.9942	3.27	0.5164	-0.0081	1.3288	-1.4026	-0.9233	-0.2806	0.3993
-0.4517	3.4635	9.1337	-0.511	0.1265	0.1629	-1.526	0.7195	-1.0017	4.0746	1.7974	9.0881	-0.5321	0.8924	0.1207	0.6844	-0.024	-0.1021	9.3885	3.1557	0.3519	0.3955	1.4198	-1.3832	-0.9226	-0.2607	0.4354
-0.2038	2.8751	9.4957	-0.3825	0.3411	0.289	-1.5763	0.7048	-0.955	4.475	1.5089	9.036	-0.5658	0.9837	-0.0025	0.6844	-0.036	-0.0961	9.162	2.701	0.3474	0.3654	1.3889	-1.3519	-0.9069	-0.2423	0.383
-0.391	3.0549	9.1399	-0.3831	0.4028	0.1366	-1.5436	0.7593	-0.968	3.8984	1.7391	8.8503	-0.69	1.0449	0.0593	0.6904	-0.012	-0.1021	9.274	3.0989	0.2926	0.2725	1.3889	-1.3491	-0.9394	-0.2813	0.3812
-0.5013	2.6399	9.6685	-0.5992	0.3698	0.2001	-1.6141	0.7247	-0.9733	4.1198	1.7945	8.4449	-0.5685	1.0756	-0.0953	0.6965	-0.012	-0.1141	9.5081	3.2695	0.6975	0.4653	1.5381	-1.1386	-0.875	-0.2601	0.4186
-0.3237	2.4667	9.4987	-0.5371	0.4318	0.1391	-1.541	0.7221	-0.9524	4.4638	1.6213	8.4507	-0.5612	0.8309	0.1827	0.6784	-0.024	-0.1081	9.2185	3.7815	0.4065	0.6256	1.4746	-0.9595	-0.9075	-0.2991	0.4167
-0.6206	2.6393	9.7248	-0.4147	0.3413	0.1664	-1.5765	0.6853	-0.9724	4.4131	1.623	8.8011	-0.4682	0.8006	0.1516	0.6784	-0.018	-0.1081	8.8243	2.9859	0.5131	0.625	1.5968	-0.9892	-0.923	-0.2614	0.3999
-0.7521	3.0553	9.1336	-0.4193	0.1278	0.0695	-1.6129	0.7447	-0.9391	4.3612	1.6819	9.0931	-0.5013	0.861	0.0285	0.6965	-0.018	-0.1201	9.3298	3.0419	0.2363	0.7156	1.7807	-1.0827	-0.8754	-0.2792	0.418
-0.3241	2.7586	9.495	-0.2912	0.3425	0.1649	-1.525	0.7201	-0.9849	4.3007	1.6237	8.916	-0.7459	0.8293	0.2145	0.6844	-0.03	-0.1021	9.0459	3.156	0.2312	0.7196	1.8399	-0.9594	-0.907	-0.2611	0.4002
-0.3279	3.286	9.3133	-0.1396	0.1915	0.1289	-1.5456	0.7581	-1.0015	4.1295	1.9118	8.9726	-0.5328	0.9552	0.2125	0.6965	-0.024	-0.1081	9.5599	3.0986	0.4123	0.5676	1.8385	-0.8627	-0.9238	-0.3001	0.3809
-0.389	3.1118	9.256	-0.0164	0.1314	0.1876	-1.5747	0.667	-0.9562	4.2415	1.4507	8.797	-0.4137	1.0462	-0.096	0.6784	-0.03	-0.0961	9.152	3.2124	-0.1673	0.379	1.8397	-0.9492	-0.9231	-0.2618	0.3821
-0.751	2.9962	9.1927	-0.1089	0.1611	0.1586	-1.5621	0.7211	-1.0037	3.9534	1.796	8.7345	-0.6925	1.1688	0.0893	0.6784	-0.03	-0.1081	9.3827	3.6104	0.0661	0.3199	1.8384	-0.8553	-0.9226	-0.2423	0.4005
-0.4469	2.9936	9.3732	-0.1413	0.0691	0.157	-1.575	0.7249	-0.9209	4.3474	2.0814	8.392	-0.4734	0.9846	-0.0031	0.6904	-0.012	-0.0961	8.9838	3.2127	-0.0559	0.3233	1.7149	-0.7334	-0.907	-0.2611	0.4002
-0.567	2.8187	9.3733	-0.359	0.0368	0.0668	-1.5595	0.6839	-0.9881	3.8427	1.4519	8.9064	-0.6891	1.0142	0.0902	0.6844	0	-0.1021	9.4411	3.1554	0.1241	0.0456	1.4096	-0.6661	-0.8757	-0.3169	0.4523
-0.5651	2.9923	9.4879	-0.2034	0.1302	0.0361	-1.5611	0.7217	-0.9869	3.9526	1.6232	8.6751	-0.5315	0.8615	0.1209	0.6724	-0.024	-0.1081	9.2163	2.9852	0.2342	-0.1985	1.3469	-0.5364	-0.9062	-0.2409	0.4541
-0.5704	2.996	9.1959	-0.2595	0.4656	0.0441	-1.5577	0.6656	-0.9719	3.9485	1.4497	8.44	-0.6299	1.0752	-0.0642	0.6844	-0.006	-0.1081	9.3846	3.7811	0.1807	-0.1705	0.9826	-0.6016	-0.8913	-0.2796	0.4177
-0.8709	2.6462	9.195	-0.2655	0.1297	0.0061	-1.5631	0.7205	-1.0205	4.1872	1.6817	8.9727	-0.657	0.8891	-0.0936	0.6904	-0.024	-0.1081	9.8951	3.1549	0.1324	-0.4485	0.8907	-0.5633	-0.8748	-0.2782	0.4713
-0.3939	2.882	8.9669	-0.4787	0.2493	0.1037	-1.5945	0.6861	-0.9734	4.2368	1.6222	8.5634	-0.6211	0.7372	0.1529	0.6844	-0.018	-0.1021	9.3906	3.0989	0.4664	-0.3903	0.8925	-0.6879	-0.891	-0.2604	0.4183
-0.6255	3.1091	9.4854	-0.3566	0.2204	0.0093	-1.5971	0.7233	-0.989	4.5306	1.8536	8.98	-0.5931	0.8291	0.0293	0.6965	-0.012	-0.1021	8.9892	3.0992	0.2301	-0.699	0.5872	-0.6197	-0.8754	-0.2792	0.418
-0.8756	2.9993	8.957	-0.4179	0.2503	0.0107	-1.5961	0.7239	-0.9722	4.1267	1.6235	8.7956	-0.5958	0.9528	0.0286	0.6904	-0.012	-0.0901	9.6079	3.3826	-0.0443	-0.6995	0.7398	-0.6492	-0.8923	-0.3371	0.4158
-0.5078	2.761	9.3167	-0.507	0.4632	0.0164	-1.5592	0.7034	-0.9708	4.5246	1.507	8.627	-0.5596	0.7376	0.1218	0.6965	-0.012	-0.1141	9.157	3.3832	0.119	-0.6084	0.7711	-0.7131	-0.9065	-0.26	0.4535
-0.7509	2.9379	9.1934	-0.384	0.3109	0.1961	-1.5969	0.7428	-0.9717	4.1283	1.9691	8.9143	-0.6535	0.7666	0.03	0.6904	0	-0.0961	9.3842	3.2124	0.1231	-0.5168	0.9546	-0.7758	-0.8908	-0.2416	0.4011
-0.5716	2.3555	9.0872	-0.3885	0.159	0.0083	-1.5422	0.702	-0.9865	4.1826	1.7957	8.7389	-0.5932	0.7655	-0.1547	0.6724	-0.006	-0.1081	9.0491	3.8955	0.4607	-0.2423	1.1395	-0.9362	-0.907	-0.2611	0.4002
-0.2072	2.9941	9.319	-0.4491	0.1886	0.0712	-1.5976	0.6843	-1.0237	4.1846	1.2208	8.7949	-0.6887	1.0148	0.1516	0.6965	-0.03	-0.1081	9.1645	3.2698	0.5196	-0.275	1.2013	-0.9962	-0.9553	-0.3001	0.4158
-0.6876	2.994	9.369	-0.4802	0.1576	0.1017	-1.5971	0.7233	-0.989	4.182	2.1407	8.7404	-0.5641	0.8589	-0.1247	0.6965	-0.018	-0.1021	9.3313	3.497	0.3512	-0.2083	1.5039	-0.8729	-0.892	-0.2994	0.3815
-0.6241	2.875	9.5467	-0.3247	0.2818	0.0102	-1.542	0.6442	-1.0218	4.3522	1.7948	8.625	-0.7155	0.829	0.1529	0.6724	-0.018	-0.1081	9.3841	3.3261	0.1231	-0.2461	1.4461	-1.0873	-0.8904	-0.2409	0.4367
-0.3813	2.9315	9.667	-0.2916	0.435	-0.0177	-1.5789	0.742	-0.9706	4.418	1.3365	9.0341	-0.8079	0.733	-0.0918	0.6784	-0.006	-0.0961	8.8266	3.6685	0.6853	-0.3622	1.5034	-0.8375	-0.8918	-0.2991	0.3993
-0.6314	2.8217	9.1386	-0.4766	0.6483	-0.3183	-1.6144	0.7052	-0.9906	4.3502	1.6793	8.5073	-0.8406	0.889	0.0918	0.6784	-0.018	-0.1021	9.0479	3.213	0.3457	-0.5814	1.2911	-0.8941	-0.9063	-0.2597	0.4713
-0.5112	2.9383	9.1393	-0.41	0.7392	-0.0096	-1.5613	0.7022	-1.0043	4.4153	1.6235	8.9182	-0.7737	0.6105	0.0009	0.6784	-0.012	-0.1021	9.1613	3.3266	0.3479	-0.391	1.289	-0.7462	-0.9076	-0.2806	0.3818
-0.3886	2.8783	9.2589	-0.3201	0.5567	0.0161	-1.5773	0.7042	-0.9718	4.2386	1.9103	8.6819	-0.6222	0.7993	0.1833	0.6844	-0.006	-0.1201	9.3826	2.8711	0.0083	-0.5705	1.1946	-0.5265	-0.9081	-0.3186	0.3984
-0.5663	3.1098	9.428	-0.3522	0.5261	-0.0457	-1.5059	0.7199	-0.9671	4.4194	1.8546	9.1536	-0.7752	0.7357	0.1538	0.6904	-0.036	-0.1081	9.1628	2.9285	0.4048	-0.5974	1.2841	-0.4021	-0.8915	-0.2799	0.3999
-0.5097	2.5874	9.2021	-0.3846	0.4342	-0.0473	-1.583	0.7396	-1.0377	3.9648	1.5686	9.3192	-0.7466	0.7966	0.0304	0.6844	-0.018	-0.1021	9.0478	3.3267	0.3458	-0.6025	1.1341	-0.5567	-0.891	-0.2604	0.4183
-0.3284	2.8199	9.2607	-0.443	0.5552	0.0791	-1.5618	0.7406	-0.9864	4.2413	1.5658	8.7975	-0.7475	0.859	0.0915	0.6844	-0.018	-0.1081	9.0478	3.2698	0.3458	-0.5392	0.9811	-0.4984	-0.892	-0.2994	0.3815
-0.3812	3.6312	9.7166	-0.2661	0.1914	-0.1463	-1.5616	0.7601	-0.969	4.013	1.7389	8.8525	-0.5909	0.7367	0.0605	0.6724	-0.018	-0.0961	9.1677	3.2131	0.6912	-0.5034	1.0398	-0.3454	-0.9069	-0.2607	0.418
-0.5106	2.5298	9.1444	-0.2921	0.4044	-0.0183	-1.5436	0.7593	-0.968	4.4758	1.6817	9.0953	-0.5007	0.7983	-0.0633	0.6724	-0.03	-0.1081	8.9932	3.2131	0.4592	-0.5956	0.948	-0.3126	-0.9234	-0.2994	0.4164
-0.6883	2.7612	9.3135	-0.2292	0.4353	0.0431	-1.5569	0.6468	-0.9725	3.668	1.7968	8.7875	-0.6825	0.7051	0.092	0.6844	-0.012	-0.1021	9.5041	3.0988	0.4684	-0.3174	1.1312	-0.3502	-0.8756	-0.2796	0.4002
-0.4521	2.9389	9.0819	-0.4493	0.2194	0.0104	-1.5789	0.742	-0.9706	4.0141	1.7392	8.911	-0.6801	0.6129	0.154	0.6784	-0.024	-0.1021	9.614	3.5534	0.2992	-0.2807	1.159	-0.1667	-0.9081	-0.3001	0.3634
-0.2729	3.1729	9.0238	-0.5071	0.494	-0.0444	-1.5961	0.7239	-0.9722	4.4658	1.7369	8.5684	-0.7739	0.6738	0.1542	0.6784	-0.024	-0.1021	9.3883	3.3263	0.3521	-0.2492	1.0368	-0.1379	-0.9399	-0.3193	0.3977
-1.1119	2.88	9.1878	-0.3523	0.4031	0.1362	-1.5582	0.704	-0.954	4.1267	1.6235	8.7956	-0.7156	0.7972	0.0609	0.6844	-0.018	-0.1081	9.3898	2.9282	0.409	-0.0902	1.1569	-0.0188	-0.86	-0.2984	0.3999
-0.3342	3.2321	8.9636	-0.3228	0.4348	-0.048	-1.5626	0.7595	-0.9858	4.2988	2.141	8.8598	-0.8398	0.7948	-0.0613	0.6784	-0.012	-0.1081	8.9396	3.2133	0.6298	0.0045	1.156	0.0398	-0.9228	-0.2611	0.4176
-0.396	2.8834	8.8501	-0.4419	0.6778	-0.0105	-1.5438	0.7398	-0.9853	4.3576	1.9112	8.9184	-0.622	0.736	0.03	0.6904	-0.012	-0.0961	9.2687	3.1555	0.0065	-0.1867	1.2194	-0.1383	-0.8596	-0.2977	0.4355
-0.6802	2.9888	9.7778	-0.3522	0.5261	-0.0457	-1.5592	0.7034	-0.9708	4.0091	2.0832	8.6783	-0.7481	0.9217	0.1833	0.6904	-0.006	-0.1021	9.3791	3.1553	-0.1631	-0.1496	1.369	0.0462	-0.9072	-0.2799	0.4174
-0.5027	2.9324	9.6065	-0.1994	0.4669	-0.1104	-1.5054	0.6816	-0.985	4.2386	1.9103	8.6819	-0.7453	0.7984	0.2147	0.6844	-0.012	-0.1141	9.2643	3.3828	-0.2223	-0.2152	1.4012	-0.0745	-0.939	-0.2621	0.3818
-0.263	2.8745	9.553	-0.2928	0.4047	-0.0798	-1.5799	0.7414	-0.9874	4.8147	1.3348	8.8075	-0.4707	0.861	-0.0024	0.6844	-0.006	-0.1021	9.7242	3.6669	0.1297	-0.1514	1.4003	-0.015	-0.907	-0.2796	0.4351
-0.2779	3.0015	8.734	-0.1966	0.4965	0.1055	-1.599	0.7416	-1.0052	4.066	1.6803	8.619	-0.7788	0.8899	0.1222	0.6904	-0.018	-0.1021	9.4997	3.326	0.2397	-0.4064	1.4646	-0.2527	-0.9067	-0.2604	0.4357
-0.4493	3.2286	9.2535	-0.106	0.3752	0.1017	-1.5608	0.7412	-0.9696	4.1268	1.566	8.7953	-0.685	0.7655	-0.062	0.6904	-0.018	-0.1021	9.3325	3.3833	0.4083	-0.3075	1.2789	-0.042	-0.8915	-0.2799	0.3999
-0.7611	2.6534	8.6131	-0.2647	0.1601	0.0375	-1.5608	0.6639	-1.0223	4.2883	1.7934	8.2724	-0.5971	0.9828	-0.0638	0.6784	-0.012	-0.1021	8.987	3.156	0.1157	-0.1864	1.3107	-0.1376	-0.9231	-0.2987	0.452
-0.8695	3.17	9.3052	-0.2005	0.2828	0.0702	-1.5224	0.6829	-0.9693	4.2975	1.5654	8.74	-0.3498	0.9862	0.0269	0.6844	-0.012	-0.0961	9.5578	3.8948	0.3556	-0.1527	1.279	-0.0467	-0.924	-0.3189	0.398
-0.5027	2.9324	9.6065	-0.235	0.0071	0.1569	-1.6002	0.7215	-1.0393	4.3562	2.0834	8.8606	-0.4419	0.954	-0.0031	0.6844	-0.024	-0.1141	8.8762	3.4975	0.2856	-0.3775	1.0998	-0.2872	-0.891	-0.2604	0.4183
-0.4527	2.6479	9.0272	-0.1735	0.0694	0.0344	-1.5969	0.7428	-0.9717	4.2448	1.4515	8.9727	-0.8092	0.8266	-0.0002	0.6544	-0.012	-0.1021	9.2252	3.4405	0.7497	-0.3728	1.0976	-0.1337	-0.859	-0.2594	0.4367
-0.6295	2.9953	9.2532	-0.2	0.2518	0.1617	-1.601	0.7404	-1.0387	4.1862	1.6239	8.9138	-0.5953	0.9533	0.09	0.6784	-0.018	-0.1021	9.2143	3.7813	0.1776	-0.4967	1.0672	-0.1302	-0.8906	-0.2597	0.4538
-0.3324	2.7061	9.0286	-0.1734	0.0386	0.0953	-1.5057	0.7394	-0.9497	4.0691	1.7961	8.7952	-0.6878	0.9842	0.1826	0.6784	-0.018	-0.1141	9.2161	3.2127	0.2344	-0.3479	0.9481	-0.32	-0.8598	-0.3165	0.4527
-0.9955	2.7077	8.9585	-0.3246	0.1895	0.162	-1.5412	0.7026	-0.9697	4.0711	1.9116	8.9129	-0.5629	0.8921	0.1209	0.6965	-0.012	-0.1081	9.498	2.9847	0.125	-0.531	1.2211	-0.2509	-0.8761	-0.2991	0.3818
-0.4511	2.9966	9.1396	-0.1672	0.4051	0.1031	-1.5438	0.7398	-0.9853	4.1324	1.5097	9.0879	-0.7215	1.1072	0.1513	0.6844	-0.03	-0.0961	9.2752	2.9852	0.3497	-0.5056	1.2237	-0.436	-0.8913	-0.2796	0.4177
-0.0953	2.2418	8.8051	-0.2967	-0.0243	0.2185	-1.5436	0.7593	-0.968	3.8369	2.2561	8.6757	-0.4989	0.7688	0.0905	0.6844	-0.018	-0.1081	9.2728	3.2695	0.2355	-0.5077	1.4685	-0.5262	-0.8764	-0.3183	0.3812
-0.4513	3.1133	9.1381	-0.3247	0.128	0.2529	-1.5608	0.7412	-0.9696	4.3569	1.6233	8.8585	-0.7801	0.9518	0.1218	0.6724	-0.024	-0.0961	9.2767	3.4402	0.4645	-0.5377	1.468	-0.4945	-0.9233	-0.2991	0.4342
-0.511	2.7632	9.1415	-0.1377	0.1907	0.3134	-1.617	0.7424	-1.0062	4.2915	1.2188	8.387	-0.5953	0.9533	0.09	0.6844	-0.012	-0.0961	8.7658	3.5546	0.4552	-0.3475	1.4051	-0.3471	-0.8913	-0.2796	0.4177
-0.7421	2.6986	9.6636	-0.3253	0.1282	0.1914	-1.5773	0.7042	-0.9718	4.0198	1.6255	9.2034	-0.6268	0.9839	0.09	0.6844	-0.024	-0.0961	9.1096	3.3837	0.6331	-0.2297	1.5603	-0.5645	-0.9392	-0.2994	0.4339
-0.8063	3.3428	9.4792	-0.1707	0.1605	0.1594	-1.526	0.7195	-1.0017	4.3017	1.6815	8.9749	-0.6898	1.1087	0.274	0.6724	-0.018	-0.1081	9.6167	3.0417	0.4133	-0.3265	1.5012	-0.685	-0.8586	-0.2587	0.4723
-0.7524	2.5308	9.0818	-0.232	0.1904	0.1608	-1.5801	0.7219	-1.0048	4.1308	1.797	9.0307	-0.7145	0.7669	0.1225	0.6844	-0.03	-0.1081	8.9857	3.3834	0.0587	-0.2104	1.4439	-0.9347	-0.9233	-0.2991	0.4342
-0.5728	3.1726	9.0769	-0.1995	0.2824	0.1624	-1.599	0.7416	-1.0052	4.2405	2.0834	8.7998	-0.7176	0.89	0.0604	0.6904	-0.018	-0.0961	9.386	3.4968	0.2377	0.0048	1.5666	-1.0016	-0.8916	-0.3172	0.452
0.158	3.1074	9.5575	-0.0803	0.0085	0.1857	-1.5616	0.7601	-0.969	4.2967	1.3926	8.6807	-0.7195	0.9827	0.0598	0.6904	-0.018	-0.1081	9.5583	3.5535	0.3554	0.0425	1.6244	-0.7872	-0.8923	-0.3371	0.4158
-0.3833	2.8163	9.5517	-0.0786	0.0694	0.2485	-1.5438	0.7398	-0.9853	4.1264	1.796	8.7963	-0.6574	1.0157	0.2129	0.6784	-0.012	-0.1021	9.1076	3.3836	0.5186	0.008	1.687	-0.9086	-0.9079	-0.3183	0.4161
-0.4507	2.7048	9.1433	-0.0815	-0.0832	0.2145	-1.5966	0.7622	-0.9543	4.3006	1.6812	8.9163	-0.598	1.077	0.0893	0.6784	-0.018	-0.1081	9.1001	3.4971	0.1181	-0.2264	1.7416	-0.4709	-0.8914	-0.2984	0.4348
-0.3848	3.1672	9.4889	0.0717	-0.0196	-0.0013	-1.5763	0.7048	-0.955	4.1283	1.9691	8.9143	-0.6241	0.9239	0.2747	0.6784	-0.018	-0.1021	9.2076	3.326	-0.2234	-0.6874	1.5875	-0.3355	-0.8757	-0.2799	0.3825
-0.5092	2.9952	9.2553	-0.0796	0.0698	0.1563	-1.5606	0.7606	-0.9522	4.1846	1.9112	8.8565	-0.5949	0.9539	0.1515	0.6904	-0.024	-0.1081	9.2129	3.2125	0.0627	-0.9308	1.7683	-0.2038	-0.8899	-0.2029	0.4201
-0.753	2.9393	9.0766	0.1307	-0.1101	-0.127	-1.56	0.7223	-0.9702	4.5234	2.2547	8.6304	-0.7523	1.1069	0.1515	0.6844	-0.006	-0.1141	9.7251	3.7807	0.187	-1.1481	1.5552	-0.199	-0.9551	-0.2813	0.3986
-0.6237	3.3411	9.5992	0.0073	-0.1422	-0.0647	-1.5966	0.6849	-1.007	4.2949	1.8525	8.6242	-0.5386	1.1383	-0.0343	0.6965	-0.024	-0.1141	9.3326	3.3264	0.4083	-1.2397	1.3716	-0.1363	-0.9066	-0.2789	0.4707
-0.6331	2.5314	9.0255	-0.1151	-0.0517	-0.0919	-1.5611	0.7217	-0.9869	4.3569	1.6233	8.8585	-0.5985	1.0446	-0.0642	0.6784	-0.012	-0.1141	9.5042	3.0419	0.4684	-1.1189	1.3121	-0.2326	-0.8761	-0.2991	0.3818
-0.3895	2.7039	9.2027	-0.144	-0.0528	0.0929	-1.5441	0.7203	-1.0027	4.4064	1.679	8.4498	-0.5973	1.0461	0.0895	0.6904	-0.03	-0.1081	9.2228	2.8148	0.5775	-0.9005	0.9457	-0.1499	-0.9238	-0.3186	0.4158
-0.6326	2.9392	9.0788	-0.2697	-0.2377	0.1828	-1.5621	0.7211	-1.0037	4.1257	1.5657	8.7367	-0.5306	0.8309	0.1518	0.6784	-0.024	-0.1081	9.5036	2.7006	0.4109	-0.9571	1.1261	0.0069	-0.8607	-0.3368	0.3987
-0.1436	2.8167	9.4975	-0.1447	-0.0525	0.0314	-1.525	0.7201	-0.9849	4.1815	1.7954	8.6803	-0.6251	0.8591	-0.0322	0.6844	-0.024	-0.1021	9.2746	3.4402	0.3501	-0.9884	1.0348	0.0071	-0.8754	-0.2792	0.418
-0.4478	2.936	9.3155	-0.3229	0.3118	0.1338	-1.594	0.7251	-0.9387	4.5845	1.9103	8.8057	-0.6845	0.766	-0.0005	0.6784	-0.012	-0.0901	9.4967	3.2122	0.0679	-1.2619	0.8799	0.1984	-0.8918	-0.2991	0.3993
-0.6304	2.8794	9.1963	-0.3558	0.2508	0.0407	-1.5603	0.7028	-0.9875	4.5196	1.851	8.3942	-0.6543	0.8291	0.0911	0.6844	-0.018	-0.1081	9.3929	2.9284	0.5807	-1.0764	0.7887	0.1922	-0.9234	-0.2994	0.4164
-0.5744	2.8238	8.9645	-0.3889	0.2514	-0.1742	-1.5402	0.7032	-0.953	4.186	1.7389	8.9143	-0.7187	0.8885	-0.0933	0.6904	-0.036	-0.1141	9.4457	3.6106	0.4106	-1.3028	0.6712	-0.1093	-0.9074	-0.2803	0.3996
-0.5707	2.4131	9.1448	-0.3876	0.1586	0.1006	-1.5971	0.7233	-0.989	3.953	2.0261	8.7355	-0.4974	0.6437	-0.0624	0.6904	-0.024	-0.1261	9.2193	3.1559	0.406	-0.9857	0.6983	0.1273	-0.8916	-0.2987	0.4171
-0.7459	3.1677	9.4825	-0.2638	0.1905	0.069	-1.5603	0.7028	-0.9875	3.9461	2.1971	8.3848	-0.5366	1.0455	-0.0338	0.6904	-0.012	-0.0901	9.1645	3.2698	0.5196	-0.9924	0.6405	-0.0881	-0.9233	-0.2806	0.3993
-0.3271	2.644	9.3213	-0.2275	0.4347	0.1968	-1.524	0.7207	-0.9681	4.1822	2.0257	8.7399	-0.5053	1.0464	0.0275	0.6664	-0.018	-0.1081	9.2821	3.3267	0.7506	-0.7421	0.8832	-0.0322	-0.9231	-0.2802	0.417
-0.6961	2.9998	8.9018	-0.3563	0.1587	0.1309	-1.5592	0.7034	-0.9708	4.0661	1.6228	8.6187	-0.4438	1.0786	0.0884	0.6784	-0.024	-0.1141	9.3849	3.4968	0.1805	-0.5843	0.9732	0.056	-0.939	-0.2991	0.4516
-0.3885	2.7616	9.2604	-0.2919	0.2813	0.1943	-1.5621	0.7211	-1.0037	4.2981	1.9107	8.8002	-0.439	0.8307	0.0284	0.6904	-0.024	-0.1021	9.4996	3.4398	0.2398	-0.4938	0.7915	-0.0096	-0.9068	-0.2792	0.4529
-0.697	2.8838	8.8448	-0.2366	0.0078	0.0031	-1.5786	0.6841	-1.0059	4.1848	1.7962	8.856	-0.5029	0.9225	-0.0025	0.6724	-0.012	-0.1141	9.1653	3.4405	0.5769	-0.4287	0.9119	0.0816	-0.9072	-0.2799	0.4174
-0.6845	3.0501	9.5434	-0.3258	0.0977	0.1907	-1.5959	0.7434	-0.9549	4.0642	1.3922	8.5005	-0.5006	0.8618	0.1207	0.7085	-0.024	-0.0901	9.3886	3.0988	0.3519	-0.4578	0.9111	0.1439	-0.8757	-0.2984	0.4174
-0.6227	2.6408	9.608	-0.2321	0.1597	0.1909	-1.5804	0.7024	-1.0221	4.2411	1.7383	8.7983	-0.5357	0.9831	-0.0949	0.6965	-0.024	-0.0901	8.9816	3.3264	-0.1703	-0.3023	1.1546	0.1412	-0.8757	-0.2984	0.4174
-0.7512	3.1713	9.1905	-0.389	0.0361	0.1594	-1.5407	0.6643	-0.9877	4.2977	1.4504	8.7395	-0.598	1.0452	-0.0027	0.6904	-0.018	-0.1081	9.5048	3.3831	0.5259	-0.4926	0.8824	0.0218	-0.907	-0.2796	0.4351
-0.3341	3.1153	8.9651	-0.1686	0.3442	0.0711	-1.5613	0.7022	-1.0043	3.9487	1.3346	8.4395	-0.5636	0.923	0.1207	0.6904	-0.006	-0.1021	9.2759	3.2696	0.4072	-0.6802	0.8832	-0.034	-0.8589	-0.2778	0.4717
-0.7621	2.6541	8.5547	-0.3854	0.2499	0.164	-1.5757	0.6664	-0.973	4.291	1.5063	8.3883	-0.3813	1.0168	0.0269	0.6904	-0.018	-0.1141	9.1601	3.4402	0.2908	-0.7427	1.0053	-0.0619	-0.9082	-0.319	0.3806
-0.8667	2.7017	9.4279	-0.298	-0.0853	0.1864	-1.5953	0.705	-0.9728	4.2388	1.7953	8.6814	-0.6257	0.9536	0.1516	0.6844	-0.018	-0.1081	9.3922	3.5539	0.5812	-0.961	0.7926	-0.0878	-0.939	-0.2991	0.4516
-0.0853	3.4593	9.4321	-0.3256	0.1284	0.1606	-1.559	0.7229	-0.9534	4.1872	1.6817	8.9727	-0.4778	1.1695	-0.0656	0.6784	-0.018	-0.1021	9.3292	3.4969	0.2367	-0.7462	0.7936	-0.1557	-0.9075	-0.2991	0.4167
-0.6315	2.8801	9.1379	-0.3289	-0.0856	0.1868	-1.5922	0.7068	-0.9225	3.9565	1.9118	8.9107	-0.5312	0.8936	0.2436	0.6784	-0.018	-0.1081	8.8787	4.0094	0.4577	-0.8729	0.7644	-0.2443	-0.9558	-0.3196	0.3974
-0.2656	2.4681	9.383	-0.2982	-0.116	0.2165	-1.542	0.7215	-0.9691	4.0704	1.6813	8.8533	-0.4396	0.8934	0.1202	0.6664	-0.018	-0.1141	8.9366	3.0994	0.458	-0.8464	0.8579	-0.398	-0.9231	-0.2802	0.417
-0.3288	3.1117	9.2571	-0.2958	0.0061	0.2499	-1.6115	0.6875	-0.9577	4.0183	1.8553	9.1459	-0.5986	1.1079	0.0891	0.6844	-0.024	-0.0961	9.3922	2.7009	0.5233	-0.9117	0.6766	-0.4897	-0.8911	-0.2792	0.4355
-0.8182	2.7096	8.7865	-0.1428	0.039	0.0641	-1.542	0.7215	-0.9691	4.528	1.4503	8.8025	-0.4445	1.0777	-0.0038	0.6844	-0.018	-0.1081	9.162	3.6109	0.4054	-0.9389	0.6749	-0.366	-0.891	-0.2604	0.4183
-0.5027	2.9324	9.6065	-0.1435	-0.176	0.3363	-1.56	0.7223	-0.9702	4.3557	1.6806	8.8002	-0.4435	0.952	-0.2182	0.6844	-0.018	-0.1081	9.0487	3.4405	0.4031	-0.9693	0.827	-0.3639	-0.8927	-0.3378	0.3803
-0.3337	2.8819	8.968	-0.2375	-0.0841	0.0627	-1.5773	0.7042	-0.9718	4.5879	1.2206	8.9197	-0.5024	0.9549	0.1509	0.6724	-0.03	-0.0961	8.9913	3.0993	0.3446	-0.941	0.8892	-0.4564	-0.9084	-0.3562	0.4327
-0.3912	3.2299	9.1377	-0.1747	-0.1762	0.3059	-1.559	0.7229	-0.9534	4.4742	2.0265	9.0383	-0.4425	1.0167	0.0887	0.6904	-0.006	-0.1081	9.0983	3.2695	0.0034	-1.0327	0.98	-0.4222	-0.9081	-0.3186	0.3984
-0.5643	3.1667	9.5441	-0.1451	-0.1754	0.1825	-1.5621	0.7211	-1.0037	4.5239	1.9096	8.6288	-0.4764	1.1395	0.0267	0.6904	-0.024	-0.0961	9.3332	3.6676	0.4658	-0.9392	0.8579	-0.3952	-0.8911	-0.2977	0.4704
-0.3326	2.8228	9.0271	-0.2357	0.0074	0.0954	-1.5775	0.6847	-0.9892	4.4707	1.4504	8.8014	-0.5372	1.1083	0.058	0.6844	-0.018	-0.1201	9.1062	3.6111	0.4615	-0.9659	1.0387	-0.2701	-0.9404	-0.3573	0.4143
-0.0836	2.9917	9.4963	-0.0846	-0.1742	0.0588	-1.56	0.7223	-0.9702	4.1862	1.6239	8.9138	-0.4762	1.1398	0.0575	0.6965	-0.03	-0.1021	9.2142	3.042	0.1198	-0.8738	1.0696	-0.3033	-0.8911	-0.2792	0.4355
-0.6205	2.5809	9.7256	-0.1755	-0.2066	0.2745	-1.593	0.7257	-0.9219	4.2434	2.3142	8.9766	-0.3185	0.9553	-0.0038	0.6904	0	-0.1081	9.3333	3.5539	0.4657	-0.7713	1.1566	0.0016	-0.891	-0.2604	0.4183
-0.8727	2.4726	9.0804	-0.0519	-0.1439	0.1821	-1.5595	0.6839	-0.9881	3.954	1.451	8.7329	-0.6288	1.0767	0.0895	0.7025	-0.024	-0.1081	9.1658	2.9855	0.5766	-0.5538	1.1258	0.0256	-0.9236	-0.2998	0.3986
-1.1064	2.7012	9.482	-0.0199	-0.1133	0.2438	-1.5404	0.6837	-0.9703	4.239	1.6803	8.6809	-0.535	0.984	-0.0027	0.6784	-0.006	-0.0901	9.3299	2.9282	0.2363	-0.5163	1.0923	0.2393	-0.9073	-0.2987	0.4345
-0.2716	2.9971	9.0844	-0.2971	0.0681	0.036	-1.5247	0.7396	-0.9675	4.1245	1.623	8.6784	-0.5667	1.0461	0.0586	0.6844	-0.03	-0.1081	9.3911	3.5539	0.5239	-0.5719	1.0284	0.4555	-0.9224	-0.2419	0.4183
-0.0912	3.1136	9.0861	-0.2011	0.1292	0.2514	-1.5611	0.7217	-0.9869	4.2935	2.0247	8.5664	-0.6896	1.0136	0.0287	0.6664	-0.012	-0.1081	8.991	3.3268	0.3448	-0.3289	1.0306	0.2946	-0.9228	-0.2611	0.4176
-0.5723	2.8224	9.0813	-0.2058	-0.0534	0.0937	-1.5966	0.6849	-1.007	4.2398	1.8531	8.7402	-0.564	0.9543	0.1513	0.6724	-0.024	-0.1081	9.0425	3.3265	0.0597	-0.3304	1.1533	0.2342	-0.907	-0.2611	0.4002
-0.6896	2.8787	9.2536	-0.1395	0.1607	0.1898	-1.5603	0.7028	-0.9875	4.5965	2.0281	9.4506	-0.7783	0.8587	0.0916	0.6784	-0.018	-0.1141	8.9397	3.0996	0.6297	-0.3883	1.2428	0.3596	-0.9231	-0.2802	0.417
-0.698	2.8846	8.7864	-0.1695	0.2523	0.1306	-1.6175	0.7807	-0.9883	4.2333	1.794	8.3885	-0.6532	0.7987	0.1527	0.6844	-0.018	-0.0961	9.0457	3.2697	0.2313	-0.2691	1.245	0.2024	-0.9235	-0.2809	0.3815
-0.5638	2.8165	9.5485	-0.3559	0.2816	-0.0202	-1.5433	0.7014	-1.0033	4.2378	1.7375	8.6225	-0.6548	0.8285	0.0296	0.6784	-0.012	-0.1081	9.2152	3.042	0.177	-0.3902	1.2437	0.2982	-0.8753	-0.2977	0.4529
-0.6288	2.4701	9.2598	-0.3589	0.0675	0.0367	-1.5454	0.7775	-0.9841	4.3029	1.6817	9.0334	-0.6253	0.9224	0.1211	0.6784	-0.024	-0.1021	9.1028	3.0422	0.2322	-0.3581	1.3041	0.3284	-0.9394	-0.2998	0.4161
-0.3934	2.5318	8.9713	-0.2648	0.1294	0.0676	-1.5778	0.6652	-1.0065	4.2975	1.5654	8.74	-0.5954	0.9216	-0.002	0.6904	-0.018	-0.1021	9.3753	2.8139	-0.3923	-0.3835	1.271	0.5133	-0.8593	-0.2785	0.4361
-0.3881	2.4698	9.2641	-0.3852	0.2806	0.1339	-1.5783	0.7036	-0.9886	3.9465	1.3341	8.3223	-0.5661	1.0152	0.0587	0.6844	-0.012	-0.1021	9.3333	3.5539	0.4657	-0.3277	1.4263	0.2978	-0.8755	-0.2981	0.4352
-0.2077	2.5862	9.2658	-0.3891	0.0669	0.0986	-1.6152	0.7241	-0.99	4.2377	1.795	8.6228	-0.7153	0.7975	0.0916	0.6784	0	-0.1081	9.2191	3.3265	0.4062	-0.5137	1.3349	0.3026	-0.9077	-0.3179	0.4339
-0.4453	2.6427	9.436	-0.2019	0.1603	0.129	-1.5577	0.6656	-0.9719	4.0114	2.0262	8.7952	-0.5333	0.891	-0.0329	0.6904	-0.018	-0.1141	9.6666	3.4963	0.0713	-0.5205	1.2771	0.0872	-0.8913	-0.2796	0.4177
-0.871	2.7629	9.1935	-0.3261	0.2208	-0.0219	-1.5603	0.7028	-0.9875	4.6956	1.3914	8.5712	-0.5933	0.8606	0.0905	0.6904	-0.012	-0.0961	8.9992	3.4409	0.8027	-0.73	1.1518	0.3383	-0.8923	-0.3371	0.4158
-0.5095	2.4707	9.2035	-0.198	0.374	0.1644	-1.599	0.7416	-1.0052	3.8943	1.5656	8.6152	-0.6251	0.8909	0.0598	0.6724	-0.024	-0.1081	8.7646	2.8152	0.3402	-0.6995	1.0301	0.3364	-0.9229	-0.2799	0.4348
-0.1994	2.6971	9.7315	-0.1735	0.0694	0.0344	-1.5809	0.7408	-1.0042	4.4699	1.9105	8.8035	-0.7488	0.8891	-0.0009	0.6904	-0.024	-0.1081	8.929	3.3266	0.0576	-0.6393	1.0614	0.2734	-0.907	-0.2796	0.4351
-0.5663	3.0514	9.4287	-0.2933	0.1588	0.2532	-1.5595	0.6839	-0.9881	4.0689	1.2207	8.7341	-0.5319	0.8609	0.0595	0.6844	-0.024	-0.1081	9.4974	3.4966	0.1254	-0.8598	1.0631	0.1571	-0.8764	-0.3368	0.4162
-0.0901	3.1128	9.1445	-0.4514	0.0357	0.0987	-1.5786	0.6841	-1.0059	3.887	1.9666	8.2655	-0.5956	0.9213	-0.0327	0.6844	-0.012	-0.1081	9.2719	3.0988	0.1781	-0.8637	1.004	0.0339	-0.9226	-0.2423	0.4005
-0.3232	2.9329	9.5512	-0.1736	0.0079	0.1254	-1.5399	0.7227	-0.9356	4.355	1.4503	8.7406	-0.6869	0.9218	0.1215	0.6724	-0.018	-0.1081	9.4976	3.326	0.1252	-0.8645	1.0653	0.0037	-0.9236	-0.3182	0.4336
-0.3821	2.7572	9.6108	-0.1729	0.0076	0.1869	-1.5611	0.7217	-0.9869	4.3595	1.3938	8.9747	-0.5978	1.0455	0.028	0.6904	-0.012	-0.1141	8.8763	3.4406	0.2855	-1.0177	0.973	0.069	-0.9081	-0.3186	0.3984
-0.3897	2.879	9.2005	-0.0168	0.1315	0.1568	-1.5629	0.74	-1.0031	4.0084	1.8529	8.6187	-0.7826	0.9803	-0.1242	0.6724	-0.018	-0.0961	9.3856	2.9281	0.1801	-1.0861	0.9761	-0.1441	-0.8745	-0.259	0.4719
-0.1468	2.8772	9.3216	-0.1412	0.0383	0.2179	-1.6113	0.707	-0.9403	3.9532	1.9111	8.735	-0.472	0.9546	0.0893	0.6965	-0.018	-0.1021	8.9898	3.4405	0.2876	-0.961	1.0974	-0.1161	-0.8906	-0.2412	0.4189
-0.4461	3.2264	9.4287	-0.2998	-0.1153	0.0628	-1.5799	0.7414	-0.9874	3.9016	1.7974	9.0263	-0.5962	1.0158	0.1511	0.6965	-0.024	-0.1141	8.768	3.441	0.5696	-0.873	1.0388	-0.2729	-0.8901	-0.2217	0.4373
-0.4459	3.0513	9.4309	-0.235	0.0071	0.1569	-1.6113	0.707	-0.9403	4.2457	1.5668	9.0318	-0.4441	1.0147	-0.1264	0.6784	-0.012	-0.1081	9.1556	3.6675	0.062	-1.0523	1.0052	-0.0527	-0.8745	-0.2405	0.437
-0.6899	3.1122	9.2507	-0.3595	0.0063	0.0662	-1.5791	0.7225	-0.988	3.9613	1.6828	9.144	-0.7209	1.0127	-0.0325	0.6844	-0.012	-0.1201	9.2731	2.9851	0.2353	-0.9973	0.8866	-0.2704	-0.9549	-0.2809	0.4164
-0.3925	2.6478	9.0283	-0.3253	0.1897	0.1005	-1.5789	0.742	-0.9706	4.4148	1.9686	8.9198	-0.5645	0.8901	-0.0942	0.6904	-0.018	-0.0961	9.1625	3.156	0.405	-0.7509	1.1006	-0.3375	-0.9062	-0.2409	0.4541
-0.3878	3.0527	9.3151	-0.3233	0.2504	0.194	-1.5467	0.7575	-1.0183	4.2414	1.5083	8.7972	-0.5936	0.7967	-0.1242	0.6904	-0.03	-0.1021	9.1558	3.4969	0.0619	-0.7125	1.0666	-0.0931	-0.8754	-0.2792	0.418
-1.1118	2.8216	9.1886	-0.1676	0.3438	0.1633	-1.5425	0.7599	-0.9512	4.0092	1.3928	8.6166	-0.7469	0.7963	-0.0004	0.6724	-0.03	-0.1141	9.0483	3.7248	0.4034	-0.5582	1.2193	-0.1272	-0.891	-0.2604	0.4183
-0.3326	3.5808	9.076	-0.3865	0.2812	0.011	-1.5399	0.7227	-0.9356	4.4104	1.91	8.6852	-0.5936	0.8603	0.0598	0.6784	-0.036	-0.0961	9.1572	3.2695	0.1189	-0.6176	1.401	-0.0625	-0.8911	-0.2792	0.4355
-0.2679	2.5863	9.2647	-0.2938	0.2821	0.0098	-1.5595	0.6839	-0.9881	4.1874	1.5091	8.9719	-0.5006	0.8618	0.1207	0.6724	-0.03	-0.1081	9.2788	3.4403	0.579	-0.1167	1.3986	0.1069	-0.8757	-0.2984	0.4174
-0.7467	2.9349	9.427	-0.2309	0.2515	0.1621	-1.5765	0.6853	-0.9724	4.4051	1.7937	8.3918	-0.7178	0.9215	0.1216	0.6904	-0.024	-0.1141	9.3911	3.5539	0.5239	0.0102	1.4886	0.196	-0.9233	-0.2806	0.3993
-0.3942	3.0571	8.9647	-0.2345	0.0992	0.0666	-1.5613	0.7022	-1.0043	4.4659	1.6794	8.5681	-0.5938	0.86	0.0291	0.6844	-0.024	-0.0841	8.9907	3.5542	0.345	0.1392	1.6386	0.3469	-0.892	-0.3179	0.4165
-0.0853	2.643	9.3839	-0.2669	0.0072	0.065	-1.5801	0.7219	-1.0048	4.3582	1.5086	8.9166	-0.7477	0.8905	0.1527	0.6784	-0.03	-0.0961	8.9941	3.3838	0.5165	0.1958	1.7326	0.1616	-0.9077	-0.3179	0.4339
-0.5124	3.0557	9.0794	-0.0504	-0.0522	0.184	-1.559	0.7229	-0.9534	4.185	1.6811	8.8555	-0.5035	0.9852	0.0893	0.6844	-0.03	-0.0961	9.2168	3.4402	0.2918	0.1347	1.7017	0.1939	-0.891	-0.2604	0.4183
-0.4544	3.1155	8.9629	-0.1104	0.0695	0.1567	-1.5214	0.6835	-0.9525	4.4757	1.7392	9.0956	-0.3527	1.1413	0.0875	0.6904	-0.03	-0.1021	9.4404	2.871	0.0666	0.0758	1.7612	0.2884	-0.9089	-0.3573	0.3794
-0.565	2.8756	9.4893	-0.2312	0.1593	0.2831	-1.5778	0.6652	-1.0065	4.1281	2.0841	8.9148	-0.5359	1.0782	0.1504	0.6844	0.006	-0.0841	9.9603	3.0414	0.5912	-0.0472	1.7303	0.3225	-0.892	-0.2994	0.3815
-0.7497	2.8788	9.2526	-0.4497	0.0966	0.1615	-1.5624	0.7789	-0.9684	4.4654	1.9669	8.5694	-0.4984	0.8012	0.244	0.6604	-0.018	-0.1201	9.1014	3.3265	0.1752	-0.2895	1.6363	0.5134	-0.859	-0.2594	0.4367
-0.6217	2.6984	9.6657	-0.4504	0.0968	0.1	-1.5763	0.7048	-0.955	4.4646	1.7941	8.51	-0.5339	0.9219	-0.0331	0.6844	-0.012	-0.1081	9.6145	3.1553	0.2989	-0.421	1.2741	0.2993	-0.8754	-0.2792	0.418
-0.263	2.9328	9.5523	-0.3553	0.2198	0.1322	-1.5433	0.7014	-1.0033	4.4759	1.6242	9.0951	-0.655	0.8282	-0.0011	0.6784	-0.018	-0.1141	9.2149	3.3264	0.1773	-0.2623	1.3332	0.418	-0.9235	-0.2809	0.3815
-0.4489	2.9367	9.2571	-0.2954	0.0675	0.1897	-1.5623	0.7016	-1.0211	4.6934	1.3909	8.4541	-0.5641	0.8907	-0.0327	0.6724	-0.012	-0.1081	9.33	3.7244	0.2941	-0.3181	1.178	0.6335	-0.9229	-0.2984	0.4697
-0.3306	2.8797	9.1432	-0.2947	0.0364	0.312	-1.5412	0.7026	-0.9697	4.1322	1.6248	9.0885	-0.5339	0.9537	0.0589	0.6904	-0.012	-0.1081	9.1656	3.213	0.5767	-0.42	1.3041	0.3303	-0.9239	-0.3374	0.433
-0.8125	3.1721	9.1311	-0.386	0.0964	0.3452	-1.5953	0.705	-0.9728	4.2894	1.7937	8.331	-0.5042	1.0161	0.0891	0.6844	-0.024	-0.1081	9.1631	3.5541	0.4625	-0.0162	1.1207	0.3782	-0.8755	-0.2981	0.4352
-0.1485	3.3449	9.2573	-0.3571	0.1898	0.0086	-1.5971	0.7233	-0.989	3.9568	1.7393	8.9099	-0.627	0.9837	0.0593	0.6904	-0.012	-0.1081	9.2149	3.3264	0.1773	-0.2053	1.2442	0.2619	-0.9074	-0.2803	0.3996
-0.4542	2.9404	8.9651	-0.3553	0.2198	0.1322	-1.5582	0.704	-0.954	4.2433	1.7388	8.9154	-0.4718	0.9231	0.028	0.6904	-0.012	-0.1141	9.158	3.4402	0.1763	-0.2659	1.3654	0.2954	-0.8916	-0.2987	0.4171
-0.4471	3.1687	9.371	-0.543	0.1574	0.0102	-1.5592	0.7034	-0.9708	4.4143	1.5657	8.8594	-0.626	0.8579	-0.1551	0.6844	-0.024	-0.0961	9.2177	3.6108	0.3492	-0.4568	1.2458	0.1465	-0.9079	-0.3183	0.4161
-0.5154	2.8829	8.9064	-0.3558	0.1893	0.1316	-1.5407	0.7416	-0.935	4.1197	1.852	8.4451	-0.5641	0.8589	-0.1247	0.6904	-0.018	-0.1081	9.2728	3.2695	0.2355	-0.6143	1.2775	0.0593	-0.8757	-0.2984	0.4174
-0.1445	3.4587	9.4894	-0.3556	0.2815	0.0106	-1.5773	0.7042	-0.9718	4.0139	1.8542	8.9116	-0.5071	1.1077	-0.0343	0.6784	-0.012	-0.1141	9.2791	3.156	0.5788	-0.4898	1.1858	0.0856	-0.86	-0.2984	0.3999
-0.6864	2.8765	9.4288	-0.6963	0.1246	0.1652	-1.559	0.7229	-0.9534	4.3028	1.7392	9.0337	-0.6896	1.0136	0.0287	0.6784	-0.03	-0.1141	9.3931	3.6677	0.6385	-0.5219	1.1254	0.0553	-0.8759	-0.2988	0.3996
-0.6292	2.7619	9.2562	-0.4792	0.2802	0.0121	-1.5613	0.7022	-1.0043	4.3587	1.9114	8.977	-0.5041	1.0479	0.1811	0.6965	-0.024	-0.0961	9.5015	2.7005	0.2964	-0.4392	1.1607	-0.2849	-0.8922	-0.2998	0.3637
-0.6315	2.8801	9.1379	-0.2935	0.1281	0.2833	-1.5987	0.761	-0.9878	4.4154	1.566	8.918	-0.4154	1.2028	0.1182	0.6784	-0.018	-0.1141	8.8189	3.1563	0.2271	-0.2901	1.1634	-0.4737	-0.8768	-0.3375	0.3806
-0.0837	3.0501	9.4956	-0.3603	0.0374	-0.0562	-1.559	0.7229	-0.9534	4.1242	1.7955	8.6792	-0.4148	1.1401	0.0264	0.6784	-0.018	-0.1021	9.1065	3.4405	0.4614	-0.0731	1.2547	-0.4794	-0.9395	-0.3001	0.3983
-0.2085	3.1699	9.2584	-0.3589	0.006	0.1277	-1.633	0.7443	-0.9737	4.184	1.6234	8.7967	-0.2937	1.2338	-0.0056	0.6844	-0.024	-0.1081	9.1633	3.3266	0.4624	-0.0725	1.1326	-0.4497	-0.9392	-0.2809	0.3989
-0.5053	2.4677	9.4371	-0.231	0.1285	0.344	-1.5592	0.7034	-0.9708	4.1921	2.028	9.2671	-0.3214	1.1422	0.1487	0.6844	-0.006	-0.1081	8.987	3.156	0.1157	-0.0308	1.2799	-0.1118	-0.8752	-0.2604	0.4008
-0.2726	2.9394	9.0267	-0.2048	-0.0538	0.1859	-1.5781	0.7231	-0.9712	4.4631	2.0814	8.4528	-0.507	1.1713	0.1496	0.6904	-0.024	-0.1141	8.9881	3.156	0.1729	-0.1224	1.3708	-0.0776	-0.8588	-0.2406	0.4196
-0.3917	2.8221	9.0845	-0.0794	0.039	0.2171	-1.5961	0.7239	-0.9722	4.3551	1.3928	8.7404	-0.4418	1.0176	0.1809	0.6904	0	-0.1021	9.3849	2.6437	0.1226	-0.244	1.1868	0.0168	-0.8598	-0.2796	0.3828
-0.6349	3.0574	8.9605	-0.2383	-0.053	-0.0597	-1.5451	0.7197	-1.0195	4.4171	1.9116	9.0367	-0.5339	0.9219	-0.0331	0.6904	-0.024	-0.1021	8.8757	3.0993	0.2281	-0.0832	1.6107	0.169	-0.9077	-0.2994	0.399
-0.3873	2.6441	9.3203	-0.2961	0.0677	0.1282	-1.542	0.7215	-0.9691	3.8386	1.2784	8.6713	-0.3811	0.9853	-0.0344	0.6784	-0.018	-0.1081	8.9841	3.0421	-0.0561	-0.3294	1.488	0.2368	-0.892	-0.2994	0.3815
-0.5096	3.287	9.2517	-0.2979	-0.1161	0.2473	-1.5621	0.7211	-1.0037	4.5827	2.3701	8.7491	-0.6867	0.8903	0.0602	0.6784	0	-0.1021	9.1033	3.4403	0.2897	-0.6039	1.6079	0.3689	-0.9228	-0.2426	0.3827
-0.5692	2.8785	9.2558	-0.1395	0.0992	0.2807	-1.5961	0.7239	-0.9722	4.4739	1.5086	8.9774	-0.5658	1.0155	0.0895	0.6844	-0.012	-0.1081	9.3795	2.8141	-0.1634	-0.4793	1.5466	0.3954	-0.9079	-0.2998	0.3812
-0.3858	3.1096	9.4312	-0.2963	-0.0245	0.2492	-1.5618	0.6633	-1.039	3.8996	1.6819	8.9086	-0.6253	0.8906	0.0291	0.6724	-0.006	-0.1021	9.2193	3.1559	0.406	-0.5138	1.6092	0.2741	-0.8916	-0.2987	0.4171
-0.6305	2.9377	9.1956	-0.169	0.2828	0.1313	-1.5958	0.666	-1.0076	4.182	2.1407	8.7404	-0.6526	0.7678	0.1529	0.6784	-0.018	-0.0961	9.272	3.0419	0.1781	-0.4892	1.3684	0.087	-0.907	-0.2796	0.4351
-0.4518	2.7055	9.0849	-0.2029	0.0992	0.1277	-1.5971	0.7233	-0.989	4.0708	2.0842	8.9137	-0.7836	1.1378	0.1822	0.6844	0	-0.1021	8.9389	2.9289	0.5724	-0.4885	1.6119	0.089	-0.9238	-0.3001	0.3809
-0.0921	2.9976	9.0292	-0.0766	0.2839	0.0994	-1.543	0.7209	-0.9859	4.5853	1.4502	8.8036	-0.5687	1.1389	0.058	0.6904	-0.012	-0.0901	9.0504	2.8718	0.4599	-0.5457	1.6097	0.2443	-0.9072	-0.2984	0.4523
-0.5035	2.6997	9.551	-0.0191	0.0709	0.0325	-1.5616	0.7601	-0.969	4.2971	1.853	8.7413	-0.4447	1.1728	0.2415	0.6965	-0.018	-0.1081	9.159	3.4402	0.2335	-0.5236	1.4919	-0.0339	-0.8913	-0.298	0.4526
-0.5149	3.2907	8.9597	-0.0829	-0.0519	0.0307	-1.5592	0.7034	-0.9708	4.0146	1.4516	8.9097	-0.5084	1.2013	0.0573	0.6784	-0.012	-0.1021	9.3301	2.8144	0.2362	-0.9253	1.4	0.0082	-0.8911	-0.2608	0.4005
-0.5637	2.7582	9.5492	-0.0205	-0.0515	0.0914	-1.577	0.7237	-0.9544	4.1241	1.853	8.6794	-0.2584	1.0175	-0.0353	0.6904	-0.018	-0.0961	8.9926	3.7249	0.4596	-0.7687	1.3992	0.0649	-0.9231	-0.2802	0.417
-0.2761	3.2335	8.8479	0.0996	-0.2026	-0.0056	-1.5284	0.7762	-0.9999	4.5868	1.2204	8.8611	-0.5943	0.8594	-0.0324	0.6844	-0.024	-0.1021	9.443	3.2693	0.2386	-0.7654	1.2453	0.1865	-0.9089	-0.3573	0.3794
-0.4463	2.5851	9.3783	0.1004	-0.1107	-0.0652	-1.5763	0.7048	-0.955	4.0623	1.9096	8.4443	-0.4683	0.737	-0.0324	0.6784	-0.006	-0.0901	9.3314	3.4401	0.3511	-0.8907	1.0631	0.1581	-0.923	-0.2614	0.3999
-0.8101	2.9956	9.2501	-0.1742	0.0081	0.0639	-1.5415	0.6831	-0.9871	4.4131	1.623	8.8011	-0.6213	0.7369	0.1222	0.6784	-0.03	-0.0901	8.9901	3.213	0.2875	-0.8008	1.034	0.063	-0.8916	-0.2987	0.4171
-1.1149	2.7071	9.0148	-0.2665	0.1301	-0.0861	-1.601	0.7404	-1.0387	4.0698	1.336	8.7932	-0.5625	0.8609	0.0904	0.6844	-0.018	-0.0901	9.2727	3.3263	0.2355	-0.8616	0.7896	0.1243	-0.9072	-0.2984	0.4523
-0.688	3.2858	9.3653	-0.2331	0.2216	0.0077	-1.5427	0.6631	-1.0212	4.241	1.7958	8.7985	-0.6504	0.6436	0.0922	0.6904	-0.024	-0.1141	9.5575	3.326	0.298	-0.64	0.8484	0.2718	-0.907	-0.2796	0.4351
-0.6298	2.4125	9.2022	-0.2948	0.2825	-0.0824	-1.5817	0.7597	-1.0036	4.1839	1.6809	8.7969	-0.5574	0.6451	0.1531	0.6965	-0.012	-0.1021	9.497	2.9847	0.0677	-0.8601	0.9718	0.1564	-0.9395	-0.3186	0.4333
-0.5719	3.2885	9.1338	-0.419	0.22	-0.0515	-1.5765	0.6853	-0.9724	4.0058	2.0825	8.5025	-0.7152	0.7342	-0.0616	0.6724	-0.024	-0.1081	8.9954	3.1563	0.5736	-0.5796	0.971	0.2095	-0.9235	-0.2809	0.3815
-0.3973	3.0009	8.7903	-0.3549	0.2812	0.0721	-1.5801	0.7219	-1.0048	4.6953	1.564	8.572	-0.6546	0.797	-0.0316	0.6604	-0.006	-0.1081	9.3367	3.3266	0.6372	-0.4299	1.1259	0.0219	-0.9072	-0.2799	0.4174
-0.3321	3.2306	9.0804	-0.4185	0.2506	-0.0508	-1.6165	0.704	-1.0242	3.7252	1.8542	8.7889	-0.4366	0.7067	-0.0016	0.6904	-0.012	-0.1141	9.0433	3.554	0.1171	-0.4638	1.0967	-0.0695	-0.9226	-0.2423	0.4005
-0.6896	2.8787	9.2536	-0.4183	0.1274	0.1618	-1.5276	0.7573	-1.0005	3.9533	1.8535	8.7347	-0.5912	0.7046	-0.0622	0.6965	-0.024	-0.0961	9.2201	3.3266	0.4634	-0.6738	1.124	0.1521	-0.9231	-0.2987	0.452
-0.1479	2.878	9.2632	-0.4187	0.2199	-0.0207	-1.5953	0.705	-0.9728	4.2403	1.508	8.7387	-0.5004	0.8303	0.0595	0.6784	-0.024	-0.1081	9.3314	3.4401	0.3511	-0.6448	1.3992	0.0612	-0.9072	-0.2799	0.4174
-0.565	2.8756	9.4893	-0.2615	0.1896	0.2842	-1.5603	0.7028	-0.9875	4.1215	1.3921	8.5016	-0.5579	0.6127	-0.0004	0.6904	-0.012	-0.0961	9.3383	2.8717	0.6941	-0.7689	1.3383	0.0644	-0.9074	-0.2803	0.3996
-0.6356	2.7663	8.9058	-0.3289	0.0682	-0.0559	-1.5773	0.7042	-0.9718	4.1236	1.4502	8.619	-0.5621	0.7979	-0.0322	0.6844	-0.018	-0.0961	8.9927	2.7581	0.4016	-0.4902	1.3689	0.0563	-0.9064	-0.2227	0.4014
-0.517	3.2921	8.8429	-0.2961	0.0677	0.1282	-1.616	0.743	-0.9895	4.3015	1.854	8.9756	-0.5302	0.7679	0.0293	0.6784	-0.024	-0.1141	8.9937	3.6681	0.5167	-0.5857	1.431	-0.0325	-0.9074	-0.2803	0.3996
-0.0892	3.1705	9.2022	-0.3577	0.0978	0.0989	-1.5585	0.6845	-0.9714	4.5821	2.0248	8.689	-0.6237	0.8609	0.1522	0.6784	-0.018	-0.1021	9.387	3.4968	0.295	-0.4601	1.3693	0.0247	-0.9234	-0.2994	0.4164
-0.207	2.8773	9.3205	-0.2294	0.2817	0.255	-1.5592	0.7034	-0.9708	4.2466	1.7396	9.0912	-0.6242	0.8285	-0.0013	0.6844	-0.036	-0.1021	9.1604	3.2128	0.2906	-0.2465	1.2794	-0.0746	-0.8921	-0.3367	0.4336
-1.0517	2.8799	9.1889	-0.3218	0.2191	0.3778	-1.5783	0.7036	-0.9886	4.1804	2.428	8.6831	-0.529	0.7376	0.0909	0.6844	-0.018	-0.1201	9.2175	2.8715	0.2914	-0.402	1.3711	-0.0999	-0.8756	-0.2796	0.4002
-0.6233	3.1077	9.6022	-0.3841	0.1879	0.3779	-1.5595	0.6839	-0.9881	4.195	1.626	9.3825	-0.47	0.8301	-0.0022	0.6965	-0.018	-0.1081	8.8743	3.3836	0.171	-0.2183	1.3112	-0.1674	-0.8757	-0.2799	0.3825
-0.3229	2.6995	9.5542	-0.296	0.1907	-0.0537	-1.5618	0.7406	-0.9864	4.2945	2.0825	8.6252	-0.4095	0.8928	0.0278	0.6904	-0.036	-0.1021	9.2775	3.6678	0.522	-0.4959	1.3411	-0.1281	-0.9079	-0.2998	0.3812
-0.4586	3.0601	8.7301	-0.447	0.28	0.1347	-1.617	0.7424	-1.0062	4.476	1.5667	9.0948	-0.5938	0.86	0.0291	0.6784	-0.024	-0.1081	9.2137	3.44	0.1201	-0.4956	1.1276	-0.0991	-0.8916	-0.2987	0.4171
-0.3901	3.1708	9.1969	-0.3854	0.2499	0.164	-1.5585	0.6845	-0.9714	4.5236	1.4492	8.5682	-0.6266	0.9842	0.1207	0.6844	-0.03	-0.1081	9.271	2.985	0.1208	-0.4703	1.1302	-0.2842	-0.9541	-0.2422	0.4354
-0.4467	2.8769	9.3747	-0.3858	0.2809	0.0724	-1.5616	0.6827	-1.0217	3.9601	1.7401	9.0857	-0.5606	0.7364	-0.0011	0.7025	-0.012	-0.1021	9.281	3.3835	0.6934	-0.6578	1.1615	-0.3398	-0.8911	-0.2792	0.4355
-0.6359	2.9997	8.9028	-0.3543	0.3424	0.0426	-1.593	0.7257	-0.9219	4.2459	1.4518	9.0313	-0.6546	0.8288	0.0604	0.6844	-0.018	-0.0961	9.4934	3.3258	-0.1037	-0.4975	1.1285	-0.1605	-0.8923	-0.3556	0.4508
-0.3264	2.9351	9.3761	-0.354	0.2808	0.1643	-1.5412	0.7026	-0.9697	4.2377	1.795	8.6228	-0.6542	0.7658	-0.0622	0.6904	-0.036	-0.1021	9.3274	3.3262	0.1221	-0.6798	1.3097	-0.0614	-0.9399	-0.3193	0.3977
-0.8125	3.1721	9.1311	-0.3847	0.3112	0.1346	-1.5979	0.7422	-0.9884	4.2352	1.9671	8.5064	-0.7451	0.7351	0.0615	0.6784	-0.018	-0.1141	9.3289	3.7812	0.2369	-0.7423	1.1271	-0.061	-0.8916	-0.2987	0.4171
-0.6323	2.7057	9.0817	-0.4495	0.1888	0.0405	-1.6131	0.7253	-0.9565	4.4702	1.7379	8.8027	-0.5922	0.7985	0.0602	0.6784	-0.018	-0.1081	9.1635	3.2129	0.4623	-0.7692	0.9118	0.0918	-0.9072	-0.2614	0.3824
-0.1432	3.2829	9.55	-0.3582	0.0672	0.0982	-1.5791	0.7225	-0.988	4.2414	1.5083	8.7972	-0.5326	0.8601	-0.0327	0.6844	-0.012	-0.1081	9.6713	3.0984	0.2999	-0.7727	1.0049	-0.0303	-0.9554	-0.3004	0.398
-0.5185	2.8851	8.7312	-0.387	0.0968	0.253	-1.5773	0.7042	-0.9718	4.3612	1.6819	9.0931	-0.6857	0.7964	-0.0622	0.6784	-0.018	-0.1201	9.1026	4.009	0.2902	-0.6772	0.9427	0.0585	-0.8596	-0.2977	0.4355
-0.5745	2.8822	8.9638	-0.2639	0.0675	0.2508	-1.5441	0.7203	-1.0027	4.124	1.9105	8.6797	-0.5942	0.8912	0.0596	0.6844	-0.012	-0.0901	8.9956	2.9857	0.5734	-0.7115	1.0966	-0.0621	-0.9072	-0.2799	0.4174
-0.5177	3.0594	8.7874	-0.2026	0.0991	0.1585	-1.5394	0.6843	-0.9536	4.351	1.8521	8.5667	-0.5328	0.8598	-0.0634	0.6904	-0.024	-0.1081	9.0983	3.3264	0.0035	-0.6097	0.9401	0.2409	-0.9404	-0.3388	0.3793
-0.4504	3.2877	9.1943	-0.1678	0.3131	0.1934	-1.5945	0.6861	-0.9734	3.8972	1.7964	8.7919	-0.4432	0.9841	-0.0954	0.6904	-0.012	-0.1021	9.3838	3.5536	0.1233	-0.5194	1.0023	0.1465	-0.8754	-0.2608	0.3831
-0.3341	3.1737	8.9643	-0.2045	0.0076	0.1257	-1.5959	0.7434	-0.9549	4.5897	2.1416	9.0996	-0.5975	1.0776	0.1507	0.6965	-0.006	-0.1081	9.282	3.3836	0.7507	-0.6171	1.2788	-0.0328	-0.9075	-0.2991	0.4167
-0.3275	2.9359	9.3177	-0.2639	0.129	0.1599	-1.5969	0.7428	-0.9717	4.2394	2.0831	8.7412	-0.533	0.9231	0.0898	0.6724	-0.012	-0.1021	8.8735	3.213	0.1137	-0.3975	1.0033	0.0814	-0.9388	-0.2802	0.4345
-1.0516	2.7632	9.1904	-0.2633	0.221	0.0696	-1.5598	0.7418	-0.9528	4.018	2.0278	9.1466	-0.5951	0.9218	0.0287	0.7025	-0.018	-0.0961	8.9424	3.4409	0.8017	-0.5679	1.102	-0.4351	-0.9394	-0.2998	0.4161
-0.2724	2.8227	9.0282	-0.4472	0.3416	0.013	-1.6036	0.7775	-1.0543	4.5211	1.6212	8.4518	-0.5656	0.9522	-0.0638	0.6844	-0.024	-0.1201	9.2748	3.3264	0.35	-0.2182	1.0368	-0.1388	-0.907	-0.298	0.4701
-0.1441	3.1669	9.4931	-0.2909	0.4347	0.0438	-1.5966	0.6849	-1.007	4.0138	1.9117	8.9118	-0.4683	0.7688	0.0596	0.6784	-0.018	-0.1201	9.1037	4.0091	0.3474	-0.0623	1.0973	-0.1123	-0.8757	-0.2984	0.4174
-0.1523	2.9976	9.0281	-0.3867	0.2505	0.041	-1.5796	0.7608	-0.97	4.3501	1.7368	8.5076	-0.6836	0.7672	0.1224	0.6844	0	-0.0841	9.2171	3.2127	0.2916	-0.0342	1.0682	-0.2055	-0.9237	-0.2813	0.3637
-0.1459	2.9932	9.3785	-0.2954	0.1905	0.0078	-1.5446	0.7587	-0.9847	4.5263	1.7951	8.7455	-0.777	0.7651	0	0.6724	0	-0.1141	9.1604	3.1559	0.2905	0.0381	1.0938	0.1305	-0.875	-0.2785	0.4536
-0.6254	3.0508	9.4861	-0.4438	0.4325	0.1995	-1.5587	0.7424	-0.936	3.9536	1.681	8.7339	-0.6242	0.8603	0.0907	0.7025	-0.012	-0.1081	9.22	3.4403	0.4635	-0.0264	1.1864	0.041	-0.9224	-0.2419	0.4183
-0.5694	2.9953	9.2543	-0.2919	0.4351	-0.0484	-1.5789	0.742	-0.9706	4.2961	1.7377	8.6822	-0.5288	0.7061	0.0296	0.6844	-0.018	-0.1021	9.4495	3.0989	0.5819	-0.32	1.1789	0.5721	-0.8917	-0.2803	0.3821
-0.0849	2.3512	9.3876	-0.4803	0.25	-0.0501	-1.599	0.7416	-1.0052	4.3554	1.9106	8.8013	-0.777	0.7969	0.092	0.6724	-0.018	-0.0961	9.4479	3.4969	0.5249	-0.4645	1.1436	0.9142	-0.8748	-0.2782	0.4713
-0.3887	2.9367	9.2582	-0.4133	0.4637	0.1075	-1.5608	0.7412	-0.9696	4.1301	2.1996	9.0325	-0.4401	0.861	-0.0333	0.6844	-0.012	-0.0901	9.5021	3.0418	0.3539	-0.6509	1.2352	0.8897	-0.8918	-0.2991	0.3993
-0.8024	2.757	9.6618	-0.3547	0.2196	0.1937	-1.5613	0.7022	-1.0043	4.1804	1.7951	8.6217	-0.5958	0.9528	0.0286	0.6724	-0.036	-0.1141	9.278	3.2697	0.5216	-0.8126	1.1469	0.6788	-0.8913	-0.2796	0.4177
-0.2081	2.8781	9.2621	-0.3229	0.3118	0.1338	-1.583	0.7396	-1.0377	4.4132	1.5655	8.8008	-0.5022	0.8916	-0.0024	0.6724	-0.018	-0.1081	9.1055	3.3835	0.4041	-0.6289	1.3918	0.5831	-0.8595	-0.2789	0.4183
-0.5092	3.0536	9.2546	-0.2954	0.1905	0.0078	-1.5773	0.7042	-0.9718	4.3603	1.5666	9.034	-0.5322	0.7971	-0.1553	0.6724	-0.012	-0.1201	9.3276	3.1556	0.122	-0.5381	1.3318	0.5184	-0.8921	-0.3183	0.3987
-0.8149	2.6491	8.9625	-0.3256	0.1899	0.0697	-1.5425	0.6825	-1.0039	4.24	1.738	8.7397	-0.6233	0.7979	0.0296	0.6965	-0.012	-0.0961	8.9952	3.3269	0.5737	-0.3916	1.3967	0.238	-0.9223	-0.2416	0.436
-0.6877	3.0523	9.3682	-0.4481	0.3112	-0.0184	-1.5613	0.7022	-1.0043	4.0636	1.7948	8.5023	-0.6266	0.9524	0.0287	0.6904	-0.018	-0.0961	9.1565	3.8382	0.1194	-0.2623	1.3332	0.418	-0.9551	-0.2997	0.4335
-0.3252	2.8177	9.4359	-0.5375	0.4628	0.0475	-1.5763	0.7048	-0.955	4.1869	1.8542	8.9734	-0.746	0.7339	-0.0614	0.6784	-0.006	-0.1081	9.2729	3.1557	0.2354	-0.4493	1.2119	0.3919	-0.9073	-0.2987	0.4345
-0.2697	2.3543	9.1508	-0.5986	0.5234	0.0189	-1.5618	0.7406	-0.9864	4.0714	1.7391	8.9121	-0.5909	0.7049	-0.0315	0.6904	-0.024	-0.1141	9.2767	3.4402	0.4645	-0.5439	1.2736	0.3337	-0.8908	-0.2416	0.4011
-0.142	3.2238	9.6092	-0.785	0.4604	0.0198	-1.5637	0.7589	-1.0025	4.0176	1.625	9.0863	-0.9003	0.7956	0.0927	0.6784	-0.006	-0.0961	8.9928	3.5543	0.4594	-0.3999	1.1263	-0.0098	-0.8906	-0.2597	0.4538
-0.4434	2.758	9.5513	-0.5682	0.4931	0.0178	-1.5793	0.703	-1.0053	4.187	1.7967	8.9732	-0.5603	0.7367	0.0296	0.6784	-0.018	-0.1021	9.5549	2.8709	0.1259	-0.2426	1.0338	0.077	-0.907	-0.2796	0.4351
-0.3894	2.6456	9.2035	-0.6299	0.4617	0.0794	-1.5389	0.7233	-0.9188	4.4691	2.4281	8.8058	-0.6222	0.7675	0.0913	0.6724	-0.024	-0.1081	9.1609	3.6109	0.3481	-0.1486	1.0942	0.1054	-0.8915	-0.2799	0.3999
-0.7549	2.7657	8.962	-0.5723	0.2487	0.0126	-1.543	0.7209	-0.9859	4.4184	1.7393	9.0945	-0.4396	0.8616	0.0282	0.6844	0	-0.1141	9.3881	3.44	0.3522	-0.2138	0.9433	0.0139	-0.9079	-0.3183	0.4161
-0.5715	2.9967	9.1375	-0.5436	0.1577	-0.0513	-1.5038	0.7211	-0.9335	4.2416	1.3932	8.7967	-0.5955	0.9849	0.1513	0.6844	-0.03	-0.1021	9.4422	3.0417	0.1812	0.0331	1.0047	-0.0237	-0.9241	-0.3193	0.3803
-0.8109	2.8212	9.1939	-0.5085	0.2177	0.2571	-1.5608	0.7412	-0.9696	4.3593	1.5088	8.9752	-0.3782	0.8937	0.0891	0.6784	-0.018	-0.1081	9.269	3.7811	0.0642	-0.087	1.0029	0.1028	-0.9394	-0.2998	0.4161
-0.8054	2.6425	9.488	-0.4442	0.2481	0.4415	-1.5585	0.6845	-0.9714	4.2411	1.7383	8.7983	-0.4698	0.8622	0.1205	0.6904	-0.03	-0.1141	9.1054	3.4404	0.4042	-0.1152	0.9712	0.1956	-0.8762	-0.3179	0.399
-0.5106	3.2877	9.1933	-0.4769	0.4331	-0.0154	-1.5765	0.6853	-0.9724	4.0162	1.7972	9.0285	-0.5625	0.8609	0.0904	0.6844	-0.018	-0.1081	9.22	3.3834	0.4635	-0.1223	1.0964	-0.049	-0.892	-0.2994	0.3815
-0.9915	3.6378	9.2388	-0.5064	0.5553	-0.0739	-1.5603	0.7028	-0.9875	4.42	1.452	9.1518	-0.6242	0.8285	-0.0013	0.6904	-0.018	-0.1021	9.2669	3.7811	-0.0503	-0.1195	1.0951	0.0431	-0.9233	-0.2991	0.4342
-0.8062	3.2261	9.4807	-0.2285	0.4351	0.1046	-1.5791	0.7225	-0.988	4.5905	1.624	9.0973	-0.6551	0.7964	-0.0931	0.6965	-0.018	-0.0961	9.0949	3.4968	-0.1681	-0.0879	1.3081	0.0438	-0.8605	-0.3179	0.3816
-0.6282	2.7612	9.3146	-0.2268	0.4959	0.1674	-1.5621	0.7211	-1.0037	4.5266	1.6225	8.7447	-0.5299	0.7682	0.06	0.6965	-0.012	-0.1201	8.7609	3.3269	0.1689	-0.1522	1.4312	-0.0455	-0.8915	-0.2615	0.365
-0.3896	2.8207	9.2013	-0.3834	0.4645	0.0149	-1.5582	0.704	-0.954	4.1317	1.9123	9.0898	-0.62	0.7069	0.2145	0.6724	0	-0.0961	9.3865	3.0987	0.2374	-0.2749	1.4916	-0.0106	-0.8916	-0.3172	0.452
-0.8133	2.9978	9.0749	-0.1995	0.3439	0.0715	-1.5953	0.705	-0.9728	4.3566	1.7959	8.8593	-0.7748	0.7044	0.1233	0.6904	-0.03	-0.1081	9.3828	3.5535	0.0661	-0.2466	1.5537	-0.1031	-0.907	-0.2611	0.4002
-1.0579	2.7676	8.84	-0.2617	0.3742	-0.0194	-1.5765	0.6853	-0.9724	4.3568	1.6809	8.8588	-0.5932	0.7973	-0.0627	0.6724	-0.018	-0.1021	9.5585	3.3261	0.3552	-0.462	1.3702	-0.0367	-0.8751	-0.2416	0.3837
-0.3801	2.8141	9.7269	-0.289	0.5877	-0.0144	-1.5747	0.667	-0.9562	4.0078	1.5651	8.5588	-0.8114	0.8555	-0.2154	0.6724	-0.012	-0.0961	9.2701	3.7243	0.1214	-0.4639	1.3711	-0.0981	-0.9394	-0.2813	0.3812
-0.3332	3.2313	9.022	-0.2001	0.4056	-0.081	-1.5945	0.6861	-0.9734	4.2412	1.6808	8.798	-0.5572	0.6136	0.0918	0.6844	-0.03	-0.1021	8.7675	3.0428	0.5121	-0.5298	1.2815	-0.2197	-0.9231	-0.2987	0.452
-0.8678	2.7024	9.3695	-0.1368	0.4979	-0.0797	-1.5953	0.705	-0.9728	4.0722	1.9119	8.9715	-0.5954	0.8262	-0.278	0.6965	-0.042	-0.1081	9.224	3.5542	0.6925	-0.7112	1.1879	-0.0614	-0.8756	-0.2796	0.4002
-0.1551	2.7664	8.8558	-0.1081	0.4068	-0.1436	-1.5433	0.7787	-0.9506	4.1729	1.6783	8.2111	-0.8085	0.8593	0.184	0.6965	-0.024	-0.0901	9.5546	3.1553	0.1261	-0.675	1.0636	0.1209	-0.9069	-0.2607	0.418
-0.5668	2.702	9.3747	-0.2287	0.5582	-0.108	-1.5451	0.7197	-1.0195	4.0191	1.3952	9.1438	-0.4694	0.7674	-0.094	0.6784	-0.012	-0.0961	9.3262	3.4399	0.065	-0.9927	1.1587	-0.1454	-0.9067	-0.2419	0.4008
-0.3294	2.8206	9.2023	-0.1688	0.3135	0.1012	-1.5611	0.7217	-0.9869	4.641	1.7374	8.7474	-0.6552	0.8915	0.1522	0.6844	-0.024	-0.1081	9.1042	2.7579	0.2892	-1.115	1.0361	-0.0813	-0.8914	-0.2984	0.4348
-0.3314	2.7053	9.087	-0.2608	0.4661	-0.0789	-1.5613	0.7022	-1.0043	4.1197	1.852	8.4451	-0.687	0.89	0.0295	0.6904	-0.024	-0.1141	9.5568	3.0416	0.2405	-0.8085	0.9766	-0.1831	-0.9243	-0.3381	0.3974
-0.3337	2.8819	8.968	-0.3544	0.3733	-0.0182	-1.5598	0.7418	-0.9528	4.4191	1.3367	9.0927	-0.718	0.8576	-0.0931	0.6904	-0.024	-0.1021	9.3943	2.6441	0.6377	-0.935	1.0083	-0.2712	-0.9074	-0.2803	0.3996
-0.5075	2.5859	9.3189	-0.384	0.3724	0.1052	-1.5966	0.7622	-0.9543	4.2399	1.7956	8.74	-0.9028	0.856	-0.0613	0.6904	-0.024	-0.0901	9.841	3.5532	0.3034	-0.6606	1.1628	-0.4319	-0.907	-0.2796	0.4351
-0.5122	2.8807	9.0816	-0.2275	0.4962	0.1059	-1.5809	0.7408	-1.0042	4.4723	1.7959	8.9201	-0.6233	0.7979	0.0296	0.6844	-0.024	-0.0961	9.784	3.7238	0.3024	-0.598	1.0711	-0.4037	-0.9082	-0.3374	0.4155
-0.39	3.1125	9.1976	-0.3264	0.221	-0.0526	-1.5595	0.6839	-0.9881	4.5878	1.911	8.9814	-0.6892	0.9506	-0.0938	0.6844	-0.024	-0.1021	9.442	3.2692	0.1814	-0.5977	1.1928	-0.4028	-0.9236	-0.2998	0.3986
-0.4994	2.8135	9.7831	-0.3268	0.1596	0.0076	-1.5789	0.742	-0.9706	4.3602	2.3145	9.096	-0.5616	0.7985	0.0293	0.6664	-0.006	-0.1081	9.7303	2.9847	0.4153	-0.6004	1.2246	-0.4946	-0.891	-0.2604	0.4183
-0.2681	2.7614	9.2625	-0.2345	0.0992	0.0666	-1.5793	0.703	-1.0053	4.6989	1.3922	8.747	-0.6564	0.89	-0.0014	0.6664	0	-0.1201	9.1586	2.9283	0.1759	-0.3496	1.3146	-0.4092	-0.9065	-0.2785	0.4885
-1.0493	2.645	9.3086	-0.3845	0.2804	0.1954	-1.5436	0.7593	-0.968	4.5323	2.1992	9.0988	-0.6849	0.8608	0.214	0.6844	-0.012	-0.1141	9.2182	3.2127	0.3489	-0.3627	1.3512	-0.8387	-0.8914	-0.2984	0.4348
-0.5108	2.6465	9.1429	-0.3232	0.3119	0.1031	-1.5763	0.7048	-0.955	4.0646	1.8526	8.5612	-0.687	0.89	0.0295	0.6904	-0.012	-0.1081	9.505	3.2125	0.5258	-0.3586	1.4407	-0.7152	-0.8598	-0.2796	0.3828
-0.1506	3.3464	9.1405	-0.3552	0.3428	-0.0496	-1.5783	0.7036	-0.9886	4.0073	1.8527	8.5601	-0.7443	0.7996	0.3376	0.6965	-0.018	-0.1141	9.2219	3.5541	0.5781	-0.1462	1.26	-0.8459	-0.875	-0.2601	0.4186
-0.5657	2.6429	9.4339	-0.4154	0.3415	0.1049	-1.5613	0.7022	-1.0043	4.1871	1.7392	8.9729	-0.7803	0.9515	0.0911	0.6904	-0.012	-0.0961	9.1015	3.2128	0.1751	0.012	1.4718	-0.7568	-0.8923	-0.3371	0.4158
-0.3359	2.8834	8.8512	-0.2952	0.1596	0.0687	-1.5639	0.7394	-1.0199	4.1211	1.6797	8.5029	-0.7779	0.8593	0.1531	0.6844	-0.018	-0.1021	9.2179	3.4402	0.349	-0.105	1.5599	-0.5375	-0.8911	-0.2792	0.4355
-0.2606	3.4559	9.7209	-0.2601	0.3735	0.1344	-1.5765	0.6853	-0.9724	4.5873	1.5657	8.9213	-0.6519	0.7051	0.0611	0.6844	-0.024	-0.1081	9.1618	2.8716	0.3476	0.1124	1.4683	-0.514	-0.9227	-0.2795	0.4526
-0.267	2.7607	9.3209	-0.3816	0.556	0.0476	-1.5608	0.7412	-0.9696	3.9576	1.9121	8.9693	-0.5902	0.7375	0.1527	0.6844	-0.03	-0.1081	9.2626	3.0415	-0.337	-0.0697	1.436	-0.3859	-0.8595	-0.2789	0.4183
-0.6315	2.8801	9.1379	-0.1671	0.3743	0.164	-1.5412	0.7026	-0.9697	4.3556	1.7381	8.8005	-0.7757	0.7351	0.0924	0.6904	-0.018	-0.1081	9.2672	3.5536	-0.0505	-0.0996	1.466	-0.354	-0.908	-0.3371	0.4333
-0.5666	2.5269	9.3769	-0.0737	0.3442	0.2852	-1.542	0.7215	-0.9691	4.2974	1.6229	8.7403	-0.5317	0.8612	0.0902	0.6904	-0.012	-0.0961	9.2762	3.0421	0.407	0.0538	1.3143	-0.3906	-0.8422	-0.2019	0.4211
-1.0517	2.8216	9.1896	-0.1666	0.4049	0.1646	-1.5819	0.7402	-1.0209	4.1814	1.8529	8.6805	-0.8724	0.8875	-0.0309	0.6965	-0.012	-0.0901	9.4463	3.0988	0.4102	-0.3436	1.4337	-0.2241	-0.9233	-0.2806	0.3993
-0.873	2.6477	9.0782	-0.1058	0.3444	0.1626	-1.5232	0.7018	-0.9687	3.8944	2.1409	8.6763	-0.7499	1.0148	0.2135	0.6904	-0.018	-0.1081	9.051	3.27	0.5175	-0.3432	1.2811	-0.1946	-0.9079	-0.2998	0.3812
-0.4467	2.8769	9.3747	-0.264	0.1598	0.099	-1.5441	0.7203	-1.0027	4.4727	1.5659	8.9191	-0.6548	0.8921	0.2136	0.6724	-0.018	-0.1081	9.4977	3.2691	0.1252	-0.3108	1.4329	-0.1636	-0.9067	-0.2419	0.4008
-0.6292	2.7619	9.2562	-0.3229	0.3733	0.0429	-1.542	0.7215	-0.9691	4.1292	2.0843	8.9734	-1.0873	0.8547	0.0013	0.7025	-0.024	-0.1021	9.0524	2.9288	0.5744	-0.4354	1.1894	-0.1618	-0.8432	-0.2779	0.4542
-0.629	2.5868	9.2584	-0.2314	0.2825	0.0705	-1.5964	0.7044	-0.9896	4.069	1.8536	8.7955	-0.441	0.8916	-0.0642	0.6904	-0.03	-0.1021	9.3233	3.2123	-0.1069	-0.6438	1.1245	0.1204	-0.891	-0.2604	0.4183
-0.809	2.9365	9.3092	-0.3199	0.5874	-0.014	-1.5793	0.703	-1.0053	4.3528	1.4498	8.6234	-0.6251	0.8909	0.0598	0.6965	-0.018	-0.1021	9.5588	3.0986	0.355	-0.8582	0.9709	0.2178	-0.8921	-0.3367	0.4336
-0.3829	2.5245	9.5553	-0.4454	0.587	-0.197	-1.5603	0.7028	-0.9875	4.3581	1.5661	8.9169	-0.6273	0.9516	-0.0634	0.6724	-0.018	-0.1081	8.823	3.2133	0.456	-0.8879	1.0617	0.2502	-0.8759	-0.2988	0.3996
-0.9867	3.168	9.4783	-0.1974	0.4661	0.0741	-1.5742	0.706	-0.9215	4.1869	1.8542	8.9734	-0.8717	0.8884	0.0613	0.6784	-0.018	-0.0901	9.3915	3.2127	0.5237	-1.1045	1.0921	0.2569	-0.8918	-0.2991	0.3993
-0.3293	2.7039	9.2038	-0.3522	0.5261	-0.0457	-1.5773	0.7042	-0.9718	4.6978	2.0248	8.7498	-0.5641	0.9225	0.0593	0.6784	-0.018	-0.0961	9.3873	3.2694	0.2948	-1.0406	1.1217	0.3167	-0.9551	-0.2813	0.3986
-0.1489	2.8787	9.2048	-0.3523	0.4955	-0.0156	-1.4706	0.7372	-0.9644	4.3081	1.1652	9.2654	-0.4711	0.924	0.1202	0.6664	-0.006	-0.1321	9.2759	3.2696	0.4072	-0.9541	1.2161	0.0997	-0.9388	-0.2802	0.4345
-0.6915	2.7634	9.1383	-0.322	0.4652	-0.0166	-1.5582	0.704	-0.954	4.2385	1.2774	8.6205	-0.8085	0.8275	0.092	0.6904	-0.03	-0.1021	9.3886	3.0988	0.3519	-1.2699	1.3103	-0.1052	-0.9086	-0.3381	0.38
-0.2787	2.7687	8.6785	-0.292	0.3121	0.1335	-1.5258	0.739	-0.9843	4.2424	2.2564	8.9178	-0.7805	0.9512	0.0604	0.6784	-0.018	-0.1021	9.2215	3.0423	0.5204	-1.1451	1.3404	-0.0779	-0.892	-0.2994	0.3815
-0.7487	2.878	9.311	-0.3851	0.3421	0.043	-1.5639	0.7394	-1.0199	4.7499	1.218	8.3958	-0.7495	0.92	-0.0011	0.6784	-0.024	-0.1021	9.2733	3.6676	0.293	-1.1511	1.2213	-0.2631	-0.8756	-0.2796	0.4002
-0.4455	2.7595	9.4345	-0.351	0.4026	0.2592	-1.5789	0.742	-0.9706	4.4656	1.8519	8.5689	-0.7165	0.8278	0.03	0.6904	-0.018	-0.1141	9.216	3.2695	0.2344	-1.3143	1.2252	-0.5347	-0.8925	-0.319	0.3631
-0.3907	2.8798	9.1421	-0.2956	0.2521	-0.1138	-1.5436	0.7593	-0.968	4.2442	1.8541	8.9745	-0.7773	0.7648	-0.0307	0.6664	-0.018	-0.1081	9.6236	3.3264	0.8141	-1.0601	1.2222	-0.3272	-0.9236	-0.3367	0.4685
-0.6875	2.9356	9.3697	-0.2	0.3133	0.0708	-1.5608	0.7412	-0.9696	4.4113	2.0828	8.7446	-0.6858	0.8915	0.1831	0.6844	-0.018	-0.1021	8.9931	3.3269	0.4592	-0.9084	1.1323	-0.4247	-0.8916	-0.2987	0.4171
-0.1493	3.1705	9.2011	-0.2638	0.1905	0.069	-1.5966	0.7622	-0.9543	4.0688	1.9686	8.796	-0.7169	0.8273	-0.0314	0.6965	-0.006	-0.0961	9.2193	3.1559	0.406	-0.7323	1.0454	-0.7379	-0.8754	-0.2608	0.3831
-0.3877	2.9943	9.3159	-0.1417	0.0693	0.1263	-1.5943	0.7056	-0.9561	4.1831	1.4506	8.7373	-0.7167	0.8593	0.0913	0.6784	-0.012	-0.1081	9.3873	3.2694	0.2948	-0.7284	1.0741	-0.6149	-0.875	-0.2601	0.4186
-0.4516	2.5888	9.0863	-0.3837	0.3108	0.2268	-1.5582	0.704	-0.954	4.0735	1.7971	9.0296	-0.5944	0.9227	0.1209	0.6844	-0.018	-0.1141	9.1542	3.1556	-0.0529	-0.7591	0.8606	-0.585	-0.891	-0.2604	0.4183
-0.2665	3.1101	9.3749	-0.2366	0.0693	-0.0878	-1.5765	0.6853	-0.9724	4.1805	1.7376	8.6214	-0.6894	0.9821	-0.0325	0.6724	-0.024	-0.1081	9.2219	3.5541	0.5781	-0.6396	0.9846	-0.7412	-0.9063	-0.2412	0.4364
-0.692	3.1136	9.1339	-0.2667	-0.0236	0.1259	-1.5977	0.7616	-0.9711	4.4122	1.5077	8.742	-0.5381	1.1389	0.0271	0.6844	-0.024	-0.1081	9.4918	3.7807	-0.1606	-0.6776	1.1402	-0.9846	-0.8593	-0.2785	0.4361
-0.811	2.8796	9.1931	-0.2325	0.0984	0.2511	-1.6134	0.7058	-0.9739	4.5256	1.5648	8.6858	-0.6311	1.1055	-0.1258	0.6904	-0.012	-0.1021	9.2696	3.3262	0.0638	-0.6447	1.1698	-0.9239	-0.8757	-0.2799	0.3825
-0.5658	2.7013	9.4331	-0.1121	-0.2067	0.4275	-1.5618	0.7406	-0.9864	4.2984	1.6807	8.7991	-0.4722	0.9861	0.1505	0.6965	-0.024	-0.1141	9.3285	3.2693	0.1793	-0.8947	1.3232	-1.0074	-0.9227	-0.2795	0.4526
-0.6286	3.1113	9.3102	-0.2934	0.1896	0.1923	-1.5585	0.6845	-0.9714	4.468	1.7374	8.6855	-0.531	0.7985	-0.0016	0.6784	-0.024	-0.1141	9.5	3.8948	0.2974	-0.8652	1.141	-1.0405	-0.9067	-0.2419	0.4008
-0.6958	2.8247	8.904	-0.3862	0.281	0.0417	-1.5441	0.7203	-1.0027	4.1916	1.6827	9.207	-0.6557	0.8909	0.0907	0.6904	-0.012	-0.1021	9.3285	3.2125	0.1792	-0.7686	1.1393	-0.9205	-0.8757	-0.2799	0.3825
-0.6865	2.9349	9.4281	-0.4473	0.2801	0.104	-1.5997	0.7604	-1.0046	4.1822	1.3353	8.6782	-0.7473	0.7957	-0.0618	0.6784	0	-0.0901	9.2163	2.9852	0.2342	-0.8874	1.2284	-0.7626	-0.9073	-0.2987	0.4345
-0.6834	2.991	9.6026	-0.4172	0.25	0.0722	-1.5276	0.7573	-1.0005	4.5811	1.967	8.6302	-0.6535	0.7984	0.122	0.6724	-0.006	-0.1201	9.4488	3.6676	0.5823	-0.9142	1.074	-0.6094	-0.8903	-0.2221	0.4195
-0.3841	2.6419	9.4955	-0.387	0.2506	0.0103	-1.6134	0.7058	-0.9739	3.8408	1.9118	8.8499	-0.5601	0.6734	-0.1236	0.7085	0	-0.1081	9.2245	3.1561	0.6922	-0.9444	1.0127	-0.5782	-0.907	-0.2611	0.4002
-0.6344	3.4652	9.0138	-0.4783	0.3721	-0.0474	-1.5736	0.6676	-0.9394	4.2365	1.8523	8.5645	-0.8085	0.8275	0.092	0.6965	-0.024	-0.1081	9.0487	3.3836	0.4031	-0.7631	1.0758	-0.7368	-0.9392	-0.2994	0.4339
-0.3947	2.7076	8.9107	-0.5388	0.3095	0.1672	-1.5783	0.7036	-0.9886	4.0156	2.1423	9.03	-0.6812	0.6433	0.0924	0.6784	-0.018	-0.1081	9.2136	3.4969	0.1202	-0.4842	1.1672	-0.7444	-0.8925	-0.3374	0.3981
-0.5707	3.2295	9.193	-0.3539	0.4038	-0.0176	-1.5229	0.7213	-0.9513	4.411	2.2554	8.7453	-0.5361	1.0143	-0.0643	0.6904	-0.012	-0.1081	8.9952	3.3269	0.5737	-0.4614	1.2929	-1.0206	-0.8597	-0.2792	0.4006
-0.4483	2.5282	9.2623	-0.6002	0.524	-0.1349	-1.5789	0.742	-0.9706	3.9588	1.8548	9.0276	-0.7153	0.8293	0.1836	0.6844	-0.024	-0.1081	8.8778	3.0426	0.3425	-0.424	1.229	-0.8071	-0.8747	-0.2594	0.4542
-0.4518	2.7639	9.0841	-0.3218	0.4344	0.0442	-1.5621	0.7211	-1.0037	4.3516	1.507	8.5651	-0.531	0.8621	0.1824	0.6844	-0.024	-0.1141	9.0403	3.4401	-0.0547	-0.3292	1.2586	-0.7483	-0.9073	-0.2987	0.4345
-0.9923	2.6471	9.1345	-0.5378	0.5244	-0.0741	-1.5412	0.7026	-0.9697	4.1222	1.6799	8.5615	-0.439	0.8307	0.0284	0.6784	-0.024	-0.1021	9.3866	2.985	0.2373	-0.3602	1.2282	-0.7476	-0.8598	-0.2981	0.4177
-0.5632	3.166	9.6025	-0.4149	0.3721	0.1055	-1.5407	0.6643	-0.9877	4.3556	1.7381	8.8005	-0.5967	1.0152	0.0896	0.6664	-0.024	-0.1141	9.4952	3.5533	0.0109	-0.2977	1.4108	-0.748	-0.924	-0.3189	0.398
-0.9317	3.1132	9.1881	-0.3238	0.2199	0.1934	-1.5618	0.7406	-0.9864	4.4691	1.7377	8.7441	-0.4437	0.9835	-0.1569	0.6904	-0.006	-0.1081	9.3894	3.2695	0.4093	-0.0897	1.3539	-1.0312	-0.907	-0.2796	0.4351
-0.6335	2.7648	9.0226	-0.387	0.1891	0.1012	-1.5412	0.7026	-0.9697	4.19	1.2796	9.088	-0.5028	0.9543	0.0895	0.6784	-0.024	-0.0961	9.5607	3.2693	0.4696	-0.2765	1.903	-1.1134	-0.9229	-0.2799	0.4348
-0.3824	2.9906	9.6079	-0.2633	0.221	0.0696	-1.5252	0.7006	-1.0022	4.1264	1.796	8.7963	-0.5346	0.9846	0.0587	0.6844	-0.018	-0.0961	8.9311	3.3836	0.1721	0.2504	1.5067	-1.0709	-0.8751	-0.2416	0.3837
-0.3294	2.8206	9.2023	-0.5091	0.2795	0.1047	-1.5974	0.7038	-1.0064	4.5886	1.4509	8.9793	-0.6257	0.9218	0.0596	0.6784	-0.018	-0.0961	8.8835	3.5546	0.6863	0.4569	1.8468	-1.4431	-0.8601	-0.3172	0.4171
-0.635	3.1157	8.9598	-0.5375	0.4628	0.0475	-1.576	0.7243	-0.9377	4.4694	1.5651	8.7433	-0.6506	0.6433	0.0614	0.6904	-0.018	-0.1021	8.9888	3.3835	0.2304	0.6142	1.7542	-1.3564	-0.9389	-0.2618	0.3996
-0.5745	2.8822	8.9638	-0.2644	0.2523	-0.0835	-1.5606	0.7606	-0.9522	4.477	1.6244	9.1536	-0.6215	0.8002	0.2754	0.6604	-0.024	-0.1141	9.392	2.8715	0.5234	0.2761	1.9358	-1.2834	-0.891	-0.2604	0.4183
-0.5675	3.1689	9.3689	-0.2646	0.2831	-0.1443	-1.5618	0.7406	-0.9864	4.2413	1.5658	8.7975	-0.6213	0.7369	0.1222	0.6724	-0.024	-0.1081	9.3267	3.0418	0.0647	0.0561	1.7849	-1.3702	-0.9229	-0.2799	0.4348
-0.6306	2.9961	9.1948	-0.3877	0.1894	0.0397	-1.5809	0.7408	-1.0042	4.1891	1.8547	9.0906	-0.6179	0.646	0.3071	0.6724	-0.018	-0.1021	9.2711	2.9282	0.1208	-0.0607	1.6292	-1.1221	-0.9072	-0.2799	0.4174
-0.6326	2.9392	9.0788	-0.2652	0.1295	0.0369	-1.5621	0.7211	-1.0037	3.8856	2.1389	8.2077	-0.6838	0.7669	0.0916	0.6724	-0.024	-0.0961	9.5031	3.0987	0.4112	-0.1581	1.6922	-1.2723	-0.8916	-0.2987	0.4171
-0.3306	2.8797	9.1432	-0.1685	0.2519	0.2229	-1.5801	0.7219	-1.0048	4.6939	1.7362	8.5142	-0.9615	0.7638	0.0626	0.7025	-0.012	-0.1021	9.1026	3.2128	0.2323	-0.4267	1.5655	-0.9273	-0.9236	-0.2998	0.3986
-0.4579	2.5348	8.7367	-0.6657	0.1866	0.0432	-1.5781	0.7231	-0.9712	4.3555	1.8531	8.801	-0.4678	0.7694	0.1211	0.6844	-0.024	-0.0901	9.2789	3.3835	0.579	-0.4323	1.2938	-1.0829	-0.9233	-0.2806	0.3993
-0.3268	3.2269	9.3724	-0.5407	0.218	0.1345	-1.5621	0.7211	-1.0037	4.351	1.8521	8.5667	-0.6218	0.7045	-0.0313	0.6965	-0.024	-0.1081	9.3319	3.042	0.3508	-0.5563	1.2329	-1.0797	-0.9229	-0.2799	0.4348
-0.3911	3.1716	9.1385	-0.1708	0.2528	0.0076	-1.524	0.7207	-0.9681	4.2463	1.9121	9.092	-0.7149	0.7663	0.0611	0.7025	-0.006	-0.1261	9.4965	3.3828	0.068	-0.5882	1.2333	-1.1095	-0.9394	-0.2998	0.4161
-0.6901	2.4709	9.2004	-0.2321	0.2212	0.1	-1.5971	0.7233	-0.989	4.2431	1.8538	8.916	-0.4714	0.7965	-0.2785	0.6844	-0.006	-0.1081	9.6785	3.1556	0.7005	-0.5881	1.2638	-1.1092	-0.8762	-0.3364	0.4339
-0.2115	3.0554	9.0847	-0.2	0.2518	0.1617	-1.5441	0.7203	-1.0027	4.0099	2.256	8.7376	-0.6847	0.7975	0.0607	0.6784	-0.024	-0.1081	9.2748	3.2695	0.3499	-0.5	1.2356	-1.2657	-0.9081	-0.3186	0.3984
-0.3846	2.9921	9.4911	-0.141	0.1305	0.0969	-1.5224	0.6829	-0.9693	4.4713	1.7382	8.8613	-0.5592	0.7064	0.0913	0.6844	-0.012	-0.1141	9.2198	3.6109	0.4636	-0.473	1.1765	-1.3899	-0.8915	-0.2799	0.3999
-0.8163	2.8833	8.9011	-0.1432	-0.0224	0.1243	-1.5621	0.7211	-1.0037	4.2416	1.3932	8.7967	-0.4073	0.7686	-0.0329	0.7025	-0.018	-0.1081	8.9893	3.0423	0.2301	-0.3462	1.2361	-1.3011	-0.892	-0.3179	0.4165
-0.8767	3.0584	8.8979	-0.2357	0.0074	0.0954	-1.5438	0.7398	-0.9853	4.5893	1.6812	9.0389	-0.6209	0.6739	-0.0004	0.6784	-0.012	-0.1141	9.0458	3.2129	0.2313	-0.2809	1.1126	-1.1811	-0.8752	-0.2604	0.4008
-0.2679	2.6447	9.264	-0.3553	0.2198	0.1322	-1.5971	0.7233	-0.989	3.8384	2.0263	8.7333	-0.5293	0.7055	-0.0318	0.6904	-0.024	-0.1141	8.8281	3.2704	0.7422	-0.1638	1.3596	-1.4284	-0.9243	-0.3566	0.4324
-0.8121	2.8803	9.1347	-0.3562	0.1279	0.1918	-1.5799	0.7414	-0.9874	4.234	2.0243	8.4481	-0.4991	0.8003	0.1518	0.6784	-0.006	-0.1021	8.9385	3.2701	0.5726	-0.2009	1.1796	-1.6131	-0.8907	-0.2785	0.471
-0.9305	3.0541	9.2472	-0.3848	0.342	0.0738	-1.5407	0.6643	-0.9877	4.1844	2.0262	8.8571	-0.6521	0.7366	0.1224	0.6844	-0.024	-0.1081	9.1069	3.0992	0.4612	-0.1689	1.2096	-1.5831	-0.8591	-0.2782	0.4539
-0.809	2.9949	9.3085	-0.634	0.1558	0.1651	-1.5237	0.7402	-0.9507	4.2916	1.7942	8.4482	-0.6231	0.7982	0.0604	0.6904	-0.03	-0.1021	9.3277	3.8949	0.1798	-0.2918	1.2092	-1.5487	-0.891	-0.2604	0.4183
-0.6275	3.0522	9.3693	-0.4817	0.1275	0.0088	-1.5827	0.7591	-1.0203	4.1263	1.8535	8.7966	-0.5601	0.7688	0.1524	0.6844	-0.024	-0.1021	9.3315	3.3832	0.3511	-0.2332	1.0583	-1.6439	-0.8918	-0.3176	0.4342
-0.6254	3.0508	9.4861	-0.5433	0.096	0.0704	-1.542	0.7215	-0.9691	4.068	1.7958	8.7367	-0.742	0.612	0.1236	0.6904	-0.03	-0.1021	8.7748	2.9863	0.9127	-0.5668	1.1769	-1.4179	-0.8754	-0.2608	0.3831
-0.6275	3.0522	9.3693	-0.4812	0.158	0.0095	-1.5582	0.704	-0.954	3.8913	1.3923	8.4386	-0.6238	0.7655	-0.1238	0.6724	-0.024	-0.1141	9.3925	3.2696	0.581	-0.4995	1.083	-1.2362	-0.8913	-0.298	0.4526
-0.5693	2.1789	9.2061	-0.4181	0.2196	0.0408	-1.5428	0.7404	-0.9686	4.1778	1.3343	8.4439	-0.7455	0.7345	0	0.6784	-0.03	-0.1081	9.5016	3.4399	0.3542	-0.7525	0.9025	-1.3838	-0.9233	-0.2991	0.4342
-1.1136	3.3476	9.1236	-0.542	0.157	0.1025	-1.5945	0.6861	-0.9734	4.1212	1.6222	8.5027	-0.777	0.7333	-0.092	0.6784	-0.012	-0.0841	9.4976	3.326	0.1252	-0.6264	1.0234	-1.3251	-0.9065	-0.2785	0.4885
-0.6351	2.4161	8.9102	-0.3544	0.3118	0.0727	-1.5266	0.7579	-0.9837	4.1272	1.2784	8.794	-0.6197	0.6754	0.1533	0.6965	-0.042	-0.1081	8.9906	3.668	0.345	-0.8179	0.965	-1.5042	-0.8757	-0.2984	0.4174
-0.6905	2.8211	9.196	-0.3254	0.2206	0.0396	-1.5804	0.7024	-1.0221	4.4715	1.6232	8.8607	-0.8119	0.9185	-0.0929	0.6904	-0.024	-0.1021	9.222	3.4973	0.578	-0.7816	0.8711	-1.3217	-0.8743	-0.2402	0.4548
-0.509	2.8785	9.2568	-0.2022	0.2219	0.0074	-1.508	0.7187	-1.0006	3.901	1.5096	8.9664	-0.6546	0.797	-0.0316	0.6844	-0.006	-0.1021	8.9375	3.2132	0.5153	-0.7835	0.872	-1.3831	-0.8752	-0.2974	0.4707
-0.7532	3.1144	9.0744	-0.3864	0.3427	-0.08	-1.5773	0.7042	-0.9718	4.295	1.7374	8.6236	-0.7453	0.703	-0.0613	0.6965	-0.018	-0.1081	9.223	3.4973	0.6352	-0.9334	0.9306	-1.2245	-0.9239	-0.3374	0.433
-0.3297	2.9957	9.2001	-0.3511	0.4334	0.1983	-1.5582	0.704	-0.954	4.2327	1.4487	8.3283	-0.6777	0.4572	0.032	0.6844	-0.006	-0.0961	8.9371	3.5544	0.5156	-0.6853	0.7781	-1.2024	-0.8908	-0.2601	0.4361
-0.6878	3.1691	9.3668	-0.3851	0.3421	0.043	-1.5749	0.6476	-0.9736	4.1807	1.5651	8.6207	-0.7773	0.733	-0.1227	0.6784	-0.024	-0.0961	8.8178	3.1562	0.1698	-0.7674	0.9254	-0.8608	-0.8601	-0.3357	0.452
-0.7992	2.7548	9.837	-0.2323	0.3444	-0.1126	-1.5621	0.7211	-1.0037	4.0738	1.6246	9.0288	-0.7438	0.6097	-0.1222	0.6904	-0.006	-0.1081	9.2132	2.9851	0.0625	-0.9555	1.0788	-0.9461	-0.9075	-0.2991	0.4167
-0.5648	2.7589	9.4908	-0.2313	0.2516	0.1314	-1.5441	0.7203	-1.0027	4.123	1.8527	8.6209	-0.5277	0.7075	0.1833	0.6724	-0.018	-0.1081	8.9373	2.5308	0.4576	-0.6392	1.1063	-0.7402	-0.9234	-0.2994	0.4164
-0.2016	2.8153	9.6132	-0.1102	0.1616	0.0356	-1.56	0.7223	-0.9702	4.2441	1.9116	8.9748	-0.4112	0.9859	0.058	0.6784	-0.006	-0.1141	9.6133	3.2122	0.2417	-0.7654	1.2597	-0.8274	-0.9238	-0.3001	0.3809
-0.329	2.5288	9.206	-0.2293	0.3123	0.2249	-1.5605	0.6833	-1.0049	4.5786	1.5061	8.4524	-0.8408	0.9523	0.2451	0.6904	-0.024	-0.1261	9.0494	3.668	0.4605	-0.6374	1.3798	-0.7074	-0.8591	-0.2782	0.4539
-0.6339	3.0566	9.0189	-0.1987	0.3128	0.1938	-1.542	0.7215	-0.9691	4.1833	2.026	8.7985	-0.3824	1.0789	0.0573	0.6844	-0.018	-0.1081	8.9274	3.8384	0.0007	-0.7025	1.2898	-0.7983	-0.8916	-0.2987	0.4171
-0.6349	3.0574	8.9605	-0.1384	0.2833	0.1001	-1.5814	0.7018	-1.0389	4.0713	1.7966	8.9124	-0.6295	1.0758	-0.0027	0.6784	-0.018	-0.1021	9.2187	3.6109	0.4064	-0.7001	1.4411	-0.7357	-0.9394	-0.2813	0.3812
-0.2695	2.9956	9.2012	-0.1418	0.0386	0.1564	-1.5232	0.7018	-0.9687	4.3579	1.6811	8.9174	-0.3185	0.9553	-0.0038	0.6784	-0.024	-0.1021	8.9872	3.0422	0.1156	-0.6677	1.288	-0.6765	-0.907	-0.2796	0.4351
-0.8624	2.6404	9.6622	-0.2673	0.0382	-0.0266	-1.5968	0.6654	-1.0243	4.2386	1.9103	8.6819	-0.7169	0.8591	0.0606	0.6784	-0.024	-0.1141	9.4464	3.0419	0.4101	-0.6417	1.2294	-0.8314	-0.892	-0.3179	0.4165
-0.0823	2.7575	9.5577	-0.2625	0.2515	0.101	-1.5461	0.7191	-1.0362	4.4689	1.8527	8.7446	-0.6224	0.7991	0.1525	0.6724	-0.024	-0.1141	9.4998	3.2692	0.2397	-0.6952	1.195	-0.5535	-0.8911	-0.2792	0.4355
-0.565	2.8756	9.4893	-0.3214	0.5573	-0.1069	-1.5252	0.7006	-1.0022	4.0712	1.8541	8.9127	-0.8036	0.6432	0.216	0.6724	-0.024	-0.1141	9.5029	3.2693	0.4113	-0.7605	1.0137	-0.6452	-0.9072	-0.2799	0.4174
-0.5038	2.9332	9.5481	-0.5046	0.5853	0.0498	-1.5613	0.7022	-1.0043	4.1246	1.5654	8.6781	-0.649	0.6135	0.1845	0.6904	-0.03	-0.1021	9.6124	4.0083	0.2423	-0.764	0.8019	-0.7389	-0.9075	-0.2991	0.4167
-1.1131	2.9975	9.128	-0.5045	0.5545	0.1106	-1.5935	0.6867	-0.9567	4.2376	1.1621	8.5614	-0.8347	0.6108	0.0935	0.6844	-0.03	-0.1141	9.2218	3.611	0.5781	-0.8	0.9872	-0.9207	-0.8761	-0.3176	0.4168
-0.5668	2.6436	9.3755	-0.4121	0.617	-0.0122	-1.5441	0.7203	-1.0027	3.8389	1.7387	8.732	-0.7409	0.5817	0.1853	0.6904	-0.024	-0.1081	9.387	3.5537	0.295	-0.706	1.0476	-0.8923	-0.8906	-0.2597	0.4538
-0.3965	2.4756	8.7969	-0.4453	0.5562	-0.1361	-1.5812	0.7213	-1.0215	4.7034	1.3357	8.981	-0.5872	0.5509	0.0309	0.6965	-0.024	-0.0901	9.0475	3.5542	0.346	-0.6835	1.0516	-1.1695	-0.8918	-0.2991	0.3993
-0.3275	2.9942	9.3169	-0.5096	0.4643	-0.2296	-1.526	0.7195	-1.0017	4.5327	1.9116	9.0975	-0.6806	0.5806	0.0005	0.6904	-0.024	-0.1021	9.561	3.8949	0.5273	-0.8081	1.4176	-1.2243	-0.8754	-0.2792	0.418
-0.5734	2.8815	9.0222	-0.5698	0.5553	-0.2268	-1.5595	0.6839	-0.9881	4.0069	2.0827	8.5611	-0.6497	0.6127	0.0924	0.6784	-0.006	-0.0841	9.2768	3.3834	0.4645	-0.7455	1.3259	-1.1962	-0.8913	-0.2796	0.4177
-0.8086	2.703	9.3121	-0.4413	0.8314	-0.1917	-1.5979	0.7422	-0.9884	4.2384	1.3349	8.6207	-0.6499	0.6124	0.0616	0.6724	-0.024	-0.1081	8.8179	3.0994	0.1698	-0.6221	1.1738	-1.2011	-0.8745	-0.2405	0.437
-0.6347	2.8823	8.9627	-0.6333	0.4939	-0.2889	-1.5979	0.7422	-0.9884	4.3534	1.7376	8.6833	-0.7448	0.7354	0.0922	0.6904	-0.018	-0.1081	9.0969	3.5538	-0.0536	-0.3673	1.3838	-0.992	-0.8916	-0.2987	0.4171
-0.2665	3.1101	9.3749	-0.3866	0.3735	-0.1408	-1.5956	0.6855	-0.9902	4.1278	1.6237	8.8541	-0.6482	0.5193	0.0314	0.6844	-0.018	-0.1081	9.0458	3.2129	0.2313	-0.3114	1.2343	-1.1792	-0.875	-0.2601	0.4186
-0.6277	3.169	9.3678	-0.4171	0.373	-0.1097	-1.5247	0.6623	-1.0202	4.2435	1.5663	8.9147	-0.5266	0.6454	0.1529	0.6844	-0.006	-0.0901	8.9319	3.5542	0.2294	-0.2765	1.2934	-1.0569	-0.8921	-0.3183	0.3987
-0.63	2.5875	9.2	-0.2902	0.4959	0.0144	-1.5791	0.7225	-0.988	4.1844	1.3358	8.7954	-0.5914	0.7679	0.0911	0.6844	-0.018	-0.1201	9.5101	3.3834	0.8121	-0.0313	1.4166	-1.1554	-0.9072	-0.2799	0.4174
-0.695	2.9991	8.9602	-0.1987	0.3128	0.1938	-1.5605	0.6833	-1.0049	4.8164	1.6228	8.9259	-0.6512	0.706	0.1533	0.7025	-0.012	-0.1021	9.5045	2.8144	0.4682	0.1502	1.571	-1.3132	-0.9226	-0.2607	0.4354
-0.6853	2.8758	9.4872	-0.2333	0.1294	0.1288	-1.5801	0.7219	-1.0048	4.3557	1.6806	8.8002	-0.6561	0.8585	-0.0627	0.6844	-0.012	-0.1081	9.1635	3.2129	0.4623	0.5454	1.666	-1.5701	-0.8757	-0.3169	0.4523
-0.6845	2.2921	9.4946	-0.3263	0.1286	0.0991	-1.56	0.7223	-0.9702	4.3588	1.8539	8.9767	-0.7164	0.8596	0.122	0.6784	0	-0.1081	8.9365	3.1563	0.4581	0.3289	1.7268	-1.5632	-0.8913	-0.298	0.4526
-0.5167	3.117	8.8451	-0.139	0.1297	0.2813	-1.5611	0.7217	-0.9869	4.5273	1.8528	8.8043	-0.529	0.7694	0.1829	0.6784	-0.03	-0.1141	9.2654	3.326	-0.1651	0.3748	1.9941	-1.1015	-0.9082	-0.3374	0.4155
-1.1732	2.9392	9.1276	-0.1381	0.2216	0.2218	-1.5968	0.6654	-1.0243	4.4764	1.3366	9.0938	-0.8098	0.8893	0.0916	0.6904	-0.024	-0.0961	9.1567	3.6676	0.1192	-0.1117	2.1117	-0.8094	-0.9079	-0.3183	0.4161
-0.3833	2.8163	9.5517	-0.2012	0.2215	0.0996	-1.5402	0.7032	-0.953	4.1291	1.509	8.9122	-0.5642	0.9858	0.2125	0.6844	-0.018	-0.1081	9.4443	3.0418	0.2957	-0.17	1.7747	-0.6567	-0.9084	-0.3378	0.3977
-0.7434	2.8744	9.603	-0.3278	0.037	0.0972	-1.5611	0.7217	-0.9869	4.3478	1.7938	8.3907	-0.6226	0.7988	0.1218	0.6965	-0.018	-0.0901	9.1647	3.0992	0.5194	-0.4416	1.9237	-0.4323	-0.9079	-0.3183	0.4161
-0.6221	2.9902	9.662	-0.2899	0.2805	0.3788	-1.5585	0.6845	-0.9714	4.0672	1.6231	8.6773	-0.7479	0.8902	0.122	0.6904	-0.018	-0.0901	9.1016	3.1559	0.175	-0.6328	1.6519	-0.5824	-0.9241	-0.3193	0.3803
-0.5098	2.7041	9.2006	-0.1417	0.0693	0.1263	-1.5767	0.6658	-0.9898	4.3493	1.564	8.4482	-0.5958	0.9846	0.1206	0.6784	-0.012	-0.1081	8.7618	3.4407	0.2262	-0.779	1.404	-0.2727	-0.8755	-0.2981	0.4352
-0.6861	2.6431	9.4318	-0.2634	0.1595	0.1605	-1.5781	0.7231	-0.9712	4.1799	2.0827	8.623	-0.5636	0.8912	0.0287	0.6724	-0.024	-0.1081	9.3817	3.5535	0.0089	-0.7779	1.1597	-0.2133	-0.8597	-0.2792	0.4006
-0.3836	3.0497	9.5487	-0.2353	0.0688	0.0352	-1.5629	0.74	-1.0031	4.467	2.37	8.6884	-0.5949	0.8903	-0.0325	0.6844	-0.018	-0.0961	9.1545	2.9282	-0.053	-0.9356	1.1305	-0.301	-0.9082	-0.3559	0.4505
-0.575	3.2907	8.9586	-0.3252	0.2512	0.0095	-1.5611	0.7217	-0.9869	4.6904	1.2176	8.2775	-0.626	0.8897	-0.0631	0.6844	-0.012	-0.1081	9.1633	3.3266	0.4624	-0.844	1.0092	-0.3354	-0.9074	-0.2803	0.3996
-0.3287	3.0533	9.2578	-0.2623	0.2206	0.1618	-1.5252	0.7006	-1.0022	4.2457	1.6243	9.0321	-0.5024	0.9867	0.2429	0.6784	-0.024	-0.1141	9.4966	3.3259	0.068	-1.0357	0.9205	-0.5148	-0.8915	-0.2799	0.3999
-0.5644	2.4671	9.4945	-0.3832	0.4951	-0.0152	-1.583	0.7396	-1.0377	4.2971	1.853	8.7413	-0.6623	1.1364	-0.0951	0.6844	-0.018	-0.1081	8.9913	3.0993	0.3446	-1.0647	0.95	-0.4522	-0.9079	-0.2998	0.3812
-0.504	3.1082	9.5459	-0.2636	0.2827	-0.0521	-1.5783	0.7036	-0.9886	4.5266	1.6225	8.7447	-0.6572	0.9524	0.0596	0.6904	-0.024	-0.0961	9.4427	3.4967	0.2388	-1.0911	0.887	-0.2983	-0.8918	-0.2991	0.3993
-0.3288	3.1117	9.2571	-0.2295	0.4355	0.0123	-1.5396	0.6649	-0.9709	4.3488	1.9091	8.4498	-0.6269	0.9204	-0.094	0.6904	-0.018	-0.1201	9.1624	3.2129	0.405	-0.969	0.644	-0.3346	-0.8591	-0.2597	0.4189
-0.8717	3.2299	9.1877	-0.3523	0.4955	-0.0156	-1.5961	0.7239	-0.9722	4.2424	1.566	8.8561	-0.4113	0.9223	-0.126	0.6724	-0.012	-0.0961	9.0531	3.2132	0.6319	-0.9708	0.6753	-0.3957	-0.8757	-0.2984	0.4174
-0.1384	2.9297	9.788	-0.3852	0.2191	0.2249	-1.5592	0.7034	-0.9708	4.8697	1.3917	8.6917	-0.3771	0.8316	0.0587	0.6965	-0.024	-0.1141	9.1634	3.2698	0.4623	-0.5699	0.7676	-0.4685	-0.939	-0.2806	0.4167
-0.3273	2.8191	9.3191	-0.352	0.3415	0.2579	-1.5603	0.7028	-0.9875	4.1324	1.5097	9.0879	-0.4676	0.7379	0.0598	0.6965	-0.006	-0.1021	9.7807	3.0412	0.073	-0.3143	0.6116	-0.2008	-0.9243	-0.3381	0.3974
-0.4494	2.5289	9.2039	-0.3243	0.1893	0.1927	-1.5438	0.7398	-0.9853	4.1258	1.5082	8.7365	-0.2529	0.7704	-0.0031	0.6724	-0.03	-0.1081	8.9939	3.4975	0.5166	-0.1092	0.8	-0.6049	-0.8446	-0.3176	0.3819
-0.6951	3.0575	8.9594	-0.3845	0.2804	0.1954	-1.5582	0.6267	-1.0067	3.7267	1.6244	8.8464	-0.4713	0.9237	0.0895	0.6844	0.006	-0.1021	9.4999	3.1554	0.2396	0.0118	1.1061	-0.729	-0.8757	-0.2984	0.4174
-0.87	2.7622	9.2519	-0.2337	0.0681	0.1889	-1.5441	0.7203	-1.0027	4.1211	1.6797	8.5029	-0.4101	0.9237	0.0276	0.6784	-0.012	-0.0961	8.7698	3.6685	0.6843	0.1947	1.0771	-0.8269	-0.8436	-0.2786	0.4187
-0.6252	2.9341	9.4876	-0.2335	0.0373	0.2498	-1.543	0.7209	-0.9859	4.2401	1.6805	8.7394	-0.4408	0.8919	-0.0335	0.6965	-0.018	-0.1141	9.1003	3.3264	0.1179	0.1099	1.2561	-0.5771	-0.8918	-0.2991	0.3993
-0.8734	2.9395	9.0745	-0.0806	-0.0528	0.2459	-1.5438	0.7398	-0.9853	4.4735	1.7387	8.9784	-0.4742	1.1106	0.242	0.6784	-0.012	-0.1141	9.1622	3.4403	0.4052	0.3633	1.3145	-0.3998	-0.8595	-0.2789	0.4183
-0.9315	2.9965	9.1895	-0.138	0.1908	0.2827	-1.5425	0.6825	-1.0039	4.0699	1.9689	8.8546	-0.5332	0.9228	0.0591	0.6784	-0.018	-0.0901	9.4448	3.4968	0.3532	0.0843	1.4974	-0.4207	-0.9223	-0.2416	0.436
-0.6947	2.7656	8.9631	-0.417	0.1884	0.1938	-1.5812	0.7213	-1.0215	4.0673	1.5655	8.677	-0.7499	0.983	0.1215	0.6965	-0.018	-0.1141	9.2179	3.3834	0.349	-0.0111	1.59	-0.5093	-0.9067	-0.2604	0.4357
-0.8107	2.6461	9.1961	-0.2941	0.2822	-0.0209	-1.5946	0.7634	-0.9207	4.355	1.4503	8.7406	-0.5028	0.9861	0.1815	0.6724	-0.018	-0.1081	9.5482	3.2688	-0.2172	-0.1052	1.4991	-0.538	-0.8921	-0.3183	0.3987
-0.2061	2.9933	9.3774	-0.11	0.1923	0.0056	-1.56	0.7223	-0.9702	4.3043	1.4519	9.091	-0.8387	0.7963	0.0924	0.6844	-0.018	-0.0961	8.9928	3.5543	0.4594	-0.2686	1.4421	-0.8101	-0.9072	-0.2799	0.4174
-0.6924	2.6474	9.0814	-0.1989	0.2206	0.3148	-1.558	0.7235	-0.9366	4.2394	2.0831	8.7412	-0.6537	0.7981	0.0913	0.6904	-0.018	-0.1201	9.902	3.4395	0.5332	-0.2057	1.4417	-0.7812	-0.924	-0.3189	0.398
-0.3925	2.5894	9.029	-0.3242	0.1585	0.2535	-1.5242	0.7012	-0.9855	4.4174	1.6815	9.0356	-0.7767	0.829	0.2147	0.6724	-0.012	-0.1021	9.1563	3.1557	0.0616	-0.6676	1.3185	-0.6762	-0.9241	-0.3193	0.3803
-0.626	2.7013	9.4321	-0.2338	0.1604	0.0372	-1.5605	0.6833	-1.0049	4.1266	1.681	8.7958	-0.7102	0.6135	0.2464	0.6965	-0.006	-0.1021	9.3317	3.2126	0.3509	-0.6409	1.1681	-0.8011	-0.8923	-0.3371	0.4158
-0.689	2.4702	9.2588	-0.2291	0.2815	0.2858	-1.56	0.7223	-0.9702	4.2473	1.2795	9.0891	-0.6499	0.676	0.2456	0.6904	-0.024	-0.1021	9.1105	3.5544	0.6904	-0.7367	1.1389	-0.8907	-0.8916	-0.2987	0.4171
-0.7046	3.0641	8.4338	-0.2616	0.3434	0.0415	-1.541	0.7221	-0.9524	4.2409	1.1629	8.7371	-0.7743	0.705	0.1847	0.6844	-0.018	-0.0961	9.2155	3.6676	0.2347	-0.7045	1.2298	-0.8602	-0.8916	-0.2987	0.4171
-0.5717	2.4138	9.0864	-0.1674	0.436	0.0423	-1.5608	0.7412	-0.9696	4.1785	1.5646	8.5035	-0.7132	0.6097	-0.1531	0.6844	-0.024	-0.0961	9.0495	3.6111	0.4605	-0.5756	1.0446	-0.6812	-0.8909	-0.2789	0.4532
-0.206	2.8766	9.3789	-0.1393	0.3452	-0.083	-1.559	0.7229	-0.9534	4.36	1.7391	9.0348	-0.7431	0.6741	0.154	0.6844	-0.024	-0.1081	8.8728	2.9286	0.0562	-0.5754	1.1055	-0.6807	-0.8752	-0.2789	0.4358
-0.6894	2.762	9.2551	-0.2292	0.4353	0.0431	-1.5448	0.7392	-1.0021	4.0072	1.9102	8.5603	-0.7711	0.4551	-0.0904	0.6724	-0.018	-0.1201	9.4988	3.2123	0.1824	-0.5778	0.9542	-0.7433	-0.9081	-0.3186	0.3984
-0.3341	3.1737	8.9643	-0.3821	0.4639	0.1379	-1.5639	0.7394	-1.0199	4.3027	1.7968	9.034	-0.6191	0.6445	0.1534	0.6604	-0.018	-0.1141	8.826	3.3272	0.6278	-0.4864	1.0768	-0.8065	-0.8601	-0.3172	0.4171
-0.8085	2.5863	9.3136	-0.3193	0.5256	0.1384	-1.5765	0.6853	-0.9724	4.1335	1.51	9.1465	-0.7753	0.6403	-0.1222	0.6784	-0.018	-0.1021	9.387	3.4968	0.295	-0.2762	1.1104	-1.0276	-0.939	-0.2806	0.4167
-0.6317	3.0552	9.1357	-0.1642	0.5884	0.1071	-1.5415	0.6831	-0.9871	4.5322	2.2567	9.099	-0.8988	0.6705	-0.0602	0.6965	-0.012	-0.1081	8.8184	3.4975	0.2273	-0.3663	1.0786	-0.933	-0.9072	-0.2799	0.4174
-0.3378	2.7681	8.7359	-0.4467	0.4337	-0.0772	-1.542	0.7215	-0.9691	4.0079	2.1405	8.6199	-0.7763	0.766	0.0922	0.6904	-0.018	-0.1141	8.9352	3.4406	0.4011	-0.1431	1.0756	-0.7246	-0.8918	-0.3176	0.4342
-0.6856	3.0509	9.485	-0.2941	0.2822	-0.0209	-1.5412	0.7026	-0.9697	3.838	1.6234	8.6729	-0.7438	0.6733	0.0618	0.6844	-0.018	-0.1081	8.9874	3.7247	0.1734	-0.1459	1.0769	-0.8167	-0.923	-0.2614	0.3999
-0.5113	2.9967	9.1385	-0.3205	0.4954	0.0763	-1.5062	0.7004	-0.9844	3.958	1.682	8.9683	-0.5916	0.7676	0.0604	0.6844	-0.024	-0.1081	8.9938	3.5544	0.5167	-0.4561	1.1686	-0.8374	-0.892	-0.3179	0.4165
-0.3286	2.9949	9.2585	-0.383	0.4335	0.1065	-1.5276	0.7573	-1.0005	4.2976	1.5079	8.7398	-0.9582	0.6728	0.2475	0.6965	-0.024	-0.1201	9.3338	3.1558	0.4654	-0.4239	1.2594	-0.8069	-0.8918	-0.3176	0.4342
-0.9344	2.7652	9.0173	-0.2308	0.436	-0.1107	-1.541	0.7221	-0.9524	4.4128	1.7955	8.8018	-0.6204	0.6745	0.0611	0.6965	-0.012	-0.1081	8.9859	3.2128	0.0585	-0.362	1.2595	-0.8088	-0.8911	-0.2608	0.4005
-0.5697	3.2287	9.2514	-0.5076	0.2482	0.2885	-1.5982	0.7227	-1.0058	4.0622	1.9671	8.4445	-0.7413	0.5811	0.1238	0.6844	-0.018	-0.0961	9.1656	3.213	0.5767	-0.2283	1.1025	-0.476	-0.8913	-0.298	0.4526
-0.6412	3.0034	8.6108	-0.476	0.525	-0.0749	-1.5451	0.7197	-1.0195	4.296	1.8527	8.6827	-0.5885	0.6127	0.0305	0.6784	-0.018	-0.1141	8.9926	3.7249	0.4596	-0.2696	1.1073	-0.8127	-0.8756	-0.2796	0.4002
-0.3838	2.4668	9.4977	-0.1009	0.6807	0.1083	-1.5995	0.7026	-1.0399	4.0675	2.0834	8.7379	-0.5894	0.6115	-0.0924	0.6904	-0.018	-0.1081	9.2147	3.4401	0.1773	-0.2067	1.1374	-0.7837	-0.9079	-0.3183	0.4161
-0.8051	3.2254	9.5391	-0.1353	0.5281	0.0132	-1.5626	0.7595	-0.9858	3.9599	1.8551	9.0862	-0.7123	0.6427	0.0618	0.6784	-0.024	-0.1081	8.9927	3.6681	0.4595	-0.3908	1.3499	-0.7457	-0.94	-0.3381	0.4149
-0.8129	2.706	9.0785	0.0172	0.5304	-0.1732	-1.5793	0.703	-1.0053	4.3454	1.9083	8.274	-0.6501	0.6439	0.1229	0.6965	-0.012	-0.1021	9.2732	3.7245	0.2931	-0.3852	1.3472	-0.5615	-0.892	-0.2994	0.3815
-0.3921	3.114	9.0808	-0.2012	0.283	0.0087	-1.5592	0.7034	-0.9708	4.4634	1.8514	8.4517	-0.5297	0.7685	0.0907	0.6784	-0.018	-0.1021	9.443	3.2693	0.2386	-0.57	1.3467	-0.5253	-0.9236	-0.3182	0.4336
-0.5113	2.9967	9.1385	-0.1662	0.5277	0.0135	-1.5775	0.6847	-0.9892	4.0672	1.6231	8.6773	-0.7755	0.6718	-0.0609	0.6904	-0.018	-0.0961	9.1621	3.4972	0.4053	-0.7271	1.1954	-0.5832	-0.9395	-0.3186	0.4333
-0.6848	2.5256	9.4916	-0.3868	0.2813	-0.0198	-1.6131	0.7253	-0.9565	4.6454	1.7384	8.9817	-0.838	0.7653	0.0926	0.6904	-0.03	-0.1021	9.3852	3.2693	0.1803	-0.7867	1.3467	-0.5188	-0.9241	-0.3378	0.4152
-0.5702	2.8209	9.1981	-0.3844	0.4649	-0.0774	-1.5778	0.7426	-0.9538	3.9577	1.8546	8.969	-0.5934	0.7652	-0.1854	0.6965	-0.018	-0.1081	9.5048	3.44	0.5259	-0.8169	1.2853	-0.4877	-0.9075	-0.2991	0.4167
-0.5669	2.7603	9.374	-0.3215	0.4343	0.075	-1.5226	0.6635	-0.9867	4.4708	1.3928	8.8011	-0.5321	0.8924	0.1207	0.6844	0	-0.1141	9.3785	3.6102	-0.1628	-0.545	1.2276	-0.7114	-0.924	-0.3189	0.398
-0.5104	3.1126	9.1955	-0.1949	0.6188	0.0774	-1.5399	0.7227	-0.9356	4.1834	1.9684	8.7982	-0.5932	0.7973	-0.0627	0.6904	-0.024	-0.1081	9.2734	3.5538	0.2929	-0.9401	1.1935	-0.454	-0.8916	-0.2987	0.4171
-0.1483	3.1698	9.2595	-0.139	0.345	-0.0523	-1.5399	0.7227	-0.9356	4.6438	2.0257	8.9244	-0.6574	0.9521	0.0289	0.6784	-0.018	-0.1141	8.9339	3.6112	0.344	-0.8588	1.0771	-0.8261	-0.923	-0.2614	0.3999
-0.6215	3.3397	9.716	-0.1402	0.3148	-0.1144	-1.5793	0.703	-1.0053	4.2364	1.9098	8.5647	-0.8118	0.9821	0.0911	0.6724	-0.018	-0.0961	8.9404	3.4408	0.6872	-1.0494	1.0488	-0.9742	-0.8759	-0.2988	0.3996
-0.9214	2.5813	9.7203	-0.1724	0.0997	0.0966	-1.5244	0.6818	-1.0028	4.2407	1.9684	8.7993	-0.5971	1.0146	0.0282	0.6965	-0.03	-0.1081	9.1633	3.3266	0.4624	-0.7996	1.1089	-0.9198	-0.907	-0.2796	0.4351
-0.5672	2.9938	9.3711	-0.1089	0.1611	0.1586	-1.5817	0.7597	-1.0036	4.5257	2.1977	8.7473	-0.6233	0.8297	0.1216	0.6904	-0.024	-0.1021	9.1547	3.5538	0.0047	-1.1433	1.0188	-1.0024	-0.9241	-0.3193	0.3803
-0.8124	3.1138	9.1318	-0.3292	-0.0855	0.156	-1.543	0.7209	-0.9859	4.2401	1.6805	8.7394	-0.6885	0.9833	0.0904	0.6724	-0.018	-0.1081	9.2713	3.6106	0.1785	-0.99	1.1414	-1.0675	-0.908	-0.3371	0.4333
-0.6306	2.9961	9.1948	0.0074	-0.173	-0.0038	-1.5252	0.7006	-1.0022	4.1939	1.6257	9.3239	-0.6288	1.0449	-0.0025	0.6904	-0.018	-0.1141	9.2743	3.6676	0.3503	-1.0792	1.1092	-0.9421	-0.892	-0.3179	0.4165
-0.5643	2.4087	9.4952	-0.1746	-0.0532	0.1241	-1.5438	0.7398	-0.9853	4.3557	1.6806	8.8002	-0.6288	1.0449	-0.0025	0.7025	-0.03	-0.0901	9.0506	3.5543	0.5177	-1.2088	1.0509	-1.1231	-0.9233	-0.2806	0.3993
-0.6313	2.705	9.1401	-0.1419	-0.0229	0.2473	-1.5613	0.7022	-1.0043	4.1909	1.3949	9.1471	-0.6279	1.0461	0.1204	0.6664	-0.024	-0.0961	9.7227	3.2119	0.0148	-1.3386	0.9622	-1.3043	-0.9084	-0.3378	0.3977
-0.5082	3.0528	9.313	-0.2061	-0.0533	0.0629	-1.5626	0.7595	-0.9858	4.3532	1.9101	8.6841	-0.5373	1.0447	-0.126	0.6904	-0.024	-0.1201	9.2178	3.4971	0.3491	-1.4316	0.9317	-1.3018	-0.8436	-0.2786	0.4187
-0.5765	2.8253	8.8477	-0.1737	0.0387	0.0645	-1.5961	0.7239	-0.9722	4.1302	2.1421	9.0322	-0.5689	1.1386	0.0273	0.6724	-0.042	-0.1021	9.1588	3.6677	0.2337	-1.4018	0.8409	-1.3341	-0.9075	-0.2991	0.4167
-0.862	3.1065	9.7147	-0.2663	0.0993	-0.0253	-1.5436	0.7593	-0.968	4.408	2.0821	8.5688	-0.6898	1.0134	-0.002	0.6844	-0.03	-0.1321	8.9815	3.4401	-0.1702	-1.4295	0.687	-1.2116	-0.9394	-0.2813	0.3812
-1.0454	2.8755	9.5393	-0.0818	0.0707	-0.0589	-1.525	0.7201	-0.9849	4.7573	1.3924	8.8066	-0.6586	0.9825	-0.0327	0.6844	-0.018	-0.1141	8.828	3.3841	0.7423	-1.3363	0.7783	-1.2136	-0.8757	-0.3169	0.4523
-0.7497	2.8204	9.2533	-0.1699	0.1909	0.1908	-1.6141	0.7247	-0.9733	4.0627	1.6795	8.4432	-0.6295	1.0758	-0.0027	0.6965	-0.018	-0.1021	8.7698	3.7254	0.6843	-1.1406	0.9566	-0.9108	-0.8603	-0.3176	0.3993
-0.4468	2.9353	9.3739	-0.1721	0.038	0.2183	-1.5412	0.7026	-0.9697	4.1247	2.1408	8.7393	-0.6933	1.1994	0.0584	0.6844	-0.012	-0.1081	9.1047	4.0091	0.4046	-1.1746	0.897	-1.0024	-0.8603	-0.3176	0.3993
-0.6922	3.2303	9.1324	0.0738	0.1026	0.0013	-1.56	0.7223	-0.9702	4.348	1.6788	8.3902	-0.3515	1.1428	0.2411	0.6844	-0.024	-0.1141	9.2785	3.7247	0.5792	-0.8692	1.0515	-1.164	-0.8914	-0.2984	0.4348
-0.6355	2.7079	8.9065	-0.1095	0.0076	0.3398	-1.6353	0.7237	-1.0246	4.4216	1.8551	9.2707	-0.5113	1.5152	0.5471	0.6904	-0.012	-0.1141	9.3301	3.6675	0.2941	-0.7412	1.202	-1.0437	-0.86	-0.2984	0.3999
-0.8081	3.0525	9.3661	0.254	-0.2626	0.0834	-1.5415	0.6831	-0.9871	4.5851	1.5652	8.8041	0.7483	1.7447	0.5691	0.6844	-0.024	-0.1201	9.5595	3.383	0.4125	-0.3607	1.3808	-0.7771	-0.8757	-0.2799	0.3825
-0.4533	3.0564	9.0221	0.2538	-0.2932	0.1135	-1.5441	0.7203	-1.0027	4.0074	1.1048	8.4981	0.4373	1.8017	0.3862	0.6844	-0.024	-0.0901	8.9907	3.6111	0.345	-0.2967	1.4408	-0.7171	-0.9072	-0.2799	0.4174
-0.5729	2.4729	9.0273	0.8058	-0.5628	0.1622	-1.5435	0.6819	-1.0206	4.0124	1.4511	8.7926	0.0988	1.7355	0.2964	0.6965	-0.012	-0.1081	9.2767	3.4402	0.4645	-0.0703	1.5278	-0.4159	-0.9231	-0.2802	0.417
-0.7488	2.9948	9.3095	0.1898	-0.3852	0.0508	-1.5428	0.7404	-0.9686	4.1332	1.6825	9.1473	0.1671	1.4588	0.3898	0.6784	-0.03	-0.1021	9.2168	3.4402	0.2918	-0.2506	1.4946	-0.2264	-0.9069	-0.2607	0.418
-0.5743	2.7655	8.9652	0.3251	0.2571	0.1553	-1.5778	0.6652	-1.0065	4.2971	1.853	8.7413	-0.413	1.1107	0.1802	0.6965	-0.006	-0.1021	8.8848	3.3272	0.7433	-0.1484	1.4599	0.0776	-0.8923	-0.3371	0.4158
-0.5684	3.0529	9.312	0.0187	0.5606	-0.0803	-1.5244	0.6818	-1.0028	4.644	1.9107	8.9239	-0.4955	0.7096	0.3674	0.6844	-0.03	-0.1081	9.4461	3.3263	0.4103	-0.1546	1.2799	-0.1081	-0.9233	-0.2991	0.4342
-0.3365	3.3503	8.8453	-0.1373	0.4674	-0.0804	-1.5412	0.7026	-0.9697	4.2951	1.6799	8.6234	-0.372	0.6794	0.3054	0.6844	-0.03	-0.1081	8.9338	3.668	0.344	-0.2534	1.1912	-0.2902	-0.8913	-0.2796	0.4177
-0.7508	2.8795	9.1942	-0.1652	0.5273	0.1058	-1.543	0.7209	-0.9859	3.8358	1.6229	8.5557	-0.7102	0.6453	0.3383	0.6784	-0.024	-0.0961	9.2147	3.497	0.1774	-0.2443	1.0955	0.0161	-0.9398	-0.3378	0.4326
-0.4522	3.0557	9.0805	-0.3241	0.2815	0.0717	-1.542	0.7215	-0.9691	4.1265	1.7385	8.7961	-0.6176	0.5512	0.0925	0.6844	-0.012	-0.1021	9.2159	3.3833	0.2345	-0.3373	1.0346	0.0184	-0.9079	-0.2998	0.3812
-0.5716	3.1135	9.136	-0.2931	0.4048	-0.1106	-1.524	0.7207	-0.9681	4.4649	1.6216	8.5093	-0.9884	0.5462	-0.0282	0.6844	-0.036	-0.1081	9.0416	3.2696	0.0024	-0.2156	0.9747	-0.0472	-0.8906	-0.2412	0.4189
-0.3909	2.9965	9.1407	-0.2889	0.4954	0.1374	-1.5221	0.7024	-0.9519	4.5303	2.0262	8.9808	-0.8043	0.6105	0.0318	0.7025	-0.018	-0.1021	9.3238	3.6673	-0.0493	-0.158	1.0986	-0.2016	-0.9075	-0.2991	0.4167
-0.323	2.7578	9.5534	-0.3191	0.6178	0.0174	-1.5984	0.7032	-1.0232	4.3551	2.0832	8.802	-1.0472	0.4222	0.0036	0.6904	-0.024	-0.1081	9.3965	3.4404	0.81	-0.4082	0.8863	-0.2573	-0.8903	-0.2405	0.4545
-0.5113	2.9967	9.1385	-0.5636	0.8911	-0.1581	-1.5809	0.7408	-1.0042	4.1337	2.0279	9.2074	-1.0774	0.391	0.004	0.6904	-0.024	-0.0961	9.2749	3.2127	0.3499	-0.6266	0.948	-0.3117	-0.8918	-0.2991	0.3993
-0.5669	2.7603	9.374	-0.5629	1.1061	-0.4303	-1.5422	0.702	-0.9865	4.1247	1.5079	8.6779	-1.2014	0.3888	-0.0875	0.6724	-0.024	-0.1201	9.2175	3.7246	0.3493	-0.7853	0.8888	-0.4303	-0.939	-0.2991	0.4516
-0.5123	2.939	9.0809	-0.6853	1.1352	-0.3666	-1.56	0.7223	-0.9702	4.2397	1.9106	8.7405	-1.0692	0.0521	0.1289	0.6904	-0.018	-0.1081	9.1702	3.725	0.8633	-0.7543	0.8888	-0.4312	-0.9402	-0.3569	0.432
-0.9258	3.459	9.5341	-0.5014	0.9531	-0.2191	-1.5804	0.7024	-1.0221	4.1801	1.9677	8.6225	-1.0712	0.0495	-0.1477	0.6965	-0.018	-0.1021	9.1669	3.8386	0.6917	-0.6337	0.7685	-0.528	-0.8918	-0.2991	0.3993
-0.3899	2.9958	9.1991	-0.5646	0.83	-0.1594	-1.5603	0.7028	-0.9875	4.6494	1.3366	9.1557	-1.0457	0.3289	-0.0573	0.6904	-0.012	-0.1201	8.7636	3.6114	0.3408	-0.764	0.4972	-0.7106	-0.8914	-0.2984	0.4348
-0.7495	2.7037	9.2548	-0.5052	0.647	-0.1026	-1.5611	0.7217	-0.9869	4.1797	1.5073	8.5618	-0.9552	0.4226	-0.0584	0.6784	-0.018	-0.1021	9.389	3.6107	0.4095	-0.3658	0.6517	-0.875	-0.8913	-0.2796	0.4177
-0.4476	2.7609	9.3177	-0.4708	0.7382	0.0834	-1.5216	0.6641	-0.9699	4.2379	1.68	8.6223	-0.925	0.4856	0.0333	0.6844	-0.012	-0.0961	8.8796	4.1801	0.515	-0.2135	0.7444	-0.971	-0.9386	-0.2799	0.4523
-0.873	3.4057	9.1271	-0.5055	0.4319	0.2002	-1.5252	0.7006	-1.0022	4.1841	1.5659	8.7964	-0.7121	0.5794	-0.0915	0.6844	-0.024	-0.1081	9.2213	3.2129	0.5206	0.1004	0.9253	-0.856	-0.8755	-0.2981	0.4352
-0.0918	2.7641	9.0321	-0.5995	0.4315	0.0784	-1.5054	0.6816	-0.985	4.127	2.0838	8.8562	-0.6861	0.764	-0.2156	0.6724	-0.03	-0.1081	9.0976	3.042	-0.054	-0.0307	1.0201	-1.0971	-0.9235	-0.2809	0.3815
-0.1463	3.2267	9.3756	-0.4144	0.3411	0.1971	-1.5621	0.7211	-1.0037	4.4636	1.7364	8.4512	-0.6825	0.6733	-0	0.6844	-0.012	-0.0961	9.559	3.7811	0.4128	0.2134	1.0828	-1.2269	-0.9079	-0.3183	0.4161
-0.512	2.7639	9.0831	-0.4119	0.4939	0.2004	-1.5995	0.7026	-1.0399	4.3589	1.7389	8.9762	-0.5584	0.5803	-0.1538	0.6784	-0.024	-0.1021	8.9878	3.3835	0.1731	0.0885	1.3271	-1.2826	-0.9086	-0.3381	0.38
-0.6342	3.3485	9.0152	-0.5028	0.6768	0.0825	-1.5422	0.702	-0.9865	4.3535	1.6801	8.6831	-0.8037	0.5478	-0.06	0.6844	-0.012	-0.1201	9.1601	3.4402	0.2908	0.2365	1.2693	-1.5026	-0.861	-0.3559	0.3981
-0.8621	2.4069	9.6651	-0.383	0.4335	0.1065	-1.5062	0.7004	-0.9844	4.4703	1.6804	8.8024	-0.8029	0.6441	0.3082	0.6965	-0.006	-0.1201	8.9422	3.6684	0.8019	0.1994	1.3941	-1.7156	-0.8752	-0.2604	0.4008
-0.6303	2.7626	9.1978	-0.3567	0.0974	0.1911	-1.5459	0.7386	-1.0189	4.3485	2.0816	8.4505	-0.6534	0.8302	0.214	0.6724	-0.024	-0.1021	9.3335	3.4402	0.4656	0.0795	1.4532	-1.5886	-0.9243	-0.3566	0.4324
-0.3305	2.8213	9.1439	-0.1975	0.1892	0.4986	-1.5592	0.7034	-0.9708	4.2475	1.8549	9.1503	-0.6288	1.0449	-0.0025	0.6904	-0.006	-0.1081	9.0504	3.7249	0.5178	-0.0441	1.2397	-1.5559	-0.8916	-0.2987	0.4171
-0.8695	3.2284	9.3045	-0.1992	0.2822	0.1931	-1.5415	0.6831	-0.9871	4.067	1.7381	8.6778	-0.5368	1.077	0.0275	0.6784	-0.006	-0.1141	9.2122	3.7812	0.0631	-0.0404	1.5123	-1.4616	-0.9231	-0.2802	0.417
-0.5697	3.2287	9.2514	-0.3836	0.2185	0.3786	-1.56	0.7223	-0.9702	4.36	1.7391	9.0348	-0.8107	0.9199	0.0607	0.6904	-0.018	-0.0961	9.1576	3.7245	0.1765	-0.0715	1.4818	-1.461	-0.9243	-0.3381	0.3974
-0.3345	3.4072	8.9614	0.0486	0.2845	0.2516	-1.5247	0.7396	-0.9675	4.4076	1.6217	8.5082	-0.8711	0.8257	-0.0305	0.6904	-0.018	-0.1081	8.9277	3.554	0.0005	-0.0076	1.5114	-1.4012	-0.8923	-0.3186	0.3809
-0.8075	2.6439	9.3712	-0.1669	0.1897	0.4675	-1.5789	0.742	-0.9706	4.2413	2.2562	8.8592	-0.6204	0.6745	0.0611	0.6965	-0.03	-0.1021	9.6153	3.326	0.3562	-0.379	1.5417	-1.3898	-0.8762	-0.3364	0.4339
-0.8656	2.7009	9.4863	-0.079	0.1003	0.1569	-1.5987	0.761	-0.9878	4.5847	1.7952	8.8051	-0.6578	1.0469	0.2435	0.6904	-0.018	-0.1021	9.1631	3.5541	0.4625	-0.3465	1.4191	-1.3303	-0.9077	-0.3179	0.4339
-0.7421	2.6986	9.6636	0.1027	-0.1116	0.1501	-1.559	0.7229	-0.9534	4.1814	1.8529	8.6805	-0.4447	1.141	0.1495	0.6965	-0.012	-0.0901	8.9379	3.7251	0.573	-0.5311	1.4795	-1.2936	-0.8916	-0.2987	0.4171
-0.5024	2.699	9.6094	0.1038	-0.1429	0.3031	-1.5422	0.702	-0.9865	4.4117	1.7953	8.7433	-0.7166	0.9229	0.2753	0.6965	0	-0.1081	9.2229	3.6111	0.6353	-0.7207	1.4507	-1.4111	-0.9383	-0.2607	0.4529
-0.8673	3.1102	9.4227	0.0137	-0.0526	0.3985	-1.5611	0.7217	-0.9869	4.3536	1.6226	8.6828	-0.3792	1.0194	0.3034	0.6844	-0.024	-0.0901	9.2188	3.554	0.4064	-0.7477	1.2355	-1.2583	-0.8755	-0.2981	0.4352
-0.4489	2.9367	9.2571	0.1595	-0.4473	0.2036	-1.5796	0.6835	-1.0227	4.3484	1.4487	8.3891	-0.3876	1.3898	0.2398	0.6784	-0.024	-0.1141	8.9915	2.9287	0.3445	-0.6287	1.1768	-1.416	-0.9395	-0.3186	0.4333
-0.5069	2.877	9.3736	0.3743	-0.4753	0.108	-1.5072	0.6998	-1.0012	4.8691	1.7367	8.6932	0.0739	1.4252	0.2062	0.6844	-0.03	-0.1021	8.4245	3.3275	0.3916	-0.6348	1.0273	-1.6014	-0.9241	-0.3193	0.3803
-0.5676	3.2273	9.3682	1.9538	-1.1555	-1.3413	-1.5801	0.7219	-1.0048	4.296	1.8527	8.6827	0.0929	2.1091	0.5708	0.6904	-0.03	-0.1201	9.3258	3.7242	0.0652	-0.6064	1.1199	-1.6937	-0.9072	-0.2799	0.4174
-0.3263	2.8184	9.3775	4.8963	-1.3314	-3.1965	-1.5775	0.6847	-0.9892	4.2382	1.45	8.6212	1.2871	2.4284	0.3467	0.6904	-0.024	-0.1021	9.1617	2.9853	0.3476	-0.4837	1.0595	-1.7286	-0.8762	-0.3364	0.4339
-0.2643	3.0503	9.4924	5.0727	-2.0026	-2.998	-1.5974	0.7038	-1.0064	4.1761	1.7366	8.3871	1.2127	3.0467	0.405	0.6844	-0.024	-0.1021	9.1621	3.4972	0.4053	-0.4191	1.3022	-1.6671	-0.8921	-0.3183	0.3987
-0.9859	2.6427	9.4849	4.3649	-2.1646	-2.5006	-1.5613	0.7022	-1.0043	4.5855	1.968	8.8645	1.3328	3.2979	0.6793	0.6844	-0.012	-0.1141	9.6112	3.269	0.1273	-0.4212	1.5469	-1.7573	-0.9402	-0.3385	0.3971
-0.6294	2.8786	9.2547	4.2716	-2.5345	-1.9846	-1.5752	0.6281	-0.9909	3.9529	2.0836	8.7357	2.0229	4.1701	0.6086	0.6784	-0.006	-0.1141	9.2743	3.7245	0.3503	-0.5614	2.3165	-2.3615	-0.8914	-0.3169	0.4698
-0.3333	2.5901	8.9717	4.1907	-3.6038	-2.1298	-1.5095	0.7565	-0.9994	4.239	1.6228	8.6806	2.2829	4.9764	0.5716	0.6784	-0.024	-0.1081	9.1645	4.066	0.5774	-0.8942	3.3185	-2.1899	-0.8916	-0.2987	0.4171
-0.3899	3.0541	9.1983	7.08	-5.3088	-3.71	-1.5592	0.7034	-0.9708	3.8433	1.7398	8.9663	3.3451	5.6328	0.1619	0.6784	-0.018	-0.0961	9.662	2.9843	-0.2153	-1.3004	4.5392	-2.4138	-0.9394	-0.2998	0.4161
-0.5092	3.0536	9.2546	6.1496	-6.0549	-2.9149	-1.5422	0.702	-0.9865	4.5225	1.449	8.5096	3.1204	6.0004	0.0382	0.6784	-0.024	-0.0961	9.5526	3.0415	0.0116	-1.9883	5.6698	-2.7222	-0.907	-0.2796	0.4351
-0.5142	2.8238	8.9655	4.1464	-6.2309	-2.217	-1.5992	0.7221	-1.0226	4.0686	2.0837	8.7965	3.4855	6.1885	-0.088	0.6724	-0.018	-0.1081	9.4363	3.6671	-0.1045	-2.5414	6.7039	-2.6666	-0.8752	-0.2789	0.4358
-0.5712	2.8216	9.1397	3.6952	-5.6254	-2.0136	-1.5422	0.702	-0.9865	3.8959	1.9112	8.7339	2.9273	6.4328	0.1904	0.6904	-0.006	-0.1021	9.609	3.3257	0.0129	-3.072	7.4372	-2.86	-0.9079	-0.3183	0.4161
-0.7525	2.5892	9.081	2.7427	-5.2987	-2.0561	-1.5767	0.6658	-0.9898	4.1254	1.7382	8.7375	2.9619	6.2155	0.0685	0.6965	-0.018	-0.0841	9.381	3.2691	-0.0486	-3.2397	7.8089	-3.3129	-0.8912	-0.2423	0.3656
-0.4476	2.7609	9.3177	1.7691	-4.2998	-2.2068	-1.5427	0.6631	-1.0212	4.2455	1.7393	9.0326	3.0989	5.6627	0.3168	0.6844	-0.018	-0.1201	9.4409	3.2692	0.1241	-2.8163	7.9052	-3.6628	-0.9077	-0.2994	0.399
-0.6877	3.0523	9.3682	1.6773	-4.055	-2.5078	-1.5801	0.7219	-1.0048	4.525	1.9098	8.6874	1.9631	5.5303	0.6316	0.6784	-0.018	-0.1021	9.5606	3.3262	0.4697	-2.2746	7.7603	-4.1719	-0.9234	-0.3179	0.4514
-0.0872	3.2857	9.3175	1.6709	-4.1446	-2.971	-1.5781	0.7231	-0.9712	4.5851	1.5652	8.8041	1.8163	5.1887	0.6345	0.7025	-0.012	-0.1081	9.6668	3.3257	0.0711	-1.4777	7.5815	-4.4429	-0.9084	-0.3378	0.3977
-0.5136	3.1732	9.0195	1.211	-4.12	-2.6879	-1.5631	0.7205	-1.0205	3.9003	1.9122	8.9682	1.1406	5.0581	0.6392	0.6784	-0.018	-0.1081	9.2167	2.7008	0.234	-1.4221	7.0663	-4.6024	-0.8594	-0.2974	0.4533
-0.8705	3.1708	9.2468	0.7497	-4.0639	-2.5886	-1.5935	0.6867	-0.9567	4.2382	2.1404	8.6829	0.6802	4.9607	0.6425	0.6904	-0.018	-0.1141	9.1545	2.9282	-0.053	-1.0193	6.5786	-4.5569	-0.8921	-0.3552	0.4686
-0.2696	3.054	9.2004	0.2382	-3.4289	-2.2917	-1.5961	0.6466	-1.0249	4.2414	1.5083	8.7972	0.8909	5.2105	0.6705	0.6844	-0.024	-0.1081	9.4411	3.0986	0.124	-0.9312	6.2457	-4.6851	-0.9079	-0.2998	0.3812
-0.5053	3.2257	9.486	-0.2358	-2.581	-1.7137	-1.5244	0.6818	-1.0028	4.0153	1.682	8.9694	-1.0522	5.3167	0.9271	0.6724	-0.006	-0.1021	8.933	2.6443	0.2287	-0.8671	6.0313	-4.5965	-0.8923	-0.3371	0.4158
-0.7498	2.9371	9.2518	-1.0621	-2.4388	-1.2082	-1.6136	0.6863	-0.9912	4.1322	1.6248	9.0885	-0.9239	5.0067	0.7131	0.6844	-0.006	-0.0961	8.9769	2.9281	-0.4568	-1.085	5.9708	-4.6212	-0.9243	-0.3381	0.3974
-0.327	3.3437	9.3709	-1.3283	-1.6775	-1.2806	-1.5945	0.6861	-0.9734	3.9555	1.8541	8.8519	-1.7527	4.9075	0.9337	0.6784	-0.018	-0.0961	8.7578	3.2699	-0.0028	-1.1081	6.3634	-4.4023	-0.9401	-0.3196	0.3799
-0.2016	2.8153	9.6132	-1.4128	-1.2511	-1.1781	-1.5618	0.7406	-0.9864	3.6023	1.5648	8.3168	-2.4816	4.3742	0.9104	0.6965	-0.018	-0.1021	9.6702	3.1552	0.2427	-1.3271	6.852	-4.5147	-0.908	-0.3371	0.4333
-0.6896	2.8787	9.2536	-1.6532	-0.795	-1.2574	-1.6316	0.6871	-0.9923	4.426	1.8561	9.5051	-2.9075	4.1231	0.9759	0.6724	-0.018	-0.1021	8.5877	3.1564	-0.006	-1.4515	7.2789	-4.5691	-0.8916	-0.2987	0.4171
-0.7455	2.8758	9.4862	-1.1539	-0.2692	-1.5906	-1.5417	0.6637	-1.0045	4.2405	2.0834	8.7998	-3.9259	4.2066	1.1043	0.6724	-0.018	-0.0961	8.6385	2.8717	-0.3486	-1.6572	7.487	-4.2232	-0.892	-0.281	0.3466
-0.6261	3.576	9.4795	-0.4191	-0.5358	-1.7901	-1.5428	0.7404	-0.9686	4.2425	1.5085	8.8558	-2.8748	4.0621	1.0375	0.6784	-0.018	-0.0961	8.5907	3.2702	0.1657	-2.1162	7.6977	-4.0542	-0.9405	-0.3576	0.3965
-0.5136	3.1148	9.0203	-0.1473	-0.8996	-1.8014	-1.5608	0.7412	-0.9696	4.1819	2.1982	8.7407	-3.5494	3.8694	1.0119	0.6784	-0.006	-0.0961	8.5209	2.8148	-0.5797	-2.5453	7.5736	-3.8887	-0.8608	-0.3556	0.4159
-0.328	3.3444	9.3125	-0.1717	-0.5335	-1.7624	-1.5786	0.6841	-1.0059	17.0623	6.7057	5.7879	1.0043	0.1468	1.3453	0.6904	-0.024	-0.0901	8.5796	2.9854	-0.464	-3.0895	7.232	-3.4142	-0.8921	-0.3183	0.3987
-0.447	3.1104	9.3717	0.096	-1.2646	-1.5971	-1.5817	0.7597	-1.0036	2.0629	4.2733	8.9436	-15.8792	1.6058	-44.992	0.6724	0	-0.1081	8.6385	2.8717	-0.3486	-3.0286	6.2732	-2.3482	-0.8911	-0.2608	0.4005
-0.3856	2.1765	9.3845	0.5965	-0.9239	-1.5345	-1.6332	0.7249	-0.9911	2.8562	-0.9523	11.0432	-27.9943	3.5047	-11.011	0.6844	-0.024	-0.0961	8.9252	3.0421	-0.1716	-2.5696	5.453	-2.4607	-0.893	-0.357	0.3797
-0.5105	3.2294	9.194	0.7512	-0.984	-1.4147	-1.56	0.645	-1.0229	4.9844	1.3339	8.6936	18.5969	3.5748	4.6941	0.6784	-0.012	-0.1141	9.0959	2.7007	-0.1687	-3.2585	5.0602	-2.6583	-0.8773	-0.357	0.3622
-0.6991	2.8853	8.728	1.3117	-0.6111	-1.5674	-1.5956	0.6855	-0.9902	3.7789	2.7163	8.6767	-6.36	2.5001	-3.3885	0.6844	-0.012	-0.0961	9.5044	2.8713	0.4683	-4.4105	5.0628	-2.8389	-0.9087	-0.3569	0.3971
-0.2075	2.4695	9.2672	1.2241	-0.3065	-1.5597	-1.5781	0.7231	-0.9712	4.2447	1.509	8.973	-1.8633	2.7067	0.4865	0.6965	-0.018	-0.1081	9.6092	3.212	0.0128	-4.3832	5.3853	-1.9768	-0.9238	-0.3186	0.4158
-0.6304	2.821	9.197	1.3145	-0.3662	-1.6852	-1.6136	0.6863	-0.9912	4.3631	1.9125	9.2113	-0.0978	2.0363	-0.3803	0.6844	-0.012	-0.0901	9.3875	3.0988	0.2947	-4.5683	5.2486	-0.9276	-0.9411	-0.3771	0.3781
-0.3893	2.5872	9.2042	1.4404	-0.3043	-1.5624	-1.5961	0.7239	-0.9722	3.8968	1.3935	8.7315	0.7765	1.6146	-0.1371	0.6965	-0.006	-0.0961	8.9229	3.2126	-0.2859	-4.2147	5.2426	-0.508	-0.8923	-0.3371	0.4158
-0.145	3.0509	9.4362	1.2575	-0.1227	-1.6177	-1.6152	0.7241	-0.99	4.5275	1.7378	8.8038	1.761	1.5903	-0.5115	0.6904	0	-0.1141	9.3207	2.814	-0.2789	-3.1785	5.1142	-0.0484	-0.9087	-0.3569	0.3971
-0.7585	3.1181	8.7825	1.5099	0.1237	-1.4925	-1.5396	0.6649	-0.9709	4.3551	1.3928	8.7404	1.5308	0.8782	-0.3522	0.6784	-0.012	-0.1021	9.4909	2.8707	-0.2757	-2.4521	5.1992	0.3915	-0.9072	-0.2799	0.4174
-0.3307	2.9964	9.1417	1.4154	-0.0303	-1.4331	-1.5789	0.742	-0.9706	4.1897	1.5096	9.089	2.6559	-0.0438	-0.9679	0.6724	-0.018	-0.0781	9.1515	2.8143	-0.2248	-1.5673	5.2521	0.9493	-0.9243	-0.3381	0.3974
-0.5763	2.6502	8.8499	1.5125	0.1226	-1.2465	-1.6123	0.7064	-0.9571	4.3607	2.027	9.0947	2.6725	-0.8166	-0.9634	0.6664	-0.024	-0.1081	9.3254	3.2123	0.0076	-1.2404	5.3661	1.4935	-0.9392	-0.2809	0.3989
-1.0582	2.9427	8.8378	1.1111	-0.1276	-0.8471	-1.5945	0.6861	-0.9734	3.962	1.9131	9.2036	2.5117	-2.0898	-1.3544	0.6724	-0.024	-0.0961	9.5478	2.7569	-0.2748	-0.9991	5.1108	2.3139	-0.924	-0.3189	0.398
-0.3322	3.289	9.0797	1.4417	-0.5202	-1.1058	-1.5938	0.6672	-0.974	4.4138	1.2204	8.7993	3.3089	-3.6044	-2.149	0.6784	-0.018	-0.0961	10.0708	2.9274	0.4215	-0.1227	5.1981	2.5957	-0.9091	-0.3576	0.3616
-0.45	2.9958	9.198	0.8302	-0.1907	-1.0294	-1.5964	0.7044	-0.9896	4.2423	1.681	8.8566	4.1091	-5.147	-2.6362	0.6784	-0.03	-0.0961	10.0658	2.7566	0.1352	0.7891	4.8566	3.0573	-0.8921	-0.3183	0.3987
-0.2142	3.4654	8.9628	0.3095	-0.1056	-0.7443	-1.5577	0.6656	-0.9719	4.1344	1.6253	9.2056	1.2598	-5.9791	-2.5223	0.6784	-0.012	-0.0781	9.6136	3.0416	0.2416	1.5033	4.3378	3.1547	-0.8928	-0.3566	0.3975
-0.2094	3.0539	9.2015	-0.3613	0.3146	-0.573	-1.5773	0.7042	-0.9718	4.4227	1.165	9.2676	0.5206	-7.4394	-2.4478	0.6724	-0.018	-0.0961	9.8999	3.4963	0.4188	2.0673	3.7862	3.4099	-0.9402	-0.3385	0.3971
-0.8039	3.1079	9.599	-1.0965	0.6122	-0.465	-1.6139	0.6668	-1.0086	4.4765	1.2791	9.0935	-0.6317	-9.7696	-2.3657	0.6965	-0.024	-0.0781	9.1522	3.0987	-0.1674	1.7911	3.0535	3.566	-0.9084	-0.3378	0.3977
0.2127	3.2277	9.2651	-0.9398	0.6128	-0.2517	-1.5585	0.6845	-0.9714	4.5426	1.2811	9.5633	-1.869	-12.6947	-2.9556	0.6844	-0.03	-0.0961	9.8464	3.3828	0.5894	1.8718	2.1449	3.249	-0.9084	-0.3378	0.3977
-0.3993	2.944	8.6742	-1.9815	1.2447	-0.4402	-1.5982	0.7227	-1.0058	4.5833	1.3346	8.6859	-1.0655	-15.6232	-2.8507	0.6784	-0.012	-0.0961	9.2745	3.5539	0.3502	1.4969	0.7444	3.2798	-0.9255	-0.396	0.3778
-0.4418	3.1651	9.663	-4.2647	1.3743	-0.4087	-1.5987	0.6837	-1.0405	4.1391	1.4538	9.4392	-1.641	-17.5144	-2.7439	0.6784	-0.018	-0.0961	9.2189	3.4403	0.4063	1.1661	-1.2717	3.7959	-0.9722	-0.3395	0.3787
-0.5716	3.1135	9.136	-4.7426	2.5622	-0.7152	-1.5948	0.6666	-0.9908	4.8163	1.0475	8.8648	-2.0086	-19.5406	-4.051	0.6844	0	-0.1081	8.7086	3.0428	0.3966	0.7076	-3.9261	4.2493	-0.9239	-0.3374	0.433
-0.2773	3.2925	8.7887	-6.3137	2.6983	-0.5388	-1.6154	0.7046	-1.0074	4.8078	0.8153	8.3951	4.0571	-17.4709	-7.5713	0.6844	-0.012	-0.1081	8.4322	3.0435	0.792	-0.0286	-7.1905	4.7983	-0.9725	-0.3586	0.3781
-1.1127	2.6473	9.1324	-7.3276	3.424	-1.1562	-1.5992	0.7221	-1.0226	4.8149	1.2197	8.807	2.0633	-12.6875	-12.9654	0.6784	-0.012	-0.1081	7.9161	3.1007	0.4965	-0.0992	-10.2949	4.8063	-0.9248	-0.3761	0.414
-0.7586	3.1765	8.7817	-7.6497	4.8897	-1.7662	-1.5919	0.6489	-0.9578	4.4529	1.5612	7.8646	17.5013	-6.3846	-17.1803	0.6724	-0.03	-0.1141	8.0395	3.556	1.0713	-0.117	-12.7101	3.4356	-0.9559	-0.3384	0.4145
-0.5698	3.2871	9.2506	-8.0819	5.0391	-1.9728	-1.5595	0.6839	-0.9881	8.2418	3.0525	8.4712	14.0424	-1.8271	-25.2375	0.6784	-0.03	-0.1081	8.0365	3.4421	0.8995	0.4144	-14.0547	1.6881	-0.8924	-0.3559	0.433
-0.3824	2.9906	9.6079	-6.8697	5.2634	-1.6141	-1.5953	0.705	-0.9728	8.2561	0.4093	8.9866	13.2455	-3.425	-33.0891	0.6904	-0.006	-0.1141	8.0366	3.3284	0.8994	0.105	-14.2842	0.7123	-0.9253	-0.3956	0.3956
-0.4456	2.8762	9.4331	-8.6861	5.5501	-1.4928	-1.5976	0.6843	-1.0237	10.6216	-0.8566	9.7875	21.4256	-2.9392	-42.8796	0.6724	-0.012	-0.1201	8.6014	2.9863	0.7378	-2.1108	-13.6673	0.1382	-0.8923	-0.3556	0.4508
-0.9249	3.575	9.591	-10.2892	5.7172	-1.4691	-1.6118	0.668	-0.975	10.6727	-3.7788	12.2347	-24.087	-25.0739	-51.6671	0.6784	-0.012	-0.1081	8.9929	3.4406	0.4593	-4.3266	-12.4408	-0.4924	-0.9084	-0.3378	0.3977
-0.7405	3.0473	9.776	-8.208	6.533	-1.6313	-1.617	0.7424	-1.0062	5.4347	5.3689	23.887	-19.7862	-15.5826	-111.9583	0.6844	0.006	-0.1261	9.2179	3.3834	0.349	-6.6508	-11.0852	-1.6412	-0.9404	-0.3573	0.4143
-0.5054	2.5844	9.4357	-7.7331	8.0709	-2.9263	-1.5943	0.7056	-0.9561	8.6991	0.3305	17.3099	120.9612	-74.8816	-131.996	0.6784	-0.006	-0.1201	9.4963	3.5534	0.0682	-9.5841	-8.9276	-3.5335	-0.9079	-0.3183	0.4161
-0.448	3.0527	9.3141	-10.7807	10.1273	-5.15	-1.5945	0.6861	-0.9734	9.9907	-4.4093	12.453	66.8009	-100.567	-117.4586	0.6724	-0.006	-0.1321	10.2863	3.8935	-0.1459	-11.908	-7.2208	-3.6961	-0.9394	-0.2813	0.3812
-0.8093	2.412	9.2574	-9.4497	11.4007	-6.8613	-1.5577	0.6656	-0.9719	8.1391	1.1264	15.019	25.6581	-123.3789	-104.1196	0.6724	0	-0.1501	10.0533	3.666	-0.4936	-14.2318	-5.7883	-3.8303	-0.9238	-0.3186	0.4158
-0.9321	2.647	9.1355	-7.1124	10.5982	-6.5698	-1.5747	0.667	-0.9562	6.4391	1.0762	15.9816	21.6383	-140.1686	-95.9176	0.6664	-0.012	-0.1621	10.4617	3.8935	0.1434	-15.785	-5.1159	-4.0242	-0.9235	-0.2809	0.3815
-0.4585	3.0017	8.7308	-7.3655	9.3371	-5.1793	-1.5763	0.7048	-0.955	4.6048	1.5969	15.9487	41.4186	-152.9064	-93.8384	0.6604	-0.012	-0.1861	10.0175	3.5532	0.6499	-16.871	-5.0237	-4.0832	-0.9399	-0.3193	0.3977
-0.5078	2.761	9.3167	-6.6968	8.3641	-4.6859	-1.5566	0.6662	-0.9552	4.6709	0.9524	13.3119	50.1749	-163.1167	-90.5422	0.6484	-0.018	-0.1981	10.0868	3.5537	1.3377	-17.4982	-5.843	-4.2553	-0.9234	-0.3179	0.4514
-0.6838	2.5249	9.55	-7.0415	8.578	-5.4766	-1.5603	0.7028	-0.9875	4.012	1.6372	11.8384	46.0698	-167.4472	-82.8434	0.6484	-0.03	-0.2221	9.857	3.2126	1.1616	-17.0429	-6.9357	-4.4621	-0.9405	-0.3576	0.3965
-0.3337	2.8235	8.9687	-7.0602	9.557	-5.8549	-1.5979	0.7422	-0.9884	4.8972	0.7077	10.0945	41.0457	-172.542	-76.4554	0.6604	-0.012	-0.2342	9.9291	2.6445	1.9634	-15.5069	-7.9963	-4.7931	-0.9568	-0.3771	0.3955
-1.1131	2.9975	9.128	-7.3658	10.3214	-6.7264	-1.5982	0.7227	-1.0058	5.3932	1.2776	9.1111	22.9581	-170.5654	-76.7911	0.6424	-0.048	-0.2582	10.1663	2.8152	2.5401	-13.5055	-9.0267	-5.107	-0.9876	-0.3388	0.4317
-1.0461	2.6428	9.4838	-7.3567	10.4715	-6.1081	-1.5603	0.7028	-0.9875	2.2627	-0.5094	6.9348	16.7293	-159.593	-74.2394	0.6184	-0.036	-0.2702	9.9335	2.474	2.1922	-10.4228	-9.2328	-5.6004	-0.9395	-0.3186	0.4333
-0.8114	3.1714	9.1895	-7.8132	10.0948	-4.8804	-1.526	0.7195	-1.0017	-5.316	-3.5633	2.6177	1.1171	-136.3114	-74.7164	0.6184	-0.048	-0.2882	9.8247	2.8156	2.4766	-6.9884	-8.2859	-5.8492	-0.9243	-0.3566	0.4324
-0.5666	2.5269	9.3769	-8.4927	9.7189	-4.2957	-1.5626	0.6821	-1.0384	-7.251	-3.4283	6.3288	-78.3832	-83.8346	-90.9046	0.5944	-0.054	-0.2882	10.2173	2.4168	2.1974	-3.1266	-6.5437	-6.381	-0.9414	-0.3963	0.3775
-1.5212	2.5807	9.8265	-7.9543	10.0878	-3.6179	-1.5618	0.7406	-0.9864	-10.739	-3.0045	9.7186	-69.2624	-48.5911	-85.8228	0.5824	-0.066	-0.2942	10.1563	2.4736	1.9675	-0.1129	-4.5522	-7.3157	-0.924	-0.3189	0.398
-1.111	2.996	9.2448	-8.6774	10.9955	-3.3123	-1.5412	0.7026	-0.9697	-12.3469	-4.7423	6.2835	-68.6913	-16.1622	-77.8171	0.5824	-0.06	-0.3002	9.8618	2.701	1.3901	1.3543	-2.7288	-7.1299	-0.9568	-0.3587	0.3606
-0.6849	2.584	9.4909	-8.1159	11.5833	-3.7064	-1.5438	0.7398	-0.9853	-13.8071	-4.5603	7.8373	-96.8298	24.7272	-59.3707	0.5704	-0.06	-0.2822	10.1989	2.9848	1.2249	0.9261	-1.0552	-7.1037	-0.9092	-0.3765	0.3787
-1.0964	2.3445	10.012	-7.0073	11.6267	-4.0884	-1.5616	0.6827	-1.0217	-10.5393	-3.1844	8.1406	-113.2189	56.7094	-37.2519	0.5884	-0.06	-0.2762	10.1357	3.1552	0.8806	-0.8223	0.5663	-7.6837	-0.9077	-0.3179	0.4339
-1.1042	2.6414	9.5996	-5.9339	11.2717	-4.2634	-1.5422	0.702	-0.9865	-9.6737	-3.5872	8.4482	-148.0869	94.4925	-25.4736	0.5764	-0.06	-0.2642	10.1931	3.4395	0.9391	-4.0877	1.2121	-8.134	-0.8924	-0.3559	0.433
-1.0552	2.2992	8.9626	-4.1729	10.9202	-3.678	-1.5943	0.7056	-0.9561	-7.0329	-2.1385	11.9604	-129.3828	106.2698	-13.3014	0.5764	-0.066	-0.2522	9.731	3.2122	0.4727	-7.9685	1.551	-8.4146	-0.9251	-0.3953	0.4134
-0.8739	2.5317	9.0213	-1.4616	11.1658	-4.6909	-1.5268	0.7384	-1.0011	-5.3591	-0.8862	9.7145	-131.7188	110.589	-8.4584	0.5884	-0.06	-0.2342	9.9104	3.4399	0.9911	-12.3862	1.4377	-8.9901	-0.9398	-0.3378	0.4326
-0.5634	2.5247	9.5521	-0.4363	10.387	-5.8278	-1.5415	0.6831	-0.9871	-4.5506	-0.0805	10.1436	-131.769	112.1275	-2.6596	0.5884	-0.072	-0.1801	9.9692	3.4399	1.1066	-16.2639	0.8611	-9.0938	-0.9248	-0.3761	0.414
-0.748	3.1691	9.3657	1.361	9.7084	-7.126	-1.5577	0.6656	-0.9719	-3.4568	0.7819	10.5198	-134.0652	114.275	1.3359	0.5884	-0.066	-0.1741	9.3475	3.0427	1.2093	-19.4902	0.1012	-9.157	-0.9092	-0.4134	0.4486
-1.1741	2.8232	9.0707	1.0752	9.432	-7.436	-1.5964	0.7044	-0.9896	-2.8734	1.7615	11.1796	-126.6753	113.6915	6.7966	0.5584	-0.06	-0.1441	9.5156	2.2462	1.0401	-21.5172	-1.0812	-9.4746	-0.9087	-0.3754	0.4321
-1.2919	2.4717	9.1898	0.9568	8.9496	-9.1057	-1.5433	0.7014	-1.0033	-1.6682	3.1408	11.4433	-121.1962	112.7704	11.318	0.5524	-0.0841	-0.1141	9.1816	2.9293	1.435	-22.0607	-2.1095	-9.9275	-0.925	-0.3765	0.3962
-1.0438	2.4662	9.6028	1.6915	8.8368	-9.5479	-1.5605	0.6833	-1.0049	-0.5815	2.9659	11.3462	-113.7114	112.4369	13.7038	0.5524	-0.0781	-0.0961	8.9515	2.8726	1.2591	-22.0047	-3.4172	-10.0011	-0.9417	-0.434	0.4118
-1.2166	2.2279	10.0114	4.4541	11.891	-10.1006	-1.5626	0.7595	-0.9858	1.2577	3.4819	11.7353	-107.1145	110.895	13.4898	0.5464	-0.1021	-0.066	8.9532	2.3608	1.3159	-20.4909	-4.6952	-10.0258	-0.9089	-0.3758	0.4143
-1.4748	2.5901	9.0683	2.2335	12.2055	-10.2812	-1.5613	0.7022	-1.0043	2.5131	3.8814	11.527	-93.8775	108.1045	11.3697	0.4983	-0.1141	-0.06	8.5044	2.3047	1.5937	-18.7308	-5.7592	-10.1177	-0.9094	-0.4138	0.4308
-1.3997	2.5214	9.8877	4.5288	16.6277	-10.4294	-1.5783	0.7036	-0.9886	5.2588	3.2428	11.2841	-84.2174	101.4468	6.3129	0.4863	-0.1081	-0.036	9.0166	2.816	1.718	-17.0881	-6.3081	-10.0484	-0.9246	-0.3573	0.3968
-1.2259	2.8174	9.5368	2.9225	21.199	-11.7248	-1.4881	0.6996	-0.9834	7.2494	3.4661	10.5621	-73.8283	86.7927	1.6375	0.4743	-0.1201	-0.03	8.2877	2.4192	2.162	-15.709	-6.2546	-9.5361	-0.941	-0.3956	0.413
-1.3322	2.6329	10.2961	1.582	23.8711	-11.2194	-1.5028	0.6444	-0.9694	8.8576	3.7385	7.7835	-73.4007	74.7203	-0.352	0.4563	-0.1261	-0.024	8.0626	2.5333	2.2723	-13.9857	-6.2028	-8.9112	-0.8933	-0.4131	0.4489
-1.3421	2.115	9.7187	10.0258	30.6174	-11.8864	-1.5407	0.6643	-0.9877	10.8457	4.1914	6.9453	-104.4956	80.4657	-3.1536	0.4443	-0.1321	-0.024	7.8378	2.4199	2.3825	-12.627	-5.803	-7.0742	-0.9248	-0.3761	0.414
-1.4603	2.0553	9.8341	5.9545	32.0369	-10.6359	-1.5407	0.6643	-0.9877	13.5237	6.4408	9.4664	-119.6597	91.141	-5.3713	0.4203	-0.1561	-0.018	7.7213	2.3062	2.2087	-10.7475	-5.3395	-5.4366	-0.9258	-0.4336	0.4121
-1.6381	2.4035	10.0018	8.4183	39.3017	-10.9705	-1.5252	0.7006	-1.0022	26.6853	15.8878	31.0772	66.5418	93.6298	-32.2589	0.3963	-0.1381	-0.036	7.8284	1.5664	1.8096	-8.3434	-4.1886	-2.9182	-0.9259	-0.4524	0.4293
-1.7346	2.737	11.3384	14.6463	55.2395	-16.4233	-1.4549	0.7157	-1.0143	27.0452	10.4488	-2.0843	289.6499	52.1374	-28.8038	0.4023	-0.1621	-0.042	7.7679	2.1351	1.6373	-6.2514	-3.3252	0.5599	-0.9882	-0.3956	0.4654
-2.164	3.2096	10.9163	13.1672	53.9666	-8.3132	-1.5448	0.6619	-1.0548	24.165	26.272	-1.4824	-48.3079	-68.786	5.5791	0.4083	-0.1501	-0.054	8.2318	1.7368	2.1604	-5.4154	-2.6835	2.5066	-0.9414	-0.4148	0.4124
-0.5534	3.0009	13.4572	4.3221	56.3467	-7.2586	-1.5237	0.6629	-1.0034	33.5345	18.5978	-3.4452	119.233	-44.2248	82.669	0.4023	-0.1681	-0.054	7.9968	2.2486	1.756	-5.1096	-2.4058	4.3741	-0.8931	-0.3943	0.4318
-2.1375	3.1329	12.3771	19.9448	63.7128	-7.664	-1.5077	0.6609	-1.0359	11.0354	23.1411	0.5348	89.9415	-24.0594	121.1172	0.3843	-0.1501	-0.072	8.7926	2.0771	1.8277	-5.5859	-3.3102	10.1578	-0.8771	-0.3566	0.38
-0.9709	3.2904	13.6797	0.1593	70.6813	-5.6037	-1.4878	0.6418	-1.0187	7.8753	2.1577	1.0818	0.2262	28.5338	83.795	0.3782	-0.1381	-0.072	8.6825	1.8499	1.9971	-4.498	-4.3465	12.3907	-0.9092	-0.4134	0.4486
-1.1268	3.8566	15.0708	9.5662	85.8376	-7.1767	-1.4337	0.6394	-1.0156	0.9819	5.0248	9.3946	-43.7424	45.9739	40.1494	0.3903	-0.1501	-0.0781	8.7336	3.1007	1.7702	-2.1958	-4.6397	13.7329	-0.9562	-0.3761	0.4489
-1.2714	4.5899	17.1021	6.4479	103.2583	-10.8499	-1.4355	0.6577	-1.0318	0.5701	-0.4733	14.3978	2.5191	-11.5494	5.4624	0.3963	-0.1381	-0.0781	9.3045	3.7258	2.01	0.6382	-2.5291	12.989	-0.9721	-0.3764	0.4485
0.1388	4.2203	18.5324	4.3059	124.5713	-15.8963	-1.4157	0.6386	-1.0146	4.505	-3.2764	19.3211	-59.6335	-91.9821	7.9962	0.4083	-0.1441	-0.0781	10.3141	4.1221	1.3995	3.5028	1.9269	9.9892	-0.9571	-0.4332	0.4648
-0.3214	4.8476	19.7422	9.5596	150.1369	-20.4511	-1.4316	0.5633	-1.0348	5.791	-2.0169	5.5904	60.9958	-95.0206	62.6265	0.3903	-0.1441	-0.072	10.3561	3.3821	0.5415	6.777	8.6222	10.037	-0.9414	-0.4148	0.4124
