1757_acc_x	1757_acc_y	1757_acc_z	1757_gyro_x	1757_gyro_y	1757_gyro_z	1757_mag_x	1757_mag_y	1757_mag_z	1758_acc_x	1758_acc_y	1758_acc_z	1758_gyro_x	1758_gyro_y	1758_gyro_z	1758_mag_x	1758_mag_y	1758_mag_z	1759_acc_x	1759_acc_y	1759_acc_z	1759_gyro_x	1759_gyro_y	1759_gyro_z	1759_mag_x	1759_mag_y	1759_mag_z
0.278101	2.102712	9.406093	-0.518506	0.993591	1.612365	-0.038687	0.265616	-0.929141	0.462922	0.439522	9.687904	2.654281	2.356924	1.084005	0.626076	-0.182856	-0.840119	9.667808	0.584558	-0.11458	36.705901	0.710823	3.052446	-0.519045	-0.302847	-0.353312
0.687873	1.989469	9.868229	-0.488754	0.777221	1.731433	0.316482	-0.408254	-0.706599	0.071537	1.342087	10.303236	3.548407	2.215773	0.960008	-0.003894	0.060423	-1.071258	9.900996	0.873904	-0.228756	37.31825	0.410928	2.684897	-0.434929	-0.458429	0.166224
0.224436	1.758828	9.57409	-0.6719	0.930716	1.67312	0.304276	-0.459436	-0.706662	0.359665	0.552873	10.251977	4.783492	2.22803	1.485203	-0.029105	0.093058	-1.101414	9.479235	1.27965	-0.654077	38.326953	-0.31357	2.103996	-0.462532	-0.461316	0.212668
0.456628	1.989152	9.750069	-0.274467	0.872851	1.517697	0.304261	-0.442136	-0.724154	0.357786	0.271126	10.13846	5.182224	2.017669	1.606744	-0.003228	0.077887	-1.100961	9.846132	1.456035	0.07215	39.582665	-0.913561	1.399357	-0.448486	-0.444093	0.196373
0.287175	1.874876	9.859952	-0.398523	0.720011	1.392899	0.318796	-0.490881	-0.686104	0.706613	1.002966	10.372889	3.727302	1.783588	1.757387	-0.042822	0.060198	-1.070431	9.89619	1.047143	-0.467642	41.066841	-0.791555	1.943539	-0.43437	-0.427696	0.195606
0.168046	2.10376	9.631278	-0.033771	0.229671	1.414548	0.303833	-0.376467	-0.780045	0.525885	0.777635	9.972595	2.087476	1.578223	1.84651	-0.01746	0.058204	-1.042283	10.309728	1.336825	-0.398796	42.798291	-0.576579	2.455821	-0.462048	-0.411086	0.179101
0.334408	1.872663	9.349388	-0.31195	0.109976	1.014723	0.332131	-0.446414	-0.710777	0.53193	0.777872	10.255793	0.082873	1.828727	1.847388	0.008341	0.027714	-1.040827	9.777327	0.931014	-0.530244	44.595941	0.188914	2.995802	-0.433952	-0.395311	0.193932
0.511946	1.586538	9.635787	-0.52615	-0.04851	1.350109	0.319139	-0.452754	-0.735164	0.353728	0.496306	9.968731	-1.273157	2.115107	2.311568	-0.042231	0.062342	-1.099131	9.837984	0.698822	-0.470226	46.18108	1.16461	3.84119	-0.448762	-0.47813	0.229103
-0.17548	2.104009	9.624597	-0.094271	0.258379	1.568527	0.303133	-0.435422	-0.699418	0.173132	0.834328	9.625552	-2.533393	2.647979	2.778277	-0.02955	0.061345	-1.085057	9.541553	1.280257	-0.473256	46.528423	2.237102	3.773686	-0.434303	-0.409851	0.163713
0.337707	1.930829	9.520188	-0.926632	-0.639143	1.77101	0.302761	-0.43895	-0.685342	0.52038	0.495745	9.68916	-2.405563	3.043957	3.429711	-0.003969	0.045103	-1.070255	9.7153	1.27911	-0.649675	46.318871	2.845287	4.046617	-0.462257	-0.427278	0.179938
0.279588	1.58598	9.460774	-2.244437	-0.958527	2.290961	0.301961	-0.376809	-0.727157	0.587401	0.608678	10.143581	-0.916513	3.552797	3.528454	0.009597	0.047322	-1.09923	9.645684	1.102545	-1.250586	45.890854	3.209238	4.199249	-0.434023	-0.394485	0.178404
0.451061	1.987946	9.465803	-2.826912	-1.023405	2.352918	0.304261	-0.442136	-0.724154	0.246413	0.834836	10.363075	0.321593	3.75246	3.531436	-0.068328	0.091761	-1.086237	9.716515	0.756426	-0.6519	44.602911	3.252837	5.456831	-0.434228	-0.429349	0.226662
0.341089	1.874111	9.690506	-3.746098	-0.965886	2.325831	0.302375	-0.425179	-0.688758	0.756363	0.664543	9.977336	2.765294	3.999886	3.258407	-0.029255	0.062417	-1.099406	9.658754	1.163588	-0.531456	41.945556	2.321818	5.837668	-0.489722	-0.413146	0.210016
-0.011636	2.27452	9.23069	-3.743249	-0.692427	2.606275	0.33286	-0.422058	-0.75642	0.472485	0.496232	10.141068	5.365387	4.402591	2.987049	0.009603	0.107531	-1.088895	9.594911	0.872107	-0.833327	39.036976	1.709055	4.9342	-0.462536	-0.442644	0.165247
0.229962	1.817476	9.858597	-3.891264	-0.238769	3.196754	0.316496	-0.425554	-0.689107	0.477344	1.116105	10.424788	7.290599	5.193895	2.934811	-0.029626	0.046025	-1.084053	9.477689	0.52392	-0.837012	35.973067	1.160071	3.725357	-0.447931	-0.394689	0.178334
0.053828	1.701752	9.627362	-5.055397	-0.277025	3.383487	0.304233	-0.407538	-0.759138	0.759881	0.721016	10.147302	9.864589	6.050931	3.469485	-0.029921	0.044953	-1.069703	9.778542	0.408329	-0.532469	33.028217	0.340325	2.120063	-0.46191	-0.394067	0.162736
0.337831	1.758504	9.519464	-4.929832	-0.003342	3.694246	0.330588	-0.39133	-0.72444	-0.158747	0.722835	10.241239	10.981684	6.491717	3.875535	-0.016135	0.032923	-1.112024	9.777732	0.756786	-0.530986	30.363963	-0.32894	0.849249	-0.476094	-0.428309	0.195395
0.454609	1.701462	9.635156	-5.235622	0.181009	3.575453	0.330988	-0.4224	-0.703532	0.245743	0.553136	10.306199	12.554718	6.326919	3.998475	-0.030141	0.059201	-1.056357	9.529137	0.463979	-1.255507	28.474434	-0.878432	0.094639	-0.447789	-0.396342	0.209389
0.227735	1.816993	9.744891	-4.499391	0.401652	3.392916	0.304633	-0.438608	-0.73823	0.359903	1.059895	10.309043	12.867038	6.663511	4.711126	-0.029846	0.060273	-1.070707	9.59244	0.987764	-0.952647	27.614237	-0.856622	0.647784	-0.461563	-0.360856	0.145534
0.112237	1.64451	9.685087	-3.365088	0.969506	2.570861	0.288598	-0.386678	-0.737468	0.466118	0.664987	9.858012	11.602469	6.858464	5.266958	-0.003379	0.047247	-1.098954	9.53711	0.349557	-0.836653	27.350503	-0.324979	2.388306	-0.448416	-0.444919	0.211901
0.38985	1.297724	9.234382	-1.402949	1.383738	2.081265	0.274106	-0.389831	-0.723043	0.0645	1.229141	9.963303	9.105492	7.341356	6.28709	-0.003975	-0.015107	-1.08059	10.133334	0.581995	-0.465218	26.81437	0.599548	4.494732	-0.46163	-0.378701	0.177426
0.515369	1.472378	9.805864	-0.97384	1.448248	1.989076	0.302747	-0.421651	-0.702834	-0.044587	1.229594	10.244083	7.784421	7.99266	7.279016	-0.016945	0.045028	-1.069979	10.017368	0.640835	-0.347358	27.14728	1.920124	7.054624	-0.447927	-0.41336	0.225754
0.1664	1.299096	9.514193	-1.373753	1.13768	2.10785	0.290498	-0.420934	-0.755373	0.18412	0.778424	10.135261	8.313234	8.36185	8.115484	0.008787	0.059426	-1.057184	9.72916	0.526842	0.006087	27.7201	3.192396	8.452457	-0.503212	-0.380966	0.208271
0.688288	1.415054	9.865816	-1.374923	0.859356	2.256667	0.31761	-0.414969	-0.731335	-0.279037	0.891852	10.012405	9.242875	8.674807	8.951717	-0.030216	0.043881	-1.055353	9.951344	0.813715	-0.707158	27.298873	4.412874	8.600983	-0.433882	-0.396138	0.20946
0.568004	1.701138	9.58053	-0.731527	1.019496	1.950742	0.27562	-0.410317	-0.744363	0.013494	0.32815	10.187894	11.776871	8.825575	9.571829	-0.003379	0.047247	-1.098954	9.481395	0.350434	-0.658033	25.559832	4.86456	5.73205	-0.461701	-0.377875	0.161899
0.56355	1.700173	9.353118	-0.272468	1.242675	1.431699	0.302747	-0.421651	-0.702834	0.239136	0.214869	9.966076	11.663013	9.733639	11.153033	-0.003599	0.061495	-1.085608	9.59186	0.290357	-1.075427	22.414597	4.384078	0.824981	-0.461768	-0.39572	0.193791
0.745459	1.529895	9.867412	0.923636	1.684062	0.944746	0.303104	-0.400823	-0.734402	1.272165	1.22683	9.932051	7.494224	9.947639	12.539103	-0.016135	0.032923	-1.112024	10.015012	0.233561	-0.528809	18.004925	3.806334	-3.985167	-0.447301	-0.364783	0.223243
0.397188	1.93127	9.635008	0.677722	1.778937	0.60965	0.30309	-0.383524	-0.751893	0.706959	1.453657	10.429908	4.094387	9.781873	12.534719	-0.030367	0.01324	-1.053346	9.708251	0.522144	-1.132144	14.781855	3.359907	-6.294048	-0.475397	-0.380557	0.208412
0.225674	1.586745	9.63022	0.125459	1.778099	0.457887	0.303847	-0.393767	-0.762554	-0.053349	2.017937	9.90491	6.9065	9.649863	10.038537	-0.003454	0.031926	-1.09795	10.070186	0.464989	-0.706441	12.591785	2.887825	-5.764321	-0.461489	-0.380353	0.208482
0.165328	1.241413	9.457099	-0.242308	1.682449	0.61073	0.288212	-0.372907	-0.740884	-0.057668	1.116411	9.620953	9.653958	9.473726	9.48408	-0.004114	0.074672	-1.057912	9.89918	0.234326	-0.411196	10.30905	2.477852	-5.356798	-0.433744	-0.379119	0.193095
0.452382	1.70098	9.52145	-0.21107	1.774787	0.612141	0.301246	-0.418465	-0.664022	0.059102	0.890921	9.679821	6.567063	9.676215	10.038526	-0.02933	0.047097	-1.098403	9.667518	0.235855	-0.175971	7.937167	2.340649	-4.736321	-0.447439	-0.381802	0.239608
0.626413	1.643896	9.638255	-0.578968	1.773418	0.58251	0.262657	-0.451255	-0.733767	0.126446	0.834862	10.134099	5.788879	9.149167	9.416085	-0.004339	0.028711	-1.054901	9.843756	0.583906	-0.171186	6.80807	3.059356	-3.635435	-0.447722	-0.378497	0.177497
0.458773	2.104518	9.864258	-0.947106	1.772744	0.491555	0.304247	-0.424837	-0.741646	0.583366	1.453541	10.031013	5.121434	7.468739	7.210006	0.021612	0.028861	-1.055453	9.847327	0.468496	0.00804	5.528802	3.707821	-1.708477	-0.447163	-0.347764	0.206878
0.513101	1.529337	9.692399	-1.373833	2.233453	0.346931	0.303461	-0.379996	-0.765969	-0.239581	1.510716	9.221181	1.511005	5.021766	3.976611	0.022938	0.003579	-1.125194	9.494061	0.585705	0.061839	3.767681	3.522057	-2.098524	-0.447234	-0.346938	0.19135
0.400363	2.16176	9.806532	-1.280772	2.637565	-0.014783	0.331016	-0.456999	-0.668549	0.408899	1.115786	9.913822	-1.554481	1.836806	2.123605	0.008856	0.014537	-1.068523	9.895899	0.69844	-0.529032	3.228675	2.492721	-3.314148	-0.433677	-0.361274	0.161202
0.401684	1.874793	9.862179	-1.525783	2.855017	-0.317224	0.33246	-0.390987	-0.777328	-0.108304	1.285795	9.959724	-3.019737	0.718682	1.463916	-0.003749	0.030854	-1.083601	10.308587	0.406867	-0.582472	3.372503	2.419789	-5.086908	-0.433606	-0.3621	0.17673
0.454733	1.529137	9.634432	-2.384635	3.009536	-0.741593	0.303461	-0.379996	-0.765969	0.128002	1.285601	10.247758	-5.224179	-0.282373	0.219062	0.008932	0.029857	-1.069527	9.722537	0.060503	-0.41524	3.059258	2.862701	-6.61596	-0.405932	-0.360039	0.145815
0.113351	1.644752	9.74194	-3.030949	3.139539	-1.626996	0.332488	-0.425586	-0.742344	0.527225	1.341035	10.086349	-6.05928	-0.4697	-0.893283	0.034884	0.030008	-1.070078	9.656378	0.291459	-0.774792	1.571002	3.431957	-8.935921	-0.461209	-0.364987	0.223173
0.622741	2.102705	9.469627	-3.645306	3.359794	-2.327018	0.290512	-0.438233	-0.737881	-0.057992	1.285403	9.621095	-6.844839	-1.693625	-2.81742	0.009007	0.045178	-1.07053	9.538096	0.872736	-0.714614	-0.403413	2.492115	-13.386067	-0.46156	-0.379527	0.192954
0.172749	1.760076	9.857242	-4.051017	3.347714	-4.13549	0.317596	-0.397669	-0.748827	0.232576	1.115967	9.740277	-9.423806	-3.119859	-5.423215	0.009152	0.015609	-1.082873	9.542633	0.815649	-0.475234	-1.14848	0.881218	-17.592837	-0.447998	-0.412534	0.210226
0.406387	1.531109	10.088143	-3.232076	3.501621	-6.527521	0.346266	-0.464088	-0.693634	-0.336256	1.342652	10.068215	-10.888841	-4.351219	-7.532921	0.035694	0.017903	-1.112124	9.189771	0.75863	-0.422177	-1.418044	-0.380155	-19.93883	-0.461768	-0.39572	0.193791
0.007092	1.014666	10.13503	-1.952309	3.810983	-8.887716	0.34548	-0.419246	-0.717958	0.168081	0.946799	9.399088	-10.93202	-5.389217	-8.313967	0.009372	0.00136	-1.096219	9.24153	1.512247	-0.717397	-2.371239	-0.264387	-19.63035	-0.474979	-0.348172	0.206738
0.357916	1.705405	10.542579	-1.158925	4.857694	-11.418581	0.287869	-0.411034	-0.691825	0.239267	0.778221	10.02319	-10.841752	-5.601093	-8.562621	0.010483	0.050537	-1.142279	9.606341	1.165206	-0.173115	-2.480036	0.638984	-18.289705	-0.419836	-0.378915	0.193165
-0.268045	1.017286	10.697994	-4.815433	8.78522	-12.325662	0.330188	-0.360259	-0.745348	-0.045041	0.835233	10.187112	-9.713799	-4.187826	-6.790487	0.022649	0.062717	-1.100509	9.248268	1.455655	-0.358203	-0.948441	1.039573	-15.088489	-0.461977	-0.411912	0.194628
1.335695	1.705665	10.78892	-4.036004	17.707241	-15.495297	0.305033	-0.469678	-0.717323	0.069874	0.947678	10.189625	-7.390418	-3.610472	-6.166323	0.009522	0.032001	-1.098226	9.304388	1.28055	-0.537565	0.157392	1.396357	-10.754716	-0.475818	-0.394271	0.162665
0.758365	2.164647	10.552304	-14.47601	25.172927	-16.816092	0.289755	-0.427991	-0.727221	0.583559	0.721197	9.973757	-7.737944	-4.227493	-6.265221	0.009817	0.033073	-1.112576	9.242745	0.989563	-0.719622	0.089655	1.442086	-6.323374	-0.462257	-0.427278	0.179938
1.225391	2.051363	11.015554	-20.137097	31.28991	-16.516336	0.30389	-0.445665	-0.710078	0.007581	0.891266	9.96181	-9.202766	-5.257284	-6.369122	-0.030141	0.059201	-1.056357	9.244116	0.873658	-0.660209	0.0556	1.699846	-1.679073	-0.420045	-0.395107	0.194002
0.130302	1.303721	10.593289	-21.730283	39.985928	-22.474016	0.275606	-0.393017	-0.761855	-0.220717	0.497431	10.013282	-9.585167	-6.210419	-6.718012	-0.042897	0.044878	-1.069427	9.358151	0.698171	-0.898378	-3.126752	2.418384	1.69094	-0.433673	-0.379945	0.208623
-0.299073	1.712416	12.06425	-27.126128	46.232781	-17.296119	0.30309	-0.383524	-0.751893	0.304517	0.553076	10.364047	-9.342446	-6.488108	-5.980712	-0.016725	0.030779	-1.083325	9.233246	0.81311	-1.259526	-6.661629	3.440648	2.187878	-0.462394	-0.444297	0.196303
1.127916	1.595532	11.864192	4.27316	48.316681	-9.378325	0.360344	-0.412564	-0.746459	0.811834	0.495349	9.865123	-8.220507	-5.650241	-5.324096	0.035329	0.06172	-1.086435	9.288671	0.46353	-1.499536	-9.743388	3.6131	2.198216	-0.462394	-0.444297	0.196303
-0.264871	1.247776	10.869518	0.993443	51.119179	-13.954507	0.332474	-0.408287	-0.759836	0.184443	0.609432	10.135118	-7.735559	-3.900033	-4.751403	0.010193	0.109675	-1.117594	9.291682	0.115568	-1.381206	-14.111225	4.043596	3.434524	-0.447652	-0.379323	0.193024
0.375607	1.88159	11.452952	-5.157285	55.605301	-11.01154	0.359615	-0.43692	-0.700815	0.008767	0.27163	9.961288	-5.379237	-3.168357	-4.218159	-0.02955	0.061345	-1.085057	9.883909	0.172788	-1.25014	-19.648828	3.473025	6.422021	-0.475743	-0.413769	0.225614
0.843623	1.940871	11.973779	2.060751	60.03729	-14.088631	0.373335	-0.406224	-0.722072	0.41328	0.721615	10.083409	-4.443819	-2.510611	-4.519145	-0.003969	0.045103	-1.070255	9.814044	0.577231	-1.788672	-25.782509	2.175018	8.559398	-0.434579	-0.443889	0.196443
0.884009	2.166977	11.123061	3.761864	64.224908	-16.847159	0.401948	-0.403445	-0.736846	0.061412	0.947346	9.793147	-3.73063	-2.287542	-4.423869	-0.016424	0.092061	-1.08734	9.526936	0.463484	-1.375321	-30.739764	1.399998	10.812317	-0.461839	-0.394893	0.178264
3.389925	2.047375	10.489335	8.501815	65.40354	-21.289	0.359586	-0.402321	-0.735798	-0.107226	0.72249	9.95925	-2.991304	-2.432467	-4.270576	0.022944	0.063789	-1.114859	9.584001	-0.118153	-1.556413	-34.22219	0.267328	12.664283	-0.46163	-0.378701	0.177426
6.869456	1.524978	9.872849	11.024625	57.986615	-30.097213	0.359572	-0.385022	-0.75329	0.185975	0.440488	10.191616	-2.312834	-2.516042	-4.240034	-0.016945	0.045028	-1.069979	10.119299	0.462629	-1.244502	-37.636206	-0.846817	15.708036	-0.46156	-0.379527	0.192954
9.817327	0.539803	8.391615	12.345022	49.578313	-46.832904	0.402691	-0.396389	-0.764998	0.012632	0.778795	10.188273	-1.817315	-2.417573	-4.269484	-0.01709	0.074597	-1.057636	10.001131	0.520975	-1.246456	-38.986018	-2.292526	18.990508	-0.46163	-0.378701	0.177426
11.507827	-0.443978	6.99959	0.185275	35.450557	-68.80939	0.401962	-0.420745	-0.719354	0.300136	0.947247	10.19446	-1.165416	-2.164019	-4.266438	-0.016575	0.06142	-1.085332	10.296212	0.520299	-1.240954	-40.180018	-2.716258	21.106033	-0.46219	-0.409433	0.148045
12.42959	-0.615759	7.300947	-6.318717	15.279448	-92.253454	0.401962	-0.420745	-0.719354	0.521135	0.101432	9.688828	-1.070551	-2.008308	-4.44978	-0.054767	0.03377	-1.125547	10.36042	-0.292158	-1.063594	-43.103741	-2.208355	21.267041	-0.461768	-0.39572	0.193791
11.110718	-0.902496	7.160424	-10.716023	-8.491519	-111.959977	0.472936	-0.419089	-0.735176	0.35362	0.552636	9.968779	-1.469331	-1.798143	-4.540495	-0.029475	0.076666	-1.08606	10.071537	-0.115772	-0.708913	-44.879849	-3.07906	19.07675	-0.43437	-0.427696	0.195606
9.635714	-1.243173	7.812263	-11.755374	-26.747925	-120.724124	0.429432	-0.393952	-0.726884	0.469098	1.003112	10.028216	-1.649943	-1.460762	-4.907219	-0.017171	-0.000933	-1.066968	10.1798	-0.176343	-1.246121	-48.287266	-3.401572	16.553554	-0.461835	-0.413564	0.225684
8.880396	-1.417371	7.228533	-14.971742	-36.138802	-120.714122	0.471808	-0.412375	-0.71044	0.46996	0.552468	10.027836	-1.808939	-1.858552	-5.342891	-0.029701	0.030704	-1.083049	10.779596	-0.059316	-0.695461	-50.869256	-5.19817	14.890314	-0.489655	-0.395302	0.178123
8.837368	-1.069544	7.967957	-20.382602	-43.192209	-113.60121	0.458444	-0.422243	-0.720751	0.234001	1.003354	9.796822	-2.268693	-1.616292	-5.772441	0.008932	0.029857	-1.069527	10.598415	-0.176052	-0.938884	-50.321183	-5.121127	13.543041	-0.434441	-0.42687	0.180078
7.645621	-0.319521	8.516242	-21.221651	-51.177581	-103.785751	0.501163	-0.402539	-0.753366	0.58302	1.002849	9.973994	-2.764683	-1.803133	-6.298769	-0.01665	0.0461	-1.084329	10.238121	-0.350953	-1.30567	-50.600848	-4.124377	11.705339	-0.490352	-0.443053	0.165107
7.141424	-0.259294	9.074993	-17.107238	-57.597164	-91.781039	0.501192	-0.437138	-0.718383	0.582912	1.05918	9.974041	-2.302789	-1.977019	-6.947508	0.009082	0.060498	-1.071534	9.770123	-0.232732	-1.074351	-51.225933	-2.651093	8.032736	-0.490005	-0.409841	0.147905
6.57655	-0.084866	9.462553	-13.901644	-62.925358	-78.805672	0.52939	-0.385989	-0.771557	0.010107	0.83503	10.075042	-1.979831	-3.320576	-7.176401	-0.043042	0.074447	-1.057085	9.888561	-0.40723	-1.072892	-52.343231	-0.90206	4.146762	-0.476235	-0.426656	0.16434
5.489664	0.145928	9.499215	-10.012103	-66.71316	-65.838923	0.486643	-0.371094	-0.773925	-0.336387	0.779299	10.011101	-1.278226	-4.01687	-7.18276	-0.004044	0.029782	-1.069251	9.777421	-0.056773	-0.654261	-52.595472	0.132351	1.636525	-0.448699	-0.441614	0.149789
5.158427	0.091389	10.117677	-6.878201	-68.719568	-53.026118	0.543153	-0.407191	-0.740338	0.23715	-0.010548	9.852608	-0.887043	-4.724735	-6.018032	-0.042903	-0.015332	-1.079763	10.372484	-1.21915	-0.528388	-54.417818	0.567301	0.357399	-0.462048	-0.411086	0.179101
4.637155	0.664971	9.825803	-4.24297	-66.535224	-41.249069	0.529404	-0.403288	-0.754065	0.293853	0.439988	9.854196	-0.271378	-4.84298	-5.49464	-0.016939	0.105238	-1.059644	9.842615	-0.346052	-0.354862	-55.452619	1.097122	2.00903	-0.462257	-0.427278	0.179938
4.027316	0.784653	10.837393	-2.128304	-58.087993	-31.608741	0.559503	-0.386396	-0.825143	0.078097	0.440988	10.529035	-0.027811	-5.116239	-5.435506	-0.029996	0.029632	-1.0687	9.6052	0.235248	-0.356792	-53.682193	1.854315	3.343799	-0.448557	-0.443267	0.180845
3.396073	1.2444	10.770222	2.271118	-45.29623	-24.634767	0.616357	-0.384366	-0.840616	0.0035	0.496763	9.734919	1.851269	-5.492998	-5.129463	-0.017611	0.027564	-1.040276	9.769718	-0.058504	-1.073609	-51.342403	3.424308	6.139721	-0.476582	-0.459867	0.181542
3.293113	0.67248	11.334113	7.782841	-33.971464	-20.724592	0.546897	-0.406506	-0.846114	0.927419	0.889494	9.924513	3.978031	-5.806498	-4.637624	-0.055282	0.046946	-1.097851	9.716724	-0.754292	-0.838049	-50.022716	4.716603	8.818467	-0.434374	-0.409025	0.148185
2.664179	1.017826	11.380166	15.451097	-28.753662	-19.588361	0.604122	-0.400948	-0.875663	0.065578	0.665836	9.962829	5.486945	-6.127637	-4.177186	-0.042526	0.06127	-1.084781	9.420719	0.117771	-0.779936	-50.314062	4.962751	11.538665	-0.448211	-0.410055	0.163643
2.084705	1.361442	11.02936	18.990119	-31.759233	-18.757925	0.632335	-0.367099	-0.911345	0.761414	0.552071	10.2038	7.154177	-6.111703	-3.374161	-0.030587	0.027489	-1.04	9.246681	-0.229786	-0.664907	-51.110526	5.043443	12.335876	-0.434858	-0.459255	0.181752
1.974485	1.592257	11.255511	23.658369	-40.104765	-18.262896	0.619386	-0.425336	-0.883256	0.467781	1.059395	9.971623	8.6965	-6.218794	-2.757427	-0.055873	0.044803	-1.069152	9.310774	-0.519312	-0.425415	-50.084947	6.055958	12.38846	-0.434579	-0.443889	0.196443
1.726993	0.956464	10.2819	27.05321	-51.350336	-17.412599	0.590345	-0.362447	-0.924373	0.824592	0.777523	10.488396	7.835041	-5.92492	-2.477747	-0.043123	-0.001084	-1.066417	8.655399	-0.693539	-0.797703	-50.511634	7.100793	11.773702	-0.490561	-0.459245	0.165944
1.21059	0.956596	10.215025	28.517437	-63.168827	-15.676595	0.621587	-0.369568	-1.002696	0.532923	0.89058	10.312528	8.170658	-6.200226	-1.925311	-0.016795	0.075669	-1.071986	9.127683	-0.287839	-0.727262	-50.951119	7.269532	10.093384	-0.462186	-0.428104	0.195466
0.921884	1.243528	10.096958	26.206588	-71.570298	-13.199458	0.579982	-0.378687	-1.012308	0.413172	0.777945	10.083457	9.218335	-6.344054	-1.340166	-0.017165	0.059276	-1.056633	8.776733	-0.693067	-0.615781	-52.99294	7.493372	8.449195	-0.44849	-0.425422	0.148952
0.341752	0.955046	9.686645	21.44163	-75.305734	-11.099523	0.566619	-0.388555	-1.022619	0.080407	0.497414	10.642362	9.989063	-6.428467	-1.001277	-0.017246	-0.016254	-1.065964	8.837545	-0.518479	-0.494125	-57.536305	7.375513	6.448946	-0.490214	-0.426034	0.148742
0.109062	1.414021	9.513562	14.804398	-74.215025	-9.68255	0.51198	-0.352116	-1.109094	-0.051301	0.947657	9.904009	12.393834	-6.623625	0.694262	0.021612	0.028861	-1.055453	9.003028	-0.753908	-1.150789	-60.171949	6.495033	4.903919	-0.490982	-0.472959	0.120197
0.109062	1.414021	9.513562	8.878176	-71.354896	-9.465669	0.471505	-0.367949	-1.143442	0.475573	0.778027	10.311224	12.578458	-6.481831	2.822966	-0.01702	0.029707	-1.068975	9.302936	-0.462967	-0.844516	-64.81451	4.526914	4.31885	-0.448419	-0.426248	0.16448
-1.034871	1.357649	9.547904	3.10409	-68.021851	-10.222973	0.428	-0.342812	-1.13515	0.767781	0.383317	10.486855	15.17062	-6.578011	3.810601	-0.030367	0.01324	-1.053346	9.307203	-0.403902	-0.604641	-64.526119	4.041318	7.009778	-0.462465	-0.443471	0.180775
-1.545666	1.301546	9.765054	-3.43582	-64.255813	-11.523099	0.371132	-0.327543	-1.137169	0.477991	0.778122	10.424503	17.515072	-6.766104	4.303871	-0.029481	0.016456	-1.096395	9.774505	-0.696598	-0.896608	-58.440567	6.432726	11.530524	-0.407464	-0.47256	0.136146
-1.658031	1.416994	9.877016	-10.551717	-59.572459	-12.622651	0.400474	-0.300407	-1.197587	0.988826	0.776868	10.095546	21.58066	-7.636564	4.637599	-0.029701	0.030704	-1.083049	9.248457	-0.519919	-0.606236	-52.84363	9.217556	16.295861	-0.463024	-0.474203	0.151393
-2.063141	1.243995	9.641085	-15.887365	-54.388032	-13.811202	0.274518	-0.303751	-1.219181	0.303978	0.834728	10.364284	13.906047	-8.77724	4.743395	-0.016945	0.045028	-1.069979	9.2567	-0.750492	-0.187877	-52.834315	9.75874	17.210254	-0.463304	-0.489569	0.136703
-2.684814	0.786607	10.024878	-17.972408	-49.381314	-14.27591	0.273417	-0.331635	-1.159461	0.527764	1.059382	10.086111	11.181872	-11.578802	5.853999	-0.029996	0.029632	-1.0687	9.205252	-0.690551	0.230618	-52.341916	10.103638	16.564917	-0.477074	-0.472755	0.120267
-3.82029	-0.18714	10.453331	-16.307739	-44.261758	-12.326614	0.243633	-0.275802	-1.172426	0.886431	0.439574	10.659239	10.043379	-13.677482	5.708902	-0.029996	0.029632	-1.0687	9.433904	-0.344118	-0.122938	-51.077295	10.541508	16.069175	-0.44849	-0.425422	0.148952
-4.966943	-1.105858	10.313494	-16.24878	-38.484327	-6.712356	0.159295	-0.287325	-1.166915	0.954014	0.890537	11.170584	7.458533	-17.873204	4.555282	-0.043783	0.041662	-1.026378	9.552321	-0.983472	-0.183363	-48.279423	10.938242	14.162018	-0.462398	-0.425626	0.148882
-6.629465	-1.220022	10.167014	-20.45516	-32.582848	5.172189	0.174931	-0.308185	-1.188584	0.771754	0.834151	10.713793	6.768141	-26.094501	3.640622	-0.017095	0.014387	-1.067972	10.207021	-0.518865	0.190161	-45.296217	12.359667	10.843306	-0.491191	-0.489151	0.121034
-7.936089	-1.504105	10.651875	-19.385607	-29.203824	22.059335	0.131426	-0.283048	-1.180292	0.646091	1.284631	10.258638	6.755994	-31.662544	6.267326	-0.056023	0.014162	-1.067144	10.322967	-1.042561	0.010416	-40.901154	14.357039	5.560693	-0.517821	-0.41025	0.147764
-8.80171	-1.332607	10.294778	-12.657989	-29.581801	41.841523	0.102413	-0.254757	-1.186426	0.760336	1.115377	10.204274	-3.208989	-35.70463	4.739358	-0.0819	0.029332	-1.067597	10.618608	-0.810685	0.076814	-37.953997	15.105353	2.245553	-0.476235	-0.426656	0.16434
-8.699989	-0.588603	9.674758	-8.806029	-30.521814	63.919736	0.114662	-0.255473	-1.133887	0.659927	1.0035	10.881436	-14.2668	-42.78558	6.17066	-0.044228	0.009949	-1.010021	10.382949	-0.984373	0.07167	-37.17916	14.879564	-2.279481	-0.477003	-0.473581	0.135795
-9.673107	-0.875106	9.654622	-11.509445	-31.503236	86.963425	0.113547	-0.266058	-1.091659	0.66323	1.172634	11.051497	-17.686805	-47.168206	3.719725	-0.043418	-0.002155	-1.052067	10.265051	-1.042179	0.069222	-37.149426	13.605309	-6.246547	-0.504402	-0.441604	0.133981
-9.336717	-0.244946	9.322839	-16.818423	-31.838856	108.918588	0.071185	-0.264935	-1.090611	0.071566	1.569793	13.020917	-21.527541	-53.087356	0.883254	-0.068774	0.060048	-1.06988	10.561253	-0.577752	0.196516	-35.723827	13.189158	-9.886472	-0.476448	-0.424177	0.117756
-10.403685	0.162516	10.38358	-18.762486	-30.918663	127.234913	0.042559	-0.250414	-1.093329	0.756953	1.230279	12.751942	1.028365	-55.614044	-5.165995	-0.056463	0.042659	-1.040452	10.912048	-0.579303	0.023398	-31.357737	12.947548	-11.643067	-0.463654	-0.504109	0.106484
-9.834979	0.850677	10.227052	-15.107755	-29.034362	141.442811	0.013932	-0.235894	-1.096046	-0.059819	1.851045	12.282422	-3.287804	-64.227297	-0.353443	-0.08271	0.041437	-1.025551	10.853032	-0.579168	0.022298	-27.473394	12.620282	-11.197172	-0.463166	-0.472551	0.120338
-11.445322	1.59713	9.857892	-9.368131	-28.963246	151.048744	-0.028816	-0.220999	-1.098414	0.522311	1.624882	12.577519	-7.426172	-73.651253	2.046637	-0.057129	0.025195	-1.010749	11.02952	-0.812125	-0.035297	-22.023921	12.874774	-7.306364	-0.491328	-0.50617	0.137399
-12.078835	2.113836	9.677257	1.16364	-28.124639	154.586292	-0.029959	-0.196986	-1.09117	0.750932	1.849725	12.525905	-8.349546	-82.996221	3.216974	-0.095542	0.011793	-1.037618	10.67969	-0.75225	0.197975	-16.94121	13.370464	-3.201323	-0.477424	-0.487295	0.090049
2.006803	0.759511	45.009896	-16.891077	-6.802419	150.848023	-0.042922	-0.237924	-1.080573	0.238672	1.963594	12.798318	-11.283348	-92.550693	4.291133	-0.108662	0.041287	-1.025	10.495614	-1.043955	-0.22591	-12.768597	14.921573	2.063516	-0.476727	-0.439544	0.103065
-5.339354	7.14856	6.249252	344.558072	72.346733	97.218786	-0.072321	-0.195862	-1.090123	0.012361	1.795175	12.963259	-12.669606	-104.323821	5.067041	-0.122454	-0.006893	-0.993013	11.508522	-0.927874	0.332454	-8.919275	16.714193	-1.351469	-0.50489	-0.473163	0.120127
12.152973	0.887918	-3.836856	-32.174783	97.556847	-11.99991	-0.001689	-0.232334	-1.056885	0.724581	1.963727	13.997421	-19.20802	-117.746026	8.596996	-0.14781	0.05531	-1.010826	12.512357	-0.697618	0.412057	-6.128426	14.572275	-12.170029	-0.491053	-0.472133	0.104669
8.392471	-3.569296	14.370604	-60.172494	97.784488	-29.95064	-0.02843	-0.234771	-1.094999	0.515948	1.401659	14.954984	-24.047874	-133.890848	9.265056	-0.109554	-0.022139	-0.992286	13.473568	0.059413	1.451295	-5.134647	10.853779	-27.9238	-0.518865	-0.491212	0.15195
-1.750172	1.561717	16.865975	-28.233099	90.657114	-65.712811	-0.014695	-0.221374	-1.098764	0.363325	0.388745	15.800098	-22.008886	-151.039771	7.647373	-0.148551	0.022526	-0.980119	13.364589	-0.519347	1.86597	-5.694789	6.194035	-38.960342	-0.450026	-0.519271	0.091864
0.357476	1.405611	7.586125	58.687463	77.566999	-57.217682	0.028052	-0.236269	-1.096395	0.144135	-0.342742	16.247762	-14.630183	-171.091447	4.741207	-0.187994	0.035477	-0.951596	11.815748	0.003882	1.120701	-4.8599	6.502935	-38.964838	-0.477633	-0.503487	0.090886
0.229713	2.162125	9.860045	6.948631	61.775574	-51.527347	0.044445	-0.267372	-1.128725	0.753824	-0.682859	15.127984	4.328105	-194.198346	-1.731176	-0.176054	0.001696	-0.906816	10.155323	0.122084	0.671035	0.214251	11.393605	-42.795098	-0.492029	-0.53525	0.076962
-1.715	2.566108	9.937582	-0.255496	49.976012	-40.992392	0.02881	-0.246512	-1.107056	0.209918	-0.457562	13.927862	14.990609	-213.530853	-5.73725	-0.213946	0.035327	-0.951045	9.32485	0.529765	0.477639	6.306179	17.374581	-48.161689	-0.491821	-0.519058	0.076125
-0.291144	2.161292	9.565758	6.233364	44.689112	-19.288191	0.08342	-0.248352	-1.055564	0.423279	0.161026	13.196904	19.025794	-231.553761	-7.238566	-0.266591	0.002242	-0.919235	9.500413	1.168196	0.48366	9.33528	20.824917	-40.581659	-0.547728	-0.553911	0.108574
-1.031738	1.645581	9.71967	-5.470089	45.294771	3.788029	0.099041	-0.251913	-1.094726	0.920902	-0.516764	12.187702	26.885776	-247.477154	-8.037728	-0.293428	-0.001123	-0.875635	9.436996	1.167342	0.242932	11.247401	20.064814	-22.618528	-0.49175	-0.519884	0.091653
-0.219041	1.647413	10.30379	-4.887213	45.869174	18.392652	0.0704	-0.220093	-1.114935	1.778709	0.551757	12.036818	25.060147	-262.160373	-6.212006	-0.293648	0.013125	-0.862289	9.08676	1.401445	0.476945	12.199454	16.421473	-1.273743	-0.491679	-0.52071	0.107181
1.088577	0.552899	9.813138	0.504287	42.642225	15.196872	0.098669	-0.255441	-1.08065	3.124411	1.845828	13.198506	28.560119	-270.56875	-0.37371	-0.346218	-0.004639	-0.831482	8.682316	1.462444	0.948745	11.38533	12.443348	13.388518	-0.491962	-0.517405	0.045069
0.413896	0.383726	10.424436	6.061851	33.797507	8.811977	0.113533	-0.248759	-1.109151	4.076026	2.295981	14.690858	29.007584	-268.792628	5.994905	-0.386847	-0.056185	-0.755896	8.323122	1.28779	0.641866	12.294877	8.563789	16.154724	-0.47805	-0.535872	0.09256
0.465127	1.014335	10.143938	16.72969	25.659836	7.177015	0.099784	-0.244856	-1.122878	4.029186	1.11348	15.08513	46.500835	-260.379348	7.356478	-0.399893	-0.011371	-0.744281	8.460982	1.756826	1.784276	14.062462	4.597717	6.87528	-0.491821	-0.519058	0.076125
0.637595	0.037704	10.143176	14.067096	13.071322	4.986739	0.070814	-0.268463	-1.076535	4.504731	0.211851	15.717078	69.322547	-250.4034	10.155983	-0.438971	-0.042237	-0.741447	8.165071	1.641101	1.718372	14.369854	2.196448	-12.246323	-0.477633	-0.503487	0.090886
0.395086	1.758463	9.520578	10.583304	7.570373	0.797932	0.112404	-0.242045	-1.084415	4.274338	-0.351071	15.655129	98.201553	-236.973667	17.711525	-0.453574	-0.078312	-0.667415	7.994916	1.991693	2.135902	14.900506	0.026922	-35.950112	-0.491612	-0.502865	0.075288
0.281116	1.011805	9.515214	4.853598	8.134804	0.179574	0.099012	-0.217314	-1.129709	5.940994	-0.1853	15.57705	118.578084	-221.753203	25.833067	-0.453718	-0.048743	-0.655073	8.408319	2.339452	2.204996	18.291852	-2.115643	-55.352506	-0.505236	-0.506374	0.137329
0.505389	1.412765	9.293945	2.078877	8.143264	3.714469	0.072686	-0.268121	-1.129423	3.581192	-1.253592	12.752452	155.954748	-213.00375	23.483681	-0.481227	-0.129783	-0.592104	8.6356	2.801789	1.792027	21.420619	-3.539003	-67.48454	-0.491821	-0.519058	0.076125
0.51306	1.586779	9.69264	-2.073613	6.35198	2.77729	0.113919	-0.26253	-1.105735	-5.515417	-4.846769	6.783588	163.040945	-161.697588	11.852301	-0.493978	-0.083896	-0.594839	8.10596	2.629023	1.841288	25.488253	-3.61235	-67.865468	-0.47805	-0.535872	0.09256
0.226912	1.414661	9.686349	-2.141232	5.650093	2.306065	0.113919	-0.26253	-1.105735	-11.576559	-8.558935	0.142386	124.033097	-92.193259	-36.288201	-0.520746	-0.132151	-0.562577	8.096232	3.498433	1.425649	32.137218	-0.668535	-57.425764	-0.506146	-0.551647	0.077729
0.571593	1.357212	9.749641	-3.486605	5.603331	3.167865	0.113919	-0.26253	-1.105735	-9.248281	-4.672776	4.440776	39.211677	-3.399104	-103.132137	-0.520601	-0.16172	-0.57492	9.084796	3.667152	0.666308	41.214098	2.468851	-26.401567	-0.506425	-0.567013	0.063038
0.341669	1.069929	9.687128	-4.686168	5.046675	2.978267	0.111261	-0.218031	-1.07717	-12.574236	-3.309255	10.486456	28.261024	54.360617	-119.980636	-0.521562	-0.180257	-0.530867	8.778575	3.723431	0.061984	46.314853	1.210701	11.267713	-0.464422	-0.551034	0.07794
0.632437	1.013246	9.919866	-6.225731	3.870687	3.055588	0.142174	-0.280578	-1.088942	-13.261887	-1.786801	10.756428	59.455816	71.779753	-117.162538	-0.520531	-0.20661	-0.586259	10.06384	3.194562	-0.694821	49.72905	-1.227098	41.163746	-0.505866	-0.53628	0.09242
0.45622	1.012405	9.689114	-8.126475	3.518903	3.484685	0.128782	-0.255848	-1.134236	-14.712793	-1.561595	7.499146	84.109461	96.413342	-96.401378	-0.49517	-0.208604	-0.558111	10.007005	2.730336	-0.637992	46.86887	-0.248723	57.985683	-0.520471	-0.584236	0.079333
-0.118427	0.840012	9.563549	-10.210351	3.633489	3.369876	0.098655	-0.238142	-1.098141	-14.161339	-2.183305	6.321282	79.17483	125.794056	-72.379427	-0.507856	-0.267817	-0.58252	9.717251	1.860612	-0.467482	38.450218	2.269933	59.99168	-0.492585	-0.584654	0.095001
0.174443	0.956136	9.910717	-12.017404	2.682242	5.199646	0.115033	-0.251945	-1.147963	-13.433024	-3.086848	5.316726	50.660509	153.886404	-47.771564	-0.481459	-0.235954	-0.599428	9.837484	1.860837	-0.345468	32.618342	1.441833	49.315079	-0.478047	-0.554543	0.139981
0.800694	1.242164	9.753613	-13.732301	2.607204	5.694033	0.127268	-0.235362	-1.112916	-12.266216	-2.975726	6.077314	21.13504	175.647646	-22.548085	-0.506235	-0.292026	-0.666611	9.271492	0.937915	0.83771	33.809367	-0.746245	33.54554	-0.533891	-0.552881	0.093116
0.28429	1.242295	9.686738	-14.619107	2.753583	5.974966	0.099798	-0.262155	-1.105386	-11.441389	-2.751154	7.000662	-1.369936	193.398249	1.594258	-0.531522	-0.274712	-0.695763	10.27214	0.644498	0.675461	29.43744	-1.499331	19.075117	-0.491608	-0.521536	0.122709
-0.3486	0.897378	9.502483	-14.253548	2.480106	5.846802	0.113118	-0.200389	-1.14755	-9.803933	-2.246154	8.28101	-11.00157	210.465735	23.737419	-0.478443	-0.330334	-0.7646	10.343396	0.589006	1.33529	26.774797	-3.109727	8.24144	-0.49112	-0.489978	0.136562
0.631531	0.725797	9.861807	-14.100013	2.104394	6.514923	0.099427	-0.265684	-1.09131	-8.004899	-2.248926	8.998161	-20.637554	224.319153	40.731661	-0.439289	-0.284148	-0.768438	9.677982	0.470631	0.424087	25.924054	-2.988401	-0.833502	-0.519353	-0.522771	0.138096
0.462077	0.61152	9.97169	-14.925757	2.59606	6.187956	0.127639	-0.231834	-1.126992	-5.964701	-1.632019	10.287066	-28.529931	233.969288	52.845491	-0.423876	-0.260177	-0.884515	9.74169	0.820188	0.726205	27.12773	-2.151153	-7.443219	-0.505378	-0.504722	0.106273
0.913141	1.011832	9.641168	-16.216449	2.161547	6.031275	0.156252	-0.229055	-1.141766	-4.378897	-1.690027	11.792289	-30.489296	236.240401	62.331846	-0.42343	-0.228464	-0.900872	9.268595	0.762945	0.657248	29.274105	-0.723061	-11.70572	-0.519774	-0.536484	0.09235
0.575182	1.013287	9.918753	-18.052278	2.48788	6.317863	0.140631	-0.225494	-1.102605	-3.545308	-2.253797	13.05481	-25.731168	234.481603	68.977901	-0.343879	-0.236903	-0.987621	9.272592	0.938162	0.897617	32.450593	-0.18437	-12.422671	-0.546751	-0.490794	0.136281
0.805231	1.128246	9.980543	-17.899031	2.582528	6.165627	0.09977	-0.227557	-1.140369	-1.645842	-1.52501	13.151961	-19.629506	233.532704	71.409122	-0.290719	-0.216995	-1.047127	9.622267	0.471508	0.602707	34.305709	-0.155954	-11.573845	-0.491888	-0.536903	0.108018
0.629511	0.438106	9.746894	-14.831596	3.247414	5.707601	0.097497	-0.196829	-1.108389	0.166813	-1.696252	14.492005	-13.746371	229.521551	68.753154	-0.276261	-0.151351	-1.108816	8.985734	0.243409	1.24859	35.636161	-0.376975	-10.446881	-0.505654	-0.538759	0.139003
0.116116	0.898494	9.852509	-11.551303	3.88674	4.880542	0.11239	-0.224745	-1.101907	1.945081	-1.587169	14.246378	-6.615041	224.029615	65.497649	-0.185209	-0.165074	-1.124092	8.509224	0.708355	1.062043	36.628377	0.206197	-10.300455	-0.532773	-0.491416	0.151879
0.522548	0.784527	10.144086	-9.068249	4.554466	3.933567	0.126867	-0.204292	-1.133823	2.526132	-1.250027	14.54195	-9.942433	222.04509	62.823653	-0.106989	-0.208442	-1.151435	8.79274	0.472657	0.407581	41.140074	1.260226	-10.107898	-0.519073	-0.507405	0.152787
0.695549	0.61232	10.203556	-6.403856	5.23035	2.34218	0.098255	-0.207071	-1.119049	3.047848	-1.250854	14.722749	-19.45558	222.196525	63.372482	-0.053748	-0.113003	-1.201609	8.733858	0.414716	0.406233	42.658418	4.111688	-7.284853	-0.505792	-0.555778	0.155368
0.52131	0.956611	10.087957	-1.09795	6.402587	1.425932	0.11239	-0.224745	-1.101907	3.180549	-1.588389	15.517837	-26.30075	221.192771	67.827639	-0.013784	-0.078922	-1.247493	8.375245	0.937468	0.222135	47.421614	5.999421	-1.840553	-0.49147	-0.504518	0.106344
0.456758	0.265665	9.685976	1.293445	7.444212	-0.005409	0.097855	-0.176001	-1.139957	4.753248	-2.379263	16.342768	-31.082806	217.388312	73.767402	0.06237	-0.129792	-1.174388	8.618587	0.648031	0.584742	50.647583	7.127591	5.538707	-0.505307	-0.505548	0.121801
0.402306	1.01317	9.858559	6.134486	7.501722	-0.386425	0.126482	-0.190521	-1.137239	5.525124	-1.649755	14.83104	-39.426918	215.198565	78.733795	0.114499	-0.083531	-1.178501	8.860134	0.183872	0.826793	51.486595	7.215021	12.167866	-0.505307	-0.505548	0.121801
0.69501	1.35906	10.206693	5.570455	7.034221	-2.753853	0.08262	-0.186211	-1.09738	8.118693	-3.28819	14.884066	-53.699101	210.082643	74.7556	0.166849	-0.051518	-1.195961	9.161817	0.18468	1.191737	56.097213	5.804842	17.017965	-0.533611	-0.537515	0.107807
0.794303	0.838625	9.410805	9.150262	10.735036	-2.397325	0.127625	-0.214535	-1.144484	9.452822	-2.895929	15.421959	-73.852586	206.121227	65.419385	0.166704	-0.021949	-1.183619	8.977876	-0.165101	0.767604	59.832448	5.097341	18.689013	-0.463304	-0.489569	0.136703
0.55848	1.009668	9.065957	15.39696	10.090238	-2.609797	0.126867	-0.204292	-1.133823	9.975231	-1.995373	15.716796	-88.295866	203.47809	48.146588	0.245301	0.011286	-1.21598	9.08751	-0.341577	0.289808	59.103497	3.610684	17.262087	-0.519424	-0.521945	0.122568
0.691918	1.013687	10.034686	14.718388	9.880667	-3.377962	0.141374	-0.218438	-1.130757	10.733229	-2.616078	16.128467	-95.410425	200.980838	27.428788	0.270737	0.024613	-1.188836	9.256855	-0.343713	-0.126239	57.495211	2.399385	12.566448	-0.476791	-0.47606	0.182379
0.518135	0.726121	9.916433	15.269023	10.073884	-3.928442	0.111604	-0.179904	-1.12623	11.152759	-2.674883	14.212345	-100.938341	199.216409	5.425623	0.296689	0.024763	-1.189387	9.021911	0.12193	-0.008849	55.300123	1.994875	6.55498	-0.518794	-0.492038	0.167477
0.516856	0.955646	9.860545	19.370705	10.576267	-5.89489	0.141374	-0.218438	-1.130757	11.42347	-1.943742	13.482691	-117.237906	196.233865	-15.086834	0.32087	0.018482	-1.10384	9.08643	0.123031	0.291786	50.7076	2.342679	0.915648	-0.504819	-0.473989	0.135655
0.413233	1.30279	10.428297	22.064508	10.691132	-6.790182	0.15438	-0.229397	-1.088878	11.904136	-1.098793	14.512586	-129.130866	190.336241	-30.876713	0.373734	0.037318	-1.148996	9.313691	0.120513	-0.183068	48.793025	2.930568	-0.394431	-0.477283	-0.488947	0.121105
-0.049997	0.784942	10.132952	23.010632	11.050986	-8.320523	0.140988	-0.204667	-1.134173	12.757777	0.251238	14.19202	-133.875387	180.934785	-40.314357	0.386861	0.068034	-1.151279	9.020811	0.121682	-0.068756	45.452436	3.406673	2.702272	-0.518798	-0.473367	0.120057
0.012908	0.671224	10.417848	23.867176	11.434883	-9.298175	0.071543	-0.244107	-1.122179	13.706322	1.431256	12.910857	-141.624627	166.565035	-45.334034	0.464867	0.099125	-1.154941	9.251799	0.410534	-0.302746	41.605568	4.467795	8.212696	-0.50489	-0.473163	0.120127
0.513184	1.414454	9.691916	24.232143	11.788889	-10.550931	0.127653	-0.249134	-1.1095	15.196247	2.442214	12.716584	-155.566266	149.187884	-47.675949	0.478069	0.145161	-1.158227	9.256045	0.004743	-0.124756	37.883287	5.806573	13.538189	-0.476861	-0.475233	0.166851
0.399747	1.47222	9.746784	21.229939	11.99137	-10.661676	0.142531	-0.259751	-1.120509	16.174367	3.9614	12.851695	-158.289367	131.794466	-49.48495	0.490749	0.144164	-1.144153	9.193728	0.004136	-0.305577	34.134491	5.270812	16.733247	-0.504402	-0.441604	0.133981
0.290971	1.243743	10.027857	19.05224	12.268561	-11.601671	0.169272	-0.257314	-1.082396	17.621172	6.268731	13.450258	-146.912176	112.406127	-51.857287	0.476668	0.155122	-1.087482	9.026448	0.064843	0.230531	30.03734	5.12393	17.696366	-0.532422	-0.476876	0.182098
0.338039	1.471296	9.518258	13.412226	13.71715	-14.260875	0.128039	-0.262905	-1.106084	19.473259	6.09667	13.941918	-126.77557	86.670415	-55.765276	0.528948	0.232025	-1.093603	9.490469	0.23626	-0.179272	23.524596	5.329796	16.251754	-0.504677	-0.475642	0.166711
0.231449	1.300743	9.913278	5.277311	17.19795	-15.561056	0.141374	-0.218438	-1.130757	18.976301	7.448137	12.347476	-85.358926	54.831554	-65.357616	0.542224	0.293381	-1.097894	9.670279	0.468901	0.004739	20.605577	5.265114	12.625232	-0.518589	-0.457175	0.11922
0.815045	1.417625	10.493427	-7.960654	23.019217	-16.655159	0.154766	-0.243168	-1.085462	20.23031	6.602623	14.411177	-55.737664	23.833131	-77.262592	0.55461	0.291313	-1.06947	10.024511	0.410014	0.011094	18.806908	4.28452	12.177938	-0.518727	-0.474193	0.135585
0.131001	1.878378	10.652555	-17.52355	28.800928	-18.189888	0.128039	-0.262905	-1.106084	18.461469	6.378875	12.392334	-3.235384	2.475054	-85.0152	0.528583	0.275842	-1.067915	9.904683	0.235562	-0.111662	19.579957	3.196462	14.136561	-0.532213	-0.460684	0.181261
0.313899	1.880666	11.224426	-32.621571	37.521391	-20.979808	0.169272	-0.257314	-1.082396	16.359432	6.099917	10.932586	22.878418	-6.349411	-86.869645	0.541634	0.291238	-1.069194	9.666532	-0.287324	-0.29801	18.213314	1.192209	15.220904	-0.504819	-0.473989	0.135655
-0.270272	1.016804	10.584288	-36.136526	48.751619	-20.879137	0.142517	-0.242451	-1.138001	13.11237	6.330373	9.788925	41.712459	-10.71579	-76.541352	0.528728	0.246273	-1.080257	9.563771	-0.225517	0.538733	19.831703	0.762569	12.955185	-0.504398	-0.460276	0.181401
0.366824	1.707335	10.997403	-66.814098	61.105469	-22.614349	0.198242	-0.233707	-1.128738	9.63818	8.082422	8.924906	53.93655	-15.978023	-49.859251	0.541489	0.320806	-1.056852	9.788426	-0.054301	-0.055192	20.359463	-1.60533	11.405717	-0.504469	-0.459449	0.165873
0.659321	2.340432	11.346744	-81.636366	73.636442	-22.705353	0.197113	-0.226993	-1.104002	6.153926	8.144034	7.436428	64.351115	-9.15377	-8.599096	0.516568	0.294303	-1.111692	9.039903	-0.513198	0.887035	24.268261	-3.440142	12.714649	-0.518865	-0.491212	0.15195
1.405286	0.042232	11.351567	-118.656288	107.704608	-39.958286	0.197856	-0.219936	-1.132154	9.183265	28.14104	13.688634	-105.240174	-102.367324	56.46727	0.542074	0.26274	-1.095886	9.103206	0.010587	1.189895	33.481774	-7.213185	16.948034	-0.532284	-0.459858	0.165733
0.342466	1.784401	15.600518	-131.958237	130.015304	-27.011476	0.240589	-0.217531	-1.147277	-15.033584	-22.192697	-9.396812	119.064295	-130.133953	50.822179	0.529469	0.279058	-1.110964	10.04766	1.344917	1.392909	35.864934	-7.920969	-8.455832	-0.518168	-0.443461	0.164966
1.208936	2.889444	18.975024	-150.85819	158.34972	-19.503025	0.252795	-0.16635	-1.147214	-7.729762	4.625243	11.727483	195.720368	-194.411165	112.189007	0.47793	0.23494	-1.13555	12.583795	3.43059	1.628849	29.267719	-12.987094	-68.017706	-0.531867	-0.427473	0.164059
1.526765	0.827855	20.506938	-111.423842	192.581834	0.630239	0.267287	-0.163196	-1.161639	4.380676	9.445883	10.74057	107.12099	-209.465832	134.293145	0.489875	0.261368	-1.080434	13.216507	4.355107	0.86612	38.970695	-2.03757	-91.287482	-0.504539	-0.458623	0.150346
2.095668	0.609296	23.244942	-121.962542	230.323906	12.682449	0.322983	-0.119853	-1.187359	8.270512	6.116204	12.064841	85.871834	-140.673999	68.357327	0.42521	0.186535	-1.102736	14.13559	4.289184	-0.494379	46.574185	17.620652	-49.225156	-0.490494	-0.4414	0.134051
3.158223	0.143428	21.956547	-94.304759	270.041474	25.361416	0.321854	-0.113139	-1.162623	3.946398	0.152541	11.119552	67.260777	-71.113707	-1.721554	0.452047	0.189901	-1.146337	12.22628	3.765876	-1.729956	36.875716	15.840726	-4.661041	-0.50461	-0.457797	0.134818
5.734993	2.784356	22.131461	-85.67229	307.901874	22.947497	0.461545	-0.096399	-1.144795	-1.276729	2.019631	9.199847	19.740666	-59.793935	-19.1881	0.412309	0.20178	-1.103464	9.754839	2.552939	-1.541739	37.604144	18.511683	0.580304	-0.532635	-0.474397	0.135514
5.882478	3.111228	17.987087	-54.624351	338.803257	9.469765	0.489415	-0.100677	-1.131417	-2.029656	-0.399176	11.446468	14.298312	-61.024735	-0.954849	0.385981	0.125028	-1.097895	9.047239	0.404758	-1.80372	29.996777	28.910152	4.134156	-0.504469	-0.459449	0.165873
3.94792	3.964568	15.679838	-47.066179	358.363159	-9.799809	0.559274	-0.109606	-1.105011	0.41917	-0.461184	10.252332	52.271494	-60.768841	14.954942	0.374041	0.158809	-1.142675	8.956157	0.178657	-0.369144	21.314938	27.46159	19.944475	-0.532005	-0.444491	0.180424
0.99528	4.47666	13.976482	-37.472204	364.220324	-27.092049	0.614613	-0.087091	-1.099164	2.809442	-1.02777	11.660774	61.520838	-45.837402	5.615566	0.399918	0.143639	-1.142223	8.020568	0.240872	0.092751	14.224691	11.734495	14.879368	-0.518447	-0.458827	0.150275
-3.256966	2.69542	13.033807	-42.807616	359.58988	-43.164102	0.698594	-0.096395	-1.073107	0.851767	2.128257	9.188032	37.92604	-12.882625	-5.482187	0.373671	0.142417	-1.127322	9.118826	1.627681	-0.958731	-2.327004	4.622653	-13.022552	-0.532147	-0.442839	0.149368
-3.592579	4.076196	13.487742	-51.29775	340.046856	-50.114614	0.710471	-0.10064	-1.006493	-0.200537	-0.572138	10.861975	23.477196	-8.6833	8.975538	0.359954	0.109557	-1.096339	10.770799	3.25077	-0.741275	-7.340601	10.915731	-19.879608	-0.504748	-0.474815	0.151183
-0.912725	3.394882	15.867043	-63.217562	321.567126	-57.621102	0.752104	-0.126119	-0.961896	0.786279	1.84638	8.790109	17.758231	-9.951155	-0.536803	0.399032	0.140423	-1.099174	12.04944	2.255563	-1.919406	-6.683655	17.620496	-5.398081	-0.49049	-0.460071	0.181471
5.482163	3.099173	15.080898	12.008863	284.562683	-66.478026	0.821935	-0.10045	-0.970474	0.93575	0.326473	10.263876	-2.300859	-6.325458	-3.106443	0.386207	0.170989	-1.100905	12.532669	1.269168	-1.435551	-20.289889	15.636924	1.292699	-0.531792	-0.44697	0.227007
17.29672	-2.859743	7.32933	94.363236	201.613001	-80.613986	0.820406	-0.062665	-0.966646	0.528734	0.552408	10.085685	0.420115	-3.684558	-3.108823	0.399547	0.127247	-1.12687	12.121892	1.212532	-1.323687	-31.770859	12.538227	-7.697311	-0.504402	-0.441604	0.133981
8.198402	-1.345881	10.398072	134.895962	64.475803	-20.563923	0.862067	-0.122744	-0.887066	0.002338	1.736081	9.792602	-1.724471	-2.300981	-3.158447	0.373595	0.127097	-1.126318	11.410862	2.433748	-1.331701	-38.095044	9.380846	-15.146561	-0.518101	-0.425616	0.133073
8.97077	-2.559247	8.87356	177.108727	-29.83122	57.417658	0.889551	-0.11325	-0.877104	0.342656	1.228223	9.516231	-10.399199	-2.00382	-4.488069	0.360544	0.111701	-1.125039	11.075182	2.090058	-0.381276	-39.454441	5.034623	-9.436762	-0.490494	-0.4414	0.134051
8.411961	-3.072911	9.54249	174.443317	-51.670392	122.358134	0.875831	-0.143946	-0.855848	0.071299	0.835065	10.246169	-14.504074	-1.690183	-4.149147	0.360475	0.156591	-1.1137	11.134354	2.496702	-0.318538	-41.08977	-0.80568	-1.304153	-0.518727	-0.474193	0.135585
9.404475	-2.794652	7.630734	183.945015	-55.864709	162.556559	0.848404	-0.222637	-0.795842	0.299681	0.552886	10.137489	-17.557222	-1.413681	-5.474449	0.347574	0.171836	-1.114428	10.779251	1.509478	-0.509065	-45.110476	-5.641993	-2.336193	-0.532426	-0.458205	0.134677
11.158863	-2.168423	6.644551	194.319017	-83.435349	182.329739	0.806414	-0.217985	-0.808871	0.464562	0.214248	9.744354	-19.029924	-0.720152	-6.547708	0.333932	0.154297	-1.084449	10.24521	1.335724	-0.699431	-49.011795	-9.383513	-5.666014	-0.518589	-0.457175	0.11922
13.102292	-0.791717	6.574495	197.545724	-125.404938	175.236646	0.791893	-0.18654	-0.829429	0.067888	0.722261	10.076156	-19.367799	-0.59959	-6.885886	0.386131	0.155669	-1.099902	10.307662	1.278255	-0.518857	-51.224354	-11.17777	-7.421991	-0.532702	-0.492242	0.167407
13.861567	0.072744	7.388534	208.34971	-159.067652	151.466417	0.76711	-0.292431	-0.81548	-0.231273	0.328012	9.503383	-20.388634	-0.704922	-6.826099	0.347719	0.142267	-1.12677	10.0093	1.743043	-0.642195	-51.904959	-12.16909	-6.436837	-0.546822	-0.489968	0.120754
12.008974	-0.907019	6.268591	223.10305	-178.95989	121.653376	0.753033	-0.343954	-0.762655	-0.212925	0.216063	10.352882	-17.962582	-1.781727	-6.249128	0.36077	0.157663	-1.12805	9.013709	1.282214	-0.303439	-51.899915	-12.830648	-4.569444	-0.518727	-0.474193	0.135585
10.1344	-2.293699	4.009897	203.497377	-193.005643	93.714686	0.741198	-0.391607	-0.776795	0.298042	0.778161	10.081039	-12.328682	-3.18898	-5.179617	0.386276	0.1261	-1.112244	8.722334	1.109403	-0.129962	-51.713032	-13.609788	-3.099429	-0.504539	-0.458623	0.150346
9.085762	-3.503326	3.018284	150.47812	-203.009336	72.616	0.68283	-0.373152	-0.740002	0.584983	0.608583	10.030301	-8.02028	-4.396426	-4.417462	0.386427	0.156741	-1.114252	8.548162	0.819922	-0.014686	-51.152899	-12.344897	-3.963232	-0.560104	-0.441595	0.118172
7.84761	-3.899922	4.072307	93.469252	-209.733172	56.300665	0.641983	-0.392514	-0.760274	-0.051624	1.116648	9.904151	-5.218859	-5.186117	-4.823822	0.36077	0.157663	-1.12805	8.079894	1.054295	0.217127	-50.647557	-10.317106	-4.677662	-0.50489	-0.473163	0.120127
6.978099	-3.601918	6.443528	62.358364	-214.06653	43.228587	0.643126	-0.416527	-0.767519	0.061281	0.383994	9.736034	-0.092787	-5.190834	-3.524975	0.386276	0.1261	-1.112244	7.723711	0.53168	0.028579	-48.563798	-10.158303	-1.568632	-0.519006	-0.48956	0.120894
5.754252	-2.214448	8.300974	43.198432	-218.520172	32.081495	0.574052	-0.452439	-0.769601	0.590357	0.32712	10.256623	3.433662	-7.287551	-4.282854	0.373966	0.143489	-1.141672	8.372484	0.704422	0.041425	-48.644415	-11.640374	2.717556	-0.546263	-0.459235	0.150135
4.749655	-2.725127	9.586381	20.08612	-224.661241	24.321312	0.572523	-0.414654	-0.765773	0.533508	1.848294	10.426613	5.455507	-8.209851	0.025517	0.374631	0.160953	-1.171375	8.310976	0.35536	-0.140879	-47.716929	-13.13234	5.349809	-0.532914	-0.489764	0.120824
3.391568	-4.226821	7.394079	4.337703	-225.559658	26.559809	0.503078	-0.454095	-0.753779	0.42185	0.665616	10.479839	10.616919	-10.125782	2.939297	0.360619	0.127022	-1.126043	8.773762	0.584606	-0.610342	-49.209235	-14.479704	4.994877	-0.519073	-0.507405	0.152787
2.23784	-2.147199	9.937772	-21.184473	-224.451713	26.927212	0.474808	-0.418747	-0.788064	-1.085492	1.175014	9.995717	12.889749	-11.454444	-0.494012	0.372414	0.122809	-1.068919	8.823975	0.582493	-1.088497	-52.651677	-16.067073	3.517292	-0.518656	-0.47502	0.151112
0.394304	-2.423148	12.230797	-43.526065	-220.237742	36.810448	0.44731	-0.410941	-0.815518	1.226749	-0.068284	10.382868	20.60805	-10.979845	7.593936	0.346683	0.108411	-1.081714	8.482948	0.644346	-0.37597	-55.573961	-15.778991	4.229471	-0.519006	-0.48956	0.120894
-0.625975	0.280004	12.84748	-48.720447	-217.01754	43.684306	0.405335	-0.423588	-0.811054	0.074986	-0.46049	10.301718	19.408337	-10.682425	6.671071	0.359878	0.094237	-1.095336	8.253196	0.297666	-0.08232	-54.337041	-16.371774	5.786588	-0.505098	-0.489355	0.120964
-1.27289	0.851256	11.984848	-50.371651	-217.565299	53.307095	0.347681	-0.363478	-0.837397	0.534624	-0.630391	10.254608	26.45074	-10.625933	7.016414	0.348159	0.11377	-1.153463	8.068444	0.29634	-0.50497	-57.341102	-16.41479	8.915273	-0.532843	-0.49059	0.136352
-1.538249	-0.350466	12.997569	-60.208188	-218.627562	56.138671	0.334317	-0.373346	-0.847708	0.751312	0.777014	9.750872	25.716376	-10.026029	7.638359	0.360845	0.172983	-1.129053	8.377135	0.124404	0.218673	-59.073493	-15.722966	12.402712	-0.518727	-0.474193	0.135585
-1.634575	0.687666	13.966188	-71.601715	-222.923827	50.552584	0.24958	-0.353799	-0.863104	0.592021	0.721529	10.370234	23.739112	-10.080978	7.512907	0.360029	0.124878	-1.097343	8.967027	0.239206	0.230172	-58.496913	-15.079269	15.423612	-0.532773	-0.491416	0.151879
-2.189925	1.553563	14.868322	-87.914674	-227.368614	34.369467	0.248422	-0.312486	-0.873352	0.751958	0.439031	9.750588	24.065503	-11.206108	6.70044	0.347273	0.110554	-1.110413	8.619242	-0.107204	0.521621	-60.55331	-13.954987	15.425696	-0.505445	-0.522567	0.138166
-2.684556	2.247819	15.941405	-104.014169	-227.678026	11.719619	0.2622	-0.350988	-0.824641	0.066355	0.891206	10.019658	25.25907	-12.050907	6.908801	0.347198	0.095234	-1.10941	8.680324	-0.048769	0.642782	-59.869348	-12.193956	13.947621	-0.518656	-0.47502	0.151112
-4.851032	3.400396	16.415597	-117.263548	-225.873198	-14.434256	0.177062	-0.30037	-0.860946	-0.330905	0.441506	10.237375	20.034347	-12.28156	8.597874	0.334812	0.097303	-1.137834	9.161682	0.242756	1.191984	-57.762391	-10.219997	13.074713	-0.533194	-0.50513	0.106133
-6.600475	3.636995	17.689665	-129.296221	-220.96099	-40.11581	0.163685	-0.292939	-0.888748	0.637952	1.115308	9.862018	9.912995	-14.029475	7.70915	0.320951	0.094012	-1.094509	9.098129	0.299978	0.951503	-52.968766	-9.083674	14.274571	-0.532284	-0.459858	0.165733
-10.33535	4.511004	19.893918	-123.43766	-217.561071	-60.784554	0.077447	-0.270206	-0.865333	0.193467	0.947795	10.58852	0.780381	-17.955792	8.926736	0.322062	0.143189	-1.140569	9.391144	0.240733	0.836944	-46.91942	-7.927037	13.941471	-0.518656	-0.47502	0.151112
-14.018319	5.716069	18.918073	-111.151373	-216.408013	-73.318722	0.120151	-0.233203	-0.91544	-0.358549	1.231474	11.70946	-13.262828	-26.378456	12.901092	0.333927	0.094087	-1.094784	9.622267	0.471508	0.602707	-41.528008	-8.149499	13.647905	-0.518727	-0.474193	0.135585
-19.081869	6.633473	17.573178	-108.289126	-205.856539	-72.143063	0.07819	-0.26315	-0.893485	0.55345	0.271704	11.21824	-10.302072	-38.59809	16.080689	0.334077	0.124728	-1.096792	9.677307	0.761011	0.425323	-34.811389	-8.521393	13.472518	-0.53319	-0.523801	0.153554
-24.604662	7.046339	19.058746	-107.070642	-194.8428	-60.922787	0.048391	-0.190017	-0.923941	0.729234	0.553175	11.392022	-29.580042	-45.789493	18.429189	0.334297	0.110479	-1.110138	9.738639	0.238439	0.484106	-26.454353	-5.636026	15.354155	-0.560451	-0.474806	0.135374
-26.88663	6.47527	19.409765	-79.417455	-178.218534	-42.755313	0.033913	-0.21047	-0.892024	0.555545	0.44079	11.331661	-34.019699	-56.995906	20.934706	0.321616	0.111476	-1.124212	10.156423	0.122331	0.730942	-20.894622	-1.937634	17.517179	-0.504677	-0.475642	0.166711
-29.542149	3.305007	29.801545	-44.808156	-134.696384	-20.737609	0.004915	-0.199478	-0.880666	0.135044	1.00657	13.24821	-49.600046	-72.430919	19.751377	0.281583	0.122284	-1.066989	10.221907	0.181755	1.091731	-16.866073	2.260279	15.2206	-0.518585	-0.475846	0.16664
-31.131099	-6.359677	12.567116	30.446229	-34.193439	37.840635	-0.008105	-0.171219	-0.940036	-0.115449	2.588312	17.830093	-39.35805	-84.174415	10.60999	0.3082	0.139898	-1.097244	11.05159	0.587386	1.348495	-12.942746	6.606491	10.386782	-0.518447	-0.458827	0.150275
-32.519403	1.246603	17.971062	-43.707631	44.62774	55.032306	-0.007719	-0.18499	-0.93662	0.379466	0.556016	13.875702	-9.702484	-96.807238	6.161465	0.308796	0.202252	-1.115608	11.337327	0.817037	0.875731	-6.905998	9.37594	10.871312	-0.532635	-0.474397	0.135514
-28.709826	3.064061	13.847373	24.128713	102.755475	72.673304	-0.022583	-0.191672	-0.908119	-0.004019	1.120882	14.830587	-27.955188	-113.713434	3.666646	0.256517	0.12535	-1.109487	11.979477	0.523441	0.467252	-5.109037	12.194794	13.999639	-0.533261	-0.522975	0.138026
-26.302236	9.84211	14.320586	19.742139	147.490123	54.252883	0.032727	-0.134558	-0.937255	0.154517	1.570681	14.211558	-25.335655	-131.087395	5.068366	0.243836	0.126346	-1.123561	11.549546	-0.292881	-0.56233	-5.901035	16.55512	15.082089	-0.532355	-0.459031	0.150205
-1.988796	7.242621	1.99571	81.344887	135.966787	39.141081	0.062112	-0.159321	-0.945198	-0.008747	1.064362	14.603982	-35.354388	-148.973192	3.587813	0.256077	0.153847	-1.082795	11.479971	0.460265	-1.039472	-10.565782	18.263529	10.964414	-0.532639	-0.455726	0.088094
10.554576	-1.115884	10.899515	-92.880772	113.870044	30.973976	0.06214	-0.19392	-0.910215	-0.108941	0.839824	15.281049	-44.253249	-168.886887	-0.378211	0.191637	0.124974	-1.108108	11.89542	0.401738	-0.912202	-20.179465	17.932012	1.250783	-0.588404	-0.492233	0.151599
2.564011	-3.147978	17.782495	-83.202558	137.981415	-2.547016	0.091124	-0.187612	-0.939065	-0.03074	0.164509	16.187923	-47.087756	-190.592699	-5.22028	0.217299	0.184262	-1.083975	12.734082	1.680981	-0.05266	-31.493767	13.409352	-9.016587	-0.532776	-0.472745	0.104459
-0.89265	1.535922	10.972183	63.423081	132.716315	-17.408144	0.118237	-0.181647	-0.915027	-0.527308	-0.340689	17.139489	-50.68151	-216.204565	-10.903188	0.16473	0.166498	-1.053169	13.579961	1.276762	0.979433	-34.830781	3.03759	-1.070102	-0.518731	-0.455522	0.088164
-2.598656	2.401442	11.567782	23.153245	93.404896	-18.820904	0.11898	-0.174591	-0.943179	-0.697502	-1.016285	17.191933	-39.891542	-248.091253	-20.490091	0.125211	0.164129	-1.023642	12.637883	0.814561	1.019755	-38.220942	-3.589763	8.631969	-0.546681	-0.49162	0.151809
-3.330538	-0.927457	12.050988	23.889786	50.526099	-11.913813	0.12088	-0.208847	-0.961084	-1.681034	-0.338629	17.002032	-32.627277	-279.9289	-26.564895	0.086428	0.134335	-1.035157	11.330069	1.570789	0.579411	-42.566971	0.364004	-2.526881	-0.532288	-0.441186	0.118312
0.635943	0.784203	10.08946	43.117363	33.349192	3.883333	0.119365	-0.188362	-0.939763	-2.3237	2.704263	16.821376	-27.976479	-314.784738	-23.362058	0.034235	0.193173	-1.009369	10.457357	1.866162	1.283023	-39.007187	-0.77874	-15.03366	-0.560734	-0.471501	0.073263
0.678882	2.102422	9.413887	20.838424	30.460759	0.159083	0.174719	-0.183145	-0.916424	-2.715198	4.055135	14.776235	-9.344648	-344.749017	-9.094036	0.007617	0.175559	-0.979115	9.631671	1.635748	1.266628	-33.796054	-5.07774	-8.644982	-0.518518	-0.458001	0.134748
-0.059195	1.185103	9.679816	19.875812	26.455514	3.347521	0.132743	-0.195793	-0.911961	-0.1646	5.288086	13.075851	-16.580135	-357.572108	16.021285	-0.044506	0.189507	-0.964666	8.514341	1.348675	1.424204	-26.586395	-2.673719	3.909098	-0.546755	-0.472123	0.088861
0.413606	0.785816	10.426125	16.184061	22.661614	5.749852	0.104859	-0.174216	-0.94283	2.817144	5.056685	12.572129	-14.764513	-343.754264	39.775502	-0.097001	0.187063	-0.934863	8.339088	1.523803	1.541458	-19.782692	2.157528	6.39822	-0.532497	-0.457379	0.11915
0.174484	0.898694	9.910476	8.024724	11.461632	6.235314	0.161356	-0.193014	-0.926735	4.418972	2.067533	11.86715	-12.28208	-320.98732	39.725977	-0.137185	0.16723	-0.875634	8.049976	2.746052	2.020403	-11.197268	4.579511	-0.062802	-0.519006	-0.48956	0.120894
0.460057	0.32383	9.856777	10.685422	7.729114	3.100286	0.146478	-0.182396	-0.915726	5.905014	1.559666	14.049251	-5.582135	-283.945027	48.546711	-0.189604	0.180106	-0.846835	8.649035	1.758893	2.386646	-2.218111	1.859504	-6.072518	-0.546889	-0.507813	0.152646
0.106918	1.298655	9.399374	8.537138	7.759215	2.278938	0.160984	-0.196542	-0.912659	3.913844	-0.524753	9.533074	45.01075	-258.932751	55.741972	-0.203616	0.146175	-0.801503	8.768998	1.875269	2.509155	7.094265	-2.054826	-5.904194	-0.518939	-0.471715	0.089001
0.447928	1.700015	9.294038	-1.314335	7.789131	6.447844	0.146863	-0.196167	-0.91231	-4.138374	-2.483474	6.814593	37.140905	-181.312787	49.168668	-0.216956	0.189917	-0.775538	8.762126	1.989938	2.150208	16.522007	-2.065136	-1.659612	-0.532635	-0.474397	0.135514
0.742243	1.356847	9.696129	-5.919532	6.037692	7.229968	0.133858	-0.185208	-0.954188	-11.141788	-4.725313	4.684032	38.083577	-105.318239	16.473809	-0.25648	0.127339	-0.756347	8.931451	1.522947	1.672276	23.558884	-0.251178	-3.099617	-0.490631	-0.458419	0.150416
0.734573	1.182834	9.297433	-7.879399	5.929735	7.816519	0.176991	-0.213874	-0.948404	-11.060462	-7.034213	5.58953	38.014837	-16.150849	-63.775672	-0.217327	0.173525	-0.760185	8.74807	1.405717	1.309039	26.539109	1.984715	-8.28597	-0.547035	-0.487489	0.07417
0.223488	1.528821	9.516272	-13.787195	6.412032	8.94535	0.147249	-0.209938	-0.908894	-10.283221	-4.443083	7.193337	34.502969	47.905192	-166.176259	-0.243134	0.143806	-0.771976	9.032727	2.099976	0.838253	31.207772	4.524029	-9.690224	-0.532843	-0.49059	0.136352
0.287382	1.587668	9.858745	-17.645943	6.102821	10.23941	0.160212	-0.169	-0.919491	-12.880201	-2.917451	6.970297	44.300012	102.451187	-211.788987	-0.243649	0.156983	-0.74428	9.439352	1.574616	0.424383	36.249273	7.156084	-5.136879	-0.546472	-0.475428	0.150972
0.516732	1.12797	9.861269	-20.221634	5.749283	10.547737	0.133129	-0.209564	-0.908545	-14.485558	-3.139518	7.219456	54.412727	130.749913	-232.422367	-0.204432	0.09807	-0.769792	9.735398	1.632264	0.490039	39.211356	9.499026	3.001432	-0.560104	-0.441595	0.118172
0.463973	1.071535	10.087326	-19.85496	5.629118	10.452731	0.161341	-0.175714	-0.944227	-15.887116	-2.799707	6.284493	60.379183	163.349644	-226.146178	-0.256712	0.021168	-0.763671	9.438926	1.283988	0.36324	39.41855	10.67186	10.941876	-0.53208	-0.424994	0.117475
0.175805	0.611728	9.966122	-18.024307	4.910932	9.485142	0.147621	-0.20641	-0.92297	-15.46186	-3.08126	7.312231	63.126774	199.489727	-201.717927	-0.191907	0.006222	-0.764046	9.375373	1.341211	0.122759	39.103145	10.190661	15.958166	-0.518869	-0.472541	0.104529
0.581164	0.440078	10.200605	-15.217057	3.959119	7.836278	0.146835	-0.161569	-0.947293	-14.830927	-2.519188	7.269364	61.597276	227.804668	-170.066015	-0.21779	-0.038817	-0.774834	9.200101	1.051483	0.178128	37.645492	7.686134	18.053957	-0.546125	-0.442217	0.13377
0.747277	0.55363	9.920163	-11.579737	4.099283	5.098748	0.174319	-0.152075	-0.937332	-12.240638	-3.707074	7.20949	52.785268	247.039873	-136.535851	-0.152244	-0.020978	-0.805915	9.089211	0.820932	0.53438	34.721261	5.488629	16.577248	-0.53208	-0.424994	0.117475
0.40503	0.324354	9.96937	-6.742474	4.826141	2.612593	0.159469	-0.176056	-0.891339	-10.32056	-4.273177	8.155143	30.819007	258.875498	-106.817094	-0.125852	-0.049325	-0.833159	8.966912	0.762137	0.292304	31.584542	4.246552	14.332603	-0.504193	-0.425412	0.133144
0.74736	0.438747	9.91968	-3.432136	5.873803	1.025376	0.161356	-0.193014	-0.926735	-8.050662	-3.994732	9.391959	4.215666	265.293357	-81.654429	-0.09924	-0.09192	-0.873749	8.790539	0.472162	0.287767	27.276514	3.247827	11.815988	-0.518105	-0.406945	0.085653
0.803128	0.955438	9.866112	-0.609305	7.567998	-0.856625	0.17549	-0.210688	-0.909592	-6.133409	-3.715925	10.281685	-21.17067	265.290442	-60.067449	-0.085379	-0.08863	-0.917074	8.502331	0.358169	0.641211	21.081439	1.570945	9.156669	-0.560242	-0.458613	0.134537
0.523495	1.014535	10.201905	5.120742	8.536846	-2.636131	0.131971	-0.168251	-0.918792	-4.321855	-3.943545	11.565042	-44.382614	261.293222	-41.415172	-0.046671	-0.074156	-0.904555	8.567949	0.359517	1.001753	16.134873	-1.282064	5.30649	-0.518727	-0.474193	0.135585
0.232894	0.841452	9.968201	7.237403	9.417263	-3.517301	0.133872	-0.202507	-0.936697	-2.037428	-3.044847	13.538695	-63.560993	253.576668	-26.741791	0.005453	-0.088104	-0.919004	7.791956	0.82415	0.570077	14.891417	-3.909803	1.655887	-0.546196	-0.44139	0.118242
0.296746	0.957741	10.310916	11.193541	10.554539	-4.614278	0.189582	-0.176463	-0.944925	-0.160601	-2.87793	15.220071	-69.225339	246.343347	-17.724494	0.018504	-0.072709	-0.920283	8.089373	0.765893	0.695146	15.915726	-5.443671	-0.510476	-0.518242	-0.423963	0.102018
0.514505	1.127488	9.747563	12.909774	10.68756	-4.801069	0.146478	-0.182396	-0.915726	1.644823	-2.429773	16.277439	-69.269297	238.503193	-12.777774	0.069742	-0.089873	-0.891683	8.329549	0.417639	0.877785	15.181911	-5.489214	0.684352	-0.559336	-0.39467	0.146716
0.398882	1.127329	9.688483	13.550013	10.32458	-5.054162	0.17509	-0.179617	-0.9305	2.885582	-2.036442	17.832428	-63.844965	223.15185	-9.93601	0.110297	-0.053648	-0.966266	8.799497	0.880919	0.828659	17.301975	-6.519446	6.397011	-0.504405	-0.422933	0.08656
0.40577	0.841569	10.028395	14.706124	9.415398	-5.716315	0.189197	-0.162692	-0.948341	3.800584	-2.038404	17.568572	-57.042439	201.884048	-8.415941	0.109712	0.004418	-0.927232	8.509203	0.2435	1.000158	19.05663	-7.373463	12.691166	-0.560037	-0.42375	0.086279
0.228191	1.185137	9.742237	13.844654	8.670029	-5.388591	0.175105	-0.196916	-0.913008	4.295512	-1.307931	16.560556	-57.674263	181.272822	-9.731422	0.14908	-0.023853	-0.954751	8.511134	0.360146	1.120467	22.231468	-9.219154	20.727588	-0.55962	-0.391365	0.084605
0.278682	1.298531	9.402714	13.50488	8.613599	-5.971241	0.189968	-0.190234	-0.941509	4.848976	-1.08454	15.553322	-64.792246	163.128183	-12.414774	0.201354	-0.007161	-0.971207	8.508353	-0.337755	0.877872	23.428147	-9.107076	25.094011	-0.517754	-0.392405	0.115871
0.164463	0.896523	9.398798	14.079656	7.980704	-6.841917	0.175119	-0.214216	-0.895516	5.123444	0.210096	15.050701	-77.096817	150.185289	-15.142976	0.214405	0.008234	-0.972487	8.510824	-0.453412	0.997192	26.646489	-8.868809	26.823662	-0.545432	-0.375794	0.099366
0.29122	0.899094	10.026409	14.751499	7.959379	-7.396244	0.147578	-0.154512	-0.975445	5.882159	1.110458	15.633571	-85.333227	146.233232	-17.038558	0.228267	0.011525	-1.015812	8.917199	-0.397765	0.645701	33.561468	-8.485743	27.652735	-0.55899	-0.361458	0.129514
0.515784	0.897963	9.803451	16.432552	7.541883	-7.83724	0.189211	-0.179992	-0.930849	5.708624	2.181108	15.687485	-88.342743	154.957732	-17.231593	0.227676	0.009381	-0.987112	8.980057	-0.629462	0.825533	35.871605	-8.068751	26.572444	-0.573457	-0.392395	0.100063
0.401192	1.012929	9.801706	16.187142	7.635365	-8.0497	0.175848	-0.18986	-0.94116	6.322548	3.41853	14.908872	-82.789557	176.073585	-17.479363	0.240207	-0.022256	-0.971031	8.969883	-0.515535	0.286865	35.722749	-6.43395	25.189565	-0.503917	-0.391374	0.100414
0.062943	1.416475	10.08098	16.829929	8.360477	-9.389224	0.174333	-0.169374	-0.91984	7.041262	4.373657	13.622683	-81.602874	201.495736	-15.406545	0.254224	0.071885	-1.006028	8.675322	-1.21202	0.218489	35.968709	-4.351484	22.060731	-0.517545	-0.376212	0.115034
0.287589	1.300461	9.857539	16.30642	9.680025	-12.126561	0.177019	-0.248472	-0.913421	7.933967	4.652494	12.339552	-94.901483	215.281322	-13.831117	0.331785	0.071263	-0.993333	9.440331	-1.21427	0.112981	35.516462	-0.96085	13.456796	-0.558434	-0.312055	0.111475
0.402181	1.185495	9.859283	15.900165	10.702568	-15.727889	0.188482	-0.204348	-0.885205	9.456123	6.509737	13.731899	-110.365923	209.531439	-12.112817	0.306719	0.074329	-1.03583	10.441155	-0.636052	0.074254	28.726174	0.854923	4.119823	-0.559128	-0.378477	0.145879
0.452423	1.643538	9.521209	13.077991	11.417413	-17.579075	0.188854	-0.200819	-0.899281	11.625612	6.676306	15.645878	-107.41174	191.820064	-9.512296	0.33186	0.086584	-0.994336	10.155282	-0.807627	0.547265	18.88266	-1.095823	0.069286	-0.572898	-0.361663	0.129444
0.12028	1.30155	10.081611	6.524198	12.970033	-18.945849	0.162127	-0.220556	-0.919903	14.064813	7.853285	14.112948	-75.786662	173.592867	-8.589336	0.409426	0.146172	-0.971306	9.441992	-0.981471	0.233784	9.542093	-2.410285	-3.221927	-0.503358	-0.360642	0.129795
0.757583	1.704874	10.49352	-2.405969	16.597992	-19.996014	0.216709	-0.187797	-0.903396	16.932204	7.847469	13.663637	-71.438202	151.16126	-8.161724	0.397336	0.149313	-1.014079	9.206913	-0.457752	0.351421	5.140341	0.167627	-5.571548	-0.545361	-0.376621	0.114894
0.584665	1.762198	10.433568	-18.423252	23.940618	-20.873386	0.161741	-0.206785	-0.923319	19.174922	7.167157	13.540297	-55.450087	128.048578	-7.978117	0.409721	0.147244	-0.985655	8.790768	-0.573701	0.163503	1.483583	1.559032	-5.320453	-0.531036	-0.344031	0.11329
1.220404	1.245975	10.72791	-31.76874	32.184501	-21.559771	0.175505	-0.227987	-0.892101	20.851544	6.93661	11.197511	-47.399395	97.793597	-9.259165	0.448649	0.147469	-0.986483	9.03222	-0.050073	0.529571	-2.47005	1.344179	-0.690225	-0.517408	-0.359194	0.098669
0.855788	2.058408	12.599646	-46.058456	43.438583	-25.23106	0.190754	-0.235076	-0.917186	21.11785	7.442239	10.24111	-49.619018	66.742836	-8.028476	0.487357	0.161943	-0.973964	8.31976	-0.107518	0.276491	-4.343317	-2.464781	6.150408	-0.544873	-0.345062	0.128748
0.09742	1.481395	11.843667	-48.835564	61.492242	-27.6901	0.204103	-0.207908	-0.924367	20.703928	8.118581	9.780099	-48.719781	38.595534	-0.261658	0.461185	0.176041	-0.960066	9.204712	-0.458247	0.231607	-3.138211	-5.597916	16.736721	-0.531174	-0.36105	0.129655
0.263367	1.824714	11.56419	-79.071122	76.870446	-30.451046	0.260614	-0.244005	-0.89078	19.013789	8.853244	8.839424	-47.720973	19.007837	15.513532	0.474456	0.177188	-0.974692	8.673701	-0.515107	0.221456	-2.966634	-5.064908	30.336596	-0.545015	-0.343409	0.097692
0.214321	1.252028	11.958635	-90.581832	93.79925	-29.621203	0.231558	-0.163816	-0.949389	15.671153	8.972014	8.599483	-44.639856	8.492829	40.167777	0.448209	0.175966	-0.95979	8.562677	-0.687582	0.577955	5.025639	-6.59415	44.928396	-0.558852	-0.34444	0.11315
1.120023	2.640377	14.425812	-137.693481	126.999882	-45.172688	0.259442	-0.185393	-0.918519	14.693449	9.762569	8.692875	-30.698042	2.192246	69.65289	0.46148	0.177113	-0.974416	8.975385	-0.514299	0.5864	14.070753	-8.434713	66.338522	-0.544944	-0.344236	0.11322
0.569961	0.807247	15.487164	-108.288528	153.103591	-27.072139	0.245307	-0.167719	-0.935662	8.949643	-21.587595	89.899153	-48.898917	-41.989999	94.327911	0.461556	0.192433	-0.97542	7.910893	-0.512363	0.446778	26.604819	-12.94728	81.146392	-0.58625	-0.312463	0.111335
0.839438	0.298792	17.536157	-89.527999	167.349661	-5.302096	0.286126	-0.113759	-0.950373	-7.521802	-23.379165	2.762111	365.560784	-170.593802	-12.735406	0.461631	0.207754	-0.976423	8.813452	-0.859136	1.360405	34.220035	-15.832018	90.644159	-0.517128	-0.343827	0.11336
1.487668	0.991736	18.517804	-94.931478	188.361238	5.788934	0.343365	-0.1255	-0.96243	-12.850965	6.782737	20.000727	-28.000235	-179.678408	90.540395	0.435529	0.176963	-0.973864	11.725112	0.533264	2.678305	32.482765	-21.247136	51.717044	-0.51664	-0.312269	0.127214
2.903217	2.206181	20.710012	-81.621963	219.448947	10.549574	0.312452	-0.062952	-0.950658	-1.419429	2.917755	5.291265	229.221925	-256.749728	108.544167	0.434869	0.219709	-0.933826	15.551373	-0.000669	2.148539	37.878562	-26.826782	-13.20141	-0.53041	-0.295454	0.110779
2.782364	0.194121	20.301368	-69.787366	256.791016	12.502912	0.384969	-0.116381	-0.952817	10.94407	10.450024	13.710011	45.302965	-208.039843	68.148739	0.384215	0.178807	-1.001461	16.453349	-1.232563	-0.295228	34.868536	-12.866138	-42.285421	-0.544389	-0.294832	0.095181
3.815953	0.653632	20.4939	-63.149656	289.737361	17.742233	0.384569	-0.08531	-0.973725	8.638293	4.766768	15.694682	55.068398	-128.173881	6.672606	0.358333	0.133767	-1.012248	15.359746	-0.07504	-1.867671	22.784754	12.055334	-60.568547	-0.516222	-0.279884	0.12554
4.579889	1.231851	21.534144	-45.031258	323.184376	18.326289	0.44068	-0.090337	-0.961046	0.365085	1.510777	10.592621	34.801428	-79.981165	-17.58866	0.318959	0.101829	-0.995064	11.57748	-0.183786	-2.238128	26.147303	17.975361	-102.391701	-0.502523	-0.295872	0.126447
5.295613	2.259228	20.131636	-9.999384	353.300862	7.859961	0.509811	-0.123622	-0.888996	-2.166977	-0.174491	10.424727	33.966786	-72.093203	-10.4515	0.345137	0.147941	-0.998626	8.444838	0.461465	-2.473453	21.370617	19.302166	-131.754683	-0.572551	-0.328451	0.112242
5.005265	3.912171	17.064113	17.518733	374.514847	-11.194962	0.524303	-0.120468	-0.903421	-0.0341	-0.460037	10.582498	64.455245	-72.228428	8.530933	0.33186	0.086584	-0.994336	6.792521	0.407169	-2.504512	5.491678	19.087988	-131.299318	-0.516849	-0.328461	0.128051
1.732031	3.510271	16.487277	39.497101	383.024325	-38.142161	0.592991	-0.070785	-0.904755	1.923686	-0.125671	10.680525	77.289362	-64.536329	-3.004537	0.280402	0.117996	-1.00959	6.448098	1.456067	-1.847689	-13.636005	13.120337	-108.05719	-0.530965	-0.344858	0.128818
-0.899487	3.570102	16.550004	42.670049	372.364994	-63.050698	0.649516	-0.124182	-0.853676	1.895329	2.689954	9.606744	39.647809	-18.521559	-7.355701	0.280327	0.102676	-1.008587	7.513906	3.255724	-1.400868	-34.056669	8.67233	-81.33144	-0.545432	-0.375794	0.099366
-0.990778	3.805017	17.742658	67.436514	351.722292	-81.161204	0.705627	-0.129208	-0.840997	-0.024537	-0.403327	11.035663	31.349251	-11.462207	8.430155	0.292417	0.099535	-0.965813	9.883011	4.821096	-0.6912	-32.692231	10.362264	-43.129321	-0.517963	-0.408597	0.116708
-0.50883	1.257151	13.024368	76.658403	337.015471	-95.971562	0.69002	-0.142947	-0.784344	0.379155	2.128645	8.611965	31.844574	-9.571832	1.636272	0.279586	0.069891	-0.97788	12.132072	4.410669	-0.351579	-10.781626	16.841132	24.207572	-0.55934	-0.375998	0.099296
8.96281	-2.33117	8.476553	73.818187	278.075465	-99.991614	0.746516	-0.161745	-0.768249	0.233677	1.172345	9.796964	1.600292	-7.967352	-2.348932	0.280842	0.089499	-1.036282	12.435335	2.784854	-0.113372	-6.84939	16.357081	78.344687	-0.559411	-0.375172	0.083768
24.948861	-9.443871	0.346619	90.836616	158.774106	-82.742988	0.787778	-0.190753	-0.709577	0.294631	0.665358	9.911025	2.14363	-4.183521	-3.174053	0.279071	0.083068	-0.950184	12.550566	1.621827	-0.41565	-13.276588	7.086933	105.908522	-0.558994	-0.342787	0.082094
15.455939	-4.501461	12.628664	63.82263	4.946895	-6.26772	0.801913	-0.208427	-0.692434	0.464825	1.340953	9.858581	1.54606	-2.59655	-3.189582	0.291896	0.052502	-0.948453	11.896156	1.505924	-0.727784	-28.499678	0.898477	110.489896	-0.559131	-0.359806	0.098459
14.32574	-5.071911	13.343071	168.852212	-69.5787	53.791349	0.828253	-0.174919	-0.675228	0.18181	0.721998	10.021934	-5.332007	-1.851567	-3.865922	0.305393	0.09961	-0.966089	11.843722	1.042687	-0.431328	-37.962495	0.171461	100.616943	-0.50385	-0.373529	0.068521
11.253205	-5.722361	8.393149	204.60751	-81.08758	117.962922	0.859138	-0.202868	-0.721983	0.233677	1.172345	9.796964	-9.348676	-1.932786	-3.931617	0.279956	0.086284	-0.993233	12.015498	-0.004817	-0.851825	-33.084181	0.320121	84.938747	-0.559064	-0.341961	0.066566
11.198821	-5.344437	2.710643	169.371252	-96.893862	165.946104	0.814919	-0.219386	-0.650556	-0.007033	0.947027	9.282182	-12.441383	-2.217506	-3.906108	0.318218	0.069045	-0.964357	11.844627	-0.293556	-0.556828	-28.446368	-1.906615	68.17386	-0.559061	-0.360632	0.113987
13.579652	-3.787735	4.525257	141.847586	-132.558853	200.155204	0.76148	-0.276158	-0.674308	0.29122	0.552554	9.741011	-15.033011	-2.031145	-4.61538	0.279441	0.09946	-0.965537	10.495614	-1.043955	-0.22591	-35.746312	-4.880632	45.61827	-0.530831	-0.309168	0.065032
14.996557	-1.366535	6.83624	128.764331	-177.745964	200.838198	0.790864	-0.300921	-0.68225	0.989604	1.002237	10.152375	-15.743898	-2.156179	-5.634512	0.292047	0.083143	-0.95046	10.26148	-0.926769	-0.110004	-39.524173	-6.834983	17.363505	-0.571858	-0.262029	0.077838
15.019401	-0.614729	8.033292	162.862091	-215.436524	180.370503	0.706927	-0.343515	-0.655832	-0.389656	1.061249	10.236688	-16.128056	-3.089702	-4.287681	0.305613	0.085362	-0.979435	9.146641	-0.864644	0.228776	-37.278514	-6.182529	-12.447134	-0.558576	-0.310402	0.08042
12.926039	-2.286279	6.280615	179.071914	-239.475136	152.850548	0.73594	-0.371806	-0.649699	0.080168	-0.009608	10.585296	-10.935731	-5.03605	-1.343376	0.305688	0.100682	-0.980439	9.195503	-0.285996	-0.246906	-35.427775	-5.384017	-35.803178	-0.54446	-0.294006	0.079653
10.426571	-2.752232	4.2978	153.575949	-251.774153	128.241405	0.637825	-0.344828	-0.692898	-0.042731	0.891658	10.300439	-3.793718	-6.739439	1.050024	0.306203	0.087506	-1.008134	8.554319	0.065923	0.221728	-36.986451	-5.922329	-49.360259	-0.544877	-0.326391	0.081327
8.633951	-2.86969	3.353149	98.213491	-251.9754	107.098334	0.596978	-0.36419	-0.71317	-0.048129	0.553438	10.016956	0.355979	-8.170581	2.888825	0.293083	0.117	-0.995516	8.261169	0.183244	0.336534	-37.694305	-6.396227	-54.060171	-0.544668	-0.310198	0.08049
8.207585	-2.000739	4.996601	39.561378	-246.25496	86.058089	0.597364	-0.377961	-0.709755	0.300351	0.834586	10.194365	3.179629	-9.548602	3.401476	0.279441	0.09946	-0.965537	8.078774	0.589193	0.095335	-36.662016	-6.203667	-51.620831	-0.545365	-0.357949	0.067473
5.824987	-0.832756	9.046969	-1.287951	-240.972283	62.075115	0.556931	-0.445692	-0.691628	0.760983	0.777393	10.203989	6.49598	-11.071684	3.604799	0.293083	0.117	-0.995516	7.84491	0.590227	0.210747	-33.359032	-4.889292	-41.526519	-0.545019	-0.324738	0.050271
4.058184	-1.231874	9.408734	-7.032311	-234.292721	40.493847	0.570251	-0.383926	-0.733792	0.345936	0.777674	9.629131	9.511081	-11.871142	5.109865	0.306059	0.117075	-0.995792	7.84329	1.28714	0.213714	-31.944356	-4.774401	-25.521538	-0.545156	-0.341757	0.066636
2.658866	-0.879192	11.031084	-15.48798	-229.836561	26.63942	0.500049	-0.413124	-0.711139	0.929598	0.382567	9.980726	15.516103	-13.554887	2.26175	0.278845	0.037107	-0.947173	8.309356	1.052272	-0.137913	-33.893306	-3.544325	-6.115379	-0.531249	-0.341553	0.066706
0.77859	-2.714265	11.384588	-20.298598	-222.33971	22.819399	0.513398	-0.385956	-0.718319	-0.318039	0.667349	10.8606	15.289808	-6.455921	8.836954	0.293372	0.057862	-1.020201	7.836957	1.169504	-0.146222	-31.148875	-0.510603	12.045545	-0.545227	-0.340931	0.051108
-0.87997	-3.689328	11.405048	-47.362644	-215.417906	28.007763	0.457287	-0.38093	-0.730999	0.258956	1.229672	10.986443	6.004402	-8.268686	5.420319	0.292787	0.115928	-0.981167	7.72012	0.182235	-0.212532	-33.111808	1.677543	27.540043	-0.559482	-0.374346	0.06824
-1.102779	-2.124206	14.703475	-64.27881	-211.623266	39.094947	0.429775	-0.355825	-0.775944	0.345721	0.890335	9.629226	15.644153	-10.3911	6.393483	0.267276	0.08728	-1.007307	8.062922	-0.169751	-0.866389	-39.711551	-1.160266	42.374071	-0.615113	-0.375162	0.067959
-1.089879	0.061708	15.451735	-95.858647	-212.463187	48.676702	0.373292	-0.354326	-0.774547	0.353967	1.003328	10.025798	7.367321	-10.283095	6.634525	0.331345	0.09976	-0.96664	8.187942	-0.807621	-0.567373	-44.629043	-2.879709	53.162342	-0.545365	-0.357949	0.067473
-1.204263	-0.110533	15.448784	-82.102	-219.669554	49.562556	0.373278	-0.337027	-0.792039	0.472054	0.721554	10.141258	3.106656	-12.431213	7.997022	0.280176	0.072035	-1.006579	9.06438	-0.811625	-1.030122	-52.541166	-3.66985	61.786905	-0.545783	-0.390334	0.069148
-2.845469	1.101283	16.444916	-94.45254	-232.738442	41.291802	0.374021	-0.32997	-0.820191	-0.103038	1.060663	10.186093	1.760138	-13.773608	9.030764	0.26683	0.055568	-0.99095	8.775207	-0.983941	-0.736831	-53.632248	-3.119447	64.387387	-0.572693	-0.326799	0.081187
-3.694513	1.448726	16.94134	-111.672518	-249.43497	25.310121	0.303004	-0.279728	-0.856844	-0.031744	0.835755	10.810148	-11.78945	-19.88539	12.319428	0.279441	0.09946	-0.965537	8.729376	-1.445695	-0.080934	-46.514478	0.824403	58.135456	-0.544877	-0.326391	0.081327
-5.555166	1.743574	18.383981	-123.589457	-268.239772	4.677447	0.302247	-0.269485	-0.846184	-0.166811	2.020584	12.676624	-26.683534	-29.461386	17.483997	0.267276	0.08728	-1.007307	9.222103	-2.255637	0.942826	-48.293862	2.409441	46.20984	-0.54453	-0.293179	0.064125
-8.580245	1.058402	18.776895	-129.053514	-285.266011	-15.610067	0.273977	-0.234137	-0.880469	0.080838	0.272092	10.642172	-17.502253	-40.890935	19.751605	0.253709	0.085062	-0.978332	9.875007	-1.965753	1.195794	-55.875178	-2.540781	31.280493	-0.530827	-0.327839	0.112453
-12.458579	1.926221	19.500741	-143.373225	-295.550978	-28.955501	0.217138	-0.253467	-0.847505	0.480971	1.116247	10.594706	-37.360919	-47.652803	20.932409	0.252899	0.097166	-0.936287	10.047093	-2.199698	0.898572	-55.666752	-6.948175	13.87679	-0.558927	-0.324942	0.050201
-17.182244	2.625232	20.889398	-153.702923	-294.091542	-37.030701	0.162141	-0.237855	-0.902412	0.332667	1.004858	11.723777	-43.980434	-60.091201	24.657123	0.253929	0.070813	-0.991678	10.342735	-1.967822	0.96497	-48.890498	-6.236798	0.644917	-0.530969	-0.326186	0.081397
-20.349385	3.083183	19.920437	-144.711262	-280.982781	-41.475662	0.147235	-0.192639	-0.926386	0.0587	1.343949	12.397692	-50.551589	-71.693638	22.440097	0.240808	0.100307	-0.97906	10.046418	-1.909318	0.899809	-42.591663	-3.01104	-13.359817	-0.572834	-0.325146	0.050131
-24.173842	6.178353	17.642707	-142.850227	-251.737287	-36.588894	0.047248	-0.166003	-0.916697	0.120698	1.797059	15.343331	-50.194729	-85.169777	19.840089	0.227612	0.114481	-0.965438	10.572352	-1.563066	0.671568	-33.423699	-0.430525	-26.086926	-0.503228	-0.306281	0.018589
-30.07703	6.755831	17.246165	-169.666821	-201.624065	-17.570233	0.033113	-0.148329	-0.93384	0.742452	0.837733	14.732787	-27.167103	-92.566902	8.779153	0.239923	0.097091	-0.936011	10.630537	-1.6796	0.612267	-25.302589	2.644438	-33.739341	-0.531252	-0.322881	0.019286
-30.387069	6.648434	18.944594	-158.796667	-148.977265	1.379197	0.033099	-0.13103	-0.951331	0.625897	0.950563	14.673824	-32.876886	-106.778663	8.109239	0.227468	0.14405	-0.953096	11.159387	-0.693523	0.626374	-19.592476	8.741621	-35.714032	-0.571996	-0.279048	0.094203
-30.252636	5.273855	19.907532	-124.801604	-101.426141	28.027234	0.018235	-0.137712	-0.92283	0.345215	1.007717	15.007665	-30.423409	-123.022308	5.360207	0.214561	0.099085	-0.964159	11.095004	-0.7527	0.325492	-16.833069	15.435727	-31.325532	-0.530693	-0.292149	0.048667
-21.561305	-6.962299	48.212899	-54.005662	-62.936715	57.391894	0.004443	-0.081911	-0.989032	0.631163	0.72543	14.900193	-31.774285	-139.536662	3.530304	0.188835	0.144896	-0.966618	10.680521	-0.63585	0.258377	-16.923782	19.665097	-20.283904	-0.572484	-0.310606	0.080349
-28.946878	5.213048	19.36437	144.680335	66.203609	88.346327	0.031941	-0.089717	-0.961579	-0.058389	1.346454	14.999487	-37.356336	-158.463994	0.840688	0.175193	0.127357	-0.936639	10.975061	-0.404221	0.264868	-19.07842	20.775225	-10.044076	-0.545156	-0.341757	0.066636
-30.07897	18.705118	17.637476	104.235275	143.488037	21.873237	0.045305	-0.079849	-0.951268	0.05728	1.064586	15.001668	-41.546685	-179.535949	-0.081048	0.162148	0.172171	-0.925025	11.033267	-0.0559	0.267452	-21.163028	20.251624	-1.537942	-0.531879	-0.371459	0.021797
-5.944801	12.34495	-1.071745	196.857317	188.877581	-12.554589	0.017835	-0.106642	-0.943738	-0.106523	0.839919	15.394328	-46.960537	-202.327041	-3.79533	0.12344	0.157698	-0.937544	10.252001	-0.638366	-0.588023	-27.008833	19.186532	7.749097	-0.54481	-0.308546	0.049434
14.540282	-1.353376	9.839432	-74.012439	180.845833	-18.990142	0.102558	-0.108889	-0.945833	-0.152046	-0.398865	15.845193	-52.439252	-227.821393	-7.90638	0.12322	0.171946	-0.924198	11.318174	0.057352	-0.265714	-36.696479	19.16558	6.439445	-0.573531	-0.372897	0.037114
2.120285	-2.914744	18.513643	-35.090557	188.386732	-34.285233	0.089567	-0.115229	-0.97022	-1.051333	-0.396287	16.845363	-58.744166	-257.767152	-14.435917	0.070946	0.155254	-0.907741	12.090076	0.405289	0.04961	-40.64634	16.319557	-12.572872	-0.559206	-0.340308	0.03551
-3.623679	5.50572	11.958741	89.538621	179.693579	-26.595679	0.074689	-0.104612	-0.959211	-2.003674	-0.22442	18.071025	-63.222711	-294.585546	-19.398239	0.0054	0.137415	-0.876659	13.118796	0.350603	1.445929	-41.980038	5.200733	-20.460286	-0.545231	-0.322259	0.003688
0.778631	0.950131	8.615344	48.420311	152.346563	-15.481475	0.160555	-0.130873	-0.96855	-2.879197	1.016089	17.600818	-56.679756	-341.954313	-25.812628	-0.020841	0.196402	-0.851423	11.758393	0.236815	1.240403	-53.831377	-5.0995	-19.3598	-0.55949	-0.337003	-0.026601
-2.988804	0.922769	14.963785	6.797481	108.935915	-10.608256	0.133072	-0.140366	-0.978512	-3.654804	3.889493	16.568008	-55.523162	-381.537661	-18.06617	-0.034483	0.178863	-0.821444	10.850197	0.640428	0.027489	-57.507533	-4.794029	-32.426145	-0.587298	-0.374754	0.0681
-0.042818	0.097091	10.471174	78.569364	76.157787	-8.863609	0.188025	-0.10408	-0.97608	-1.439488	8.052894	15.599152	-49.421735	-407.369642	5.54313	-0.125685	0.161946	-0.804161	9.739064	0.529067	0.545249	-49.08595	-0.372982	-48.88466	-0.545507	-0.356297	0.036418
-0.165702	0.899666	10.074354	53.963051	56.22606	-17.183086	0.175462	-0.176089	-0.944576	1.638215	6.468492	14.077197	-34.019884	-402.851526	40.283535	-0.126275	0.159802	-0.775461	8.803474	0.591281	1.007144	-45.601208	-2.449789	-56.860906	-0.546066	-0.387029	0.007036
-0.230999	1.242668	9.676717	59.746303	49.827392	-8.808083	0.202188	-0.156353	-0.923954	4.866189	4.209235	14.142999	-40.090673	-377.486823	64.671235	-0.205677	0.198882	-0.690719	8.220901	1.117293	1.47762	-40.982694	-6.182527	-58.112323	-0.559836	-0.370215	-0.009399
-0.10952	0.841942	10.018373	57.034578	50.339488	1.819376	0.202946	-0.166595	-0.934614	6.111759	3.983073	15.867384	-23.331793	-343.09362	81.922295	-0.192481	0.184708	-0.704341	8.410209	1.526387	2.201535	-30.369614	-6.408002	-56.316739	-0.587857	-0.405487	0.038718
-1.128752	-0.99327	10.502286	47.389098	25.586507	-3.615438	0.231187	-0.167344	-0.935313	6.737473	0.711811	12.537404	14.537559	-325.113418	93.447125	-0.219833	0.194519	-0.633045	9.062168	2.222803	2.456234	-20.10771	-8.473763	-54.144482	-0.532643	-0.437055	0.040673
0.687257	1.299929	9.80848	52.566029	8.598302	-7.617412	0.202574	-0.170124	-0.920538	1.667715	0.042756	9.4864	21.623127	-276.252271	85.24282	-0.24652	0.221794	-0.591451	10.423557	2.85977	2.783798	-7.007583	-14.843719	-39.955132	-0.573811	-0.388264	0.022424
-0.005654	1.701311	9.512542	41.052044	10.278632	-8.722385	0.176248	-0.22093	-0.920253	-9.890863	-2.305899	4.202911	36.795037	-188.497774	81.779071	-0.272247	0.267605	-0.593911	10.593152	2.276627	2.305372	3.254311	-20.684938	-15.733454	-0.573949	-0.405282	0.038789
0.044837	1.814705	9.17302	22.300993	8.625246	2.008051	0.189982	-0.207534	-0.924018	-19.070515	-12.317396	1.849948	35.250059	-38.352631	24.813661	-0.273132	0.26439	-0.550861	10.636067	2.098555	1.407127	13.52106	-16.938338	1.111768	-0.560738	-0.452829	0.025842
0.572624	1.472337	9.806977	12.40251	4.255128	1.168163	0.231587	-0.198415	-0.914405	-9.216302	-5.73715	11.234209	55.821721	94.943331	-137.553819	-0.286924	0.21621	-0.518875	10.635506	1.866004	1.346231	23.357162	-8.106163	5.160083	-0.560667	-0.453656	0.04137
0.448011	1.585131	9.293555	8.29817	3.822539	2.399651	0.20446	-0.187081	-0.955934	-10.1298	-6.131839	8.83688	44.538926	129.431053	-227.913784	-0.274174	0.170323	-0.51614	10.996165	0.936966	1.588506	27.276438	-0.829459	0.862819	-0.559691	-0.390538	0.069077
0.335729	1.585697	9.405034	-0.161564	2.65933	3.938465	0.188854	-0.200819	-0.899281	-13.465727	-5.339154	6.276494	25.878468	134.84248	-295.445599	-0.259647	0.191078	-0.589168	11.161379	0.81769	0.932337	28.05972	3.337997	-8.481299	-0.56025	-0.421271	0.039696
0.735521	1.412841	9.355252	-4.326122	2.691946	4.778995	0.189625	-0.228361	-0.89245	-17.714117	-1.837975	7.039569	13.255749	182.893642	-308.84204	-0.285529	0.146039	-0.599956	10.502297	0.81695	0.38107	25.741577	5.603207	-18.323906	-0.573878	-0.406109	0.054316
0.103329	1.64258	9.230262	-8.275155	3.066739	5.348458	0.203346	-0.197666	-0.913707	-19.489677	-0.592552	10.230384	30.486614	240.673575	-283.821063	-0.272188	0.102296	-0.62592	10.199939	1.106522	0.017362	22.893524	6.480204	-27.209956	-0.545783	-0.390334	0.069148
0.16772	1.01213	9.56984	-11.825751	3.474471	5.886641	0.20446	-0.187081	-0.955934	-18.847194	0.251647	10.75415	82.588371	281.852647	-234.593681	-0.272339	0.071655	-0.623913	9.549931	0.991608	-0.055144	19.78467	5.520251	-36.024558	-0.546133	-0.404874	0.038929
0.06084	1.243667	9.96655	-13.599937	3.675034	6.447009	0.246465	-0.209032	-0.925414	-16.064788	-1.21984	8.886407	110.209155	302.37986	-183.799332	-0.246097	0.012668	-0.649149	9.199135	0.993159	0.117974	15.657371	5.617436	-40.929188	-0.574295	-0.438494	0.055991
0.689484	1.300412	9.922186	-12.40637	3.685829	5.983748	0.189982	-0.207534	-0.924018	-13.054753	-2.579192	6.910315	96.329039	312.043412	-143.774141	-0.193018	-0.042955	-0.717986	8.30592	1.109606	-0.317386	12.000877	6.293952	-39.574844	-0.587995	-0.422505	0.055083
0.234872	1.186584	10.083355	-10.014542	4.444973	5.069194	0.260185	-0.178336	-0.946671	-9.892413	-3.148615	6.749773	53.22435	312.622316	-114.431469	-0.15328	-0.054834	-0.760859	8.540614	1.224971	-0.372397	8.743737	5.736222	-31.127423	-0.560458	-0.437463	0.040533
0.575597	0.438872	9.91634	-4.381816	5.210801	2.182705	0.203346	-0.197666	-0.913707	-8.090423	-3.432944	7.579966	4.363511	307.335374	-93.164002	-0.113687	-0.037145	-0.791389	7.772033	1.342631	-0.446115	5.751638	5.455024	-19.748171	-0.574508	-0.436015	0.009407
0.698682	0.900251	10.375322	4.70398	5.551993	-2.499433	0.203331	-0.180366	-0.931198	-6.432739	-2.758147	9.823329	-38.032958	300.423459	-77.701421	-0.114277	-0.039289	-0.76269	7.664985	0.880518	0.088868	1.844963	4.029614	-10.43723	-0.560809	-0.452003	0.010314
0.575555	0.496313	9.916581	10.85417	6.172504	-5.911279	0.244921	-0.153948	-0.939078	-4.470736	-1.857902	12.865881	-65.209388	292.490291	-68.555217	-0.062379	-0.099198	-0.774128	7.603748	0.415303	-0.093931	-2.810021	2.024216	-7.415854	-0.588692	-0.470256	0.042067
0.517928	1.013328	9.917639	18.206447	6.71523	-7.395743	0.230829	-0.188172	-0.903745	-2.348903	-1.183824	15.288834	-66.989312	283.858787	-67.34801	-0.048002	-0.109084	-0.845149	7.432337	0.358868	0.202055	-6.283677	0.746573	-9.291949	-0.560805	-0.470674	0.057735
0.582479	1.704274	10.31962	23.69266	7.645948	-8.623186	0.218595	-0.204755	-0.938792	0.449017	0.220736	17.103875	-59.69923	275.680112	-75.807638	-0.020939	-0.059757	-0.89176	7.368244	0.648395	-0.037437	-9.997637	2.250434	-14.02248	-0.5606	-0.435811	0.009477
0.628889	1.299729	9.750514	25.721455	8.701284	-8.703883	0.218224	-0.208283	-0.924716	2.086366	0.782067	18.38427	-42.876563	258.884909	-87.119306	0.030374	-0.061601	-0.864164	8.37621	0.995792	0.282289	-11.941153	4.170608	-16.988836	-0.561088	-0.467369	-0.004376
0.468012	1.646916	10.317152	27.096978	9.281041	-10.477262	0.189225	-0.197291	-0.913357	2.990488	0.779678	17.610658	-33.486517	228.327653	-101.563416	0.030965	-0.059457	-0.892863	7.734041	0.824532	0.628884	-11.257932	3.666897	-15.369284	-0.560529	-0.436637	0.025005
0.333502	1.585214	9.291328	22.714361	9.262318	-10.618298	0.246465	-0.209032	-0.925414	3.159558	0.779213	17.444366	-38.437907	195.169141	-112.161024	0.044676	-0.086807	-0.934181	8.679379	0.357764	0.644513	-8.141608	0.882682	-5.34349	-0.5606	-0.435811	0.009477
0.50844	1.81558	9.466193	19.220509	9.372405	-10.913149	0.219367	-0.232297	-0.93196	2.506766	3.427364	16.753622	-56.613713	174.715343	-115.492135	0.0842	-0.024229	-0.953372	9.094403	0.008609	0.710639	-5.408773	-2.80851	3.527398	-0.546759	-0.453452	0.04144
-0.012293	1.642422	9.171182	12.509038	9.216408	-10.743013	0.230086	-0.195229	-0.875593	2.448816	4.89216	16.866925	-80.954844	173.469979	-108.03455	0.084495	-0.023157	-0.967722	9.324155	0.355289	0.41699	-4.265937	-5.1058	7.201926	-0.560805	-0.470674	0.057735
0.281773	1.643904	9.574721	6.930357	9.005634	-10.699709	0.217109	-0.218868	-0.882488	2.561792	6.018555	16.870291	-95.673162	196.254757	-89.264765	0.135438	-0.041393	-0.924772	9.520431	-0.338072	1.375835	-4.432737	-6.324216	6.658183	-0.560876	-0.469848	0.042207
0.280411	1.988312	9.519316	2.209463	8.83064	-10.750303	0.218595	-0.204755	-0.938792	4.221541	6.634733	16.509394	-105.76838	235.853195	-62.463012	0.162426	-0.007386	-0.97038	9.394155	-0.107229	0.955275	-6.43807	-4.994057	4.519601	-0.533131	-0.468614	0.02682
0.5164	1.587503	9.863199	-2.239098	8.760599	-11.812086	0.274706	-0.209781	-0.926113	6.466939	7.081221	16.613561	-119.963562	274.059462	-33.426595	0.215586	0.012522	-1.029886	9.158651	0.125863	1.011769	-7.198914	-2.625103	2.921733	-0.560458	-0.437463	0.040533
1.204608	1.529805	9.933173	-5.954179	9.263137	-14.27752	0.2606	-0.226706	-0.908272	9.579983	7.244582	16.905542	-131.507082	297.350821	-3.764154	0.254369	0.042316	-1.01837	9.158651	0.125863	1.011769	-5.137614	1.151006	2.284976	-0.560738	-0.452829	0.025842
0.30784	1.017596	10.879688	-11.340193	12.124751	-16.761177	0.231615	-0.233013	-0.879421	13.91673	7.237257	17.902444	-136.676243	296.803568	23.263003	0.241318	0.026921	-1.017091	8.911447	0.182006	0.408545	-4.358787	5.054059	3.730581	-0.533552	-0.482327	-0.018927
0.660274	1.019277	11.341194	-11.002473	18.859036	-19.627798	0.260957	-0.205878	-0.93984	18.131333	7.736886	18.614157	-132.855987	273.602373	44.708583	0.3323	0.058087	-1.021028	9.103632	0.301215	1.251038	-5.16786	7.335272	4.70067	-0.5889	-0.486449	0.042904
0.550794	1.767306	11.626369	-17.910865	28.636604	-22.822871	0.259085	-0.206221	-0.886952	22.45998	5.644858	19.042908	-109.363884	236.60436	59.836302	0.333481	0.062374	-1.078427	8.866872	0.127279	1.185987	-5.992793	8.373629	4.576446	-0.560391	-0.419618	0.00864
1.287374	2.581847	14.201498	-28.926424	49.637995	-28.338886	0.244578	-0.192075	-0.890018	26.715687	4.394989	16.130634	-80.863448	194.299138	66.005174	0.38502	0.106492	-1.053842	8.922627	1.056114	1.131137	-3.409748	8.768636	2.761943	-0.560809	-0.452003	0.010314
0.664562	1.250008	11.569571	-11.945484	64.691291	-29.155237	0.245336	-0.202318	-0.900678	28.071651	4.896045	12.309791	-69.042786	149.547958	65.538345	0.424469	0.15375	-1.07203	8.860039	1.171659	0.95081	-2.367881	9.405666	0.676825	-0.574925	-0.4684	0.011081
1.079274	3.550757	12.382961	-29.222842	79.329506	-34.542136	0.274706	-0.209781	-0.926113	29.060927	5.007301	12.840194	-85.11776	104.913634	61.535511	0.449755	0.136436	-1.042878	8.921661	0.99779	1.070982	-1.743669	7.934167	4.165822	-0.547247	-0.48501	0.027587
0.121621	3.439956	13.159493	-27.74132	87.045756	-28.86898	0.260585	-0.209407	-0.925764	27.429303	8.161922	9.468472	-87.717399	58.28152	59.250369	0.450125	0.152828	-1.058231	8.923167	0.823809	1.130148	-0.135256	6.346704	7.376823	-0.574646	-0.453034	0.025772
1.041187	2.590739	16.242642	-25.214302	107.345061	-26.981837	0.259456	-0.202692	-0.901027	26.307429	10.082979	13.692668	-99.599218	16.052064	62.304752	0.449535	0.150685	-1.029532	9.285507	0.592426	1.55511	3.819449	5.231182	16.048494	-0.58918	-0.501815	0.028213
1.031006	1.267171	15.668561	-9.966373	122.345031	-24.113281	0.288083	-0.217212	-0.89831	23.507166	10.145397	14.596352	-47.015798	-12.825004	69.644582	0.462881	0.167152	-1.045161	9.163188	0.068775	1.251149	10.5464	1.647242	27.748867	-0.588416	-0.436219	0.009337
0.996228	0.98483	16.803303	-4.136697	141.363781	-21.980432	0.386527	-0.188764	-0.921662	20.739632	7.781973	11.422363	20.333776	-28.690121	75.460869	0.488688	0.196871	-1.03337	9.342687	-0.512143	1.311885	21.458693	-5.38279	42.875795	-0.588971	-0.485623	0.027376
0.777688	0.35531	17.307872	7.271226	162.318337	-15.047465	0.359443	-0.229328	-0.910716	22.28527	30.758569	7.738557	-302.059049	-301.145374	130.124048	0.462661	0.181401	-1.031815	8.990366	-0.801465	1.363953	30.894791	-11.061833	51.09323	-0.560947	-0.469022	0.026679
1.25024	0.300673	18.055629	15.84523	185.429853	-7.335454	0.385784	-0.195821	-0.89351	-5.700812	-7.783449	-2.167935	-0.448632	-209.644715	32.054329	0.449095	0.179182	-1.00284	9.299232	-0.101767	2.211119	33.822123	-15.251758	34.317879	-0.560667	-0.453656	0.04137
2.195712	1.225589	19.612339	13.888633	212.491071	-3.056045	0.401419	-0.216681	-0.91518	-11.121222	-5.900438	13.628467	53.734664	-236.354295	24.371863	0.384806	0.18095	-1.03016	10.873751	1.401103	1.408562	30.613853	-16.998672	-13.802644	-0.588625	-0.452411	0.010174
3.604792	0.600216	21.398855	20.038164	246.332018	2.138284	0.441509	-0.187076	-0.884247	3.596342	7.645526	11.571722	61.177336	-285.917435	66.709863	0.384146	0.223696	-0.990122	12.505876	2.090031	0.423924	35.053785	-8.091465	-60.303016	-0.588554	-0.453238	0.025702
5.034051	0.426373	21.312262	35.227251	286.718032	4.714308	0.456787	-0.228764	-0.874349	6.601467	6.178044	14.747322	59.364779	-253.66819	39.3112	0.333272	0.197042	-1.044411	12.840496	3.363185	-0.462638	33.997306	10.414027	-54.766487	-0.574646	-0.453034	0.025772
5.565935	-0.329708	19.216695	52.691895	328.830634	6.974607	0.484656	-0.233041	-0.860971	8.804265	6.627593	18.247446	78.7792	-193.294142	-9.400049	0.280628	0.163958	-1.012601	11.756621	3.651299	-1.619441	28.205163	19.138865	-15.983275	-0.61644	-0.45282	0.010034
5.590354	1.961157	17.635575	53.841698	365.296898	-0.838095	0.569022	-0.256116	-0.831499	0.533139	0.777919	10.312433	87.200322	-141.276655	-43.741298	0.255341	0.181272	-1.041753	9.63366	2.959247	-1.662023	38.509032	26.026244	19.705645	-0.54711	-0.467992	0.011222
3.510295	5.003431	16.755482	69.571649	391.34494	-23.49268	0.597278	-0.274165	-0.814705	1.371038	-2.039072	11.573058	83.901624	-126.138738	-42.206416	0.267426	0.117921	-1.009315	8.212945	1.508857	-2.113963	46.006281	39.199258	29.428236	-0.546342	-0.421067	0.039766
0.619306	6.505539	18.240002	67.045624	387.644499	-36.489842	0.611055	-0.312666	-0.765995	15.998799	-1.730564	9.502751	64.58484	-30.699044	32.281697	0.228869	0.134089	-1.023841	8.797064	1.738574	-2.401504	30.32841	42.765399	16.445825	-0.588625	-0.452411	0.010174
1.191933	6.390241	18.250654	118.20733	360.030211	-59.542211	0.693864	-0.263358	-0.767678	-0.127992	0.834345	8.996471	7.686293	-4.121205	12.183555	0.241914	0.089274	-1.035455	10.338222	1.678471	-2.013698	23.718325	32.435598	1.267098	-0.588695	-0.451585	-0.005354
1.275886	5.52178	16.657375	164.485477	324.626735	-85.533373	0.707299	-0.339987	-0.669908	-0.521148	1.398831	9.49824	23.920643	-16.004026	-0.807824	0.228052	0.085984	-0.99213	10.154551	1.212537	-2.438326	13.446302	27.223332	13.646746	-0.574437	-0.436841	0.024935
1.126549	3.491103	11.872156	212.072243	280.882422	-112.312571	0.763038	-0.348542	-0.643153	1.466012	-0.350036	10.783944	12.208918	-6.365883	3.132105	0.241769	0.118843	-1.023113	10.942534	1.273555	-1.285542	-9.903873	16.806663	10.082571	-0.574299	-0.419822	0.00857
15.984127	-6.859292	-1.408113	239.764616	176.908166	-117.644892	0.747774	-0.324153	-0.635559	0.46929	0.270768	9.970959	17.605828	-2.215909	2.622803	0.228643	0.088127	-1.02083	11.826966	1.619986	-1.267552	-7.643786	7.651309	-3.054893	-0.588207	-0.420027	0.0085
25.717715	-17.142243	-13.310175	104.753086	38.127744	-80.542018	0.790178	-0.377175	-0.584131	0.247275	0.384192	10.362696	10.835914	-0.561141	-1.003911	0.228643	0.088127	-1.02083	11.833474	2.609256	-0.784094	-12.879718	6.652791	-11.83275	-0.587931	-0.385989	-0.02423
18.073261	-5.58603	14.720897	-91.829191	-88.769477	-6.207838	0.790964	-0.422016	-0.559808	0.519541	1.566072	9.746701	8.782892	0.817346	-0.097842	0.215893	0.134014	-1.023565	12.788332	2.783796	-0.166676	-13.547359	6.102255	-9.107837	-0.602186	-0.419404	-0.007098
16.918629	-8.702043	11.161818	58.647965	-78.070116	41.737771	0.790579	-0.408245	-0.563224	0.298819	1.00353	10.137868	0.0444	0.901077	-1.737926	0.241474	0.117771	-1.008763	12.679373	2.669892	0.309884	-8.142343	1.135824	-0.240809	-0.574441	-0.41817	-0.022486
14.665021	-6.546682	4.307418	68.915719	-84.668546	61.099833	0.763066	-0.38314	-0.608169	0.187423	0.947558	10.305322	0.107943	1.054179	-1.582213	0.241989	0.104595	-1.036459	12.093708	1.684444	0.41449	-6.026211	-1.567307	1.59821	-0.574091	-0.40363	0.007733
13.748505	-5.29465	1.396517	16.127019	-112.592989	83.237512	0.791693	-0.39766	-0.605452	-0.053934	1.060223	9.790824	1.036834	1.277169	-1.055172	0.190676	0.106438	-1.064055	11.208581	1.163538	0.335852	-4.439035	0.70457	-4.592008	-0.560671	-0.434985	-0.006051
15.586317	-2.984281	4.738167	-22.910266	-156.285008	85.5218	0.764195	-0.389855	-0.632905	0.473933	1.003302	10.254774	-2.395426	1.017599	-0.844718	0.228568	0.072807	-1.019826	10.798249	1.862385	0.570743	0.253889	4.062646	-8.261824	-0.56095	-0.450351	-0.020741
15.22545	-1.194377	6.841418	-14.682759	-193.107295	70.370583	0.721819	-0.371432	-0.649349	0.067564	0.891253	10.076298	-1.449077	0.254677	0.443236	0.202986	0.089049	-1.034628	9.732387	1.980226	0.371709	5.141911	5.042664	-6.695027	-0.561088	-0.467369	-0.004376
12.961184	-0.969749	5.20707	-7.668173	-217.818957	47.048374	0.721833	-0.388731	-0.631858	0.243648	0.38405	10.192777	-0.930264	-0.172799	1.179279	0.202471	0.102226	-1.006932	9.259677	1.283899	0.240125	9.033272	4.765246	-5.149163	-0.546759	-0.453452	0.04144
10.891899	-0.510414	4.770943	-32.715481	-230.97995	28.172913	0.679472	-0.387607	-0.63081	0.071083	0.947726	10.246264	1.207967	-1.961649	2.242198	0.215372	0.08698	-1.006204	9.378114	1.109401	0.241584	10.402114	2.911802	-5.878751	-0.574788	-0.451381	-0.005284
8.916198	0.531257	6.214495	-68.199997	-238.921423	14.040618	0.624504	-0.406594	-0.650733	-0.046573	1.004177	10.130615	5.603127	-3.569783	3.493703	0.216263	0.150406	-1.038918	9.077532	1.10884	-0.063453	11.497759	0.766399	-11.006698	-0.560947	-0.469022	0.026679
7.476861	1.692022	8.74876	-84.426123	-244.535789	6.022966	0.666852	-0.390419	-0.669273	0.243864	0.271389	10.192682	6.145138	-4.63824	3.822627	0.216113	0.119765	-1.036911	9.025523	0.93623	0.294146	9.694728	0.291024	-12.984296	-0.574437	-0.436841	0.024935
4.984141	2.044285	10.065688	-82.000644	-246.663968	10.182739	0.62519	-0.33034	-0.748852	0.126962	-0.066474	10.076701	8.790847	-5.464181	3.970685	0.229233	0.090271	-1.049529	8.782586	1.051439	-0.069202	8.884925	-0.441592	-13.405703	-0.574508	-0.436015	0.009407
2.706088	2.220921	10.647257	-80.041456	-243.810595	27.916801	0.597349	-0.360662	-0.727246	0.596102	1.116032	10.597124	9.806379	-5.758107	3.999408	0.215893	0.134014	-1.023565	8.849845	0.82073	0.350258	10.703644	-1.458681	-12.032246	-0.588558	-0.434566	-0.021719
1.959139	2.795393	10.521488	-81.66875	-238.935629	50.38295	0.570223	-0.349328	-0.768776	0.474364	0.77798	10.254584	10.59802	-6.581333	4.824225	0.203212	0.13501	-1.037639	8.552969	0.646683	0.2242	10.257182	-1.025148	-9.740682	-0.560462	-0.418792	-0.006888
1.690801	4.178298	11.488215	-84.641271	-237.780626	72.053857	0.555316	-0.304112	-0.79275	0.356061	1.172414	10.139219	12.980894	-6.128669	5.87881	0.216113	0.119765	-1.036911	8.373179	0.878898	0.102074	10.766347	-2.32977	-10.591991	-0.561017	-0.468196	0.011151
2.452013	5.445333	12.417648	-89.02038	-241.290858	86.753734	0.499606	-0.330155	-0.784522	0.521612	1.115476	9.802961	10.319252	-6.474072	6.643945	0.215742	0.103373	-1.021558	7.829078	0.296139	-0.689092	12.967387	-4.117388	-11.477676	-0.588345	-0.437045	0.024865
2.366781	6.543319	13.95504	-86.963604	-240.62491	93.961686	0.514069	-0.292403	-0.83393	0.474364	0.77798	10.254584	7.074704	-6.490602	7.566026	0.215441	0.042091	-1.017543	8.069545	0.296588	-0.445063	8.017751	-3.573283	-9.59817	-0.602603	-0.451789	-0.005424
1.645566	6.951015	15.136168	-83.555991	-232.276435	97.091098	0.443438	-0.255931	-0.867168	0.310022	0.834966	10.647482	8.05179	-7.339732	8.020798	0.190155	0.059405	-1.046695	8.358043	0.759285	-0.737117	9.285567	-3.792945	-8.623772	-0.561017	-0.468196	0.011151
0.283579	8.678151	15.798921	-87.500834	-226.248126	90.211907	0.373978	-0.278072	-0.872666	-0.030643	0.892132	10.866835	4.510209	-11.255872	9.181326	0.202616	0.072657	-1.019275	8.237675	0.817136	-0.858885	10.071315	-3.694296	-6.059958	-0.560529	-0.436637	0.025005
-0.803407	9.95548	18.795174	-92.193913	-232.645898	69.246693	0.373221	-0.26783	-0.862006	-0.128742	0.836681	11.657324	0.456146	-16.590104	10.481488	0.216257	0.090196	-1.049254	8.773877	0.061674	-0.672474	9.426836	-4.351052	1.035956	-0.588558	-0.434566	-0.021719
-5.558384	10.200549	21.488407	-66.182143	-249.381607	44.588875	0.302204	-0.217587	-0.898659	-0.459628	0.837897	12.329745	-4.876521	-29.987347	13.611853	0.228498	0.117696	-1.008487	9.126198	0.350997	-0.724542	10.091579	-5.002419	5.101619	-0.587928	-0.40466	0.023191
-11.09271	10.253766	19.448749	-42.572571	-278.65345	22.674581	0.316324	-0.217962	-0.899008	0.017088	1.851696	13.189864	-0.804676	-47.016283	18.008536	0.189269	0.056189	-1.003646	8.598199	-0.053825	-0.616363	9.423925	-5.056251	7.121543	-0.574855	-0.469226	0.026609
-17.743659	7.901058	18.741159	-52.370213	-308.917768	19.97308	0.205246	-0.231922	-0.931611	-0.768708	2.079333	14.136003	2.080528	-55.636677	19.189162	0.188829	0.084687	-0.976953	8.772371	0.235655	-0.731639	11.591281	-3.354534	11.904308	-0.560667	-0.453656	0.04137
-24.522537	6.534631	20.308455	-67.281614	-325.38789	27.874519	0.233473	-0.215372	-0.949801	0.727646	1.625839	14.110415	19.066487	-65.571419	18.826612	0.202691	0.087977	-1.020278	9.18784	0.641984	-0.542485	14.225707	-0.479919	15.824094	-0.560671	-0.434985	-0.006051
-29.796217	3.791907	22.694854	-53.630651	-307.075964	46.927639	0.160998	-0.213841	-0.895167	-0.570565	0.784309	15.214691	-4.390828	-74.965238	7.184359	0.176444	0.086755	-1.005377	9.004594	0.466677	-0.905969	14.846163	4.551759	20.474629	-0.547106	-0.486663	0.058642
-57.419927	-9.325258	26.080381	72.799297	-166.754853	220.320712	0.091882	-0.197855	-0.949725	0.084761	1.234668	16.304521	20.853006	-93.641752	8.375507	0.163242	0.040719	-1.002091	9.946692	1.393733	-0.884407	11.274596	8.537649	21.293876	-0.574788	-0.451381	-0.005284
-57.019724	13.444842	18.227884	-68.736094	51.919247	25.144796	0.062526	-0.207691	-0.906799	-0.767579	2.363417	16.910371	11.813001	-114.397194	11.892249	0.163393	0.07136	-1.004098	10.717879	1.10234	-0.691616	14.047875	8.212934	27.032312	-0.588136	-0.420853	0.024028
-47.654307	10.720157	14.136286	29.381056	114.420923	18.825734	0.09111	-0.170313	-0.956557	-0.752796	0.955628	17.475582	14.697834	-137.598153	13.267139	0.125055	0.073278	-1.03197	11.620667	-0.290296	0.097746	12.052875	5.80066	37.781405	-0.57437	-0.418996	-0.006958
-45.791894	10.438137	15.705745	-7.025367	144.359345	-5.606713	0.090724	-0.156542	-0.959972	-0.994584	1.293616	16.961274	10.849323	-163.191795	14.951996	0.163393	0.07136	-1.004098	10.713416	-0.293216	-1.116898	-0.367363	9.688297	33.222107	-0.546763	-0.43478	-0.00598
-3.232262	6.135357	11.514365	102.641114	103.85344	-0.079413	0.10373	-0.167502	-0.918094	-1.414114	1.352421	18.877397	0.885902	-193.821755	13.83817	0.098142	0.054592	-0.987366	11.2391	0.634044	-1.282759	-6.873561	12.298446	18.162622	-0.602182	-0.438076	0.040322
10.652129	-6.667447	15.651767	5.331337	78.560345	-14.93171	0.132729	-0.178493	-0.929452	-1.446687	-0.336533	19.894278	5.567175	-229.260567	10.376273	0.057739	0.049008	-0.91479	11.898668	2.319977	-0.484695	-14.261504	8.91716	8.332664	-0.588278	-0.4192	-0.007028
-1.248891	1.545862	13.238512	104.746343	78.054309	-38.016129	0.146863	-0.196167	-0.91231	-1.783664	-1.574921	20.169179	15.731029	-268.496092	5.278112	0.085242	0.069838	-0.988094	13.559383	2.550479	0.026361	-13.482603	1.663288	9.036893	-0.602466	-0.434771	-0.021789
-2.33398	5.818694	4.767684	76.460296	76.108078	0.06626	0.177391	-0.244944	-0.927497	-3.097866	-1.00871	20.651605	29.177553	-312.508519	-6.585157	0.019847	0.082639	-0.959019	14.280222	2.319274	0.697554	-6.995002	-11.226046	24.327828	-0.56032	-0.420445	0.024168
-2.158176	-4.771561	13.307858	7.325448	22.68354	-2.504551	0.190754	-0.235076	-0.917186	-0.311525	-0.113983	19.182331	59.272442	-345.831998	-10.714253	-0.020042	0.063878	-0.914139	12.099865	0.930445	0.650904	-19.5524	-16.656018	30.482587	-0.61609	-0.43828	0.040252
1.661779	1.184583	9.88378	34.566688	8.970667	3.665061	0.175891	-0.241758	-0.888685	1.205196	3.320419	20.462727	67.778432	-351.278555	-2.314665	-0.071946	0.063578	-0.913036	10.514962	1.052221	1.100942	-21.583422	-9.816121	10.129679	-0.601977	-0.403212	-0.007935
-0.413779	2.619218	9.16749	20.006323	12.761901	-11.351038	0.147635	-0.223709	-0.905478	0.432613	4.224592	22.089109	111.905484	-332.371259	16.035645	-0.138302	0.057843	-0.839909	9.405106	1.812741	1.80213	-19.274838	-15.99232	-4.061287	-0.574299	-0.419822	0.00857
-0.196595	2.041983	8.544147	-7.077743	14.693614	10.471274	0.176262	-0.23823	-0.902761	-3.471729	2.255869	16.910097	179.369459	-310.489518	33.325084	-0.152018	0.024984	-0.808926	8.227969	2.339115	2.021974	-14.73922	-16.262016	-3.037319	-0.574299	-0.419822	0.00857
0.18797	0.729264	10.591989	-11.859985	9.629568	10.586733	0.16177	-0.241383	-0.888336	-0.924049	1.854998	14.925141	220.399653	-288.346291	52.723826	-0.190431	0.011582	-0.835795	8.417953	2.457829	2.744652	-2.577333	-14.130642	2.073567	-0.587995	-0.422505	0.055083
0.449166	1.527931	9.350167	-7.642429	7.869014	10.361987	0.175862	-0.207159	-0.923668	-4.499074	-3.328449	6.013674	257.038612	-260.398905	58.426325	-0.179452	-0.040736	-0.746961	9.293271	1.988723	2.160112	10.908758	-14.632423	4.961239	-0.574579	-0.435189	-0.006121
0.160625	1.585097	9.231134	-14.690817	8.051916	10.323913	0.175119	-0.214216	-0.895516	-13.642458	-11.150933	-5.225021	155.891646	-174.404922	21.523972	-0.269693	-0.039117	-0.773731	10.541819	1.813637	2.661735	18.670887	-15.737449	5.060658	-0.602186	-0.419404	-0.007098
0.69097	0.783679	9.976868	-17.784062	8.124094	10.824644	0.203331	-0.180366	-0.931198	-16.497156	-7.816137	1.511666	35.48744	-93.93379	-68.927798	-0.245293	-0.059647	-0.70153	9.807484	1.693172	1.21027	22.030392	-14.325322	2.749464	-0.573252	-0.357531	0.051805
0.288827	1.128377	9.913668	-18.128681	7.893708	9.319254	0.217838	-0.194512	-0.928132	-17.367909	-3.528632	6.93212	-27.149928	-31.937773	-111.69854	-0.284446	-0.105833	-0.697692	9.567558	1.460419	0.965251	27.376662	-7.373855	-5.127095	-0.56032	-0.420445	0.024168
0.524443	1.244542	10.259723	-17.031861	7.417246	8.419031	0.217866	-0.229111	-0.893148	-19.872046	-2.506371	11.013264	9.586059	24.602223	-110.428849	-0.271175	-0.104687	-0.712317	9.082764	1.226228	0.236576	31.507386	2.706537	-14.266628	-0.546483	-0.419414	0.00871
0.525764	0.957576	10.31537	-13.922756	6.793306	5.08794	0.203703	-0.176838	-0.945274	-20.953734	-2.339578	6.178488	65.590425	96.166234	-80.421786	-0.283856	-0.10369	-0.726391	9.432749	1.573132	0.064941	32.145648	11.520346	-17.428013	-0.615743	-0.405069	0.02305
0.703385	0.556567	10.601286	-7.373242	7.102107	2.222053	0.202988	-0.218493	-0.882139	-19.381757	-4.259541	4.1717	63.204619	142.650227	-43.187843	-0.2711	-0.089366	-0.713321	9.028055	2.215139	0.59912	30.898774	16.205735	-15.398411	-0.587931	-0.385989	-0.02423
0.297901	0.900541	10.367528	-2.264286	6.934179	0.149882	0.175833	-0.172561	-0.958652	-17.112735	-6.293221	2.462521	29.604332	165.311869	-8.710284	-0.257684	-0.117788	-0.740289	8.449843	1.812429	1.185454	31.805729	17.181836	-8.897092	-0.559974	-0.387233	0.006966
0.398882	1.127329	9.688483	1.283599	6.784122	-1.42684	0.218238	-0.225582	-0.907224	-15.890048	-7.196298	3.053546	-15.319901	184.058867	21.189661	-0.244563	-0.147282	-0.752907	8.028311	1.172313	0.635869	32.115544	16.624627	-2.233145	-0.545924	-0.388682	0.038092
0.229263	1.242819	9.799331	4.64485	6.234049	-3.04021	0.203731	-0.211437	-0.910291	-13.389757	-6.354932	4.352312	-62.47138	209.778172	43.266314	-0.218687	-0.162452	-0.752455	8.434261	0.937333	0.223235	28.54568	14.517626	2.099201	-0.573953	-0.386611	-0.008632
0.458447	1.012887	9.80282	6.694939	6.440886	-4.177487	0.174733	-0.200445	-0.898932	-11.377681	-5.962101	6.999168	-95.218176	240.800016	58.995344	-0.230036	-0.126527	-0.825935	8.552428	0.878987	0.225189	21.838938	11.169154	4.126104	-0.574161	-0.402804	-0.007795
0.578398	1.186335	10.090036	7.157005	7.500403	-5.265674	0.218224	-0.208283	-0.924716	-8.961437	-5.569978	9.711127	-111.078178	265.307692	68.106302	-0.177246	-0.123011	-0.870087	8.611154	0.530149	0.164899	15.953041	7.256389	4.807936	-0.560112	-0.404252	0.023331
0.631981	1.645102	9.922521	7.065134	7.969281	-5.993844	0.191511	-0.245319	-0.927846	-7.20431	-4.668306	13.938274	-110.360201	275.657415	69.073279	-0.137798	-0.075753	-0.888275	8.377021	0.647335	0.280805	11.369492	4.235172	5.511366	-0.587439	-0.373102	0.037044
0.119415	0.95666	10.02331	6.88051	7.814073	-5.934497	0.189597	-0.193763	-0.927433	-4.005419	-3.489917	15.648309	-80.601181	272.711464	62.253969	-0.124231	-0.073534	-0.91725	8.375515	0.821316	0.22164	6.662901	1.026875	6.521783	-0.588069	-0.403008	-0.007865
0.338287	1.126647	9.51681	7.520007	7.140301	-5.885951	0.204489	-0.221679	-0.920951	-0.510768	-4.173169	14.871889	-57.701531	268.927929	43.766718	-0.071511	-0.025129	-0.950064	8.261054	0.706176	0.398666	3.140052	-1.703166	9.023319	-0.602115	-0.420231	0.00843
-0.053793	1.416075	9.965047	8.012827	6.822417	-4.757786	0.204503	-0.238979	-0.903459	1.959194	-3.276658	14.754712	-62.171271	267.154878	15.844375	-0.019162	0.006884	-0.967523	8.621173	0.009442	0.641929	3.844639	-4.393056	12.059585	-0.573949	-0.405282	0.038789
0.570936	0.725114	9.690134	8.594661	6.544732	-4.426618	0.219367	-0.232297	-0.93196	2.96708	-2.150647	16.248842	-72.998681	258.946026	-9.278666	-0.005671	-0.006218	-0.995495	8.743202	0.184389	0.884499	9.088636	-5.434075	13.971223	-0.560462	-0.418792	-0.006888
0.222582	1.241372	9.458212	8.71977	6.882303	-4.329485	0.204117	-0.225208	-0.906875	3.038205	-1.023528	16.987314	-78.686194	247.818749	-22.927148	0.046453	-0.020166	-1.009944	8.218524	0.245164	1.234284	13.194045	-5.924503	15.487018	-0.546483	-0.419414	0.00871
0.002389	1.358351	9.909066	9.426235	7.632177	-5.11672	0.231958	-0.194886	-0.928481	3.10866	-0.178109	17.668909	-89.19483	242.555801	-25.05339	0.060911	0.045478	-1.071633	8.627506	0.127078	1.001865	19.440712	-6.246759	19.225687	-0.573811	-0.388264	0.022424
0.174028	1.530551	9.91313	8.689493	8.25831	-6.423189	0.218238	-0.225582	-0.907224	3.51352	0.722568	17.848049	-98.430359	238.400112	-20.786463	0.099323	0.05888	-1.044765	8.275454	-0.278397	1.053438	24.766546	-4.624151	20.910448	-0.587928	-0.40466	0.023191
0.279878	1.183889	9.459085	9.273715	9.538721	-7.968192	0.190354	-0.204005	-0.938093	4.21771	0.665465	18.485544	-99.245337	230.815753	-14.358139	0.138622	0.075497	-1.060945	9.04473	-0.221582	1.187805	31.337534	-4.202249	20.823499	-0.573673	-0.371245	0.006059
0.40676	1.014135	10.085972	9.36755	10.848261	-9.572663	0.232001	-0.246784	-0.876006	6.117176	1.394253	18.582695	-101.400863	221.92432	-12.074702	0.165089	0.062471	-1.089193	8.503951	-0.338744	0.638245	38.315849	-4.632453	17.498982	-0.559694	-0.371867	0.021657
0.297362	1.647281	10.370665	9.577027	11.302088	-11.559431	0.217881	-0.24641	-0.875656	7.381713	0.490451	18.438613	-110.699826	216.931673	-15.861985	0.204017	0.062696	-1.09002	9.280349	-0.977605	1.069179	39.743185	-3.56076	11.956166	-0.559348	-0.338656	0.004455
0.8042	1.013121	9.923207	5.86816	12.601177	-13.797238	0.218238	-0.225582	-0.907224	8.85657	1.162809	17.507741	-118.368053	220.599697	-25.079682	0.242655	0.122059	-1.066162	9.15697	-0.571791	0.829081	41.058397	-3.631911	4.49391	-0.573882	-0.387437	0.006896
0.230169	1.530268	9.857391	-1.841167	15.748749	-15.349425	0.206004	-0.242165	-0.942271	9.722708	1.668309	17.69622	-127.456501	234.050965	-34.755809	0.29589	0.157287	-1.126671	8.740265	-0.920291	0.580267	43.30415	-3.337398	-2.514582	-0.615464	-0.389702	0.037741
0.346905	1.530668	9.973324	-11.439796	20.01258	-15.835232	0.247222	-0.219275	-0.936074	11.025238	3.411365	16.875901	-135.877736	246.958878	-39.781961	0.295965	0.172608	-1.127675	8.904379	-1.039815	-0.135809	42.66948	-2.622529	-6.794339	-0.601209	-0.356287	0.020609
0.536484	1.534404	10.886314	-19.812479	24.406021	-16.414475	0.261714	-0.216121	-0.9505	13.766389	6.053062	16.143203	-146.691831	242.552847	-37.738382	0.336149	0.192441	-1.186905	9.317647	-0.633981	-0.066468	39.177859	-1.783622	-9.261134	-0.573953	-0.386611	-0.008632
0.591387	1.706204	10.774445	-26.156202	31.012777	-18.926539	0.274349	-0.230609	-0.894545	18.208797	8.467544	16.918003	-148.586593	218.546373	-27.189799	0.34861	0.205693	-1.159484	9.546839	-0.519852	-0.421013	34.328499	-0.168235	-7.417634	-0.545719	-0.353818	-0.010166
0.336992	2.287823	12.42003	-29.441551	41.883232	-22.206271	0.218224	-0.208283	-0.924716	21.54917	9.531715	17.15894	-139.049054	187.566784	-10.53573	0.414375	0.209283	-1.203912	9.665317	0.23536	-0.295784	29.742489	1.137127	-2.120081	-0.545857	-0.370837	0.006199
0.708621	1.017305	10.887482	-30.709333	50.619308	-23.471514	0.203717	-0.194137	-0.927783	25.264088	9.016644	15.934382	-98.074798	160.161853	11.42068	0.439887	0.237931	-1.177772	9.307203	-0.403902	-0.604641	22.093291	-0.436012	5.40313	-0.53139	-0.3399	0.035651
-0.07958	1.020781	11.554131	-33.315396	60.914341	-24.584874	0.246093	-0.21256	-0.911338	28.717355	10.132115	10.68616	-76.633316	122.385772	25.243407	0.478074	0.205371	-1.147892	9.120406	0.001057	-1.085467	12.453757	-1.331621	8.834988	-0.559698	-0.353196	-0.025764
0.669058	1.193532	11.796742	-56.551679	72.922766	-28.095503	0.260971	-0.223178	-0.922348	30.652155	9.453919	12.311394	-124.387418	68.609426	30.373445	0.491496	0.237159	-1.164525	8.768645	-0.055714	-0.972503	5.599174	0.124246	10.62565	-0.559348	-0.338656	0.004455
0.244054	1.718075	13.495599	-72.635167	90.598406	-29.939608	0.261328	-0.20235	-0.953915	28.167369	8.333853	14.409558	-98.858265	13.19308	31.970042	0.491942	0.268872	-1.180882	8.427733	-0.516792	-0.322108	-2.089206	-1.555905	16.652494	-0.58779	-0.387642	0.006826
0.126028	1.327688	16.219518	-86.860382	119.053911	-36.214882	0.302933	-0.193231	-0.944303	32.704181	16.960692	33.648041	169.621275	-111.506045	-1.639817	0.504848	0.313836	-1.169819	8.541363	-0.518051	-0.559534	-6.671816	-8.210639	22.692126	-0.559419	-0.33783	-0.011073
1.348248	1.560927	17.267222	-53.873736	142.724575	-13.31923	0.315924	-0.186891	-0.919916	27.297323	9.628546	11.505104	135.74816	-202.813137	69.105935	0.543776	0.314061	-1.170646	8.6132	0.123864	0.223075	7.000511	-16.513793	25.861393	-0.573181	-0.358358	0.067333
0.843436	0.931614	17.766224	-65.477232	166.516325	-8.666455	0.344908	-0.180584	-0.948766	-4.308766	-2.034748	4.263773	116.039236	-199.98455	-21.767358	0.47911	0.239228	-1.192949	9.266374	0.297596	0.475549	30.034503	-19.845872	30.685033	-0.586951	-0.341543	0.050898
1.718872	1.049494	18.636205	-51.503461	195.823562	4.650677	0.330388	-0.149139	-0.969325	-11.325172	1.199204	15.498713	78.928854	-192.817206	26.026877	0.46621	0.254473	-1.193676	11.110916	1.40081	1.472871	41.525597	-16.750716	7.397316	-0.573043	-0.341339	0.050968
3.124109	2.663859	20.318425	-67.431828	233.871198	9.179367	0.372006	-0.157319	-0.94222	3.2446	8.826588	8.678054	131.516404	-246.754205	42.736809	0.426911	0.237856	-1.177496	14.42667	0.988941	2.071927	43.599239	-13.331573	-29.757083	-0.572838	-0.306475	0.00271
4.030365	2.373817	19.823357	-70.565716	274.351691	12.361512	0.401005	-0.168311	-0.953579	4.487511	4.546585	12.60676	101.323617	-213.720535	3.332127	0.323393	0.178117	-1.199975	15.590851	-0.121407	1.070821	30.226725	-5.101122	-22.811629	-0.559206	-0.340308	0.03551
4.286946	1.850122	18.291719	-67.659401	311.75375	12.777687	0.41474	-0.154914	-0.957344	5.427782	1.447203	13.24653	89.347975	-148.310283	-29.228819	0.310417	0.178042	-1.199699	13.040937	0.404611	0.426658	13.446123	5.164622	-27.475036	-0.587022	-0.340717	0.03537
5.89629	4.033429	18.730038	-65.329668	341.113123	4.416826	0.511683	-0.12328	-0.941884	0.00165	0.442721	12.339085	78.758402	-105.060078	-9.756603	0.310493	0.193363	-1.200703	10.546873	0.871677	-0.396372	23.038736	13.636007	-44.721555	-0.573252	-0.357531	0.051805
6.362622	5.516162	16.301651	-37.3524	364.801572	-13.342035	0.580799	-0.139266	-0.887326	0.758734	-0.574729	9.976293	103.038487	-76.107583	5.872177	0.297216	0.132006	-1.196413	9.923988	1.214313	-2.143193	29.341025	23.138259	-56.246143	-0.573327	-0.338034	-0.011143
3.811421	6.660061	14.665597	-19.80917	378.415373	-40.224371	0.567451	-0.166434	-0.880145	2.471987	-3.280202	11.821542	79.902415	-28.031965	34.047031	0.258878	0.133925	-1.224285	8.671579	1.156106	-2.885432	24.159686	27.168166	-45.401201	-0.559135	-0.341135	0.051038
1.286083	5.913697	14.272348	-7.099435	377.42674	-64.236212	0.639168	-0.157722	-0.924119	0.336007	3.197312	6.68712	46.45576	-13.513065	9.069321	0.206679	0.132553	-1.208832	8.974653	1.505865	-2.399192	8.580618	21.263848	-27.075886	-0.517203	-0.32433	0.050412
-1.816434	6.3282	16.600625	5.959237	354.936502	-89.277713	0.693021	-0.149319	-0.861968	0.088415	0.103385	10.981868	17.881032	-16.706435	5.808406	0.245457	0.102137	-1.207652	8.906428	1.67825	-2.878805	-9.424755	15.617712	-1.986218	-0.559486	-0.355675	0.02082
-2.514735	3.396284	15.892719	46.222037	333.121965	-108.835702	0.734654	-0.174799	-0.817372	0.059449	1.341613	9.73684	25.408522	-12.733761	3.757632	0.271559	0.132928	-1.210211	10.222141	2.260243	-1.833706	-22.048544	11.634259	18.00679	-0.587372	-0.355257	0.005151
-0.411314	1.65554	12.175488	58.759659	297.723416	-127.739307	0.78925	-0.15934	-0.783373	0.646067	0.664948	10.201477	11.80224	-6.884252	1.893493	0.271403	0.042077	-1.218539	10.828113	2.088126	-0.984747	-23.210154	10.468985	32.689716	-0.573953	-0.386611	-0.008632
9.463293	-1.875147	7.749415	64.474425	229.087801	-129.794035	0.816748	-0.167146	-0.755919	-0.039667	0.55377	10.413433	11.400232	-7.177895	-0.884281	0.284234	0.071721	-1.206472	11.144622	1.394989	0.096113	-21.564403	8.748126	42.903055	-0.559486	-0.355675	0.02082
22.929585	-12.835332	-0.61624	68.694865	90.088574	-95.149808	0.84236	-0.157994	-0.693069	0.694847	0.8335	9.806351	9.147799	-4.569021	-0.952637	0.219134	0.085594	-1.191747	12.088071	1.741284	0.115203	-23.358761	7.635691	43.373468	-0.560187	-0.384755	-0.039617
15.199214	-6.230814	11.13879	45.824465	-43.335187	20.783446	0.84386	-0.161181	-0.731881	0.410539	0.890511	9.970272	3.352388	-3.832924	-2.861315	0.284165	0.11661	-1.195133	12.028629	1.450792	0.05296	-34.998214	5.914634	37.187021	-0.572838	-0.306475	0.00271
13.22834	-5.705152	12.807582	115.528078	-89.427037	82.193425	0.855708	-0.130827	-0.70025	0.477991	0.778122	10.424503	-0.319044	-3.510173	-3.076856	0.245306	0.071496	-1.205645	12.150753	0.637952	0.171513	-40.156364	0.847058	31.482502	-0.573535	-0.354226	-0.010306
12.397056	-5.551106	8.35929	160.815346	-93.428592	141.637821	0.814476	-0.136418	-0.723939	0.299597	1.2289	10.194697	1.493657	-4.112033	-1.29336	0.206228	0.04063	-1.20281	12.680683	1.159421	0.183642	-38.066199	-4.542759	26.915156	-0.587305	-0.337412	-0.026741
