1824_acc_x	1824_acc_y	1824_acc_z	1824_gyro_x	1824_gyro_y	1824_gyro_z	1824_mag_x	1824_mag_y	1824_mag_z	1825_acc_x	1825_acc_y	1825_acc_z	1825_gyro_x	1825_gyro_y	1825_gyro_z	1825_mag_x	1825_mag_y	1825_mag_z	1826_acc_x	1826_acc_y	1826_acc_z	1826_gyro_x	1826_gyro_y	1826_gyro_z	1826_mag_x	1826_mag_y	1826_mag_z
-0.032	1.5399	8.9317	-0.0116	0.2832	0.4061	-0.3767	0.2822	-0.7152	0.709	0.1956	9.6603	1.5076	0.7925	0.4166	0.5283	-0.2462	-0.7385	8.1034	4.4662	1.5309	3.8209	3.085	-5.0369	-0.9839	-0.677	-0.2183
-0.0762	1.4122	9.8081	-0.0415	0.3439	0.4078	-0.3286	0.3731	-0.7426	0.7059	0.0798	9.4841	0.6086	0.9359	0.206	0.5223	-0.2342	-0.7505	7.9307	4.8075	1.4135	3.7531	2.677	-4.1777	-1.0163	-0.6972	-0.2373
-0.5042	0.951	9.3978	-0.1052	0.1903	0.4668	-0.3077	0.3546	-0.7087	1.4699	-0.2046	10.493	-0.5411	1.3573	0.2409	0.5163	-0.2462	-0.7505	7.8173	4.6939	1.4114	3.9526	2.2745	-3.6953	-0.9853	-0.7167	-0.2906
-0.1457	1.2438	9.2837	-0.3511	0.1566	0.6229	-0.3637	0.3752	-0.7279	1.172	0.0808	9.903	-0.1051	1.145	0.2089	0.5223	-0.2402	-0.7385	8.2745	4.6366	1.5913	4.158	1.6254	-2.9999	-0.9691	-0.7157	-0.2548
-0.3141	1.6438	9.9762	-0.6887	0.306	0.5996	-0.3049	0.3369	-0.6757	0.8308	-0.1481	10.0125	0.2404	0.7755	-0.006	0.5103	-0.2161	-0.7505	8.3803	5.0343	1.1931	4.6941	1.4686	-2.6791	-0.9848	-0.7157	-0.2373
-0.1418	1.5327	9.5136	-0.9675	0.2728	0.5716	-0.3242	0.3176	-0.7109	1.5146	-0.5529	9.7896	0.7955	0.7496	-0.0706	0.5103	-0.2342	-0.7565	8.0992	5.376	1.3599	4.7951	1.0382	-2.3783	-1.0156	-0.6403	-0.271
-0.3136	1.2936	9.9806	-1.0955	0.0273	0.5372	-0.3428	0.3568	-0.694	1.1144	0.2535	9.9026	1.2637	0.444	-0.1944	0.5103	-0.2281	-0.7445	7.8778	5.0352	1.6416	4.8372	0.6977	-1.9828	-0.9829	-0.6194	-0.2165
-0.3191	1.4724	9.6864	-1.1264	-0.0345	0.6285	-0.3276	0.3737	-0.7259	0.657	-0.3209	9.8912	0.8655	0.2845	-0.2833	0.5283	-0.2462	-0.7505	7.8078	4.8073	0.8964	4.6226	0.4833	-1.8859	-1.0159	-0.678	-0.2367
-0.5017	1.4157	9.5671	-1.1828	0.2702	0.6665	-0.3436	0.3756	-0.6934	1.223	-0.1509	9.5515	1.1133	0.2567	-0.2232	0.5163	-0.2462	-0.7565	7.9273	5.0349	1.242	4.4712	0.6645	-1.7878	-0.9682	-0.677	-0.2358
-0.4476	1.1866	9.2207	-1.3653	0.5748	0.4602	-0.3456	0.3745	-0.7269	0.8838	-0.2068	9.779	1.141	0.3801	-0.2855	0.5223	-0.2462	-0.7565	8.099	4.6935	1.3021	3.8913	0.9042	-1.5227	-1.032	-0.6787	-0.2548
-0.2621	1.4745	9.5122	-0.8962	0.8847	0.5225	-0.3433	0.3951	-0.676	1.229	-0.4371	9.8431	1.0483	0.4106	-0.2237	0.5223	-0.2281	-0.7445	8.2683	5.4894	1.3058	3.1166	1.27	-1.558	-1.0161	-0.6783	-0.2545
-0.6169	1.4706	9.8563	-0.5879	0.7958	0.609	-0.3108	0.3528	-0.759	1.171	0.023	9.8441	0.9529	0.533	-0.2546	0.5043	-0.2462	-0.7625	7.8167	5.2057	1.4118	2.3495	1.6931	-1.3473	-0.9684	-0.6958	-0.2186
-0.32	1.3564	9.6294	-0.5274	0.7969	0.4852	-0.3637	0.3752	-0.7279	0.7087	-0.2648	9.5997	1.1046	0.6268	-0.3175	0.5223	-0.2402	-0.7265	7.7033	5.149	1.4096	1.4004	2.084	-1.0085	-1.0317	-0.678	-0.2193
-0.4416	1.474	9.5675	-0.7145	0.765	0.3639	-0.342	0.3379	-0.6945	0.9952	-0.2653	9.6052	0.7895	0.9643	-0.2562	0.5163	-0.2342	-0.7625	8.4379	5.2048	1.2515	0.7813	2.3886	-1.0183	-0.9831	-0.6383	-0.1993
-0.1364	1.4707	9.8063	-1.0538	0.7306	0.4596	-0.3067	0.3552	-0.6919	1.171	0.023	9.8441	-0.0445	1.0173	-0.2824	0.5223	-0.2281	-0.7445	8.3794	4.9205	1.1358	0.1607	2.5414	-1.06	-0.9679	-0.6763	-0.2002
-0.1976	1.4131	9.7476	-0.995	0.5172	0.5158	-0.3626	0.3758	-0.7112	1.1646	-0.151	9.4919	-0.3274	1.2933	-0.2209	0.5223	-0.2462	-0.7505	8.0926	4.807	0.9588	-0.0443	2.6882	-0.6839	-1.0005	-0.7156	-0.2199
-0.4399	1.0064	9.6317	-1.3642	0.5436	0.6132	-0.3402	0.3196	-0.6784	1.1105	-0.0351	9.667	-0.4131	0.9835	-0.1878	0.5103	-0.2402	-0.7325	7.9854	4.7505	1.3001	0.1185	2.8369	-0.4418	-1.0009	-0.7348	-0.2205
0.1551	1.3601	9.2875	-1.3303	0.758	0.556	-0.3441	0.3367	-0.7281	1.1135	0.1382	9.8435	-0.2574	0.8917	-0.2496	0.5404	-0.2402	-0.7385	7.8192	4.8646	1.526	-0.175	2.8598	0.0896	-1.032	-0.6787	-0.2548
-0.3782	1.4717	9.7437	-1.0891	0.4861	0.424	-0.3064	0.2973	-0.7272	0.999	0.0809	9.8411	0.0547	0.7091	-0.2811	0.5223	-0.2281	-0.7445	8.1523	4.9208	1.1316	0.1355	2.5547	0.1393	-1.0163	-0.6972	-0.2373
-0.4415	1.4156	9.5682	-1.0601	0.3334	0.4819	-0.3266	0.3743	-0.7091	1.1786	0.0824	10.2544	-0.1072	1.1106	-0.1596	0.5223	-0.2402	-0.7565	8.0429	5.0348	1.3586	0.3121	2.6504	-0.1725	-0.9844	-0.715	-0.2018
-0.3795	1.5892	9.6838	-1.1534	0.2404	0.5733	-0.3441	0.3367	-0.7281	0.9946	0.0798	9.6067	-0.6014	1.1044	-0.2796	0.5103	-0.2462	-0.7685	8.0422	4.6935	1.3011	0.449	2.6284	-0.7606	-0.9999	-0.6773	-0.2186
-0.5664	1.5938	9.3303	-1.0593	0.3638	0.5133	-0.2879	0.3355	-0.6914	0.7064	0.4251	9.5442	-1.3485	1.5323	-0.0012	0.5223	-0.2642	-0.7385	7.9312	5.2625	1.4711	0.3355	2.638	-1.4332	-1.0002	-0.6965	-0.2192
-0.1393	1.2394	9.6341	-0.943	-0.0318	0.4417	-0.3284	0.3925	-0.7253	1.2847	-0.1499	9.787	-1.6288	1.6846	0.061	0.5163	-0.2342	-0.7505	8.0452	5.7174	1.5308	0.454	2.732	-1.6203	-0.9999	-0.6773	-0.2186
-0.5023	1.0663	9.5131	-0.6985	-0.1821	0.4354	-0.2735	0.3713	-0.7228	0.8252	-0.0919	9.7198	-2.2128	1.6492	0.2183	0.5163	-0.2402	-0.7505	7.9255	4.8073	1.1274	0.4636	2.8189	-1.3126	-1.0478	-0.6602	-0.2723
-0.3236	1.6504	9.4506	-0.48	-0.027	0.4052	-0.3804	0.3188	-0.7475	1.1092	0.0796	9.6089	-2.0642	1.866	0.0932	0.5043	-0.2342	-0.7565	8.3831	5.2619	1.365	0.6159	2.9116	-1.4086	-0.999	-0.6386	-0.1996
-0.7411	1.1819	9.6242	-0.3914	-0.209	0.3079	-0.2889	0.3349	-0.7082	1.2283	-0.0346	9.845	-2.4973	2.0821	0.5247	0.5283	-0.2462	-0.7385	7.8147	5.1488	1.2972	0.492	2.8811	-1.4052	-0.9834	-0.6574	-0.1999
-0.0797	1.6479	9.63	-0.4524	-0.2407	0.431	-0.291	0.3337	-0.7418	0.9946	0.0798	9.6067	-2.1931	2.3976	0.859	0.5283	-0.2462	-0.7565	8.3845	4.9776	1.422	0.6051	3.069	-1.7758	-0.9999	-0.6773	-0.2186
-0.4446	1.3595	9.3937	-0.3949	-0.3613	0.2124	-0.3263	0.3937	-0.6917	0.8291	-0.4362	9.894	-3.4326	2.6945	0.8953	0.5223	-0.2402	-0.7505	8.6041	5.0338	1.0256	0.6909	3.1943	-2.0232	-1.0153	-0.6396	-0.2355
-0.2584	1.8217	9.7414	-0.3955	-0.3918	0.2117	-0.2544	0.3711	-0.705	0.9992	-0.0342	9.8406	-3.806	2.7181	0.5286	0.5283	-0.2402	-0.7505	8.1551	5.2621	1.3036	0.6642	3.3751	-1.898	-1.017	-0.717	-0.2735
-0.1434	1.942	9.4501	-0.3065	-0.5124	0.0542	-0.3637	0.3752	-0.7279	0.7109	-0.2643	9.7169	-3.2264	2.9702	0.4007	0.5343	-0.2462	-0.7385	7.9327	4.8645	1.528	0.9851	3.6747	-1.5672	-0.9838	-0.6766	-0.2005
-0.2593	1.7641	9.6838	-0.3989	-0.4827	0.0253	-0.3046	0.3564	-0.6583	0.9942	0.3099	9.6078	-3.0457	3.1573	0.3678	0.5103	-0.2221	-0.7685	7.9833	4.8073	1.1856	1.176	3.8248	-1.4181	-0.9997	-0.6585	-0.2358
-0.2554	1.1783	9.8663	-0.2798	-0.7872	0.0787	-0.3266	0.3743	-0.7091	0.9991	-0.6671	9.7791	-2.8662	3.438	0.4266	0.5283	-0.2462	-0.7385	7.5362	5.0925	1.5781	1.2628	4.3153	-1.6626	-0.9675	-0.6571	-0.1996
-0.5022	1.7659	9.5627	-0.4988	-0.9113	0.0172	-0.3051	0.3174	-0.6931	0.4275	-0.148	9.8876	-3.1845	3.7714	0.0577	0.5223	-0.2342	-0.7565	7.6985	4.8076	1.1232	1.7003	4.7098	-1.5803	-1.0004	-0.6968	-0.237
-0.3825	1.4747	9.5101	-0.557	-0.7596	0.1135	-0.3219	0.3383	-0.66	1.1671	-0.3231	9.6082	-2.518	4.2078	-0.2868	0.5283	-0.2281	-0.7505	7.9899	5.3194	1.5867	2.3552	4.7383	-1.4461	-0.9995	-0.6766	-0.1831
-0.3262	1.2441	9.2805	-0.4346	-0.7886	0.0499	-0.3304	0.3913	-0.7588	0.9498	-0.1473	10.249	-2.1184	4.2105	-0.4428	0.5283	-0.2342	-0.7445	8.1146	4.751	2.1606	2.6593	5.1066	-1.6673	-0.9689	-0.7153	-0.237
-0.0783	1.4137	9.6913	-0.3389	-0.6044	0.0527	-0.3289	0.3536	-0.76	1.0056	0.0824	10.1925	-2.2369	3.8659	-0.7781	0.5223	-0.2402	-0.7505	7.5933	4.8081	1.579	3.3711	5.3204	-1.7176	-1.0155	-0.64	-0.2533
-0.3822	1.2996	9.5123	-0.2129	-0.4196	-0.0064	-0.2905	0.3727	-0.707	0.9432	-0.1488	9.8975	-1.7002	3.3793	-0.5018	0.5163	-0.2462	-0.7445	7.818	4.9783	1.4688	4.0209	5.5037	-1.7663	-0.9526	-0.7143	-0.2011
-0.4362	1.3536	9.8609	-0.2747	-0.4817	0.0853	-0.2897	0.3538	-0.7076	1.2289	-0.3796	9.8434	-0.7027	2.9586	-0.2901	0.5404	-0.2522	-0.7385	8.1592	5.3191	1.5326	4.4266	5.9595	-1.7134	-0.9843	-0.6777	-0.2538
-0.5583	1.8798	9.7938	0.1286	-0.2938	-0.0387	-0.3252	0.317	-0.7276	0.8885	-0.3783	10.0125	0.1084	2.6297	0.0144	0.5343	-0.2402	-0.7445	8.1038	5.0349	1.5885	4.8842	6.481	-1.9994	-0.9687	-0.6965	-0.2541
-0.0816	1.5326	9.5147	0.0062	-0.2648	0.0249	-0.3459	0.355	-0.7443	0.5318	0.0796	9.3636	0.5488	2.3912	0.4742	0.5283	-0.2462	-0.7505	8.0987	4.9778	1.3023	5.2878	7.1816	-2.0366	-0.9371	-0.7146	-0.2363
-0.0758	1.8784	9.8607	0.3458	-0.292	0.0508	-0.3085	0.3735	-0.7081	1.057	-0.3793	9.8401	0.8905	2.2392	0.3809	0.5223	-0.2402	-0.7505	8.1002	5.376	1.4171	5.791	7.8791	-1.8617	-0.9843	-0.6961	-0.2189
-0.0171	1.4129	9.7508	0.3187	-0.0478	0.0257	-0.3247	0.356	-0.6929	0.8252	-0.0919	9.7198	0.4662	1.9901	0.6615	0.5223	-0.2462	-0.7565	8.0533	5.0352	1.9309	6.1151	8.6344	-1.4659	-0.9528	-0.6962	-0.2538
-0.197	1.7042	9.8024	0.6003	0.2303	-0.064	-0.3838	0.3748	-0.7625	0.7198	-0.3197	10.1852	0.3132	1.9264	0.632	0.5283	-0.2402	-0.7445	8.2751	5.0347	1.6489	6.8641	9.6377	-1.3881	-1.0166	-0.7163	-0.2379
-0.0794	1.4144	9.6329	0.876	0.0803	-0.04	-0.3278	0.3542	-0.7432	1.1747	-0.2637	10.0186	0.3207	1.6502	0.8487	0.5283	-0.2281	-0.7565	7.9892	5.0919	1.5293	7.0639	10.56	-2.032	-0.9521	-0.6763	-0.2177
-0.1462	1.6524	9.2786	0.8483	0.1709	0.1161	-0.3072	0.3162	-0.7266	0.9968	0.0803	9.7239	0.4724	1.744	0.7858	0.5343	-0.2402	-0.7505	7.9345	5.092	1.6427	7.5566	11.232	-2.195	-0.9525	-0.677	-0.2532
-0.0798	1.7646	9.6285	1.066	0.2032	0.2063	-0.3276	0.3737	-0.7259	0.9974	-0.2647	9.7224	-0.0546	1.8302	0.6655	0.5223	-0.2402	-0.7505	7.9913	5.0351	1.6437	7.9761	11.8787	-2.7248	-1.0156	-0.6588	-0.2361
-0.322	1.2411	9.5141	0.9089	0.0798	0.1441	-0.2894	0.3733	-0.6903	1.1151	-0.1491	9.9008	-0.4548	1.7316	0.484	0.5163	-0.2221	-0.7505	8.3886	5.0346	1.651	8.4583	12.4946	-3.226	-0.9846	-0.7153	-0.2195
0.1585	1.9992	9.513	0.9693	0.0194	0.1113	-0.3448	0.3556	-0.7275	0.8337	0.0827	10.1892	-0.8869	1.6948	0.3331	0.5283	-0.2402	-0.7445	8.1048	5.035	1.6458	9.04	13.1075	-3.515	-1.0009	-0.6979	-0.2903
-0.448	1.4784	9.2171	0.8176	0.1398	0.1773	-0.3085	0.3735	-0.7081	0.8848	-0.149	9.8378	-1.4746	1.7816	0.3361	0.5283	-0.2402	-0.7505	8.0416	5.2054	1.3015	9.6158	13.6622	-3.9887	-0.9691	-0.7157	-0.2548
-0.2648	1.1265	9.3414	0.5704	0.0758	0.2713	-0.3634	0.3947	-0.7106	1.0545	-0.1498	9.724	-1.8444	1.7463	0.277	0.5163	-0.2342	-0.7565	7.9379	4.8647	1.8142	10.073	14.0619	-4.2758	-0.9691	-0.7157	-0.2548
-0.3882	1.7701	9.2145	0.661	0.1084	0.0248	-0.3098	0.3534	-0.7422	1.0051	-0.2629	10.1324	-2.282	1.8929	-0.0901	0.5163	-0.2342	-0.7445	8.1093	4.8077	1.8745	10.8069	14.4627	-4.6325	-0.9679	-0.6763	-0.2002
-0.0763	1.4706	9.8074	0.5086	0.0752	0.272	-0.3111	0.4106	-0.7237	0.8282	0.0814	9.8963	-2.6203	1.8271	-0.1491	0.5223	-0.2402	-0.7565	7.8768	4.9783	1.5843	11.285	14.6538	-5.2292	-1.0013	-0.717	-0.2909
-0.5024	1.1246	9.5124	0.3841	0.0743	0.1813	-0.285	0.3178	-0.6585	0.6528	-0.437	9.6564	-2.8346	1.6997	-0.3008	0.5283	-0.2582	-0.7505	8.5532	5.4323	1.3682	11.6977	14.9076	-5.9462	-0.9845	-0.6965	-0.2367
-0.321	1.2988	9.5718	0.1669	0.011	0.1827	-0.3433	0.3951	-0.676	0.7122	-0.379	9.7749	-2.897	1.6982	-0.3926	0.5223	-0.2402	-0.7565	7.8259	5.3767	1.927	12.5447	15.161	-6.6456	-0.905	-0.7321	-0.183
-0.204	1.4759	9.3965	-0.0796	-0.0532	0.3381	-0.3263	0.3937	-0.6917	0.6522	-0.0919	9.6579	-3.3309	1.6591	-0.7893	0.5283	-0.2402	-0.7505	7.883	5.0923	1.9278	13.1631	14.9178	-6.666	-1.0009	-0.7163	-0.2554
-0.2611	1.4738	9.5706	-0.0516	-0.2055	0.3037	-0.3083	0.3929	-0.6907	1.1723	-0.1492	9.9019	-3.3464	1.0749	-0.417	0.5343	-0.2221	-0.7505	7.7106	5.0924	1.8102	13.6981	14.9749	-6.405	-0.9526	-0.6958	-0.236
-0.1355	0.7703	9.8151	-0.1738	-0.0228	0.1555	-0.3229	0.3377	-0.6767	0.7723	-0.0908	9.9531	-2.3159	0.5939	-0.0821	0.5283	-0.2462	-0.7325	8.1573	5.1485	1.418	14.014	15.1855	-6.2284	-0.9694	-0.7348	-0.2554
-0.2009	1.532	9.571	0.0413	-0.0509	0.0906	-0.2887	0.3544	-0.6909	1.002	-0.4362	9.9559	-1.8446	0.2924	0.2242	0.5223	-0.2462	-0.7505	8.0426	5.2623	1.3587	14.6904	15.4927	-6.4306	-0.9374	-0.7338	-0.2369
-0.1996	1.3562	9.6316	-0.1689	0.129	0.374	-0.3098	0.3534	-0.7422	0.7686	-0.4944	9.7169	-1.9346	0.1358	0.1027	0.5404	-0.2402	-0.7445	8.1074	5.49	1.8178	14.7783	15.4036	-6.5875	-0.9691	-0.7157	-0.2548
-0.3294	2.0626	9.1535	-0.0165	0.0084	0.3694	-0.3242	0.3949	-0.6582	1.4574	-0.6103	9.7882	-1.9675	0.2282	0.1024	0.5163	-0.2402	-0.7445	7.9334	5.1489	1.5855	15.2705	15.893	-6.752	-0.9686	-0.6961	-0.2364
-0.322	1.2411	9.5141	0.0174	0.192	0.373	-0.3252	0.317	-0.7276	0.6531	-0.6095	9.6556	-2.0282	0.2287	0.2256	0.5163	-0.2402	-0.7325	8.0468	5.2056	1.5876	15.1552	15.9194	-6.4718	-0.9388	-0.7736	-0.3093
0.0478	1.1181	9.9891	0.0516	0.4063	0.3465	-0.3618	0.357	-0.7118	0.9963	-0.3225	9.6635	-2.0245	0.0112	0.104	0.5163	-0.2281	-0.7505	8.1044	5.3762	1.646	14.67	16.1583	-6.1481	-0.9048	-0.676	-0.2522
-0.0803	1.3568	9.5753	0.0512	0.3449	0.4066	-0.3263	0.3937	-0.6917	0.9975	-0.3798	9.7218	-1.932	-0.0197	0.0115	0.5283	-0.2342	-0.7325	8.2191	5.2623	1.7053	14.3565	16.4343	-6.2901	-0.9537	-0.7348	-0.2728
-0.7994	1.3556	9.7378	0.2051	0.4697	0.1614	-0.3433	0.3951	-0.676	0.9333	-0.1512	9.3703	-2.0551	-0.0207	0.0429	0.5283	-0.2342	-0.7445	7.8178	5.1489	1.4689	13.8908	16.3128	-6.3079	-0.9533	-0.7341	-0.2373
-0.1481	1.4787	9.164	0.1426	0.3464	0.2825	-0.2884	0.2965	-0.7262	1.059	-0.2063	9.958	-1.7805	0.1691	0.1938	0.5223	-0.2342	-0.7445	7.8737	5.0351	1.4127	13.5415	16.2254	-6.5747	-1.0012	-0.7355	-0.256
-0.1413	1.1825	9.518	0.0472	0.2235	0.2195	-0.3623	0.318	-0.7465	1.2369	0.14	10.3144	-1.5933	0.0786	0.224	0.5223	-0.2342	-0.7565	7.9911	5.2057	1.6438	12.8492	15.956	-6.8942	-0.9369	-0.6958	-0.2535
-0.4382	1.2967	9.7449	-0.0488	0.1009	0.0951	-0.3456	0.3745	-0.7269	1.4597	-0.0344	9.9665	-1.5041	0.2023	0.1305	0.5283	-0.2402	-0.7445	7.6974	4.8075	1.066	12.531	15.5942	-7.1334	-0.9371	-0.6777	-0.3062
-0.567	1.3027	9.2755	-0.0788	0.0387	0.2786	-0.3814	0.3182	-0.7643	0.9494	0.0828	10.25	-1.3506	0.2666	0.2214	0.5223	-0.2402	-0.7505	7.7595	5.547	1.411	11.881	15.35	-7.0851	-0.9846	-0.6968	-0.2545
-0.3834	1.3587	9.4532	0.1391	0.0402	0.4297	-0.3438	0.3562	-0.7107	0.9907	-0.2088	9.3711	-1.166	0.3314	0.3429	0.5103	-0.2221	-0.7505	7.8746	5.092	1.4699	11.3313	15.0719	-6.7944	-0.9377	-0.753	-0.2376
-0.3768	1.1792	9.8058	0.1348	-0.0811	0.2118	-0.3067	0.3552	-0.6919	0.9368	-0.2654	9.5455	-1.2895	0.3935	0.4969	0.4983	-0.2281	-0.7625	7.9363	5.3196	1.7573	10.7817	14.5195	-6.4751	-0.922	-0.753	-0.255
-0.3213	1.5322	9.5688	-0.0177	-0.0834	0.3982	-0.2951	0.4086	-0.7562	0.9454	-0.1483	10.0147	-1.2582	0.4898	0.8342	0.5404	-0.2342	-0.7625	7.7544	5.4331	1.1247	10.3236	13.8153	-6.1904	-0.9691	-0.7157	-0.2548
-0.0781	1.2386	9.6935	0.1349	-0.1734	0.3636	-0.3083	0.3929	-0.6907	0.7632	0.0797	9.4852	-1.1048	0.6174	1.0783	0.5343	-0.2342	-0.7505	7.5393	5.0926	1.7498	9.6078	13.2072	-6.2353	-0.9213	-0.7147	-0.2538
-0.1386	1.5305	9.6888	0.1634	-0.2951	0.3298	-0.36	0.3387	-0.6956	0.71	0.2534	9.7192	-1.1119	0.9259	1.0151	0.5223	-0.2402	-0.7445	8.1592	5.3191	1.5326	9.1237	12.6371	-6.8093	-0.9381	-0.7722	-0.2382
-0.6757	1.2365	9.9165	0.0069	-0.3574	0.2382	-0.3637	0.3752	-0.7279	1.0032	0.1969	10.0759	-0.7732	1.0242	1.2276	0.5163	-0.2281	-0.7505	7.9287	5.5468	1.3569	8.6884	12.0282	-6.8011	-0.9217	-0.7338	-0.2544
-0.5018	1.4741	9.5664	0.2233	-0.3245	0.2054	-0.3611	0.3381	-0.7123	0.8735	0.0209	9.2528	-1.9082	0.6704	1.0213	0.5043	-0.2402	-0.7505	7.9295	5.7743	1.4143	8.1637	11.6311	-6.6964	-0.9533	-0.7341	-0.2373
-0.4401	1.1815	9.6295	0.41	-0.2617	0.2352	-0.3075	0.3741	-0.6913	0.9352	0.0219	9.4882	-1.8197	0.8568	1.0196	0.5223	-0.2402	-0.7565	7.6978	5.3194	1.1236	7.7541	10.8273	-5.8302	-0.9224	-0.7537	-0.2906
-0.387	1.711	9.2736	0.3781	-0.3846	0.3252	-0.3085	0.3735	-0.7081	0.711	0.3111	9.778	-1.5433	0.9536	1.1404	0.5404	-0.2402	-0.7505	7.7015	5.7177	1.3528	7.3182	10.3261	-4.8378	-0.9222	-0.7718	-0.2378
-0.1369	1.8209	9.8019	0.47	-0.4449	0.3535	-0.3103	0.3917	-0.7243	1.2229	-0.0934	9.5518	-1.6027	0.8923	1.264	0.5163	-0.2281	-0.7565	7.5844	5.2627	1.1215	6.5012	9.7379	-4.142	-0.9056	-0.7331	-0.2363
-0.5661	1.4187	9.3325	0.3142	-0.5074	0.3233	-0.3767	0.2822	-0.7152	0.8874	0.2544	10.0154	-0.4927	0.8085	1.0121	0.5283	-0.2342	-0.7445	7.6484	5.3198	1.5232	5.8797	9.2816	-4.1578	-0.9225	-0.7725	-0.2734
-0.2595	1.8808	9.6823	0.1929	-0.3558	0.2974	-0.342	0.3379	-0.6945	0.7117	-0.0915	9.7762	-0.7111	0.9936	1.1967	0.5283	-0.2342	-0.7505	7.7633	5.0353	1.5823	5.0572	8.7569	-3.6458	-0.9386	-0.7917	-0.2566
-0.08	1.1233	9.5782	0.3416	-0.6594	0.2274	-0.3448	0.3556	-0.7275	0.7152	-0.2057	9.9514	-1.5502	1.2306	1.0158	0.5343	-0.2462	-0.7565	7.8702	5.2624	1.2411	4.4106	8.3892	-3.4757	-0.9371	-0.7146	-0.2363
-0.4998	1.531	9.6825	0.4681	-0.4441	0.169	-0.3227	0.3572	-0.6594	0.9439	0.0815	9.9571	-1.3377	1.3874	1.0137	0.5223	-0.2462	-0.7505	7.4184	5.2062	1.3472	3.8609	7.8064	-3.1566	-0.9218	-0.7526	-0.2372
-0.5045	1.1261	9.3956	0.3743	-0.5676	0.2598	-0.3428	0.3568	-0.694	1.1627	0.3663	9.4356	-1.2468	1.3863	0.798	0.5163	-0.2342	-0.7445	8.0554	4.9785	2.0453	3.5976	7.281	-2.5998	-0.9065	-0.7534	-0.2902
-0.2588	1.3556	9.6889	0.1881	-0.6614	0.3216	-0.325	0.3365	-0.7103	0.8818	-0.3223	9.6613	-1.6875	1.7832	0.7368	0.5343	-0.2281	-0.7445	7.809	5.4898	1.0113	3.4891	6.7861	-2.0475	-0.9711	-0.8122	-0.2934
-0.6231	1.4166	9.5066	-0.0005	-0.7849	0.1983	-0.2899	0.3343	-0.725	1.2241	-0.1506	9.6101	-1.4488	2.0931	0.5492	0.5283	-0.2342	-0.7385	7.7083	5.263	1.6959	3.2669	6.2095	-2.1683	-0.9224	-0.7722	-0.2556
-0.1396	1.4729	9.6311	0.2815	-0.5992	0.291	-0.3098	0.3534	-0.7422	0.9963	-0.3225	9.6635	-1.7582	2.1203	0.4894	0.5223	-0.2221	-0.7385	7.987	5.1487	1.4148	3.1225	5.9303	-1.7975	-0.9385	-0.7544	-0.3087
-0.3242	1.301	9.3966	0.3434	-0.4756	0.1084	-0.3059	0.3363	-0.6925	0.9967	-0.5526	9.6625	-2.128	2.085	0.4303	0.5343	-0.2281	-0.7505	7.8734	5.2625	1.4128	2.7199	5.5645	-1.7576	-0.8905	-0.79	-0.22
-0.082	1.8244	9.511	0.0925	-0.7226	0.1369	-0.3069	0.3357	-0.7092	0.6603	-0.3201	10.067	-2.6557	2.1703	0.2178	0.5343	-0.2281	-0.7565	7.9916	5.6607	1.7014	2.8565	5.1319	-1.3043	-0.9068	-0.7725	-0.2908
-0.3247	1.7095	9.3914	0.0643	-0.6625	0.2924	-0.29	0.4116	-0.6723	0.9436	-0.4364	9.8962	-2.8749	2.1319	-0.3338	0.5223	-0.2281	-0.7385	7.4821	5.4908	1.7491	3.0745	4.9485	-1.2508	-0.8904	-0.7527	-0.2721
-0.1397	1.5312	9.6304	0.3114	-0.5985	0.1984	-0.3049	0.3369	-0.6757	0.6514	-0.2647	9.5986	-2.9093	2.2859	-0.3653	0.5343	-0.2402	-0.7565	8.0436	5.2623	1.416	3.2646	4.5503	-1.0753	-0.89	-0.752	-0.2366
-0.4366	1.6454	9.8573	-0.0609	-0.6631	0.1402	-0.3263	0.3164	-0.7444	0.5445	-0.2627	10.0065	-2.8443	2.132	-0.3647	0.5223	-0.2281	-0.7565	7.8187	5.2627	1.5263	3.1554	4.4215	-0.5814	-0.907	-0.7914	-0.2737
-0.1411	1.7654	9.5691	-0.1561	-0.9706	0.3807	-0.3247	0.356	-0.6929	0.651	-0.0346	9.5996	-2.9362	2.1001	-0.364	0.5343	-0.2402	-0.7385	7.9865	5.6036	1.4152	3.1065	4.0801	-0.1218	-0.9225	-0.7725	-0.2734
-0.2628	1.2418	9.4568	-0.1567	-0.9088	0.2283	-0.326	0.3359	-0.7271	1.2835	-0.0927	9.7286	-2.8121	1.9118	-0.7938	0.5283	-0.2342	-0.7625	7.5977	5.4338	1.8656	2.7993	3.9265	-0.0216	-0.922	-0.753	-0.255
-0.0193	1.5311	9.6325	-0.2186	-0.8786	0.1682	-0.2745	0.3707	-0.7395	0.9411	-0.2069	9.7801	-2.7449	1.6336	-0.854	0.5223	-0.2402	-0.7625	8.0431	5.7173	1.4163	2.7147	3.8617	0.2569	-0.9219	-0.7342	-0.2722
-0.4427	1.5331	9.5083	-0.1251	-0.8473	0.1985	-0.3428	0.3568	-0.694	0.7764	0.0828	10.1881	-2.6214	1.6351	-0.824	0.5343	-0.2462	-0.7505	8.1016	5.0917	1.4741	2.1353	3.6745	0.5801	-0.9061	-0.7342	-0.2896
0.041	1.4143	9.6351	-0.0323	-0.6618	-0.0755	-0.3255	0.3748	-0.6923	0.8235	-0.38	9.6014	-3.3497	0.9119	-1.3071	0.5343	-0.2342	-0.7445	7.9293	5.0918	1.3565	1.9416	3.5257	0.3388	-0.922	-0.7345	-0.2899
-0.3898	1.4214	9.1021	0.1225	-0.8142	0.1961	-0.3469	0.3544	-0.761	0.9953	-0.3803	9.6047	-2.3795	0.432	-0.7876	0.5223	-0.2281	-0.7445	7.7051	5.3766	1.5243	1.847	3.2827	0.309	-0.9069	-0.8098	-0.2388
-0.0246	1.5347	9.3405	-0.0304	-0.6626	0.109	-0.3211	0.3194	-0.6606	0.6558	-0.2636	9.8329	-2.9363	0.424	-1.0301	0.5404	-0.2402	-0.7385	7.8771	5.6608	1.6421	1.5727	3.4634	0.4416	-0.9545	-0.7735	-0.2918
-0.4932	1.3515	10.0351	0.0012	-0.6626	0.1701	-0.3051	0.3174	-0.6931	0.9452	-0.0333	10.0152	-2.9631	0.2382	-1.0288	0.5163	-0.2281	-0.7505	7.7103	5.3199	1.8104	1.6638	3.4948	0.3776	-0.9542	-0.7728	-0.2563
-0.017	1.3545	9.7515	-0.1238	-0.7863	0.2305	-0.327	0.3353	-0.7438	0.9983	-0.1495	9.7815	-2.6805	-0.1971	-1.581	0.5163	-0.2342	-0.7505	8.1644	5.2625	1.8187	1.6068	3.5534	0.5335	-0.8906	-0.753	-0.2899
-0.4412	1.1822	9.5711	0.12	-0.844	0.0109	-0.3276	0.3737	-0.7259	0.8813	-0.0348	9.6626	-2.3744	-0.0061	-1.3381	0.5163	-0.2221	-0.7385	8.0427	5.2054	1.3587	1.7285	3.4935	0.4679	-0.9075	-0.8109	-0.2921
-0.4482	1.6535	9.2149	0.0902	-0.7832	0.0126	-0.3448	0.3556	-0.7275	0.3144	-0.3776	9.943	-1.8183	-0.0626	-1.3718	0.5343	-0.2221	-0.7505	8.1605	5.0348	1.5896	1.5719	3.5247	0.4114	-0.9071	-0.7917	-0.2915
-0.2022	1.7079	9.5104	0.0268	-0.7831	-0.1403	-0.3266	0.3743	-0.7091	1.2271	0.0802	9.7869	-2.0069	0.058	-1.4943	0.5343	-0.2402	-0.7325	7.8195	5.4902	1.5837	1.6536	3.53	0.0402	-0.9542	-0.7728	-0.2563
-0.2564	1.179	9.8079	-0.0972	-0.7534	-0.2304	-0.3268	0.3548	-0.7265	1.0512	-0.2081	9.548	-2.5348	0.2067	-1.5535	0.5343	-0.2221	-0.7625	7.8115	5.1486	1.1255	1.867	3.3792	-0.0596	-0.8907	-0.7903	-0.2378
-0.4449	1.5929	9.3908	0.0249	-0.8746	-0.1731	-0.3647	0.3746	-0.7447	0.7158	-0.5508	9.9499	-2.1945	0.148	-1.5859	0.5343	-0.2281	-0.7505	7.9813	5.5465	1.129	2.097	3.4341	0.3642	-0.8914	-0.7917	-0.3089
-0.4447	1.4178	9.393	0.1183	-0.8125	-0.2036	-0.342	0.3379	-0.6945	0.7066	-0.3228	9.4823	-2.1301	0.1521	-1.2176	0.5103	-0.2281	-0.7385	7.8206	5.4334	1.6409	1.8224	3.2187	0.5243	-0.922	-0.753	-0.255
-0.4367	0.9458	9.8077	0.1504	-0.7204	-0.2328	-0.3286	0.3731	-0.7426	1.166	-0.3233	9.5497	-1.9392	-0.1242	-1.217	0.5223	-0.2281	-0.7685	8.098	5.5465	1.3028	1.6643	3.0374	0.4354	-0.9061	-0.7527	-0.2547
-0.1438	1.4174	9.3983	0.2707	-0.8716	-0.2991	-0.3245	0.3754	-0.6756	0.6497	0.0801	9.5416	-1.5042	-0.2426	-1.1267	0.5524	-0.2342	-0.7505	7.6441	5.4333	1.2943	1.3448	2.8895	0.1365	-0.9063	-0.7715	-0.2375
-0.0776	1.7048	9.7461	0.4242	-0.8696	-0.3932	-0.3817	0.376	-0.729	1.0553	0.023	9.7833	-1.3238	0.0393	-0.9451	0.5343	-0.2402	-0.7325	7.9315	5.8312	1.5288	1.1464	2.7429	-0.2582	-0.907	-0.7914	-0.2737
-0.1978	1.5298	9.7462	0.3888	-1.0834	-0.4897	-0.3629	0.3564	-0.7285	1.5118	-0.2084	9.6739	-1.0743	-0.018	-0.7311	0.5404	-0.2221	-0.7385	8.0392	5.4896	1.1872	1.0464	2.5634	-0.4717	-0.8907	-0.7718	-0.2727
-0.4993	1.1808	9.6869	0.4564	-0.8699	-0.2706	-0.3294	0.3919	-0.7421	0.9959	-0.0349	9.6648	-0.583	0.0798	-0.7346	0.5283	-0.2281	-0.7445	7.7571	5.8313	1.2967	1.1509	2.3751	-0.0769	-0.9706	-0.7927	-0.275
-0.3818	1.0078	9.516	0.6404	-0.7136	-0.6386	-0.3441	0.3367	-0.7281	0.7091	-0.4948	9.5987	-0.2735	0.1798	-0.3068	0.5283	-0.2221	-0.7505	7.7566	5.3763	1.2391	0.9331	2.3146	-0.1016	-0.9066	-0.7907	-0.2381
-0.505	1.5346	9.3905	1.0101	-0.8018	-0.5836	-0.3253	0.3943	-0.675	1.171	-0.6674	9.7824	-0.3384	0.302	-0.3993	0.5223	-0.2221	-0.7625	7.477	5.3768	1.4629	0.8402	2.3146	-0.0988	-0.8743	-0.752	-0.254
-0.3182	1.5884	9.7433	0.9836	-0.6194	-0.4563	-0.359	0.3393	-0.6788	0.7671	-0.2646	9.6594	-0.4345	0.4871	-0.3384	0.5404	-0.2342	-0.7505	7.934	5.547	1.643	0.5304	2.2536	-0.09	-0.8915	-0.829	-0.2568
-0.1385	1.4138	9.6903	0.9823	-0.6803	-0.4884	-0.3626	0.3758	-0.7112	0.9974	-0.2647	9.7224	-0.434	0.4559	-0.3689	0.5283	-0.2281	-0.7625	7.587	5.7177	1.2935	0.4612	2.0131	-0.305	-0.9388	-0.7736	-0.3093
-0.0849	1.5932	9.3387	0.9836	-0.6194	-0.4563	-0.2915	0.3721	-0.7238	0.8279	-0.379	9.8357	-0.2807	0.5517	-0.2167	0.5223	-0.2402	-0.7625	7.6452	5.3765	1.3515	0.2398	2.0153	-0.452	-0.9218	-0.7526	-0.2372
-0.2591	1.589	9.686	1.0111	-0.8022	-0.4914	-0.3655	0.3935	-0.7441	0.8229	-0.0349	9.6029	-0.3406	0.458	-0.2466	0.5223	-0.2281	-0.7445	7.3641	5.7182	1.5183	0.2342	2.0179	-0.6362	-0.9231	-0.792	-0.2918
-0.0203	1.4734	9.5749	1.5079	-0.6445	-0.4942	-0.2897	0.3538	-0.7076	1.1162	-0.1489	9.9594	-0.3721	0.5204	-0.1546	0.5283	-0.2101	-0.7505	8.1524	5.717	1.1895	0.1493	1.8617	-0.3583	-0.9542	-0.7544	-0.2912
0.1562	1.3594	9.3459	1.4105	-0.8895	-0.5598	-0.3417	0.3574	-0.6772	0.9995	-0.2067	9.8398	-0.3399	0.4907	-0.0624	0.5404	-0.2281	-0.7445	7.9314	5.035	1.4709	0.3048	1.8005	-0.3327	-0.8904	-0.7711	-0.2372
-0.7391	1.2971	9.7396	1.2602	-0.739	-0.4009	-0.3474	0.3927	-0.7431	0.8882	-0.2057	10.0133	-0.4065	0.6426	-0.278	0.5163	-0.2462	-0.7565	8.0423	5.4898	1.3589	0.241	1.8013	-0.3923	-0.9061	-0.7342	-0.2896
0.0968	1.5338	9.4011	1.0464	-0.5576	-0.4558	-0.3428	0.3568	-0.694	0.7072	-0.035	9.5421	-0.6214	0.578	-0.3378	0.5283	-0.2281	-0.7625	7.763	5.2628	1.5824	-0.0401	1.5891	-0.447	-0.8911	-0.791	-0.2734
-0.2631	1.4169	9.4546	1.0767	-0.5571	-0.5177	-0.3417	0.3574	-0.6772	1.0008	-0.3215	9.8978	-0.5633	0.7329	-0.3698	0.5223	-0.2161	-0.7505	7.4226	5.1495	1.5761	-0.2963	1.2577	-0.6878	-0.8907	-0.7718	-0.2727
-0.0784	1.4721	9.6906	1.0415	-0.894	-0.4015	-0.3093	0.3923	-0.7075	1.1676	0.0798	9.6686	-0.5345	0.8259	-0.3705	0.5223	-0.2281	-0.7505	7.3616	5.2062	1.3462	-0.8846	1.2271	-0.6705	-0.9224	-0.7722	-0.2556
-0.2684	1.4205	9.1626	1.1045	-0.74	-0.522	-0.3451	0.3361	-0.7449	1.5163	-0.2648	9.908	-0.2812	0.5193	-0.3702	0.5404	-0.2402	-0.7445	7.7583	5.6607	1.3538	-1.0406	0.8314	-0.669	-0.9544	-0.7732	-0.274
-0.0204	1.5318	9.5741	1.1396	-0.5262	-0.4563	-0.3428	0.3568	-0.694	0.8851	-0.3215	9.8371	-0.0008	0.4306	-0.2484	0.5223	-0.2221	-0.7505	8.2654	5.3187	1.134	-1.381	0.5874	-0.63	-0.9537	-0.7533	-0.2379
-0.0264	2.0607	9.2755	0.9229	-0.4974	-0.5452	-0.3608	0.3576	-0.695	0.7627	-0.2656	9.4251	0.1899	0.1857	-0.1866	0.5283	-0.2342	-0.7445	7.7599	5.2627	1.4108	-1.3808	0.3434	-0.6012	-0.9225	-0.7725	-0.2734
-0.7462	1.8268	9.3826	1.0772	-0.5265	-0.517	-0.3616	0.3764	-0.6944	0.5352	-0.6101	9.4777	0.2857	0.0321	-0.1862	0.5283	-0.2221	-0.7565	7.8747	5.0351	1.4699	-1.3438	0.1578	-0.3887	-0.9219	-0.7157	-0.3071
0.0373	1.825	9.4547	0.891	-0.6203	-0.4552	-0.3626	0.3758	-0.7112	0.8282	-0.5515	9.8349	0.1289	0.0906	-0.37	0.5223	-0.2281	-0.7505	7.9369	5.6609	1.8148	-1.0891	0.0326	-0.1515	-0.9068	-0.7725	-0.2908
-0.2652	2.1763	9.3866	0.8678	-0.2547	-0.2932	-0.3456	0.3745	-0.7269	0.882	-0.4949	9.6605	0.2837	0.0612	-0.3708	0.5283	-0.2402	-0.7505	8.1603	5.2623	1.5897	-1.2067	-0.0922	0.0661	-0.906	-0.7338	-0.2718
0.0403	1.1816	9.5796	0.8628	-0.4987	-0.3907	-0.326	0.3359	-0.7271	0.8287	-0.2062	9.8951	0.2218	0.0921	-0.3091	0.5283	-0.2402	-0.7385	7.9324	5.1488	1.5283	-1.1741	-0.1539	0.1261	-0.9222	-0.7718	-0.2378
-0.3891	1.6541	9.1575	0.8012	-0.4686	-0.42	-0.2722	0.3914	-0.6886	0.4232	-0.2065	9.653	0.472	-0.0914	-0.371	0.5343	-0.2342	-0.7445	7.9351	5.4902	1.7002	-1.1784	-0.3348	0.0018	-0.9061	-0.7527	-0.2547
-0.3795	0.8312	9.635	0.9277	-0.3456	-0.3267	-0.3258	0.3554	-0.7097	1.2326	-0.6089	10.0181	0.5394	-0.3057	-0.2165	0.5283	-0.2281	-0.7625	7.8138	4.9781	1.2399	-1.0912	-0.3625	-0.1853	-0.9224	-0.7722	-0.2556
-0.8056	1.2432	9.3888	1.0208	-0.2218	-0.4789	-0.3281	0.412	-0.7079	0.7126	-0.6091	9.7739	0.7951	-0.7045	-0.1541	0.5223	-0.2462	-0.7385	7.5859	5.7177	1.2363	-1.4952	-0.5449	-0.2054	-0.8907	-0.7718	-0.2727
-0.2599	1.4147	9.6298	1.083	-0.1598	-0.5399	-0.3041	0.318	-0.6763	0.8242	-0.1497	9.661	1.2292	-0.7605	-0.0027	0.5343	-0.2402	-0.7505	8.0443	5.5467	1.4734	-1.4316	-0.6066	-0.1464	-0.9228	-0.8102	-0.2391
-0.3782	1.4717	9.7437	1.2689	-0.2197	-0.3897	-0.3448	0.3556	-0.7275	1.2834	-0.6681	9.6675	1.198	-0.666	0.212	0.5223	-0.2281	-0.7445	8.1539	5.3189	1.2464	-1.4942	-0.8501	-0.1465	-0.923	-0.8105	-0.2568
-0.0813	1.2992	9.5176	1.5763	-0.2467	-0.4865	-0.2902	0.3921	-0.6897	0.8836	-0.0918	9.7795	1.3552	-0.8193	0.1813	0.5163	-0.2281	-0.7325	8.0435	5.3761	1.4161	-1.3709	-0.6974	-0.1797	-0.9066	-0.7722	-0.2731
-0.3202	1.4731	9.628	1.6349	-0.3371	-0.6429	-0.3451	0.3361	-0.7449	1.1702	-0.2073	9.7845	1.3536	-0.8214	-0.0338	0.5283	-0.2221	-0.7445	7.7659	5.4335	1.7543	-1.6605	-0.9057	-0.5107	-0.8751	-0.7907	-0.273
-0.2644	1.5927	9.394	1.6671	-0.3373	-0.5203	-0.3827	0.3754	-0.7457	0.7674	-0.4371	9.6586	1.1336	-0.702	-0.2483	0.5223	-0.2462	-0.7505	8.0445	5.3761	1.4733	-1.6983	-0.994	-0.7253	-0.8902	-0.7523	-0.2544
-0.0737	1.1773	9.9279	1.6043	-0.4605	-0.4299	-0.3827	0.3754	-0.7457	1.2276	-0.2649	9.7853	1.1689	-0.7911	0.09	0.5283	-0.2281	-0.7445	7.9284	5.8311	1.3571	-2.0262	-1.1683	-1.3008	-0.8904	-0.7711	-0.2372
-0.2021	1.5911	9.5118	1.2684	-0.1887	-0.4813	-0.3827	0.3754	-0.7457	1.3408	-0.0928	9.7297	1.3756	-0.3877	0.025	0.5223	-0.2402	-0.7385	8.038	4.7502	1.0722	-2.0041	-1.2861	-1.5789	-0.9383	-0.7725	-0.2559
-0.6787	1.1219	9.7428	1.0819	-0.2824	-0.4503	-0.3629	0.3564	-0.7285	0.6567	-0.1484	9.892	0.8804	-0.2999	0.0273	0.5283	-0.2462	-0.7565	8.035	5.4895	0.9583	-2.2061	-1.37	-2.0959	-0.9069	-0.8098	-0.2388
-0.2004	1.1235	9.5761	0.9264	-0.4066	-0.3587	-0.327	0.3353	-0.7438	1.1698	0.0803	9.7858	0.6013	-0.2412	-0.0021	0.5163	-0.2342	-0.7625	7.8731	5.49	1.413	-2.422	-1.7362	-2.0309	-0.8907	-0.7903	-0.2378
-0.2653	1.4767	9.337	0.4948	-0.3805	-0.322	-0.3613	0.3959	-0.677	1.1761	-0.436	10.0764	0.7205	0.0406	0.2414	0.5343	-0.2402	-0.7445	7.7037	5.604	1.4672	-2.2132	-1.8543	-2.284	-0.9225	-0.7725	-0.2734
-0.2633	1.592	9.4524	0.3121	-0.322	-0.1647	-0.3789	0.3583	-0.696	0.714	-0.1485	9.8931	0.5926	0.2239	0.1488	0.5343	-0.2342	-0.7265	8.0981	5.4328	1.3027	-2.5909	-2.0344	-2.4585	-0.875	-0.7903	-0.2553
-0.08	1.8813	9.6271	0.1269	-0.4161	-0.0106	-0.3436	0.3756	-0.6934	0.7084	-0.0922	9.6005	0.4631	0.5006	0.1172	0.5163	-0.2402	-0.7565	7.7565	5.49	1.2392	-2.582	-2.4813	-3.1383	-0.9232	-0.7924	-0.3096
-0.3804	1.5316	9.6262	-0.0593	-0.4484	-0.0397	-0.3286	0.3731	-0.7426	0.8866	0.0816	9.956	0.4265	0.7152	-0.0375	0.5163	-0.2402	-0.7385	7.7608	5.3196	1.468	-2.7105	-2.7839	-3.2598	-0.8904	-0.7527	-0.2721
-0.1432	1.7669	9.4523	-0.5197	-0.4543	0.2427	-0.3791	0.3389	-0.7134	0.8874	0.2544	10.0154	0.2422	0.7142	0.0558	0.5163	-0.2342	-0.7505	7.933	5.4901	1.5858	-2.7785	-3.2382	-3.4151	-0.9057	-0.752	-0.2191
-0.0802	1.2401	9.5767	-0.7637	-0.2735	0.2497	-0.3456	0.3745	-0.7269	1.5132	-0.3806	9.7317	0.1188	0.6812	-0.0355	0.5404	-0.2402	-0.7565	8.044	5.8311	1.4736	-2.9005	-3.5439	-3.3217	-0.9383	-0.7725	-0.2559
-0.3785	1.6468	9.7415	-1.0418	-0.3993	0.435	-0.3103	0.3917	-0.7243	1.0528	-0.4954	9.6053	0.6097	0.8102	-0.0084	0.5283	-0.2281	-0.7565	7.4721	6.0022	1.2344	-3.1493	-4.2139	-3.2889	-0.8741	-0.7516	-0.2363
-0.318	1.4133	9.7455	-1.2879	-0.2792	0.3484	-0.3067	0.3552	-0.6919	1.1706	-0.4373	9.7835	0.7272	1.0263	-0.164	0.5343	-0.2342	-0.7385	7.9295	5.7743	1.4143	-3.2211	-4.6969	-3.5671	-0.922	-0.753	-0.255
-0.3751	1.4695	9.9189	-1.5587	-0.0082	0.6037	-0.3299	0.353	-0.7768	1.1115	0.0226	9.7259	0.8838	0.9676	-0.0109	0.5103	-0.2402	-0.7625	7.5862	5.4902	1.2361	-3.3169	-5.3356	-3.6001	-0.8741	-0.7516	-0.2363
-0.2611	0.7741	9.521	-1.5003	-0.2522	0.6592	-0.3441	0.3367	-0.7281	0.8876	-0.5511	9.9532	0.7021	0.7793	-0.1009	0.5283	-0.2402	-0.7685	8.0414	5.376	1.3016	-3.6175	-5.7666	-3.2565	-0.9383	-0.7725	-0.2559
-0.1991	1.7057	9.6856	-1.8698	-0.2257	0.7259	-0.3631	0.3369	-0.7459	0.7633	0.0222	9.4849	1.103	0.8152	-0.0113	0.5343	-0.2161	-0.7325	7.6982	5.8881	1.1813	-3.7403	-6.3461	-3.1653	-0.8904	-0.7711	-0.2372
-0.137	1.1212	9.7523	-2.1152	-0.2597	0.9435	-0.3407	0.358	-0.6604	0.9429	0.0237	9.8983	1.4139	0.7265	0.0796	0.5283	-0.2342	-0.7445	8.0998	5.7741	1.4174	-3.9529	-6.8358	-2.9785	-0.9377	-0.753	-0.2376
-0.1412	1.8238	9.5684	-2.5081	0.1941	1.0506	-0.3801	0.3383	-0.7302	0.8842	-0.4368	9.778	1.4753	0.6632	-0.1355	0.5283	-0.2281	-0.7505	7.8151	5.6606	1.3549	-3.9415	-7.4201	-2.5533	-0.9228	-0.7544	-0.3261
-0.1423	1.8829	9.5092	-2.3852	0.0418	1.2303	-0.3417	0.3574	-0.6772	1.2826	-0.208	9.6695	1.6888	0.8848	0.1692	0.5223	-0.2462	-0.7385	7.9337	5.7176	1.6432	-3.9881	-7.9149	-2.0028	-0.9232	-0.8109	-0.2746
-0.2621	1.4745	9.5122	-2.9758	-0.0549	1.0203	-0.36	0.3387	-0.6956	1.2305	0.0235	9.9624	1.3825	0.7889	0.1716	0.5223	-0.2221	-0.7445	7.6976	5.49	1.1237	-3.8541	-8.2853	-1.641	-0.9058	-0.715	-0.289
-0.0804	1.4152	9.5745	-3.0694	0.0061	0.8383	-0.343	0.3373	-0.7113	1.2257	-0.4379	9.6674	1.7198	0.8218	0.0157	0.5343	-0.2281	-0.7385	7.6495	5.2629	1.5804	-4.0259	-8.6271	-1.1469	-0.8907	-0.8088	-0.2029
-0.2041	1.5342	9.3958	-3.3413	0.1546	1.1832	-0.3634	0.3947	-0.7106	1.172	-0.6096	9.8413	1.5673	0.854	0.3237	0.5343	-0.2402	-0.7445	7.5862	5.4902	1.2361	-4.1076	-8.9676	-0.7478	-0.9552	-0.8304	-0.2581
-0.1421	1.7078	9.5114	-3.3443	0.0943	0.9974	-0.3278	0.3542	-0.7432	1.1072	-0.0934	9.491	1.7478	1.0408	0.2601	0.5163	-0.2342	-0.7565	7.8746	5.1488	1.47	-4.3199	-9.3659	-0.5602	-0.8904	-0.7711	-0.2372
-0.2026	1.9413	9.5074	-3.496	0.2146	1.0634	-0.3639	0.3558	-0.7453	1.0555	-0.092	9.7828	1.7454	1.1648	0.2901	0.5223	-0.2281	-0.7445	7.5313	5.661	1.3497	-4.303	-9.3738	-0.0077	-0.9224	-0.7722	-0.2556
-0.6767	1.2372	9.8582	-3.8342	0.3644	0.9787	-0.327	0.3353	-0.7438	0.7135	-0.4938	9.833	1.5895	1.2245	0.2292	0.5283	-0.2221	-0.7445	7.9911	5.2057	1.6438	-4.1794	-9.7698	0.0162	-0.9222	-0.7533	-0.2728
-0.7954	1.5277	9.9692	-4.3566	0.3272	1.292	-0.3626	0.3758	-0.7112	0.7062	-0.0928	9.4833	1.5826	1.5015	0.1047	0.5343	-0.2221	-0.7565	7.8753	5.3764	1.5274	-4.3533	-9.8669	0.4201	-0.9222	-0.7533	-0.2728
-0.2003	1.8231	9.6257	-4.4788	0.5407	1.0828	-0.4322	0.3418	-0.6997	0.8919	-0.435	10.188	1.4595	1.5005	0.1361	0.5283	-0.2462	-0.7445	7.8195	5.4902	1.5837	-4.1505	-10.1186	0.9958	-0.8905	-0.7715	-0.255
0.1011	1.4726	9.6354	-4.3516	0.725	1.1468	-0.3438	0.3562	-0.7107	1.0568	-0.2068	9.8409	1.6117	1.5631	0.0427	0.5103	-0.2342	-0.7385	7.9323	5.2057	1.5283	-3.8827	-10.3107	1.6623	-0.938	-0.7906	-0.2032
-0.136	1.1205	9.8107	-4.109	0.514	1.0469	-0.2899	0.3343	-0.725	1.0601	-0.206	10.0166	1.6387	1.7491	0.0722	0.5283	-0.2402	-0.7445	7.4182	5.3768	1.3474	-3.8677	-10.3178	2.1534	-0.9227	-0.8098	-0.2213
-0.3266	1.5359	9.2768	-4.3224	0.5414	1.2654	-0.3227	0.3572	-0.6594	1.2296	-0.1493	9.903	1.8866	1.8167	0.4083	0.5343	-0.2342	-0.7445	8.1071	5.7175	1.818	-3.7149	-10.3473	2.0872	-0.8898	-0.7516	-0.2188
-0.0721	1.526	10.0403	-4.4464	0.6327	1.0844	-0.3266	0.3743	-0.7091	0.9413	-0.3219	9.7796	1.9758	1.9722	0.4069	0.5283	-0.2221	-0.7445	7.8657	5.5466	1.0124	-3.6133	-10.2599	2.3614	-0.953	-0.715	-0.2367
-0.1943	1.2942	9.9243	-4.1403	0.6062	0.8647	-0.3448	0.3556	-0.7275	1.1636	-0.2088	9.433	1.9742	2.0338	0.3758	0.5163	-0.2402	-0.7685	7.539	5.377	1.7501	-3.5932	-10.1474	3.007	-0.9379	-0.7533	-0.2553
-0.1332	1.4101	9.9823	-4.0481	0.4227	1.1056	-0.342	0.3379	-0.6945	1.2309	-0.2641	9.9611	2.1622	1.849	0.2529	0.5163	-0.2342	-0.7625	7.7121	5.6044	1.9251	-3.6489	-10.2417	3.223	-0.9208	-0.6951	-0.2354
-0.1404	1.2402	9.5757	-3.7386	0.5794	0.9206	-0.3477	0.3733	-0.7605	1.2782	-0.209	9.4352	2.2237	1.8811	0.3138	0.5223	-0.2522	-0.7505	7.6522	5.6043	1.7523	-3.7364	-9.7262	3.3526	-0.9374	-0.7338	-0.2369
-0.1421	1.7078	9.5114	-3.2145	0.5851	0.8219	-0.3459	0.355	-0.7443	1.0546	-0.2648	9.7235	1.8196	1.9998	0.2232	0.5223	-0.2462	-0.7385	7.5883	5.4903	1.3506	-3.37	-9.5408	3.1588	-0.9372	-0.7335	-0.2192
-0.0734	1.7018	9.9797	-3.1821	0.6156	0.9144	-0.3106	0.3723	-0.7416	1.0506	0.1945	9.5498	1.6091	1.8457	0.502	0.5283	-0.2402	-0.7445	7.8185	5.4333	1.5264	-3.2853	-9.1712	2.8519	-0.9225	-0.791	-0.2385
-0.5576	1.3545	9.8004	-3.0879	0.7082	0.9152	-0.3103	0.3917	-0.7243	0.6543	-0.0339	9.7754	1.5119	1.934	0.1333	0.5404	-0.2101	-0.7565	7.4225	5.2632	1.5762	-3.0831	-8.6768	2.3274	-0.9217	-0.7523	-0.2195
-0.4406	1.5316	9.6251	-2.2606	0.5348	0.5628	-0.3438	0.3562	-0.7107	1.1096	-0.2079	9.6077	1.0133	2.1444	0.0427	0.5404	-0.2342	-0.7505	7.817	5.7745	1.4694	-3.0289	-8.1246	2.023	-0.9061	-0.7527	-0.2547
-0.3176	1.1215	9.7492	-1.98	0.6903	0.5627	-0.3279	0.4315	-0.6906	0.6472	0.2522	9.4252	0.5785	2.2313	-0.1089	0.5163	-0.2342	-0.7565	7.7645	4.8648	1.6394	-2.9153	-7.5103	1.625	-0.9379	-0.7533	-0.2553
-0.0803	1.2984	9.576	-1.9198	0.5993	0.5599	-0.3443	0.3945	-0.6928	0.5409	-0.0909	9.8315	0.0194	2.4108	-0.1374	0.5223	-0.2402	-0.7565	7.5906	5.3198	1.4649	-2.817	-6.9642	1.7493	-0.922	-0.753	-0.255
-0.2567	1.3541	9.8057	-1.43	0.2985	0.6088	-0.3616	0.3764	-0.6944	0.7711	-0.0335	9.8947	-0.3269	2.6524	-0.3826	0.5404	-0.2462	-0.7445	7.7102	5.4337	1.8105	-2.6924	-6.4159	1.7193	-0.9059	-0.7523	-0.2369
-0.2041	1.5342	9.3958	-1.1778	0.668	0.5213	-0.3448	0.3556	-0.7275	0.759	-0.0364	9.2503	-0.7653	2.9568	-0.4126	0.5283	-0.2342	-0.7505	8.3254	5.205	1.3067	-2.4776	-5.5007	1.5665	-0.9217	-0.7523	-0.2195
-0.3199	1.298	9.6302	-1.2134	0.4236	0.455	-0.3255	0.3748	-0.6923	0.833	-0.1476	10.1296	-1.1047	2.953	-0.4413	0.5223	-0.2402	-0.7505	7.7012	5.092	1.2951	-2.4472	-5.0738	1.5076	-0.922	-0.7715	-0.2201
-0.3197	1.1229	9.6324	-1.0907	0.3944	0.4221	-0.3415	0.3768	-0.6598	0.8293	0.0817	9.9549	-1.1963	2.8579	-0.5938	0.5163	-0.2402	-0.7565	7.7103	5.3768	1.8104	-2.3945	-4.0942	1.1144	-0.9376	-0.7526	-0.2198
-0.1417	1.4743	9.5144	-0.8718	0.6109	0.3317	-0.3415	0.3768	-0.6598	0.949	-0.3201	10.1896	-1.1308	2.6094	-0.7771	0.5343	-0.2221	-0.7565	7.37	5.1497	1.804	-2.1302	-3.5838	1.6022	-0.9063	-0.7715	-0.2375
-0.385	1.01	9.3408	-0.6261	0.5524	0.2966	-0.3812	0.3377	-0.7469	0.8273	-0.0339	9.8372	-1.0589	2.1785	-0.6521	0.5283	-0.2342	-0.7445	7.7024	5.8314	1.4102	-2.3715	-2.7335	1.7391	-0.986	-0.7735	-0.2569
-0.1952	1.1782	9.8674	-0.5348	0.5847	0.1117	-0.3276	0.3737	-0.7259	0.7726	0.3696	10.0137	-1.1339	1.4058	-0.5241	0.5223	-0.2402	-0.7325	7.4236	5.2064	1.6334	-2.5571	-1.7889	1.6601	-0.97	-0.7917	-0.2217
-0.0771	1.2962	9.7512	-0.2554	0.5561	0.2921	-0.3221	0.3188	-0.6773	1.06	-0.1485	10.0169	-0.41	0.765	-0.4016	0.5223	-0.2281	-0.7565	7.9384	5.3197	1.8718	-2.9328	-1.0251	1.4623	-0.9542	-0.7544	-0.2912
-0.6826	1.6494	9.561	0.0236	0.7739	0.0472	-0.3655	0.3935	-0.7441	1.2858	-0.1497	9.8455	-0.6494	0.4543	-0.3062	0.5223	-0.2402	-0.7505	7.709	5.6042	1.7534	-3.3147	-0.1366	1.0506	-0.9535	-0.753	-0.2201
-0.1369	1.0629	9.7531	0.3586	0.4717	0.0672	-0.2874	0.3745	-0.6567	0.7673	-0.3796	9.6589	-0.6771	0.2673	-0.4278	0.5343	-0.2342	-0.7445	7.3112	5.1497	1.6885	-3.6675	0.7528	0.5767	-0.9383	-0.7725	-0.2559
-0.1337	1.7603	9.9779	0.6064	0.5969	-0.0562	-0.3245	0.3754	-0.6756	0.8783	-0.2081	9.4861	-0.7386	0.2988	-0.3047	0.5343	-0.2101	-0.7445	7.8784	5.4334	1.6991	-3.8372	1.3998	0.0338	-0.9695	-0.7721	-0.2033
-0.3155	1.12	9.866	0.946	0.5697	-0.0303	-0.2915	0.4494	-0.6711	1.0012	0.0814	9.9582	-0.7064	0.269	-0.2126	0.5223	-0.2522	-0.7625	8.0456	5.3762	1.5305	-4.1248	2.1353	-0.3204	-0.9697	-0.7725	-0.221
-0.082	1.7661	9.5117	1.098	0.5415	-0.2173	-0.3069	0.3357	-0.7092	1.0543	-0.7252	9.6628	-1.0788	0.3256	-0.3644	0.5163	-0.2402	-0.7445	7.597	5.2063	1.8082	-4.0943	2.8975	-0.4074	-0.9217	-0.7523	-0.2195
0.0991	1.4157	9.5193	1.2569	0.695	-0.0315	-0.342	0.3379	-0.6945	0.7172	-0.0902	10.0691	-1.2667	0.4153	-0.4867	0.5404	-0.2281	-0.7505	7.7624	4.9215	1.525	-3.9046	3.2919	-0.3178	-0.9687	-0.715	-0.2192
-0.322	1.2411	9.5141	1.223	0.5114	-0.035	-0.3634	0.3947	-0.7106	1.1207	-0.2054	10.1935	-1.574	0.5087	-0.086	0.5223	-0.2281	-0.7625	7.4845	5.2065	1.8634	-3.9115	3.478	-0.5619	-0.9381	-0.7537	-0.2731
-0.0751	1.4115	9.8665	1.1618	0.6028	-0.1245	-0.308	0.3351	-0.726	1.008	-0.0321	10.3092	-1.6714	0.6603	-0.3014	0.5223	-0.2342	-0.7385	7.9899	5.3194	1.5867	-3.7636	3.6946	-0.8104	-0.9219	-0.7342	-0.2722
-0.4374	1.4711	9.8011	0.9736	0.2945	0.0864	-0.3592	0.3198	-0.6962	0.7123	0.1964	9.8361	-1.7328	0.66	-0.2703	0.5343	-0.2342	-0.7565	8.0465	5.4899	1.5878	-3.5804	3.7568	-0.9076	-0.938	-0.7906	-0.2032
-0.251	1.0586	10.1014	0.8794	0.2634	-0.0053	-0.3276	0.3737	-0.7259	0.8275	-0.1489	9.8367	-1.6716	0.6918	-0.2401	0.5283	-0.2462	-0.7445	7.7651	6.0591	1.7548	-3.125	3.9136	-1.2272	-0.9378	-0.7345	-0.2725
-0.0791	1.2393	9.6351	0.6025	0.3832	-0.0915	-0.3247	0.356	-0.6929	0.7645	-0.0351	9.5432	-1.2032	0.4183	-0.2413	0.5343	-0.2221	-0.7565	8.169	5.8314	2.1053	-2.5959	3.9125	-1.1509	-0.9376	-0.7526	-0.2198
-0.4424	1.2996	9.5113	0.8498	0.3549	-0.0337	-0.3268	0.3548	-0.7265	1.0565	-0.0343	9.8417	-0.6205	0.5791	-0.2149	0.5343	-0.2342	-0.7385	8.0456	5.3762	1.5305	-2.1314	3.9735	-1.1643	-0.9538	-0.7537	-0.2557
-0.1347	0.9447	9.8713	1.0073	0.5397	-0.0317	-0.3278	0.3542	-0.7432	0.7687	-0.5519	9.7167	-0.4697	0.7353	-0.2167	0.5283	-0.2402	-0.7385	7.6564	5.6045	1.9813	-1.5329	3.9385	-0.8445	-0.9056	-0.7331	-0.2363
-0.0781	1.297	9.6928	0.9126	0.4166	-0.0332	-0.342	0.3379	-0.6945	0.9422	-0.2066	9.8387	-0.7183	0.8255	-0.2158	0.5223	-0.2462	-0.7445	7.7074	5.1492	1.6386	-1.0979	4.1512	-0.8251	-0.9215	-0.7519	-0.2017
-0.6832	1.3	9.507	0.8506	0.3853	-0.0023	-0.3448	0.3556	-0.7275	1.169	-0.15	9.7262	-0.323	1.1084	-0.1583	0.5343	-0.2402	-0.7505	7.7635	5.7178	1.64	-0.2594	4.4246	-0.7865	-0.9215	-0.7335	-0.2366
-0.5059	1.4187	9.3335	0.9752	0.4476	-0.0025	-0.327	0.3353	-0.7438	0.9976	0.2531	9.7833	-0.1318	0.8641	-0.0351	0.5223	-0.2342	-0.7565	7.3659	5.1496	1.5751	0.2665	4.5774	-0.8318	-0.9548	-0.8112	-0.2575
-0.5634	1.7083	9.504	0.7568	0.4156	-0.1543	-0.3093	0.3923	-0.7075	0.6578	-0.1481	9.9506	-0.502	0.8283	-0.1556	0.5283	-0.2402	-0.7565	7.9889	5.3194	1.5294	0.3273	4.8218	-0.8931	-0.9384	-0.7913	-0.2388
-0.3241	1.2426	9.3973	0.9425	0.4788	-0.2167	-0.3242	0.3176	-0.7109	1.0512	-0.2081	9.548	-0.5016	0.8289	-0.0942	0.5343	-0.2281	-0.7505	7.3586	6.0023	1.2323	0.7866	5.0072	-1.0897	-0.9689	-0.7153	-0.237
-0.1443	1.0096	9.345	1.0388	0.6013	-0.0615	-0.2887	0.3544	-0.6909	0.5329	0.0798	9.4222	-0.2187	0.648	0.0896	0.5163	-0.2281	-0.7625	7.5918	6.0592	1.5799	0.7798	5.2541	-1.3334	-0.9383	-0.7725	-0.2559
-0.5609	1.4734	9.6237	1.0056	0.4789	-0.0945	-0.3263	0.3937	-0.6917	0.9435	-0.3214	9.8967	-0.2501	0.5835	-0.1557	0.5223	-0.2402	-0.7565	7.5927	5.263	1.5793	0.8994	5.4086	-1.4893	-0.921	-0.714	-0.2182
-0.3273	1.3032	9.2214	1.1603	0.5727	-0.2174	-0.4162	0.3399	-0.7322	0.8267	-0.3217	9.7774	-0.3732	0.5825	-0.1242	0.5404	-0.2342	-0.7445	7.7058	5.6041	1.5817	1.1263	5.6477	-1.1869	-0.9538	-0.7537	-0.2557
0.1636	1.3543	9.7547	1.2849	0.5427	-0.0659	-0.3072	0.3935	-0.6739	1.0488	-0.0361	9.4316	0.0635	0.3711	-0.064	0.5223	-0.2221	-0.7625	7.597	5.2063	1.8082	1.592	6.074	-1.1975	-0.9071	-0.7917	-0.2915
-0.076	1.2955	9.8096	1.2519	0.451	-0.129	-0.3441	0.3367	-0.7281	1.176	-0.3785	10.0766	0.0065	0.1541	-0.0624	0.5283	-0.2402	-0.7565	7.9934	5.8883	1.816	1.6609	6.2231	-0.9832	-0.9535	-0.753	-0.2201
-0.2615	1.066	9.5174	1.5623	0.6073	-0.2217	-0.3247	0.356	-0.6929	0.7657	-0.0923	9.6016	0.0762	-0.1527	0.1234	0.5223	-0.2342	-0.7385	7.5999	5.3771	1.98	1.8774	6.4671	-1.0185	-0.9533	-0.7526	-0.2023
-0.3141	0.8858	9.9273	1.5618	0.5767	-0.2224	-0.3093	0.3923	-0.7075	0.9998	0.2536	9.9004	0.085	-0.5543	0.1564	0.5223	-0.2281	-0.7565	7.5929	5.1493	1.5792	2.0016	6.5889	-1.0212	-0.9383	-0.754	-0.2909
-0.2606	1.1236	9.575	1.7122	0.3954	-0.3205	-0.3255	0.3748	-0.6923	0.5414	-0.3785	9.8302	-0.1928	-0.621	-0.0566	0.5404	-0.2342	-0.7565	7.4831	5.4908	1.8063	2.129	6.5263	-0.9026	-0.9544	-0.7732	-0.274
-0.2647	1.8261	9.391	1.8646	0.2132	-0.2341	-0.2698	0.3347	-0.6904	0.8856	0.0238	9.8972	-0.626	-0.5956	-0.1772	0.5103	-0.2342	-0.7565	7.3139	5.4911	1.8604	2.0722	6.6458	-0.7463	-0.9379	-0.7533	-0.2553
0.0974	1.1253	9.4062	2.0772	0.0016	-0.2413	-0.3258	0.3554	-0.7097	0.8264	-0.1492	9.7782	-0.9622	-0.6907	-0.0517	0.5343	-0.2221	-0.7385	7.5284	5.4903	1.1778	2.0437	6.8275	-0.6826	-0.969	-0.7341	-0.2198
-0.1383	1.2971	9.6917	1.9834	-0.0296	-0.3023	-0.3618	0.357	-0.7118	0.8254	-0.2069	9.7193	-1.245	-0.5416	-0.3275	0.5343	-0.2522	-0.7445	7.984	5.0348	1.243	1.7074	6.7035	-0.5199	-0.9373	-0.715	-0.2541
-0.3746	1.1193	9.9233	1.92	-0.0296	-0.4553	-0.2894	0.3733	-0.6903	0.9995	-0.2067	9.8398	-1.3351	-0.6664	-0.3569	0.5223	-0.2281	-0.7565	8.0431	5.7173	1.4163	1.6103	6.553	-0.6411	-0.9704	-0.7924	-0.2572
-0.0784	1.4721	9.6906	1.8872	-0.1829	-0.3967	-0.3268	0.3548	-0.7265	0.9421	-0.1491	9.8389	-1.332	-0.7895	-0.2948	0.5343	-0.2522	-0.7445	7.8709	5.6037	1.2986	1.735	6.2174	-0.586	-0.9225	-0.8095	-0.2035
-0.0812	1.2408	9.5183	1.7017	-0.154	-0.4553	-0.3422	0.3184	-0.7119	1.0553	0.023	9.7833	-1.0871	-0.694	-0.2661	0.5223	-0.2402	-0.7385	7.7585	5.547	1.3537	1.3524	5.9482	-0.9147	-0.9551	-0.7931	-0.3102
-0.2632	1.4752	9.4538	1.8558	-0.1523	-0.4879	-0.3663	0.4124	-0.7435	0.5366	-0.1495	9.5969	-1.277	-0.5115	-0.3889	0.5283	-0.2402	-0.7445	7.8143	5.4331	1.2975	1.5347	5.767	-1.0138	-0.9696	-0.7537	-0.2382
-0.1357	1.7034	9.8618	1.8556	-0.2444	-0.3669	-0.399	0.3579	-0.7306	1.1688	0.0225	9.727	-1.2871	-0.0163	-0.3304	0.5223	-0.2342	-0.7445	7.9299	5.4331	1.414	1.4205	5.5186	-0.6744	-0.9388	-0.792	-0.2743
-0.0799	1.065	9.5789	1.853	-0.3049	-0.5219	-0.3634	0.3947	-0.7106	0.3154	-0.3198	10.0018	-1.3913	0.5077	-0.3943	0.5283	-0.2342	-0.7385	7.5989	5.377	1.9228	1.6146	5.21	-0.3754	-0.8906	-0.753	-0.2899
-0.2631	1.4169	9.4546	2.1004	-0.3025	-0.4942	-0.3278	0.3542	-0.7432	0.996	-0.0925	9.6646	-1.6102	0.6921	-0.2712	0.5283	-0.2402	-0.7625	7.5843	5.3764	1.1216	1.6261	4.9608	0.0218	-0.9051	-0.7136	-0.2179
-0.3251	1.2433	9.3389	2.0335	-0.3933	-0.8337	-0.3454	0.3939	-0.7095	0.8863	-0.3788	9.8954	-1.43	0.9737	-0.1203	0.5223	-0.2281	-0.7205	7.8762	5.4901	1.5847	1.9007	4.8714	-0.1101	-0.9381	-0.7537	-0.2731
-0.0791	1.2393	9.6351	2.1594	-0.4853	-0.4682	-0.2905	0.3727	-0.707	0.9357	-0.2657	9.4869	-1.2184	1.1611	-0.1534	0.5223	-0.2402	-0.7445	7.8745	5.2057	1.47	2.0476	4.4484	-0.333	-0.9547	-0.7924	-0.2747
-0.1385	1.4138	9.6903	2.1244	-0.5762	-0.7158	-0.3477	0.3733	-0.7605	0.7652	0.1952	9.6029	-0.9422	1.2258	-0.1554	0.5223	-0.2221	-0.7565	7.7631	5.1491	1.5824	2.1977	4.1459	-0.4628	-0.9381	-0.7537	-0.2731
-0.8006	1.473	9.6779	2.1891	-0.423	-0.6825	-0.3618	0.357	-0.7118	1.2317	-0.0913	10.0204	-0.4702	0.8934	0.1511	0.5283	-0.2402	-0.7325	7.5998	5.4339	1.9801	2.4147	3.9325	-0.4403	-0.954	-0.7725	-0.2385
-0.1381	1.122	9.6939	2.3357	-0.695	-0.9978	-0.3088	0.354	-0.7254	1.1171	-0.0336	10.0185	-0.5707	1.2634	0.1495	0.5223	-0.2402	-0.7445	7.5265	5.3764	1.0633	2.9503	3.8979	-0.1493	-0.9391	-0.7927	-0.3099
-0.0785	1.5888	9.6891	2.3697	-0.6037	-0.8425	-0.2709	0.3341	-0.7072	1.0585	0.0813	9.9593	-0.2606	1.2371	0.3015	0.5343	-0.2402	-0.7505	7.8641	6.0015	0.9556	3.5126	3.7129	0.0168	-0.9222	-0.7349	-0.3077
-0.0802	1.2401	9.5767	2.5853	-0.6012	-0.9066	-0.3441	0.3367	-0.7281	1.0475	0.0787	9.3735	0.1075	1.3654	0.3907	0.5283	-0.2342	-0.7385	7.8736	5.945	1.4706	3.4839	3.8337	0.0801	-0.9217	-0.7338	-0.2544
-0.333	1.5403	8.9265	2.4911	-0.6938	-0.9074	-0.3077	0.3546	-0.7087	0.706	-0.6681	9.4221	0.6019	1.3401	0.4494	0.5404	-0.2402	-0.7445	7.7037	5.604	1.4672	3.7252	3.8978	-0.1417	-0.8907	-0.7903	-0.2378
-0.0798	1.7646	9.6285	2.7685	-0.7831	-0.8206	-0.3106	0.3723	-0.7416	1.1184	-0.2059	10.0763	0.9397	1.4054	0.4471	0.5283	-0.2462	-0.7565	7.8194	5.5471	1.5837	3.6569	3.9617	-0.3543	-0.938	-0.7349	-0.2903
-0.4994	1.2392	9.6861	2.9519	-0.7804	-1.0074	-0.3438	0.3562	-0.7107	0.7759	-0.2625	10.128	1.277	1.4701	0.3832	0.5223	-0.2462	-0.7565	8.2679	4.9776	1.2482	3.7775	4.1461	-0.4793	-0.8899	-0.7331	-0.2537
-0.3846	1.4761	9.3933	3.2922	-0.6849	-1.1018	-0.2727	0.3524	-0.7234	0.8206	0.0221	9.486	1.8035	1.542	0.8714	0.5404	-0.2402	-0.7445	7.2993	5.4904	1.0592	3.9397	4.417	-0.2669	-0.9232	-0.8109	-0.2746
-0.3119	1.584	10.0937	3.4167	-0.7456	-0.9202	-0.3634	0.3947	-0.7106	0.8809	-0.4951	9.602	2.3504	1.855	0.6819	0.5163	-0.2281	-0.7445	7.8825	5.4335	1.9281	3.8163	4.5387	-0.2622	-0.9212	-0.7143	-0.236
-0.1957	1.5284	9.863	3.5717	-0.652	-1.0124	-0.3417	0.3574	-0.6772	0.8265	-0.2067	9.7779	4.9144	2.1098	1.956	0.5223	-0.2342	-0.7565	7.7037	5.604	1.4672	3.5706	4.5986	-0.193	-0.922	-0.7715	-0.2201
-0.379	1.997	9.7371	3.3553	-0.7463	-0.8887	-0.3987	0.3774	-0.7132	0.9346	-0.3234	9.4281	2.9982	1.9891	1.0768	0.5223	-0.2462	-0.7445	7.7054	5.0922	1.524	3.574	4.7798	-0.0994	-0.9224	-0.7722	-0.2556
-0.4409	1.7067	9.6229	3.1059	-0.9017	-0.8582	-0.3456	0.3745	-0.7269	0.7081	0.0803	9.6012	2.6595	1.9226	0.9563	0.5223	-0.2342	-0.7445	7.9221	5.0346	0.9558	3.3548	4.5676	-0.156	-0.9381	-0.7537	-0.2731
0.162	1.7052	9.6919	2.8363	-0.6004	-0.5407	-0.3294	0.3919	-0.7421	0.7082	-0.6101	9.5396	2.1	2.0383	0.713	0.5283	-0.2342	-0.7505	8.1034	5.3761	1.5888	3.29	4.5385	-0.2465	-0.8904	-0.7527	-0.2721
-0.0794	1.4728	9.6322	2.7409	-0.7232	-0.6037	-0.3247	0.356	-0.6929	1.229	-0.4371	9.8431	1.4506	2.1562	0.8083	0.5524	-0.2402	-0.7385	8.2705	5.3758	1.4202	3.085	4.3805	0.1578	-0.9542	-0.7544	-0.2912
-0.3735	1.0603	9.9824	2.373	-0.6051	-0.535	-0.3668	0.3735	-0.7783	0.8849	-0.2065	9.8376	1.2084	1.8734	0.5963	0.5163	-0.2281	-0.7445	7.7012	5.9451	1.353	3.1182	4.1966	0.2476	-0.9371	-0.7146	-0.2363
-0.3836	1.5338	9.451	2.0038	-0.5787	-0.4375	-0.3451	0.3361	-0.7449	1.0512	-0.1506	9.5482	1.2707	1.8749	0.6882	0.5223	-0.2342	-0.7445	7.7102	5.4337	1.8105	2.8426	3.6769	0.4053	-0.9219	-0.7342	-0.2722
-0.0811	1.8821	9.5687	1.7634	-0.3378	-0.1832	-0.3618	0.357	-0.7118	0.7163	-0.2055	10.01	0.7446	1.8987	0.5067	0.5464	-0.2342	-0.7445	7.5946	5.4337	1.6939	2.6822	3.3747	0.254	-0.9222	-0.7533	-0.2728
-0.2643	1.5343	9.3947	1.6098	-0.309	-0.1499	-0.3412	0.319	-0.6951	0.7162	-0.1479	10.0103	0.4386	1.7398	0.3865	0.5343	-0.2342	-0.7445	7.7619	5.3196	1.5253	2.7118	2.9182	0.2495	-0.939	-0.7739	-0.327
-0.1407	1.4736	9.5727	1.2428	-0.1297	-0.0799	-0.3505	0.3909	-0.7934	1.2305	-0.034	9.9621	0.2834	1.8004	0.4178	0.5343	-0.2402	-0.7325	7.7604	5.7177	1.4683	2.4336	2.4607	0.3156	-0.9227	-0.7913	-0.2562
-0.1986	1.3555	9.69	1.0597	-0.0402	-0.0142	-0.3268	0.3548	-0.7265	1.0519	0.0797	9.6078	0.037	1.7982	0.45	0.5223	-0.2281	-0.7505	7.8684	5.8879	1.1844	2.5003	2.1842	0.4958	-0.9232	-0.8293	-0.2397
-0.1449	1.4765	9.3392	0.9095	0.0795	0.2056	-0.3436	0.3756	-0.6934	0.5331	-0.0352	9.4217	-0.3902	1.3548	-0.1902	0.5404	-0.2342	-0.7265	7.7631	6.059	1.6403	2.222	1.6659	0.5614	-0.9379	-0.7718	-0.2204
0.2833	1.821	9.751	0.5419	0.1975	0.305	-0.3446	0.375	-0.7101	1.0601	-0.206	10.0166	-0.0679	0.8041	0.0878	0.5223	-0.2342	-0.7385	7.4173	5.263	1.29	2.063	1.5459	0.4423	-0.9379	-0.7533	-0.2553
-0.1473	1.7115	9.2194	0.3871	0.1961	0.2762	-0.2915	0.3721	-0.7238	0.7129	-0.1487	9.8345	-0.0071	0.9308	0.3325	0.5343	-0.2462	-0.7325	7.9836	5.376	1.2433	1.8472	1.2101	0.5075	-0.891	-0.8095	-0.2384
-0.202	1.5328	9.5126	0.2313	0.0721	0.337	-0.3611	0.3381	-0.7123	0.8228	0.0226	9.6032	-0.3427	0.6776	0.0902	0.5343	-0.2161	-0.7445	8.16	5.4898	1.5899	1.5043	1.0587	0.4551	-0.9696	-0.7352	-0.2731
-0.0803	1.3568	9.5753	0.1709	0.1324	0.3698	-0.3284	0.3925	-0.7253	0.4835	-0.0333	9.8306	-0.3755	0.7701	0.0898	0.5163	-0.2402	-0.7385	7.9264	5.7173	1.2425	1.393	0.8699	0.8871	-0.9376	-0.7526	-0.2198
-0.1414	1.2409	9.5173	0.1415	0.2238	0.3721	-0.325	0.3365	-0.7103	0.9379	-0.2652	9.6041	-0.2227	0.8653	0.1805	0.5103	-0.2281	-0.7565	7.9194	5.4895	0.8417	1.3382	0.7447	1.1336	-0.9533	-0.7157	-0.2722
-0.5648	1.1845	9.3938	0.325	0.1341	0.3371	-0.3088	0.354	-0.7254	0.4274	-0.0905	9.8879	-0.0976	0.7417	0.0576	0.5223	-0.2462	-0.7385	8.0909	5.3756	0.902	1.1214	0.7141	1.1398	-0.9065	-0.7534	-0.2902
-0.0874	1.1285	9.1694	0.3858	0.1351	0.2441	-0.3634	0.3947	-0.7106	0.6548	0.3115	9.8355	-0.3388	0.4286	-0.0928	0.5404	-0.2342	-0.7385	7.4162	5.263	1.2328	1.1581	0.742	1.3233	-0.9541	-0.7913	-0.2213
-0.0803	1.3568	9.5753	0.4487	0.1046	0.3964	-0.3088	0.354	-0.7254	0.8758	-0.036	9.3697	0.0034	0.309	-0.0326	0.5343	-0.2221	-0.7685	7.8121	5.5468	1.1831	1.0712	0.861	1.5112	-0.9236	-0.8116	-0.3102
-0.2596	1.9392	9.6816	0.6927	0.1391	0.0558	-0.3304	0.3913	-0.7588	0.6476	0.0221	9.4241	-0.4614	0.4282	0.0002	0.5283	-0.2402	-0.7565	7.699	5.2057	1.1807	1.1091	0.9493	1.7259	-0.9225	-0.7725	-0.2734
-0.4995	1.3559	9.6847	0.8507	0.1392	0.3921	-0.3276	0.3737	-0.7259	0.7191	0.0829	10.187	-0.6119	0.2408	-0.0286	0.5163	-0.2402	-0.7505	7.926	5.2054	1.1849	0.7672	0.8278	1.7044	-0.954	-0.7725	-0.2385
0.1012	1.4142	9.6361	1.0319	-0.011	0.2328	-0.3613	0.3186	-0.7297	0.9957	0.0801	9.6653	-0.6355	-0.1631	-0.2104	0.5163	-0.2402	-0.7445	7.3561	5.4335	1.0602	0.8619	1.1013	1.7345	-0.9217	-0.7523	-0.2195
-0.8042	1.767	9.499	0.819	0.1084	0.3611	-0.36	0.3387	-0.6956	0.9357	-0.2657	9.4869	-0.4741	-0.5652	-0.3933	0.5343	-0.2462	-0.7565	8.0491	5.0919	1.702	0.3846	1.1986	1.3194	-0.907	-0.7914	-0.2737
-0.1974	1.238	9.7498	0.8803	0.14	0.2688	-0.3268	0.3548	-0.7265	0.768	-0.1493	9.7185	-0.282	-0.9037	-0.4232	0.5283	-0.2281	-0.7385	7.6462	5.4334	1.4088	0.2864	1.2925	1.1387	-0.9538	-0.7537	-0.2557
0.0879	1.8315	8.9302	0.8167	0.0479	0.2368	-0.3796	0.3772	-0.6954	0.6521	-0.0344	9.6582	-0.2437	-1.2749	-0.4826	0.5343	-0.2462	-0.7445	7.7013	5.8883	1.353	0.1374	1.3507	1.328	-0.9063	-0.7715	-0.2375
-0.3812	1.2988	9.5707	0.784	0.0176	0.1136	-0.3077	0.3546	-0.7087	0.8216	0.0798	9.5449	-0.6791	-1.0935	-0.4504	0.5283	-0.2402	-0.7625	7.189	5.4338	1.2288	-0.2033	1.2897	1.3377	-0.9061	-0.7711	-0.2198
-0.1341	1.2941	9.9253	0.5952	-0.229	0.1721	-0.3268	0.3548	-0.7265	0.8243	-0.2072	9.6607	-0.4243	-1.4299	-0.327	0.5283	-0.2402	-0.7445	7.8134	5.3762	1.2402	-0.266	1.6253	1.2808	-0.9544	-0.7732	-0.274
-0.0819	1.7077	9.5125	0.4754	-0.0472	0.239	-0.3281	0.412	-0.7079	0.6596	0.0825	10.0688	-0.4204	-1.7108	-0.6019	0.5223	-0.2281	-0.7445	7.7597	5.3764	1.4108	-0.5825	1.5369	1.0745	-0.9222	-0.7533	-0.2728
-0.2682	1.3038	9.164	0.3489	-0.2011	0.2065	-0.3621	0.3375	-0.7291	0.9946	0.0798	9.6067	-0.7575	-1.8706	-0.7834	0.5283	-0.2281	-0.7505	8.0422	5.5466	1.359	-1.1416	1.5376	1.0297	-0.9538	-0.7721	-0.2207
-0.4427	1.5331	9.5083	0.288	-0.1098	0.1478	-0.3618	0.357	-0.7118	1.0541	0.0802	9.725	-1.3081	-2.1247	-0.9015	0.5223	-0.2221	-0.7445	7.7524	5.433	1.0103	-1.4438	1.4731	1.2841	-0.9709	-0.8303	-0.2407
-0.3734	1.0019	9.9832	0.2891	-0.0487	0.1491	-0.3252	0.317	-0.7276	0.9446	-0.3211	9.9553	-2.4192	-2.2329	-1.3246	0.5283	-0.2462	-0.7445	7.5884	5.3766	1.3505	-1.4294	0.9932	0.7882	-0.9228	-0.8102	-0.2391
-0.2598	1.2979	9.6312	0.167	0.0417	0.1526	-0.3618	0.357	-0.7118	0.8186	0.5394	9.4298	-4.1157	-2.41	-1.8667	0.5283	-0.2342	-0.7265	7.6471	5.5472	1.4661	-1.8891	0.9908	0.9556	-0.9222	-0.7718	-0.2378
0.0987	1.7075	9.5157	-0.1156	-0.236	0.1501	-0.3258	0.3554	-0.7097	0.8234	-0.3225	9.6016	-4.9754	-2.5731	-1.83	0.5223	-0.2221	-0.7445	7.9294	4.9781	1.3564	-2.411	0.8667	1.1238	-0.9379	-0.7533	-0.2553
-0.322	1.9991	9.563	-0.1142	-0.1136	0.0912	-0.3623	0.318	-0.7465	0.3714	-0.2051	9.9448	-5.4426	-2.2981	-1.6752	0.5283	-0.2342	-0.7385	7.8112	5.433	1.1258	-2.4825	0.8102	0.8182	-0.9704	-0.8108	-0.2223
-0.0852	1.8266	9.3358	-0.0535	-0.0817	-0.0626	-0.3438	0.3562	-0.7107	0.9447	-0.3786	9.9551	-5.4845	-1.8044	-1.7394	0.5404	-0.2342	-0.7505	7.5907	5.2061	1.4648	-3.1004	0.6265	0.8967	-0.9055	-0.6958	-0.2884
-0.5608	1.4151	9.6245	-0.2695	-0.0532	-0.09	-0.3459	0.355	-0.7443	0.9896	0.4239	9.374	-4.8856	-1.0267	-1.9011	0.5103	-0.2462	-0.7505	7.5301	5.7747	1.2925	-3.7147	0.3497	1.0972	-0.89	-0.752	-0.2366
-0.0728	1.2933	9.9848	-0.3322	-0.2073	0.0612	-0.3422	0.3184	-0.7119	1.0058	-0.0326	10.192	-3.816	-0.5514	-1.8488	0.5163	-0.2281	-0.7685	7.8723	5.2625	1.3556	-4.0486	0.0722	1.3508	-0.9231	-0.792	-0.2918
-0.4489	1.3624	9.1601	-0.3958	-0.2379	-0.0617	-0.3051	0.3174	-0.6931	0.8883	-0.2633	10.0131	-2.8676	-0.2016	-1.8564	0.5103	-0.2161	-0.7325	8.151	6.0581	1.1325	-4.328	-0.2018	1.357	-0.9225	-0.791	-0.2385
-0.0766	0.9461	9.7556	-0.4556	-0.1163	-0.0583	-0.3247	0.356	-0.6929	0.7705	-0.3213	9.8349	-2.0965	-0.0981	-1.5543	0.5283	-0.2342	-0.7445	8.21	5.8875	1.2479	-4.5103	-0.5997	1.5129	-0.923	-0.8105	-0.2568
-0.1343	1.4692	9.9231	-0.393	-0.1468	0.0633	-0.3451	0.3361	-0.7449	0.8811	0.0803	9.6631	-1.6682	0.0927	-1.4658	0.5163	-0.2342	-0.7625	7.873	5.5469	1.4131	-4.6354	-0.9954	1.5135	-0.9065	-0.7534	-0.2902
-0.3233	1.4169	9.4535	-0.4868	-0.1165	-0.0887	-0.3412	0.319	-0.6951	0.9388	-0.1499	9.6632	-1.7648	0.3405	-1.313	0.5283	-0.2281	-0.7505	7.8147	6.0019	1.3551	-4.6941	-1.4845	1.665	-0.939	-0.7924	-0.2921
0.0979	1.5331	9.4595	-0.7931	-0.1207	0.1611	-0.3095	0.3729	-0.7248	0.7091	0.1381	9.6601	-1.5239	0.6534	-1.1934	0.5163	-0.2221	-0.7445	7.868	5.3761	1.1268	-4.2218	-1.9452	1.9544	-0.9217	-0.7338	-0.2544
-0.0851	1.7683	9.3365	-0.9188	-0.2133	0.0992	-0.343	0.3373	-0.7113	1.0538	-0.4376	9.6641	-2.2068	0.831	-1.2826	0.5163	-0.2402	-0.7565	7.926	5.2054	1.1849	-3.8829	-2.1881	1.9116	-0.8897	-0.7328	-0.236
-0.1438	1.4174	9.3983	-1.1637	-0.1244	0.1657	-0.3446	0.375	-0.7101	0.9483	0.0825	10.1914	-1.7769	1.0239	-0.979	0.5223	-0.2402	-0.7445	8.1567	5.6034	1.4183	-3.3248	-2.4931	1.9539	-0.9227	-0.7729	-0.2912
-0.3847	1.5345	9.3926	-1.1316	-0.1862	0.3792	-0.3268	0.3548	-0.7265	0.5401	-0.2637	9.7721	-1.136	1.4032	-0.8006	0.5223	-0.2342	-0.7505	8.1613	5.2624	1.647	-3.1068	-2.6765	2.0074	-0.9218	-0.7526	-0.2372
0.0408	1.5894	9.6329	-1.0357	0.0287	0.3519	-0.3428	0.3568	-0.694	0.8862	-0.3213	9.8956	-0.7098	1.75	-0.5594	0.5163	-0.2462	-0.7445	7.5892	5.6041	1.4079	-2.7974	-2.7372	1.9977	-0.9061	-0.7527	-0.2547
-0.1461	1.5356	9.28	-0.818	-0.0004	0.5331	-0.3616	0.3764	-0.6944	1.2281	-0.5524	9.784	-0.132	2.1587	-0.473	0.5103	-0.2221	-0.7565	7.8829	5.1492	1.9278	-2.4843	-2.8302	2.1105	-0.922	-0.753	-0.255
-0.2575	1.9377	9.7984	-0.3566	-0.1488	0.5856	-0.327	0.3353	-0.7438	0.9972	-0.1497	9.7229	0.7609	2.3251	-0.2027	0.5223	-0.2462	-0.7505	7.7542	5.6605	1.1249	-2.2673	-3.0131	2.1332	-0.921	-0.714	-0.2182
-0.6182	1.6464	9.7957	0.1686	-0.2973	0.8218	-0.3443	0.3172	-0.7455	0.7131	-0.2637	9.834	1.0037	2.4498	-0.3585	0.5163	-0.2402	-0.7565	7.4844	5.2634	1.8634	-2.0731	-3.017	2.4039	-0.922	-0.753	-0.255
-0.5081	1.4201	9.2167	-0.3808	0.0942	0.8372	-0.3286	0.3731	-0.7426	0.8233	-0.265	9.6019	1.0322	2.7012	0.0393	0.5283	-0.2281	-0.7505	7.5956	5.4906	1.7512	-1.9231	-3.0452	2.2456	-0.9215	-0.7335	-0.2366
-0.3205	1.7066	9.625	-0.9332	0.3025	0.8486	-0.3273	0.3158	-0.7612	1.1768	-0.2057	10.136	0.9073	2.7615	0.009	0.5043	-0.2101	-0.7625	7.7101	5.5474	1.8106	-1.5568	-2.6159	2.023	-0.9367	-0.6955	-0.2357
-0.3794	1.5308	9.6846	-0.8394	0.2722	1.0006	-0.3266	0.3743	-0.7091	0.7672	-0.3221	9.6591	0.5594	3.1278	-0.1141	0.5223	-0.2281	-0.7505	7.7052	5.2628	1.5242	-0.9759	-2.5513	1.7603	-0.9056	-0.7516	-0.2014
-0.0835	1.359	9.4001	-0.776	0.2721	1.1535	-0.3812	0.3377	-0.7469	1.1693	-0.3225	9.7254	0.5277	3.1899	-0.0528	0.5223	-0.2342	-0.7385	7.7033	5.149	1.4096	-0.7753	-1.9647	1.1751	-0.9374	-0.7338	-0.2369
-0.4477	1.3033	9.2193	-0.7756	0.3335	1.0934	-0.3448	0.3556	-0.7275	0.7145	0.1969	9.9532	0.4663	3.2214	0.0703	0.5223	-0.2281	-0.7385	7.9333	5.2626	1.5856	-0.463	-1.3868	1.2012	-0.9383	-0.7725	-0.2559
-0.6212	1.5319	9.6219	-0.5257	0.4271	1.2153	-0.3448	0.3556	-0.7275	1.109	0.1946	9.6095	0.2784	3.4064	0.2239	0.5404	-0.2342	-0.7505	7.9346	5.0352	1.6426	-0.025	-0.8097	1.2848	-0.9697	-0.7725	-0.221
-0.3763	1.587	9.859	-0.464	0.52	1.0627	-0.3284	0.3925	-0.7253	0.8858	-0.0912	9.8967	0.4289	3.5938	0.2527	0.5223	-0.2221	-0.7325	7.5954	4.8082	1.6934	0.2205	-0.0162	1.1302	-0.9217	-0.7338	-0.2544
-0.3167	1.2375	9.8061	-0.123	0.6153	1.0298	-0.3244	0.2981	-0.7282	0.9426	-0.4942	9.8374	0.2387	3.7441	0.007	0.5223	-0.2402	-0.7445	7.7082	5.3767	1.696	0.6728	0.6601	0.6612	-0.9533	-0.7157	-0.2722
-0.3206	1.7649	9.6243	0.0274	0.4339	0.9317	-0.3629	0.3564	-0.7285	1.0457	-0.2094	9.2551	-0.0982	3.68	0.1323	0.5223	-0.2402	-0.7445	7.4764	5.0355	1.4054	0.7352	1.4219	0.6039	-0.9379	-0.7533	-0.2553
-0.0776	1.7048	9.7461	0.1531	0.5881	0.9027	-0.3431	0.4146	-0.6586	1.235	-0.033	10.1964	-0.3745	3.6151	0.1036	0.5283	-0.2281	-0.7445	8.1536	5.6033	1.2466	0.5719	2.0049	0.2755	-0.9224	-0.7722	-0.2556
-0.1316	1.8172	10.0939	-0.0342	0.5255	0.8114	-0.3106	0.3723	-0.7416	0.9973	-0.2072	9.7226	-0.9268	3.4858	0.1076	0.5223	-0.2402	-0.7445	8.0515	4.8077	1.8162	0.6242	2.8323	-0.1189	-0.9374	-0.7338	-0.2369
-0.0858	1.4772	9.2818	-0.0346	0.4641	0.8716	-0.2892	0.3154	-0.7256	1.0534	-0.2076	9.6651	-1.3256	3.4525	0.2945	0.5223	-0.2281	-0.7745	7.7038	5.5471	1.4672	0.7731	3.3836	-0.3648	-0.9703	-0.7735	-0.2744
-0.0816	1.4743	9.5154	0.0258	0.4961	0.687	-0.3469	0.3544	-0.761	0.8915	-0.205	10.1891	-1.854	3.5688	0.0818	0.5404	-0.2281	-0.7445	7.7606	5.5471	1.4682	1.0608	3.8672	-0.1237	-0.9217	-0.7154	-0.2893
-0.0762	1.4122	9.8081	-0.0698	0.2811	0.7451	-0.3266	0.3743	-0.7091	0.9951	-0.2077	9.6055	-1.9066	3.1351	0.054	0.5163	-0.2281	-0.7445	7.8133	5.4331	1.2402	1.3141	4.1694	0.0248	-0.9383	-0.7725	-0.2559
-0.675	1.5276	9.9713	0.0506	0.1913	0.5878	-0.3655	0.3935	-0.7441	0.4858	-0.0903	9.9475	-2.2691	2.6961	-0.1871	0.5464	-0.2402	-0.7445	7.7074	5.2061	1.6386	1.57	4.4095	0.2648	-0.9537	-0.7348	-0.2728
-0.2606	1.8816	9.6239	0.2664	0.286	0.4027	-0.3464	0.3933	-0.7263	1.1721	0.0233	9.9027	-2.386	2.449	-0.0313	0.5163	-0.2402	-0.7505	7.8139	4.9213	1.2398	1.5718	4.6829	0.2977	-0.9068	-0.791	-0.2559
-0.1951	1.1198	9.8681	0.6958	0.107	0.3934	-0.3242	0.3176	-0.7109	0.8848	-0.149	9.8378	-2.602	2.4465	-0.0607	0.5343	-0.2402	-0.7445	7.9874	4.8643	1.4146	1.5989	4.6543	0.1738	-0.9063	-0.7715	-0.2375
-0.3793	1.4725	9.6853	0.9107	0.1098	0.2677	-0.3292	0.4114	-0.7247	1.0019	-0.3787	9.9562	-2.4204	2.603	-0.0627	0.5223	-0.2342	-0.7385	8.2143	4.9209	1.4188	1.623	4.5661	-0.0428	-0.9376	-0.7342	-0.2547
-0.0821	1.8828	9.5103	1.065	-0.0117	0.4477	-0.3417	0.3574	-0.6772	0.6612	-0.2048	10.1261	-2.5692	2.3541	-0.0604	0.5223	-0.2462	-0.7565	7.6512	5.5474	1.695	1.5901	4.5365	-0.1035	-0.9068	-0.7725	-0.2908
-0.3223	1.4746	9.5112	1.0946	-0.0723	0.4152	-0.3644	0.3941	-0.7274	0.7666	-0.6099	9.5992	-2.6538	1.9822	-0.0577	0.5283	-0.2101	-0.7445	8.1613	5.2624	1.647	1.5238	4.3556	-0.2259	-0.954	-0.754	-0.2734
-0.386	1.7103	9.332	1.2484	-0.0705	0.3518	-0.3059	0.3363	-0.6925	1.1093	0.0221	9.6087	-2.6217	1.8571	-0.2415	0.5404	-0.2462	-0.7385	7.7644	4.9785	1.6395	1.9512	4.2367	-0.424	-0.9547	-0.7924	-0.2747
-0.0847	1.4765	9.3402	1.0649	-0.0424	0.4778	-0.3083	0.3929	-0.6907	0.7208	-0.2619	10.2441	-2.4931	1.5793	-0.3328	0.5223	-0.2342	-0.7385	7.8757	5.0351	1.5271	1.6409	3.9931	-0.4166	-0.8906	-0.753	-0.2899
-0.2597	1.2396	9.632	1.0011	-0.1037	0.385	-0.3796	0.3772	-0.6954	0.5918	-0.2076	9.4806	-2.6421	1.3937	-0.1772	0.5163	-0.2221	-0.7565	8.2171	5.2054	1.5907	1.697	3.9349	-0.6031	-0.9711	-0.8122	-0.2934
-0.0858	1.4772	9.2818	0.9747	0.2018	0.3304	-0.3812	0.3377	-0.7469	0.5389	-0.2065	9.7138	-2.6397	1.2379	-0.2992	0.5404	-0.2281	-0.7565	7.9931	5.3195	1.7584	1.6702	3.7501	-0.4502	-0.9373	-0.715	-0.2541
-0.076	1.2955	9.8096	0.9085	-0.0431	0.2952	-0.3412	0.319	-0.6951	1.2799	-0.5538	9.4922	-3.0991	0.983	-0.6022	0.5283	-0.2342	-0.7505	8.2141	5.0915	1.419	1.7006	3.5675	-0.4525	-0.9058	-0.715	-0.289
0.0928	1.3617	9.1697	0.7879	0.0774	0.3916	-0.3095	0.3729	-0.7248	1.1023	-0.4398	9.1966	-3.311	0.7635	-0.6919	0.5223	-0.2281	-0.7445	7.7659	5.4335	1.7543	1.6946	3.4484	-0.6377	-0.9378	-0.7345	-0.2725
-0.3217	1.066	9.5163	0.6274	-0.0754	0.052	-0.2889	0.3349	-0.7082	0.4275	-0.148	9.8876	-3.8341	0.5688	-1.0871	0.5283	-0.2402	-0.7445	8.3841	5.3188	1.4223	1.4808	3.4774	-0.5389	-0.922	-0.753	-0.255
-0.4438	1.5338	9.4499	0.8088	-0.2872	0.0144	-0.3446	0.375	-0.7101	1.1669	-0.208	9.6088	-4.7864	0.2776	-1.4178	0.5343	-0.2281	-0.7385	7.8741	5.5469	1.4703	1.2925	3.57	-0.6247	-0.9066	-0.7722	-0.2731
-0.4389	1.064	9.6894	0.5326	-0.1985	0.0505	-0.3273	0.3931	-0.7085	1.1113	-0.5528	9.6647	-5.1887	0.3987	-1.2625	0.5223	-0.2342	-0.7505	8.0953	5.1483	1.1308	0.8463	3.6977	-1.0405	-0.922	-0.7345	-0.2899
-0.0777	1.7631	9.7453	0.6892	-0.1671	0.203	-0.3268	0.3548	-0.7265	0.6005	-0.148	9.9495	-5.0363	0.4615	-1.3253	0.5223	-0.2221	-0.7445	7.8172	5.6039	1.4693	0.4076	3.5171	-1.1825	-0.954	-0.754	-0.2734
-0.0859	1.5356	9.2811	0.7185	-0.1661	0.0489	-0.3469	0.3544	-0.761	0.6014	-0.0327	10.0086	-4.5779	0.6199	-1.4211	0.5283	-0.2342	-0.7505	8.0939	5.4895	1.0738	-0.4047	3.5507	-1.4037	-0.9537	-0.7348	-0.2728
-0.2024	1.8246	9.5089	0.5639	-0.1983	0.0809	-0.3242	0.3176	-0.7109	0.7045	-0.3808	9.3649	-4.1487	0.7164	-1.4856	0.5223	-0.2342	-0.7625	7.6503	5.4336	1.6377	-0.5915	3.5207	-1.4291	-0.9224	-0.7722	-0.2556
-0.1391	1.8807	9.6844	0.7796	-0.2267	0.0776	-0.3114	0.3912	-0.741	1.0029	-0.2634	10.0153	-4.0262	0.8119	-1.3333	0.5223	-0.2281	-0.7385	7.5288	5.2059	1.1776	-1.0602	3.3092	-1.5397	-0.9061	-0.7527	-0.2547
-0.2622	1.5329	9.5115	0.8112	-0.1652	0.0477	-0.3469	0.3544	-0.761	0.256	-0.3777	9.8833	-3.1042	0.9447	-1.3702	0.5343	-0.2281	-0.7385	7.9904	4.9782	1.5864	-1.4004	3.126	-1.5002	-0.9215	-0.7335	-0.2366
-0.3795	1.5892	9.6838	0.7797	-0.2575	0.1384	-0.3422	0.3184	-0.7119	1.067	-0.4345	10.3671	-2.889	1.0732	-1.0957	0.5404	-0.2221	-0.7565	7.9276	5.6605	1.2997	-1.6577	2.7342	-1.7722	-0.9549	-0.7742	-0.3274
-0.318	1.4133	9.7455	0.8737	0.0197	-0.1643	-0.3114	0.3912	-0.741	0.8848	-0.149	9.8378	-1.9305	1.1183	-0.6406	0.5223	-0.2161	-0.7325	7.8731	5.49	1.413	-1.6296	2.4308	-1.837	-0.9212	-0.7143	-0.236
-0.2579	1.4716	9.7458	0.8394	-0.1638	-0.1986	-0.3451	0.3361	-0.7449	0.4228	-0.6094	9.5926	-1.3132	1.0936	-0.6441	0.5223	-0.2221	-0.7445	7.7597	5.3764	1.4108	-1.5636	1.9108	-1.6587	-0.9385	-0.7544	-0.3087
-0.1386	1.4721	9.6895	1.0577	-0.1009	-0.1077	-0.3441	0.3367	-0.7281	0.5971	-0.7242	9.7126	-1.2839	1.2509	-0.3994	0.5283	-0.2161	-0.7505	7.9243	5.7741	1.1281	-1.5062	1.6691	-1.7853	-0.9061	-0.7527	-0.2547
-0.2012	1.7071	9.5688	0.9352	-0.1334	0.0469	-0.2727	0.3524	-0.7234	0.8325	-0.4929	10.0695	-0.6319	1.168	-0.0647	0.5343	-0.2161	-0.7265	7.9411	4.808	1.9858	-1.3417	1.4818	-1.4537	-0.9532	-0.7153	-0.2544
-0.0798	0.9483	9.5804	0.6287	-0.0759	0.175	-0.3459	0.355	-0.7443	0.8847	-0.0915	9.8381	-0.1964	1.1774	0.4551	0.5343	-0.2342	-0.7385	8.0507	5.4901	1.8168	-1.1229	1.5418	-1.3983	-0.9063	-0.7715	-0.2375
-0.1376	1.5298	9.7472	0.5051	-0.0157	0.0856	-0.3637	0.3752	-0.7279	0.9414	-0.3794	9.7793	-0.0774	1.3002	0.2385	0.5343	-0.2402	-0.7445	7.7093	5.3199	1.7531	-0.9343	1.5406	-1.3118	-0.9215	-0.7335	-0.2366
-0.0756	1.0037	9.8133	0.3805	-0.1395	0.1767	-0.3266	0.3743	-0.7091	0.9973	-0.2072	9.7226	0.4797	1.3085	0.5118	0.5404	-0.2221	-0.7385	7.592	5.0355	1.5219	-1.0579	1.3271	-1.279	-0.9376	-0.7157	-0.2897
-0.1996	1.3562	9.6316	0.2573	-0.0794	0.1181	-0.3422	0.3184	-0.7119	0.8248	-0.5523	9.6592	1.3101	1.4733	0.6903	0.5283	-0.2342	-0.7505	7.9865	5.6036	1.4152	-0.7135	1.3559	-1.1662	-0.9056	-0.7147	-0.2712
-0.2679	1.0704	9.167	0.2884	-0.0484	0.0876	-0.3642	0.3363	-0.7627	0.6611	-0.7802	10.0649	1.0333	1.4714	0.7841	0.5404	-0.2281	-0.7565	8.3292	5.4895	1.5358	-0.7113	1.4767	-1.1039	-0.9542	-0.7728	-0.2563
-0.2031	1.5919	9.4534	0.23	0.0726	0.214	-0.2881	0.316	-0.7088	1.2339	-0.0908	10.1376	1.2773	1.5022	0.506	0.5343	-0.2281	-0.7385	7.8161	4.8645	1.3543	-0.2172	1.3861	-1.1501	-0.9215	-0.7335	-0.2366
-0.3833	1.3003	9.4539	0.1347	-0.1426	0.3028	-0.2905	0.3727	-0.707	0.8896	-0.378	10.0711	1.6773	1.7277	1.0247	0.5343	-0.2342	-0.7445	7.7661	5.3198	1.7542	0.0616	1.447	-1.1579	-0.9058	-0.7335	-0.2541
-0.2639	2.0005	9.4472	0.2923	0.1038	0.2139	-0.3477	0.3733	-0.7605	0.8284	-0.0336	9.8958	1.6139	1.8519	1.1472	0.5404	-0.2462	-0.7325	7.8195	5.4902	1.5837	0.3425	1.568	-1.1039	-0.9377	-0.753	-0.2376
-0.3255	1.4768	9.336	0.0446	0.0093	0.3072	-0.3085	0.2962	-0.7607	0.8853	-0.4941	9.8363	1.9244	1.699	0.9927	0.5283	-0.2402	-0.7505	7.5315	5.5473	1.3496	0.5914	1.659	-1.0799	-0.874	-0.7328	-0.2534
-0.0822	1.1832	9.4607	-0.0156	0.1003	0.3099	-0.3289	0.3536	-0.76	0.7698	0.0812	9.8367	2.1757	1.5169	1.0845	0.5283	-0.2281	-0.7565	7.8705	5.0349	1.241	0.8165	1.9294	-0.8387	-0.8907	-0.7718	-0.2727
-0.1452	1.6516	9.337	0.048	0.1924	0.3419	-0.325	0.3365	-0.7103	0.8264	0.4837	9.8396	2.518	1.4927	1.4206	0.5223	-0.2342	-0.7445	7.8766	5.1489	1.5844	1.0417	2.2608	-0.5969	-0.922	-0.753	-0.255
-0.0193	1.5311	9.6325	-0.0775	0.0381	0.4016	-0.3459	0.355	-0.7443	1.0577	-0.0915	9.9	2.3002	1.5832	1.4213	0.5343	-0.2342	-0.7445	7.8166	5.2626	1.4118	1.498	2.3866	-0.8861	-0.9382	-0.791	-0.221
-0.3791	1.2974	9.6875	-0.165	0.3427	0.4093	-0.3448	0.3556	-0.7275	0.6551	-0.494	9.7733	1.8082	1.5163	1.4246	0.5343	-0.2281	-0.7385	7.4794	5.1494	1.5771	1.5615	2.5993	-0.8556	-0.8911	-0.7725	-0.3083
-0.0782	1.3553	9.6921	-0.3247	0.0665	0.3438	-0.3258	0.3554	-0.7097	0.8257	-0.3795	9.7185	1.4121	1.2641	1.3363	0.5283	-0.2342	-0.7385	7.6976	5.5469	1.1238	1.7173	2.9037	-0.8578	-0.9219	-0.7342	-0.2722
-0.5625	1.8827	9.5602	-0.1371	0.0674	0.5568	-0.2892	0.3154	-0.7256	0.6555	-0.0911	9.8337	1.8778	1.0824	1.2424	0.5404	-0.2281	-0.7385	8.0994	5.2053	1.3597	1.9691	3.0237	-0.7415	-0.9061	-0.7711	-0.2198
-0.3216	1.7657	9.5659	-0.0106	0.3443	0.4074	-0.3971	0.3397	-0.7144	0.3706	0.255	9.9469	1.5681	1.0457	0.9679	0.5283	-0.2342	-0.7385	7.708	5.5473	1.6961	2.0979	3.1129	-0.591	-0.9224	-0.7722	-0.2556
-0.2005	1.2402	9.5746	-0.2029	-0.0546	0.3704	-0.326	0.3359	-0.7271	0.888	-0.0907	10.0138	0.9802	0.9735	0.5108	0.5283	-0.2342	-0.7385	8.0455	5.433	1.5306	2.5742	3.0465	-0.2063	-0.9063	-0.7715	-0.2375
-0.5029	1.5332	9.5073	-0.0721	0.282	0.5298	-0.3438	0.3562	-0.7107	0.7662	-0.3799	9.6003	0.7048	0.9097	0.605	0.5283	-0.2281	-0.7385	7.9299	5.4331	1.414	2.6636	2.8348	-0.3028	-0.9215	-0.7335	-0.2366
-0.0861	1.7106	9.2789	-0.0117	0.1602	0.5879	-0.3971	0.3397	-0.7144	1.1686	0.1376	9.7275	0.0834	0.9291	0.0554	0.5343	-0.2342	-0.7565	7.933	5.4332	1.5857	2.5328	2.9904	-0.5435	-0.8911	-0.791	-0.2734
-0.4426	2.1744	9.5587	0.1391	0.0402	0.4297	-0.4183	0.416	-0.7131	0.83	-0.3209	9.9531	0.1481	0.743	-0.0668	0.5404	-0.2402	-0.7505	7.7642	5.0922	1.6395	2.3798	2.9591	-0.4777	-0.955	-0.8115	-0.2753
-0.3204	0.8319	9.5776	0.1417	0.2544	0.342	-0.3276	0.3737	-0.7259	0.945	0.0817	10.0157	-0.5025	0.8277	-0.2171	0.5404	-0.2342	-0.7385	7.8211	5.0353	1.6405	2.0802	2.8628	-0.1315	-0.9545	-0.792	-0.2569
-0.2675	1.5365	9.2195	0.2297	-0.0196	0.335	-0.3629	0.3564	-0.7285	0.8837	-0.1493	9.7793	-0.8692	0.574	-0.49	0.5343	-0.2221	-0.7445	7.9868	5.3193	1.415	1.8028	2.6488	-0.0635	-0.9212	-0.7143	-0.236
-0.2636	1.8254	9.4494	0.4196	0.1342	0.5205	-0.3474	0.3927	-0.7431	0.7169	0.0824	10.0699	-1.0187	0.356	-0.4878	0.5404	-0.2221	-0.7685	7.8134	5.3193	1.2401	1.6798	2.6179	-0.0293	-0.9545	-0.7735	-0.2918
-0.443	1.7082	9.5061	0.3236	0.0117	0.396	-0.3441	0.3367	-0.7281	0.6553	0.0239	9.8342	-1.263	0.1659	-0.7003	0.5404	-0.2462	-0.7625	8.2615	5.0342	0.9049	1.4953	2.4039	0.0359	-0.9366	-0.6766	-0.2529
-0.5613	1.7652	9.6201	0.5096	0.0748	0.3643	-0.3631	0.3369	-0.7459	0.9418	0.0234	9.8397	-1.5366	-0.1496	-1.0656	0.5223	-0.2281	-0.7445	8.1561	5.2621	1.3608	0.9924	2.3768	-0.1951	-0.9381	-0.7722	-0.2382
-0.3191	1.4724	9.6864	0.5409	0.1979	0.2128	-0.327	0.3353	-0.7438	1.1092	0.0796	9.6089	-1.8391	-0.3994	-1.0009	0.5223	-0.2221	-0.7565	7.6957	5.3193	1.0091	0.7304	2.3224	-0.6486	-0.9056	-0.7331	-0.2363
-0.4417	1.5324	9.5667	0.6346	0.1985	0.3039	-0.3072	0.3162	-0.7266	1.1673	0.2523	9.6694	-2.1943	-1.083	-0.964	0.5283	-0.2161	-0.7625	7.8694	5.0918	1.1838	0.3855	2.111	-0.7629	-0.9547	-0.8108	-0.2397
-0.6208	1.2401	9.6256	0.3847	0.0125	0.3337	-0.3307	0.3719	-0.7762	0.7119	-0.2065	9.7757	-2.4668	-1.4288	-1.2676	0.5223	-0.2281	-0.7445	8.1015	5.2054	1.4742	-0.0253	1.8405	-0.9986	-0.9384	-0.7729	-0.2737
-0.444	1.6506	9.4485	0.23	0.0726	0.214	-0.3443	0.3945	-0.6928	0.594	-0.2071	9.5977	-3.2256	-1.9932	-1.2598	0.5163	-0.2221	-0.7385	8.0993	5.2622	1.3598	-0.2528	1.693	-1.3309	-0.9231	-0.792	-0.2918
-0.6877	1.5364	9.2705	0.2301	0.0418	0.2748	-0.3637	0.3752	-0.7279	0.6001	-0.5509	9.8891	-3.2508	-2.1133	-0.8595	0.5223	-0.2281	-0.7385	8.269	5.7738	1.3633	-0.3276	1.4857	-1.7298	-0.954	-0.7356	-0.3084
0.0378	1.4748	9.4591	0.0126	0.0402	0.1545	-0.2889	0.3349	-0.7082	1.0537	-0.3801	9.6644	-5.3454	-2.6405	-2.0118	0.5163	-0.2522	-0.7565	8.2163	5.0347	1.5334	-0.6775	1.1852	-1.9983	-0.955	-0.8115	-0.2753
-0.3849	1.7096	9.3904	-0.1732	-0.0846	0.3079	-0.3655	0.3935	-0.7441	0.8271	-0.6093	9.7761	-4.5243	-1.9796	-1.6825	0.5283	-0.2221	-0.7445	7.5941	4.9787	1.6363	-0.8739	1.0682	-2.3314	-0.9059	-0.7523	-0.2369
-0.3224	1.5329	9.5104	-0.5457	-0.1798	0.2797	-0.3477	0.3733	-0.7605	1.1181	-0.6662	10.0157	-5.9066	-1.3519	0.7802	0.5404	-0.2161	-0.7445	7.9371	5.4903	1.8147	-1.0268	0.7929	-2.2368	-0.8912	-0.8098	-0.2562
-0.5083	1.5952	9.2145	-0.5507	-0.3623	0.0913	-0.365	0.4325	-0.7094	0.8153	-0.0942	9.1926	0.0042	-1.1119	0.1295	0.5464	-0.2402	-0.7505	7.7645	5.7747	1.6973	-1.174	0.4846	-1.9583	-0.9543	-0.7917	-0.2391
-0.4405	1.4733	9.6259	-0.4916	-0.3298	-0.2163	-0.3618	0.357	-0.7118	1.3484	-0.6664	10.0786	0.3731	-1.046	0.1577	0.5163	-0.2281	-0.7625	7.9878	5.3762	1.4722	-1.4345	0.0028	-2.3231	-0.9058	-0.7335	-0.2541
-0.0749	1.2364	9.8687	-0.2745	-0.3895	-0.0358	-0.3245	0.3754	-0.6756	1.0649	-0.4926	10.2496	-0.3133	-0.5551	0.4968	0.5343	-0.2281	-0.7505	7.3049	5.1494	1.3451	-1.6695	-0.1411	-2.9011	-0.9227	-0.7729	-0.2912
-0.3819	1.8241	9.5641	-0.211	-0.2666	-0.0646	-0.3049	0.3369	-0.6757	1.1749	-0.3788	10.018	0.1146	-0.3331	0.6159	0.5283	-0.2342	-0.7385	7.9341	5.4332	1.6429	-1.7104	-0.6241	-3.1803	-0.9388	-0.792	-0.2743
-0.0232	1.2422	9.4026	-0.3069	-0.4815	-0.0373	-0.3608	0.3576	-0.695	0.6588	-0.0903	10.0094	0.6666	-0.0772	0.9184	0.5283	-0.2281	-0.7445	7.8723	5.3194	1.3556	-2.0807	-0.8686	-3.1097	-0.922	-0.7345	-0.2899
-0.1397	1.5312	9.6304	-0.213	-0.3888	-0.0673	-0.3647	0.3746	-0.7447	1.0656	-0.2047	10.3095	0.6045	0.017	1.1333	0.5103	-0.2402	-0.7445	7.9865	5.6036	1.4152	-2.4433	-1.33	-2.7645	-0.9538	-0.7537	-0.2557
-0.3871	1.7694	9.2729	-0.2461	-0.419	-0.2213	-0.2897	0.3538	-0.7076	0.9944	-0.4956	9.5456	0.7855	0.1725	1.0392	0.5283	-0.2161	-0.7505	7.5924	5.5474	1.5795	-2.9136	-1.4189	-2.9355	-0.9213	-0.7147	-0.2538
0.042	1.4719	9.6927	-0.0908	-0.4485	-0.1008	-0.3245	0.3754	-0.6756	1.1658	-0.2083	9.5502	0.7525	0.2965	1.1001	0.5343	-0.2342	-0.7385	7.4767	5.6043	1.463	-3.3406	-1.7878	-2.6799	-0.8741	-0.7332	-0.2712
-0.3838	1.6505	9.4495	-0.2423	-0.1744	-0.2468	-0.3422	0.3184	-0.7119	1.2311	-0.3791	9.9606	0.2836	0.5376	0.9477	0.5283	-0.2402	-0.7265	7.5887	5.1491	1.3503	-3.6131	-1.9431	-2.4579	-0.9063	-0.7715	-0.2375
-0.2639	2.0005	9.4472	-0.3329	-0.207	-0.0003	-0.3608	0.3576	-0.695	0.9466	-0.2056	10.073	0.4382	0.5715	1.1003	0.5223	-0.2281	-0.7565	7.8122	5.4899	1.183	-4.1626	-2.1603	-2.1666	-0.8421	-0.7321	-0.2528
-0.2549	1.5861	9.9196	-0.6718	-0.1185	-0.0556	-0.3462	0.4128	-0.709	0.9454	-0.1483	10.0147	0.7754	0.6995	1.1897	0.5343	-0.2281	-0.7505	7.5333	5.7748	1.4642	-4.5647	-2.3739	-2.1256	-0.9222	-0.7718	-0.2378
-0.3809	1.1237	9.5729	-0.6433	-0.2403	-0.0894	-0.3441	0.3367	-0.7281	0.7684	-0.3794	9.7174	0.7095	0.8205	0.9743	0.5163	-0.2402	-0.7505	7.9193	5.6032	0.8418	-4.8583	-2.351	-1.5942	-0.9218	-0.7526	-0.2372
-0.2676	1.6533	9.218	-0.6753	-0.4247	0.0915	-0.3266	0.3743	-0.7091	0.823	-0.0924	9.6027	1.1402	0.8237	0.8488	0.5283	-0.2342	-0.7445	7.7065	5.0923	1.5813	-5.1957	-2.5659	-1.4629	-0.954	-0.7725	-0.2385
-0.1966	1.4124	9.806	-0.7038	-0.1491	-0.1174	-0.343	0.3373	-0.7113	0.9974	-0.3223	9.7221	1.0508	0.7315	1.0035	0.5404	-0.2281	-0.7505	7.3597	5.0356	1.2316	-5.2274	-2.5047	-1.4922	-0.9381	-0.7537	-0.2731
-0.6196	1.181	9.6847	-0.8316	-0.3639	-0.182	-0.3114	0.3912	-0.741	0.3669	-0.1487	9.7108	1.389	0.702	0.7866	0.5283	-0.2402	-0.7565	7.9374	5.2628	1.8145	-5.6031	-2.6552	-1.6051	-0.9068	-0.791	-0.2559
-0.1975	1.3548	9.7484	-0.6743	-0.2097	-0.1499	-0.3448	0.3556	-0.7275	0.8247	-0.4372	9.6597	1.4502	0.702	0.7248	0.5283	-0.2161	-0.7625	7.7623	4.9784	1.525	-5.3818	-2.6877	-1.4583	-0.9386	-0.7732	-0.2915
-0.0884	1.8288	9.1606	-0.923	-0.2116	-0.3005	-0.3448	0.3556	-0.7275	0.7632	0.0797	9.4852	1.9051	0.9193	0.3214	0.5283	-0.2281	-0.7565	7.9867	5.433	1.4151	-5.0302	-2.449	-1.1289	-0.9371	-0.7146	-0.2363
-0.3234	1.5337	9.452	-0.858	-0.2123	0.0062	-0.3621	0.3375	-0.7291	1.1161	-0.0914	9.9597	2.5908	0.777	0.8713	0.5283	-0.2462	-0.7445	7.7607	5.4333	1.4681	-4.7386	-2.1807	-0.7361	-0.9218	-0.7526	-0.2372
-0.3234	1.5337	9.452	-0.8855	-0.0294	0.0412	-0.3626	0.3758	-0.7112	0.8847	-0.0915	9.8381	1.8477	0.8925	0.8135	0.5343	-0.2342	-0.7445	7.537	5.32	1.6356	-4.3927	-2.2745	-0.5628	-0.9224	-0.7722	-0.2556
-0.1428	1.4751	9.456	-0.828	-0.3039	0.0653	-0.3088	0.354	-0.7254	0.7129	-0.1487	9.8345	1.4465	0.856	0.6625	0.5464	-0.2281	-0.7445	7.7144	5.377	2.0394	-3.958	-2.153	-0.5441	-0.9056	-0.7331	-0.2363
-0.2569	1.5292	9.8035	-0.7039	-0.2721	0.0644	-0.3252	0.317	-0.7276	0.8835	-0.0342	9.7798	1.2943	0.7935	0.7559	0.5343	-0.2402	-0.7385	7.8679	5.4898	1.1269	-3.5922	-1.8759	-0.7679	-0.9222	-0.7718	-0.2378
-0.1991	1.764	9.6848	-0.7654	-0.3344	0.1869	-0.3088	0.354	-0.7254	1.2265	-0.2651	9.7268	1.4174	0.8263	0.8165	0.5223	-0.2221	-0.7505	7.6503	5.4905	1.6378	-3.2441	-1.8489	-0.5323	-0.9381	-0.7537	-0.2731
-0.3159	1.4118	9.8623	-0.7363	-0.3641	0.0629	-0.3077	0.3546	-0.7087	1.052	0.0222	9.6076	1.474	1.0745	0.8454	0.5223	-0.2402	-0.7385	7.5326	5.4336	1.4067	-3.1198	-1.6967	-0.5348	-0.9382	-0.791	-0.221
-0.3856	1.4185	9.3357	-0.5491	-0.2092	0.0024	-0.3276	0.3737	-0.7259	0.8263	-0.0917	9.7784	1.284	1.2884	0.7838	0.5343	-0.2281	-0.7445	7.3609	5.7749	1.3466	-2.6219	-1.1795	-0.5148	-0.9225	-0.7725	-0.2734
-0.5079	2.0614	9.2671	-0.4877	-0.3314	0.1527	-0.3244	0.2981	-0.7282	0.8204	0.1371	9.4865	1.0624	1.5012	0.6301	0.5283	-0.2402	-0.7445	7.8824	5.5473	1.9281	-2.1313	-0.8724	-0.7114	-0.9697	-0.7725	-0.221
-0.3215	1.6489	9.5674	-0.6376	-0.1195	0.2514	-0.3603	0.3192	-0.7129	0.8233	-0.265	9.6019	0.9701	1.4687	0.5694	0.5163	-0.2342	-0.7505	7.2515	5.0359	1.5157	-1.5194	-0.7774	-0.9748	-0.9218	-0.7526	-0.2372
-0.1407	1.4736	9.5727	-0.5474	-0.1483	0.0652	-0.3258	0.3554	-0.7097	0.9969	-0.6676	9.662	1.0582	1.6545	0.5063	0.5223	-0.2402	-0.7385	7.8814	5.5472	1.8709	-1.0563	-0.5937	-1.0486	-0.9063	-0.753	-0.2725
-0.2564	1.937	9.8568	-0.4219	-0.1479	0.2481	-0.3093	0.3923	-0.7075	0.7091	-0.4948	9.5987	0.5365	1.5253	0.4794	0.5283	-0.2281	-0.7505	7.8259	5.3767	1.927	-0.7231	-0.2244	-1.3322	-0.9538	-0.7537	-0.2557
-0.0812	1.9988	9.5672	-0.6709	-0.2419	0.2185	-0.3464	0.3933	-0.7263	0.6596	0.0825	10.0688	0.3531	1.3031	0.0824	0.5464	-0.2221	-0.7445	7.5468	5.7754	2.2082	-0.1945	-0.0729	-1.2853	-0.9225	-0.7725	-0.2734
-0.1969	1.6458	9.8031	-0.7003	-0.2736	0.4027	-0.324	0.3371	-0.6935	1.2286	-0.2071	9.8442	0.1933	1.6119	0.2044	0.5343	-0.2402	-0.7505	7.8226	5.4903	1.7554	0.364	0.3229	-1.2989	-0.94	-0.8499	-0.2939
-0.1364	1.4123	9.8071	-0.6676	-0.1203	0.3441	-0.3799	0.3577	-0.7128	0.8279	-0.379	9.8357	-0.1491	1.5725	-0.3158	0.5223	-0.2161	-0.7325	7.8175	5.4333	1.4692	0.7625	0.5687	-1.4625	-0.9059	-0.7523	-0.2369
-0.082	1.8244	9.511	-0.6387	-0.2421	0.3411	-0.3621	0.3375	-0.7291	0.8831	-0.4371	9.7194	-0.5229	1.6273	-0.6519	0.5343	-0.2402	-0.7265	7.7017	5.547	1.3527	1.3456	0.7237	-1.6631	-0.922	-0.7715	-0.2201
-0.2038	1.3008	9.3987	-0.6982	-0.1822	0.4661	-0.3467	0.3739	-0.7437	0.6516	-0.3797	9.5981	-0.9224	1.5296	-0.7412	0.5223	-0.2281	-0.7385	8.1578	5.5466	1.4755	1.505	0.7216	-1.5142	-0.9384	-0.7729	-0.2737
-0.074	1.3524	9.9257	-0.544	-0.119	0.3425	-0.3059	0.3363	-0.6925	0.5399	-0.1487	9.7726	-0.8033	1.6207	-1.0497	0.5283	-0.2342	-0.7385	7.9267	5.4898	1.2424	1.8468	0.8126	-1.493	-0.9551	-0.7931	-0.3102
-0.1402	1.1234	9.5771	-0.4187	0.0046	0.3129	-0.3433	0.3178	-0.7287	1.1734	-0.149	9.9605	-0.7109	1.4945	-1.4183	0.5404	-0.2281	-0.7565	7.6542	5.6612	1.8668	2.0338	0.9035	-1.4671	-0.9064	-0.7903	-0.2204
-0.5038	1.3588	9.4511	-0.3572	-0.087	0.4332	-0.3294	0.3919	-0.7421	0.7095	-0.092	9.659	-1.3407	1.6619	-2.6447	0.5223	-0.2462	-0.7505	7.3648	5.1495	1.5178	2.2023	1.08	-1.0406	-0.9532	-0.7153	-0.2544
-0.1952	1.1782	9.8674	-0.2306	0.0975	0.4356	-0.3278	0.3542	-0.7432	1.0561	-0.4946	9.781	-2.3741	2.1709	-3.287	0.5223	-0.2342	-0.7505	7.7071	5.4335	1.6388	2.3634	1.3209	-0.8591	-0.922	-0.7345	-0.2899
-0.626	1.1854	9.3344	-0.2957	-0.0247	0.3107	-0.3454	0.3939	-0.7095	0.8828	-0.2645	9.7202	-3.1477	2.3818	-3.0379	0.5283	-0.2342	-0.7385	7.6528	5.0925	1.7519	2.4617	1.227	-0.6784	-0.9545	-0.7735	-0.2918
-0.1995	1.2395	9.633	-0.1422	-0.0228	0.2166	-0.3459	0.355	-0.7443	0.7574	-0.382	9.1316	-2.8032	2.1697	-2.9464	0.5343	-0.2221	-0.7445	7.5368	5.4337	1.6356	2.5602	1.2244	-0.497	-0.9394	-0.8304	-0.2756
-0.1997	1.4146	9.6308	-0.0817	-0.2369	0.4264	-0.3456	0.3745	-0.7269	1.1732	0.0236	9.9613	-2.8875	1.8299	-2.821	0.5223	-0.2402	-0.7505	7.7576	5.4332	1.2964	2.507	1.3118	-0.2182	-0.9061	-0.7527	-0.2547
-0.7997	1.589	9.7348	-0.138	0.1293	0.3736	-0.3438	0.3562	-0.7107	0.8271	-0.6093	9.7761	-2.9054	1.3697	-2.4187	0.5283	-0.2462	-0.7385	7.7087	5.7748	1.7535	2.2723	1.2751	0.2188	-0.9378	-0.7345	-0.2725
-0.0836	1.4174	9.3993	-0.0424	0.252	0.4673	-0.3281	0.3347	-0.7606	0.6558	-0.2636	9.8329	-2.2134	0.8543	-2.0817	0.5404	-0.2221	-0.7445	7.9343	5.2626	1.6428	2.5648	1.1773	0.6702	-0.9054	-0.7328	-0.2185
-0.0798	1.7646	9.6285	0.2026	0.2247	0.3099	-0.3623	0.318	-0.7465	1.046	-0.3819	9.2543	-1.7699	0.5563	-1.3757	0.5103	-0.2281	-0.7445	7.4246	5.2064	1.6906	2.383	1.2668	0.7992	-0.9222	-0.7349	-0.3077
-0.3232	1.3586	9.4542	0.2618	0.011	0.3968	-0.325	0.3365	-0.7103	0.8837	-0.1493	9.7793	-1.2635	0.1018	-0.9458	0.5283	-0.2342	-0.7625	7.703	5.3196	1.4098	2.5067	1.5108	0.7667	-0.9061	-0.7711	-0.2198
-0.2063	1.5941	9.2782	0.4474	0.1051	0.2734	-0.3292	0.4114	-0.7247	1.0536	-0.3226	9.6646	-0.083	-0.1607	-0.5517	0.5343	-0.2281	-0.7385	7.584	5.6039	1.1217	2.2662	1.7206	0.9907	-0.9544	-0.7732	-0.274
-0.2614	1.7072	9.5677	0.5409	0.1364	0.3037	-0.3809	0.3572	-0.7296	1.3386	-0.7262	9.5512	-0.439	-0.9406	-0.883	0.5223	-0.2281	-0.7445	7.3632	4.7513	1.4031	2.0258	1.9305	1.2147	-0.9061	-0.7711	-0.2198
-0.3786	1.7052	9.7408	0.5133	0.4116	0.187	-0.3441	0.3367	-0.7281	1.5238	-1.4713	10.1955	-3.0481	-0.4126	2.1714	0.5343	-0.2402	-0.7325	7.8145	5.2625	1.2973	1.8147	2.2326	1.377	-0.9231	-0.792	-0.2918
-0.325	1.1266	9.3404	0.7628	0.4438	0.3691	-0.3266	0.3743	-0.7091	0.814	-0.6699	9.0729	-0.3057	-1.1171	-0.0837	0.5343	-0.2402	-0.7565	7.8829	5.1492	1.9278	1.3559	2.5041	1.5466	-0.9386	-0.7917	-0.2566
-0.0889	1.421	9.1073	0.85	0.2317	0.1789	-0.3428	0.3568	-0.694	1.3431	-0.1498	9.8466	3.6664	-0.7018	0.2899	0.5223	-0.2221	-0.7385	7.3099	5.3203	1.6314	0.824	2.5065	1.3782	-0.9704	-0.7739	-0.2921
-0.0207	1.0073	9.5223	0.787	0.2008	0.1175	-0.3075	0.3741	-0.6913	0.884	-0.3218	9.7785	1.0415	-0.48	0.427	0.5524	-0.2161	-0.7445	7.7028	5.4902	1.4099	0.628	2.5417	1.0463	-0.9386	-0.7917	-0.2566
-0.1418	1.5327	9.5136	0.9119	0.2631	0.148	-0.3448	0.3556	-0.7275	0.6564	0.0242	9.8928	0.6666	-0.2995	0.3052	0.5343	-0.2342	-0.7505	7.5923	5.6042	1.5796	0.2483	2.6368	0.7819	-0.8897	-0.7143	-0.2709
-0.2554	1.1783	9.8663	0.8795	0.1711	0.1464	-0.3258	0.3554	-0.7097	0.6554	-0.0336	9.8339	0.9143	-0.3909	0.1813	0.5223	-0.2342	-0.7445	7.8138	5.035	1.2399	0.1504	2.5172	0.6302	-0.9543	-0.7917	-0.2391
-0.6844	1.4174	9.4472	0.9433	0.2324	0.2392	-0.3108	0.3528	-0.759	1.1119	-0.2649	9.7246	0.4805	-0.2393	0.3366	0.5464	-0.2342	-0.7505	7.8767	5.0921	1.5844	-0.1924	2.0915	0.6063	-0.9222	-0.7533	-0.2728
-0.6256	1.6515	9.3869	1.0012	0.0808	0.1122	-0.3639	0.3558	-0.7453	0.7133	-0.3788	9.8335	-0.2936	-0.1879	0.0643	0.5283	-0.2402	-0.7385	8.0424	5.4329	1.3589	0.1248	1.8137	0.8712	-0.9217	-0.7338	-0.2544
-0.1981	1.7633	9.7432	0.8817	0.2625	0.2099	-0.3266	0.3743	-0.7091	0.5947	0.0232	9.6574	-0.2975	0.0293	0.1552	0.5283	-0.2342	-0.7505	7.3649	5.0926	1.5178	-0.3329	1.5362	1.1285	-0.9715	-0.8314	-0.294
0.1011	1.4726	9.6354	0.7543	0.0475	0.1761	-0.327	0.3353	-0.7438	1.3955	-0.4962	9.5533	-0.3925	0.1206	0.0938	0.5343	-0.2281	-0.7385	7.7607	5.4333	1.4681	-0.4307	1.1727	1.0056	-0.9545	-0.8105	-0.2219
-0.3211	1.3571	9.571	0.694	0.1385	0.1788	-0.3462	0.4128	-0.709	0.8856	0.0238	9.8972	-0.302	0.2142	0.0927	0.5283	-0.2402	-0.7385	7.9285	4.8643	1.2991	-0.5911	0.8705	0.8543	-0.9065	-0.7534	-0.2902
-0.326	1.069	9.2827	0.4756	0.045	0.118	-0.2876	0.355	-0.6741	0.4807	-0.3216	9.6536	-0.0547	0.1858	0.0914	0.5283	-0.2342	-0.7505	7.8141	5.6037	1.2976	-0.6945	0.5096	0.5472	-0.8746	-0.7712	-0.2547
-0.1413	1.9405	9.5669	0.5395	0.0755	0.2717	-0.3647	0.3746	-0.7447	1.3464	-0.149	10.0224	-0.2047	-0.0645	-0.0599	0.5404	-0.2342	-0.7505	8.215	5.2053	1.4763	-0.2588	0.3404	-0.389	-0.9066	-0.7907	-0.2381
-0.2664	1.5358	9.2779	0.5962	-0.0141	-0.0693	-0.343	0.3373	-0.7113	0.8762	0.3668	9.4301	-0.6405	0.1163	-0.0891	0.5343	-0.2402	-0.7565	7.9255	5.6604	1.1853	0.1597	0.378	-0.8929	-0.8754	-0.7726	-0.3257
-0.0783	1.4137	9.6913	0.6276	-0.137	0.1737	-0.3626	0.3758	-0.7112	0.9403	-0.4372	9.7205	-0.5757	0.0256	0.0647	0.5464	-0.2221	-0.7445	7.7583	5.7176	1.3539	-0.1366	0.1278	-0.4251	-0.954	-0.754	-0.2734
-0.0823	1.9995	9.5088	0.4457	0.0443	0.2106	-0.3624	0.3953	-0.6938	1.0602	-0.3211	10.0161	-0.7321	0.0529	-0.1497	0.5343	-0.2342	-0.7445	7.7588	5.3195	1.3536	-0.5574	-0.0611	0.0162	-0.9057	-0.752	-0.2191
0.1445	1.4258	8.7028	0.5054	-0.0773	0.2073	-0.3613	0.3959	-0.677	0.7116	-0.034	9.7765	-0.9224	0.2348	-0.334	0.5343	-0.2342	-0.7445	7.8161	5.7176	1.4121	-0.8007	0.1501	0.1481	-0.9371	-0.7146	-0.2363
-0.0789	1.8222	9.6862	0.5087	0.1367	0.1811	-0.3428	0.3568	-0.694	0.8341	-0.1474	10.1882	-1.3859	0.1653	-0.6382	0.5283	-0.2402	-0.7325	8.1632	5.4331	1.7616	-0.8119	-0.1494	-0.192	-0.9537	-0.7348	-0.2728
0.1579	1.6498	9.459	0.4417	-0.1386	0.1145	-0.3289	0.3536	-0.76	0.8811	0.0803	9.6631	-1.8843	0.2489	-1.0659	0.5163	-0.2281	-0.7565	8.0958	5.6033	1.1883	-0.716	-0.3497	-1.0876	-0.9224	-0.7722	-0.2556
-0.2694	1.3629	9.1049	0.44	-0.138	-0.0393	-0.3613	0.3186	-0.7297	0.7724	-0.1483	9.9528	-3.2203	0.5716	-1.4595	0.5163	-0.2462	-0.7385	7.7604	5.7177	1.4683	-0.8136	-0.3779	-1.2385	-0.9383	-0.7725	-0.2559
-0.1386	1.4721	9.6895	0.5669	-0.015	0.0848	-0.3477	0.3733	-0.7605	0.9959	-0.0349	9.6648	-3.8061	0.5338	-1.548	0.5283	-0.2221	-0.7505	7.7597	5.3764	1.4108	-0.6364	-0.4188	-0.5067	-0.9374	-0.7153	-0.2719
-0.5015	1.2406	9.5693	0.6548	-0.1659	-0.1348	-0.3258	0.3554	-0.7097	1.2315	0.0812	10.0212	-3.4386	0.852	-0.999	0.5223	-0.2342	-0.7505	7.8122	5.4899	1.183	-1.1511	-0.6073	-0.0933	-0.8741	-0.7701	-0.2013
-0.0754	1.6449	9.8636	0.6875	-0.1356	-0.0116	-0.3459	0.355	-0.7443	0.7126	-0.6091	9.7739	-1.7081	0.7477	-0.8241	0.5343	-0.2281	-0.7445	7.9878	5.3762	1.4722	-1.3068	-0.607	-0.1194	-0.9378	-0.7345	-0.2725
-0.5042	1.709	9.4467	0.6847	-0.319	0.0152	-0.341	0.3385	-0.6778	0.7774	-0.4923	10.1856	-1.1861	0.9727	-0.4905	0.5283	-0.2342	-0.7565	7.7017	5.547	1.3527	-1.7306	-0.5506	0.201	-0.9222	-0.7533	-0.2728
-0.0756	1.7617	9.8621	0.6557	-0.1663	-0.0426	-0.308	0.3351	-0.726	0.6548	-0.3214	9.7741	-0.6658	1.1002	-0.648	0.5343	-0.2402	-0.7505	7.8133	5.4331	1.2402	-2.0323	-0.7373	0.4851	-0.9054	-0.7143	-0.2535
0.2204	1.4731	9.5791	0.9059	-0.042	0.0492	-0.3433	0.3178	-0.7287	0.9954	-0.4378	9.6044	-0.3874	1.0724	-0.6187	0.5343	-0.2221	-0.7505	7.8753	5.4332	1.5274	-1.9185	-0.9459	0.1727	-0.906	-0.7154	-0.3068
-0.2641	1.4176	9.3962	0.597	-0.0452	0.053	-0.3752	0.3218	-0.6637	0.8824	-0.0345	9.7212	-0.5792	1.443	-0.4661	0.5283	-0.2281	-0.7385	7.645	5.5471	1.3517	-1.8586	-0.9754	0.1093	-0.906	-0.7338	-0.2718
-0.1921	2.0507	10.09	0.6582	-0.0751	0.0516	-0.342	0.3379	-0.6945	0.711	-0.3218	9.7166	-0.3929	1.3513	-0.5589	0.5283	-0.2402	-0.7505	7.5267	5.2058	1.0631	-2.0473	-1.3094	0.0508	-0.907	-0.7914	-0.2737
-0.1385	1.4138	9.6903	0.6893	-0.0441	0.0211	-0.3618	0.357	-0.7118	0.9955	0.1951	9.6658	-0.4881	1.4422	-0.651	0.5343	-0.2281	-0.7565	7.8157	5.1488	1.3545	-2.0807	-1.2168	-0.0397	-0.9537	-0.7533	-0.2379
-0.0742	1.5275	9.9235	0.3521	-0.0486	0.2713	-0.3273	0.3931	-0.7085	0.7618	-0.3809	9.366	-0.6122	1.5351	-0.4972	0.5404	-0.2342	-0.7445	7.8177	5.2058	1.469	-2.1064	-1.3412	0.1445	-0.9225	-0.7725	-0.2734
-0.0882	1.7121	9.1621	0.4449	0.0753	0.0883	-0.3258	0.3554	-0.7097	0.8223	-0.3227	9.5431	-0.64	1.4117	-0.4349	0.5283	-0.2221	-0.7385	7.8748	5.7744	1.5277	-1.9089	-1.1638	0.5087	-0.9384	-0.7729	-0.2737
-0.5588	1.472	9.7405	0.4745	-0.0776	0.2076	-0.399	0.3579	-0.7306	0.6556	-0.1486	9.8334	-0.4869	1.5072	-0.3134	0.5283	-0.2281	-0.7445	8.2126	5.4896	1.362	-1.8711	-0.7708	0.6951	-0.9374	-0.7153	-0.2719
-0.024	1.8258	9.3953	0.5347	-0.0148	-0.0378	-0.3459	0.355	-0.7443	0.8211	-0.2655	9.4847	-0.2416	1.5716	-0.3152	0.5464	-0.2402	-0.7505	7.8753	5.4332	1.5274	-1.6519	-0.5889	0.7515	-0.954	-0.754	-0.2734
-0.079	1.939	9.6847	0.4417	-0.0156	-0.0674	-0.3479	0.3538	-0.7778	0.8829	-0.3221	9.7199	-0.3002	1.3525	-0.5287	0.5223	-0.2402	-0.7445	7.8725	5.0919	1.3555	-1.3317	-0.4719	1.0808	-0.9059	-0.7523	-0.2369
-0.0717	1.2342	10.0439	0.0114	0.0099	0.0923	-0.3462	0.4128	-0.709	0.603	-0.32	10.0659	-0.2041	1.2628	-0.3136	0.5343	-0.2342	-0.7505	7.9292	5.2056	1.3566	-0.8932	-0.0474	1.194	-0.9852	-0.7164	-0.2729
-0.1421	1.7078	9.5114	0.1947	-0.1104	0.0874	-0.342	0.3379	-0.6945	0.7681	-0.8972	9.6565	-0.3267	1.2942	-0.1287	0.5464	-0.2281	-0.7445	7.8723	5.2625	1.3556	-0.562	-0.0429	0.8769	-0.9395	-0.7934	-0.3454
-0.3163	1.7036	9.8586	0.2321	0.1025	0.3684	-0.3132	0.4094	-0.7572	0.6473	-0.4382	9.3635	1.1805	1.2416	-0.7825	0.5404	-0.2342	-0.7445	7.7575	5.4901	1.2965	-0.341	0.138	0.9946	-0.9391	-0.8112	-0.2749
-0.3239	1.8839	9.4476	0.1697	0.1636	0.2167	-0.3611	0.3381	-0.7123	0.8331	-0.2051	10.1294	1.5334	0.8181	-0.1675	0.5283	-0.2402	-0.7445	7.7021	6.0589	1.4103	-0.1434	0.3154	1.3588	-0.9383	-0.754	-0.2909
-0.4443	1.126	9.3967	0.0764	0.1015	0.2473	-0.3825	0.3949	-0.7284	0.827	-0.4942	9.7766	-0.0349	0.6802	0.0269	0.5283	-0.2221	-0.7565	7.9913	5.092	1.6437	-0.0195	0.3459	1.3554	-0.922	-0.753	-0.255
-0.3279	1.7117	9.2162	0.08	0.3153	0.2519	-0.327	0.3353	-0.7438	0.6602	-0.2626	10.0672	0.1618	0.1889	0.1823	0.5283	-0.2221	-0.7505	7.872	5.5468	1.3558	0.0139	0.5276	1.4173	-0.9549	-0.7927	-0.2924
-0.8047	1.3592	9.4458	-0.0413	0.3131	0.4686	-0.3974	0.3202	-0.7318	0.6604	-0.3776	10.0667	0.9427	-0.2666	0.2112	0.5283	-0.2221	-0.7505	7.9353	5.2627	1.7	0.1576	0.5938	1.0448	-0.8902	-0.7523	-0.2544
-0.4421	1.8242	9.5631	-0.0102	0.2518	0.5899	-0.3613	0.3186	-0.7297	1.2266	-0.3226	9.7265	1.5068	-0.5669	0.5477	0.5223	-0.2281	-0.7445	8.2716	5.319	1.4774	0.147	0.8121	0.6781	-0.9066	-0.7722	-0.2731
-0.1414	1.2409	9.5173	-0.2598	0.3119	0.2561	-0.3276	0.3737	-0.7259	0.2546	-0.2055	9.8255	1.3544	-0.7251	0.3344	0.5343	-0.2221	-0.7565	8.2677	5.1482	1.2483	0.1306	0.9722	0.1268	-0.9376	-0.7342	-0.2547
-0.0819	1.7077	9.5125	-0.1679	0.1901	0.3753	-0.383	0.356	-0.7631	0.5356	-0.2072	9.5381	1.3779	-0.4165	0.2402	0.5343	-0.2281	-0.7385	7.6421	5.3764	1.1798	0.5032	0.728	0.1751	-0.9218	-0.7526	-0.2372
-0.924	1.3587	9.5021	-0.2561	0.3411	0.5642	-0.309	0.3345	-0.7428	1.2249	0.0222	9.6695	0.7298	-0.3922	0.2439	0.5283	-0.2281	-0.7445	7.9872	5.8311	1.4726	0.4737	0.8797	0.208	-0.9224	-0.7722	-0.2556
-0.0785	1.5304	9.6899	-0.3825	0.1872	0.5317	-0.3069	0.3357	-0.7092	0.7079	0.1953	9.6018	0.4772	-0.0847	0.3357	0.5343	-0.2281	-0.7505	7.9842	5.7741	1.3009	0.4069	1.1257	0.0276	-0.8905	-0.7715	-0.255
-0.1944	2.1689	9.9717	-0.4454	0.1563	0.4703	-0.3046	0.3564	-0.6583	0.8825	-0.092	9.7209	0.5063	-0.0231	0.2737	0.5223	-0.2281	-0.7325	8.0995	5.1485	1.3597	0.5357	1.2149	0.1781	-0.9212	-0.6958	-0.2709
-0.139	1.764	9.6859	-0.5026	0.4306	0.477	-0.3278	0.3542	-0.7432	0.6609	-0.0323	10.1268	0.4171	-0.1469	0.3672	0.5343	-0.2161	-0.7445	7.9256	5.5466	1.1852	0.4739	1.2453	0.1802	-0.9535	-0.7345	-0.255
-0.0822	1.9412	9.5095	-0.6275	0.2146	0.6891	-0.3657	0.3741	-0.7615	0.9983	-0.1495	9.7815	0.8499	-0.141	0.5182	0.5223	-0.2402	-0.7565	7.7062	5.2629	1.5814	0.439	0.9118	0.0863	-0.9053	-0.6955	-0.2706
-0.5639	1.3005	9.4507	-0.6281	0.2149	0.6276	-0.2745	0.3707	-0.7395	1.2261	-0.0351	9.7278	0.8729	0.1034	0.1786	0.5283	-0.2281	-0.7565	7.5885	5.3197	1.3504	0.0597	0.7935	-0.1491	-0.9218	-0.7526	-0.2372
-0.2558	1.5285	9.8619	-0.7527	0.214	0.5369	-0.3247	0.356	-0.6929	0.8838	-0.2068	9.779	0.8412	0.1655	0.2399	0.5283	-0.2281	-0.7385	8.0504	4.8076	1.759	0.2998	0.4923	-0.3738	-0.953	-0.6965	-0.2716
-0.3821	1.1828	9.5138	-0.6214	0.5197	0.7879	-0.3467	0.3739	-0.7437	0.8284	-0.0336	9.8958	1.22	-0.2323	0.2708	0.5283	-0.2402	-0.7505	7.4723	5.8316	1.2343	0.2143	0.4279	-0.1259	-0.9063	-0.7715	-0.2375
-0.0758	1.1204	9.8118	-0.2805	0.7072	0.6032	-0.3067	0.3552	-0.6919	1.2864	0.1957	9.9057	1.5372	-0.5036	0.67	0.5283	-0.2221	-0.7385	8.2713	5.6033	1.4776	-0.0133	0.25	-0.4585	-0.9218	-0.7526	-0.2372
-0.7968	1.0039	9.859	-0.5316	0.5218	0.5101	-0.3618	0.357	-0.7118	0.7625	-0.1506	9.4256	1.4084	-0.2578	0.6386	0.5343	-0.2402	-0.7505	7.8154	5.3763	1.3547	-0.0824	0.3753	-0.7013	-0.9538	-0.7537	-0.2557
-0.2676	1.6533	9.218	-0.627	0.4605	0.3562	-0.3459	0.355	-0.7443	0.7156	-0.4358	9.9504	1.2494	-0.0751	0.5155	0.5343	-0.2402	-0.7385	7.8123	5.3762	1.183	0.1795	0.1089	-1.2336	-0.9059	-0.7523	-0.2369
-0.2607	1.2403	9.5736	-0.7871	0.0614	0.4418	-0.3827	0.3754	-0.7457	0.8225	-0.4378	9.5425	1.0265	0.1995	0.3615	0.5343	-0.2462	-0.7505	8.0477	5.3762	1.645	-0.0125	-0.0711	-1.4137	-0.9689	-0.6968	-0.2719
0.0392	1.1823	9.5212	-0.4753	0.2786	0.3811	-0.326	0.3359	-0.7271	0.7673	-0.3796	9.6589	0.5292	0.3481	0.2714	0.5283	-0.2402	-0.7385	7.9251	5.1485	1.1276	-0.2411	0.0258	-1.8055	-0.9227	-0.7913	-0.2562
-0.0793	1.3561	9.6337	-0.3807	0.3711	0.4126	-0.3067	0.3552	-0.6919	0.5476	-0.1469	10.1827	0.1514	0.6203	0.0261	0.5283	-0.2281	-0.7445	7.303	5.0356	1.2305	-0.0366	0.0316	-2.2111	-0.9063	-0.753	-0.2725
-0.2002	1.7648	9.6264	-0.2892	0.1879	0.592	-0.3085	0.3735	-0.7081	0.596	-0.0915	9.7154	-0.286	0.8308	-0.1262	0.5343	-0.2402	-0.7625	7.8098	5.7173	1.0688	-0.3767	-0.1212	-2.1714	-0.9225	-0.7725	-0.2734
0.0463	1.4106	9.9271	-0.0764	0.1607	0.312	-0.3266	0.3743	-0.7091	1.0549	-0.4374	9.7227	-0.2547	0.8635	0.0271	0.5404	-0.2281	-0.7445	7.9375	5.2059	1.8145	-0.4439	-0.332	-2.3247	-0.9213	-0.7331	-0.2188
-0.5581	1.763	9.7953	0.2572	-0.1101	0.1482	-0.3446	0.375	-0.7101	0.7109	-0.2643	9.7169	-0.1936	0.9586	0.2105	0.5343	-0.2281	-0.7385	8.1036	5.2055	1.5887	-0.4936	-0.628	-2.9094	-0.9218	-0.7526	-0.2372
0.0952	1.9431	9.3375	0.8636	-0.4683	-0.3593	-0.327	0.3353	-0.7438	0.8826	-0.1495	9.7207	-0.3552	1.1381	-0.2505	0.5404	-0.2281	-0.7565	7.9283	5.0349	1.2992	-0.0736	-0.6681	-4.3666	-0.9535	-0.753	-0.2201
-0.4458	1.4186	9.3346	1.4141	-0.6757	-0.5552	-0.326	0.3359	-0.7271	0.7194	-0.0897	10.1863	-0.6062	1.3523	-0.2196	0.5223	-0.2342	-0.7505	7.931	5.3762	1.4712	0.0166	-0.6363	-4.4612	-0.954	-0.7725	-0.2385
0.0388	1.4741	9.5175	0.9165	-0.8023	-0.6747	-0.3237	0.3566	-0.6761	0.6509	-0.61	9.5385	-0.7927	1.4437	-0.1576	0.5283	-0.2281	-0.7505	8.103	5.6605	1.589	0.4359	-0.6441	-3.9207	-0.8902	-0.7708	-0.2194
-0.2631	1.4169	9.4546	0.79	-1.0792	-0.5254	-0.326	0.3359	-0.7271	0.5987	-0.3786	9.8313	-0.8562	1.4726	-0.311	0.5283	-0.2161	-0.7505	8.2119	5.1483	1.3045	0.7557	-0.6792	-3.5925	-0.9376	-0.7342	-0.2547
-0.4929	1.9344	10.0861	0.8513	-0.9861	-0.7087	-0.3448	0.3556	-0.7275	1.1751	-0.4938	10.0175	-0.7668	1.5966	-0.3738	0.5223	-0.2402	-0.7385	8.0459	5.0918	1.5303	0.841	-0.7061	-3.8411	-0.9379	-0.7718	-0.2204
-0.14	1.0067	9.5786	1.3093	-1.1638	-0.9336	-0.3425	0.2989	-0.7293	1.2305	0.0235	9.9624	-1.1335	1.4064	-0.4627	0.5283	-0.2221	-0.7385	7.6988	5.3763	1.1809	1.2221	-0.635	-4.5587	-0.9376	-0.7526	-0.2198
-0.3247	1.6511	9.3922	0.7147	-1.6895	-0.8452	-0.309	0.3345	-0.7428	0.9958	0.0226	9.6651	-1.4101	1.3412	-0.5221	0.5223	-0.2221	-0.7505	7.7019	5.3764	1.3526	1.1302	-0.621	-5.5392	-0.9369	-0.6958	-0.2535
-0.0179	1.2969	9.6939	0.0066	-1.6976	-0.6212	-0.3289	0.3536	-0.76	1.3314	-0.3827	9.2012	-1.9016	1.2431	-0.5494	0.5283	-0.2221	-0.7385	7.8712	5.3762	1.2985	1.7177	-0.5145	-6.6007	-0.9544	-0.7732	-0.274
-0.1935	1.4686	9.9805	-0.6046	-1.5835	-0.1805	-0.3812	0.3377	-0.7469	0.8883	-0.9537	9.9514	-2.0571	1.3034	-0.5488	0.5283	-0.2402	-0.7505	7.8113	5.3761	1.1257	2.1692	-0.1122	-7.0719	-0.9225	-0.7725	-0.2734
-0.4445	1.2428	9.3952	-1.0007	-1.436	0.1044	-0.292	0.4104	-0.7059	0.539	-0.264	9.7136	-2.3368	1.3294	-0.7624	0.5283	-0.2402	-0.7325	8.2653	5.3756	1.1341	2.4593	0.2483	-6.7397	-0.9387	-0.8105	-0.2394
-0.387	1.6527	9.2743	-1.2525	-1.8365	0.2834	-0.3639	0.3558	-0.7453	0.4844	0.082	9.8897	-2.613	1.2329	-0.8524	0.5343	-0.2342	-0.7505	8.043	4.9211	1.3585	2.497	0.9157	-6.5818	-0.9545	-0.792	-0.2569
-0.1949	1.7611	9.9184	-1.3996	-1.8103	0.9317	-0.3456	0.3745	-0.7269	1.0555	-0.092	9.7828	-2.648	1.386	-0.976	0.5103	-0.2101	-0.7505	7.6414	5.0351	1.1223	2.988	1.6493	-6.8057	-0.9384	-0.8098	-0.2038
-0.073	1.41	9.9833	-0.8403	-1.5907	0.8987	-0.3448	0.3556	-0.7275	0.6529	0.1384	9.7176	-2.7396	1.3545	-0.9446	0.5223	-0.2221	-0.7325	7.6991	5.1488	1.1807	3.6479	2.3909	-7.5878	-0.9387	-0.8105	-0.2394
-0.1938	1.702	9.9776	-0.8038	-1.2544	0.9055	-0.325	0.3365	-0.7103	1.3957	0.0216	9.6142	-2.7704	1.4177	-0.7604	0.5283	-0.2402	-0.7445	7.9833	5.6035	1.2435	3.8488	3.3432	-8.2008	-0.9215	-0.7519	-0.2017
-0.1936	1.5853	9.979	-0.771	-1.0395	0.756	-0.342	0.3379	-0.6945	0.9415	-0.4944	9.7788	-2.5238	1.3567	-0.9459	0.5223	-0.2281	-0.7565	8.0444	5.4898	1.4734	4.1605	4.0129	-8.2047	-0.9218	-0.7526	-0.2372
-0.3277	1.595	9.2177	-1.0765	-0.8595	0.7945	-0.2871	0.3166	-0.692	0.2588	-0.0894	10.0603	-2.3075	1.4548	-0.6097	0.5103	-0.2342	-0.7565	7.9247	5.4329	1.1279	4.4609	4.6733	-7.5631	-0.9229	-0.7917	-0.274
-0.3811	1.9985	9.6203	-1.388	-1.0769	0.8859	-0.3062	0.3168	-0.7098	0.8848	-0.149	9.8378	-2.1569	1.6107	-0.6422	0.5283	-0.2281	-0.7565	7.8713	5.2624	1.2984	4.6981	5.2429	-6.9511	-0.954	-0.7725	-0.2385
-0.3276	1.4782	9.2192	-1.7262	-0.9887	0.8921	-0.342	0.3379	-0.6945	0.7756	-0.09	10.1288	-1.6341	1.6779	-0.6457	0.5103	-0.2281	-0.7445	8.1542	5.0914	1.2462	4.8234	5.6994	-6.9512	-0.9386	-0.8101	-0.2216
-0.1967	1.5291	9.8046	-1.8501	-0.9898	0.8629	-0.31	0.3339	-0.7596	1.1208	-0.3204	10.1929	-1.5316	1.3741	-0.1836	0.5223	-0.2342	-0.7385	8.3266	5.0913	1.3638	4.9237	5.9703	-6.7369	-0.9232	-0.8109	-0.2746
-0.3203	1.5315	9.6272	-0.8535	-0.5525	0.9521	-0.3451	0.3361	-0.7449	0.9423	-0.2641	9.8384	-0.9755	1.3176	-0.2172	0.5404	-0.2161	-0.7325	8.0438	5.0917	1.4158	5.0018	6.0542	-6.2162	-0.907	-0.7914	-0.2737
0.2126	1.7701	9.1666	-0.6317	-0.2758	1.0476	-0.3435	0.2983	-0.746	0.8292	-0.4937	9.8938	-0.7883	1.3224	0.0889	0.5343	-0.2342	-0.7505	8.3773	4.9204	1.0213	5.2037	6.1077	-5.6994	-0.8905	-0.79	-0.22
-0.5016	1.3574	9.5679	-0.4691	0.0607	1.2989	-0.326	0.3359	-0.7271	1.2283	0.023	9.8452	-0.6678	1.4153	-0.0352	0.5223	-0.2402	-0.7385	7.8175	5.3764	1.4691	5.8077	6.0396	-5.1956	-0.8908	-0.8091	-0.2207
-0.3867	1.4776	9.2765	-0.5215	0.5792	1.3723	-0.3085	0.3735	-0.7081	0.8827	-0.207	9.7204	-0.4158	1.2976	0.3327	0.5163	-0.2402	-0.7565	7.9776	5.1483	0.8997	5.8417	5.8248	-5.0755	-0.9071	-0.8102	-0.2565
0.2244	1.6453	9.8105	-0.9099	1.2464	1.5762	-0.35	0.4299	-0.7587	1.0006	-0.2065	9.8984	-0.1039	1.2101	0.5465	0.5223	-0.2281	-0.7445	8.0915	4.8638	0.9016	6.2805	5.4263	-4.8767	-0.8904	-0.7711	-0.2372
-0.1977	1.4715	9.7469	-0.5319	1.7085	1.5507	-0.3467	0.3739	-0.7437	0.997	-0.0347	9.7234	0.2399	1.029	0.6378	0.5283	-0.2221	-0.7445	8.2612	5.3185	0.9051	6.4138	4.8428	-4.5166	-0.907	-0.7914	-0.2737
-0.5631	1.5333	9.5062	-0.465	1.8608	1.7992	-0.3454	0.3939	-0.7095	0.7709	0.0815	9.8952	0.3917	1.2181	0.8509	0.5283	-0.2462	-0.7385	8.2038	4.9773	0.8466	6.7871	4.5069	-4.4383	-0.8898	-0.7701	-0.1839
-0.2544	1.2359	9.924	-0.6729	2.3165	1.8732	-0.3801	0.3383	-0.7302	1.1132	-0.3797	9.7826	0.4242	1.1253	0.8205	0.5343	-0.2462	-0.7565	8.1037	5.1487	1.5886	6.9513	4.1977	-4.1076	-0.9391	-0.8297	-0.24
-0.0765	1.6457	9.8052	-0.482	2.5929	1.969	-0.3114	0.3912	-0.741	0.6537	0.3112	9.7769	0.8949	0.7912	0.9426	0.5223	-0.2221	-0.7445	8.2634	5.2617	1.0195	7.1347	3.7273	-3.1336	-0.9382	-0.791	-0.221
0.216	1.5928	9.344	-0.1615	3.0527	2.344	-0.3621	0.3375	-0.7291	0.9407	0.0232	9.7811	1.1498	0.5184	1.2501	0.5223	-0.2281	-0.7325	8.0466	5.4331	1.5878	7.0619	3.2302	-2.4286	-0.9222	-0.7718	-0.2378
-0.144	1.5925	9.3961	-0.1533	3.5415	2.3545	-0.2905	0.3727	-0.707	0.9492	-0.4926	10.1889	1.1897	0.2128	1.5897	0.5283	-0.2221	-0.7385	7.865	5.2622	0.955	7.2109	2.8832	-1.5754	-0.9383	-0.7725	-0.2559
-0.0804	1.4152	9.5745	0.0955	3.6663	2.3234	-0.3438	0.3562	-0.7107	0.7744	-0.0328	10.0705	1.5072	-0.1217	1.8356	0.5404	-0.2281	-0.7325	7.9177	5.2051	0.727	7.3196	2.5102	-1.0286	-0.8755	-0.8098	-0.2737
-0.261	1.4154	9.5714	0.7474	3.8253	2.3801	-0.3057	0.3558	-0.6751	0.9428	0.0812	9.8985	1.7948	-0.5187	2.0514	0.5343	-0.2342	-0.7505	8.3744	5.5459	0.9073	6.8503	2.1321	-0.1264	-0.8587	-0.7708	-0.2543
-0.4458	1.4769	9.3339	0.6522	3.7946	2.1962	-0.3273	0.3931	-0.7085	0.996	-0.0925	9.6646	2.3547	-0.6974	2.1721	0.5343	-0.2342	-0.7445	7.989	5.2625	1.5294	6.3564	1.6596	0.9908	-0.8917	-0.8478	-0.2397
-0.264	1.3009	9.3976	0.6526	3.7945	2.2269	-0.3626	0.2985	-0.7638	0.5388	-0.1489	9.7141	2.9751	-0.8451	2.2308	0.5283	-0.2281	-0.7445	7.9267	5.4898	1.2424	5.848	1.0719	1.6466	-0.8907	-0.7903	-0.2378
-0.2053	1.5933	9.3366	-0.0931	3.6043	2.1091	-0.3817	0.376	-0.729	1.1165	-0.3789	9.9584	2.8513	-0.7833	2.3541	0.5464	-0.2402	-0.7565	8.1582	5.2622	1.4753	5.4014	0.4539	2.3003	-0.9072	-0.8475	-0.2044
-0.1998	1.473	9.6301	-0.7384	3.5655	2.4854	-0.3459	0.355	-0.7443	0.5974	-0.2638	9.7732	2.6666	-0.7849	2.3859	0.5283	-0.2402	-0.7445	8.0998	4.8641	1.3595	5.1964	-0.0088	2.7329	-0.9064	-0.7903	-0.2204
-0.4985	1.4135	9.7423	-1.0139	3.7155	2.4921	-0.2887	0.3544	-0.6909	0.8889	0.0246	10.0729	2.2026	-0.6327	2.6336	0.5283	-0.2221	-0.7565	8.5494	5.0909	1.1391	4.895	-0.409	3.046	-0.9542	-0.7728	-0.2563
-0.5634	1.7667	9.5033	-1.2615	3.6209	2.5855	-0.3268	0.3548	-0.7265	1.0479	-0.2089	9.3722	1.3081	-0.6106	2.6694	0.5283	-0.2402	-0.7505	7.5912	4.808	1.4645	4.6255	-0.7791	3.3891	-0.9057	-0.752	-0.2191
-0.0856	1.3605	9.2833	-1.6621	3.6165	2.6827	-0.3402	0.3196	-0.6784	0.9412	-0.2644	9.7798	1.3374	-0.517	2.7301	0.5163	-0.2402	-0.7565	8.0502	5.0351	1.7592	4.736	-1.1834	3.9971	-0.9552	-0.8304	-0.2581
-0.1969	1.6458	9.8031	-1.6873	4.0137	2.5993	-0.3608	0.3576	-0.695	0.9478	-0.2628	10.1313	1.3077	-0.5794	2.7	0.5223	-0.2342	-0.7385	8.4442	5.0914	1.5948	4.7667	-1.5635	5.0379	-0.8907	-0.7718	-0.2727
-0.3225	1.5913	9.5097	-0.9491	4.0532	2.2526	-0.3266	0.3743	-0.7091	0.9476	-0.8382	10.0702	1.3153	-0.8238	3.0087	0.5343	-0.2342	-0.7445	7.8165	5.3763	1.4119	4.4734	-1.7846	5.598	-0.9064	-0.7903	-0.2204
-0.5592	1.7638	9.7369	0.0365	4.1259	1.8728	-0.325	0.3365	-0.7103	0.7703	-0.2063	9.8354	1.6933	-0.9684	3.6526	0.5404	-0.2221	-0.7445	7.8661	5.2622	1.0122	4.4871	-1.9129	6.0575	-0.9066	-0.7907	-0.2381
0.0976	1.7082	9.4573	0.2807	3.9758	1.8357	-0.325	0.3365	-0.7103	1.1164	-0.3214	9.9586	1.8034	-0.4125	3.4643	0.5223	-0.2342	-0.7685	7.7578	5.2626	1.2963	4.4605	-2.0064	6.2111	-0.8912	-0.8283	-0.2213
-0.1998	1.473	9.6301	0.8328	3.983	1.4599	-0.3433	0.3178	-0.7287	0.8233	0.3679	9.6633	0.8808	-0.6095	3.2558	0.5163	-0.2281	-0.7505	7.6898	5.0347	0.6655	4.0586	-2.4335	6.2812	-0.9224	-0.7722	-0.2556
-0.1378	1.7049	9.745	1.295	4.0189	1.3011	-0.2508	0.3345	-0.6726	0.544	0.0249	10.0077	2.4027	-0.675	4.4764	0.5343	-0.2281	-0.7385	7.8081	5.376	0.954	3.9595	-2.6135	6.0984	-0.9216	-0.7708	-0.1845
-0.0795	1.5312	9.6315	1.507	4.0229	0.8987	-0.3634	0.3174	-0.7633	1.0605	-0.4936	10.0153	2.9781	-0.3964	3.8875	0.5163	-0.2281	-0.7505	7.5814	5.1488	0.9497	3.5091	-2.6507	6.5724	-0.9214	-0.7704	-0.1668
-0.6809	1.9398	9.6742	2.7395	4.0674	0.5459	-0.3266	0.3743	-0.7091	0.7309	-0.3746	10.7708	5.3639	-0.5477	4.9192	0.5343	-0.2342	-0.7445	7.923	5.1484	1.0132	2.8338	-3.2326	6.8338	-0.9384	-0.7913	-0.2388
-0.4934	0.7686	9.984	2.959	4.1297	0.7598	-0.3069	0.3357	-0.7092	1.3663	-1.4676	10.9537	13.5498	-2.4773	1.2873	0.5223	-0.2342	-0.7505	7.5831	5.4901	1.0644	2.6691	-3.6852	6.5586	-0.9059	-0.7523	-0.2369
-0.3881	1.7118	9.2152	2.9254	4.3151	0.2106	-0.3067	0.3552	-0.6919	1.1164	-0.3214	9.9586	24.3427	-3.3818	-1.4134	0.5283	-0.2342	-0.7385	7.9287	4.7506	1.299	1.9467	-4.0159	6.2703	-0.9386	-0.8101	-0.2216
-0.078	1.9382	9.7431	3.5111	4.3523	0.0503	-0.308	0.3351	-0.726	1.3591	-0.4912	10.6652	28.4893	-2.9468	-2.4236	0.5223	-0.2402	-0.7505	7.9279	5.3761	1.2995	0.4125	-5.0141	5.8473	-0.9234	-0.8297	-0.2575
-0.5638	2.0585	9.4996	3.1071	4.257	-0.0389	-0.2902	0.3148	-0.7423	0.5534	-0.3181	10.4748	35.9154	-4.3311	-3.1657	0.5223	-0.2582	-0.7385	8.0461	4.9781	1.5302	0.2436	-5.6476	5.4478	-0.9543	-0.7917	-0.2391
-0.0816	1.5326	9.5147	2.5777	4.1304	-0.2503	-0.3827	0.3754	-0.7457	1.0743	-0.1452	10.7784	35.926	-12.4435	-4.2852	0.5283	-0.2462	-0.7385	8.3258	4.8638	1.3064	-0.1676	-6.0398	5.2112	-0.9074	-0.8293	-0.2571
-0.1385	1.4138	9.6903	3.1916	3.9845	-0.3842	-0.3276	0.3737	-0.7259	0.6113	-0.0304	10.5358	34.6832	-11.8646	-3.8511	0.5223	-0.2582	-0.7325	7.5849	5.7177	1.179	-0.9662	-6.4393	5.4777	-0.9067	-0.8095	-0.221
-0.44	1.8227	9.6799	3.0338	3.9227	-0.5988	-0.3454	0.3939	-0.7095	1.0155	0.0847	10.7198	38.3811	-11.8616	-4.2723	0.5283	-0.2582	-0.7265	8.0413	5.4328	1.3016	-0.8292	-6.7197	5.9322	-0.9712	-0.8495	-0.2413
-0.0783	1.4137	9.6913	2.752	3.7677	-0.7217	-0.2889	0.3349	-0.7082	0.547	0.1982	10.1843	47.3786	-9.1173	-1.791	0.5163	-0.2582	-0.7505	8.1445	5.3754	0.7314	-0.7929	-6.8136	6.1148	-0.938	-0.7906	-0.2032
-0.3166	1.1791	9.8068	3.1588	4.0465	-0.6592	-0.3051	0.3174	-0.6931	0.2116	0.4444	13.6924	12.5579	-30.0655	-7.8842	0.5223	-0.2582	-0.7325	7.6935	5.4898	0.8948	-0.7612	-6.5701	6.1158	-0.9389	-0.8108	-0.2572
-0.5564	1.237	9.8603	3.5889	3.9288	-0.6979	-0.2915	0.3721	-0.7238	0.5571	0.0855	10.711	30.9318	-39.9865	-4.307	0.5283	-0.2522	-0.7325	8.1463	5.603	0.846	-1.4831	-6.4728	7.8281	-0.954	-0.7725	-0.2385
-0.0841	1.7675	9.3949	3.2227	4.2923	-0.8392	-0.3438	0.3562	-0.7107	1.4179	-0.0882	10.7853	25.7407	-44.5417	-6.1853	0.4983	-0.2522	-0.7445	8.3226	5.7736	1.1926	-1.8116	-6.554	9.2508	-0.8907	-0.7903	-0.2378
-0.2026	1.1833	9.4586	3.8974	4.1473	-1.0661	-0.2918	0.3526	-0.7412	0.3371	0.5483	11.2359	24.1504	-49.9827	-7.5264	0.4983	-0.2582	-0.7385	8.0383	5.3758	1.1299	-1.5412	-5.8491	8.9103	-0.9225	-0.791	-0.2385
-0.2085	1.6539	9.1607	4.3591	4.0912	-1.1346	-0.3069	0.3357	-0.7092	0.6376	0.7237	12.0037	30.3161	-55.0057	-5.7812	0.5043	-0.2462	-0.7445	8.0382	5.4327	1.1299	-2.4369	-5.4702	7.9569	-0.9707	-0.8115	-0.2578
-0.2632	1.5336	9.4531	4.4511	4.1539	-1.2882	-0.3438	0.3562	-0.7107	1.0364	0.0896	11.8328	34.4031	-60.1298	-5.9283	0.5103	-0.2462	-0.7325	7.8622	5.8877	0.841	-3.3352	-4.7389	7.8974	-0.938	-0.7906	-0.2032
-0.2579	1.4716	9.7458	5.0286	3.7331	-1.5199	-0.2889	0.3349	-0.7082	1.3635	0.2002	10.9612	31.069	-63.3624	-7.303	0.5103	-0.2702	-0.7505	8.035	5.4895	0.9583	-3.9616	-3.4253	7.5579	-0.9543	-0.7917	-0.2391
-0.3799	1.881	9.6802	6.5366	3.6892	-1.9703	-0.3441	0.3367	-0.7281	1.4126	0.4859	10.5535	33.4132	-66.2134	-7.1769	0.4923	-0.2582	-0.7565	7.812	5.6036	1.1831	-5.2386	-2.5993	7.2647	-0.9377	-0.753	-0.2376
-0.5661	1.4187	9.3325	6.0737	3.8074	-2.1157	-0.2918	0.3526	-0.7412	1.2452	-0.2607	10.7226	32.9672	-68.7943	-8.1729	0.4863	-0.2762	-0.7505	7.9168	5.0913	0.6697	-5.5191	-1.6987	8.1407	-0.9858	-0.7916	-0.2042
-0.1999	1.5313	9.6294	6.4437	3.8729	-2.2727	-0.3252	0.317	-0.7276	2.0926	-0.265	10.0948	33.2513	-71.5712	-11.0465	0.4863	-0.2762	-0.7385	7.8153	5.49	1.3547	-5.9091	-1.0486	9.5096	-0.9381	-0.7722	-0.2382
-0.3224	1.5329	9.5104	7.9903	4.1337	-2.471	-0.343	0.3373	-0.7113	1.8809	0.4299	11.0893	33.4316	-71.5119	-11.5088	0.4623	-0.2822	-0.7505	7.7024	5.0352	1.3523	-6.1336	-0.5415	10.227	-0.9384	-0.7913	-0.2388
-0.1385	1.4138	9.6903	9.1482	4.908	-2.2535	-0.3252	0.317	-0.7276	2.0905	0.3098	10.0388	39.9257	-72.5972	-12.3087	0.4743	-0.2762	-0.7445	8.2136	4.6365	1.3614	-7.2718	-0.6222	9.4923	-0.9538	-0.7537	-0.2557
-0.685	1.8843	9.4413	11.1975	5.0165	-1.4157	-0.2887	0.3544	-0.6909	2.2022	0.0788	9.8642	40.0848	-73.3199	-13.688	0.4683	-0.2882	-0.7445	8.3931	4.7504	1.8797	-6.787	-0.3733	9.111	-0.9067	-0.8279	-0.186
-0.3827	1.6497	9.5079	14.7633	5.6312	-1.0781	-0.2863	0.2977	-0.6926	2.7807	0.0216	10.1678	41.8725	-73.9698	-15.6612	0.4683	-0.3002	-0.7385	7.9945	5.0352	1.8154	-5.7141	-0.1546	8.712	-0.9215	-0.7519	-0.2017
-0.3247	1.7095	9.3914	16.2019	6.5917	-0.8908	-0.2871	0.3166	-0.692	2.6015	0.423	9.8149	41.1609	-73.4157	-18.4258	0.4743	-0.2882	-0.7325	7.6008	5.4908	2.0374	-4.7565	0.0905	8.5931	-0.9538	-0.7537	-0.2557
-0.3778	1.1799	9.7474	17.2956	7.2741	-0.7667	-0.3247	0.2787	-0.7456	2.7827	0.1372	10.2855	43.9942	-72.7636	-21.2117	0.4563	-0.2942	-0.7505	8.2802	5.0918	1.9351	-3.627	0.3887	9.0226	-0.9525	-0.6955	-0.2183
-0.1342	1.4108	9.9239	16.8799	8.1549	-0.5579	-0.2513	0.2956	-0.7073	2.9972	-0.2694	9.468	47.3057	-71.5859	-24.5259	0.4383	-0.2882	-0.7385	7.7188	5.2634	2.2682	-2.5028	0.5065	9.2972	-0.9061	-0.7711	-0.2198
-0.4366	1.7038	9.8565	16.8228	9.9848	-0.0561	-0.3291	0.3341	-0.7774	2.8406	-0.208	10.2851	47.5862	-68.139	-26.6067	0.4383	-0.3062	-0.7445	8.1078	5.2057	1.8176	-1.409	0.4717	9.6022	-0.9369	-0.7143	-0.2186
1.8763	2.9823	14.7259	9.6874	9.9787	5.7228	-0.2358	0.3319	-0.7219	3.0665	0.4237	10.1751	59.7507	-64.8101	-27.8962	0.4323	-0.3182	-0.7385	8.2811	6.1156	2.0503	0.1584	0.4471	9.1864	-0.9381	-0.7537	-0.2731
-0.8725	1.5395	9.0337	13.6469	17.1877	0.9088	-0.3453	0.3166	-0.7622	4.0889	0.4775	9.7266	66.258	-62.3439	-29.2395	0.4263	-0.3182	-0.7325	7.7663	5.9454	1.8119	1.2573	0.2415	8.6602	-0.9856	-0.7728	-0.2214
-0.5009	2.3481	9.6722	15.0391	16.6603	-0.9654	-0.3054	0.2979	-0.7104	3.1049	0.5343	9.1809	68.0874	-57.641	-30.9989	0.4263	-0.3302	-0.7325	7.5347	5.4905	1.5212	2.2719	0.1232	8.4138	-0.9856	-0.7728	-0.2214
-0.1428	2.2331	9.5048	11.7196	17.7271	-1.0851	-0.3433	0.3178	-0.7287	2.501	0.5991	10.575	72.6893	-50.5705	-30.6685	0.4383	-0.3182	-0.7385	7.6503	5.4336	1.6377	2.6642	-0.1461	8.0927	-0.9213	-0.7331	-0.2188
-0.3211	2.1735	9.6192	11.3671	17.5136	-1.9464	-0.2696	0.2769	-0.7257	3.2485	1.6341	10.8283	86.6595	-49.1897	-27.3481	0.4203	-0.3182	-0.7265	7.7599	5.2058	1.4107	3.0685	-0.7564	8.1986	-0.9537	-0.7533	-0.2379
-0.5003	1.9395	9.6773	11.8097	18.498	-2.5149	-0.3072	0.3162	-0.7266	3.337	1.3976	9.4235	92.2587	-45.1945	-26.2679	0.4143	-0.3362	-0.7205	7.9876	5.5468	1.4724	2.9613	-1.4507	7.7968	-0.9222	-0.7718	-0.2378
-0.4236	2.9775	10.658	10.6279	20.5371	-3.5322	-0.303	0.2413	-0.7122	3.1607	0.764	9.1245	93.4302	-38.2321	-27.0844	0.4323	-0.3362	-0.7085	7.7656	5.7179	1.7545	3.0561	-2.6257	6.9549	-0.9374	-0.7338	-0.2369
-0.7403	2.1726	9.7286	10.4712	26.5257	-4.323	-0.3247	0.2787	-0.7456	0.9876	-0.3381	6.1498	91.2418	-30.0385	-28.1343	0.4203	-0.3602	-0.7145	7.5964	5.6613	1.8086	3.3075	-3.8319	6.1696	-0.9057	-0.752	-0.2191
-0.6727	2.1673	10.1384	5.1075	29.2834	-4.6879	-0.2933	0.313	-0.7927	-1.8682	-3.0049	0.2271	51.2592	-9.9868	-29.1866	0.4143	-0.3542	-0.7265	7.7564	5.5469	1.2393	3.9662	-5.0097	5.5259	-0.9379	-0.7533	-0.2553
-0.6707	2.2242	10.2545	5.7226	32.8631	-4.6795	-0.2544	0.2938	-0.7576	-1.6116	-2.2949	4.8027	-16.1881	7.4299	-20.7213	0.4203	-0.3482	-0.7145	7.5852	5.4902	1.1789	4.5394	-5.5975	4.0599	-0.9858	-0.7732	-0.2391
-1.091	1.5245	10.2559	7.5915	35.5381	-4.4604	-0.3093	0.315	-0.7602	-2.4644	-1.6454	8.2442	-41.3679	24.3767	-16.1268	0.4083	-0.3542	-0.7145	8.2133	5.7171	1.4194	4.2569	-5.9311	3.9735	-0.9367	-0.7139	-0.2008
-0.6085	2.2811	10.3716	10.3338	38.4027	-3.7253	-0.2734	0.294	-0.7755	-2.9554	-0.6032	9.6449	-26.314	38.4985	-4.008	0.4143	-0.3482	-0.7085	8.2164	5.7741	1.5912	3.8071	-5.7856	4.449	-0.9856	-0.7728	-0.2214
-0.9732	1.8176	10.1375	12.8176	40.6852	-3.1534	-0.3082	0.2383	-0.7961	-2.2201	-1.4697	9.0695	-13.0206	41.2862	8.2198	0.4203	-0.3482	-0.7085	8.0393	5.3759	1.1871	3.3041	-5.508	4.1897	-0.9531	-0.7523	-0.1846
-1.35	2.4703	9.3055	15.4973	41.8096	-2.7014	-0.3121	0.3327	-0.7931	-1.9082	-1.5353	7.377	-16.613	39.8932	18.4519	0.4443	-0.3362	-0.7025	8.4953	5.4892	1.31	2.6455	-4.606	2.8339	-0.9536	-0.7718	-0.2029
-0.9197	2.0553	9.7853	16.485	41.9122	-2.9268	-0.3249	0.2592	-0.763	-1.7371	-2.3988	7.2593	-28.6703	36.9053	26.162	0.4323	-0.3362	-0.7025	8.4975	5.3755	1.4244	1.9132	-3.8654	2.1243	-0.9692	-0.753	-0.2027
-0.9888	2.4115	9.3126	13.8933	41.7309	-2.3754	-0.2538	0.2554	-0.7756	-1.6162	-2.2249	7.6137	-46.6998	33.7946	30.6504	0.4383	-0.3422	-0.7085	8.2622	5.3186	0.9623	0.9297	-3.0622	1.2997	-0.9058	-0.7335	-0.2541
-1.4754	1.5411	8.9647	13.0706	40.9621	-3.0276	-0.3098	0.2761	-0.7949	-1.5503	-2.0504	8.0842	-58.4414	33.4631	34.4707	0.4443	-0.3362	-0.6904	7.9813	5.5465	1.129	-0.3645	-1.9844	0.4252	-0.937	-0.7516	-0.1665
-1.0493	1.887	9.2597	11.8593	40.3375	-2.6876	-0.2714	0.2952	-0.7419	-1.3059	-1.9321	8.9093	-64.5622	35.6647	38.489	0.4383	-0.3362	-0.6965	8.1507	5.4325	1.0748	-0.8387	-1.5228	0.0744	-0.9371	-0.7146	-0.2363
-2.0146	2.0065	9.1245	11.3807	39.2627	-2.4589	-0.2376	0.2729	-0.7907	-1.7553	-2.0443	9.3686	-68.7443	38.136	42.7708	0.4563	-0.3302	-0.6904	7.6953	4.8074	0.9515	-1.627	-1.3031	-0.3919	-0.9538	-0.7537	-0.2557
-0.8755	2.183	8.9089	11.1894	38.7097	-2.161	-0.2721	0.2367	-0.794	-1.4737	-1.7582	9.1411	-67.8192	41.2195	47.388	0.4443	-0.3242	-0.7025	8.2051	4.8068	0.9037	-2.8789	-1.4496	-0.7858	-0.9379	-0.7718	-0.2204
-1.3567	2.7082	8.9522	11.2058	37.5473	-1.7251	-0.2711	0.2373	-0.7772	-1.5874	-1.6428	9.198	-69.0503	45.2913	50.967	0.4503	-0.3182	-0.6965	7.8147	5.1488	1.2972	-3.7291	-1.8249	-2.2076	-0.9524	-0.7139	-0.1833
-1.7816	2.2447	8.7171	11.2471	36.1109	-1.4185	-0.2368	0.254	-0.7913	-1.6543	-1.8175	8.6689	-72.3291	49.4522	53.113	0.4623	-0.3182	-0.6904	8.0966	4.9777	1.1879	-4.8788	-2.282	-4.2972	-0.9533	-0.7526	-0.2023
-1.4248	2.3056	8.4891	10.1142	34.6935	-1.1889	-0.2162	0.2161	-0.7747	-0.9048	-1.9903	8.9167	-78.2808	53.9384	53.3364	0.4623	-0.3242	-0.6844	8.099	4.6935	1.3021	-5.9145	-2.5661	-5.7127	-0.9536	-0.7718	-0.2029
-2.0226	2.4785	8.7099	7.8855	32.8715	-1.7233	-0.1992	0.2147	-0.7904	-0.6231	-1.7617	8.689	-84.4606	55.6899	52.3479	0.4743	-0.3242	-0.6904	7.692	4.9779	0.7799	-6.6059	-3.2015	-5.9736	-0.9374	-0.7338	-0.2369
-1.5976	2.0672	8.8976	5.3502	31.3837	-2.5541	-0.2737	0.2745	-0.7928	-0.4997	-1.7599	9.1598	-91.4281	57.951	50.5313	0.4803	-0.3002	-0.6904	8.2657	5.0344	1.1338	-7.0753	-3.5955	-6.0857	-0.9706	-0.8112	-0.24
-2.0803	2.1853	8.8293	3.436	30.0238	-3.2669	-0.2739	0.255	-0.8102	-0.8302	-1.8137	9.8559	-95.397	59.8414	48.7607	0.4863	-0.2942	-0.6724	7.8666	4.8073	1.0119	-7.7476	-3.7987	-6.7739	-0.9533	-0.7526	-0.2023
-2.0793	2.2429	8.887	2.2194	29.6475	-3.8134	-0.2203	0.2137	-0.8418	-0.5883	-1.5234	10.5646	-96.6865	62.0744	47.6178	0.4863	-0.2882	-0.6544	8.0982	4.5228	1.2447	-7.8413	-4.0726	-6.7733	-0.9853	-0.7536	-0.2208
-1.5272	2.3516	9.479	2.0269	29.4333	-4.1539	-0.2033	0.2896	-0.8049	-0.9305	-1.1198	10.6769	-95.4707	64.1221	47.0452	0.4863	-0.2882	-0.6664	8.0347	4.9207	0.9006	-7.9003	-4.0436	-6.6791	-0.9375	-0.7711	-0.1848
-2.0078	2.4683	9.5275	3.5683	29.0504	-3.8433	-0.2219	0.2514	-0.8406	-0.6482	-1.2363	10.4476	-93.7831	67.1321	46.3719	0.5043	-0.2822	-0.6664	7.9317	4.8076	1.4708	-7.9575	-4.3505	-6.4955	-0.9538	-0.7906	-0.1858
-2.0792	2.1846	8.8877	4.7794	29.2136	-3.4859	-0.2397	0.2717	-0.8243	-0.2335	-0.831	11.2186	-93.1498	70.4723	45.7951	0.5043	-0.2822	-0.6364	7.8236	4.6373	1.7547	-8.0381	-4.9209	-7.0508	-1.0019	-0.7923	-0.2223
-2.4448	2.3631	8.6455	5.0941	29.4296	-3.2699	-0.2355	0.2741	-0.7572	-0.174	-0.8306	11.3369	-93.7597	74.4217	45.5907	0.5283	-0.2882	-0.6424	8.1	4.7504	1.3594	-7.6752	-5.5423	-8.2958	-0.9692	-0.7714	-0.1677
-2.1911	2.1789	9.3528	4.4427	29.6088	-3.8114	-0.2381	0.234	-0.8255	-1.1422	-1.0577	11.6101	-94.2411	78.7284	47.0739	0.5283	-0.2702	-0.6184	8.0418	5.0916	1.3014	-7.5507	-6.5482	-8.1846	-0.954	-0.7725	-0.2385
-2.255	2.5313	9.1721	3.9811	29.9417	-4.1674	-0.2737	0.2745	-0.7928	-0.5715	-1.0017	11.5042	-94.367	82.6152	49.5411	0.5584	-0.2582	-0.6064	7.6494	4.4667	1.5225	-7.4213	-7.1603	-7.9476	-0.954	-0.7725	-0.2385
-2.4847	2.1741	9.7563	4.5788	30.4968	-4.0091	-0.2365	0.1962	-0.8266	-1.0256	-0.9424	11.7299	-93.2824	86.5251	53.1382	0.5524	-0.2702	-0.6064	8.0454	4.6937	1.4728	-7.451	-7.679	-7.8586	-0.9853	-0.7721	-0.1858
-2.0703	1.8285	9.3593	5.2685	31.053	-3.9134	-0.1858	0.2499	-0.8386	-0.9622	-0.5958	12.0841	-92.8335	90.2526	57.7545	0.5644	-0.2462	-0.5764	7.5369	4.5238	1.5777	-6.8877	-7.834	-7.6616	-1.0017	-0.792	-0.2045
-2.13	2.2364	9.4115	6.4308	32.2253	-3.9026	-0.1662	0.2113	-0.8387	-1.1913	-0.653	12.0794	-90.9249	95.0181	62.6635	0.5704	-0.2522	-0.5884	7.9954	4.2959	1.8148	-5.3963	-7.8969	-7.5224	-0.9538	-0.7721	-0.2207
-2.6083	2.2349	9.5782	7.7463	33.2458	-3.774	-0.2182	0.2149	-0.8083	-0.905	-0.5959	12.0852	-87.873	99.7036	67.6893	0.5644	-0.2462	-0.5524	8.1635	4.3525	1.7035	-4.0835	-7.4307	-8.2032	-0.9213	-0.7331	-0.2188
-2.1344	2.3561	9.1764	8.7843	34.1403	-3.3986	-0.1631	0.2131	-0.7884	-0.378	-0.7668	12.6801	-83.7816	101.7046	72.1411	0.5584	-0.2642	-0.5584	8.3871	4.5796	1.5362	-3.0583	-6.869	-9.182	-0.9379	-0.7903	-0.1855
-2.5602	2.593	8.9325	8.7915	34.3527	-3.0557	-0.1286	0.2493	-0.7851	-0.4446	-0.4812	12.2117	-77.6579	102.0799	75.7607	0.5704	-0.2702	-0.5283	8.4385	4.693	1.2511	-1.4321	-6.4044	-9.7494	-0.986	-0.792	-0.222
-2.5502	2.2363	9.4625	8.359	34.5021	-3.2931	-0.1652	0.2119	-0.8219	0.8089	-1.5781	11.7623	-67.2621	103.2061	75.693	0.5464	-0.2762	-0.5283	8.1085	4.637	1.8171	-0.4145	-5.884	-9.96	-0.953	-0.7334	-0.2017
-2.6224	2.4779	8.8161	8.1067	34.1326	-3.2057	-0.183	0.2322	-0.8056	1.6408	-2.2189	10.2529	-72.0583	104.6108	69.2578	0.5764	-0.2522	-0.4923	7.7065	5.0923	1.5813	0.9929	-5.2197	-9.5973	-0.9699	-0.7913	-0.2039
-2.3135	2.1221	9.2346	7.9269	34.067	-2.5898	-0.1641	0.2125	-0.8052	1.7641	-2.8499	10.6623	-83.6007	104.9029	60.3793	0.5824	-0.2762	-0.4983	8.0532	4.2959	1.8731	2.5632	-4.9408	-9.9494	-0.9538	-0.7721	-0.2207
-2.2051	2.3635	8.5914	7.9582	33.7596	-2.074	-0.2175	0.196	-0.8088	1.6054	-2.1561	11.4237	-89.4868	105.0506	52.9748	0.5764	-0.2882	-0.4803	8.8445	4.3517	1.716	3.1822	-4.6822	-11.0106	-0.9528	-0.7331	-0.1839
-2.8011	2.7101	8.9268	8.2077	33.7303	-1.801	-0.1139	0.2272	-0.8518	1.6144	-1.6362	11.9532	-88.6425	103.9874	47.536	0.5704	-0.2942	-0.4623	7.6476	4.2392	1.4079	3.7662	-4.5276	-11.1805	-0.922	-0.7899	-0.1851
-2.9824	2.4776	8.8682	8.2104	33.6369	-1.4032	-0.1479	0.1527	-0.873	1.3896	-1.5772	12.1834	-87.3789	102.5395	43.4495	0.5524	-0.3122	-0.4443	8.1629	4.8075	1.7039	4.558	-4.5212	-11.6344	-0.9695	-0.7721	-0.2033
-2.9792	2.417	9.0441	8.5133	33.458	-1.6877	-0.1495	0.2678	-0.8191	2.1303	-1.1192	12.024	-84.3029	101.5787	39.872	0.5524	-0.3002	-0.4443	8.1087	4.4664	1.817	5.1634	-4.4231	-12.1126	-0.938	-0.7906	-0.2032
-2.8021	2.6524	8.8691	8.676	33.6407	-1.1937	-0.145	0.135	-0.84	2.8196	-1.5227	12.094	-80.0936	99.4212	36.0184	0.5404	-0.3182	-0.4383	8.1602	4.4661	1.5319	6.5947	-4.5029	-12.9243	-0.9375	-0.7711	-0.1848
-3.0436	2.42	8.8094	8.9221	33.4283	-0.9554	-0.1646	0.1735	-0.8399	2.3542	-1.2359	11.735	-72.7956	96.8907	31.8723	0.5404	-0.3302	-0.4503	8.4454	4.1815	1.5941	8.6501	-4.5093	-14.6146	-0.9379	-0.7718	-0.2204
-3.0363	2.5316	9.2168	9.1647	33.0636	-0.8126	-0.0752	0.1885	-0.8341	3.4291	-1.5861	10.9928	-68.8573	94.262	27.5315	0.5404	-0.3302	-0.4323	7.994	4.5802	1.7578	10.8142	-4.2647	-16.8284	-0.9858	-0.7732	-0.2391
-3.4723	2.4257	8.3932	8.8873	32.7837	-0.3231	-0.1129	0.2278	-0.835	4.0464	-1.1299	10.3626	-68.8247	91.4138	23.8297	0.5223	-0.3302	-0.4563	8.1645	4.3525	1.7607	12.7287	-4.0338	-18.0824	-0.9389	-0.8293	-0.2222
-3.0435	2.3617	8.8102	9.3732	32.3308	-0.4005	-0.1275	0.1726	-0.821	4.5606	-0.901	10.315	-69.2288	86.0289	20.4529	0.5043	-0.3362	-0.4383	8.6176	4.2382	1.7118	14.4873	-3.6036	-18.3774	-0.937	-0.7516	-0.1665
-2.9869	2.6556	8.6324	9.1539	32.1453	-0.4018	-0.0755	0.169	-0.8515	4.5153	-0.8406	10.9585	-68.0515	77.7654	18.2825	0.5103	-0.3542	-0.4563	8.3314	4.5228	1.5923	15.9043	-2.8987	-18.7214	-0.9218	-0.7896	-0.1674
-2.9924	2.8344	8.3382	9.1893	32.4513	-0.4571	-0.0917	0.2288	-0.7837	4.9083	-0.613	10.5572	-64.9558	66.5604	16.8559	0.5043	-0.3422	-0.4563	8.8487	4.295	1.9449	16.1454	-2.286	-19.0003	-1.0008	-0.7533	-0.1855
-3.7038	2.6529	8.9117	8.61	32.7806	-0.2582	-0.0964	0.1875	-0.8855	5.2491	-0.154	10.4487	-63.1704	53.1769	15.3886	0.4923	-0.3542	-0.4623	8.7261	4.0672	1.4275	17.3197	-1.7824	-20.1684	-0.9697	-0.791	-0.1861
-3.1723	2.3093	8.3416	9.2975	33.307	-0.3169	-0.0943	0.1887	-0.8519	5.5874	-0.2134	10.1622	-57.3443	40.4976	12.1109	0.4983	-0.3722	-0.4743	8.6663	4.0672	1.2548	19.3573	-1.8109	-22.4422	-0.9536	-0.7903	-0.168
-3.0968	2.7068	9.2135	7.6324	33.658	-0.5959	-0.077	0.2068	-0.8503	5.4775	-0.3847	10.3935	-49.4558	30.4245	7.5765	0.4803	-0.3602	-0.4863	8.2145	4.7503	1.4187	20.4287	-1.8208	-23.888	-0.9062	-0.8084	-0.1677
-3.4675	2.7723	8.6808	6.8986	34.2933	-0.8805	-0.1281	0.2109	-0.8031	5.1806	-0.7319	9.8006	-44.3892	23.2079	0.8292	0.4863	-0.3782	-0.4863	8.3834	4.1813	1.3069	19.846	-1.8381	-22.6722	-0.9211	-0.7512	-0.1661
-3.777	2.8952	8.2069	5.1748	35.1038	-1.5793	-0.1113	0.1901	-0.8362	4.8305	-0.9054	9.4418	-40.098	17.3035	-6.9045	0.4743	-0.3722	-0.4983	8.6124	4.2949	1.4256	19.7112	-1.7705	-21.0082	-0.9238	-0.9046	-0.171
-3.2822	2.4189	8.922	3.9438	36.1044	-2.7108	-0.0755	0.169	-0.8515	3.7334	-1.0781	8.9515	-35.7598	12.2384	-14.2131	0.4683	-0.3782	-0.5223	8.6131	4.5224	1.483	19.4336	-1.7551	-19.9549	-0.9223	-0.8091	-0.1858
-3.213	2.7624	9.4442	2.9649	37.4437	-3.8997	-0.0742	0.1891	-0.8173	3.2146	-1.1356	8.7655	-32.4292	8.9783	-19.2217	0.4743	-0.3482	-0.5163	8.7245	4.579	1.3707	19.6891	-1.3625	-19.7443	-0.8901	-0.8077	-0.1496
