1757_acc_x	1757_acc_y	1757_acc_z	1757_gyro_x	1757_gyro_y	1757_gyro_z	1757_mag_x	1757_mag_y	1757_mag_z	1758_acc_x	1758_acc_y	1758_acc_z	1758_gyro_x	1758_gyro_y	1758_gyro_z	1758_mag_x	1758_mag_y	1758_mag_z	1759_acc_x	1759_acc_y	1759_acc_z	1759_gyro_x	1759_gyro_y	1759_gyro_z	1759_mag_x	1759_mag_y	1759_mag_z
-0.912527	1.301814	9.947862	-6.233561	60.78407	-4.759707	0.086595	0.309856	-1.326474	1.910674	1.620196	10.228879	6.20201	-3.042301	-1.001483	0.219685	-0.333731	-1.292793	10.664385	1.568566	-0.331298	-17.088579	-1.584493	8.331895	-0.572519	-0.142565	-0.346436
-0.954358	1.534999	10.743657	-11.178971	63.707639	-4.452595	-0.086624	-0.105046	-0.782629	1.789499	1.620174	9.943263	5.812596	-2.096165	-1.084872	-0.059034	0.168752	-0.891638	10.310984	1.743852	-0.277252	-16.874215	-0.339025	6.277342	-0.490293	-0.387865	0.038373
-0.956502	1.419633	10.629468	-12.629266	66.988571	-4.425751	-0.114451	-0.152667	-0.743532	1.902535	1.450872	9.832259	4.706044	-1.651504	-0.896373	-0.071199	0.156572	-0.933408	10.246465	1.742751	-0.577887	-16.940514	0.352635	4.44043	-0.504622	-0.401783	-0.007444
-0.728432	1.18946	10.576104	-13.16259	70.030746	-4.650779	-0.072461	-0.157319	-0.730503	1.894636	1.788571	9.492706	4.092303	-1.351484	-1.078852	-0.032642	0.140405	-0.918881	9.655224	2.208709	-0.586913	-17.927234	1.249739	3.125479	-0.504968	-0.434994	0.009758
-1.181848	0.96099	10.793643	-11.75991	73.161205	-3.7452	-0.058698	-0.178521	-0.699285	1.846202	2.07071	9.944851	2.146113	-1.375574	-1.173141	-0.059259	0.122791	-0.888627	10.131484	2.32477	-0.337988	-18.447465	1.954571	2.818364	-0.491064	-0.416119	-0.037592
-0.887947	1.192238	11.198147	-8.552088	76.528329	-4.006379	-0.057983	-0.136866	-0.76242	2.132928	2.013794	9.894209	0.234232	-1.123688	-1.203003	-0.020407	0.107695	-0.88845	9.650977	2.6145	-0.764903	-18.423689	1.65761	1.963918	-0.504622	-0.401783	-0.007444
-1.237989	0.961273	10.849382	-3.779989	80.212009	-4.450927	-0.058369	-0.123095	-0.765836	1.957706	2.070353	9.77735	-0.498107	-0.426994	-1.319977	-0.033012	0.124013	-0.903528	9.488329	1.630332	-0.113432	-18.175114	1.561684	2.45249	-0.490643	-0.402405	0.008154
-1.469233	0.960956	10.731222	-0.081754	83.612049	-4.712982	-0.015993	-0.141518	-0.749392	1.841798	1.845199	9.718103	-0.559818	-0.427375	-1.381686	-0.045838	0.154579	-0.90526	9.657809	1.57012	-0.529726	-19.316006	1.154241	3.008711	-0.519227	-0.449738	-0.020531
-1.652173	1.01611	10.159592	1.780096	86.714457	-3.870516	-0.001144	-0.117536	-0.795385	2.01076	1.901064	9.551858	0.366113	-0.448898	-0.980391	-0.072305	0.167605	-0.877012	9.835418	1.802266	-0.465529	-20.218026	0.358848	2.710138	-0.518463	-0.384142	-0.039407
-1.647595	0.84475	10.386281	2.286607	88.609985	-2.829094	-0.029371	-0.134087	-0.777195	1.620214	1.733301	10.10965	0.367165	-0.357507	-0.886997	-0.059259	0.122791	-0.888627	9.606381	2.094917	-0.049346	-20.5006	-0.501806	3.020905	-0.504555	-0.383938	-0.039337
-1.647761	1.074516	10.387246	4.296502	91.039625	-2.212679	0.025597	-0.115099	-0.757271	1.783455	1.619937	9.660065	-0.13291	-0.823351	-0.953688	-0.046283	0.122866	-0.888903	9.663872	1.803908	-0.169295	-20.916354	-1.716731	2.050177	-0.504831	-0.417976	-0.006607
-1.814821	0.730956	10.60987	3.6025	92.412854	-1.666994	0.012605	-0.121439	-0.781658	1.674584	1.507729	9.94075	2.089864	-0.860686	-0.304881	-0.033163	0.093372	-0.901521	9.187476	1.745923	-0.417974	-20.220819	-2.495626	0.706594	-0.504901	-0.417149	-0.022135
-1.69821	0.903681	10.726527	4.481907	95.265162	-0.856447	0.040446	-0.091118	-0.803264	2.294614	1.449691	9.330965	0.632542	-1.36492	-1.050941	-0.033383	0.10762	-0.888175	9.772581	2.498819	-0.583476	-19.744807	-3.702908	-0.695261	-0.490714	-0.401579	-0.007374
-2.145276	1.136191	11.287115	4.338279	101.249104	-0.268055	0.012648	-0.173337	-0.729183	1.841475	2.01419	9.718245	-2.678294	-1.891869	-1.922029	-0.006985	0.139483	-0.905083	9.95239	2.73146	-0.399465	-19.849994	-4.672622	-1.60713	-0.491549	-0.466349	-0.004025
-2.308049	1.023362	11.738117	3.34249	107.149042	1.946814	0.040118	-0.146544	-0.736713	1.790708	1.620222	9.999903	-2.741018	-1.954788	-1.799393	-0.044807	0.128225	-0.960651	9.949069	2.265863	-0.641071	-20.163472	-5.222748	-1.756181	-0.476318	-0.369816	0.00655
-1.840939	0.795194	12.200884	5.63042	114.334003	3.253079	0.069116	-0.157536	-0.748071	1.792802	1.789308	10.113324	-4.650832	-1.548771	-1.951032	-0.046353	0.167755	-0.877564	9.305508	1.745653	-0.415773	-20.849267	-5.645546	-2.515739	-0.477086	-0.416741	-0.021994
-2.075773	1.138803	11.913613	6.792863	122.646516	4.887582	0.083994	-0.168154	-0.759081	1.90925	1.732809	10.172334	-3.380213	-1.197194	-1.669062	-0.045768	0.109689	-0.916598	9.605571	2.443373	-0.047863	-20.331132	-5.911706	-3.219275	-0.490856	-0.399926	-0.038429
-2.242751	0.68036	12.135754	9.118065	130.969398	6.058893	0.110735	-0.165717	-0.720967	1.783347	1.676268	9.660112	-1.799252	-0.691192	-0.953714	-0.046503	0.137114	-0.875557	8.770697	2.850065	-0.480886	-18.944082	-5.56457	-3.776072	-0.505461	-0.447882	-0.051516
-2.692951	0.624939	12.524577	12.755138	139.565415	5.329525	0.097	-0.179113	-0.717202	2.080067	1.450739	10.062444	-1.207892	-0.317374	-0.702897	-0.072235	0.122716	-0.888351	9.488099	2.676195	0.010832	-17.182925	-5.503377	-3.171502	-0.504901	-0.417149	-0.022135
-2.411422	1.025857	12.304421	18.622881	147.126266	4.668905	0.125241	-0.179862	-0.7179	1.903098	1.788903	9.889183	0.71363	0.225413	-0.264361	-0.021362	0.149369	-0.834062	9.495242	2.445374	0.369285	-14.182717	-5.045142	-2.084314	-0.504972	-0.416323	-0.037662
-2.803793	1.717376	12.754347	19.132767	155.585679	3.823651	0.111092	-0.144889	-0.752535	1.791486	1.845591	10.056732	0.864319	-0.078672	-0.359748	-0.045467	0.170971	-0.920613	9.37831	2.445891	0.426991	-10.816727	-4.546475	-1.823824	-0.491202	-0.433138	-0.021227
-2.634464	2.003977	12.645188	23.641839	162.168091	2.169674	0.152325	-0.139298	-0.728846	2.023603	1.507224	10.117923	1.081277	-0.043653	-0.605849	-0.046208	0.138186	-0.889906	9.193673	1.921634	-0.057791	-6.868468	-4.287257	-1.869923	-0.477574	-0.4483	-0.035848
-2.979886	1.544211	12.52287	32.205219	166.859555	-1.734841	0.167245	-0.201814	-0.68738	1.733381	2.127351	10.05576	1.601446	-0.435433	-0.640154	-0.045838	0.154579	-0.90526	9.313387	2.619018	0.127098	-3.165312	-3.348723	-2.621309	-0.490785	-0.400753	-0.022901
-3.168559	1.827924	11.66794	37.492521	171.402017	-4.681703	0.180609	-0.191945	-0.677069	1.665798	1.676388	9.544415	2.76637	-1.126238	-0.58443	-0.059259	0.122791	-0.888627	9.493176	2.386803	0.249224	-0.02412	-2.491968	-4.531618	-0.449199	-0.417159	-0.006326
-3.241319	1.709705	10.8704	40.988029	174.226399	-8.540813	0.168017	-0.229356	-0.680549	2.190817	1.844694	9.895275	2.391198	-1.526368	-1.081959	-0.045542	0.15565	-0.919609	9.14018	2.387861	0.302528	1.985985	-1.005764	-5.585086	-0.463249	-0.415711	-0.037452
-3.833	1.993226	9.89397	44.537004	176.166345	-12.935946	0.221827	-0.169055	-0.670873	2.080067	1.450739	10.062444	2.297543	-1.589881	-0.928526	-0.033823	0.136118	-0.861483	9.247748	2.152814	-0.295329	4.403273	0.345666	-5.294674	-0.504551	-0.402609	0.008084
-3.605593	2.682117	9.844466	45.499804	173.777329	-21.258766	0.235976	-0.204029	-0.636238	1.787405	1.451088	9.829841	2.977676	-1.521537	-0.680675	-0.019961	0.139408	-0.904807	9.477885	1.860411	-0.651605	5.620101	2.185687	-5.338423	-0.518876	-0.435198	0.009688
-4.232756	3.659803	10.006879	45.181986	171.61442	-28.378378	0.263846	-0.208306	-0.622861	2.129302	2.013651	9.72429	2.578901	-1.311373	-0.77139	-0.019886	0.154729	-0.905811	9.541593	2.209968	-0.349486	6.245392	3.599773	-5.805859	-0.477086	-0.416741	-0.021994
-4.064949	2.969415	9.779912	48.239415	168.858697	-33.30911	0.278338	-0.205152	-0.637286	2.072275	1.732107	9.722844	2.426849	-1.128939	-0.831355	-0.033012	0.124013	-0.903528	9.179098	2.034572	-0.836086	6.410424	5.318426	-6.30364	-0.505177	-0.451187	0.010595
-3.820011	2.513095	10.578378	51.862076	167.191671	-36.506117	0.334106	-0.248306	-0.575547	1.911775	1.676574	10.285566	2.394903	-1.19207	-0.616212	-0.046058	0.168827	-0.891914	9.357652	1.860186	-0.773619	6.206893	6.536228	-5.819732	-0.492037	-0.497908	-0.017879
-3.878462	2.627778	10.520894	49.626148	175.853686	-34.733028	0.36309	-0.241999	-0.604398	1.909357	1.676479	10.172287	2.122043	-0.796348	-0.70498	-0.057928	0.157719	-0.948033	9.247457	1.804111	-0.356719	6.130615	7.653883	-4.480078	-0.477086	-0.416741	-0.021994
-2.835209	2.674782	8.268168	57.695037	175.197469	-38.5706	0.361975	-0.252583	-0.56217	1.787967	1.789118	9.886766	2.248894	-0.520002	-0.517162	-0.059034	0.168752	-0.891638	9.241685	1.919027	-0.655759	5.335148	8.011786	-3.867668	-0.490994	-0.416945	-0.022064
1.103897	2.197391	4.819291	60.820142	159.587866	-36.778302	0.390216	-0.253333	-0.562868	2.015033	1.563223	9.721493	2.210281	-1.133293	-0.584948	-0.007356	0.123091	-0.88973	9.649566	1.800693	-0.948085	4.288749	8.190615	-3.773046	-0.449687	-0.448718	-0.02018
5.631836	-2.610567	-3.807955	14.680481	108.608359	-8.305381	0.404723	-0.267478	-0.559802	1.893642	1.675862	9.435972	1.598171	-0.710211	-0.827858	-0.034124	0.074836	-0.857468	9.773391	2.150363	-0.584959	2.745352	7.753645	-3.459752	-0.449825	-0.465736	-0.003815
1.869513	-3.191215	-5.986309	-18.499289	11.237779	34.059137	0.432992	-0.302826	-0.525516	1.216933	1.903047	10.10133	1.996481	-0.92279	-0.36723	-0.046654	0.106474	-0.873549	9.7709	1.801165	-0.766163	0.951321	7.323355	-3.879069	-0.51916	-0.431893	-0.052423
-0.23067	-3.760237	-5.120272	3.1937	-115.010312	71.495106	0.403994	-0.291834	-0.514158	1.843784	2.070616	9.831572	1.875245	-0.711715	-0.056948	-0.006615	0.155876	-0.920437	10.06515	1.684091	-0.821063	-0.871889	6.610388	-3.594006	-0.477574	-0.4483	-0.035848
5.010452	-2.283696	5.387863	34.133115	-200.4033	104.319199	0.417729	-0.278438	-0.517923	1.383692	1.846156	9.821711	2.495619	-0.490428	0.13072	-0.046359	0.107545	-0.887899	10.18992	1.627228	-0.459668	-2.543216	5.4366	-3.062797	-0.491131	-0.433964	-0.005699
6.596526	2.824545	4.758281	63.82357	-206.241543	129.391697	0.389859	-0.27416	-0.5313	2.244301	1.450083	9.669594	2.313687	-0.188545	0.503513	-0.058594	0.140255	-0.91833	10.06488	1.800243	-0.820568	-4.058578	4.042622	-1.88929	-0.463386	-0.432729	-0.021087
5.16777	4.479764	2.009607	9.684614	-220.190743	113.906394	0.391745	-0.291117	-0.566697	1.903744	1.45092	9.888899	2.895095	-0.639664	0.283698	-0.059259	0.122791	-0.888627	10.002718	2.206416	-0.939752	-4.73928	3.268494	-1.210755	-0.504901	-0.417149	-0.022135
8.080977	2.420412	4.55813	9.397884	-239.186253	79.822534	0.321528	-0.303016	-0.561535	1.725674	1.732706	9.658951	1.660353	-0.592805	0.098202	-0.020256	0.138336	-0.890458	10.059803	2.089634	-1.05896	-4.55632	3.117786	-1.363512	-0.435846	-0.466359	0.011783
7.080462	2.427672	6.073121	28.771748	-257.640584	49.33237	0.266561	-0.322003	-0.581458	1.380389	1.677022	9.65165	1.5926	-1.082821	-0.122522	-0.00728	0.138411	-0.890733	9.705571	2.14852	-1.065315	-3.438977	3.138813	-0.053462	-0.50539	-0.448708	-0.035988
8.41789	3.235484	7.182318	28.472064	-262.485526	12.582551	0.252426	-0.304329	-0.598601	1.838279	1.788726	9.548137	1.440548	-0.871736	0.12608	-0.07179	0.154428	-0.904708	10.058412	1.740683	-1.180257	-3.092385	3.591633	0.646069	-0.490781	-0.419424	0.024519
4.14309	0.300347	5.040902	28.88408	-248.616236	-13.690639	0.236405	-0.269698	-0.580347	1.902535	1.450872	9.832259	0.915153	-0.93671	-0.33741	-0.07179	0.154428	-0.904708	9.999781	1.101735	-1.243984	-3.146523	4.694866	0.427059	-0.505528	-0.465727	-0.019623
3.202967	-0.955666	6.665403	8.529742	-235.685397	-28.205857	0.223399	-0.258738	-0.622226	2.017666	1.450657	9.834677	1.006548	-1.056786	-0.554327	-0.045247	0.156722	-0.933959	9.349928	1.3936	-1.254852	-3.054065	5.564654	-0.830503	-0.491202	-0.433138	-0.021227
2.298321	-1.354681	7.214429	-4.655534	-224.819472	-39.52491	0.182923	-0.274572	-0.656574	2.019761	1.619743	9.948099	0.23813	-0.817037	-1.199951	-0.033452	0.15251	-0.876836	9.35377	1.162038	-1.076121	-2.495783	6.70922	-1.877113	-0.463595	-0.448922	-0.02025
0.880115	-1.063542	7.870035	-17.05861	-216.192598	-43.030148	0.168817	-0.291496	-0.638733	1.550668	1.676604	9.541998	-0.474113	-0.977969	-1.41792	-0.058594	0.140255	-0.91833	8.994886	1.800943	-1.259724	-2.668986	7.990216	-1.576974	-0.505177	-0.451187	0.010595
0.218921	-1.402145	9.162847	-27.58039	-203.39033	-42.362454	0.099343	-0.296338	-0.661724	1.960855	1.056451	9.833136	-0.751695	-0.979081	-1.78809	-0.071645	0.12486	-0.917051	9.350198	1.277448	-1.255347	-4.810083	8.881269	0.260291	-0.491202	-0.433138	-0.021227
-0.790585	-1.281932	10.223495	-32.345178	-186.34363	-42.071838	0.070731	-0.299117	-0.646949	2.479961	1.787872	9.957912	-1.707	-0.778187	-1.540237	-0.032792	0.109764	-0.916874	9.17207	1.742462	-1.25667	-8.060428	9.30127	2.898499	-0.491135	-0.415293	-0.05312
-0.263788	-1.796867	10.799876	-38.544744	-172.679142	-42.568235	0.055067	-0.243658	-0.660263	1.897508	2.183027	9.662957	-0.624179	-0.642009	-1.507184	-0.033082	0.168902	-0.892189	8.763608	1.163388	-1.087125	-11.861545	9.30772	6.885565	-0.50511	-0.433342	-0.021298
-7.543408	-0.172342	13.222495	-46.934186	-161.843014	-49.546322	0.041318	-0.239756	-0.67399	1.839272	1.901434	9.604871	-1.084007	-0.371501	-1.56652	-0.032497	0.110836	-0.931224	8.82361	1.686432	-0.963986	-15.821011	9.073299	10.446565	-0.505949	-0.47944	-0.06537
-7.143708	-2.036176	7.25522	-82.076748	-275.084699	-63.770692	0.029484	-0.287409	-0.688129	1.614708	1.451411	9.826215	-0.094417	-0.267969	-1.410555	-0.058738	0.169824	-0.905988	9.110718	1.800178	-1.377337	-18.704533	9.035134	13.146979	-0.505319	-0.449534	-0.02046
-2.547053	-0.02041	22.86783	-78.991589	-300.361649	-34.280006	-0.001044	-0.238632	-0.672942	1.727553	2.014453	9.772467	-0.773426	-0.215867	-1.318099	-0.059034	0.168752	-0.891638	9.417208	1.627747	-0.773508	-21.19924	8.30711	14.657238	-0.463316	-0.433556	-0.005559
-9.464238	2.904432	20.472394	8.865299	-251.985357	-71.941052	-0.070146	-0.239945	-0.710008	1.898824	2.126744	9.719549	0.187179	0.040396	-1.12981	-0.033603	0.121869	-0.874829	9.647385	2.265054	-1.006014	-22.584247	7.428237	16.347616	-0.463666	-0.448096	-0.035778
-12.499189	-0.802863	26.080776	-65.730792	-231.723496	-47.099527	-0.071275	-0.233231	-0.685272	2.137094	1.732283	10.06389	1.387956	-0.223321	-0.669045	-0.058814	0.154504	-0.904984	9.773911	1.453203	-0.647833	-23.424417	6.229053	16.662052	-0.50511	-0.433342	-0.021298
-16.825867	-0.659359	18.495607	-8.050677	-149.805531	-18.481774	-0.084652	-0.225799	-0.713075	2.193342	1.788459	10.008507	1.765546	0.361198	-0.231336	-0.07157	0.14018	-0.918054	9.655359	2.150633	-0.58716	-24.026126	4.953179	15.600483	-0.50574	-0.463248	-0.066207
-17.784033	-0.335559	13.420428	-41.561311	-132.049146	12.847558	-0.113251	-0.245878	-0.680809	2.071844	1.957429	9.723034	1.917599	0.178766	-0.171372	-0.072085	0.153357	-0.890358	9.835418	1.802266	-0.465529	-23.169775	3.975819	15.754879	-0.51888	-0.416527	-0.037733
-20.322773	-1.027377	12.345183	-43.91223	-123.737623	32.798087	-0.142264	-0.217587	-0.686942	2.307826	2.126226	10.01121	2.222915	-0.06525	0.227213	-0.046359	0.107545	-0.887899	10.485426	1.91718	-0.393022	-21.480637	3.21811	15.660677	-0.491273	-0.432311	-0.036755
-18.165403	-0.088815	17.335349	-42.210046	-112.410123	64.985079	-0.142249	-0.234886	-0.66945	2.077218	1.675966	9.949355	2.750567	0.154659	0.445621	-0.020181	0.153657	-0.891461	10.198183	1.86151	0.020576	-19.543105	3.172113	14.859146	-0.505248	-0.45036	-0.004933
-19.109771	11.012793	74.762492	-324.277047	104.980729	-38.123004	-0.170505	-0.216838	-0.686244	1.905192	1.957989	10.002605	2.936591	0.189085	0.230316	-0.059335	0.10747	-0.887623	10.320908	2.210932	0.323795	-17.675176	3.141024	12.590627	-0.519018	-0.433546	-0.021368
-20.206404	0.474322	0.817202	162.893186	41.679914	33.663645	-0.199117	-0.219617	-0.671469	2.36483	1.788088	9.955494	3.521508	0.071256	0.630381	-0.058889	0.139183	-0.90398	10.325019	1.863218	0.502032	-16.844675	2.616509	7.394018	-0.477574	-0.4483	-0.035848
-24.473275	14.883294	11.479059	39.174202	9.496396	13.381577	-0.169347	-0.258151	-0.675996	2.53962	1.956851	10.072543	3.21573	0.341509	0.910275	-0.058594	0.140255	-0.91833	10.969701	2.84853	0.398526	-16.950801	1.058618	7.15732	-0.477436	-0.431281	-0.052213
1.338302	-1.548338	2.023371	-4.166725	-7.456979	37.822744	-0.170862	-0.237665	-0.654676	1.672859	2.409017	9.941509	4.301416	0.750448	1.439294	-0.045323	0.141402	-0.932955	10.256524	2.151755	0.022913	-15.432622	0.308065	15.194159	-0.463599	-0.430251	-0.06767
0.881658	2.338819	11.010079	-32.805108	7.566647	26.712347	-0.127386	-0.228204	-0.697951	1.901003	1.619816	9.775762	5.633891	1.074755	1.320278	-0.045768	0.109689	-0.916598	9.921655	1.459609	0.971854	-13.853114	0.362291	16.410848	-0.477574	-0.4483	-0.035848
-0.708716	3.824009	8.769019	-39.291101	4.474495	4.049915	-0.183482	-0.240477	-0.693139	1.907586	1.338401	10.058723	5.663148	0.952086	1.380738	-0.032347	0.141477	-0.933231	9.558059	1.283966	0.425348	-12.833925	1.073379	10.107142	-0.505039	-0.434168	-0.00577
-0.310576	0.675815	11.434523	-44.606623	4.463351	16.392782	-0.184239	-0.230234	-0.682479	1.908149	1.676431	10.115647	4.489739	0.968661	1.256646	-0.020407	0.107695	-0.88845	9.625744	1.343884	0.90595	-11.183923	1.045613	7.442141	-0.476948	-0.399722	-0.038359
-0.653854	0.331414	11.426394	-7.659851	3.125501	5.838313	-0.199503	-0.205846	-0.674885	1.614708	1.451411	9.826215	6.012096	1.66249	1.26477	-0.045247	0.156722	-0.933959	9.559315	1.690992	0.546892	-9.811319	1.33054	9.94214	-0.505323	-0.430863	-0.067881
-0.467403	2.217893	9.335247	9.351021	-0.596206	-3.226103	-0.15677	-0.203441	-0.690009	1.969772	1.451144	10.286585	7.346748	2.19863	1.579457	-0.045838	0.154579	-0.90526	9.379505	1.458352	0.362881	-8.847243	0.976686	11.957663	-0.476877	-0.400549	-0.022831
-0.523709	2.447942	9.391952	7.942701	-0.763401	-2.611397	-0.213609	-0.222771	-0.657044	1.901781	1.845186	9.832591	9.079768	2.522595	2.293122	-0.059705	0.091078	-0.87227	9.605956	1.80429	-0.110489	-9.276886	0.909226	12.418029	-0.518809	-0.417353	-0.022205
-0.171477	1.185668	9.791295	-2.435977	-1.218937	0.784565	-0.141135	-0.224301	-0.711678	1.841343	1.450838	9.661132	9.143037	2.674286	2.66462	-0.058223	0.156647	-0.933683	9.969937	1.340849	0.373391	-9.400375	1.592158	11.406546	-0.505181	-0.432516	-0.036825
-0.341469	1.818132	9.904315	1.793016	-1.135293	0.559077	-0.184254	-0.212935	-0.69997	1.900464	1.901469	9.775999	8.497283	2.882115	2.450369	-0.059775	0.135967	-0.860931	9.727249	0.875051	-0.052337	-9.307	2.429134	10.362985	-0.476881	-0.381877	-0.070252
-0.337838	1.416765	10.073185	-1.631083	-0.455957	1.592009	-0.156013	-0.213684	-0.700669	2.127662	2.238926	9.66784	6.523309	3.016792	1.463617	-0.07172	0.109539	-0.916047	9.67306	1.166802	0.247333	-8.226143	3.143835	9.652656	-0.505181	-0.432516	-0.036825
-0.461504	1.759567	9.617582	-4.89941	0.247871	3.238232	-0.169747	-0.22708	-0.696904	1.734028	1.789368	10.055475	4.503109	2.011863	1.174546	-0.045618	0.14033	-0.918606	9.202322	1.516833	0.359827	-6.592772	3.803137	8.573815	-0.46276	-0.384152	-0.023598
0.010142	1.417481	10.307279	-7.349261	0.199086	3.827169	-0.213609	-0.222771	-0.657044	2.017235	1.675979	9.834867	4.337452	1.092581	0.764505	-0.019961	0.139408	-0.904807	9.547865	0.933037	-0.175205	-4.774764	3.563382	8.721199	-0.491273	-0.432311	-0.036755
-0.573371	1.185717	9.726648	-4.46836	0.557192	3.242018	-0.170105	-0.247908	-0.665336	1.723364	1.67628	9.545624	3.283323	0.74476	0.328605	-0.058443	0.170896	-0.920337	9.666187	1.28147	-0.111614	-2.425669	3.157116	10.365151	-0.504622	-0.401783	-0.007444
-0.176138	1.471911	9.565089	-6.887537	-0.023625	4.6809	-0.171262	-0.206595	-0.675584	1.376224	1.958532	9.481968	3.557858	0.472304	0.326116	-0.046283	0.122866	-0.888903	9.668949	1.514516	0.069096	-0.016364	2.691785	11.825794	-0.490367	-0.368368	-0.024576
-0.114222	1.185626	9.792409	-4.49899	0.024874	4.092138	-0.198374	-0.21256	-0.699621	1.438517	2.014945	9.709783	3.55478	0.255838	0.601415	-0.046283	0.122866	-0.888903	9.611168	1.456823	0.127655	1.60768	2.375358	10.44597	-0.491135	-0.415293	-0.05312
-0.286234	1.5304	9.790516	-4.377378	-0.128214	4.0893	-0.185025	-0.185393	-0.706802	2.190386	2.070016	9.895465	3.279347	0.437709	0.387205	-0.046654	0.106474	-0.873549	9.440297	1.168084	0.422652	2.950752	2.064554	8.425287	-0.490785	-0.400753	-0.022901
-0.449214	1.704779	10.242724	-1.989991	-0.045159	3.163761	-0.199132	-0.202317	-0.688961	1.895629	1.901279	9.549441	3.093711	0.405296	0.294249	-0.020262	0.078126	-0.900793	9.314811	0.585616	-0.061276	2.907393	1.777774	6.562365	-0.477786	-0.445821	-0.082431
-0.681655	1.819104	10.068194	-1.989828	-0.076933	3.255246	-0.213624	-0.205471	-0.674536	1.72371	2.126972	9.602643	2.815043	0.341244	0.170075	-0.08403	0.126928	-0.945474	9.790127	1.108209	0.18938	1.300805	1.871343	5.834192	-0.491202	-0.433138	-0.021227
0.168378	1.644228	9.629347	-0.369606	-0.276476	2.541989	-0.241107	-0.214965	-0.684498	2.131073	2.351729	9.837854	2.199076	0.486527	0.201852	-0.033678	0.106549	-0.873825	9.84198	0.874039	-0.229857	-0.146379	1.924474	6.114259	-0.51888	-0.416527	-0.037733
-0.290605	1.414552	9.562621	-0.711124	-0.734857	2.167512	-0.156784	-0.186142	-0.7075	1.898609	2.239405	9.719644	2.170209	0.639862	0.141697	-0.084916	0.123713	-0.902425	10.034975	0.644791	0.611152	-1.311235	1.907335	7.371705	-0.518671	-0.400335	-0.03857
-0.117811	1.529552	9.623297	-0.802216	-0.487345	1.987792	-0.169747	-0.22708	-0.696904	1.897161	1.732335	9.605938	1.18593	0.964833	0.113309	-0.072015	0.108467	-0.901697	9.908045	1.63087	0.253713	-2.075634	2.420177	7.799932	-0.477089	-0.39807	-0.069415
-0.228814	1.300592	9.790664	-0.955587	-0.393779	1.805749	-0.184611	-0.233762	-0.668403	2.187968	2.069922	9.782186	1.365719	0.508622	-0.10688	-0.032792	0.109764	-0.916874	10.151522	1.283357	0.616073	-2.287556	3.063997	7.583674	-0.505252	-0.431689	-0.052353
-0.05833	1.529993	9.738117	-1.136668	0.254556	1.479463	-0.183839	-0.261304	-0.661571	1.212767	2.184557	9.931648	0.967839	0.809369	0.019103	-0.07216	0.138036	-0.889355	10.034705	0.760943	0.611647	-1.641556	3.410697	6.815563	-0.462969	-0.400344	-0.022761
-0.048308	1.532164	10.249795	-2.148371	0.125516	1.602948	-0.199517	-0.188546	-0.692377	1.376008	2.071193	9.482063	0.654299	0.437875	-0.046499	-0.033087	0.108692	-0.902524	9.732616	0.934363	0.247445	-0.098988	3.383445	7.024059	-0.504622	-0.401783	-0.007444
-0.405114	1.414635	9.560394	-2.605358	0.303241	2.005831	-0.184239	-0.230234	-0.682479	1.55652	2.409185	9.882452	0.501972	0.590245	-0.199247	-0.07194	0.123788	-0.902701	9.971982	0.934564	0.431567	1.71768	3.053182	7.04962	-0.518671	-0.400335	-0.03857
-0.230176	1.645	9.735259	-2.72757	0.458066	1.855361	-0.184611	-0.233762	-0.668403	1.837848	2.014048	9.548327	0.406328	0.373208	-0.016514	-0.007356	0.123091	-0.88973	9.550356	1.282235	0.005999	3.808504	2.916599	6.186893	-0.490856	-0.399926	-0.038429
-0.224609	1.646207	10.019525	-2.941596	0.518181	1.887621	-0.185397	-0.188921	-0.692726	1.66867	2.070844	9.714666	0.287856	0.741832	-0.352053	-0.045838	0.154579	-0.90526	10.026462	0.991516	0.193287	6.485532	2.377834	5.965818	-0.504693	-0.400957	-0.022972
-0.055937	1.300709	9.850858	-3.246653	0.606512	2.104608	-0.184982	-0.237291	-0.654327	1.673052	1.676673	9.884253	0.068011	0.462702	-0.293349	-0.059109	0.153432	-0.890634	9.908699	0.875634	0.190592	8.823955	1.650529	6.113642	-0.53265	-0.399713	-0.054168
-0.233434	1.529394	9.564217	-3.03294	0.860321	1.494766	-0.184239	-0.230234	-0.682479	1.842552	1.450885	9.717771	0.403794	0.188212	0.135785	-0.019816	0.109839	-0.91715	9.913662	1.109175	0.491115	10.424818	1.443744	5.95601	-0.518809	-0.417353	-0.022205
-0.396165	1.359123	10.014978	-3.18283	1.288111	1.655488	-0.185383	-0.20622	-0.675234	1.55652	2.409185	9.882452	0.835414	0.103114	-0.08051	-0.032867	0.094444	-0.915871	9.795339	0.760741	0.427524	10.760486	1.575834	5.128929	-0.491064	-0.416119	-0.037592
-0.403177	1.817208	9.67579	-3.548442	1.530509	1.813818	-0.142292	-0.182988	-0.721926	1.667115	1.620105	9.601008	1.01727	-0.170519	-0.083085	-0.045768	0.109689	-0.916598	9.672075	0.643623	0.125294	9.40387	2.222797	4.213834	-0.518392	-0.384968	-0.023879
-0.168219	1.301275	9.962337	-3.486685	1.717272	1.63267	-0.226215	-0.242881	-0.678015	1.895198	2.126601	9.54963	1.141587	-0.107822	-0.051533	-0.020627	0.121944	-0.875104	9.496127	0.644275	0.1819	8.237347	3.109159	3.877626	-0.51853	-0.401987	-0.007514
-0.398806	1.933056	9.903685	-3.702262	1.687972	1.41814	-0.155984	-0.248283	-0.665685	1.668239	2.296166	9.714856	1.022337	0.228125	-0.079117	-0.059555	0.121719	-0.874277	10.02285	0.177216	-0.109708	7.623096	3.692251	3.479739	-0.476739	-0.38353	-0.039196
0.006802	1.416757	10.13672	-3.364657	1.782089	1.38803	-0.170505	-0.216838	-0.686244	1.780067	2.126817	9.547213	1.017113	-0.199976	-0.268347	-0.058594	0.140255	-0.91833	9.962234	1.339119	-0.045957	7.623628	4.250125	2.774111	-0.476806	-0.401375	-0.007303
-0.457915	1.415641	9.786693	-3.395426	1.782293	1.357455	-0.170119	-0.230609	-0.682828	2.23895	2.351229	9.500434	0.709732	-0.081236	-0.267413	-0.032717	0.125085	-0.917878	10.033179	0.470068	0.490597	7.09392	4.507147	1.39945	-0.490923	-0.417771	-0.006537
-0.511704	1.244082	9.955415	-2.691031	1.818402	1.172008	-0.157527	-0.193198	-0.679349	1.210349	2.184462	9.818369	0.558029	0.13166	-0.296246	-0.058744	0.109614	-0.916323	9.615279	1.109108	0.305893	7.671099	4.370488	0.022675	-0.504555	-0.383938	-0.039337
-0.460017	1.242834	9.672263	-1.956798	1.919594	0.680855	-0.197603	-0.240102	-0.69279	1.841906	1.788868	9.718056	0.247568	0.005282	-0.328581	-0.05919	0.077901	-0.899966	9.734122	0.760382	0.30661	7.543482	4.253989	-0.587563	-0.490364	-0.387039	0.022845
-0.113274	1.415634	9.850227	-2.201582	1.885979	0.834352	-0.199503	-0.205846	-0.674885	1.669772	2.127222	9.771353	0.126681	0.218167	-0.295733	-0.059259	0.122791	-0.888627	10.138161	0.873611	-0.164448	7.205528	4.002058	-0.004444	-0.476459	-0.368164	-0.024505
-0.341054	1.243716	9.901902	-1.740786	1.97893	0.957207	-0.185768	-0.192449	-0.67865	1.842791	1.957907	9.774838	0.466945	0.253345	-0.325938	-0.046283	0.122866	-0.888903	9.1979	1.050988	0.058315	6.865838	3.380839	0.794388	-0.491064	-0.416119	-0.037592
-0.051607	1.473999	10.078994	-2.076565	2.036038	1.204444	-0.185383	-0.20622	-0.675234	2.250261	2.126334	10.010001	0.433206	0.037695	-0.235625	-0.007946	0.120947	-0.86103	9.550626	1.166083	0.005505	6.338766	3.011873	0.798058	-0.462902	-0.382499	-0.054654
-0.288503	1.587359	9.677051	-2.689415	2.032828	1.236823	-0.200275	-0.178304	-0.681717	1.608364	2.239849	9.60032	0.832413	-0.112949	0.133135	-0.020187	0.093447	-0.901797	10.148605	0.643532	0.373726	5.775826	2.559224	0.00762	-0.491344	-0.431485	-0.052283
-0.291636	1.299428	9.505285	-1.924852	1.759473	1.260848	-0.186126	-0.213277	-0.647082	1.732604	1.901982	9.998931	1.358936	-0.013486	0.011236	-0.033157	0.153582	-0.891186	10.143934	0.758695	0.134592	5.373103	2.468219	-0.204428	-0.476668	-0.384356	-0.023668
-0.341096	1.301158	9.902144	-2.291638	2.161787	0.869761	-0.199917	-0.157476	-0.713285	1.899471	1.78876	9.719265	1.724908	-0.377165	0.06957	-0.045693	0.12501	-0.917602	9.791768	0.876152	0.248298	5.246977	2.007351	-0.048957	-0.504905	-0.398478	-0.069555
-0.166981	1.129191	10.018466	-1.770318	2.382469	0.595837	-0.156398	-0.199913	-0.704085	1.726559	1.901745	9.715733	2.187306	-0.405171	0.562913	-0.072015	0.108467	-0.901697	9.675106	0.760517	0.30551	5.155063	1.974853	0.104345	-0.518321	-0.385795	-0.008351
-0.517479	1.530083	9.672356	-1.891209	2.533469	0.782646	-0.171648	-0.192824	-0.678999	1.900249	2.01413	9.776094	1.971634	-0.347591	0.717453	-0.05941	0.09215	-0.88662	9.551166	0.933779	0.004516	5.188533	1.690514	0.991908	-0.504413	-0.385591	-0.008281
-0.288461	1.529918	9.67681	-1.404481	2.23331	0.347017	-0.169404	-0.188953	-0.745963	0.053644	1.848398	9.510708	2.247222	-0.557309	0.499793	-0.033163	0.093372	-0.901521	10.086443	1.049705	0.254542	4.978921	1.646854	2.184843	-0.518742	-0.399508	-0.054098
-0.458122	1.702849	9.7879	-1.344637	1.987395	0.373516	-0.156756	-0.220741	-0.672517	2.187406	1.731891	9.725262	3.800126	-0.094111	-1.683144	-0.057783	0.12815	-0.960376	9.857501	0.354569	0.546708	4.983411	1.576218	3.10207	-0.490718	-0.382908	-0.054794
-0.402721	1.185351	9.673135	-1.345817	1.803006	0.370523	-0.170133	-0.213309	-0.70032	1.669209	1.789192	9.714429	2.55604	-0.63995	-0.333139	-0.020337	0.062806	-0.899789	9.788871	0.701182	0.067836	4.800489	1.540549	3.530794	-0.490576	-0.38456	-0.023739
-0.224111	0.956908	10.016629	-1.101374	1.649797	0.428665	-0.141521	-0.21053	-0.715094	1.790277	1.845544	10.000092	1.447917	-0.260649	0.471271	-0.058229	0.096437	-0.944019	9.791633	0.934228	0.248545	4.919723	1.362498	3.042193	-0.463178	-0.416537	-0.021924
-0.576629	1.07011	9.555606	-1.011492	1.499697	0.149956	-0.183111	-0.236949	-0.707215	2.130965	2.40806	9.837901	1.575859	0.078636	0.413092	-0.072235	0.122716	-0.888351	9.669604	0.759281	0.005975	5.286336	1.339229	2.460269	-0.504972	-0.416323	-0.037662
-0.343364	1.358117	9.788679	-1.013381	1.223459	0.114804	-0.213238	-0.219242	-0.67112	1.326797	2.127964	9.877379	1.483449	0.078869	0.197223	-0.059335	0.10747	-0.887623	10.027272	0.64306	0.191804	5.685261	1.375358	2.061327	-0.504764	-0.400131	-0.0385
-0.344312	1.128109	9.73086	-1.012465	1.252105	0.299274	-0.155998	-0.230983	-0.683177	2.126322	1.675526	9.554087	2.129415	-0.127957	0.257342	-0.032572	0.095516	-0.93022	9.78584	0.584288	-0.11238	5.341929	1.102614	1.697112	-0.504134	-0.370224	0.00641
-0.291636	1.299428	9.505285	-1.043756	1.285127	0.085226	-0.170905	-0.185767	-0.707151	1.8977	1.450682	9.605701	2.187655	-0.403359	0.285479	-0.046139	0.093297	-0.901245	9.673195	1.108726	0.247086	4.788551	1.221715	1.820801	-0.449478	-0.432525	-0.021017
-0.287389	1.5876	9.733904	-1.225506	1.465877	0.33403	-0.198017	-0.191733	-0.731189	1.89904	2.014083	9.719454	2.741134	-0.581703	0.499947	-0.05941	0.09215	-0.88662	9.501899	0.52936	0.48094	4.794972	1.395797	2.73685	-0.4903	-0.350523	-0.056468
-0.751525	0.782303	9.3805	-1.287293	1.560915	0.059741	-0.201018	-0.18536	-0.653565	1.552115	2.183673	9.655704	2.95856	-0.486964	0.501064	-0.046063	0.108617	-0.902249	9.618851	0.993698	0.485119	5.47708	1.235831	3.652053	-0.491064	-0.416119	-0.037592
-0.33788	1.474206	10.073427	-1.46925	1.804867	0.156233	-0.170133	-0.213309	-0.70032	2.249268	2.013626	9.953266	2.928719	-0.395965	0.59443	-0.058449	0.110686	-0.930672	9.551031	0.991855	0.004763	6.161528	1.350857	4.596506	-0.490714	-0.401579	-0.007374
-0.915909	1.358531	9.777544	-1.59217	1.867844	-0.026397	-0.157513	-0.210498	-0.661857	1.907825	1.845423	10.115789	2.618532	-0.520934	0.346312	-0.046214	0.077976	-0.900241	9.795879	0.528437	0.426535	7.176166	0.925316	4.686554	-0.532438	-0.402191	-0.007584
-0.34786	1.414593	9.561508	-1.436626	2.018393	0.312949	-0.142306	-0.165689	-0.739417	1.899602	2.352113	9.776378	1.785061	-0.470791	0.438625	-0.019666	0.14048	-0.919157	9.790802	0.817828	0.188144	7.050645	1.05322	4.105683	-0.476948	-0.399722	-0.038359
-0.514138	1.530807	9.842915	-1.53022	1.741031	0.339379	-0.198746	-0.216089	-0.685545	1.904199	1.845281	9.94587	1.291343	-0.416739	0.592906	-0.046208	0.138186	-0.889906	9.903177	0.409543	-0.170827	7.350755	0.82159	2.944279	-0.518738	-0.41818	-0.006677
-0.346829	1.529718	9.618843	-1.379751	1.49937	0.028339	-0.172391	-0.199881	-0.650847	2.427901	2.06987	10.240138	1.446864	-0.35204	0.377877	-0.032572	0.095516	-0.93022	9.851884	0.876264	0.309305	7.440514	0.858187	2.393636	-0.518671	-0.400335	-0.03857
-0.510839	1.588972	10.013716	-1.287119	1.435207	0.303041	-0.185397	-0.188921	-0.692726	1.903098	1.788903	9.889183	1.451776	0.045799	0.50515	-0.058449	0.110686	-0.930672	9.668908	0.584805	-0.054673	7.161908	0.952425	2.057998	-0.47653	-0.367337	-0.040033
-0.40066	1.4156	9.787807	-0.889565	1.376995	0.178279	-0.184982	-0.237291	-0.654327	1.441365	1.789718	9.822873	1.329213	0.106769	0.320689	-0.071274	0.141252	-0.932404	9.901672	0.583524	-0.229992	6.454099	0.760978	2.581053	-0.490297	-0.369194	-0.009048
-0.164097	1.761772	10.19168	-1.197414	1.066508	0.327458	-0.171648	-0.192824	-0.678999	2.06975	1.788342	9.609612	1.329446	0.107977	0.135732	-0.046063	0.108617	-0.902249	9.730416	0.933868	0.127631	5.03505	0.539859	2.770629	-0.559698	-0.353196	-0.025764
-0.229845	1.185468	9.733329	-0.922802	0.914833	0.262867	-0.142292	-0.182988	-0.721926	1.324595	2.015208	9.764005	1.179146	0.414074	-0.077142	-0.07135	0.125931	-0.9314	10.025631	0.875117	0.132886	4.268007	0.591961	3.384431	-0.476392	-0.350319	-0.056398
-0.522057	1.701443	9.445668	-1.199423	0.790618	0.261644	-0.212866	-0.215714	-0.685196	2.137309	1.619622	10.063796	1.085685	0.351569	-0.077839	-0.020777	0.091303	-0.873097	9.60358	0.93216	-0.353825	3.740033	-0.147855	3.756639	-0.489879	-0.336809	-0.010722
-0.347818	1.357152	9.561266	-1.138487	0.791947	0.169487	-0.184282	-0.178336	-0.734954	1.840912	1.67616	9.661321	1.211287	0.506863	-0.137849	-0.046509	0.076905	-0.885892	10.025631	0.875117	0.132886	3.371704	-0.214462	4.155621	-0.476601	-0.366511	-0.055561
-0.174651	0.955178	9.619771	-1.105895	0.942967	0.417191	-0.157913	-0.179427	-0.682764	1.903313	1.676242	9.889089	1.610766	0.357628	0.015128	-0.072015	0.108467	-0.901697	9.794104	0.81857	0.367865	3.065885	-0.344548	4.799193	-0.505043	-0.415497	-0.05319
-0.341054	1.243716	9.901902	-1.107718	0.791742	0.200063	-0.19836	-0.22986	-0.682129	1.782269	2.239573	9.660587	1.546561	0.172453	0.074892	-0.034193	0.119725	-0.846129	9.969626	0.52729	0.250116	2.326395	-0.41028	4.985569	-0.504275	-0.368572	-0.024646
-0.455522	1.186358	9.899434	-1.169211	0.760724	0.199736	-0.19876	-0.198789	-0.703037	1.905408	1.845328	10.00251	1.576794	0.140771	0.290398	-0.07157	0.14018	-0.918054	9.720937	1.222271	-0.350388	2.508273	-0.8694	5.078794	-0.448573	-0.368582	-0.008837
0.005771	1.301633	10.079384	-1.294284	0.391718	0.163431	-0.184654	-0.181864	-0.720878	1.848165	1.676444	10.001159	1.951379	0.42327	0.016055	-0.045693	0.12501	-0.917602	9.85231	1.166891	0.370448	2.413481	-0.989568	4.835198	-0.477019	-0.398896	-0.053887
-0.338004	1.646531	10.074151	-0.650834	0.426498	0.07014	-0.157156	-0.18967	-0.693425	1.661872	2.464921	9.4318	1.237934	0.198795	0.136562	-0.032202	0.111908	-0.945574	9.846807	1.165655	0.070914	2.78119	-1.108073	4.58992	-0.462481	-0.368786	-0.008907
-0.337672	1.186999	10.07222	-0.71212	0.332278	0.222125	-0.170133	-0.213309	-0.70032	2.301351	2.351311	9.728201	0.71336	0.252657	0.259987	-0.007356	0.123091	-0.88973	10.497761	0.874037	0.14169	2.690002	-1.048803	4.742787	-0.504484	-0.384764	-0.023809
-0.459976	1.185393	9.672022	-0.498173	0.241084	0.220027	-0.19986	-0.226673	-0.643317	1.900033	2.126791	9.776189	0.897359	0.133355	0.104809	-0.05941	0.09215	-0.88662	10.032889	0.121365	0.429206	2.729516	-0.972055	6.20936	-0.476668	-0.384356	-0.023668
0.000121	1.41531	9.795601	-0.680893	0.51855	0.071723	-0.172005	-0.213652	-0.647432	1.892996	2.013845	9.436256	0.837091	0.25503	0.136798	-0.059039	0.108542	-0.901973	9.851459	0.585636	0.248162	1.562869	-0.830573	6.915893	-0.5323	-0.385173	-0.023949
-0.223578	1.761331	10.07686	-0.558497	0.488391	0.07088	-0.183868	-0.226706	-0.696555	1.897508	2.183027	9.662957	0.900359	0.349418	-0.108837	-0.020036	0.124088	-0.903804	9.909665	0.933958	0.250746	0.82343	-0.741151	6.88758	-0.490785	-0.400753	-0.022901
-0.398143	1.013992	9.899824	-0.8946	0.609049	0.135145	-0.197974	-0.243631	-0.678714	1.899818	2.239452	9.776284	1.116189	0.321296	-0.078115	-0.058449	0.110686	-0.930672	9.614159	0.644005	0.184101	-0.352239	-0.955076	6.464956	-0.490647	-0.383734	-0.039266
-0.063897	1.528787	9.453852	-0.893857	0.763403	0.076315	-0.198774	-0.18149	-0.720529	1.382483	1.846108	9.765071	0.965929	0.656247	-0.013249	-0.059184	0.138111	-0.889631	9.613598	0.411454	0.123205	-0.448082	-0.824856	5.670008	-0.490576	-0.38456	-0.023739
-0.453419	1.359165	10.013864	-1.170914	0.609151	0.01327	-0.171662	-0.175525	-0.696491	1.89904	2.014083	9.719454	0.595278	0.651946	-0.075246	-0.046139	0.093297	-0.901245	9.672345	0.527471	0.1248	-0.080482	-0.850017	5.271462	-0.504275	-0.368572	-0.024646
-0.52156	1.012144	9.442772	-1.231381	0.700365	0.076262	-0.211737	-0.222428	-0.709932	2.127662	2.238926	9.66784	0.719244	0.684178	-0.074826	-0.058744	0.109614	-0.916323	10.025766	0.817041	0.132639	0.315811	-0.933093	4.56745	-0.476948	-0.399722	-0.038359
-0.45577	1.531007	9.900882	-0.89661	0.333158	0.069331	-0.197974	-0.243631	-0.678714	2.188291	1.90093	9.782044	0.658275	0.744925	-0.105099	-0.046214	0.077976	-0.900241	10.143799	0.816771	0.13484	0.838015	-1.051674	4.38274	-0.489879	-0.336809	-0.010722
-0.231082	1.357551	9.6772	-0.590957	0.243088	0.005651	-0.157156	-0.18967	-0.693425	1.901242	2.126838	9.832828	0.320699	0.895548	-0.350498	-0.033307	0.122941	-0.889178	9.673175	0.64387	0.185201	2.163182	-1.045645	4.255657	-0.517971	-0.371255	0.021867
-0.463482	1.414435	9.502428	-0.621312	0.116889	0.279699	-0.185011	-0.202692	-0.68931	1.728438	2.183492	9.829249	0.165137	0.801996	-0.413209	-0.07135	0.125931	-0.9314	9.668773	0.642881	-0.054426	2.905263	-1.077986	4.681019	-0.476526	-0.386009	0.007387
-0.455315	0.89915	9.898227	-0.681965	0.083437	0.494005	-0.212866	-0.215714	-0.685196	1.84236	2.183229	9.775027	0.288246	0.772497	-0.351747	-0.072235	0.122716	-0.888351	9.908024	1.166014	0.191828	2.074448	-1.20838	5.173675	-0.531536	-0.319576	-0.042825
-0.403053	1.644883	9.675066	-0.745674	-0.16027	0.275552	-0.214367	-0.212528	-0.646384	1.677695	2.409207	10.168067	0.413108	0.866663	-0.443195	-0.045548	0.095441	-0.929945	9.905108	0.526189	-0.050519	1.269226	-1.235548	4.56544	-0.5323	-0.385173	-0.023949
-0.054989	1.530717	9.908676	-0.52963	-0.038427	0.460918	-0.156784	-0.186142	-0.7075	2.13185	2.577099	9.894683	0.351516	0.895537	-0.288817	-0.059039	0.108542	-0.901973	9.670549	0.352749	0.004244	0.744262	-1.360105	4.5985	-0.490367	-0.368368	-0.024576
-0.282811	1.416241	9.960593	-1.020482	-0.039326	0.339645	-0.129272	-0.211247	-0.662555	1.608256	2.296179	9.600368	0.258054	0.833032	-0.289514	-0.033533	0.07698	-0.886167	10.153412	0.470293	0.612611	-0.460067	-1.298838	4.174674	-0.490505	-0.385386	-0.008211
-0.060598	1.586952	9.624652	-1.112339	-0.10261	0.461552	-0.157141	-0.206969	-0.675933	2.244563	2.576788	9.783822	0.321791	0.98714	-0.28793	-0.05963	0.106398	-0.873274	9.668213	0.41033	-0.115322	-1.076529	-1.084094	3.900807	-0.531812	-0.353614	-0.010096
-0.286975	1.013185	9.731491	-0.716052	-0.28236	0.212147	-0.214381	-0.195228	-0.663876	2.185443	2.126157	9.668954	0.107755	1.16778	-0.193822	-0.032347	0.141477	-0.933231	9.904838	0.642341	-0.050025	-1.348718	-0.753654	4.389238	-0.489879	-0.336809	-0.010722
-0.2838	1.243675	9.903016	-0.80659	-0.349468	0.671335	-0.17089	-0.203067	-0.68966	1.89509	2.182932	9.549678	0.263004	1.202418	-0.501633	-0.058819	0.094294	-0.915319	9.610162	0.468788	-0.056268	-1.163945	-0.504176	3.990047	-0.490509	-0.366715	-0.055631
-0.512942	1.416165	9.899286	-0.286422	-0.250667	0.303429	-0.183525	-0.188579	-0.745614	1.901565	1.957847	9.832686	0.203904	1.387433	-0.777293	-0.058744	0.109614	-0.916323	10.026016	0.236034	0.07026	-0.860228	-0.618489	3.31709	-0.48932	-0.306077	0.018659
-0.6805	1.761904	10.124805	-0.440885	-0.404347	0.24004	-0.128515	-0.22149	-0.673215	2.062389	1.844388	9.269822	-0.016173	1.135749	-0.225068	-0.059039	0.108542	-0.901973	9.551281	0.410847	-0.057616	-1.234972	-0.859176	2.800014	-0.504137	-0.351553	-0.041011
-0.290439	1.184786	9.561656	-0.778408	-0.467385	0.239987	-0.183482	-0.240477	-0.693139	1.899579	1.73243	9.719217	0.350113	0.802335	-0.104776	-0.045988	0.123938	-0.903252	10.146675	0.526885	0.253417	-0.868336	-0.665168	1.91142	-0.490438	-0.367542	-0.040103
-0.454408	1.186599	9.956287	-0.991996	-0.377234	0.334071	-0.184268	-0.195635	-0.717462	1.845424	1.845341	9.888022	0.627458	0.744936	-0.16678	-0.045693	0.12501	-0.917602	9.614699	0.411701	0.183112	-1.396551	-0.690392	1.210499	-0.503925	-0.354032	0.005573
-0.456469	0.95635	9.841616	-1.572784	-0.10267	0.278869	-0.157156	-0.18967	-0.693425	2.011776	2.633455	9.665754	0.841573	0.593349	-0.013975	-0.071274	0.141252	-0.932404	9.787906	0.642859	0.007682	-1.79388	-0.419051	1.455149	-0.48995	-0.335983	-0.02625
-0.237722	1.298662	9.33584	-1.143958	-0.006038	0.06453	-0.156427	-0.165314	-0.739068	1.611536	1.84563	9.713267	0.655897	0.560735	-0.076104	-0.032787	0.169974	-0.906539	9.732461	0.527583	0.185807	-2.193137	-0.050898	1.210332	-0.46213	-0.354246	0.021311
-0.343364	1.358117	9.788679	-1.447482	0.359575	0.224685	-0.143807	-0.162503	-0.700605	2.131504	2.126407	9.837664	0.253416	0.493908	-0.015437	-0.059115	0.093222	-0.900969	9.547014	0.351782	-0.297491	-2.369677	0.273888	2.279137	-0.504067	-0.352379	-0.025483
-0.621101	1.877228	10.240108	-0.897526	0.304512	-0.11514	-0.200632	-0.199131	-0.650149	1.834676	2.408267	9.435379	0.192641	0.555661	-0.19984	-0.045913	0.139258	-0.904256	9.54908	0.410353	-0.17743	-2.024865	0.202265	3.409082	-0.504208	-0.350727	-0.056539
-0.456801	1.415883	9.843546	-0.438524	0.308744	-0.3004	-0.18504	-0.168093	-0.724294	1.897831	2.014035	9.662815	0.129838	0.463688	-0.324117	-0.071946	0.063578	-0.913036	9.669313	0.410577	-0.055415	-1.807392	0.262014	3.621955	-0.476739	-0.38353	-0.039196
0.000494	0.898336	9.793429	-0.867151	0.242843	-0.085561	-0.19876	-0.198789	-0.703037	1.906509	1.901706	10.059197	-0.084627	0.613463	-0.199488	-0.033898	0.120797	-0.860479	9.787771	0.700935	0.007929	-1.504626	-0.036782	3.041575	-0.47653	-0.367337	-0.040033
-0.226587	1.301075	9.904371	-0.622926	0.24677	-0.331544	-0.211352	-0.236199	-0.706516	2.077457	2.182988	10.006421	-0.360298	0.765473	-0.537307	-0.072091	0.093147	-0.900694	9.910455	0.120646	0.187378	-1.66384	-0.058785	2.155915	-0.490017	-0.353828	0.005643
-0.1188	1.356986	9.56572	-1.510568	0.27057	-0.083259	-0.170905	-0.185767	-0.707151	1.902774	1.957894	9.889326	-0.146727	0.582417	-0.261503	-0.058669	0.124935	-0.917326	9.911825	0.004741	0.24679	-1.580656	-0.258078	0.750656	-0.51888	-0.416527	-0.037733
-0.288668	1.817125	9.678017	-0.590794	0.211313	0.097138	-0.213266	-0.184644	-0.706104	2.24916	2.069956	9.953314	-0.29964	0.674464	-0.568992	-0.032497	0.110836	-0.931224	9.911015	0.353197	0.248274	-1.492874	-0.279823	-0.074758	-0.518045	-0.351757	-0.041081
-0.170653	1.588	9.849838	-0.745028	0.150873	-0.05674	-0.172005	-0.213652	-0.647432	2.306533	2.802192	10.011779	-0.391933	0.703953	-0.568773	-0.046283	0.122866	-0.888903	10.021054	0.002493	-0.230264	-1.370433	-0.370833	-0.10533	-0.490297	-0.369194	-0.009048
-0.342002	1.013709	9.844084	-0.469925	0.24818	-0.393298	-0.157527	-0.193198	-0.679349	1.899579	1.73243	9.719217	-0.205399	0.798299	-0.567684	-0.084696	0.109464	-0.915771	9.904007	0.525942	-0.110426	-1.800435	-0.375537	0.201878	-0.504275	-0.368572	-0.024646
-0.057382	1.76	9.795935	-0.255661	0.187371	-0.364235	-0.171248	-0.223894	-0.658092	1.841906	1.788868	9.718056	-0.237658	0.676254	-0.723064	-0.033603	0.121869	-0.874829	9.668213	0.41033	-0.115322	-1.764734	-0.291539	0.965424	-0.476247	-0.370642	0.022078
-0.400329	0.956068	9.785876	-0.164	0.219922	-0.486642	-0.199117	-0.219617	-0.671469	1.898932	2.070413	9.719502	-0.546288	0.702597	-0.661394	-0.072386	0.092075	-0.886344	9.85476	0.586378	0.427883	-1.821305	-0.115159	1.637177	-0.489879	-0.336809	-0.010722
-0.57102	1.013875	9.83963	-0.193382	0.341316	-0.361912	-0.185768	-0.192449	-0.67865	1.440719	2.127701	9.823157	-0.238709	0.613516	-0.507892	-0.032792	0.109764	-0.916874	9.845396	0.351849	-0.112268	-1.998854	0.273643	2.430612	-0.503996	-0.353206	-0.009955
-0.116449	1.185144	9.678703	-0.162014	0.339373	-0.178026	-0.141863	-0.248657	-0.666035	1.670873	2.1836	9.82804	-0.113378	0.767401	-0.352121	-0.033973	0.105477	-0.859475	10.089589	0.643667	0.372625	-2.269353	0.818213	2.91801	-0.489946	-0.354654	0.021171
-0.055854	1.185826	9.850375	-0.192465	0.369962	-0.177441	-0.199875	-0.209374	-0.660809	1.506854	2.071594	10.220796	-0.333614	0.428955	-0.602288	-0.006319	0.156947	-0.934786	9.847037	0.119792	-0.05335	-2.297036	0.812113	3.498848	-0.517695	-0.337217	-0.010862
-0.345343	1.012985	9.673525	-0.438207	0.339128	-0.269239	-0.199117	-0.219617	-0.671469	2.007025	1.957252	9.381987	-0.179571	0.428701	-0.263058	-0.059265	0.062581	-0.898962	9.845417	0.816704	-0.050383	-2.111618	0.780928	3.620581	-0.503925	-0.354032	0.005573
0.0014	1.185785	9.851489	-0.255738	0.156291	-0.334072	-0.214367	-0.212528	-0.646384	1.325588	2.127916	9.820739	-0.206646	0.705902	-0.506948	-0.046139	0.093297	-0.901245	10.262506	0.526121	0.135804	-1.959626	0.506176	3.621342	-0.518179	-0.387447	0.022704
-0.515003	1.185917	9.784614	-0.072296	0.221047	-0.548224	-0.183868	-0.226706	-0.696555	1.849829	2.070853	10.11477	-0.360453	0.764668	-0.414003	-0.058744	0.109614	-0.916323	9.728444	-0.112489	-0.116447	-1.411853	0.552947	2.243773	-0.476806	-0.401375	-0.007303
-0.458696	0.955868	9.727909	0.080561	0.066365	-0.397837	-0.197617	-0.222803	-0.710281	1.897939	1.957705	9.662767	-0.238358	0.643979	-0.476761	-0.032567	0.155725	-0.919885	9.966885	0.7591	0.131291	-1.233593	0.318037	1.357912	-0.531949	-0.370633	0.006269
-0.054824	1.300951	9.907711	0.202193	0.069719	-0.643477	-0.156813	-0.151543	-0.742484	1.89971	2.295783	9.776331	-0.419474	0.978739	-0.44275	-0.032127	0.127228	-0.946577	9.793678	0.527943	0.306722	-1.022692	0.141896	0.716163	-0.462552	-0.36796	-0.024435
-0.278647	1.819296	10.189694	0.017279	-0.053372	-0.706282	-0.199889	-0.192075	-0.678301	2.129325	2.633335	9.781451	-0.422709	0.732817	-0.352714	-0.045768	0.109689	-0.916598	9.847462	0.410419	0.007793	-0.743401	0.263676	0.867386	-0.504	-0.334534	-0.057376
0.172998	1.415427	9.855795	0.232055	-0.053066	-0.645559	-0.240707	-0.246035	-0.66359	1.954942	1.619566	9.607052	-0.420681	0.915195	-0.104274	-0.020036	0.124088	-0.903804	9.847037	0.119792	-0.05335	-0.806666	0.018108	0.929913	-0.475971	-0.336605	-0.010652
-0.336808	1.531889	10.130521	-0.073192	0.004533	-0.429068	-0.171662	-0.175525	-0.696491	2.125998	1.844518	9.554229	-0.237851	0.7039	-0.260369	-0.045618	0.14033	-0.918606	10.083507	-0.054976	-0.04969	-0.930827	0.019241	0.777542	-0.476318	-0.369816	0.00655
