1757_acc_x	1757_acc_y	1757_acc_z	1757_gyro_x	1757_gyro_y	1757_gyro_z	1757_mag_x	1757_mag_y	1757_mag_z	1758_acc_x	1758_acc_y	1758_acc_z	1758_gyro_x	1758_gyro_y	1758_gyro_z	1758_mag_x	1758_mag_y	1758_mag_z	1759_acc_x	1759_acc_y	1759_acc_z	1759_gyro_x	1759_gyro_y	1759_gyro_z	1759_mag_x	1759_mag_y	1759_mag_z
-1.115934	1.307528	11.251029	17.072718	95.024743	-1.601969	-0.86767	-0.178683	-0.542036	2.241021	1.900633	9.556694	-1.045271	0.385652	-0.048386	0.220257	0.255191	-1.217137	9.667538	0.70071	-0.114086	23.388269	-1.182979	-4.744896	-0.499657	-0.143036	0.288882
-1.515104	0.618761	11.297192	15.833288	94.813147	2.998329	0.102189	0.206444	-0.866082	1.950669	1.957407	9.437418	-1.817747	0.346597	-0.265193	0.066391	-0.418033	-0.784508	9.371492	0.643062	-0.179742	24.785621	0.07649	-4.786529	-0.518683	-0.344321	-0.180831
-1.930029	0.156383	10.548377	16.783686	97.950323	5.806638	0.102547	0.227271	-0.89765	1.895976	2.351971	9.60646	-1.635851	0.044514	-0.607159	0.080108	-0.385174	-0.815491	9.301606	0.582649	-0.780159	23.572582	1.740929	-3.475919	-0.532871	-0.359891	-0.195592
-2.177893	0.037564	9.576938	7.155173	98.458844	11.209236	0.07472	0.179651	-0.858552	2.306941	1.957187	9.954428	-1.575464	-0.019253	-0.114495	0.054451	-0.384252	-0.829289	9.538771	0.582356	-0.71585	22.969828	2.95411	-2.684911	-0.518896	-0.341842	-0.227415
-2.570465	-0.534873	9.964702	2.285593	98.243711	20.051291	0.145308	0.195077	-0.87779	2.122156	1.957036	9.384405	-1.389357	0.044228	-0.082886	0.054231	-0.370003	-0.815943	9.649931	0.696755	-1.072596	22.334097	3.767626	-1.708496	-0.490312	-0.294509	-0.19873
-0.364059	-0.829487	8.642447	-0.771496	93.607557	29.337058	0.157171	0.208131	-0.828667	1.327012	2.015303	9.877284	-1.852771	0.067001	0.225249	0.054156	-0.385324	-0.814939	9.596667	0.117118	-0.836541	21.051346	4.795156	-0.94469	-0.53315	-0.375258	-0.210283
2.934961	-0.032293	7.630199	-4.529708	78.120248	41.452693	0.146437	0.188363	-0.902526	2.126776	2.069887	9.611058	-2.102811	-0.180247	0.03762	0.054011	-0.355755	-0.802597	9.716225	0.407723	-0.713291	18.529482	5.052865	-0.111594	-0.518821	-0.36134	-0.164466
3.772301	-2.680291	6.441886	3.41215	59.516594	56.671563	0.200633	0.234892	-0.889434	1.842791	1.957907	9.774838	-1.697558	0.130089	0.256829	0.080033	-0.400494	-0.814487	9.412745	0.232192	-1.19879	15.505494	4.983969	-0.405942	-0.547405	-0.408673	-0.193151
5.351586	-2.054661	5.281803	-6.830235	41.579933	75.967941	0.214396	0.21369	-0.858216	1.667893	1.845475	9.657837	-0.76944	0.291751	0.783261	0.092644	-0.356601	-0.789074	10.418491	0.114239	-1.060763	13.455288	4.384388	-2.290534	-0.533221	-0.374431	-0.225811
6.899475	-1.76809	5.42678	-10.352813	17.724842	91.315287	0.213653	0.206633	-0.830064	1.898609	2.239405	9.719644	0.008333	0.730656	0.81908	0.079813	-0.386246	-0.801141	10.131944	0.233044	-0.586515	11.557071	3.975841	-4.848918	-0.505405	-0.374023	-0.22567
7.160671	-0.969423	4.184958	-5.545411	-8.870037	93.995857	0.18767	0.193953	-0.878838	1.905862	2.239689	10.059482	0.752716	0.984375	0.976342	0.093229	-0.414668	-0.828109	10.01034	0.348724	-0.767943	10.952898	2.9529	-6.706098	-0.51973	-0.406612	-0.224067
9.04902	-0.154264	7.123476	-9.938512	-49.221553	93.996807	0.170906	0.221528	-0.832432	2.183025	2.126062	9.555675	0.259151	1.039232	1.007319	0.092123	-0.403635	-0.771714	10.245169	0.406013	-0.8232	10.353385	2.200545	-8.106146	-0.505823	-0.406408	-0.223996
8.063198	0.188436	6.48061	-7.846681	-64.349561	81.515047	0.187327	0.155826	-0.829778	2.069318	2.013664	9.609802	0.102419	0.853686	0.943691	0.053415	-0.418108	-0.784233	10.239937	0.288625	-1.123229	11.389663	1.482139	-9.267779	-0.49108	-0.341434	-0.227274
7.831337	-0.501421	6.302701	-22.146789	-72.460383	67.04761	0.214797	0.182619	-0.837308	1.841367	2.070521	9.718293	0.130858	0.669485	1.034367	0.054231	-0.370003	-0.815943	10.125881	-0.000744	-0.946946	12.392352	0.520485	-10.58092	-0.491773	-0.407856	-0.19287
7.838101	-0.614856	6.643337	-33.403282	-84.160923	53.125024	0.214797	0.182619	-0.837308	2.182702	2.295054	9.555817	0.777491	0.523386	1.187575	0.066611	-0.432282	-0.797855	10.063584	0.463505	-1.065882	13.641829	-0.192094	-12.232289	-0.505401	-0.392694	-0.17825
6.601679	-0.32167	7.813962	-41.65137	-95.830801	40.388888	0.17395	0.163258	-0.857581	2.011537	2.126433	9.608688	0.436642	0.427885	1.063039	0.079807	-0.446455	-0.811476	10.070457	0.348837	-0.706935	13.728048	-0.241907	-13.301955	-0.547338	-0.390828	-0.225044
5.753417	0.485545	8.369169	-46.343567	-104.12926	30.026677	0.173592	0.14243	-0.826013	1.892888	2.070176	9.436304	1.115726	0.376185	0.90893	0.080479	-0.368781	-0.830844	9.712633	0.058278	-0.954402	15.849934	0.490737	-15.391171	-0.547546	-0.40702	-0.224207
4.682783	-0.199347	9.197913	-53.964159	-108.534151	24.887017	0.143808	0.198263	-0.838978	1.602428	2.183281	9.317075	0.957825	0.098644	0.844387	0.066837	-0.386321	-0.800865	9.955996	0.233696	-0.52991	15.147484	1.003166	-14.902126	-0.533221	-0.374431	-0.225811
3.901264	-0.194424	10.20568	-59.129799	-110.58148	24.347347	0.102189	0.206444	-0.866082	2.414257	1.618657	9.560084	1.048752	-0.052499	0.688817	0.066322	-0.373144	-0.77317	9.769874	0.348276	-1.011972	13.311501	0.907594	-12.205781	-0.533288	-0.392276	-0.193918
2.704364	-0.020023	10.467286	-61.653724	-113.226422	26.059456	0.101804	0.220215	-0.869498	2.410653	2.238197	9.447326	0.617638	0.035216	0.504373	0.066322	-0.373144	-0.77317	9.666012	0.409836	-0.235136	13.931489	2.052349	-13.25252	-0.491426	-0.374645	-0.210072
2.660015	0.614771	11.151064	-66.726377	-116.555942	35.555937	0.11591	0.237139	-0.887339	2.072622	2.182798	9.779863	1.172485	-0.021473	0.874194	0.066837	-0.386321	-0.800865	9.887636	0.464158	-1.009277	13.747058	2.764708	-14.172037	-0.547196	-0.39248	-0.193988
2.212783	1.077047	11.712618	-60.505259	-117.745037	29.07971	0.101789	0.237514	-0.88699	2.132605	2.182785	9.894351	1.976779	0.051456	0.659769	0.054451	-0.384252	-0.829289	9.538096	0.872736	-0.714614	12.399074	2.929499	-12.823321	-0.534056	-0.439201	-0.222463
2.4451	1.135046	11.887872	-62.380353	-118.553871	29.133293	0.088069	0.206818	-0.865733	1.901889	1.788855	9.832544	1.910626	-0.287045	0.718006	0.080623	-0.39835	-0.843187	9.833001	0.000426	-0.832634	13.012527	2.968927	-13.467484	-0.533571	-0.388971	-0.256029
1.420212	0.964674	12.151371	-62.243576	-118.192125	24.416671	0.044921	0.252783	-0.889009	2.131265	1.619385	9.780598	2.093922	-0.467274	0.500564	0.066467	-0.402713	-0.785512	9.657479	0.291706	-0.714885	11.593521	3.461778	-14.289803	-0.520148	-0.438997	-0.222392
1.425323	1.597737	12.438291	-64.096337	-116.189612	17.923087	0.057913	0.259123	-0.864622	1.961333	2.070495	9.947269	1.992275	-1.173747	0.493458	0.093084	-0.385099	-0.815767	9.658714	0.233877	-0.655226	11.227885	4.56989	-15.088308	-0.477936	-0.406826	-0.208328
0.907765	1.655069	12.314805	-66.357453	-111.49393	12.394145	0.043435	0.23867	-0.832705	2.591034	2.012837	9.790601	1.718985	-0.80889	0.43521	0.092789	-0.38617	-0.801417	9.350718	0.580289	-1.31822	10.179286	4.131867	-14.501795	-0.505681	-0.408061	-0.192941
0.334356	1.310593	12.245369	-69.79971	-110.10812	8.102647	0.070505	0.296533	-0.861143	2.130295	2.12636	9.781024	1.961693	-1.143876	0.555387	0.092343	-0.417883	-0.78506	9.658444	0.350029	-0.654731	8.491978	3.954218	-12.691824	-0.491773	-0.407856	-0.19287
0.347801	1.198605	12.927123	-69.858019	-111.907081	4.025572	0.015551	0.260247	-0.863574	1.73295	2.352673	10.05595	2.42518	-1.108942	0.802732	0.054081	-0.400644	-0.813936	9.714969	0.000696	-0.834835	8.822502	3.754546	-13.975572	-0.505401	-0.392694	-0.17825
-0.341894	1.773035	12.802468	-65.615401	-109.196124	2.61604	0.001031	0.291692	-0.884133	1.899925	2.183121	9.776236	2.983257	-0.948359	0.77395	0.054081	-0.400644	-0.813936	9.831361	0.232483	-0.891552	6.378462	3.885484	-15.648106	-0.505893	-0.405582	-0.239524
-0.919099	2.059693	12.565127	-60.861146	-103.131033	1.198176	-0.013461	0.288538	-0.869708	2.018359	2.35204	9.948715	3.567082	-1.157782	1.111447	0.04081	-0.401791	-0.79931	9.418653	0.0592	-0.899997	3.294054	3.721129	-15.605593	-0.519935	-0.441476	-0.175809
-1.436326	1.657492	12.439711	-59.710307	-96.028861	1.73959	-0.041688	0.271988	-0.851517	1.616395	2.465503	9.996987	5.141604	-1.200531	1.328086	0.092268	-0.433204	-0.784056	9.646069	0.463462	-1.313213	3.496697	3.09496	-17.100724	-0.50596	-0.423427	-0.207631
-1.78542	1.656535	12.148764	-56.938563	-89.314788	1.902026	-0.026482	0.316797	-0.929078	1.903768	2.070603	9.94606	4.304437	-1.456033	1.263215	0.080033	-0.400494	-0.814487	9.714449	0.697856	-0.771961	0.537103	2.773056	-16.568972	-0.51966	-0.407438	-0.208539
-1.676769	2.057336	11.868415	-58.904899	-85.643325	2.703352	-0.01309	0.292066	-0.883783	1.896299	2.182979	9.606317	4.177239	-1.705539	1.661398	0.079442	-0.402638	-0.785788	9.592825	0.348681	-1.015273	0.1124	2.416731	-14.79331	-0.519935	-0.441476	-0.175809
-1.105131	1.769473	11.82149	-54.779266	-82.981704	2.857392	-0.04246	0.29953	-0.858349	2.360772	2.013268	9.785765	3.614878	-2.20344	1.686823	0.053566	-0.387467	-0.78624	9.411645	0.231945	-1.258697	-1.141235	2.42323	-12.894112	-0.492332	-0.438589	-0.222252
-1.750808	2.168642	11.014988	-50.918823	-78.380156	2.645036	-0.042088	0.303058	-0.872425	2.361765	2.125976	9.8425	3.39336	-2.60584	1.836784	0.066247	-0.388464	-0.772166	9.710878	0.813266	-0.951188	-2.5656	2.743486	-8.856534	-0.506031	-0.4226	-0.223159
-1.623885	1.941447	11.641634	-49.952589	-70.244589	1.394395	-0.114606	0.356487	-0.870266	2.125483	2.745853	9.611627	3.634777	-3.090735	1.431391	0.066096	-0.419105	-0.770159	9.066777	0.52536	-0.724901	-3.404662	3.532583	-5.587222	-0.492612	-0.453955	-0.236943
-2.085593	2.400587	11.464097	-45.412786	-57.63459	-2.584635	-0.071858	0.341592	-0.867898	1.903013	2.464916	9.946392	1.439599	-3.270685	1.242866	0.068018	-0.382033	-0.858264	9.415081	0.17461	-1.079223	-4.411417	4.440009	-4.946113	-0.492328	-0.45726	-0.174831
-2.092274	2.399139	11.122978	-41.466687	-40.733024	-8.485808	-0.100114	0.359641	-0.884691	2.125375	2.802184	9.611675	-0.295071	-3.688872	0.867374	0.053786	-0.401716	-0.799586	9.824083	0.52138	-1.249757	-4.342074	5.605502	-5.22698	-0.506098	-0.440445	-0.191266
-2.493179	2.571754	11.115908	-38.661649	-23.380139	-16.799546	-0.028368	0.333754	-0.893682	1.785334	1.901684	9.773581	-2.309361	-4.233251	0.490403	0.066171	-0.403785	-0.771162	9.291277	0.289796	-1.380464	-6.740409	6.453703	-5.252904	-0.506516	-0.47283	-0.189592
-2.513222	2.567412	10.092552	-38.759956	-17.320535	-28.018763	-0.085622	0.362794	-0.899117	1.895198	2.126601	9.54963	-4.415183	-4.686811	0.114261	0.066467	-0.402713	-0.785512	9.484542	-0.055604	-0.53995	-6.922019	7.564392	-6.235514	-0.492679	-0.4718	-0.20505
-3.120367	2.67523	8.319454	-35.026149	-32.27387	-44.223339	-0.073387	0.379377	-0.86407	0.795626	2.015751	9.243368	-6.300158	-4.77004	-0.196364	0.080108	-0.385174	-0.815491	10.071557	0.349084	-0.647028	-9.258381	8.257033	-5.985866	-0.50659	-0.453333	-0.252541
-3.735815	2.851147	9.04702	-36.910194	-51.619071	-63.184467	-0.086736	0.352209	-0.856889	2.303769	2.351406	9.84148	-7.605815	-5.372576	0.320672	0.066316	-0.433354	-0.783505	9.997695	0.578309	-1.425929	-13.270749	8.343847	-6.888589	-0.505752	-0.407234	-0.208468
-5.204761	3.373541	10.043597	-26.382216	-49.991609	-77.669696	-0.086007	0.376565	-0.902532	2.59302	2.238253	9.90407	-8.129273	-5.140957	1.401539	0.066391	-0.418033	-0.784508	9.527902	0.521808	-1.315166	-13.930773	8.924312	-10.006171	-0.534194	-0.45622	-0.206098
-6.832599	3.03709	11.658597	-23.697505	-28.540043	-84.170944	-0.128341	0.34309	-0.866501	1.847219	2.803102	10.058747	-8.807521	-4.970215	2.11174	0.066171	-0.403785	-0.771162	10.237736	0.28813	-1.243043	-15.787854	8.558762	-10.79227	-0.492399	-0.456434	-0.190359
-7.76096	3.092541	11.015639	-13.532802	-5.144284	-85.752879	-0.142461	0.343465	-0.866152	1.900464	1.901469	9.775999	-8.869263	-4.770226	4.240831	0.054081	-0.400644	-0.813936	9.94144	0.81149	-1.24632	-17.296361	8.300719	-10.021567	-0.520494	-0.472208	-0.20519
-10.458955	14.665411	16.922302	-53.172856	72.139063	-71.372643	-0.129126	0.387932	-0.890825	2.130295	2.12636	9.781024	-8.671564	-3.615459	6.225491	0.066542	-0.387392	-0.786516	10.181211	0.637463	-1.06294	-18.000259	7.977758	-8.611689	-0.520427	-0.454363	-0.237083
-11.350422	3.443661	11.856586	7.600382	65.057118	-77.768457	-0.17186	0.385527	-0.875701	2.415681	1.506043	9.616628	-8.446752	-2.766359	8.114655	0.02828	-0.370153	-0.815392	9.529542	0.289751	-1.256248	-19.17305	7.882717	-8.69867	-0.534544	-0.47076	-0.236316
-12.368132	2.585438	12.458308	48.452784	89.371486	-45.6456	-0.140946	0.32298	-0.887472	2.706488	1.843629	9.792876	-10.203447	-2.250612	10.245548	0.028204	-0.385474	-0.814388	10.060147	0.52084	-1.245356	-20.220615	7.815558	-8.48063	-0.52105	-0.521612	-0.187151
-2.77507	3.307321	8.442496	96.136428	100.764368	-36.456383	-0.099714	0.32857	-0.863784	2.253888	2.126476	10.179919	-12.236774	-1.64499	12.161319	0.053496	-0.342578	-0.774901	10.363336	0.347667	-0.821247	-19.175134	7.234635	-8.145475	-0.520983	-0.503767	-0.219044
3.11815	-0.432095	8.200381	46.760268	109.913965	-26.319119	-0.071487	0.34512	-0.881974	1.924318	2.071409	10.908933	-13.845405	-1.532777	15.336521	0.027539	-0.402938	-0.784685	9.877036	0.287457	-1.609087	-20.75741	7.465182	-10.280089	-0.534331	-0.473239	-0.189733
5.986967	-1.799213	11.432924	60.468956	104.017143	-75.047267	-0.128312	0.308492	-0.831518	1.912445	1.958274	10.342443	-16.052369	-7.04811	19.842621	0.054156	-0.385324	-0.814939	10.005958	0.812591	-0.945685	-21.102428	6.81975	-16.020976	-0.492958	-0.487166	-0.219741
2.046882	2.846961	9.159482	74.070351	117.421545	-81.127589	-0.08485	0.335252	-0.892285	1.504034	2.524528	12.825388	-26.865084	-14.161211	22.167886	0.066171	-0.403785	-0.771162	10.115633	1.565826	-1.299712	-21.185061	5.520927	-23.562314	-0.507146	-0.502737	-0.234502
0.001198	3.643667	7.020324	67.005553	144.231364	-66.956451	-0.05698	0.330975	-0.878907	1.597251	1.340423	11.694018	-35.670903	-28.237107	28.587564	0.015084	-0.35598	-0.80177	10.541411	1.800151	-0.572137	-22.45744	3.265638	-21.835735	-0.534331	-0.473239	-0.189733
-1.669373	1.701789	9.309692	21.755419	143.342292	-26.040876	-0.028339	0.299155	-0.858698	1.791003	2.582656	15.492332	-22.272085	-39.448559	19.731277	0.04118	-0.385399	-0.814664	10.314265	1.279738	-0.159416	-24.055431	2.321912	-13.941351	-0.465631	-0.518317	-0.233454
-1.472491	0.845349	10.56018	19.77269	125.250319	-2.682374	0.027371	0.325199	-0.866927	1.89026	1.790765	11.98364	-8.440669	-57.491706	15.06198	0.054162	-0.325114	-0.804604	10.497376	1.51312	0.204316	-25.440792	2.254395	-7.885091	-0.520353	-0.473861	-0.174135
-1.535603	1.246275	10.276491	26.078172	110.116505	4.229665	-9.8e-05	0.298406	-0.859397	2.575778	2.014604	11.771778	-5.828262	-66.032063	12.759504	0.015599	-0.369156	-0.829466	11.503411	1.743871	0.403733	-25.912644	2.02558	-3.664808	-0.479401	-0.501502	-0.249889
-1.640339	1.593179	10.787389	30.869707	91.500794	5.906568	-0.013447	0.271239	-0.852216	2.232696	2.071676	11.877851	-6.432479	-74.803955	11.407846	0.027319	-0.388689	-0.771339	11.682526	1.802036	0.527095	-21.004247	0.913296	-0.896106	-0.478842	-0.47077	-0.220508
-0.362376	-2.252938	11.591662	44.887154	28.043221	-12.58511	0.000631	0.322762	-0.90504	1.946424	2.522954	11.985465	-5.68802	-81.935813	10.443527	0.02865	-0.353761	-0.830745	12.511513	2.033192	0.723211	-11.349617	0.532457	-5.116269	-0.521262	-0.519133	-0.233735
-0.483292	1.997094	11.436732	42.077876	7.413793	-15.856717	0.014037	0.280732	-0.842254	1.946855	2.297632	11.985275	-5.521477	-88.283153	10.318919	-0.023694	-0.325564	-0.80295	12.391975	2.207443	0.661845	-6.062065	-1.595628	-10.473433	-0.520144	-0.457668	-0.174972
-0.249354	1.985548	8.770204	38.806722	13.516855	-16.024135	0.028157	0.280358	-0.842603	2.57731	1.84566	11.828275	-4.376805	-97.813216	10.841702	0.001517	-0.358199	-0.772795	11.685692	1.860854	0.707063	-1.810379	-0.015097	-2.122567	-0.507354	-0.518929	-0.233665
-0.410148	2.217851	9.33636	18.935289	14.040741	-5.315954	0.015151	0.291317	-0.884482	2.571482	1.732762	11.544982	-1.308842	-104.539369	8.496005	-0.011164	-0.357202	-0.786869	11.145858	1.33716	0.155772	3.513845	1.892567	4.542381	-0.507075	-0.503563	-0.218974
-0.346415	0.955302	9.61643	9.047813	13.461819	-1.678008	0.015923	0.263775	-0.87765	2.693842	1.113148	11.830077	1.144133	-110.914476	7.540598	-0.02473	-0.359421	-0.757893	10.859601	1.804668	0.69141	3.154466	3.920263	3.555962	-0.507004	-0.504389	-0.203446
0.124035	0.727858	10.249757	14.180746	8.017216	-4.602779	0.043049	0.252441	-0.836121	2.979922	1.394214	11.779719	4.484617	-117.981222	6.116609	-0.076634	-0.359721	-0.75679	10.910509	1.977031	0.273904	2.357915	5.456753	-3.325139	-0.47905	-0.486962	-0.21967
-0.099871	1.361087	10.532223	16.669687	4.874426	-5.611759	0.0285	0.318485	-0.891663	3.103144	0.323956	12.064433	7.359476	-125.208799	4.875626	-0.089164	-0.328083	-0.772872	10.797439	2.210841	0.572226	1.802901	5.917168	-9.590393	-0.479188	-0.503981	-0.203306
0.17205	1.185419	9.797976	12.309267	2.813666	-4.559289	0.044521	0.283854	-0.909916	3.566348	1.449894	12.301612	11.077875	-131.803652	2.315998	-0.102366	-0.374119	-0.769585	9.83822	2.965023	-0.161049	0.316673	6.699938	-11.850205	-0.520983	-0.503767	-0.219044
-0.169001	0.841501	9.903554	7.622964	1.970502	-2.596713	0.001417	0.277921	-0.880717	3.678367	0.5482	12.076712	14.16613	-139.416174	-0.747482	-0.102441	-0.38944	-0.768581	9.781539	2.907576	-0.042583	-1.946908	7.402583	-9.583901	-0.479326	-0.521	-0.186941
-0.05907	1.012778	9.679092	5.259328	0.749822	-1.628362	0.028886	0.304714	-0.888247	3.197856	0.886287	11.161092	13.299293	-146.85427	-0.667937	-0.141589	-0.375416	-0.754408	9.537211	2.673835	-0.527229	-6.846428	7.879677	-4.159103	-0.493096	-0.504185	-0.203376
-0.28916	0.955261	9.617544	3.02229	0.237933	-0.771533	0.044178	0.245727	-0.860857	4.021666	0.378467	11.970544	19.795081	-156.169428	-4.362121	-0.129203	-0.377485	-0.725984	9.712734	2.382555	-0.644978	-12.36975	7.902627	0.59797	-0.521471	-0.535326	-0.232898
0.174236	1.243343	9.911924	1.556136	0.467185	0.095117	0.001817	0.24685	-0.859809	3.255164	-0.632503	13.708594	34.411744	-156.070972	-9.805876	-0.129423	-0.363237	-0.712638	10.072333	2.382981	-0.338841	-15.687661	7.774919	2.933408	-0.506795	-0.488197	-0.204283
0.063316	0.899501	10.078808	1.070096	1.140994	0.107467	0.043807	0.242198	-0.846781	4.090588	1.39283	12.595642	24.267741	-176.464821	-8.598555	-0.193932	-0.347219	-0.726613	9.182014	2.674397	-0.593739	-16.377705	7.049649	1.839084	-0.507701	-0.55214	-0.216463
0.057748	0.898294	9.794543	0.674763	1.411895	0.450354	0.030429	0.24963	-0.874584	3.919748	1.055218	12.648371	25.932223	-186.737152	-11.689511	-0.207505	-0.409648	-0.707973	9.301572	2.965002	-0.470488	-16.408078	5.865428	-1.975512	-0.521538	-0.553171	-0.201005
-0.05268	1.416316	10.0219	0.801417	1.93282	0.642463	0.029643	0.294471	-0.898907	3.803647	1.562408	12.64638	31.964522	-198.169471	-12.075648	-0.220701	-0.395475	-0.694351	9.18354	2.965272	-0.472689	-16.129012	4.462833	-5.270524	-0.479117	-0.504807	-0.187778
0.169864	1.127495	9.684029	-0.913269	2.233166	0.560276	0.043378	0.307867	-0.902672	3.618084	1.336888	12.019528	37.801482	-210.287055	-11.451436	-0.208905	-0.399687	-0.637228	9.250684	3.257495	0.008903	-17.11185	2.647947	-7.580963	-0.521329	-0.536978	-0.201842
-0.394803	1.014715	10.070383	0.398661	1.693103	-0.065635	0.043807	0.242198	-0.846781	3.971423	2.237909	12.480657	43.519122	-221.954159	-9.651394	-0.234933	-0.415158	-0.635673	8.714847	2.909018	-0.302019	-18.819019	2.104785	-8.886305	-0.494002	-0.568129	-0.215555
0.001607	0.898577	9.850282	0.119793	1.293693	-0.193996	0.045293	0.256312	-0.903085	3.627371	2.801955	12.587157	51.476577	-232.36329	-8.176147	-0.287056	-0.401209	-0.621224	8.902225	3.201465	0.301588	-21.576841	1.314082	-10.278329	-0.493234	-0.521204	-0.187011
0.406552	1.301343	10.087178	0.266395	0.562409	-0.696991	0.059399	0.273236	-0.920926	5.824096	3.023561	13.086402	62.64243	-240.353234	-4.238894	-0.286761	-0.400137	-0.635574	8.77869	3.200499	-0.000148	-24.300245	0.547779	-11.059376	-0.493864	-0.55111	-0.23192
-0.392783	1.302406	10.185296	2.464335	-0.30982	-1.484197	0.028143	0.297657	-0.860095	6.390318	3.529126	12.70244	70.271846	-242.163015	0.928379	-0.301213	-0.405572	-0.563549	8.01148	3.202255	-0.014454	-26.557619	-0.534099	-10.740435	-0.493443	-0.537396	-0.186174
0.170729	1.472386	9.74233	3.316221	-0.976354	-1.988173	0.014794	0.27049	-0.852914	7.079309	2.570072	12.546222	78.271235	-241.486668	6.983887	-0.353783	-0.423336	-0.532743	8.307932	3.085675	0.050461	-28.983816	-2.178489	-12.282364	-0.493443	-0.537396	-0.186174
0.108363	0.839364	9.454296	5.734755	-0.988828	-2.608705	0.043035	0.26974	-0.853613	6.820119	1.893351	11.124828	72.580731	-241.770966	11.230838	-0.367424	-0.440875	-0.502764	8.547568	2.969724	0.234089	-31.342817	-4.019412	-12.540074	-0.52168	-0.551518	-0.232061
-0.2277	1.300834	9.847517	5.794356	-1.23405	-2.643531	0.029286	0.273643	-0.867339	7.679627	1.4409	10.916024	65.222446	-236.420012	23.887182	-0.406867	-0.427924	-0.474241	8.364342	3.259273	-0.067511	-33.239532	-6.541367	-11.848852	-0.507697	-0.570812	-0.169042
-0.221884	0.957391	10.130335	5.273007	-1.329374	-2.582242	0.030458	0.215031	-0.8396	7.553523	-1.038043	10.175204	34.888724	-235.953953	34.534541	-0.43341	-0.430218	-0.44499	8.718709	3.142311	-0.061402	-33.77511	-9.47086	-9.724275	-0.507492	-0.535948	-0.2173
-3e-06	1.587634	9.796325	6.039369	-1.20113	-2.735706	0.057913	0.259123	-0.864622	5.463205	-2.386902	9.167672	-29.184913	-237.283904	28.827879	-0.420578	-0.400574	-0.432924	8.899329	3.026496	0.121125	-34.218498	-11.840574	-8.458373	-0.479259	-0.503155	-0.218833
-0.11212	1.358434	9.906839	6.440661	-0.863304	-2.54736	0.002574	0.236608	-0.870469	-5.971943	-9.073222	3.882949	-119.616271	-220.066723	-28.475824	-0.448087	-0.481613	-0.369955	9.493061	2.909735	0.311356	-35.029777	-13.439346	-7.92827	-0.493722	-0.552762	-0.200864
0.232562	1.300985	9.970132	6.042491	-0.86586	-2.484919	0.016666	0.270832	-0.905802	-0.819746	-3.955219	5.807325	-193.189698	-128.086452	-127.920388	-0.447862	-0.435652	-0.372966	9.429664	3.373736	0.132513	-34.945853	-14.0126	-8.659298	-0.508118	-0.584525	-0.214788
-0.452306	1.359406	10.070717	6.474846	-0.309986	-2.538466	0.016294	0.267303	-0.891726	-7.229771	-0.838542	13.091905	-139.370757	11.020336	-151.119551	-0.435111	-0.481538	-0.370231	9.200452	2.794752	0.425173	-34.457292	-13.753523	-9.884729	-0.508047	-0.585351	-0.199261
0.233717	1.243784	10.026743	6.230608	-0.470353	-2.049676	0.030043	0.263401	-0.877999	-11.011959	1.199661	16.694189	-11.766039	114.413811	-129.95611	-0.461133	-0.436799	-0.35834	10.016504	2.906789	-0.098088	-34.205044	-11.931607	-11.483471	-0.466812	-0.616298	-0.212904
0.004782	1.129067	10.021807	6.932759	-0.396559	-2.847875	0.016323	0.232705	-0.856743	-8.845422	-0.103322	12.945393	90.633595	150.08119	-100.6396	-0.422135	-0.481463	-0.370506	10.252568	2.906249	-0.093687	-33.603774	-9.599493	-12.016298	-0.49386	-0.569781	-0.1845
-0.174159	1.817042	9.680243	4.572853	-0.344722	-2.962914	0.043435	0.23867	-0.832705	-8.811546	-1.23342	9.03873	110.802539	159.932721	-78.240609	-0.421319	-0.433358	-0.402217	10.66292	2.672258	-0.266693	-33.056941	-6.970828	-11.664104	-0.480582	-0.599483	-0.229339
-0.339035	1.531406	10.016815	2.460715	-0.111522	-2.707696	-0.013847	0.302309	-0.873123	-9.065474	-1.743296	5.183183	74.292802	153.892813	-54.47232	-0.433936	-0.537461	-0.437965	10.083068	2.501605	0.260723	-33.217003	-4.069374	-11.310649	-0.521818	-0.568537	-0.215696
-0.227576	1.128509	9.846794	1.572116	-0.335315	-2.310086	0.057927	0.241824	-0.84713	-9.031655	-1.969674	4.05141	20.91664	150.658311	-28.654014	-0.382252	-0.522912	-0.425722	9.5475	2.036976	-0.050694	-33.375119	-3.037802	-13.515308	-0.466536	-0.58226	-0.245633
0.231407	1.358185	9.91352	2.12729	0.063994	-2.059848	0.015923	0.263775	-0.87765	-8.167504	-1.689591	4.126421	-25.920557	149.641284	-6.013128	-0.356521	-0.508513	-0.412927	9.672115	1.573334	0.249064	-35.172472	-2.685059	-15.710752	-0.50826	-0.582873	-0.245844
-0.057299	1.645117	9.795453	2.034408	-0.121522	-2.001259	0.044193	0.228427	-0.843365	-7.92021	-1.745689	4.924163	-54.747852	158.634537	15.139799	-0.342439	-0.519471	-0.469598	9.735803	1.458036	0.489297	-36.598202	-3.079305	-16.528798	-0.480649	-0.617328	-0.197446
0.231117	1.760276	9.915209	2.156355	-0.087784	-2.21574	0.031201	0.222087	-0.867752	-7.181779	-0.111405	7.318909	-81.874672	179.083713	25.371896	-0.329608	-0.489827	-0.457531	9.554933	2.154859	0.369149	-38.856367	-3.848968	-16.822535	-0.452766	-0.599075	-0.229198
-0.459111	1.530283	9.730323	2.463018	0.038313	-2.367915	0.030444	0.23233	-0.857092	-5.604114	-0.338736	8.427512	-79.579914	211.49778	28.03951	-0.354604	-0.531651	-0.511368	8.909597	1.924782	0.535776	-40.504839	-4.913785	-17.942153	-0.480444	-0.582464	-0.245704
0.007998	1.302115	10.19309	3.568447	0.412942	-2.426345	0.001445	0.243322	-0.845733	-4.36411	0.448908	9.982832	-58.904225	243.077282	24.393569	-0.302105	-0.468997	-0.530835	9.145101	1.69169	0.479282	-41.536202	-6.505204	-18.205849	-0.466674	-0.599279	-0.229268
-0.340889	1.01395	9.900937	5.440223	1.009746	-2.790055	0.030429	0.24963	-0.874584	-3.085798	0.559672	10.575919	-48.221471	260.888177	13.388521	-0.288243	-0.465707	-0.57416	9.262033	1.691173	0.421576	-42.096722	-8.328289	-16.606071	-0.494352	-0.582669	-0.245774
-0.342002	1.013709	9.844084	6.366926	1.963245	-2.470541	0.014794	0.27049	-0.852914	-1.412667	0.500358	10.780849	-52.940362	267.272616	-3.106546	-0.289499	-0.485314	-0.515758	8.902704	1.574595	0.114944	-41.91113	-9.570679	-14.706154	-0.494836	-0.632899	-0.212207
-0.22898	1.530359	9.79163	7.665676	3.532043	-2.050095	0.043778	0.276797	-0.881764	-0.188378	1.287386	11.599855	-63.465408	271.210951	-21.972936	-0.235453	-0.462191	-0.618312	9.034617	1.286911	0.834792	-40.271339	-9.669174	-13.489245	-0.480165	-0.567098	-0.231013
-0.236277	0.839371	9.390762	7.585289	5.031887	-1.534795	0.003303	0.260964	-0.916113	-1.2691	2.698313	12.314386	-65.76454	276.086167	-37.092758	-0.209797	-0.463113	-0.604514	9.269196	1.925208	0.841913	-39.004249	-9.608495	-13.00517	-0.467095	-0.612993	-0.275015
0.22555	1.759069	9.630944	7.627605	6.187647	-0.442749	0.002202	0.233079	-0.856393	-1.086063	2.980069	12.828006	-66.085133	279.486965	-42.885189	-0.209577	-0.477361	-0.61786	8.913148	1.344516	0.653118	-37.496687	-9.411025	-13.836682	-0.452837	-0.598249	-0.244726
-0.347777	1.29971	9.561025	6.503403	7.187091	0.404765	0.043407	0.273269	-0.867689	-1.082976	3.261864	12.998162	-69.528801	276.411824	-38.017315	-0.157303	-0.460669	-0.634316	9.387904	1.634557	0.842878	-35.402253	-8.685782	-15.222898	-0.480653	-0.598657	-0.244866
-0.055072	1.6456	9.909159	5.462869	7.33449	0.532827	0.072034	0.258749	-0.864971	-0.008462	2.81075	14.77537	-88.941809	255.0272	-26.192884	-0.156567	-0.488094	-0.675358	9.923991	1.402027	1.091421	-34.287513	-7.697617	-15.751155	-0.494978	-0.631246	-0.243262
-0.005529	1.528987	9.511818	3.166091	7.256038	1.090184	0.015937	0.246476	-0.860158	0.196658	2.924368	16.308361	-103.282131	217.912078	-6.197278	-0.130315	-0.426662	-0.679924	9.446245	1.924803	0.845214	-32.02711	-7.459948	-14.293634	-0.48107	-0.631042	-0.243192
-0.284049	1.588324	9.904464	1.457106	7.946841	1.811687	0.0293	0.256344	-0.849848	3.883571	5.283637	16.727561	-118.796598	181.695695	22.747687	-0.104293	-0.471401	-0.691815	9.109194	1.697017	1.736226	-28.806517	-7.848255	-11.125229	-0.480932	-0.614023	-0.259557
0.009236	1.130032	10.249219	-0.220167	8.978952	2.262635	0.01518	0.256719	-0.849498	0.014296	2.532335	18.512138	-111.410334	295.286124	18.705457	-0.076859	-0.405682	-0.75378	9.452942	0.938499	1.080639	-25.967598	-8.619143	-9.542694	-0.466958	-0.595974	-0.29138
-0.111296	1.760766	9.965381	-0.740771	8.85012	2.568714	0.057913	0.259123	-0.864622	2.948928	2.134814	21.177673	-92.001059	265.204977	31.616522	-0.038817	-0.408673	-0.711558	9.105718	0.824641	1.432983	-22.790976	-9.510213	-8.05247	-0.452979	-0.596596	-0.275782
-0.107417	1.014749	10.132803	-1.722747	9.13081	1.809414	0.05867	0.24888	-0.875282	6.598227	0.774514	19.498078	-114.758537	225.228225	56.54301	-0.011094	-0.402091	-0.798207	8.807646	1.638133	1.371036	-18.062317	-10.136207	-5.041043	-0.481767	-0.678793	-0.256209
0.294146	1.474233	10.199381	0.173698	8.994023	1.096376	0.057156	0.269366	-0.853962	8.33069	1.445147	17.15726	-152.143568	235.131748	75.820012	0.015084	-0.35598	-0.80177	8.392602	1.522431	1.243024	-12.384456	-11.304922	-2.458262	-0.509095	-0.647643	-0.242496
-0.282604	1.129033	9.959386	1.763877	9.293337	-0.252722	0.044521	0.283854	-0.909916	9.132168	2.741529	19.779488	-121.480521	304.110707	110.572369	0.054382	-0.339362	-0.81795	8.514611	1.232523	1.42371	-5.925162	-11.311062	0.360697	-0.467371	-0.64703	-0.242285
-0.159145	1.073439	10.416197	3.746768	8.953685	-2.012034	0.058299	0.245352	-0.861206	15.851888	0.927968	21.730671	-60.375101	322.051451	134.451243	0.054897	-0.352539	-0.845646	8.336887	1.523308	1.421644	0.050712	-10.126694	3.236916	-0.466958	-0.595974	-0.29138
-0.000827	1.185302	9.737783	8.642694	9.186342	-4.261147	0.057184	0.234767	-0.818978	26.373801	-7.016519	42.212521	-49.558483	281.587198	113.550991	0.068023	-0.321823	-0.847929	7.985126	1.466537	1.534608	1.464952	-8.309764	5.484854	-0.481488	-0.663427	-0.241518
-0.230834	1.012902	9.675752	9.800684	10.055926	-7.286577	0.043049	0.252441	-0.836121	28.785315	-7.350286	-11.973501	4.002725	87.484246	64.609475	0.106506	-0.353311	-0.832399	8.048679	1.409315	1.775089	1.094365	-6.226473	7.982544	-0.481283	-0.628563	-0.289776
-0.224153	1.01435	10.01687	10.804434	9.832185	-8.826574	0.059799	0.242166	-0.900018	36.46939	16.654004	13.232518	-99.320953	106.798594	-6.221054	0.132978	-0.306128	-0.850312	8.052251	1.293904	1.954315	1.459833	-5.685367	11.982694	-0.494494	-0.581016	-0.276829
-0.165951	1.244316	10.075802	13.921871	9.808612	-10.890804	0.044936	0.235484	-0.871517	35.789613	8.374521	12.984482	28.026054	96.654056	-40.283	0.145659	-0.307124	-0.836238	7.807403	1.757322	1.532543	5.914991	-5.884452	15.024125	-0.481216	-0.610718	-0.321668
-0.389028	0.728714	10.353442	13.085089	9.39364	-12.581995	0.057899	0.276422	-0.882114	38.268069	6.38883	2.221477	41.724818	27.044618	-46.235491	0.185548	-0.288363	-0.881118	8.391076	1.231557	1.121974	11.2168	-6.545257	15.680543	-0.481145	-0.611544	-0.306141
-0.219782	1.130198	10.244765	12.309781	9.103614	-14.424702	0.030043	0.263401	-0.877999	39.592894	4.304364	4.7951	16.765883	-71.178216	-29.044853	0.184882	-0.305827	-0.851414	8.797877	1.577832	0.831626	17.14533	-6.694876	17.402099	-0.494982	-0.612575	-0.290683
-0.166158	1.531523	10.077009	10.237222	7.303157	-16.410929	0.057913	0.259123	-0.864622	39.263243	13.769865	6.381723	39.625605	-189.892301	23.40378	0.184512	-0.32222	-0.836061	9.860883	2.214732	0.973968	21.829019	-5.02288	20.005954	-0.494565	-0.58019	-0.292357
-0.567105	1.76158	10.070179	7.178542	5.16945	-19.227885	0.086911	0.248131	-0.87598	0.094219	3.5353	6.172812	97.22374	-188.446109	8.04997	0.107027	-0.306278	-0.84976	11.075918	3.194244	-0.196858	23.921802	-3.268959	16.749861	-0.495332	-0.627115	-0.320902
-0.636898	2.161058	9.445371	-2.495661	0.576676	-24.734298	0.05717	0.252067	-0.83647	2.563378	-2.539533	21.561752	1.263903	-124.848171	17.699081	0.106656	-0.32267	-0.834407	12.360278	4.001619	-0.828163	18.338431	3.204091	7.049833	-0.466887	-0.5968	-0.275852
-0.512652	1.014074	9.897597	-11.253263	-8.768007	-30.964917	0.017066	0.239761	-0.884895	4.196005	3.699592	9.655954	130.906971	-83.181022	44.114712	0.068093	-0.366713	-0.859268	12.958798	3.246763	-0.460931	5.740023	11.462189	8.706548	-0.494706	-0.578537	-0.323413
0.131788	0.786989	10.64797	-11.993154	-18.884854	-39.041218	0.016337	0.215405	-0.839251	1.797336	6.516872	5.361999	107.075143	-105.1155	-11.953937	0.067728	-0.322895	-0.833579	11.18086	2.668076	-0.975672	-13.119869	12.779916	19.741893	-0.495332	-0.627115	-0.320902
-0.927594	-1.052141	23.690607	-94.592298	15.189893	-33.771085	0.044564	0.231956	-0.857441	1.560854	0.775647	9.937716	39.587748	-114.409876	-21.472034	0.054156	-0.385324	-0.814939	10.351312	2.204369	-1.232684	-13.256689	11.228269	30.724082	-0.522593	-0.578119	-0.339081
1.558074	-2.075226	13.221017	63.568918	80.849285	-6.014569	0.072791	0.248506	-0.875631	2.597267	-2.265994	12.391209	63.602479	-51.52771	12.158004	0.080999	-0.321748	-0.848205	10.099707	2.259524	-2.075535	0.279822	8.601108	29.128505	-0.480728	-0.579159	-0.307815
0.805944	1.9576	15.894415	11.00619	88.005126	-5.532206	0.044178	0.245727	-0.860857	5.096713	0.037677	11.086995	87.136654	-39.141419	11.652673	0.054156	-0.385324	-0.814939	10.982768	2.72186	-2.116957	9.844246	5.885033	22.931837	-0.494218	-0.546979	-0.309559
0.97214	1.95627	15.61349	33.818834	109.462581	-5.37168	0.08614	0.275673	-0.882812	2.138064	1.225309	10.063464	63.386595	-12.873539	9.798365	0.04125	-0.430288	-0.826003	12.241801	3.246406	-0.953392	14.059311	1.291545	27.860119	-0.494427	-0.563171	-0.308722
0.630183	1.324903	15.661008	27.090518	129.436608	-3.126065	0.08654	0.244603	-0.861904	1.872361	2.689053	8.530592	56.95432	-11.632823	4.503017	0.040584	-0.447752	-0.796299	12.726055	3.712901	-0.223728	8.765781	-3.783051	25.763657	-0.480795	-0.597004	-0.275922
1.227965	1.847011	16.981936	27.195286	149.316337	-0.74832	0.099917	0.237172	-0.834102	1.835992	2.351984	9.491972	31.212859	-10.568456	2.766499	0.053635	-0.432357	-0.797579	13.170365	3.079794	1.398742	8.854059	-8.593714	20.71192	-0.536292	-0.562131	-0.339988
1.034962	1.957435	15.898869	23.675591	170.17204	-2.085768	0.101432	0.216686	-0.855422	1.912445	1.958274	10.342443	26.330386	-10.897335	1.37203	0.027319	-0.388689	-0.771339	12.872388	2.9055	1.212777	11.348176	-12.462303	20.04886	-0.50813	-0.528512	-0.35705
0.822196	1.041913	16.686498	19.503109	188.672475	-1.987544	0.129673	0.215937	-0.85612	2.70407	1.843535	9.679597	16.154578	-9.642255	0.698102	0.002472	-0.399872	-0.827183	12.468058	2.443567	1.622445	15.359204	-12.918358	21.167522	-0.494777	-0.577711	-0.338941
1.04676	1.040782	16.463539	19.601312	208.28503	-0.840784	0.155642	0.245916	-0.824838	1.845856	1.620019	9.887832	10.742578	-5.411106	-0.373994	0.027683	-0.432507	-0.797027	12.048653	3.256588	1.378575	18.191524	-11.688779	18.583704	-0.494986	-0.593904	-0.338104
1.330681	1.212417	16.356124	18.262826	228.566894	0.137009	0.185398	0.224682	-0.846857	1.900141	2.07046	9.776141	13.802802	-2.73947	0.271595	0.014192	-0.419405	-0.769056	11.562644	3.545081	0.652125	20.141992	-9.371568	11.076786	-0.48031	-0.546775	-0.309489
0.889022	0.124737	17.138575	21.38052	249.425113	3.411435	0.199176	0.18618	-0.798147	1.666468	1.958088	9.601292	13.027253	-3.02385	0.052347	0.014192	-0.419405	-0.769056	10.428152	4.009536	-0.025781	23.181901	-7.659671	6.289465	-0.508335	-0.563375	-0.308792
1.01405	-0.562473	17.649584	25.608756	269.921267	9.130055	0.255258	0.215752	-0.820451	2.008473	2.464321	9.495693	8.473491	-4.177581	-1.165084	-0.011024	-0.446981	-0.809546	10.00446	4.298636	-0.57141	27.579795	-5.941704	7.304533	-0.522247	-0.544908	-0.356283
1.590923	-0.389598	17.888855	47.240581	289.680145	8.315923	0.283899	0.183933	-0.800242	2.065692	2.013522	9.439883	3.270216	-5.371626	-2.167639	-0.011464	-0.418484	-0.782854	9.117421	4.125939	-0.708472	33.041269	-4.403783	11.312014	-0.507917	-0.53099	-0.310467
0.320932	0.126117	17.354852	70.745006	307.17101	5.098167	0.32516	0.154925	-0.74157	1.897508	2.183027	9.662957	1.127896	-6.255912	-2.393951	0.001286	-0.46437	-0.780119	8.939678	3.951868	-0.772422	37.631051	-3.28774	14.407799	-0.522176	-0.545734	-0.340755
-0.300001	0.185944	17.79767	91.635711	316.535208	5.405048	0.382014	0.156955	-0.757043	1.719222	2.577474	9.433104	1.223739	-5.923246	-1.496555	0.013596	-0.481759	-0.750692	8.589962	3.488812	-0.601282	39.765716	-1.771772	13.475844	-0.480172	-0.529756	-0.325854
0.058633	-0.05328	15.644082	118.021797	320.273261	3.273846	0.39542	0.114925	-0.694257	1.895844	1.788618	9.549346	2.248856	-5.394223	-0.688941	0.014412	-0.433654	-0.782402	8.058506	2.676469	-0.734461	41.253508	0.237303	11.963134	-0.494009	-0.530786	-0.310396
-0.434293	0.456547	13.8749	120.417059	322.204002	1.826327	0.453403	0.11024	-0.734465	1.894097	2.070223	9.492943	2.651064	-5.271496	0.083305	0.027979	-0.431435	-0.811377	7.824508	2.735579	-0.618802	41.942154	2.642132	10.359751	-0.49471	-0.559866	-0.370833
-1.031583	0.796303	12.614445	120.10007	318.50858	-2.679757	0.436696	0.068617	-0.618093	1.89114	2.351781	9.379901	2.935077	-4.721417	0.921362	0.027388	-0.433579	-0.782678	7.819971	2.792666	-0.858182	42.352115	5.669156	7.654092	-0.50785	-0.513145	-0.342359
-2.186812	-0.583878	12.017853	110.931762	306.321461	-9.138817	0.521062	0.045542	-0.58862	2.008665	1.731977	9.438437	4.958461	-6.008143	-0.014647	-0.01132	-0.448052	-0.795197	7.595451	2.563375	-0.264504	41.837608	8.971064	4.675452	-0.535457	-0.497361	-0.343337
-0.335788	1.027502	13.083597	109.30504	281.840199	-24.898712	0.493192	0.04982	-0.601998	1.730725	1.620234	9.885414	1.848799	-5.190696	0.237603	0.027243	-0.40401	-0.770335	7.883389	2.79352	-0.617454	41.763335	11.730574	4.020709	-0.521266	-0.500462	-0.281155
2.358619	1.785604	16.264874	55.4902	292.0259	-16.480625	0.56268	0.037362	-0.561516	1.615917	1.451458	9.882854	4.41493	-5.004832	0.241516	0.027238	-0.46422	-0.78067	8.062888	2.212602	-0.556718	41.235577	14.253829	5.355395	-0.49408	-0.52996	-0.325924
11.130868	-8.404037	-0.883891	23.107206	285.262273	87.47538	0.589035	0.05357	-0.526818	1.900033	2.126791	9.776189	4.696285	-4.754972	0.090087	0.027539	-0.402938	-0.784685	8.234589	2.61774	-0.791314	40.056066	15.416433	7.890971	-0.466473	-0.545744	-0.324947
4.407242	-12.176196	-11.203217	-46.50294	192.541994	187.503693	0.603556	0.022125	-0.50626	2.190601	1.957355	9.89537	6.393359	-4.915999	-0.125946	0.027608	-0.447827	-0.796024	8.770542	2.443286	-0.542524	38.928704	15.541647	10.186838	-0.494636	-0.579364	-0.307885
10.970514	-5.336452	-8.943999	-67.512732	-7.737797	142.18442	0.63184	-0.030522	-0.454483	1.674823	2.014751	9.997817	6.515141	-5.009649	0.366471	0.027093	-0.434651	-0.768328	8.993536	2.381703	-1.257252	35.874291	14.788258	10.996197	-0.493942	-0.512941	-0.342289
15.343824	-5.917011	3.925463	-43.929089	-174.893637	163.54764	0.589464	-0.012099	-0.470927	2.079744	1.61973	10.062587	5.402239	-5.056238	0.642565	0.026867	-0.480612	-0.765317	9.644374	2.613016	-1.124345	32.877211	12.925588	12.60536	-0.507362	-0.481587	-0.328506
14.54252	-0.733382	7.057398	-28.365491	-158.90946	143.693268	0.590607	-0.036113	-0.478171	1.734351	1.620377	10.055333	5.283148	-4.690822	0.800243	0.015078	-0.41619	-0.812105	9.991983	2.087791	-1.539315	30.67691	9.491792	15.564084	-0.465985	-0.514185	-0.311093
13.647801	2.086983	8.245322	-97.674668	-143.926736	114.993127	0.618477	-0.04039	-0.464794	1.899818	2.239452	9.776284	4.572519	-4.70024	0.861234	-0.025256	-0.466664	-0.750868	9.883275	1.39288	-1.125135	27.573147	6.507078	16.200905	-0.493454	-0.481383	-0.328435
12.754886	-0.045453	6.400392	-106.755571	-146.17616	79.214083	0.563495	-0.042078	-0.502209	1.904761	2.183311	10.002795	3.712057	-4.372483	0.648004	0.013967	-0.465367	-0.766045	9.52298	1.217978	-1.49192	25.380753	4.576517	12.825187	-0.466268	-0.51088	-0.373204
11.870791	-0.509912	5.074138	-97.436175	-176.627309	34.515455	0.564624	-0.048793	-0.526945	1.848273	1.620114	10.001111	3.655573	-3.916099	1.084091	0.001141	-0.434801	-0.767776	9.177977	1.56947	-0.957878	24.325187	3.620438	7.301246	-0.52127	-0.481791	-0.328576
9.640468	-1.024787	5.142246	-75.421207	-214.707718	-5.325746	0.536011	-0.051572	-0.512171	1.613199	2.240038	9.826879	5.051442	-3.382177	1.861227	0.027683	-0.432507	-0.797027	8.99336	1.510068	-1.380774	23.320557	3.185148	4.678429	-0.522038	-0.528716	-0.35712
7.548038	-1.534679	6.406497	-69.718312	-248.347962	-28.830392	0.537111	-0.023687	-0.57189	1.892457	2.295498	9.436493	5.673054	-3.068488	1.988159	0.013451	-0.45219	-0.738349	8.995717	1.917342	-1.199323	23.079628	3.359606	5.473136	-0.49436	-0.545326	-0.340615
5.421031	-1.062956	8.86765	-71.610343	-263.098068	-33.941586	0.521833	0.018	-0.581789	1.729431	2.296201	9.885984	4.933912	-2.865451	2.328694	0.027093	-0.434651	-0.768328	9.048555	2.206351	-1.496521	23.984755	3.59052	7.119234	-0.48059	-0.562141	-0.32418
3.564506	-1.858774	10.476267	-73.693109	-261.662888	-20.293514	0.508456	0.025431	-0.609591	2.075255	2.070232	9.893047	3.673667	-2.361417	2.517661	0.015147	-0.461079	-0.823444	8.579417	1.394614	-1.448879	25.631299	4.44252	8.117841	-0.494289	-0.546152	-0.325087
1.735705	-1.856724	10.611194	-73.126098	-257.897761	0.59074	0.424861	0.020964	-0.632232	1.898824	2.126744	9.719549	2.501184	-2.282706	2.270875	0.002027	-0.431585	-0.810826	8.404725	1.802293	-1.270729	26.037755	5.706363	7.315654	-0.480944	-0.558009	-0.401819
0.079325	-1.2227	10.80897	-77.664536	-257.114343	29.963036	0.425204	0.059091	-0.681292	1.776202	1.619652	9.320227	2.101669	-2.13367	2.148722	0.014707	-0.432582	-0.796752	8.703492	1.163276	-1.148132	27.006006	7.207796	7.396676	-0.494151	-0.529134	-0.341452
0.027513	-1.049128	11.092846	-77.726812	-257.43664	60.985468	0.413327	0.063337	-0.747906	2.248944	2.182617	9.953408	1.35725	-2.416247	1.713719	0.013671	-0.466438	-0.751695	8.584764	0.989071	-1.210982	27.024045	9.06754	7.99903	-0.507713	-0.496127	-0.358724
-0.402613	1.944678	12.631519	-101.694183	-265.752579	92.523525	0.370223	0.057404	-0.718707	2.132581	1.563102	9.83719	0.682296	-2.085338	1.377356	0.001801	-0.477546	-0.807815	8.702911	0.465869	-1.270913	27.040935	10.525832	8.970087	-0.493872	-0.513767	-0.326761
1.33989	1.431768	13.91352	-99.665737	-255.875858	93.352273	0.299577	0.111175	-0.769436	1.901565	1.957847	9.832686	1.516315	-2.132664	0.853477	0.013967	-0.465367	-0.766045	8.647216	0.931601	-1.030408	25.48158	11.053799	10.62374	-0.50813	-0.528512	-0.35705
2.261813	2.581383	14.277281	-97.874215	-248.134315	84.307917	0.300706	0.10446	-0.794172	2.074369	1.901193	9.836265	2.700261	-1.34993	0.677244	0.013891	-0.480687	-0.765041	9.004865	0.350525	-0.906464	24.379305	11.593834	11.267031	-0.507709	-0.514798	-0.311304
2.257027	3.039951	14.051799	-106.272421	-238.666696	62.690428	0.274723	0.09178	-0.842946	1.723064	2.464955	9.602928	1.678268	-1.576314	0.489202	-0.01132	-0.448052	-0.795197	8.945173	0.641041	-0.906328	22.227374	11.418297	12.712255	-0.465363	-0.446937	-0.361025
1.800105	3.040523	14.099744	-127.268504	-236.21558	38.784905	0.232361	0.092904	-0.841898	1.779289	1.901447	9.490383	1.461618	-1.667028	-0.128436	-0.012576	-0.46766	-0.736794	9.238478	0.930498	-0.959497	20.11806	10.254586	12.11413	-0.507713	-0.496127	-0.358724
1.030218	2.35856	15.673146	-138.723862	-238.121734	15.053755	0.217097	0.117292	-0.834305	1.956713	1.957644	9.720616	1.429787	-1.758208	-0.314337	0.000915	-0.480762	-0.764766	9.180522	0.00117	-1.02446	17.141793	9.529294	10.233303	-0.466268	-0.51088	-0.373204
0.023478	1.732516	16.844364	-146.200398	-243.181411	-5.707165	0.145723	0.146707	-0.839391	1.784232	1.845307	9.716894	1.67105	-2.272558	-0.90499	-0.011464	-0.418484	-0.782854	9.590624	0.348186	-1.135087	13.210691	8.395004	9.12204	-0.522247	-0.544908	-0.356283
-0.919618	1.509968	18.359503	-151.688171	-246.265271	-15.433135	0.146437	0.188363	-0.902526	2.246203	2.351514	9.840272	2.780033	-2.504172	-0.844745	0.026723	-0.451043	-0.752975	9.828734	-0.058639	-1.072509	9.339119	7.451423	7.337237	-0.494084	-0.511289	-0.373345
-2.222077	1.628941	19.073465	-156.653084	-246.682946	-21.314529	0.089226	0.165505	-0.855486	1.605515	2.465076	9.487231	3.344231	-1.824895	-0.4676	0.001506	-0.478618	-0.793465	9.589369	-0.05884	-1.256631	5.500996	7.62089	4.416154	-0.508059	-0.529338	-0.341522
-3.283354	1.865284	20.417748	-161.055732	-243.26881	-23.025402	0.033844	0.194888	-0.913808	1.898717	2.183074	9.719597	3.093807	-2.074158	-0.346968	0.015078	-0.41619	-0.812105	9.818311	0.636296	-1.548797	2.24759	7.856798	1.187074	-0.521483	-0.479312	-0.375159
-3.730171	1.753145	20.976889	-156.795162	-234.899454	-29.496388	0.047551	0.242883	-0.952557	2.415596	2.182057	9.673837	2.781325	-2.296962	0.297955	-0.01169	-0.464445	-0.779843	9.581146	0.636588	-1.613106	-1.023333	7.663704	0.985899	-0.47955	-0.462507	-0.375786
-4.942251	2.900916	20.503507	-154.406123	-227.541174	-34.414264	-0.024167	0.234171	-0.908583	2.190925	1.788364	9.895228	2.094451	-2.829916	0.754525	0.014337	-0.448974	-0.781398	9.517167	0.403183	-1.91473	-4.195157	7.768971	1.547022	-0.507854	-0.494474	-0.38978
-6.213439	3.531272	19.913134	-149.220881	-217.802833	-41.909076	-0.039059	0.262087	-0.915065	2.304978	2.351453	9.89812	0.948966	-2.856898	2.664684	0.014187	-0.479615	-0.779391	9.041892	0.810301	-2.041617	-4.988807	8.99288	1.238423	-0.465918	-0.49634	-0.342986
-6.65036	3.593629	20.984676	-139.135098	-209.843211	-56.0429	-0.0677	0.293907	-0.935275	2.36483	1.788088	9.955494	-0.529927	-2.367886	4.733854	-0.01169	-0.464445	-0.779843	8.929652	1.160511	-1.682893	-8.718588	8.946664	1.466095	-0.522317	-0.544082	-0.371811
-11.479568	7.027397	17.097578	-106.97601	-190.907942	-74.205085	-0.097084	0.31867	-0.927332	1.894659	2.408254	9.549867	-4.233936	-1.939373	7.047269	0.014412	-0.433654	-0.782402	8.934594	0.929196	-1.444254	-8.764205	8.75732	-0.947309	-0.535603	-0.477037	-0.421813
-17.750393	11.059378	18.527019	-122.978324	-163.058869	-62.907016	-0.153209	0.340996	-0.957503	2.130079	2.239021	9.781119	-6.730246	-1.251661	9.580044	0.001286	-0.46437	-0.780119	8.932798	0.754473	-1.564809	-6.825851	8.803094	-1.749174	-0.507992	-0.511493	-0.373415
-18.670809	11.818403	21.240175	-87.079563	-140.743621	-55.223477	-0.180679	0.314203	-0.949973	2.246958	1.9572	9.83994	-6.415441	-0.615851	11.436344	0.001361	-0.449049	-0.781123	9.119771	1.221148	-0.960461	-5.002644	8.646594	-0.777028	-0.522042	-0.510044	-0.404541
-20.244287	9.043469	16.7651	0.143946	-122.047245	-51.980279	-0.181793	0.303618	-0.907745	2.594014	2.350962	9.960804	-7.891147	0.033121	12.489791	-0.012281	-0.466589	-0.751144	9.295024	1.046021	-1.077716	-5.307179	9.78713	-1.728807	-0.563695	-0.511483	-0.389224
-25.14136	4.029753	11.98862	41.303448	-82.857801	-28.363483	-0.223769	0.290971	-0.903281	2.134676	1.732188	9.950611	-10.079828	0.574842	14.497296	-0.01132	-0.448052	-0.795197	9.483617	0.815784	-0.476334	-7.586213	10.891876	-2.856631	-0.494368	-0.507984	-0.435456
-33.957035	1.036589	8.849347	29.539727	-24.388561	2.401385	-0.210435	0.335437	-0.927954	2.148428	2.127071	10.630618	-13.22875	-3.95416	16.391957	-0.012055	-0.420627	-0.754155	10.729558	0.814432	-0.093784	-9.81491	11.928635	-0.347383	-0.493805	-0.495922	-0.358654
-36.667585	1.953501	7.834372	-2.555127	18.290513	1.408664	-0.210792	0.31461	-0.896386	2.16917	1.395533	11.536236	-19.752894	-13.86873	19.371043	0.014117	-0.434726	-0.768052	10.60973	0.639979	-0.21654	-9.475926	11.529871	5.796564	-0.493875	-0.495096	-0.374182
-22.731179	4.763614	9.424395	-33.652508	55.070453	0.102597	-0.224555	0.335812	-0.927605	1.667138	2.239788	9.658169	-38.722189	-25.44059	26.454828	0.026873	-0.420402	-0.754982	10.437063	0.176518	-0.042098	-7.02534	12.786815	12.292053	-0.50813	-0.528512	-0.35705
-18.028288	5.348906	12.871333	-12.864042	77.346302	-18.272878	-0.182551	0.313861	-0.897085	1.987979	2.918928	13.968183	-35.6759	-33.682206	26.467827	-0.01154	-0.433804	-0.78185	10.495094	-0.346796	-0.163037	-3.584137	12.111302	16.684377	-0.507992	-0.511493	-0.373415
-19.634703	-12.332959	14.868282	30.857079	82.767572	-44.904736	-0.20892	0.314952	-0.949274	1.810532	2.243048	13.680789	-17.652616	-57.634524	19.030108	-0.011464	-0.418484	-0.782854	10.31625	-0.521113	-0.286894	0.110052	12.232062	21.072139	-0.4936	-0.461059	-0.406912
-1.832201	14.5651	21.977096	225.326935	188.194946	-49.02664	-0.194414	0.300806	-0.946208	1.934982	2.184497	11.418785	-19.913491	-70.239032	18.964657	-0.037787	-0.435026	-0.766949	10.245959	-0.407299	-0.886569	0.762946	12.475886	27.304643	-0.522113	-0.509218	-0.420069
6.78678	1.342378	-6.042045	147.195117	198.410535	-174.734073	-0.13716	0.271766	-0.940773	2.313206	1.452786	12.898051	-18.411747	-78.585847	17.649733	0.014192	-0.419405	-0.769056	10.661543	-0.523901	-0.759546	0.396857	13.060442	32.775249	-0.521483	-0.479312	-0.375159
17.810005	3.364217	-1.272675	153.326674	65.412845	-222.912249	-0.165015	0.258744	-0.936659	2.240188	2.578983	12.274755	-13.812667	-88.70446	16.443015	-0.063368	-0.418784	-0.781751	11.470223	0.864819	-1.516996	2.180057	10.679019	24.067756	-0.466063	-0.476017	-0.421462
23.064097	-4.50842	12.435639	64.74867	-28.356415	-213.189372	-0.136388	0.244224	-0.933941	2.203974	3.424949	13.35041	-15.031646	-101.772533	18.56269	-0.063443	-0.434104	-0.780748	12.291527	1.559099	-1.678344	-0.290593	7.152312	0.404988	-0.521557	-0.459815	-0.438108
-4.124499	7.060392	12.751178	-3.699224	241.006477	-155.309386	-0.108118	0.208876	-0.899656	2.448648	0.946355	13.806276	-15.991194	-119.021607	17.558119	-0.08932	-0.418934	-0.7812	12.88443	1.325939	-1.548515	-4.063877	5.136066	-10.023827	-0.507996	-0.492822	-0.420835
-9.749959	1.591061	8.754235	-6.553716	186.707391	-77.651002	-0.093641	0.229329	-0.931573	2.469953	0.552847	14.768817	-7.907416	-132.416261	12.221425	-0.089986	-0.436398	-0.751497	13.256829	1.50356	-0.522753	-5.265447	2.083873	-11.074521	-0.508063	-0.510667	-0.388943
-1.895113	0.521097	15.267518	7.084386	132.755199	-30.311691	-0.081421	0.263211	-0.914018	1.735509	2.132167	15.547384	-4.636238	-149.854049	10.262736	-0.102811	-0.405832	-0.753228	13.029568	1.506078	-0.0479	-12.975813	0.656774	-20.665873	-0.47983	-0.477873	-0.390476
-1.448771	2.561558	8.919794	50.557247	113.577554	-17.314271	-0.037158	0.227831	-0.93297	2.573802	1.005233	16.97935	-2.557854	-171.121333	9.313246	-0.128468	-0.40491	-0.767026	13.515058	1.914744	0.741424	-21.034997	0.43388	-22.591311	-0.507575	-0.479108	-0.375089
-0.936987	2.790227	8.760221	39.957162	102.323337	0.842916	0.018566	0.236575	-0.923707	3.378832	0.834685	16.939493	2.392368	-195.360547	3.249882	-0.155161	-0.437845	-0.735768	12.575471	1.801741	0.96295	-16.189355	-0.610904	-14.536472	-0.521136	-0.446101	-0.392361
-2.515951	1.085553	12.814113	11.229214	86.588336	21.921235	-0.037944	0.272672	-0.957293	2.882348	-0.346527	17.83385	10.854743	-220.382541	-3.589018	-0.193568	-0.391037	-0.752302	11.87444	2.037396	1.370082	-14.892553	0.390412	-4.430402	-0.508342	-0.526033	-0.403633
-3.213565	1.830619	12.29221	-12.033133	47.319943	14.910339	0.005203	0.226707	-0.934018	2.836094	-0.571314	18.342208	18.575448	-247.872518	-10.699506	-0.181333	-0.423747	-0.721871	11.624786	2.674053	0.709424	-13.7356	-0.474586	-0.243429	-0.522113	-0.509218	-0.420069
0.905679	0.550611	9.241266	14.602402	31.137759	2.948127	-0.023438	0.258527	-0.954227	1.923294	-0.456597	18.719438	24.955402	-276.365387	-18.036673	-0.246432	-0.409873	-0.707146	11.029257	2.616091	0.398638	-13.972416	-1.484363	8.595215	-0.53595	-0.510249	-0.404611
-0.011014	1.412897	9.22707	14.326285	27.15758	1.504191	0.020453	0.219618	-0.959103	2.311136	-2.035317	17.876978	32.68535	-305.696141	-26.89141	-0.1963	-0.416004	-0.62215	10.375272	2.790816	0.147647	-7.255632	-2.628019	15.025721	-0.507646	-0.478282	-0.390617
-0.117563	1.184903	9.621849	3.692468	24.508782	5.785165	-0.008932	0.244381	-0.95116	1.233671	-1.694622	18.647248	25.095478	-330.993412	-44.19529	-0.299812	-0.415533	-0.634294	9.783875	2.849995	0.076983	-7.225426	-5.890068	14.001923	-0.507996	-0.492822	-0.420835
0.233883	1.014018	10.025778	1.904887	18.296101	5.444001	0.03193	0.246443	-0.913396	1.055193	-0.567831	18.474651	70.033807	-354.719493	-40.356409	-0.299517	-0.414461	-0.648644	9.481652	3.081491	-0.286971	-7.20744	-8.973582	10.501501	-0.493667	-0.478904	-0.375019
-0.05268	1.416316	10.0219	5.003266	14.885293	3.938295	-0.023395	0.206629	-0.901751	2.020155	-0.628899	15.154627	80.85809	-375.5252	-42.465297	-0.340436	-0.406869	-0.548372	9.244062	2.791156	-0.412423	-6.627006	-10.70321	6.411951	-0.535461	-0.47869	-0.390757
0.580957	0.727286	10.201812	3.183627	12.781638	4.400018	0.006346	0.202693	-0.941262	3.737179	3.930592	15.138096	95.453704	-381.321124	-44.144795	-0.353713	-0.468225	-0.544082	8.896027	3.025754	-0.058596	-9.321492	-9.665326	2.718514	-0.507929	-0.474977	-0.452728
0.067687	1.015349	10.306703	5.332997	9.801416	2.47469	0.047579	0.208284	-0.917573	6.200665	5.052188	14.737911	106.741241	-373.598435	-28.24543	-0.419994	-0.45864	-0.471958	8.483184	2.910547	-0.066793	-12.69812	-9.05716	-1.061981	-0.493253	-0.427848	-0.424114
0.245308	0.61434	10.59262	9.002625	5.423373	-0.244452	0.01971	0.212562	-0.930951	6.159194	3.980201	12.697984	127.494749	-359.804308	-15.514556	-0.408199	-0.462852	-0.414835	7.884624	2.735691	-0.557794	-20.054219	-8.73827	-4.85713	-0.493808	-0.477251	-0.406075
-0.098468	0.959238	10.587387	12.893888	2.152249	-2.915617	-0.008517	0.196011	-0.912761	6.358949	2.232196	11.115441	105.597838	-346.439025	3.12789	-0.435187	-0.496859	-0.369227	8.117273	3.257341	-0.670981	-26.389709	-8.887148	-7.431191	-0.535532	-0.477864	-0.406285
-0.002106	1.414827	9.681895	14.704268	-0.761952	-5.391018	-0.010046	0.233796	-0.908932	5.015032	-1.25886	9.838625	43.524887	-327.73731	24.751303	-0.48709	-0.497159	-0.368124	8.307506	2.795047	-0.010682	-31.571542	-9.646186	-6.797577	-0.493178	-0.447345	-0.361165
0.002638	1.013701	9.907618	16.463994	-2.392671	-7.232064	0.019724	0.195262	-0.913459	-0.56765	-2.487725	9.663677	-36.467989	-306.020944	15.222067	-0.488567	-0.502518	-0.296375	8.245884	2.968916	-0.130854	-31.708739	-10.206762	-2.913071	-0.508484	-0.52438	-0.434689
-0.281407	1.014391	10.015757	15.292642	-3.505165	-7.185434	0.005189	0.244006	-0.951509	-11.158711	-10.023809	0.716011	-140.830261	-241.653805	-93.037628	-0.51585	-0.537597	-0.236418	9.543139	2.965698	-0.166552	-29.395314	-11.535771	-0.775737	-0.549649	-0.49426	-0.405518
0.17436	1.071019	9.9112	13.980426	-2.93262	-6.712313	-0.00926	0.188955	-0.884609	-4.261475	-5.363741	-1.909115	-190.654173	-114.218831	-188.615997	-0.515995	-0.508028	-0.224075	9.018731	2.910321	0.182738	-25.80196	-12.366003	-2.068416	-0.521207	-0.445275	-0.407889
-0.057051	1.300468	9.794005	9.103396	-3.975795	-6.163184	0.004803	0.257778	-0.954925	-10.546559	1.471199	6.173968	-173.442646	63.405938	-179.194298	-0.503684	-0.525417	-0.194648	9.37833	2.910747	0.488876	-21.334309	-11.692778	-3.524234	-0.49332	-0.445693	-0.392221
-0.109934	1.416358	10.020786	8.027111	-4.533639	-6.199821	0.018581	0.219276	-0.906215	-11.274649	1.478127	12.499469	-103.145843	153.638477	-135.186938	-0.503024	-0.568163	-0.234686	9.667349	2.676284	0.133948	-17.608346	-9.307829	-2.173813	-0.521766	-0.476007	-0.437271
0.002845	0.726494	9.906411	6.678337	-4.914635	-5.680757	0.00446	0.219651	-0.905866	-8.849695	0.234519	12.775759	3.061081	195.419344	-93.293057	-0.489093	-0.609761	-0.28935	10.026252	2.502235	0.379436	-15.414355	-7.319089	1.476284	-0.49395	-0.475599	-0.43713
-0.233351	1.41451	9.563735	6.552068	-5.624489	-5.477247	-0.008903	0.209782	-0.916177	-8.804378	-0.557122	9.435776	71.327902	207.668309	-49.5315	-0.475967	-0.579045	-0.291633	9.905979	1.572299	0.133652	-13.405001	-5.331622	5.188291	-0.466134	-0.475191	-0.43699
0.056096	1.644793	9.740827	5.912412	-5.357159	-4.919021	0.005203	0.226707	-0.934018	-7.975012	-1.294795	5.093253	82.885384	209.663598	-8.904107	-0.46196	-0.605324	-0.3473	10.38415	1.340151	0.441001	-13.232359	-3.96908	6.587121	-0.562651	-0.430521	-0.393409
0.115785	1.358027	9.85444	5.151452	-5.156735	-3.932174	0.006361	0.185394	-0.92377	-6.92602	-1.91828	2.963396	45.436968	210.86014	21.320402	-0.371204	-0.620119	-0.348227	10.029243	1.689418	0.435882	-13.588554	-2.692614	7.25474	-0.506744	-0.395667	-0.425858
-0.285038	1.415758	9.846887	3.742389	-5.071467	-3.896063	-0.008517	0.196011	-0.912761	-5.587771	-3.046895	3.556648	-0.336508	215.227384	42.198997	-0.422506	-0.497856	-0.355153	9.925361	1.286122	1.150833	-16.149268	-3.133215	7.571764	-0.507579	-0.460437	-0.42251
-0.291926	1.701518	9.506975	2.954341	-4.599809	-2.444709	0.019352	0.191734	-0.899383	-4.128193	-2.992453	4.549791	-32.757996	216.77684	46.812964	-0.421921	-0.555922	-0.394188	9.909955	1.282661	0.312136	-17.331265	-3.924857	6.815708	-0.507582	-0.441765	-0.46993
-0.004665	1.873877	9.570119	2.349172	-4.093084	-1.300006	0.03383	0.212187	-0.9313	-3.115279	-2.598596	6.213223	-47.789449	217.214712	39.652495	-0.39612	-0.586412	-0.392732	9.514294	0.880782	1.201306	-19.779592	-4.902997	5.912312	-0.507161	-0.428052	-0.424184
0.632147	1.415336	9.921556	2.321266	-3.569039	-1.444749	-0.036401	0.217588	-0.94363	-1.307867	-1.925023	7.384061	-53.046369	218.174533	27.788207	-0.40865	-0.554775	-0.408813	9.201741	0.819426	0.237046	-23.54859	-5.336569	5.133363	-0.479554	-0.443836	-0.423206
-0.053586	1.128867	9.96384	2.818823	-2.805049	-0.85107	0.018195	0.233047	-0.909631	-0.673523	-1.250147	7.511207	-61.691517	219.577592	11.794809	-0.355421	-0.579756	-0.479658	8.734689	0.531115	0.466634	-26.344274	-6.641674	3.193629	-0.520652	-0.395871	-0.425928
0.231656	1.013536	9.912072	2.670313	-2.162127	-0.686854	-0.008117	0.164941	-0.891853	-0.203006	-1.419622	7.973853	-80.003938	226.0416	-5.511885	-0.355791	-0.596148	-0.464304	8.608839	1.052586	0.107217	-27.921536	-7.10363	2.957038	-0.521416	-0.461467	-0.407052
7.9e-05	1.472751	9.795842	3.775733	-1.349249	-1.443528	-0.007788	0.220367	-0.958404	0.374658	-0.5756	8.156572	-92.364819	236.699581	-20.551903	-0.341408	-0.545824	-0.52499	8.966352	0.529586	0.231408	-25.940129	-7.174416	4.57008	-0.521073	-0.409585	-0.471675
-0.056103	1.530475	9.851823	5.3097	-1.033732	-1.53482	0.020481	0.185019	-0.924119	1.150189	0.381756	9.532444	-102.414713	252.019434	-32.460581	-0.35446	-0.56122	-0.52371	8.848454	0.47178	0.22896	-23.428247	-6.758635	6.637366	-0.521833	-0.493852	-0.405378
0.457043	1.414737	9.747656	5.803177	-0.351862	-1.831841	0.018967	0.205505	-0.902799	1.116046	0.777126	10.664359	-106.540442	266.762243	-43.167754	-0.31361	-0.523923	-0.612643	9.027434	0.588021	0.35257	-21.15648	-5.114214	8.118958	-0.507787	-0.476629	-0.421673
0.572417	1.759544	9.808184	5.895785	-0.228158	-1.860766	-0.008889	0.192483	-0.898685	0.86507	1.736801	12.471588	-107.812646	278.013023	-48.142901	-0.235158	-0.461119	-0.632662	9.137783	1.050876	-0.002693	-19.018595	-3.574293	7.828781	-0.507228	-0.445897	-0.392291
-0.003551	1.874118	9.626972	7.126127	0.609759	-2.065367	0.047965	0.194513	-0.914158	0.019445	3.147487	13.417514	-103.694358	284.056904	-42.222587	-0.247845	-0.520332	-0.657071	9.316067	0.992642	0.060268	-17.852188	-2.753018	5.711683	-0.535044	-0.446305	-0.392431
0.394055	1.643338	9.463242	6.338067	1.707514	-1.615902	-0.00776	0.185769	-0.923421	-0.428944	4.38819	14.088561	-99.188608	285.252206	-24.2663	-0.19557	-0.503639	-0.673527	9.027839	0.413793	0.351828	-17.71547	-2.93664	2.808492	-0.535048	-0.427634	-0.439852
0.22555	1.759069	9.630944	6.031477	1.706431	-1.645705	-0.023424	0.241227	-0.936735	0.430934	5.006114	13.993937	-100.508032	280.631452	-3.505	-0.220637	-0.500574	-0.716025	8.902103	0.412333	-0.069721	-17.176249	-3.308343	0.485504	-0.520652	-0.395871	-0.425928
0.282928	1.586703	9.631333	6.978847	1.749942	-2.383765	0.00749	0.17868	-0.948506	1.784406	5.399134	15.438064	-111.713742	268.736125	15.111207	-0.155902	-0.47063	-0.705061	9.49186	0.58521	-0.057975	-14.422401	-4.376232	-1.781015	-0.479692	-0.460855	-0.406841
0.516317	1.702386	9.863682	8.398102	2.918414	-1.847498	-0.022652	0.213685	-0.929903	2.631146	6.807596	17.4952	-116.804143	251.915009	35.59545	-0.102887	-0.421153	-0.752224	9.203902	-0.109791	0.233091	-13.798715	-5.446407	-4.559317	-0.534697	-0.413094	-0.409633
0.002141	1.703	9.910514	7.8873	4.451509	-1.729106	-0.007003	0.175526	-0.934081	3.637046	7.70819	18.87586	-111.399373	237.287913	63.757124	-0.102366	-0.374119	-0.769585	8.961255	0.354122	-0.068868	-13.73334	-6.729536	-7.64013	-0.535327	-0.443	-0.454543
0.343772	1.242736	9.801558	10.535601	6.680632	-2.06852	0.034602	0.184645	-0.924468	4.158545	7.820023	19.056754	-95.476703	238.789198	99.335471	-0.076419	-0.434179	-0.780472	8.376595	0.356708	0.219662	-12.503277	-8.926709	-10.659603	-0.507299	-0.44507	-0.407819
0.463724	1.416184	10.088774	11.532066	9.268692	-2.213335	0.020095	0.19879	-0.927535	6.343567	6.576467	18.875091	-64.213766	249.327007	140.569288	-0.075754	-0.416715	-0.810175	8.731117	0.646525	0.287408	-10.81651	-9.865993	-10.936271	-0.506952	-0.411859	-0.425021
0.23945	1.015224	10.310044	12.279625	11.271702	-2.366942	-0.007374	0.171998	-0.920005	10.065345	4.371622	17.819029	-41.31516	259.911838	172.301837	-0.023184	-0.398951	-0.840981	8.968283	0.646232	0.351717	-10.256058	-10.619533	-8.856594	-0.506602	-0.397319	-0.394802
-0.055771	1.070943	9.849893	13.422356	13.442374	-3.592359	0.005975	0.199165	-0.927186	13.790988	2.673942	16.989952	-34.257466	271.887151	185.194219	-0.035715	-0.367313	-0.857062	9.210254	0.4727	0.654911	-9.221068	-11.208055	-4.823454	-0.535115	-0.445479	-0.407959
0.179637	1.474316	10.197154	13.678756	14.91335	-3.109161	0.020481	0.185019	-0.924119	19.299388	0.634843	16.084787	-31.011382	280.69682	173.658248	0.002472	-0.399872	-0.827183	8.610074	0.994757	0.166877	-5.739356	-11.591356	0.911496	-0.4653	-0.410421	-0.440338
0.291919	1.47375	10.085675	12.065043	16.815889	-3.502952	0.021253	0.157477	-0.917288	23.989563	4.399249	15.110942	-25.927501	266.609016	137.472733	0.016039	-0.397654	-0.856158	9.446994	0.18178	0.658077	-4.115403	-11.035005	3.867615	-0.535044	-0.446305	-0.392431
-0.570155	1.358765	9.897931	13.457104	18.568706	-3.018442	0.034587	0.201944	-0.94196	30.377701	5.62422	12.585322	-44.90462	228.829353	76.799326	0.02894	-0.412899	-0.85543	8.920811	0.416536	0.948696	-5.676909	-9.695438	3.928005	-0.521069	-0.428256	-0.424254
-0.280418	1.186957	10.073334	11.086481	18.745753	-6.044947	0.021239	0.174777	-0.934779	38.932025	26.817519	45.95958	-139.741076	116.788457	-5.04436	0.043322	-0.362575	-0.916116	9.090406	-0.166608	0.47027	-5.914066	-8.53462	3.984451	-0.465784	-0.460651	-0.406771
-0.122058	1.241379	9.394678	9.331208	19.137639	-8.793761	0.048737	0.166971	-0.907326	29.173335	6.187642	10.126116	-32.66219	103.517741	-26.66926	0.068903	-0.378817	-0.901314	8.979132	0.241925	0.889148	-5.215751	-7.980324	6.821747	-0.493671	-0.460233	-0.422439
0.004865	1.014184	10.021324	7.514024	18.05992	-9.3581	0.035731	0.17793	-0.949205	30.740735	1.847471	10.381663	0.403853	34.278235	-51.252117	0.069424	-0.331784	-0.918674	9.456473	-0.106622	1.136096	-4.21223	-7.543172	9.261213	-0.520789	-0.41289	-0.409563
0.235778	1.474033	10.141415	7.251489	17.38919	-12.649931	0.034587	0.201944	-0.94196	31.829169	4.377913	7.689274	-8.065228	-20.136007	-31.393471	0.096042	-0.31417	-0.948929	9.912656	0.12114	0.307192	-2.44028	-6.788224	10.810023	-0.52086	-0.412063	-0.425091
-0.274933	1.303046	10.358082	7.515769	17.611706	-15.898154	0.047951	0.211812	-0.931649	34.140533	0.82249	5.13043	-4.685408	-124.867092	-19.237893	0.108937	-0.389625	-0.958536	10.623881	0.236414	0.500612	0.727271	-4.894934	12.195535	-0.493741	-0.459406	-0.437967
0.16916	2.104001	9.688131	6.88774	13.171776	-20.323835	0.019724	0.195262	-0.913459	30.002312	8.665766	11.447838	16.106046	-218.568355	15.639358	0.069714	-0.390922	-0.943359	10.14735	0.236505	0.252181	3.517178	-2.398437	11.317674	-0.520577	-0.415368	-0.36298
-0.17519	1.701918	9.622908	3.766369	6.936394	-24.64895	0.006747	0.171623	-0.920354	2.635821	4.657595	6.736709	27.334458	-209.494269	20.763672	0.031156	-0.374755	-0.957885	10.252913	1.337455	-0.280083	8.330645	0.496534	2.178194	-0.535048	-0.427634	-0.439852
0.278143	2.045271	9.405851	0.301711	-2.9816	-32.345792	0.005618	0.178337	-0.895618	0.102993	-1.975697	16.868214	28.639562	-149.62588	30.700813	0.004469	-0.34748	-0.916292	11.072306	2.379944	-0.499854	10.440035	5.937901	-14.541917	-0.507023	-0.411033	-0.440549
-0.270189	0.901921	10.583805	-20.312497	-16.533476	-38.365546	0.047979	0.177214	-0.896666	4.385733	3.643602	10.452488	139.31862	-142.811612	43.837199	-0.021118	-0.391447	-0.941429	12.427497	2.841199	-0.532473	7.645935	14.50627	-24.717964	-0.507228	-0.445897	-0.392291
-0.819568	0.575098	14.663531	-60.290895	-14.580811	-42.574631	0.006361	0.185394	-0.92377	5.382753	6.172824	6.172982	152.41634	-140.470544	-16.707843	-0.048546	-0.396957	-0.869129	12.233787	2.431116	-1.496015	-0.594238	21.049774	-24.322107	-0.535048	-0.427634	-0.439852
1.329959	4.306924	28.13305	8.857433	81.929927	-4.459375	0.006346	0.202693	-0.941262	8.128475	0.202582	12.962468	14.522276	-75.953694	-11.39951	-0.061452	-0.441921	-0.880192	11.177269	2.318631	-1.216783	-7.700707	20.900849	-21.239933	-0.534977	-0.42846	-0.424324
0.385753	1.711436	11.963906	5.607529	108.570887	-8.709244	0.034988	0.170874	-0.921053	4.199695	-1.534663	14.74669	46.174582	-31.840425	-2.581247	-0.074648	-0.427748	-0.86657	10.992382	2.375381	-1.639185	-2.868523	19.695708	-15.445587	-0.534977	-0.42846	-0.424324
1.762842	2.482837	18.017967	6.689657	131.193344	-3.836151	0.048722	0.18427	-0.924818	2.183002	1.506379	9.498514	105.04164	-4.082068	26.474597	-0.100826	-0.473859	-0.863008	11.413718	1.679007	-1.275008	-1.119053	16.991405	-1.808916	-0.506811	-0.413512	-0.393965
1.906726	2.534123	16.600222	7.836606	161.942002	-3.30875	0.104461	0.175715	-0.898063	1.540869	4.659595	6.6571	63.920657	0.353348	13.845576	-0.088	-0.504425	-0.861276	11.424452	1.797632	-0.675444	-4.265424	9.999725	13.579132	-0.493391	-0.444866	-0.407749
2.147536	3.168468	17.232714	-5.058039	187.501203	-3.53065	0.090712	0.179618	-0.911789	2.528872	2.519777	9.6199	17.838216	-10.617331	3.032705	-0.08763	-0.488033	-0.87663	11.612235	1.915851	-0.07258	-7.683709	3.831782	23.188541	-0.479621	-0.461681	-0.391314
1.667029	1.90002	16.024583	-11.962707	211.851537	-5.966903	0.159443	0.177403	-0.860647	2.564529	0.943803	11.147841	24.376652	-3.750446	6.620682	-0.075024	-0.50435	-0.861552	12.096314	1.510711	0.533562	-4.549671	-2.097572	29.747331	-0.521278	-0.444448	-0.423417
1.427399	2.082684	18.407569	-40.379827	234.704101	-4.470627	0.146437	0.188363	-0.902526	2.185981	1.844505	9.668717	37.684853	1.12062	9.670201	-0.101046	-0.459611	-0.849662	12.983912	1.915959	0.73152	-3.392139	-6.509691	27.930005	-0.576492	-0.41288	-0.425372
2.755516	0.360656	18.937618	-30.698949	261.063474	-1.708185	0.160215	0.149861	-0.853816	1.823473	2.576832	8.925765	22.472123	-0.666267	4.861767	-0.062268	-0.490026	-0.848482	12.094964	2.091471	0.536035	-0.675458	-10.179973	17.024775	-0.493399	-0.407524	-0.50259
2.900545	-0.26477	20.472224	-25.339126	290.871022	3.606864	0.22966	0.189301	-0.865809	1.727206	1.563762	9.715448	9.642195	-1.881684	1.694872	-0.074874	-0.473709	-0.863559	11.3876	2.209491	0.583231	4.941619	-11.856646	3.624788	-0.507228	-0.445897	-0.392291
2.9571	-0.839468	20.414071	5.332606	319.894023	1.506773	0.230046	0.17553	-0.862393	1.441258	1.846048	9.82292	9.729097	-2.483348	0.085896	-0.102012	-0.538357	-0.815944	10.612147	2.44182	0.150566	10.423723	-12.545602	-7.730418	-0.507023	-0.411033	-0.440549
-0.00264	-1.925083	21.204381	63.103818	332.51926	-0.048824	0.312526	0.169412	-0.797525	1.839272	1.901434	9.604871	9.610044	-2.203695	-0.712949	-0.062639	-0.506419	-0.833128	10.071813	3.08014	-0.275967	16.856186	-10.823117	-12.376555	-0.507232	-0.427225	-0.439712
2.002839	-0.387475	18.46518	81.087635	356.443322	0.71809	0.354902	0.150989	-0.781081	2.13513	2.12655	10.007583	5.006755	-2.291757	-0.871669	-0.061603	-0.472562	-0.878185	9.716346	3.196855	-0.341982	22.244525	-6.997695	-13.697829	-0.535394	-0.460845	-0.42265
1.55309	0.476409	18.914717	98.781843	361.281885	-1.922239	0.368651	0.147086	-0.767354	2.42449	1.957067	10.070125	1.924119	-1.952303	-2.504658	-0.075395	-0.520742	-0.846199	8.956279	2.96779	0.002165	28.269913	-2.401133	-12.458075	-0.534418	-0.397727	-0.394943
2.218796	-0.173115	14.889968	120.606914	359.133581	-9.257946	0.424776	0.124761	-0.737183	1.562002	2.071392	10.108725	3.501502	-1.693833	-1.452667	-0.075615	-0.506494	-0.832853	8.831104	3.198881	-0.358489	33.357295	2.592951	-8.558048	-0.534764	-0.430939	-0.377741
1.146147	1.024977	12.771429	124.90076	350.399812	-16.83469	0.466794	0.08551	-0.689171	1.840481	1.901482	9.661511	4.897918	-1.071144	-0.181402	-0.075094	-0.459461	-0.850213	8.546062	3.143705	0.174924	36.492989	7.162645	-5.687901	-0.535044	-0.446305	-0.392431
-0.330173	-0.579896	13.304252	112.622985	324.509296	-28.692091	0.522919	0.063184	-0.659	1.448511	1.846333	10.162758	3.755128	-1.055585	-0.089683	-0.101341	-0.460683	-0.835312	8.072677	2.737759	0.044576	37.244935	10.996349	-3.447348	-0.548956	-0.427838	-0.439922
1.309136	2.656459	18.237196	105.186835	308.821493	-55.981994	0.522176	0.056127	-0.630848	1.543761	2.127011	9.259179	6.133703	-0.912002	1.331753	-0.088591	-0.506569	-0.832577	7.82972	2.388112	-0.380657	38.412671	13.216306	-1.781247	-0.493253	-0.427848	-0.424114
8.470471	4.088523	18.66668	81.936712	349.664727	-29.114441	0.548931	0.041265	-0.575243	1.68119	1.845996	10.280872	6.884188	-0.168244	1.586378	-0.088961	-0.522961	-0.817223	8.24791	2.097775	-0.134563	38.613262	14.677822	-1.055447	-0.549164	-0.44403	-0.439085
17.108888	-8.013535	-2.470878	74.53802	353.918144	90.773525	0.561937	0.030305	-0.533364	1.669102	1.845522	9.714476	8.704276	-0.301865	2.110593	-0.08844	-0.475928	-0.834584	8.001961	2.560946	-0.616242	37.915652	15.833048	-0.599993	-0.520998	-0.429082	-0.408726
0.479041	-20.913418	-13.419178	-62.230697	331.373391	174.212077	0.590221	-0.022342	-0.481587	1.84467	2.239655	9.888354	9.012701	-0.329214	2.203054	-0.115133	-0.508863	-0.803326	8.307466	1.865336	-0.134451	37.480954	15.77504	-1.056583	-0.549027	-0.427012	-0.45545
13.1853	-4.262884	-12.704032	-36.640217	135.00085	192.330268	0.616576	-0.006134	-0.446889	1.955935	1.732275	9.663787	8.91203	-0.973349	2.042427	-0.088145	-0.474856	-0.848934	9.364929	1.57129	-0.415414	35.039661	15.372362	-1.412572	-0.534839	-0.411441	-0.440689
20.950137	-13.957481	-8.217918	-2.401181	-188.467866	275.917345	0.659709	-0.0348	-0.441105	1.787643	1.95811	9.886908	8.937427	-1.402471	2.069008	-0.101567	-0.506644	-0.832301	9.24099	1.744552	-0.716408	33.046428	13.946578	2.666333	-0.52086	-0.412063	-0.425091
15.861883	4.137056	4.489391	-125.428779	-247.915924	310.696841	0.673873	-0.087072	-0.388979	1.676139	1.958468	10.054409	8.589922	-2.048136	1.661542	-0.101121	-0.474931	-0.848658	9.710223	1.568502	-0.888067	31.069651	12.023786	10.446046	-0.507649	-0.45961	-0.438037
19.626645	6.601653	3.947874	-104.664498	-171.493456	213.00506	0.620034	-0.112774	-0.433639	1.67098	2.12727	9.827993	8.522443	-2.536748	1.225035	-0.102157	-0.508788	-0.803602	9.817926	1.275379	-1.486171	28.814173	10.56803	17.338573	-0.53491	-0.410615	-0.456217
17.030416	6.509225	8.72757	-159.516218	-197.627615	105.840556	0.620406	-0.109246	-0.447715	1.778858	2.126769	9.490573	7.525712	-3.25037	0.569746	-0.101271	-0.505572	-0.846651	9.468501	1.161026	-1.25364	27.243407	10.248264	18.140536	-0.548956	-0.427838	-0.439922
14.011045	0.999446	9.21392	-122.563656	-211.422527	40.952174	0.636027	-0.112806	-0.486876	2.066793	2.0699	9.49657	5.844448	-4.398918	-0.552839	-0.07591	-0.507566	-0.818503	9.351414	0.754764	-1.257572	27.611662	9.783876	12.883952	-0.507929	-0.474977	-0.452728
12.069314	0.989475	6.50508	-80.433045	-236.682795	-20.083197	0.594394	-0.087327	-0.531472	1.775902	2.408327	9.377531	4.565378	-5.424748	-0.903177	-0.076796	-0.510781	-0.775454	9.526241	0.289009	-1.435969	27.090554	8.99311	3.38394	-0.506811	-0.413512	-0.393965
8.746543	-0.846974	6.262216	-70.486877	-254.919076	-57.37141	0.579887	-0.073181	-0.534539	1.903121	2.408586	9.946345	3.878154	-6.074136	-1.403435	-0.07606	-0.538206	-0.816496	9.168458	0.928161	-1.559666	26.94176	8.385647	-5.964766	-0.507649	-0.45961	-0.438037
5.848262	-1.587017	7.2825	-83.029841	-262.067817	-69.692578	0.566881	-0.062221	-0.576417	2.021663	2.521174	10.118776	4.470279	-5.638975	-1.152008	-0.075539	-0.491173	-0.833856	9.17423	0.813245	-1.260626	26.35237	8.169489	-11.890375	-0.507232	-0.427225	-0.439712
2.229969	-3.585168	9.476914	-97.389677	-265.890904	-50.508302	0.540498	-0.043831	-0.646099	1.900249	2.01413	9.776094	5.058156	-5.512285	-0.626198	-0.101787	-0.492395	-0.818955	8.762778	1.046989	-1.147526	25.276196	9.09122	-12.654874	-0.521136	-0.446101	-0.392361
-0.244397	-3.975785	11.700355	-100.295476	-274.680189	-3.927778	0.526349	-0.008857	-0.680733	1.792802	1.789308	10.113324	6.1995	-5.592598	-0.194486	-0.076576	-0.52503	-0.7888	8.229972	0.815406	-1.278233	24.004341	9.880685	-9.567459	-0.507646	-0.478282	-0.390617
-2.286544	-4.085075	12.62629	-94.402878	-286.925456	55.159183	0.483616	-0.011262	-0.665609	2.081084	2.18313	10.17634	8.63925	-5.565859	0.455134	-0.088446	-0.536138	-0.844919	8.287887	0.815023	-1.33704	22.21894	10.803257	-4.736738	-0.522113	-0.509218	-0.420069
-2.394833	-1.900525	13.031204	-80.448958	-286.297763	108.465265	0.457232	0.007129	-0.735291	1.901242	2.126838	9.832828	9.396645	-6.750627	0.228166	-0.037208	-0.553302	-0.816319	8.40729	0.698848	-1.275426	20.304916	11.331798	-0.300802	-0.521557	-0.459815	-0.438108
0.335221	1.655484	12.30367	-94.675546	-283.617604	142.963761	0.445398	-0.040524	-0.74943	1.785226	1.958015	9.773629	9.303267	-6.755426	0.782949	-0.089111	-0.553602	-0.815216	8.471383	0.409322	-1.035934	17.831317	11.494397	3.833427	-0.507649	-0.45961	-0.438037
2.077428	3.095828	13.650728	-111.094496	-272.201497	152.480269	0.402265	-0.011858	-0.755214	1.844239	2.464977	9.888544	8.533126	-6.55338	1.215933	-0.101127	-0.535141	-0.858993	8.470553	0.292923	-1.096336	14.247989	11.776632	7.848981	-0.535465	-0.460019	-0.438178
2.852825	4.76809	15.320941	-129.736366	-262.97201	131.479417	0.362147	-0.006864	-0.821131	1.846764	2.408741	10.001775	8.039381	-6.52818	1.092473	-0.114392	-0.476078	-0.834033	9.010927	0.584313	-0.546034	12.83678	11.851011	9.04577	-0.506952	-0.411859	-0.425021
2.065945	4.484599	16.043236	-129.750089	-254.262741	98.85938	0.362504	0.013963	-0.852698	1.898154	1.845044	9.662672	7.855735	-6.435716	0.661651	-0.101937	-0.523036	-0.816948	9.362668	0.176229	-0.720882	9.192831	11.910458	7.958346	-0.507582	-0.441765	-0.46993
1.273333	4.429667	16.48223	-129.461046	-245.634884	65.372406	0.348755	0.017866	-0.866425	2.124058	2.858467	9.555082	6.340167	-6.693409	-0.390286	-0.075615	-0.506494	-0.832853	8.828491	0.06055	-0.911001	7.824647	12.113718	5.578297	-0.548538	-0.395453	-0.441596
-0.163477	5.808335	16.232772	-152.130442	-239.574385	39.936315	0.322386	0.018958	-0.918615	1.84005	2.126804	9.661701	4.18569	-6.106116	-0.601977	-0.127518	-0.506794	-0.83175	9.303652	0.176364	-0.721983	7.473431	12.228547	3.225597	-0.535186	-0.444652	-0.423487
-1.32243	4.324893	18.363532	-161.910833	-236.199657	20.548616	0.306722	0.074416	-0.931929	2.18227	2.520376	9.556007	4.812762	-5.363098	-0.470772	-0.114838	-0.507791	-0.817676	9.233631	0.174027	-1.322152	7.331784	12.231874	-0.105301	-0.549235	-0.443204	-0.454613
-2.048015	4.616741	19.316766	-171.298084	-240.771337	4.800597	0.266218	0.093182	-1.001261	1.896407	2.126649	9.60627	4.069171	-5.555495	-0.627424	-0.114693	-0.53736	-0.830018	9.290041	0.347625	-1.440124	6.677415	12.490987	-1.723989	-0.535398	-0.442174	-0.470071
-2.58889	5.485775	20.957991	-164.341509	-246.434324	-11.136308	0.222699	0.135618	-1.010461	1.779528	2.408469	9.54745	3.975594	-5.618606	-0.535642	-0.101937	-0.523036	-0.816948	9.828059	0.231741	-1.071273	7.725541	12.060484	-1.145042	-0.535123	-0.408136	-0.5028
-3.202975	5.317284	21.740962	-159.715879	-245.024554	-30.41925	0.179551	0.181584	-1.033736	1.897723	2.070366	9.662862	3.218944	-6.795337	-0.239671	-0.127883	-0.462976	-0.806061	9.765472	0.347287	-1.251599	8.274404	11.794721	-1.879262	-0.549586	-0.457744	-0.484832
-4.634419	5.433203	21.713607	-150.126609	-239.371488	-50.171293	0.137547	0.203535	-1.064257	1.781707	1.901542	9.603662	2.32681	-6.414687	0.780724	-0.115133	-0.508863	-0.803326	9.822982	0.521132	-1.309664	7.975626	10.995809	-4.594393	-0.521486	-0.460641	-0.42258
-6.602806	6.23421	20.598918	-140.717658	-231.444665	-72.465425	0.095528	0.242786	-1.112268	1.843915	2.633968	9.888686	2.596319	-7.05696	1.052008	-0.101787	-0.492395	-0.818955	9.94142	0.346634	-1.308205	6.531215	10.077682	-8.007651	-0.507579	-0.460437	-0.42251
-6.881817	5.431683	20.931091	-120.736531	-226.800238	-99.418468	0.067644	0.264362	-1.143138	2.476142	2.520074	9.845249	1.42964	-6.489802	1.149193	-0.127958	-0.478297	-0.805057	10.524439	0.576105	-1.655653	4.94948	9.837785	-14.937914	-0.50772	-0.458784	-0.453565
-11.768772	8.003628	16.982406	-99.336407	-213.367109	-122.247334	0.066101	0.319447	-1.156801	2.130079	2.239021	9.781119	1.131307	-5.579376	2.021195	-0.101491	-0.491323	-0.833305	9.770454	1.045682	-0.889191	4.743475	8.66275	-22.662806	-0.535465	-0.460019	-0.438178
-16.716301	9.278427	18.653287	-95.755944	-196.355939	-112.651593	0.009233	0.334716	-1.15882	1.729108	2.465192	9.886126	0.259319	-3.604714	3.149945	-0.14101	-0.493692	-0.803778	9.416492	0.988416	-0.896041	5.798894	7.190374	-24.859712	-0.493812	-0.45858	-0.453495
-20.208216	9.350983	21.540853	-52.4573	-147.722692	-111.678989	-0.048793	0.391298	-1.171087	2.247173	1.844539	9.839845	1.461605	-1.122832	5.765174	-0.102302	-0.479219	-0.791259	9.234927	1.510764	-1.076838	8.180863	6.283726	-22.144426	-0.563072	-0.444234	-0.439155
-22.784415	4.100012	15.444586	12.290077	-88.951169	-102.010744	-0.077419	0.405819	-1.173804	2.140312	2.577431	10.29116	3.769629	0.881482	8.530701	-0.114467	-0.491398	-0.833029	8.873802	1.219463	-1.504025	7.056704	6.434165	-19.329755	-0.521144	-0.408758	-0.487202
-29.36439	0.978486	9.563569	28.75554	-51.744492	-74.052424	-0.076662	0.395576	-1.184464	2.036923	2.127429	10.798119	-0.124859	1.022998	12.166765	-0.115208	-0.524183	-0.802322	9.419929	0.931082	-0.716568	4.675907	7.279861	-16.147081	-0.507929	-0.474977	-0.452728
-37.57033	0.463338	8.435666	21.176523	-24.125152	-51.277665	-0.090754	0.361352	-1.149131	1.654647	2.692342	11.809644	-7.546461	-11.334992	16.662258	-0.126922	-0.44444	-0.850114	9.540297	0.873231	-0.5948	2.736309	7.860635	-10.856022	-0.50772	-0.458784	-0.453565
-33.282934	2.009944	8.241427	17.478438	3.118384	-53.646467	-0.131615	0.359289	-1.186896	2.803931	4.38015	11.891885	-8.651003	-20.485148	16.354586	-0.088295	-0.505497	-0.846927	10.072657	0.349331	-0.587121	4.040647	9.996713	-1.030161	-0.535883	-0.492404	-0.436504
-25.185858	3.962662	9.714255	-4.354063	42.667159	-34.995118	-0.104517	0.382554	-1.18035	0.232421	5.230764	12.801068	-8.614615	-47.511962	8.255391	-0.140199	-0.505797	-0.845824	9.722382	-0.346277	-0.476877	6.678859	11.532386	11.117471	-0.536095	-0.489925	-0.483087
-19.581289	4.429272	12.439436	11.275746	64.109065	-30.642535	-0.089654	0.389236	-1.208851	2.368686	4.438338	13.071692	-5.893821	-59.125584	11.872408	-0.140564	-0.46198	-0.820135	9.781918	-1.043571	-0.53865	9.637579	14.005324	18.522612	-0.508067	-0.491995	-0.436363
-13.518523	1.30876	9.191216	41.062906	67.314232	-27.424825	-0.062527	0.377902	-1.167321	2.125596	2.297546	12.2721	-14.534042	-70.124015	16.503793	-0.141305	-0.494764	-0.789428	9.660584	-1.044043	-0.720572	12.066336	15.462766	26.332359	-0.563635	-0.456296	-0.515957
9.011512	16.163119	35.095258	141.428631	217.426084	-15.089534	-0.048064	0.415654	-1.21673	1.962031	2.579901	12.721827	-12.017386	-81.16354	16.11863	-0.154576	-0.495911	-0.774803	10.120608	-1.047843	-1.370744	13.093748	17.127789	31.334158	-0.480117	-0.455897	-0.500008
3.43782	-8.325461	-10.86486	113.85378	235.847945	-47.715266	-0.018251	0.325222	-1.168782	2.184285	2.973499	12.387157	-11.00048	-91.117863	15.650565	-0.140564	-0.46198	-0.820135	9.644773	-0.873276	-1.558527	13.053493	17.021386	29.775724	-0.550141	-0.507148	-0.466792
21.279181	11.929204	0.876801	24.803997	66.518042	-115.53765	0.009219	0.352015	-1.176312	2.027735	2.749117	13.119656	-10.76023	-103.815465	15.524568	-0.180308	-0.51031	-0.787597	11.098228	0.51297	-2.543499	9.222772	15.641734	8.032125	-0.56384	-0.491159	-0.4677
19.844064	-5.74044	5.775485	167.849107	3.916771	-230.465516	0.038203	0.358323	-1.205162	1.651981	4.328311	14.528511	-12.289176	-119.260992	19.131009	-0.180233	-0.494989	-0.788601	12.761226	2.603387	-1.66509	-2.539793	13.555151	-30.909985	-0.549235	-0.443204	-0.454613
-9.301613	33.733143	30.03935	-162.399414	281.279984	-78.332617	0.025997	0.307141	-1.205226	2.011548	1.342479	14.929729	-12.995515	-138.300056	19.896971	-0.180157	-0.479669	-0.789605	13.422009	3.766637	-0.869251	-14.66117	10.529	-44.173073	-0.521561	-0.441143	-0.485528
-4.735215	-2.049538	4.574152	13.429314	186.702667	-31.170198	0.123698	0.328533	-1.200426	2.725278	0.722404	15.963227	-4.137109	-153.984408	13.983222	-0.206549	-0.451322	-0.762361	13.558094	4.525805	0.214488	-9.699818	3.779483	-40.523086	-0.549377	-0.441552	-0.485669
-1.823248	0.971379	13.111258	21.133257	145.325741	-0.765094	0.080593	0.3226	-1.171226	2.059602	2.133051	17.252616	1.955944	-175.46741	11.493375	-0.232281	-0.46572	-0.775156	14.092385	4.118552	0.342475	-8.651865	-1.121792	-33.537225	-0.535678	-0.45754	-0.484761
-1.959566	2.505454	9.136943	16.258122	118.599788	2.586495	0.10882	0.339151	-1.189416	2.362535	0.555732	17.823729	4.600858	-201.326742	4.487194	-0.259194	-0.484407	-0.730551	14.810442	3.189446	0.771073	-15.424	-5.065351	-3.516145	-0.536237	-0.488272	-0.514143
-0.635908	2.333624	9.502948	6.617124	97.801054	31.039729	0.193543	0.336903	-1.191512	2.964522	-0.571008	18.967662	14.119601	-228.357698	-3.110683	-0.298342	-0.470383	-0.716378	12.941943	1.687499	1.628034	-10.648933	-3.965165	27.821867	-0.564191	-0.505699	-0.497918
-2.030228	0.389368	11.286205	-25.900201	78.47846	39.067166	0.151196	0.320727	-1.172972	2.27801	-0.907556	19.122789	25.354118	-256.590047	-12.167835	-0.311688	-0.48685	-0.700749	11.401595	1.399146	1.238745	-3.150608	-1.02795	30.317991	-0.521979	-0.473528	-0.483854
-2.576126	-1.040707	12.576659	-7.690871	43.864156	17.908164	0.166459	0.296339	-1.180566	2.007838	-1.92035	19.852206	37.663273	-287.902599	-23.227396	-0.325104	-0.458428	-0.673781	10.984661	2.096509	1.114195	-1.326544	0.073533	7.227689	-0.535607	-0.458366	-0.469234
-0.212272	-0.017185	10.581058	16.489712	25.007773	-5.866711	0.192814	0.312547	-1.145868	0.845889	-1.411599	19.375337	50.812169	-318.316332	-30.05388	-0.377234	-0.50469	-0.669667	10.030944	2.851927	0.680454	-5.742338	-0.122536	-4.919519	-0.535678	-0.45754	-0.484761
-0.180716	1.64327	9.338401	19.625271	23.55426	-1.084398	0.222184	0.305084	-1.171302	0.711848	-1.637464	18.466496	60.509596	-348.67799	-43.016777	-0.389834	-0.428163	-0.67441	9.088212	3.144962	0.783897	-2.566479	-2.657256	-1.25147	-0.536095	-0.489925	-0.483087
-0.171228	0.841019	9.789847	0.311913	19.069068	4.387803	0.151196	0.320727	-1.172972	0.935311	-1.243819	18.188466	94.138763	-372.780287	-41.625914	-0.405252	-0.512343	-0.568668	9.078848	2.910433	0.243746	-2.573301	-6.401034	2.892438	-0.507653	-0.440939	-0.485458
-0.448758	1.072922	10.24007	7.433779	13.487189	0.841827	0.150067	0.327442	-1.148236	1.34792	1.682846	16.218217	124.503756	-388.912212	-43.980937	-0.445807	-0.548569	-0.494084	8.83344	3.141299	-0.238922	-5.307013	-10.004397	4.356034	-0.563702	-0.474141	-0.484065
-0.399215	0.956309	9.842729	10.405243	12.75346	1.710711	0.193557	0.319604	-1.17402	4.025268	5.056758	15.258368	137.013428	-387.698237	-36.067465	-0.497786	-0.564189	-0.491978	8.898478	2.445241	-0.001161	-10.085844	-10.301285	4.802655	-0.577193	-0.44196	-0.485809
-0.112901	0.89866	9.848055	3.837486	10.496342	2.919633	0.222956	0.277542	-1.164471	7.002115	6.120865	14.642457	160.027518	-375.479095	-22.271671	-0.512388	-0.600264	-0.417946	8.65334	2.559955	-0.484323	-20.070606	-9.914572	-0.542184	-0.549097	-0.426185	-0.470978
0.129685	0.614182	10.53354	6.966623	7.930256	0.108831	0.207292	0.333	-1.177785	7.551484	3.186983	10.461959	156.935631	-364.250375	-1.940016	-0.565988	-0.591675	-0.331748	8.070591	2.214333	-0.13737	-27.778892	-9.851074	-6.382478	-0.521632	-0.440317	-0.501056
-0.175516	0.610288	9.56147	11.763254	6.931509	-2.00664	0.250425	0.304334	-1.172001	5.712662	-0.414864	10.25032	100.668233	-341.919514	16.610084	-0.568205	-0.629819	-0.229293	8.250245	2.040194	-0.014996	-31.983409	-9.347122	-9.242386	-0.52177	-0.457336	-0.484691
-0.329339	0.441947	10.467055	12.120741	5.710935	-2.640874	0.265318	0.276418	-1.165518	-4.136902	-6.654553	3.810394	25.359943	-313.138386	2.468942	-0.542403	-0.66031	-0.227837	8.075553	2.447873	0.163154	-32.004471	-8.9622	-8.021716	-0.535678	-0.45754	-0.484761
0.345258	0.726004	9.856239	13.404169	5.101626	-2.593135	0.1932	0.298776	-1.142452	-8.216259	-11.834124	-1.771425	-108.462011	-232.769743	-111.570588	-0.581916	-0.602469	-0.187975	8.545752	2.330146	0.051649	-29.857379	-9.271762	-3.963348	-0.535052	-0.408962	-0.487273
-0.294355	0.437081	9.331107	13.962317	5.742603	-1.970957	0.236319	0.28741	-1.15416	-5.883005	-4.229677	3.096491	-145.164285	-132.878374	-198.379412	-0.582067	-0.63311	-0.185968	9.373969	3.839469	0.373018	-23.712019	-11.194037	0.669064	-0.493678	-0.42289	-0.517281
0.393273	1.183565	9.404459	9.838896	6.309401	0.564906	0.208049	0.322758	-1.188445	-10.801747	1.473019	7.697192	-96.652056	6.90784	-203.792605	-0.542774	-0.676703	-0.212484	9.087962	3.72597	0.846276	-12.027107	-11.955881	7.384991	-0.563285	-0.441756	-0.485739
-0.179354	1.298862	9.393806	5.367877	6.341281	1.344988	0.22107	0.294499	-1.129075	-11.546766	1.87126	10.569219	-42.002528	89.52579	-169.15222	-0.556045	-0.677849	-0.197858	9.614145	3.491214	0.555657	-1.090336	-10.68249	15.194668	-0.53526	-0.425155	-0.486436
0.402098	1.300378	9.859766	5.249514	6.829277	1.629269	0.251554	0.29762	-1.196737	-9.867881	0.457772	8.225438	29.325639	137.858589	-121.429959	-0.504141	-0.677549	-0.198961	10.037662	2.330479	0.977763	1.837855	-7.434575	21.557138	-0.57698	-0.444439	-0.439226
-0.108613	1.129391	10.076433	2.927055	7.393599	2.411815	0.248168	0.317763	-1.122529	-8.955456	-0.335344	5.073507	47.36407	164.244968	-73.748528	-0.516972	-0.707193	-0.211028	9.738429	1.749158	0.670254	3.88946	-4.385138	20.190159	-0.535048	-0.427634	-0.439852
0.063109	1.186708	10.080015	2.003598	6.931471	2.130955	0.208464	0.274388	-1.150046	-7.661696	-0.958691	3.628161	24.551721	174.397224	-26.133667	-0.517273	-0.768475	-0.207014	9.622442	1.343143	0.72623	4.619019	-2.192628	9.539906	-0.549027	-0.427012	-0.45545
0.006885	1.301874	10.136237	2.519006	6.230218	1.842066	0.222556	0.308612	-1.185378	-6.689367	-1.467783	3.308448	-6.830249	181.054196	19.378478	-0.464333	-0.734318	-0.253173	10.457742	1.227078	1.220397	6.260668	-1.741928	-0.951618	-0.563072	-0.444234	-0.439155
0.172174	1.013095	9.797252	2.331166	5.458299	2.075402	0.222213	0.270485	-1.136319	-5.002831	-1.582905	4.136366	-35.818456	181.063318	55.642633	-0.42511	-0.733021	-0.26835	10.097043	1.226405	0.854353	5.040095	-1.774017	-4.186643	-0.57726	-0.459805	-0.453916
-0.062701	1.414145	9.510222	1.782694	5.571695	2.692173	0.251583	0.263021	-1.161753	-3.359508	-2.880387	5.528475	-57.17171	177.662139	75.447486	-0.48962	-0.717004	-0.282325	9.930323	1.519663	1.451356	3.6374	-0.691145	-2.903126	-0.563285	-0.441756	-0.485739
0.461787	1.013611	9.973379	1.690868	5.226617	3.26951	0.221798	0.318855	-1.174718	-0.74886	-3.335122	6.488731	-74.664652	174.751286	74.479452	-0.501415	-0.712792	-0.339448	9.220719	0.707477	1.254969	0.18247	1.103639	-0.179117	-0.535327	-0.443	-0.454543
-0.287265	1.415276	9.73318	0.834986	5.059568	4.097274	0.25044	0.287035	-1.154509	0.934935	-3.281348	7.203512	-86.355126	177.395271	59.604405	-0.50149	-0.728112	-0.338444	8.622874	1.171952	0.886501	-5.308626	2.986677	2.185144	-0.563072	-0.444234	-0.439155
-0.278025	0.957673	10.186075	0.282024	4.872952	4.065166	0.250811	0.290563	-1.168585	1.869087	-2.550207	7.903146	-96.393473	187.853487	37.90286	-0.474577	-0.709426	-0.383048	8.682721	1.288216	0.948003	-9.35735	4.391176	3.996359	-0.562797	-0.410197	-0.471885
-0.112819	0.783777	9.847573	1.776651	4.149365	3.435759	0.250054	0.300806	-1.157925	1.582515	-1.310254	8.068063	-99.940052	203.556335	18.140279	-0.447514	-0.660099	-0.42966	8.333006	0.82516	1.119143	-11.560221	4.940765	6.294025	-0.562797	-0.410197	-0.471885
0.010681	0.670741	10.304142	3.485676	3.427125	2.775087	0.222956	0.277542	-1.164471	1.85927	-0.578876	7.621608	-106.615345	223.877548	2.306303	-0.472881	-0.718315	-0.468143	8.264646	1.055621	0.639777	-10.257623	4.06147	8.952636	-0.549444	-0.459397	-0.453776
-0.165536	0.6699	10.073389	4.641126	2.613937	1.777185	0.237462	0.263396	-1.161404	2.510838	-0.692011	8.484405	-117.864548	251.399182	-14.26063	-0.47155	-0.683387	-0.527549	8.565384	1.462961	1.006451	-8.108938	2.410749	9.5946	-0.562659	-0.393178	-0.48825
0.057334	1.47271	9.796956	5.925258	2.315761	1.492634	0.23519	0.294124	-1.129424	2.137886	-0.57741	9.892027	-117.947296	279.845836	-29.63738	-0.40608	-0.680868	-0.557628	8.979577	0.997408	1.012176	-4.331085	1.116909	8.822964	-0.576984	-0.425767	-0.486646
-0.005156	1.012013	9.509646	6.603281	3.121753	1.166437	0.193186	0.316075	-1.159944	2.223001	1.451614	11.367573	-110.999605	298.103116	-37.156455	-0.380052	-0.665397	-0.559183	9.149618	1.169748	0.656778	-1.815514	0.218717	7.809497	-0.563076	-0.425563	-0.486576
-0.571351	1.473407	9.84156	7.828233	3.098831	0.978532	0.206949	0.294873	-1.128725	2.247202	2.072245	12.557526	-102.835357	296.269919	-35.873464	-0.352329	-0.658816	-0.645833	9.325991	1.459723	0.661315	0.494986	0.168692	7.526285	-0.563005	-0.426389	-0.471048
0.181207	0.8427	10.251353	9.241543	3.721085	0.892573	0.209207	0.281444	-1.178198	2.259075	2.185381	13.124017	-101.066628	280.600481	-28.074972	-0.299395	-0.684869	-0.702327	9.324465	1.168848	0.540265	2.244314	0.376833	5.746215	-0.562793	-0.428868	-0.424465
0.007133	0.957225	10.134789	11.63642	4.470494	0.836523	0.236705	0.273639	-1.150744	2.590092	2.747517	12.508709	-108.827521	257.156259	-15.706562	-0.298214	-0.680582	-0.759726	9.444388	0.355514	0.539005	3.280444	0.496959	3.357897	-0.548889	-0.409993	-0.471815
-0.045957	1.360322	10.362777	13.165402	4.362024	0.186334	0.251954	0.26655	-1.175829	3.687893	2.52029	12.701408	-129.344268	234.285015	-3.804783	-0.219913	-0.648419	-0.777738	9.263498	0.587481	0.356972	3.392071	0.954343	0.574045	-0.521423	-0.424125	-0.501893
-0.000951	1.357627	9.738507	13.995728	4.952216	-0.021139	0.28021	0.248501	-1.159036	4.090119	3.533532	12.767363	-149.181383	216.178884	6.07979	-0.205756	-0.644056	-0.835412	8.915153	0.00852	0.587524	1.85804	0.930916	-3.607351	-0.563427	-0.440103	-0.516794
-0.165868	1.129433	10.075319	13.996777	5.230883	-0.200621	0.222599	0.256714	-1.132903	3.662689	3.930036	14.343933	-149.691686	206.298672	17.510987	-0.20509	-0.626592	-0.865115	9.444253	0.41359	0.539252	1.58501	0.297093	-7.484651	-0.576563	-0.412054	-0.4409
-0.290481	1.242227	9.561897	15.01013	5.824365	-0.623245	0.250054	0.300806	-1.157925	3.858977	2.972947	15.366266	-147.026655	193.049442	25.643507	-0.165051	-0.57719	-0.912003	9.202936	-0.168114	0.172937	0.908373	-0.860711	-11.113387	-0.548538	-0.395453	-0.441596
-0.051152	0.842142	10.07634	13.322396	6.135975	-1.686707	0.194729	0.260991	-1.146281	4.320255	2.577771	15.375605	-147.560898	180.58321	29.434355	-0.099581	-0.574671	-0.942081	9.144055	-0.226055	0.171589	1.571536	-1.885065	-12.39442	-0.54896	-0.409167	-0.487343
0.009977	1.647247	10.308244	14.049017	5.726903	-3.259535	0.251197	0.276792	-1.165169	4.307843	2.746289	14.809352	-155.019044	179.845783	29.390187	-0.072668	-0.555985	-0.986685	9.279289	-0.048141	1.133042	2.572267	-3.495055	-13.123796	-0.563423	-0.458774	-0.469374
-0.452347	1.416848	10.070958	14.538355	6.358069	-4.5081	0.249697	0.279978	-1.126357	4.203138	2.35257	15.259719	-164.397246	195.892813	30.220659	-0.033075	-0.538295	-1.017215	9.265544	0.181196	0.415148	2.193203	-4.410581	-13.45421	-0.548889	-0.409993	-0.471815
-0.917555	0.553867	9.660459	16.893231	6.038693	-5.194784	0.222956	0.277542	-1.164471	3.1467	3.708115	17.106994	-161.126056	227.988465	40.87101	-0.032183	-0.47487	-1.049929	9.321279	0.645175	0.298412	4.163191	-5.639003	-12.294212	-0.590609	-0.429276	-0.424605
-0.392949	1.532172	10.186261	14.514411	8.341743	-5.978566	0.236319	0.28741	-1.15416	3.028749	4.161264	19.709169	-134.002934	260.688639	65.266956	0.045892	-0.488668	-1.06493	9.257436	0.353694	-0.003459	5.653301	-6.273818	-9.54616	-0.562584	-0.412676	-0.425302
0.175556	0.956377	9.96757	13.193098	8.314594	-6.833938	0.222599	0.256714	-1.132903	5.228384	2.861946	20.207133	-102.041297	285.731531	94.185993	0.097947	-0.457727	-1.06804	8.733588	0.530868	0.406727	10.42456	-7.076294	-4.241961	-0.59103	-0.44299	-0.470351
0.176172	1.645917	10.027319	13.22971	9.705965	-7.547491	0.265332	0.259118	-1.148027	8.230158	3.924664	18.063162	-80.536522	291.670694	107.675391	0.098317	-0.441335	-1.083394	9.14502	-0.167732	0.231743	17.230108	-7.497143	0.350324	-0.563698	-0.492812	-0.436644
-0.163025	1.819455	10.248774	14.971058	9.761191	-8.993071	0.251611	0.228423	-1.12677	16.064127	8.355918	13.476012	-102.051707	265.384862	92.657437	0.202125	-0.440735	-1.085599	8.327598	-0.163863	0.695592	18.784387	-6.80131	1.625026	-0.577189	-0.460631	-0.438389
-0.29073	1.586877	9.563345	10.808126	10.447493	-8.877923	0.250097	0.248908	-1.10545	23.1039	9.139212	22.569593	-122.255369	228.340039	53.114843	0.202125	-0.440735	-1.085599	8.788183	0.064888	0.106315	19.67462	-7.069921	1.286888	-0.577122	-0.442786	-0.470281
-0.730659	1.188977	10.462397	9.617418	11.774797	-9.86502	0.29283	0.251313	-1.120573	25.167604	13.414068	19.899226	-8.721909	182.469528	14.705015	0.228522	-0.408872	-1.102508	9.204887	0.413388	0.35513	20.468235	-7.113714	-0.121676	-0.590683	-0.409779	-0.487553
-0.220155	1.647172	10.246937	7.258582	12.637441	-11.009662	0.279481	0.224145	-1.113392	25.829035	11.209836	12.94763	47.160028	144.520636	-8.810603	0.293697	-0.407425	-1.118236	9.036777	0.357695	0.830836	20.445467	-8.591723	-2.131671	-0.563072	-0.444234	-0.439155
-1.323412	1.414815	9.428872	7.835652	12.436172	-11.996036	0.223356	0.246471	-1.143563	30.299988	5.170494	8.903369	80.356296	119.48228	9.957072	0.345526	-0.422445	-1.118336	9.441937	0.936027	0.48157	21.194202	-10.906364	-2.826267	-0.535603	-0.477037	-0.421813
-0.691511	1.587167	9.555551	8.298486	9.513362	-14.253141	0.265703	0.262647	-1.162103	25.818578	2.531508	8.976764	64.866069	51.890946	-22.418719	0.370963	-0.409118	-1.091191	9.557188	0.237855	0.241177	21.173282	-13.195048	-3.334825	-0.590888	-0.444643	-0.439296
-0.348067	1.701801	9.562714	3.391695	5.92673	-17.088357	0.279824	0.262272	-1.162452	26.309946	0.215033	2.134726	122.415873	-48.377264	1.045915	0.357767	-0.394945	-1.077569	9.801921	0.297369	0.725081	19.403289	-14.171325	-4.17949	-0.563072	-0.444234	-0.439155
-0.346006	1.93205	9.677386	-3.778209	2.847027	-19.479463	0.237477	0.246097	-1.143912	25.014582	9.74394	9.702224	41.690468	-127.042446	23.567388	0.357026	-0.427729	-1.046863	10.03565	0.354411	0.609916	13.581848	-13.552478	-3.916868	-0.604446	-0.430307	-0.409147
-0.349755	0.954579	9.445871	-10.123595	-0.940901	-21.424411	0.249325	0.27645	-1.112281	18.896522	7.05303	11.269782	-0.010134	-167.991572	56.793959	0.331068	-0.488089	-1.056646	9.616049	-0.169059	0.18064	7.073174	-11.984181	-1.058491	-0.646378	-0.447112	-0.408521
-0.224692	1.76109	10.020007	-15.984075	-4.805234	-24.568241	0.278709	0.251687	-1.120224	5.433357	2.22901	5.491196	101.835822	-169.569673	97.220441	0.265824	-0.444647	-1.029579	10.083372	0.0031	-0.049443	-0.140532	-11.046876	3.425383	-0.576492	-0.41288	-0.425372
-0.277119	1.245122	10.244134	-27.756598	-6.486706	-30.174836	0.234833	0.273296	-1.097856	-1.817185	0.442351	7.998208	-44.334798	-156.427065	98.497578	0.266113	-0.503785	-1.054264	10.436233	0.060119	-0.1025	-3.487398	-10.340307	4.931763	-0.576421	-0.413706	-0.409844
-0.275638	2.279553	10.362184	-49.887582	-3.152779	-35.056792	0.264932	0.290189	-1.168934	-7.180246	1.078783	15.58566	92.58934	-100.50433	146.742974	0.241197	-0.470079	-1.098769	12.013203	0.982475	-0.847622	0.062202	-8.910034	-2.025772	-0.605213	-0.477232	-0.437692
-0.137249	1.595238	11.55543	-103.090949	4.473873	-40.884013	0.237062	0.294466	-1.182312	-7.884667	3.783609	15.176952	192.821197	-168.006564	185.564185	0.162601	-0.503313	-1.066408	12.722403	1.968889	-0.650493	5.85089	-3.782242	-10.842302	-0.604867	-0.444021	-0.454894
1.943464	5.279597	27.353457	-131.62433	41.389837	-17.748931	0.249296	0.311049	-1.147265	7.06033	7.970365	4.058462	114.685039	-211.201686	142.176165	0.174616	-0.521774	-1.022631	13.533357	1.905462	-1.47403	2.407539	1.126308	-10.486533	-0.576839	-0.446091	-0.40817
0.391373	-1.447124	12.121193	-7.566683	90.328786	-9.397302	0.249325	0.27645	-1.112281	11.08769	2.899704	11.668257	28.024209	-168.664392	59.276368	0.122932	-0.536323	-1.034874	12.886225	1.500662	-1.427959	-1.575823	1.837318	-12.584145	-0.618771	-0.462896	-0.407543
0.312485	1.663004	14.065002	-22.255897	95.861456	-4.756689	0.278295	0.300057	-1.158623	8.529455	3.131157	13.143315	71.367931	-110.925252	14.256015	0.071028	-0.536623	-1.033771	12.418478	1.037876	-1.25902	3.0089	0.095272	-22.982334	-0.576839	-0.446091	-0.40817
0.473113	1.660467	13.499812	-20.305565	113.914243	-5.542186	0.30615	0.313079	-1.162738	4.143374	0.488813	9.595403	78.022265	-77.101856	-26.834934	0.084004	-0.536548	-1.034047	11.832178	1.272519	-1.029408	10.506435	-0.200928	-27.255454	-0.590743	-0.464966	-0.36082
0.363721	0.742451	13.721136	-19.831852	129.408892	-3.604816	0.304664	0.298966	-1.106434	2.622286	0.211351	11.091794	58.982713	-45.467837	14.557524	0.070432	-0.598977	-1.015407	11.841657	0.984117	-0.551389	12.576552	-0.10835	-26.621709	-0.591585	-0.492394	-0.452312
0.83487	1.089663	14.413729	-14.022276	145.576975	-2.070548	0.319542	0.288348	-1.117443	2.496538	1.337845	10.693848	88.865678	-32.871492	27.069385	0.031429	-0.614522	-1.013576	11.500785	1.452749	0.222776	10.429566	0.607318	-25.578429	-0.591168	-0.460009	-0.453987
0.384546	1.206567	14.803275	-16.329418	163.378457	-1.713077	0.30505	0.285195	-1.103018	1.563013	3.19576	7.562101	77.317781	-19.210979	16.559753	0.031579	-0.583882	-1.015583	11.322636	1.452907	0.159568	9.022823	0.455902	-23.250288	-0.590743	-0.464966	-0.36082
0.330839	0.920124	14.971514	-16.154771	180.911434	-1.15242	0.347412	0.284071	-1.104066	2.729366	2.912521	8.265717	14.969186	-34.863166	0.446394	0.05679	-0.616516	-0.985428	11.212597	1.803611	0.638106	8.663414	1.120837	-16.682191	-0.577327	-0.47765	-0.422024
0.416138	0.638906	16.392749	-26.450618	205.243899	-0.635021	0.445512	0.274392	-1.078358	1.926666	0.212454	10.850729	9.299064	-24.51082	-3.863649	0.004591	-0.617888	-0.969975	10.919083	3.024871	0.877423	10.400427	0.986634	-9.017347	-0.590746	-0.446295	-0.40824
0.802858	0.061065	15.65904	-14.629812	220.831213	2.681941	0.471481	0.304371	-1.047076	2.310113	1.562968	10.067375	29.645711	-14.875646	1.890049	0.017938	-0.601421	-0.985604	10.742284	2.444269	0.811742	11.243902	1.651884	-7.984509	-0.604863	-0.462692	-0.407473
0.895579	0.298509	17.480417	-11.045199	238.978961	4.224187	0.471138	0.266244	-0.998017	1.888052	2.069986	9.209745	15.872902	-12.431253	-0.069731	0.018233	-0.600349	-0.999954	10.922519	2.967537	1.056896	12.843002	1.662464	-14.37742	-0.632746	-0.480945	-0.375721
1.0586	0.066689	17.027968	1.864516	259.584641	3.908897	0.485645	0.252099	-0.99495	2.078966	1.394361	10.005757	5.20948	-8.321764	-2.102928	0.004887	-0.616816	-0.984325	10.679447	3.140822	0.693795	15.763261	0.755394	-20.312041	-0.605001	-0.47971	-0.391108
0.958856	-0.332183	17.763142	8.214586	280.284295	3.30737	0.527263	0.243918	-0.967846	1.90627	1.394684	10.002131	11.124206	-4.547759	-0.365102	0.030098	-0.649451	-0.95417	10.256295	3.197618	0.147177	18.749345	-1.804833	-23.121933	-0.618838	-0.480741	-0.375651
-0.363853	0.069655	17.454955	20.185713	299.558089	0.642422	0.596752	0.231461	-0.927364	1.836962	1.845009	9.491545	9.723094	-2.972788	-0.103945	0.030468	-0.633058	-0.969523	9.898242	3.952922	0.023975	21.645785	-3.063375	-21.690217	-0.577465	-0.494668	-0.405659
-0.578271	-0.099368	18.188868	15.913542	316.85149	0.721446	0.623878	0.220126	-0.885834	1.327898	2.184342	9.934066	5.729529	-3.696786	-0.299325	0.003926	-0.635352	-0.940272	9.2386	3.719631	-0.588188	22.443013	-2.644954	-17.508642	-0.604304	-0.431959	-0.378092
-0.455227	0.419453	18.648091	40.316916	323.376367	1.064047	0.636112	0.236709	-0.850787	1.373051	2.352751	9.369021	6.165309	-3.473821	-0.728351	0.004811	-0.632137	-0.983321	8.941338	4.184667	-0.651619	22.538542	-1.808716	-12.562388	-0.619118	-0.496107	-0.390341
1.069486	0.413751	17.597947	57.856011	330.457405	0.97544	0.663982	0.232432	-0.83741	1.907502	2.014414	10.115932	1.773337	-4.042746	-1.970662	0.003926	-0.635352	-0.940272	8.2894	3.953107	-0.844434	23.48413	0.111649	-11.597059	-0.591235	-0.477854	-0.422094
0.865887	-0.224978	15.943212	70.917462	336.458706	-5.895561	0.719364	0.203049	-0.779087	1.612529	1.958338	9.770002	2.239828	-3.734437	-1.319833	0.004366	-0.663849	-0.966964	7.992368	3.37228	-1.032129	24.670484	1.516365	-10.966295	-0.632888	-0.479292	-0.406777
0.802491	-0.973124	15.597843	71.693451	333.453424	-13.951513	0.774746	0.173666	-0.720764	2.018228	1.788687	9.891601	1.962643	-3.618925	-0.764003	0.004221	-0.63428	-0.954622	7.869394	3.603865	-1.272969	27.148134	4.081857	-12.698868	-0.577532	-0.512513	-0.373766
-0.385051	0.122513	16.374988	64.270682	324.458213	-24.995594	0.788123	0.166235	-0.692962	1.851253	1.958239	10.171315	2.649834	-2.969747	-0.232918	0.017562	-0.678023	-0.980586	7.814219	3.372438	-1.095337	27.157948	6.733441	-14.728485	-0.619535	-0.528492	-0.388667
0.983596	0.879638	19.07583	43.706381	322.119315	-38.286844	0.787023	0.138351	-0.633242	1.269316	1.452058	9.818961	5.833364	-2.692504	1.067181	0.030908	-0.661556	-0.996215	7.526416	3.084216	-0.742634	29.304427	10.120919	-16.188698	-0.563974	-0.526849	-0.403914
4.222472	2.595456	17.952624	34.176415	362.012346	-25.064478	0.841633	0.136511	-0.581751	1.439725	2.014992	9.766423	8.834767	-2.228791	1.629114	0.017492	-0.633133	-0.969247	7.531898	2.620597	-0.504985	28.490861	12.721044	-16.473189	-0.577185	-0.479302	-0.390968
11.483233	-4.310937	2.663701	-4.824989	374.790457	33.860634	0.869889	0.118462	-0.564957	1.449504	1.959041	10.219492	9.730429	-2.247284	1.506338	0.017122	-0.649526	-0.953894	7.828349	2.504017	-0.44007	27.056176	14.271607	-16.047568	-0.619464	-0.529318	-0.373139
2.842814	-11.509803	-3.388241	-125.711722	297.70068	226.471391	0.881766	0.114217	-0.498343	2.127985	2.069934	9.667698	10.523898	-3.032381	1.190889	-0.021806	-0.649751	-0.953067	8.54054	2.677613	-0.186495	25.377531	14.822483	-13.691057	-0.563903	-0.527676	-0.388386
1.851228	-10.26159	-7.209905	-65.824567	68.995522	197.52992	0.879179	0.072219	-0.382319	1.546071	2.183436	9.372506	10.44831	-4.193224	0.377753	0.017122	-0.649526	-0.953894	8.473125	2.501542	-0.667593	22.207042	14.520915	-12.241831	-0.605836	-0.54448	-0.38776
15.473412	-10.387302	-7.17279	51.935795	-140.997919	202.421101	0.921927	0.057325	-0.379951	2.1282	1.957273	9.667603	8.277534	-4.922352	-0.186149	0.043739	-0.631912	-0.984149	9.066588	2.500934	-0.476868	16.906521	12.601684	-8.912969	-0.591581	-0.511065	-0.404892
13.83851	-2.562529	9.025059	-46.072945	-264.696893	260.355083	0.924185	0.043896	-0.429423	1.902343	2.183216	9.889515	8.982034	-5.374331	-0.035936	0.017047	-0.664846	-0.95289	9.528118	2.323153	-1.067875	12.87352	9.811551	-3.750747	-0.591857	-0.545102	-0.372162
20.405808	0.876061	8.428499	29.550104	-216.789485	271.875961	0.927242	-0.031674	-0.43708	1.720623	1.845177	9.432487	8.762549	-5.594353	0.362465	0.017047	-0.664846	-0.95289	9.70227	2.147778	-1.245036	8.561479	7.116652	0.984361	-0.60528	-0.495077	-0.405799
16.411821	2.420675	6.197766	-38.675653	-211.322177	193.454145	0.885995	-0.019965	-0.47826	1.903744	1.45092	9.888899	8.803656	-4.767592	0.617344	0.029432	-0.666915	-0.924467	9.766208	1.451473	-1.067181	5.129524	4.762438	2.658444	-0.619606	-0.527666	-0.404195
14.978689	1.789372	6.053568	-58.796913	-217.378552	138.940513	0.876005	-0.032677	-0.580271	1.732065	2.183635	9.999168	7.165304	-4.879559	0.4916	-0.009201	-0.666068	-0.937989	9.408944	1.393465	-1.253752	3.377214	3.469851	-0.140854	-0.592066	-0.561295	-0.371325
15.008023	1.898182	4.633837	-40.932933	-241.399612	67.240485	0.87599	-0.015378	-0.597763	2.073938	2.126515	9.836455	7.751847	-4.902979	0.522667	0.016676	-0.681239	-0.937537	9.109482	1.858007	-1.436997	3.658646	3.36687	-4.878532	-0.633372	-0.529522	-0.37321
12.225339	0.284088	2.754334	-22.258983	-272.522871	-4.853353	0.877491	-0.018564	-0.636575	1.66934	2.352544	9.771543	5.308232	-5.178869	0.456301	0.030022	-0.664771	-0.953166	8.516559	1.626311	-1.628711	5.958994	3.367294	-7.087287	-0.577602	-0.511687	-0.389294
10.33948	-0.62054	5.782681	-47.931267	-292.20472	-54.268428	0.821766	-0.027308	-0.645838	1.907717	1.901753	10.115837	6.264955	-5.229056	0.610713	-0.009791	-0.668212	-0.90929	8.875774	2.265821	-1.259947	8.896559	3.517224	-5.784504	-0.577811	-0.52788	-0.388457
7.915238	-1.931952	7.605403	-78.992903	-293.201219	-76.744978	0.778961	0.056784	-0.718174	2.014948	2.239236	9.778701	5.333086	-5.610819	0.914448	0.043149	-0.634055	-0.955449	7.991072	2.035542	-1.277443	11.287959	4.548807	-4.147757	-0.619397	-0.511473	-0.405032
4.234821	-3.356611	9.573705	-95.915732	-295.578924	-72.101962	0.752964	0.061403	-0.784439	1.901565	1.957847	9.832686	5.706069	-5.422523	0.978277	0.0037	-0.681314	-0.937261	8.465246	1.628177	-1.210463	12.506682	5.174408	-2.107495	-0.619677	-0.52684	-0.419723
1.120967	-4.208476	11.271289	-92.126397	-301.342043	-50.853709	0.712074	0.09394	-0.857187	1.90299	1.845233	9.889231	5.394056	-5.642915	1.253288	-0.021586	-0.663999	-0.966413	8.536212	1.223982	-0.612024	12.808817	6.867356	-0.068973	-0.619188	-0.495281	-0.405869
-0.335398	-4.14296	12.891319	-70.918033	-302.942693	-12.383832	0.698268	0.16704	-0.940881	1.907155	1.563723	10.058913	6.137056	-5.539497	0.946633	-0.009421	-0.65182	-0.924643	8.529069	1.454803	-0.970477	12.254437	8.295781	3.593815	-0.605627	-0.528288	-0.388597
-1.645243	-3.048929	13.268266	-69.971969	-299.725333	35.228371	0.642543	0.158296	-0.950144	1.848273	1.620114	10.001111	6.522797	-6.934373	-0.700816	-0.048499	-0.682686	-0.921809	8.527544	1.163928	-1.091527	12.245283	9.465395	5.850004	-0.605556	-0.529114	-0.373069
-1.596529	-2.016712	12.875751	-76.88072	-299.385613	78.296876	0.586403	0.197921	-0.997807	1.902128	2.295877	9.88961	8.245917	-7.492465	-1.105743	-0.009571	-0.682461	-0.922636	8.886312	1.047955	-0.845791	10.7139	9.874887	7.137304	-0.60528	-0.495077	-0.405799
0.316079	-0.232084	14.170745	-84.60557	-298.562042	108.247609	0.543627	0.247414	-1.035159	1.900572	1.845138	9.775952	7.839842	-5.413059	-1.023738	0.00311	-0.683457	-0.908562	9.062551	1.396006	-0.841006	8.553812	9.652985	7.146186	-0.605556	-0.529114	-0.373069
1.255486	1.380923	15.446085	-88.713014	-304.54011	118.092111	0.475654	0.239387	-1.096961	2.193235	1.844789	10.008555	6.057473	-4.527492	0.771662	-0.009426	-0.712029	-0.934978	9.587073	0.928452	-1.252428	6.168586	8.547579	6.732196	-0.605698	-0.527462	-0.404125
2.705937	2.705385	16.502828	-92.931546	-302.790427	103.237899	0.461505	0.27436	-1.131595	2.18786	2.126252	9.782233	6.954353	-4.453787	0.618976	0.017047	-0.664846	-0.95289	9.298055	1.162915	-0.8975	3.652209	6.959851	5.587441	-0.591581	-0.511065	-0.404892
2.881574	3.510407	16.73696	-98.616938	-290.533046	73.01595	0.40538	0.296686	-1.161766	2.646744	2.350664	9.735455	7.510974	-4.472567	-0.120637	-0.034782	-0.649826	-0.952791	8.938166	0.813785	-1.265028	0.732	5.904289	3.127375	-0.619673	-0.545511	-0.372302
2.815619	3.221311	16.279815	-120.751325	-276.223513	36.859663	0.405723	0.334813	-1.210826	2.068433	1.844625	9.55302	6.200996	-3.133492	-1.125702	-0.010017	-0.714173	-0.906279	9.066912	0.467284	-0.725148	-0.853722	5.458059	1.362569	-0.59179	-0.527258	-0.404055
1.700766	1.447725	17.728245	-133.79946	-264.417597	-8.203805	0.321728	0.361416	-1.254374	2.135238	2.070219	10.007535	6.237812	-2.701368	-1.491312	-0.047833	-0.665221	-0.951512	9.245756	0.641602	-0.601291	-2.209479	5.544636	1.397629	-0.606115	-0.559847	-0.402451
0.843585	1.633499	20.724367	-168.211848	-270.067487	-28.685006	0.24994	0.439201	-1.297859	1.906509	1.901706	10.059197	9.779565	-3.658391	-3.008548	-0.008535	-0.648604	-0.967692	9.181238	0.6405	-0.901926	-5.341292	5.787834	3.425	-0.647489	-0.545919	-0.372443
0.531195	1.697944	22.309814	-164.861958	-271.9377	-54.983342	0.178194	0.465088	-1.288869	1.61728	2.634542	10.053769	13.442346	-4.741345	-3.787066	-0.048053	-0.650973	-0.938166	9.181913	0.35012	-0.903162	-7.086106	5.633302	5.938307	-0.549645	-0.512931	-0.358098
-1.222821	0.554741	23.293825	-158.109604	-265.887847	-94.514541	0.079321	0.502308	-1.321408	2.361334	2.351298	9.842689	13.956429	-3.142875	-3.400824	-0.021737	-0.69464	-0.964406	9.003764	0.350278	-0.966371	-9.988467	4.606144	6.656703	-0.605836	-0.54448	-0.38776
-3.996986	0.391202	24.830426	-159.801601	-256.930366	-125.328474	0.034688	0.53416	-1.28838	1.902905	2.521247	9.94644	14.050246	-2.849335	-1.209045	-0.036484	-0.701147	-0.878032	9.06141	0.466048	-1.024683	-12.767844	3.766445	7.037552	-0.605698	-0.527462	-0.404125
-7.552535	0.679773	24.478331	-155.444927	-241.276625	-150.040247	-0.022552	0.545901	-1.276323	1.923671	2.409392	10.909218	10.340054	-3.055536	-0.320068	-0.035152	-0.666218	-0.937438	9.236392	0.407072	-1.141442	-15.733352	2.990417	7.113126	-0.60521	-0.495903	-0.390271
-9.613441	-1.214547	24.373429	-146.708873	-228.992815	-163.464409	-0.067214	0.612352	-1.278278	1.223993	2.635675	10.498423	7.664758	-9.033174	3.626008	-0.009496	-0.66714	-0.923639	9.114809	0.987608	-1.260985	-15.384479	2.535093	3.935356	-0.633585	-0.527044	-0.419793
-16.036487	3.876012	18.075435	-112.688251	-213.953638	-162.734655	-0.15118	0.604356	-1.286843	2.441306	2.014061	10.863127	2.362565	-10.375251	6.321297	-0.022032	-0.695712	-0.950056	8.996101	1.278258	-1.261949	-13.858457	2.101104	-3.861636	-0.591373	-0.494873	-0.405729
-21.721872	7.922819	23.096643	-163.208956	-199.640543	-124.541194	-0.224827	0.6645	-1.259949	1.614755	2.690777	9.940537	1.215127	-12.720591	11.075491	0.00333	-0.697706	-0.921908	9.349253	1.68398	-1.253616	-10.951916	1.781758	-7.476894	-0.619535	-0.528492	-0.388667
-26.868846	8.342432	26.23763	-64.879579	-173.57234	-118.201161	-0.253082	0.682548	-1.276742	1.401947	4.553306	13.617632	-0.485197	-27.113836	14.168047	-0.022547	-0.682536	-0.92236	9.28462	2.205811	-1.492119	-7.129916	1.456184	-7.214133	-0.591369	-0.513544	-0.358308
-25.216813	0.20156	16.744771	46.411813	-133.884475	-95.566803	-0.32367	0.667122	-1.257504	1.229306	3.649909	10.839115	-10.768992	-43.353925	20.194976	-0.009646	-0.697781	-0.921632	9.711749	1.859376	-0.767017	-5.307651	2.822865	-8.602496	-0.591164	-0.47868	-0.406566
-33.907201	-3.203952	11.21932	61.614418	-78.935888	-35.106474	-0.323656	0.649822	-1.240012	1.584131	3.14262	11.242419	-14.639452	-50.974845	24.308908	-0.035303	-0.696859	-0.93543	9.724238	1.223012	-0.170667	-6.248066	5.367241	-9.466931	-0.647284	-0.511055	-0.4207
-44.899265	-0.565546	8.231942	-0.667063	-23.018523	10.177295	-0.310293	0.65969	-1.229701	2.116056	2.860519	11.876097	-17.302274	-60.990135	26.303623	-0.048279	-0.696934	-0.935155	9.848043	1.107826	0.130574	-4.636351	8.216899	-6.430273	-0.619118	-0.496107	-0.390341
-31.04219	-2.02396	5.59698	-22.032098	1.636264	1.194048	-0.353769	0.650229	-1.186426	1.946855	2.297632	11.985275	-17.205055	-70.287354	26.951198	-0.074891	-0.654339	-0.894565	10.269109	0.527604	0.495246	-1.415612	10.350714	4.275357	-0.619748	-0.526013	-0.435251
-23.274477	2.817047	10.826383	-57.245716	44.368461	4.688654	-0.351883	0.633272	-1.221822	2.514286	2.803244	11.657954	-17.743874	-78.638637	27.052734	-0.022397	-0.651895	-0.924367	9.562805	-0.28384	0.478579	2.814355	12.911044	18.460847	-0.619255	-0.513126	-0.373977
-28.345373	3.30293	29.540663	-38.881329	47.638714	-7.885006	-0.338906	0.656911	-1.214927	1.731554	2.692993	12.717087	-17.958974	-88.27342	26.956799	-0.113373	-0.622851	-0.910095	9.332783	-0.514368	0.772723	4.526646	15.438761	29.019344	-0.633029	-0.47764	-0.437832
1.063343	20.282634	29.786453	388.533682	213.813703	-50.369051	-0.352669	0.678113	-1.246146	2.253162	2.748496	12.897933	-17.884758	-99.411127	27.277783	-0.101508	-0.671953	-0.86431	9.146215	-1.155271	0.167633	4.290981	15.451356	36.60172	-0.591861	-0.526431	-0.419583
8.692543	-1.552862	-11.131916	218.091073	259.650828	-127.437481	-0.265631	0.59324	-1.227746	2.307639	2.466593	12.728986	-15.13018	-111.214167	26.515278	-0.113448	-0.638171	-0.909091	9.439406	-0.342882	0.176597	4.504513	15.677227	41.460883	-0.647422	-0.528074	-0.404336
16.178161	8.854293	6.220339	63.806599	231.319892	-177.979508	-0.263359	0.562512	-1.259726	2.493548	3.142805	13.412857	-17.246525	-124.503143	27.553052	-0.152746	-0.654789	-0.892911	12.383536	1.101526	0.058079	6.181001	11.549269	27.075453	-0.577953	-0.526227	-0.419512
-0.343375	0.738605	12.684418	-44.108526	295.904868	-152.886953	-0.233203	0.510207	-1.260837	2.014382	3.652315	15.271511	-23.260858	-142.832453	31.404807	-0.178253	-0.623226	-0.908716	15.14278	2.602684	-0.482841	-2.504044	3.747551	6.48087	-0.618562	-0.446703	-0.408381
-10.166563	5.909158	11.037549	36.323085	280.640367	-95.116209	-0.192756	0.560639	-1.261472	3.230022	-0.518454	15.236749	-15.613382	-163.845532	25.991948	-0.191153	-0.607981	-0.909444	15.909531	4.692654	-0.220008	-7.168337	-0.599673	11.164397	-0.647075	-0.494863	-0.421538
-6.40092	0.34332	13.13323	-14.886375	208.390836	-18.83493	-0.136645	0.555612	-1.248793	2.981248	0.553977	17.157352	-2.860496	-181.956911	18.207419	-0.191894	-0.640765	-0.878737	14.910773	4.173007	-0.06122	-0.738819	-6.054455	-0.416683	-0.633167	-0.494659	-0.421467
-2.556161	1.249193	10.768126	35.521903	184.707769	10.199396	-0.107275	0.548149	-1.274228	2.129186	0.274368	17.648737	1.179824	-205.031884	10.49004	-0.243798	-0.641066	-0.877634	14.540109	2.775543	-1.15208	-9.565451	-6.945935	-11.9021	-0.591723	-0.509413	-0.435947
-3.031811	2.509619	9.91173	28.410797	147.072932	7.951871	-0.023281	0.521545	-1.230679	3.195538	-0.965753	18.972165	5.552466	-233.541353	2.904084	-0.269825	-0.656536	-0.876079	13.954194	2.371102	-0.985094	-12.092514	-3.414437	-11.17636	-0.632958	-0.478466	-0.422304
-2.950297	-0.242791	11.038323	33.2133	116.878486	23.116962	-0.009189	0.555769	-1.266012	2.642613	-1.470796	19.979162	15.601484	-263.056669	-9.650379	-0.297103	-0.631405	-0.805786	12.838659	2.258752	-0.706963	-11.153667	1.133251	-3.989061	-0.605001	-0.47971	-0.391108
-3.31989	-3.338071	12.495678	-14.82962	50.332384	8.282208	-0.051893	0.518766	-1.215905	2.072526	-2.483525	20.136138	27.404157	-295.475747	-21.769485	-0.361392	-0.629636	-0.833107	12.20904	2.845695	0.421636	-10.515275	0.56627	0.779081	-0.646378	-0.447112	-0.408521
1.147851	0.840548	9.929164	37.431706	26.163967	-4.405436	0.019081	0.520421	-1.231727	2.254331	-2.8215	20.535958	36.830431	-327.802803	-34.75236	-0.401721	-0.6199	-0.761535	11.731699	3.194242	0.174688	-13.134841	-1.087491	8.957067	-0.647288	-0.492384	-0.468121
-0.710233	1.295858	8.587842	32.201297	25.575476	-8.846969	0.006075	0.531381	-1.273605	1.388216	-2.707317	20.40464	65.83783	-357.206138	-44.175993	-0.415808	-0.669152	-0.715199	9.902333	3.140352	0.140327	-14.972973	-2.137717	18.19973	-0.647634	-0.525595	-0.450919
-0.682686	1.70398	10.010858	3.177963	24.075666	0.412818	-0.008417	0.528227	-1.25918	2.082215	-1.471486	17.985896	105.048627	-384.594231	-46.60474	-0.494029	-0.625785	-0.687856	9.377095	2.968575	0.429216	-16.68096	-5.539069	15.257156	-0.618354	-0.430511	-0.409218
-0.046117	0.038926	10.300374	0.894688	21.417859	0.774874	0.00496	0.520796	-1.231378	3.213112	2.243651	17.390168	111.547749	-400.632618	-48.793059	-0.508776	-0.632291	-0.601482	8.782667	2.910861	0.178337	-19.435531	-9.913058	8.410713	-0.689008	-0.511668	-0.420911
-0.399583	-0.07788	9.781532	14.22661	18.124338	-1.463794	0.006475	0.500311	-1.252698	5.390129	4.940847	14.494333	133.097272	-400.379354	-45.567382	-0.535619	-0.695867	-0.568216	8.599846	3.026182	-0.124005	-21.051926	-12.536003	4.180633	-0.633447	-0.510025	-0.436158
-0.798385	0.267542	9.888892	13.868139	14.992145	-1.851021	0.019452	0.52395	-1.245803	5.342043	5.673678	15.003497	121.972747	-387.072661	-24.698491	-0.537761	-0.71869	-0.466765	8.774309	3.664366	-0.177891	-24.324769	-14.125259	-0.017674	-0.633167	-0.494659	-0.421467
-0.108489	0.957067	10.075709	13.666324	12.320194	-2.108546	0.034316	0.530632	-1.274304	6.226923	2.459454	13.03775	121.42849	-381.835152	-4.208535	-0.629993	-0.709255	-0.394089	8.370924	2.795901	0.230046	-26.77413	-15.349609	-0.767028	-0.660495	-0.463508	-0.407754
-0.454118	0.784508	9.954598	10.634526	8.977051	-3.963596	0.020967	0.503464	-1.267123	4.921599	0.037906	10.970089	60.543864	-368.402938	3.767713	-0.630514	-0.756288	-0.376729	8.593919	2.734318	-0.484682	-29.088424	-16.409529	0.377238	-0.646587	-0.463304	-0.407684
-0.284499	0.669018	9.84375	18.104843	4.457866	-6.236041	0.033559	0.540875	-1.263644	-1.417956	-5.192025	7.322253	-23.212018	-329.473038	-4.113656	-0.619454	-0.733075	-0.278564	8.11202	2.675097	-1.032895	-33.341485	-16.272213	0.42255	-0.647008	-0.477018	-0.45343
-0.584465	1.125863	9.157876	12.389532	4.824842	-2.993402	0.033602	0.488977	-1.211168	-7.216282	-8.227329	2.272364	-118.082276	-262.076039	-105.026884	-0.645551	-0.703656	-0.26567	8.358259	2.56063	-0.489826	-35.380042	-15.744431	-1.039599	-0.619468	-0.510647	-0.42056
-0.22869	1.128268	9.78994	5.468547	4.558611	-1.321716	0.035073	0.520389	-1.284964	-3.163094	-2.882146	3.947402	-155.285036	-159.972278	-190.521165	-0.646587	-0.737513	-0.220613	9.312172	3.141702	0.129323	-33.072897	-15.881798	-1.750239	-0.618842	-0.46207	-0.423071
-0.627244	1.12904	9.895852	5.86486	4.003135	-0.963867	0.047708	0.505901	-1.229009	-9.499235	2.204414	9.480232	-120.057156	-10.504121	-198.252766	-0.646963	-0.814115	-0.215595	9.718547	3.19735	-0.222168	-28.73839	-16.246138	-3.475685	-0.660424	-0.464334	-0.392226
-0.407424	1.529035	9.447171	4.88326	4.126349	-1.388393	0.048451	0.512958	-1.257161	-13.053732	3.059055	12.859798	-52.273099	80.135779	-154.337896	-0.646518	-0.782402	-0.231952	10.083223	2.908385	0.32236	-24.686918	-15.231397	-2.6089	-0.674332	-0.464539	-0.392297
-0.920238	1.185242	9.549408	3.037343	3.011432	-1.4012	0.020967	0.503464	-1.267123	-10.127427	1.473445	9.636237	20.696193	129.35559	-98.06647	-0.60759	-0.782177	-0.232779	9.789648	2.735079	0.376023	-21.785044	-12.213467	-0.647253	-0.632891	-0.460621	-0.454197
-0.168136	1.186392	9.961855	2.024346	2.886218	-1.614996	0.047336	0.502373	-1.214933	-9.216688	-0.333761	6.313534	36.746534	159.381847	-53.214916	-0.568517	-0.811521	-0.245949	9.964765	2.618027	0.259016	-20.768506	-8.944935	0.097535	-0.646516	-0.46413	-0.392156
-0.622748	1.072564	10.123023	4.710554	1.52145	-2.135602	0.033587	0.506276	-1.22866	-8.670524	-1.350021	4.85214	10.776945	173.19173	-13.641041	-0.554661	-0.86844	-0.299609	9.375684	2.154769	0.246034	-21.28257	-6.264854	-1.930529	-0.646378	-0.447112	-0.408521
-0.22205	1.187157	10.1313	0.948625	2.232718	-1.346507	0.075935	0.522451	-1.2472	-7.53651	-2.423216	3.969184	-30.541435	181.758636	15.543596	-0.554731	-0.823551	-0.28827	9.501939	1.45907	0.604709	-21.250451	-5.05635	-3.433962	-0.688381	-0.46309	-0.423422
-0.346663	1.299952	9.617878	5.576565	2.128617	-1.116175	0.034702	0.516861	-1.270888	-5.758696	-2.708494	3.666585	-64.553158	188.532756	33.187371	-0.540499	-0.803868	-0.346949	9.266165	1.808314	0.661698	-23.176003	-4.815778	-0.738648	-0.660077	-0.431123	-0.409428
-0.231455	1.874525	9.679371	4.239096	3.498981	-0.538028	0.048837	0.499187	-1.253746	-4.569913	-2.709179	5.446591	-83.411414	195.515985	38.76035	-0.501056	-0.816819	-0.375472	9.208965	2.448027	0.843038	-26.878663	-5.254572	4.931085	-0.688448	-0.480935	-0.39153
-0.348932	1.356911	9.504413	2.287494	4.243854	0.73708	0.033944	0.527104	-1.260228	-3.022872	-2.484668	7.857075	-94.176519	201.041671	29.896775	-0.538803	-0.812757	-0.432043	8.62413	1.578978	1.008046	-31.290883	-5.850119	10.726655	-0.632612	-0.445255	-0.439506
-0.395833	0.899591	10.013047	2.68411	3.906627	0.822461	0.048065	0.526729	-1.260577	-2.138494	-2.034787	8.895101	-93.592239	208.938821	12.80389	-0.51248	-0.796214	-0.447948	8.621119	1.92694	0.889715	-34.021822	-6.940021	14.623629	-0.688519	-0.480109	-0.407057
-0.452057	1.014757	10.069269	-0.412869	4.147065	0.037919	0.034345	0.496033	-1.23932	-1.342526	-0.628317	8.573374	-87.177958	220.518217	-8.285485	-0.498468	-0.762283	-0.49328	8.382719	1.985062	0.765747	-35.568967	-8.393921	15.675438	-0.659869	-0.414931	-0.410265
