1757_acc_x	1757_acc_y	1757_acc_z	1757_gyro_x	1757_gyro_y	1757_gyro_z	1757_mag_x	1757_mag_y	1757_mag_z	1758_acc_x	1758_acc_y	1758_acc_z	1758_gyro_x	1758_gyro_y	1758_gyro_z	1758_mag_x	1758_mag_y	1758_mag_z	1759_acc_x	1759_acc_y	1759_acc_z	1759_gyro_x	1759_gyro_y	1759_gyro_z	1759_mag_x	1759_mag_y	1759_mag_z
0.706253	2.120799	13.733608	-11.26481	5.255798	-10.002874	-0.212109	-0.225957	-0.695856	1.782269	2.239573	9.660587	2.456016	1.34244	1.104586	-0.032937	0.139333	-0.904532	9.661111	1.570862	-0.350005	7.474981	3.366337	-0.552516	-0.503929	-0.335361	-0.041848
-0.046822	1.015432	10.304476	5.805467	20.945476	-4.337871	-0.027596	0.306212	-0.88685	2.47096	2.069193	9.561672	1.895562	1.026322	1.470929	0.105765	-0.386095	-0.801693	10.079206	2.268312	0.020106	8.0228	2.60579	-0.76481	-0.519242	-0.375053	-0.210213
0.014969	0.901472	10.532519	0.142188	22.089498	-4.548324	-0.041702	0.289287	-0.869009	1.556951	2.183863	9.882262	2.76441	1.343541	1.536439	0.130831	-0.389161	-0.759195	10.068586	1.626756	-0.641589	8.56934	2.002923	-1.436289	-0.478074	-0.423845	-0.191963
0.312293	1.018561	11.1071	4.159125	26.95839	-4.051385	-0.04286	0.3306	-0.879257	2.129517	1.90099	9.724195	2.763943	1.312474	1.597786	0.118301	-0.357523	-0.775276	9.955131	2.49965	-0.28064	9.484758	0.937816	-1.648459	-0.49219	-0.440241	-0.191196
-0.088819	1.478383	11.101236	3.393682	31.746194	-3.787347	-0.041345	0.310115	-0.900577	2.069103	2.126325	9.609897	1.712692	1.208764	1.349284	0.079593	-0.371997	-0.787795	10.069417	1.743156	-0.581188	11.076879	-0.121692	-2.168729	-0.506031	-0.4226	-0.223159
0.139002	1.592859	11.04932	3.268817	35.951004	-3.350617	-0.056595	0.317204	-0.875492	1.724249	1.845319	9.602406	1.338921	0.901841	0.667712	0.118816	-0.3707	-0.802972	10.007815	2.38188	-0.639476	12.42143	-0.869884	-3.30083	-0.491911	-0.424875	-0.176506
-0.376987	1.018575	10.980032	6.216086	41.118759	-2.569724	-0.055852	0.32426	-0.903643	2.015272	2.070245	9.778559	0.378983	0.706305	0.572511	0.092638	-0.416811	-0.79941	9.839705	2.326187	-0.163769	13.979648	-1.48895	-5.014982	-0.50589	-0.424253	-0.192104
-0.197263	0.790374	11.380379	6.832013	46.187875	-2.182414	-0.026825	0.27867	-0.880018	1.729324	2.352531	9.886031	-0.179647	0.45695	0.10716	0.10606	-0.385024	-0.816042	9.834338	2.266874	-0.463551	15.823636	-1.936406	-5.477948	-0.505823	-0.406408	-0.223996
-0.432014	1.019099	11.092625	8.498155	52.395815	-1.534269	-0.012318	0.264524	-0.876952	2.187537	2.295244	9.782376	0.068246	0.492562	-0.169739	0.105174	-0.388239	-0.772993	10.25913	1.978021	0.141985	17.365256	-2.054794	-5.330158	-0.492261	-0.439415	-0.206724
-0.42451	1.422879	11.492286	9.663558	57.379622	-1.548612	-0.011947	0.268053	-0.891028	2.019114	1.957726	9.948383	-0.086537	0.46034	-0.231841	0.105765	-0.386095	-0.801693	9.957697	1.396206	-0.285338	18.537689	-2.176089	-5.028209	-0.491982	-0.424049	-0.192033
-0.654434	1.135596	11.429772	11.288742	62.552948	-1.837211	-0.012747	0.330193	-0.932843	2.184341	2.069779	9.612267	-0.455863	0.577491	-0.10766	0.092418	-0.402563	-0.786064	9.777232	1.918801	-0.406228	19.738085	-2.384942	-5.123244	-0.478003	-0.424671	-0.176435
-0.258024	1.019458	11.209672	11.778998	67.160551	-1.487705	-0.011975	0.302651	-0.926011	1.661741	1.901568	9.374686	-0.360295	0.822777	0.079824	0.130681	-0.419802	-0.757188	10.015498	1.918755	-0.282012	21.059765	-2.27895	-6.045381	-0.492123	-0.422396	-0.223089
-0.309752	1.078147	11.493065	10.916078	72.088469	-2.84652	0.015166	0.274018	-0.86699	1.55585	2.127485	9.825575	1.623399	1.425662	0.82729	0.093304	-0.399347	-0.829113	9.782755	2.384892	-0.044808	22.596519	-2.356977	-6.845167	-0.478424	-0.438385	-0.222182
-0.354184	1.827823	12.177326	10.865153	75.656755	-5.916573	0.030015	0.297999	-0.912983	1.899925	2.183121	9.776236	2.524273	1.835065	0.92457	0.132162	-0.354233	-0.818601	9.838024	1.628533	-0.346456	24.284976	-2.429721	-8.103937	-0.50589	-0.424253	-0.192104
-0.856153	1.888533	12.849783	10.771376	81.361691	-7.755712	0.04415	0.280325	-0.89584	1.786219	2.070723	9.830363	2.309734	2.013089	1.419418	0.11815	-0.388164	-0.773269	9.82868	1.858859	-0.824723	25.704117	-2.488005	-7.894872	-0.534265	-0.455394	-0.221625
-1.268235	2.116177	12.274422	6.863509	92.387086	-6.185092	0.05827	0.279951	-0.89619	1.322716	1.73346	9.650488	2.402415	2.014265	1.419505	0.078777	-0.420102	-0.756085	8.948535	2.036349	-0.540953	27.127067	-2.149892	-7.565467	-0.492399	-0.456434	-0.190359
-1.159951	1.482789	11.932876	8.165107	94.572851	-6.030625	0.070876	0.300062	-0.875219	1.901242	2.126838	9.832828	2.497124	2.169166	1.359465	0.092789	-0.38617	-0.801417	9.482827	1.629096	-0.412966	28.362533	-1.869839	-7.601838	-0.506031	-0.4226	-0.223159
-1.514198	0.90621	11.355251	9.805583	100.452095	-3.608927	0.086154	0.258374	-0.86532	2.5794	2.406723	9.281176	2.372613	2.105464	1.482044	0.105765	-0.386095	-0.801693	9.182088	1.221755	-0.77964	28.829983	-1.567013	-7.14656	-0.506098	-0.440445	-0.191266
-1.397172	0.504519	11.469495	10.600207	103.03276	-0.563761	0.09986	0.306369	-0.904069	2.016373	2.126623	9.835246	1.754033	2.036698	1.419206	0.144542	-0.416511	-0.800513	9.474448	1.917745	-0.831078	28.408149	-0.593807	-6.752381	-0.519238	-0.393725	-0.162792
-1.861723	0.273637	11.118504	11.699014	105.183373	2.596152	0.114395	0.257625	-0.866019	2.294098	2.351027	9.388364	1.442013	1.759011	1.077084	0.11837	-0.402413	-0.786615	9.591225	1.510448	-0.950422	27.429163	0.133008	-6.385569	-0.478353	-0.439211	-0.206654
-2.522202	-0.421961	9.511473	5.812769	105.448635	9.302779	0.143394	0.246633	-0.877377	1.894336	2.577245	9.55001	1.251269	1.327757	1.010986	0.105024	-0.41888	-0.770986	9.410315	1.27756	-1.194339	25.406601	1.002068	-5.343304	-0.478282	-0.440037	-0.191126
-2.877562	-0.998781	8.876995	-3.098679	105.016065	19.410277	0.157128	0.260029	-0.881142	2.236425	2.407465	9.387202	1.032671	1.112373	0.700387	0.105319	-0.417808	-0.785336	9.535085	1.220698	-0.832944	22.915034	1.602358	-5.092653	-0.520006	-0.44065	-0.191337
-2.307079	-1.229444	8.773459	-6.977844	101.893244	27.68051	0.143794	0.215563	-0.85647	1.894659	2.408254	9.549867	1.248889	1.086263	0.422848	0.10569	-0.401416	-0.800689	9.588599	1.219327	-1.131379	20.144721	2.235079	-5.116203	-0.49219	-0.440241	-0.191196
-0.437974	-0.890506	7.788296	-7.27389	91.687564	38.829678	0.170506	0.252598	-0.85334	1.494334	2.296442	9.654589	0.723301	1.048935	0.422054	0.132232	-0.399122	-0.82994	9.645279	1.276773	-1.249845	17.622914	2.989474	-4.988424	-0.506307	-0.456638	-0.190429
1.426185	-1.414396	6.515248	-1.147009	74.848743	49.514573	0.169363	0.276612	-0.846095	1.844885	2.126994	9.888259	0.408668	0.585849	0.293884	0.11793	-0.373916	-0.759923	9.70362	1.567018	-1.247508	14.878321	3.073266	-5.162255	-0.519939	-0.422805	-0.223229
2.800125	-1.185624	6.542937	-3.670791	57.463771	66.775257	0.185741	0.262809	-0.895917	1.726906	2.352436	9.772752	0.06739	0.459482	0.199868	0.11815	-0.388164	-0.773269	9.823698	1.160463	-1.187131	12.755743	3.552849	-4.942926	-0.506307	-0.456638	-0.190429
4.276699	-1.476563	5.945297	-10.197713	41.588934	84.621968	0.19839	0.231021	-0.82247	2.013416	2.408181	9.722204	-0.147467	0.54994	0.015626	0.10569	-0.401416	-0.800689	9.701824	1.392296	-1.368064	10.8755	3.544824	-4.813832	-0.492399	-0.456434	-0.190359
5.8738	-0.847073	5.694864	-22.100414	22.273532	97.338532	0.170134	0.24907	-0.839264	1.900811	2.35216	9.833018	0.159097	0.36967	0.044908	0.11859	-0.416661	-0.799961	9.70333	1.218315	-1.308898	9.977654	3.207008	-4.992338	-0.478212	-0.440863	-0.175598
5.579852	0.530283	5.35397	-28.068162	4.858122	96.613058	0.241094	0.268025	-0.872577	2.298587	1.900525	9.557903	0.032166	0.064271	-0.389824	0.117259	-0.45159	-0.740555	10.056326	1.217257	-1.362203	9.447862	2.750056	-5.354978	-0.520424	-0.473035	-0.189663
6.847244	0.53106	5.776438	-29.769866	-35.274697	94.893362	0.226231	0.261343	-0.844076	1.903444	2.239594	9.946202	0.927706	0.073625	-0.080729	0.117925	-0.434125	-0.770258	10.056347	1.682113	-1.300318	10.026809	2.5169	-6.272806	-0.50589	-0.424253	-0.192104
7.417023	1.276903	5.677004	-9.508477	-73.839698	71.832365	0.186155	0.214439	-0.857517	1.898932	2.070413	9.719502	1.362873	0.293364	-0.016538	0.118666	-0.401341	-0.800965	10.593939	1.275602	-0.99261	10.297731	2.344131	-7.220361	-0.492049	-0.441894	-0.160141
6.862128	1.510944	6.576483	-9.319101	-96.814942	48.190101	0.213253	0.237703	-0.850971	1.733381	2.127351	10.05576	1.853904	0.082164	0.41335	0.105174	-0.388239	-0.772993	9.647635	1.684047	-1.068393	10.414663	2.449899	-8.53541	-0.450049	-0.407244	-0.19266
5.855636	0.54025	7.746253	-16.234069	-103.070868	30.355841	0.213253	0.237703	-0.850971	1.666145	2.12708	9.601434	2.780993	0.123984	0.506997	0.066762	-0.401641	-0.799862	9.833217	1.801772	-0.585342	10.966398	2.675482	-9.455304	-0.520565	-0.471382	-0.220718
5.554392	1.22662	7.004491	-31.666471	-108.184596	19.462362	0.227017	0.216501	-0.819753	1.553216	2.240051	9.712391	2.533257	0.060524	0.352026	0.092638	-0.416811	-0.79941	9.643233	1.683058	-1.308021	11.246505	3.261473	-9.825841	-0.506102	-0.421774	-0.238687
4.475797	0.769805	7.436229	-39.854546	-117.591555	10.470887	0.171277	0.225056	-0.846508	1.846118	2.746724	10.00206	2.59103	-0.245945	0.441509	0.144397	-0.386942	-0.78817	9.476359	1.569536	-0.772655	11.222501	3.807255	-9.369951	-0.464721	-0.473044	-0.173854
3.988717	0.259235	8.845363	-40.357677	-127.150069	7.09711	0.144165	0.219091	-0.870546	1.897723	2.070366	9.662862	2.804713	-0.457051	0.316269	0.105985	-0.400344	-0.815039	9.065292	1.164196	-0.722181	10.305475	4.285491	-8.604895	-0.506094	-0.459117	-0.143846
2.856866	0.435284	9.506055	-38.215208	-129.698226	10.300186	0.155628	0.263216	-0.84233	1.784125	1.901637	9.716942	3.450168	-0.723799	0.159996	0.11822	-0.433054	-0.784608	9.939685	1.566478	-1.243106	9.383657	4.369206	-8.143544	-0.53454	-0.489431	-0.188896
2.296529	0.495794	10.120545	-38.972203	-127.876292	17.446325	0.142265	0.253347	-0.852641	1.780067	2.126817	9.547213	3.13741	-1.033967	0.095004	0.1054	-0.342278	-0.776004	9.648756	2.14915	-0.946602	8.434823	4.787097	-7.469761	-0.492257	-0.458086	-0.159304
2.353825	0.438311	10.121417	-41.408609	-126.112819	26.343846	0.141879	0.267118	-0.856057	1.779313	2.52113	9.547544	2.884413	-1.49708	0.090195	0.105394	-0.402488	-0.786339	9.413616	1.278302	-1.014619	7.451603	5.180593	-7.406956	-0.478629	-0.473248	-0.173924
1.96467	1.302878	10.742626	-42.352526	-124.909496	33.725083	0.114395	0.257625	-0.866019	1.834114	2.070236	9.378455	3.00865	-1.463438	-0.125167	0.10584	-0.370775	-0.802696	9.772115	1.278481	-0.768389	6.652258	5.452709	-7.374799	-0.506445	-0.473657	-0.174064
1.796455	1.016518	10.908639	-43.673965	-123.304149	38.047543	0.099503	0.285541	-0.872501	1.554102	2.40909	9.769172	2.326062	-1.716377	-0.282372	0.105099	-0.40356	-0.77199	9.353655	1.684969	-1.013989	6.071887	5.781738	-6.854728	-0.520703	-0.488401	-0.204353
1.961164	1.53192	10.573032	-46.365483	-122.207422	37.858472	0.070876	0.300062	-0.875219	1.900488	2.521152	9.83316	3.037984	-1.585707	-0.126359	0.119111	-0.369628	-0.817322	9.525451	1.102321	-1.372601	5.52294	6.078712	-6.181809	-0.464308	-0.421988	-0.222949
2.264221	1.420448	11.430914	-48.872789	-123.464476	33.797973	0.056756	0.300436	-0.874869	2.185574	2.68951	9.726068	2.419212	-1.65548	-0.035067	0.131792	-0.370625	-0.803248	9.356551	1.859939	-0.833526	4.970027	5.979585	-5.659789	-0.520357	-0.45519	-0.221555
1.351077	1.996251	11.58607	-50.142685	-126.694763	27.98466	0.027743	0.328727	-0.881003	1.844	1.957955	9.831477	2.850478	-1.742391	0.026072	0.105394	-0.402488	-0.786339	9.532614	1.336355	-0.952264	5.097928	5.940296	-4.773779	-0.492887	-0.487993	-0.204213
0.949431	1.65165	11.519975	-49.642092	-131.491888	22.75388	0.0289	0.287414	-0.870755	1.610135	2.577927	9.713884	2.198706	-1.995341	-0.069452	0.131271	-0.417658	-0.785887	9.242205	1.221867	-0.718633	4.729567	5.99794	-4.558788	-0.465213	-0.485932	-0.235128
0.792309	1.425145	12.254759	-48.352561	-136.449699	15.739494	0.040734	0.335067	-0.856616	2.069103	2.126325	9.609897	1.67339	-2.059913	-0.594594	0.118666	-0.401341	-0.800965	9.230796	1.393623	-1.31696	4.392718	5.992307	-4.129675	-0.520494	-0.472208	-0.20519
0.909909	1.770435	12.428993	-48.353084	-140.153739	6.111567	-0.013476	0.305837	-0.887199	2.313871	2.126463	10.294408	1.149635	-1.944519	-0.501383	0.105759	-0.446305	-0.812028	9.645414	1.218697	-1.250092	3.781941	6.289375	-3.48708	-0.520841	-0.505419	-0.187988
-0.179163	1.943306	12.351708	-46.88337	-142.657087	-5.740464	-0.000498	0.329477	-0.880304	1.791509	2.465274	10.113893	1.490601	-1.819761	-0.16076	0.10562	-0.356526	-0.78935	9.414156	1.045998	-1.015608	2.245573	6.273743	-2.503453	-0.478909	-0.488615	-0.188615
-0.85376	1.659249	12.962523	-46.215685	-140.666214	-18.284803	-0.04136	0.327414	-0.918069	1.896969	2.464679	9.663194	1.52364	-1.636383	-0.004769	0.156853	-0.4339	-0.771085	9.235737	1.162308	-1.078321	0.312741	6.403632	-0.938388	-0.491982	-0.424049	-0.192033
-1.884174	1.430229	12.941515	-45.318125	-131.510454	-30.683669	-0.086393	0.390336	-0.905948	2.127146	3.140262	9.725238	1.677954	-1.635229	0.118679	0.118515	-0.431982	-0.798958	9.350063	1.335524	-1.2551	-1.52984	6.28976	0.566408	-0.46493	-0.489237	-0.173017
-3.431649	0.569242	12.794125	-46.67997	-116.061339	-43.097393	-0.071487	0.34512	-0.881974	1.781276	2.126864	9.603852	2.604928	-1.594012	0.304803	0.091678	-0.435347	-0.755357	9.241375	1.105468	-0.779034	-3.063884	6.393969	1.793993	-0.534749	-0.505624	-0.188059
-5.835222	0.571224	12.804212	-52.960735	-99.557954	-52.965144	-0.099699	0.311271	-0.846292	1.726798	2.408767	9.772799	2.757213	-1.775239	0.179811	0.118226	-0.372844	-0.774273	9.532344	1.452507	-0.951769	-3.922344	6.536882	2.468815	-0.506449	-0.454985	-0.221485
-9.210042	-3.849329	12.719935	-53.915396	-84.948244	-61.867152	-0.099742	0.363169	-0.898767	1.907071	2.239737	10.116121	2.048993	-1.600262	0.180981	0.157003	-0.403259	-0.773093	9.477304	1.163004	-0.774385	-4.558914	6.979543	3.813808	-0.520841	-0.505419	-0.187988
-7.55066	-10.737144	0.731962	132.73024	-68.092841	-53.878237	-0.07263	0.369134	-0.87473	2.128763	2.295304	9.724527	2.662896	-1.870826	0.548722	0.080033	-0.400494	-0.814487	9.405488	0.985944	-1.49511	-4.583247	7.525968	4.208619	-0.506307	-0.456638	-0.190429
-12.09734	3.34118	14.626316	-10.551526	-9.271156	-54.043275	-0.142118	0.381592	-0.915211	1.673829	1.902042	9.941082	2.014436	-1.877447	0.30151	0.118295	-0.417733	-0.785611	9.521765	1.740662	-1.489695	-3.134296	7.593623	4.080792	-0.506795	-0.488197	-0.204283
-14.236833	4.774409	13.567794	-37.174626	2.020796	-68.631776	-0.128741	0.374161	-0.887409	2.243355	2.576741	9.727182	1.950854	-2.030752	0.176622	0.130756	-0.404481	-0.758191	9.290352	1.161184	-1.316849	-1.622524	7.72142	4.074707	-0.478558	-0.474075	-0.158396
-13.745371	2.298501	12.259818	11.719559	14.049446	-55.047418	-0.143233	0.371007	-0.872984	2.524144	2.463257	9.393294	1.733896	-2.065771	0.422724	0.066542	-0.387392	-0.786516	9.291182	1.277583	-1.256447	-0.758897	8.189693	3.458069	-0.520282	-0.474687	-0.158607
-14.319811	1.838901	12.133046	31.387932	33.904	-41.651576	-0.142861	0.374535	-0.88706	1.786435	1.958062	9.830268	1.701094	-2.190636	0.698909	0.144027	-0.403335	-0.772817	9.524776	1.392701	-1.371365	-1.099581	8.315566	3.000247	-0.493234	-0.521204	-0.187011
-13.919154	2.010935	12.141565	43.327515	56.552922	-34.078442	-0.113091	0.336001	-0.891586	1.953433	2.408194	9.607716	3.244736	-2.205125	1.224086	0.105394	-0.402488	-0.786339	9.412921	1.103827	-1.075267	-1.991956	8.495266	3.063748	-0.492746	-0.489645	-0.173157
3.385228	0.839897	10.200002	118.022479	56.243408	-30.433721	-0.086379	0.373037	-0.888456	1.841821	2.464882	9.775264	3.828172	-2.416561	1.869845	0.105319	-0.417808	-0.785336	9.777057	1.047166	-0.52975	-3.131202	8.177687	3.802919	-0.506445	-0.473657	-0.174064
3.709405	2.961125	9.305962	26.667237	69.817013	-45.348676	-0.113077	0.318702	-0.874095	2.240375	2.238616	9.556979	4.505846	-2.504161	2.516912	0.118295	-0.417733	-0.785611	9.711749	1.859376	-0.767017	-4.590873	7.540469	2.802645	-0.492537	-0.473453	-0.173994
4.917078	0.203784	9.488322	20.887802	70.741033	-66.853131	-0.098985	0.352926	-0.909427	2.424944	2.351428	10.127096	5.463547	-2.463357	2.82637	0.117849	-0.449446	-0.769254	10.178666	2.205763	-0.996357	-5.686834	6.512895	1.222223	-0.493379	-0.50088	-0.265487
1.96567	2.094955	7.904464	34.471269	84.239805	-78.392955	-0.114577	0.321888	-0.835283	1.896838	1.901327	9.60608	5.402933	-2.31484	3.444364	0.11837	-0.402413	-0.786615	10.418437	2.031737	-0.812977	-6.340982	5.28127	1.780609	-0.492679	-0.4718	-0.20505
-0.771698	2.501448	8.421236	13.240871	100.581259	-56.896571	-0.099728	0.34587	-0.881276	1.725913	2.239728	9.716017	6.550592	-1.875451	4.12788	0.092714	-0.401491	-0.800413	10.721065	1.626013	-0.449764	-6.461722	4.841213	2.88343	-0.520636	-0.470556	-0.236246
-1.355139	1.535289	10.735862	2.641457	93.363982	-29.007071	-0.085222	0.331724	-0.878209	2.132389	2.295446	9.894446	7.879899	-1.768009	4.345816	0.092343	-0.417883	-0.78506	10.364072	1.451853	-0.636829	-6.762093	4.200643	-0.352123	-0.548377	-0.490462	-0.173438
-1.532263	1.246999	10.44705	5.087204	86.863217	-4.797679	-0.084464	0.321481	-0.888869	1.782831	2.577603	9.717511	7.264841	-1.560789	4.285725	0.079222	-0.388389	-0.772442	10.426005	2.091543	-0.393381	-8.265734	3.153668	-3.153426	-0.506933	-0.505215	-0.187918
0.230086	1.645151	9.857873	16.283223	85.29504	7.994337	-0.085236	0.349023	-0.895701	2.134484	2.464533	10.007867	7.303844	-0.888179	4.662385	0.092418	-0.402563	-0.786064	10.018394	2.093725	-0.10155	-9.223643	1.943353	-1.799441	-0.506795	-0.488197	-0.204283
0.398675	1.414537	9.689689	8.696119	84.815006	11.994965	-0.05658	0.299905	-0.858	2.019245	2.521079	10.005497	7.280397	-0.277082	4.945898	0.131051	-0.40341	-0.772541	9.662096	2.09404	-0.227966	-10.013688	1.297467	1.232221	-0.534891	-0.503971	-0.219114
-0.046988	1.245198	10.305441	12.38557	80.00018	7.275482	0.000259	0.319234	-0.890964	1.908411	2.803137	10.229875	4.805656	-0.468608	5.990169	0.092343	-0.417883	-0.78506	9.949319	1.684855	-0.70345	-10.406003	1.093574	3.068419	-0.506724	-0.489023	-0.188755
-0.465615	-1.803256	9.261502	23.286311	38.911582	1.209433	0.014008	0.315331	-0.877238	1.854795	2.634395	10.398442	9.337725	3.698897	5.788629	0.10584	-0.370775	-0.802696	10.079611	2.094084	0.019364	-9.676909	0.464886	1.999057	-0.492746	-0.489645	-0.173157
-0.779746	0.673734	10.857084	14.866637	22.806058	-2.094912	-0.027968	0.302684	-0.872774	1.910613	2.915892	10.343249	5.676113	0.401258	10.654639	0.079367	-0.417958	-0.784784	10.669658	2.615665	0.092501	-7.416885	-1.255687	0.562613	-0.506027	-0.441272	-0.175739
-0.17795	0.897013	9.44897	15.51896	23.034037	-0.252995	-0.042874	0.3479	-0.896748	1.94105	2.804417	11.759144	-3.58776	-16.051649	14.090564	0.091602	-0.450668	-0.754353	10.597301	2.67091	-0.627235	-4.017093	-3.122018	4.74641	-0.534261	-0.474065	-0.174205
-0.164671	1.014791	10.13169	3.642562	14.038023	2.211069	-0.013819	0.26771	-0.83814	2.672476	2.802352	10.981905	3.91953	-31.095867	7.904589	0.104804	-0.404632	-0.75764	10.367819	2.208078	-0.33408	-0.114321	-3.859417	3.452111	-0.520703	-0.488401	-0.204353
-0.340681	0.726742	9.89973	2.853027	10.6904	1.668253	-0.014619	0.329851	-0.879955	2.121453	3.198739	12.15958	3.665431	-38.834257	8.937282	0.092638	-0.416811	-0.79941	10.599752	2.090397	-0.5698	2.863074	-4.164648	1.456159	-0.534749	-0.505624	-0.188059
-0.099498	0.844114	10.530051	6.649491	7.083308	-1.222746	-0.027982	0.319983	-0.890266	1.929177	2.691282	11.192653	3.377899	-46.873087	8.887964	0.104804	-0.404632	-0.75764	10.415696	2.263546	-0.931801	3.970825	-3.380176	-0.079749	-0.520349	-0.492532	-0.126714
-0.165495	0.612459	10.073148	10.705543	4.656015	-2.347261	0.000259	0.319234	-0.890964	1.930709	2.522338	11.24915	4.461634	-51.550088	8.595714	0.066171	-0.403785	-0.771162	10.471971	2.495221	-1.049526	4.253714	-2.333795	-0.605335	-0.534331	-0.473239	-0.189733
0.407956	0.899493	10.142342	6.980388	2.277595	-2.835219	0.028872	0.322013	-0.905739	2.488685	2.91491	10.468617	4.777819	-55.925639	7.596786	0.091822	-0.464916	-0.767699	10.183628	2.439303	-0.695834	3.987733	-1.301067	0.001955	-0.50728	-0.538427	-0.170716
-0.054907	1.415834	9.908194	8.691587	1.674104	-3.12597	-0.028739	0.330226	-0.879606	2.083632	2.746578	10.346733	3.057597	-60.084595	7.029976	0.053271	-0.388539	-0.77189	10.009861	1.975595	-0.581299	2.302662	0.100574	-0.059757	-0.507004	-0.504389	-0.203446
-0.343116	1.013468	9.787231	5.632239	1.957377	-2.253843	-0.015005	0.343622	-0.883371	2.432197	2.351712	10.466934	3.076111	-63.574869	6.070442	0.04081	-0.401791	-0.79931	10.123511	2.439191	-0.756841	0.25172	1.617266	0.460002	-0.478767	-0.490267	-0.157559
-0.220522	0.612983	10.18574	4.408088	1.821426	-1.608495	0.014394	0.30156	-0.873822	4.825347	-3.510227	11.53108	-9.512967	-67.553993	3.770289	0.039108	-0.453112	-0.724551	10.13189	2.150542	-0.338729	-2.333872	2.375849	0.160117	-0.492533	-0.492124	-0.126574
0.004782	1.129067	10.021807	3.523278	2.150109	-1.140583	0.016266	0.301902	-0.92671	0.472706	-0.008406	12.801493	-6.870817	-66.262493	3.723595	0.000406	-0.407376	-0.726735	9.775842	1.56985	-0.527525	-4.550503	3.044627	-0.201802	-0.520491	-0.49088	-0.15777
-0.237473	0.954013	9.334392	1.779507	1.945047	-0.034847	-0.014619	0.329851	-0.879955	2.414955	2.128063	12.334642	1.522328	-81.237962	6.849315	0.041105	-0.400719	-0.81366	10.130809	2.61515	-0.336751	-6.282528	3.141851	-1.326812	-0.506441	-0.492328	-0.126644
0.174318	1.12846	9.911441	1.808636	1.573977	0.173713	-0.027596	0.306212	-0.88685	2.625528	1.676181	11.376225	3.112786	-87.409401	6.049374	0.040659	-0.432432	-0.797303	9.950865	2.440585	-0.520515	-7.15272	2.841357	-2.147413	-0.520979	-0.522438	-0.171623
-0.22638	1.013867	9.903164	1.816487	2.552869	0.588282	-0.001613	0.318892	-0.838076	3.15452	2.295321	11.954023	8.043332	-93.462646	3.002831	0.014267	-0.404085	-0.770059	9.83984	2.268111	-0.164016	-7.830891	2.962853	-2.298348	-0.506862	-0.506042	-0.17239
-0.281614	1.301599	10.016963	0.477129	3.365198	1.586707	-0.013118	0.326665	-0.918767	3.032652	1.393917	11.554369	13.113636	-100.449754	2.259252	0.000111	-0.408447	-0.712385	9.948664	2.440091	-0.640329	-8.294805	2.715525	-2.203801	-0.506929	-0.523887	-0.140498
-0.517106	1.013109	9.670184	0.330278	4.191102	1.876561	-0.027611	0.323511	-0.904342	3.14759	2.126045	11.614043	14.975775	-107.138198	1.176953	-0.01235	-0.421699	-0.739805	9.723604	2.443103	-0.045662	-9.010621	2.228895	-2.718445	-0.535099	-0.520164	-0.218277
0.003834	0.89906	9.963988	-1.047481	4.117985	2.339352	-0.013847	0.302309	-0.873123	3.219231	2.351829	12.295117	18.021369	-115.412723	0.912211	-0.025031	-0.420702	-0.753879	9.829416	2.963045	-0.640305	-10.276627	2.19691	-3.019329	-0.478487	-0.474901	-0.142868
-0.228441	0.783619	9.788493	-1.451206	3.192444	2.478809	-0.028725	0.312926	-0.862114	2.812538	2.408771	12.116783	19.215262	-123.501012	1.356881	-0.038672	-0.438242	-0.7239	10.07606	2.67435	-0.097977	-11.849176	2.750385	-3.84145	-0.493301	-0.539049	-0.155118
-0.512735	1.128958	9.898079	-1.215104	2.15567	1.847929	-0.000484	0.312177	-0.862812	3.343062	2.858967	12.751078	20.874886	-133.766791	2.458517	-0.037561	-0.389065	-0.76996	10.001928	3.019727	-0.876384	-14.101164	3.645162	-5.365651	-0.520908	-0.523264	-0.156096
-0.004209	1.24202	9.567465	-1.643024	2.181617	2.094923	0.028129	0.314956	-0.877587	3.225275	2.352066	12.578315	21.166265	-144.871276	2.348424	-0.064694	-0.393502	-0.71201	9.78264	2.907824	0.017324	-16.296472	4.673877	-7.990877	-0.493372	-0.538222	-0.170646
-0.458696	0.955868	9.727909	-1.766327	2.089197	2.063108	0.000659	0.288163	-0.870057	3.407534	2.408452	13.035106	24.546347	-155.968162	2.271728	-0.129875	-0.455159	-0.706617	9.479431	2.616141	-0.46867	-19.10791	5.482148	-10.215479	-0.506374	-0.474483	-0.158537
-0.049914	0.670059	10.132469	-0.022359	1.918179	1.595295	-0.013847	0.302309	-0.873123	3.448715	2.126028	12.243123	32.976696	-168.258554	1.97145	-0.090721	-0.408973	-0.710455	9.717852	3.022875	-0.282817	-21.886573	6.255845	-12.042717	-0.493159	-0.540701	-0.124062
-0.004043	1.012254	9.566499	-0.728532	1.793352	1.472629	0.000645	0.305463	-0.887548	3.350723	2.014246	13.033565	36.605445	-179.316305	0.847201	-0.117929	-0.428731	-0.651501	9.004851	3.197734	-0.534908	-24.821255	6.660011	-13.684243	-0.493021	-0.523682	-0.140427
-0.173372	0.725653	9.675659	-0.390823	1.981054	1.321369	-0.026853	0.313269	-0.915002	4.680079	1.110621	13.23053	51.000842	-188.856942	-0.222478	-0.155826	-0.455309	-0.706065	9.368697	2.79237	-0.050781	-27.480384	6.541037	-14.926979	-0.493443	-0.537396	-0.186174
-0.28553	0.553894	9.786414	0.249064	1.65053	0.915475	-0.013076	0.274767	-0.866292	4.896827	1.22233	12.612425	63.770334	-195.329455	-4.284121	-0.169022	-0.441136	-0.692443	9.023268	2.853234	0.422119	-28.844574	6.116085	-15.714549	-0.465835	-0.55318	-0.185196
-0.223863	0.612259	10.015181	1.137691	1.686454	0.821497	0.015523	0.294846	-0.898558	4.773581	1.672905	12.270549	83.458404	-199.024638	-6.524574	-0.170574	-0.461816	-0.619691	8.658842	2.561191	-0.184789	-30.025307	5.135812	-15.980626	-0.492954	-0.505837	-0.17232
0.003752	1.013943	9.964471	2.266308	1.237727	0.197599	0.001417	0.277921	-0.880717	5.914572	2.008353	11.841895	102.715303	-199.798152	-5.715236	-0.223068	-0.464259	-0.589888	8.663939	2.736656	0.115487	-30.896235	4.091692	-15.880812	-0.50728	-0.538427	-0.170716
0.172257	0.898212	9.79677	3.276684	1.182724	0.040457	0.028886	0.304714	-0.888247	5.906564	2.402382	11.502389	112.472149	-197.371123	-5.806589	-0.223734	-0.481724	-0.560185	8.956704	3.258417	0.063308	-31.181061	2.645394	-15.139462	-0.49386	-0.569781	-0.1845
-0.335445	1.187481	10.185926	3.645273	1.369874	-0.049566	0.015151	0.291317	-0.884482	6.287978	2.288113	10.491244	121.826116	-194.610645	-1.332429	-0.263402	-0.514733	-0.528651	8.555541	2.855303	0.652943	-31.1874	1.073967	-14.031805	-0.465623	-0.555659	-0.138613
-0.053337	0.784218	9.962392	4.106479	1.586795	-0.0167	0.013622	0.329102	-0.880653	6.855358	1.946336	7.389079	109.601572	-194.115011	2.392856	-0.263848	-0.546446	-0.512294	9.088462	2.563955	0.721518	-30.178679	-0.551498	-13.263713	-0.507697	-0.570812	-0.169042
0.112734	0.955212	9.682191	4.197514	1.464645	-0.049615	0.028114	0.332256	-0.895079	7.422634	1.268913	6.947482	70.7288	-190.961485	7.911175	-0.263547	-0.485164	-0.516309	8.846895	2.563259	0.417581	-28.675913	-2.269778	-12.221924	-0.493856	-0.588452	-0.137079
-0.051607	1.473999	10.078994	3.496534	1.919547	0.205139	0.014365	0.336159	-0.908805	4.731328	0.767525	7.513272	31.606187	-183.115264	8.820825	-0.290761	-0.565132	-0.46769	8.850196	2.564	0.597302	-26.828858	-4.058714	-10.141987	-0.507209	-0.539253	-0.155188
-0.107375	0.957308	10.132562	3.283235	1.977575	0.421371	0.013622	0.329102	-0.880653	-0.710374	-2.209284	5.697933	-21.905855	-174.903225	-22.677365	-0.342809	-0.535863	-0.454245	9.728991	2.967271	0.316005	-24.5143	-5.079366	-8.25074	-0.507417	-0.555445	-0.154351
-0.052721	1.473758	10.022141	1.967825	2.371281	0.400888	-0.012733	0.312894	-0.915351	-8.573601	-2.818021	1.17296	-73.43948	-122.184458	-56.349941	-0.303511	-0.519246	-0.470425	9.675612	2.910566	0.614192	-22.238494	-6.147114	-7.734351	-0.466529	-0.619603	-0.150792
-0.336435	1.014915	10.128349	0.986736	2.367745	0.311651	0.01478	0.287789	-0.870406	-5.919665	-0.623325	4.401028	-89.848265	-51.547703	-53.133569	-0.330424	-0.537932	-0.425821	9.965866	2.618275	0.318923	-20.508147	-6.272399	-6.853748	-0.521676	-0.570189	-0.18464
-0.056968	1.185585	9.793522	0.584308	2.064479	-0.213474	-0.013476	0.305837	-0.887199	-6.212623	-0.226278	6.886249	-51.907288	30.650446	-29.197485	-0.356451	-0.553403	-0.424266	10.497976	2.675383	0.388981	-19.699481	-5.693065	-6.401023	-0.508256	-0.601544	-0.198423
-0.057957	1.013019	9.735945	-0.613566	1.690814	-0.277434	0.029672	0.259872	-0.863923	-6.84579	0.622297	9.647794	-0.903969	98.01499	-9.157902	-0.343325	-0.522687	-0.426549	9.846598	2.676373	0.257063	-19.111309	-4.577793	-7.5698	-0.479948	-0.588248	-0.137009
0.175308	1.301026	9.969018	-0.002973	1.418829	-0.436952	0.001016	0.308991	-0.901624	-5.671542	0.393336	8.030443	42.426879	124.211424	14.41296	-0.341999	-0.547968	-0.49629	9.552888	2.561144	0.310973	-19.259109	-3.069097	-8.584974	-0.452345	-0.585361	-0.183452
-0.626337	1.416489	9.953912	0.485036	1.052338	-0.444313	-0.000112	0.315706	-0.876888	-3.674393	-1.132166	7.108601	36.946602	126.381724	23.339803	-0.342885	-0.551184	-0.453241	9.730206	2.444587	0.31378	-20.024998	-1.621891	-9.780972	-0.493789	-0.570607	-0.168972
-0.221019	1.302281	10.188636	0.515827	1.208573	-0.656539	0.028529	0.283886	-0.856679	-1.933431	-2.376581	4.992729	7.552342	121.55633	15.43749	-0.27771	-0.549737	-0.46897	9.379525	1.923207	0.424766	-21.165889	-0.942629	-10.788573	-0.480086	-0.605267	-0.120644
-0.228275	0.553852	9.787527	1.005134	1.026125	-0.630245	0.027386	0.3079	-0.849435	-1.465655	-2.377159	5.342238	-31.713198	129.725957	1.799287	-0.29039	-0.54874	-0.483044	9.731442	2.386758	0.373439	-22.551899	-0.732863	-10.845675	-0.47981	-0.57123	-0.153374
0.287797	1.013253	9.856332	1.279938	0.905181	-0.694337	-0.027982	0.319983	-0.890266	-1.456392	-1.531774	5.852706	-53.005482	142.392433	-13.505656	-0.303291	-0.533495	-0.483771	9.431669	2.037741	0.066919	-23.511392	-1.319073	-10.686601	-0.507977	-0.586178	-0.183733
-0.119997	1.471628	9.50935	0.792859	1.206385	-0.350692	0.000659	0.288163	-0.870057	-1.200243	0.102518	7.218267	-59.718526	162.24954	-27.555427	-0.263923	-0.561767	-0.511291	9.262749	2.330504	0.544109	-25.059473	-2.243552	-10.554342	-0.479881	-0.570403	-0.168902
0.125149	0.7281	10.30661	0.732152	1.298294	-0.349023	0.001417	0.277921	-0.880717	-1.02787	0.271186	7.222036	-49.090645	183.267941	-36.030646	-0.276818	-0.486311	-0.501684	9.552037	1.979889	0.188687	-26.019746	-3.697592	-9.290947	-0.521672	-0.588861	-0.137219
0.108156	1.126572	9.455503	1.777127	1.764134	-0.34446	0.013265	0.308274	-0.849086	-1.35446	0.554244	8.121253	-47.133261	197.952964	-43.897558	-0.23745	-0.514583	-0.529203	9.611749	2.154229	0.250436	-26.330298	-5.029459	-7.785987	-0.508323	-0.619389	-0.166531
0.010557	0.843066	10.304866	1.443834	2.189674	-0.060573	-0.028711	0.295627	-0.844622	-0.434299	0.383481	8.083814	-50.964602	202.258986	-49.498789	-0.236935	-0.52776	-0.556899	9.199196	2.387726	0.303629	-26.639429	-5.712025	-6.956461	-0.522302	-0.618767	-0.182129
-0.05008	0.899825	10.133434	2.185484	3.051853	0.104644	-9.8e-05	0.298406	-0.859397	0.036265	1.453373	8.660782	-63.091789	198.183236	-53.895427	-0.198303	-0.528607	-0.543376	9.374584	2.154522	0.186127	-26.054225	-6.485029	-5.946369	-0.494207	-0.602992	-0.167298
-0.286068	1.300634	9.789551	2.928921	4.002747	0.577976	-8.4e-05	0.281107	-0.841905	0.28503	2.524028	9.629392	-77.237971	191.154236	-55.518009	-0.171685	-0.510992	-0.573631	9.550667	2.095794	0.129274	-25.369971	-6.618181	-4.664625	-0.466599	-0.618777	-0.16632
-0.223039	1.014591	10.073723	3.449384	4.225861	0.089418	0.015508	0.312145	-0.91605	0.179916	2.975314	10.13711	-83.876888	184.668357	-50.717585	-0.132392	-0.554585	-0.600147	9.193559	2.444566	0.004341	-24.749227	-6.623844	-3.902801	-0.466111	-0.587218	-0.152466
-0.514962	1.128475	9.784373	1.428442	4.211203	0.555015	-0.013847	0.302309	-0.873123	-0.62071	3.371374	10.403715	-86.962626	181.158544	-39.81202	-0.105034	-0.504186	-0.661108	9.259312	2.387838	0.364636	-23.881734	-6.380446	-3.479237	-0.508185	-0.60237	-0.182896
-0.170529	1.415675	9.849114	2.135109	4.491076	0.55753	-0.013104	0.309366	-0.901275	-0.734416	3.258976	10.457842	-89.286003	179.424661	-27.346607	-0.130986	-0.504336	-0.660556	9.793604	1.980585	0.492623	-23.112695	-6.126033	-4.155599	-0.507973	-0.604849	-0.136312
-0.051234	0.957025	10.076822	2.19659	4.616025	0.406044	0.000645	0.305463	-0.887548	-0.204	3.765502	11.092185	-96.532685	179.256639	-15.639936	-0.065591	-0.517138	-0.689631	9.442673	2.040213	0.665988	-22.71172	-5.845513	-4.525132	-0.466529	-0.619603	-0.150792
-0.168012	1.014067	9.961131	1.585809	4.857276	0.565062	-0.014219	0.298781	-0.859047	0.32881	3.65244	11.782645	-102.622244	177.555533	-6.136092	-0.05298	-0.473245	-0.664218	9.330953	1.693263	0.961838	-22.254767	-6.050719	-5.228726	-0.467021	-0.63249	-0.212066
0.063233	1.014384	10.079291	2.568916	5.387067	0.3255	-0.013104	0.309366	-0.901275	0.816922	3.76533	13.095122	-108.816412	174.962677	3.698082	-0.052609	-0.456853	-0.679571	9.264794	1.924219	0.602286	-21.391487	-6.171859	-5.047905	-0.493931	-0.568955	-0.200027
0.292499	0.669569	10.082297	3.39284	5.025632	0.010575	-0.01459	0.295252	-0.844971	0.936241	4.103287	13.324383	-110.809331	172.383553	14.892441	-0.038817	-0.408673	-0.711558	9.330278	1.983643	0.963075	-20.838529	-6.507595	-4.926059	-0.508603	-0.634755	-0.181221
-0.005156	1.012013	9.509646	3.328512	4.971532	-0.664815	-0.01309	0.292066	-0.883783	1.987248	3.932924	14.025676	-112.680332	172.102872	26.140858	-0.013016	-0.439163	-0.710102	9.029	1.808607	0.597389	-19.691784	-6.359692	-4.044626	-0.480649	-0.617328	-0.197446
-0.050903	0.497493	10.074892	2.03472	4.202107	-1.102949	0.0293	0.256344	-0.849848	2.899941	3.874537	13.648494	-117.527978	175.574593	33.909835	0.000921	-0.420552	-0.75443	9.326977	1.982901	0.783354	-18.24321	-6.819293	-3.467002	-0.48044	-0.601136	-0.198283
-0.22176	0.785066	10.129611	4.672015	4.428836	-1.045519	0.014037	0.280732	-0.842254	3.778814	4.042529	14.403085	-119.321379	185.514537	37.337017	0.026433	-0.391905	-0.72829	9.207844	1.982924	0.721246	-16.546894	-7.311116	-2.645621	-0.480716	-0.635173	-0.165553
-0.51389	1.186158	9.841467	4.334625	4.709755	-1.561341	0.001045	0.274392	-0.866641	4.773056	4.717327	15.21716	-115.449792	198.247807	36.60365	0.026879	-0.360192	-0.744647	9.328212	1.925073	0.843014	-15.001812	-7.498556	-1.733452	-0.466812	-0.616298	-0.212904
-0.227245	0.668977	9.844863	3.940119	5.166082	-1.307443	0.000273	0.301935	-0.873473	6.226028	4.433501	15.870181	-110.624761	203.709339	39.714122	0.053861	-0.386396	-0.80059	8.741467	1.404233	0.949598	-13.204299	-7.913411	0.554222	-0.481204	-0.666732	-0.179407
-0.337672	1.186999	10.07222	4.80224	5.909723	-1.481848	0.028514	0.301185	-0.874171	8.012111	4.880899	16.021316	-97.709639	206.529382	45.641256	0.092274	-0.372994	-0.773721	8.731563	1.402008	0.410436	-10.721694	-8.276626	4.000632	-0.481066	-0.649713	-0.195772
-0.34629	0.782978	9.615706	3.91466	5.996029	-1.32455	0.000659	0.288163	-0.870057	10.563402	7.015233	14.434971	-77.062523	198.012507	53.404176	0.106135	-0.369703	-0.817046	8.675578	1.519037	0.589551	-9.541813	-8.567562	5.923285	-0.467509	-0.664049	-0.22592
0.175142	1.530792	9.969983	4.437116	6.244658	-1.352681	0.015551	0.260247	-0.863574	16.763027	7.904265	13.829977	-77.16266	162.776313	45.807986	0.132168	-0.294023	-0.808266	8.742858	1.753184	1.070895	-9.066012	-8.498091	8.24414	-0.452904	-0.616094	-0.212833
-0.622831	1.187447	10.123506	4.071054	6.73881	-1.711614	-0.029111	0.326697	-0.86553	29.779685	41.176378	20.133806	-160.259404	-1.224983	-25.285892	0.106581	-0.33799	-0.833403	9.329583	1.809168	0.902426	-9.003387	-9.058538	9.224669	-0.494482	-0.63703	-0.134568
-0.064679	1.069013	9.395068	4.471557	7.391931	-2.223513	0.04375	0.311396	-0.916748	24.138595	12.733174	12.064258	-26.163259	52.613827	-9.568215	0.093385	-0.323817	-0.819781	8.738051	1.926423	0.832009	-8.051201	-9.917545	9.806059	-0.480649	-0.617328	-0.197446
-0.16434	0.555259	10.129759	3.521526	7.794298	-2.858275	-0.012704	0.278295	-0.880368	24.444411	4.109392	6.741342	21.532302	23.340123	-39.291198	0.146325	-0.28966	-0.865941	9.327942	2.041225	0.843508	-6.070065	-10.981	12.768826	-0.425506	-0.64807	-0.211019
-0.338496	0.784666	10.013678	5.108397	7.696198	-4.397867	0.015166	0.274018	-0.86699	23.752525	4.054308	6.670148	26.346663	-3.29908	-35.29825	0.132828	-0.336768	-0.848304	9.256821	2.03864	0.183432	-4.372238	-11.910174	14.478819	-0.494836	-0.632899	-0.212207
-0.563474	1.360213	10.239049	6.483922	7.619136	-5.1698	0.000273	0.301935	-0.873473	24.05147	4.561218	7.243016	9.026693	-40.886007	-28.164284	0.118521	-0.371772	-0.788622	10.02046	2.152295	0.018511	-2.672813	-12.190393	15.54383	-0.480996	-0.650539	-0.180244
-0.285778	0.898543	9.787862	2.990081	8.166409	-6.070916	0.028915	0.270115	-0.853263	22.97496	6.930001	8.241551	30.694438	-78.535851	-2.595449	0.145954	-0.306053	-0.850587	10.140673	1.687664	0.078641	-2.852892	-11.61053	15.602848	-0.536489	-0.634337	-0.19689
-0.225473	1.301316	9.961224	2.245547	7.750821	-7.670326	0.029658	0.277172	-0.881415	11.774649	13.259122	7.049461	86.542397	-102.993534	36.698559	0.106581	-0.33799	-0.833403	10.019494	2.093972	-0.041643	-4.299713	-10.533519	14.471985	-0.522235	-0.600922	-0.214021
-0.281407	1.014391	10.015757	2.291945	6.855252	-9.985232	-0.013447	0.271239	-0.852216	3.463557	3.361242	7.658777	17.422846	-57.896105	28.674554	0.118816	-0.3707	-0.802972	9.905884	2.560086	0.257669	-5.236191	-8.83846	9.943539	-0.480578	-0.618154	-0.181918
-0.400287	0.898626	9.785635	-0.455658	5.61696	-13.033784	0.014051	0.263433	-0.824762	0.705817	-0.234064	12.919419	34.99413	-39.563984	45.488516	0.10584	-0.370775	-0.802696	10.544057	2.556129	-0.329295	-6.461751	-6.156516	7.489976	-0.480724	-0.597831	-0.260394
-0.392741	1.244964	10.185054	-5.049606	3.389801	-16.369187	0.001445	0.243322	-0.845733	0.117174	2.132564	12.512844	79.374733	-32.800416	63.566222	0.118966	-0.340059	-0.804979	10.73157	2.7905	0.274064	-8.329143	-3.546316	11.763414	-0.453392	-0.647652	-0.226687
-0.214214	1.131404	10.529031	-4.015518	0.032268	-20.720725	0.01478	0.287789	-0.870406	9.824165	4.927874	9.265714	119.100755	-45.61117	40.778989	0.118446	-0.387092	-0.787619	9.783275	1.687733	-0.107682	-8.776152	-2.456321	18.606747	-0.494557	-0.617532	-0.197516
-0.16463	0.957349	10.131449	-0.601949	-5.066242	-25.076852	0.029643	0.294471	-0.898907	2.738339	2.403494	5.944276	71.295752	-32.030014	9.583439	0.092418	-0.402563	-0.786064	10.131214	2.440922	-0.337493	-5.871785	-3.143986	15.114871	-0.494281	-0.583495	-0.230246
0.115826	1.300585	9.854198	-1.060274	-10.247272	-31.87717	0.044193	0.228427	-0.843365	1.729151	0.157835	12.375115	17.392853	-16.795724	-0.266043	0.066982	-0.41589	-0.813208	9.712174	2.150004	-0.705874	-2.139416	-2.950732	9.537437	-0.508327	-0.600718	-0.213951
-0.044388	0.728707	10.416976	-11.345248	-14.381491	-37.436134	0.000288	0.284635	-0.855981	1.231608	0.551589	10.666588	49.705435	-15.374514	9.300057	0.105319	-0.417808	-0.785336	10.248572	2.731032	-0.334056	-0.487326	-3.50679	13.599346	-0.481141	-0.630216	-0.25872
-1.022493	-0.363184	10.109196	-22.6966	-13.559084	-41.408535	0.001031	0.291692	-0.884133	1.225957	2.241409	10.554731	59.250866	-2.245144	17.669612	0.0529	-0.404932	-0.756537	9.89461	2.673766	-0.340906	-0.880452	-5.603061	18.012387	-0.452837	-0.598249	-0.244726
2.061755	4.393683	21.668982	-71.39061	6.397973	-37.69239	0.00023	0.353833	-0.925948	1.466338	3.027696	8.409135	44.294993	-10.795143	11.283446	0.079813	-0.386246	-0.801141	10.013182	2.441192	-0.339694	-1.028676	-7.201672	15.789163	-0.494352	-0.582669	-0.245774
1.816901	-0.173066	14.825321	39.723474	67.954632	-3.180669	0.001031	0.291692	-0.884133	1.718875	2.126782	9.376085	26.704285	-15.29197	3.579097	0.079147	-0.40371	-0.771438	10.84462	2.091834	-0.086144	-0.025855	-7.884202	14.107629	-0.494632	-0.598035	-0.260464
-0.188604	1.136953	11.836652	1.420757	71.585926	-8.470446	0.05827	0.279951	-0.89619	1.83312	1.957528	9.321721	19.969353	-15.69585	0.671809	0.092268	-0.433204	-0.784056	11.1931	2.61272	-0.316943	-0.631918	-7.50296	15.483497	-0.508331	-0.582046	-0.261372
0.766315	1.317058	13.84505	11.117477	85.629044	-4.589753	0.043035	0.26974	-0.853613	1.837632	2.126709	9.548421	12.61345	-13.785875	-0.887352	0.092488	-0.447452	-0.797402	11.548972	2.321776	-0.25167	-1.922603	-7.112178	15.700273	-0.52203	-0.566058	-0.262279
0.00518	1.486303	12.978502	7.902597	99.606847	-3.003821	0.029272	0.290943	-0.884831	1.604522	2.352367	9.430496	5.555114	-12.817854	-3.195504	0.078852	-0.404782	-0.757088	11.373045	2.787284	-0.13318	-2.033093	-6.705736	11.847387	-0.480444	-0.582464	-0.245704
0.416475	2.350048	13.558447	2.301446	115.312371	-3.100357	0.043378	0.307867	-0.902672	1.66198	2.40859	9.431753	-3.585278	-12.797326	-5.329774	0.06609	-0.479315	-0.780494	11.251596	3.309744	-0.252969	-0.231447	-6.634877	8.570028	-0.508469	-0.599065	-0.245007
0.706585	1.661266	13.731678	-4.74163	131.045071	-3.560308	0.099517	0.268242	-0.855009	1.903098	1.788903	9.889183	-4.89742	-11.612325	-6.213052	0.104949	-0.4342	-0.769982	10.956381	3.368495	-0.258224	1.865056	-7.030658	9.114494	-0.50861	-0.597413	-0.276063
0.256675	1.203754	14.118811	-9.834172	145.065258	-3.99237	0.085397	0.268617	-0.85466	1.734375	2.24006	10.112494	-5.195295	-10.72811	-6.019534	0.052304	-0.467285	-0.738173	10.474482	3.309274	-0.806437	4.614975	-7.466359	10.787706	-0.480165	-0.567098	-0.231013
-0.548476	1.54826	13.934111	-18.768872	163.419276	-6.305692	0.086154	0.258374	-0.86532	1.843784	2.070616	9.831572	-3.32598	-9.420411	-5.419301	0.053045	-0.434501	-0.768879	10.657303	3.193953	-0.504096	7.550095	-7.560198	12.00015	-0.466398	-0.565242	-0.261998
0.617857	-0.114031	14.972738	0.144632	164.099289	1.042015	0.113981	0.305995	-0.904418	1.666684	1.845427	9.601197	-3.71841	-8.690313	-5.289046	0.067057	-0.400569	-0.814212	10.066601	3.427608	-0.514111	9.795744	-7.448992	10.891121	-0.494356	-0.563997	-0.293194
-0.247024	0.574683	14.674666	-6.588514	186.925313	-2.124863	0.098388	0.274957	-0.830273	1.733058	2.296343	10.055902	-6.087052	-7.893911	-5.067239	0.014783	-0.417262	-0.797755	10.314346	3.13916	0.088123	11.539956	-6.703209	7.396822	-0.480444	-0.582464	-0.245704
0.381869	0.286778	14.628855	-5.173787	200.506994	0.576082	0.14075	0.273833	-0.831321	2.188291	1.90093	9.782044	-5.358887	-6.447406	-4.466542	0.079147	-0.40371	-0.771438	10.373787	3.429652	0.150367	12.600951	-5.702232	2.650766	-0.522447	-0.598443	-0.260605
0.330922	0.805241	14.971032	8.013338	215.351813	2.25163	0.182354	0.282952	-0.821708	1.904091	1.901611	9.945918	-3.335916	-5.199313	-3.835948	0.053114	-0.47939	-0.780218	9.83905	3.081422	-0.100648	14.401083	-4.386398	-2.710536	-0.536635	-0.614013	-0.275366
-0.681386	0.17799	15.857984	18.404156	230.045548	2.4914	0.239608	0.253911	-0.816274	2.13051	2.013699	9.78093	-2.648594	-4.549525	-3.397343	0.040735	-0.417111	-0.798307	9.653218	3.544705	-0.52132	16.735071	-3.211197	-6.116956	-0.49484	-0.614227	-0.259627
-0.404187	0.405619	15.409692	33.501682	239.848105	-0.060694	0.224002	0.240173	-0.759621	2.19084	2.464377	9.952437	0.02095	-3.44775	-2.582715	0.066611	-0.432282	-0.797855	9.303814	3.895207	-0.226905	19.820587	-1.775677	-7.815844	-0.53545	-0.534704	-0.248496
-1.77557	-0.282202	15.493779	61.798453	245.529205	-4.772679	0.281984	0.235488	-0.799829	2.191918	1.901072	9.951962	3.614281	-2.492985	-0.936447	0.066907	-0.43121	-0.812204	9.065778	2.84939	-0.475384	22.733756	-0.489016	-7.007385	-0.508473	-0.580394	-0.292427
-2.142029	0.632286	14.353897	77.716571	244.575658	-6.244803	0.351472	0.223031	-0.759348	2.134568	1.788519	9.950659	5.289789	-1.832678	-0.188659	0.040289	-0.448824	-0.78195	8.650734	2.733689	-0.603395	25.093217	0.513733	-5.553769	-0.508193	-0.565028	-0.277737
-1.39148	0.3334	11.753037	92.835126	243.247882	-7.536715	0.323989	0.213537	-0.769309	1.895952	1.732288	9.549298	5.389916	-1.220009	0.094966	0.05341	-0.478318	-0.794568	8.176404	2.734274	-0.732013	25.480759	1.816864	-4.247239	-0.493864	-0.55111	-0.23192
-3.462205	-0.299136	11.198619	82.131594	238.102112	-10.349863	0.380842	0.215567	-0.784782	2.072729	2.126468	9.779815	5.205021	-1.219946	-0.275119	0.027828	-0.462076	-0.80937	8.838787	2.735756	-0.001025	25.341269	3.465014	-3.948981	-0.508681	-0.596586	-0.29159
-3.505109	-0.123633	11.93732	77.75594	229.238753	-10.420114	0.366007	0.174286	-0.721297	1.617796	1.733206	9.996371	4.68026	-1.195743	-0.306129	0.065951	-0.389536	-0.757816	8.405731	2.790327	-1.086805	23.844688	4.984679	-3.522946	-0.493655	-0.534917	-0.232757
-1.496874	0.048206	12.204428	71.014108	220.635066	-12.718235	0.406868	0.176349	-0.683533	1.899363	1.845091	9.719312	4.247361	-1.203243	0.001729	0.06587	-0.465066	-0.767148	8.580423	2.382648	-1.264955	21.570003	6.546361	-4.46958	-0.481212	-0.629389	-0.274248
4.144204	-3.421249	7.866757	43.349649	222.836497	14.722194	0.477843	0.178004	-0.699355	1.78337	2.295951	9.717274	4.774228	-1.073315	-0.089039	0.027608	-0.447827	-0.796024	8.576021	2.381659	-1.504583	19.420187	8.043537	-5.049613	-0.494006	-0.549457	-0.262976
6.554553	-7.825341	-0.743145	-24.655131	192.834061	100.393246	0.44963	0.144155	-0.663673	1.897292	2.295688	9.663052	4.898971	-0.979752	-0.088008	0.065726	-0.435497	-0.754805	8.761583	2.034529	-1.083417	17.026026	9.193879	-4.710254	-0.466052	-0.53203	-0.2792
4.52515	-4.899438	-1.963725	-84.147328	127.035879	200.730549	0.476357	0.163891	-0.643051	2.009551	1.901016	9.495219	4.620655	-1.041993	-0.489616	0.053265	-0.448749	-0.782225	9.169504	2.845906	-1.251973	14.754139	9.69469	-3.634752	-0.480865	-0.596178	-0.29145
9.739545	-3.063874	-1.57041	-66.273918	-15.746731	211.77696	0.505784	0.08723	-0.598519	1.901804	2.464869	9.889753	3.719324	-1.425166	0.091582	0.053485	-0.462998	-0.795572	9.642849	2.322142	-1.245394	12.289605	9.650498	-3.167185	-0.481003	-0.613197	-0.275085
14.608579	0.679854	1.722581	-0.729544	-123.799243	177.548751	0.519518	0.100626	-0.602284	1.675385	2.352781	10.054741	2.54029	-1.896014	-0.53061	0.0529	-0.404932	-0.756537	9.875632	2.785715	-1.358829	9.289045	8.633386	-3.457086	-0.480798	-0.578333	-0.323343
14.132861	2.309862	6.721275	45.096613	-170.343841	124.35886	0.520647	0.093912	-0.62702	1.841151	2.183182	9.718388	1.860861	-1.846125	-0.099068	0.039918	-0.465217	-0.766596	9.700899	2.263683	-1.304448	7.518124	7.379457	-4.08649	-0.480377	-0.56462	-0.277596
13.426713	2.536024	5.742376	56.956282	-165.564518	71.347269	0.464894	0.119766	-0.671267	2.069665	2.464356	9.666821	1.43041	-1.726335	-0.498988	0.039924	-0.405007	-0.756261	10.000382	2.263997	-1.059318	6.791966	6.291403	-5.606752	-0.480865	-0.596178	-0.29145
11.150162	1.264277	3.419517	16.53999	-147.851446	19.875268	0.4798	0.07455	-0.647292	1.444022	2.296834	9.993218	1.029959	-1.610782	-0.18988	0.06521	-0.422321	-0.72711	9.235663	2.61495	-0.89242	7.356478	5.061051	-7.711651	-0.52238	-0.580598	-0.292498
9.129809	-0.633704	2.462932	-31.172921	-138.722239	-23.541391	0.408812	0.090194	-0.648962	2.240159	2.351277	9.557074	1.335936	-1.851379	-0.315339	0.039918	-0.465217	-0.766596	9.472268	2.382106	-0.889007	8.483588	4.346118	-9.17924	-0.521892	-0.549039	-0.278644
8.374107	-0.91044	4.777114	-71.005265	-140.652887	-45.819681	0.452645	0.120483	-0.723805	1.67098	2.12727	9.827993	0.968405	-1.581706	-0.066328	0.080033	-0.400494	-0.814487	9.47694	2.266943	-0.649874	10.519735	4.661861	-9.432605	-0.52266	-0.595964	-0.307188
6.01858	-1.12785	7.230918	-88.699285	-147.416759	-58.640509	0.452674	0.085884	-0.688822	2.241691	2.182333	9.613571	1.466021	-1.357759	-0.526122	0.05275	-0.435573	-0.75453	8.882781	2.093076	-0.901248	12.585379	5.104491	-10.114528	-0.494636	-0.579364	-0.307885
4.856116	-0.831087	9.255452	-79.812503	-157.673272	-59.108841	0.437396	0.127572	-0.69872	1.903875	2.014272	9.946013	1.994532	-1.076116	-0.368756	0.078406	-0.436494	-0.740731	8.761023	1.801977	-1.144312	14.83881	6.132475	-11.136083	-0.480728	-0.579159	-0.307815
2.456381	-1.51768	9.433203	-61.413863	-170.440179	-45.932432	0.381685	0.101528	-0.690492	1.787105	2.239762	9.887145	3.082483	-0.512237	-0.084821	0.04081	-0.401791	-0.79931	8.883477	2.267552	-0.840599	16.854894	7.017671	-10.26136	-0.494356	-0.563997	-0.293194
1.491016	-1.745052	9.81128	-47.645032	-183.886067	-23.675519	0.34001	0.178906	-0.787563	2.075147	2.126562	9.893095	3.268431	-0.449561	0.070092	0.066021	-0.434426	-0.769155	8.763088	1.860548	-1.024251	17.705205	7.949436	-8.374128	-0.466887	-0.5968	-0.275852
0.358999	-1.339238	10.472936	-43.92622	-193.158178	8.795327	0.338523	0.164793	-0.731259	1.609681	2.183566	9.656912	3.641806	-0.230605	0.134226	0.066096	-0.419105	-0.770159	8.827472	1.919725	-0.723369	17.932072	8.301856	-6.879142	-0.508264	-0.564201	-0.293265
-0.375287	-1.336528	10.970139	-47.306967	-200.433226	41.251386	0.339252	0.189149	-0.776903	1.66867	2.070844	9.714666	4.356218	0.056206	-0.1398	0.040659	-0.432432	-0.797303	9.35325	1.859197	-1.013247	17.7614	9.329624	-5.752659	-0.466611	-0.562763	-0.308582
-0.129449	0.045764	11.890033	-51.734788	-208.550684	66.179978	0.283913	0.166633	-0.78275	1.900464	1.901469	9.775999	4.599741	-0.245899	-0.358405	0.078777	-0.420102	-0.756085	9.171935	1.800538	-1.256423	17.215294	10.117956	-5.265459	-0.45312	-0.594944	-0.306837
0.968775	1.081336	12.484064	-52.927989	-214.139726	75.657017	0.270536	0.174064	-0.810553	1.672189	2.127317	9.884632	5.2833	0.126678	0.262412	0.064985	-0.468282	-0.724099	9.118961	1.569605	-0.958978	16.755377	10.639183	-5.541334	-0.452703	-0.562559	-0.308512
2.104707	1.423227	12.052957	-52.011425	-217.953292	73.232107	0.2549	0.194924	-0.788884	2.18324	2.013401	9.55558	4.377559	-0.737673	-0.610098	0.066762	-0.401641	-0.799862	8.883457	1.802696	-0.902484	15.708751	11.222009	-6.05987	-0.508894	-0.594108	-0.338174
2.510682	1.941117	12.347189	-62.657924	-216.7004	61.511337	0.228917	0.182245	-0.837657	2.010544	2.013725	9.551953	4.8121	-0.492501	0.255876	0.066391	-0.418033	-0.784508	8.991315	1.916353	-1.438951	14.575292	11.669529	-5.354987	-0.452912	-0.578751	-0.307674
2.11089	2.113973	12.396971	-72.710721	-215.390019	44.97547	0.185812	0.176312	-0.808458	2.190709	1.901025	9.895323	3.791829	-0.62407	-0.362815	0.092118	-0.463844	-0.782049	8.999403	1.279	-1.082229	12.887415	12.020756	-4.403139	-0.480519	-0.562967	-0.308652
2.059742	1.36848	12.676986	-83.952729	-212.853167	28.307981	0.143794	0.215563	-0.85647	2.23761	1.787829	9.38668	5.858861	-0.612502	1.889417	0.053635	-0.432357	-0.797579	9.524931	1.79948	-1.309727	10.730051	11.762586	-3.843981	-0.453191	-0.594117	-0.322365
1.329045	1.027265	13.3433	-95.886781	-210.861517	16.017113	0.18767	0.193953	-0.878838	1.665929	2.239741	9.601529	5.413527	-1.65839	1.539549	0.066166	-0.463995	-0.781498	9.163266	1.740484	-1.735925	8.851312	11.410171	-2.949196	-0.508406	-0.562549	-0.32432
1.486358	1.898214	15.566417	-102.162099	-208.359625	7.15204	0.130816	0.191923	-0.863365	1.786781	2.408754	9.887287	5.945184	-1.188528	1.051398	0.026867	-0.480612	-0.765317	8.992125	1.567897	-1.440434	7.217407	11.18637	-2.575464	-0.466402	-0.54657	-0.309419
1.433143	2.473636	15.795129	-103.851637	-202.751677	-2.473632	0.073177	0.234735	-0.872215	1.156865	2.579073	10.04405	5.47601	-1.711288	0.367603	0.05297	-0.449821	-0.767876	8.871757	1.625748	-1.562201	6.136546	10.90622	-2.478526	-0.453053	-0.577099	-0.33873
0.81753	2.879319	16.52366	-101.16861	-197.462179	-14.785934	0.072762	0.283105	-0.910615	2.29794	2.238508	9.558188	4.231422	-2.37436	0.884087	0.078922	-0.449671	-0.768427	9.172745	1.452081	-1.257906	5.393729	10.505239	-2.412798	-0.495057	-0.593077	-0.353631
0.263915	2.883834	17.479028	-105.568017	-195.003586	-29.916005	0.045664	0.25984	-0.917161	1.838518	2.295748	9.605203	6.42369	-2.438526	0.885213	0.040439	-0.418183	-0.783957	9.582692	1.392318	-1.430171	4.718311	10.40409	-1.737497	-0.438449	-0.529143	-0.325643
-0.171934	3.003874	18.607664	-102.499646	-196.857211	-49.617771	0.01628	0.284603	-0.909218	2.077349	2.239318	10.006469	6.428602	-2.040682	1.012485	0.039774	-0.435648	-0.754254	9.402747	1.217754	-1.613935	4.071978	9.995878	-0.938582	-0.494569	-0.561519	-0.339778
-1.822125	2.777481	19.086086	-96.158923	-206.323533	-74.824163	-0.026482	0.316797	-0.929078	2.128655	2.351634	9.724574	5.620382	-2.477772	0.637551	0.06528	-0.46721	-0.738448	8.880135	1.337099	-1.144089	3.156635	10.470979	0.132163	-0.466544	-0.544918	-0.340474
-3.891535	3.409141	18.650683	-86.77132	-217.035733	-102.886535	-0.0677	0.293907	-0.935275	1.43787	2.352928	9.710068	4.880148	-2.36633	0.915517	0.065575	-0.466138	-0.752798	8.995831	1.39441	-1.261455	2.476925	9.974349	0.595439	-0.49499	-0.575232	-0.385524
-9.182906	4.212069	17.357705	-74.759819	-217.090637	-120.230283	-0.09707	0.30137	-0.90984	2.47461	2.689018	9.788752	6.635932	-2.685735	1.591973	0.053265	-0.448749	-0.782225	8.877394	1.568909	-1.262914	4.77727	8.888003	-0.04953	-0.522873	-0.593486	-0.353772
-18.448268	23.881442	21.40901	-184.058586	-134.378277	-86.626477	-0.153938	0.31664	-0.911859	1.855203	1.78939	10.341091	6.735165	-2.077692	2.584602	0.039994	-0.449896	-0.7676	8.749998	1.334649	-1.805266	6.951272	7.592989	4.655547	-0.508339	-0.544704	-0.356213
-21.581498	8.56796	12.758957	-65.406023	-164.952378	-94.737061	-0.169202	0.341028	-0.904266	1.668994	1.901853	9.714524	7.787328	-1.940497	2.401844	0.013451	-0.45219	-0.738349	9.340024	1.391375	-1.794014	8.153928	6.696626	5.969729	-0.452983	-0.577925	-0.323202
-21.976168	7.457903	21.782637	-12.838776	-146.711255	-78.943207	-0.196686	0.331534	-0.914227	2.128116	2.633287	9.724812	8.412131	-1.352433	2.778133	0.079437	-0.462848	-0.796123	9.109732	1.276999	-1.499376	6.750388	6.070039	3.960572	-0.439563	-0.60928	-0.336986
-22.569044	2.94788	14.705124	62.437782	-108.911017	-73.053659	-0.226056	0.338998	-0.888793	1.789869	2.690549	10.057443	9.195763	-0.424694	3.096271	0.027238	-0.46422	-0.78067	9.349523	1.567828	-1.254111	5.475046	5.589914	2.62268	-0.466961	-0.577303	-0.3388
-27.470964	-2.78885	15.494882	68.065446	-52.479854	-41.96508	-0.238633	0.284288	-0.87478	2.061958	2.06971	9.270012	9.816624	-0.172139	3.191767	0.014117	-0.434726	-0.768052	9.472653	1.743023	-0.951634	3.601924	5.475301	4.18876	-0.466824	-0.560284	-0.355165
-29.562167	-5.276686	10.897286	33.190412	21.57535	-8.025422	-0.209663	0.307895	-0.921122	2.246442	2.858536	9.897338	9.69789	0.281034	3.997714	0.039768	-0.495857	-0.764589	9.654913	1.39515	-0.710188	3.084355	5.243521	5.719945	-0.466824	-0.560284	-0.355165
-23.630981	-0.804899	10.008556	-26.901334	90.162758	0.040299	-0.266517	0.305865	-0.90565	1.834591	3.08428	9.492588	4.539276	0.590872	7.572744	0.040364	-0.433504	-0.782953	9.948448	0.638745	-0.887621	5.036592	5.480415	7.148273	-0.494919	-0.576059	-0.369996
-15.922398	6.001508	18.143444	-21.030814	146.160538	-15.750182	-0.252768	0.301962	-0.891923	1.403212	3.649633	10.899381	-3.082206	-0.934857	10.418505	0.065946	-0.449746	-0.768151	9.767983	1.16134	-1.008511	6.343822	6.051791	8.546793	-0.466965	-0.558632	-0.386221
-4.088118	-7.504045	5.245712	135.317543	124.243807	-48.150938	-0.181765	0.269019	-0.872761	1.581151	2.804495	11.072215	-9.985302	-13.83633	14.600707	0.013081	-0.468582	-0.722996	9.775031	1.918306	-0.526041	8.08882	6.175103	6.094711	-0.508618	-0.56007	-0.370904
7.82842	4.451138	9.278701	39.418861	116.160772	-87.062216	-0.210406	0.300839	-0.892971	1.948218	3.480715	12.15619	-10.76719	-19.314109	16.056236	0.013527	-0.43687	-0.739353	9.820842	1.915204	-1.243824	8.399474	5.205926	2.308287	-0.480243	-0.52893	-0.341382
9.333381	0.317165	9.972515	17.813341	109.481509	-100.211196	-0.195157	0.29375	-0.918056	1.022904	3.428304	14.627734	-8.919676	-36.742542	16.408539	0.013967	-0.465367	-0.766045	10.586742	3.42392	-1.103276	8.076407	2.655745	3.299662	-0.480523	-0.544296	-0.356072
-0.81067	2.493004	6.431378	50.703669	189.314874	-70.225829	-0.194013	0.269736	-0.9253	1.68068	2.355355	12.998791	-7.195645	-56.33935	19.513835	0.05297	-0.449821	-0.767876	11.124605	2.901257	-0.796063	5.049433	0.922851	16.034035	-0.508827	-0.576263	-0.370067
-3.250067	3.029171	10.477979	-27.494403	179.181121	-21.114079	-0.152009	0.247785	-0.89478	2.610273	1.677949	13.357402	-5.121495	-68.237184	18.318213	0.040364	-0.433504	-0.782953	11.241902	1.796801	-0.97828	1.949707	1.384293	23.593288	-0.50848	-0.543052	-0.387269
-0.769968	-0.530608	11.306841	-11.943488	159.668086	4.930171	-0.123796	0.281634	-0.930462	2.32193	2.579824	13.408756	2.789955	-80.27107	16.293559	0.000921	-0.420552	-0.75443	11.839922	2.20396	-0.48629	-1.32772	1.790151	15.747327	-0.480731	-0.560488	-0.355235
-0.702449	0.678035	11.881553	20.885789	143.4543	1.627946	-0.123025	0.254092	-0.92363	2.203411	3.086919	13.293486	4.625393	-93.923038	15.203652	-0.012501	-0.45234	-0.737798	12.302302	2.607434	-0.955011	-3.811176	1.903082	6.922311	-0.495199	-0.591425	-0.384687
-0.285204	1.645524	9.847852	26.501083	125.57539	1.198386	-0.094055	0.277699	-0.969972	1.97874	2.693226	13.514877	5.735694	-108.663946	14.842249	-0.000115	-0.454409	-0.709374	11.175648	3.015543	-1.213816	-6.369373	3.00993	5.489767	-0.508272	-0.526859	-0.388106
-9.247234	2.302265	13.99541	16.561228	79.365998	2.591765	-0.080263	0.221898	-0.90377	1.821866	2.637835	14.247517	5.719171	-124.585604	14.344905	0.000921	-0.420552	-0.75443	11.414339	3.306125	-1.028458	-5.184552	3.641089	6.980119	-0.494572	-0.542847	-0.387198
-2.189702	0.334704	11.908007	8.68054	29.091689	-3.324347	-0.02571	0.289255	-0.922246	2.585932	2.637051	14.999548	4.929751	-142.917532	14.655389	-0.037567	-0.449274	-0.780295	12.18323	4.002024	-0.831464	-0.105263	2.588105	7.027877	-0.466615	-0.544092	-0.356002
0.836999	0.950331	8.673311	46.54294	25.074023	-7.546958	-0.053537	0.241634	-0.883149	2.613065	2.356441	16.245382	3.188874	-163.340817	13.464561	-0.050838	-0.450421	-0.76567	11.839402	2.90112	-0.423416	0.866194	2.658323	15.368436	-0.480731	-0.560488	-0.355235
-0.005571	1.586428	9.512059	19.926574	23.038512	-1.553671	-0.00966	0.220025	-0.905516	2.96193	1.172901	16.308279	8.311135	-183.539969	9.722721	-0.051278	-0.421924	-0.738978	11.142577	1.801274	0.037936	1.558685	4.151882	10.193145	-0.493805	-0.495922	-0.358654
-0.064389	0.666922	9.393379	12.943858	19.769512	4.700164	-0.039445	0.275858	-0.918481	2.394522	1.286972	16.692762	14.927956	-205.255243	5.627966	-0.116233	-0.43762	-0.736595	10.550235	2.266985	-0.030997	0.579992	4.188565	0.385416	-0.49499	-0.575232	-0.385524
-0.277735	0.555583	10.184385	4.968957	15.459149	2.107678	-0.038659	0.231017	-0.894158	2.39955	0.554818	16.862065	20.150427	-227.327565	1.343636	-0.116893	-0.394874	-0.696557	10.133996	3.138823	-0.094899	-4.451227	4.863966	-1.586163	-0.467036	-0.557805	-0.401749
-0.282355	0.784384	9.957938	12.573354	11.972278	1.017085	-0.03943	0.258559	-0.900989	2.177427	0.724572	17.253848	26.835499	-248.496162	-2.560543	-0.143146	-0.456306	-0.691991	9.486864	2.734023	-0.048827	-9.324977	5.285428	-2.609644	-0.480385	-0.527277	-0.372437
-0.220481	0.555541	10.185499	6.518665	8.770495	1.718501	-0.024567	0.265241	-0.929491	2.21917	0.780178	16.51879	42.331056	-271.141561	-3.420285	-0.143736	-0.45845	-0.663292	9.552348	2.793448	0.311962	-11.927477	4.741248	-4.125724	-0.495474	-0.625462	-0.351957
0.010557	0.843066	10.304866	5.643124	6.500744	0.948107	-0.024538	0.230642	-0.894507	2.041184	0.385951	16.231633	56.834547	-291.762844	-6.202851	-0.169763	-0.47392	-0.661736	9.253695	2.909533	0.127233	-14.285048	4.23233	-6.009578	-0.50813	-0.528512	-0.35705
-0.003302	1.529469	9.625524	5.979996	5.814413	1.978684	0.01628	0.284603	-0.909218	2.306173	0.947864	15.218639	69.780973	-308.991572	-14.471057	-0.221962	-0.475292	-0.646284	8.95877	3.316988	0.183369	-18.068374	3.08065	-8.343587	-0.453128	-0.557601	-0.401678
0.395376	1.356372	9.518889	3.598332	5.996815	3.889882	-0.038687	0.265616	-0.929141	3.154722	0.779023	17.217808	88.794998	-319.748308	-19.032434	-0.287652	-0.463563	-0.60286	9.135683	3.374659	0.186917	-22.678579	1.511924	-9.083423	-0.480038	-0.494066	-0.389639
0.283343	1.012288	9.62892	2.006425	5.577353	4.991663	-0.010418	0.230268	-0.894856	4.068056	0.77463	14.179821	139.78313	-320.782624	-15.33324	-0.30174	-0.512815	-0.556524	8.661893	3.14294	0.057311	-26.130761	-0.426994	-6.158371	-0.494781	-0.55904	-0.386361
0.227202	1.012571	9.68466	1.97519	5.829318	4.443841	-0.024538	0.230642	-0.894507	6.562883	2.96545	12.648953	159.138879	-310.672402	-11.055635	-0.315457	-0.545674	-0.525541	8.965467	2.330684	0.418793	-26.470697	-1.916987	-4.163524	-0.494155	-0.510462	-0.388873
0.346165	1.013453	9.914299	2.192235	6.26125	4.388902	-0.037901	0.220774	-0.904818	6.291666	0.992558	10.546793	157.710765	-300.994369	-4.702723	-0.316637	-0.549962	-0.468142	8.198703	3.087923	0.527515	-24.104076	-2.981271	-3.953083	-0.480735	-0.541817	-0.402656
0.236358	0.669851	10.138036	3.422258	7.350556	3.697719	-0.024938	0.261713	-0.915415	7.356828	0.76405	9.210222	131.68558	-295.420176	3.531917	-0.343405	-0.598217	-0.43588	8.263761	2.85672	0.827161	-20.198665	-3.941617	-4.390511	-0.438173	-0.495106	-0.358373
-0.344353	1.185551	9.731102	2.905859	7.992083	3.832301	-0.053551	0.258934	-0.90064	5.099056	-1.4293	8.36827	84.504504	-282.742074	11.511899	-0.422292	-0.572314	-0.378834	8.732049	3.087202	0.657233	-15.487617	-4.503	-4.67995	-0.50876	-0.558418	-0.401959
-0.344063	0.78346	9.729413	1.836971	8.539535	3.905609	0.018181	0.250346	-0.927122	-1.498391	-3.106063	9.134057	21.439282	-266.806561	2.216646	-0.371273	-0.575229	-0.336888	8.613882	3.145548	0.655279	-10.985293	-4.581728	-4.390263	-0.507925	-0.493648	-0.405308
-0.106138	0.785224	10.188691	1.407749	8.475374	3.967137	-0.009289	0.223553	-0.919592	-9.884635	-6.192752	4.142999	-67.787506	-227.043283	-58.249947	-0.462696	-0.577898	-0.306258	9.150779	2.564561	0.902339	-7.285549	-4.537203	-4.464998	-0.466894	-0.559458	-0.370693
-0.111705	0.784018	9.904426	1.346367	8.53794	3.845661	0.003331	0.226365	-0.88113	-6.32691	-3.047499	1.276557	-126.136564	-142.912926	-114.298578	-0.424063	-0.578745	-0.292736	9.019832	2.910568	0.242645	-3.91645	-3.826935	-3.961038	-0.508551	-0.542225	-0.402796
0.181947	1.359915	10.310378	0.578827	8.381752	3.75333	-0.052408	0.23492	-0.907885	-7.762203	-3.157323	1.416158	-102.924509	-3.120526	-102.750544	-0.437705	-0.596284	-0.262757	9.562117	2.853749	0.851371	-1.383233	-3.299409	-3.81992	-0.50813	-0.528512	-0.35705
0.169041	0.725163	9.625486	1.831599	7.929089	3.527697	-0.010789	0.226739	-0.88078	-8.515562	-0.052975	6.838035	-54.602732	103.262862	-77.334736	-0.397671	-0.607092	-0.31998	9.908645	2.793132	0.438378	0.385679	-2.228149	-3.281322	-0.47983	-0.477873	-0.390476
-0.282645	1.186475	9.959628	-0.374855	7.949518	3.53438	0.018967	0.205505	-0.902799	-8.401851	-0.332554	9.444428	22.991726	157.687338	-36.16561	-0.411382	-0.579742	-0.278662	10.199459	2.733392	0.204006	0.605469	-0.744592	-4.695046	-0.521971	-0.510871	-0.389013
-0.2251	0.784342	9.959052	-1.204192	7.544067	3.714181	-0.039445	0.275858	-0.918481	-7.044027	-0.561411	8.34046	55.704324	172.954802	-7.349275	-0.358002	-0.574083	-0.351514	9.794704	1.980832	0.55253	0.249457	1.431922	-5.284815	-0.481015	-0.557183	-0.417347
-0.398102	0.95655	9.899582	-0.871353	6.932064	3.611275	0.003674	0.264492	-0.930189	-5.74567	-1.691591	7.064606	37.287796	164.234674	11.755093	-0.409906	-0.574383	-0.350411	9.902563	2.094489	0.016063	-2.791358	2.982288	-5.403448	-0.481015	-0.557183	-0.417347
-0.225225	0.956667	9.959776	-0.874836	6.597847	3.268513	-0.024924	0.244413	-0.897923	-4.287569	-2.371925	5.226362	-5.62679	159.280431	21.012467	-0.358448	-0.605795	-0.335157	9.493196	2.851659	0.311109	-6.208639	3.705402	-5.516769	-0.480527	-0.525625	-0.403493
0.003834	0.89906	9.963988	-0.23512	6.393035	2.619328	-0.038687	0.265616	-0.929141	-3.494758	-3.1063	4.562995	-36.531444	165.450613	19.969991	-0.383885	-0.619122	-0.362301	9.263559	1.982048	0.542626	-9.755895	4.006116	-6.238832	-0.453057	-0.558428	-0.386151
-0.68355	1.359089	9.952557	0.346845	6.647165	2.131103	0.004832	0.223179	-0.919942	-2.913036	-2.487457	4.915443	-55.619017	177.525234	14.772212	-0.409171	-0.601808	-0.391453	9.380916	2.272158	0.546063	-11.857958	3.45016	-6.442495	-0.46676	-0.523768	-0.434478
-0.405813	0.839978	9.501128	0.010406	6.925299	1.860584	-0.023424	0.241227	-0.936735	-0.932066	-2.264851	6.089528	-69.029706	195.659807	2.302219	-0.381448	-0.595226	-0.478102	9.197015	2.852087	0.245699	-12.079829	2.405226	-6.039407	-0.480806	-0.540991	-0.418184
-0.054699	1.128626	9.906987	0.249664	6.630606	0.843072	0.004817	0.240478	-0.937433	-0.462542	-2.547034	6.495439	-77.731544	216.620383	-16.763382	-0.356601	-0.584044	-0.422259	8.848245	1.982498	0.415109	-11.06105	1.319644	-4.234781	-0.481082	-0.575028	-0.385454
-0.337507	0.957232	10.071255	0.36932	6.42058	0.440632	0.004074	0.233422	-0.909281	-0.733291	-1.362795	7.396624	-78.649781	237.88514	-30.177771	-0.329318	-0.548965	-0.482216	8.968343	2.040799	0.537371	-9.951639	0.424243	-3.042608	-0.508342	-0.526033	-0.403633
-0.054575	0.956301	9.906263	1.990819	6.405081	-0.238981	0.004074	0.233422	-0.909281	0.267989	-0.575052	8.550631	-84.581108	248.744637	-44.96326	-0.290541	-0.579381	-0.481036	9.313772	1.979935	0.064471	-8.745837	-0.105639	-1.669143	-0.480664	-0.542643	-0.387128
-0.403793	1.127668	9.616041	2.046469	5.733107	-0.587411	-0.026053	0.251128	-0.873187	0.238705	0.440191	9.966266	-89.474585	256.58828	-55.431241	-0.302261	-0.559848	-0.539163	8.846064	2.446859	0.35718	-8.003354	-0.573482	-0.538783	-0.523018	-0.573162	-0.432248
0.121684	0.899701	10.136775	2.072991	5.432196	-1.144403	-0.023781	0.2204	-0.905167	0.936982	0.946204	10.377677	-87.207045	256.847781	-62.67058	-0.236275	-0.570506	-0.596937	9.262188	2.097952	0.483213	-7.476227	-0.918797	0.500094	-0.480527	-0.525625	-0.403493
-0.399174	0.898867	9.842488	3.115215	5.373861	-0.995011	-0.010046	0.233796	-0.908932	1.233318	2.185363	10.894521	-92.085991	249.836165	-62.651849	-0.249176	-0.55526	-0.597665	8.909732	1.866706	0.535529	-7.597566	-0.923023	0.86731	-0.493808	-0.477251	-0.406075
-0.507084	1.015281	10.181862	3.970317	4.88582	-0.974736	0.00366	0.281791	-0.947681	0.884322	2.805551	10.77451	-106.396224	238.157192	-55.443424	-0.157534	-0.56684	-0.641641	9.319429	2.38795	0.425643	-7.695776	-1.285068	0.349822	-0.467107	-0.556979	-0.417276
-0.340889	1.01395	9.900937	3.327082	4.881772	-0.880946	0.004074	0.233422	-0.909281	0.557254	2.074565	11.559595	-123.373039	226.547607	-40.684129	-0.17073	-0.552666	-0.628019	9.260393	1.92323	0.362658	-8.438911	-1.219616	-0.320182	-0.495065	-0.555735	-0.448473
-0.160342	1.18808	10.359826	3.204122	4.976174	-1.124402	0.005203	0.226707	-0.934018	1.017716	3.369399	11.683636	-134.309177	216.202503	-25.074627	-0.143447	-0.517588	-0.687977	9.443774	2.04046	0.725895	-8.286847	-1.46346	-0.350132	-0.466481	-0.508402	-0.419788
0.00602	0.956984	10.077936	2.622856	5.001753	-0.907637	-0.03903	0.227489	-0.880082	1.62765	3.144327	13.281444	-142.976052	209.460224	-8.193834	-0.130175	-0.516441	-0.702602	9.087591	1.517844	0.537347	-7.66891	-1.68104	0.1988	-0.494919	-0.576059	-0.369996
-0.170239	1.013585	9.847424	2.989873	4.943051	-1.001652	0.03343	0.243257	-0.952208	1.978786	3.932592	13.629199	-149.958171	203.33534	1.758639	-0.104368	-0.486722	-0.690811	9.551342	1.805414	0.128038	-6.344858	-1.704024	-0.080952	-0.494714	-0.541195	-0.418254
-0.049008	0.957508	10.190529	3.170089	4.485026	-1.193623	-0.037516	0.207003	-0.901402	2.855673	3.875167	14.270321	-151.616739	195.063968	8.333894	-0.038232	-0.466739	-0.750592	9.205373	2.098582	0.601927	-5.11924	-2.523287	-0.29542	-0.481365	-0.571723	-0.447565
-0.106096	0.727783	10.18845	4.887301	4.83456	-1.499567	0.017438	0.24329	-0.89897	2.861825	3.819073	14.553472	-153.748422	190.804918	13.900617	-0.075979	-0.462676	-0.807164	9.271937	1.693398	0.960738	-3.61003	-2.825319	-0.146631	-0.453199	-0.556775	-0.417206
-0.509477	1.244564	10.069121	4.124396	5.228403	-1.306961	0.003703	0.229893	-0.895205	3.050151	4.49538	15.350622	-160.076006	191.804811	17.358338	0.001807	-0.417337	-0.79748	9.033402	1.809596	0.837017	-2.847913	-3.520102	-0.726768	-0.494084	-0.511289	-0.373345
-0.458945	1.300517	9.729357	3.234672	5.133103	-1.397953	-0.010432	0.247567	-0.912348	3.305668	3.932592	16.487775	-158.219408	197.163492	21.112693	0.014713	-0.372372	-0.786416	9.105488	1.870503	1.557247	-1.991682	-4.031332	-1.277556	-0.480598	-0.524798	-0.419021
-0.17288	1.587517	9.736131	0.813945	5.496136	-1.875777	-0.009646	0.202726	-0.888025	3.265396	5.003739	17.393701	-152.622498	205.789214	33.627475	0.015819	-0.383405	-0.842812	9.272092	2.100177	1.022376	-1.003844	-4.837273	0.098036	-0.494364	-0.526655	-0.388035
-0.172714	1.357751	9.735166	-0.441381	5.455366	-1.504807	0.003317	0.243664	-0.898621	3.565635	4.834683	17.965999	-145.210319	216.613267	50.605598	0.016195	-0.306803	-0.84783	9.028034	1.750284	0.537235	0.48352	-5.901589	2.970674	-0.466827	-0.541613	-0.402586
0.171926	1.357744	9.7987	-0.351969	5.212727	-1.754354	0.045679	0.242541	-0.899669	5.234147	4.662518	17.944276	-132.856784	232.287718	70.473159	0.068469	-0.29011	-0.864286	9.084289	1.517103	0.357626	1.631095	-6.748587	5.415673	-0.494297	-0.50881	-0.419928
-0.392949	1.532172	10.186261	0.4401	5.04249	-2.679451	-0.023409	0.223928	-0.919243	7.139826	4.039515	18.210207	-120.685696	248.034253	88.091243	0.094792	-0.273568	-0.880191	8.490286	1.750015	0.16789	4.383451	-7.344165	7.762012	-0.452711	-0.525216	-0.403353
-0.453005	0.784749	10.011451	1.437696	4.210724	-4.811975	0.032701	0.218901	-0.906564	10.998413	6.058046	15.858617	-101.949901	244.434788	94.298873	0.134015	-0.272271	-0.895368	8.500616	2.042868	0.768195	5.447128	-6.655465	9.558207	-0.480735	-0.541817	-0.402656
0.113599	1.300102	9.740492	2.008641	3.526437	-6.572872	0.004832	0.223179	-0.919942	20.069618	7.279434	15.031155	-121.845681	201.726032	73.230102	0.108283	-0.28667	-0.908163	8.72496	1.400525	0.050994	5.701046	-6.823595	11.116926	-0.522321	-0.525411	-0.419231
-0.162444	1.015273	10.245396	1.471475	2.412666	-8.85896	0.00406	0.250721	-0.926773	24.844965	8.230444	17.793153	-124.366871	157.532204	30.08679	0.19956	-0.254432	-0.92645	8.979462	1.52034	1.074308	7.224661	-6.097282	12.391702	-0.466201	-0.493035	-0.405097
-0.392493	0.900315	10.183606	4.551482	1.282261	-10.910402	0.00446	0.219651	-0.905866	24.905421	9.636452	15.361254	-67.98979	116.992023	-0.113814	0.160412	-0.240408	-0.912276	8.562488	1.287992	0.825988	9.47431	-6.800913	13.181629	-0.453128	-0.557601	-0.401678
-0.5136	0.784067	9.839778	5.361903	-0.386046	-12.534695	0.017452	0.22599	-0.881479	24.655073	7.887352	11.561304	-15.045459	91.188247	-9.545474	0.186665	-0.178976	-0.916842	9.19711	1.8643	0.121683	10.887621	-7.438164	13.179552	-0.45264	-0.526043	-0.387825
-0.399091	0.783984	9.842005	7.579115	-2.070519	-14.86874	0.032687	0.236201	-0.924056	24.991366	6.081271	8.283152	13.014253	60.561959	-9.981704	0.264445	-0.193847	-0.917493	9.262978	1.284641	0.419845	11.770421	-8.282586	12.324537	-0.494364	-0.526655	-0.388035
-0.224236	1.129233	10.017353	6.818716	-4.224305	-17.692612	-0.023795	0.237699	-0.922659	26.272106	4.049044	6.100305	22.359755	16.405214	-3.785407	0.238418	-0.209317	-0.915938	9.191027	1.165657	-0.300632	11.914443	-9.504599	12.238151	-0.508134	-0.50984	-0.404471
-0.175848	1.06982	9.5634	7.199166	-6.017235	-19.348429	-0.01006	0.251095	-0.926424	26.677561	3.764347	3.504317	15.331987	-27.601488	6.869514	0.211656	-0.197362	-0.873341	9.12927	1.397602	-0.420558	10.67489	-11.080663	13.381105	-0.508134	-0.50984	-0.404471
-0.114056	0.95586	9.791443	1.968092	-8.109137	-21.330357	0.019724	0.195262	-0.913459	9.674146	0.16666	39.546945	-74.087727	-82.129506	-17.790094	0.19912	-0.225935	-0.899758	9.662056	1.16433	-0.351736	7.62228	-12.395534	15.262987	-0.508413	-0.525207	-0.419161
-0.284872	1.185992	9.845921	-4.332858	-9.432174	-23.787488	-0.00966	0.220025	-0.905516	14.183236	-5.336231	4.98892	88.495023	-166.230335	29.782445	0.186294	-0.195369	-0.901489	9.730031	1.572952	0.190257	3.331089	-13.828983	16.355208	-0.494643	-0.542021	-0.402726
-0.623572	0.670232	10.064481	-9.881782	-8.452368	-25.718627	-0.038302	0.251845	-0.925726	10.366661	2.280129	10.180599	83.61303	-159.947254	21.609411	0.160192	-0.22616	-0.89893	9.728775	1.165925	0.068713	1.447416	-14.451266	16.731805	-0.507716	-0.477455	-0.406145
-0.117273	0.782812	9.62016	-18.990523	-7.383408	-28.834344	0.00446	0.219651	-0.905866	7.910015	2.395799	8.317453	90.002533	-131.732412	13.416853	0.147211	-0.286445	-0.90899	10.437529	1.396856	0.142814	2.571124	-15.252833	14.77529	-0.508622	-0.541399	-0.418324
0.022681	1.018044	10.930974	-49.749711	-2.06949	-32.953735	-0.037158	0.227831	-0.93297	-12.574423	9.814367	8.969445	108.47612	-96.567177	44.333577	0.173388	-0.240333	-0.912552	10.667997	2.382867	-0.028302	8.518737	-15.228511	8.54879	-0.508063	-0.510667	-0.388943
2.290441	4.853049	21.675367	-81.715591	20.462202	-27.280986	-0.023424	0.241227	-0.936735	-11.18364	5.871076	11.769271	136.775574	8.472203	166.303181	0.095307	-0.286745	-0.907887	11.243778	3.830945	-0.610186	13.991158	-13.28435	2.834737	-0.549787	-0.511279	-0.389153
0.97472	-0.985594	12.702789	-8.042258	68.542456	-9.504782	-0.038687	0.265616	-0.929141	-12.647217	2.558526	21.076949	155.900983	-81.746417	122.218809	0.120743	-0.273418	-0.880743	12.296435	3.710137	-1.130034	15.543318	-11.122026	7.220026	-0.45236	-0.510676	-0.373134
0.512174	0.002865	15.425819	-19.592012	83.413689	-8.739048	-0.010432	0.247567	-0.912348	9.797086	8.243464	0.209803	154.498705	-208.888972	72.29809	0.09346	-0.308496	-0.820785	12.243151	2.665646	-0.955864	13.843975	-9.717815	15.777871	-0.507992	-0.511493	-0.373415
0.354979	0.510754	13.265346	1.447404	98.913004	-6.768786	0.04565	0.277139	-0.934652	9.132875	-0.251283	11.45458	21.528104	-128.079144	-44.988521	0.055192	-0.351467	-0.859996	11.593933	1.73742	-1.091738	14.252759	-8.865504	10.392693	-0.535528	-0.496535	-0.358865
0.520387	1.600813	12.989006	-0.646518	111.117876	-5.582903	0.018195	0.233047	-0.909631	6.485941	-4.356353	13.773163	51.759384	-49.393281	-4.292641	0.042807	-0.349398	-0.88842	12.420719	1.968081	-1.015436	15.553022	-4.496441	-0.544246	-0.53567	-0.494882	-0.38992
0.68749	1.886931	12.766141	-7.823505	124.567523	-5.220873	0.017423	0.260589	-0.916462	2.384233	0.49315	10.747358	95.219141	-16.875878	22.516605	0.041695	-0.398575	-0.84236	12.596802	1.909353	-1.072289	5.928363	-0.296941	-1.782499	-0.536017	-0.528094	-0.372718
0.398374	1.197116	12.587118	-22.227526	139.213721	-5.033256	0.088026	0.258716	-0.918208	1.891918	2.577151	9.436731	102.032914	-13.908466	36.88751	0.015599	-0.369156	-0.829466	11.295976	2.027981	-1.215818	-2.219953	-1.328269	9.377159	-0.479968	-0.494892	-0.374112
0.016274	1.546157	13.547274	-25.571883	152.674173	-4.19136	0.086911	0.248131	-0.87598	1.246412	3.702183	6.253772	74.911385	-16.919686	13.189407	0.029015	-0.397579	-0.856434	11.055935	2.318159	-1.398705	-2.565053	-3.895167	11.988727	-0.507504	-0.479934	-0.359561
0.253086	1.54768	13.9497	-34.174774	168.696349	-3.936702	0.102161	0.241042	-0.901066	1.755028	2.576513	8.4148	8.731085	-22.930108	-2.831071	0.015969	-0.352764	-0.844819	11.013155	2.438155	-0.500707	0.094996	-4.743276	9.140553	-0.521624	-0.477659	-0.406215
0.330922	0.805241	14.971032	-44.355736	186.10114	-1.753557	0.128902	0.243479	-0.862952	1.876161	0.945191	11.246614	4.241667	-16.428277	-2.276792	0.027909	-0.386546	-0.800038	11.30617	2.378909	-0.615266	-0.8112	-4.288936	6.299144	-0.494013	-0.512115	-0.357817
-0.073898	0.230151	14.733412	-45.610009	203.841582	1.452054	0.128902	0.243479	-0.862952	2.015918	1.732262	9.778275	15.147578	-13.405046	2.077974	0.001957	-0.386696	-0.799487	11.007964	3.250477	-0.676967	-2.819135	-4.292275	0.01032	-0.465989	-0.495514	-0.358514
0.011276	0.121258	16.15537	-45.198213	222.808678	5.378123	0.158286	0.218716	-0.870895	1.612529	1.958338	9.770002	8.151114	-10.099301	-1.224224	0.041551	-0.369006	-0.830017	11.072617	3.193503	-0.376579	-1.077881	-4.320567	-8.492042	-0.466339	-0.510054	-0.388732
0.128468	-0.5102	16.268649	-30.634033	239.46206	10.483071	0.198761	0.23455	-0.836546	1.915186	1.789377	10.455579	1.127975	-6.226856	-2.147038	0.003138	-0.382408	-0.856886	10.487148	3.544545	-0.086565	1.762426	-4.320682	-13.422519	-0.493808	-0.477251	-0.406075
0.127727	-1.027415	16.209624	-11.960118	256.43015	8.374723	0.241494	0.236954	-0.85167	1.446848	1.451924	10.049146	4.060885	-3.805924	-0.918314	0.014783	-0.417262	-0.797755	10.130019	3.428462	-0.273383	5.087578	-4.051073	-14.688784	-0.493387	-0.463538	-0.360328
-1.141684	-1.315882	15.672243	6.642267	269.261805	10.799226	0.254472	0.260594	-0.844775	1.901889	1.788855	9.832544	5.025334	-3.185896	-0.079015	0.002548	-0.384552	-0.828186	10.073359	3.83587	-0.093032	9.085862	-2.244318	-13.520066	-0.5219	-0.511697	-0.373485
-1.951248	-1.029783	15.259889	18.738052	282.398294	10.702133	0.309468	0.244982	-0.789868	1.146609	1.62098	9.476848	5.75506	-1.73118	-0.742181	-0.01154	-0.433804	-0.78185	9.193619	3.839132	0.189996	13.982262	-0.224301	-11.958329	-0.480594	-0.54347	-0.3716
-2.911745	-1.830606	15.862965	27.134962	290.387397	13.537187	0.309868	0.213912	-0.76896	1.901997	1.732525	9.832496	4.611842	-1.803793	-1.237071	0.003138	-0.382408	-0.856886	8.943094	3.429679	-0.654833	17.780052	2.080625	-8.743683	-0.480314	-0.528103	-0.35691
-1.06013	-0.403897	14.029591	44.787031	290.837381	13.555022	0.365979	0.208885	-0.756281	1.61594	2.071142	9.940016	2.424116	-1.429553	-1.759186	0.002692	-0.414121	-0.840529	8.598746	3.025935	-0.183912	20.801746	4.206519	-6.228204	-0.494643	-0.542021	-0.402726
-1.880212	0.56933	13.108455	52.67749	291.197401	9.398276	0.37897	0.215225	-0.731894	1.789283	1.732835	9.943358	2.489218	-1.153789	-1.602252	-0.011019	-0.386771	-0.799211	8.356888	2.676535	-0.549238	21.987836	6.325886	-6.67047	-0.493667	-0.478904	-0.375019
-2.466486	-0.46734	12.353886	61.319255	285.219132	4.062788	0.392348	0.207794	-0.704091	1.552331	2.071012	9.655609	4.133762	-0.494281	-0.792842	0.027168	-0.41933	-0.769332	8.353587	2.675793	-0.728959	21.84074	8.609543	-8.6673	-0.493875	-0.495096	-0.374182
-3.05957	0.218031	11.322292	48.99355	269.191339	-3.584124	0.406111	0.186591	-0.672873	1.904306	1.78895	9.945823	4.99695	-0.636027	-0.886041	0.015524	-0.384477	-0.828462	8.23544	3.198995	-0.669028	20.116414	10.772146	-11.330134	-0.508342	-0.526033	-0.403633
-2.556648	-1.163834	10.644284	29.059136	245.006743	-23.518612	0.460721	0.184751	-0.621382	1.725566	1.789036	9.658998	6.378117	-1.209479	0.404147	0.02894	-0.412899	-0.85543	7.882288	2.793273	-0.677361	18.058241	12.116103	-11.848615	-0.507366	-0.462915	-0.375926
-1.308309	-0.994834	10.100974	-32.349611	267.649858	4.353252	0.489734	0.15646	-0.615248	0.984576	1.734391	9.983073	7.825658	-1.529179	0.525445	0.028054	-0.416115	-0.812381	7.710742	2.794914	-0.381128	15.451294	13.353059	-11.081075	-0.465571	-0.463129	-0.360188
5.789963	-5.678635	4.138447	-90.866358	277.866435	67.727418	0.475256	0.136007	-0.583332	1.905731	1.676337	10.002368	8.49708	-2.19338	0.241928	0.028864	-0.428219	-0.854426	8.344493	2.325112	-1.269604	12.726155	13.958824	-8.476456	-0.494222	-0.528307	-0.35698
3.763339	-11.509501	-3.143013	-135.171555	209.132533	210.296992	0.502011	0.121144	-0.527726	1.793688	1.958347	10.170106	6.922894	-2.063063	0.704379	0.014858	-0.401941	-0.798759	8.887879	2.26854	-0.600972	9.539449	14.188572	-5.165402	-0.522806	-0.575641	-0.385665
2.25961	-5.996449	-3.717329	-118.234652	50.672221	271.525644	0.528738	0.140881	-0.507104	2.136339	2.126597	10.064222	7.113787	-1.659647	0.338606	-0.023404	-0.384702	-0.827635	8.941953	2.499721	-0.83851	6.063368	13.632647	-2.888581	-0.494226	-0.509636	-0.4044
10.129377	-0.870971	0.890123	-63.941735	-116.582318	287.761072	0.572257	0.098444	-0.497904	1.211212	1.733818	9.817989	7.369276	-0.983085	0.530508	-0.011534	-0.373594	-0.771515	9.766943	2.555659	-0.882763	3.988776	12.368745	-2.661101	-0.508063	-0.510667	-0.388943
15.609046	3.467548	9.084915	3.091186	-183.104203	269.038285	0.558522	0.085047	-0.494139	1.61758	1.845867	9.996466	8.089996	-0.119274	1.125412	0.014638	-0.387693	-0.785413	9.995325	3.018244	-1.235825	3.730192	10.900092	-2.71428	-0.507646	-0.478282	-0.390617
16.137935	6.227746	9.902463	58.390794	-195.897932	210.302802	0.572643	0.084673	-0.494489	1.44346	1.958804	9.936294	9.424637	0.445524	1.748666	0.001732	-0.432657	-0.796476	9.230276	2.090783	-1.254086	4.601263	8.742677	-3.807375	-0.480527	-0.525625	-0.403493
10.537588	5.1751	4.447034	91.361672	-204.72956	126.701571	0.533296	0.062125	-0.553573	1.162886	1.959627	10.270087	9.208934	0.531554	2.242599	0.015223	-0.445759	-0.824447	9.819762	2.379813	-1.241846	6.064093	7.507642	-5.151497	-0.50848	-0.543052	-0.387269
13.300919	1.83181	2.213475	62.397699	-217.376126	58.350751	0.562695	0.020063	-0.544024	1.837956	1.957717	9.548279	9.307071	0.962037	2.246959	0.015003	-0.43151	-0.811101	9.234002	2.382152	-1.013223	8.540371	6.035649	-6.89544	-0.494502	-0.543674	-0.371671
11.060824	0.970114	1.768458	25.607647	-230.441371	-3.51051	0.535225	-0.00673	-0.536494	1.910351	1.789187	10.229021	8.930625	0.526617	2.458124	0.002177	-0.400944	-0.812833	9.595512	2.034369	-0.648662	10.715669	4.703848	-7.508184	-0.493946	-0.49427	-0.38971
9.689514	-0.452102	4.747801	-17.998672	-229.623914	-49.933067	0.53634	0.003855	-0.578722	1.626042	1.846199	10.392943	9.361141	0.407232	2.796394	0.014632	-0.447902	-0.795748	9.174851	2.440363	-1.014076	12.565676	4.275933	-6.901619	-0.522455	-0.561101	-0.355446
7.208675	-1.131374	6.628917	-47.211585	-223.912831	-74.4224	0.439325	0.058717	-0.681641	1.784579	2.295998	9.773913	9.663874	-0.050634	3.069539	0.002617	-0.429441	-0.839525	9.24155	1.977103	-0.655512	13.892861	3.71936	-5.864685	-0.522321	-0.525411	-0.419231
4.71798	-2.042584	7.99739	-59.315986	-223.896185	-80.830544	0.438596	0.034361	-0.635997	1.55518	1.845785	9.768698	11.574982	-0.334793	3.345706	0.040735	-0.417111	-0.798307	9.064792	2.326211	-0.597423	14.764153	4.235247	-5.167387	-0.494852	-0.558214	-0.401889
1.688654	-3.015928	8.161685	-53.975727	-231.626233	-67.103439	0.438925	0.089787	-0.702549	1.678126	2.183885	10.167878	13.270529	-0.589421	3.375367	0.002472	-0.399872	-0.827183	8.644651	2.035046	-1.025711	15.017902	4.471084	-4.222017	-0.522388	-0.543256	-0.387339
0.693457	-2.662813	9.962389	-47.843531	-248.048648	-40.820803	0.382071	0.087757	-0.687076	1.606162	2.127093	9.486946	13.105658	-1.418735	3.274503	0.027759	-0.417187	-0.798031	9.300951	1.337884	-0.717038	15.216043	5.005668	-2.605498	-0.494368	-0.507984	-0.435456
-0.38044	-1.912149	10.68346	-35.76008	-255.511943	-4.568985	0.369094	0.064118	-0.693971	1.836639	2.014001	9.491687	13.935075	-1.83344	2.654481	0.002397	-0.415193	-0.826179	8.944674	1.803055	-0.78157	14.492739	5.716371	-0.589146	-0.5219	-0.511697	-0.373485
-0.872554	-1.619502	11.86856	-39.806233	-258.013548	37.903552	0.341581	0.089223	-0.738916	2.071975	2.520781	9.780147	13.559492	-2.235786	2.496037	0.001656	-0.447977	-0.795472	8.712201	2.153041	-0.54486	12.876479	6.048894	2.19636	-0.494088	-0.492617	-0.420765
-0.419843	-0.414527	11.655123	-37.941098	-254.42524	69.442254	0.285514	0.042352	-0.69912	1.962434	2.126873	10.003956	12.844408	-2.526224	3.324937	0.027683	-0.432507	-0.797027	8.534997	1.746666	-0.609799	11.777722	5.961339	4.370778	-0.494852	-0.558214	-0.401889
0.27892	0.33437	12.297006	-38.993523	-250.563127	83.8233	0.314826	0.104086	-0.794522	1.565628	2.071534	10.278644	14.661993	-2.930401	3.014097	0.027759	-0.417187	-0.798031	8.940812	1.569762	-1.022186	10.179773	6.069423	5.201279	-0.494435	-0.525829	-0.403563
0.852821	1.54071	12.426915	-42.942595	-245.767372	85.261188	0.288114	0.06705	-0.797652	1.618143	2.183897	10.05339	17.545309	-4.604188	1.982442	-0.02422	-0.432807	-0.795924	9.059	1.976272	-0.958348	8.584535	6.669164	5.815479	-0.494297	-0.50881	-0.419928
1.84132	2.117799	13.2442	-52.560533	-241.141626	72.2749	0.246139	0.054403	-0.793188	1.841151	2.183182	9.718388	17.48528	-4.45265	2.138042	0.013602	-0.421549	-0.740356	9.113479	2.033224	-1.196628	7.384527	7.21894	5.480994	-0.480247	-0.510258	-0.388802
1.547834	1.312135	12.837283	-62.505502	-237.843311	48.720642	0.217512	0.068923	-0.795906	1.375577	2.296515	9.482253	18.04863	-3.748939	3.471108	0.014777	-0.477471	-0.80809	9.240315	2.034932	-0.715172	6.67903	8.10983	4.868015	-0.494714	-0.541195	-0.418254
0.997311	1.662024	13.964658	-83.757338	-225.682472	28.467086	0.190414	0.045658	-0.802451	1.308448	2.239913	9.02788	10.377369	-4.814368	1.450505	0.014707	-0.432582	-0.796752	9.467961	1.39333	-1.252651	7.081594	8.884243	4.068198	-0.494643	-0.542021	-0.402726
0.734629	1.38009	15.151799	-97.602307	-214.236685	6.43016	0.162516	0.084534	-0.850813	1.900595	2.464821	9.833113	6.660995	-5.653887	0.699292	0.002102	-0.416265	-0.811829	9.11676	1.56911	-1.078792	7.945765	9.630993	3.144591	-0.494368	-0.507984	-0.435456
-0.093093	1.50235	16.727465	-102.293989	-201.942748	-5.34783	0.134303	0.050685	-0.815131	1.609357	2.352557	9.657055	6.950841	-4.815738	-0.309469	0.002102	-0.416265	-0.811829	9.055253	1.220047	-1.261096	8.526337	9.518932	2.348371	-0.522388	-0.543256	-0.387339
0.094218	1.563045	17.52699	-101.746559	-192.085563	-14.451586	0.149138	0.091965	-0.878615	1.730186	1.901887	9.885652	7.09373	-5.733152	-0.41096	0.027313	-0.448899	-0.781674	9.41074	1.568188	-1.133196	8.091614	9.430019	1.922482	-0.46606	-0.494688	-0.374041
-0.800862	1.798058	18.590349	-92.437817	-186.457812	-26.778338	0.093399	0.10052	-0.90537	1.846741	1.789058	9.944614	5.474061	-6.767327	-0.145094	0.001436	-0.433729	-0.782126	9.114809	0.987608	-1.260985	7.420604	9.227324	3.545748	-0.494293	-0.527481	-0.372508
-1.905891	0.933362	17.655923	-89.170346	-185.436825	-39.500875	0.037274	0.122846	-0.935541	1.726475	2.577758	9.772941	3.800664	-7.158903	0.219604	0.014632	-0.447902	-0.795748	8.93666	0.987766	-1.324193	5.885762	8.618797	5.663127	-0.494852	-0.558214	-0.401889
-2.699948	1.337722	18.039995	-103.125293	-189.233674	-49.430777	0.092627	0.128062	-0.912202	1.904006	2.577625	10.003127	4.417639	-7.241653	0.00348	0.05297	-0.449821	-0.767876	9.289407	1.567716	-1.315118	3.395919	8.005258	7.936848	-0.480456	-0.526451	-0.387965
-3.884967	0.480588	18.865789	-112.320461	-197.513903	-58.097938	0.051366	0.15707	-0.970874	1.73295	2.352673	10.05595	3.679584	-6.975669	0.098016	-0.037347	-0.463523	-0.793641	9.054037	1.742732	-1.258871	-0.298514	7.608783	9.510937	-0.466619	-0.52542	-0.403423
-4.678984	0.827506	19.249619	-102.053855	-207.77178	-74.309138	0.009747	0.165251	-0.997978	1.608172	2.972193	9.657576	2.902876	-7.294546	0.464157	-0.024666	-0.46452	-0.779567	8.996486	0.639175	-1.324576	-3.192464	7.465908	10.500191	-0.508201	-0.527685	-0.372578
-6.586071	0.652689	18.302501	-84.254672	-212.728495	-93.771426	-0.01888	0.179771	-1.000696	1.782054	2.352234	9.660681	5.625101	-6.983653	0.407783	0.001436	-0.433729	-0.782126	9.282264	1.798537	-1.67357	-6.804082	7.429908	9.779876	-0.508902	-0.556765	-0.433015
-8.919155	13.18171	19.503368	-131.228314	-162.153075	-102.695283	-0.046363	0.170277	-1.010657	1.909488	2.239831	10.2294	3.51128	-7.994649	0.858451	0.013967	-0.465367	-0.766045	9.345392	1.450687	-1.494233	-9.255174	7.201956	7.314079	-0.494647	-0.52335	-0.450147
-16.383049	9.985469	9.399392	-81.017838	-167.504819	-122.813042	-0.073847	0.160784	-1.020619	1.205729	2.071612	9.591716	7.497005	-7.913014	0.800814	-0.050913	-0.465742	-0.764666	8.988419	1.741383	-1.619413	-7.763202	6.466895	4.958726	-0.48046	-0.50778	-0.435386
-22.423009	1.563368	13.338199	-98.19048	-143.390382	-92.08295	-0.102474	0.175304	-1.023337	1.904761	2.183311	10.002795	5.401014	-7.542616	1.049435	-0.038082	-0.436098	-0.7526	9.338829	2.378915	-1.729905	-5.575636	6.260319	4.982353	-0.48046	-0.50778	-0.435386
-21.874549	2.16958	20.909867	-45.53082	-131.667097	-68.418358	-0.08761	0.181986	-1.051838	1.884449	2.689527	9.096988	8.465692	-6.898537	2.291433	-0.024591	-0.449199	-0.780571	8.581618	1.395108	-1.329065	-3.93972	6.386982	5.128644	-0.494159	-0.491791	-0.436293
-21.661825	6.86438	17.353477	35.523611	-97.91993	-55.463458	-0.174634	0.24956	-1.052746	2.183133	2.069732	9.555627	12.092516	-5.871964	2.397044	-0.012061	-0.480837	-0.76449	8.695924	1.103469	-1.567728	-3.298563	6.525544	3.780846	-0.494576	-0.524176	-0.434619
-24.95077	-1.998596	12.705713	92.258035	-54.025081	-25.955937	-0.159371	0.225172	-1.060339	2.1282	1.957273	9.667603	11.022378	-5.054684	1.941886	0.014632	-0.447902	-0.795748	9.296684	1.278819	-0.956913	-2.947944	7.467511	4.508614	-0.536162	-0.50777	-0.451194
-28.238365	-3.195468	14.284803	80.671296	25.223572	22.993046	-0.173134	0.246374	-1.091558	1.896861	2.52101	9.663242	13.905452	-4.135363	2.939851	-0.012281	-0.466589	-0.751144	9.427787	1.339592	-0.235582	-2.140919	8.519227	9.574395	-0.494923	-0.557387	-0.417417
-22.314145	0.125799	12.993274	15.47166	97.160299	31.555748	-0.10176	0.216959	-1.086472	2.019784	2.239426	10.00526	14.035139	-3.701055	2.420193	-0.024	-0.447056	-0.809271	9.719566	1.338175	-0.4098	-1.369411	9.424502	13.999315	-0.494927	-0.538716	-0.464837
-13.664844	6.452386	16.541174	38.068609	146.574918	17.882276	-0.116252	0.213806	-1.072047	2.359263	2.801895	9.786429	14.289099	-3.175598	2.271481	0.0004	-0.467585	-0.73707	9.250293	0.584514	-0.361911	-0.679392	9.373653	16.197852	-0.521904	-0.493026	-0.420906
-1.094373	-1.068164	6.410849	216.58778	146.360314	-63.48725	-0.102903	0.240973	-1.079228	1.890601	2.633434	9.380138	13.350114	-1.515445	4.476043	-0.011765	-0.479765	-0.77884	9.664932	0.874444	-0.233158	-0.260604	8.809736	14.670694	-0.494017	-0.493444	-0.405237
9.679584	4.958542	7.384613	59.210472	158.628823	-85.569153	-0.08611	0.1788	-1.09065	1.566452	3.53627	10.449796	6.965894	2.198699	10.241948	-0.01147	-0.478693	-0.793189	10.425694	1.277985	-0.516656	-1.68668	6.984096	10.283079	-0.536233	-0.506944	-0.466722
7.95539	2.615339	9.841737	20.883253	155.999022	-126.653372	-0.002516	0.183267	-1.068009	1.252275	3.65081	11.915267	-8.232379	-9.526009	15.354043	-0.037717	-0.479915	-0.778288	11.607968	1.856786	-0.312454	-2.702002	3.55419	4.404144	-0.493879	-0.476425	-0.421602
0.266511	2.732157	8.840216	10.665153	193.319745	-120.154615	-0.002144	0.186795	-1.082085	2.23054	3.198287	11.8788	-20.154729	-18.462688	22.40798	0.001211	-0.47969	-0.779115	12.013264	2.377042	-0.661968	-3.228755	0.514468	8.302242	-0.494368	-0.507984	-0.435456
-5.203067	2.569601	10.097071	20.205957	185.869417	-90.321887	0.042147	0.116816	-1.066053	1.446127	1.681967	15.42768	-12.902355	-36.692445	15.080183	-0.01147	-0.478693	-0.793189	11.777179	1.912726	-0.728254	-1.424018	-2.770408	16.013977	-0.508067	-0.491995	-0.436363
-3.621643	1.139922	11.883549	6.668481	154.122948	-45.607148	0.054352	0.167998	-1.06599	1.018284	3.315453	14.40108	-12.056615	-50.130147	17.382773	-0.037937	-0.465667	-0.764942	12.131816	1.679612	-0.72264	-1.713301	-5.080921	11.593947	-0.493391	-0.444866	-0.407749
-2.187143	-0.124345	12.019783	30.914295	122.638319	-17.018355	0.068859	0.153852	-1.062923	1.464947	2.976038	13.730792	-7.115768	-69.668617	17.562479	-0.037492	-0.433954	-0.781299	12.599678	1.619467	-0.953712	-6.811213	-6.013947	5.412179	-0.480113	-0.474568	-0.452588
-0.535751	2.15808	8.765361	54.1668	112.20822	-8.881918	0.098986	0.136146	-1.099018	1.878115	2.694011	14.192134	-7.192522	-85.464618	17.066295	-0.024666	-0.46452	-0.779567	12.126064	2.259383	-0.959796	-8.246162	-4.24534	5.439499	-0.480389	-0.508606	-0.419858
-8.834076	4.302978	11.795493	19.256913	101.049317	-9.054855	0.096328	0.180645	-1.070453	1.707944	2.638098	14.301739	-3.141117	-102.302287	14.744182	-0.050768	-0.495311	-0.777009	11.357888	2.202815	-1.034255	-8.65537	-1.743646	5.918069	-0.535674	-0.476211	-0.437341
-2.878443	-0.412021	11.777802	5.111414	38.515031	-6.473132	0.112378	0.111415	-1.053723	2.344467	2.806047	14.485098	0.791874	-118.657473	13.228346	-0.07738	-0.452715	-0.736419	11.657506	2.145053	-0.789373	-8.898302	0.732247	3.034119	-0.479763	-0.460028	-0.422369
-0.309203	0.950918	8.594188	37.300766	27.815162	-9.131942	0.155082	0.148418	-1.10383	1.554936	3.089872	15.261365	-2.447609	-137.813858	12.942911	-0.0891	-0.433182	-0.794546	11.535652	2.841741	-0.908421	-9.62998	2.766393	7.214347	-0.521837	-0.475181	-0.452798
-0.343696	1.817649	9.790609	13.209269	18.85699	-4.14778	0.196301	0.171308	-1.097634	2.707969	2.186428	15.284784	-3.617229	-157.003715	12.073082	-0.128914	-0.436623	-0.750669	11.484164	1.971972	-0.613695	-9.538194	4.665422	9.955799	-0.494301	-0.490139	-0.467349
-0.817362	1.872045	8.985999	5.903123	17.674252	2.294329	0.195601	0.112354	-1.017007	2.209353	2.75151	16.237252	-2.84463	-176.59397	10.152685	-0.116968	-0.410195	-0.695553	11.534937	2.20241	-1.030954	-11.802065	5.272275	6.690657	-0.508835	-0.53892	-0.464908
-0.221636	0.612741	10.128887	-5.013892	14.856025	5.132003	0.139104	0.131151	-1.033102	2.204494	2.131637	15.953532	1.275203	-197.711319	8.497301	-0.194309	-0.423822	-0.721595	11.431325	1.682963	-0.316497	-15.711201	5.366768	2.119772	-0.465717	-0.442806	-0.438664
0.002845	0.726494	9.906411	7.274258	11.376299	2.617367	0.124984	0.131526	-1.032752	1.984897	2.245156	16.458548	4.872971	-218.678035	5.856514	-0.194974	-0.441286	-0.691892	11.127616	2.553295	-0.677732	-18.222428	4.356271	-4.559515	-0.521486	-0.460641	-0.42258
-0.288088	1.012944	9.674638	6.141423	7.325122	1.63476	0.167745	0.099332	-1.012892	1.412176	1.344993	16.502339	13.432072	-240.508882	3.73526	-0.206989	-0.422825	-0.735669	10.777671	3.136102	-0.382328	-20.079518	2.466056	-8.761221	-0.46669	-0.524594	-0.418951
-0.281324	0.899508	10.015274	2.943121	5.057135	2.465798	0.16736	0.113103	-1.016308	1.776132	1.119735	17.358997	20.071588	-262.703355	1.393092	-0.246953	-0.456906	-0.689785	10.132065	3.022177	-0.215207	-22.224395	-0.302545	-7.97622	-0.494301	-0.490139	-0.467349
-0.050535	1.531682	10.136089	3.052706	3.311235	1.977095	0.196358	0.102111	-1.027667	1.697023	1.006328	16.338181	30.75023	-285.432766	-0.981925	-0.273716	-0.444952	-0.647188	10.123572	3.833758	-0.571187	-24.919201	-2.461632	-7.16157	-0.493674	-0.441561	-0.46986
-0.061214	0.897412	9.564903	3.017011	2.29278	2.328656	0.167731	0.116631	-1.030384	1.123871	0.331487	16.382162	43.575943	-304.392995	-2.947825	-0.273646	-0.489841	-0.658527	9.244622	3.023708	-0.351527	-26.853781	-4.1632	-8.918976	-0.535745	-0.475385	-0.452869
-0.05573	1.013502	9.849651	1.298457	1.602761	2.843736	0.153196	0.165376	-1.068434	0.694257	1.626895	15.241998	64.275974	-321.292978	-9.01782	-0.339851	-0.464935	-0.587407	8.963016	2.911197	0.361359	-30.70424	-5.180082	-12.475728	-0.507862	-0.457132	-0.484621
-0.00396	0.897371	9.566017	2.035884	2.320671	2.178596	0.140247	0.107138	-1.040346	2.033893	2.301046	16.063327	94.0397	-331.301055	-8.599945	-0.353858	-0.438656	-0.531739	9.018752	3.375176	0.244623	-34.155387	-6.068434	-16.492822	-0.507441	-0.443418	-0.438875
-0.001733	0.897853	9.679723	2.949397	1.935187	1.311009	0.16886	0.109917	-1.05512	6.143245	3.080586	14.565123	135.115261	-329.575025	0.020385	-0.393087	-0.500163	-0.526898	8.490617	3.02843	0.35305	-36.515366	-6.013491	-19.662617	-0.494647	-0.52335	-0.450147
0.290024	1.013735	9.970039	2.642038	1.967617	1.036411	0.196701	0.140238	-1.076726	7.246523	2.907542	12.323575	147.492265	-314.762401	4.554966	-0.406653	-0.502382	-0.497923	8.795042	2.797428	0.836818	-36.126728	-6.547823	-21.097696	-0.494021	-0.474772	-0.452658
-0.106303	1.014991	10.189656	3.680255	1.95218	0.113137	0.167331	0.147702	-1.051292	6.014264	0.599163	10.993533	132.137441	-302.639194	13.911531	-0.421921	-0.555922	-0.394188	8.25911	3.436738	0.649913	-33.850886	-6.808608	-21.715846	-0.522187	-0.489721	-0.483017
-0.052472	1.129108	10.020693	5.05993	2.426547	-0.496484	0.167731	0.116631	-1.030384	5.694399	-0.978928	9.343612	96.9006	-289.933813	26.957612	-0.460108	-0.523362	-0.424067	8.382334	2.624145	0.828373	-30.987418	-7.536509	-21.325494	-0.508626	-0.522728	-0.465745
-0.276005	1.245364	10.300987	7.170619	2.35396	-1.362447	0.196715	0.122939	-1.059234	2.483635	-2.270451	7.067087	23.158646	-265.060544	29.796562	-0.501403	-0.592372	-0.318777	8.737126	2.797811	0.895625	-28.066327	-8.225401	-21.730034	-0.480672	-0.505301	-0.481969
0.516566	1.357736	9.862234	4.966549	2.43029	-0.864171	0.140633	0.093367	-1.03693	-9.539636	-7.883456	3.978911	-76.177562	-235.154757	-26.679469	-0.514304	-0.577127	-0.319505	8.966878	3.14449	0.601975	-24.774379	-8.355759	-22.780286	-0.494021	-0.474772	-0.452658
-0.111954	1.128667	9.905874	2.791668	2.417001	-0.582114	0.194443	0.153667	-1.027254	-8.359236	-8.16851	2.644711	-136.789515	-165.904102	-134.414666	-0.514819	-0.56395	-0.291809	9.67067	3.141881	0.375553	-21.361508	-8.66731	-24.013445	-0.493954	-0.456928	-0.484551
-0.113274	1.415634	9.850227	3.283187	2.791546	-0.884123	0.181866	0.098957	-1.013242	-8.575582	-3.435415	3.720011	-143.656012	-52.802334	-167.782838	-0.488717	-0.533159	-0.294368	10.495641	2.732964	0.269415	-17.131339	-8.229562	-23.480825	-0.508346	-0.507362	-0.451054
-0.171394	1.070785	9.790813	1.535006	2.661854	-1.003871	0.168103	0.12016	-1.04446	-11.932144	-0.608391	8.464214	-89.043775	87.812183	-148.219821	-0.488798	-0.608689	-0.3037	10.323129	2.676282	0.505494	-14.057645	-6.613806	-21.910685	-0.522676	-0.521279	-0.496871
-0.005322	1.241779	9.510612	2.880424	2.301457	-1.19761	0.181866	0.098957	-1.013242	-14.575809	0.917775	8.749722	4.355347	158.144809	-100.413025	-0.501699	-0.593444	-0.304428	9.907815	2.676733	0.377977	-11.882418	-5.023959	-21.101092	-0.522325	-0.506739	-0.466652
-0.398143	1.013992	9.899824	2.939579	2.120135	-1.446072	0.18148	0.112728	-1.016657	-12.081099	0.01018	6.933048	55.419591	195.701815	-44.084062	-0.475231	-0.606471	-0.332675	10.196543	2.093567	-0.038342	-12.789085	-2.795569	-20.986211	-0.508279	-0.489517	-0.482947
0.006144	0.784659	10.077212	2.172603	1.993632	-1.44592	0.166602	0.123346	-1.005648	-10.092497	-0.839641	5.671938	39.151241	204.391109	-8.621865	-0.462256	-0.606396	-0.332951	9.612734	2.677408	0.372475	-14.310794	-0.603423	-20.532794	-0.521486	-0.460641	-0.42258
-0.00961	1.011048	9.282234	2.451565	2.236253	-1.044094	0.154011	0.085935	-1.009127	-7.769189	-2.422879	3.851069	-16.17037	206.10216	11.265658	-0.474716	-0.619647	-0.360371	9.617656	1.981237	0.549229	-17.594839	0.908827	-20.008633	-0.507791	-0.457958	-0.469093
-0.456511	1.013792	9.841857	2.116767	2.540951	-0.946174	0.153611	0.117006	-1.030035	-7.129279	-2.761811	4.14728	-53.296006	205.059669	19.148472	-0.460629	-0.570395	-0.406707	9.382982	2.330728	0.666124	-19.938138	1.583775	-21.011777	-0.508902	-0.556765	-0.433015
-0.566897	1.474372	10.068973	1.384954	2.777112	-0.388204	0.141376	0.100423	-1.065082	-5.313836	-1.862583	5.714784	-89.050777	208.902076	13.177124	-0.447803	-0.600961	-0.404975	9.435125	2.445262	0.308278	-21.394412	0.660874	-21.0021	-0.494438	-0.507157	-0.450984
-0.281573	1.244157	10.016722	1.2357	3.265666	-0.165159	0.210464	0.119036	-1.045508	-3.144455	-1.639684	7.628811	-100.773678	221.476207	1.547214	-0.447584	-0.61521	-0.418321	9.263424	2.040124	0.542873	-21.430329	-0.602547	-20.109764	-0.521975	-0.492199	-0.436433
0.105888	1.183531	9.342038	0.875777	4.242835	0.250442	0.139519	0.082782	-0.994702	-2.482069	-0.456696	9.115734	-92.203375	230.566541	-14.108339	-0.407475	-0.610697	-0.476547	8.910853	2.331808	0.65732	-20.900901	-2.038973	-17.079552	-0.522046	-0.491373	-0.451961
0.113599	1.300102	9.740492	1.004093	5.291052	0.021765	0.181094	0.126499	-1.020073	-1.205481	0.555357	9.70958	-88.539659	240.233967	-29.268376	-0.381303	-0.624795	-0.490445	8.732279	2.041339	0.532969	-19.945828	-3.741883	-14.752402	-0.521975	-0.492199	-0.436433
-0.170197	0.956143	9.847183	2.050965	5.939186	0.213293	0.209721	0.111979	-1.017356	-0.338912	0.835535	9.897869	-89.76431	246.763122	-46.959976	-0.380116	-0.560298	-0.537509	8.55577	1.80944	0.528679	-18.49286	-4.923943	-12.337817	-0.508555	-0.523554	-0.450217
-0.508447	1.359689	10.126457	2.27382	7.011603	0.598095	0.13989	0.08631	-1.008778	0.652458	1.115877	10.541694	-95.067668	250.940142	-64.030343	-0.353875	-0.619286	-0.562745	8.792395	2.041451	0.593977	-16.109811	-5.770923	-9.469746	-0.521841	-0.45651	-0.500219
-0.056926	1.128143	9.793281	3.717584	7.634686	0.450727	0.153611	0.117006	-1.030035	0.605927	2.299447	11.164516	-99.283333	251.411119	-74.046791	-0.351953	-0.582214	-0.650851	8.974541	2.21651	0.897554	-13.545122	-6.020927	-8.072047	-0.508279	-0.489517	-0.482947
-0.328847	1.303812	10.527528	4.271912	8.036416	0.486328	0.154011	0.085935	-1.009127	-0.364308	2.977625	11.597651	-109.496863	247.902814	-72.332992	-0.325636	-0.625881	-0.677091	8.674923	2.274272	0.652671	-11.608299	-6.313835	-8.65832	-0.536162	-0.50777	-0.451194
-0.111912	1.071226	9.905632	3.008937	7.235369	0.139598	0.210464	0.119036	-1.045508	-0.811595	4.274706	12.325385	-121.954496	244.128947	-57.708321	-0.272697	-0.591725	-0.72325	8.907396	1.924287	0.415962	-10.26542	-6.810674	-10.433323	-0.522046	-0.491373	-0.451961
0.00371	1.071384	9.964712	3.584088	6.444991	-0.396259	0.181866	0.098957	-1.013242	-0.32182	4.782004	13.751473	-131.176643	237.899177	-35.799391	-0.248001	-0.611183	-0.665399	9.32298	1.807684	0.542985	-9.231594	-7.679775	-11.808127	-0.536229	-0.525615	-0.419302
-0.690148	1.242759	9.610956	4.012091	6.262261	-0.369792	0.182609	0.106014	-1.041393	1.019431	4.611197	14.57209	-138.193464	227.658773	-14.420894	-0.232883	-0.588284	-0.767127	9.029405	1.634379	0.596648	-8.284685	-8.652946	-12.020832	-0.494998	-0.53789	-0.480365
-0.456552	1.071233	9.842098	2.446724	6.136558	-0.766014	0.195244	0.091526	-0.985439	1.10778	4.950305	16.046213	-145.696091	210.628455	4.640051	-0.179793	-0.523486	-0.815293	8.732974	2.215814	0.593618	-6.902776	-9.755105	-11.439936	-0.550283	-0.505495	-0.497848
-0.289326	1.185027	9.618509	3.942598	5.534509	-1.270795	0.182609	0.106014	-1.041393	1.389802	5.456551	15.826126	-151.901534	196.399758	28.41679	-0.166597	-0.53766	-0.828915	8.745079	2.218534	1.252594	-4.808565	-10.860695	-10.280955	-0.521979	-0.473528	-0.483854
-0.225266	1.014108	9.960017	4.246462	5.261793	-1.490779	0.183009	0.074944	-1.020486	1.642708	5.626013	16.907256	-163.496571	196.223941	56.399998	-0.100901	-0.48918	-0.862004	8.384919	1.985556	0.885561	-2.495398	-11.443626	-9.308615	-0.50772	-0.458784	-0.453565
0.005362	0.324886	10.018428	6.234356	5.345767	-2.660532	0.167745	0.099332	-1.012892	2.319685	6.133557	19.016646	-159.048329	216.118527	90.30172	-0.0995	-0.499141	-0.932749	7.974682	1.696616	0.996435	0.503907	-12.380433	-6.411715	-0.522463	-0.523758	-0.450287
-0.109644	1.014267	10.019097	6.446727	5.697327	-3.759497	0.181466	0.130028	-1.034149	4.177709	6.018063	19.791552	-125.615853	248.504309	133.326782	-0.085934	-0.496922	-0.961724	8.27457	1.522702	1.240823	4.279741	-13.045799	-2.877052	-0.536024	-0.490751	-0.467559
0.067728	0.957907	10.306462	8.098856	5.650545	-4.378386	0.210479	0.101737	-1.028016	8.90193	3.361643	19.831814	-88.505999	284.930791	163.693338	-0.059536	-0.465059	-0.978633	8.33042	1.463749	1.061956	7.130827	-12.876661	-0.504312	-0.521975	-0.492199	-0.436433
-0.059319	1.357427	9.68054	9.659807	5.82019	-5.146843	0.183767	0.064701	-1.031146	14.278645	2.392471	18.245457	-49.896236	308.248848	164.326819	-0.020168	-0.493331	-1.006152	8.384899	1.520701	0.823676	9.672865	-12.738274	1.778049	-0.536162	-0.50777	-0.451194
0.066325	1.359757	10.251298	10.818157	6.250511	-7.382026	0.209707	0.129279	-1.034848	25.018318	5.749052	14.907283	-43.002237	292.230235	118.287589	0.058504	-0.444776	-1.039517	7.917192	1.987625	1.116385	9.456206	-11.430201	5.348549	-0.52218	-0.527063	-0.388176
-0.738785	1.646821	10.066356	12.341114	6.09692	-9.474432	0.21125	0.074194	-1.021184	33.079167	6.356077	17.907823	-63.363158	247.926475	32.731505	0.08379	-0.46209	-1.010365	7.859256	1.523152	1.113306	8.845832	-10.137114	10.234952	-0.521695	-0.476833	-0.421743
-0.109851	1.301475	10.020304	14.408348	4.934208	-11.799522	0.210493	0.084437	-1.010524	30.831913	3.52926	1.326794	121.713736	82.637012	-6.43773	0.097431	-0.444551	-1.040344	8.030802	1.521511	0.817073	9.797057	-9.500575	14.079766	-0.494509	-0.506331	-0.466512
-0.285204	1.645524	9.847852	16.043667	3.589966	-14.555741	0.139119	0.113852	-1.01561	29.685791	10.247285	15.632034	23.335453	114.871957	-56.627783	0.149555	-0.458499	-1.054793	8.437043	1.635235	0.465829	12.558145	-9.150131	16.63569	-0.522046	-0.491373	-0.451961
-0.157949	0.958797	10.472567	17.464021	2.558984	-17.919717	0.182209	0.137084	-1.062301	28.835785	5.395178	5.023052	17.117051	57.323562	-93.052942	0.201829	-0.441807	-1.07125	8.381328	1.636111	0.64445	15.735429	-9.016989	16.68468	-0.536091	-0.508596	-0.435667
-0.066	1.35598	9.339421	18.353525	0.458646	-22.066413	0.196358	0.102111	-1.027667	31.704784	1.389658	4.287176	5.40454	-33.341632	-44.614858	0.227191	-0.4438	-1.043102	8.728147	1.924198	0.292847	18.004072	-9.076907	14.384249	-0.535953	-0.491577	-0.452032
-0.746538	1.587691	9.668143	13.9943	-2.831219	-26.462816	0.183023	0.057644	-1.002994	30.862747	10.013698	8.749618	8.277418	-136.603856	-5.841709	0.162386	-0.428855	-1.042727	9.074406	1.979733	-0.119651	19.340055	-9.870788	11.754517	-0.521904	-0.493026	-0.420906
-0.333384	1.41773	10.300598	12.182586	-6.152152	-29.793602	0.168889	0.075318	-1.020137	23.016638	22.815668	8.935808	110.323108	-221.25459	93.352941	0.161941	-0.460568	-1.02637	9.312327	3.548482	0.19096	21.134883	-11.152717	9.156074	-0.564325	-0.541389	-0.434133
-0.507043	0.957839	10.181621	8.041645	-10.548052	-31.448158	0.182638	0.071415	-1.00641	2.212725	3.420561	8.368543	41.929063	-191.312326	71.487916	0.123088	-0.445472	-1.026546	10.469041	4.702604	-0.920317	20.413902	-11.819278	2.376595	-0.521904	-0.493026	-0.420906
-0.317464	0.961575	11.094611	3.84551	-18.880203	-32.982507	0.197501	0.078097	-1.034911	0.455647	1.178687	17.501158	54.464926	-176.391991	24.967984	0.084305	-0.475266	-1.038061	11.999754	4.87258	-1.070685	16.458738	-8.927134	2.315988	-0.549928	-0.509626	-0.420209
3.683952	6.649671	25.688174	-61.037917	17.196129	-34.356492	0.183395	0.061173	-1.01707	5.900772	4.312804	6.012378	189.747654	-162.149969	1.510933	0.071028	-0.536623	-1.033771	12.808063	4.053175	-2.137064	10.339651	-4.062696	20.807182	-0.563557	-0.494464	-0.405588
1.687301	-0.865659	14.024255	45.763188	79.05978	-4.520283	0.182609	0.106014	-1.041393	10.041082	3.687555	8.533192	75.361021	-118.130016	7.035365	0.032106	-0.476639	-1.022609	12.109753	3.592165	-1.672992	6.457913	-2.275576	30.044578	-0.535674	-0.476211	-0.437341
0.634388	1.670517	15.889868	8.289276	94.725286	-5.875159	0.182981	0.109542	-1.055469	7.141828	-3.567963	14.919917	29.287853	-64.424407	-19.596366	0.031139	-0.555384	-0.988891	13.2183	4.342116	-2.247939	8.589243	2.872206	12.129988	-0.549582	-0.476415	-0.437411
1.173471	2.651958	17.15476	21.137818	120.192313	-5.804752	0.180766	0.071073	-0.953522	1.057417	-1.194524	10.434932	77.360851	13.006438	13.303983	0.043895	-0.541061	-0.975821	13.452548	3.701998	-2.425977	0.505589	7.79332	9.690535	-0.521624	-0.477659	-0.406215
0.650019	1.616453	16.68557	17.571591	148.712682	-0.209075	0.253226	0.086842	-1.025648	1.021679	4.604187	6.589533	71.603078	-4.92356	15.155762	0.03107	-0.510495	-0.977552	11.090066	2.602965	-2.71432	0.641869	1.431747	15.58907	-0.55007	-0.507974	-0.451265
1.225199	2.593268	16.871367	2.301131	173.903985	-4.049	0.251354	0.0865	-0.97276	2.107565	2.632481	8.761938	-3.676049	-17.491086	-5.191549	-0.007864	-0.57093	-0.98706	10.285849	2.6098	-1.531588	5.533403	-4.442289	-0.355405	-0.549858	-0.510453	-0.404681
1.793414	2.419564	16.654365	-3.74421	195.567375	-1.992489	0.321585	0.081098	-0.96043	1.575121	0.269194	10.560325	4.10858	-12.292319	-1.958325	-0.033891	-0.5864	-0.985505	10.948792	2.843833	-0.739705	9.976146	-7.791157	-6.253991	-0.549858	-0.510453	-0.404681
1.22883	2.191901	17.040237	-13.802899	216.886511	-6.585093	0.335334	0.077196	-0.946703	1.951878	1.957455	9.494057	16.83207	-9.616048	2.70274	-0.007568	-0.569858	-1.00141	11.026111	3.022129	0.280555	8.406838	-8.575781	1.059813	-0.534977	-0.42846	-0.424324
1.442839	1.384177	16.245369	-10.789557	236.688397	-4.891536	0.349855	0.045751	-0.926145	1.785118	2.014345	9.773676	6.802726	-4.355095	-0.705772	0.017498	-0.572924	-0.958912	10.383131	3.199326	0.628633	4.423251	-9.475641	6.855102	-0.549999	-0.5088	-0.435737
1.051504	0.639657	16.689262	-6.49084	256.53132	-3.722369	0.363218	0.055619	-0.915834	1.567723	2.24062	10.392066	8.121261	-2.510977	1.19414	-0.008309	-0.602643	-0.970703	9.909071	3.08376	0.499521	3.702852	-9.301612	4.56456	-0.535111	-0.46415	-0.360539
0.635756	-0.225054	15.881905	6.01766	274.32677	-0.187343	0.404494	0.009311	-0.83967	1.790839	2.183574	10.057016	10.835616	-0.30488	2.019793	-0.02158	-0.60379	-0.956078	9.086416	2.97024	0.663341	8.169712	-7.60132	1.392216	-0.549161	-0.462702	-0.391665
0.582085	0.982225	16.113271	24.405675	282.705604	2.165461	0.447956	0.036072	-0.900437	1.783778	1.450945	9.659923	11.571796	1.670305	1.485119	-0.034481	-0.588544	-0.956806	9.018752	3.375176	0.244623	14.972936	-3.702296	-0.637624	-0.534827	-0.467455	-0.298427
-0.040328	0.007622	16.438039	58.778278	289.453884	-2.209219	0.501037	0.072016	-0.845118	1.731718	1.732943	9.942149	9.848498	2.0841	0.501346	-0.007713	-0.540289	-0.989067	9.424567	3.198272	-0.167764	21.606722	0.632616	-0.498959	-0.549298	-0.47972	-0.3753
-0.939272	0.057	14.374867	93.528121	284.791058	-7.292173	0.487331	0.024021	-0.806369	1.900788	1.732477	9.775857	11.012684	1.389683	1.11194	-0.008824	-0.589466	-0.943007	9.113675	3.369714	-1.011221	26.023951	3.8663	1.85353	-0.535253	-0.462497	-0.391594
-1.489121	0.107336	12.602641	111.000291	279.758404	-11.196752	0.540026	0.073736	-0.754465	1.611644	1.789299	9.71322	10.773592	-0.421481	0.970426	0.004076	-0.604711	-0.942279	9.055084	3.660477	-0.951178	27.72276	6.664856	3.942909	-0.577882	-0.527053	-0.403985
-1.812589	-0.819724	10.660208	118.090261	266.564228	-17.136581	0.584346	-0.030841	-0.70345	1.382052	2.07143	9.765261	12.482459	-1.998547	1.634339	-0.009189	-0.545649	-0.917319	9.225509	3.193733	-1.369203	26.41672	8.950937	4.272932	-0.53567	-0.494882	-0.38992
-1.85529	0.619733	11.46107	107.864196	247.782684	-24.896633	0.612215	-0.035119	-0.690073	1.726451	1.958075	9.71578	12.974681	-2.031595	2.96002	-0.008454	-0.573074	-0.958361	8.996068	3.660612	-0.952279	23.369965	10.449962	3.207079	-0.549507	-0.495913	-0.374463
-0.195668	1.032968	14.393445	73.548845	253.530103	-28.569049	0.624464	-0.035835	-0.637534	1.787774	2.521462	9.944022	14.576449	-2.378996	2.927027	0.003781	-0.605783	-0.92793	9.04653	3.077491	-1.492812	18.962756	10.895497	2.976404	-0.550204	-0.543664	-0.387479
7.082177	-4.58092	5.873121	34.74069	259.304988	33.860885	0.693166	-0.003452	-0.621375	1.837848	2.014048	9.548327	13.299023	-3.253296	2.855649	0.030179	-0.573921	-0.944838	9.178017	2.49918	-0.834108	15.351296	10.237581	3.237132	-0.577673	-0.510861	-0.404822
8.503601	-9.607196	-0.655914	-57.877957	215.104409	151.353342	0.665711	-0.047544	-0.596354	1.61089	2.183613	9.713552	11.967328	-3.545135	2.697534	0.016537	-0.59146	-0.914859	9.52167	2.728449	-1.365679	12.050631	9.60727	3.893932	-0.549574	-0.513758	-0.34257
4.516595	-4.121878	-8.21196	-86.136992	135.378072	249.78224	0.705458	-0.056067	-0.516361	1.90068	1.788808	9.775904	9.000987	-3.700596	1.953724	-0.00912	-0.590538	-0.928658	9.404468	2.845119	-1.307478	8.961834	8.084923	5.104379	-0.549507	-0.495913	-0.374463
8.48894	-4.362265	-9.95428	-37.508915	-37.121174	232.510719	0.721493	-0.107997	-0.517123	1.903444	2.239594	9.946202	7.798024	-3.620263	1.398647	-0.02158	-0.60379	-0.956078	9.70119	2.612387	-1.243058	5.775856	6.540178	5.49006	-0.59116	-0.497351	-0.359145
11.694466	-4.991916	4.654004	-15.768267	-145.848302	222.690844	0.693623	-0.10372	-0.530501	1.841929	2.408551	9.775217	6.4755	-3.176933	1.371163	0.003781	-0.605783	-0.92793	9.872601	2.668821	-1.539044	3.294867	4.974973	5.139745	-0.577606	-0.493016	-0.436714
16.458053	5.348222	5.756362	20.389186	-157.612747	209.103421	0.695553	-0.172575	-0.513422	1.786327	2.014393	9.830316	4.848009	-2.430468	1.284791	0.017203	-0.573996	-0.944562	10.111406	2.436472	-1.415817	2.325821	3.72364	4.537945	-0.53532	-0.480342	-0.359702
16.154747	5.804342	4.899929	-40.424493	-141.950897	121.44952	0.667669	-0.150998	-0.544291	1.546957	2.352475	9.429287	3.930128	-1.737126	1.321775	0.004742	-0.587247	-0.971983	9.940961	2.43836	-1.059677	3.387561	2.456611	3.195339	-0.535394	-0.460845	-0.42265
12.045309	1.846032	5.314785	-40.327301	-139.348252	49.458786	0.668769	-0.123114	-0.604011	2.191595	2.070064	9.952105	3.254127	-1.526262	0.583452	0.003781	-0.605783	-0.92793	9.691981	2.784637	-1.721571	5.148008	1.677781	-0.74997	-0.563557	-0.494464	-0.405588
10.112865	-0.230146	2.995229	-49.233339	-160.508736	-5.50229	0.670269	-0.1263	-0.642823	1.733812	1.902029	10.05557	2.258586	-2.090377	0.515386	0.003486	-0.606855	-0.91358	9.52111	2.495898	-1.426574	7.623922	1.355308	-4.210934	-0.549161	-0.462702	-0.391665
8.756083	-1.087156	3.817682	-69.321729	-182.2091	-42.051624	0.669126	-0.102286	-0.635578	1.841151	2.183182	9.718388	2.467277	-2.757038	-0.292606	-0.022171	-0.605933	-0.927378	9.347093	2.613197	-1.249661	9.73903	1.448726	-6.602841	-0.59151	-0.511891	-0.389364
6.528344	-1.186871	6.956433	-92.818034	-187.759615	-58.547815	0.669855	-0.07793	-0.681222	1.264504	2.071551	9.649564	1.413842	-3.043939	-0.666243	-0.021876	-0.604862	-0.941728	9.173325	2.149488	-1.135126	11.931654	2.226388	-7.103471	-0.549925	-0.528298	-0.372788
4.662005	-2.272067	8.052164	-100.324406	-188.785332	-55.260289	0.614502	-0.083146	-0.704561	1.497075	2.127545	9.767726	2.212487	-3.344026	-0.113679	-0.033891	-0.5864	-0.985505	8.992591	2.788235	-1.255521	13.113943	3.421404	-6.899527	-0.549787	-0.511279	-0.389153
1.810543	-2.439907	8.564297	-95.62783	-195.037061	-36.448044	0.558291	0.042976	-0.839683	1.6135	1.451364	9.769575	3.847365	-3.450744	0.62645	-0.009195	-0.605858	-0.927654	8.345304	1.976656	-1.271088	13.621516	4.265517	-5.530132	-0.56321	-0.461253	-0.42279
0.014074	-2.488302	10.347723	-86.308875	-205.782123	-4.750783	0.600667	0.024553	-0.823239	1.726906	2.352436	9.772752	7.34184	-3.015851	1.866713	-0.047752	-0.589691	-0.94218	8.639844	2.208285	-1.264596	13.259896	4.496615	-4.33802	-0.564045	-0.526023	-0.419442
-0.660653	-1.048871	11.022631	-74.014968	-216.167835	34.388676	0.55942	0.036261	-0.864419	1.615617	2.240133	9.940158	8.147324	-2.822069	1.930944	-0.021951	-0.620182	-0.940724	8.877009	2.207992	-1.200288	12.061129	4.609292	-3.814665	-0.536087	-0.527267	-0.388246
-0.637151	0.335033	12.27919	-66.455713	-219.298827	66.630317	0.545285	0.053935	-0.881561	1.780845	2.352186	9.604042	8.889149	-2.753344	2.240507	-0.047828	-0.605012	-0.941176	8.819499	2.034146	-1.142223	9.907465	4.499356	-2.797793	-0.577811	-0.52788	-0.388457
0.058804	1.887628	12.810745	-60.846037	-218.66435	80.75615	0.532651	0.068423	-0.937516	1.892996	2.013845	9.436256	8.918637	-2.903461	1.807443	-0.00868	-0.619035	-0.95535	8.581928	2.208667	-1.20579	8.496822	4.386407	-1.233464	-0.577811	-0.52788	-0.388457
0.871626	1.717136	13.394141	-62.106833	-213.297179	78.977039	0.50288	0.106957	-0.932989	1.903552	2.183264	9.946155	7.432063	-3.227925	1.648879	-0.009415	-0.59161	-0.914308	8.994481	1.975171	-1.258983	7.359037	4.345409	-0.617894	-0.563415	-0.496117	-0.374533
1.035423	3.496252	13.063844	-65.700455	-207.066072	59.775757	0.47574	0.135591	-0.99201	2.136878	1.844944	10.063985	6.899743	-3.815825	1.426808	-0.048048	-0.590763	-0.92783	9.048961	2.032123	-1.497263	6.284554	4.76727	-0.371514	-0.563273	-0.497769	-0.343477
1.609371	3.093988	13.130142	-78.736237	-198.790285	30.023765	0.434507	0.13	-1.015699	1.891787	2.013798	9.379617	6.217203	-4.097219	0.93021	-0.021656	-0.61911	-0.955074	8.874383	1.91687	-1.381245	5.543487	4.673468	-0.429508	-0.59144	-0.512718	-0.373836
0.692435	2.749761	13.054026	-94.09068	-193.168044	0.015368	0.434864	0.150828	-1.047266	1.840481	1.901482	9.661511	6.550712	-4.641267	0.370162	-0.00912	-0.590538	-0.928658	8.700346	1.569314	-1.266216	4.622457	5.004113	-0.183248	-0.521341	-0.480964	-0.344104
0.145709	2.468516	14.349305	-106.615932	-191.130343	-21.997869	0.36309	0.211313	-1.07326	1.666037	2.18341	9.601482	5.83646	-4.955935	0.212318	0.003781	-0.605783	-0.92793	8.641194	1.627525	-1.267069	4.534871	5.24283	0.366062	-0.590955	-0.462488	-0.407403
-1.313992	0.982145	15.735408	-111.676956	-193.197802	-34.316804	0.35047	0.208501	-1.111723	1.78501	2.070676	9.773724	2.859315	-3.345858	1.42823	-0.034336	-0.618113	-0.969148	8.99255	1.858524	-1.379291	2.975142	5.492313	2.326565	-0.577744	-0.510035	-0.420349
-2.214433	0.928744	16.513294	-103.81508	-198.904004	-37.867661	0.280238	0.213902	-1.124052	2.128416	1.844612	9.667508	4.186416	-3.507764	0.626156	-0.022321	-0.636574	-0.925371	8.871331	1.335121	-1.623344	4.080478	5.629385	1.282755	-0.549019	-0.464354	-0.360609
-3.073	0.584717	16.495144	-98.493563	-202.596313	-35.61167	0.250411	0.321634	-1.189493	1.850044	1.958192	10.114675	4.214581	-3.722031	0.624048	0.003931	-0.575142	-0.929937	8.689496	1.973621	-1.803647	3.210778	5.545227	0.247162	-0.591164	-0.47868	-0.406566
-3.068049	-0.103617	16.71966	-94.846676	-202.128923	-29.234402	0.251526	0.332219	-1.23172	1.897184	2.352018	9.663099	4.489698	-3.991475	0.159168	-0.021285	-0.602718	-0.970427	8.875348	1.975194	-1.32109	3.264605	5.063567	-0.484242	-0.563415	-0.496117	-0.374533
-4.212397	0.414427	16.756415	-93.903177	-198.334703	-21.660704	0.178622	0.399418	-1.232978	1.498846	2.465623	9.88129	4.673071	-4.142653	0.188641	-0.021586	-0.663999	-0.966413	9.112648	1.916825	-1.257029	1.60141	4.7747	0.256668	-0.549854	-0.529124	-0.357261
-4.215738	0.413703	16.585856	-100.534228	-193.823856	-15.280742	0.135503	0.410785	-1.22127	1.622631	1.733396	10.222929	5.816404	-4.098088	0.282488	-0.021806	-0.649751	-0.953067	9.292013	1.393983	-1.196046	1.322026	4.684138	0.044172	-0.549369	-0.478894	-0.390828
-4.84739	-0.103297	16.45773	-99.765105	-191.222416	-11.100208	0.064886	0.429957	-1.237016	1.789307	2.352518	10.000519	6.312882	-3.908627	0.408084	-0.009641	-0.637571	-0.911297	8.933244	1.509956	-1.441782	0.005003	4.942073	1.270232	-0.577185	-0.479302	-0.390968
-4.622992	0.125338	16.235737	-92.445667	-187.427512	-11.826384	0.051109	0.468459	-1.285726	1.787105	2.239762	9.887145	6.836042	-4.055695	0.468699	-0.02099	-0.601646	-0.984777	8.945889	1.280371	-0.783795	-1.16297	5.489748	1.149596	-0.577532	-0.512513	-0.373766
-4.800157	-0.10551	15.947165	-89.990857	-179.709989	-15.971299	0.038517	0.431048	-1.289205	2.134137	2.013841	9.950848	6.803666	-4.207	0.097231	-0.034852	-0.604937	-0.941452	9.002164	1.512046	-0.901519	-2.765027	5.450554	1.430654	-0.563695	-0.511483	-0.389224
-5.268836	0.754274	15.430199	-93.737937	-166.137371	-23.653326	-0.037387	0.50462	-1.212838	1.673614	2.014703	9.941177	5.780949	-4.465864	0.186318	0.004817	-0.571927	-0.972986	9.474023	1.627118	-0.892221	-3.620473	5.805077	2.34896	-0.5219	-0.511697	-0.373485
-5.907377	0.523033	14.962161	-100.086607	-149.272543	-35.293027	-0.135902	0.562669	-1.276945	1.32548	2.184247	9.820787	3.643331	-4.924848	0.5808	-0.035147	-0.606008	-0.927102	8.876159	1.626737	-1.322574	-3.705406	5.697211	3.877964	-0.53567	-0.494882	-0.38992
-7.231531	1.384162	14.599052	-105.126906	-126.261562	-51.530998	-0.123311	0.600079	-1.273466	1.892911	2.689859	9.493465	1.66055	-5.437167	0.050033	-0.00927	-0.621179	-0.92665	9.127609	1.164803	-0.54136	-3.607001	5.593163	5.100663	-0.577673	-0.510861	-0.404822
-8.217188	1.497096	13.955221	-108.001543	-100.667449	-67.09048	-0.151938	0.614599	-1.276183	1.78404	2.577651	9.77415	0.357936	-5.794981	0.661989	-0.00927	-0.621179	-0.92665	9.055968	1.859378	-1.138563	-3.113547	5.035798	5.92677	-0.563068	-0.462906	-0.391735
-10.643735	2.470759	12.832348	-104.465096	-77.555417	-78.291855	-0.195057	0.625966	-1.264475	1.895976	2.351971	9.60646	0.575253	-5.586231	1.989851	-0.021951	-0.620182	-0.940724	9.287206	1.567222	-1.434932	-0.685487	4.469332	5.339959	-0.59116	-0.497351	-0.359145
-15.232619	4.125845	9.453901	-96.132115	-48.308681	-72.962009	-0.196971	0.677521	-1.264063	1.892133	2.46449	9.436636	-0.903025	-5.179949	2.640094	-0.0218	-0.589541	-0.942732	8.756371	2.381996	-1.321561	2.366696	4.356688	5.451699	-0.549436	-0.496739	-0.358935
-17.020652	5.642888	14.653915	-125.615675	-25.703478	-42.598127	-0.238576	0.668402	-1.273675	1.839858	2.859148	9.718957	-1.044861	-4.085187	3.760684	-0.022171	-0.605933	-0.927378	9.179908	1.686116	-0.837569	4.229998	4.555407	7.583515	-0.619464	-0.529318	-0.373139
-16.359468	5.361979	16.256843	-44.831281	-20.041649	-31.787675	-0.240462	0.68536	-1.238279	2.177327	2.576517	9.329496	-1.958197	-2.909845	5.128085	-0.048053	-0.650973	-0.938166	8.8244	0.87312	-1.027354	3.631089	5.823486	8.985618	-0.605139	-0.496729	-0.374743
-15.934573	4.07811	11.599602	23.650885	-15.70797	-28.141549	-0.254954	0.682206	-1.223854	2.014625	2.408228	9.778844	0.468599	-1.330034	7.396225	-0.008755	-0.634355	-0.954346	9.119616	0.814369	-1.022099	3.860873	7.101818	9.681683	-0.57711	-0.4988	-0.32802
-15.926591	1.367219	8.974132	34.950367	2.515887	-20.516497	-0.241605	0.709373	-1.231035	2.073723	2.239176	9.83655	2.587721	0.367094	9.881096	-0.035147	-0.606008	-0.927102	8.946969	0.815763	-0.785773	2.183397	8.27174	11.332709	-0.549787	-0.511279	-0.389153
