1757_acc_x	1757_acc_y	1757_acc_z	1757_gyro_x	1757_gyro_y	1757_gyro_z	1757_mag_x	1757_mag_y	1757_mag_z	1758_acc_x	1758_acc_y	1758_acc_z	1758_gyro_x	1758_gyro_y	1758_gyro_z	1758_mag_x	1758_mag_y	1758_mag_z	1759_acc_x	1759_acc_y	1759_acc_z	1759_gyro_x	1759_gyro_y	1759_gyro_z	1759_mag_x	1759_mag_y	1759_mag_z
-0.619687	-1.626947	10.168535	79.02802	17.390791	38.170982	0.276492	-0.105643	-1.083951	-0.273555	0.554059	10.238679	-4.077711	-1.842398	6.585931	0.446357	0.094004	-0.883024	12.779049	4.408689	-0.459288	-6.54365	-0.408834	-10.049507	-0.281548	-0.311771	-0.119201
-1.142026	1.059627	6.987195	77.53594	-2.729214	-12.197863	0.49056	0.194171	-1.072987	-0.26708	0.328974	10.521687	-2.941589	-2.379669	6.550674	0.456486	-0.367677	-0.824491	12.668234	2.725496	-0.288938	-1.421788	-9.301278	14.608511	-0.301551	-0.576173	-0.616621
-0.742281	2.495375	7.001023	20.896703	4.184839	2.706614	0.505095	0.145426	-1.034937	-0.437789	0.554714	10.631529	1.415029	-4.658417	7.117262	0.483103	-0.350063	-0.854745	11.081225	1.85899	-0.082731	15.231939	-13.842715	21.783758	-0.329087	-0.561215	-0.602071
-0.678765	0.900522	10.178039	-7.111788	2.069377	-1.080615	0.520345	0.138337	-1.060022	0.074363	0.497176	10.359164	2.061909	-7.283248	6.505942	0.469392	-0.322713	-0.813428	10.859581	1.339813	0.629525	12.923489	-15.11419	1.960997	-0.273455	-0.560399	-0.60179
-2.148512	-1.46223	8.093597	-13.518991	1.850641	-8.794275	0.464234	0.143364	-1.072701	-0.130752	-0.008419	11.486694	2.753773	-11.254867	5.603811	0.50817	-0.353128	-0.812248	9.573911	2.04291	1.387072	10.849247	-17.940973	-12.290274	-0.300574	-0.513056	-0.588914
-0.806014	0.036087	9.489955	-1.268891	2.379065	-4.312585	0.50621	0.156011	-1.077164	-1.629284	0.952002	11.456068	4.665575	-18.890273	4.604579	0.482733	-0.366455	-0.839392	9.150685	3.552348	1.026355	11.44385	-21.249593	-11.543198	-0.273247	-0.544206	-0.602627
-0.96512	1.015612	10.172954	-6.432255	0.299478	-4.638209	0.46422	0.160663	-1.090193	-2.043656	0.842006	13.598607	2.114235	-27.430899	6.706432	0.482664	-0.321566	-0.828053	9.383043	3.725294	0.851778	10.122941	-22.005518	-3.955683	-0.259965	-0.59258	-0.600046
-0.79954	0.324742	9.83228	-9.769371	-0.133712	-3.040874	0.533308	0.179276	-1.070619	-0.944567	0.330789	11.130216	8.384216	-42.098043	5.97992	0.495935	-0.320419	-0.842679	9.425282	3.837603	-0.04523	12.92214	-20.578907	3.973719	-0.300991	-0.545441	-0.58724
-0.735936	0.78568	10.176443	-5.079803	-0.175021	-2.901702	0.478698	0.181116	-1.12211	-0.589775	1.346902	14.365571	0.302836	-51.025714	4.744017	0.469983	-0.320569	-0.842127	10.053957	3.657192	-1.172098	14.950442	-16.112533	7.521076	-0.2868	-0.548542	-0.525059
-1.145625	0.78404	9.713824	-1.219507	-0.591062	-2.582222	0.50621	0.156011	-1.077164	-0.452159	0.725521	12.669488	56.391215	-66.276915	-2.576238	0.456266	-0.353429	-0.811145	10.511915	3.594822	-1.942331	13.350018	-11.277478	6.709113	-0.300991	-0.545441	-0.58724
-0.910051	0.957647	10.06012	-4.095854	-0.398777	-1.742773	0.421487	0.158259	-1.075069	-1.239619	0.558749	13.502015	8.677985	-73.489652	-5.491656	0.430464	-0.322938	-0.812601	10.447241	3.186941	-2.304604	12.724948	-6.38608	3.753872	-0.28708	-0.563908	-0.539749
-0.915536	0.841557	9.775372	-4.617048	-0.369434	-1.832801	0.476068	0.191017	-1.058562	-0.22276	1.175734	12.674703	31.696758	-87.373203	-4.994563	0.443811	-0.30647	-0.82823	10.622919	3.302441	-2.360715	11.758737	-1.957748	1.107778	-0.273176	-0.545033	-0.5871
-1.082721	0.670322	9.99872	-4.921614	-0.032119	-1.887778	0.491318	0.183928	-1.083647	0.129562	1.344363	13.021937	16.521151	-95.452612	-4.655479	0.430684	-0.337186	-0.825947	10.212547	3.071577	-2.249593	10.851111	0.458633	0.793902	-0.273176	-0.545033	-0.5871
-0.631325	0.611102	9.666268	-7.865294	-0.104538	-2.125829	0.50621	0.156011	-1.077164	-0.387533	1.458042	13.067791	18.630912	-106.868737	-4.798056	0.442995	-0.354575	-0.796519	10.213243	3.246052	-2.188945	9.430518	2.758698	2.682994	-0.273455	-0.560399	-0.60179
-0.745709	0.43886	9.663317	-7.462255	0.290926	-1.599201	0.477583	0.170531	-1.079882	-0.677862	2.134499	13.005676	11.825617	-117.3294	-4.260094	0.391757	-0.337411	-0.82512	10.223842	3.422752	-1.589134	8.567251	4.776966	5.396672	-0.246053	-0.611047	-0.552555
-0.677071	0.096582	10.231514	-7.03276	0.260459	-1.447591	0.519945	0.169408	-1.080929	0.429909	1.118976	13.594187	10.901594	-129.162388	-3.083642	0.365139	-0.355026	-0.794865	9.757215	3.425069	-1.298403	5.492072	5.060748	6.476207	-0.245569	-0.560817	-0.586122
-0.908523	0.383473	10.11456	-2.587977	0.216614	-1.185084	0.506596	0.14224	-1.073749	-0.431501	0.669996	13.632314	8.617565	-141.27519	-4.130662	0.339407	-0.369424	-0.80766	9.39609	3.133768	-1.72559	2.209167	4.207281	5.055648	-0.25913	-0.52781	-0.603394
-0.916483	0.61155	9.717554	-1.698824	-0.030653	-0.700973	0.492089	0.156386	-1.076815	-0.427228	0.332156	13.801948	7.402734	-154.326428	-5.216961	0.326877	-0.337787	-0.823741	9.641093	3.07713	-1.24218	-0.130251	2.449328	2.688533	-0.245427	-0.562469	-0.555066
-1.193516	0.154155	10.16488	-0.045427	-0.331288	-0.618614	0.519945	0.169408	-1.080929	0.144369	0.556258	13.644308	8.49561	-168.142916	-6.987202	0.327317	-0.366284	-0.850433	9.125779	3.372434	-0.352245	-1.88613	0.635789	-0.016578	-0.259059	-0.528636	-0.587866
-0.679505	0.383307	10.119014	1.886503	-0.262896	-0.439055	0.492118	0.121787	-1.041832	0.14942	0.443786	13.870772	6.026712	-182.941608	-11.174591	0.274603	-0.354479	-0.807285	9.182169	3.081177	-0.532101	-2.513335	-1.305768	-4.742196	-0.258846	-0.531115	-0.541283
-0.805066	0.266094	9.547774	1.182368	-0.2997	-0.192282	0.477183	0.201602	-1.100789	-0.479288	0.614153	14.084175	2.424567	-199.327557	-14.453791	0.288024	-0.322691	-0.823917	8.768651	3.25635	-0.539063	-3.765509	-3.109513	-11.17741	-0.287151	-0.563082	-0.555277
-1.03425	0.496026	9.544285	1.948955	-0.234659	-0.193432	0.520331	0.155637	-1.077514	0.261163	0.95045	13.760337	1.393165	-215.275519	-18.928788	0.261482	-0.324985	-0.794666	9.064137	3.081447	-0.534302	-7.230218	-4.624793	-16.688897	-0.231869	-0.576805	-0.585215
-0.634789	0.782702	9.496433	2.40677	-0.414818	-0.381686	0.463462	0.170906	-1.079533	0.168391	-0.62583	14.662825	-2.821186	-231.613968	-26.461997	0.236045	-0.338312	-0.821811	8.535483	3.43186	-0.363002	-11.22857	-6.089376	-18.409268	-0.301129	-0.56246	-0.570875
-0.973489	0.266942	9.714992	1.732282	-0.417271	-0.44112	0.506596	0.14224	-1.073749	1.377481	-0.740754	14.688117	6.199817	-246.802062	-34.157963	0.222479	-0.340531	-0.792835	8.597821	3.897322	-0.120296	-14.322819	-7.16601	-18.881858	-0.273384	-0.561225	-0.586262
-1.027693	0.669798	9.886127	1.055334	-0.631718	-0.780005	0.478369	0.12569	-1.055558	1.036554	-1.810292	14.793242	11.69601	-259.624074	-39.737005	0.144328	-0.342053	-0.776831	8.725332	3.60865	0.359924	-14.796542	-8.978037	-18.321446	-0.27331	-0.580723	-0.523314
-0.623157	0.095817	10.062068	1.333501	-0.418088	-0.531989	0.533694	0.165505	-1.067203	3.849359	-1.477875	14.512926	23.626884	-264.119174	-42.977886	0.131572	-0.356376	-0.789902	8.607434	3.550844	0.357476	-15.077937	-10.648105	-16.631734	-0.273593	-0.577418	-0.585425
0.060348	0.381803	9.906077	1.243784	-0.299762	-0.161792	0.507382	0.097399	-1.049425	5.459063	-0.126576	17.265405	46.910787	-247.190551	-41.188165	0.131352	-0.342128	-0.776556	8.252507	3.435255	0.290472	-15.039497	-10.941878	-14.827488	-0.287501	-0.577622	-0.585496
-0.462902	0.610253	9.499049	1.124008	-0.089383	0.209987	0.479498	0.118976	-1.080294	4.536456	-0.183614	14.471884	78.14003	-240.950004	-33.178845	0.079373	-0.357748	-0.774449	8.724211	3.143547	0.238132	-12.495369	-11.490912	-11.136358	-0.231031	-0.530707	-0.541143
-0.625923	0.842074	9.951499	0.787972	-0.18802	0.638701	0.492847	0.146143	-1.087475	3.704138	-0.915492	13.151632	81.656778	-226.628236	-33.064639	0.039635	-0.345869	-0.731576	8.956569	3.316493	0.063555	-8.863752	-10.189155	-8.588643	-0.245009	-0.530084	-0.556741
-0.916608	0.783875	9.718278	0.944344	0.054031	1.040866	0.491704	0.170157	-1.080231	-1.210579	-0.571538	9.368794	88.789279	-214.301965	-30.809498	0.05187	-0.378578	-0.701145	9.369952	3.199396	0.070763	-7.088962	-7.918392	-8.69759	-0.231452	-0.54442	-0.586889
-0.736884	0.555673	10.118624	0.670566	0.297207	1.168277	0.548957	0.141117	-1.074796	-16.192603	-1.393858	2.882467	83.088483	-154.310948	3.414294	0.038373	-0.425687	-0.683509	9.386729	3.086953	0.968872	-6.250205	-5.412534	-11.157422	-0.300921	-0.546267	-0.571712
-0.967223	0.842805	10.058524	0.700547	0.174075	1.196857	0.506224	0.138712	-1.059673	-20.300986	-2.680372	4.380244	80.907641	-91.180835	124.438988	0.025623	-0.3798	-0.686244	9.558255	2.620456	0.610755	-1.271075	-3.995172	-10.448771	-0.231728	-0.578458	-0.554159
-1.197312	0.785288	9.996976	0.638498	0.113369	1.104046	0.519587	0.14858	-1.049362	-11.293764	-6.076211	5.528861	88.202825	-25.181889	201.209612	0.012126	-0.426908	-0.668608	10.080347	3.19827	0.203783	0.46013	-1.231009	-7.992822	-0.217753	-0.560409	-0.585982
-0.278849	0.555341	10.127532	-0.065292	0.169455	1.29099	0.506982	0.128469	-1.070333	-9.369465	-7.827544	3.869306	83.406106	-6.642932	226.865055	-0.00107	-0.412735	-0.654986	10.30058	2.903642	-0.691655	1.93588	1.611145	-7.247704	-0.231653	-0.597955	-0.491211
-0.920937	0.610585	9.490141	-0.095941	0.169312	1.291075	0.492475	0.142615	-1.073399	-5.738815	-8.28722	1.397515	50.243845	12.192698	217.248891	-0.039923	-0.39764	-0.655162	10.300445	2.961718	-0.691408	4.692663	4.391452	-8.951804	-0.259331	-0.581345	-0.507716
-0.569823	0.899233	9.896	-0.157357	0.169374	1.260586	0.505853	0.135184	-1.045597	-4.290848	-7.219208	1.938395	9.580356	36.960745	185.542653	-0.052604	-0.396643	-0.669236	10.247741	2.614633	-0.394457	6.009549	6.869526	-8.540548	-0.218095	-0.612291	-0.521359
-0.68499	0.267218	9.834266	-0.709296	0.104987	1.291796	0.49289	0.094245	-1.035	-2.333033	-6.657136	4.754104	-19.011567	60.289739	138.908698	-0.091601	-0.351979	-0.65707	9.774917	2.441238	-0.463909	6.572512	8.626235	-9.620592	-0.259894	-0.593406	-0.584518
-0.676289	0.556355	10.290297	-0.922917	0.132631	1.476866	0.505824	0.169782	-1.08058	-2.204258	-6.206138	5.436576	-20.722142	81.292913	87.159229	-0.07833	-0.350832	-0.671696	10.00714	2.67226	-0.638239	2.159775	8.120291	-9.541077	-0.259264	-0.5635	-0.539609
-1.253578	0.957895	10.053439	-0.344751	-0.322152	1.161134	0.492861	0.128844	-1.069984	-2.820676	-3.612895	6.444973	-26.017578	114.807327	40.716264	-0.07811	-0.36508	-0.685042	9.837774	2.20954	-0.284077	-1.293332	6.896545	-7.750208	-0.217753	-0.560409	-0.585982
-0.910874	0.555315	10.001578	0.573883	-0.252919	0.852937	0.492861	0.128844	-1.069984	-3.139882	-2.7662	7.741141	-14.726884	149.212602	6.353681	-0.064983	-0.334364	-0.687325	9.187226	2.32693	-0.355595	-1.988651	5.187653	-8.381314	-0.245982	-0.611873	-0.537027
-0.914049	0.324825	9.830053	1.095041	-0.094393	0.639339	0.507396	0.080099	-1.031933	-4.290173	-2.031653	7.830859	-7.592013	178.86744	-13.198571	-0.038291	-0.30143	-0.718583	9.479971	2.383837	-0.469659	-2.204286	3.009712	-10.814983	-0.203424	-0.546491	-0.540165
-0.574153	0.725943	9.667864	1.52173	-0.273305	0.328524	0.476826	0.180774	-1.069222	-3.999582	-1.581405	8.007202	-2.344202	202.109109	-21.162977	-0.012194	-0.330848	-0.731477	9.302092	2.267842	-0.533362	-3.746908	-0.133223	-12.077922	-0.231661	-0.560613	-0.586052
-0.736884	0.555673	10.118624	2.226715	-0.332868	0.448199	0.492847	0.146143	-1.087475	-3.831051	-1.300218	7.841147	-2.716481	219.004905	-20.625145	-0.011974	-0.345097	-0.744823	9.836404	2.325445	-0.34349	-5.754371	-3.086979	-14.042936	-0.189378	-0.529268	-0.55646
-0.910999	0.727639	10.002302	2.19574	-0.269461	0.265311	0.521488	0.114324	-1.067266	-3.064915	-1.751599	8.649437	-7.411961	229.169206	-15.379614	-0.011974	-0.345097	-0.744823	9.775187	2.325086	-0.464404	-1.884646	-4.437925	-9.252578	-0.245986	-0.593202	-0.584448
-0.459851	1.013068	9.671298	1.767413	-0.461419	0.75411	0.505853	0.135184	-1.045597	-2.703699	-1.80796	9.392958	-16.489297	232.61995	-8.108126	0.026803	-0.375513	-0.743643	9.3519	2.439958	-1.010775	-0.120827	-4.971469	-7.331086	-0.190071	-0.59569	-0.522056
-0.916649	0.841316	9.718519	1.951823	-0.493378	0.937066	0.493233	0.132372	-1.08406	-2.299533	-1.808667	9.45806	-28.014343	233.300891	1.261059	0.09243	-0.282143	-0.765393	9.234698	2.556627	-0.952574	-2.670833	-6.02594	-9.761682	-0.189586	-0.54546	-0.555623
-0.62658	0.209976	9.891991	1.583996	-0.369734	0.72546	0.519216	0.145052	-1.035286	-1.534366	-1.753074	10.266778	-41.405133	233.127733	11.206161	0.054312	-0.294473	-0.806612	9.659875	1.62869	-0.409665	-2.963732	-6.40126	-12.020286	-0.203841	-0.578876	-0.538491
-0.288005	0.898061	9.674156	1.400383	-0.308781	0.696311	0.50701	0.093871	-1.035349	-1.395058	-1.752341	11.401988	-51.938393	231.709267	20.463112	0.131948	-0.279774	-0.79492	8.937146	2.67296	-1.077396	-2.789606	-7.031915	-13.087501	-0.203979	-0.595894	-0.522126
-0.908896	0.900447	10.116732	1.459352	-0.614771	0.599165	0.535237	0.110421	-1.053539	0.235684	-1.529278	12.342261	-59.935199	230.423999	28.305428	0.145144	-0.293948	-0.808542	9.302747	1.512607	-0.596482	-3.180195	-6.52502	-11.957792	-0.217958	-0.595272	-0.537724
-1.197271	0.727847	9.996734	2.07223	-0.642989	0.62761	0.535994	0.100178	-1.0642	0.828908	-1.867675	13.14702	-64.510463	228.194932	32.564916	0.15871	-0.291729	-0.837517	9.181434	1.976991	-0.716519	-2.05252	-6.026874	-9.458312	-0.204329	-0.610434	-0.552345
-1.088039	0.324467	9.713007	1.705637	-0.460314	0.631634	0.491732	0.135558	-1.045247	1.989564	-1.70046	13.624457	-67.474552	223.417546	31.590057	0.146475	-0.259019	-0.867948	9.070274	1.862592	-0.359773	-1.7694	-5.632955	-9.002808	-0.204046	-0.613739	-0.490233
-1.027693	0.669798	9.886127	1.766726	-0.396826	0.479151	0.493247	0.115073	-1.066568	2.922915	-1.814371	14.210101	-72.654994	216.466205	26.244765	0.223665	-0.276033	-0.839899	9.36688	2.152792	-0.233221	-0.03303	-5.055337	-8.064468	-0.21754	-0.562887	-0.539398
-0.750205	0.495336	9.436146	1.674259	-0.364437	0.295936	0.520359	0.121038	-1.04253	3.606123	-1.646957	13.884912	-79.172182	208.627867	18.08416	0.223521	-0.246464	-0.827557	9.01732	2.096515	-0.000443	1.574817	-4.902932	-7.459798	-0.217536	-0.581559	-0.491978
-0.924526	0.954511	9.32103	1.551528	-0.176794	-0.038008	0.53638	0.086407	-1.060784	4.205308	-1.309103	15.030078	-84.653425	202.059227	9.721365	0.237382	-0.243174	-0.870882	9.251184	2.09548	-0.115855	2.988027	-4.950182	-8.320397	-0.190492	-0.609404	-0.567802
-0.515619	0.496377	9.724865	1.488289	-0.327958	-0.285626	0.479869	0.122504	-1.09437	4.567516	-1.252756	15.830333	-85.907579	195.136942	2.715033	0.288846	-0.214376	-0.845292	9.194193	1.224475	-0.120664	5.175054	-5.279729	-8.235062	-0.231798	-0.577631	-0.569687
-0.570688	0.554342	9.837699	1.550688	-0.17436	-0.252641	0.478755	0.111919	-1.052143	5.595686	-0.860667	15.512588	-83.670146	185.892613	-3.109217	0.276605	-0.241877	-0.886059	8.964617	1.74943	0.296507	7.489088	-4.932732	-8.459023	-0.217749	-0.57908	-0.538561
-0.577535	0.782661	9.497546	1.917621	-0.170209	-0.468306	0.520359	0.121038	-1.04253	6.347555	-0.805595	15.69827	-84.026155	172.102583	-7.439349	0.302557	-0.241727	-0.88661	9.021432	1.7488	0.177794	9.901326	-4.782488	-7.368282	-0.190142	-0.594864	-0.537584
-1.025383	0.555398	9.999351	1.733494	-0.170372	-0.529115	0.506996	0.11117	-1.052841	7.721703	0.543561	15.501864	-86.774588	150.152687	-10.157059	0.315684	-0.211011	-0.888893	9.12873	1.629906	-0.419569	12.164388	-4.642255	-5.360099	-0.20468	-0.624974	-0.582563
-0.738122	0.727756	10.062495	2.438797	0.144757	-0.924708	0.507396	0.080099	-1.031933	8.232023	1.443642	15.230304	-90.107584	123.822602	-9.928526	0.32903	-0.194543	-0.904522	8.945349	1.512675	-0.782806	13.883418	-4.307549	-1.639355	-0.217887	-0.596099	-0.522196
-0.622458	0.670473	10.121334	2.987833	-0.032886	-1.297194	0.520745	0.107267	-1.039114	9.958709	2.848767	15.381037	-84.815589	95.73326	-5.733755	0.368178	-0.208567	-0.918695	9.137263	1.748036	0.060181	15.182211	-3.654626	3.701373	-0.175887	-0.561449	-0.554715
-0.568668	0.842033	9.952612	3.785016	0.063725	-1.359254	0.492875	0.111544	-1.052492	11.170154	4.029634	15.633978	-71.905539	71.757104	2.207517	0.354907	-0.209714	-0.90407	8.829673	1.920219	-0.603555	18.415487	-3.600186	8.426879	-0.162326	-0.594456	-0.537443
-0.286975	1.013185	9.731491	5.591891	-0.017942	-1.549792	0.507382	0.097399	-1.049425	11.139094	5.098776	14.275529	-51.38421	58.788836	14.457292	0.342376	-0.178076	-0.920151	9.018671	1.515754	-0.002916	20.442508	-3.294643	12.116491	-0.175954	-0.579294	-0.522823
-0.738205	0.842639	10.062978	7.401825	0.267087	-1.55037	0.535223	0.12772	-1.071031	12.037673	6.729878	13.390013	-29.670734	64.607586	29.269117	0.356018	-0.160537	-0.95013	8.83529	1.398524	-0.366153	26.016929	-2.94765	15.976568	-0.190283	-0.593212	-0.568639
-0.909802	0.612998	10.058672	9.18046	0.491204	-1.613184	0.479141	0.098148	-1.048727	12.535427	6.61544	12.437925	-4.796424	73.691372	43.006502	0.368988	-0.220672	-0.960741	8.775733	1.630963	-0.366264	29.900182	-2.305278	20.269428	-0.190492	-0.609404	-0.567802
-0.918627	0.496184	9.603365	10.469545	0.648092	-1.368999	0.521488	0.114324	-1.067266	14.580494	5.709134	11.121336	16.804021	79.955776	50.269824	0.369069	-0.145141	-0.951409	8.950135	0.874581	-0.605805	33.031855	-1.891995	22.793268	-0.176234	-0.59466	-0.537513
-0.680826	0.670273	10.063368	11.972914	1.05705	-1.581358	0.564636	0.068358	-1.04399	15.820053	3.959331	9.730472	28.348747	76.805716	48.212919	0.407847	-0.175557	-0.950229	8.422987	1.051013	-0.375339	36.362933	-2.502202	23.792879	-0.217678	-0.579906	-0.523033
-0.799955	0.899157	9.834693	10.653414	1.087191	-2.067762	0.493633	0.101302	-1.063152	16.968114	2.884322	6.809699	31.219747	63.636575	38.156712	0.382485	-0.173563	-0.978377	8.897452	0.992351	-0.246969	38.454269	-3.229111	23.819344	-0.203766	-0.598373	-0.475543
-0.912278	0.957164	9.946414	11.299579	1.458282	-2.002254	0.492518	0.090717	-1.020924	16.504405	0.516634	3.740707	7.501552	52.594873	21.287137	0.380639	-0.195315	-0.891275	8.907336	0.529721	0.230308	39.887277	-4.120845	27.731265	-0.217465	-0.582385	-0.47645
-0.805439	0.783068	9.549945	10.687708	1.734091	-2.18002	0.508125	0.104455	-1.077577	11.329769	-28.99711	60.559851	-35.870979	55.19784	-1.658419	0.369139	-0.190031	-0.962748	9.010927	0.584313	-0.546034	42.90143	-4.370862	32.245932	-0.175746	-0.563101	-0.52366
-0.684125	0.612108	9.892567	9.804701	2.339359	-1.707617	0.535266	0.075822	-1.018556	17.832772	5.765288	17.926778	515.314305	-77.485395	4.926647	0.356979	-0.142001	-0.994183	8.782701	0.528508	-0.131334	47.32616	-3.88639	34.24528	-0.161975	-0.579916	-0.507225
-1.152472	1.012359	9.37367	9.927464	2.902833	-2.557525	0.520759	0.089968	-1.021622	10.59058	28.634646	1.489966	62.807527	-139.474173	131.221706	0.381669	-0.221668	-0.946667	8.789168	0.588067	0.228354	49.884916	-3.226855	27.53794	-0.18972	-0.58115	-0.491837
-0.92102	0.725468	9.490624	7.598053	3.268385	-3.219585	0.521502	0.097024	-1.049774	-1.632259	0.2219	13.946385	160.08595	-199.579951	67.986018	0.329545	-0.20772	-0.932218	10.5368	3.309881	-0.625616	51.908844	-0.161737	9.847995	-0.175541	-0.528238	-0.571917
-0.621759	1.24513	10.1806	5.205049	3.890626	-4.858691	0.507782	0.066328	-1.028518	7.950045	-1.369961	17.939381	120.352918	-106.760374	21.520036	0.32969	-0.237289	-0.944561	12.571924	5.506358	-1.955564	56.64171	7.549032	-15.41975	-0.203908	-0.596721	-0.506598
-0.729255	0.787128	10.517561	-3.259051	4.648968	-7.428872	0.536023	0.065579	-1.029216	1.038753	6.179864	4.836242	95.824043	-75.060749	-18.199669	0.277416	-0.253981	-0.928104	14.101672	5.61801	-2.166086	43.45175	24.668826	-15.973185	-0.204117	-0.612913	-0.505761
-0.599774	0.100883	11.255983	2.401441	8.338552	-7.937246	0.536752	0.089935	-1.07486	-0.447795	-5.978143	12.267368	15.710354	-6.942026	13.672578	0.315898	-0.285469	-0.912574	13.795371	3.814867	-3.017949	19.207234	36.415031	-0.508206	-0.218095	-0.612291	-0.521359
-0.599359	-0.473533	11.25357	11.364534	15.605658	-8.182295	0.536394	0.069108	-1.043292	-0.660532	5.228858	8.706092	39.469795	-8.725111	13.61231	0.290166	-0.299868	-0.925369	13.187872	3.69611	-3.987958	7.650876	46.391867	-13.655249	-0.176651	-0.627045	-0.535839
-0.692179	0.335557	12.391783	16.717578	24.464352	-9.341835	0.521102	0.128095	-1.070682	0.452914	3.143198	9.463622	-19.070703	-6.018186	-2.931913	0.303437	-0.298721	-0.939995	12.90831	2.989601	-6.451509	3.860663	53.896442	-12.821655	-0.161908	-0.562071	-0.539117
-1.004455	-0.391834	16.872246	24.650869	39.397908	-3.17213	0.508139	0.087156	-1.060085	-0.516683	0.328646	9.610618	-13.828023	-6.746453	-3.304871	0.316784	-0.282253	-0.955624	10.693903	3.175388	-4.935005	-4.202757	53.066049	-3.345174	-0.162255	-0.595282	-0.521915
-0.961582	-3.61222	16.007049	44.263951	59.259685	12.090472	0.536023	0.065579	-1.029216	-0.279899	1.342496	10.012784	-21.597971	-5.931963	-6.971529	0.316708	-0.297574	-0.95462	9.056917	4.577196	-3.941467	-3.809632	42.267506	-0.422211	-0.148489	-0.593425	-0.552901
0.275635	0.530903	17.980812	73.681342	89.549669	19.336453	0.564264	0.06483	-1.029914	0.30581	-0.12289	10.363478	-20.563013	-4.60764	-5.847731	0.316714	-0.237364	-0.944285	8.206234	5.342369	-1.977832	-3.25631	27.670171	9.059129	-0.203841	-0.578876	-0.538491
-1.00082	1.377473	14.208744	52.868224	108.246398	17.523145	0.60774	0.074291	-1.07319	-0.039151	-0.347566	10.356035	-16.378381	-3.30971	-3.950964	0.251533	-0.299021	-0.938892	9.118832	4.939745	-0.52529	-10.519149	18.954494	24.04369	-0.190283	-0.593212	-0.568639
-0.42073	1.723397	14.619299	50.726143	127.990549	17.543667	0.593277	0.036539	-1.023781	-0.160734	0.497418	10.12777	-14.170993	-2.036071	-2.179333	0.316564	-0.268005	-0.942278	10.970166	4.068869	0.583439	-12.205592	12.192588	35.454171	-0.175679	-0.545256	-0.555552
-0.670323	0.914797	13.531258	28.333395	143.651846	17.034825	0.592134	0.060553	-1.016537	-0.226438	0.328202	9.729942	-13.637725	-1.24298	-0.506305	0.290756	-0.297724	-0.954069	11.217715	2.443931	1.000267	-17.567131	4.829549	29.791993	-0.176025	-0.578468	-0.53835
-0.604244	1.031569	13.987679	19.649601	161.402042	16.612491	0.579542	0.023142	-1.020016	-0.268612	0.497918	10.46519	-14.311038	-0.674199	0.300339	0.290461	-0.298796	-0.939719	10.814931	2.737728	1.592869	-15.145348	-2.165721	14.929826	-0.190075	-0.577019	-0.569476
-0.530287	1.035146	14.841588	7.867405	177.955662	17.406228	0.622304	-0.009052	-1.000156	-0.037165	-0.122149	10.469504	-14.489508	-0.039228	1.323838	0.264365	-0.269377	-0.926825	10.64325	2.797445	1.889349	-2.657964	-6.602548	4.605279	-0.176167	-0.576815	-0.569406
-0.837917	-0.233185	13.69365	11.044035	195.59931	17.469363	0.60704	0.015337	-0.992563	-0.168765	0.271764	9.731103	-14.798626	-0.101257	0.829722	0.290536	-0.283475	-0.940722	9.745808	3.784538	1.337883	12.778637	-7.274407	-2.018506	-0.176375	-0.593007	-0.568569
-0.832847	0.457319	13.980812	-5.561936	213.198048	21.421769	0.691778	-0.00421	-0.977166	-0.15603	-0.065745	10.297215	-15.852524	-0.418819	0.455779	0.277711	-0.25291	-0.942454	9.077363	3.549269	0.246465	24.009986	-4.391544	-4.82352	-0.176442	-0.610852	-0.536676
-0.92752	0.748953	15.003147	-2.315146	230.752035	23.783066	0.705098	0.057556	-1.01933	0.191565	0.046364	10.417842	-12.986845	-1.023514	0.020478	0.264735	-0.252985	-0.942178	8.599576	3.142334	-0.12351	29.457228	-0.867318	-0.64248	-0.20377	-0.579702	-0.522963
-0.615705	-0.062474	13.35771	-1.886514	247.786868	27.339872	0.732239	0.028923	-0.960309	-0.223481	0.046644	9.842984	-7.027423	-1.108638	1.165067	0.264735	-0.252985	-0.942178	8.298028	3.08345	-0.488701	28.867072	1.970794	5.703319	-0.176234	-0.59466	-0.537513
-1.225627	0.172091	14.369782	-3.141151	262.992171	34.397829	0.788364	0.006597	-0.930138	-0.154066	-0.460011	10.353522	-1.277502	-0.645137	2.407431	0.26503	-0.251913	-0.956528	7.877752	2.85036	-0.916741	26.91971	5.456876	11.042595	-0.175679	-0.545256	-0.555552
-1.860288	-0.805166	14.069166	8.800347	275.294141	42.872649	0.787249	-0.003988	-0.887911	-0.151733	0.216097	10.52401	1.505739	-0.366352	2.689896	0.264289	-0.284697	-0.925821	7.643213	3.141775	-0.800093	26.48937	9.430443	11.178017	-0.190138	-0.613535	-0.490163
-2.439187	0.285432	13.778351	21.767474	279.166947	53.199781	0.829997	-0.018883	-0.885542	-0.04826	-0.009915	9.959842	3.17089	-0.561853	2.997575	0.26466	-0.268305	-0.941175	7.815319	3.372685	-1.03543	25.022381	13.033015	8.384697	-0.176096	-0.577641	-0.553878
-3.783918	0.337795	12.331654	29.709714	281.412576	58.762481	0.886493	-0.037681	-0.869447	-0.383766	-0.12155	10.405611	4.74483	-0.664926	3.059473	0.27734	-0.269302	-0.927101	7.461108	3.896426	-0.979901	23.925375	16.885519	5.222137	-0.176375	-0.593007	-0.568569
-4.551692	0.44815	11.123747	30.997081	285.080551	60.719165	0.871272	-0.06519	-0.809379	0.181679	0.158646	9.96482	5.181199	-0.352989	3.093754	0.277711	-0.25291	-0.942454	7.21732	3.43038	-1.465536	22.887763	19.873212	2.888783	-0.203703	-0.561857	-0.554856
-5.464381	0.392096	11.276249	13.408032	278.644811	63.332227	0.899528	-0.083239	-0.792585	-0.106687	0.440837	9.959013	2.404897	-0.109061	2.600693	0.263925	-0.24088	-0.900133	7.867578	2.964287	-1.455409	18.8817	21.251254	1.368545	-0.189795	-0.561653	-0.554786
-4.737599	-0.014394	10.379386	8.339313	273.679908	60.476317	0.926654	-0.094573	-0.751056	0.068427	0.440609	10.075919	0.022625	-0.500781	1.608378	0.264955	-0.267233	-0.955524	8.694769	3.02072	-1.379849	13.414564	21.035355	5.576605	-0.204258	-0.611261	-0.536817
-4.674818	0.044213	10.665006	-13.755558	270.129522	66.705366	0.982022	-0.106656	-0.710225	0.068965	0.158956	10.075681	-1.215095	-0.698437	1.297135	0.290832	-0.282404	-0.955072	8.856141	3.133006	-2.214749	6.953382	20.550657	8.811606	-0.203983	-0.577223	-0.569547
-3.324214	-1.340687	9.43517	-27.226539	268.394931	73.368057	0.968673	-0.133824	-0.703044	-0.160087	0.159435	10.127485	-1.465916	-1.035669	0.80033	0.26488	-0.282554	-0.954521	8.974984	2.784279	-2.214032	1.291865	18.765422	7.923682	-0.190213	-0.594038	-0.553111
1.584627	-1.474857	5.83611	-43.4933	251.106229	80.429311	0.982036	-0.123955	-0.692733	-0.274356	-0.290994	10.124688	-1.067643	-1.305754	0.674652	0.290172	-0.239658	-0.915034	8.795734	2.78419	-2.337147	-2.757222	16.096052	4.34449	-0.148351	-0.576407	-0.569266
10.509184	-5.759099	-0.373362	-63.992184	171.428787	86.825381	1.021768	-0.115179	-0.630232	0.253427	0.328099	10.645846	0.445355	-1.319427	1.014843	0.291573	-0.249619	-0.985779	9.200064	3.246122	-2.746814	-5.226751	14.133159	1.031376	-0.203983	-0.577223	-0.569547
11.124925	-2.980083	4.878727	-94.943543	68.773947	115.92617	1.022183	-0.163548	-0.591833	-0.041461	-0.403991	10.242708	0.667533	-0.970913	-0.276294	0.239003	-0.267383	-0.954973	9.509316	3.306737	-1.962275	-5.605949	11.727381	2.816904	-0.176446	-0.592181	-0.584097
9.920898	-0.369412	10.719844	-57.825793	-42.991921	113.299296	0.980964	-0.186438	-0.59803	-0.054435	-0.573504	9.61953	1.996174	-0.838443	0.805076	0.302852	-0.240655	-0.90096	9.153693	3.016673	-2.089928	-9.792562	9.557357	7.121397	-0.175887	-0.561449	-0.554715
9.021902	-0.882103	11.552653	0.668653	-87.90868	110.011253	1.037418	-0.153338	-0.63441	-0.393437	-0.121929	9.952494	2.706462	-0.802184	1.330087	0.263849	-0.2562	-0.899129	9.581112	3.018942	-1.303435	-18.368575	6.77241	10.222251	-0.190283	-0.593212	-0.568639
8.13889	-0.669369	7.387754	47.159049	-101.845212	102.602103	0.994685	-0.155743	-0.619287	0.012717	0.102781	10.131065	3.227054	-1.220405	0.648128	0.251093	-0.270524	-0.912199	9.758275	2.495605	-1.362266	-21.428829	3.54756	13.397001	-0.175608	-0.546083	-0.540025
7.653608	-0.859738	3.0584	41.161145	-104.566742	93.410853	0.995842	-0.197056	-0.609039	-0.393437	-0.121929	9.952494	3.288999	-1.161511	1.142014	0.277265	-0.284622	-0.926097	8.932724	2.207115	-1.378908	-16.215086	-0.728127	14.560042	-0.176375	-0.593007	-0.568569
7.812382	-1.379732	2.377332	-0.861162	-107.502831	80.273097	1.011492	-0.235215	-0.613217	-0.168765	0.271764	9.731103	3.410002	-1.345141	1.325254	0.27675	-0.271446	-0.898401	9.289157	2.148724	-1.252739	-9.31516	-2.961111	11.030616	-0.14856	-0.592599	-0.568429
8.173352	-0.859146	3.295834	-30.667507	-118.582849	63.564082	1.024098	-0.215104	-0.592246	-0.045626	-0.122481	10.073027	5.201211	-1.325628	1.820141	0.251313	-0.284772	-0.925545	9.824009	1.974022	-1.063856	-1.943714	-4.370922	7.923561	-0.176096	-0.577641	-0.553878
8.035858	-0.506894	5.056387	-46.13128	-137.592499	44.138613	0.9981	-0.210485	-0.658511	-0.159548	-0.122218	10.127248	7.487788	-1.236902	2.069488	0.277045	-0.270374	-0.912751	10.351312	2.204369	-1.232684	3.553101	-4.898529	4.635779	-0.175612	-0.527411	-0.587445
9.034628	-0.272284	6.383903	-47.27944	-160.894579	23.833418	0.985137	-0.251423	-0.647915	-0.154713	-0.122028	10.353807	9.833794	-1.302731	2.62563	0.264	-0.225559	-0.901136	9.653968	1.801682	-0.708457	5.321902	-5.258542	1.605291	-0.16205	-0.560418	-0.570173
7.923518	0.482764	8.127216	-40.66753	-182.764733	2.300013	0.941589	-0.174388	-0.692098	0.067864	0.102578	10.018994	11.502554	-1.19279	3.121318	0.251759	-0.25306	-0.941902	9.712039	2.20808	-0.705626	6.714544	-5.483977	-2.738586	-0.203707	-0.543186	-0.602276
7.414909	0.484585	8.458313	-32.764759	-199.342168	-19.031212	0.999215	-0.1999	-0.700739	-0.395269	0.83569	9.9533	11.653861	-1.436353	3.149846	0.277416	-0.253981	-0.928104	9.641323	2.031267	-1.366444	6.233881	-4.737028	-7.110729	-0.147307	-0.495444	-0.573451
6.426617	-0.379711	7.639821	-31.459403	-208.215746	-38.901994	0.970588	-0.185379	-0.703457	-0.443402	0.329155	10.348142	10.941767	-1.596681	2.839396	0.251464	-0.254132	-0.927553	9.884685	2.206686	-0.941953	4.266504	-2.706353	-8.94695	-0.175958	-0.560623	-0.570243
5.803789	-0.779899	7.967002	-45.263603	-213.311635	-56.308031	0.944947	-0.159932	-0.80129	-0.161727	0.384709	10.071035	11.030042	-1.904774	3.237171	0.251313	-0.284772	-0.925545	9.645725	2.032256	-1.126817	0.853879	-1.06086	-9.523096	-0.176029	-0.559796	-0.585771
4.831909	-1.238485	8.002995	-61.987843	-216.424368	-70.760548	0.959082	-0.177606	-0.784147	-0.333454	-0.121942	10.066982	11.342242	-1.68338	2.808028	0.251829	-0.297949	-0.953241	9.580106	2.030908	-1.487359	-3.874526	0.778246	-8.567368	-0.189657	-0.544634	-0.571151
4.186961	-0.941612	10.151257	-77.079215	-219.870195	-82.309516	0.944218	-0.184288	-0.755646	0.017121	0.328293	10.357813	12.019891	-1.885589	2.220826	0.263033	-0.304305	-0.867419	9.232747	1.975125	-1.134767	-4.330772	3.407211	-5.613831	-0.162259	-0.576611	-0.569336
3.135499	-0.41589	12.008425	-81.036029	-224.907413	-90.050903	0.930827	-0.159558	-0.800941	0.066332	0.271522	9.962497	13.621937	-2.231581	1.972049	0.251614	-0.223491	-0.92956	9.179368	1.91842	-0.83658	-6.15421	5.523593	-3.844747	-0.161912	-0.5434	-0.586538
1.736264	-0.178091	13.630293	-77.560142	-230.885772	-93.165142	0.889208	-0.151377	-0.828045	0.072915	-0.009893	10.245458	15.199436	-2.058062	1.944215	0.265175	-0.281482	-0.96887	9.878893	1.856746	-1.302877	-10.281486	5.531758	-3.09635	-0.162121	-0.559592	-0.585701
0.494482	-0.173319	14.515445	-73.801992	-233.900075	-91.690685	0.889551	-0.11325	-0.877104	0.18278	0.215024	10.021507	16.246926	-2.259996	2.035535	0.263404	-0.287913	-0.882772	9.705416	1.741741	-1.126953	-12.232463	4.671708	-3.421363	-0.148142	-0.560214	-0.570103
-2.579193	-0.511871	15.363518	-70.256616	-230.770271	-84.101761	0.862067	-0.122744	-0.887066	0.010107	0.83503	10.075042	15.907966	-2.25988	1.357043	0.278151	-0.281407	-0.969146	9.175796	2.033831	-1.015807	-15.142839	4.156697	-4.905895	-0.161979	-0.561245	-0.554645
-3.142213	0.180014	15.866957	-75.042399	-224.25353	-72.046714	0.876531	-0.084991	-0.936475	-0.109644	0.722395	9.845971	15.32012	-2.300609	1.756931	0.225807	-0.25321	-0.941351	9.107551	1.74136	-1.557305	-16.573917	3.120358	-5.751491	-0.176029	-0.559796	-0.585771
-4.83234	0.646821	17.25681	-69.254534	-218.050389	-60.580285	0.89258	-0.154221	-0.919745	-0.160303	0.272096	10.12758	15.07567	-2.117942	1.481097	0.225217	-0.255353	-0.912652	9.526707	1.509347	-1.251057	-17.654182	2.15621	-4.581636	-0.175399	-0.52989	-0.540862
-4.821205	0.649233	17.825341	-59.095562	-213.167746	-50.253045	0.791765	-0.030846	-0.986855	0.357116	-0.010574	10.081584	14.885797	-2.430167	1.971091	0.251533	-0.299021	-0.938892	9.286261	1.973754	-1.433201	-17.221905	1.535564	-3.571698	-0.175541	-0.528238	-0.571917
-5.340328	-0.212982	17.584288	-50.858253	-209.613657	-42.918021	0.835627	-0.035156	-1.026714	0.068773	0.8913	10.132938	13.311963	-2.269587	2.495501	0.250352	-0.303308	-0.881493	9.765533	1.741853	-1.065945	-16.794779	1.328347	-4.091809	-0.204262	-0.592589	-0.584237
-5.933862	-0.446917	16.491979	-44.607168	-203.394596	-38.110991	0.750489	0.015461	-1.063019	-0.044718	0.666241	10.18697	11.425288	-2.534191	1.782303	0.238262	-0.300168	-0.924266	9.533019	1.162127	-0.953005	-15.29227	1.038917	-5.16553	-0.161841	-0.544226	-0.57101
-6.341858	-1.252498	16.082834	-47.234692	-190.417575	-33.414168	0.779873	-0.009301	-1.070961	0.359772	0.496543	10.251929	10.313186	-2.548101	1.750442	0.238262	-0.300168	-0.924266	9.41043	0.754629	-1.256471	-14.732983	0.970592	-4.28094	-0.217473	-0.545042	-0.571291
-7.604464	-1.711842	15.885848	-51.938189	-171.1128	-28.884764	0.79548	0.004437	-1.127614	0.129403	0.553304	10.247141	8.306152	-2.539693	1.255659	0.251238	-0.300093	-0.924542	9.172475	1.568233	-1.257412	-14.609071	0.93887	-4.128428	-0.190008	-0.559174	-0.601369
-9.027948	-1.824	16.2555	-56.729632	-146.116784	-24.661495	0.725234	0.027138	-1.157436	0.061605	0.215002	9.735891	6.174906	-2.564726	0.945414	0.251163	-0.315413	-0.923538	9.70333	1.218315	-1.308898	-15.045679	1.288304	-5.534352	-0.1761	-0.55897	-0.601299
-9.25738	-1.249419	16.253459	-54.846558	-116.896064	-21.67708	0.710714	0.058583	-1.177994	-0.214912	-0.009354	10.239413	4.999161	-2.732143	0.819491	0.238337	-0.284847	-0.92527	9.348943	0.870422	-1.376891	-15.937279	1.559765	-5.471296	-0.189728	-0.543808	-0.586678
-9.962042	-1.539989	15.329241	-49.604191	-89.065697	-19.737079	0.668738	0.045935	-1.173531	-0.043963	0.271928	10.186638	5.212647	-2.972911	0.539815	0.236711	-0.320848	-0.851514	9.362688	0.641084	-0.658997	-16.633942	2.15451	-4.065772	-0.162054	-0.541747	-0.617594
-11.250756	-1.315584	13.827529	-49.452769	-66.866409	-17.015112	0.711071	0.07941	-1.209562	-0.209837	0.497858	10.523038	4.655628	-3.042103	0.661992	0.211865	-0.332031	-0.907358	9.527517	1.160891	-1.25254	-14.955917	2.632284	-2.362652	-0.175608	-0.546083	-0.540025
-11.919071	-1.955429	11.822768	-57.10547	-52.331411	-14.11921	0.667209	0.08372	-1.169703	-0.283441	0.666341	9.785657	3.599166	-3.487967	1.149959	0.212461	-0.269677	-0.925722	8.835809	0.701364	-0.429027	-13.619501	2.709908	-0.534112	-0.190216	-0.575367	-0.600532
-12.289321	-1.96097	10.451613	-71.302385	-46.090851	-9.069739	0.638925	0.136367	-1.221479	0.008767	0.27163	9.961288	3.255867	-3.739415	1.424636	0.21194	-0.31671	-0.908361	9.358307	1.104951	-0.83674	-13.639031	2.56411	1.728318	-0.203565	-0.544838	-0.571221
-13.721837	-1.902734	10.367164	-89.539786	-45.47121	-0.695945	0.667538	0.139147	-1.236254	0.016582	0.609945	10.35805	2.944356	-3.957189	1.298907	0.224916	-0.316635	-0.908637	9.071624	1.281832	-0.362246	-13.385117	2.333846	3.378927	-0.17645	-0.57351	-0.631517
-13.881973	-1.038333	10.992827	-91.641668	-45.078311	9.865964	0.680115	0.193856	-1.250266	0.014811	0.271867	10.244486	3.585019	-4.535229	1.848582	0.250798	-0.271596	-0.89785	9.137068	0.411545	-0.125226	-12.176192	2.543158	4.2599	-0.175612	-0.527411	-0.587445
-15.316799	-0.865696	10.795154	-81.703977	-42.023951	21.079759	0.694264	0.158883	-1.215632	-0.374503	0.723835	10.916078	3.723232	-5.820633	1.743428	0.238042	-0.285919	-0.91092	9.189501	0.874782	-0.421682	-11.087873	3.181548	5.017011	-0.175612	-0.527411	-0.587445
-15.575679	0.391911	9.317829	-71.813337	-36.226718	31.662931	0.693464	0.221024	-1.257447	-0.039774	0.610101	10.413481	4.44741	-7.189792	1.514599	0.211795	-0.287141	-0.896019	9.364774	1.16451	-0.477052	-10.61864	4.039735	5.011216	-0.204124	-0.575571	-0.600602
-15.103158	1.014228	7.170087	-77.953911	-29.298129	41.635402	0.665623	0.190702	-1.235841	0.355368	0.271031	10.025181	4.430885	-8.421277	2.242218	0.238042	-0.285919	-0.91092	8.775828	0.643176	-0.490281	-10.014066	5.248116	6.684296	-0.176379	-0.574336	-0.61599
-14.771843	2.505046	6.614511	-92.769638	-21.605222	51.123452	0.664794	0.287442	-1.31264	-0.334508	1.061046	10.124617	3.888583	-9.719762	2.814607	0.238112	-0.330809	-0.922259	8.76882	0.815921	-0.848981	-8.481066	6.173799	9.394597	-0.162192	-0.558766	-0.601229
-13.447368	4.286711	7.102427	-99.89198	-11.802678	56.607023	0.664437	0.266614	-1.281072	0.081485	-0.065892	10.641888	2.787421	-11.326146	2.489466	0.263624	-0.302162	-0.896118	8.829632	0.990508	-0.727325	-7.592535	7.029357	12.749509	-0.189311	-0.511423	-0.588353
-13.381212	5.839762	7.621734	-98.568536	1.758296	59.337427	0.649545	0.294531	-1.287555	0.093812	0.441605	11.26535	5.18701	-14.544302	2.212773	0.264064	-0.330659	-0.92281	8.598104	0.933961	-0.492346	-5.921028	8.299257	17.71975	-0.162404	-0.556287	-0.647812
-12.685375	6.013519	8.090644	-83.899995	13.699666	58.508225	0.663279	0.307927	-1.29132	0.421503	0.214925	10.42282	1.760848	-19.245955	1.762503	0.250578	-0.257347	-0.884504	8.586249	0.350234	-1.213701	-5.748869	8.517343	26.277197	-0.189803	-0.52431	-0.649627
-12.00797	5.493877	7.590157	-64.020336	21.089788	57.283513	0.663279	0.307927	-1.29132	0.201582	0.497435	10.927978	2.261624	-23.593677	1.688851	0.225286	-0.300243	-0.92399	9.011197	0.468161	-0.546528	-7.89254	10.192955	32.115837	-0.203293	-0.49213	-0.651371
-9.93945	3.643117	5.008392	-52.656104	20.546362	55.647802	0.662522	0.31817	-1.280659	-1.107461	0.894844	11.63682	-6.281148	-30.148882	-1.99008	0.21172	-0.302462	-0.895015	9.060849	0.233497	-1.085579	-11.615801	11.783447	36.768571	-0.162125	-0.540921	-0.633121
-10.59024	-22.806426	52.508136	-96.241965	22.802977	55.656542	0.661736	0.363011	-1.304983	-0.24696	0.555102	11.48475	9.456727	-40.995743	-1.067927	0.237747	-0.286991	-0.89657	8.772662	0.584358	-0.670249	-15.834117	12.630411	42.160575	-0.161983	-0.542573	-0.602066
-1.902421	-7.046726	32.11411	769.271743	37.687683	2.931922	0.703383	0.320232	-1.242895	0.325606	0.272229	11.326683	0.99496	-48.385895	-3.645263	0.211645	-0.317782	-0.894012	9.24259	0.582784	-0.781259	-18.837298	12.864289	45.135973	-0.175686	-0.507914	-0.650394
2.345672	17.44478	-15.892219	333.438513	75.490593	-127.42224	0.733153	0.281698	-1.247422	0.312501	-0.460636	10.646391	-6.23612	-55.986289	-4.558984	0.185102	-0.320076	-0.864761	9.593561	1.452867	-0.830855	-15.25568	12.553352	40.935926	-0.161778	-0.50771	-0.650323
1.590603	20.120167	18.714093	108.765759	148.939392	-164.346276	0.720176	0.258059	-1.254317	-0.561007	1.232995	13.007335	-33.132065	-64.855391	-4.483814	0.147211	-0.286445	-0.90899	12.003441	4.234238	-0.953591	-2.623517	10.111661	9.232326	-0.189173	-0.494404	-0.604717
-10.178548	2.094716	19.034327	153.51895	130.76937	-55.367805	0.705698	0.237606	-1.2224	-0.427997	3.261532	14.030973	30.108548	-81.019097	-3.977028	0.173382	-0.300543	-0.922887	15.015911	4.983329	-0.654627	3.622381	-0.220355	-45.501718	-0.202734	-0.461397	-0.62199
-6.775582	2.81486	-0.048296	79.305868	-45.252309	-7.864183	0.763666	0.250221	-1.280101	-0.258181	-0.287993	13.578495	-8.632616	-88.790647	-2.605699	0.185768	-0.302612	-0.894464	16.537476	6.720122	-1.097853	-2.132628	-14.808365	-50.574428	-0.133892	-0.508128	-0.634655
0.962911	3.033384	12.264856	11.171539	2.725564	-5.385505	0.706827	0.230892	-1.247136	-0.756451	0.72778	14.587981	5.328384	-108.710752	-7.015833	0.186138	-0.286219	-0.909817	14.65463	4.285249	-1.143451	24.030182	-19.473045	-7.471579	-0.175545	-0.509566	-0.619338
-1.482264	4.220366	7.278052	57.541861	-0.225168	-13.510418	0.73584	0.202601	-1.241003	-0.060746	0.050662	14.771838	0.745385	-127.228195	-13.615627	0.120153	-0.275562	-0.852043	13.979484	1.911933	0.330879	2.668309	-18.359219	31.296762	-0.19022	-0.556695	-0.647953
-1.639215	2.212932	7.948503	-4.247806	-2.040857	-14.190129	0.736197	0.223428	-1.272571	-0.448096	0.108364	15.499738	-5.342198	-147.369149	-19.215367	0.14618	-0.260091	-0.853598	13.494132	1.632905	2.775922	-13.606001	-20.787043	35.708402	-0.18924	-0.512249	-0.572825
-0.737625	0.038458	10.0596	1.003176	-1.983085	-11.72001	0.736211	0.206129	-1.255079	-0.551139	0.109054	16.063716	-13.421932	-171.185851	-25.500491	0.120963	-0.287667	-0.894089	11.552371	1.522445	3.038648	-5.670666	-15.733586	8.144119	-0.203081	-0.494608	-0.604788
-0.985121	0.953828	9.149357	-1.330857	-0.128354	-8.186794	0.721333	0.216746	-1.24407	-0.465446	-0.058955	17.367493	-20.753055	-196.839002	-31.679833	0.107252	-0.260316	-0.852771	10.458404	3.783907	1.590716	-0.213944	-8.861577	-18.649834	-0.18959	-0.526789	-0.603043
-1.202382	0.094783	9.709814	-9.833635	0.281509	-4.444697	0.749932	0.236825	-1.276336	-1.397527	-1.240693	16.724119	-22.890311	-224.580594	-37.659838	0.055348	-0.260616	-0.851668	10.305448	4.124969	-0.267115	8.742107	-3.854673	-17.636611	-0.161637	-0.509362	-0.619268
-0.912936	0.325066	9.886906	-6.027761	0.158594	-2.893551	0.73584	0.202601	-1.241003	-1.057486	-0.340194	16.562213	-27.963798	-250.028819	-43.865924	0.056084	-0.288042	-0.89271	11.049933	3.478938	-1.573481	7.781099	0.20135	-2.005524	-0.23055	-0.461805	-0.62213
-0.748102	0.668144	9.550576	-5.781031	-0.001222	-2.252822	0.749574	0.215997	-1.244768	-1.350818	-0.621544	16.272733	-35.114696	-273.662676	-50.363805	0.041336	-0.294548	-0.806336	10.908636	3.067237	-2.895364	-4.800092	4.570713	-2.928242	-0.20336	-0.509975	-0.619478
-0.804367	0.840751	9.60704	-15.306346	0.372702	-1.176608	0.721719	0.202975	-1.240654	-0.994659	-0.173457	14.12927	-34.665537	-297.494747	-59.261734	0.002704	-0.293701	-0.819858	10.504577	2.489152	-2.486191	-15.508394	7.248548	-14.148611	-0.203219	-0.511627	-0.588423
-0.680287	-0.076467	10.06023	-16.747487	0.586662	-1.659674	0.751118	0.160913	-1.231105	-2.410179	-0.507844	15.174915	-63.91164	-319.740341	-73.068588	-0.050086	-0.297217	-0.775706	9.673004	2.896586	-2.739494	-23.80174	8.953963	-22.194141	-0.189452	-0.50977	-0.619408
-0.519001	0.553095	9.554548	-9.364862	0.758328	-2.935535	0.706841	0.213592	-1.229644	-1.893346	-1.748228	15.014833	-43.856865	-342.049271	-80.424836	-0.063727	-0.314756	-0.745727	9.337344	3.017751	-1.727185	-25.733253	7.615671	-29.514334	-0.175474	-0.510393	-0.60381
-0.971842	1.071606	9.832077	-11.846169	0.899354	-2.834096	0.763309	0.229394	-1.248533	0.510565	-1.471624	14.442809	-47.955827	-358.236267	-79.879794	-0.076553	-0.28419	-0.747459	8.351157	3.721162	-0.724509	-27.955187	0.553636	-36.561308	-0.18959	-0.526789	-0.603043
-0.221511	0.440417	10.128163	-14.505567	1.304285	-1.685132	0.77703	0.260089	-1.26979	5.878017	-3.286181	12.345985	-42.900828	-370.40546	-69.947999	-0.142318	-0.287781	-0.703031	7.24373	3.436314	-0.02777	-34.650585	-10.985336	-32.173827	-0.204128	-0.5569	-0.648023
-0.451394	0.095692	10.065408	-13.734225	1.700074	-1.036887	0.736583	0.209657	-1.269155	10.956761	-0.363383	16.021921	-65.636524	-355.342623	-68.059894	-0.180656	-0.285863	-0.730903	7.304833	3.959605	0.155276	-36.70219	-14.555115	-18.918342	-0.161708	-0.508536	-0.634796
-1.365279	0.154279	10.16154	-6.717445	1.144072	-0.636767	0.734697	0.226614	-1.233759	8.306017	-0.581506	18.513694	-36.126557	-313.297911	-64.659869	-0.208153	-0.246483	-0.647264	7.426456	4.30878	0.398588	-30.377134	-16.932624	-14.559997	-0.216847	-0.496465	-0.573802
-0.684783	-0.01999	9.833059	2.873178	0.538278	-0.214198	0.719833	0.219932	-1.205258	1.059062	-1.811776	13.151903	13.358106	-300.67138	-57.867526	-0.221725	-0.308911	-0.628624	7.192147	3.554332	0.390972	-16.585026	-21.036327	-12.237273	-0.175474	-0.510393	-0.60381
-0.622002	0.038616	10.11868	7.377931	0.309981	0.075804	0.764081	0.201851	-1.241701	-1.777559	-4.229513	12.127754	35.515773	-230.164664	-42.13801	-0.236027	-0.283705	-0.558607	7.601689	3.668797	0.219449	-8.879596	-23.925463	-14.115528	-0.20364	-0.525341	-0.634169
-0.574976	0.323611	9.609322	10.83714	-0.100966	-0.216844	0.736969	0.195886	-1.265739	-16.729044	-4.827662	4.396754	94.685684	-160.994987	-31.477539	-0.249298	-0.284852	-0.543982	8.379208	3.495039	0.772175	-5.366542	-22.884918	-15.936209	-0.175753	-0.525759	-0.618501
-0.915453	0.726674	9.774889	12.304596	-0.553338	-0.381761	0.71979	0.27183	-1.257733	-14.829306	-5.115255	1.718919	82.524319	-63.931112	-10.362124	-0.261614	-0.327673	-0.583744	8.6095	3.609414	0.477537	3.622405	-22.076976	-14.077945	-0.203219	-0.511627	-0.588423
-0.622002	0.038616	10.11868	12.274037	-0.616336	-0.260025	0.735854	0.185301	-1.223511	-10.722768	-4.274759	5.485828	61.174472	40.567283	0.555421	-0.236773	-0.376699	-0.538236	8.905546	3.667062	0.543193	15.82517	-21.797941	-10.242357	-0.217477	-0.526371	-0.618711
-1.031034	0.669074	9.715568	12.182329	-0.523526	-0.350256	0.735482	0.181773	-1.209435	-8.841584	-5.121696	7.27963	60.107624	61.262324	2.486788	-0.274665	-0.343068	-0.582465	9.378641	3.724306	0.612151	21.843691	-17.903064	-9.213122	-0.231243	-0.528228	-0.587726
-0.919865	0.668268	9.547236	10.100213	-0.288097	-0.2791	0.73694	0.230485	-1.300723	-8.308886	-4.78645	5.309617	53.357938	71.769242	-0.342801	-0.262725	-0.37685	-0.537684	9.022748	3.550393	0.484993	24.285373	-12.375576	-10.531883	-0.189382	-0.510597	-0.60388
-0.80214	0.841233	9.720746	7.159189	-0.273535	-0.055722	0.721719	0.202975	-1.240654	-8.274135	-3.604424	4.348949	46.541409	87.321283	3.074218	-0.236548	-0.330738	-0.541246	9.669165	3.315862	0.316388	24.379702	-6.504185	-7.443055	-0.230684	-0.497495	-0.558345
-0.968004	0.383032	9.99974	5.319775	-0.280383	-0.203878	0.763695	0.215622	-1.245117	-8.672342	-2.927466	4.624254	38.488676	113.082112	12.510966	-0.223502	-0.375553	-0.552861	10.081717	3.082366	0.263195	24.490998	-0.854496	-6.553585	-0.217264	-0.52885	-0.572128
-0.572667	0.209211	9.722545	4.341795	-0.011156	0.048656	0.721719	0.202975	-1.240654	-9.123972	-3.151594	5.01087	33.761168	145.515416	24.051764	-0.274445	-0.357317	-0.595811	10.665951	2.789152	-0.086478	23.938678	3.674773	-6.970496	-0.21706	-0.493986	-0.620386
-0.966932	0.440714	10.056835	4.647251	-0.225891	0.136291	0.73544	0.233671	-1.261911	-7.042139	-2.42275	5.564764	27.773874	173.522069	34.622903	-0.247978	-0.370343	-0.624058	10.130404	2.789378	-0.33601	19.264241	7.515143	-10.211337	-0.231661	-0.560613	-0.586052
-0.624561	0.497666	10.006904	4.80016	-0.161626	-0.047112	0.763323	0.212094	-1.231041	-6.413778	-3.043808	5.294342	18.202812	193.817735	41.168319	-0.235373	-0.38666	-0.608981	9.710803	2.265908	-0.765286	14.412374	9.505366	-15.031712	-0.217402	-0.545869	-0.555763
-1.146283	0.151942	9.654316	5.871988	-0.342052	0.038874	0.69385	0.207253	-1.254031	-5.313883	-3.10195	5.600462	2.292746	211.15365	47.463457	-0.195704	-0.353651	-0.640515	9.304853	2.500888	-0.352652	8.544509	9.967753	-17.396266	-0.259197	-0.545655	-0.571502
-0.978192	0.610626	9.489028	5.7814	-0.283799	0.285424	0.735854	0.185301	-1.223511	-4.776645	-2.369817	6.574832	-9.723634	226.29897	54.202482	-0.169092	-0.396246	-0.681104	9.065217	2.616839	-0.53628	7.74678	8.994791	-15.280172	-0.23131	-0.546073	-0.555833
-0.568295	0.325059	9.95044	5.996965	-0.254499	0.499955	0.765596	0.181366	-1.263022	-4.122444	-2.595518	7.550813	-17.372016	237.494986	59.765019	-0.206984	-0.362615	-0.725334	9.12738	2.210666	-0.417096	7.701392	7.069572	-9.556131	-0.230893	-0.513688	-0.557507
-0.740183	0.497508	9.947824	6.120383	-0.162426	0.562432	0.722862	0.178961	-1.247898	-2.763059	-2.765613	9.221024	-18.030767	241.873272	63.1996	-0.15479	-0.421453	-0.751122	9.710938	2.207832	-0.765533	5.53492	3.817028	-6.354428	-0.217824	-0.559582	-0.601509
-0.971428	0.497191	9.829664	6.487153	-0.220435	0.407094	0.749975	0.184927	-1.22386	-1.443112	-2.542913	9.0791	-19.968467	242.69493	64.901986	-0.11423	-0.325017	-0.815369	9.119521	1.802156	-0.898082	5.452327	0.50333	-5.39091	-0.259272	-0.526157	-0.63445
-0.458406	0.553777	9.72622	6.857731	-0.007766	0.777498	0.736583	0.209657	-1.269155	-0.844729	-3.050111	10.110275	-24.247171	241.390909	64.05309	-0.089314	-0.358724	-0.770864	9.531669	1.742888	-0.950533	4.52953	-1.805132	-7.271354	-0.203494	-0.545665	-0.555693
-0.914298	0.669474	9.831501	7.408455	-0.033837	0.591482	0.779702	0.198291	-1.280863	-0.125255	-2.881275	11.484275	-32.281577	241.083645	62.686958	-0.075308	-0.385002	-0.826532	9.235643	2.150095	-0.954305	5.313432	-2.668841	-9.256527	-0.259201	-0.526984	-0.618922
-0.911946	0.497632	9.944483	7.870381	0.087065	0.96013	0.777044	0.24279	-1.252298	-0.095896	-2.429445	12.900644	-39.052162	243.139959	62.85615	-0.009172	-0.365019	-0.886313	9.412536	1.74291	-1.012641	7.585893	-3.453655	-15.403543	-0.231661	-0.560613	-0.586052
-1.138737	0.49828	10.053736	8.575229	-0.066084	1.200954	0.721719	0.202975	-1.240654	1.144624	-2.543137	14.398566	-39.431738	244.965439	63.891481	0.004024	-0.379193	-0.899935	9.247998	1.571807	-0.357708	7.415649	-4.451573	-22.487677	-0.217544	-0.544216	-0.586819
-0.404409	0.438129	9.556292	9.280183	-0.125648	1.320628	0.735082	0.212843	-1.230343	2.609037	-2.488505	15.618268	-34.224392	244.069704	65.829171	0.004765	-0.346408	-0.930642	9.423561	2.210238	-0.351687	5.064139	-4.382432	-24.068466	-0.231728	-0.578458	-0.554159
-0.57304	0.726184	9.724717	9.312173	0.027112	1.415021	0.736226	0.18883	-1.237587	3.759244	-2.547038	15.585759	-30.091023	238.675702	65.285462	0.056964	-0.345036	-0.946094	9.188597	2.211025	-0.296182	4.912165	-3.203993	-19.764929	-0.245569	-0.560817	-0.586122
-0.795501	0.900122	10.062106	8.146997	0.117347	1.113165	0.721733	0.185676	-1.223162	4.499325	-3.281116	15.147742	-29.692815	230.775862	61.383941	0.070084	-0.37453	-0.958713	9.549991	2.386174	0.13051	4.062501	-2.236217	-13.07408	-0.231243	-0.528228	-0.587726
-0.514299	0.20941	9.780512	6.672823	-0.130857	0.714694	0.720976	0.195919	-1.212502	5.014541	-3.676542	14.988371	-33.368128	222.992975	55.044649	0.161286	-0.357612	-0.975996	9.184445	1.629029	-0.598189	5.672325	-1.276915	-7.675307	-0.204053	-0.576397	-0.585074
-0.917638	0.66875	9.660942	4.6476	-0.133	0.076464	0.735482	0.181773	-1.209435	4.835909	-3.732786	14.701499	-36.959538	214.421874	47.58774	0.175299	-0.323681	-1.021328	9.433309	1.805684	0.125837	8.065296	0.341512	-6.591496	-0.232007	-0.593824	-0.56885
-1.147811	0.726116	9.599876	3.39102	0.236869	-0.527268	0.750346	0.188455	-1.237936	5.656438	-3.790056	15.398052	-40.120306	203.168843	38.902201	0.226166	-0.357237	-0.977375	9.136838	1.457408	-0.000962	11.233161	0.119881	-7.732671	-0.232007	-0.593824	-0.56885
-0.69221	1.01251	9.496284	1.427509	0.077181	-0.800223	0.736983	0.178587	-1.248247	5.698158	-4.354133	14.605832	-42.702079	188.774234	29.230281	0.227718	-0.336557	-1.050127	8.601986	1.63211	-0.189845	13.135426	0.268973	-9.665599	-0.175958	-0.560623	-0.570243
-0.91537	0.611791	9.774407	0.415006	0.107015	-1.134173	0.749189	0.229768	-1.248184	5.990689	-4.917835	14.781321	-47.240245	173.473801	18.253142	0.27888	-0.369042	-1.020523	9.057069	1.859625	-1.078656	14.734884	-0.183472	-9.730352	-0.218028	-0.594446	-0.553252
-0.741628	0.956799	9.892901	-0.443643	-0.052042	-1.011614	0.736626	0.157759	-1.21668	6.222052	-4.861888	14.842844	-49.331921	156.239971	7.659753	0.280212	-0.334113	-1.079929	9.243305	1.222115	-0.658726	16.428288	-0.731449	-9.397704	-0.217961	-0.576601	-0.585145
-0.686352	0.611626	9.778861	-0.566889	0.074485	-1.377221	0.721733	0.185676	-1.223162	7.140357	-4.694716	14.749049	-50.350696	140.793134	-2.668123	0.344652	-0.305241	-1.054616	9.302997	0.931599	-0.658862	17.632364	-1.133612	-8.544445	-0.245569	-0.560817	-0.586122
-0.623572	0.670232	10.064481	-0.444143	0.137217	-1.437891	0.750346	0.188455	-1.237936	7.767533	-4.696139	14.479149	-51.446766	131.638921	-10.467026	0.344501	-0.335882	-1.052609	9.18568	1.5712	-0.538529	19.893719	-0.834755	-7.087134	-0.245009	-0.530084	-0.556741
-0.687341	0.43906	9.721284	0.506886	0.326739	-1.498885	0.693521	0.151826	-1.18748	8.843705	-4.360867	13.709449	-55.765651	136.46288	-16.310503	0.370673	-0.34998	-1.066506	9.069714	1.630041	-0.420669	22.669488	-1.074218	-6.637625	-0.217891	-0.577427	-0.569617
-0.971759	0.956723	9.831594	0.353232	0.452427	-1.803082	0.73624	0.17153	-1.220095	10.792251	-4.252203	13.354169	-61.545733	153.010756	-18.894074	0.423022	-0.317967	-1.083966	8.957703	0.934387	-0.186209	25.541915	-0.855454	-6.098966	-0.231731	-0.559787	-0.60158
-0.970149	0.267666	9.885552	1.333245	0.459092	-1.989804	0.749231	0.17787	-1.195709	11.664433	-3.746465	13.825847	-66.338009	164.581152	-22.173723	0.46195	-0.317742	-1.084793	8.777914	1.166602	-0.308335	29.552419	-0.937535	-5.654675	-0.203916	-0.559378	-0.601439
-0.980336	0.495261	9.374839	2.648402	0.598255	-2.880711	0.736969	0.195886	-1.265739	13.556431	-2.905301	13.583254	-64.82044	157.213707	-26.222461	0.513339	-0.304266	-1.058201	9.302477	1.628759	-0.595988	32.000203	-0.174759	-4.628084	-0.246265	-0.608568	-0.599139
-0.514382	0.324294	9.780995	2.956013	0.815504	-2.939403	0.721348	0.199447	-1.226578	14.95201	-0.994323	11.745982	-66.926193	129.679523	-31.430374	0.513414	-0.288945	-1.059204	8.660017	1.108796	-0.310783	34.39407	0.821483	-2.532729	-0.260032	-0.610425	-0.568153
-1.031733	0.094418	9.656302	5.839147	1.072722	-2.759511	0.722091	0.206503	-1.25473	16.964582	1.424212	11.903612	-85.26578	91.629004	-35.183748	0.57896	-0.271106	-1.090286	8.958284	1.631794	-0.063429	36.078425	1.908841	-0.61858	-0.245844	-0.594854	-0.553392
-0.96685	0.325831	10.056352	7.375791	1.599535	-2.510025	0.751103	0.178212	-1.248596	16.907002	3.959383	12.131096	-91.123149	61.324033	-33.362924	0.578074	-0.274321	-1.047237	8.965157	1.517126	0.295518	37.196032	2.985371	-0.811141	-0.218028	-0.594446	-0.553252
-0.688869	1.013234	9.666844	10.349087	2.049915	-3.063296	0.766353	0.171123	-1.273682	17.307265	5.366891	12.140744	-79.422221	49.18691	-24.842869	0.564953	-0.244827	-1.034619	8.903244	1.342291	0.113955	36.668736	3.641324	-2.309924	-0.259823	-0.594232	-0.56899
-0.734533	0.383831	10.231607	9.918534	1.927072	-3.248065	0.751489	0.164441	-1.245181	17.604787	5.986415	12.657067	-53.189836	43.122241	-12.119729	0.604026	-0.274171	-1.047788	8.484339	0.993296	-0.254672	34.078562	4.314765	-3.251187	-0.259752	-0.595058	-0.553462
-0.629512	1.185999	9.782387	12.34172	2.370357	-3.401178	0.750346	0.188455	-1.237936	18.189952	5.194658	10.347477	-21.977826	30.353285	-0.568744	0.656005	-0.258551	-1.049895	8.489571	1.110685	0.045357	33.182257	3.414978	-2.326781	-0.232078	-0.592998	-0.584378
-0.578731	0.897303	9.441176	12.410993	3.255251	-2.804295	0.736997	0.161287	-1.230756	18.645673	3.670203	7.298538	-17.45752	14.562694	3.8096	0.629908	-0.229132	-1.037001	8.37648	0.87964	0.281794	34.323106	2.208419	-0.613654	-0.259473	-0.579692	-0.538772
-0.455273	0.841708	9.897986	9.745652	3.396808	-2.82499	0.73544	0.233671	-1.261911	25.693429	45.430466	44.735516	130.927687	-102.207568	30.884366	0.591426	-0.197644	-1.052531	8.716427	1.282395	-0.428755	35.988007	1.81138	-0.09822	-0.232283	-0.627861	-0.53612
-0.682064	0.842357	10.007238	10.139582	3.693329	-4.416071	0.765224	0.177838	-1.248946	9.191943	3.290659	3.759417	343.234214	-131.80032	112.929959	0.604622	-0.211818	-1.066152	8.417214	1.165929	-0.674379	39.633648	0.504164	-2.580749	-0.27338	-0.579896	-0.538842
-0.973655	0.496708	9.715958	8.130636	5.522201	-3.889865	0.724005	0.154948	-1.255142	-0.638007	28.258823	-1.633514	306.392339	-162.394065	261.860074	0.604095	-0.319061	-1.059127	9.164812	2.496214	-1.552991	43.655177	1.364056	-1.529732	-0.24584	-0.613526	-0.505972
-0.559761	0.843963	10.407437	9.642807	7.189039	-3.897795	0.735883	0.150703	-1.188528	-11.945552	-2.740173	18.426146	9.799625	-215.102899	267.636374	0.526014	-0.365472	-1.054462	10.219386	5.339261	-1.580975	54.42476	4.895138	-10.967911	-0.259681	-0.595885	-0.537935
-0.504775	0.90088	10.295086	7.209659	11.036318	-5.3617	0.736997	0.161287	-1.230756	14.665526	9.773303	20.864345	158.751158	-202.658421	198.546118	0.473444	-0.383237	-1.023656	12.429628	7.418686	-3.027931	64.304801	13.068938	-31.882987	-0.245982	-0.611873	-0.537027
-0.871198	-0.412747	11.987334	4.523417	19.166901	-7.9207	0.736211	0.206129	-1.255079	17.957981	3.561314	10.114708	108.806602	-102.077182	71.318444	0.433996	-0.430495	-1.005468	13.86049	4.978231	-2.532649	42.311225	28.887036	-21.948038	-0.316152	-0.6428	-0.582288
-0.944715	-0.116531	14.089878	12.625749	32.232181	-10.33857	0.736268	0.136931	-1.185112	1.317126	2.127584	9.424262	113.224788	-45.796515	-31.674263	0.408484	-0.459142	-1.031609	14.075707	6.367559	-3.480824	20.473963	41.442526	-12.88352	-0.217891	-0.577427	-0.569617
-2.212987	0.469453	16.568216	14.803306	49.188536	-6.082176	0.736226	0.18883	-1.237587	0.0978	-1.642624	11.263596	26.184383	-7.188739	34.303537	0.408634	-0.428501	-1.033616	14.471328	5.839727	-4.493763	25.655867	49.685072	-30.053873	-0.246679	-0.659624	-0.550044
1.337609	5.777402	22.740507	28.791272	75.252195	9.972375	0.709513	0.151794	-1.240717	-0.632509	8.664011	7.634041	32.889197	-11.867317	7.718308	0.420869	-0.461211	-1.003185	14.215104	4.092547	-5.823533	-5.041196	58.66497	-12.476009	-0.204467	-0.627453	-0.53598
-0.469267	-2.640912	14.884111	62.94663	111.050539	12.786619	0.77823	0.166878	-1.207067	0.381634	0.833043	8.610874	-26.637409	-3.58975	-4.486075	0.420725	-0.431642	-0.990842	11.986681	4.623824	-5.024428	-26.660463	52.553485	11.867753	-0.246053	-0.611047	-0.552555
-0.757296	0.703491	17.847787	54.059608	134.353378	21.28658	0.806471	0.166129	-1.207765	-0.160195	0.215765	10.127533	-9.618395	-6.251541	-5.177061	0.446601	-0.446812	-0.99039	10.085482	4.115732	-2.606785	-18.166367	36.919071	14.81537	-0.232421	-0.64488	-0.519755
-0.62393	1.441904	15.921259	56.37779	160.795406	22.813741	0.794265	0.114948	-1.207829	0.122389	1.060042	9.96437	-21.581234	-4.355654	-4.150517	0.42124	-0.444818	-1.018538	9.349375	4.473113	-0.882308	-0.324369	19.405247	4.65609	-0.245986	-0.593202	-0.584448
0.349064	1.900732	15.942119	31.379912	185.276855	23.314465	0.806085	0.1799	-1.211181	-0.169974	0.271716	9.674463	-18.342159	-4.741804	-4.460029	0.420939	-0.5061	-1.014524	10.558714	4.302612	0.696539	0.788279	6.911696	6.301023	-0.26024	-0.626617	-0.567316
0.691643	1.670476	15.890982	8.391267	209.949789	21.083469	0.850019	0.089094	-1.163582	0.318761	-0.57306	10.929495	-17.090744	-3.356435	-2.873025	0.408264	-0.444893	-1.018262	11.103605	4.07206	1.424336	-7.511894	-3.35579	14.327094	-0.288056	-0.627025	-0.567457
0.282203	1.324186	15.426915	-9.502955	235.272801	20.258945	0.892395	0.07067	-1.147138	0.011269	-0.404289	10.017359	-9.670393	-2.489817	0.93341	0.407969	-0.445965	-1.003913	10.824585	3.320961	2.19441	-11.81777	-10.511291	9.73084	-0.273802	-0.59361	-0.584588
0.768282	1.042678	16.855943	-22.101225	259.413037	20.074587	0.933256	0.072733	-1.109373	0.004925	0.384149	9.791464	-7.06997	-1.942827	2.050756	0.407818	-0.476606	-1.001905	10.011564	3.325818	2.897886	-4.666455	-12.851867	-4.006935	-0.259752	-0.595058	-0.553462
0.028642	-0.794188	17.004305	-14.376046	284.109629	19.534188	0.9039	0.062897	-1.066447	-0.724885	-0.458744	10.567991	-6.968983	-1.32573	1.656207	0.420649	-0.446962	-0.989839	9.221245	3.322381	1.625536	17.804656	-9.56371	-15.533624	-0.245982	-0.611873	-0.537027
0.411441	-0.568572	16.103416	-23.93111	309.61391	27.121246	0.960039	0.023272	-1.018785	0.24712	-0.798844	10.248421	-2.273133	-1.095042	3.635287	0.408119	-0.415324	-1.00592	7.84337	3.146561	0.461253	37.219437	-7.328441	-20.931751	-0.232287	-0.60919	-0.583541
0.423192	0.12338	16.731695	-14.451814	333.673398	37.021307	1.000501	0.056405	-1.001928	0.306457	-0.460873	10.363193	1.52868	-1.008718	2.498558	0.408484	-0.459142	-1.031609	6.706138	3.842825	-0.335478	40.733172	-1.624002	-18.252024	-0.287568	-0.595467	-0.553603
-0.341857	-0.45508	15.634598	7.837129	354.192499	44.772163	1.071089	0.071831	-1.021166	0.244534	0.553089	10.249559	3.717465	-1.320218	2.805504	0.407228	-0.47875	-0.973206	6.468007	3.784795	-0.459941	36.327037	4.045112	-8.94246	-0.260099	-0.62827	-0.53626
-4.863145	0.123092	15.662752	22.43736	366.552533	51.522955	1.083738	0.040044	-0.947719	-0.328295	-0.290744	10.293398	5.133464	-1.701036	2.833685	0.420869	-0.461211	-1.003185	6.107173	3.842198	-0.825738	32.319892	10.281866	4.795354	-0.246612	-0.641779	-0.581937
-6.011041	0.92762	15.530154	20.125047	361.336309	63.983581	1.08188	0.022402	-0.877339	0.073023	-0.066224	10.245411	8.614784	-2.308162	3.971096	0.42102	-0.43057	-1.005192	6.217076	3.54957	-1.304028	30.162008	15.620213	8.445432	-0.259965	-0.59258	-0.600046
-5.174826	1.381705	14.411725	25.167506	357.0189	59.729536	1.165875	-0.004201	-0.833791	-0.622035	0.272911	10.061269	11.269474	-2.342627	5.021054	0.407598	-0.462358	-0.988559	6.453006	3.607106	-1.299379	26.233116	19.297629	6.455405	-0.274219	-0.625995	-0.582914
-4.637908	-0.177592	12.540193	14.270327	341.44021	56.778952	1.207522	-0.04698	-0.771703	0.065231	0.215145	9.90581	11.020228	-2.499895	5.142604	0.369336	-0.445119	-1.017435	6.747256	3.490031	-1.354278	24.056086	23.178882	3.113287	-0.245915	-0.594028	-0.56892
-2.179924	-0.869638	12.357765	-13.749709	328.068087	60.596809	1.233491	-0.017001	-0.740421	-0.269497	0.328879	10.408408	9.417964	-2.298172	4.00267	0.395653	-0.488786	-1.043675	7.747675	4.242477	-1.392264	22.401291	26.382728	0.383857	-0.246332	-0.626413	-0.567246
-1.178911	-1.566196	10.839878	-16.117322	319.258248	65.028111	1.218627	-0.023683	-0.71192	0.301753	0.102289	10.193749	8.955383	-2.328478	3.046319	0.395213	-0.460289	-1.016983	8.400809	3.486498	-1.263559	17.308116	29.514299	0.509611	-0.26052	-0.641983	-0.582007
2.692303	-2.735257	6.81846	-26.591473	301.099167	73.009136	1.21717	-0.072395	-0.620633	0.055129	0.440087	9.452883	8.650195	-2.026549	3.172389	0.433324	-0.508169	-0.9861	8.050574	3.720601	-1.029545	9.893927	31.939591	0.097007	-0.274215	-0.644666	-0.535494
12.129302	-11.066918	-5.535789	-10.428919	196.846057	72.033719	1.246554	-0.097158	-0.628575	-0.223243	0.553667	9.90005	5.937242	-1.60207	3.328568	0.408044	-0.430645	-1.004916	8.682414	3.599008	-1.976445	4.99686	33.029382	-0.471152	-0.27401	-0.609803	-0.583751
12.496738	-3.798328	1.833119	-86.315458	35.412609	110.302651	1.258803	-0.097875	-0.576037	0.066355	0.891206	10.019658	2.697776	-1.362811	2.650119	0.420429	-0.432714	-0.976493	8.622413	3.075964	-2.099584	0.540224	32.889755	-3.29665	-0.260099	-0.62827	-0.53626
12.627741	-2.321235	11.503064	-67.266711	-87.431503	99.824501	1.272194	-0.122605	-0.530742	-0.273902	0.103367	10.18166	1.343119	-1.069381	2.035382	0.434065	-0.475384	-1.016807	8.977225	3.714485	-1.970448	-4.035548	30.813137	-8.190568	-0.2471	-0.673338	-0.59579
11.302752	-2.48195	13.977152	-30.501797	-129.913667	100.040492	1.288558	-0.119109	-0.598055	-0.048583	0.159077	9.959984	0.604778	-0.890772	1.42	0.395288	-0.444969	-1.017987	9.389913	3.422912	-2.023888	-8.331652	26.470006	-3.845128	-0.246265	-0.608568	-0.599139
9.726047	-2.327607	9.457531	35.878327	-145.400827	93.560037	1.28893	-0.115581	-0.612131	0.30417	0.102384	10.307028	1.130326	-0.882297	1.143053	0.407673	-0.447037	-0.989563	9.976233	3.653124	-2.191616	-13.314287	20.435839	7.021108	-0.246336	-0.607742	-0.614666
9.189528	-1.597423	5.472044	51.713728	-156.225296	86.380883	1.260303	-0.101061	-0.614849	-0.043078	0.440967	10.24342	2.182126	-0.718463	1.577123	0.421095	-0.415249	-1.006196	10.101543	3.363958	-1.83121	-15.3918	15.33071	17.812198	-0.287989	-0.60918	-0.599349
8.804021	-2.065874	3.303015	30.651325	-161.904194	76.816246	1.263318	-0.124732	-0.674981	0.012609	0.159111	10.131112	2.520556	-0.807354	1.761481	0.420574	-0.462283	-0.988835	9.990093	2.900856	-1.535854	-14.567291	10.094508	12.699012	-0.260315	-0.60712	-0.630264
8.964815	-2.298178	2.736859	-8.266831	-169.154992	65.652159	1.261818	-0.121546	-0.636169	0.583966	-0.123809	9.916406	3.291422	-0.862508	2.316461	0.381351	-0.46358	-0.973658	9.527753	3.427092	-0.943363	-9.89947	4.333687	6.413165	-0.246057	-0.592376	-0.599976
9.273315	-2.236118	3.87973	-37.569725	-185.356388	52.965371	1.250326	-0.131072	-0.699368	0.243756	0.327719	10.19273	3.201273	-0.678687	2.164075	0.381791	-0.492077	-1.00035	9.532155	3.428081	-0.703736	-3.05161	0.837191	0.811882	-0.246545	-0.623934	-0.613829
9.260927	-1.134796	6.214178	-52.611377	-203.718899	38.576492	1.222814	-0.105967	-0.744313	0.424137	0.102358	10.536004	3.881755	-0.57988	2.443059	0.407523	-0.477678	-0.987556	9.063307	2.965048	-0.594703	3.145142	-1.750605	-1.184794	-0.315596	-0.593396	-0.600327
8.99783	-0.842315	7.403732	-52.677597	-217.044128	20.054803	1.223186	-0.102439	-0.758389	0.53521	0.327323	10.368693	5.762481	-0.833365	2.657849	0.408038	-0.490855	-1.015252	8.891065	2.792214	-0.359119	3.131571	-2.873573	-2.035135	-0.260032	-0.610425	-0.568153
8.366504	-0.267685	7.337044	-52.302929	-226.704982	-1.354821	1.194916	-0.067091	-0.792674	0.124544	-0.066568	9.963421	7.182442	-0.964433	2.010296	0.407969	-0.445965	-1.003913	8.955563	2.328459	-0.120369	2.945976	-3.866636	-0.715535	-0.231936	-0.59465	-0.553322
7.619022	-0.497636	7.151044	-59.825641	-234.089493	-23.290264	1.19756	-0.094291	-0.838731	0.252672	0.722412	10.646178	10.171398	-1.395849	3.457339	0.420794	-0.476531	-1.002181	9.126029	2.791426	-0.414624	2.651041	-3.769031	1.577291	-0.27429	-0.625169	-0.598442
6.317142	-1.182845	7.861628	-72.299891	-240.603464	-42.654092	1.182624	-0.014476	-0.897688	0.365578	-0.010242	10.478061	12.982754	-1.302272	3.984613	0.420794	-0.476531	-1.002181	9.014309	2.444476	-0.118774	4.35217	-1.941163	-0.087998	-0.274152	-0.60815	-0.614807
4.755342	-1.345083	9.933291	-83.272064	-245.603111	-56.600419	1.169247	-0.007045	-0.925491	0.075549	-0.122459	10.358642	15.698593	-1.482234	3.954181	0.420354	-0.448034	-0.975489	9.5903	2.381836	-0.886806	6.462546	-0.22094	-0.073288	-0.288198	-0.625373	-0.598512
3.571679	-0.995462	10.877858	-90.194425	-249.928967	-63.21605	1.16999	1.2e-05	-0.953643	-0.164707	0.046584	9.900832	17.025043	-1.647156	3.614496	0.420424	-0.492923	-0.986828	9.182554	2.442093	-0.594728	6.841695	3.519894	-3.790564	-0.274148	-0.626821	-0.567386
2.460078	-1.102278	12.560698	-92.391135	-253.047218	-63.168335	1.143578	0.053001	-1.058308	-0.506234	0.554395	10.120564	18.077867	-1.391728	4.111137	0.420794	-0.476531	-1.002181	9.649742	2.672328	-0.824563	6.562808	6.564354	-8.418852	-0.246754	-0.640127	-0.612992
0.716368	-1.094239	14.118067	-95.435972	-252.403762	-58.762005	1.100473	0.047068	-1.029108	0.582673	0.552158	9.916975	15.422124	-1.334448	4.263711	0.394842	-0.476681	-1.00163	9.347228	2.555121	-1.249908	7.099402	8.716111	-9.256202	-0.302385	-0.640943	-0.613273
-1.075196	-0.222363	16.189619	-98.204816	-248.370268	-52.031378	1.058055	0.117389	-1.098028	-0.055035	1.003845	9.734137	13.878789	-1.347405	3.245006	0.36852	-0.493224	-0.985725	8.931914	2.555572	-1.377425	5.153233	10.023501	-6.199295	-0.274219	-0.625995	-0.582914
-2.644465	0.705341	17.924748	-94.030419	-242.210931	-45.439857	1.001915	0.157015	-1.14569	0.009221	0.665991	10.01826	12.214645	-1.061114	3.1232	0.420053	-0.509316	-0.971474	9.28678	1.276594	-1.496075	0.25149	9.852511	-0.221119	-0.287851	-0.592162	-0.615714
-3.492851	1.684881	18.480679	-88.268392	-235.178607	-41.937195	0.97326	0.206133	-1.183391	-0.218946	0.835509	10.126846	10.920072	-0.890567	2.66143	0.394987	-0.50625	-1.013972	9.351609	2.091254	-1.072165	-2.479547	9.47619	2.69407	-0.2608	-0.65735	-0.596698
-4.396964	2.090289	19.089936	-80.004486	-227.723165	-42.177323	0.944619	0.237953	-1.203601	-0.11053	0.553356	9.789189	9.498414	-0.968921	2.505366	0.393806	-0.510538	-0.956573	9.107416	1.799436	-1.557058	-4.239091	9.163326	2.763063	-0.274916	-0.673746	-0.595931
-4.640084	1.570345	18.34422	-65.988504	-216.285958	-43.964477	0.917449	0.301185	-1.297605	-0.163475	0.666315	10.014633	7.952394	-1.138826	2.040009	0.393586	-0.496289	-0.943227	9.418173	1.68607	-0.713354	-6.088405	8.938121	3.198726	-0.27429	-0.625169	-0.598442
-6.095113	0.417242	17.060789	-56.663146	-197.785001	-41.298099	0.87433	0.312551	-1.285898	0.008898	0.834983	10.018402	6.997082	-0.966785	2.010123	0.394767	-0.492002	-1.000626	8.995426	1.568639	-1.260713	-9.407544	9.092038	4.92159	-0.260662	-0.640331	-0.613062
-7.486827	0.127169	16.123209	-59.413274	-175.778236	-35.503239	0.860938	0.337282	-1.331192	0.413388	0.665284	10.083362	5.234014	-1.172111	1.852522	0.395062	-0.49093	-1.014976	9.46659	1.509235	-1.312064	-11.810327	8.986256	5.450388	-0.288474	-0.65941	-0.565782
-7.903363	0.353848	15.320437	-66.584635	-156.913218	-33.979845	0.803685	0.366322	-1.336627	-0.100859	0.553736	10.242305	4.308455	-1.091472	1.790922	0.369701	-0.488936	-1.043124	8.82469	1.221824	-0.965964	-13.934131	8.599217	6.651937	-0.28806	-0.608354	-0.614877
-7.625792	0.064503	14.869973	-79.507563	-144.424911	-42.114023	0.734968	0.351238	-1.370277	-0.171829	0.609652	9.618108	3.654347	-1.528412	1.693567	0.407373	-0.508319	-0.985548	8.942858	1.163478	-0.96401	-14.003665	7.899816	6.227625	-0.288198	-0.625373	-0.598512
-8.243798	0.69947	15.485763	-88.743219	-138.09303	-53.70308	0.731896	0.444107	-1.380112	0.241793	0.721986	10.136422	3.282375	-1.625514	1.753958	0.381496	-0.493149	-0.986001	8.768145	1.106301	-0.847745	-14.099905	6.57147	7.456895	-0.27429	-0.625169	-0.598442
-11.505317	-0.504199	15.474079	-96.260378	-142.792359	-62.715964	0.71929	0.423996	-1.401083	-0.229718	0.778751	9.617042	4.541142	-2.223151	1.810685	0.420279	-0.463355	-0.974485	8.833629	1.165725	-0.486956	-16.868693	4.935476	10.898025	-0.288198	-0.625373	-0.598512
-13.761592	-1.184602	17.132237	-87.274942	-155.984189	-64.643553	0.6769	0.459719	-1.435019	-0.215343	0.215968	10.239603	6.169921	-2.877016	1.805494	0.368149	-0.509616	-0.970372	8.827026	1.164242	-0.846397	-19.760248	2.832324	15.106087	-0.260032	-0.610425	-0.568153
-17.609307	-1.98866	16.428871	-55.298181	-165.697911	-57.469061	0.646801	0.442826	-1.363941	-0.215427	0.891982	10.296812	6.740327	-4.187182	1.638784	0.39336	-0.542251	-0.940216	8.468257	1.280215	-1.092133	-19.482408	0.938659	17.895708	-0.288615	-0.657758	-0.596838
-20.544405	-2.00227	12.677745	-26.141393	-165.217014	-41.869202	0.590262	0.513522	-1.432511	0.068665	0.947631	10.132985	7.404898	-5.259309	2.769303	0.407448	-0.492999	-0.986552	8.94863	1.048562	-0.66497	-18.48054	-0.580537	17.257419	-0.260173	-0.608772	-0.599209
-22.897891	-0.692967	9.454983	-37.618481	-146.845381	-20.403571	0.549057	0.473332	-1.421216	-0.156222	0.666599	10.354471	7.572485	-6.609482	3.249265	0.342198	-0.509766	-0.96982	8.649438	1.396951	-0.848709	-17.700303	-2.368861	15.948751	-0.302318	-0.623098	-0.645166
-23.670995	2.173859	8.088099	-65.050014	-105.38095	-0.053034	0.533036	0.507963	-1.402962	-0.107226	0.72249	9.95925	5.602701	-8.446106	3.630186	0.394252	-0.478825	-0.97293	8.888243	1.164601	-0.725483	-14.500319	-2.465901	20.522722	-0.27401	-0.609803	-0.583751
-24.511122	1.793604	26.54004	-135.437375	-36.907518	19.630908	0.505153	0.52954	-1.433831	-0.952706	0.161465	10.733596	4.965734	-9.899302	4.231791	0.407517	-0.537888	-0.997891	8.649978	1.164647	-0.849698	-8.589625	-3.045127	25.333896	-0.288202	-0.606702	-0.645933
-20.070124	-1.367126	13.542104	-0.243184	31.167511	-0.320765	0.51853	0.522109	-1.406029	0.074016	0.046485	10.302145	4.106201	-11.703059	6.432811	0.367189	-0.528152	-0.926319	8.645846	1.047506	-1.08982	-4.747597	-2.07365	27.363485	-0.273455	-0.560399	-0.60179
-23.719868	15.529129	14.90626	-13.656484	59.612913	3.338988	0.504038	0.518955	-1.391604	0.082825	0.497508	10.755641	2.27608	-14.817563	5.537174	0.393951	-0.540107	-0.968916	9.066372	0.699588	-0.724159	-4.548506	-1.41673	28.979826	-0.288198	-0.625373	-0.598512
-21.05528	8.857208	13.338716	117.116644	58.929126	-23.762096	0.517787	0.515052	-1.377877	-0.480872	-0.064292	11.252834	1.751662	-19.694639	4.717551	0.394472	-0.493074	-0.986276	8.605132	1.226072	-0.071762	-5.677979	0.07899	28.885067	-0.316085	-0.624955	-0.61418
-21.385104	16.464005	5.578596	141.386868	121.866922	-58.208021	0.561306	0.472616	-1.368677	-0.225201	0.555956	12.504263	-3.894542	-28.932746	4.282048	0.38105	-0.524861	-0.969644	9.658525	2.209451	-0.407192	-5.078918	0.176746	25.550352	-0.343203	-0.577612	-0.601304
-15.181204	21.839409	1.118663	54.143025	223.472495	-153.367244	0.575784	0.493069	-1.400594	-1.262564	1.177532	12.483024	-10.123806	-45.083601	4.486414	0.407963	-0.506175	-1.014248	10.679177	3.256974	0.694289	-5.268786	-0.532118	20.08267	-0.288198	-0.625373	-0.598512
-9.68169	1.400943	18.07495	76.442888	213.515531	-138.215565	0.604054	0.457721	-1.366309	-0.164248	0.048968	12.618324	-12.621961	-59.117294	6.903661	0.355098	-0.525011	-0.969092	12.677989	5.633006	0.622027	-0.393266	-6.096432	0.804782	-0.315596	-0.593396	-0.600327
-10.560906	-2.739292	16.846958	162.391193	128.658325	-76.873096	0.633023	0.481328	-1.412651	-1.438999	2.985152	17.859259	-30.459196	-65.616792	-0.111662	0.38068	-0.541254	-0.95429	15.03715	6.266441	0.668764	7.239094	-18.725217	-11.631699	-0.329504	-0.5936	-0.600397
-4.363444	6.376666	0.52511	78.718206	-29.247765	3.744856	0.633795	0.453786	-1.405819	-0.534182	-1.413685	14.024619	33.996986	-93.595803	-6.010213	0.342198	-0.509766	-0.96982	14.56552	5.105506	0.535202	18.231393	-22.90558	-2.849955	-0.287017	-0.527392	-0.619063
1.919208	1.93743	11.369551	-18.843325	-0.345051	19.981586	0.607083	0.41675	-1.408949	-0.976241	1.573643	15.150253	0.867998	-107.435488	-8.948888	0.328556	-0.527305	-0.939841	14.105104	2.436325	0.814561	16.40967	-25.887677	0.991208	-0.3012	-0.561633	-0.586403
-0.195777	3.995478	8.666058	71.882251	1.591903	-7.970929	0.59069	0.447853	-1.37662	-0.794613	-0.56705	15.378636	22.517825	-129.956722	-13.933491	0.303345	-0.494671	-0.969997	14.29947	2.091173	1.714982	2.474822	-22.206699	12.883159	-0.315041	-0.543993	-0.618366
-1.379584	2.092051	6.589113	-7.615631	0.160409	-9.114765	0.591848	0.40654	-1.366372	-0.559901	0.897396	15.724542	11.718085	-148.796008	-16.595521	0.30371	-0.538488	-0.995685	12.399003	2.499553	1.08243	0.025448	-17.87114	9.784205	-0.28743	-0.578448	-0.569968
-0.899366	0.040753	10.567937	-1.261301	0.035811	-6.374839	0.633438	0.432958	-1.374252	-1.177321	0.223185	16.39035	6.727242	-172.607598	-22.384913	0.303044	-0.555952	-0.965982	11.202464	2.847249	0.223208	-0.324983	-12.204002	-6.012258	-0.32874	-0.528004	-0.619273
-0.92028	1.242683	9.549649	1.665452	-1.220333	-8.243836	0.634209	0.405416	-1.36742	-1.162814	0.223754	17.070026	-4.031623	-197.955455	-25.604682	0.264857	-0.523393	-0.995862	10.895724	3.600687	-0.318243	1.889371	-9.791384	-4.901014	-0.300921	-0.546267	-0.571712
-0.976213	0.955758	9.604182	-5.24825	-0.851628	-5.641729	0.605197	0.433707	-1.373553	-1.283451	-0.05792	16.784173	-12.277727	-224.900182	-29.177315	0.239131	-0.477582	-0.998321	11.170862	3.653638	-1.390817	0.61427	-5.787704	9.754961	-0.329366	-0.576582	-0.616762
-0.624519	0.440224	10.006663	-4.697332	-0.81554	-5.88808	0.633824	0.419187	-1.370836	-1.385762	-1.071227	17.290658	-18.634079	-251.539432	-34.19415	0.186781	-0.509595	-0.980861	11.264124	3.415377	-2.767464	-1.550073	-2.113667	14.574668	-0.315596	-0.593396	-0.600327
-0.229306	0.438728	9.730192	0.30138	-0.550532	-5.530134	0.606326	0.426993	-1.398289	-1.97439	-1.239663	16.655391	-25.647821	-278.923319	-39.989453	0.160164	-0.527209	-0.950606	10.734754	3.12646	-2.718697	-8.981932	1.429172	3.64237	-0.28771	-0.593814	-0.584659
-0.966233	1.015371	10.116101	0.853947	-0.769685	-4.952578	0.633081	0.41213	-1.342684	-1.708383	0.054642	15.756292	-28.827435	-303.648276	-46.340852	0.122052	-0.479329	-0.98149	10.552163	2.195918	-3.145302	-17.140979	4.911179	-10.525481	-0.287501	-0.577622	-0.585496
-0.622417	0.613032	10.121093	0.737368	-0.537266	-3.813722	0.60674	0.378623	-1.35989	-2.875168	0.563203	15.052866	-55.516257	-334.478545	-67.413211	0.082088	-0.513411	-0.935606	10.042527	3.364093	-1.83231	-25.33242	2.866481	-22.679028	-0.30085	-0.547093	-0.556184
-0.908855	0.843005	10.116491	3.497555	-0.686391	-3.088045	0.607483	0.38568	-1.388042	-2.564705	-2.42219	15.849351	-40.539791	-362.796137	-77.699793	0.043015	-0.484067	-0.922436	9.400087	3.308985	-1.485221	-35.891679	-3.109694	-28.14303	-0.329221	-0.596905	-0.538286
-0.527293	1.240704	9.159472	0.062543	-0.820478	-3.509696	0.592191	0.444667	-1.415432	-0.183616	-4.118197	14.029596	-46.311126	-385.404343	-90.411981	0.004012	-0.499612	-0.920605	7.821132	4.18748	-0.612621	-41.783308	-10.67215	-23.502123	-0.287572	-0.576795	-0.601023
-0.527127	1.010938	9.158506	-3.432581	-0.73938	-3.958346	0.57847	0.413971	-1.394175	3.959777	-4.069674	14.060045	-43.589258	-404.75413	-91.803785	-0.035651	-0.472412	-0.878736	7.235528	4.596598	-0.32236	-44.001314	-17.733898	-18.662829	-0.329087	-0.561215	-0.602071
-1.085937	0.497274	9.827437	-6.460226	-0.428358	-2.80984	0.635338	0.398702	-1.392156	12.038426	-1.149859	20.799535	-63.531039	-388.782541	-91.384013	-0.088365	-0.460607	-0.835588	6.704922	4.365509	-0.333253	-40.270351	-23.468574	-15.868136	-0.343062	-0.579264	-0.570249
-1.189103	0.212562	10.392534	-0.018335	-0.352142	-1.477738	0.578084	0.427742	-1.397591	7.321389	-0.352205	20.927626	18.234368	-354.335829	-82.407817	-0.152654	-0.458839	-0.862909	6.822799	3.95846	-0.39269	-38.297927	-27.309779	-10.447887	-0.356623	-0.546257	-0.587521
-0.621096	0.326065	10.176739	7.372189	-0.205507	-0.545917	0.562835	0.434831	-1.372506	3.52909	-2.602938	15.580876	51.908447	-327.945181	-68.279152	-0.180308	-0.51031	-0.787597	7.313096	4.193887	0.63552	-33.530385	-30.251998	-8.189628	-0.287501	-0.577622	-0.585496
-0.912894	0.267625	9.886665	10.44185	-0.017932	0.429669	0.592591	0.413596	-1.394524	-6.144785	-5.742056	12.261154	82.752094	-256.600401	-54.045181	-0.207145	-0.513675	-0.743997	7.432229	4.193864	0.697628	-26.889849	-33.427799	-18.191526	-0.343062	-0.579264	-0.570249
-0.86158	0.783351	9.605685	12.008015	0.167846	0.949533	0.605583	0.419936	-1.370137	-19.701069	-8.654347	2.29285	116.336828	-143.21178	-29.03314	-0.207215	-0.468786	-0.732658	7.846307	4.251242	0.765485	-18.123163	-35.162061	-24.907113	-0.329292	-0.596079	-0.553814
-1.028807	0.669557	9.829274	11.886055	0.321976	0.860385	0.578856	0.4002	-1.390759	-14.061079	-10.303405	-3.194955	108.624207	-48.721408	-10.683171	-0.299088	-0.563378	-0.696007	8.615718	4.249981	0.899604	-6.722387	-34.390612	-21.651902	-0.357804	-0.644238	-0.56697
-0.974028	1.013682	9.718129	9.371481	0.252256	0.559813	0.620861	0.378248	-1.360239	-10.745731	-4.667637	7.070196	51.259275	40.868958	5.513795	-0.260085	-0.547832	-0.697837	8.852863	3.784833	0.902028	-3.803781	-32.584056	-14.948245	-0.329504	-0.5936	-0.600397
-0.745134	1.185841	9.723307	7.256774	0.399171	0.292277	0.565121	0.386803	-1.386994	-9.608676	-6.698403	6.243073	32.980502	50.191862	-2.515998	-0.246739	-0.531365	-0.713466	9.088792	3.842369	0.906677	-5.14524	-28.827222	-11.997038	-0.343688	-0.627842	-0.567737
-0.056595	0.668611	9.79135	4.71192	0.359343	0.053612	0.634181	0.440015	-1.402403	-9.019922	-5.574638	4.274934	24.521897	59.513614	-10.13701	-0.260826	-0.580617	-0.667131	9.315223	3.723452	0.371423	0.515471	-22.19506	-12.599269	-0.329504	-0.5936	-0.600397
-0.296007	1.18358	9.27739	2.076811	0.6271	-0.24113	0.594491	0.37934	-1.412429	-8.910704	-5.011738	4.051267	6.55957	82.141464	-13.563999	-0.233543	-0.545538	-0.727088	9.969052	3.141948	0.560776	6.175677	-15.68561	-13.139788	-0.315317	-0.57803	-0.585636
-0.517106	1.013109	9.670184	-0.623153	0.497839	-0.787484	0.619303	0.450632	-1.391394	-9.14664	-3.941169	3.877414	-13.0046	115.377274	-12.077631	-0.221383	-0.593568	-0.695654	10.195888	2.848802	0.024779	7.734937	-10.463344	-11.856284	-0.357175	-0.614332	-0.522061
-0.613799	1.017052	10.577607	-2.709698	0.276115	-1.061094	0.635353	0.381402	-1.374664	-9.686783	-3.544355	5.564845	-23.913876	154.413274	-5.748226	-0.207892	-0.60667	-0.723625	10.466644	3.36562	-1.225538	5.243191	-6.661244	-10.673561	-0.315525	-0.594222	-0.584799
-0.914256	0.612033	9.83126	-2.738916	0.365734	-0.844877	0.633824	0.419187	-1.370836	-9.210652	-3.48827	6.310878	-23.593604	187.454423	0.993129	-0.181274	-0.589056	-0.75388	10.584947	3.249198	-1.223832	0.329689	-2.649498	-12.844672	-0.343546	-0.629494	-0.536682
-0.342867	0.668818	9.785783	-3.351856	0.425379	-0.934148	0.591462	0.420311	-1.369788	-7.477384	-2.364561	6.744571	-24.617337	211.703432	4.655656	-0.129295	-0.573435	-0.755986	9.366766	2.675723	-0.171089	-4.714967	0.166069	-14.734529	-0.342853	-0.563072	-0.571086
-0.964747	0.498638	10.170782	-4.089718	0.178176	-1.12005	0.619703	0.419562	-1.370487	-6.909868	-2.534963	6.360041	-33.967853	234.277216	4.31799	-0.115503	-0.525255	-0.787973	9.363599	2.616905	-0.351057	-8.282565	1.564426	-15.125553	-0.329012	-0.580713	-0.539123
-0.512693	1.071516	9.897838	-5.530098	0.171103	-1.085351	0.60634	0.409693	-1.380797	-6.214225	-1.916383	6.658268	-52.669263	255.11705	2.41415	-0.115283	-0.539503	-0.801319	8.950237	3.198858	-0.296381	-12.149727	1.547945	-11.902714	-0.342991	-0.580091	-0.554721
-0.92333	0.839869	9.3774	-5.162146	0.141045	-0.994894	0.606711	0.413222	-1.394873	-5.901096	-1.239913	7.910952	-69.375359	270.1081	-0.409491	-0.100756	-0.518749	-0.874347	8.599151	2.851706	-0.184653	-15.374236	0.36319	-7.881963	-0.315455	-0.595049	-0.569271
-0.912319	1.014606	9.946655	-4.916715	0.141494	-0.934257	0.606711	0.413222	-1.394873	-4.894011	-0.958954	9.291092	-75.751956	276.370976	-1.492879	-0.02231	-0.516155	-0.904701	9.244332	2.675004	-0.412918	-14.131504	-1.544347	-3.415382	-0.371224	-0.612884	-0.553187
-0.738246	0.900081	10.063219	-2.801656	0.025311	-0.66622	0.562849	0.417532	-1.355014	-4.308447	-0.45263	9.813364	-75.501964	276.502792	-2.447033	-0.009039	-0.515008	-0.919326	9.19769	2.561707	0.244463	-13.962084	-4.028952	-2.670647	-0.343412	-0.593804	-0.600467
-0.57073	0.611784	9.837941	-0.009407	0.27932	-0.240777	0.620075	0.42309	-1.384562	-3.763201	-0.114527	11.127239	-76.680003	276.211391	-2.296743	0.004528	-0.512789	-0.948301	8.712066	2.211117	-0.544613	-14.644609	-6.386292	-5.651987	-0.329359	-0.613924	-0.521921
-0.747196	0.955592	9.608636	2.198985	0.409769	0.000329	0.577713	0.424214	-1.383515	-3.819904	-0.565063	11.125651	-78.430714	277.045675	-2.197358	0.057172	-0.479704	-0.980111	8.770251	2.094582	-0.603914	-16.321279	-8.701745	-10.066203	-0.357383	-0.630525	-0.521224
-0.625923	0.842074	9.951499	3.944876	0.201759	0.083927	0.605568	0.437235	-1.387629	-2.646059	-0.340996	12.226171	-85.468284	280.191667	-0.722767	0.148444	-0.507676	-1.008733	8.956103	2.096155	-0.121358	-15.544831	-10.203346	-12.476098	-0.357801	-0.66291	-0.51955
-0.577493	0.725219	9.497305	4.774261	0.293994	0.420385	0.634567	0.426244	-1.398988	-2.09259	-0.509582	13.879458	-92.550794	282.407771	2.438081	0.187447	-0.49213	-1.010564	8.654845	2.385974	-0.425158	-13.140444	-10.72162	-11.810015	-0.371642	-0.645269	-0.551513
-0.515578	0.438935	9.724624	5.541062	0.452273	0.328747	0.620846	0.395548	-1.377731	-1.820342	-0.339362	15.866822	-96.686054	280.769144	6.302807	0.163052	-0.411391	-1.07243	8.486735	2.330281	0.050548	-9.921702	-11.012799	-9.161534	-0.343404	-0.631147	-0.505626
-0.743482	0.439342	9.777023	6.675861	0.611574	0.297401	0.591819	0.441138	-1.401356	-0.821719	-0.058735	16.850484	-96.098143	273.753108	8.391396	0.253513	-0.427258	-1.059007	8.659632	1.74788	-0.248157	-8.770549	-10.376445	-8.190796	-0.370945	-0.597518	-0.538496
-1.083793	0.612639	9.941626	6.951279	0.645332	0.143818	0.620475	0.392019	-1.363655	0.5169	-0.116975	17.557916	-99.124688	264.137315	7.738275	0.292291	-0.457674	-1.057826	9.022958	2.039675	0.298844	-6.67081	-9.69188	-8.598958	-0.316077	-0.662297	-0.519339
-0.227369	0.841301	9.845587	5.632753	0.547332	0.115353	0.62046	0.409319	-1.381147	0.770022	-0.060175	18.638952	-105.621476	253.66029	5.563198	0.357691	-0.410265	-1.076566	9.024753	2.214397	0.419399	-4.045486	-9.380676	-8.21266	-0.385829	-0.660839	-0.566274
-0.62382	1.014881	10.065929	5.262665	0.583647	-0.527019	0.59109	0.416782	-1.355712	2.637093	0.782377	19.924419	-108.394801	239.439843	2.367349	0.357767	-0.394945	-1.077569	8.906276	1.459185	0.294171	-0.629848	-7.986023	-5.847915	-0.371291	-0.630729	-0.521294
-0.449581	0.67059	10.181528	3.972709	0.33526	-0.834023	0.620089	0.40579	-1.367071	4.771394	0.384218	20.138736	-103.832157	218.824448	-1.595286	0.410851	-0.390357	-1.136071	9.145392	2.040394	0.540672	5.01801	-7.137647	-6.086348	-0.329217	-0.615577	-0.490865
-1.026621	0.727481	9.943222	3.6954	0.369571	-1.262021	0.619689	0.436861	-1.387978	7.144588	-1.366068	20.639948	-86.472305	201.086653	-4.378295	0.422722	-0.379249	-1.079952	9.378155	2.039112	0.365353	10.971144	-6.437317	-6.691913	-0.371291	-0.630729	-0.521294
-0.913101	0.554832	9.887872	2.225302	0.516362	-1.255404	0.621203	0.416375	-1.409299	8.549791	-0.694076	19.141471	-83.232793	175.898928	-10.329539	0.45015	-0.37374	-1.152252	8.904075	1.45869	0.174357	14.307502	-5.440295	-1.390985	-0.371779	-0.662288	-0.535148
-0.972049	1.358814	9.833283	3.789002	0.553001	-1.136637	0.62006	0.440389	-1.402054	11.392926	-0.416804	20.277097	-80.801982	150.956724	-9.096118	0.514954	-0.388685	-1.152627	8.071671	1.749724	-0.139348	18.210016	-4.679664	6.262684	-0.343889	-0.681377	-0.472059
-0.400329	0.956068	9.785876	3.728963	0.768185	-1.163635	0.634967	0.395173	-1.37808	12.632565	-1.091511	24.378757	-65.673275	145.634896	-4.481935	0.553592	-0.329322	-1.128769	8.138526	1.693244	0.280854	20.19312	-4.128677	12.824392	-0.385479	-0.646299	-0.536055
0.11855	0.611769	9.965009	5.165586	0.754608	-2.088038	0.635338	0.398702	-1.392156	18.190458	6.436408	13.179291	247.629714	121.168695	6.439928	0.553523	-0.284432	-1.11743	8.375556	1.751027	0.34541	20.687383	-3.752674	18.047704	-0.371358	-0.648574	-0.489402
-0.685653	1.186282	9.838127	3.880872	1.210965	-2.199596	0.578084	0.427742	-1.397591	23.343823	4.625282	14.531438	-13.486699	129.153805	21.662015	0.552782	-0.317217	-1.086724	7.840663	0.996018	0.032757	20.711927	-2.774764	21.099714	-0.343613	-0.647339	-0.504789
-0.051276	1.014467	10.077064	2.687401	1.388036	-2.039941	0.620089	0.40579	-1.367071	22.530632	-1.291009	10.942448	-8.094131	94.469753	-1.091254	0.579544	-0.329172	-1.129321	7.95746	1.053577	-0.024702	22.630474	-1.445624	20.413926	-0.3715	-0.646921	-0.520457
-0.445169	0.728997	10.409181	4.098135	1.830077	-2.496843	0.605568	0.437235	-1.387629	23.296767	2.19631	6.715552	-46.359365	70.372117	-8.328855	0.631674	-0.28291	-1.133434	8.079199	0.87982	0.156478	23.463819	-0.112388	13.037905	-0.357383	-0.630525	-0.521224
-0.679961	1.015164	10.121668	5.698655	2.662751	-2.089229	0.62006	0.440389	-1.402054	22.628211	1.416887	15.75909	-9.661712	39.251191	-1.302697	0.618993	-0.281914	-1.147508	8.126576	2.097304	-0.316485	21.650385	0.642741	7.416839	-0.371012	-0.615363	-0.506604
-0.913226	0.727157	9.888596	7.448321	3.069722	-2.026315	0.620832	0.412847	-1.395223	23.910406	8.344308	17.15087	11.178425	5.362185	8.211275	0.591495	-0.242534	-1.063869	8.247369	2.33008	-0.133574	23.428261	1.693937	3.982185	-0.356753	-0.600619	-0.476315
-0.557451	0.729562	10.520661	12.606003	4.538485	-2.047959	0.633824	0.419187	-1.370836	24.903134	10.19971	15.305088	47.120739	-31.645899	35.310415	0.618918	-0.297234	-1.146505	8.187678	2.620595	-0.133438	25.237789	1.098142	3.061563	-0.398619	-0.599578	-0.507581
-0.320639	0.731085	10.923086	15.872142	7.037661	-1.556719	0.619332	0.416033	-1.356411	24.094289	14.649183	12.857616	85.291335	-85.107342	86.021335	0.630933	-0.315695	-1.102728	8.716218	2.793113	-0.242606	23.292062	-0.362313	4.60377	-0.356962	-0.616811	-0.475478
-0.330453	0.441706	10.410202	19.648645	9.288047	-3.309782	0.578084	0.427742	-1.397591	18.121091	20.965685	8.548288	115.375138	-175.935529	172.593944	0.618698	-0.282985	-1.133159	8.721585	2.852425	0.057175	22.192654	-0.697101	7.023929	-0.371153	-0.61371	-0.537659
-0.563966	0.498348	10.178577	20.951562	11.658226	-3.090999	0.605954	0.423464	-1.384213	25.752027	25.015926	18.676222	226.50159	-207.966155	245.458297	0.514369	-0.330619	-1.113592	9.884901	4.008031	-0.694661	26.448977	0.989664	-0.823825	-0.385199	-0.630933	-0.521365
-0.244455	0.735145	11.890702	25.646913	17.23656	-2.523155	0.621975	0.388833	-1.402467	7.926815	-7.795399	13.573934	156.989696	-132.398321	119.095205	0.487821	-0.393123	-1.094676	11.927924	7.542729	-1.419854	31.389418	7.349902	-25.564261	-0.38527	-0.630107	-0.536892
-0.690325	0.853013	12.507661	26.502862	22.071553	-3.029733	0.620818	0.430146	-1.412714	1.279227	14.742715	6.094357	132.959906	5.951027	23.390561	0.500792	-0.453257	-1.105287	13.50721	7.942649	-2.107294	27.715659	21.165724	-40.58872	-0.385199	-0.630933	-0.521365
-1.584835	-0.335667	16.46338	35.355094	32.779013	2.209709	0.623133	0.34752	-1.392219	-2.910439	-4.623344	10.235346	70.847714	-49.893739	-12.667354	0.436057	-0.483202	-1.116251	14.278005	4.978274	-2.285318	-8.410298	35.94255	-20.545181	-0.357104	-0.615159	-0.506533
-0.750775	-0.616458	18.126502	51.144687	60.299947	7.180985	0.60634	0.409693	-1.380797	0.626363	8.046393	12.641983	11.853548	-7.212054	33.490189	0.487526	-0.394194	-1.080327	14.370707	4.507463	-3.72286	-27.673835	39.640144	8.754239	-0.371709	-0.663114	-0.51962
-0.767856	1.44806	17.339246	71.41171	92.331613	14.236519	0.664337	0.38771	-1.403515	0.243315	1.336995	4.871879	32.099291	-4.168205	1.073643	0.474689	-0.484048	-1.102729	14.046704	3.688151	-5.409217	-8.455637	43.460335	27.618132	-0.371291	-0.630729	-0.521294
-0.649017	1.621266	17.569609	69.756755	116.317533	14.385913	0.666252	0.336154	-1.403927	0.10122	1.624925	11.719463	-9.18049	-5.215616	1.399951	0.462385	-0.406449	-1.121821	11.347502	3.639747	-4.621388	-11.089023	38.595872	26.703232	-0.371082	-0.614536	-0.522131
-0.766535	1.161093	17.394893	65.30538	142.632857	16.359847	0.678872	0.338965	-1.365464	0.056985	0.102152	9.509238	4.875852	-4.925875	3.140523	0.4873	-0.440156	-1.077316	9.912045	4.930437	-2.307091	-6.752153	26.996856	7.882971	-0.357596	-0.628046	-0.567808
0.497884	2.195335	17.707999	51.855205	171.786932	15.983357	0.707499	0.324445	-1.362747	-0.105586	0.497215	10.0157	-3.474997	-3.316834	3.458086	0.474174	-0.470872	-1.075033	10.046699	4.410944	-1.468419	-4.543495	15.961576	4.901753	-0.399457	-0.645677	-0.551653
0.790961	2.024251	18.053961	37.062738	200.655861	10.117008	0.722034	0.275701	-1.324697	0.07434	-0.122507	10.302003	-0.108483	-3.307794	3.923309	0.461789	-0.468803	-1.103457	11.262776	4.183851	0.469622	-11.496852	11.592488	13.842254	-0.357942	-0.661257	-0.550606
1.023319	2.024809	18.228974	20.412287	231.102371	4.894855	0.778116	0.305273	-1.347001	0.591243	0.496159	10.313405	5.242199	-2.607079	5.630144	0.435171	-0.486417	-1.073202	11.570772	3.837439	1.132617	-10.396568	7.236783	18.352378	-0.343129	-0.597109	-0.538356
0.107953	1.048966	18.207056	3.556575	265.613647	3.634105	0.807143	0.259682	-1.323376	-0.115449	1.22918	9.619839	7.317945	-2.034677	6.531531	0.423382	-0.421995	-1.11999	11.53471	3.435987	2.327923	-3.939344	3.688336	14.677896	-0.370945	-0.597518	-0.538496
1.104993	0.593795	19.417969	-15.621993	303.404181	6.910854	0.860581	0.316454	-1.299624	-0.279923	0.722813	9.955623	3.489606	-1.955991	5.820178	0.409369	-0.455926	-1.074658	10.763638	3.204449	2.073001	13.090472	-0.097851	5.097915	-0.426927	-0.612874	-0.568996
2.092095	0.02157	20.116723	-14.192871	340.751969	13.831667	0.889251	0.250036	-1.244432	-0.044849	0.102889	10.129856	4.051576	-1.546061	5.177309	0.460903	-0.472019	-1.060407	9.565728	3.668049	1.154367	29.250913	-0.517013	-5.013797	-0.371153	-0.61371	-0.537659
1.402038	-1.989351	19.867503	-0.543443	374.930983	31.33632	0.903	0.246133	-1.230705	0.239829	1.116252	10.080114	6.186584	-1.186528	5.922485	0.448888	-0.453557	-1.104184	8.728923	3.958095	0.601035	38.11907	1.433528	-10.158907	-0.385203	-0.612262	-0.568785
0.168507	-2.614747	21.147973	26.817116	393.393845	54.399759	1.043105	0.214503	-1.174477	-0.282017	0.553727	9.842202	2.389043	-1.136505	4.964245	0.448222	-0.471022	-1.074481	7.600318	3.784702	0.160036	41.436671	5.792559	-7.5635	-0.399595	-0.662696	-0.535288
-0.961521	-1.244289	19.029043	62.85633	406.692551	73.549909	1.097701	0.229962	-1.140478	0.063699	0.384089	9.849313	1.086462	-1.694676	3.385401	0.486629	-0.51783	-1.057948	7.481051	3.842801	0.098176	38.049043	9.566496	-0.967887	-0.385061	-0.613914	-0.537729
-3.684444	-0.157707	17.389408	100.407744	406.511236	80.519885	1.138591	0.197426	-1.06773	-0.156461	0.159577	10.297404	5.221392	-2.010941	3.508897	0.435761	-0.484273	-1.101901	6.579727	4.131745	-0.755791	30.718192	14.436778	4.750762	-0.357245	-0.613506	-0.537589
-3.20677	1.040231	15.528345	125.333151	396.81983	79.370843	1.209222	0.160954	-1.034492	-0.217522	0.722895	10.18339	6.269114	-2.297827	2.520382	0.448373	-0.440381	-1.076489	6.401423	3.725123	-0.880637	24.79425	20.359392	6.822323	-0.39932	-0.628658	-0.568018
-3.63083	-1.562243	11.303676	97.743067	387.503868	72.34025	1.210037	0.081514	-0.975185	-0.510831	1.061228	9.951072	6.267865	-2.418878	2.272551	0.461349	-0.440306	-1.076764	7.219095	3.140248	-1.406865	22.260116	23.593727	6.754937	-0.370736	-0.581325	-0.539333
-1.345142	-3.058587	11.057676	41.5505	377.033781	71.473316	1.279925	0.037986	-0.913796	-0.215451	0.272298	10.239651	5.312076	-2.335209	1.686878	0.474544	-0.454479	-1.090386	7.632114	4.127089	-1.275145	19.307337	25.40105	5.503867	-0.357525	-0.628872	-0.55228
-1.528905	-3.405765	10.427504	10.887612	360.93517	76.633497	1.306323	0.002296	-0.826623	-0.036017	1.173595	10.640513	5.220759	-2.243382	1.533577	0.421749	-0.518205	-1.056569	8.155671	3.601212	-1.746722	13.560057	27.918466	-0.2944	-0.398898	-0.614945	-0.522272
6.094542	-4.813118	5.114137	-13.731394	310.284886	85.781366	1.333449	-0.009038	-0.785093	-0.166108	0.778881	9.901449	4.330965	-1.793361	1.321538	0.474099	-0.486192	-1.074029	8.157467	3.775934	-1.626166	4.303184	29.605737	-3.93641	-0.385061	-0.613914	-0.537729
22.595926	-13.169983	-11.819733	-12.62457	163.087761	36.234502	1.317085	-0.012534	-0.71778	-0.345411	0.440937	9.5577	2.911373	-1.746236	0.73513	0.423081	-0.483277	-1.115975	8.625734	3.541561	-1.857979	-0.921486	30.268812	-1.811863	-0.412668	-0.59813	-0.538707
20.446336	-4.909995	-1.426763	-124.521874	-82.128386	75.185945	1.359461	-0.030957	-0.701336	0.008767	0.27163	9.961288	1.679047	-1.514983	0.489813	0.461048	-0.501588	-1.07275	9.202306	4.176328	-2.503231	-4.401488	30.093216	-0.82042	-0.370945	-0.597518	-0.538496
16.705996	-4.262191	15.097695	-97.403648	-183.998665	38.994849	1.332749	-0.067993	-0.704466	-0.229718	0.778751	9.617042	-0.167737	-1.044638	-0.000246	0.461268	-0.515836	-1.086096	9.438235	4.233864	-2.498582	-11.805295	28.922062	-5.494582	-0.371645	-0.626598	-0.598933
12.082407	-3.623841	15.749247	-43.25305	-169.931716	33.119192	1.332721	-0.033394	-0.73945	0.359233	0.778195	10.252166	-1.616572	-0.84599	-0.369373	0.460608	-0.47309	-1.046058	10.090714	4.23312	-2.306756	-16.82335	25.129002	-4.296965	-0.371504	-0.62825	-0.567878
8.568301	-3.306179	8.748922	19.991097	-158.648091	18.708733	1.36019	-0.006601	-0.74698	-0.107573	0.271798	9.902231	-1.798856	-0.545917	0.280854	0.448222	-0.471022	-1.074481	10.567475	3.187166	-2.182589	-20.341649	19.909713	8.149403	-0.357458	-0.611027	-0.584172
8.289228	-2.7548	3.290098	22.706354	-156.694737	4.902383	1.307466	-0.021718	-0.833867	-0.448561	0.497957	10.121725	-2.537983	-0.371335	0.281995	0.474764	-0.468728	-1.103732	10.338688	2.898809	-1.828786	-22.3363	15.133868	16.707311	-0.413093	-0.593173	-0.631874
8.132614	-3.051092	1.126247	-26.246004	-160.859838	-5.8195	1.30558	-0.004761	-0.798471	-0.154582	0.441325	10.410921	-2.044337	-0.454442	-0.1192	0.448147	-0.486342	-1.073478	10.350523	3.017681	-1.169315	-18.070227	10.959874	13.593987	-0.357458	-0.611027	-0.584172
8.176164	-3.214008	3.342794	-77.953193	-174.406128	-12.239327	1.293331	-0.004044	-0.85101	0.474364	0.77798	10.254584	-1.915692	-0.054229	-0.115117	0.434355	-0.534522	-1.041492	9.052012	2.613872	-1.255163	-12.342286	6.670509	7.358362	-0.385482	-0.627628	-0.583476
7.418686	-2.571921	5.603983	-93.44028	-195.892603	-17.113663	1.265462	0.000234	-0.864387	0.182025	0.609337	10.021839	-0.865827	-0.015068	0.625992	0.473954	-0.456623	-1.061687	9.060566	3.196857	-0.713528	-8.236273	2.9424	2.501593	-0.399044	-0.594621	-0.600748
7.6262	-1.185487	7.489267	-95.669983	-216.347654	-20.87465	1.252456	0.011193	-0.906266	-0.052941	1.172931	9.847559	-1.176096	-0.14044	0.439527	0.448297	-0.455701	-1.075485	8.642491	2.964262	-1.021755	-5.949358	0.422168	1.496747	-0.3576	-0.609375	-0.615228
7.643808	-0.894419	8.400123	-84.782212	-231.673418	-26.798571	1.224186	0.046541	-0.940551	0.003069	0.722085	9.735109	-0.867737	-0.168191	0.59364	0.460683	-0.45777	-1.047061	8.245459	2.678289	-0.191998	-4.617007	-1.727859	5.78111	-0.385549	-0.645473	-0.551583
6.886097	-0.839334	7.703652	-82.777114	-245.473137	-32.641673	1.196316	0.050818	-0.953929	0.239028	0.271199	9.966124	0.367055	-0.243501	0.439744	0.447776	-0.502734	-1.058124	8.593628	2.385615	-0.546072	-5.710746	-4.094652	6.529913	-0.385624	-0.625975	-0.614531
5.52296	-0.606161	8.246424	-91.923018	-258.6674	-36.817279	1.226058	0.046883	-0.993439	-0.15864	0.666504	10.241191	2.590719	-0.247555	0.688118	0.435466	-0.485345	-1.087552	8.539149	2.328663	-0.307793	-2.38579	-4.81838	6.674147	-0.41309	-0.611844	-0.584453
4.279941	-0.429305	9.075447	-102.046221	-268.866937	-36.923102	1.14052	0.128571	-1.050651	-0.161596	0.948062	10.128149	4.441887	-0.408631	0.78049	0.447701	-0.518055	-1.057121	9.011683	2.153354	-0.299731	3.249988	-3.912691	9.767031	-0.3439	-0.625363	-0.614321
3.450277	0.841544	10.599087	-97.113844	-276.167134	-34.233783	1.113022	0.136376	-1.078104	0.361951	-0.010384	10.308142	6.16861	-0.633008	0.933789	0.461198	-0.470947	-1.074757	9.119967	2.557639	-0.775054	3.980857	2.044256	10.744609	-0.427068	-0.611222	-0.600051
2.517451	0.276518	12.624456	-101.716336	-280.756343	-27.608208	1.084009	0.164668	-1.084238	-0.163367	0.609984	10.014586	7.986556	-1.006918	0.684909	0.474024	-0.501512	-1.073026	9.713949	1.859871	-0.647203	5.804849	6.264343	5.552399	-0.441256	-0.626792	-0.614812
1.495122	-0.352904	12.999731	-103.883863	-283.552628	-20.715416	1.028599	0.228649	-1.177544	-0.100535	0.384744	10.242163	9.066216	-1.11606	0.71552	0.474024	-0.501512	-1.073026	9.475819	1.80184	-0.771666	7.940769	8.736685	-2.077397	-0.329154	-0.57906	-0.570178
-0.148388	-0.577849	13.819271	-93.949669	-284.154483	-12.441934	1.00263	0.19867	-1.208826	-0.273339	0.441398	10.238584	8.849107	-1.180537	0.776361	0.461493	-0.469875	-1.089107	9.170989	2.20707	-1.254692	4.223792	9.842301	-6.745167	-0.371362	-0.629903	-0.536822
-0.543002	1.044838	17.114599	-107.127226	-276.899627	-6.366998	0.987738	0.226586	-1.215308	-0.047459	0.835138	10.073833	8.752061	-1.548085	0.526003	0.447632	-0.473165	-1.045782	9.111683	1.858501	-1.317183	-1.946004	9.484564	-6.8128	-0.371921	-0.660635	-0.566204
-1.146284	1.338292	18.468031	-108.387404	-265.512718	-9.766824	0.945705	0.283137	-1.280812	0.238944	0.947213	10.023332	8.319519	-1.553774	0.556426	0.408773	-0.51828	-1.056294	8.872567	1.277292	-1.563685	-10.116854	9.893771	-1.864709	-0.385065	-0.595243	-0.58515
-1.750064	2.321044	19.824359	-106.555887	-254.758153	-21.283043	0.946433	0.307492	-1.326456	-0.395161	0.779359	9.953253	7.854602	-1.682113	0.523948	0.435617	-0.454704	-1.089559	8.628975	2.147737	-1.863913	-16.761398	9.968769	6.349997	-0.371299	-0.593386	-0.616135
-3.1165	2.496052	20.196331	-99.378229	-245.392081	-35.721357	0.888436	0.329476	-1.303739	0.010861	0.440717	10.07471	7.420965	-1.808047	0.183237	0.486855	-0.471868	-1.060959	8.75444	2.265349	-1.441869	-18.218516	9.330197	11.401555	-0.35732	-0.594009	-0.600537
-5.061664	1.980728	20.213153	-92.740155	-232.269746	-45.251437	0.876174	0.347492	-1.373769	0.075918	0.947915	10.472823	6.80072	-2.028732	-0.096909	0.473804	-0.487264	-1.059679	8.932994	2.090963	-1.379402	-20.59782	8.431364	11.72012	-0.398906	-0.577602	-0.617113
-7.112844	2.041833	20.684987	-88.326458	-212.710221	-53.720073	0.832283	0.386401	-1.368893	0.348462	0.721438	9.742363	5.995545	-2.163597	0.209383	0.474249	-0.455551	-1.076036	8.815347	1.45215	-1.44423	-22.625767	8.8457	12.367371	-0.427068	-0.611222	-0.600051
-9.401167	2.560947	20.756325	-74.577316	-183.371259	-66.444309	0.791393	0.418937	-1.441641	-0.048129	0.553438	10.016956	6.701766	-2.492102	0.237513	0.473584	-0.473015	-1.046333	8.701851	1.395333	-1.20705	-25.767026	7.368558	15.106195	-0.39967	-0.643198	-0.598237
-10.671449	3.478752	20.224012	-66.850075	-145.501592	-80.240805	0.720405	0.434581	-1.443311	0.237735	0.947165	9.966693	6.697559	-2.771714	0.789636	0.447927	-0.472094	-1.060132	8.580808	1.743565	-1.327582	-26.785061	6.96249	15.57032	-0.413582	-0.624731	-0.645728
-13.537801	3.882192	19.999467	-64.461527	-115.235426	-90.587118	0.721119	0.476236	-1.506446	0.063376	0.55308	9.849455	7.341134	-3.162738	0.87875	0.461418	-0.485195	-1.088103	8.402639	1.278867	-1.452675	-28.419225	5.311354	17.90721	-0.384439	-0.546666	-0.587661
-16.887545	2.384602	18.393577	-32.559036	-102.167925	-90.988212	0.663879	0.487977	-1.494389	0.298819	1.00353	10.137868	7.490377	-3.560235	0.99823	0.447776	-0.502734	-1.058124	8.120898	1.224433	-0.739541	-29.565574	4.355482	18.252166	-0.426651	-0.578837	-0.601726
-20.046994	0.533753	14.800835	-21.509923	-107.856281	-78.378833	0.650088	0.543778	-1.560591	0.301776	0.721973	10.25091	8.342096	-4.534788	1.636617	0.473728	-0.502584	-1.058676	8.479687	1.573315	-0.431921	-32.131206	3.334596	18.480304	-0.385136	-0.594417	-0.600678
-22.626478	-0.798848	11.619372	-25.311215	-124.600571	-59.587346	0.579499	0.528352	-1.541353	-0.271892	0.948467	10.35229	9.195216	-5.387488	2.39953	0.474539	-0.514689	-1.100721	8.241847	1.863988	-0.494993	-32.172199	2.173958	18.302589	-0.41316	-0.611018	-0.599981
-23.396194	0.460097	10.359437	-33.907969	-135.650913	-37.838853	0.563078	0.594053	-1.544007	-0.21435	0.328676	10.296338	10.350475	-6.873016	2.046578	0.486479	-0.548471	-1.055941	8.483259	1.457905	-0.252695	-29.315132	1.271937	17.7769	-0.412534	-0.56244	-0.602492
-24.200481	1.149493	10.233038	-37.329538	-123.838052	-15.215268	0.522974	0.581748	-1.592432	-0.609469	1.287429	10.741798	10.053769	-8.319672	2.309409	0.499605	-0.517755	-1.058224	8.308951	1.2265	-0.137171	-24.266669	-0.123617	18.407186	-0.38486	-0.560379	-0.633408
-24.345883	2.291893	8.700604	-31.157367	-90.038025	3.012119	0.50771	0.606137	-1.584838	-0.039774	0.610101	10.413481	9.968091	-10.134417	3.000346	0.435391	-0.500666	-1.086548	9.31234	0.701273	-0.180595	-17.387838	-0.726753	19.944092	-0.399256	-0.592142	-0.647331
-23.132891	3.602245	6.399674	-30.748054	-51.198033	13.240558	0.492832	0.616754	-1.573829	-0.148083	0.835923	10.75109	8.490199	-12.177867	3.13298	0.460822	-0.547549	-1.069739	8.952316	0.41022	-0.547876	-14.550969	-0.686277	19.96419	-0.39828	-0.529025	-0.619624
-24.093261	13.429795	7.445364	34.960289	9.095076	25.346291	0.451214	0.624934	-1.600933	-0.15402	0.779355	10.467845	11.753443	-15.506326	2.640087	0.434355	-0.534522	-1.041492	8.662893	0.81891	-0.192206	-15.515392	-1.57365	19.666242	-0.426167	-0.528607	-0.635292
-20.898595	19.584616	10.090815	-31.109893	76.052132	12.488395	0.450857	0.604106	-1.569366	-0.442386	1.061547	10.462037	8.098238	-18.742677	2.75911	0.461048	-0.501588	-1.07275	9.310565	0.991406	-0.239266	-13.61184	-1.827663	24.184658	-0.39863	-0.543565	-0.649843
-18.938197	8.523129	16.220008	99.590035	88.062684	-25.845076	0.466092	0.614317	-1.611943	-0.029565	0.328827	10.86636	6.586384	-23.425981	3.204582	0.43465	-0.53345	-1.055841	8.78081	1.341572	-0.127873	-13.707634	-1.942558	29.351786	-0.426584	-0.560992	-0.633618
-13.109495	16.751999	7.332032	135.843648	145.951653	-65.899607	0.479098	0.603357	-1.570064	-0.30759	0.893098	11.370546	-0.42184	-30.444786	3.067506	0.435165	-0.546627	-1.083537	9.723138	1.222765	-0.230574	-12.906633	-1.783262	29.011854	-0.397721	-0.498292	-0.590243
-9.967291	23.43262	-1.444235	75.03584	222.145887	-182.213807	0.494333	0.613568	-1.612641	0.117582	1.287558	12.455493	-6.481243	-38.070001	3.665046	0.448367	-0.500591	-1.086824	10.795953	2.849677	0.574946	-12.309917	-2.646921	21.035307	-0.398347	-0.54687	-0.587731
-11.477683	3.146064	22.877957	-43.556806	216.22142	-141.509011	0.522945	0.616347	-1.627416	-1.125181	-0.342849	13.390395	-10.76317	-51.969122	0.872202	0.42212	-0.501813	-1.071923	13.03108	4.644161	0.444706	-8.76011	-6.974442	0.014075	-0.398418	-0.546043	-0.603259
-9.09398	-3.549376	15.735469	212.818915	127.120954	-72.379878	0.579442	0.597549	-1.611321	-0.007084	1.45877	14.717593	25.29665	-65.813625	-2.473344	0.461638	-0.499444	-1.101449	14.986471	5.048216	0.962006	-4.53936	-17.460031	-7.897265	-0.412609	-0.542943	-0.665441
-4.624593	5.155744	10.517037	76.552781	17.65962	16.197156	0.56645	0.591209	-1.635707	0.096844	1.627119	14.210396	13.549924	-81.061523	-1.493712	0.409069	-0.517208	-1.070643	14.864422	4.408413	0.657552	8.826726	-22.805021	13.779993	-0.398351	-0.528199	-0.635152
1.869386	-0.646192	11.641844	-13.58209	10.461764	23.208456	0.55313	0.529443	-1.593543	-0.455064	1.854468	15.331289	13.41541	-99.319946	-5.744554	0.395873	-0.503035	-1.057021	13.752668	2.669934	0.928761	20.05978	-26.790086	15.59232	-0.439724	-0.514271	-0.605144
-1.439894	-0.481396	9.248123	56.763226	-3.890519	-18.567103	0.555016	0.512486	-1.628939	-0.86476	0.953602	14.925591	19.095899	-119.176609	-7.971925	0.370876	-0.544858	-1.110858	13.59027	1.104759	1.517853	9.072324	-23.916317	20.784275	-0.384025	-0.495609	-0.636756
-0.465698	2.033464	6.492982	13.153656	0.911695	-12.658715	0.622975	0.537813	-1.584629	-0.387636	1.122395	15.728359	9.924689	-138.640802	-10.268967	0.36999	-0.548074	-1.067809	12.463481	1.570943	1.259295	8.574122	-21.953083	17.078039	-0.439866	-0.512618	-0.6362
-0.959221	0.557286	10.455289	-3.928116	-0.038101	-6.368364	0.568394	0.505055	-1.601137	-1.300759	1.406104	16.10573	9.32952	-161.345697	-12.252168	0.344114	-0.532904	-1.068261	10.801861	2.676685	0.873739	8.065202	-18.048023	3.031753	-0.397933	-0.495814	-0.636826
-0.688538	0.553701	9.664913	6.813091	-1.349606	-8.291425	0.566865	0.54284	-1.597308	-0.829703	0.954977	16.568139	2.645617	-184.231137	-13.008933	0.265963	-0.534426	-1.052257	10.96696	3.08034	0.279702	8.190626	-14.664257	4.146007	-0.411767	-0.515515	-0.573948
-0.63409	1.357359	9.555699	2.963368	-0.838449	-6.155857	0.553501	0.532972	-1.607619	-1.693662	-0.05745	16.435873	-3.862617	-208.055853	-15.809445	0.240601	-0.532432	-1.080405	11.356018	3.480735	-0.968909	12.158298	-10.240108	18.384669	-0.411908	-0.513863	-0.605004
-0.562769	0.383707	10.234947	2.261758	-0.882554	-5.265153	0.566879	0.52554	-1.579816	-1.013218	-0.340823	15.940386	-9.660822	-232.020413	-19.843802	0.253282	-0.533429	-1.066331	11.821099	2.722689	-1.442575	13.048557	-5.565648	22.149542	-0.453144	-0.482916	-0.591361
-0.512818	1.243841	9.898562	6.675462	-0.706898	-5.39768	0.582886	0.508209	-1.615562	-0.840545	-0.96083	15.886852	-17.351556	-256.798372	-25.798937	0.240236	-0.488615	-1.054716	11.742525	2.137366	-2.584379	6.790601	0.087566	8.665335	-0.439515	-0.498078	-0.605981
-0.577742	1.069869	9.498753	1.715032	-0.649009	-4.401057	0.540153	0.505804	-1.600438	-1.180432	-0.678293	16.163033	-24.609653	-281.544192	-31.691645	0.16208	-0.550347	-1.049047	11.683664	2.544281	-2.523842	-2.538068	2.687776	-9.375899	-0.411975	-0.531708	-0.573111
-0.512652	1.014074	9.897597	0.888871	-0.750631	-3.909631	0.569523	0.49834	-1.625873	-2.001393	-0.395701	15.46667	-29.188432	-307.193724	-40.365372	0.109811	-0.506829	-1.022256	10.514636	2.898157	-1.885391	-11.592436	2.346078	-23.826359	-0.46726	-0.499313	-0.590594
-0.628067	0.726708	9.83731	1.412634	-0.662261	-3.357668	0.595863	0.531848	-1.608667	-2.414883	0.055319	15.005471	-44.262208	-338.354081	-63.651255	0.097426	-0.50476	-1.05068	10.172104	3.133991	-1.232029	-21.713511	-1.934471	-30.430547	-0.397654	-0.480447	-0.622135
-1.039817	0.49482	9.260019	3.069517	-0.566162	-3.023522	0.567265	0.511769	-1.5764	-1.943981	-1.578844	15.353604	-30.591231	-367.472136	-76.351128	-0.006677	-0.506433	-1.034124	9.416884	3.661397	-0.525227	-30.829666	-6.614756	-27.594627	-0.467402	-0.49766	-0.621649
-0.34629	0.782978	9.615706	-1.095954	-0.593271	-2.337267	0.595863	0.531848	-1.608667	0.142758	-4.288594	13.130474	-30.446419	-391.72808	-93.575008	-0.03337	-0.539367	-1.002866	8.892631	4.012799	-0.114299	-33.666122	-13.237523	-18.11055	-0.384372	-0.528821	-0.619554
-0.923744	1.414284	9.379813	-2.845117	-0.563742	-2.94512	0.56685	0.560139	-1.6148	4.916976	-3.621668	13.118103	-49.238755	-402.428043	-96.593537	-0.085343	-0.494778	-0.990424	7.305373	3.727301	0.154287	-34.543472	-18.957126	-12.457195	-0.467678	-0.531698	-0.58892
-0.728965	0.385037	10.515872	-6.212741	-0.527753	-2.076127	0.566879	0.52554	-1.579816	11.774972	1.666007	19.494359	-56.265452	-379.761885	-103.216846	-0.137913	-0.512542	-0.959618	8.007659	3.898672	-0.131301	-31.161046	-22.812173	-14.101267	-0.425745	-0.514893	-0.589546
-0.673606	-0.075019	10.401349	-0.1086	-0.357439	-1.04821	0.596249	0.518077	-1.605251	8.926824	-0.414174	17.960738	-4.381995	-343.301368	-89.405781	-0.138358	-0.544255	-0.943261	7.541032	3.900989	0.15943	-27.855047	-26.732316	-18.342219	-0.439445	-0.498905	-0.590453
-0.906296	0.383955	10.228266	6.608213	-0.152836	-0.082842	0.567622	0.532597	-1.607968	2.383072	-2.206231	15.840228	40.055026	-294.018056	-74.579101	-0.204413	-0.488708	-0.874148	7.720261	3.436223	0.220661	-22.058105	-29.075823	-20.399424	-0.411558	-0.499323	-0.574785
-0.686518	0.841392	9.779826	9.708721	0.159548	0.741342	0.609212	0.559015	-1.615847	-10.566485	-3.425973	10.188836	98.851756	-224.203531	-55.899136	-0.269964	-0.566757	-0.853401	8.246505	4.596034	0.115696	-21.604588	-33.96523	-20.591636	-0.467398	-0.516332	-0.574229
-0.507002	0.900398	10.181379	10.535622	0.039789	0.798351	0.596978	0.542433	-1.650894	-19.031782	-7.529789	1.402071	117.125062	-99.953398	-21.790035	-0.271365	-0.556796	-0.782656	8.089109	4.194109	1.129081	-16.764357	-35.192493	-24.453535	-0.45349	-0.516128	-0.574159
-0.806511	0.725385	9.492851	9.709441	0.157462	0.925313	0.581757	0.514923	-1.590826	-13.582507	-9.627543	-2.278481	107.596413	-2.427085	-1.376186	-0.284121	-0.57112	-0.795727	8.60732	4.073775	0.419608	-6.946824	-33.009166	-25.202312	-0.425812	-0.532738	-0.557653
-0.977368	1.012959	9.54757	7.471222	0.024784	0.868264	0.568022	0.501527	-1.587061	-10.129374	-5.965184	6.17617	41.690007	61.214072	11.658388	-0.2707	-0.539332	-0.81236	8.912014	3.726622	0.902882	0.951459	-30.814174	-21.818989	-0.425674	-0.515719	-0.574018
-1.087423	1.014006	9.772755	4.926961	0.077153	0.631096	0.567622	0.532597	-1.607968	-9.214826	-6.361506	5.855343	13.366167	62.57607	1.47574	-0.284272	-0.601761	-0.79372	9.672331	3.37468	0.496356	5.894214	-27.830824	-18.795334	-0.412251	-0.565745	-0.540381
-0.923454	1.012193	9.378124	3.243205	0.376949	0.610148	0.582514	0.50468	-1.601486	-7.585167	-5.183161	4.13557	0.387062	71.447963	-2.454098	-0.284052	-0.616009	-0.807066	9.619222	3.201823	0.794048	5.893249	-21.396219	-17.023088	-0.453416	-0.535625	-0.51121
-0.919	1.013158	9.605537	0.08687	0.517608	0.46818	0.567994	0.536125	-1.622044	-7.692998	-3.943295	4.587312	-13.568673	93.968331	-0.638226	-0.244313	-0.627889	-0.849938	10.320813	3.198719	0.447812	8.90616	-15.370203	-16.084873	-0.453278	-0.518606	-0.527575
-0.39806	0.899109	9.899341	-2.12049	0.571898	0.199405	0.525646	0.51995	-1.603505	-8.718943	-3.602945	5.075593	-21.850296	125.95949	6.578964	-0.244458	-0.59832	-0.837596	10.188725	2.614768	-0.395558	10.675176	-9.918223	-16.239533	-0.425879	-0.550583	-0.525761
-0.973986	0.956241	9.717888	-3.899606	0.348823	0.170233	0.582529	0.487381	-1.583994	-7.94717	-3.209084	6.224432	-23.608834	158.706012	17.755206	-0.218136	-0.581778	-0.853501	10.245405	2.672214	-0.514024	6.464188	-6.260749	-13.491406	-0.425533	-0.517372	-0.542963
-0.742742	0.956557	9.836048	-4.606209	0.3504	-0.257059	0.553487	0.550271	-1.625111	-7.475097	-2.927819	6.800737	-21.773285	184.97044	28.561824	-0.230452	-0.624598	-0.893263	9.479431	2.616141	-0.46867	0.785869	-2.915255	-13.609047	-0.398552	-0.581733	-0.539474
-0.686435	0.726509	9.779343	-4.668533	0.227881	-0.320206	0.539395	0.516047	-1.589778	-6.054849	-2.536911	5.981697	-30.519178	204.608718	33.991407	-0.203389	-0.575271	-0.939875	9.658815	2.558154	-0.345802	-5.242846	-0.54284	-14.393082	-0.453416	-0.535625	-0.51121
-0.525972	0.953738	9.215118	-5.556534	0.409166	-0.406708	0.568765	0.508583	-1.615213	-5.240795	-2.369097	6.395242	-47.10385	219.501152	33.139782	-0.137623	-0.57168	-0.984303	9.307324	2.385231	-0.233333	-8.724646	0.778805	-10.291759	-0.440067	-0.566153	-0.540522
-0.913433	1.014365	9.889802	-6.690511	0.372444	-0.342705	0.595492	0.528319	-1.594591	-4.602478	-1.243387	6.749326	-64.422708	234.770417	29.208336	-0.111671	-0.57153	-0.984854	8.955833	2.212307	-0.120863	-10.614181	0.10569	-10.92347	-0.425812	-0.532738	-0.557653
-0.743565	0.554225	9.777506	-6.690434	0.403524	-0.372868	0.567593	0.567196	-1.642952	-4.197181	-0.96001	9.588796	-70.202251	246.445684	25.836189	-0.084394	-0.596662	-1.055147	9.483698	2.675206	-0.228795	-10.334208	-1.950576	-13.114987	-0.439929	-0.549135	-0.556886
-0.282231	0.612059	9.957214	-5.802437	0.316173	-0.43818	0.553873	0.5365	-1.621695	-3.102684	-1.356372	9.611434	-66.873081	252.643736	20.81372	-0.006457	-0.520681	-1.04747	9.188462	2.269101	-0.295935	-7.936224	-4.912727	-15.707081	-0.453908	-0.548512	-0.572484
-0.457417	0.726343	9.783797	-4.026697	0.142167	-0.630127	0.568379	0.522354	-1.618628	-2.465145	-0.456032	9.908689	-64.651195	256.578645	13.239898	0.032986	-0.533633	-1.075993	9.311031	2.211744	-0.054354	-8.627344	-7.781542	-19.510709	-0.426021	-0.54893	-0.556816
-0.621427	0.785597	10.17867	-1.666703	0.027824	-0.424102	0.553487	0.550271	-1.625111	-2.113192	-1.357777	10.141742	-64.633714	259.488373	3.650363	0.046992	-0.559911	-1.13166	9.183094	2.209789	-0.595717	-10.592866	-11.656443	-18.140537	-0.45377	-0.531494	-0.588849
-0.335114	0.727949	10.183996	1.490528	0.041172	-0.310301	0.551973	0.570756	-1.603791	-1.81226	-0.62545	10.828078	-72.679202	262.566837	-5.234755	0.087107	-0.495189	-1.179551	8.77975	2.271036	-0.06401	-12.949874	-11.85259	-14.769591	-0.439992	-0.585651	-0.477573
-0.513724	0.956392	9.840502	3.145074	-0.075071	-0.224949	0.554273	0.505429	-1.600787	-1.265267	-0.568952	12.198356	-84.273707	266.342329	-10.539656	0.12655	-0.50814	-1.208074	8.662818	2.271553	-0.006304	-10.494917	-11.945895	-16.733814	-0.426021	-0.54893	-0.556816
-0.920937	0.610585	9.490141	4.004281	-0.074194	0.048603	0.566865	0.54284	-1.597308	-0.996514	0.164479	14.072915	-88.147986	267.71059	-11.947205	0.19195	-0.460732	-1.226814	8.656756	2.037765	-0.366735	-11.704663	-11.874231	-18.16603	-0.412042	-0.549553	-0.541218
-0.335155	0.78539	10.184237	5.140531	0.080936	0.3852	0.582471	0.556578	-1.653961	-0.513477	-0.229843	15.101767	-85.572033	263.848187	-10.842987	0.30977	-0.4262	-1.274352	9.198501	2.213251	0.24298	-11.939078	-11.774202	-16.087667	-0.453349	-0.51778	-0.543103
-0.574112	0.668502	9.667623	5.509453	0.110603	0.629963	0.567979	0.553425	-1.639536	-0.099162	0.783873	15.734119	-85.417107	254.348311	-9.087821	0.335572	-0.456691	-1.272896	9.070699	2.153219	-0.29863	-9.76221	-11.087833	-13.684646	-0.39841	-0.583386	-0.508418
-0.51925	0.897744	9.555995	5.814787	-0.103784	0.686936	0.581385	0.511395	-1.57675	0.726981	0.952162	16.714059	-90.557348	243.983439	-7.129724	0.388662	-0.391893	-1.321063	9.14018	2.387861	0.302528	-6.933111	-9.756161	-11.348141	-0.425879	-0.550583	-0.525761
-0.28714	1.242951	9.732456	5.599571	-0.040193	0.412578	0.567236	0.546368	-1.611384	1.620946	2.078436	18.26241	-91.781597	232.963525	-5.205813	0.466662	-0.421012	-1.33506	8.907666	1.808135	0.415468	-2.969292	-8.470836	-10.054538	-0.41218	-0.566571	-0.524853
-0.566441	0.842515	10.066318	5.477759	0.176096	0.263105	0.581757	0.514923	-1.590826	2.841346	1.738616	18.797269	-85.875672	218.680895	-5.744035	0.544153	-0.376744	-1.311025	9.019366	1.69023	0.057733	2.957809	-7.500688	-10.141753	-0.453624	-0.551817	-0.510373
-1.320936	1.070649	9.54113	4.711068	0.111403	0.233593	0.553916	0.484602	-1.56922	5.023565	1.959653	18.616839	-74.001339	202.131553	-8.889531	0.63469	-0.377291	-1.298606	9.08597	2.214757	0.540314	7.808825	-6.477967	-9.766915	-0.439996	-0.56698	-0.524994
-0.917721	0.783633	9.661425	4.52832	0.326362	0.176276	0.596249	0.518077	-1.605251	7.367099	0.546213	17.758985	-52.879319	186.429751	-11.556705	0.673102	-0.363889	-1.271737	8.606793	1.458871	0.049041	12.377717	-6.223469	-9.142903	-0.426155	-0.58462	-0.493031
-0.632728	1.012951	9.611104	3.362816	0.198345	0.146883	0.567636	0.515298	-1.590476	8.510639	1.445108	17.500724	-58.857728	160.675721	-14.684799	0.801901	-0.381675	-1.230442	8.968323	1.575943	0.475486	16.939908	-6.418426	-3.504647	-0.42595	-0.549757	-0.541288
-0.401069	0.438852	9.726851	4.434699	0.3308	-0.252733	0.583243	0.529036	-1.647129	9.557049	1.781578	18.032526	-54.879539	138.614065	-10.893613	0.813841	-0.415456	-1.185661	8.66772	1.110527	0.108565	21.495371	-6.538336	0.788747	-0.440551	-0.616383	-0.506955
-0.569741	0.78435	9.895518	4.527383	0.485584	-0.31182	0.569494	0.532939	-1.660856	11.157439	1.440103	17.499694	-42.652579	129.122996	-2.192336	0.865455	-0.356018	-1.162079	8.489841	0.994533	0.044862	22.867673	-6.314598	3.288907	-0.468229	-0.599773	-0.52346
-0.920238	1.185242	9.549408	4.498625	0.76168	-0.276582	0.553487	0.550271	-1.625111	12.729378	1.43552	15.664437	-35.525383	131.637273	6.686121	0.878206	-0.401904	-1.159344	7.958426	1.1119	0.035453	25.426829	-5.711693	7.983657	-0.426576	-0.598334	-0.538777
-0.622707	1.015122	10.122782	4.22017	0.674107	-0.798561	0.568737	0.543182	-1.650196	14.392839	1.375827	15.41625	-22.606696	139.853557	12.1733	0.942425	-0.358784	-1.120684	7.966129	1.11363	0.454801	28.087865	-5.374596	14.757986	-0.426714	-0.615353	-0.522412
-0.740556	1.014481	9.949996	4.22146	0.952083	-0.916719	0.569537	0.481041	-1.608381	16.312457	0.80734	13.644412	-6.396047	143.962781	10.192539	0.953479	-0.395781	-1.032854	8.203834	0.881034	0.518121	30.897386	-4.995008	20.431494	-0.425738	-0.552235	-0.494705
-1.207872	1.529857	9.488435	4.159052	0.89242	-1.101518	0.596249	0.518077	-1.605251	18.258591	0.523932	15.836373	-4.115521	137.890416	1.501974	0.965639	-0.443811	-1.00142	8.068329	0.819272	-0.442838	34.641807	-4.789221	22.526151	-0.426155	-0.58462	-0.493031
-0.919208	1.300366	9.606743	3.63901	1.231513	-1.401191	0.553873	0.5365	-1.621695	17.866658	-2.805729	7.955835	136.072485	63.018956	-10.937185	0.965269	-0.460203	-0.986066	8.311287	1.168919	-0.017604	33.286237	-4.206611	21.916914	-0.44013	-0.60267	-0.461208
-0.918793	0.725951	9.60433	3.728935	1.394292	-2.165511	0.623747	0.510271	-1.577797	25.215704	12.725741	5.915929	18.899096	31.377871	1.786445	0.991001	-0.445804	-0.973272	8.248294	1.458692	-0.197189	32.007167	-3.158543	17.728765	-0.440413	-0.599365	-0.52332
-0.915536	0.841557	9.775372	4.376294	1.699399	-1.702392	0.597021	0.490535	-1.598419	22.08375	8.397599	9.752711	10.615217	-5.088562	6.349675	0.976914	-0.495056	-0.926936	8.30704	1.574709	-0.195594	32.776459	-1.848652	15.549474	-0.439992	-0.585651	-0.477573
-0.338289	0.497459	10.012471	5.395141	2.684056	-1.382639	0.583272	0.494438	-1.612146	20.027086	13.080245	13.56341	17.094548	-50.185748	49.777349	0.977504	-0.492913	-0.955635	8.59992	1.573539	-0.309906	36.510836	-2.151528	16.546099	-0.46767	-0.56904	-0.494078
-0.907865	1.015571	10.174068	7.850189	3.593669	-1.988288	0.583257	0.511737	-1.629638	21.400146	15.77666	8.046437	48.860773	-137.398586	143.411546	0.977429	-0.508233	-0.954632	9.18408	2.732968	-0.473678	41.034186	-0.222631	11.996689	-0.439645	-0.55244	-0.494775
-0.621345	0.670714	10.178187	9.358649	4.833064	-2.248501	0.582143	0.501152	-1.58741	29.525123	30.983999	23.459706	71.190078	-211.649689	206.127256	0.93879	-0.567596	-0.978489	10.058628	3.542029	-0.932965	49.3752	0.642236	2.212245	-0.411967	-0.56905	-0.47827
-0.396947	0.89935	9.956194	13.694996	7.469556	-2.586155	0.596263	0.500777	-1.587759	13.525755	-3.300848	12.110292	234.559931	-161.601446	113.070459	0.848104	-0.59769	-0.988902	11.169842	5.512812	-1.203185	54.107281	4.100659	-17.07486	-0.425946	-0.568428	-0.493868
-0.889185	1.364321	11.142018	11.587274	9.693508	-4.414724	0.610755	0.503931	-1.602184	2.014375	14.639956	18.961123	23.888795	10.574294	103.635293	0.808435	-0.6307	-0.957368	13.692792	8.060374	-1.624243	55.732111	12.877669	-37.0453	-0.426155	-0.58462	-0.493031
-0.349724	0.277625	12.341369	11.102537	15.032247	-3.805189	0.609969	0.548773	-1.626508	-3.909248	2.92182	4.559606	118.466733	-72.685897	-27.806591	0.80836	-0.64602	-0.956364	15.506556	6.774312	-2.613986	46.903574	28.895077	-44.819626	-0.426088	-0.566775	-0.524924
