1757_acc_x	1757_acc_y	1757_acc_z	1757_gyro_x	1757_gyro_y	1757_gyro_z	1757_mag_x	1757_mag_y	1757_mag_z	1758_acc_x	1758_acc_y	1758_acc_z	1758_gyro_x	1758_gyro_y	1758_gyro_z	1758_mag_x	1758_mag_y	1758_mag_z	1759_acc_x	1759_acc_y	1759_acc_z	1759_gyro_x	1759_gyro_y	1759_gyro_z	1759_mag_x	1759_mag_y	1759_mag_z
-9.360459	0.52166	13.985702	-113.919337	-179.182355	11.738261	0.715632	-0.133796	-0.721494	2.965072	4.489676	8.668358	-0.223031	-13.497933	-8.910043	-0.273212	-0.578548	-0.695554	9.020656	-0.285097	-0.130394	-14.061519	3.104036	2.613611	-0.591826	-0.694472	0.007202
-13.336464	1.840367	12.663654	-69.740654	-159.352011	8.83595	0.657149	0.023055	-0.824635	3.251775	3.813077	8.560554	-4.404806	-14.324182	-7.904313	-0.03987	-0.623159	-0.697507	8.724879	-0.458897	-0.196545	-12.815452	3.239355	4.747916	-0.615908	-0.291389	-0.292529
-13.095975	3.553756	10.402337	-117.475305	-189.529464	-2.189051	0.632266	0.038259	-0.933129	3.033386	3.926643	9.122209	-6.563657	-13.930932	-6.576551	-0.03965	-0.637407	-0.710853	8.909631	-0.457572	0.226105	-11.367182	3.184017	4.681807	-0.615629	-0.276022	-0.277838
-14.004122	1.832621	10.7184	-143.128553	-199.780478	-11.973219	0.658621	0.054467	-0.898431	3.212989	3.475913	9.408655	-7.079213	-15.422334	-4.58799	-0.039135	-0.650584	-0.738549	9.017084	-0.169687	-0.30962	-10.081212	3.609358	2.443965	-0.601512	-0.259626	-0.278605
-15.813958	3.332493	11.882957	-153.649843	-208.580775	-13.343356	0.617345	0.100774	-0.974595	2.917478	3.701489	9.062962	-9.703815	-17.240573	1.094997	-0.0395	-0.606766	-0.71286	9.780432	-0.404735	-0.535931	-10.45086	3.948932	2.015796	-0.629399	-0.259208	-0.294273
-17.526396	3.851917	12.13599	-137.142332	-216.040396	-7.991393	0.616574	0.128317	-0.981426	3.92022	2.461239	10.101983	-16.876261	-24.337845	8.016704	-0.078208	-0.62124	-0.725379	9.597072	-0.05711	-0.837283	-11.602973	4.901225	4.185442	-0.629954	-0.308612	-0.276234
-17.787006	4.419743	10.542063	-108.533013	-216.034976	5.911067	0.545942	0.164788	-1.014664	2.889379	4.097096	10.478075	-31.797689	-37.766697	20.757703	-0.039726	-0.652728	-0.709849	9.953639	-0.173578	-0.711361	-12.500896	5.529591	8.18963	-0.643586	-0.274778	-0.309034
-19.264973	5.732043	8.188799	-90.595646	-201.195288	20.267899	0.574526	0.202166	-1.064422	2.445349	4.323944	11.261548	-30.104049	-44.729498	28.890523	-0.052846	-0.623234	-0.697231	10.120244	0.056096	-1.246233	-12.356862	5.894296	11.427287	-0.601441	-0.260452	-0.263077
-22.711007	6.766306	7.614655	-30.766356	-135.415522	34.747591	0.49056	0.194171	-1.072987	3.090324	6.63531	14.730597	12.820381	-54.251272	15.789538	-0.078723	-0.608063	-0.697683	10.83419	-0.525295	-0.995872	-11.85706	6.101063	12.310898	-0.643657	-0.273952	-0.324562
-23.327613	3.642399	2.304266	-37.873642	-100.41059	41.775334	0.476011	0.260214	-1.128529	2.389985	4.436808	11.373713	3.628882	-83.1918	33.036515	-0.117801	-0.638929	-0.694849	10.532776	-0.642256	-1.36131	-10.890369	5.866408	14.631545	-0.629604	-0.294072	-0.246016
-25.528753	7.442636	4.039212	-45.947395	-66.898376	54.882415	0.461162	0.236233	-1.082536	3.065725	4.716598	10.708782	5.755049	-92.458992	42.256903	-0.103349	-0.633495	-0.766873	10.59853	-0.698983	-1.001016	-10.440897	5.80301	17.962007	-0.614585	-0.19506	-0.282024
-25.729835	6.402299	2.496494	-31.357156	-28.429276	62.639074	0.48976	0.256311	-1.114802	2.904925	5.44974	11.328807	-2.735126	-103.769333	47.625555	-0.078503	-0.622312	-0.711029	10.376056	-1.33456	-0.349161	-7.709494	5.964472	21.038675	-0.643027	-0.244046	-0.279653
-25.681344	8.653375	5.064295	3.332604	-4.646363	69.455295	0.433635	0.278637	-1.144973	2.907343	5.449835	11.442087	4.934699	-116.9143	55.147245	-0.104675	-0.608213	-0.697132	10.145358	-1.274708	-0.053781	-4.299897	6.066563	24.174382	-0.629749	-0.273748	-0.324492
-25.145975	10.151066	6.160799	65.412212	34.245931	69.326047	0.476783	0.232672	-1.121697	3.267349	5.393426	12.128968	3.866756	-129.771555	62.541557	-0.144193	-0.610582	-0.667605	10.439609	-1.391782	-0.108681	-1.870498	6.74286	27.647244	-0.629119	-0.243842	-0.279583
-24.078496	13.030841	8.182765	139.091112	80.676075	53.620383	0.490518	0.246069	-1.125462	3.38412	5.167936	12.187836	10.474911	-143.878302	69.28227	-0.131217	-0.610507	-0.667881	10.318545	-1.508406	-0.291097	0.778526	7.599068	31.546535	-0.628844	-0.209804	-0.312312
-22.888567	13.257083	7.58173	227.748101	130.082198	5.752057	0.489775	0.239012	-1.09731	2.970822	4.886611	11.66938	11.789226	-158.970929	75.515707	-0.144193	-0.610582	-0.667605	10.378506	-1.915073	-0.291727	4.770915	8.112928	33.516723	-0.601229	-0.262931	-0.216494
1.353139	4.761987	0.118024	326.010307	149.62752	1.953169	0.534437	0.172561	-1.095355	3.167025	4.605536	12.748922	9.355595	-175.167451	78.775279	-0.182826	-0.609735	-0.681128	11.145331	-1.277745	-0.214795	7.614558	7.951347	29.410737	-0.601095	-0.227241	-0.280279
-2.083456	8.975302	17.686366	123.635047	115.794411	-23.070948	0.563821	0.147799	-1.103297	3.403223	4.661673	13.037003	11.479578	-195.041445	80.306205	-0.196242	-0.581313	-0.65416	13.043003	0.463182	0.546719	10.236107	5.744956	15.900533	-0.629052	-0.225997	-0.311475
-5.363468	0.988465	16.452293	113.690378	140.813131	-60.673154	0.536352	0.121006	-1.095767	3.827378	4.323742	14.008054	8.981109	-216.568486	81.138691	-0.274248	-0.612404	-0.650498	14.337962	1.447257	0.515225	11.624211	1.454058	5.370896	-0.643031	-0.225375	-0.327073
-6.082507	7.091898	6.291389	134.387226	166.163465	-17.743351	0.634838	0.097556	-1.066644	4.230857	3.029674	16.619638	10.290298	-245.287855	75.921252	-0.287959	-0.585054	-0.60918	14.038635	1.853722	0.331733	9.597831	-2.016143	11.935706	-0.656589	-0.211039	-0.296925
-4.956259	5.420922	5.283305	67.156916	113.082128	-10.193242	0.620346	0.094402	-1.052219	4.608472	0.720567	17.927658	37.521983	-276.399788	63.517113	-0.315462	-0.605884	-0.535876	13.331251	1.506886	0.317044	8.087766	-5.155577	22.196122	-0.586907	-0.211671	-0.265518
-4.219969	2.915717	10.629126	18.866756	68.092253	-23.820909	0.634481	0.076728	-1.035076	4.39207	1.05955	18.602782	65.07829	-308.465961	51.165794	-0.35424	-0.575468	-0.537057	12.278534	0.233128	0.651238	7.278726	-5.637874	27.153518	-0.62856	-0.213109	-0.250201
-2.696126	4.116286	9.584049	50.026663	71.938158	-30.473454	0.648601	0.076354	-1.035425	4.9531	3.25732	20.824456	104.985108	-337.519025	42.801006	-0.393908	-0.608478	-0.505523	10.442275	-0.170949	0.196046	5.483607	-3.706519	23.146258	-0.629261	-0.242189	-0.310638
-9.490379	-2.813726	13.05983	17.411784	36.03087	-7.315653	0.64823	0.072825	-1.021349	6.150447	3.592613	20.340372	128.034713	-363.029451	41.826469	-0.395234	-0.583197	-0.435781	9.851169	0.236933	0.186772	3.520692	-2.246523	17.338513	-0.614518	-0.177215	-0.313916
-2.977099	2.036976	6.84196	-6.185971	32.811041	-17.574583	0.690249	0.033575	-0.973338	7.8266	5.502768	18.169307	126.860146	-379.558774	48.413474	-0.434752	-0.585566	-0.406254	9.892348	1.278705	-0.646374	4.721994	-2.336402	11.649236	-0.614585	-0.19506	-0.282024
-4.023983	2.391339	8.925816	0.041033	14.020688	-24.799121	0.662336	0.08975	-1.03919	5.802641	7.139888	17.845172	87.214274	-387.349416	44.080423	-0.488283	-0.621866	-0.331396	9.708717	1.742482	-0.947232	-4.423547	-2.48844	8.412596	-0.642472	-0.194642	-0.297692
-3.436714	2.049412	9.674593	-1.7042	19.620083	-17.893925	0.648244	0.055526	-1.003858	6.388894	5.000872	20.856149	79.773519	-393.712456	53.291463	-0.462996	-0.63918	-0.302244	9.292188	2.265617	-1.072524	-12.631128	-3.716892	9.028923	-0.656659	-0.210212	-0.312453
-3.876675	2.328466	7.678147	8.569393	14.640702	-8.251271	0.646701	0.11061	-1.017521	5.524322	2.803024	17.892116	91.984481	-390.463788	50.250395	-0.516081	-0.643768	-0.243742	9.411301	1.800739	-1.072301	-15.361442	-6.86086	10.429255	-0.614447	-0.178041	-0.298389
-3.008086	2.674665	8.207975	6.655804	8.223134	-1.449585	0.675728	0.06502	-0.993896	8.072455	2.796515	15.964131	101.182538	-371.262272	50.263328	-0.504431	-0.618411	-0.174276	9.052802	1.80056	-1.318531	-13.828989	-10.318582	8.147822	-0.642401	-0.195468	-0.282164
-2.602933	2.790223	8.443664	2.511574	5.813541	0.639275	0.661979	0.068923	-1.007623	12.354546	6.566206	20.13361	111.191884	-310.625766	43.658707	-0.532304	-0.655634	-0.085619	9.239869	1.279449	-0.838199	-12.827126	-13.424326	4.185647	-0.614585	-0.19506	-0.282024
-2.88747	1.929048	8.49133	-0.83121	3.98876	2.980645	0.703569	0.095341	-1.015502	7.659008	2.299309	26.202174	138.161325	-328.31711	48.591928	-0.559582	-0.630502	-0.015326	9.651186	1.103781	-0.951052	-10.717812	-15.434688	-1.802778	-0.614306	-0.179694	-0.267333
-3.266313	2.393696	9.622528	1.777583	3.301538	5.016669	0.702812	0.105584	-1.004842	-17.684289	-3.526848	8.284217	97.70462	-279.649149	5.695789	-0.573368	-0.618473	0.026995	10.24604	1.452123	-0.63903	-5.954064	-17.223593	-7.58766	-0.614585	-0.19506	-0.282024
-3.057255	2.274304	8.603144	4.869569	3.012848	4.635073	0.689463	0.078416	-0.997661	-29.900233	-22.900187	-13.163134	89.52484	-67.922504	-19.675139	-0.548748	-0.653251	0.08585	10.363512	1.219302	-0.697725	-0.212074	-17.778652	-11.089713	-0.627934	-0.164532	-0.252712
-2.875636	2.506117	9.119127	4.814662	3.839182	4.924664	0.703212	0.074513	-0.983934	-3.961382	4.45501	18.430336	1.861634	234.263199	-149.648104	-0.535326	-0.621463	0.069217	10.48172	2.090667	-0.572001	6.304418	-16.471577	-11.027868	-0.614164	-0.181346	-0.236277
-3.451853	2.96534	8.939364	2.975199	3.675896	5.019306	0.68982	0.099244	-1.029229	-10.28005	8.476627	30.076924	13.49298	180.449065	-64.552302	-0.547717	-0.679604	0.030458	10.315115	1.860993	-0.03713	12.843547	-13.468651	-9.323937	-0.641842	-0.164736	-0.252783
-2.88195	3.538859	8.839206	2.38123	3.206158	2.83601	0.689048	0.126786	-1.03606	-6.394941	-2.925668	11.579015	40.836548	113.485515	16.308834	-0.533705	-0.645673	-0.014874	10.556372	1.04813	0.143532	12.252703	-8.952857	-5.523216	-0.65603	-0.180306	-0.267543
-2.942296	3.193527	8.666085	-3.917064	1.875532	1.053794	0.705084	0.074855	-1.036822	-6.223975	-1.632726	8.92288	39.116313	141.474953	-3.699159	-0.52088	-0.676238	-0.013143	10.383009	0.410193	0.257325	9.275144	-5.322146	-2.718069	-0.655679	-0.165766	-0.237325
-2.997981	2.561953	8.71917	-5.942571	1.466924	1.022316	0.731453	0.073764	-0.984633	-5.880143	-1.692135	6.155954	4.148381	186.176694	11.361097	-0.573004	-0.66229	0.001306	9.451531	0.124693	0.897457	10.827939	-2.760717	-4.386265	-0.65603	-0.180306	-0.267543
-2.98767	2.162034	9.229159	-4.957264	1.301852	2.427507	0.690992	0.040631	-1.00149	-4.841219	-2.254948	8.951372	-26.168598	235.615865	6.711384	-0.54572	-0.627212	-0.058651	9.746051	-0.108533	0.842064	12.397775	-2.097877	-5.83151	-0.669867	-0.181337	-0.252086
-3.163022	2.506083	9.056707	-6.575424	1.620496	3.480035	0.647087	0.096839	-1.014105	-4.487295	-0.396214	9.526587	-49.08081	267.048603	-3.506435	-0.558557	-0.717065	-0.081053	9.390739	0.414961	0.837686	12.587371	-1.174494	-6.325585	-0.642401	-0.195468	-0.282164
-3.101397	2.62189	9.285715	-5.065398	2.167118	4.680592	0.662722	0.075979	-1.035775	-4.122584	-1.015785	10.382912	-45.806482	286.176153	-5.871997	-0.532084	-0.669882	-0.098965	8.869208	0.069698	1.305554	12.360343	-1.526579	-7.85114	-0.642889	-0.227027	-0.296018
-3.269819	2.622738	9.452934	-4.417249	2.876949	4.690263	0.689834	0.081944	-1.011737	-1.960007	-0.006832	9.353552	-53.643754	307.386032	-20.988179	-0.530313	-0.663451	-0.185064	8.510574	0.127595	1.059571	13.941735	-2.68983	-10.173926	-0.642401	-0.195468	-0.282164
-2.986846	2.564366	9.287701	-2.999275	3.485993	5.769423	0.690234	0.050874	-0.990829	-1.555039	0.837514	9.532645	-56.151166	332.900066	-29.21332	-0.503256	-0.674334	-0.242011	8.22057	-0.161121	1.29246	16.609103	-3.613622	-11.615507	-0.641909	-0.182581	-0.22089
-3.333713	2.56389	9.110461	-4.619684	4.06161	5.844776	0.703583	0.078042	-0.99801	-1.378609	0.781002	9.706143	-62.569097	349.220299	-43.389902	-0.515051	-0.670121	-0.299134	8.097285	-0.743095	0.928345	20.276426	-4.248464	-11.075675	-0.628072	-0.18155	-0.236347
-3.501023	2.56498	9.334533	-2.007337	5.430121	5.491495	0.675371	0.044192	-0.962328	-0.490173	1.005703	10.913898	-69.872019	364.483709	-52.275459	-0.501415	-0.712792	-0.339448	7.969909	-0.512498	0.447878	22.285257	-3.690975	-11.055049	-0.655541	-0.148748	-0.25369
-3.155062	2.278006	9.453713	-0.891362	7.276704	5.732962	0.676471	0.072076	-1.022048	0.446505	1.680609	11.726764	-66.159774	364.065104	-60.660939	-0.44774	-0.70606	-0.426649	8.029486	-0.280082	0.509875	23.827038	-3.623307	-11.152635	-0.655608	-0.166593	-0.221797
-2.99027	2.678525	9.117624	1.760687	9.057146	7.011601	0.661979	0.068923	-1.007623	1.538846	2.410858	11.75035	-58.43505	353.603284	-69.451357	-0.434474	-0.765123	-0.45161	8.085606	-0.455187	0.330513	23.709455	-3.106893	-10.849072	-0.642468	-0.213313	-0.250271
-2.653465	2.73427	8.783428	-0.699315	8.380747	6.026353	0.716961	0.07061	-0.970208	2.799672	2.182927	11.493558	-58.414279	337.473371	-78.119338	-0.419652	-0.743296	-0.538988	7.841163	-0.165997	-0.092001	22.947587	-2.754261	-9.717263	-0.656376	-0.213517	-0.250341
-2.995796	2.619877	8.833118	-1.924443	9.436905	4.544364	0.689863	0.047346	-0.976753	3.87375	2.349112	10.610436	-70.996271	314.813379	-81.560795	-0.367453	-0.741924	-0.55444	8.436131	-0.340587	0.157889	22.893558	-2.489584	-8.70983	-0.642047	-0.1996	-0.204525
-2.650166	2.792436	8.954229	-3.689549	10.581769	5.856064	0.703955	0.08157	-1.012086	4.097883	3.024458	10.389282	-93.151943	283.537866	-78.376272	-0.327124	-0.75166	-0.626013	8.379876	-0.107406	0.337498	23.512369	-2.926014	-7.701479	-0.669792	-0.200834	-0.189138
-3.391134	2.793698	9.110313	-3.616737	12.802294	5.217271	0.717718	0.060368	-0.980868	4.849021	4.093526	10.632457	-123.826982	256.095657	-70.136101	-0.313488	-0.794331	-0.666327	8.615786	-0.514725	0.280263	23.606081	-3.114259	-7.211943	-0.642468	-0.213313	-0.250271
-3.44484	2.507256	9.278552	-5.019976	13.809463	5.268346	0.687205	0.091845	-0.948189	5.22224	4.713653	11.999583	-152.500412	238.073335	-61.738701	-0.274039	-0.747073	-0.684514	8.313677	-0.806161	-0.145824	24.43321	-3.56663	-7.548951	-0.684192	-0.213926	-0.250482
-2.81962	2.678159	9.064112	-2.086133	17.295541	5.316559	0.704341	0.067799	-1.00867	5.584847	6.068082	15.6317	-156.369597	223.740096	-54.640758	-0.181587	-0.770757	-0.770536	8.202652	-0.978635	0.210675	24.574711	-4.256062	-8.860291	-0.656585	-0.22971	-0.249504
-3.337836	2.103393	8.881118	-9.724988	16.341843	4.985709	0.71769	0.094966	-1.015851	6.296614	5.842273	16.608891	-133.839953	213.97712	-53.949221	-0.193827	-0.798257	-0.811302	7.843904	-0.397807	0.026824	24.601748	-4.310824	-9.47134	-0.683983	-0.197733	-0.251319
-2.921632	2.336247	9.685821	-6.903801	17.227261	3.949297	0.703183	0.109112	-1.018918	7.177065	7.080686	17.534301	-116.857864	214.915713	-56.88539	-0.101884	-0.748555	-0.859292	8.619762	-0.804364	0.458747	23.801171	-4.315914	-9.254493	-0.670422	-0.23074	-0.234047
-3.562773	2.621498	9.106248	-4.83437	20.320581	3.042931	0.689091	0.074888	-0.983585	8.09032	7.36033	17.214043	-103.032164	210.961026	-57.530133	-0.049905	-0.732934	-0.861399	8.97579	-0.688527	0.585658	22.911936	-3.769793	-9.131637	-0.656585	-0.22971	-0.249504
-3.792862	2.563981	9.0447	-8.91462	19.311257	3.651617	0.674228	0.068206	-0.955084	10.020626	7.524614	16.009217	-103.030734	201.804807	-52.874278	-0.035384	-0.772389	-0.944762	9.033706	-0.68891	0.526852	22.483808	-3.467664	-8.917603	-0.670422	-0.23074	-0.234047
-3.391009	2.621373	9.109589	-11.359855	21.502453	1.854223	0.703212	0.074513	-0.983934	12.835957	7.800795	15.842133	-116.267623	196.639866	-47.357012	-0.010092	-0.729494	-0.905275	9.623037	-0.806659	0.477455	22.514965	-2.723018	-9.929769	-0.656163	-0.215996	-0.203758
-3.611036	2.508586	9.559477	-12.891415	22.275001	0.859154	0.717718	0.060368	-0.980868	16.864111	7.905864	15.870211	-116.414158	199.585488	-48.499163	0.06902	-0.709435	-0.965332	9.327261	-0.980459	0.411304	23.672631	-1.664059	-8.410982	-0.656514	-0.230536	-0.233977
-3.220893	1.816585	8.995845	-14.051917	23.196303	0.44812	0.702826	0.088284	-0.98735	20.706749	9.024779	15.385761	-104.797908	207.983221	-59.842209	0.094457	-0.696109	-0.938188	9.682073	-0.341939	0.54044	24.893964	-0.608655	-6.525656	-0.684121	-0.214752	-0.234954
-3.672247	1.818364	9.328055	-17.03094	20.8158	-4.948958	0.716589	0.067082	-0.956132	22.920632	10.146048	14.074506	-76.894573	206.340871	-77.837246	0.159852	-0.70891	-0.967262	9.741629	-0.574378	0.540551	25.79824	-0.251921	-5.216491	-0.712492	-0.264564	-0.217055
-4.091999	1.871995	8.354	-18.695147	18.732246	-11.602636	0.729938	0.09425	-0.963312	25.861622	10.363727	11.702057	-44.196407	203.327398	-92.266039	0.159927	-0.69359	-0.968266	9.794853	-0.924452	0.180727	26.924432	0.063021	-2.746558	-0.642744	-0.247351	-0.217541
-3.047353	0.897637	9.052177	-58.928609	22.116445	-28.331879	0.731067	0.087535	-0.988049	26.727123	9.064124	9.001608	-2.34868	203.725295	-104.834624	0.224587	-0.678966	-0.956299	10.558357	-0.752721	0.016054	28.322052	0.266376	-1.22447	-0.628348	-0.215588	-0.203618
-5.13494	8.391645	28.42233	-85.322164	28.453615	9.080089	0.758551	0.097029	-0.978087	27.760376	7.820339	6.078274	30.826696	193.964579	-107.432455	0.277526	-0.644809	-1.002458	11.027839	-1.509779	-0.217984	29.885265	-0.734582	-1.500417	-0.656514	-0.230536	-0.233977
-2.763567	0.622085	11.841226	87.060113	143.295697	-14.206416	0.745173	0.10446	-1.005889	29.414738	5.955211	2.544682	44.784931	160.584234	-99.924717	0.328394	-0.678366	-0.958504	11.972368	-1.628091	-0.200872	28.592108	-1.767597	0.34296	-0.670493	-0.229914	-0.249575
-3.554196	3.08296	9.563003	0.963996	129.102545	-22.255866	0.771542	0.103369	-0.9537	32.629802	5.777467	-0.501731	43.784144	117.194023	-86.363909	0.328319	-0.693686	-0.957501	12.44077	-1.920541	-0.432932	25.180611	-2.795006	3.875008	-0.670351	-0.231567	-0.218519
-2.64517	5.403684	15.159848	-16.928336	138.107601	-27.210883	0.785692	0.068395	-0.919066	32.41251	6.339389	-2.543909	20.22602	77.263794	-52.103286	0.393424	-0.64735	-0.96189	12.395635	-2.207819	0.283614	21.00555	-3.435406	8.172193	-0.670418	-0.249412	-0.186626
-2.682821	5.108274	13.225636	9.718962	169.088003	-42.182192	0.799426	0.081792	-0.922831	33.908188	17.950968	9.273493	80.963902	38.170485	-21.185848	0.367687	-0.721958	-0.98502	12.334593	-1.336543	0.286222	19.467005	-4.502717	10.291854	-0.670422	-0.23074	-0.234047
-2.376915	4.135662	14.193604	-12.360752	185.016146	-55.480039	0.840673	0.070083	-0.88165	26.901148	10.411155	3.797947	102.980623	-57.07606	50.764574	0.380003	-0.679138	-0.945258	11.805378	-1.218682	0.396626	17.401137	-5.286523	11.434001	-0.670351	-0.231567	-0.218519
-3.033288	4.832213	15.775024	-13.123268	206.316222	-65.347394	0.827324	0.042916	-0.87447	22.019783	14.028564	7.265311	181.209554	-120.6676	150.838621	0.366506	-0.726246	-0.927621	10.860445	-0.926141	0.380256	19.434895	-5.773348	11.887445	-0.67028	-0.232393	-0.202991
-2.97838	3.452851	15.599787	-14.851416	235.393975	-68.397462	0.896027	0.075299	-0.858311	1.208688	2.618513	-9.090416	213.79121	-144.356833	167.220208	0.353455	-0.741641	-0.926342	11.563022	-0.406066	0.156058	25.953291	-5.745125	8.440383	-0.642811	-0.265196	-0.185649
-3.015544	1.84863	16.558419	-16.085569	262.3027	-67.09692	0.909376	0.102467	-0.865492	-5.694789	19.053422	24.804208	149.837591	-78.462152	194.869747	0.326467	-0.775648	-0.880734	13.083487	1.330479	-0.347075	35.974615	-3.479111	-6.124223	-0.684117	-0.233423	-0.187534
-2.391199	1.055132	19.181418	-12.573843	296.133286	-62.660043	0.949894	0.066402	-0.778668	7.649452	9.336045	20.999676	105.909717	-164.271077	182.231491	0.261581	-0.836233	-0.88969	14.891134	1.728128	-1.449462	38.177645	0.284138	-20.268716	-0.698442	-0.266012	-0.18593
-2.133018	-0.777132	20.599477	8.664663	341.118401	-49.748288	0.948751	0.090416	-0.771424	11.469916	14.270657	3.647103	141.720789	-212.673959	81.685055	0.209087	-0.838677	-0.859888	14.883566	1.668321	-1.869057	27.260363	7.242783	-13.661707	-0.683979	-0.216404	-0.203898
-3.036586	-2.669627	21.142229	30.465791	386.219384	-25.886633	0.959499	0.092885	-0.680073	7.922026	10.165733	4.191724	42.264706	-166.212442	31.071103	0.169569	-0.841046	-0.830361	13.037174	2.307882	-2.739148	23.824795	13.574701	2.915447	-0.655813	-0.201456	-0.173539
-3.066232	0.106468	25.586126	63.654813	414.187183	8.3016	1.016381	0.060317	-0.660562	2.91373	2.35404	14.15697	0.390824	-118.860259	10.605558	0.208491	-0.90103	-0.841524	11.337675	2.372593	-2.111838	24.073757	17.121172	15.031953	-0.656372	-0.232189	-0.202921
-6.406095	3.436862	24.682743	126.534056	436.59669	33.108592	1.069863	0.06519	-0.584335	1.727604	2.861843	12.54731	48.714062	-108.848415	51.5937	0.156518	-0.856441	-0.829082	8.743726	2.61158	-1.979548	19.755076	19.164951	22.985397	-0.68433	-0.230944	-0.234117
-16.164073	5.022272	17.45265	151.56817	445.417311	23.092018	1.09626	0.0295	-0.497162	1.403895	5.334971	5.692378	73.237221	-109.675557	66.250288	0.155406	-0.905618	-0.783022	7.74937	2.092922	-1.581132	13.234114	21.163655	28.624208	-0.670493	-0.229914	-0.249575
-7.677257	3.755078	18.237522	138.084438	409.101991	24.410209	1.110067	-0.0436	-0.413468	2.246136	9.33702	10.469188	36.225391	-98.024851	47.12821	0.116629	-0.875202	-0.784202	6.827795	1.809647	-0.401837	17.187597	22.314222	28.176418	-0.711795	-0.216813	-0.204039
-7.196761	4.404015	22.341393	185.109131	376.85162	5.473366	1.150156	-0.013995	-0.382535	9.818271	2.56395	11.471458	-115.697683	-48.671808	43.550204	0.077551	-0.906068	-0.781368	7.250792	1.346072	0.083143	17.136138	24.088922	16.277062	-0.683979	-0.216404	-0.203898
-9.579503	3.318951	23.370251	192.676522	380.547857	-14.269613	1.147584	-0.073292	-0.24902	1.512069	0.999073	7.672322	57.25172	-18.183478	22.13392	0.06524	-0.888679	-0.810795	8.674592	0.995858	0.467512	12.821354	24.090375	-0.151207	-0.697749	-0.19959	-0.220334
-0.047425	1.766939	24.913049	184.472113	396.287339	-47.055826	1.131606	-0.090559	-0.178291	3.571228	6.62815	7.607305	12.268302	-13.989691	1.484109	0.052039	-0.934715	-0.807508	9.858932	1.63323	0.791775	11.346018	23.137775	-9.126471	-0.684121	-0.214752	-0.234954
6.101188	-6.305391	5.392128	218.290062	344.424447	-66.159314	1.12972	-0.073602	-0.142895	3.30375	4.207093	8.335537	-14.759536	-5.464518	14.618451	0.090827	-0.844711	-0.785658	10.671393	1.395822	0.027402	9.619814	22.381955	-13.547829	-0.683979	-0.216404	-0.203898
33.086199	-20.26612	-17.101315	50.582704	146.366654	6.159222	1.171338	-0.081782	-0.115791	2.845753	4.151719	8.439097	1.278485	-3.364368	5.89688	0.077921	-0.889676	-0.796721	11.536537	1.040643	-1.095806	8.906696	20.430582	-11.457868	-0.684397	-0.248789	-0.202224
6.317038	1.414852	10.884587	-125.151789	-157.157326	128.647857	1.141968	-0.074319	-0.090356	3.3769	3.644249	9.015946	-4.641886	-2.521474	6.177954	0.117294	-0.857738	-0.813905	10.829173	1.158662	-1.04861	4.84041	17.393345	-12.009292	-0.684889	-0.261677	-0.263498
11.64842	3.727702	28.956449	-112.624054	-201.662346	41.541949	1.14274	-0.101861	-0.083524	3.043488	3.7017	9.575136	-5.1398	-0.983071	-0.311915	0.06502	-0.874431	-0.797449	11.841792	0.926041	-0.551636	0.087496	14.338578	-14.055563	-0.684263	-0.213099	-0.26601
6.468785	-5.159079	18.361445	-14.914827	-95.266228	25.97139	1.158332	-0.070823	-0.157669	2.754321	3.138839	9.455338	-1.225356	-1.696902	-0.778285	0.064945	-0.889751	-0.796445	11.440783	0.929705	0.099637	-6.52216	12.632204	-8.094812	-0.712146	-0.231353	-0.234257
7.402998	-1.528764	7.76763	-4.682264	-116.253825	50.528384	1.145355	-0.094462	-0.164564	2.868698	3.532937	9.458088	-3.265873	-1.902335	-1.460186	0.103207	-0.90699	-0.767569	10.549188	0.34924	-0.33869	-7.313877	10.964775	-3.897075	-0.670351	-0.231567	-0.218519
7.851592	-2.335448	7.261482	-31.563476	-159.439747	26.724835	1.174739	-0.119225	-0.172507	3.025009	3.250297	8.668523	-2.561699	-2.528033	-2.883927	0.06465	-0.890823	-0.782095	10.086538	0.061918	0.130525	-2.988762	8.756076	-4.75793	-0.685098	-0.277869	-0.262661
8.349895	-3.488512	6.357028	-51.988551	-202.026073	30.630177	1.146827	-0.063049	-0.23836	2.619333	4.039632	8.604085	-4.113255	-3.213215	-4.279242	0.06465	-0.890823	-0.782095	9.666572	0.642387	-0.17424	-0.319994	7.456618	-5.372626	-0.684401	-0.230118	-0.249645
7.579298	-1.642806	7.997901	-90.470491	-234.341216	35.060827	1.176182	-0.053214	-0.281286	1.882725	3.590815	9.097747	-3.037088	-3.569897	-3.911989	0.064945	-0.889751	-0.796445	9.29873	0.872534	-0.898737	0.780198	6.858252	-6.290599	-0.68433	-0.230944	-0.234117
7.254737	-0.144735	9.020849	-114.449713	-257.800852	26.623473	1.17804	-0.035572	-0.351666	2.39095	4.32181	8.712766	-4.274938	-3.739508	-3.822188	0.039288	-0.888829	-0.810243	8.938841	0.523405	-1.266264	3.025788	7.311011	-7.890071	-0.712425	-0.246719	-0.248948
5.760057	0.544434	8.710529	-121.967391	-283.174305	19.824519	1.122658	-0.00619	-0.409989	2.862307	3.082008	9.117871	-6.135951	-4.287966	-3.274237	0.0648	-0.860182	-0.784103	8.634396	0.289551	-1.811917	3.949712	8.030537	-9.119282	-0.656793	-0.245902	-0.248667
4.067703	1.010759	9.986676	-115.808816	-305.935691	16.002921	1.179512	-0.00416	-0.425461	2.629651	3.702028	9.056918	-5.777845	-5.322679	-3.777483	0.064945	-0.889751	-0.796445	8.568642	0.346279	-2.172212	2.01574	8.721469	-8.565483	-0.670564	-0.229088	-0.265102
2.065154	2.218964	10.066477	-110.982872	-317.963187	14.781881	1.139765	0.004363	-0.505454	2.909124	3.644826	8.666438	-4.208174	-5.705975	-3.07099	0.051523	-0.921539	-0.779812	8.582833	0.872424	-1.33129	1.25706	9.533939	-7.527542	-0.670493	-0.229914	-0.249575
0.015005	2.395193	10.595647	-111.037245	-315.037607	11.885634	1.125959	0.077463	-0.589148	2.629543	3.758358	9.056965	-7.413745	-4.963114	-0.969881	0.064575	-0.906143	-0.781092	7.98991	0.640729	-1.523004	1.611043	9.941684	-5.42204	-0.698379	-0.229496	-0.265243
-1.565357	3.263043	11.762003	-110.206884	-298.54079	9.360405	1.128202	0.081334	-0.656111	2.965934	4.039032	8.667978	-4.790446	-5.144658	-0.938747	0.077996	-0.874355	-0.797724	8.000355	0.41065	-0.984831	3.489935	9.765847	-5.51969	-0.68433	-0.230944	-0.234117
-3.343668	3.378487	11.557409	-99.943895	-276.720441	10.574399	1.059457	0.100848	-0.724745	2.679101	4.15228	8.718668	-2.835466	-4.359156	-0.03535	0.078291	-0.873284	-0.812074	8.598894	0.12065	-0.555714	2.807194	9.119731	-5.391888	-0.68433	-0.230944	-0.234117
-3.566668	4.299165	11.897934	-93.508503	-261.585431	16.229366	1.060572	0.111433	-0.766973	2.982104	4.43401	9.461265	-7.004266	-4.172584	0.857166	0.051969	-0.889826	-0.796169	8.183695	-0.401831	-0.745363	-0.271292	6.922599	-6.959446	-0.670705	-0.227435	-0.296158
-4.303223	4.358834	12.281672	-87.160135	-256.566022	23.866655	0.976177	0.169107	-0.831429	2.798135	2.743849	8.77654	-6.868628	-5.815107	-0.916258	0.038918	-0.905221	-0.79489	7.94655	0.063317	-0.747787	0.503855	4.119355	-7.743464	-0.656514	-0.230536	-0.233977
-5.213519	4.073496	12.546915	-81.846407	-254.901471	31.176154	0.976892	0.210762	-0.894565	2.808822	3.47662	9.343553	-2.775502	-7.191601	-2.868814	0.027128	-0.840799	-0.841678	7.829078	0.296139	-0.689092	0.433921	2.644505	-7.124951	-0.657002	-0.262095	-0.24783
-5.215497	3.728364	12.431761	-74.168059	-246.244827	36.047158	0.919309	0.184376	-0.833448	2.798959	4.208584	8.947692	-0.058519	-7.337884	-3.361329	0.05212	-0.859185	-0.798177	7.770197	0.238198	-0.69044	-3.710433	0.480483	-6.335585	-0.698659	-0.244862	-0.279934
-6.109464	3.963619	13.551972	-70.348853	-233.295769	35.203888	0.920767	0.233088	-0.924735	2.502108	3.870761	8.488246	0.067605	-6.864778	-0.427865	0.064951	-0.829541	-0.78611	7.951222	-0.051846	-0.508654	-7.364461	-1.365443	-6.558033	-0.698517	-0.246515	-0.248878
-5.662972	2.984127	12.931394	-57.8543	-218.830911	31.692693	0.864628	0.272713	-0.972398	2.97241	3.813947	8.950987	-2.550272	-6.426228	-2.244464	0.064505	-0.861254	-0.769753	7.836201	-0.399537	-0.392525	-9.851952	-3.259485	-7.640186	-0.670493	-0.229914	-0.249575
-5.828712	2.353601	13.209664	-52.899834	-207.296416	25.733177	0.894341	0.303377	-1.046892	3.037336	3.757794	9.291986	0.358605	-8.472084	-2.601573	0.051819	-0.920467	-0.794162	8.186166	-0.517489	-0.626044	-11.958283	-4.335111	-7.871913	-0.670698	-0.264778	-0.201317
-5.791501	2.349217	12.187422	-57.038236	-202.273402	17.854021	0.808846	0.333166	-1.051629	2.922036	5.110036	9.403985	4.516055	-9.54759	-3.564587	0.090677	-0.875352	-0.78365	8.065953	-0.052857	-0.686174	-16.358679	-4.491289	-6.113244	-0.684609	-0.246311	-0.248808
-6.397833	2.239856	13.368606	-89.015127	-213.478709	5.497759	0.78059	0.351215	-1.068422	2.293798	3.139701	9.445667	10.342848	-10.853582	-8.258698	0.091638	-0.856816	-0.827703	8.239565	0.004072	-0.862346	-20.738436	-3.320477	-2.527236	-0.72668	-0.280134	-0.231816
-7.391999	2.708096	15.226646	-108.881588	-237.306784	-9.27676	0.724065	0.404611	-1.1195	3.508477	2.630653	9.697186	10.3119	-12.446315	0.81966	0.092228	-0.854672	-0.856403	8.345898	-0.173146	-1.519863	-26.470857	-1.292366	0.509548	-0.698588	-0.245688	-0.264406
-8.679119	3.175095	16.737999	-108.696073	-266.427045	-24.196176	0.641985	0.379659	-1.163461	3.274073	3.532278	9.57983	6.093184	-16.329662	0.315233	0.06524	-0.888679	-0.810795	8.350434	-0.230233	-1.280482	-30.524784	0.091596	1.34283	-0.657211	-0.278287	-0.246993
-10.961294	2.891234	17.090225	-97.415621	-299.271927	-34.792108	0.61183	0.431964	-1.16235	3.329975	3.137761	9.467428	0.217824	-17.063138	-2.101374	0.038993	-0.889901	-0.795894	8.582637	-0.464066	-1.516697	-33.992539	1.011265	2.909735	-0.670839	-0.263125	-0.232373
-14.348623	1.915002	16.508749	-79.672232	-323.250602	-37.931837	0.539698	0.471621	-1.156776	2.840791	3.1962	10.815945	7.361356	-23.431148	0.800554	0.053005	-0.855969	-0.841226	8.759821	-0.522547	-1.513643	-35.267435	2.272779	4.711597	-0.684121	-0.214752	-0.234954
-18.902616	3.060593	14.890576	-71.714034	-324.170968	-32.233572	0.497679	0.510872	-1.204788	3.335935	3.814012	9.807834	5.750992	-30.16792	10.258266	0.064725	-0.875502	-0.783099	8.577	-0.407226	-1.815984	-35.190538	2.989191	6.450061	-0.670634	-0.228262	-0.28063
-23.1512	3.92287	14.243266	-80.213083	-304.518695	-26.430217	0.415614	0.46862	-1.231257	4.392078	2.855165	10.678382	-13.963228	-50.783712	29.244111	0.064355	-0.891895	-0.767746	8.641768	-0.987133	-1.577729	-33.136404	3.85998	8.730819	-0.684471	-0.229292	-0.265173
-27.365707	4.492832	12.401949	-84.569665	-266.569346	-18.072195	0.399978	0.48948	-1.209588	3.188044	7.763473	16.715141	21.97222	-45.833915	-6.100068	0.051894	-0.905146	-0.795166	9.175094	-1.452709	-1.509896	-28.004587	4.28616	10.696937	-0.712425	-0.246719	-0.248948
-29.32113	4.939498	9.012802	-79.026953	-224.670437	-1.796918	0.316756	0.488542	-1.246304	3.295753	3.817168	13.317072	14.782865	-102.376537	32.823988	0.06502	-0.874431	-0.797449	9.417181	-2.149172	-1.268833	-22.113787	3.806234	11.808818	-0.698029	-0.214956	-0.235024
-32.58975	5.85996	8.725782	-15.742147	-147.128129	16.116186	0.272136	0.503094	-1.195785	2.261065	5.957521	10.862819	26.818879	-108.193136	30.771915	-0.00082	-0.893342	-0.752017	10.659997	-1.279631	-0.942481	-18.896996	3.922159	13.538873	-0.684334	-0.212273	-0.281538
-31.731529	6.408822	2.891256	-11.018067	-83.341414	38.84793	0.230117	0.542345	-1.243797	2.639335	6.465176	12.456409	8.329157	-121.35052	36.237375	6.5e-05	-0.890126	-0.795066	11.143515	-1.917323	-0.397235	-15.738813	3.907936	16.003386	-0.684401	-0.230118	-0.249645
-36.330342	9.752714	4.918623	4.690356	-41.864935	69.398609	0.243481	0.552213	-1.233486	2.173199	6.240479	12.16335	12.604506	-136.083718	49.90659	-0.039598	-0.862926	-0.753197	11.446029	-1.800115	0.02811	-14.443702	4.412354	20.917637	-0.684613	-0.227639	-0.296228
-34.008883	7.160115	3.53209	50.966263	12.74847	91.762995	0.243895	0.503843	-1.195086	2.564068	6.239251	11.605416	13.643593	-150.763173	58.240211	-0.091282	-0.877475	-0.76544	11.039924	-1.971915	0.379107	-12.077059	5.090314	24.207214	-0.698309	-0.230322	-0.249715
-31.264286	11.536027	6.502272	88.043595	62.399992	99.788312	0.272522	0.489323	-1.192369	2.868496	6.408367	12.404557	9.884848	-166.213347	66.963285	-0.078456	-0.908041	-0.763709	11.348345	-2.027699	1.103244	-7.726454	4.758107	25.293521	-0.711519	-0.182775	-0.236769
-30.950301	11.714176	7.92989	151.036871	120.575971	75.693678	0.25953	0.482983	-1.216756	2.895498	5.564405	13.593277	12.531664	-185.460845	77.164764	-0.118565	-0.912553	-0.705483	11.114076	-1.852436	1.219398	-3.716439	4.489644	26.013936	-0.683912	-0.198559	-0.235791
-28.579083	17.96729	6.524779	237.270982	197.833401	-8.476983	0.316413	0.450415	-1.197245	3.193104	5.507915	14.052391	17.494192	-207.629085	82.775991	-0.131836	-0.9137	-0.690857	10.938418	-1.503081	1.337394	-2.049727	4.119723	26.865606	-0.711799	-0.198141	-0.251459
-0.649338	12.679472	-2.444923	304.538427	249.508241	-64.118102	0.347312	0.405166	-1.226508	3.373677	4.55021	14.33841	20.416273	-232.57554	86.230567	-0.183074	-0.896536	-0.719457	12.648752	0.875109	1.619071	-0.17326	1.92356	18.035034	-0.711519	-0.182775	-0.236769
-3.326814	12.349201	27.394403	185.27146	220.025287	-50.325933	0.403465	0.348242	-1.161353	3.19123	4.834191	16.599395	21.309021	-262.068097	85.321739	-0.236084	-0.885803	-0.661959	15.23458	3.655829	1.43973	5.473582	-5.194518	-4.53863	-0.710968	-0.1147	-0.302228
-9.061587	6.211784	14.867956	165.801991	226.031417	-51.736628	0.43435	0.320293	-1.208108	2.345995	4.388212	20.091329	28.137433	-298.317002	85.584001	-0.249424	-0.842061	-0.635995	17.355185	3.940606	1.300861	19.392852	-14.779107	-16.400696	-0.684263	-0.213099	-0.26601
-5.20865	6.035533	1.189196	123.393729	227.39841	8.034069	0.461491	0.291659	-1.149087	4.335315	1.120757	24.036605	55.340721	-343.206374	78.346192	-0.314304	-0.842436	-0.634616	15.513114	2.721734	0.422859	2.124837	-15.043672	6.217584	-0.684058	-0.178236	-0.314267
-2.126046	1.357713	9.356189	0.556188	137.907451	-7.84963	0.501566	0.338563	-1.135646	3.494395	1.96828	25.151974	126.30637	-388.205839	58.47076	-0.367684	-0.848096	-0.561765	11.987065	1.048103	0.948732	-7.303386	-7.15657	24.064968	-0.711452	-0.16493	-0.268661
-15.937109	-5.389328	14.003355	-66.704546	23.779346	-58.86638	0.574098	0.267835	-1.120313	5.860793	4.158794	22.995654	152.520798	-429.158484	59.473024	-0.393856	-0.833997	-0.547867	11.641231	1.283195	1.422373	-10.764858	-7.436001	17.353894	-0.683424	-0.167001	-0.221938
0.324076	7.290884	0.279158	91.964548	74.196971	4.222661	0.53095	0.3138	-1.143589	9.224456	8.993574	19.277413	130.16923	-449.088596	54.91009	-0.396438	-0.828324	-0.419723	11.432155	1.799362	-0.256096	-5.565408	-7.371687	4.038765	-0.669658	-0.165144	-0.252923
-3.203061	4.610631	4.177383	-4.79858	24.45861	-17.622338	0.517615	0.269333	-1.118916	6.60383	8.440991	25.845745	66.884058	-446.702204	69.836304	-0.48757	-0.890131	-0.413778	10.302315	1.683798	-0.756754	-24.560343	-4.667911	5.194965	-0.724943	-0.132749	-0.270406
-4.143241	0.621874	11.530237	-50.45899	10.693645	-31.210531	0.558448	0.305994	-1.116135	6.140805	3.81994	22.604937	112.838003	-456.322564	64.844721	-0.489486	-0.866993	-0.315337	9.996675	2.437483	-1.238297	-31.998016	-4.642152	14.941561	-0.697545	-0.164726	-0.268591
-3.012622	2.788583	7.981045	19.723484	20.329122	-17.453349	0.545471	0.282355	-1.12303	7.956257	2.576081	21.283228	119.440057	-427.753894	62.327684	-0.529885	-0.812368	-0.232426	10.341523	1.679213	-1.833978	-23.401511	-8.824169	20.065664	-0.710893	-0.134198	-0.23928
-3.251045	3.476117	7.524662	2.322451	9.985842	-14.995023	0.546614	0.258341	-1.130275	10.993219	5.562659	29.049173	154.095241	-365.168022	67.200516	-0.544707	-0.834194	-0.145049	10.223896	1.505255	-1.83692	-15.63394	-14.173946	10.648541	-0.72529	-0.165961	-0.253204
-3.451273	2.161159	8.935985	-9.613682	3.897789	-8.833582	0.558462	0.288695	-1.098643	2.813886	1.359758	36.346751	163.957255	-409.832235	45.429871	-0.584301	-0.851884	-0.114518	9.697672	0.810299	-1.67007	-15.992568	-16.100694	-1.322058	-0.683983	-0.197733	-0.251319
-3.443354	1.990523	9.333233	-4.475474	3.457511	-3.151088	0.559577	0.29928	-1.140871	-23.436225	-7.52512	-2.766648	118.845358	-364.848945	39.026264	-0.586442	-0.874707	-0.013067	10.175034	0.926607	-1.361238	-18.245253	-16.60502	-6.568141	-0.711035	-0.132545	-0.270336
-3.207904	2.336454	9.680253	-0.813698	2.336704	2.309729	0.587832	0.281231	-1.124078	-27.661041	-19.306295	-21.152148	-5.832452	-81.783254	-22.664042	-0.535714	-0.818485	0.053565	10.407412	1.564409	-1.47393	-15.896122	-15.24196	-7.438867	-0.711519	-0.182775	-0.236769
-2.91928	2.164405	9.798803	-2.045087	2.12768	1.267178	0.588204	0.28476	-1.138154	-11.092595	0.863221	18.277396	-54.244021	332.73705	-207.51172	-0.548915	-0.864521	0.056851	10.705274	2.261635	-1.225834	-5.044493	-12.748112	-11.218461	-0.711102	-0.15039	-0.238443
-3.029335	2.165453	10.023989	1.681194	4.096512	2.637823	0.587075	0.291474	-1.113418	-10.079184	11.298878	37.047175	-48.2994	297.912777	-149.332089	-0.522008	-0.906045	0.001912	10.531777	1.681774	-1.111794	3.918921	-9.777045	-11.50958	-0.752688	-0.133984	-0.255018
-2.757911	2.679083	9.292638	5.772792	6.480804	2.756798	0.559977	0.26821	-1.119964	-9.063403	-0.834761	13.449697	-22.486406	139.923915	15.719427	-0.508297	-0.933395	-0.039406	10.357605	1.392294	-0.996517	7.063924	-6.843905	-10.129196	-0.711449	-0.183601	-0.221241
-3.058618	2.618712	8.547739	4.601809	6.431288	1.225985	0.559934	0.320108	-1.172439	-7.079556	-1.968808	9.244299	-4.055417	173.930629	-0.759663	-0.481014	-0.898317	-0.099364	10.324844	0.991583	0.37851	5.651102	-6.083353	-10.219391	-0.711519	-0.182775	-0.236769
-2.876134	3.195416	9.122023	4.008979	5.833068	-0.468763	0.558805	0.326822	-1.147703	-7.133215	0.169807	6.923878	-33.667509	203.269687	17.142543	-0.532698	-0.912865	-0.111607	10.389072	0.643981	0.617755	3.523023	-6.183084	-10.180648	-0.66889	-0.118219	-0.224379
-3.221597	2.793091	8.999947	-1.298962	5.731417	-1.804534	0.587461	0.277703	-1.110002	-5.630108	-1.917129	7.066834	-67.47103	253.798127	16.323667	-0.506375	-0.896323	-0.127512	10.279978	0.588153	1.094562	1.004076	-6.30317	-8.306755	-0.72466	-0.136054	-0.208295
-3.045297	2.679049	9.230217	-1.899344	6.568514	0.020217	0.574069	0.302434	-1.155296	-5.228823	-0.169206	9.850898	-90.656819	295.083795	0.808662	-0.492294	-0.907281	-0.184183	9.171742	0.651761	1.792784	0.569379	-6.79571	-8.150026	-0.69747	-0.184224	-0.205643
-3.177788	2.905038	8.319306	0.711215	6.345743	1.757144	0.573698	0.298905	-1.141221	-4.311249	1.011963	9.814597	-100.016716	321.017028	-9.637775	-0.504453	-0.859251	-0.215617	8.758338	0.304003	1.72369	4.806817	-6.746996	-11.405016	-0.669445	-0.167623	-0.20634
-3.054288	2.792002	8.775875	-1.645171	5.948916	3.260184	0.587461	0.277703	-1.110002	-2.51705	1.009001	10.30519	-105.829861	341.518117	-20.720936	-0.477251	-0.899703	-0.284906	8.287039	0.421482	1.775288	10.337601	-6.938645	-14.632897	-0.7385	-0.118414	-0.240257
-2.9411	3.078885	8.722455	-4.843416	5.088859	1.906043	0.532865	0.262244	-1.144001	-1.506831	2.811121	11.969807	-107.4307	356.824192	-43.781773	-0.449598	-0.848232	-0.360218	7.752437	0.015176	1.524026	13.82128	-6.024555	-16.055593	-0.738914	-0.16947	-0.191163
-3.007428	3.306763	8.267482	-5.943912	5.169296	2.493201	0.601567	0.294628	-1.127843	-0.00782	2.864744	12.114566	-94.764234	355.185202	-58.79966	-0.409934	-0.875432	-0.402087	7.581857	0.075141	1.880413	15.177039	-5.396875	-17.133056	-0.725219	-0.166787	-0.237676
-2.814052	2.679366	9.348377	-8.403226	5.210482	0.568888	0.601567	0.294628	-1.127843	0.312749	3.201132	10.989312	-80.312688	350.687844	-73.073548	-0.382211	-0.86885	-0.488737	6.988124	0.191901	1.690182	15.241873	-5.464765	-16.460674	-0.725423	-0.201651	-0.189418
-3.159557	2.334482	9.226542	-9.182846	6.721764	2.497088	0.601939	0.298156	-1.141919	1.741913	3.986733	10.623721	-80.925918	342.88059	-82.953628	-0.354858	-0.878661	-0.560033	6.926076	0.075143	1.508867	17.468253	-5.623909	-15.09282	-0.739264	-0.18401	-0.221381
-3.437786	1.991729	9.617499	-0.790139	9.472582	4.572346	0.574069	0.302434	-1.155296	2.205093	4.492987	10.803738	-88.148442	335.497461	-90.985253	-0.328316	-0.876368	-0.589284	7.089244	0.362151	0.794522	21.268264	-5.779288	-13.54731	-0.739335	-0.183183	-0.236909
-3.053998	2.389911	8.774186	2.71215	10.653877	4.8268	0.587432	0.312302	-1.144986	2.440752	4.830777	11.092056	-107.129195	324.905934	-94.465663	-0.261885	-0.855313	-0.663415	7.269459	0.420564	0.977791	24.688651	-6.134986	-13.466319	-0.71124	-0.167409	-0.222078
-2.9385	2.562394	8.83399	0.301106	8.104234	3.718952	0.573712	0.281606	-1.123729	3.711595	5.053917	11.3454	-116.274345	300.885108	-94.003362	-0.234683	-0.895764	-0.732704	7.266563	0.245594	0.797328	25.211657	-6.627556	-12.976908	-0.69747	-0.184224	-0.205643
-3.326784	2.220689	9.450131	-7.101174	10.405838	3.716331	0.558448	0.305994	-1.116135	4.191376	5.729827	12.318514	-127.206035	278.301892	-83.264205	-0.210062	-0.930543	-0.67385	7.091155	0.013942	0.852945	23.80339	-5.937952	-12.119425	-0.683771	-0.200212	-0.204736
-3.44323	1.818198	9.332509	4.225592	12.473637	4.882686	0.60231	0.301685	-1.155995	4.47232	6.799379	12.098901	-145.473806	257.277427	-72.761752	-0.155941	-0.892098	-0.777408	7.56506	-0.277271	0.920419	23.093182	-6.000734	-12.208233	-0.739197	-0.166165	-0.253274
-3.096611	2.163323	9.511197	4.31472	12.607417	3.96459	0.574469	0.271363	-1.134389	4.106967	7.364956	13.90338	-158.357322	244.410609	-58.936941	-0.115607	-0.841625	-0.838645	7.800294	-0.394211	0.86442	24.54276	-6.151301	-11.937724	-0.698029	-0.214956	-0.235024
-2.825022	2.447187	8.778881	3.878375	13.601776	8.244693	0.628679	0.300593	-1.103805	4.688263	7.817143	16.916539	-146.57919	235.828504	-48.717447	-0.063923	-0.827076	-0.826402	7.677725	-0.336853	0.622839	27.239988	-5.672414	-9.993924	-0.711449	-0.183601	-0.221241
-3.628893	2.562168	8.650069	-0.869251	13.383745	9.266804	0.616459	0.266711	-1.121361	5.562755	8.379306	17.501542	-122.629608	233.794609	-42.430083	-0.011284	-0.854201	-0.868547	7.392373	-1.205588	1.032976	28.335201	-5.077883	-7.953161	-0.739194	-0.184836	-0.205853
-3.269861	2.68018	9.453175	-2.671816	14.016117	9.68093	0.60081	0.304871	-1.117183	7.359132	7.869417	18.048348	-100.410537	236.962254	-34.242682	-0.023739	-0.807243	-0.885632	7.676874	-0.918108	0.500552	29.155907	-3.93123	-6.158497	-0.711657	-0.199794	-0.220404
-3.209017	2.336213	9.6234	-3.467946	16.076038	6.588723	0.587861	0.246633	-1.089094	10.749255	8.595165	17.893732	-77.149523	232.135165	-28.230108	0.028605	-0.83544	-0.913427	7.972225	-1.034935	0.50556	28.769749	-2.749793	-5.184769	-0.754007	-0.248984	-0.218103
-3.488443	2.108101	9.957986	-5.459479	16.033574	6.808432	0.599681	0.311585	-1.092447	14.166975	7.291579	16.152709	-65.775996	227.160911	-32.185419	0.08243	-0.798067	-1.002635	8.505031	-0.803352	0.636267	27.887715	-2.248442	-3.68644	-0.711937	-0.21516	-0.235095
-3.449662	1.472102	8.989943	-8.917954	13.369064	4.567066	0.614545	0.318267	-1.120948	18.735357	6.32382	14.436148	-75.512736	235.158	-47.279844	0.121508	-0.767201	-1.00547	8.320415	-0.862753	0.21337	25.960865	-1.97507	-1.205223	-0.711657	-0.199794	-0.220404
-3.69431	1.526331	8.189787	-3.110162	13.540161	8.110475	0.6424	0.331289	-1.125062	22.337909	6.259751	13.37947	-92.757363	251.97616	-72.895444	0.148271	-0.779156	-1.048067	8.968897	-1.038714	0.164826	23.818912	-2.355878	2.349661	-0.739123	-0.185662	-0.190326
-3.577325	1.182082	8.304272	-15.906922	11.017278	0.40885	0.615688	0.294253	-1.128192	24.296712	7.326509	13.591393	-85.062787	256.923803	-98.422928	0.214627	-0.773422	-1.121194	9.623692	-1.561895	0.414334	23.798943	-2.407698	4.397749	-0.725494	-0.200824	-0.204946
-2.552953	7.88159	17.047489	-75.48912	30.677307	-12.22647	0.61493	0.304496	-1.117532	24.833968	9.070302	11.962403	-70.957878	257.168378	-108.549494	0.278991	-0.75987	-1.094877	10.324473	-1.216542	0.069581	26.201871	-2.518883	4.145066	-0.739335	-0.183183	-0.236909
-3.556653	7.038849	21.286695	-53.480716	89.531379	-14.737406	0.642414	0.31399	-1.10757	26.819529	9.178052	10.64546	-38.869651	241.82453	-106.426489	0.331711	-0.711464	-1.12769	11.093593	-1.566506	0.14231	26.10029	-2.346726	2.249666	-0.753031	-0.185866	-0.190396
-2.302844	2.161054	9.128814	61.417678	122.919057	-13.053093	0.642786	0.317518	-1.121646	27.408406	7.710424	8.44858	-7.482303	199.42394	-93.878125	0.410377	-0.723119	-1.17139	11.689952	-1.392145	0.513498	25.56276	-3.161589	1.002407	-0.753452	-0.19958	-0.236142
-2.940375	4.527752	11.740588	-39.356899	112.733983	-23.019431	0.643929	0.293504	-1.128891	30.429484	5.391448	4.207307	1.599532	137.69538	-79.78269	0.475182	-0.738064	-1.171765	11.982002	-1.509714	0.338785	25.824961	-4.932215	0.765403	-0.697824	-0.180092	-0.283282
-2.82147	5.517727	14.929577	-7.094595	138.256851	-36.346875	0.711902	0.301532	-1.067089	33.753743	5.156922	0.880067	-15.514855	86.141331	-59.010107	0.46088	-0.712858	-1.101748	11.97924	-1.74276	0.158075	22.698192	-6.782815	1.182879	-0.726057	-0.212886	-0.281748
-2.859116	3.671154	12.931997	-14.08731	161.182425	-50.89302	0.641314	0.286105	-1.047851	34.193918	8.936788	8.365717	29.64179	35.906974	-23.13009	0.552748	-0.678476	-1.148735	11.801112	-1.277747	0.156752	20.274434	-7.497926	4.434807	-0.711937	-0.21516	-0.235095
-3.01022	4.36516	14.011761	-25.14326	179.318841	-62.0705	0.713045	0.277518	-1.074333	32.358697	8.6541	3.231648	46.355356	-37.498047	18.850183	0.539477	-0.679623	-1.134109	11.734548	-0.872563	-0.20206	15.920522	-7.560638	9.004988	-0.711586	-0.20062	-0.204876
-2.979333	4.774006	15.605337	-24.62064	205.046718	-71.839221	0.711902	0.301532	-1.067089	29.048906	16.102408	10.585161	135.783429	-88.985731	87.59594	0.552157	-0.68062	-1.120035	11.37906	-1.220703	-0.329959	13.5011	-7.414554	11.794506	-0.739473	-0.200202	-0.220544
-3.030191	3.626423	15.883663	-32.709825	232.701784	-76.58175	0.752349	0.351964	-1.067723	25.735919	16.668287	6.383245	183.543842	-181.009732	217.563313	0.577808	-0.741752	-1.116572	11.132437	-0.467153	-0.810402	18.611019	-8.093683	11.198493	-0.767639	-0.21515	-0.250903
-2.142791	2.597885	17.317349	-29.36224	262.154343	-75.682483	0.794411	0.260815	-0.967236	2.652893	4.874139	-3.226835	213.579259	-189.759407	224.563317	0.525233	-0.819726	-1.096101	12.003994	1.154726	-1.326135	28.843438	-6.963821	3.056419	-0.725148	-0.167613	-0.222148
-2.579623	0.994196	18.32504	-18.673047	296.161453	-70.342741	0.835601	0.318304	-0.996023	-2.6869	18.036726	28.150106	240.484539	-160.911352	225.951145	0.460649	-0.819029	-1.109073	13.644983	3.240198	-1.645864	42.568108	-1.612489	-9.854876	-0.725357	-0.183806	-0.221311
-1.663687	0.546346	21.239319	-14.693154	335.977227	-57.955709	0.863113	0.293199	-0.951078	12.695285	11.914812	17.711074	179.526267	-239.225774	196.780925	0.369001	-0.867659	-1.075432	16.105649	3.4048	-2.557414	24.469944	6.143832	-14.838176	-0.669725	-0.182989	-0.22103
-1.093707	-1.165693	23.97105	8.799751	388.271075	-37.0481	0.888739	0.285051	-0.870736	13.816251	15.331323	-2.247171	108.570114	-259.221563	45.030176	0.341938	-0.916986	-1.02882	15.743268	2.706472	-3.106146	2.410259	14.955099	-1.873106	-0.725983	-0.232383	-0.2188
-3.11709	-1.041115	25.864452	53.659817	432.608058	-7.501027	0.986483	0.254545	-0.813461	5.651562	6.002534	5.27265	0.114153	-190.423645	-28.609186	0.276167	-0.980787	-0.994728	14.190141	2.70578	-4.153174	7.791903	18.989633	12.147651	-0.75394	-0.231139	-0.249996
-4.514726	1.609952	27.667014	130.125794	447.748087	25.246178	1.000617	0.236871	-0.796319	0.926698	1.119537	15.303047	-26.555319	-136.543956	11.240546	0.277058	-0.917361	-1.027442	10.964196	2.659581	-3.135622	1.081263	18.664899	14.618798	-0.711657	-0.199794	-0.220404
-12.236844	5.211603	22.189932	206.793299	460.044203	22.005798	1.026615	0.232251	-0.730053	3.205933	2.351307	11.672081	94.685178	-122.038944	74.8086	0.23835	-0.931835	-1.039961	8.733957	2.551279	-2.518957	-9.192025	18.891227	18.78147	-0.711728	-0.198968	-0.235932
-10.211947	0.536316	17.265366	162.227409	444.633825	9.954646	1.052656	0.175733	-0.611312	11.901862	0.868102	9.192541	71.487192	-53.031673	13.567528	0.250805	-0.978793	-1.022876	7.645913	1.980254	-0.805038	-7.803671	19.891502	23.112322	-0.72473	-0.135228	-0.223822
-6.695009	4.011002	24.565883	184.935315	405.724236	0.454374	1.122187	0.111378	-0.518355	6.984544	5.099052	5.639534	-47.227227	-36.885054	15.420601	0.18563	-0.98024	-1.007147	7.781262	1.635236	0.094283	-8.010117	20.925306	17.728191	-0.725498	-0.182153	-0.252367
-8.233452	2.979621	24.872593	203.949429	431.899546	-32.452163	1.163434	0.099669	-0.477175	5.271915	2.908158	8.772026	12.015016	-18.297483	12.662658	0.185561	-0.935351	-0.995809	9.095969	1.229195	0.955459	-3.828863	20.055879	5.613166	-0.739406	-0.182357	-0.252437
0.038869	0.107125	26.328491	190.12682	435.341943	-57.572099	1.188288	0.119063	-0.403665	2.39654	3.927686	8.938992	-3.67883	-17.190372	0.422125	0.17295	-0.979244	-1.021221	10.164032	1.111849	1.274307	-2.026336	16.854542	-9.598156	-0.753456	-0.180909	-0.283563
4.055258	1.914824	6.466759	215.302477	370.437258	-66.095324	1.187588	0.060108	-0.323038	3.97852	4.993858	7.671032	8.687428	-10.824886	7.647541	0.172654	-0.980315	-1.006872	10.804426	1.573241	0.869041	1.85401	13.734418	-17.145543	-0.711452	-0.16493	-0.268661
36.087335	-16.35646	-15.66253	-12.255885	185.004019	-13.763498	1.212442	0.079502	-0.249528	2.93509	4.995513	7.309434	8.060449	-4.499729	5.120337	0.160344	-0.962926	-1.036299	11.267482	1.686335	0.399084	1.169693	11.010903	-14.318639	-0.724872	-0.133576	-0.254878
5.343833	-2.113792	4.883591	-130.044638	-157.562063	140.606187	1.197579	0.07282	-0.221027	3.253007	4.432807	8.674355	-7.161026	-1.190786	8.809586	0.159088	-0.982534	-0.977896	11.08327	1.452705	-0.024554	1.419156	10.043912	-12.420232	-0.738989	-0.149972	-0.254111
12.154666	7.000049	28.639106	-97.830633	-257.451161	94.639413	1.241455	0.051211	-0.243395	3.626133	2.574202	9.812835	-8.010009	-0.373675	4.100269	0.17251	-0.950746	-0.994529	11.434221	1.857933	-0.136035	2.020068	9.392983	-14.344557	-0.725498	-0.182153	-0.252367
8.676184	-1.924104	23.078111	-48.614799	-132.884041	21.195119	1.242956	0.048025	-0.282207	2.869799	3.589315	9.514775	4.073162	-2.882938	-1.371547	0.146187	-0.967289	-0.978624	11.076242	1.160594	-0.445139	-1.398385	9.186724	-13.322731	-0.739406	-0.182357	-0.252437
6.525698	-2.783612	9.677511	5.676348	-128.740921	54.925192	1.216229	0.028289	-0.302829	2.395978	3.589656	8.882068	4.64392	-4.248599	-2.432818	0.172799	-1.009884	-1.019214	10.379458	0.990459	0.139983	-3.571849	9.863218	-11.453937	-0.725636	-0.199172	-0.236002
8.745632	-3.305097	9.036528	-0.361851	-166.092648	29.470636	1.215072	0.069602	-0.313076	2.688533	3.645637	9.114719	6.316297	-3.948221	-2.921733	0.172434	-0.966067	-0.993526	9.901536	0.6416	-0.229745	-1.825622	10.049521	-8.160618	-0.711106	-0.131719	-0.285863
8.163988	-3.951056	5.612667	-41.272683	-202.781329	28.379383	1.217329	0.056173	-0.362548	2.327364	4.941364	8.48552	4.196186	-3.027452	-2.482692	0.185115	-0.967064	-0.979452	10.136096	0.81504	-0.284509	-0.294503	10.730499	-5.449465	-0.739686	-0.197723	-0.267128
7.518129	-2.39047	7.766238	-78.836013	-246.5637	27.01008	1.205095	0.039591	-0.397595	2.502562	4.265122	8.545218	-4.645015	-0.91708	-0.064236	0.17273	-0.964995	-1.007875	9.182588	0.05974	-0.904399	-0.756556	11.659506	-6.705242	-0.753527	-0.180083	-0.299091
7.088215	-1.235035	9.240336	-101.18255	-262.382686	15.563869	1.192832	0.057607	-0.467626	2.342709	3.871606	9.107655	-6.412996	-1.433888	0.514936	0.147073	-0.964073	-1.021674	8.821929	0.988778	-1.146673	-1.448213	12.334484	-10.098209	-0.739757	-0.196897	-0.282655
5.491808	0.261294	9.613404	-104.451806	-279.473056	7.261389	1.221416	0.094984	-0.517384	2.507613	4.15265	8.771681	-5.417372	-3.521367	-1.878779	0.145817	-0.983681	-0.963271	8.167769	0.291867	-1.521186	-3.277869	11.975342	-11.49564	-0.711661	-0.181123	-0.267824
3.903118	0.323032	10.321558	-97.771688	-301.732754	2.863459	1.209539	0.09923	-0.583998	2.222443	4.660306	8.935982	-8.489348	-4.603409	-1.799526	0.17251	-0.950746	-0.994529	7.809831	0.52424	-1.706521	-6.079107	11.770352	-10.38435	-0.71159	-0.181949	-0.252297
2.481281	1.015538	10.808294	-86.862808	-321.391945	1.378275	1.22476	0.126739	-0.644067	2.960668	4.264165	8.44161	-9.882206	-4.777597	-1.309131	0.159238	-0.951893	-0.979904	7.287199	0.17873	-1.29856	-8.19393	11.738741	-8.053934	-0.71222	-0.211855	-0.297206
0.597203	1.362761	11.057263	-83.390965	-331.372383	3.567693	1.155243	0.173796	-0.719533	2.853676	4.433704	8.835811	-10.247291	-4.180056	0.392061	0.172139	-0.967139	-0.979176	7.275229	0.117934	-1.957783	-9.819268	11.840413	-6.612161	-0.726128	-0.212059	-0.297276
-1.395981	1.94104	11.589234	-82.658982	-322.352338	3.650653	1.142237	0.184755	-0.761411	3.145645	3.531971	8.954376	-8.49234	-4.64756	0.265512	0.134467	-0.947756	-1.036751	7.055131	0.354487	-1.062592	-10.908533	10.272268	-6.203437	-0.725849	-0.196693	-0.282585
-3.392589	2.633478	11.95113	-79.219425	-298.382861	5.409838	1.08797	0.224723	-0.861962	2.575388	3.871269	9.22577	-8.204299	-3.761571	1.32271	0.172359	-0.981387	-0.992522	7.286794	0.352958	-1.297818	-10.108437	9.036055	-4.702919	-0.725223	-0.148116	-0.285097
-4.367816	3.72533	11.879932	-78.816384	-276.996849	11.030455	1.07685	0.218725	-0.939237	2.44696	3.870963	8.600316	-8.708985	-4.451746	2.733539	0.133507	-0.966292	-0.992698	7.28996	0.411775	-1.11785	-10.422507	7.431291	-3.441087	-0.725849	-0.196693	-0.282585
-4.706847	3.669102	12.100422	-75.465545	-270.071201	17.603616	1.005847	0.251668	-0.958398	2.988879	3.42025	9.68697	-11.712903	-5.185218	1.213247	0.121127	-0.904013	-1.010787	7.117718	0.238941	-0.882265	-11.143267	5.805228	-3.216782	-0.739335	-0.183183	-0.236909
-4.971963	3.673893	13.175064	-71.363636	-275.390844	24.374218	0.978678	0.3149	-1.052403	2.936557	2.575543	9.854968	-5.856277	-6.555539	-2.957452	0.172434	-0.966067	-0.993526	7.298878	-0.109178	-0.700727	-13.099256	4.799476	-4.244005	-0.711803	-0.17947	-0.29888
-4.632351	2.92594	12.951195	-62.545138	-281.17558	30.663494	0.937402	0.361208	-1.128567	2.80498	3.589138	9.173729	0.95852	-7.738778	-5.738238	0.159829	-0.94975	-1.008603	7.184032	0.414765	-0.461075	-14.474865	3.278327	-5.515355	-0.711661	-0.181123	-0.267824
-5.188442	3.274622	13.794304	-56.768846	-281.466617	34.260264	0.90989	0.386313	-1.173512	2.685145	4.152517	9.001866	4.616049	-6.426885	-2.30036	0.186516	-0.977025	-1.050197	7.357239	0.645922	-0.636506	-15.013307	1.782264	-5.964687	-0.725715	-0.161003	-0.346371
-6.103233	3.04576	13.832376	-51.136687	-273.413768	34.650719	0.85528	0.388153	-1.225003	2.690065	3.476693	9.171216	2.40936	-5.074534	-2.381173	0.159314	-0.936573	-0.980907	7.409768	0.121372	-1.056978	-14.009179	-0.113785	-5.653661	-0.753735	-0.196275	-0.298254
-6.207881	1.726618	14.279424	-44.411261	-260.276739	32.115704	0.783891	0.434868	-1.247581	2.980741	3.250927	9.29035	6.246796	-4.475957	-2.063854	0.159829	-0.94975	-1.008603	7.35913	-0.167142	-0.639967	-16.005315	-0.570679	-3.566052	-0.739477	-0.181531	-0.267965
-6.657299	2.13097	14.72703	-40.469293	-248.837697	26.188198	0.729267	0.454008	-1.316564	3.038329	3.870502	9.34872	9.145982	-7.258986	-2.243333	0.146778	-0.965145	-1.007324	8.007767	0.063677	-0.626873	-20.609005	-0.471877	0.087082	-0.6698	-0.163492	-0.283979
-7.148258	2.366417	15.968742	-38.920957	-240.102712	16.237082	0.67237	0.503876	-1.353566	2.570337	3.983741	8.999306	8.092659	-7.402224	-1.135797	0.147443	-0.947681	-1.037027	8.707293	0.002003	-1.09317	-26.227828	-0.442957	4.233355	-0.711523	-0.164104	-0.284189
-9.539168	1.796637	16.601799	-24.959921	-230.677422	4.727518	0.63038	0.508528	-1.366595	2.637335	3.47699	9.396566	4.720263	-7.67149	0.677669	0.159979	-0.919109	-1.01061	8.059911	0.17821	-0.984719	-29.138971	-0.58025	7.637196	-0.725431	-0.164308	-0.284259
-10.955462	1.61614	14.413934	-12.143665	-230.320661	-2.479823	0.588004	0.526951	-1.383039	3.345583	3.194708	10.20379	5.361081	-11.015264	-2.561179	0.107705	-0.935801	-0.994154	8.597213	-0.577004	-0.738402	-31.711557	0.061022	9.81357	-0.725782	-0.178848	-0.314478
-13.461362	0.80409	12.088552	-44.939751	-259.029434	-10.150817	0.531107	0.576819	-1.420041	2.991728	3.195023	9.800059	11.001125	-16.718094	-1.102771	0.146778	-0.965145	-1.007324	8.413562	-0.578083	-1.101145	-34.244635	1.244824	12.781962	-0.725364	-0.146463	-0.316152
-16.542624	0.176643	12.537447	-87.37791	-293.970002	-9.829223	0.419643	0.576629	-1.45606	3.050071	3.420285	9.858097	3.486024	-24.639547	-0.139422	0.159603	-0.995711	-1.005592	8.950095	-0.05513	-0.729574	-34.561052	2.287136	15.406837	-0.73941	-0.163686	-0.299857
-19.903892	0.125265	13.324306	-114.972367	-306.347115	-4.307622	0.376124	0.619066	-1.46526	3.29363	3.420375	10.485969	-6.917264	-31.024687	4.104677	0.12038	-0.997008	-0.990415	8.838064	-1.215639	-0.556999	-33.180583	3.457284	18.086145	-0.725364	-0.146463	-0.316152
-23.50973	1.564397	13.373895	-130.664149	-293.433449	1.099401	0.262002	0.663376	-1.472713	3.7551	2.292855	10.438052	-25.863983	-56.01092	31.58731	0.132841	-0.983756	-0.962995	9.365233	-0.927216	-0.72558	-28.625179	4.981346	20.171529	-0.697895	-0.179266	-0.29881
-26.792126	3.056379	12.407051	-124.933026	-253.176727	5.324526	0.176136	0.689637	-1.463374	2.856318	8.835016	17.445103	18.604837	-48.73079	-10.539918	0.133657	-0.935651	-0.994706	9.545023	-1.15943	-0.603453	-23.951063	5.676452	22.596727	-0.724947	-0.114078	-0.317826
-28.649702	3.441902	8.167093	-113.170721	-186.555148	11.217725	0.134174	0.65969	-1.441419	3.192242	5.95856	14.052771	-5.597798	-114.25071	30.808952	0.094729	-0.935876	-0.993878	10.250881	-1.103469	-0.709815	-18.424527	5.991804	23.583962	-0.711523	-0.164104	-0.284189
-30.756064	4.352809	5.856745	-110.466124	-121.650784	24.959162	0.103247	0.739537	-1.447139	2.029763	4.605877	10.686927	29.170295	-120.122227	29.637875	0.082344	-0.933807	-1.022302	10.957528	-1.86082	-0.879544	-14.312542	6.264214	25.279622	-0.711527	-0.145433	-0.33161
-30.33568	4.057067	3.931441	-116.961872	-77.397518	40.751612	0.074634	0.736758	-1.432365	2.699511	5.732819	12.513641	-0.611502	-132.114756	36.678165	0.080792	-0.954487	-0.94955	11.024113	-1.801148	-0.458848	-11.853917	6.664046	28.876007	-0.75255	-0.116965	-0.271383
-29.687615	4.979777	4.914053	-63.90845	-30.415029	67.206884	0.044878	0.757993	-1.410346	2.641599	5.282236	12.455413	9.360438	-148.307505	49.813353	0.094729	-0.935876	-0.993878	11.14365	-1.975399	-0.397482	-9.988792	6.765952	31.497806	-0.725018	-0.113252	-0.333354
-30.917817	7.45743	6.491819	-26.891538	-27.35841	89.251264	0.016266	0.755213	-1.395572	2.818291	6.352429	12.743138	15.453292	-165.872983	63.271295	0.041349	-0.941536	-0.921027	11.521822	-1.912694	0.92732	-7.946449	7.224881	32.191342	-0.738855	-0.114282	-0.317897
-30.570651	12.583512	9.816343	71.307096	9.281099	96.858734	0.044878	0.757993	-1.410346	2.589908	6.634608	12.851819	13.69495	-183.993404	75.638638	-0.023015	-0.955088	-0.947344	11.343518	-2.319315	0.802474	-6.050714	8.041522	33.739693	-0.696851	-0.098304	-0.302995
-29.350229	12.49655	16.602534	181.268583	65.489427	74.190285	0.003288	0.731574	-1.402467	2.728223	6.522632	13.930294	14.841247	-204.529253	87.152146	-0.061943	-0.955313	-0.946517	11.05589	-1.735902	1.278699	-4.58644	8.79417	35.412219	-0.724529	-0.081693	-0.319501
-29.518054	9.575217	4.993552	288.933049	153.563295	10.802781	0.032301	0.703283	-1.396334	2.742167	6.185171	14.553046	20.51832	-228.636819	94.533189	-0.114287	-0.927116	-0.918722	11.218228	-1.565293	0.503952	-3.469107	9.560419	35.649086	-0.710622	-0.081489	-0.31943
-23.992853	31.153974	1.611662	284.036583	259.637609	-50.548982	0.063586	0.644264	-1.422181	3.002819	4.833898	15.859454	17.841984	-256.780001	96.47159	-0.115468	-0.931403	-0.861323	11.350336	-0.516486	1.409207	-4.87035	9.360921	27.829032	-0.683156	-0.095621	-0.349508
-10.977994	17.41015	13.911764	191.045991	235.766506	-8.984138	0.107848	0.608883	-1.441133	2.870938	3.089445	17.610185	23.721159	-290.512604	90.714625	-0.166932	-0.960201	-0.886912	14.288101	3.192639	1.240424	-3.915923	4.658351	0.73565	-0.724325	-0.04683	-0.367758
-2.814231	7.197806	18.289794	178.725828	232.444194	-37.865258	0.178479	0.572412	-1.407895	1.66706	3.882957	20.586151	40.483538	-330.424945	87.001885	-0.258869	-0.949693	-0.828586	17.345747	5.158719	0.946612	13.756226	-4.565827	-29.965867	-0.724321	-0.065501	-0.320338
-6.559265	10.522758	2.545769	181.403397	238.721382	-13.539448	0.195272	0.510239	-1.419317	2.993215	4.504977	26.162741	65.445612	-381.295894	81.799634	-0.297797	-0.949918	-0.827759	17.279777	3.414101	0.339025	6.236755	-11.489726	-13.679546	-0.669315	-0.113262	-0.317546
-4.528868	2.496421	6.529561	20.544058	171.483176	-13.341749	0.238777	0.485101	-1.427609	2.675149	3.49267	27.344066	135.504747	-432.755992	78.200531	-0.351026	-0.924937	-0.756915	12.271567	1.335583	0.416308	-20.074757	-7.685582	23.502385	-0.725018	-0.113252	-0.333354
-3.873693	3.100862	13.705485	25.283656	124.692446	-56.845868	0.293744	0.504088	-1.407686	8.100409	5.73175	22.93085	136.866961	-466.297495	80.736416	-0.405147	-0.963381	-0.653357	9.937851	0.649758	1.747182	-30.984561	-8.595023	36.722024	-0.725089	-0.112426	-0.348882
-13.452562	0.046694	9.584993	-79.481726	95.386127	-78.282404	0.335735	0.499436	-1.394657	6.215321	7.986902	21.081594	95.510848	-475.561837	72.101391	-0.470692	-0.98122	-0.622275	10.860546	1.398136	0.689679	-27.681701	-11.084759	24.249249	-0.738229	-0.065705	-0.320408
1.041002	6.652457	-1.130348	58.059801	56.473138	3.326832	0.349498	0.478234	-1.363439	4.421025	7.262241	25.91209	82.41915	-474.881094	78.880807	-0.511982	-0.99002	-0.50665	11.011224	2.321508	-0.621015	-17.532883	-14.02518	1.515964	-0.724529	-0.081693	-0.319501
-4.344582	3.028511	10.115704	-38.42879	3.57071	-24.275472	0.366619	0.471487	-1.441412	6.549615	4.551767	22.953853	106.12699	-474.946751	83.37004	-0.565362	-0.99568	-0.433798	10.871069	2.839765	-1.759222	-24.360281	-15.699792	1.39587	-0.709858	-0.015893	-0.338307
-4.071547	2.853084	9.438311	18.38979	22.596443	-17.381983	0.351355	0.495876	-1.433819	9.343515	4.266126	24.427634	117.056938	-436.510506	104.048751	-0.567278	-0.972542	-0.335357	11.400398	2.198972	-1.931758	-18.483243	-18.692318	14.806839	-0.710555	-0.063644	-0.351323
-3.392983	4.446916	6.162063	2.78553	12.706308	-10.780976	0.321986	0.503339	-1.408384	4.943656	3.719458	33.902539	139.601902	-424.059331	100.767801	-0.620733	-0.993522	-0.261502	11.764898	1.038372	-1.510752	-14.114739	-20.862666	16.207441	-0.724183	-0.048482	-0.336703
-2.985691	2.507165	9.344313	-21.857012	2.784564	-10.533939	0.36399	0.481388	-1.377864	-10.356712	-3.363775	17.326682	-10.26926	-434.744296	42.021105	-0.648011	-0.968391	-0.191209	11.826095	0.573876	-1.451723	-16.455237	-21.507131	0.814257	-0.696643	-0.082111	-0.303832
-3.625346	2.275684	8.819421	-8.123024	3.566538	-3.414834	0.365476	0.495501	-1.434168	-32.048023	-27.068038	-17.118296	96.587784	-238.182513	11.594081	-0.62368	-0.944031	-0.107669	12.058048	0.92105	-1.625558	-15.821435	-20.771535	-13.922084	-0.710342	-0.066123	-0.30474
-3.215408	1.932674	9.280593	-10.672979	0.473293	-0.022923	0.350598	0.506119	-1.423159	-6.774469	-0.734037	4.779276	-154.126464	239.461526	-240.629169	-0.611595	-1.007382	-0.075231	11.234313	1.272138	-1.45976	-11.947613	-19.029328	-18.40603	-0.696647	-0.06344	-0.351253
-3.20881	2.049005	9.622194	-6.714582	0.196739	1.586581	0.395246	0.456967	-1.438695	-12.588372	7.135779	37.726789	-4.235031	345.090326	-278.126226	-0.558655	-0.973225	-0.12139	11.353892	2.027598	-1.274625	-2.598923	-16.866061	-20.314254	-0.724596	-0.099538	-0.287608
-2.239198	2.564551	9.472736	-4.058203	2.71618	2.75458	0.350998	0.475048	-1.402251	-13.286309	10.052002	21.466436	-39.85549	96.910071	-23.59648	-0.518257	-1.02785	-0.204302	10.52805	1.390405	-1.352657	4.412819	-13.446499	-17.330693	-0.696225	-0.049726	-0.305506
-2.929343	2.219675	9.287367	-8.233062	2.434042	1.53531	0.364733	0.488445	-1.406016	-8.672683	-3.770134	7.227755	-3.251763	127.124172	-9.024288	-0.49179	-1.040877	-0.232549	10.598881	1.044286	-0.753971	7.164251	-10.404492	-14.788222	-0.724809	-0.097059	-0.334191
-3.0474	2.506242	9.115787	-4.189275	2.708865	0.638773	0.394103	0.480981	-1.431451	-8.278024	0.566561	7.239869	-11.58753	164.902327	2.196398	-0.492085	-1.041949	-0.218199	10.382739	0.526345	0.257819	6.74722	-8.912606	-14.274323	-0.710968	-0.1147	-0.302228
-2.711833	2.73407	8.725461	-2.193889	3.585253	0.064583	0.365119	0.474674	-1.4026	-6.098208	-1.74756	6.717467	-47.075042	235.567919	25.129874	-0.491495	-1.039805	-0.246899	10.045284	0.472788	1.149573	4.495685	-7.891527	-10.267698	-0.668827	-0.081703	-0.303692
-2.656107	3.308203	8.672135	-4.531918	3.317959	-1.71178	0.349855	0.499062	-1.395007	-5.48009	-0.563942	8.826218	-67.347853	284.325846	6.053547	-0.451461	-1.050613	-0.304121	9.465006	0.011508	1.615845	1.442365	-7.338767	-5.614017	-0.696572	-0.082938	-0.288304
-2.59386	2.562387	8.897524	-6.124369	4.965703	-4.011219	0.407838	0.494377	-1.435216	-4.008808	0.955663	10.500269	-75.826549	314.625952	3.758979	-0.463991	-1.018975	-0.320202	8.710016	-0.506949	2.198384	2.82587	-7.605602	-5.95393	-0.683014	-0.097273	-0.318453
-2.590478	2.505669	9.067842	-9.943677	6.728833	-3.848895	0.350598	0.506119	-1.423159	-2.276579	0.727297	10.762905	-69.765501	330.50559	-12.200897	-0.371759	-1.028411	-0.392878	8.527371	0.480007	2.019565	6.668474	-7.569677	-8.107298	-0.723966	-0.069632	-0.242699
-2.591716	2.677752	9.011713	-8.401319	7.896811	-3.22098	0.363233	0.491631	-1.367204	-1.325616	1.90741	9.595021	-68.282466	343.171177	-32.419147	-0.39675	-1.010025	-0.436379	7.347858	0.134251	1.996072	11.964051	-7.038815	-10.298813	-0.724459	-0.082519	-0.303973
-2.992662	2.907809	9.004883	-7.352773	8.415062	-2.418195	0.365519	0.443603	-1.381693	-0.570121	1.962624	9.950622	-68.832634	354.625974	-44.635745	-0.34337	-1.004365	-0.509231	7.638807	0.016435	1.761452	17.581921	-7.467901	-14.198213	-0.752416	-0.081275	-0.335169
-2.76278	3.252533	9.067638	-10.082526	8.157523	-2.506529	0.378868	0.470771	-1.388873	-0.168672	2.750496	9.959748	-72.65875	365.951551	-57.595748	-0.291541	-1.019386	-0.50933	6.757541	-0.271178	1.92343	20.352001	-7.230881	-15.462303	-0.682802	-0.099752	-0.271869
-2.993237	2.160827	8.944893	-12.867764	8.070525	-1.395868	0.377367	0.473957	-1.350061	0.776229	2.918712	11.112025	-77.422305	374.079843	-70.094842	-0.251062	-0.998481	-0.582909	6.634547	-0.504448	1.620706	21.776927	-6.617169	-15.1648	-0.710338	-0.084794	-0.257319
-3.548913	1.935094	9.785589	-19.218948	9.973809	1.628133	0.350212	0.51989	-1.426574	1.953162	3.424574	12.382701	-76.032117	382.906155	-79.221996	-0.237131	-1.040079	-0.637573	7.037236	0.189541	1.152121	26.328225	-6.918631	-16.982819	-0.696643	-0.082111	-0.303832
-3.449129	2.276524	9.050174	-5.334088	14.393505	2.42669	0.36509	0.509272	-1.437584	2.125103	3.818565	12.38666	-71.133059	373.841138	-87.014127	-0.196351	-0.957893	-0.715167	6.863354	0.248764	1.328787	32.324981	-6.927925	-19.93809	-0.682735	-0.081907	-0.303762
-3.33433	1.874351	9.050712	-11.113868	11.663385	2.306952	0.378096	0.498313	-1.395705	4.277298	2.914095	13.393504	-68.010527	359.097924	-90.857227	-0.105079	-0.985865	-0.74379	6.973393	-0.10194	0.85025	39.336002	-7.082087	-23.324072	-0.725014	-0.131923	-0.285934
-3.443851	2.679821	9.336129	-5.801839	11.973193	4.259406	0.364361	0.484916	-1.39194	5.118481	3.193277	12.392362	-71.024749	335.986385	-90.473452	-0.064079	-0.917927	-0.83473	7.145074	-0.161657	0.553769	41.926808	-7.0425	-23.303084	-0.752692	-0.115313	-0.302439
-3.384245	2.507938	9.450225	-8.049041	13.310704	7.354298	0.363976	0.498687	-1.395356	5.791049	3.867286	11.614483	-90.188502	302.618549	-79.139374	0.014517	-0.884692	-0.867091	7.326389	-0.102997	0.796946	41.845353	-5.449403	-23.585405	-0.724596	-0.099538	-0.287608
-3.144999	2.222736	9.96515	-5.793446	13.85817	3.370001	0.406695	0.518391	-1.427971	6.555761	3.528518	12.36623	-133.704453	274.174231	-68.422824	0.093479	-0.895274	-0.925141	7.381969	-0.045798	0.618572	38.398706	-4.41992	-23.761182	-0.724459	-0.082519	-0.303973
-3.385525	2.737463	9.394337	3.856524	17.269488	4.624356	0.406709	0.501092	-1.410479	7.539152	4.430595	15.38823	-161.699705	258.491434	-60.371465	0.120322	-0.831699	-0.958406	7.439189	-0.220656	0.499117	35.162049	-2.940377	-20.059063	-0.697127	-0.132341	-0.270265
-3.39769	2.619926	8.76847	-1.430097	16.130819	2.597027	0.378082	0.515612	-1.413197	8.331129	4.374571	17.442924	-154.713765	251.434604	-58.525003	0.225322	-0.706391	-0.99734	7.397355	-0.507192	1.395384	32.586415	-1.018251	-14.558354	-0.668827	-0.081703	-0.303692
-3.157372	2.392407	9.34049	-3.639606	14.4385	4.569254	0.362475	0.501873	-1.356544	9.542444	4.992086	17.638751	-138.466264	252.308113	-67.041552	0.316373	-0.720115	-1.012617	7.573823	-1.205004	1.275905	31.411344	1.81586	-8.027759	-0.683361	-0.130485	-0.301251
-3.493969	2.049453	9.673479	-0.699604	15.648136	2.096399	0.391474	0.490882	-1.367902	11.625894	4.875971	18.191934	-137.013101	261.088687	-77.432989	0.355087	-0.645431	-0.989763	8.386168	-0.919481	0.573665	34.232719	4.439572	-3.435713	-0.683641	-0.145851	-0.315942
-3.493021	2.279461	9.731298	-5.860947	18.137541	2.70373	0.362847	0.505402	-1.37062	14.960761	5.658253	18.149435	-135.03761	267.011447	-89.917358	0.419382	-0.58699	-0.952107	7.856799	-1.208399	0.622431	40.445193	5.45968	-2.332276	-0.711315	-0.147912	-0.285026
-3.152586	1.933839	9.565972	-12.779675	19.928328	1.863392	0.420444	0.514488	-1.414244	18.904948	5.030042	16.872978	-129.153526	268.818356	-106.815929	0.45846	-0.556124	-0.954941	8.966136	-1.27176	-0.015883	42.366603	6.535333	-2.160993	-0.669311	-0.131933	-0.270125
-3.379993	1.244948	9.615475	-11.994458	18.964349	0.465417	0.40558	0.507806	-1.385743	22.249373	6.26101	14.623123	-123.048799	263.394522	-127.052707	0.549072	-0.54135	-0.943525	8.087921	-0.977624	0.388195	39.343512	7.709526	1.573012	-0.711039	-0.113874	-0.317756
-3.575596	1.871863	8.420874	-15.491062	22.961344	-6.513304	0.449828	0.489725	-1.422187	24.099908	9.184933	12.626458	-133.766478	250.89143	-136.616719	0.561538	-0.467889	-0.90577	9.204401	-1.271806	0.108332	34.351683	8.463815	6.783352	-0.724667	-0.098712	-0.303136
-3.016242	0.087624	7.685438	-43.695631	15.156246	-18.152329	0.40558	0.507806	-1.385743	25.972672	9.969008	11.477584	-138.347048	243.117572	-136.543697	0.613662	-0.481837	-0.920219	9.914256	-1.040627	0.24234	29.886594	7.814795	8.85046	-0.669315	-0.113262	-0.317546
-3.514164	7.437762	20.550408	-103.297698	43.158187	-15.777385	0.389902	0.580564	-1.416549	27.787762	10.809521	10.327549	-118.539456	226.289783	-132.842818	0.638954	-0.438941	-0.880732	10.263775	-1.914061	-0.114207	28.445619	5.492683	8.102637	-0.669591	-0.147299	-0.284816
-3.435215	6.695564	21.628593	-11.100874	123.753884	-18.78087	0.431177	0.534257	-1.340385	28.673945	10.074077	8.647087	-84.520118	193.343811	-119.089326	0.689903	-0.396967	-0.827447	11.727385	-1.106598	-0.622397	28.271439	1.80091	4.178083	-0.710622	-0.081489	-0.31943
-2.35783	2.104136	9.241166	46.420988	145.405045	-21.784226	0.431921	0.541314	-1.368537	31.756008	11.022543	4.86289	-58.036906	142.205791	-98.186877	0.742032	-0.350706	-0.831561	12.084472	-1.920225	-0.559348	26.32183	-1.859993	2.582739	-0.683081	-0.115118	-0.28656
-2.804917	4.81946	12.824231	-59.777232	134.342501	-35.062588	0.474682	0.50912	-1.348677	34.341672	10.113783	1.915842	-43.935872	85.119561	-70.417227	0.741592	-0.322209	-0.804869	12.487972	-1.574692	-1.029417	22.098078	-5.512616	2.370959	-0.697895	-0.179266	-0.29881
-2.644139	5.518808	15.217183	-22.976852	165.182959	-49.759324	0.502123	0.570511	-1.391191	34.279721	10.90004	-0.915474	-26.987976	32.159399	-28.761691	0.715345	-0.323431	-0.789967	12.083662	-1.571769	-0.557865	17.515247	-8.193667	2.73655	-0.66987	-0.162665	-0.299506
-2.564599	4.591941	13.39625	-31.799833	189.69607	-64.428898	0.542984	0.572574	-1.353427	37.047795	14.340944	10.468531	74.837447	-6.989314	-0.338107	0.71542	-0.30811	-0.790971	11.373808	-1.802947	-0.691873	14.989217	-9.790791	5.473506	-0.697548	-0.146055	-0.316012
-2.65849	5.343348	14.477369	-52.645373	212.444204	-77.529035	0.50218	0.501314	-1.321224	26.525791	18.586262	11.213731	190.876391	-90.151096	81.986223	0.740556	-0.356065	-0.759812	11.371762	-1.396662	-0.750049	10.8703	-10.171743	8.363311	-0.655612	-0.147921	-0.269218
-2.74425	4.085748	15.891161	-54.837587	243.218691	-84.232331	0.599524	0.501878	-1.284856	13.679142	19.912719	18.701233	304.999218	-153.092021	235.179327	0.727285	-0.357212	-0.745187	11.191183	-0.351136	-0.808807	11.822024	-10.160426	7.59569	-0.654848	-0.082325	-0.288094
-2.224791	2.937268	16.066915	-49.05004	275.694585	-83.720378	0.654834	0.558992	-1.313992	-4.21129	10.402493	-8.914311	233.513743	-139.38604	271.746067	0.714153	-0.448138	-0.753239	12.541047	0.980518	-1.017438	20.867644	-7.920085	-4.825863	-0.669244	-0.114088	-0.302018
-1.6723	2.312999	17.950434	-50.851542	311.878011	-77.940766	0.666325	0.568518	-1.250793	-7.864994	18.724919	30.929284	181.087034	-110.549778	311.905335	0.648677	-0.510867	-0.733496	14.407386	3.411682	-1.870444	33.096355	-3.200312	-25.214535	-0.655407	-0.113058	-0.317475
-1.542171	1.639341	21.644103	-48.749297	356.556519	-67.708201	0.709473	0.522553	-1.227518	16.440033	17.196292	10.321311	248.613353	-232.915172	277.337043	0.648011	-0.528331	-0.703793	16.578879	3.403967	-2.488704	14.819357	5.165816	-30.07726	-0.669173	-0.114914	-0.28649
-0.300069	0.555525	23.652759	-23.012033	413.163395	-53.17771	0.748805	0.5624	-1.185925	18.015016	18.421728	-2.043034	129.743672	-233.339145	119.858867	0.596472	-0.572449	-0.728378	15.503828	4.158913	-3.104366	2.954839	16.339813	-11.355676	-0.655336	-0.113884	-0.301947
-3.358439	-0.92872	25.235096	6.770817	459.574078	-29.071605	0.817922	0.546414	-1.131367	10.311047	7.967756	8.089724	41.026651	-185.150902	-13.696212	0.557029	-0.559497	-0.699855	12.847811	3.816286	-3.215277	9.871451	22.259264	4.330469	-0.669662	-0.146473	-0.300344
-4.96778	3.966834	28.009118	76.0096	481.206375	-3.829867	0.858797	0.531177	-1.076111	0.391258	4.891888	12.124735	-4.921893	-171.705376	-9.283799	0.530701	-0.636249	-0.694286	10.919101	3.302013	-2.295306	-1.350481	20.728888	12.386425	-0.683707	-0.163696	-0.284049
-15.574624	2.567595	21.147746	105.883031	480.589377	-23.800423	0.942435	0.483746	-1.000995	0.545836	2.35579	11.050075	-2.958203	-146.759845	61.442302	0.50446	-0.577261	-0.669049	9.346532	2.380645	-1.310556	-13.398329	19.61879	20.932975	-0.683223	-0.113466	-0.317616
-9.642941	2.628246	23.025123	96.882489	453.083198	-9.684354	0.939848	0.441748	-0.884971	4.525115	3.752275	6.209448	61.306319	-126.672055	75.599005	0.506081	-0.601471	-0.75314	8.072907	1.691896	-0.079688	-17.060122	18.225771	24.223707	-0.683361	-0.130485	-0.301251
-6.185323	2.515701	24.228511	175.909881	438.250692	-11.411003	0.996359	0.405651	-0.851384	11.161216	-2.282574	11.948301	-3.405763	-52.925415	-40.439396	0.479758	-0.618013	-0.737236	7.388052	0.652845	1.040888	-11.402913	17.651747	16.594555	-0.655545	-0.130076	-0.30111
-6.290296	0.104929	24.614121	185.984718	460.786708	-46.592694	1.093731	0.371617	-0.780033	11.441516	2.671683	9.354306	-42.130735	-31.681213	-6.10343	0.479093	-0.635478	-0.707533	8.292852	1.236277	2.198097	-11.361259	18.645914	0.329109	-0.669595	-0.128628	-0.332236
0.804872	-0.63557	27.420038	176.178855	454.597509	-62.157585	1.092631	0.343733	-0.720314	2.530792	4.432867	7.187218	44.53622	-7.094155	3.767443	0.452996	-0.606059	-0.694639	10.942672	1.403193	1.948825	-12.194286	19.072023	-11.588893	-0.669595	-0.128628	-0.332236
6.0368	1.40392	8.264891	209.569642	402.036809	-64.82792	1.13162	0.345453	-0.629661	3.537357	6.007139	5.964235	30.073271	-22.135695	6.257491	0.479463	-0.619085	-0.722886	11.988881	1.687681	1.131172	-6.869458	16.648703	-20.947636	-0.614172	-0.144004	-0.331118
33.132291	-16.234597	-14.582887	-68.444675	233.818379	-21.763686	1.115642	0.328186	-0.558932	2.10049	4.434915	8.593537	-15.717231	-3.339991	11.401772	0.453731	-0.633484	-0.735681	11.976081	1.510486	0.411548	1.946723	14.289906	-23.504573	-0.655896	-0.144616	-0.331329
2.498506	-11.969328	-3.453706	-153.414834	-167.109064	156.512817	1.144312	0.261768	-0.50374	3.448517	3.250349	9.639859	0.65479	-5.996925	8.706428	0.453436	-0.634556	-0.721331	11.559126	1.742994	0.225113	4.492607	13.70673	-19.477403	-0.641566	-0.130698	-0.285512
11.711951	4.923035	26.405354	-129.10598	-358.561881	210.440268	1.146169	0.279409	-0.574119	3.171115	2.856954	10.086599	-2.338508	-4.224586	-0.896798	0.466632	-0.648729	-0.734953	11.911583	1.974241	0.172797	-0.690672	11.800248	-17.34101	-0.600122	-0.145452	-0.299992
10.027718	2.760842	30.909913	-114.44161	-230.177605	100.125685	1.090445	0.270665	-0.583383	2.929566	3.701963	9.629358	8.201433	-6.229091	-2.141369	0.402198	-0.617392	-0.749931	11.38621	1.86054	0.461934	-9.004367	9.078921	-11.430521	-0.641988	-0.144412	-0.331259
5.746022	-2.880745	13.696895	-19.362937	-184.940975	121.242856	1.107209	0.24309	-0.629788	2.61737	4.433898	8.547778	8.946915	-6.026831	-3.495186	0.453511	-0.619235	-0.722334	9.793023	1.283178	0.369842	-11.062159	6.665553	-6.521844	-0.655754	-0.146269	-0.300273
7.291358	0.035551	10.897725	6.359968	-196.924693	111.688499	1.065204	0.265042	-0.660308	2.912666	4.320982	8.893565	2.866326	-2.90849	0.199459	0.453656	-0.648804	-0.734677	10.079706	1.106297	-0.104652	-7.319666	6.408081	-3.997557	-0.64185	-0.127393	-0.347624
6.543566	-2.217682	7.691179	16.069514	-230.205722	101.742104	1.01098	0.253111	-0.708384	2.686654	3.36389	9.001202	0.767689	-2.6662	1.279164	0.440385	-0.649951	-0.720051	9.544408	0.525516	-0.416563	-2.39165	6.963519	-5.729509	-0.642129	-0.14276	-0.362314
6.412266	-0.555172	6.900007	-1.253001	-273.550174	99.464213	1.012137	0.211798	-0.698136	2.751496	3.983749	9.39941	-0.198841	-3.411505	0.839381	0.427189	-0.635778	-0.70643	9.599313	0.873095	-0.5937	-0.458454	8.012788	-8.91987	-0.655687	-0.128424	-0.332166
5.166356	0.540265	7.619185	-32.607108	-305.335737	81.07702	0.929243	0.266286	-0.801404	2.974396	4.039364	9.064456	-3.233426	-3.972844	1.077983	0.453291	-0.604987	-0.708988	8.243737	1.050924	-0.498454	-1.076796	8.821067	-10.388393	-0.613959	-0.146483	-0.284535
3.926636	0.775286	8.619009	-60.65547	-326.914653	61.985555	0.900645	0.246207	-0.769138	2.801269	4.26501	9.061019	-1.043504	-4.135448	2.064631	0.465966	-0.666193	-0.70525	7.873674	0.815721	-1.404649	-3.38285	9.048967	-9.555997	-0.62843	-0.158748	-0.361407
2.588819	1.416098	10.471092	-62.71988	-337.942248	53.841678	0.875004	0.271654	-0.866971	2.67077	4.7153	8.379305	-1.756092	-4.126277	3.975502	0.440385	-0.649951	-0.720051	7.630467	1.047082	-1.767504	-6.517634	8.956298	-7.588312	-0.599984	-0.128434	-0.316357
0.934292	2.567579	10.784746	-61.149953	-343.860811	41.753407	0.833028	0.259007	-0.862508	2.978346	3.870515	9.234232	-9.682214	-2.808879	7.527496	0.441346	-0.631415	-0.764104	7.572281	1.163616	-1.708203	-8.54994	8.043556	-5.804045	-0.614101	-0.14483	-0.315591
-0.885643	2.629	11.374739	-52.654479	-334.865665	28.291887	0.763512	0.306064	-0.937973	2.851689	4.208287	8.722342	-10.033296	-3.8167	6.222394	0.466487	-0.61916	-0.72261	7.462222	1.049465	-1.29155	-10.164359	6.879121	-6.159378	-0.627871	-0.128016	-0.332026
-2.379458	3.66306	11.12272	-48.920934	-315.543543	11.361397	0.678017	0.335853	-0.94271	2.389718	3.70208	8.598965	-10.6629	-4.744511	6.212662	0.440385	-0.649951	-0.720051	6.996405	0.703325	-1.002302	-12.277464	6.437309	-8.533381	-0.586285	-0.144422	-0.31545
-2.93575	2.747788	11.903667	-44.889888	-295.469682	-1.327178	0.636798	0.312963	-0.948906	3.046768	3.251151	9.688036	-13.667737	-5.53992	4.784227	0.427779	-0.633634	-0.735129	6.993394	1.051287	-1.120633	-15.522278	6.346818	-9.774184	-0.628568	-0.175767	-0.345042
-3.672719	3.381872	12.289818	-32.825309	-278.15479	-9.085388	0.607414	0.337726	-0.940964	2.870207	2.74431	9.457424	-3.469241	-8.046532	-0.072524	0.453957	-0.587523	-0.738691	6.879203	0.819994	-0.944102	-17.168519	5.712094	-11.079288	-0.61466	-0.175563	-0.344972
-4.465125	3.039733	12.727606	-22.23357	-268.120603	-13.15475	0.509699	0.333634	-0.963255	3.0238	3.25025	8.611884	-2.298252	-8.276364	-0.166352	0.467297	-0.631265	-0.764656	7.173318	0.760996	-0.998754	-20.458115	3.22631	-11.422234	-0.614105	-0.126159	-0.363011
-5.043071	2.809175	12.43124	-12.77823	-265.424461	-13.690258	0.453588	0.33866	-0.975934	2.927041	3.758199	9.516126	-1.137422	-6.823563	0.311449	0.414878	-0.618389	-0.735857	7.230404	0.644215	-1.117962	-20.507651	0.343194	-10.674852	-0.655825	-0.145443	-0.315801
-5.602621	1.778296	13.041146	-7.137649	-262.262591	-10.741491	0.411227	0.339784	-0.974887	3.039084	3.476188	9.348388	-2.622653	-7.054827	-0.031155	0.427854	-0.618313	-0.736133	7.34527	0.585127	-1.295729	-21.219006	-0.990147	-9.168451	-0.614243	-0.143178	-0.346646
-6.627011	0.918625	13.301749	7.375756	-249.162853	-4.160695	0.367365	0.344094	-0.935027	2.516591	3.251647	9.11076	1.259683	-7.947036	-1.424164	0.492734	-0.617938	-0.737511	7.176059	0.529186	-0.879929	-21.893104	-1.46624	-7.727379	-0.613821	-0.129464	-0.3009
-7.673506	-0.175637	12.424325	14.017056	-235.20611	2.241753	0.339452	0.400269	-1.00088	2.863084	3.307378	9.1747	7.209777	-6.372149	-0.941297	0.44068	-0.648879	-0.734401	7.769522	0.528578	-0.689204	-25.6407	-1.536836	-5.14632	-0.600264	-0.1438	-0.331048
-7.494523	-0.921054	12.765647	11.441248	-226.050229	10.371188	0.34061	0.358956	-0.990633	2.810593	3.814698	9.457116	5.859289	-5.512963	1.039157	0.428225	-0.601921	-0.751486	8.007092	0.354057	-0.625637	-31.17031	-1.190659	-2.071744	-0.600193	-0.144626	-0.31552
-8.351112	-0.919949	12.86265	3.13867	-220.917524	18.236742	0.268478	0.398614	-0.985058	2.750802	3.082366	9.285372	9.271533	-4.423383	0.467002	0.441126	-0.617167	-0.750758	7.890275	-0.168357	-0.630063	-34.80319	-1.088952	-1.325572	-0.600406	-0.142147	-0.362104
-9.21199	-1.149576	12.731277	-3.290826	-219.269996	24.936075	0.252886	0.367576	-0.910913	2.989549	3.70195	9.743846	8.325706	-8.245598	1.692191	0.440535	-0.61931	-0.722059	8.410686	-0.288197	-1.219722	-39.139749	-1.062007	0.493211	-0.58608	-0.109558	-0.363708
-10.418621	-1.379437	12.479516	-16.371665	-219.82037	27.417834	0.223859	0.413166	-0.934538	3.100276	3.476223	9.519516	5.477266	-11.252519	1.135922	0.427854	-0.618313	-0.736133	8.245878	-0.343148	-0.564295	-44.228434	-0.762518	5.278133	-0.599776	-0.112241	-0.317194
-12.038572	-1.209571	11.596266	-41.460489	-220.961057	25.509072	0.194903	0.37226	-0.870704	2.704894	3.30827	9.850749	6.187992	-13.636764	1.359413	0.427189	-0.635778	-0.70643	8.534356	-0.345307	-0.918234	-47.804917	0.253528	9.320775	-0.61403	-0.145656	-0.300063
-13.707035	-0.807967	11.167692	-77.947887	-226.051017	17.25213	0.208652	0.368357	-0.856978	3.057001	3.589561	10.198077	2.15784	-19.408091	3.888361	0.427333	-0.665347	-0.718772	8.482638	-0.169213	-0.499245	-45.936833	0.721874	12.001535	-0.57196	-0.111833	-0.317054
-16.680925	-0.805088	11.28035	-116.247663	-239.351579	7.916007	0.207495	0.40967	-0.867225	3.565935	2.686876	9.698442	0.070794	-27.651664	8.367335	0.414207	-0.696063	-0.716489	8.243251	-0.63427	-0.745252	-42.808881	1.295678	13.79086	-0.586289	-0.125751	-0.362871
-19.117504	-0.453108	12.541539	-135.090943	-253.05153	3.699751	0.20788	0.395899	-0.863809	1.632779	8.045651	13.965245	-30.968931	-41.669024	9.374494	0.441126	-0.617167	-0.750758	8.302112	-1.041185	-0.805789	-38.919956	2.856709	17.987534	-0.585939	-0.111211	-0.332652
-22.837313	0.239367	12.585764	-134.741497	-249.732241	1.452577	0.263577	0.439242	-0.88953	3.896306	4.946128	17.293672	4.693335	-78.802391	15.878081	0.414954	-0.603068	-0.736861	8.718371	-1.448167	-0.680003	-32.534914	4.459849	21.930559	-0.58573	-0.095018	-0.333489
-25.099974	1.3261	11.068742	-118.232803	-224.806575	2.300482	0.235321	0.457291	-0.906323	2.894969	3.702972	10.704302	20.758245	-98.329861	11.997458	0.42837	-0.63149	-0.763829	9.554636	-1.505909	-0.125682	-25.525193	4.866934	23.431643	-0.585592	-0.078	-0.349854
-29.872853	-1.674832	6.871465	-98.89742	-180.099447	11.956151	0.236436	0.467876	-0.948551	2.541161	4.942653	10.414894	7.672989	-108.915127	19.496514	0.376321	-0.602221	-0.750383	10.030472	-1.680475	0.062101	-19.235643	4.88924	23.43932	-0.585592	-0.078	-0.349854
-27.791521	0.326368	5.101812	-44.464046	-84.781501	24.754894	0.264663	0.484426	-0.966741	2.465168	5.338747	12.281915	-7.848521	-119.390774	24.158489	0.414803	-0.633709	-0.734853	10.974595	-1.62456	0.079955	-13.878097	4.611459	22.56532	-0.585939	-0.111211	-0.332652
-27.854137	3.759833	2.046223	-56.560551	-51.125499	20.675565	0.22193	0.482021	-0.951617	2.692927	6.014235	12.23068	6.135014	-135.785876	38.681923	0.376246	-0.617542	-0.749379	11.449871	-2.031678	0.206842	-10.445302	4.759066	24.264022	-0.613754	-0.111619	-0.332793
-28.61651	9.009347	7.168258	-66.405108	-28.556313	37.873638	0.252414	0.485143	-1.01928	2.559556	6.07007	11.378715	2.615937	-149.016947	51.342438	0.350514	-0.63194	-0.762174	11.469388	-2.375931	1.223776	-9.223855	4.975645	27.40719	-0.627178	-0.061593	-0.36643
-28.99453	9.876327	8.357999	-16.466315	2.668262	42.499093	0.195518	0.535011	-1.056282	2.291178	6.015037	12.278857	-0.374574	-164.362979	64.445177	0.350068	-0.663653	-0.745817	11.116277	-1.851942	1.339212	-8.300614	4.889092	27.220842	-0.571472	-0.080274	-0.3032
-29.068663	13.204841	7.631791	57.97095	51.712022	19.349267	0.224545	0.48942	-1.032657	2.52144	6.014606	12.283692	5.305513	-182.969322	76.412879	0.311216	-0.648558	-0.745994	11.118363	-1.328516	1.521158	-7.078076	4.448228	25.904034	-0.571542	-0.079448	-0.318728
-29.883132	16.292506	4.162308	148.729027	128.114551	-23.709701	0.237908	0.499288	-1.022346	2.887706	5.845774	13.253677	8.148273	-203.985048	84.808828	0.259462	-0.618217	-0.746898	11.116608	-0.573528	1.524372	-3.697591	4.015758	24.518246	-0.57092	-0.012199	-0.36866
-37.362313	25.297356	-0.377988	134.807348	230.625132	-114.749291	0.239065	0.457975	-1.012099	2.674584	5.734208	14.041701	7.497501	-227.687936	93.144609	0.220089	-0.650155	-0.729714	11.464588	1.109372	1.41833	-2.477135	2.364635	18.958296	-0.557288	-0.046033	-0.33586
-22.238494	25.013482	3.267986	287.262488	289.746799	-156.643947	0.268049	0.464283	-1.040949	2.182205	5.567182	15.22011	11.0184	-256.532352	96.992737	0.207703	-0.648086	-0.758137	13.702071	3.31113	1.469542	-3.427291	-2.444433	4.496528	-0.598874	-0.029626	-0.352436
-9.86389	5.695149	14.793342	237.513299	221.708282	6.754018	0.283356	0.387996	-0.996067	1.776272	4.837834	17.701965	9.675452	-291.60179	98.462656	0.142013	-0.636357	-0.714713	16.537688	5.397117	1.950612	5.976605	-12.703472	-8.783191	-0.585312	-0.062633	-0.335163
-8.362626	4.867612	9.590657	66.31602	189.280038	42.074746	0.296333	0.411636	-0.989172	2.385001	4.220738	21.903654	19.010836	-337.282695	97.9242	0.115916	-0.606938	-0.701819	16.942632	4.174103	1.354054	-1.0909	-19.608264	-0.075653	-0.571405	-0.062429	-0.335093
-0.81934	5.24875	6.101843	52.616685	166.178003	31.467051	0.368822	0.392806	-1.026315	3.785571	3.376241	25.442403	58.998059	-384.902355	89.713671	0.03791	-0.638029	-0.698158	13.22878	1.917397	1.215177	-14.16631	-10.782254	20.347235	-0.543238	-0.047481	-0.304734
-18.498431	0.520771	12.046212	-138.513062	18.338012	-139.514149	0.424547	0.40155	-1.017051	7.34511	4.552215	25.178513	90.71844	-425.833018	88.778116	-0.000942	-0.622933	-0.698334	11.36899	1.405214	2.67541	-17.988157	-10.30156	19.8697	-0.58545	-0.079652	-0.318798
2.573157	9.59079	1.241886	124.887945	65.70932	2.027143	0.382586	0.371603	-0.995096	8.939131	8.318195	19.327439	88.972646	-449.208233	87.064835	-0.079389	-0.625527	-0.66798	10.700929	0.530862	1.521366	-15.489631	-6.662415	14.860837	-0.570499	0.001514	-0.322914
-2.63089	5.12719	4.19069	-56.183414	17.005772	-23.729933	0.368837	0.375506	-1.008823	6.329408	8.385721	26.462689	39.217456	-451.998987	87.860443	-0.119573	-0.645361	-0.60875	10.674404	1.04786	0.145733	-30.514471	-3.591684	8.512367	-0.599358	-0.079856	-0.318869
-5.193501	-0.518208	13.380406	-64.650846	2.752053	-33.26191	0.424561	0.384251	-0.999559	5.425679	4.780335	24.232575	85.338547	-465.115399	91.159174	-0.159311	-0.633481	-0.565877	11.352386	2.201579	-1.33379	-38.931479	-5.017674	10.41414	-0.556662	0.002545	-0.338371
-2.942048	2.848878	8.664637	37.423683	21.800465	-7.17521	0.423018	0.439335	-1.013223	8.723733	2.6881	22.205272	86.236975	-452.196082	96.714797	-0.198974	-0.606281	-0.524008	11.916137	2.194295	-2.760551	-30.961933	-10.486581	15.54647	-0.542821	-0.015096	-0.306408
-3.203279	4.278327	7.074329	-2.521788	9.999875	-15.502252	0.411184	0.391682	-1.027362	10.489782	3.592488	29.546389	105.726539	-420.184286	95.629666	-0.252579	-0.657902	-0.448146	11.273002	1.964713	-2.47411	-23.31094	-15.970842	13.191321	-0.584753	-0.031901	-0.305782
-3.175519	2.848079	8.432771	-17.676523	7.370885	-14.826604	0.41157	0.377911	-1.023946	0.156225	2.375997	33.234666	120.361974	-445.818649	81.172903	-0.291947	-0.62963	-0.420626	10.166635	0.750401	-1.841235	-25.195087	-17.840352	4.037575	-0.556591	0.001719	-0.322843
-3.952869	1.704895	9.606271	-12.455935	3.829414	-6.679658	0.411941	0.381439	-1.038022	-14.009365	-3.019998	16.061373	-2.063443	-443.13916	39.508826	-0.332797	-0.666927	-0.331694	9.991092	0.576826	-1.785371	-26.62218	-17.210948	-4.089984	-0.542817	-0.033767	-0.258988
-2.980657	1.703949	9.568347	-3.205549	2.642246	1.493555	0.395163	0.426313	-1.009109	-32.383459	-25.320624	-16.501044	72.847279	-260.720693	26.30338	-0.36059	-0.628619	-0.233705	10.408668	1.971436	-1.352386	-23.107914	-15.990223	-11.504293	-0.542963	-0.013444	-0.337464
-3.77327	1.649017	10.007341	-2.948189	3.609763	3.011247	0.396706	0.371229	-0.995445	-9.196708	-3.825732	6.93363	-122.2185	208.979768	-213.975384	-0.321448	-0.702852	-0.258213	10.578574	2.201851	-1.707537	-8.385539	-14.201372	-16.761248	-0.557008	-0.030666	-0.321169
-2.823043	2.792319	8.894035	4.000741	6.049708	4.809597	0.380699	0.388561	-0.9597	-11.104609	8.986784	31.928324	-32.825395	333.856493	-281.465413	-0.308692	-0.688529	-0.245143	10.240153	2.089971	-0.875938	0.754885	-11.587258	-17.96805	-0.584474	-0.016535	-0.291091
-3.048265	2.161351	9.057486	-1.774375	4.59026	3.759818	0.397078	0.374757	-1.009521	-12.759051	8.417684	21.759138	-41.230919	148.483233	-55.60549	-0.268363	-0.698264	-0.316715	10.71927	1.45129	-0.570319	1.78693	-8.689538	-13.890712	-0.556662	0.002545	-0.338371
-3.154487	3.024987	9.513703	-1.686178	5.227565	1.807207	0.396306	0.402299	-1.016353	-7.768078	-3.150455	9.228797	-18.518749	162.344222	-41.855412	-0.255902	-0.685013	-0.289295	10.791356	1.512198	0.149911	-0.448574	-7.950586	-12.1748	-0.570912	-0.049542	-0.273819
-3.107379	3.195099	9.003863	-1.003881	7.461082	0.277489	0.381814	0.399145	-1.001928	-8.540658	1.30044	8.480512	-7.091929	192.781566	-51.284038	-0.242926	-0.684938	-0.289571	10.684288	0.58523	0.62301	-2.503398	-8.789465	-14.577565	-0.542963	-0.013444	-0.337464
-3.007511	3.421646	8.267965	-4.058735	9.640134	-0.690346	0.409684	0.394868	-0.98855	-6.955706	-0.450009	7.096902	-40.218534	245.490822	-23.135174	-0.2427	-0.638976	-0.292582	10.169494	0.183374	1.450072	-3.936896	-9.35556	-16.525453	-0.570353	-0.018809	-0.244437
-3.448015	2.276766	9.107027	-10.7331	7.110362	-2.583012	0.397463	0.360986	-1.006105	-5.566752	0.111041	7.522867	-76.50044	285.016248	-33.220863	-0.229285	-0.667398	-0.31955	9.408191	0.012137	1.734559	-3.475738	-10.034391	-15.790469	-0.571334	-0.063255	-0.319565
-3.672703	2.450221	9.33071	-8.701059	6.81159	0.197085	0.395949	0.381472	-0.984785	-5.302812	1.463965	9.228029	-92.775579	315.233252	-28.524818	-0.202817	-0.680425	-0.347797	8.581675	-0.334676	1.657762	-1.141505	-10.257111	-17.11189	-0.543026	-0.04996	-0.258151
-2.949842	2.847189	8.266665	-4.453723	9.565688	0.290956	0.409669	0.412167	-1.006042	-4.604774	1.462956	9.582373	-107.873052	332.878395	-32.491884	-0.138082	-0.650481	-0.336833	8.168447	0.189201	1.712191	0.456055	-10.426675	-17.911389	-0.571263	-0.064082	-0.304038
-3.102386	2.449324	9.228138	-13.566989	7.549813	0.867112	0.396335	0.367701	-0.981369	-3.347612	3.150264	9.327194	-111.666436	352.185732	-39.793254	-0.189101	-0.647565	-0.378779	7.230656	0.250921	2.054273	2.063652	-9.901235	-17.88916	-0.543794	-0.096885	-0.286695
-3.26491	1.991846	9.677692	-13.892952	9.049531	1.291105	0.396663	0.423127	-1.047921	-2.953927	4.447211	11.714401	-116.915625	370.342031	-56.755327	-0.124446	-0.693152	-0.377147	7.107797	-0.040426	1.751301	5.052635	-9.700649	-18.512109	-0.529886	-0.096681	-0.286625
-3.042904	2.449765	9.342958	-6.572881	11.733159	3.429709	0.39592	0.41607	-1.019769	-0.173217	4.104718	12.565099	-96.145028	370.437933	-59.296104	-0.096278	-0.654857	-0.480154	6.924706	0.191047	1.449454	9.903346	-8.61519	-18.290386	-0.571121	-0.065734	-0.272982
-3.681694	2.563174	8.876367	-7.081787	9.906506	1.684109	0.383343	0.361361	-1.005756	0.443125	5.342235	11.899765	-82.963702	372.902884	-73.963983	-0.070476	-0.685348	-0.478698	6.400298	0.13567	1.798745	12.375682	-8.02704	-18.118794	-0.557005	-0.049338	-0.273749
-3.453831	2.620209	8.82421	-4.568252	10.042552	1.556414	0.398564	0.38887	-1.065825	1.359337	5.340321	11.692549	-75.108957	367.794187	-82.269209	-0.056985	-0.69845	-0.50667	6.978645	0.480304	1.212163	13.429505	-7.567917	-17.788658	-0.599008	-0.065316	-0.28865
-3.045748	1.759743	9.169503	-6.654867	10.008697	0.979184	0.395934	0.398771	-1.002277	2.288199	5.676911	12.108654	-79.567761	359.04043	-90.404757	-0.017536	-0.651192	-0.524858	6.799936	0.24791	1.088059	15.16031	-7.538369	-17.092218	-0.571121	-0.065734	-0.272982
-3.153907	2.220806	9.510325	-0.74459	10.712865	6.340387	0.439811	0.377162	-1.024645	3.83873	5.73019	11.971423	-87.793219	346.109038	-94.023138	0.021756	-0.694784	-0.551374	7.215655	0.073231	1.214835	16.982953	-7.786619	-16.119751	-0.557142	-0.066356	-0.257384
-3.505269	2.276807	9.105914	5.485901	12.687663	5.495876	0.397421	0.412884	-1.058581	3.901454	5.56128	12.199048	-94.753673	326.186762	-93.210061	0.060904	-0.708807	-0.565547	7.269149	-0.392995	0.854516	18.427944	-7.959576	-16.643658	-0.542817	-0.033767	-0.258988
-3.065381	2.732148	8.207103	3.624535	10.302961	3.622451	0.396306	0.402299	-1.016353	4.829693	6.855537	12.672598	-106.880519	301.593206	-85.759134	0.101019	-0.644085	-0.613438	7.500562	0.186483	0.681669	18.851513	-8.28409	-17.65208	-0.557146	-0.047685	-0.304804
-3.496403	2.336179	9.56098	-0.610871	7.107997	7.170749	0.425319	0.374008	-1.01022	4.967469	7.025214	13.75131	-126.309436	281.562231	-74.508041	0.153733	-0.65589	-0.656586	7.617338	-0.220814	0.562326	19.088669	-8.637649	-18.873588	-0.571609	-0.097293	-0.286836
-3.284005	2.217511	8.712155	6.875913	6.397507	10.541613	0.425676	0.394836	-1.041787	6.067738	7.64547	16.832131	-136.250974	268.785984	-63.885753	0.180055	-0.639347	-0.672491	7.973636	-0.221129	0.688742	19.369233	-8.5493	-18.447209	-0.543794	-0.096885	-0.286695
-3.791998	2.908871	9.103001	8.555146	5.797708	9.91371	0.423032	0.422036	-0.995731	6.923217	7.645906	19.171279	-115.564071	255.893372	-55.890686	0.257911	-0.638897	-0.674146	7.912108	-1.035047	0.444553	20.82332	-7.587437	-13.353713	-0.586006	-0.129056	-0.300759
-3.061668	2.215898	8.37549	0.880132	3.390062	10.387331	0.439053	0.387404	-1.013985	8.6638	7.474202	19.83044	-97.951077	246.476019	-51.716477	0.245305	-0.62258	-0.689223	7.324708	-0.800651	0.614258	20.64793	-6.640586	-7.367769	-0.557142	-0.066356	-0.257384
-3.577077	0.837433	8.302824	-13.437224	6.778423	3.890284	0.452803	0.383502	-1.000258	12.28306	7.523458	19.566811	-85.514734	241.013044	-44.301189	0.284824	-0.620211	-0.71875	7.855313	-0.569563	0.625151	22.893192	-5.500506	-4.447443	-0.529815	-0.097507	-0.271097
-2.797656	4.016726	13.161971	-50.106352	16.617422	-5.995421	0.409684	0.394868	-0.98855	16.338404	6.444198	18.065834	-86.884042	247.546114	-44.052286	0.362459	-0.605512	-0.707058	8.505166	-0.861428	0.63602	23.778234	-4.482923	-1.979975	-0.557489	-0.099568	-0.240182
-3.404353	6.2302	20.263302	-47.301464	57.974453	1.293123	0.424533	0.418849	-1.034543	21.964939	5.362692	17.390452	-69.88311	249.399331	-55.795316	0.36195	-0.532126	-0.669027	8.505571	-1.035656	0.635278	19.865795	-3.041452	2.214432	-0.571539	-0.098119	-0.271308
-2.911978	1.304229	10.136302	38.66161	95.891844	1.202097	0.452045	0.393744	-0.989598	27.368398	5.969575	14.503921	-49.198244	222.138058	-75.037725	0.375371	-0.500338	-0.68566	9.094632	-1.037254	0.586375	14.227439	-2.445954	7.764111	-0.55791	-0.113281	-0.285928
-3.200234	2.510467	10.078949	-17.581633	89.539984	-6.253024	0.423404	0.425564	-1.009807	30.872845	6.242032	11.577211	-47.879874	191.09164	-87.551651	0.374636	-0.472913	-0.644618	10.034199	-1.389106	0.302965	13.717683	-2.878909	11.007932	-0.529815	-0.097507	-0.271097
-2.957876	4.996011	13.788117	-11.664208	102.526034	-11.027376	0.465423	0.386313	-0.961795	33.613204	5.895591	7.84131	-48.590739	168.471676	-95.914472	0.412603	-0.491223	-0.601392	10.912973	-1.450691	-0.040217	17.995605	-4.152008	11.365302	-0.599563	-0.11472	-0.270611
-2.75265	4.014031	12.5377	-1.925112	122.50655	-21.526672	0.493664	0.385564	-0.962493	33.236006	5.216607	3.586726	-44.520039	150.823788	-96.85737	0.412678	-0.475903	-0.602396	11.326626	-1.68394	-0.033503	22.598479	-5.148279	8.724769	-0.54379	-0.115556	-0.239275
-3.094732	3.554989	12.585942	-12.488149	135.476287	-31.744769	0.479529	0.403238	-0.979636	33.716644	5.83385	1.89894	-63.795949	127.636035	-87.949341	0.412678	-0.475903	-0.602396	11.859433	-1.452357	0.097204	22.998506	-6.452583	4.847849	-0.515903	-0.115974	-0.223606
-3.078817	4.649997	13.443323	-16.230863	152.84069	-44.825845	0.478786	0.396181	-0.951484	34.945632	6.449691	0.22687	-53.147361	99.256199	-70.962132	0.386507	-0.461805	-0.588498	11.554738	-1.105204	-0.38607	18.577381	-7.750305	4.594978	-0.543439	-0.101016	-0.209056
-3.073788	5.397943	13.730726	-26.172606	173.516424	-57.314672	0.578358	0.417915	-0.999572	36.177787	8.422424	4.21748	63.638593	35.06485	-53.50528	0.400293	-0.473834	-0.63082	11.202572	-0.987747	-0.272365	16.066252	-8.289153	8.518897	-0.571326	-0.100598	-0.224724
-2.957751	4.823686	13.787393	-39.624926	195.78728	-68.510439	0.56238	0.400648	-0.928843	35.239849	12.197914	3.748198	91.158862	-24.153149	-16.895886	0.413419	-0.443118	-0.633103	11.493116	-0.931335	-0.506243	13.539093	-7.552241	13.292757	-0.585309	-0.081305	-0.287743
-2.741076	4.316238	16.062685	-51.294622	221.524706	-76.127186	0.549389	0.394308	-0.95323	29.965974	16.041827	7.717045	139.588757	-106.72723	72.776973	0.374266	-0.489305	-0.629265	11.024713	-0.638886	-0.274183	13.294522	-8.053884	14.396423	-0.558186	-0.147319	-0.253198
-3.113931	2.656514	17.412367	-34.705699	256.367738	-76.620377	0.589492	0.406614	-0.904806	34.181321	16.931095	3.107386	200.249735	-208.902191	224.794159	0.348464	-0.458814	-0.63072	11.434005	0.056587	-0.383327	18.489574	-8.408201	11.995143	-0.530161	-0.130718	-0.253895
-2.709099	0.129278	17.52325	-23.68307	290.612838	-64.98821	0.618505	0.378322	-0.898672	-0.001955	16.425086	-5.253901	291.02281	-231.201354	205.554963	0.296775	-0.533573	-0.653299	12.360083	2.665128	-1.01357	37.243835	-4.536102	1.883564	-0.529882	-0.115352	-0.239204
-2.323752	-0.723667	19.629875	-17.329625	330.527157	-49.416379	0.64486	0.39453	-0.863975	7.707214	13.509449	26.779216	213.032005	-222.554873	125.830162	0.283428	-0.55004	-0.63767	15.17037	4.280573	-1.972244	45.353086	5.030533	-6.473842	-0.515694	-0.099781	-0.224443
-0.816597	0.727982	23.586609	-8.049816	381.135807	-31.74776	0.658981	0.394156	-0.864324	22.772763	13.35606	12.82872	113.579012	-273.930543	63.972835	0.243835	-0.567729	-0.607139	17.272827	4.793699	-3.068634	10.671244	17.728801	4.899344	-0.571117	-0.084405	-0.225561
-1.970609	1.658532	26.068622	44.266835	428.927578	-6.061781	0.699856	0.378919	-0.809068	1.462151	8.815814	-7.437816	4.544986	-257.954975	-8.252215	0.217437	-0.599592	-0.590231	15.07888	4.040987	-3.77154	3.20937	27.472724	24.472975	-0.557142	-0.066356	-0.257384
-5.638628	4.660248	28.851448	126.125703	447.065596	21.566954	0.712462	0.39903	-0.788097	8.386365	-10.83601	15.958699	-80.40829	-58.715907	-12.599295	0.178139	-0.616209	-0.57405	11.249278	3.644467	-3.545265	16.824382	26.119448	23.941016	-0.54316	-0.08565	-0.194365
-13.569534	5.553828	21.369826	197.523413	466.412077	-2.243371	0.81172	0.348038	-0.752142	18.79147	6.20862	11.663131	45.864513	-5.804259	43.705614	0.178214	-0.600889	-0.575054	10.268127	3.128776	-2.427966	0.712549	27.400345	24.696347	-0.529815	-0.097507	-0.271097
-12.119067	2.224801	22.236463	159.492252	448.639888	-14.353575	0.825912	0.261167	-0.665032	-3.429818	11.024439	-4.594673	186.154375	-61.655634	-30.416837	0.204687	-0.553706	-0.592966	9.53445	2.440789	-0.707939	-1.121549	25.43482	24.804078	-0.557839	-0.114107	-0.2704
-5.738195	4.651122	26.689917	192.352806	425.64834	-13.565128	0.867531	0.252986	-0.637928	3.529115	5.502169	8.228184	-147.112354	15.753201	43.888071	0.191561	-0.584422	-0.590683	8.733048	0.763172	0.407716	-2.220739	24.037257	17.5701	-0.529394	-0.083793	-0.225351
-5.157638	1.262863	26.97108	212.413052	464.993228	-65.86632	0.910307	0.203493	-0.600576	4.147953	-1.02968	12.368254	-22.77756	3.080788	42.813811	0.152778	-0.614216	-0.602198	9.918043	0.645308	0.668858	2.780319	21.266529	0.265387	-0.543231	-0.084823	-0.209893
0.054059	-0.246734	24.16774	194.017479	469.084818	-79.798673	0.908078	0.182323	-0.51612	3.142823	7.923605	6.523781	69.350049	-11.909214	-8.930745	0.152262	-0.601039	-0.574502	10.815275	1.168934	1.406473	12.035969	16.963145	-9.343992	-0.515489	-0.064918	-0.272701
4.103005	-3.430175	5.763193	170.501229	384.699872	-62.021684	0.948567	0.180857	-0.46428	2.396928	6.009721	6.449814	-27.287336	3.848405	24.443037	0.138991	-0.602186	-0.559877	11.450978	1.280634	0.700189	11.296476	13.695734	-10.150857	-0.529677	-0.080488	-0.287462
28.69822	-17.960442	-16.040339	-2.01407	218.198722	-3.745475	0.961202	0.166369	-0.408325	3.527341	1.617368	10.489287	-18.866737	1.761718	12.868095	0.191706	-0.613991	-0.603025	11.3181	1.509994	-0.079812	11.941778	12.584461	-8.95603	-0.543164	-0.066978	-0.241786
3.283457	-6.560712	-1.142424	-142.856378	-146.28197	171.158911	0.960859	0.128242	-0.359266	3.177699	2.575538	10.36956	2.958826	-2.650447	3.130778	0.139877	-0.59897	-0.602926	11.318349	0.928986	-0.142192	6.309986	12.912754	-13.062827	-0.544002	-0.113077	-0.285858
10.234833	7.511877	27.069499	-158.483509	-308.989015	172.302231	0.961588	0.152598	-0.404909	2.908261	4.095471	8.666817	3.749851	-3.820712	0.746005	0.151452	-0.588934	-0.532457	11.309877	2.205423	-0.436287	1.450485	12.154508	-15.364127	-0.529882	-0.115352	-0.239204
7.548605	-0.585673	26.926288	-104.444742	-166.888377	84.05154	0.965389	0.084085	-0.440718	3.025032	3.86998	8.725685	-1.756353	-1.848165	2.580052	0.204612	-0.569026	-0.591962	10.72012	2.032545	-0.448033	-2.537538	11.915244	-11.345234	-0.530303	-0.129065	-0.284951
4.646074	-2.435424	10.153891	-11.388429	-132.124325	115.641458	0.894414	0.08243	-0.424896	2.638567	4.096721	9.510366	-2.53176	-2.217495	1.280971	0.139066	-0.586866	-0.560881	10.544537	0.929258	-0.515939	-4.542885	13.186802	-7.799017	-0.529956	-0.095854	-0.302153
7.689928	-0.896873	7.832705	-18.211527	-160.016435	93.723603	0.925642	0.092608	-0.520711	2.579662	3.533429	9.395404	-4.124152	-3.699364	-0.276451	0.139582	-0.600042	-0.588576	10.780331	1.04487	-0.511042	-3.737363	13.617026	-7.712304	-0.530232	-0.129892	-0.269423
7.196391	-2.627749	5.940406	-32.081147	-202.125453	79.96095	0.954283	0.060788	-0.500501	2.518924	3.927755	9.281248	-5.371017	-4.689099	-1.397105	0.139952	-0.58365	-0.60393	10.304901	1.045209	-0.699567	-4.512938	13.778562	-8.810457	-0.516604	-0.145054	-0.284043
6.872197	-0.095489	7.024551	-62.626657	-250.349631	68.935644	0.955398	0.071373	-0.542729	3.204743	3.36292	9.012083	-7.785428	-5.17322	-2.390357	0.178434	-0.615138	-0.5884	9.997985	0.927012	-1.364539	-6.560735	13.14363	-10.236357	-0.530303	-0.129065	-0.284951
6.048805	0.20006	8.828355	-82.854175	-272.19333	44.266576	0.884409	0.087017	-0.544399	2.525053	3.251979	9.507237	-8.412273	-6.172707	-5.514412	0.17829	-0.585569	-0.576058	9.521319	0.98518	-1.612723	-7.661256	11.814203	-12.212437	-0.502212	-0.09462	-0.31754
5.07853	0.60358	8.981674	-98.511786	-285.116553	21.596041	0.856525	0.108594	-0.575268	2.686785	3.927242	9.058316	-3.206642	-7.505031	-7.373133	0.152262	-0.601039	-0.574502	8.347599	0.989364	-1.27529	-7.961917	10.304752	-14.251642	-0.543723	-0.097711	-0.271167
4.055123	1.467637	9.363222	-99.515855	-295.698593	1.923732	0.817179	0.086046	-0.634353	2.780742	4.883887	8.155307	-4.089821	-6.161177	-3.568667	0.165609	-0.584572	-0.590132	7.691684	1.047441	-1.646589	-6.855506	9.539233	-13.793604	-0.530374	-0.128239	-0.300479
2.114531	2.332117	9.670102	-96.841977	-301.51591	-10.41521	0.829756	0.140756	-0.648366	2.49969	3.870666	8.374967	-10.352621	-2.597482	2.010777	0.152702	-0.629536	-0.601195	7.63844	0.932661	-1.34865	-6.419257	9.718344	-13.215406	-0.501861	-0.08008	-0.287322
0.928932	2.279165	10.499274	-94.974348	-301.566193	-18.763806	0.733556	0.116178	-0.691977	2.630082	3.476706	9.056728	-7.957907	-3.590543	3.790869	0.140473	-0.536617	-0.62129	7.159978	0.816105	-1.717389	-7.59432	9.192818	-13.086405	-0.544491	-0.144636	-0.299712
-0.721715	2.684629	10.980349	-89.367744	-292.43206	-26.8211	0.732784	0.14372	-0.698809	3.024254	3.644611	8.668855	-9.690572	-3.768841	4.250127	0.165389	-0.570323	-0.576785	7.63896	0.235501	-1.411524	-8.308831	8.082686	-12.467325	-0.502137	-0.114117	-0.254592
-2.56161	2.626825	10.546505	-77.442075	-278.628819	-26.201885	0.619791	0.181315	-0.730999	3.344997	2.236995	10.089704	-5.981651	-3.885872	1.19995	0.139136	-0.631755	-0.572219	7.283668	1.223851	-1.354016	-9.369657	5.742987	-11.38272	-0.516533	-0.14588	-0.268516
-3.076325	3.374179	10.596473	-72.901002	-267.634268	-19.779318	0.619777	0.198614	-0.748491	3.093346	3.306947	9.179536	1.613839	-4.443159	-2.0056	0.165904	-0.5835	-0.604481	6.811383	0.818152	-1.424457	-11.289302	4.136901	-10.542979	-0.515907	-0.097303	-0.271027
-3.989263	3.662773	10.750423	-73.921043	-260.675354	-9.818116	0.577773	0.220566	-0.779011	2.734487	4.659099	8.663664	2.886651	-3.850881	-1.01219	0.139066	-0.586866	-0.560881	6.648661	1.286626	-0.587084	-12.81682	2.176227	-10.772573	-0.557631	-0.097915	-0.271237
-4.831253	3.494689	11.585794	-80.27497	-260.236534	3.118748	0.565167	0.200455	-0.799982	2.929913	4.152655	9.686377	5.244429	-3.053848	-1.094852	0.101024	-0.583875	-0.603103	6.584527	0.646442	-0.950346	-11.18839	0.826699	-9.855219	-0.516604	-0.145054	-0.284043
-4.925677	3.441673	12.606681	-71.675254	-261.705751	16.777902	0.564052	0.18987	-0.757754	3.092029	3.36323	9.122944	6.774448	-2.033825	-4.073788	0.204172	-0.540529	-0.56527	7.060633	0.355723	-0.763058	-9.714707	0.253973	-10.163428	-0.54477	-0.160002	-0.314402
-5.0293	3.788818	13.174433	-61.399299	-262.888618	27.584141	0.552947	0.166573	-0.817537	2.870253	3.983676	9.571747	8.337519	-3.167044	-5.933466	0.152708	-0.569326	-0.590859	6.826614	-0.050022	-0.709283	-11.234979	-0.509577	-10.796045	-0.516604	-0.145054	-0.284043
-4.625877	3.214595	13.29352	-48.9443	-260.873962	34.08141	0.496836	0.1716	-0.830216	2.856394	3.645124	8.891787	10.803785	-3.277067	-3.065588	0.126756	-0.569476	-0.590308	7.124611	0.589128	-0.461434	-12.689178	-1.312317	-10.573026	-0.515978	-0.096476	-0.286555
-5.086549	2.237696	13.109951	-41.07913	-260.009663	37.046966	0.468581	0.189648	-0.84701	2.976706	4.09579	9.177782	8.065084	-4.99133	-4.132985	0.165835	-0.53861	-0.593142	7.537144	-0.109224	-0.576511	-14.28016	-1.279285	-8.397622	-0.516328	-0.111016	-0.316773
-5.537613	1.837385	13.440472	-43.914037	-261.421971	35.62178	0.443369	0.149426	-0.888952	3.033902	3.025307	9.064811	6.311515	-6.911353	-4.646732	0.165609	-0.584572	-0.590132	7.88823	0.237928	-0.688239	-16.360265	-0.634981	-6.345571	-0.516119	-0.094824	-0.31761
-6.601981	1.728355	14.612748	-52.979548	-261.589298	30.401968	0.415871	0.157232	-0.916405	2.589094	3.026786	9.791454	4.85742	-11.958124	-4.72891	0.139657	-0.584722	-0.58958	8.064853	-0.053105	-0.746081	-19.81732	0.450253	-3.037563	-0.488371	-0.112261	-0.285577
-8.136343	1.214913	15.149043	-63.005672	-256.087955	21.443819	0.346411	0.135091	-0.921904	2.599219	3.421526	10.301543	6.312838	-13.829136	-1.817692	0.152558	-0.599967	-0.588852	8.055489	-0.287634	-1.286232	-24.413248	1.652174	0.426916	-0.530232	-0.129892	-0.269423
-11.255397	1.396031	16.623558	-62.677866	-242.732674	13.25755	0.276152	0.175091	-0.969217	3.164532	3.138369	9.803638	0.101928	-23.405628	1.56567	0.151302	-0.619575	-0.53045	8.42088	0.062732	-0.61917	-28.826888	2.673752	3.647182	-0.516608	-0.126383	-0.331464
-14.648215	1.854872	15.820703	-56.521319	-228.013948	3.818905	0.275809	0.136964	-0.920157	2.761836	4.265829	9.909404	-15.761804	-35.768825	13.668932	0.114295	-0.582728	-0.617728	8.473969	-0.229267	-0.978747	-30.979131	4.303886	7.956763	-0.516395	-0.128861	-0.28488
-17.962607	1.386605	13.140061	-61.241427	-228.984821	-2.010152	0.175421	0.19467	-0.931376	3.028683	5.848938	17.163018	14.67913	-50.12762	3.192267	0.139657	-0.584722	-0.58958	8.650572	-0.985155	-1.098473	-30.484092	5.175028	12.627318	-0.501786	-0.099577	-0.224373
-20.23446	1.322336	11.106536	-93.839231	-249.730749	-0.934477	0.118582	0.175341	-0.898412	3.047012	3.366196	12.405623	10.739524	-86.960201	13.181402	0.126831	-0.554156	-0.591312	8.715921	-0.867654	-0.737437	-28.202488	6.987034	15.667038	-0.502208	-0.113291	-0.27012
-23.419759	1.616448	12.125596	-120.554602	-262.481968	2.860824	0.104047	0.224085	-0.936462	2.662097	4.435652	10.643443	26.196023	-92.834774	17.359033	0.113335	-0.601264	-0.573675	9.186929	-1.333837	-0.850425	-23.070216	8.375096	16.314291	-0.516462	-0.146706	-0.252988
-26.690731	2.708752	11.725593	-119.76618	-244.536063	10.571249	0.046808	0.235826	-0.924405	2.832338	6.350614	10.705322	6.644215	-102.305657	20.208785	0.139657	-0.584722	-0.58958	9.606915	-1.449451	-0.483775	-18.137601	8.486503	16.11249	-0.530374	-0.128239	-0.300479
-28.769198	2.636597	7.877223	-107.443592	-206.193265	17.383412	0.018166	0.267646	-0.944614	2.573069	5.95793	12.001656	3.24223	-113.571815	33.320048	0.11341	-0.585944	-0.574679	10.48679	-1.510789	-0.76705	-12.280553	7.6709	17.134442	-0.487953	-0.079876	-0.287251
-33.800754	10.422438	14.290838	-35.898105	-150.504083	47.854582	-0.009646	0.202726	-0.888025	3.362946	6.124796	11.282408	6.635125	-127.386388	45.671863	0.100434	-0.586019	-0.574403	10.436712	-1.566752	-0.289143	-6.726143	6.874694	19.135565	-0.515907	-0.097303	-0.271027
-30.879216	3.074661	2.439137	-18.881449	-69.349833	35.449159	0.032315	0.232672	-0.90998	2.746651	6.126646	12.062065	1.537893	-140.879507	57.897031	0.0489	-0.569927	-0.588654	11.035522	-1.972904	0.139479	-2.790782	6.540944	23.188454	-0.502141	-0.095446	-0.302012
-31.649001	8.425024	4.265289	-20.820978	-32.435323	51.568325	-0.02491	0.227114	-0.880431	2.468841	6.578256	12.566156	3.094939	-158.015406	72.064948	0.087087	-0.602486	-0.558774	11.335815	-2.321046	0.383126	0.106352	6.494829	28.650068	-0.501373	-0.048521	-0.273468
-31.475378	7.391193	4.321139	23.667353	9.772196	58.533494	-0.025267	0.206286	-0.848863	3.099727	5.900962	12.408966	4.454786	-176.421128	82.613013	0.035699	-0.615963	-0.585367	11.172147	-1.446039	1.222229	1.970704	6.039484	31.916508	-0.516328	-0.111016	-0.316773
-30.360422	11.475269	5.894462	59.874822	45.114861	46.311021	0.030458	0.215031	-0.8396	2.993921	5.450865	12.802646	6.386586	-196.161177	91.452669	0.022798	-0.600718	-0.586095	11.115042	-1.794113	1.279552	3.39279	5.602762	33.227988	-0.515422	-0.047073	-0.304594
-32.82659	13.614251	8.640198	115.069116	95.286047	-3.53601	0.030844	0.20126	-0.836184	2.896492	5.677114	13.650012	8.20952	-219.905938	97.076719	0.021988	-0.588613	-0.544049	10.76029	-1.038067	1.336071	3.763458	5.944371	32.858163	-0.529886	-0.096681	-0.286625
-33.771313	26.177923	4.75348	248.788327	213.710022	-84.881801	0.032373	0.163475	-0.840013	2.799901	4.833036	14.439837	7.954302	-247.239798	97.575896	-0.016274	-0.571374	-0.572925	11.464953	0.005433	1.293819	3.780155	6.216403	24.297242	-0.474049	-0.061	-0.334602
-9.365247	23.31125	-2.853796	306.296118	295.287515	-125.761303	0.061371	0.152483	-0.851371	2.769146	4.721526	15.684605	6.30059	-277.954976	95.111185	-0.069139	-0.59021	-0.527769	13.525137	2.788604	1.404109	7.234541	2.23584	2.204427	-0.516257	-0.111843	-0.301245
-9.209061	6.504423	16.11659	218.329501	219.803058	-11.806724	0.105633	0.117103	-0.870323	1.965546	4.387483	18.441527	12.646368	-315.979813	93.012091	-0.09457	-0.543327	-0.544578	16.645161	6.149857	1.476771	18.900637	-7.08023	-21.66111	-0.473766	-0.064305	-0.27249
-9.78104	5.445958	10.24747	125.155682	228.959176	17.346057	0.118625	0.123443	-0.845936	2.925543	5.122004	23.048085	28.72032	-361.357746	91.125452	-0.14729	-0.591732	-0.511765	16.877864	4.754009	1.115798	8.211748	-17.232514	-10.725541	-0.502141	-0.095446	-0.302012
-0.621305	9.243296	13.453655	27.406829	204.618249	41.301731	0.161772	0.077478	-0.822661	5.285036	3.824225	25.644132	92.036045	-406.813735	92.544567	-0.147215	-0.576412	-0.512769	14.403797	3.249951	1.123059	-13.1786	-16.406813	17.436026	-0.501794	-0.062235	-0.319214
-17.903797	-6.943425	12.878772	-69.211836	24.267829	-173.352868	0.189256	0.086971	-0.812699	9.618438	5.955124	23.981984	109.504031	-431.740169	93.205528	-0.226547	-0.582221	-0.439366	11.699768	2.909931	1.610117	-6.407396	-17.660512	22.70571	-0.502141	-0.095446	-0.302012
1.404368	14.02262	3.113236	237.272168	60.869138	24.991717	0.191514	0.073542	-0.862171	6.332462	8.831787	21.254642	78.771959	-447.961019	83.33816	-0.26636	-0.585662	-0.395489	9.68584	0.879141	0.905073	-10.467849	-10.766427	20.089219	-0.50179	-0.080906	-0.271794
-2.592927	6.259533	0.331733	-49.649093	33.689624	-26.084686	0.190399	0.062957	-0.819943	7.356782	7.540781	28.691473	81.036219	-451.189223	92.465516	-0.305288	-0.585887	-0.394662	9.380585	0.993743	0.360903	-20.748049	-4.220201	19.422721	-0.529539	-0.063469	-0.303827
-4.695322	-1.498947	12.476676	-88.635936	-13.358946	-48.056272	0.175907	0.059804	-0.805518	6.381515	4.045258	23.119718	114.508065	-450.785589	95.919029	-0.319294	-0.559609	-0.338995	10.005189	2.090758	-0.820432	-30.205915	-3.056552	18.992915	-0.515143	-0.031707	-0.289903
-2.752261	2.565406	9.57642	59.827661	22.35487	-6.249296	0.190399	0.062957	-0.819943	7.674156	2.353872	24.221044	119.697533	-420.127217	109.424463	-0.358442	-0.545585	-0.324821	11.566597	2.602874	-2.465889	-25.344916	-5.879579	15.626399	-0.487115	-0.033777	-0.243179
-2.879428	5.307925	6.118851	4.184024	11.712693	-12.027954	0.231989	0.089376	-0.827823	6.245493	4.561131	32.968182	150.452753	-407.844357	105.377566	-0.399437	-0.553314	-0.223546	12.023975	1.843097	-3.358902	-15.073994	-10.421498	11.759529	-0.51556	-0.064091	-0.288229
-3.337095	2.620608	8.940143	-12.235974	3.152454	-11.935802	0.203377	0.086597	-0.813048	-0.73081	1.418999	32.026294	87.168649	-452.341954	64.370223	-0.425678	-0.494326	-0.19831	11.625667	0.685241	-2.712574	-13.922961	-14.883223	8.842379	-0.515489	-0.064918	-0.272701
-3.369889	1.132236	10.12667	-7.712813	2.527705	-6.499783	0.161029	0.070421	-0.794509	-17.634074	-10.911828	1.881357	56.815219	-385.176899	52.186078	-0.453257	-0.530476	-0.124002	11.39441	0.512542	-2.47809	-18.890734	-18.315208	1.846991	-0.557146	-0.047685	-0.304804
-3.486133	1.993701	10.07121	8.36024	2.568535	4.587137	0.189999	0.094028	-0.840851	-29.137908	-20.823753	-20.391905	-51.74217	-72.591452	-25.692282	-0.440576	-0.531473	-0.109928	11.884146	0.515418	-1.510776	-19.498857	-18.685134	-12.879697	-0.515352	-0.047899	-0.289066
-3.380864	2.45122	9.620542	3.285225	4.480862	4.632824	0.190014	0.076729	-0.823359	-12.462634	-1.222858	13.208121	-68.355945	370.633901	-223.569892	-0.440275	-0.470191	-0.113943	11.466712	2.374796	-1.510568	-8.141343	-16.65511	-24.878794	-0.515072	-0.032533	-0.274375
-3.052102	2.849926	8.889822	6.361163	5.370386	6.049107	0.21864	0.062208	-0.820642	-9.362836	13.1013	38.42255	-85.828863	359.54864	-199.596995	-0.413148	-0.525964	-0.182228	11.058946	1.970198	-1.280374	3.889838	-13.174591	-23.105547	-0.487394	-0.049143	-0.25787
-2.822795	2.447669	8.892587	0.530731	4.832588	5.014474	0.190414	0.045658	-0.802451	-8.951102	1.761043	18.94592	-40.124975	181.48476	-8.112163	-0.412262	-0.522748	-0.225278	10.894272	1.85717	-0.625194	5.579238	-9.513748	-12.739246	-0.528976	-0.051408	-0.227025
-2.936231	2.505435	8.947455	0.771441	4.784091	3.970311	0.176279	0.063332	-0.819594	-4.214278	-3.15537	11.284926	16.854939	198.462223	-49.266251	-0.372599	-0.549948	-0.267147	11.084101	1.569104	0.035847	2.921101	-9.290343	-8.635611	-0.50144	-0.066366	-0.241575
-2.650125	2.734994	8.953987	-1.259948	5.300417	0.979137	0.220512	0.062551	-0.87353	-6.429325	0.90138	7.618676	14.223679	210.585087	-44.308128	-0.359548	-0.534553	-0.268426	10.631314	0.354297	0.920455	0.048309	-10.718718	-7.548759	-0.501093	-0.033155	-0.258777
-2.590934	3.137526	9.070496	-4.812898	6.654415	-0.614029	0.189628	0.0905	-0.826775	-4.859442	-1.187669	5.498466	-26.673093	258.191046	-28.885666	-0.384469	-0.561056	-0.323266	9.519506	0.533315	1.43945	-2.371367	-10.602909	-4.790026	-0.487256	-0.032125	-0.274235
-2.779026	2.617057	8.212188	-10.025005	7.605348	-2.577006	0.20452	0.062583	-0.820292	-4.192805	-0.962205	7.097863	-63.318546	299.55406	-49.742076	-0.357997	-0.513873	-0.341178	8.639631	0.594653	1.722725	-1.660388	-10.603826	-4.456417	-0.515139	-0.050378	-0.242482
-3.395836	3.137382	8.884348	-9.4477	5.807241	-0.982474	0.233475	0.103489	-0.884126	-4.405596	1.911984	8.171598	-90.85825	329.301831	-61.119626	-0.331234	-0.525827	-0.383775	8.523914	0.072486	1.778206	0.749704	-11.508604	-7.822578	-0.487185	-0.032951	-0.258707
-2.484634	3.71017	8.677165	-7.229997	7.507403	-0.930557	0.219026	0.048437	-0.817226	-2.942653	0.839863	9.220433	-100.681527	350.96168	-65.442892	-0.343249	-0.507366	-0.427553	8.414841	0.481513	2.316898	7.360251	-11.356123	-11.422826	-0.500885	-0.016962	-0.259614
-2.772718	3.135479	8.555478	-16.86631	6.46469	-2.361175	0.259473	0.098869	-0.817861	-2.347025	3.036624	10.367163	-100.719846	366.244326	-77.281069	-0.303511	-0.519246	-0.470425	7.181409	0.311357	2.592582	12.964238	-10.327514	-14.320642	-0.51521	-0.049551	-0.25801
-3.094177	1.876598	9.623697	-24.064597	6.698605	-1.53928	0.246496	0.07523	-0.824756	-1.313135	3.597942	10.332758	-104.275694	372.928613	-81.779158	-0.237526	-0.529904	-0.528199	6.690012	0.075683	1.504465	17.834337	-8.536865	-17.21937	-0.52926	-0.048103	-0.289136
-3.674723	2.162531	9.215797	-16.644065	9.171534	2.957054	0.189999	0.094028	-0.840851	-0.476004	3.710327	11.822408	-97.80362	368.955439	-83.909506	-0.210763	-0.541858	-0.570796	6.27937	-0.03903	1.616081	20.330129	-7.592908	-18.913627	-0.515001	-0.033359	-0.258847
-3.456348	3.021817	8.712193	-15.091863	9.747759	6.97933	0.189242	0.104271	-0.830191	0.841309	4.045594	11.567299	-91.845938	361.256064	-83.334148	-0.158559	-0.480277	-0.575914	6.502519	0.306167	0.962991	24.204379	-7.744182	-20.699298	-0.515627	-0.081936	-0.256336
-2.864993	1.646666	9.627186	-12.857023	10.642302	4.902091	0.217883	0.072451	-0.809982	1.483637	3.706757	11.97679	-86.759229	353.145373	-82.424532	-0.157598	-0.46174	-0.619967	6.559044	-0.043166	0.782887	29.592246	-7.863849	-22.062772	-0.528697	-0.036042	-0.212334
-3.669772	1.474197	9.440313	-10.311071	12.244725	2.866104	0.217126	0.082694	-0.799321	2.500496	4.323742	11.149478	-91.079039	334.185338	-83.140886	-0.078486	-0.441682	-0.680024	6.607076	0.419082	0.246803	31.573589	-6.784907	-22.197323	-0.543026	-0.04996	-0.258151
-3.21908	2.391483	9.111964	-2.27523	7.033457	4.935651	0.202991	0.100368	-0.816464	4.347879	4.714843	11.471693	-100.380225	310.324644	-79.163284	-0.05298	-0.473245	-0.664218	6.783139	-0.104502	0.128066	31.562127	-5.673109	-20.277453	-0.515836	-0.098129	-0.255499
-3.676784	1.932282	9.101125	-2.419316	7.413123	6.628914	0.232747	0.079133	-0.838483	4.926729	4.93923	11.65389	-113.065106	290.265339	-73.794244	-0.039778	-0.427209	-0.667505	6.966696	0.884364	0.614825	28.99006	-5.313458	-17.489055	-0.515486	-0.083589	-0.22528
-3.169454	2.159987	8.71414	1.061534	10.257915	6.542461	0.231232	0.099619	-0.817162	4.882723	6.066565	12.389945	-134.885887	271.562397	-64.504313	0.025767	-0.409369	-0.698587	6.722617	0.069614	0.0678	27.301343	-5.674943	-15.647686	-0.585517	-0.097497	-0.286906
-3.336722	2.103634	8.937971	2.003079	9.916449	12.636769	0.231618	0.085848	-0.813747	5.272135	7.701352	14.607518	-151.146691	257.752789	-53.342329	0.06462	-0.424465	-0.69841	6.788641	-0.103266	0.4276	22.979864	-5.647671	-10.895426	-0.515556	-0.082763	-0.240808
