1757_acc_x	1757_acc_y	1757_acc_z	1757_gyro_x	1757_gyro_y	1757_gyro_z	1757_mag_x	1757_mag_y	1757_mag_z	1758_acc_x	1758_acc_y	1758_acc_z	1758_gyro_x	1758_gyro_y	1758_gyro_z	1758_mag_x	1758_mag_y	1758_mag_z	1759_acc_x	1759_acc_y	1759_acc_z	1759_gyro_x	1759_gyro_y	1759_gyro_z	1759_mag_x	1759_mag_y	1759_mag_z
3.689658	1.003529	8.217549	3.006825	-268.40902	14.399621	0.869658	-0.376921	-0.441639	2.677006	3.983193	8.605247	0.350739	-4.011119	-0.183466	-0.044917	-0.248354	-1.021659	9.489639	0.119861	-0.239673	8.50338	-3.926051	-4.891835	-0.628415	-0.233433	-0.171725
1.681009	1.406105	7.952854	-13.195514	-270.787692	-2.213771	0.88415	-0.373767	-0.456064	2.866734	3.927203	9.401781	1.188115	-3.725954	0.03584	-0.032016	-0.2636	-1.020931	9.732711	-0.053424	0.123428	9.56536	-2.644168	-4.260002	-0.639705	-0.245537	0.355314
0.152955	1.411084	8.832439	-32.113049	-261.366826	-18.537408	0.816148	-0.347196	-0.552849	2.632068	3.702123	9.170197	0.323629	-3.648153	0.529167	-0.031501	-0.276776	-1.048627	9.723502	0.118826	-0.355085	9.507872	-1.751949	-4.783601	-0.597705	-0.210887	0.322795
-0.912568	1.359255	9.948103	-48.340872	-244.042	-33.515061	0.802413	-0.360592	-0.549084	2.348538	3.984504	9.390948	0.971506	-3.759162	0.004507	-0.044697	-0.262603	-1.035005	9.602439	0.002202	-0.537501	10.116105	-1.39213	-6.835139	-0.625379	-0.212948	0.35371
-2.221134	2.223761	10.380937	-56.978104	-226.488419	-43.972063	0.761923	-0.359127	-0.600925	2.582511	3.308201	9.508494	1.143999	-4.912044	-1.54822	-0.031935	-0.188069	-1.011599	9.246411	-0.113634	-0.664412	9.800165	-1.502987	-8.055908	-0.626009	-0.242854	0.308801
-3.462915	2.228533	11.26609	-54.657331	-214.128456	-50.526843	0.733653	-0.323779	-0.63521	2.684475	3.870817	8.94499	0.866187	-4.885711	-1.42487	-0.070133	-0.275929	-1.062149	9.421009	0.466474	-0.718546	9.76782	-2.121185	-7.441621	-0.611542	-0.211918	0.338252
-4.649504	2.003015	12.037685	-41.816473	-209.884126	-50.617572	0.704655	-0.312787	-0.623851	2.685792	3.814534	9.001582	1.664748	-5.358123	-2.662043	-0.045287	-0.264746	-1.006306	8.948029	-0.113701	-0.849635	9.947816	-3.011383	-7.071291	-0.624895	-0.162718	0.320143
-5.829411	1.778944	13.150398	-25.145671	-209.880477	-44.131379	0.705355	-0.253832	-0.704479	2.397187	3.589703	8.938708	3.969422	-6.366739	-3.37926	-0.057597	-0.247357	-1.035733	8.715016	0.468589	-0.611937	9.82366	-3.755415	-6.150453	-0.611334	-0.195725	0.337415
-6.976022	0.802784	13.01032	-7.437859	-208.47869	-33.024556	0.651517	-0.279534	-0.749138	2.803017	3.983405	9.117421	6.397455	-7.3748	-3.942231	-0.019335	-0.264596	-1.006857	8.480997	0.062844	-0.558163	7.972842	-3.667465	-6.419223	-0.625871	-0.225836	0.292436
-9.330099	2.296757	12.686675	0.321867	-207.169305	-25.970758	0.592748	-0.230008	-0.733253	2.97636	3.645098	9.120763	6.790682	-8.129319	-5.02839	-0.005989	-0.248129	-1.022486	9.000753	0.69824	-1.084701	6.55599	-3.054484	-7.028242	-0.639917	-0.243058	0.30873
-8.657267	0.397312	11.896131	-0.646812	-214.351588	-11.546379	0.593891	-0.254022	-0.740497	2.633062	3.814831	9.226931	8.35302	-9.180442	-5.37669	-0.031796	-0.277848	-1.034277	8.888203	0.234891	-0.849252	3.940706	-2.143088	-7.328731	-0.583726	-0.211509	0.338393
-8.590199	0.686649	12.410128	-0.699339	-210.733306	0.289412	0.565621	-0.218674	-0.774782	3.036343	3.645085	9.235251	12.004954	-10.978633	-4.651764	-0.071239	-0.264897	-1.005754	9.172974	0.406218	-1.38217	1.539171	-1.413185	-7.751372	-0.597634	-0.211714	0.338322
-10.94225	0.91715	12.138028	-2.173949	-196.926317	8.245982	0.510625	-0.203062	-0.829689	2.400621	4.32219	9.165883	11.726649	-10.954916	-4.127679	-0.044697	-0.262603	-1.035005	9.062065	-0.289188	-1.087804	-0.248519	-1.296629	-7.806576	-0.583585	-0.213162	0.369448
-11.465826	0.05397	11.669562	-0.064955	-177.704128	14.746552	0.538881	-0.221111	-0.812896	2.805973	3.701847	9.230463	12.350355	-10.372456	-2.888271	-0.032091	-0.27892	-1.019927	9.294828	-0.290469	-1.263123	-2.735929	-1.076343	-6.301123	-0.597701	-0.229559	0.370215
-9.937363	1.025738	10.850933	-4.63882	-168.830088	14.198525	0.468264	-0.201939	-0.828641	3.096888	3.983103	9.406664	13.455321	-10.796538	-1.535168	-0.01904	-0.263525	-1.021207	8.880324	-0.638475	-1.392123	-5.443291	-1.532003	-4.577697	-0.625312	-0.195103	0.321817
-10.644045	0.447477	9.811802	-23.066668	-164.694169	13.521427	0.38314	-0.168621	-0.847454	2.690627	3.814723	9.22814	14.299607	-12.49708	-2.445408	-0.045137	-0.234106	-1.008313	9.178571	-0.580332	-1.206653	-7.832564	-1.477255	-1.818717	-0.596662	-0.129925	0.318609
-13.107016	0.334135	9.706586	-41.19861	-174.641915	9.977489	0.439251	-0.173647	-0.834775	3.151043	3.870192	9.237859	14.143588	-12.564401	-1.829644	-0.071534	-0.265968	-0.991404	9.069052	-0.926788	-0.790989	-10.403338	-1.367668	1.490857	-0.597355	-0.196347	0.353013
-14.654331	0.794545	9.621599	-50.691026	-192.969181	11.056487	0.355657	-0.178114	-0.857416	3.513443	3.194195	9.980858	14.768701	-14.51204	-2.896656	-0.070944	-0.263825	-1.020104	8.958878	-0.518008	-0.312204	-12.313188	0.084821	5.311306	-0.611751	-0.22811	0.339089
-16.155811	0.103429	8.907516	-55.894441	-206.811506	19.739571	0.368648	-0.171775	-0.833029	3.448325	3.982693	9.697115	16.104683	-16.448874	-4.240437	-0.057302	-0.246285	-1.050083	8.886792	-0.578915	-1.032434	-12.542292	1.199356	6.896164	-0.583589	-0.194491	0.322028
-17.537753	0.160177	8.483062	-61.970638	-214.028614	29.728128	0.327416	-0.177365	-0.856717	3.344182	3.927005	10.204406	10.522618	-20.571691	-3.607706	-0.044922	-0.308564	-1.031994	8.417269	-0.751569	-0.922166	-12.124145	2.161387	8.662815	-0.639709	-0.226866	0.307893
-19.259306	0.964878	8.282476	-58.438599	-202.13723	43.187336	0.313652	-0.156163	-0.887936	2.873711	5.335846	9.856083	2.08524	-33.213083	-4.911632	-0.057377	-0.261606	-1.049079	8.953086	-0.867947	-0.673129	-11.85841	2.746962	11.287675	-0.639291	-0.194481	0.306219
-23.915125	0.242325	13.076285	126.681191	-85.324756	69.383906	0.256398	-0.127123	-0.89337	2.779993	4.886223	10.816159	3.606495	-41.358103	5.490177	-0.096751	-0.293544	-1.031895	8.89598	-1.216021	-0.615805	-10.920934	3.03696	13.147413	-0.639079	-0.19696	0.352803
-25.167895	0.125034	-1.213011	117.002182	-27.80774	46.862565	0.227429	-0.150729	-0.847028	2.018499	6.070139	10.291683	13.065578	-43.201599	5.602775	-0.08407	-0.294541	-1.017821	9.420813	-0.870016	-0.903953	-8.919382	2.831614	12.988313	-0.625383	-0.194277	0.306289
-29.181927	6.573491	1.577613	62.927863	4.140764	31.869733	0.229701	-0.181458	-0.879009	2.604424	4.492091	10.642281	25.988412	-59.146843	6.656978	-0.084441	-0.310933	-1.002467	9.724427	-0.752562	-0.418701	-7.890686	2.255023	15.86058	-0.569606	-0.213784	0.385046
-29.23394	5.483109	1.799327	54.351639	60.23389	27.838694	0.243821	-0.181832	-0.879358	2.816815	5.617654	9.911751	16.938846	-63.95703	7.002653	-0.110537	-0.281514	-0.989574	10.308526	-0.987699	-0.768127	-5.439053	2.357772	18.602248	-0.611755	-0.209439	0.291669
-33.407833	8.417341	2.12832	63.306914	102.177807	9.66674	0.25647	-0.213619	-0.805912	2.265793	6.014041	11.089425	14.390186	-71.856255	13.88938	-0.136784	-0.282736	-0.974672	10.49768	-0.985385	-0.105849	-2.510893	2.121696	18.776173	-0.639571	-0.209847	0.291528
-33.949976	10.135411	0.817917	68.316726	154.247967	-15.20114	0.283939	-0.186826	-0.813442	2.368619	6.126012	10.525542	14.681621	-81.981965	24.270923	-0.097191	-0.265047	-1.005203	11.081124	-0.465287	-0.392154	-0.515651	1.555894	17.976894	-0.611471	-0.212744	0.35378
-16.454115	11.598798	-2.92739	106.955642	159.126891	-4.375995	0.298831	-0.214743	-0.806959	2.609006	6.520321	11.040466	9.954806	-93.331696	33.711578	-0.110688	-0.312155	-0.987566	11.378425	-0.000612	-0.204954	0.315077	1.313855	18.005608	-0.625104	-0.178911	0.32098
-7.505934	3.45516	15.284409	19.213503	43.832554	47.909524	0.326344	-0.239848	-0.762014	2.935385	5.957947	12.801864	5.666066	-104.160113	43.928722	-0.136929	-0.253167	-0.96233	11.915053	-0.465447	0.0426	0.832712	0.893474	17.424963	-0.65264	-0.163953	0.33553
-4.676806	-8.364105	18.983597	-35.892448	-6.984095	-24.883748	0.32633	-0.222549	-0.779506	2.603852	6.297146	13.47457	12.57282	-118.858727	52.945037	-0.13723	-0.314449	-0.958315	13.282234	0.52146	0.731089	0.727087	-1.010253	12.176994	-0.611755	-0.209439	0.291669
0.999957	6.980603	8.474577	121.681062	47.269246	-12.616433	0.300003	-0.273356	-0.77922	3.096884	5.734212	14.956397	19.97891	-138.087636	60.991956	-0.164137	-0.272925	-0.903376	14.988065	0.574384	0.463714	1.759554	-4.301797	8.429421	-0.610987	-0.162514	0.320213
-5.486853	2.845153	7.308022	-15.578137	26.150638	-41.120916	0.313366	-0.263487	-0.768909	4.270936	2.690872	15.770969	27.856848	-162.834469	54.493592	-0.202104	-0.254614	-0.946601	13.519088	-0.292392	0.672123	-3.645459	-3.520721	16.820344	-0.611125	-0.179533	0.336578
-2.998178	3.468672	5.824637	29.173088	19.187106	-5.047099	0.313352	-0.246188	-0.786401	4.93567	2.014906	17.199688	44.972734	-185.230893	43.925617	-0.202619	-0.241437	-0.918906	12.099514	-0.812825	0.403859	1.786637	-0.155111	18.588069	-0.611054	-0.180359	0.352106
-3.096901	2.565413	9.512886	-13.192739	2.822835	-13.073204	0.326687	-0.201721	-0.811073	5.005647	1.846281	17.76715	66.179375	-211.72136	28.418558	-0.254749	-0.287699	-0.914792	12.218262	-0.173764	0.528594	0.587857	1.351518	11.493779	-0.63859	-0.165401	0.366656
-3.433208	1.82037	9.844187	15.479413	9.205467	-11.273131	0.285868	-0.255682	-0.796363	4.316695	0.889955	17.751837	90.177693	-239.099886	17.344832	-0.243174	-0.277663	-0.844322	11.556304	0.115382	-0.141251	-4.878542	4.67122	5.079105	-0.59687	-0.146117	0.319446
-3.420623	3.534165	7.635269	-1.365654	9.377619	-8.952276	0.298074	-0.2045	-0.796299	4.067223	1.45298	16.897882	112.43212	-267.171244	9.530945	-0.295523	-0.309676	-0.826863	11.728141	0.462444	-0.376094	-7.107583	7.416275	5.074077	-0.597079	-0.16231	0.320283
-2.826135	2.446946	8.722028	-8.372718	4.830457	-6.552464	0.298846	-0.232042	-0.789467	4.153626	3.198015	15.712338	126.203161	-296.610896	5.858641	-0.335412	-0.328437	-0.781982	11.249544	0.403965	-0.744586	-9.126101	7.781418	7.524799	-0.59687	-0.146117	0.319446
-3.122221	2.157774	8.203576	-7.871938	4.927859	-4.09881	0.313352	-0.246188	-0.786401	3.445987	5.057694	15.07636	124.800318	-321.82999	7.672714	-0.374704	-0.284844	-0.755467	10.712897	0.403944	-1.054024	-12.171781	6.264026	5.311868	-0.625312	-0.195103	0.321817
-3.389357	1.874875	9.163305	-16.385932	4.64932	-1.993374	0.341622	-0.281536	-0.752116	4.572547	6.859645	16.800035	108.913168	-334.734677	14.560817	-0.401768	-0.334171	-0.708855	10.251772	0.407496	-0.463759	-17.18616	3.827301	-0.373713	-0.610916	-0.16334	0.335741
-3.323852	1.244665	9.559735	-13.500911	3.869107	0.224413	0.283968	-0.221425	-0.778458	6.426461	6.121942	14.630368	107.418436	-334.646009	26.306477	-0.455593	-0.371544	-0.619647	9.543038	0.641421	-0.475975	-20.420055	0.325145	-5.938152	-0.61092	-0.144669	0.28832
-3.323568	2.393737	9.621415	-5.705444	4.501306	1.868308	0.285082	-0.21084	-0.820686	5.590868	5.448636	15.857737	90.836772	-326.847077	32.351531	-0.495407	-0.374985	-0.57577	9.427517	1.455744	-0.235087	-23.235258	-3.023169	-8.479111	-0.59715	-0.161484	0.304756
-2.358037	2.391344	9.242372	-4.03661	6.034121	2.900443	0.314481	-0.252902	-0.811137	5.811567	5.391495	15.409408	99.053502	-311.422305	38.492315	-0.508678	-0.376131	-0.561145	8.898978	1.283226	-0.125919	-24.494356	-5.989973	-8.918804	-0.624962	-0.180563	0.352036
-2.868914	2.450123	9.460005	-7.518635	6.953437	4.428102	0.312609	-0.253245	-0.758249	10.756209	4.086292	15.115807	75.781872	-283.311243	44.086334	-0.549227	-0.352147	-0.476226	8.191229	2.040329	-0.016097	-23.777173	-8.272597	-9.766204	-0.569752	-0.19346	0.30657
-2.86908	2.679889	9.46097	-9.078472	7.938221	3.681917	0.312209	-0.222174	-0.779157	-16.022268	-0.938864	8.208178	97.52456	-233.224194	29.987549	-0.537136	-0.355288	-0.433453	8.074703	1.866618	0.040867	-21.476889	-9.42126	-10.288581	-0.639082	-0.178288	0.305382
-3.047317	2.391359	9.115304	-12.951646	7.420712	1.660603	0.313709	-0.22536	-0.817969	-17.708921	-3.922157	7.094454	48.971416	-78.139874	33.462348	-0.550483	-0.371755	-0.417824	8.539243	1.340876	-0.431809	-18.556874	-9.642189	-11.58163	-0.611058	-0.161688	0.304685
-2.874316	2.219151	9.174774	-15.406648	6.9483	1.659991	0.325172	-0.181236	-0.789753	-11.341885	1.477856	12.045144	49.173385	8.920014	67.964967	-0.563603	-0.342261	-0.405205	8.731698	1.343932	0.410189	-14.437191	-9.294661	-14.195785	-0.611471	-0.212744	0.35378
-3.549737	1.532762	9.727047	-16.947248	5.931539	1.249221	0.355328	-0.233541	-0.790864	-7.902968	-0.162907	11.266709	27.300043	57.120083	122.817958	-0.5897	-0.312842	-0.392312	9.618581	1.10985	0.485613	-10.916617	-7.802769	-15.285228	-0.65264	-0.163953	0.33553
-3.04323	1.358135	9.28152	-10.41612	6.361522	1.237411	0.328216	-0.239506	-0.814902	-6.149532	-2.871536	9.602721	-14.355467	68.098134	125.576373	-0.563013	-0.340117	-0.433905	9.911866	0.934452	0.37056	-10.241164	-5.276746	-13.832881	-0.61057	-0.130129	0.318539
-3.145988	2.05017	9.907573	-4.7135	6.539358	1.438562	0.313338	-0.228889	-0.803893	-4.398482	-1.80583	8.168468	-39.16783	96.104217	92.132647	-0.564043	-0.313764	-0.378513	9.970592	0.585614	0.31027	-8.909357	-2.113236	-11.683058	-0.625592	-0.210469	0.307126
-3.322205	2.049329	9.67682	-2.412763	6.512753	2.014191	0.325929	-0.191478	-0.800413	-4.241	-0.173043	7.607074	-62.633449	120.617239	55.913511	-0.576359	-0.356585	-0.418276	10.154898	-0.168544	0.609892	-6.882225	0.644489	-11.459079	-0.611196	-0.178706	0.32105
-3.269446	2.105764	9.450762	0.068741	6.214251	2.247538	0.312595	-0.235945	-0.775741	-2.882909	0.332828	9.277854	-74.487618	144.783488	19.733752	-0.53654	-0.292934	-0.451817	9.973063	0.469956	0.429589	-5.927182	2.04991	-8.015908	-0.625037	-0.161066	0.289087
-3.104033	1.64466	9.111054	3.021167	7.29384	3.115273	0.312952	-0.215118	-0.807308	-3.072159	1.402862	8.595454	-73.304731	163.621401	-20.061831	-0.53632	-0.307183	-0.465163	9.264714	0.064797	0.354747	-6.816175	2.719988	-8.046447	-0.583659	-0.193664	0.3065
-3.275962	1.874551	9.108679	2.960059	7.418216	2.964134	0.369434	-0.216616	-0.808705	-3.970388	3.769175	7.163322	-80.456181	177.001127	-47.215441	-0.510293	-0.291712	-0.466718	9.56242	0.355244	0.541206	-9.1625	3.152114	-9.231882	-0.625033	-0.179737	0.336508
-3.272953	2.334807	9.281168	5.07313	7.370103	2.650595	0.354571	-0.223298	-0.780204	-3.099593	2.472146	7.406923	-80.336731	191.975196	-65.345303	-0.47107	-0.290415	-0.481895	9.333499	0.124963	0.895256	-10.336223	2.965621	-9.348984	-0.59743	-0.17685	0.290065
-2.989814	2.046668	9.11497	3.965138	7.128143	1.852497	0.311823	-0.208403	-0.782572	-3.99703	2.528766	5.802928	-86.272278	210.876044	-68.305977	-0.481904	-0.267666	-0.583071	9.223845	-0.163416	1.311168	-10.999959	1.690181	-10.47123	-0.597288	-0.178502	0.32112
-3.395463	2.620408	8.882176	2.429578	7.005018	1.241563	0.355714	-0.247312	-0.787448	-3.668378	3.938197	7.849184	-113.599367	238.360001	-77.116475	-0.443642	-0.284906	-0.554195	9.217512	-0.281052	0.951232	-10.588654	0.115888	-11.901534	-0.597918	-0.208409	0.276211
-3.047275	2.333917	9.115063	0.912317	5.94745	-0.979347	0.354599	-0.257897	-0.745221	-2.775885	3.937718	9.226668	-114.534581	257.08737	-77.423935	-0.430076	-0.282687	-0.583171	8.982973	0.010363	1.06788	-8.287451	-1.251685	-11.964461	-0.611129	-0.160862	0.289157
-3.217386	1.587543	9.165439	2.261125	6.078062	-1.103779	0.341608	-0.264237	-0.769607	-2.142965	4.725207	9.297269	-108.320482	269.325646	-78.345064	-0.377437	-0.309812	-0.625315	9.036757	-0.10716	0.768951	-7.061947	-1.977607	-12.332154	-0.61057	-0.130129	0.318539
-3.446611	1.874916	9.162191	2.197866	6.114764	-1.655028	0.383955	-0.248061	-0.788147	-0.640544	4.891634	9.612041	-106.897038	265.086904	-73.392735	-0.376476	-0.291276	-0.669368	8.746078	-0.105496	1.003077	-3.757787	-2.130666	-11.182109	-0.611893	-0.226458	0.308034
-3.267302	2.22113	9.564951	4.226119	6.108216	-0.25024	0.355714	-0.247312	-0.787448	0.560884	5.62143	9.354847	-110.282198	249.61743	-69.17253	-0.32309	-0.225406	-0.731885	9.444098	0.00681	0.477614	-5.604199	-2.733956	-9.675088	-0.611684	-0.210265	0.307197
-3.327897	2.220448	9.393278	6.759089	7.971595	1.796827	0.327487	-0.263862	-0.769258	2.284136	6.294068	9.278404	-116.85525	229.045259	-63.618556	-0.349413	-0.241949	-0.71598	8.560921	0.067406	0.581169	-5.535106	-2.965194	-7.993395	-0.639358	-0.212326	0.338112
-3.272704	1.990157	9.27972	7.158896	6.873883	3.893887	0.354185	-0.209527	-0.78362	3.220035	6.743604	10.034441	-125.712099	211.080473	-58.872636	-0.25696	-0.265633	-0.802001	8.675382	0.182547	0.404144	-4.605035	-2.443746	-7.815886	-0.611826	-0.208613	0.276141
-3.436631	1.934529	9.67411	11.375979	8.185714	6.479094	0.325201	-0.215834	-0.75477	4.163881	8.094808	11.244353	-129.005519	200.557319	-52.938409	-0.270451	-0.252531	-0.77403	8.372038	-0.05106	-0.081603	-5.997212	-2.470814	-8.635859	-0.583868	-0.209857	0.307337
-3.444716	2.334931	9.277828	11.913843	9.203443	9.100738	0.354199	-0.226826	-0.766128	4.247071	8.602718	12.49206	-118.346206	193.524516	-48.006197	-0.204605	-0.17341	-0.809126	8.50175	-0.339238	0.518431	-6.359421	-2.083314	-7.780692	-0.611542	-0.211918	0.338252
-3.507952	2.908182	8.994862	13.703354	10.084506	10.73521	0.341222	-0.250465	-0.773023	5.354758	8.263209	13.13778	-99.775021	186.363488	-45.658178	-0.203939	-0.155946	-0.838829	8.50094	0.009218	0.519914	-7.122903	-2.224203	-6.249196	-0.639291	-0.194481	0.306219
-3.112863	3.07901	8.719115	9.256774	9.321008	11.19559	0.340464	-0.240223	-0.762363	6.790159	8.316703	12.998132	-86.266422	179.54681	-44.944532	-0.179099	-0.204973	-0.79332	8.443429	-0.164628	0.577979	-8.630059	-2.112324	-5.755289	-0.625312	-0.195103	0.321817
-3.055401	2.791761	8.719022	4.289198	9.243319	10.595307	0.368705	-0.240972	-0.763062	7.247787	7.301702	12.780391	-82.205498	168.477504	-44.619885	-0.138839	-0.169819	-0.853554	8.630922	-0.395112	1.119454	-9.024724	-1.846029	-5.021653	-0.611404	-0.194899	0.321887
-3.444058	2.967029	9.337335	-1.421182	8.243749	9.675517	0.383969	-0.26536	-0.770655	8.40229	7.52501	12.974678	-76.232695	147.528549	-43.004871	-0.177322	-0.138332	-0.869084	8.810596	-0.104395	1.303712	-8.895909	-1.576588	-4.412171	-0.611196	-0.178706	0.32105
-3.052801	2.275269	8.830556	-1.381792	10.221784	8.72623	0.355342	-0.25084	-0.773373	10.248202	6.78936	13.126026	-66.523245	119.349221	-39.30097	-0.15196	-0.140326	-0.840936	8.750325	-0.511287	1.181067	-8.54675	-1.501253	-2.702323	-0.597638	-0.193042	0.290902
-3.050616	2.333193	8.944504	-3.189033	10.773793	8.096409	0.369834	-0.247686	-0.787798	11.49761	6.842655	12.359715	-62.655137	98.151508	-37.474264	-0.112222	-0.152205	-0.883808	9.340216	-0.396485	1.192566	-7.578586	-1.95601	0.199785	-0.58401	-0.208204	0.276281
-3.103624	2.621407	9.172009	-7.487446	9.554919	8.119638	0.340479	-0.257522	-0.744871	12.746671	6.445259	11.536385	-60.322244	103.817954	-41.947383	-0.112517	-0.153277	-0.869459	8.91996	-0.164719	0.82641	-4.142001	-2.405361	3.429195	-0.611546	-0.193246	0.290832
-3.106674	2.218593	8.999761	-9.695543	10.675255	5.997537	0.354213	-0.244126	-0.748636	13.932468	6.498425	10.485667	-53.730556	123.205261	-51.335831	-0.098951	-0.151058	-0.898434	8.862294	-0.745344	0.822837	0.247803	-2.846231	6.166165	-0.625592	-0.210469	0.307126
-2.995754	2.562436	8.832876	-11.029789	9.401709	3.925989	0.326358	-0.257148	-0.744522	14.668599	5.933197	9.877873	-65.009402	153.758806	-60.565687	-0.098135	-0.102953	-0.930144	9.038222	-1.210852	0.704347	3.312266	-2.640674	8.049091	-0.625875	-0.207164	0.245015
-3.27621	2.2192	9.110126	-9.581679	7.691338	0.857942	0.353813	-0.213055	-0.769544	16.120708	6.100016	10.531273	-66.986405	172.670544	-66.235661	-0.059948	-0.135513	-0.900265	9.335389	-0.688101	0.891795	5.444837	-2.270053	8.436942	-0.611684	-0.210265	0.307197
-3.530051	1.122428	7.793466	-27.217556	15.873681	-15.059654	0.354971	-0.254368	-0.759297	17.186385	4.970172	9.137304	-55.736203	153.833111	-63.331674	-0.033996	-0.135363	-0.900816	9.455892	-0.804029	1.013315	6.282191	-1.717401	8.522966	-0.596729	-0.14777	0.350502
-3.3767	2.854276	9.849644	-49.586492	10.4114	-19.531372	0.356128	-0.295681	-0.749049	19.353513	4.232926	8.163113	-47.705868	127.403083	-58.471374	-0.032444	-0.114683	-0.973568	9.921149	-0.69044	0.663172	5.395971	-1.394223	9.502716	-0.639358	-0.212326	0.338112
-3.248721	3.616415	13.492492	-48.394019	27.123426	-23.802586	0.356114	-0.278382	-0.766541	20.431835	3.833564	4.731944	-47.464728	117.576877	-54.685048	0.005158	-0.089176	-0.904654	10.218565	-0.748697	0.788241	5.488184	-1.579632	9.717223	-0.597847	-0.209235	0.291739
-2.681693	5.363213	19.137096	-33.693724	69.818828	-10.60632	0.355328	-0.233541	-0.790864	21.498768	3.943134	3.508937	-58.442412	117.110478	-51.492737	0.030884	-0.134987	-0.902195	10.629478	-0.750137	0.67613	5.513799	-2.283701	9.781622	-0.597638	-0.193042	0.290902
-2.919073	1.877197	9.797597	41.088874	99.258156	-10.158936	0.354928	-0.20247	-0.811772	26.852422	7.151292	12.003103	-14.738528	117.703874	-62.20946	-0.006637	-0.084964	-0.961777	10.696872	-1.038921	1.095343	4.403089	-2.845229	10.460762	-0.625312	-0.195103	0.321817
-3.249036	3.144296	10.535315	-20.320799	89.867557	-17.281047	0.383169	-0.203219	-0.81247	22.862968	6.700268	2.973878	-8.17595	54.319555	-24.642028	0.070628	-0.086657	-0.934732	10.69301	-1.272214	0.854726	2.621014	-3.080914	11.935491	-0.597847	-0.209235	0.291739
-3.721729	4.302908	12.74739	-6.280502	104.579519	-24.627499	0.424816	-0.245998	-0.750382	23.160521	11.094221	3.833216	49.635954	17.486889	-22.557344	0.083378	-0.132544	-0.931997	11.051509	-1.272036	1.100956	1.3601	-3.526313	13.164822	-0.624686	-0.146526	0.319306
-3.349153	3.262398	11.27266	-10.573231	119.874124	-34.028512	0.453786	-0.222392	-0.796725	21.92204	12.280719	5.223606	70.188809	-33.295665	18.109584	0.083013	-0.088726	-0.906309	11.219504	-0.693411	0.687382	1.728091	-4.142116	13.686053	-0.596803	-0.128272	0.287554
-3.104712	3.495376	12.074023	-20.801857	131.50673	-42.674942	0.425188	-0.24247	-0.764458	21.500241	13.914442	4.480204	139.619881	-80.634677	65.790737	0.044751	-0.071487	-0.935185	10.80282	-0.577056	0.500452	4.397525	-5.597883	13.408237	-0.653408	-0.210878	0.306986
-3.374364	3.614085	12.921734	-23.542812	148.596015	-50.027517	0.437794	-0.222359	-0.743487	8.336255	15.794163	-0.153903	218.906798	-121.277103	134.272686	0.045191	-0.099984	-0.961877	11.455839	-0.810103	0.691289	8.789805	-7.412594	12.942499	-0.624548	-0.129507	0.302941
-3.369662	3.270401	13.147699	-26.174071	166.571508	-54.329155	0.508782	-0.238003	-0.741818	2.496821	12.320765	9.005116	169.59818	-76.633508	79.852641	0.069441	-0.151155	-0.887669	11.387364	-0.05671	0.274054	14.352999	-8.289991	10.970327	-0.59743	-0.17685	0.290065
-3.698796	3.388669	13.880591	-34.766532	186.785084	-58.117127	0.536995	-0.204154	-0.7775	3.448963	7.146928	20.796297	92.658243	-76.710092	82.811576	0.069731	-0.210293	-0.912354	12.565236	0.521102	0.238628	18.77655	-7.000383	6.088322	-0.62469	-0.127854	0.271885
-4.059569	1.961364	15.856622	-30.79309	213.639572	-57.568909	0.522145	-0.228135	-0.731507	9.349252	8.026583	8.862174	85.156688	-122.859601	55.029402	0.031023	-0.224766	-0.924872	13.553395	0.864049	-0.51997	17.212052	-3.419946	2.409229	-0.596803	-0.128272	0.287554
-3.593692	0.354117	16.199892	-13.894602	242.810386	-47.75554	0.576756	-0.229976	-0.680015	1.692474	8.878818	0.662904	52.520806	-111.140197	19.911274	-0.047273	-0.196719	-0.896526	13.900869	0.3969	-0.934694	9.87021	1.813553	5.497789	-0.624966	-0.161892	0.304615
-3.527198	-0.103526	16.653899	0.511893	273.43209	-34.537708	0.590505	-0.233878	-0.666289	3.932224	3.137727	10.725588	10.826234	-60.930832	10.819738	-0.00923	-0.19971	-0.854304	13.893706	0.162865	-1.355031	6.356149	5.779956	11.17666	-0.611133	-0.14219	0.241737
-3.053988	0.473935	17.461164	11.434854	305.876796	-21.403855	0.617617	-0.227913	-0.642251	3.844532	1.676681	14.572221	6.109725	-45.927092	33.778899	-0.07352	-0.197941	-0.881625	12.66097	0.167184	-1.018699	2.923633	5.227737	10.152501	-0.596803	-0.128272	0.287554
-3.266262	0.420278	18.309265	28.30149	339.346537	-9.988897	0.661136	-0.27035	-0.633051	2.411496	4.714593	7.015119	60.543086	-48.423099	47.517508	-0.047863	-0.198863	-0.867826	10.724171	0.290264	-0.45545	3.626333	2.506916	7.289831	-0.624757	-0.145699	0.303778
-5.162748	-0.556549	17.870446	50.420985	363.43682	4.81498	0.716118	-0.268662	-0.595636	9.067015	2.335166	5.907289	-0.341219	-9.718828	27.381945	-0.086721	-0.243978	-0.878338	9.432418	0.294718	-0.120218	12.851966	0.382498	5.891156	-0.597154	-0.142812	0.257335
-7.419474	1.565579	16.698886	73.441343	371.962594	17.49113	0.715375	-0.275719	-0.567484	0.002811	3.142103	7.246215	-7.462189	-15.490445	5.121879	-0.035038	-0.229429	-0.866095	8.665249	1.226184	-0.010755	24.202002	0.542511	6.154931	-0.596874	-0.127446	0.272026
-11.423198	4.257093	14.018155	88.146878	364.984177	13.68607	0.754707	-0.235872	-0.525891	3.578632	4.264747	10.436085	-10.29751	-3.077466	28.734827	-0.059953	-0.195723	-0.9106	8.312813	1.459793	0.103446	28.549035	2.519258	8.758318	-0.624899	-0.144047	0.272722
-9.313361	3.794097	13.602599	92.472898	352.716669	11.910024	0.812389	-0.330581	-0.464565	2.962285	3.419207	8.440898	4.487198	-9.66849	19.648116	-0.07352	-0.197941	-0.881625	8.083756	1.287589	0.457743	31.008016	4.595852	9.931543	-0.638389	-0.111866	0.270978
-8.115772	3.574841	16.295999	124.677059	335.890631	3.907493	0.823895	-0.338354	-0.383875	3.483461	3.700032	8.621934	9.04048	-2.538466	7.206135	-0.021616	-0.197641	-0.882728	7.612707	0.824061	0.446962	31.322357	7.380058	7.013446	-0.624899	-0.144047	0.272722
-7.072271	3.277196	14.041825	144.444812	349.195854	-5.532027	0.851364	-0.311561	-0.391405	3.381196	3.926091	9.242742	4.25235	-2.883937	3.838548	-0.060769	-0.243828	-0.878889	7.677786	1.057713	0.808493	25.046347	11.304	4.022154	-0.624481	-0.111662	0.271048
-5.448808	1.327125	15.0313	111.66889	359.4064	-31.55674	0.822009	-0.321397	-0.348478	2.687539	3.532929	9.057984	1.946272	-4.878232	-0.468257	-0.060694	-0.228507	-0.879893	8.196556	1.16993	0.159915	16.309368	14.618364	2.937683	-0.638736	-0.145077	0.28818
-2.326367	3.259963	10.894732	109.587382	363.420362	-45.350498	0.848792	-0.370858	-0.257889	2.855724	3.363424	8.83491	4.560966	-5.905943	-2.356881	-0.060544	-0.197866	-0.8819	8.83637	0.933916	-0.368131	9.225264	16.720436	1.333447	-0.624481	-0.111662	0.271048
-1.52153	-2.464848	2.077542	127.932576	280.56945	-59.544567	0.917152	-0.376602	-0.192671	2.457517	4.040382	9.110215	5.149844	-5.945939	-4.483928	-0.048384	-0.245896	-0.850466	9.249078	1.107199	-0.359686	5.301048	17.125808	-0.763119	-0.625108	-0.160239	0.273559
13.743882	-8.422873	-4.811274	29.802737	164.355478	6.818242	0.901902	-0.369513	-0.167586	2.626371	4.152577	8.944018	2.85473	-4.200341	-3.913517	-0.034372	-0.211965	-0.895798	10.357875	1.276142	-0.997012	1.124763	16.112318	-1.812848	-0.63811	-0.0965	0.285669
5.742632	-5.816237	-1.205113	-38.058256	-47.33588	57.26219	0.872532	-0.362049	-0.142152	2.57254	4.096497	9.11268	0.973326	-3.864314	-2.678574	-0.047493	-0.182471	-0.88318	10.30272	1.50957	-0.757496	-2.591499	14.266943	-2.126769	-0.597016	-0.125794	0.24097
5.001485	-0.110184	16.706103	-67.721793	-199.78932	87.21277	0.886281	-0.365952	-0.128425	2.454452	4.37827	8.99722	-0.606947	-4.137681	-1.449445	-0.047643	-0.213112	-0.881172	10.70811	1.042039	-1.231026	-4.39726	11.747567	-1.680333	-0.624832	-0.126202	0.24083
7.850306	0.631589	16.082677	-43.911096	-197.625418	58.118878	0.888925	-0.393152	-0.174481	2.447176	3.758302	8.600221	-3.671643	-4.466165	0.641132	-0.060989	-0.229579	-0.865543	10.524074	1.680044	-1.531142	-8.061867	8.43125	-1.71236	-0.611274	-0.140538	0.210681
4.330592	-2.716352	11.567331	-24.695042	-171.744768	62.193231	0.888539	-0.379381	-0.177897	2.505735	3.870903	8.658165	-6.599897	-3.838217	2.093944	-0.047718	-0.228432	-0.880169	10.194167	1.221438	-0.281678	-8.833099	5.041534	-2.518574	-0.637972	-0.079481	0.269304
3.824997	-0.083601	9.238547	-12.117365	-169.743413	61.729688	0.846563	-0.392028	-0.173434	2.755769	3.645909	9.569044	-5.326661	-3.387192	1.236263	-0.099616	-0.168522	-0.868731	9.844316	0.816457	-0.11029	-8.028413	1.992453	-3.179306	-0.624481	-0.111662	0.271048
4.02552	-0.721896	7.762166	-19.51626	-180.412925	44.86907	0.875547	-0.385721	-0.202284	2.915838	3.926764	9.006512	-2.498665	-4.542462	0.518004	-0.060469	-0.182546	-0.882904	9.719816	0.757168	-0.47218	-6.381089	0.106926	-3.665266	-0.610924	-0.125998	0.2409
4.570393	-0.958108	6.351008	-30.344972	-206.594742	38.159132	0.835086	-0.418854	-0.219141	2.980656	3.92694	9.347559	-4.078813	-4.986943	-0.227561	-0.060769	-0.243828	-0.878889	9.598732	0.175689	-0.71648	-3.342094	-0.943267	-4.588116	-0.625391	-0.156934	0.211448
5.086382	-0.383824	6.420296	-47.877121	-233.975379	28.382547	0.822823	-0.400837	-0.289171	2.74763	3.476585	9.172425	-3.616763	-5.18868	-1.308177	-0.034667	-0.213037	-0.881448	9.24205	0.815088	-0.78027	-0.026646	-1.617821	-6.247228	-0.638807	-0.144251	0.272652
4.314096	0.714659	7.944325	-62.088252	-257.711118	15.741895	0.794582	-0.400088	-0.288473	2.968006	3.588436	8.724239	0.46039	-5.284834	-2.138208	-0.021616	-0.197641	-0.882728	9.299405	0.582154	-0.899973	2.189471	-1.695616	-6.835547	-0.624273	-0.095469	0.270211
2.902198	1.524219	8.943222	-64.048748	-273.85617	3.341632	0.809431	-0.376107	-0.334466	2.514304	3.814904	9.054595	-2.65205	-4.538786	-0.34527	-0.060764	-0.183618	-0.868554	9.245891	0.583526	-0.601539	2.534038	-1.052653	-6.77874	-0.611062	-0.143017	0.257265
2.225415	1.182238	9.44009	-56.99263	-284.254875	-2.061012	0.810146	-0.334452	-0.397601	2.633062	3.814831	9.226931	-1.229542	-4.370445	0.11997	-0.099101	-0.181699	-0.896427	8.945173	0.641041	-0.906328	3.251849	-0.104039	-6.571938	-0.610924	-0.125998	0.2409
0.334118	2.274754	9.351077	-51.445413	-278.828604	-3.4303	0.768156	-0.3298	-0.41063	2.85212	3.982965	8.722153	-1.513166	-4.832551	-0.10065	-0.07411	-0.200085	-0.852925	9.245061	0.467126	-0.66194	3.293223	0.869577	-6.057192	-0.597087	-0.124967	0.225442
-1.428563	2.336134	9.942184	-58.384492	-266.161512	-10.779981	0.755921	-0.346382	-0.445677	2.689634	3.702015	9.171406	-0.829047	-4.457146	0.088602	-0.0862	-0.196945	-0.895699	8.774572	0.23615	-0.611826	4.187201	0.997358	-6.274968	-0.652998	-0.14115	0.210471
-2.287503	2.50908	9.926206	-61.288031	-249.297653	-12.215338	0.742144	-0.307881	-0.494387	2.981757	3.983318	9.404246	-1.012385	-4.305766	0.028304	-0.087011	-0.18484	-0.853653	9.189866	-0.229157	-0.546193	5.076957	0.419057	-6.244869	-0.667115	-0.157547	0.211238
-3.143187	2.797634	10.081269	-60.134852	-236.992125	-11.650804	0.700525	-0.2997	-0.521491	3.033817	3.701321	9.12202	-1.194479	-4.09064	-0.401297	-0.047493	-0.182471	-0.88318	8.959709	-0.401608	-0.251802	4.486108	-0.473927	-5.871731	-0.652372	-0.092573	0.207959
-3.132052	2.800046	10.6498	-53.597432	-233.781643	-7.231723	0.715403	-0.310317	-0.532501	3.034703	3.87036	9.178801	0.932537	-4.517542	-1.328672	-0.073445	-0.182621	-0.882628	9.075405	-0.344297	-0.369168	3.370035	-1.459928	-5.557369	-0.63937	-0.156312	0.19585
-3.915099	3.379143	11.603127	-46.086663	-238.069499	-0.453185	0.674142	-0.281309	-0.591173	2.858165	3.983202	9.005351	1.662485	-5.570369	-3.03409	-0.035333	-0.230501	-0.851745	9.074865	-0.111993	-0.368179	2.627931	-2.390034	-4.602832	-0.638881	-0.124754	0.209704
-4.716454	3.092516	11.586331	-34.777628	-243.14678	6.945332	0.631794	-0.297485	-0.572633	2.983528	4.321396	9.51781	1.227438	-5.732206	-2.573631	-0.07352	-0.197941	-0.881625	8.893955	-0.344881	-0.612097	1.855406	-2.948451	-4.108381	-0.681093	-0.156925	0.195639
-5.011219	2.516377	11.123526	-25.193642	-243.786928	13.040577	0.576413	-0.268103	-0.630956	2.515729	3.702291	9.111139	3.392071	-5.60814	-3.279698	-0.07367	-0.228582	-0.879617	8.653644	0.06145	-0.794489	0.024305	-3.95686	-4.83042	-0.652927	-0.141976	0.225998
-5.514136	2.34708	11.738165	-24.434647	-241.72058	15.61716	0.57717	-0.278345	-0.641616	2.205041	3.645598	8.028895	4.436324	-13.267347	-2.276035	-0.087161	-0.215481	-0.851646	8.831928	0.003216	-0.731528	-2.113376	-4.597101	-5.767032	-0.611207	-0.122693	0.178789
-5.908195	2.291376	12.071248	-26.942272	-235.133575	14.320719	0.562649	-0.2469	-0.662175	2.643941	3.815258	9.736688	6.237122	-7.435807	0.403779	-0.074261	-0.230726	-0.850918	8.947489	0.118604	-0.848646	-2.458716	-4.741807	-6.681931	-0.638952	-0.123927	0.194176
-6.117087	2.181001	13.089667	-21.384819	-222.122855	11.418746	0.533665	-0.253208	-0.633324	2.809492	3.75832	9.400429	7.490192	-6.213077	-1.278598	-0.086941	-0.229729	-0.864992	9.1878	-0.287727	-0.666254	-3.96697	-4.658942	-6.34069	-0.639019	-0.141772	0.226069
-7.211312	1.77825	12.725703	-13.776409	-204.673962	8.55223	0.521016	-0.221421	-0.706771	3.034703	3.87036	9.178801	11.005533	-9.340795	-3.83476	-0.07352	-0.197941	-0.881625	9.002778	-0.172901	-1.08841	-6.766779	-4.214616	-5.904812	-0.681093	-0.156925	0.195639
-7.548774	1.090407	13.000391	-14.811202	-186.892042	5.225298	0.507267	-0.217518	-0.720497	2.503556	4.37783	8.601952	11.811523	-8.886506	-1.394188	-0.074556	-0.231798	-0.836568	9.23168	-0.407475	-1.504345	-8.122188	-4.066552	-5.90061	-0.639019	-0.141772	0.226069
-8.496282	0.809452	14.287877	-11.497275	-165.442094	2.865401	0.451543	-0.226262	-0.729761	3.032285	3.870265	9.065522	9.187757	-11.159717	-1.172277	-0.099402	-0.242981	-0.892412	9.236527	0.348996	-1.14169	-9.412383	-3.831858	-5.377512	-0.610995	-0.125172	0.225372
-9.586426	0.92464	14.153497	-5.528078	-141.219443	1.00291	0.479412	-0.23054	-0.716383	2.808176	3.814603	9.343837	8.594521	-11.514767	0.395947	-0.112743	-0.199238	-0.866448	9.595276	-0.231832	-0.957839	-10.731809	-4.034974	-3.935362	-0.611897	-0.207786	0.260613
-10.798625	0.693573	13.61747	-2.635918	-123.090354	-1.900406	0.394289	-0.197222	-0.735195	2.920134	4.208606	9.233308	5.4338	-14.714906	0.639039	-0.125794	-0.214634	-0.865168	9.066311	-0.694978	-0.909814	-12.514137	-4.14578	-2.705896	-0.666347	-0.110622	0.239782
-12.084946	0.688695	12.228499	-9.765883	-119.273199	-5.16075	0.424445	-0.249527	-0.736307	3.328143	4.09538	9.468234	5.918199	-15.390168	1.680872	-0.112818	-0.214559	-0.865444	9.010731	-0.752177	-0.731441	-14.411578	-3.900052	-0.499697	-0.611763	-0.172096	0.196828
-13.944759	0.454224	10.770575	-20.028425	-126.675102	-7.459628	0.43888	-0.177176	-0.820699	3.052728	3.927402	10.028443	0.893957	-19.180627	4.167061	-0.035553	-0.216252	-0.838399	8.838625	-0.983088	-0.496103	-17.748034	-2.964503	2.533672	-0.625044	-0.123723	0.194246
-15.411834	0.562423	8.923922	-40.45766	-142.372814	-9.189301	0.451514	-0.191663	-0.764744	3.284714	3.025682	10.03252	6.082613	-21.430832	6.645966	-0.086496	-0.198016	-0.881349	9.195193	-1.099555	-0.370181	-19.322986	-1.564737	5.650211	-0.681164	-0.156098	0.180112
-17.539275	-0.816812	8.365253	-66.163695	-155.113286	-8.156832	0.367905	-0.178831	-0.804877	4.028491	4.150797	9.935905	-4.044012	-37.283363	14.773146	-0.112818	-0.214559	-0.865444	9.191196	-1.274772	-0.61055	-19.393783	-0.116012	7.507987	-0.611483	-0.15673	0.211518
-18.643895	-0.70476	7.491783	-96.156447	-163.36285	-11.670213	0.396532	-0.193351	-0.802159	2.292457	7.874134	12.50698	9.360483	-45.747343	3.108218	-0.086791	-0.199088	-0.866999	9.078531	-1.21519	-0.31297	-18.054881	1.260873	7.924472	-0.63909	-0.140946	0.210541
-19.689198	-0.362501	6.734098	-118.492657	-158.296226	-14.652034	0.339264	-0.147012	-0.825086	3.074618	4.491608	11.10507	5.837738	-71.337751	16.50812	-0.074851	-0.23287	-0.822218	9.661934	-1.624803	-0.723044	-16.133032	2.086422	8.616563	-0.63937	-0.156312	0.19585
-19.694807	-0.306266	6.450074	-125.272803	-141.201452	-11.563848	0.309494	-0.108478	-0.820559	2.401961	4.88559	9.279636	15.282383	-74.516934	14.387745	-0.100137	-0.215556	-0.85137	9.896493	-1.451362	-0.777808	-14.479324	2.706947	11.297359	-0.624974	-0.124549	0.209774
-20.284841	0.781919	5.590728	-119.297658	-123.531717	-2.553274	0.269019	-0.124311	-0.854908	2.994023	5.786511	10.142078	-6.211465	-80.72964	22.046833	-0.113408	-0.216703	-0.836745	10.188968	-1.278304	-0.891377	-11.416669	2.791411	13.058682	-0.653628	-0.171056	0.165561
-21.736867	1.640235	4.543154	-106.253358	-106.094909	10.787335	0.296102	-0.083747	-0.865854	3.00555	5.448955	10.65155	-10.215994	-86.213939	32.008774	-0.152111	-0.170966	-0.838928	10.13642	-1.218609	-0.532789	-8.170823	2.942134	14.39112	-0.639228	-0.157965	0.226906
-22.503977	0.831526	3.331386	-103.579913	-89.2528	31.536803	0.270119	-0.096427	-0.914627	3.062553	5.110817	10.595835	-12.645066	-96.756588	39.732935	-0.12624	-0.246347	-0.848811	10.13642	-1.218609	-0.532789	-5.412705	3.45312	16.212688	-0.638881	-0.124754	0.209704
-30.54832	11.234431	16.744401	-60.500037	-100.544809	87.638351	0.226986	-0.067761	-0.920411	2.787353	4.830177	11.155949	-12.225274	-106.771658	47.279771	-0.178288	-0.217078	-0.835366	10.072576	-1.510091	-0.83466	-4.473396	3.801778	18.316751	-0.611345	-0.139712	0.195153
-24.559768	6.64913	6.725745	62.587304	-20.006025	84.699349	0.225471	-0.047276	-0.899091	3.422344	5.16707	11.282811	-9.853473	-118.785324	54.46929	-0.191855	-0.219297	-0.806391	10.316459	-2.031832	-0.473042	-3.963974	4.735457	19.899962	-0.667115	-0.157547	0.211238
-22.695387	9.814567	8.537094	111.134592	11.372994	72.378782	0.241492	-0.081907	-0.917345	3.659428	5.392245	11.627674	-6.832626	-130.761533	61.752312	-0.191704	-0.188656	-0.808398	10.263505	-1.797909	-0.113712	-4.290466	5.827927	20.629558	-0.610857	-0.108153	0.209007
-21.051183	12.165332	7.840189	192.039644	57.195264	32.360063	0.212536	-0.122813	-0.853511	3.667196	4.491194	11.910113	-3.007144	-145.289165	66.420833	-0.191779	-0.203976	-0.807394	10.258969	-1.740822	-0.353093	-5.749496	7.366335	22.217042	-0.666839	-0.123509	0.178508
-20.816433	15.658444	5.35894	230.204738	137.230675	-57.385824	0.241178	-0.154632	-0.833302	3.845698	3.984086	12.139871	3.118629	-161.280173	69.165112	-0.231518	-0.192096	-0.764522	10.613336	-1.857784	-0.346985	-7.426915	9.623026	22.304052	-0.624974	-0.124549	0.209774
2.447286	3.728458	0.419102	187.533718	165.541601	-41.371744	0.254927	-0.158535	-0.819575	4.209115	4.040481	12.996766	6.899287	-177.258738	69.903548	-0.218171	-0.175629	-0.780151	10.737606	-0.752632	0.139169	-9.128455	11.273577	18.878731	-0.652789	-0.124958	0.209634
-2.922534	5.405821	15.609105	184.651641	130.228887	-24.791025	0.284297	-0.165999	-0.845009	4.533208	4.041365	14.701999	18.559737	-197.805722	70.787957	-0.296837	-0.163975	-0.736451	11.741326	0.000555	0.280904	-10.693424	11.029678	9.379435	-0.625111	-0.141568	0.226139
-9.064383	3.913157	14.630891	132.455749	137.461417	-41.884494	0.328216	-0.239506	-0.814902	4.505386	3.028614	16.002647	26.204238	-223.485458	68.997427	-0.296322	-0.177151	-0.764147	13.691276	1.79794	0.684324	-12.460809	8.489512	0.014803	-0.639299	-0.157138	0.211378
-6.084966	6.504414	3.220022	85.964167	175.696799	12.882197	0.369806	-0.213088	-0.822781	4.958076	1.677776	18.218916	47.366356	-253.004108	60.057506	-0.362528	-0.152245	-0.693026	14.987565	1.736399	0.588473	-10.392073	2.150431	-1.521135	-0.653419	-0.154864	0.164724
-11.356039	-5.749639	11.192592	40.578375	57.592879	35.592931	0.327073	-0.215492	-0.807658	5.211498	0.945902	19.242648	81.1158	-286.061582	47.63971	-0.311214	-0.154089	-0.66543	13.983865	1.448067	0.508622	-5.726692	-2.229157	6.551632	-0.625253	-0.139916	0.195083
-8.118661	-0.414763	10.141441	-7.338238	6.590307	-42.014796	0.39769	-0.234664	-0.791912	3.941395	2.863511	19.217664	103.36038	-322.310258	39.46678	-0.402341	-0.155686	-0.64915	12.688636	0.580144	0.540611	-2.414571	-2.335223	9.077019	-0.667603	-0.189105	0.197384
-3.70702	7.428534	4.861423	107.885596	41.073276	-13.87356	0.39769	-0.234664	-0.791912	3.66521	5.624909	20.006898	124.469266	-357.215109	38.551593	-0.377941	-0.176215	-0.576949	11.45646	0.817014	0.937839	-4.157782	-2.992954	7.008063	-0.652998	-0.14115	0.210471
-1.400171	4.385611	5.632263	-35.325995	17.483007	-13.936686	0.369091	-0.254743	-0.759646	5.789854	6.630008	14.504218	121.767975	-387.496472	39.821315	-0.456682	-0.179881	-0.532246	10.203179	-0.287303	0.011429	-8.567888	-1.20596	4.23416	-0.65349	-0.154038	0.149196
-3.582577	1.652994	10.977184	-36.47927	7.063825	-25.236495	0.368705	-0.240972	-0.763062	8.464617	7.417152	18.580695	61.35914	-391.639033	57.582792	-0.483595	-0.198568	-0.487641	9.614388	-0.401858	0.059837	-13.334065	1.953966	7.598417	-0.652719	-0.125784	0.225161
-2.768513	3.481093	8.784338	-1.188462	17.254118	-23.148059	0.369477	-0.268514	-0.75623	6.557181	5.167014	17.972508	71.286907	-395.18035	59.158896	-0.497676	-0.18761	-0.43097	9.839179	-0.288718	-0.534336	-24.240751	2.49056	8.154963	-0.63937	-0.156312	0.19585
-3.299967	2.731107	7.918383	-26.682339	16.424949	-20.082304	0.383198	-0.237818	-0.777487	6.516334	3.13736	15.875135	71.756868	-385.254222	55.496298	-0.485881	-0.191822	-0.373847	9.655163	0.814143	-0.772567	-29.802556	-0.179255	4.122789	-0.680467	-0.108347	0.193128
-3.440298	0.842175	9.442113	-23.88966	6.657897	-11.415902	0.384326	-0.244533	-0.802223	8.065356	3.979266	15.738568	76.842856	-366.620534	54.359528	-0.564478	-0.225057	-0.341486	9.407284	1.160667	-1.374555	-29.580524	-3.984882	-0.474914	-0.653486	-0.172709	0.196617
-3.040512	2.220482	9.455699	0.930212	9.432561	-2.026811	0.338564	-0.205966	-0.744459	12.520027	4.650218	19.625868	81.601073	-329.933024	54.110815	-0.592051	-0.200998	-0.256843	9.049615	1.276887	-1.560384	-29.162576	-7.81056	-3.055977	-0.639441	-0.155486	0.180322
-3.856632	2.332809	8.701503	-8.002698	10.15675	0.924134	0.397718	-0.269263	-0.756928	4.228637	3.264391	27.319877	117.012389	-365.934431	36.979209	-0.605987	-0.219609	-0.212515	8.933649	1.335728	-1.442523	-28.754805	-10.68205	-3.257685	-0.652998	-0.14115	0.210471
-3.550726	1.360196	9.66947	-9.142187	7.350223	4.009884	0.384727	-0.275603	-0.781315	-7.297364	-0.505551	7.25952	27.546649	-358.291525	19.225058	-0.620364	-0.209723	-0.141494	9.235602	1.220384	-1.078074	-27.045967	-11.480583	-5.307705	-0.625529	-0.173953	0.227813
-3.279882	2.678008	8.941498	2.649364	9.656305	6.037445	0.397347	-0.272791	-0.742852	-29.527647	-20.53844	-17.059603	200.624592	-78.122427	6.362316	-0.595518	-0.19854	-0.08565	9.653543	1.511055	-0.769601	-18.92321	-11.699489	-7.964347	-0.667256	-0.155894	0.180182
-2.88009	2.505152	8.891715	-5.63765	8.588122	4.694592	0.369091	-0.254743	-0.759646	-1.609457	5.121552	12.762288	-39.482503	197.749564	-115.403215	-0.608714	-0.184366	-0.072028	10.196813	1.977415	-0.038836	-11.54974	-10.657615	-8.57668	-0.639441	-0.155486	0.180322
-2.975463	2.222129	9.854784	-7.255186	10.09434	4.018383	0.396161	-0.19688	-0.788083	-10.876381	6.162437	23.495115	6.875421	211.874911	-59.189628	-0.621105	-0.242507	-0.110787	10.495735	1.745177	0.145398	-3.918524	-9.325046	-7.632728	-0.638744	-0.107735	0.193339
-2.998271	2.964044	8.720859	-0.548594	13.370443	5.156339	0.395789	-0.200408	-0.774007	-5.56886	-1.461682	12.673325	-7.939144	155.808698	32.198073	-0.582247	-0.197393	-0.100276	10.730524	0.872755	-0.033629	2.170716	-7.127675	-8.031998	-0.667115	-0.157547	0.211238
-2.999095	2.561712	8.662317	-4.889828	12.186899	2.052205	0.411053	-0.224796	-0.781601	-4.128249	-2.088733	7.324682	-3.567572	163.678932	-1.292904	-0.542069	-0.23777	-0.169841	10.207622	0.643397	0.374826	3.73432	-4.21434	-8.234929	-0.667115	-0.157547	0.211238
-3.21805	2.506607	9.1693	-9.538541	10.15933	0.069897	0.410324	-0.249152	-0.735957	-2.614344	0.047494	5.659936	-21.420199	183.755583	4.133366	-0.567355	-0.220455	-0.198992	10.199763	0.234887	-0.10616	5.623536	-2.081182	-9.779984	-0.667536	-0.17126	0.165491
-3.385193	2.27793	9.392406	-4.13996	10.704152	0.308556	0.413353	-0.290123	-0.778598	-2.558943	-1.98075	5.37624	-46.592071	222.433727	-2.438147	-0.579295	-0.186674	-0.243773	10.277757	0.122803	0.912863	5.923625	-0.881205	-7.403056	-0.639366	-0.174983	0.243271
-3.097559	1.933315	9.453379	-4.500357	11.150529	1.451556	0.396575	-0.245249	-0.749684	-3.339403	-0.119196	6.720231	-70.234198	255.691146	-30.641046	-0.592201	-0.231638	-0.254836	9.736282	-0.168835	0.302654	3.764426	-0.48374	-8.130597	-0.653136	-0.158169	0.226836
-3.555967	2.450621	9.446643	-1.682272	10.323191	2.380693	0.397332	-0.255492	-0.760344	-2.207361	1.344962	8.670179	-78.9486	281.244995	-41.737483	-0.578114	-0.182386	-0.301172	9.566107	-0.283098	0.6583	0.72942	-0.500294	-10.533815	-0.681164	-0.156098	0.180112
-3.449703	1.529543	8.990184	-1.226167	10.523627	1.155934	0.423259	-0.173615	-0.781538	-1.395617	1.456352	8.970397	-68.51723	296.032519	-54.898261	-0.551652	-0.255623	-0.339754	9.459794	0.358975	1.377701	0.401403	-0.99179	-13.402917	-0.653136	-0.158169	0.226836
-3.393361	2.793216	8.996606	1.096116	9.177486	1.556718	0.369834	-0.247686	-0.787798	-0.882556	2.187536	8.811975	-58.917517	308.920782	-64.903395	-0.537195	-0.189979	-0.401444	9.043515	0.301102	1.19003	1.500603	-1.588234	-14.504192	-0.639511	-0.15466	0.164794
-3.565533	1.816593	8.932311	1.215587	9.187097	0.75917	0.424816	-0.245998	-0.750382	-0.484218	2.073931	8.593784	-52.545091	316.262313	-70.774156	-0.562116	-0.216482	-0.456284	8.799612	0.357988	0.766527	1.927638	-2.323027	-14.288316	-0.639858	-0.187871	0.181996
-3.280913	2.562884	8.884162	1.216404	9.028228	1.216602	0.439665	-0.222017	-0.796375	-0.268008	2.467292	7.975916	-57.601092	318.762737	-79.22977	-0.484405	-0.186463	-0.445596	8.863591	0.591393	1.068151	2.510997	-2.719838	-14.166297	-0.611692	-0.172923	0.212355
-2.935076	2.448235	9.004066	-0.289416	8.939107	0.330122	0.423659	-0.204685	-0.76063	0.423555	2.691368	8.047252	-70.063816	314.995828	-84.27065	-0.443266	-0.208303	-0.559214	8.746098	0.359359	1.064962	3.437929	-2.813321	-13.680256	-0.639645	-0.19035	0.22858
-3.049585	2.448318	9.001839	-1.647669	7.583782	0.035993	0.396575	-0.245249	-0.749684	1.749869	2.745314	8.188384	-85.685557	303.530987	-88.311899	-0.431251	-0.226764	-0.515436	8.981333	0.24242	1.008962	4.274309	-2.72455	-13.103076	-0.667741	-0.206124	0.213749
-3.448838	1.874434	9.048485	-1.070961	7.321047	-0.951314	0.395403	-0.186637	-0.777423	2.342901	3.139262	9.050399	-99.258116	288.651694	-85.881896	-0.416208	-0.219186	-0.61616	9.029614	0.12366	0.410499	5.357178	-2.913974	-12.15874	-0.611971	-0.188289	0.197665
-3.450283	2.333725	8.993562	-3.277938	6.654269	0.025578	0.438551	-0.232602	-0.754147	2.755253	4.547244	9.626443	-116.464619	272.179207	-85.813194	-0.376545	-0.246386	-0.658029	8.511249	-0.162785	1.058335	6.630439	-2.740394	-10.758416	-0.681582	-0.188483	0.181786
-3.333133	1.759709	9.107082	-2.939804	5.933035	1.423602	0.423673	-0.221985	-0.743138	3.785284	4.209421	12.025573	-115.487832	254.036022	-62.012363	-0.31144	-0.20005	-0.662419	8.386344	-0.047846	0.697187	7.731026	-2.780558	-12.412452	-0.653624	-0.189728	0.212982
-3.442323	2.105647	9.390569	0.105036	7.230952	2.049284	0.438522	-0.198003	-0.789131	3.929769	5.053012	10.78384	-111.059833	241.278716	-50.175872	-0.348747	-0.224485	-0.745683	8.092364	-0.046924	0.751592	8.389822	-1.775096	-11.808437	-0.653766	-0.188075	0.181926
-3.55778	1.875723	9.330523	-3.815594	6.79888	3.310912	0.438551	-0.232602	-0.754147	4.518097	6.010122	11.47641	-123.20411	236.027192	-29.029878	-0.309669	-0.193619	-0.748517	8.384278	-0.106417	0.577126	9.164825	-1.097155	-12.028399	-0.625879	-0.188493	0.197595
-3.441583	2.622862	9.449594	-3.204417	5.680125	4.640327	0.425188	-0.24247	-0.764458	6.281194	5.444959	13.154752	-119.357842	226.137481	-16.887065	-0.295512	-0.189256	-0.806192	8.504491	-0.571048	0.637256	8.302797	-0.761256	-12.271359	-0.681302	-0.173117	0.196477
-3.159765	2.62169	9.227749	-4.10295	7.743641	6.608464	0.411067	-0.242096	-0.764109	7.854262	5.72446	14.093863	-108.963889	210.32215	-13.244428	-0.256584	-0.189031	-0.807019	8.02742	-0.338652	0.389814	7.840059	-0.855633	-12.177554	-0.653837	-0.187249	0.166398
-3.334661	2.333883	9.052642	-5.719861	7.683076	8.574792	0.395789	-0.200408	-0.774007	9.162228	5.890356	13.385496	-101.349472	198.464161	-20.970635	-0.229671	-0.170345	-0.851624	7.912804	-0.860572	0.505201	6.851321	-0.948427	-12.418009	-0.653624	-0.189728	0.212982
-3.218749	1.931951	9.110033	-5.132136	8.108379	9.254671	0.453443	-0.260519	-0.747665	10.264218	6.001301	13.805037	-102.927369	187.440138	-33.689644	-0.203569	-0.139554	-0.854182	8.741541	-0.048409	0.763696	6.447946	-1.441818	-12.169715	-0.612038	-0.206134	0.229557
-3.617593	2.334814	9.217634	-6.232953	7.814134	10.357038	0.396961	-0.25902	-0.746268	11.831673	6.055243	14.46076	-96.930553	166.815583	-48.563071	-0.15137	-0.138182	-0.869635	8.623239	0.068013	0.76199	7.061018	-1.960562	-12.07778	-0.653557	-0.171883	0.181089
-3.734945	1.644875	9.041952	-4.705099	8.554521	8.034039	0.411424	-0.221268	-0.795677	13.723863	6.164063	14.160912	-82.947435	133.378552	-56.683262	-0.137948	-0.106394	-0.886268	8.922181	0.300631	1.008109	8.263211	-2.29713	-11.652688	-0.639645	-0.19035	0.22858
-3.402719	1.87198	8.481068	2.704443	6.888865	8.874967	0.410267	-0.179955	-0.805924	15.068197	6.667029	12.491164	-77.11502	111.895142	-72.766737	-0.150108	-0.058364	-0.917702	8.977606	-0.048949	0.768098	9.806891	-2.916289	-10.402356	-0.653766	-0.188075	0.181926
-3.389031	2.966505	9.224743	-0.208242	7.441988	7.69635	0.439294	-0.225545	-0.782299	15.936706	5.933257	12.6786	-68.063448	119.989137	-88.830242	-0.098355	-0.088705	-0.916798	9.155059	-0.223582	0.770658	12.898653	-3.72825	-7.720338	-0.654045	-0.203441	0.167236
-3.706144	0.949262	7.56199	-7.542387	11.91005	-1.716811	0.439694	-0.256616	-0.761392	17.432755	6.660415	10.049796	-69.635732	145.414361	-105.407407	-0.085749	-0.105022	-0.90172	8.796966	-0.397989	0.523686	16.578282	-4.076118	-5.348223	-0.639791	-0.170026	0.150104
-3.083664	2.740633	10.195847	-28.422077	7.881524	-4.635699	0.410653	-0.193726	-0.802509	18.269749	6.601425	8.821811	-94.627842	174.219056	-113.277707	-0.071367	-0.054698	-0.962406	8.981312	-0.222436	0.947077	19.210389	-4.087812	-3.310057	-0.639858	-0.187871	0.181996
-3.030905	2.797068	9.96979	-30.758892	22.14259	-13.720738	0.42443	-0.232227	-0.753798	20.01871	7.106067	9.934658	-100.789944	173.479347	-110.454473	-0.059276	-0.057839	-0.919633	8.970963	-0.980144	0.284887	19.155849	-3.760069	-2.486245	-0.653762	-0.206746	0.229347
-4.083264	4.841203	17.686873	-29.430294	23.912306	1.485385	0.424802	-0.228699	-0.767874	19.985701	6.034412	8.291208	-82.657848	159.396629	-99.854115	-0.006857	-0.070715	-0.948431	8.905209	-0.923416	-0.075407	17.223944	-3.19753	-1.351125	-0.61246	-0.219848	0.183811
-3.638077	3.217027	14.05154	1.155367	78.005536	-8.365314	0.413311	-0.238225	-0.831073	20.340305	6.03176	6.034087	-66.33494	152.070332	-81.420389	-0.032068	-0.038081	-0.978587	9.737342	-1.098298	0.238792	15.473743	-3.311063	0.153329	-0.640134	-0.221908	0.214726
-3.212979	3.197112	9.456461	19.325071	88.7493	-10.849868	0.44008	-0.270387	-0.757976	22.245178	4.955682	3.525506	-57.61777	147.338175	-57.510366	0.007305	-0.006143	-0.995771	10.203159	-0.752158	-0.050456	13.293555	-3.553547	2.148987	-0.653904	-0.205094	0.198291
-2.833122	3.77924	11.341707	-19.84167	87.49321	-16.33956	0.466035	-0.223108	-0.744186	24.293271	5.626867	2.493444	-61.722045	130.755065	-31.199702	-0.006116	-0.037931	-0.979138	10.856313	-1.043282	0.140134	10.586773	-4.04168	4.056065	-0.626226	-0.221704	0.214797
-3.384635	3.956563	12.411505	-8.699877	104.468764	-23.978215	0.481284	-0.230197	-0.769271	26.797291	6.804023	1.30156	-59.81959	97.87506	-8.312691	0.007525	-0.020391	-1.009117	11.153575	-1.508318	0.203565	7.266944	-4.352595	6.361883	-0.653624	-0.189728	0.212982
-3.116012	3.722729	11.506457	-11.676049	119.272839	-32.930849	0.495062	-0.268699	-0.720561	26.786393	11.089768	6.57023	75.717033	22.381535	15.800556	0.059279	-0.050732	-1.008213	10.977492	-1.44959	0.260418	3.238757	-4.419145	8.455189	-0.653695	-0.188901	0.197454
-3.743336	3.379019	11.606467	-23.322005	130.356781	-42.533011	0.521774	-0.231663	-0.717431	24.106377	13.290525	5.213759	109.480676	-27.652488	66.416532	0.07189	-0.00684	-0.9828	11.036643	-1.507801	0.261271	1.538351	-5.068549	8.556142	-0.668229	-0.237683	0.199895
-3.223592	3.379611	11.843901	-32.050965	145.884651	-50.077805	0.550758	-0.225356	-0.746281	21.346577	16.847285	8.329327	191.385672	-88.50533	112.89876	0.033257	-0.005993	-0.996322	10.850987	-0.172883	-0.035879	2.296815	-6.71881	8.683532	-0.639228	-0.157965	0.226906
-3.434918	3.555961	12.74982	-35.884881	163.812447	-56.064056	0.550001	-0.215113	-0.735621	5.893661	10.218209	-4.569412	277.431944	-121.700042	167.404151	0.058318	-0.069268	-0.96416	10.562373	-0.112649	0.318308	9.770202	-9.108003	8.637303	-0.668158	-0.238509	0.215423
-3.489987	3.613927	12.862654	-44.515322	183.51412	-60.749983	0.549615	-0.201342	-0.739037	-0.129468	19.539789	13.315617	243.05291	-81.964582	127.960623	0.006779	-0.113386	-0.988745	11.150334	-0.114494	0.209498	20.958976	-10.366848	4.079254	-0.66767	-0.20695	0.229277
-3.344507	3.907806	14.457974	-51.271092	208.561592	-64.98627	0.591619	-0.223293	-0.708517	4.142623	11.086814	18.606388	111.494174	-146.456498	115.619487	-0.006643	-0.145174	-0.972113	13.081286	1.329984	-0.466889	28.610053	-8.828489	-3.046412	-0.626226	-0.221704	0.214797
-3.306643	2.364846	16.327611	-52.110577	240.556486	-64.984756	0.620232	-0.220514	-0.723291	10.945366	11.961649	3.124522	109.963096	-202.011699	55.989558	0.005667	-0.162563	-0.942685	14.838565	1.322967	-1.152759	23.612979	-3.903566	-4.824412	-0.598063	-0.188085	0.197735
-3.730688	0.017071	17.957549	-38.125677	275.260105	-57.189258	0.64733	-0.19725	-0.716745	3.454521	7.745534	-3.150853	19.497706	-176.87816	-1.577765	-0.046092	-0.192432	-0.953925	14.827426	1.378571	-1.75158	12.874366	1.419892	-2.732717	-0.667883	-0.204472	0.182693
-2.813545	0.074091	18.032459	-16.129616	312.529316	-42.687899	0.674456	-0.208584	-0.675216	5.746028	0.323529	17.271829	2.809846	-62.366803	-43.333358	-0.046682	-0.194576	-0.925225	14.650087	1.030272	-1.816272	14.723927	6.05721	-3.892341	-0.653136	-0.158169	0.226836
-3.471197	1.000167	19.557992	-3.80589	350.480043	-33.179243	0.715689	-0.202993	-0.651527	8.286052	0.375402	17.664906	-99.544705	-44.339302	45.548612	-0.124387	-0.164385	-0.925578	13.057252	2.19618	-1.661318	12.74366	8.302055	-2.765086	-0.653766	-0.188075	0.181926
-4.260967	1.635258	20.170441	14.754032	380.772031	-22.832161	0.729095	-0.245023	-0.588741	1.691295	3.808645	0.148879	137.7988	-39.609959	36.414117	-0.072559	-0.179405	-0.925677	11.596019	2.260846	-0.909793	3.882028	11.249992	1.959606	-0.639787	-0.188697	0.197524
-9.101926	0.655236	18.424066	46.842618	389.727575	-20.048969	0.79784	-0.264537	-0.520107	1.377983	8.378396	7.449558	-28.045449	-10.96711	9.682091	-0.08502	-0.192657	-0.953098	9.706402	2.264919	-1.004914	10.015904	9.537192	4.054454	-0.639787	-0.188697	0.197524
-13.025131	1.972937	16.875719	62.1529	377.09422	-17.446278	0.810446	-0.244426	-0.499136	3.342041	2.518552	9.976662	-32.716446	-13.866067	36.070392	-0.098656	-0.149986	-0.912784	8.310207	1.633527	-0.015627	12.505137	8.10272	4.602436	-0.667808	-0.223969	0.245642
-9.406392	2.71972	17.57439	80.917076	365.874774	-10.966096	0.836415	-0.214447	-0.467854	3.706877	2.854311	8.229582	7.900943	-9.704889	31.889885	-0.110896	-0.177487	-0.95355	7.359866	0.937044	-0.455549	13.106607	8.009685	1.972225	-0.640063	-0.222735	0.230254
-8.411828	2.608716	18.673045	131.674603	354.639186	-14.39288	0.865071	-0.263566	-0.430153	3.255748	4.26391	8.787492	-4.660442	-0.338183	19.301923	-0.085384	-0.148839	-0.927409	7.546123	0.764389	0.026266	15.157729	8.635226	-1.61405	-0.667115	-0.157547	0.211238
-7.595692	1.564738	16.468133	135.95346	367.628611	-29.468406	0.878105	-0.309125	-0.353291	3.990713	1.391278	10.612047	-10.744205	1.82005	15.033237	-0.072779	-0.165157	-0.912331	8.087307	0.707323	0.575085	12.685971	10.747225	-5.557675	-0.667883	-0.204472	0.182693
-0.740919	-0.384521	18.639145	105.464876	373.6896	-43.23884	0.90486	-0.323987	-0.297686	2.99885	2.631955	10.082783	10.527508	-2.268894	6.377642	-0.124092	-0.163313	-0.939928	8.50125	0.822777	0.643189	6.094452	12.976858	-7.500367	-0.640063	-0.222735	0.230254
-0.230508	2.104533	9.73719	133.338473	372.933335	-40.938762	0.88811	-0.313712	-0.233788	2.735565	4.095794	8.66319	9.966658	-3.10278	1.498022	-0.098065	-0.147843	-0.941483	9.621457	0.819964	0.604191	0.370376	14.301647	-7.424837	-0.654116	-0.202615	0.151708
5.085903	-9.256201	0.188374	132.661541	277.547683	-59.177874	0.902274	-0.365984	-0.181662	2.87351	2.913444	9.627485	0.089028	-2.66959	0.477053	-0.085089	-0.147768	-0.941759	9.492575	1.224541	0.064559	-1.221713	14.460833	-5.616715	-0.639858	-0.187871	0.181996
14.276823	-13.097806	-9.935349	48.952127	91.493483	30.171432	0.927886	-0.356833	-0.118812	3.029867	3.87017	8.952243	8.925785	-2.837774	-3.555977	-0.09836	-0.148915	-0.927133	10.310423	1.5113	-0.338147	-2.612601	13.810257	-5.302958	-0.598485	-0.201799	0.151989
4.48053	-0.250833	10.557692	-76.179082	-124.269184	106.975589	0.926371	-0.336348	-0.097492	2.863754	3.589078	9.231577	1.454702	-2.533578	-3.62062	-0.098656	-0.149986	-0.912784	9.760321	2.08932	-1.304089	-5.271231	13.037813	-5.473013	-0.626368	-0.220052	0.183741
9.100943	3.788514	15.779328	-71.944906	-178.328607	78.224181	0.943164	-0.398521	-0.108914	2.921428	3.53264	9.232739	-0.348079	-3.615515	-5.790775	-0.084944	-0.177337	-0.954101	9.996095	1.740077	-1.361078	-9.005247	12.347593	-5.089457	-0.653486	-0.172709	0.196617
7.567526	-3.573782	13.1611	-68.008214	-172.623099	56.846624	0.915623	-0.338817	-0.188843	2.442017	3.927104	8.373805	1.428267	-4.733047	-4.93728	-0.085315	-0.193729	-0.938748	10.173008	1.797748	-1.357529	-12.139298	10.200975	-5.648533	-0.639787	-0.188697	0.197524
5.519148	0.956624	11.037627	-33.328123	-171.34272	72.003728	0.945378	-0.360052	-0.210862	2.785231	4.433385	8.324846	-6.640565	-2.325925	0.505883	-0.085089	-0.147768	-0.941759	9.997621	2.030951	-1.240028	-14.017445	7.422513	-6.789804	-0.626301	-0.202207	0.151848
4.695316	0.952379	9.884977	-16.857552	-173.319636	47.000114	0.902645	-0.362456	-0.195738	2.62199	4.546749	8.774431	-10.021439	-0.702381	3.571301	-0.137439	-0.17978	-0.924299	9.593676	0.929935	-0.892987	-15.613001	5.16324	-7.751199	-0.667607	-0.170434	0.149963
4.647193	-0.264508	7.378373	1.035982	-186.739767	36.183592	0.86177	-0.347219	-0.250994	1.479659	3.6479	9.089332	-6.369697	-3.161707	-2.4617	-0.08524	-0.178408	-0.939751	8.942588	1.27963	-0.963515	-15.532678	3.727406	-7.897443	-0.653979	-0.185596	0.135343
4.130748	-0.206935	7.31174	2.656557	-213.754554	31.999598	0.877419	-0.385379	-0.255172	3.140247	3.193751	8.670894	-10.668429	-2.980658	3.733096	-0.059212	-0.162938	-0.941307	9.051236	0.579975	-1.56335	-15.300532	2.700211	-9.054693	-0.625741	-0.171474	0.18123
3.771135	0.479234	6.512011	-9.003253	-239.960564	24.064666	0.89154	-0.385753	-0.255521	3.108846	3.420224	9.915946	-13.348872	-2.60363	1.823336	-0.1103	-0.115133	-0.971914	8.639648	0.871795	-1.450003	-15.96514	2.016381	-11.188251	-0.640067	-0.204063	0.182834
2.93434	0.82933	7.633819	-20.765695	-267.425872	15.649275	0.836158	-0.356371	-0.313844	3.232284	2.237305	10.200566	-11.380984	-6.195975	-3.019978	-0.09792	-0.177412	-0.953825	8.639783	0.813719	-1.450251	-17.614621	1.077352	-12.644674	-0.62623	-0.203033	0.167376
1.45789	0.947945	8.230735	-28.328737	-287.470854	11.021821	0.865142	-0.350063	-0.342694	2.518254	3.646055	9.224371	-4.790766	-8.170626	-7.134404	-0.136993	-0.148068	-0.940656	7.990336	0.931356	-1.461861	-19.959207	0.885387	-12.635267	-0.626088	-0.204686	0.198432
0.738985	1.24124	9.525087	-32.317108	-296.734268	9.472295	0.821994	-0.304098	-0.36597	3.091252	3.13786	9.066115	-4.695369	-5.446187	-6.244063	-0.123867	-0.117352	-0.942939	8.534551	0.991184	-0.732827	-20.883597	0.756865	-12.356268	-0.653837	-0.187249	0.166398
-0.622914	1.30233	10.123988	-26.28425	-298.255952	10.442216	0.768527	-0.326271	-0.424706	3.08972	3.306805	9.009617	-2.055914	-7.049928	-9.094027	-0.084719	-0.131375	-0.957112	7.583825	0.933785	-1.110123	-19.431351	0.507588	-11.412979	-0.626159	-0.203859	0.182904
-1.372582	1.014455	9.824041	-17.839476	-292.552787	12.994413	0.741001	-0.283867	-0.487143	2.690927	3.026049	9.170837	-1.811689	-7.405729	-10.484605	-0.123942	-0.132672	-0.941935	8.289008	1.280126	-1.215248	-17.673574	0.482058	-11.296982	-0.668162	-0.219838	0.168002
-2.906991	2.109617	10.423946	-10.868503	-276.342584	13.697463	0.714646	-0.300075	-0.52184	2.743788	3.589104	9.002601	-2.398802	-7.471088	-11.009794	-0.137288	-0.14914	-0.926306	8.299182	1.166199	-0.67658	-14.954292	0.418028	-10.084114	-0.654254	-0.219634	0.168073
-3.653567	2.167115	10.296006	-5.840908	-257.313386	14.543878	0.728766	-0.300449	-0.52219	2.751257	3.476727	9.342344	-0.031343	-5.879336	-10.683788	-0.072408	-0.148764	-0.927685	8.420766	0.585663	-0.557038	-13.188364	0.035524	-7.979998	-0.653837	-0.187249	0.166398
-4.054058	1.765314	10.286522	-2.41059	-244.2725	16.3403	0.687905	-0.302512	-0.559954	2.815082	3.364196	9.626656	2.505547	-5.656757	-11.666011	-0.110375	-0.130453	-0.97091	8.712275	0.700398	-0.730762	-12.170777	-0.582061	-7.063905	-0.640551	-0.254293	0.2164
-4.615301	1.538375	10.842953	-4.38858	-239.085551	19.343343	0.688634	-0.278156	-0.605598	2.862199	3.138339	9.117919	4.240392	-5.208906	-11.136096	-0.111782	-0.180702	-0.910501	8.715711	0.643064	-0.551288	-10.663165	-1.315814	-6.576884	-0.626718	-0.234592	0.153522
-4.840357	0.677641	11.005438	-6.15698	-240.248593	23.499854	0.646658	-0.290803	-0.601134	3.033602	3.813982	9.122114	7.06078	-4.438665	-10.910376	-0.111116	-0.163238	-0.940204	8.724245	0.761194	-0.071539	-9.495341	-1.770123	-6.609507	-0.640764	-0.251815	0.169817
-5.226538	0.508743	11.73601	-5.480982	-239.274172	30.075611	0.603511	-0.244838	-0.62441	2.455076	3.420604	8.939775	6.008819	-4.345633	-8.41327	-0.111261	-0.133669	-0.927861	8.726155	0.412985	-0.013115	-7.096262	-2.371364	-6.798694	-0.668162	-0.219838	0.168002
-6.599282	0.16533	11.764692	-8.114503	-227.999259	35.816023	0.619146	-0.265698	-0.64608	3.091167	3.813874	9.123323	7.018231	-2.506441	-6.359546	-0.124683	-0.165457	-0.911228	8.541404	0.411659	-0.435765	-4.980198	-2.994102	-7.964706	-0.66858	-0.252223	0.169677
-6.301917	0.224977	12.339031	-7.01451	-206.843922	39.835617	0.563421	-0.274442	-0.655343	2.811694	3.871075	9.513803	9.478144	-3.365589	-6.181144	-0.085755	-0.165232	-0.912056	9.188516	0.351604	-0.543721	-6.562704	-3.570543	-8.96473	-0.653833	-0.20592	0.213819
-6.527635	0.283308	12.505378	-13.248722	-185.604844	41.45546	0.535537	-0.252866	-0.686212	2.8096	3.701989	9.400382	10.689894	-5.106913	-4.810234	-0.111041	-0.147918	-0.941207	9.430352	0.236148	-0.240279	-8.724045	-3.820809	-9.169634	-0.668788	-0.268415	0.170514
-7.254044	0.172824	13.400069	-18.889003	-166.283304	41.386823	0.53478	-0.242623	-0.675552	3.04107	3.701605	9.461857	8.581182	-5.747892	-4.664165	-0.098661	-0.210196	-0.923119	9.303922	0.060212	-0.722477	-9.947539	-3.502322	-7.852608	-0.626297	-0.220878	0.199269
-7.419002	0.002071	13.737124	-16.198721	-146.78009	39.426899	0.508782	-0.238003	-0.741818	3.328982	3.025053	9.410693	10.852795	-6.939693	-5.568193	-0.112297	-0.167526	-0.882805	9.188516	0.351604	-0.543721	-10.456593	-3.191372	-5.560156	-0.65425	-0.238305	0.215493
-8.848841	0.980096	13.827095	-21.92575	-133.656901	35.149313	0.452314	-0.253804	-0.722929	2.931422	3.364028	9.685713	14.961457	-9.110043	-3.305208	-0.085975	-0.150983	-0.89871	9.428557	0.061425	-0.360835	-12.602195	-3.285214	-3.137554	-0.640484	-0.236448	0.184508
-10.629005	0.578083	13.506622	-33.754424	-128.679994	28.058578	0.439708	-0.273915	-0.7439	3.040293	3.476236	9.405028	16.852175	-11.046602	-3.600393	-0.123427	-0.145849	-0.969631	9.422359	-0.114286	-0.721018	-14.153407	-2.865449	0.105687	-0.667883	-0.204472	0.182693
-11.393273	0.459396	12.468308	-42.308555	-135.271354	22.763387	0.424073	-0.253055	-0.722231	2.8175	3.36429	9.739935	18.277717	-12.941014	-1.86089	-0.0862	-0.196945	-0.895699	9.189171	-0.403632	-0.606842	-15.701942	-2.51285	3.930034	-0.612389	-0.220674	0.199339
-13.178679	1.147808	11.925008	-57.222101	-142.513215	15.267888	0.397718	-0.269263	-0.756928	2.981303	3.588957	9.347274	13.305071	-15.30722	-1.364342	-0.137068	-0.163388	-0.939652	9.125618	-0.34641	-0.847323	-16.080094	-1.967459	7.260303	-0.640693	-0.252641	0.185345
-15.32188	1.546125	10.63473	-83.700307	-169.300597	7.089217	0.408766	-0.176769	-0.767112	3.175974	3.476827	10.370319	11.808737	-18.506393	1.96291	-0.124538	-0.195026	-0.923571	8.720903	-0.169259	-0.375029	-16.115619	-1.085941	10.740643	-0.640555	-0.235622	0.16898
-16.559026	0.390445	8.787222	-112.120701	-208.748808	2.144966	0.395775	-0.183109	-0.791499	3.346014	2.969386	10.2036	4.081186	-28.175178	7.101386	-0.125574	-0.228882	-0.878514	8.36472	-0.691874	-0.563577	-15.349594	0.046963	13.850181	-0.626301	-0.202207	0.151848
-17.7141	1.882823	8.316401	-137.446952	-229.968113	-0.733506	0.353413	-0.181985	-0.790452	2.727801	4.604868	11.041271	-22.013764	-48.450445	17.915556	-0.124683	-0.165457	-0.911228	8.832738	-0.34524	-0.733011	-13.231237	0.94445	16.528084	-0.668091	-0.220664	0.18353
-19.536386	2.116087	8.793413	-154.90137	-230.894399	0.559038	0.369791	-0.195788	-0.840273	3.652573	6.690042	14.119698	27.74354	-43.536749	-3.791331	-0.124092	-0.163313	-0.939928	8.897641	-0.983223	-0.495003	-8.477192	1.695364	16.537846	-0.654534	-0.235	0.153382
-25.971368	6.326973	25.223645	-31.562817	-186.862793	1.225896	0.282753	-0.110915	-0.858673	2.510214	5.563487	11.716917	9.113713	-87.826227	20.50882	-0.163836	-0.211643	-0.90739	9.776976	-0.812256	-0.777289	-5.015883	2.499652	16.857706	-0.654463	-0.235826	0.16891
-22.733766	0.99143	0.372409	5.269385	-118.805455	13.939856	0.269019	-0.124311	-0.854908	2.531921	4.716952	9.961587	16.870945	-89.389954	26.079665	-0.15071	-0.180927	-0.909673	10.190109	-0.348346	-0.707701	-2.107062	3.079937	17.944817	-0.626509	-0.218399	0.152685
-26.543081	6.527695	4.811251	-20.476896	-102.766352	34.297731	0.256041	-0.14795	-0.861803	2.373586	6.689554	10.809214	-0.484539	-95.530451	35.346157	-0.202614	-0.181228	-0.90857	10.24787	-0.755507	-0.828145	0.992624	3.525604	20.285164	-0.654463	-0.235826	0.16891
-28.115674	6.523024	3.416713	13.661308	-48.42921	39.313361	0.21368	-0.146827	-0.860755	2.598426	5.73122	10.473406	-0.999021	-105.767703	46.92881	-0.190303	-0.198617	-0.879143	10.256808	-0.811606	-0.349137	5.173856	3.225544	24.123057	-0.626718	-0.234592	0.153522
-28.186746	7.152027	2.736017	21.201136	0.737549	38.43478	0.242278	-0.126748	-0.893021	2.88757	5.674398	10.536043	-4.058562	-114.419428	59.697052	-0.203644	-0.154874	-0.853179	10.556291	-0.811292	-0.104007	7.871234	3.238041	26.803307	-0.654112	-0.221286	0.199128
-27.481557	9.798183	3.783835	53.030717	53.217954	22.730349	0.214037	-0.125999	-0.892323	2.7953	5.731845	11.609825	-2.64892	-126.554386	69.413023	-0.229081	-0.168201	-0.880323	10.852047	-1.102347	-0.099741	10.437134	3.110384	28.200824	-0.667953	-0.203645	0.167165
-28.067324	13.599913	6.175342	114.337099	109.707813	-10.322659	0.228929	-0.153916	-0.88584	3.022258	5.56228	11.444599	-2.710969	-140.243998	79.235892	-0.2164	-0.169198	-0.866249	10.393818	-0.923825	0.670987	12.170695	3.662487	28.650456	-0.653766	-0.188075	0.181926
-27.620098	14.688799	5.677157	163.404601	163.647244	-54.830792	0.270933	-0.175867	-0.85532	3.319733	4.942437	11.846599	-1.822942	-154.765061	86.461453	-0.267933	-0.153106	-0.8805	10.391212	-0.750091	0.551914	12.811593	4.018961	26.934532	-0.62658	-0.217573	0.137157
-5.426057	11.553464	2.003852	260.437139	192.521557	-61.390078	0.284711	-0.214368	-0.80661	3.674234	4.60414	12.250046	-0.594876	-171.879169	91.719113	-0.282461	-0.173861	-0.807471	11.343734	-0.51797	1.049766	13.59571	4.458921	23.108467	-0.625604	-0.154456	0.164865
-5.670974	3.269646	12.534628	126.719233	134.150375	14.726464	0.370577	-0.24063	-0.81595	2.999834	4.887749	13.02873	0.460246	-193.124182	94.345614	-0.294921	-0.187112	-0.834892	11.867082	0.466871	0.764338	13.369691	4.443087	15.68143	-0.612672	-0.217369	0.137228
-7.263253	3.67531	13.073671	102.218011	137.466218	-5.941355	0.313709	-0.22536	-0.817969	3.160447	4.494975	15.126481	-4.465741	-218.374832	96.526713	-0.321528	-0.084307	-0.783967	13.638552	0.985999	0.91939	12.871332	2.581175	6.247364	-0.65377	-0.169404	0.134506
-3.648854	6.164779	4.857228	66.041768	160.823027	10.796413	0.371378	-0.30277	-0.774134	4.072058	1.45317	17.12444	2.226942	-251.407787	89.852263	-0.373802	-0.100999	-0.76751	14.283348	1.448381	0.753752	8.103985	0.30235	6.09212	-0.653979	-0.185596	0.135343
-5.491969	0.041415	9.853474	-94.991421	59.474302	-104.290209	0.355357	-0.268139	-0.755881	4.395781	0.383679	18.715492	30.635532	-285.036113	74.525472	-0.362528	-0.152245	-0.693026	13.151826	0.635162	0.070407	4.401673	1.293588	15.453844	-0.667536	-0.17126	0.165491
-0.353469	5.192666	6.508481	119.223986	33.940891	-0.895705	0.399204	-0.25515	-0.813232	3.670492	2.864714	20.004574	63.866689	-319.850314	65.696872	-0.439127	-0.133087	-0.749775	12.789642	1.273325	-0.292918	5.083195	1.507318	15.725456	-0.62623	-0.203033	0.167376
-2.646231	8.501001	0.624296	45.276788	37.041161	1.698404	0.399604	-0.28622	-0.792325	5.077494	4.102489	21.337342	79.683125	-356.275694	61.52492	-0.440748	-0.108878	-0.665683	12.61848	0.635883	-0.059311	-1.633846	2.281631	15.440423	-0.625812	-0.170648	0.165702
-4.436898	1.59714	11.187653	-54.431267	-4.272483	-19.510732	0.398118	-0.300333	-0.736021	7.465408	6.178812	17.482947	94.168326	-382.909843	60.19318	-0.506143	-0.096076	-0.636609	11.360704	0.518363	-1.101332	-9.149729	5.286998	18.020928	-0.639374	-0.137641	0.14843
-2.675787	2.167375	10.542347	25.777694	10.625509	-13.027899	0.41221	-0.266109	-0.771354	7.488202	7.923717	16.012997	48.515364	-394.994711	71.074435	-0.494794	-0.132001	-0.563129	10.821045	0.866304	-1.529101	-18.613313	7.706097	20.427933	-0.653419	-0.154864	0.164724
-2.801343	4.220837	7.138736	10.463086	11.689604	-12.843831	0.426331	-0.266484	-0.771703	7.358744	5.787382	20.537527	34.106585	-400.971304	73.377648	-0.546993	-0.133373	-0.547676	10.171732	0.925866	-1.540959	-29.491875	6.692559	17.079191	-0.625674	-0.153629	0.149337
-3.68186	2.79294	8.877333	-8.715656	3.08784	-12.928433	0.397304	-0.220893	-0.795328	6.155817	3.703127	17.906173	50.91017	-391.158691	71.916067	-0.56196	-0.125631	-0.447956	10.044377	1.621317	-1.959541	-32.742982	3.381981	13.683306	-0.625607	-0.135784	0.117444
-3.337836	2.103393	8.881118	-2.836815	2.511034	-5.747363	0.413339	-0.272824	-0.79609	6.720568	3.081939	17.351344	67.12425	-376.276169	74.050071	-0.601548	-0.083111	-0.40709	9.461628	1.275695	-1.612587	-33.809854	-1.277937	11.3864	-0.667189	-0.138049	0.148289
-3.097352	1.646108	9.452172	2.707936	3.394418	-0.0753	0.412239	-0.300708	-0.73637	9.962308	3.980335	21.043527	78.985382	-344.470297	73.296106	-0.615485	-0.101722	-0.362762	9.520914	1.159408	-1.611981	-32.14634	-5.685053	6.297047	-0.653419	-0.154864	0.164724
-3.206334	1.704838	9.734452	5.773691	5.57048	4.4287	0.399247	-0.307048	-0.760757	3.146983	3.266913	27.863304	114.353214	-360.55645	45.847998	-0.643729	-0.155336	-0.258751	9.288556	0.986461	-1.437404	-28.618766	-10.178009	-1.671345	-0.667816	-0.186627	0.1508
-3.21937	2.793574	9.113653	6.709132	6.686445	6.682829	0.412996	-0.310951	-0.74703	-11.22889	-0.322789	14.480338	16.036261	-388.992618	20.514311	-0.670711	-0.129133	-0.202808	9.290642	1.509887	-1.255458	-24.222934	-13.249081	-10.779893	-0.625466	-0.137437	0.1485
-2.771232	2.618746	8.610159	8.33061	6.29522	6.61047	0.398461	-0.262206	-0.78508	-26.897457	-18.570015	-14.964517	142.922223	-175.196884	42.377616	-0.671967	-0.148741	-0.144405	9.652732	1.859511	-0.768117	-17.846831	-13.839358	-16.575919	-0.611766	-0.153425	0.149407
-2.818838	3.137933	9.122895	2.551796	5.285133	3.881328	0.398847	-0.275978	-0.781664	-7.387339	-3.154448	5.500254	-70.872096	198.599856	-133.080106	-0.697919	-0.148891	-0.143854	9.475569	2.382848	-0.709286	-14.187349	-11.880047	-15.498399	-0.625533	-0.155282	0.180393
-3.045546	3.023698	9.231665	-1.000893	7.202023	1.438645	0.414125	-0.317665	-0.771766	-11.325064	7.799838	26.883986	30.247469	306.464764	-181.819892	-0.632819	-0.162765	-0.158579	10.263958	2.269638	0.442756	-11.759114	-8.838904	-10.02095	-0.611625	-0.155078	0.180463
-3.002933	3.250286	8.494653	-2.666564	7.381674	-1.528431	0.383583	-0.251589	-0.774071	-8.469663	3.223339	17.372124	-14.438274	168.964655	-25.109355	-0.644759	-0.128983	-0.20336	10.263242	1.630307	0.320222	-10.199751	-5.231304	-6.376509	-0.625812	-0.170648	0.165702
-2.939945	3.021685	8.779067	-8.096095	7.088112	-2.253612	0.411839	-0.269638	-0.757278	-5.246426	-3.606316	8.715213	-2.131348	172.585163	-49.138373	-0.670421	-0.188271	-0.227493	10.201465	1.397396	0.138412	-10.81029	-1.981752	-4.342181	-0.653695	-0.188901	0.197454
-3.496486	2.451062	9.561462	-7.053357	7.31018	-2.437014	0.454215	-0.288061	-0.740833	-7.021041	0.45115	6.813253	-4.48176	191.788389	-48.887474	-0.643364	-0.199154	-0.28444	10.267623	1.16644	0.497965	-9.326843	-0.741198	-5.484256	-0.598134	-0.187259	0.182207
-3.274522	2.966422	9.22697	-2.677027	9.294977	0.496118	0.413711	-0.269295	-0.810166	-5.661862	-1.749371	5.594347	-50.028438	232.982518	-39.759606	-0.60377	-0.181465	-0.31497	9.561185	0.413072	0.481546	-7.075512	-0.423742	-5.830101	-0.598134	-0.187259	0.182207
-3.329259	2.564855	9.337873	-3.446423	8.392906	1.127695	0.427845	-0.286969	-0.793023	-5.620907	0.223952	7.691672	-78.164763	278.722756	-52.458314	-0.603035	-0.20889	-0.356012	9.272842	0.357155	0.835238	-7.62811	-0.337122	-5.522898	-0.597996	-0.17024	0.165842
-3.380822	2.393779	9.620301	1.003483	8.897351	1.82844	0.440094	-0.287686	-0.740484	-5.359684	2.365456	9.340858	-86.630218	312.884751	-50.737739	-0.575827	-0.189132	-0.414966	9.04255	0.242779	1.129876	-10.164321	-0.548362	-6.674037	-0.625879	-0.188493	0.197595
-3.223167	3.424707	8.945748	0.453442	8.326671	3.13945	0.469493	-0.329748	-0.730935	-4.130522	1.237294	10.21489	-83.796194	336.623552	-48.618646	-0.562631	-0.203305	-0.428588	8.630942	0.069743	1.181338	-9.307193	-0.750871	-7.501326	-0.653628	-0.171056	0.165561
-3.453914	2.735092	8.824692	1.766681	7.782797	2.850824	0.441237	-0.3117	-0.747729	-2.856807	1.85489	10.638485	-68.758138	352.360608	-53.720825	-0.587402	-0.199168	-0.485435	8.868667	0.302002	1.306543	-7.063882	-0.85284	-8.700838	-0.611975	-0.169618	0.150244
-3.676375	2.90903	9.162081	2.500677	8.041117	2.055556	0.411453	-0.255867	-0.760693	-1.654277	2.641064	10.437978	-57.030559	355.779542	-57.900305	-0.57317	-0.179485	-0.544114	8.626966	0.359382	1.002854	-5.446242	-0.908784	-11.609667	-0.639303	-0.138467	0.163957
-3.277572	2.563608	9.054721	1.108496	6.914321	0.569201	0.469078	-0.281379	-0.769335	0.061351	2.243043	9.907517	-54.347345	347.876783	-60.751085	-0.520016	-0.219787	-0.613954	8.799457	-0.048791	0.70489	-3.550179	-0.996527	-14.305369	-0.62623	-0.203033	0.167376
-2.990353	2.793408	9.118107	1.378372	7.245864	-1.450277	0.427845	-0.286969	-0.793023	1.360724	1.845255	8.745559	-71.39761	331.290714	-60.837567	-0.493248	-0.171531	-0.646216	8.743472	0.068237	0.884005	-0.717266	-0.730893	-15.35591	-0.625879	-0.188493	0.197595
-3.113645	2.619236	8.660331	1.742752	7.19481	-2.218862	0.442752	-0.332185	-0.769049	2.142669	3.873222	10.518809	-98.960127	308.945528	-66.692322	-0.466862	-0.260088	-0.683795	8.380437	0.125146	0.398394	1.104434	-0.63605	-15.026808	-0.597996	-0.17024	0.165842
-3.169869	2.734402	8.716554	-1.69185	6.996832	-2.426872	0.425988	-0.304611	-0.722643	5.245377	3.362527	12.961318	-103.7761	278.846443	-55.467682	-0.439063	-0.238186	-0.771449	8.606888	0.471084	-0.074976	0.832347	-0.398953	-14.38521	-0.639653	-0.153007	0.133739
-2.990435	2.908291	9.11859	-1.224256	7.445689	-1.163524	0.440466	-0.284158	-0.75456	5.321871	4.60016	11.265591	-96.991434	253.381387	-57.133749	-0.39947	-0.220497	-0.801979	8.089353	0.301038	0.633261	-1.175421	-0.865001	-14.375715	-0.625741	-0.171474	0.18123
-3.109315	2.792526	8.888468	-0.438424	8.988728	1.312726	0.454229	-0.30536	-0.723342	4.828976	5.33447	12.501399	-111.811024	245.401052	-49.950479	-0.398139	-0.185569	-0.861385	8.318389	0.008387	0.217079	-3.357063	-1.352833	-12.317993	-0.639582	-0.153833	0.149267
-3.229267	2.619078	8.601251	-4.608233	7.972323	2.504245	0.440851	-0.297929	-0.751144	4.970833	5.898651	13.807002	-117.358968	240.184504	-40.142781	-0.344759	-0.179909	-0.934237	8.674417	0.124223	0.343989	-4.14726	-1.781115	-9.62379	-0.639858	-0.187871	0.181996
-3.516985	3.078576	8.540761	-5.830616	7.799734	3.670318	0.454586	-0.284532	-0.754909	5.693934	6.067629	15.35092	-111.41497	232.291548	-29.581641	-0.305831	-0.179684	-0.935064	8.91942	0.067585	0.827399	-3.982169	-1.397716	-8.189865	-0.625395	-0.138263	0.164028
-3.738907	2.505774	8.875013	-8.463214	8.810933	2.866312	0.427503	-0.325096	-0.743963	7.206865	5.164108	16.061268	-89.529135	218.444981	-28.376371	-0.278548	-0.144606	-0.995022	8.509473	0.127348	0.999664	-1.359186	-1.578761	-7.526159	-0.626092	-0.186014	0.151011
-3.567019	2.333325	8.877629	-6.967485	7.865288	2.846638	0.442366	-0.318414	-0.772465	9.431689	4.990107	15.1454	-76.189132	205.001902	-35.404529	-0.278328	-0.158854	-1.008368	8.569975	-0.511623	0.998045	1.232225	-1.323787	-7.628443	-0.640346	-0.21943	0.168143
-3.217469	1.702426	9.165921	-4.298749	7.276466	4.36275	0.441252	-0.328999	-0.730237	11.111511	4.593047	15.633243	-73.885197	186.046935	-45.42473	-0.212637	-0.170584	-1.051792	7.858075	-0.336517	0.805861	2.651313	-1.009642	-7.940691	-0.653766	-0.188075	0.181926
-3.852628	1.414468	8.868201	3.904023	3.277341	8.015495	0.4546	-0.301832	-0.737418	12.831351	5.152882	15.386787	-66.468698	153.447177	-57.888235	-0.224427	-0.106161	-1.09858	8.808126	0.011262	1.184392	3.278596	-0.344546	-6.968183	-0.640764	-0.251815	0.169817
-3.732718	1.645357	9.155658	5.687545	0.978342	5.488997	0.455358	-0.312075	-0.748078	14.546394	3.797147	14.742241	-55.342083	114.237672	-65.420671	-0.172083	-0.134358	-1.126375	9.10004	-0.04823	1.009927	3.044727	0.1891	-5.411253	-0.62623	-0.203033	0.167376
-2.999628	1.757289	8.602086	-15.430329	11.247406	-3.422307	0.455358	-0.312075	-0.748078	15.296965	4.920162	12.267971	-60.973338	93.214051	-75.991126	-0.120694	-0.120882	-1.099782	9.152724	-0.166001	0.651091	3.360612	0.144804	-3.975785	-0.625671	-0.172301	0.196757
-2.709022	5.287395	14.817133	-24.78173	18.388886	-0.089822	0.439708	-0.273915	-0.7439	16.266145	5.424972	11.892473	-77.570455	113.980177	-83.287923	-0.13286	-0.133061	-1.141552	8.979942	-0.106531	0.887665	4.239547	-0.285374	-0.523372	-0.667745	-0.187453	0.166328
-3.706446	5.640028	16.504131	-17.80785	64.300388	0.17637	0.441237	-0.3117	-0.747729	18.046723	5.59048	11.760172	-90.573547	149.90858	-93.019912	-0.093266	-0.115372	-1.172082	9.104536	-1.035028	1.125538	8.075038	-1.319214	3.165819	-0.640138	-0.203237	0.167306
-3.049627	2.505759	9.002081	32.203778	83.340145	-0.056749	0.425974	-0.287312	-0.740135	19.06533	5.925859	10.989263	-89.158861	170.757697	-97.896963	-0.080285	-0.055087	-1.162023	9.274442	-0.804613	0.770386	12.372328	-1.511608	5.504597	-0.626092	-0.186014	0.151011
-3.033878	3.830533	9.860427	-10.678626	75.989088	-6.094507	0.455358	-0.312075	-0.748078	21.214109	5.300563	9.165573	-84.035266	167.853221	-98.168324	-0.041583	-0.100823	-1.159839	9.393595	-0.33978	0.894379	14.319343	-2.009809	7.028144	-0.666981	-0.121857	0.147452
-2.822402	4.356068	11.912651	-11.932314	87.119271	-15.356269	0.481698	-0.278567	-0.730872	22.43977	5.127588	7.26628	-71.54211	154.046283	-98.634716	0.023448	-0.069807	-1.163225	9.562225	-0.981247	0.355799	15.938027	-2.095167	9.926359	-0.611979	-0.150946	0.102824
-3.240999	4.352498	10.995207	-6.635008	102.093863	-25.034968	0.48207	-0.275039	-0.744948	24.539764	4.725717	3.177196	-62.74011	149.433207	-92.848147	0.076312	-0.050971	-1.208381	9.908058	-1.216339	-0.117843	17.647055	-2.455494	12.825627	-0.626092	-0.186014	0.151011
-3.577264	3.550013	11.326266	-15.532047	111.374555	-34.275161	0.468721	-0.302206	-0.737767	25.068797	6.9762	1.208796	-70.676068	143.446963	-82.865903	0.077204	0.012454	-1.241095	10.209877	-1.273607	0.246854	15.932675	-2.640497	15.339157	-0.653002	-0.122479	0.16305
-3.513329	3.551419	11.668498	-21.372312	123.982311	-43.102439	0.540095	-0.331621	-0.732681	26.678042	8.325115	1.243783	-76.790763	126.000282	-64.365343	0.102415	-0.02018	-1.21094	10.263796	-1.449206	-0.052322	12.122527	-2.772807	17.951779	-0.597721	-0.136202	0.133112
-3.503473	3.783356	12.181141	-25.418322	138.864725	-51.376823	0.551915	-0.266669	-0.736034	26.452685	10.184785	1.63699	-60.484357	91.326934	-39.35913	0.115541	0.010536	-1.213223	10.437523	-1.915208	-0.290626	8.373305	-3.027567	20.595388	-0.612393	-0.202003	0.151918
-3.385458	3.554231	12.352962	-31.101703	154.96892	-57.080685	0.565679	-0.287871	-0.704815	27.6596	15.482643	7.441656	76.661742	49.433686	-22.187052	0.128372	0.04018	-1.201156	10.67994	-1.333257	0.135596	5.413695	-3.877349	21.894023	-0.625887	-0.151151	0.102753
-3.606515	3.326319	12.745515	-35.97491	172.31965	-61.416887	0.553816	-0.300925	-0.753938	24.446709	15.545436	7.883761	136.361373	7.525713	9.505031	0.192882	0.024163	-1.187181	10.671967	-1.218836	-0.283258	5.951902	-5.706255	21.47285	-0.625883	-0.169822	0.150174
-3.421059	2.869558	13.429162	-36.925834	191.729651	-61.681255	0.579413	-0.274475	-0.70858	23.737726	13.294992	9.508697	236.57616	-74.161062	104.104832	0.166334	-0.038341	-1.168266	10.261055	-1.217396	-0.171147	9.509388	-7.985301	21.256866	-0.584297	-0.186228	0.166749
-3.470146	2.354314	13.823848	-30.923751	212.974244	-58.530395	0.60804	-0.288995	-0.705863	9.061934	6.158631	-2.072043	209.778316	-153.849361	170.268164	0.141117	-0.065916	-1.208756	9.851938	-1.041234	0.061519	15.871525	-10.406848	21.000837	-0.611558	-0.137233	0.14857
-3.164405	1.611468	14.792781	-27.516396	238.587387	-51.895773	0.691235	-0.253458	-0.704129	1.679252	17.002333	14.257192	283.77427	-113.18139	87.351311	0.12681	-0.10092	-1.149074	10.388626	-0.111502	0.494727	24.839624	-11.361805	15.868161	-0.625674	-0.153629	0.149337
-3.080593	1.846983	16.159334	-24.261949	268.953669	-45.030198	0.676371	-0.26014	-0.675628	0.918076	6.985111	23.517094	150.75916	-155.930707	96.655329	0.100412	-0.132783	-1.132166	11.681965	1.569485	0.4662	36.168467	-8.928488	3.314343	-0.639232	-0.139294	0.179485
-2.741164	2.260447	18.895539	-22.0626	307.330733	-38.767629	0.718347	-0.247492	-0.680092	9.36117	13.317785	4.5078	181.59768	-202.988172	86.500032	0.061409	-0.148328	-1.130335	13.555387	2.375262	-0.214008	39.53326	-2.189104	-11.33859	-0.625466	-0.137437	0.1485
-3.82792	0.767754	18.868109	0.536317	354.789771	-27.10959	0.731367	-0.275751	-0.620721	4.443585	11.516174	-4.995022	83.401893	-203.263499	21.980536	0.035602	-0.178047	-1.142126	14.484239	2.36964	-1.035097	25.805054	6.631345	-8.274925	-0.639374	-0.137641	0.14843
-5.118256	1.061705	20.208179	23.463707	388.527884	-10.401245	0.758865	-0.283557	-0.593268	1.159532	2.302236	15.535437	43.561822	-126.421621	-11.538559	-0.029724	-0.210135	-1.12439	13.75118	3.121057	-2.303133	27.590408	14.17137	2.715582	-0.639787	-0.188697	0.197524
-8.94235	3.020389	20.824017	57.560621	406.980232	-2.685103	0.826453	-0.261758	-0.534882	11.587091	-1.770685	18.468327	-80.267219	-41.807814	24.069778	-0.017188	-0.181563	-1.097974	12.509775	3.065322	-2.446304	34.138194	17.908041	10.437416	-0.653419	-0.154864	0.164724
-14.836785	4.449075	17.987525	83.382431	405.574766	-8.916143	0.812761	-0.327053	-0.478641	2.810124	4.596267	1.418584	134.726577	-41.72194	53.316788	-0.016452	-0.208988	-1.139016	11.463276	2.43213	-1.690041	19.748337	21.441215	12.887362	-0.667122	-0.120204	0.116396
-10.621746	4.683536	19.889074	104.359979	386.60728	-2.844832	0.88112	-0.332796	-0.413423	1.631963	8.37653	5.869693	-35.739469	-17.71727	-9.412153	-0.056046	-0.226677	-1.108485	9.417768	1.860299	-0.712612	8.422112	20.301363	12.719861	-0.625466	-0.137437	0.1485
-7.155753	3.768498	21.487056	164.307061	374.159461	-9.200614	0.922367	-0.344505	-0.372243	3.869369	2.743284	10.440849	-14.10431	-12.822469	34.523401	-0.030465	-0.24292	-1.093683	8.661677	1.341595	-0.189981	9.474994	18.057443	11.167901	-0.625674	-0.153629	0.149337
-7.672881	2.319764	18.402049	181.284239	393.757549	-36.351369	0.934259	-0.366049	-0.288137	3.523671	3.924582	7.830379	9.957507	-13.917683	23.587262	-0.04351	-0.198105	-1.082069	8.380457	0.590001	0.460279	11.212405	16.421937	4.261777	-0.681444	-0.171465	0.165421
-0.527501	-1.007576	20.743396	129.366883	393.206919	-63.145179	0.947993	-0.352653	-0.291902	3.815903	4.149555	8.063171	11.975033	-2.41668	8.350364	-0.055971	-0.211357	-1.109489	9.383191	0.82001	0.479975	12.831998	16.017576	-3.413467	-0.639653	-0.153007	0.133739
0.890256	0.317467	8.444358	161.754881	371.523932	-53.897114	0.97402	-0.391871	-0.190652	3.059503	2.913642	10.254148	-2.022154	-2.778637	8.39716	-0.055826	-0.240926	-1.121831	10.21764	0.12269	0.851856	12.712402	17.062407	-9.835884	-0.639582	-0.153833	0.149267
12.964493	-16.000956	-4.005919	89.726093	256.43248	-47.74026	0.971776	-0.395742	-0.123689	2.611541	4.321	8.264485	9.945147	-4.675181	2.777155	-0.04307	-0.226602	-1.108761	11.036724	0.351621	0.50881	11.872517	17.663371	-12.036044	-0.639586	-0.135162	0.101846
3.269669	-18.595751	-8.183561	18.321088	35.117406	76.189078	0.984782	-0.406701	-0.08181	2.975713	3.983081	9.121048	-4.869618	-3.586238	4.440792	-0.044106	-0.260459	-1.063705	10.973616	1.164326	0.391357	9.408322	16.65599	-10.127584	-0.625607	-0.135784	0.117444
4.233292	2.125749	15.563977	-95.290381	-160.926794	147.744357	0.956184	-0.42678	-0.049544	3.02581	4.09535	8.782514	1.57904	-2.041091	1.039407	-0.043145	-0.241923	-1.107757	10.902111	1.800825	-0.206093	0.825431	14.538176	-3.515737	-0.625745	-0.152803	0.133809
8.935323	0.814989	18.889246	-105.955554	-165.180499	79.301755	0.985925	-0.430715	-0.089054	2.973511	3.870325	9.007674	-4.590625	-1.355672	1.472853	-0.068576	-0.19504	-1.124567	10.419652	1.509052	-0.815202	-8.34205	13.068591	2.331397	-0.638956	-0.105256	0.146755
5.141026	-4.208723	11.974617	-31.7813	-153.555899	93.438398	0.972905	-0.402456	-0.148425	2.693799	3.420505	9.341087	-3.59138	-3.080597	-0.084901	-0.017784	-0.243917	-1.079609	10.719405	1.393214	-0.570566	-14.164548	11.424077	5.538973	-0.639232	-0.139294	0.179485
4.940124	2.219546	10.747536	1.647621	-171.773197	88.969915	0.946564	-0.435963	-0.165631	2.504118	4.715861	8.658876	-2.771929	-4.349315	-1.422463	-0.069537	-0.213576	-1.080514	10.714442	1.159674	-0.87109	-17.816437	9.232701	6.173945	-0.639165	-0.121449	0.147592
5.157205	-0.668178	7.10244	2.715357	-185.257917	55.334356	0.933973	-0.473374	-0.16911	2.510462	3.927423	8.884771	-10.68271	-4.372356	0.821392	-0.029944	-0.195887	-1.111044	10.245189	0.870869	-0.761316	-17.554174	7.710138	5.599539	-0.680755	-0.086371	0.083596
4.556042	-1.133569	5.611194	-7.924249	-218.164501	44.866679	0.933558	-0.425004	-0.207509	2.965827	4.095363	8.668026	-12.7037	-5.208832	2.907767	-0.016528	-0.224309	-1.138012	9.881594	0.695226	-1.307822	-15.59281	6.55983	5.108898	-0.597512	-0.12001	0.132275
4.383491	-0.042055	5.612439	-25.457325	-242.560342	29.527826	0.963286	-0.41164	-0.264512	2.444458	4.546882	8.544246	-17.215136	-5.240628	3.705357	-0.055971	-0.211357	-1.109489	9.41124	0.406173	-1.257955	-16.377231	5.744667	3.801379	-0.625257	-0.121244	0.147663
3.942898	0.47911	6.515352	-47.563244	-262.014804	13.207681	0.95068	-0.431751	-0.285483	2.804657	3.75813	9.173871	-23.877429	-4.292318	5.189188	-0.030164	-0.181638	-1.097698	8.880095	0.407388	-1.267859	-18.371857	5.343664	0.479106	-0.653632	-0.152385	0.118141
2.866075	0.654635	7.06345	-65.31566	-280.199673	3.242298	0.909433	-0.420042	-0.326663	3.210009	3.137787	9.238451	-22.180473	-4.454955	5.219764	-0.042775	-0.225531	-1.123111	8.39476	0.405501	-1.995545	-19.712739	5.336677	-2.266643	-0.66726	-0.137223	0.132761
1.519308	1.350959	8.46095	-72.8772	-294.171225	-2.452298	0.911319	-0.436999	-0.362059	3.028959	3.081448	8.8383	-20.496515	-5.744783	4.098472	-0.017043	-0.211132	-1.110316	8.639223	0.581167	-1.511146	-20.06342	5.109017	-4.036889	-0.639444	-0.136815	0.132902
0.20662	1.754968	8.664441	-68.090344	-301.722291	-4.888795	0.883021	-0.367053	-0.431328	2.82078	2.913741	9.852835	-24.039838	-5.108769	3.11544	-0.030164	-0.181638	-1.097698	8.219663	0.987409	-1.816653	-21.612751	5.180415	-5.559703	-0.639307	-0.119796	0.116537
-1.145755	2.507528	9.777916	-65.911938	-303.38248	-9.553071	0.871172	-0.397406	-0.462959	2.873725	2.800783	9.627391	-15.958734	-6.280758	1.075625	-0.05545	-0.164324	-1.12685	8.291749	1.048316	-1.096423	-22.203031	5.652611	-7.057324	-0.639515	-0.135989	0.117374
-1.867752	2.45545	10.900261	-58.641601	-295.7399	-12.946304	0.827996	-0.316842	-0.521218	3.281542	3.419901	9.919573	-12.863963	-5.95691	-0.244274	-0.093863	-0.177726	-1.153718	8.053058	0.757735	-1.281782	-21.660989	4.871866	-8.278002	-0.640071	-0.185392	0.135413
-3.236208	2.342768	11.15732	-40.974024	-279.435852	-13.407204	0.802784	-0.357064	-0.56316	2.751688	3.251405	9.342154	-9.173191	-7.314075	-1.241297	-0.068871	-0.196112	-1.110217	8.362425	0.295418	-0.559375	-20.414307	3.698524	-9.74383	-0.653073	-0.121653	0.147522
-3.874091	2.743626	10.748789	-23.618698	-261.676768	-9.45775	0.76078	-0.335113	-0.59368	3.157387	3.081754	9.463753	-7.932714	-7.102321	-3.087871	-0.069022	-0.226753	-1.10821	7.821105	0.41056	-1.107946	-18.203154	2.481016	-9.562665	-0.653352	-0.137019	0.132832
-4.850508	2.398957	10.557853	-14.141412	-250.386168	-2.769204	0.747374	-0.293083	-0.656467	3.160906	3.138227	9.63372	-4.847085	-7.484198	-4.353128	-0.055965	-0.151147	-1.099154	8.416904	0.35237	-0.797654	-15.77324	1.50712	-9.200091	-0.653841	-0.168578	0.118978
-5.649802	2.342579	10.655729	-8.293798	-246.632608	5.033841	0.706527	-0.312445	-0.676739	3.095225	3.588694	9.293052	-2.895111	-7.029371	-4.470346	-0.055965	-0.151147	-1.099154	8.349354	0.234375	-1.278504	-14.450293	0.368408	-8.068699	-0.611696	-0.154252	0.164935
-5.754905	1.655293	11.105431	-10.26098	-247.905194	13.329394	0.650773	-0.28659	-0.720986	2.684906	3.645495	8.9448	-1.590296	-6.488362	-4.957162	-0.055525	-0.179644	-1.125846	8.245493	0.295935	-0.501669	-14.506095	0.108655	-6.630887	-0.667122	-0.120204	0.116396
-5.570189	0.681316	11.730053	-10.679109	-246.712076	21.874752	0.66488	-0.269666	-0.738827	2.69885	3.308033	9.567551	2.019205	-6.927322	-5.852627	-0.055525	-0.179644	-1.125846	8.482813	0.702422	-0.375722	-15.869184	-0.722138	-6.621986	-0.653628	-0.171056	0.165561
-6.469599	0.74304	12.565275	-10.139713	-237.384714	27.053423	0.567536	-0.27023	-0.775195	2.79969	3.194588	8.890199	6.333045	-7.818873	-6.505403	-0.056266	-0.212429	-1.095139	9.077741	-0.401878	-0.249602	-16.495968	-1.543331	-7.288143	-0.680893	-0.10339	0.099961
-6.591571	0.281902	12.163146	-6.839479	-221.404873	29.971004	0.539695	-0.300551	-0.753589	2.847932	3.644792	8.49531	10.510823	-7.241609	-6.958717	-0.107058	-0.163552	-1.140096	8.662022	-0.2272	-0.376377	-16.971806	-2.451003	-8.412843	-0.66754	-0.152589	0.118071
-6.640782	-0.061017	12.558556	-12.068981	-204.405648	28.943555	0.526289	-0.258521	-0.816375	3.22497	3.532717	9.975098	14.383275	-6.33416	-6.915751	-0.042694	-0.15	-1.113779	8.664108	0.296226	-0.194431	-19.513321	-3.303977	-9.621995	-0.653077	-0.102981	0.100102
-7.541223	-0.114418	13.336442	-18.239848	-185.87184	27.729104	0.469836	-0.291621	-0.779995	2.405518	3.026682	9.278071	16.214631	-8.058416	-6.962249	-0.069167	-0.197184	-1.095867	8.962605	-0.226639	-0.07134	-21.549948	-3.711472	-9.36819	-0.639307	-0.119796	0.116537
-8.906131	-0.513584	13.762854	-18.092929	-162.241518	27.069856	0.441194	-0.259802	-0.800204	2.930536	3.194989	9.628931	22.20588	-8.134697	-7.112325	-0.082588	-0.228971	-1.079234	9.077201	-0.169574	-0.248613	-23.357832	-4.080654	-6.823326	-0.59828	-0.166935	0.103731
-9.716518	-0.629817	13.291958	-21.647287	-141.225838	24.753678	0.412568	-0.245282	-0.802921	3.148278	3.419405	9.067561	22.325933	-8.495088	-8.040641	-0.043365	-0.227674	-1.094411	9.42456	-0.113792	-0.601204	-24.512801	-4.116389	-3.762814	-0.653561	-0.153211	0.133669
-11.03828	0.002028	13.04159	-47.347169	-140.811391	21.093386	0.370206	-0.244158	-0.801874	2.693584	3.533166	9.341182	22.719523	-9.276253	-9.743606	-0.095269	-0.227974	-1.093308	8.776753	-0.228211	-0.553897	-25.291455	-3.324582	-0.738102	-0.653215	-0.12	0.116467
-12.476197	-0.170708	12.67191	-66.709994	-159.319129	15.29823	0.370192	-0.226859	-0.819365	3.169152	3.25122	10.030292	22.944368	-13.673481	-12.130029	-0.055676	-0.210285	-1.123839	8.664763	-0.459009	-0.257552	-27.207446	-2.046504	2.196791	-0.640488	-0.217777	0.137087
-14.26585	0.229531	11.899991	-78.067871	-187.711208	10.883313	0.313295	-0.176991	-0.856368	3.10103	3.081909	9.519184	20.785837	-18.068256	-10.140852	-0.069022	-0.226753	-1.10821	8.968202	-1.213189	0.104178	-27.519229	-0.671512	5.186609	-0.667469	-0.153415	0.133598
-16.174341	0.456564	10.897708	-91.346232	-217.440224	3.937453	0.286969	-0.227797	-0.856082	3.430038	2.798946	8.733246	3.867915	-22.125333	-8.745908	-0.094459	-0.240079	-1.135354	8.544084	-1.214717	-0.502594	-27.922354	0.763077	8.298804	-0.584506	-0.202421	0.167587
-18.303725	0.225919	10.287013	-111.127884	-230.168487	0.567596	0.230044	-0.143331	-0.928068	3.120611	3.58969	10.482484	-5.278651	-24.473518	-5.046465	-0.069392	-0.243145	-1.092856	8.604086	-0.691673	-0.379455	-26.762196	1.506388	10.766835	-0.625745	-0.152803	0.133809
-20.259905	1.087021	9.797949	-126.310403	-225.532225	0.594544	0.214837	-0.18814	-0.850508	1.910406	6.1833	10.629197	-15.903303	-37.610967	8.995356	-0.068947	-0.211432	-1.109213	9.363032	-0.92771	-0.845393	-23.512493	2.021981	12.311453	-0.68131	-0.135775	0.101635
-21.842976	1.712035	7.894388	-129.428292	-206.008746	3.00593	0.157926	-0.120972	-0.905002	2.756697	6.805423	15.289882	11.36951	-62.107664	8.897098	-0.095859	-0.230118	-1.064609	9.429191	-1.158666	-0.48584	-20.417758	2.662848	13.519826	-0.653979	-0.185596	0.135343
-23.070271	2.339455	6.622891	-133.080498	-172.242464	10.342112	0.115579	-0.137148	-0.886463	2.647291	5.223758	10.021071	8.890971	-83.845967	16.571229	-0.109281	-0.261906	-1.047976	9.489598	-0.80985	-0.363443	-17.662534	2.930689	15.189718	-0.625954	-0.168996	0.134646
-28.069995	3.685288	11.475559	-55.074701	-84.409547	30.985351	0.101801	-0.098646	-0.935173	2.576405	4.603661	9.339665	-2.757349	-85.47903	27.921697	-0.134787	-0.230343	-1.063782	10.252386	-1.27745	-0.650649	-13.035792	2.974445	15.508983	-0.612393	-0.202003	0.151918
-26.879532	3.529603	2.12104	-38.22107	-37.107948	30.938726	0.087666	-0.080972	-0.952315	2.140344	6.35186	10.634175	-13.610253	-90.624299	33.688695	-0.135528	-0.263128	-1.033075	10.55407	-1.276642	-0.285706	-10.235751	2.653721	14.950172	-0.667469	-0.153415	0.133598
-28.778568	8.539524	4.719418	-9.874407	-9.394409	54.517087	0.058296	-0.073509	-0.926881	2.612586	5.281097	11.096062	-9.946653	-102.564531	46.429318	-0.134347	-0.25884	-1.090474	10.202329	-0.868558	-0.110857	-7.793382	2.246214	16.746709	-0.667256	-0.155894	0.180182
-26.449165	10.372335	3.919997	33.337576	21.387921	59.951327	0.086537	-0.074258	-0.927579	2.776605	5.393103	10.703307	-16.380969	-114.436064	57.066277	-0.160664	-0.215173	-1.064234	10.323622	-1.797797	-0.052705	-6.532482	2.850166	20.896436	-0.667607	-0.170434	0.149963
-25.997909	11.41709	6.547377	84.508259	49.554658	63.204735	0.086938	-0.105328	-0.906672	2.900221	6.012903	11.159363	-18.570967	-127.81619	67.198579	-0.173565	-0.199928	-1.064962	10.038985	-2.027201	0.479966	-5.431701	4.147986	22.964894	-0.653561	-0.153211	0.133669
-24.78003	14.579364	7.493682	162.506	107.977835	15.608443	0.057167	-0.066794	-0.902145	3.08874	5.956865	11.899257	-17.395199	-143.847401	76.135815	-0.199957	-0.171581	-1.037718	10.213293	-1.795796	0.364442	-5.911219	5.703483	23.234323	-0.639862	-0.1692	0.134576
-22.644215	18.877943	5.677941	243.768025	176.550093	-49.238583	0.072417	-0.073883	-0.92723	3.149909	5.337217	12.013223	-20.140652	-162.283999	83.658673	-0.212487	-0.139943	-1.053799	10.225823	-1.502449	1.084561	-6.614157	7.490007	21.791628	-0.666914	-0.104012	0.115559
-6.908478	12.864799	-0.576825	324.909001	201.311321	-57.199357	0.130099	-0.168593	-0.865904	3.397071	4.717766	12.753852	-19.751074	-184.77023	87.22809	-0.278553	-0.204815	-1.005357	10.992668	-0.400266	1.223378	-7.159202	8.273057	16.868481	-0.681235	-0.155272	0.164584
-4.990768	7.219304	9.438834	138.199102	121.999433	10.018645	0.144634	-0.217337	-0.827854	3.301497	4.60608	13.657573	-21.026306	-209.400825	91.083259	-0.279138	-0.146749	-0.966322	12.641029	0.408523	1.137838	-6.089762	6.611966	6.2968	-0.680751	-0.105042	0.131017
-4.172125	5.154206	10.241679	89.01989	149.864799	5.952089	0.229372	-0.236884	-0.812458	2.780457	4.49663	16.194171	-23.907294	-238.931668	94.025187	-0.30524	-0.17754	-0.963763	14.819746	2.029409	1.12557	-4.196514	1.337654	-0.653379	-0.639236	-0.120622	0.132065
-10.160156	-2.062629	13.959254	28.391958	74.688373	56.75426	0.173276	-0.249157	-0.807645	2.938151	2.470034	18.007349	-5.354972	-276.581169	92.494566	-0.331783	-0.179834	-0.934513	15.353342	1.447681	1.192908	-7.892085	-3.589451	7.207823	-0.652864	-0.10546	0.146685
-8.397609	-3.757545	7.450896	-9.791765	12.139904	-74.314128	0.159527	-0.245254	-0.821372	2.567851	3.483729	16.924797	23.443462	-314.813579	90.688992	-0.383831	-0.150565	-0.921067	14.63758	1.389494	0.760108	-9.066511	-4.733728	13.94194	-0.680751	-0.105042	0.131017
-3.10161	8.182097	6.581288	112.451542	30.911154	-4.789669	0.21638	-0.243224	-0.836844	3.888979	4.837903	22.332084	5.514509	-350.405459	86.220432	-0.410663	-0.093721	-0.867131	13.339879	0.637229	0.672777	-2.017216	-5.525084	13.033765	-0.694726	-0.123091	0.162839
-1.588808	6.163046	4.84046	-41.27177	14.155064	-23.727172	0.187396	-0.249531	-0.807994	5.858633	5.677381	20.336082	49.259438	-392.53038	95.211061	-0.502751	-0.113854	-0.806798	11.559045	-0.116428	-0.022426	-7.603202	-1.371316	11.689272	-0.625533	-0.155282	0.180393
-3.916823	1.138199	11.423156	-54.377057	4.763184	-35.651378	0.201888	-0.246378	-0.822419	8.144282	7.979763	17.102495	31.012886	-404.886939	88.043683	-0.528923	-0.099756	-0.792901	10.427699	-0.058011	-0.582249	-16.046925	2.412742	12.588205	-0.653561	-0.153211	0.133669
-2.754939	1.645618	9.402	8.301408	13.886891	-20.46964	0.215237	-0.21921	-0.8296	8.336925	6.010872	20.558268	23.166774	-404.296814	95.350821	-0.583489	-0.169913	-0.672986	10.830368	0.171123	-1.112719	-25.294517	4.518877	9.830179	-0.694588	-0.106073	0.146475
-3.517233	3.423225	8.542209	-1.06095	8.972329	-16.443285	0.229	-0.240412	-0.798382	7.791446	4.773769	21.847847	44.707807	-396.624373	87.304179	-0.610912	-0.115213	-0.59035	10.646218	1.332059	-1.350704	-29.095688	2.811518	5.022875	-0.653912	-0.167751	0.10345
-4.036148	2.273803	8.299949	-1.037512	6.145015	-13.759615	0.258756	-0.261647	-0.8204	8.149306	3.700885	19.646464	80.257316	-393.891312	86.342407	-0.650575	-0.088012	-0.548481	9.871325	1.796939	-1.722473	-28.343435	-0.941831	1.462114	-0.652726	-0.088441	0.13032
-2.943736	2.101656	8.547794	-6.826999	1.601563	-5.781328	0.228615	-0.226641	-0.801797	9.260189	3.58684	20.462292	91.174213	-372.899569	88.563663	-0.65131	-0.060587	-0.507439	9.406183	1.160419	-1.434462	-25.402599	-5.369627	-1.186379	-0.666914	-0.104012	0.115559
-3.101231	2.392124	9.28475	-3.819488	-1.557171	0.23103	0.230501	-0.243598	-0.837194	9.463804	4.097109	24.656468	88.45078	-369.198741	81.22903	-0.678813	-0.081417	-0.434135	9.587208	0.870376	-1.252676	-25.607164	-9.030998	-5.080114	-0.653077	-0.102981	0.100102
-3.090671	1.647555	9.793291	-0.60634	0.69954	3.110546	0.244236	-0.230202	-0.840959	-0.220491	0.959948	23.544481	48.134521	-395.581367	47.204542	-0.732859	-0.104541	-0.331581	9.533039	1.626983	-0.891121	-24.356548	-11.456969	-9.626667	-0.680822	-0.104216	0.115489
-2.971749	1.705879	10.023172	7.507974	2.923224	5.484698	0.202631	-0.239321	-0.850571	-19.646447	-6.96926	-3.082863	35.025127	-315.190451	34.487925	-0.733154	-0.105613	-0.317231	10.129243	1.394564	-0.581571	-17.680676	-13.085476	-15.479996	-0.610999	-0.1065	0.177951
-3.05536	2.734319	8.718781	9.391179	4.644915	6.212595	0.259485	-0.237291	-0.866044	-17.503359	-18.131744	-8.822345	27.55241	6.113307	-65.782074	-0.721729	-0.126218	-0.244754	10.014553	2.325287	-0.280281	-8.051246	-12.918033	-19.488284	-0.709055	-0.137009	0.117023
-2.826384	2.791595	8.723476	3.271773	2.798283	3.930841	0.230844	-0.205471	-0.886253	-16.285944	-3.744651	19.862684	68.044268	284.844119	-228.720974	-0.748416	-0.098942	-0.203161	9.838584	1.861084	-0.285561	-0.139983	-11.402852	-18.362949	-0.639094	-0.122275	0.16312
-3.057012	3.480818	8.665064	1.272481	3.49845	1.003897	0.242735	-0.227016	-0.802147	-7.793394	12.021527	30.981489	0.750679	196.818443	-162.195	-0.669536	-0.185055	-0.270542	9.67063	2.21217	0.251783	6.028411	-8.834753	-16.1362	-0.680609	-0.106695	0.162073
-2.753706	3.024697	9.521498	-2.626392	3.812276	-1.157204	0.230115	-0.229827	-0.840609	-5.791812	-2.364686	10.233437	36.634342	126.139991	-81.348988	-0.681846	-0.167666	-0.29997	10.211213	0.992842	0.615937	7.806893	-6.663932	-15.450142	-0.653144	-0.120826	0.131994
-2.885989	2.963478	8.60938	-4.02792	4.971051	-0.91966	0.243492	-0.237259	-0.812807	-5.950546	-1.690164	8.249202	58.529187	136.279733	-127.894458	-0.707283	-0.180993	-0.327114	10.445077	0.991807	0.500525	6.438385	-4.407584	-15.24204	-0.610999	-0.1065	0.177951
-3.228278	2.791644	8.658828	-7.39457	5.755365	-0.989226	0.201888	-0.246378	-0.822419	-7.392381	0.11277	5.559644	25.12468	165.80485	-107.316614	-0.680596	-0.208268	-0.368707	10.274881	0.412688	0.794286	6.486714	-2.360543	-15.00751	-0.639236	-0.120622	0.132065
-2.823991	2.562311	8.836217	-7.789862	5.46267	0.264542	0.243478	-0.219959	-0.830299	-6.242136	-1.861144	5.355604	-7.814006	213.865195	-101.902489	-0.654789	-0.178549	-0.356916	9.575896	0.242058	1.259594	8.580988	-1.851599	-16.178767	-0.639653	-0.153007	0.133739
-3.102344	2.391883	9.227897	-11.281494	5.752279	0.40197	0.228229	-0.21287	-0.805213	-5.587734	0.335557	6.560183	-32.33668	255.701794	-99.656392	-0.627586	-0.219001	-0.426206	9.220003	0.068146	1.132436	10.885073	-2.044482	-17.439099	-0.653352	-0.137019	0.132832
-3.100366	2.737014	9.343051	-9.946758	6.586224	3.294436	0.285854	-0.238382	-0.813854	-5.38283	0.561836	8.093269	-42.278475	282.290565	-79.303299	-0.639902	-0.261822	-0.465968	8.874284	-0.219693	1.543945	11.054191	-2.479326	-19.698953	-0.653419	-0.154864	0.164724
-2.819703	2.793042	9.064594	-10.552451	7.438615	3.770042	0.257227	-0.223862	-0.816572	-4.80234	0.560948	8.331917	-51.427567	302.70885	-64.589356	-0.586962	-0.227665	-0.512128	8.344935	-0.043756	1.654597	11.4192	-2.685814	-20.310449	-0.653349	-0.15569	0.180252
-3.041915	2.622331	9.400535	-8.212324	8.670381	4.519337	0.257613	-0.237633	-0.813156	-4.585353	1.179678	7.770878	-57.486318	323.709691	-44.410607	-0.547525	-0.300826	-0.550986	8.162945	0.187965	1.412657	14.347347	-2.735197	-20.443048	-0.653561	-0.153211	0.133669
-3.154321	2.795221	9.512738	-4.011201	9.184458	4.270263	0.243864	-0.23373	-0.826883	-2.484679	0.275553	9.059711	-66.40879	342.535929	-29.896223	-0.520462	-0.251499	-0.597597	8.159778	0.129147	1.232689	16.961989	-3.272589	-20.816644	-0.625745	-0.152803	0.133809
-3.108078	2.620442	8.944597	-5.335847	9.041339	2.79972	0.271348	-0.224237	-0.816921	-1.607661	0.78148	9.757947	-79.122378	356.902193	-19.467228	-0.454181	-0.261085	-0.669721	8.335146	-0.568912	1.053303	18.772467	-3.528737	-22.044283	-0.653073	-0.121653	0.147522
-3.210954	1.933639	9.508005	-7.51058	8.995929	3.203918	0.25797	-0.216805	-0.844724	0.07866	0.779019	10.58596	-96.29288	365.317209	-15.451325	-0.439729	-0.255651	-0.741746	8.679359	-0.107092	0.582628	19.91196	-3.832414	-21.863615	-0.667607	-0.170434	0.149963
-2.98899	2.449	9.173512	-5.070783	11.269827	4.245871	0.24385	-0.216431	-0.844374	2.200338	0.270061	12.894638	-94.639071	361.699568	-15.794316	-0.39925	-0.234746	-0.815325	8.094294	0.069723	0.8719	19.336682	-3.792571	-19.997698	-0.639303	-0.138467	0.163957
-3.15964	2.449366	9.227025	-8.409341	9.427435	0.024084	0.285097	-0.22814	-0.803194	4.512865	0.773151	13.453177	-81.312148	339.945624	-22.905584	-0.333924	-0.202658	-0.833061	8.443294	-0.106552	0.578226	19.713841	-3.121754	-19.666127	-0.668233	-0.219012	0.152475
-3.163188	2.735849	9.057672	-9.573693	9.26452	0.362134	0.272119	-0.251779	-0.810089	7.101668	0.993576	13.451128	-69.663633	307.934382	-28.270675	-0.294261	-0.229858	-0.87493	8.32032	0.125033	0.337387	20.061298	-1.987481	-19.79503	-0.611766	-0.153425	0.149407
-3.450408	2.506049	8.994286	-9.704749	9.069344	-1.450074	0.243878	-0.25103	-0.809391	7.240971	1.386286	11.925818	-68.833121	278.246687	-31.679163	-0.201578	-0.147371	-0.953627	8.789283	0.065135	0.166222	19.644802	-0.744963	-18.82159	-0.667048	-0.139702	0.179345
-3.331445	2.506931	9.223926	-13.675977	10.32683	-0.130147	0.242735	-0.227016	-0.802147	7.867977	2.73689	11.770335	-90.874667	253.62934	-26.855715	-0.201653	-0.162691	-0.952623	8.908281	0.123189	0.228577	18.708953	-0.041365	-16.193519	-0.709122	-0.154854	0.148916
-3.501597	1.817999	9.274543	-7.387122	10.277319	1.384338	0.20186	-0.211779	-0.857403	8.088057	3.245439	14.039973	-118.668723	238.661487	-20.368561	-0.149158	-0.160248	-0.982426	8.380822	-0.513938	0.335768	17.551622	0.330649	-14.11308	-0.639094	-0.122275	0.16312
-3.503333	2.67938	9.221309	-4.280108	11.260199	2.710074	0.272477	-0.230951	-0.841657	8.698637	2.682383	15.637496	-124.644354	228.398716	-17.053764	-0.122761	-0.128385	-0.999334	8.272693	-0.511443	0.872729	16.939516	0.505979	-13.53107	-0.625745	-0.152803	0.133809
-3.051647	2.218069	8.887168	-9.280671	10.937567	2.013871	0.257613	-0.237633	-0.813156	9.766006	2.174654	17.07482	-103.361645	215.044785	-22.194388	-0.083098	-0.155585	-1.041203	8.082845	-0.688233	0.149803	16.94781	1.173276	-12.984211	-0.653699	-0.17023	0.150034
-3.163431	1.529336	8.995751	-11.792731	10.202344	3.481189	0.285068	-0.193541	-0.838178	11.807839	2.958263	15.759654	-92.429615	203.800218	-32.963475	-0.005682	-0.126638	-1.016165	8.025489	-0.455299	0.269505	17.452603	1.898487	-11.950465	-0.640004	-0.167547	0.10352
-3.66697	2.221661	9.61401	-12.349351	12.942073	5.582013	0.243507	-0.254558	-0.795315	13.586669	3.405377	15.570951	-84.380511	191.960313	-42.692501	0.060014	-0.078157	-1.049255	8.087942	-0.512768	0.450079	16.415512	2.090562	-10.175136	-0.626163	-0.185188	0.135483
-3.268706	2.622979	9.509787	-12.403546	13.421998	6.601974	0.272119	-0.251779	-0.810089	16.697681	2.103955	15.635142	-69.001332	163.475575	-55.170379	0.085595	-0.0944	-1.034453	8.499279	-0.223581	0.399112	14.301764	1.963401	-7.477532	-0.654534	-0.235	0.153382
-3.437662	1.819405	9.616775	-15.56953	13.151547	4.766677	0.257599	-0.220334	-0.830648	18.360982	1.253203	12.612159	-52.87546	128.050541	-69.165073	0.085225	-0.110792	-1.019099	8.726675	-0.284175	-0.075989	11.358878	1.919971	-4.288278	-0.63972	-0.170852	0.165632
-3.449662	1.472102	8.989943	-11.795114	14.658796	3.49229	0.243078	-0.188889	-0.851206	19.807796	1.417448	10.32151	-68.444365	112.497598	-82.524759	0.09739	-0.098612	-0.977329	9.022701	-0.691382	-0.072217	9.715569	1.748438	-0.094468	-0.65377	-0.169404	0.134506
-3.797891	1.816035	8.757297	-10.912046	12.139459	-1.642047	0.299217	-0.228514	-0.803543	20.33622	2.090534	8.181863	-96.051048	120.238612	-92.240744	0.136168	-0.129028	-0.976149	9.083223	-0.865498	-0.011952	10.942989	1.301822	5.068448	-0.626021	-0.186841	0.166539
-3.05189	1.011555	8.825247	-43.76016	15.890134	-12.435457	0.241578	-0.185703	-0.812394	22.226016	2.818942	7.825896	-136.429709	144.918301	-98.099636	0.16264	-0.081845	-0.994061	8.318234	-0.398393	0.155441	13.698478	0.855696	7.750269	-0.626092	-0.186014	0.151011
-3.338515	3.954109	11.844087	-61.123103	31.118729	-31.706662	0.270176	-0.165624	-0.84466	23.20817	3.493266	8.073575	-136.738177	149.443909	-102.123346	0.163231	-0.079701	-1.022761	8.973143	-1.444505	0.342816	15.736714	0.577621	8.72229	-0.625883	-0.169822	0.150174
-3.216793	5.946246	21.061379	-65.473015	39.317149	2.330174	0.28544	-0.190013	-0.852254	23.513956	5.237442	6.383111	-115.709458	143.416723	-100.039703	0.189924	-0.046766	-1.054019	9.440061	-1.098118	0.113476	16.072671	0.212397	8.661687	-0.625466	-0.137437	0.1485
-3.495839	2.463648	12.51671	33.558633	111.752812	-20.484822	0.314067	-0.204533	-0.849536	24.416813	30.876779	18.653349	-67.798244	145.768712	-113.909091	0.240722	-0.035433	-0.998727	9.851533	-0.867006	0.062261	15.300782	-0.409414	9.370447	-0.681377	-0.15362	0.133528
-3.106389	3.367665	9.06144	-5.993036	111.305337	-32.401957	0.285811	-0.186484	-0.86633	24.77025	7.767371	3.46779	49.179078	103.499722	-95.06446	0.228556	-0.047613	-1.040497	10.323527	-0.81001	0.071312	14.685265	-1.904188	11.733351	-0.653073	-0.121653	0.147522
-2.736937	3.845084	13.33292	-40.714858	117.285746	-40.241491	0.341165	-0.181268	-0.84299	25.113369	11.092751	6.365253	92.361708	68.565334	-63.012826	0.254433	-0.062783	-1.040044	10.803474	-1.332291	0.437331	14.745431	-3.608739	13.911456	-0.625674	-0.153629	0.149337
-3.366736	3.84554	13.320671	-25.608638	141.64034	-49.705234	0.327416	-0.177365	-0.856717	25.439344	14.922106	5.809335	135.297248	21.645658	-9.253037	0.253843	-0.064927	-1.011345	10.914074	-1.450444	0.01969	13.595577	-5.644929	15.20913	-0.639165	-0.121449	0.147592
-2.976427	2.923773	12.756074	-38.546354	160.807405	-57.608521	0.370177	-0.209559	-0.836857	23.287918	12.897199	4.573466	173.739783	-48.448552	64.997385	0.279644	-0.095418	-1.009889	10.856158	-1.450062	0.078496	14.287715	-8.12475	15.676959	-0.639649	-0.171678	0.181159
-3.007413	3.561461	14.122089	-48.599129	179.223698	-63.262378	0.370177	-0.209559	-0.836857	26.113316	18.410541	2.656173	254.711758	-120.072207	193.46116	0.253617	-0.110888	-1.008334	10.431116	-0.580201	-0.464661	18.922853	-10.551874	15.36609	-0.625257	-0.121244	0.147663
-2.998505	3.563391	14.576914	-48.825089	204.114687	-67.243957	0.410624	-0.159127	-0.837492	4.548944	18.665356	-10.195007	354.47402	-135.82031	243.194119	0.24019	-0.202886	-1.002037	11.444044	0.000736	0.155588	24.145431	-11.830947	13.672127	-0.639929	-0.187045	0.166469
-3.276983	3.565287	14.969318	-53.591393	232.091771	-69.229404	0.479684	-0.105916	-0.852901	10.062502	16.988128	16.131672	210.679014	-97.857887	140.41946	0.213792	-0.234749	-0.985128	11.900153	1.681141	-0.487415	31.740829	-9.652058	6.695882	-0.667607	-0.170434	0.149963
-1.679442	4.494572	17.675338	-64.81098	265.336242	-75.620682	0.480127	-0.188884	-0.779519	14.486859	9.88133	15.19927	135.924541	-147.925467	92.005339	0.186659	-0.239186	-0.927178	14.313098	2.197053	-0.739606	29.594582	-2.231928	-1.736718	-0.653561	-0.153211	0.133669
-1.771344	2.488785	18.744874	-53.214393	310.529125	-76.360454	0.522474	-0.172709	-0.798058	1.171845	10.111955	-7.442769	68.319248	-212.492813	-13.88414	0.109394	-0.237493	-0.954223	15.825104	2.362826	-1.908391	11.892039	6.972522	1.278618	-0.610794	-0.071637	0.129694
-1.407272	0.252417	19.708647	-38.635235	356.29818	-67.864246	0.590433	-0.147382	-0.753748	4.559157	-0.917441	12.773288	-7.615101	-58.823044	-70.863693	0.121334	-0.271274	-0.909442	14.875978	1.143659	-2.350538	12.536012	11.738983	4.982303	-0.653006	-0.103808	0.11563
-2.541143	0.140776	20.254425	-24.941473	399.103191	-53.462464	0.603439	-0.158341	-0.711869	6.164401	1.112066	18.07391	-152.530189	-29.255957	37.362515	0.121924	-0.26913	-0.938141	12.74825	1.554558	-2.508237	20.275196	9.062897	3.163778	-0.597859	-0.153221	0.149477
-5.912598	0.316993	20.530572	2.911788	426.419669	-37.207545	0.687019	-0.136575	-0.70672	3.355649	7.072737	0.243328	122.993347	-53.837517	2.286886	0.083066	-0.314245	-0.948653	10.411544	1.68155	-1.233808	10.9352	10.268937	7.562527	-0.639023	-0.123101	0.178648
-9.566772	2.377608	18.138132	23.130745	422.164916	-24.452128	0.757651	-0.173046	-0.673482	1.285516	9.560165	5.920076	-49.464861	-11.300826	14.47084	0.122144	-0.283379	-0.951488	9.726594	1.630286	0.010784	14.976583	9.006526	9.754595	-0.625462	-0.156108	0.19592
-12.396219	4.110405	19.852143	25.146081	407.492869	-25.95439	0.755764	-0.156089	-0.638086	4.299691	-0.185804	11.466358	-60.23936	4.794927	50.292643	0.108647	-0.330487	-0.933851	8.962801	1.109852	0.114067	20.571859	6.947157	9.683029	-0.597229	-0.123315	0.194387
-8.024709	2.38811	20.896031	105.255746	396.835435	-24.917008	0.810775	-0.189	-0.565687	3.185509	3.30583	8.105802	47.968838	-9.022967	5.292445	0.109614	-0.251741	-0.967569	8.618203	1.287115	0.647368	25.001293	8.350105	5.686873	-0.639582	-0.153833	0.149267
-7.291153	2.487697	17.444064	137.037559	400.506292	-32.555765	0.851636	-0.186938	-0.527923	2.513981	3.983896	9.054737	-14.081728	1.515826	12.8695	0.109168	-0.283454	-0.951212	9.565472	0.936993	0.783306	25.433142	11.611659	1.024062	-0.653352	-0.137019	0.132832
-4.351015	0.146927	21.355855	110.616572	404.530777	-59.992221	0.877619	-0.174258	-0.479149	3.229304	1.89918	10.030362	1.603857	-2.415929	2.145515	0.082701	-0.270427	-0.922965	10.274611	0.52884	0.79478	20.368129	14.278908	-4.257633	-0.639098	-0.103604	0.1157
-1.330011	2.484834	17.900986	119.133793	413.826934	-50.938048	0.919281	-0.234336	-0.39957	2.435996	4.54655	8.147769	14.727219	-5.277199	0.956153	0.081885	-0.318532	-0.891254	10.395134	0.877768	0.978185	16.165651	14.994872	-6.904683	-0.638885	-0.106082	0.162283
2.712071	0.461362	2.115394	188.813324	337.5263	-62.689141	0.944507	-0.211414	-0.340136	3.205174	3.137597	9.011893	-4.83509	-1.087048	2.12272	0.096117	-0.298849	-0.949932	10.082622	1.746122	0.137695	14.682118	14.530352	-6.866533	-0.652655	-0.089268	0.145848
26.577101	-11.122883	-15.939116	-23.5407	169.655777	-13.765962	0.943435	-0.273897	-0.245433	2.578345	3.589712	9.338812	6.262098	-0.770867	-1.256301	0.096783	-0.281385	-0.979636	10.723692	1.917135	-0.268807	11.575608	12.793174	-8.55841	-0.639307	-0.119796	0.116537
4.277213	-6.81935	5.752296	-141.38545	-111.811684	131.483652	0.970904	-0.247104	-0.252963	2.976252	3.701429	9.120811	2.700801	-1.433069	-0.680018	0.082991	-0.329565	-0.947649	10.548979	1.859958	-0.152542	6.191264	10.9163	-9.355094	-0.597303	-0.103817	0.131438
8.088081	4.839654	19.628525	-119.398033	-206.037982	180.078634	0.915165	-0.238549	-0.279718	2.697318	3.476977	9.511054	1.849974	-2.933775	-2.60696	0.108798	-0.299846	-0.935858	10.657242	1.799387	-0.68975	-1.895311	9.288301	-8.523464	-0.625816	-0.151977	0.118281
7.263856	-0.794826	18.224814	-132.60768	-158.572499	114.825178	0.958642	-0.229088	-0.322993	2.747091	3.758238	9.172662	4.423181	-4.618325	-2.590812	0.096488	-0.282457	-0.965286	10.541546	1.742075	-0.572384	-6.747474	6.901833	-7.180382	-0.625678	-0.134958	0.101916
5.752879	-2.489552	11.141309	-63.455375	-156.539278	142.729524	0.917437	-0.269277	-0.311698	2.329651	4.378106	8.541686	-3.995486	-5.750402	-0.543366	0.082921	-0.284676	-0.936311	10.357895	1.740997	-0.935127	-8.402661	4.607342	-7.713538	-0.584089	-0.170036	0.165912
6.657384	2.735276	10.783112	-24.80295	-179.270753	131.616485	0.905546	-0.247733	-0.395805	2.970362	4.884227	8.951888	-7.976391	-5.175903	2.356989	0.108948	-0.269205	-0.937866	10.005574	1.451674	-0.883059	-8.396903	2.730094	-9.568807	-0.597725	-0.117531	0.085692
6.373112	0.597801	7.870222	0.693605	-204.123405	93.198515	0.876176	-0.240269	-0.37037	2.511887	3.81481	8.941315	-11.08726	-4.306588	4.058686	0.095972	-0.269281	-0.93759	9.649951	1.16161	-1.010712	-8.564575	1.358041	-10.05062	-0.611633	-0.117735	0.085622
6.307281	0.13638	7.412353	14.208551	-243.046745	85.784625	0.87882	-0.267469	-0.416426	3.151366	3.7012	9.237717	-9.774468	-5.545624	3.831624	0.082626	-0.285748	-0.921961	9.28651	1.392746	-1.49558	-8.505114	0.865676	-9.742881	-0.625887	-0.151151	0.102753
6.029295	1.000141	7.86523	10.02839	-267.792299	60.44232	0.850578	-0.26672	-0.415728	3.036882	3.363433	9.235014	-12.706657	-5.310088	4.32486	0.05756	-0.282682	-0.964459	8.471383	0.409322	-1.035934	-7.314573	0.08539	-10.782521	-0.625119	-0.104226	0.131298
4.661171	0.427926	8.120359	-0.611458	-283.117132	37.260672	0.824595	-0.2794	-0.464502	2.641824	3.026488	9.566105	-10.618634	-6.553292	1.539634	0.095897	-0.284601	-0.936586	8.229567	0.989634	-1.277491	-7.746537	0.363871	-11.240689	-0.611278	-0.121867	0.163261
3.404748	0.659328	8.267387	-5.602012	-293.673449	24.532178	0.795582	-0.251109	-0.470635	2.917478	3.701489	9.062962	-9.50208	-6.344919	-0.029631	0.096268	-0.268209	-0.95194	8.048116	0.98905	-1.52042	-9.803352	1.488258	-11.238606	-0.584096	-0.132693	0.071071
1.587081	0.66379	8.970845	-11.206591	-299.650038	12.001486	0.754335	-0.2394	-0.511815	2.863539	3.701739	9.231672	-4.572854	-4.963153	-0.135238	0.057195	-0.238865	-0.93877	8.344838	0.756318	-1.456	-11.522752	2.306712	-11.114044	-0.597721	-0.136202	0.133112
0.33635	0.724074	9.401415	-14.484699	-299.58064	4.56011	0.742058	-0.204084	-0.599338	2.798936	3.588901	8.890531	-0.282041	-5.327926	-1.676815	0.121704	-0.254882	-0.924795	8.049487	0.873145	-1.461008	-11.829233	1.898478	-10.194178	-0.61177	-0.134754	0.101987
-1.377983	0.783482	9.53881	-14.021342	-292.000051	1.12441	0.728323	-0.217481	-0.595573	2.750048	3.47668	9.285704	0.816417	-6.559448	-3.476196	0.056894	-0.300146	-0.934756	7.933656	0.873909	-1.343395	-9.976588	1.527336	-9.160059	-0.611353	-0.102369	0.100312
-2.67805	0.673171	10.365514	-15.737891	-276.449705	-0.519619	0.672213	-0.212454	-0.608252	3.545862	3.700114	8.849702	2.080871	-4.189337	-2.403463	0.05793	-0.26629	-0.979812	8.53098	1.106594	-0.912053	-8.926136	1.123353	-8.183991	-0.583675	-0.11898	0.116818
-3.819141	1.306822	10.573311	-20.041662	-259.962511	0.895145	0.672541	-0.157028	-0.674803	3.039623	3.194536	9.348151	5.437664	-5.290174	-5.741115	0.06958	-0.240933	-0.910346	8.410571	0.234735	-1.15759	-9.11228	0.038183	-6.833452	-0.598351	-0.166109	0.088203
-4.269299	1.193959	10.961892	-22.995582	-249.713839	4.842127	0.631323	-0.179918	-0.681	2.74994	3.53301	9.285752	7.633164	-4.965145	-4.287211	0.096337	-0.313098	-0.963279	8.588335	0.87366	-1.031756	-8.223826	-1.18974	-6.097339	-0.598071	-0.150742	0.102894
-4.430259	1.656029	11.529013	-22.756083	-249.503141	10.763492	0.632452	-0.186632	-0.705736	2.451126	3.589453	8.769998	8.849142	-4.118662	-4.771061	0.095677	-0.270352	-0.92324	8.53233	0.525834	-0.914526	-8.073756	-2.11285	-5.51281	-0.584301	-0.167557	0.119329
-4.752505	1.488537	12.601817	-18.340054	-253.562065	17.768575	0.56032	-0.146975	-0.700161	2.639537	3.589746	9.50994	9.7533	-3.52022	-5.442594	0.057635	-0.267362	-0.965462	8.478236	-0.170202	-0.738872	-8.692766	-2.607329	-5.233154	-0.59828	-0.166935	0.103731
-5.888354	1.031763	13.032441	-10.69585	-251.990073	26.051349	0.604582	-0.182355	-0.719113	2.803987	3.47643	9.116994	11.169936	-3.668399	-3.469947	0.095677	-0.270352	-0.92324	8.30752	-0.052161	-0.382238	-9.591734	-3.1602	-5.318944	-0.625954	-0.168996	0.134646
-6.51242	0.803659	13.303493	-2.741316	-244.658689	33.935722	0.561049	-0.122619	-0.745805	3.04271	3.476331	9.518307	13.900503	-5.278192	-5.210115	0.109093	-0.298774	-0.950208	8.481848	0.644099	-0.435876	-8.86645	-3.781621	-7.091164	-0.612467	-0.182505	0.08897
-7.321403	0.285577	12.887761	-2.249795	-234.336771	40.908615	0.505696	-0.127835	-0.769144	2.690627	3.814723	9.22814	8.546064	-8.450748	-4.043684	0.056379	-0.28697	-0.90706	9.13006	0.58429	-0.483926	-9.185307	-4.41469	-8.095502	-0.584305	-0.148886	0.071908
-7.776181	0.401515	13.049895	-14.004933	-224.898889	44.836173	0.479298	-0.092145	-0.856317	3.341071	3.025527	9.977089	7.326336	-9.71773	-4.920442	0.095527	-0.300993	-0.921233	8.778974	0.237138	-0.372198	-10.812825	-4.526203	-6.744389	-0.584025	-0.13352	0.086599
-7.875225	0.5773	13.844335	-28.79235	-212.947244	45.563292	0.494204	-0.137361	-0.832343	2.935025	2.744487	9.798471	2.997429	-14.895862	-4.574648	0.043403	-0.287045	-0.906784	9.013918	-0.228504	-0.489588	-12.407325	-3.679268	-6.375921	-0.625399	-0.119592	0.116607
-10.132246	0.930845	15.506836	-31.970798	-195.901631	43.948263	0.437708	-0.118563	-0.848438	2.882557	3.871489	10.138048	4.308813	-18.478847	-2.759545	0.08218	-0.317461	-0.905604	9.429907	-0.519335	-0.363307	-13.347044	-2.564471	-5.063694	-0.584652	-0.182097	0.08911
-11.451615	1.333406	15.369209	-22.277865	-173.83438	41.365948	0.394546	-0.055299	-0.889206	3.155831	2.631015	9.350095	-4.995356	-27.799109	7.005336	0.082551	-0.301068	-0.920957	9.427166	-0.287525	-0.482132	-14.1639	-1.231001	-4.150247	-0.598418	-0.183954	0.120096
-13.273435	1.554325	12.947826	-12.995832	-155.249377	33.638488	0.411339	-0.117472	-0.900628	2.528379	4.040796	9.73446	-24.612042	-37.728845	5.411068	0.069505	-0.256254	-0.909343	9.597207	-0.115186	-0.83753	-14.9121	-0.034787	-1.769398	-0.598209	-0.167761	0.119259
