1757_acc_x	1757_acc_y	1757_acc_z	1757_gyro_x	1757_gyro_y	1757_gyro_z	1757_mag_x	1757_mag_y	1757_mag_z	1758_acc_x	1758_acc_y	1758_acc_z	1758_gyro_x	1758_gyro_y	1758_gyro_z	1758_mag_x	1758_mag_y	1758_mag_z	1759_acc_x	1759_acc_y	1759_acc_z	1759_gyro_x	1759_gyro_y	1759_gyro_z	1759_mag_x	1759_mag_y	1759_mag_z
-3.629427	1.757745	8.589837	-0.223573	0.183342	0.003623	0.499906	-0.24013	-0.886056	3.389542	0.828007	9.353413	-0.563163	-0.559294	0.03509	-0.156516	0.053795	-0.582341	9.915538	3.143319	0.85921	-0.579073	1.083214	1.535269	-0.144127	-0.495283	0.03046
-3.627739	2.504967	8.70668	-0.132448	-0.001663	0.092358	0.806657	-0.058762	-0.980372	3.047106	0.547096	9.459202	-0.622885	-0.377497	0.252646	0.134084	-0.31716	-0.906707	10.093957	3.027009	0.921924	-0.247357	0.694965	0.741279	-0.260382	-0.624965	-0.598372
-3.332517	2.449249	9.166831	-0.131925	-0.034481	0.27583	0.807043	-0.072534	-0.976957	2.941646	0.547691	9.909901	-0.687286	-0.592332	0.157974	0.145954	-0.306053	-0.850587	9.684686	2.796392	1.092952	0.555015	1.193271	0.155298	-0.260591	-0.641157	-0.597535
-3.399834	2.50456	8.654281	-0.193527	-0.159085	0.396654	0.764681	-0.07141	-0.975909	3.394031	0.377505	9.522952	-0.498139	-0.283934	0.253677	0.121039	-0.272346	-0.895092	9.205393	2.563437	0.663812	1.640691	1.681544	0.638043	-0.246265	-0.608568	-0.599139
-3.805028	2.446444	8.418833	0.052737	-0.16107	0.671923	0.779559	-0.082027	-0.986918	2.936056	0.941815	9.683674	-0.43327	-0.038031	0.287002	0.081515	-0.334925	-0.875901	9.496363	2.910477	0.491076	3.366303	1.255085	1.061712	-0.260729	-0.658176	-0.58117
-3.511909	2.217918	8.764554	0.083789	-0.193397	0.824647	0.792536	-0.058388	-0.980023	3.046136	1.054071	9.459628	-0.768741	0.295374	0.228392	0.106656	-0.32267	-0.834407	9.430319	2.618501	0.069392	3.893159	1.810738	0.751521	-0.247242	-0.671685	-0.626846
-3.499661	2.220572	9.389938	0.207101	-0.19491	1.008274	0.779888	-0.026601	-1.05347	2.701306	1.392748	9.509299	-0.921964	0.414463	0.476077	0.14669	-0.333478	-0.891629	10.203861	2.734381	0.443633	4.138457	2.000522	0.230156	-0.232637	-0.62373	-0.613759
-4.032974	2.504292	8.471474	0.239572	-0.043542	1.225315	0.808186	-0.096547	-0.984201	2.879053	1.279954	9.739389	-0.920209	0.566781	0.631734	0.133864	-0.302912	-0.893361	9.728431	2.73472	0.255109	2.903386	2.309866	-0.530918	-0.246892	-0.657145	-0.596627
-3.968914	2.333374	8.812982	-0.064943	0.262346	1.231163	0.778416	-0.058013	-0.979674	3.045251	0.885032	9.402846	-0.704339	0.53886	0.63163	0.121629	-0.270202	-0.923792	9.372943	2.386579	0.127209	3.67778	2.336924	0.077405	-0.218587	-0.625179	-0.582633
-3.78585	2.105896	9.383888	0.086978	0.266886	0.893454	0.77803	-0.044242	-0.98309	3.397357	1.166322	9.750175	-0.705586	0.446463	0.692367	0.133349	-0.289735	-0.865665	9.198541	3.142961	0.366749	3.957164	2.085952	0.780539	-0.246128	-0.591549	-0.615504
-4.140428	1.988849	8.808193	-0.464535	0.326469	0.834675	0.792536	-0.058388	-0.980023	3.043826	0.997646	9.346302	-0.644306	0.387326	0.476031	0.146765	-0.318157	-0.892633	9.496613	2.329469	0.428697	3.85634	1.542569	0.049986	-0.246128	-0.591549	-0.615504
-3.451646	2.678133	8.938157	-0.55544	0.698646	0.503639	0.792908	-0.05486	-0.994099	3.345813	0.546984	9.975002	-0.706016	0.386944	0.414321	0.120298	-0.305131	-0.864386	9.320955	2.678825	0.546693	4.810829	2.01431	-0.872605	-0.232358	-0.608364	-0.599068
-3.514219	2.332319	8.65133	0.179141	0.454487	0.650896	0.779173	-0.068256	-0.990334	2.816844	0.547527	9.454366	-0.894772	0.137865	0.62749	0.121039	-0.272346	-0.895092	9.248463	2.792145	-0.172796	5.245124	2.13507	-0.569128	-0.260453	-0.624138	-0.6139
-3.628479	1.987752	8.647656	-0.095382	0.543309	0.837136	0.792165	-0.061916	-0.965947	2.994723	0.998085	9.74157	-0.554976	0.113323	0.350066	0.159886	-0.347651	-0.905251	9.616461	2.968777	0.613338	5.654042	2.307441	0.651084	-0.2188	-0.6227	-0.629217
-3.393361	2.793216	8.996606	0.027058	0.481722	0.897118	0.751289	-0.046679	-1.021203	3.154876	0.602927	9.121829	-1.018116	0.137504	0.442418	0.120223	-0.320451	-0.863382	9.430454	2.560425	0.069144	5.347513	2.36499	0.896424	-0.233122	-0.67396	-0.580192
-3.683548	2.045718	8.76049	0.363136	0.204624	1.075654	0.779545	-0.064728	-1.00441	3.045382	1.448385	9.45996	-0.76913	0.293361	0.536652	0.146545	-0.303909	-0.879287	9.140895	3.027192	0.425061	4.945695	2.303315	0.806485	-0.273802	-0.59361	-0.584588
-3.798388	2.505333	8.760193	0.637342	0.085418	0.858253	0.807043	-0.072534	-0.976957	3.34549	0.715976	9.975145	-1.080879	0.074384	0.59588	0.133343	-0.349945	-0.876	9.429353	2.560178	0.009237	4.735166	2.633984	1.294679	-0.246265	-0.608568	-0.599139
-3.398514	2.217594	8.709928	0.513254	-0.12993	0.824443	0.750532	-0.036437	-1.010543	3.330552	0.940729	9.295659	-0.892629	0.292195	0.474885	0.120518	-0.319379	-0.877732	9.668044	2.850759	0.194596	3.900411	2.324775	1.329741	-0.246612	-0.641779	-0.581937
-3.510754	2.160718	8.821166	0.421083	0.120711	0.368764	0.793679	-0.082402	-0.987268	2.983496	0.546967	9.174795	-0.8631	0.170934	0.319563	0.108207	-0.30199	-0.907159	9.189177	2.908432	-0.173402	3.189115	2.202072	1.118961	-0.274778	-0.656727	-0.612296
-4.025221	2.563423	8.869687	0.607123	0.553553	0.221924	0.794065	-0.096173	-0.983852	2.928372	1.166853	9.344026	-0.864347	0.078537	0.380299	0.120963	-0.287667	-0.894089	9.193174	3.083649	0.066968	2.477818	1.737837	1.398821	-0.232637	-0.62373	-0.613759
-3.910504	2.276132	8.870707	0.267822	0.307863	0.065568	0.79215	-0.044617	-0.983439	3.055137	0.77275	9.855868	-1.017922	0.138511	0.288288	0.120888	-0.302987	-0.893085	9.255896	2.910028	0.247047	1.579685	1.338531	1.251163	-0.246195	-0.609394	-0.583611
-3.96549	2.219215	8.983058	0.422515	0.554781	0.038468	0.8078	-0.082776	-0.987617	3.394485	0.771867	9.579924	-1.266519	0.013319	0.194358	0.120888	-0.302987	-0.893085	9.546285	2.55966	-0.048469	0.711919	0.474503	1.686315	-0.246332	-0.626413	-0.567246
-3.676908	2.104607	9.101849	-0.005945	0.801413	-0.201634	0.77953	-0.047428	-1.021902	3.224099	0.828615	9.689624	-1.176644	-0.229214	-0.054606	0.121554	-0.285523	-0.922788	9.6031	2.559031	-0.167182	-0.18375	0.194721	1.813147	-0.26024	-0.626617	-0.567316
-3.621016	2.448973	9.047558	0.208625	0.864921	-0.293224	0.821506	-0.034781	-1.026365	3.223452	1.166598	9.689908	-1.178399	-0.381533	-0.210262	0.159816	-0.302762	-0.893912	9.543004	3.023774	-0.166304	-1.20905	-0.415053	1.269632	-0.246962	-0.656319	-0.612155
-3.68491	2.390126	8.705084	0.270664	1.019562	-0.352225	0.835269	-0.055983	-0.995147	3.106766	0.716075	9.573832	-1.211281	-0.535451	-0.180991	0.133569	-0.303984	-0.879011	9.605031	2.675677	-0.046874	-1.955611	-0.653603	0.417708	-0.260591	-0.641157	-0.597535
-3.573534	2.102111	8.535545	0.057973	1.326225	-0.377297	0.778401	-0.040714	-0.997166	3.265841	0.884221	8.954565	-1.434325	-1.088959	-0.371643	0.133864	-0.302912	-0.893361	10.014438	2.848219	-0.21815	-2.35879	-0.867909	0.297939	-0.245982	-0.611873	-0.537027
-3.685034	2.56245	8.705808	-0.062696	1.664396	-0.432789	0.835284	-0.073283	-0.977655	2.817622	0.772897	9.511195	-1.498063	-1.243068	-0.373226	0.146174	-0.320301	-0.863933	9.892544	2.615196	-0.460967	-3.134462	-1.016692	-0.370925	-0.260382	-0.624965	-0.598372
-3.389937	2.679056	9.166683	-0.213534	2.001034	-0.365548	0.765052	-0.067882	-0.989985	3.390751	0.828055	9.410052	-1.497477	-1.182744	-0.218486	0.146545	-0.303909	-0.879287	9.897371	2.906812	-0.160196	-3.96854	-0.923505	-0.796227	-0.218796	-0.641371	-0.581796
-3.688168	2.274519	8.534042	-0.310084	1.700937	-1.044845	0.764667	-0.05411	-0.993401	3.15831	1.335413	9.349004	-1.772409	-0.969603	-0.524868	0.134235	-0.28652	-0.908714	9.372808	2.444655	0.127456	-4.587814	-1.044928	-1.099031	-0.246683	-0.640953	-0.597464
-3.682517	2.160842	8.817825	-0.187372	1.701161	-1.014526	0.791779	-0.048145	-0.969363	3.330229	1.10972	9.295801	-1.36677	-0.685906	-0.922486	0.159666	-0.333403	-0.891905	9.722793	2.791559	-0.044178	-4.965237	-1.497847	-1.798441	-0.246474	-0.624761	-0.598302
-3.968707	2.046166	8.811775	-0.371797	1.482747	-0.802868	0.794437	-0.092644	-0.997928	2.811016	0.434629	9.171073	-1.827417	-0.476929	-0.951606	0.172277	-0.28951	-0.866492	9.661036	3.023504	-0.164104	-5.64403	-1.21994	-2.286307	-0.246892	-0.657145	-0.596627
-3.567144	2.50565	8.878353	0.089528	1.448947	-0.344725	0.834898	-0.059512	-0.981071	2.75181	0.660012	9.113414	-1.94889	-0.324366	-1.073499	0.145954	-0.306053	-0.850587	9.253695	2.909533	0.127233	-5.984559	-1.37379	-2.314901	-0.2608	-0.65735	-0.596698
-3.56141	2.27709	9.161653	-0.218196	1.48242	-0.711312	0.750903	-0.032908	-1.024619	3.104479	1.279333	9.517667	-1.826717	-0.444653	-1.197909	0.134605	-0.270127	-0.924067	9.606827	2.8504	0.073682	-5.98569	-1.495832	-2.344877	-0.232775	-0.640749	-0.597394
-3.508817	2.563291	8.936561	-0.09376	1.44635	-0.1909	0.778802	-0.071784	-0.976258	3.159735	1.2228	9.405549	-1.799798	-0.751314	-1.139281	0.133864	-0.302912	-0.893361	9.559916	2.853254	0.731557	-6.696927	-1.401256	-2.862311	-0.232637	-0.62373	-0.613759
-3.676867	2.047165	9.101608	-0.46202	1.101717	0.23391	0.793665	-0.065102	-1.004759	3.44998	1.222356	9.524873	-1.897665	-1.15174	-1.050857	0.134235	-0.28652	-0.908714	9.49111	2.328233	0.129163	-6.384384	-1.377123	-2.130063	-0.190701	-0.625597	-0.566965
-3.911659	2.333332	8.814095	-0.709072	0.980774	-0.043356	0.793294	-0.068631	-0.990683	3.507629	0.546234	9.468873	-1.742142	-1.087041	-1.265885	0.120668	-0.288738	-0.879739	9.5448	3.198497	-0.045749	-6.632715	-1.312734	-2.526781	-0.246754	-0.640127	-0.612992
-3.513437	2.792092	8.710114	-1.232155	0.827812	-0.320348	0.807014	-0.037935	-1.01194	3.111278	0.885256	9.800533	-1.649965	-1.117134	-1.173626	0.120743	-0.273418	-0.880743	10.266604	3.025615	0.685597	-5.709132	-1.399914	-2.651959	-0.246053	-0.611047	-0.552555
-3.508486	2.103759	8.934631	-0.898037	0.587704	-0.693228	0.794037	-0.061574	-1.018835	3.047214	0.490766	9.459154	-1.306113	-0.805568	-1.262735	0.171015	-0.369328	-0.818425	10.21228	3.375442	0.985515	-4.571022	-2.232349	-7.541969	-0.232917	-0.639096	-0.62845
-3.630007	2.561926	8.593216	-0.929242	0.557872	-0.785627	0.807028	-0.055234	-0.994448	3.443935	1.222118	9.241675	-1.028766	-0.862968	-1.324739	0.120738	-0.333628	-0.891078	10.618345	2.617531	0.510749	-3.652639	-3.368608	-12.70458	-0.246265	-0.608568	-0.599139
-3.853043	1.988883	8.870614	-0.927452	0.646591	-0.47751	0.821163	-0.072908	-0.977306	3.110069	0.885209	9.743893	-0.010192	-0.912168	-1.201096	0.094786	-0.333778	-0.890526	10.096428	2.911351	1.041243	-5.970863	-3.428015	-13.673811	-0.232566	-0.624556	-0.598231
-3.629841	2.33216	8.59225	-1.172168	0.737989	-0.505988	0.807443	-0.103604	-0.956049	3.730985	0.99621	9.19089	-1.122226	-0.868169	-0.708305	0.133714	-0.333553	-0.891353	8.154627	1.871181	1.180199	-8.592491	-0.165633	-1.730537	-0.274357	-0.643014	-0.566549
-3.397566	2.447601	8.767746	-0.650102	0.674786	-0.140502	0.793679	-0.082402	-0.987268	3.156216	1.166327	9.235583	-0.968339	-0.897881	-0.554336	0.108207	-0.30199	-0.907159	8.211618	2.742186	1.185008	-5.260628	0.811784	8.430442	-0.260662	-0.640331	-0.613062
-3.745215	1.987353	8.531722	-0.524726	0.823802	0.321577	0.807414	-0.069005	-0.991033	3.679356	1.052885	9.472926	-1.340081	-0.93647	-0.06177	0.134084	-0.31716	-0.906707	8.362121	2.793923	-0.249209	-1.931437	-0.575377	4.696138	-0.246616	-0.623108	-0.629357
-3.967883	2.448498	8.870317	0.24179	0.513456	0.897016	0.764652	-0.036811	-1.010893	3.16226	1.166564	9.518781	-1.959955	-1.069184	0.275521	0.107397	-0.289885	-0.865113	8.59859	2.619155	-0.245549	0.351178	-1.131247	0.075441	-0.260733	-0.639505	-0.62859
-3.567967	2.103318	8.819811	0.55042	0.602563	1.296256	0.765438	-0.081653	-0.986569	3.453391	1.335159	9.694886	-2.422239	-0.954617	0.615397	0.160111	-0.30169	-0.908262	9.12767	2.559369	-0.355706	2.10245	-0.740518	-1.613714	-0.232495	-0.625383	-0.582704
-3.862489	2.733693	8.418926	0.613406	0.504048	1.877159	0.82002	-0.048894	-0.970061	2.812679	0.829038	9.284684	-2.828311	-1.297834	0.73497	0.120223	-0.320451	-0.863382	9.358928	2.732068	-0.59019	2.12955	-0.019199	-3.328742	-0.218521	-0.607334	-0.614526
-3.799295	2.217884	8.702133	0.645507	0.750393	1.850403	0.750903	-0.032908	-1.024619	3.333293	0.771832	9.408796	-2.615673	-1.543028	1.133469	0.120292	-0.365341	-0.874721	9.594317	3.021908	-0.584552	1.317439	-0.34375	-4.760661	-0.260382	-0.624965	-0.598372
-3.906506	2.908954	9.100774	1.13597	0.595894	2.122488	0.794037	-0.061574	-1.018835	3.163469	1.166611	9.57542	-2.39984	-1.571151	1.164192	0.14684	-0.302837	-0.893636	9.896811	2.674261	-0.221092	-0.008549	0.334853	-5.76763	-0.204892	-0.622496	-0.629147
-3.961202	2.449946	9.211436	1.808986	0.195704	2.451389	0.834884	-0.042212	-0.998563	3.275297	0.997262	9.407777	-2.401322	-1.693409	1.101318	0.121033	-0.332556	-0.905427	10.137972	2.849185	0.083586	-1.822193	0.193658	-4.568485	-0.260524	-0.623312	-0.629427
-3.913022	2.67774	8.75869	2.085701	0.507439	2.179652	0.794408	-0.058046	-1.032911	3.334849	1.222571	9.522455	-2.273847	-1.413842	0.795919	0.133274	-0.305056	-0.864661	10.090366	2.677564	0.680813	-3.021331	-0.624274	-2.787644	-0.260733	-0.639505	-0.62859
-3.913969	2.447733	8.700872	1.898769	0.202392	1.899224	0.792908	-0.05486	-0.994099	2.931975	0.547312	9.456784	-2.115635	-1.16334	0.305287	0.159	-0.350867	-0.862202	9.55868	2.911083	0.671898	-3.321915	-1.136878	-0.644737	-0.232917	-0.639096	-0.62845
-3.45684	2.159953	8.65172	1.471033	0.446938	1.843095	0.807786	-0.065477	-1.005108	3.10886	0.885161	9.687253	-1.709448	-0.819519	0.093236	0.094491	-0.33485	-0.876177	9.619087	3.259899	0.794295	-2.985125	-1.627922	-0.368548	-0.232846	-0.639923	-0.612922
-3.629101	2.849375	8.651275	1.470413	0.636544	1.386163	0.792893	-0.03756	-1.011591	3.563016	1.053054	9.413869	-1.301976	-0.383101	-0.210377	0.133569	-0.303984	-0.879011	9.135393	3.025955	0.125527	-2.67437	-1.383045	-0.279154	-0.247171	-0.672512	-0.611318
-3.908402	2.448939	8.985137	0.825782	0.511307	1.324648	0.807814	-0.100076	-0.970125	3.213997	1.053558	9.236697	-1.144972	-0.196145	-0.362532	0.095012	-0.287817	-0.893537	8.537394	3.083651	-0.304579	-2.301195	-1.170427	-0.006455	-0.261008	-0.673542	-0.59586
-3.512981	2.160235	8.70746	0.825095	0.5759	1.04969	0.807	-0.020635	-1.029432	3.393276	0.771819	9.523284	-0.992799	-0.349321	-0.08648	0.14684	-0.302837	-0.893636	8.89176	2.966689	-0.29847	-1.399742	-0.156503	-0.13681	-0.232566	-0.624556	-0.598231
-3.862034	2.101836	8.416272	0.272701	0.669344	0.715454	0.792536	-0.058388	-0.980023	3.391529	1.053424	9.466882	-0.684752	-0.407335	0.005675	0.134159	-0.30184	-0.90771	8.770967	2.733913	-0.481381	-1.957896	0.251143	-1.298117	-0.219355	-0.672103	-0.611178
-3.911908	2.677982	8.815543	0.271665	0.641046	0.500322	0.821921	-0.083151	-0.987966	2.817407	0.885558	9.51129	-0.528022	-0.25044	-0.239263	0.159521	-0.303834	-0.879562	9.481382	3.197643	-0.286477	-2.298666	0.749759	-2.307822	-0.218658	-0.624352	-0.598161
-3.683672	2.218042	8.761213	-0.156642	0.949837	0.199895	0.820406	-0.062665	-0.966646	3.332408	0.602793	9.352014	-0.930659	-0.318073	-0.055291	0.120668	-0.288738	-0.879739	9.362904	2.44243	-0.411706	-3.530181	0.866105	-2.151106	-0.232775	-0.640749	-0.597394
-3.798761	3.022307	8.762365	-0.093916	1.039885	0.415853	0.85129	-0.090614	-1.0134	3.335388	0.940918	9.522218	-1.085404	-0.350094	-0.148219	0.107617	-0.304134	-0.87846	9.543679	2.733394	-0.167541	-4.400204	0.161647	-2.358529	-0.246962	-0.656319	-0.612155
-3.793893	2.448856	8.987364	0.273467	0.980138	0.413824	0.806671	-0.076062	-0.962881	3.097418	0.546704	9.120573	-0.92688	-0.069332	-0.576892	0.146985	-0.332406	-0.905979	9.903683	2.559592	0.137855	-4.157797	-0.419295	-2.29551	-0.218521	-0.607334	-0.614526
-3.735566	2.506498	9.045572	0.307422	1.095907	1.059632	0.805885	-0.03122	-0.987204	3.737221	0.264103	9.416832	-0.004575	-0.396096	-0.394431	0.107171	-0.335847	-0.862103	9.367886	3.140826	-0.049298	-4.375346	-0.851474	-1.987036	-0.218725	-0.642197	-0.566268
-3.85787	2.504892	8.645373	0.185287	0.937504	1.425421	0.807028	-0.055234	-0.994448	3.450411	0.997033	9.524683	-0.963854	-0.502254	-0.087978	0.159891	-0.287441	-0.894916	10.08722	3.083602	0.562729	-3.632034	-0.917242	-1.286477	-0.218517	-0.626005	-0.567105
-3.737752	2.448574	8.931624	0.858669	0.880579	1.299887	0.792179	-0.079216	-0.948455	3.223452	1.166598	9.689908	-1.059889	-0.77861	-0.214115	0.120813	-0.318307	-0.892081	9.382307	2.621108	0.66736	-3.413809	-0.889974	-0.890084	-0.260382	-0.624965	-0.598372
-3.450366	2.448608	8.994045	0.827288	0.632148	1.510614	0.836441	-0.114596	-0.967408	3.62738	0.658869	9.697944	-1.120117	-0.628082	0.095614	0.069135	-0.272646	-0.893989	9.550707	3.025505	0.253044	-3.100824	-0.61829	-0.434073	-0.26115	-0.67189	-0.626916
-3.797109	2.275808	8.816081	1.163618	0.604729	1.355862	0.834169	-0.083868	-0.935427	2.92222	1.222946	9.060876	-0.995136	-0.504659	0.220254	0.134605	-0.270127	-0.924067	9.203618	2.85357	0.605141	-2.509649	-0.12959	-0.163481	-0.246754	-0.640127	-0.612992
-3.457172	2.619485	8.65365	0.948396	0.66832	1.081505	0.806671	-0.076062	-0.962881	3.038968	0.377773	9.062582	-1.089183	-0.598836	0.373383	0.108943	-0.329415	-0.948201	8.784037	2.794956	0.237749	-1.704617	0.301546	-0.168455	-0.288198	-0.625373	-0.598512
-3.968132	2.793147	8.871765	0.947173	0.515356	1.017687	0.793279	-0.051331	-1.008175	3.047214	0.490766	9.459154	-1.17902	-0.384753	0.282955	0.119852	-0.336843	-0.848029	8.728478	3.202612	0.478007	-1.361911	0.730704	-0.141181	-0.246892	-0.657145	-0.596627
-3.744391	2.389685	8.590265	0.364176	0.57723	0.744361	0.834926	-0.09411	-0.946087	3.508192	0.884265	9.525797	-1.146411	-0.260896	0.1609	0.121259	-0.286595	-0.908438	8.841548	2.968802	0.179684	-0.870227	0.673506	-0.356628	-0.218867	-0.640545	-0.597324
-3.627863	2.677292	8.707404	0.054463	0.146944	0.615588	0.777673	-0.06507	-0.951522	3.03856	1.222778	9.119933	-1.020846	-0.105802	0.131715	0.147726	-0.299621	-0.936686	9.438177	3.027011	0.550377	-0.159378	0.890183	-0.360237	-0.246612	-0.641779	-0.581937
-3.397773	2.734809	8.768953	0.083462	-0.129847	0.641674	0.807028	-0.055234	-0.994448	3.680541	0.43325	9.472405	-0.801039	0.173127	0.103838	0.120593	-0.304059	-0.878735	9.022323	3.259766	0.423849	0.305397	1.415339	-0.700617	-0.232704	-0.641575	-0.581866
-3.411218	2.846797	8.087198	0.020779	-0.251322	0.486541	0.793294	-0.068631	-0.990683	3.507091	0.827887	9.46911	-0.83396	0.019008	0.163935	0.120443	-0.3347	-0.876728	8.662028	3.084864	0.057064	1.171788	1.785205	-0.674957	-0.274152	-0.60815	-0.614807
-3.738907	2.505774	8.875013	-0.193647	-0.158738	0.365992	0.807414	-0.069005	-0.991033	3.216176	0.546631	9.292909	-0.678242	0.113365	0.103342	0.120888	-0.302987	-0.893085	9.257287	3.258978	0.368344	2.225683	2.088884	-0.09953	-0.261217	-0.689735	-0.595023
-3.851479	2.90843	8.988181	-0.131971	-0.347363	0.761431	0.8063	-0.07959	-0.948805	3.327033	0.884256	9.125693	-0.769911	0.203379	0.227476	0.172277	-0.28951	-0.866492	9.193869	3.258125	0.127616	3.152194	2.368781	-0.226473	-0.275196	-0.689112	-0.610621
-3.223576	2.447959	8.884793	-0.130771	-0.350839	1.068048	0.778773	-0.037186	-1.011242	3.560167	1.278281	9.300779	-0.428787	0.328941	0.444796	0.108283	-0.28667	-0.908163	9.441478	3.027753	0.730098	4.017297	2.61692	-0.261353	-0.274357	-0.643014	-0.566549
-3.799543	2.562533	8.703581	-0.34556	-0.601521	1.401937	0.794422	-0.075345	-1.015419	3.051965	1.166969	9.742921	-0.828696	0.475962	0.630905	0.081885	-0.318532	-0.891254	9.371032	2.734788	0.068786	4.974105	2.742717	-0.265418	-0.246195	-0.609394	-0.583611
-3.915249	2.677258	8.644984	-0.069893	-0.912768	1.8561	0.807428	-0.086305	-0.973541	3.387017	0.884243	9.240181	-0.641498	0.631034	0.725082	0.13431	-0.271199	-0.909718	9.789128	3.432238	0.438897	5.495158	2.626341	-0.664066	-0.246683	-0.640953	-0.597464
-3.852675	3.023072	8.931811	0.019911	-1.093949	1.607556	0.765052	-0.067882	-0.989985	3.571131	0.602694	9.753327	-0.238314	0.758789	0.726676	0.14684	-0.302837	-0.893636	9.374489	3.142309	0.310144	6.049715	2.784439	-0.972455	-0.246683	-0.640953	-0.597464
-3.681487	2.275966	8.875161	0.045591	-1.736745	1.382362	0.820392	-0.045366	-0.984137	3.504349	0.996783	9.355973	0.908976	1.052897	0.175618	0.159226	-0.304906	-0.865213	9.257962	2.968598	0.367108	5.585672	2.97199	-1.521796	-0.260591	-0.641157	-0.597535
-4.148845	2.848783	8.413841	-0.323223	-1.766761	1.168262	0.806671	-0.076062	-0.962881	3.046328	0.321727	9.402372	0.239363	1.841153	0.244573	0.133864	-0.302912	-0.893361	9.003885	3.139411	-0.595062	5.732797	2.330556	-7.478814	-0.232566	-0.624556	-0.598231
-3.452842	2.792774	8.881787	-0.017648	-1.88791	1.134745	0.794037	-0.061574	-1.018835	3.336381	1.053627	9.578952	1.018067	2.313536	-0.150868	0.133939	-0.287591	-0.894364	8.892591	3.083088	-0.238069	5.931938	2.85986	-11.271574	-0.260941	-0.655697	-0.627753
-3.395256	2.333201	8.88097	-0.818702	-2.223774	0.610241	0.792536	-0.058388	-0.980023	3.560275	1.22195	9.300732	0.968362	3.234698	-0.450029	0.120963	-0.287667	-0.894089	8.882491	1.744373	-0.962638	7.890326	0.408199	-16.064813	-0.232566	-0.624556	-0.598231
-3.851313	2.678664	8.987216	-1.494021	-2.067351	0.093373	0.793308	-0.08593	-0.973192	2.708882	1.224041	9.848994	1.101448	3.944361	-0.874458	0.133569	-0.303984	-0.879011	8.595134	2.211634	-0.486907	8.333106	3.351691	4.120633	-0.232562	-0.643228	-0.550811
-3.396328	2.275518	8.823875	-0.882562	-2.185331	-0.094312	0.793308	-0.08593	-0.973192	3.16621	0.997715	9.688557	0.984149	4.462273	-0.59195	0.121259	-0.286595	-0.908438	9.366651	3.198654	-0.108957	7.64147	8.287041	5.811173	-0.219288	-0.654258	-0.64307
-3.508118	3.137948	8.995827	-0.977629	-2.521033	-0.344838	0.752061	-0.074221	-1.014372	3.565973	0.771496	9.526911	0.738595	4.581995	-0.621785	0.133789	-0.318232	-0.892357	9.848103	2.502393	0.316228	9.217227	7.351728	2.142268	-0.274428	-0.642187	-0.582077
-3.514467	2.676968	8.652778	-1.347612	-2.485065	-0.956549	0.808943	-0.10679	-0.994861	3.278038	0.828365	9.520914	1.38881	4.683627	-0.836048	0.107467	-0.334775	-0.876452	10.019089	2.2682	-0.040901	7.898544	4.690735	1.670729	-0.260382	-0.624965	-0.598372
-3.909598	2.563581	8.928767	-0.979723	-2.38976	-1.078732	0.765796	-0.060825	-1.018137	3.34251	0.37785	9.804941	1.3862	4.498234	-0.622097	0.159816	-0.302762	-0.893912	10.494115	2.44209	0.148365	4.723847	2.500263	-0.568983	-0.232775	-0.640749	-0.597394
-3.397649	2.562484	8.768229	-1.622691	-2.081619	-1.409223	0.793294	-0.068631	-0.990683	3.162237	0.546881	9.461619	2.080778	3.250016	-0.63395	0.120888	-0.302987	-0.893085	10.137858	3.372116	0.145718	3.421656	1.32941	-0.191925	-0.260662	-0.640331	-0.613062
-3.743402	2.562251	8.647842	-1.832499	-1.094675	-1.791266	0.737569	-0.077375	-0.999947	3.451619	0.997081	9.581322	2.027276	1.499735	-0.343117	0.14662	-0.288588	-0.88029	9.958318	3.023323	-0.038788	3.174908	0.614559	0.820957	-0.232566	-0.624556	-0.598231
-3.516487	2.389278	8.537865	-1.334254	-0.301351	-1.074438	0.765424	-0.064353	-1.004061	3.454361	0.828184	9.694459	1.926214	0.853594	-0.195483	0.133274	-0.305056	-0.864661	9.250914	2.211632	-0.115361	2.205667	-0.512177	0.004644	-0.233055	-0.656115	-0.612085
-4.026375	2.620623	8.813075	-1.394882	0.165946	-1.649365	0.763538	-0.047396	-0.968665	3.270246	1.109733	9.181313	1.762701	0.14594	-0.140995	0.095087	-0.272496	-0.894541	9.060545	2.732002	-0.775413	0.61986	-0.989294	-1.729407	-0.26052	-0.641983	-0.582007
-3.916486	2.849341	8.588855	-1.358775	0.713699	-1.149875	0.765038	-0.050582	-1.007477	3.576529	0.940914	10.03681	1.328314	-0.012469	-0.204576	0.133939	-0.287591	-0.894364	8.774403	2.676579	-0.301907	-0.032157	-1.138264	-2.337583	-0.260516	-0.660655	-0.534586
-3.964626	2.564105	9.041359	-0.990865	0.621135	-0.96843	0.793294	-0.068631	-0.990683	3.218401	1.27907	9.463445	1.24296	0.539933	-0.445776	0.08218	-0.317461	-0.905604	9.253	2.735058	0.066585	-0.18183	-0.867929	-1.910458	-0.232775	-0.640749	-0.597394
-3.798264	2.333008	8.759469	-1.911778	0.464574	-1.090996	0.793679	-0.082402	-0.987268	3.394377	0.828197	9.579971	1.3395	0.818904	-0.720377	0.133939	-0.287591	-0.894364	9.554819	2.67779	0.431281	-0.826385	-1.031084	-1.143282	-0.218867	-0.640545	-0.597324
-3.68058	2.563415	8.933221	-1.392482	0.158993	-1.036121	0.807786	-0.065477	-1.005108	3.160058	1.053808	9.405407	1.444811	1.802154	-0.833827	0.134455	-0.300768	-0.92206	9.203058	2.621019	0.544245	-1.374567	-1.108129	0.203832	-0.219147	-0.655911	-0.612015
-3.457213	2.676926	8.653892	-1.763525	0.010222	-1.620166	0.807786	-0.065477	-1.005108	3.157856	0.941052	9.292032	1.543183	2.233842	-1.014424	0.14625	-0.304981	-0.864937	9.504181	2.389276	0.848293	-1.775606	-1.264408	0.389408	-0.246683	-0.640953	-0.597464
-3.683548	2.045718	8.76049	-1.977734	0.289979	-1.983022	0.791407	-0.051674	-0.955287	3.1105	0.659887	9.743703	1.23744	2.475641	-1.073921	0.094716	-0.288888	-0.879187	9.796385	2.678486	0.735217	-1.678437	-1.39715	1.428835	-0.233192	-0.673134	-0.59572
-3.798347	2.447891	8.759952	-2.099868	0.475884	-2.163659	0.794037	-0.061574	-1.018835	2.876181	0.885498	9.569139	1.301295	2.659002	-0.85625	0.120663	-0.348948	-0.890074	9.612349	3.316492	0.435101	-1.74449	-1.761604	1.155745	-0.246265	-0.608568	-0.599139
-3.917434	2.619334	8.531036	-2.160872	0.349541	-1.889522	0.777673	-0.06507	-0.951522	2.875403	0.660128	9.512309	0.557305	2.464602	-0.704642	0.146105	-0.275412	-0.852595	10.079631	2.55894	0.081249	-1.075593	-2.890013	1.067019	-0.2471	-0.673338	-0.59579
-3.796078	2.390932	8.873417	-2.037111	0.28413	-1.492254	0.807	-0.020635	-1.029432	3.68704	0.827848	9.812574	-0.03818	1.81159	-0.46499	0.134015	-0.272271	-0.895368	9.786772	3.024965	0.257446	-1.141607	-4.123874	2.051171	-0.260729	-0.658176	-0.58117
-4.026417	2.678065	8.813316	-1.943999	0.218576	-1.094902	0.778787	-0.054485	-0.99375	3.335711	0.771927	9.522075	0.443926	0.895304	-0.072948	0.133939	-0.287591	-0.894364	10.391374	2.968752	1.046992	-2.479352	-5.875657	2.400574	-0.218725	-0.642197	-0.566268
-3.918216	2.15956	8.472253	-2.005962	0.095015	-1.066063	0.794065	-0.096173	-0.983852	2.819501	1.054644	9.624711	0.396467	-0.365367	0.3769	0.14706	-0.317085	-0.906983	10.502918	2.444067	0.62762	-3.447673	-7.997559	3.178297	-0.233401	-0.689326	-0.594883
-3.281778	2.217994	8.825861	-1.819539	0.338947	-0.817291	0.807428	-0.086305	-0.973541	3.109507	0.547178	9.686969	0.296106	-0.950588	0.586796	0.107692	-0.288813	-0.879463	9.90878	2.735056	0.438131	-2.912325	-8.731032	6.266826	-0.232842	-0.658594	-0.565502
-3.34056	2.792209	8.770307	-1.879459	0.553784	-0.813626	0.77843	-0.075313	-0.962182	3.448424	0.771617	9.411214	0.787059	-1.219497	0.461205	0.120223	-0.320451	-0.863382	9.846058	2.908678	0.258052	-3.387662	-7.711414	8.066994	-0.274778	-0.656727	-0.612296
-3.400083	2.84921	8.655729	-2.151703	0.980307	-0.591234	0.778787	-0.054485	-0.99375	3.38965	0.771677	9.353365	1.15802	-1.213586	0.276594	0.133644	-0.288663	-0.880015	8.611526	2.738274	0.473828	-3.346075	-6.241494	7.907004	-0.24612	-0.628892	-0.520662
-3.740885	2.160642	8.759859	-2.241519	1.25542	-0.494501	0.792908	-0.05486	-0.994099	3.160381	0.884816	9.405264	1.006434	-1.000085	0.155282	0.147801	-0.284301	-0.937689	8.783497	3.02726	0.238738	-1.990071	-4.589894	5.418485	-0.232633	-0.642401	-0.566339
-3.511619	1.815827	8.762865	-1.904376	1.163061	-0.343632	0.807443	-0.103604	-0.956049	3.169837	0.997857	9.858476	1.132622	-0.784465	0.250012	0.120518	-0.319379	-0.877732	7.947657	3.375629	-0.25444	1.218401	-2.532708	2.799116	-0.218587	-0.625179	-0.582633
-3.906216	2.506863	9.099085	-2.088823	1.132514	-0.435602	0.792551	-0.075687	-0.962531	2.990426	0.716243	9.514774	1.294886	-0.226509	-0.360871	0.108352	-0.331559	-0.919501	8.002792	2.677345	-0.555841	4.267906	-0.684186	-0.39932	-0.261146	-0.690561	-0.579496
-3.731113	2.507463	9.272984	-1.844203	1.197903	-0.680587	0.834869	-0.024913	-1.016054	3.219695	0.603103	9.462876	1.269294	0.201603	-0.233322	0.121774	-0.299771	-0.936134	8.23652	2.734387	-0.671005	6.384753	-0.004211	-3.313662	-0.26052	-0.641983	-0.582007
-3.678271	2.449015	9.046444	-1.844269	1.07289	-0.498611	0.779159	-0.050957	-1.007826	2.816198	0.885511	9.45465	1.242882	0.53953	-0.384124	0.095231	-0.302065	-0.906883	8.778535	2.79372	-0.061785	6.824312	0.292834	-2.308119	-0.232708	-0.622904	-0.629287
-3.16859	2.504877	8.772441	-1.476325	1.042833	-0.408154	0.807443	-0.103604	-0.956049	3.043503	1.166637	9.346444	0.747487	0.470319	-0.138586	0.147211	-0.286445	-0.90899	9.425532	3.256595	-0.10761	5.406719	-0.489927	-1.046188	-0.233751	-0.703866	-0.625102
-3.16195	2.563766	9.113801	-1.384904	1.07608	-0.591885	0.766953	-0.102138	-1.007889	3.50873	0.602612	9.52556	0.375393	0.343963	-0.294282	0.146991	-0.272196	-0.895644	9.96382	3.02456	0.260747	3.257606	-2.3815	-2.251877	-0.219076	-0.656737	-0.596487
-3.855436	2.218167	8.757873	-1.692227	1.077082	-0.805661	0.807771	-0.048178	-1.0226	3.221573	0.884851	9.576392	0.218155	0.127147	-0.265737	0.121479	-0.300843	-0.921784	10.377068	2.965538	0.268203	0.459111	-4.985852	-2.779433	-0.274357	-0.643014	-0.566549
-3.854488	2.448174	8.815691	-1.936038	1.29106	-0.801481	0.793294	-0.068631	-0.990683	3.160166	0.997477	9.405359	0.125199	0.09591	-0.358606	0.107987	-0.287742	-0.893813	10.376508	2.732987	0.207307	-1.863879	-6.774913	-2.120674	-0.246754	-0.640127	-0.612992
-3.804904	2.274119	8.418109	-2.091387	1.171242	-1.140331	0.807371	-0.017107	-1.043508	2.818184	1.110927	9.568119	0.27776	-0.055253	-0.390815	0.172277	-0.28951	-0.866492	9.789087	2.502528	0.315127	-3.164737	-7.482467	-2.173711	-0.24675	-0.658798	-0.565572
-3.401072	2.676644	8.598152	-1.90803	1.298851	-1.476134	0.764681	-0.07141	-0.975909	3.274519	0.771892	9.350948	0.03049	-0.058993	-0.298567	0.146765	-0.318157	-0.892633	9.606111	2.211069	-0.048851	-3.690399	-7.419394	-2.538856	-0.246053	-0.611047	-0.552555
-3.572255	1.872587	8.591433	-1.816314	1.206042	-1.385902	0.778773	-0.037186	-1.011242	3.274088	0.997214	9.351137	-0.245375	0.092012	-0.482255	0.120593	-0.304059	-0.878735	9.072245	2.908949	-0.115696	-3.252241	-6.529839	-2.636375	-0.2471	-0.673338	-0.59579
-3.734246	2.219531	9.101218	-1.539922	1.237019	-1.29419	0.83567	-0.087054	-0.974239	2.978792	1.11013	9.00535	-0.396299	0.366237	-0.510478	0.134304	-0.331409	-0.920053	8.494054	2.971095	0.532523	-3.21284	-5.273083	-2.887013	-0.204959	-0.640341	-0.597254
-4.198097	2.563306	8.809493	-1.262834	1.10947	-0.775702	0.808157	-0.061949	-1.019184	2.931652	0.716303	9.456926	-0.116535	0.521882	-0.323737	0.120298	-0.305131	-0.864386	9.134158	3.083784	0.065867	-2.588024	-4.044484	-3.170198	-0.246124	-0.610221	-0.568083
-2.996453	1.987779	8.77361	-0.955511	1.108467	-0.561927	0.792922	-0.072159	-0.976607	2.526839	1.054994	9.392109	-0.389242	0.947057	-0.227244	0.120888	-0.302987	-0.893085	8.72307	2.213589	0.054456	-1.749503	-2.935249	-3.667522	-0.274495	-0.660032	-0.550184
-3.969204	2.735465	8.814671	-0.956134	0.953765	-0.472435	0.736426	-0.053361	-0.992702	2.934416	1.16709	9.627224	-0.387411	1.071125	-0.441806	0.133494	-0.319304	-0.878007	8.434072	2.912907	0.471269	-0.880645	-2.166474	-3.766023	-0.232771	-0.65942	-0.549974
-3.678022	2.104366	9.044996	-0.954071	1.104295	-0.193983	0.77843	-0.075313	-0.962182	3.16554	0.716015	9.63168	-0.477326	1.284803	-0.470581	0.133864	-0.302912	-0.893361	8.777029	2.967701	-0.120951	-0.006012	-1.28448	-2.978786	-0.218654	-0.643024	-0.550741
-3.634129	2.101429	8.363873	-0.953699	1.353625	-0.496612	0.779945	-0.095798	-0.983502	3.163446	0.546928	9.518259	-0.784317	1.462859	-0.160777	0.094491	-0.33485	-0.876177	9.431149	2.7349	0.129793	0.651208	-0.710727	-2.036475	-0.288269	-0.624547	-0.61404
-3.678063	2.161807	9.045238	-0.982794	1.787202	-0.796162	0.763924	-0.061167	-0.965249	3.512704	1.053446	9.752498	-0.728493	1.003069	-0.07282	0.107171	-0.335847	-0.862103	9.367056	3.024426	-0.109699	0.002518	-1.269652	-1.450771	-0.261217	-0.689735	-0.595023
-3.335857	2.448525	8.996272	-0.644528	2.004593	-0.854938	0.794437	-0.092644	-0.997928	3.33364	1.222524	9.465815	-0.797064	0.480178	0.045238	0.121108	-0.317235	-0.906431	9.847138	2.444069	0.256074	-0.281298	-1.879596	-1.721895	-0.247238	-0.690357	-0.579425
-3.735649	2.621381	9.046055	-0.827991	2.127704	-0.944414	0.778444	-0.092612	-0.94469	3.623538	0.771388	9.52812	-0.959797	-0.137495	0.408902	0.134304	-0.331409	-0.920053	10.139748	2.559052	0.142257	-0.993114	-2.560149	-1.227069	-0.246959	-0.67499	-0.564735
-3.693859	2.445637	8.250501	-1.592306	2.744668	-1.453545	0.835655	-0.069754	-0.991731	3.450303	1.053364	9.52473	-1.210733	-0.446676	0.313142	0.120518	-0.319379	-0.877732	9.73957	2.679116	0.853931	-1.018203	-2.322798	-0.525169	-0.26052	-0.641983	-0.582007
-3.456882	2.217394	8.651961	-1.711996	2.892191	-0.960113	0.793651	-0.047803	-1.022251	3.219156	0.884756	9.463113	-0.720166	-0.717598	0.495811	0.134084	-0.31716	-0.906707	9.666673	2.966664	0.135184	-0.619861	-2.316628	-0.985082	-0.24647	-0.643432	-0.550881
-3.675961	2.334614	9.159668	-1.096377	3.137776	-0.681881	0.792165	-0.061916	-0.965947	2.993083	1.22336	9.68512	-0.933659	-0.505485	0.46692	0.133569	-0.303984	-0.879011	9.369507	2.443913	-0.052264	0.242062	-2.341906	-1.202021	-0.246679	-0.659624	-0.550044
-3.906216	2.506863	9.099085	-1.306133	3.655037	-0.304854	0.8082	-0.113847	-0.966709	3.103032	0.772263	9.403961	-0.936935	-0.808915	-0.029349	0.14691	-0.347726	-0.904975	9.30775	2.675858	-0.17219	0.336446	-2.252013	-0.988854	-0.287914	-0.628678	-0.536401
-4.201272	2.332816	8.637968	-1.058741	3.962801	-0.239228	0.793694	-0.099701	-0.969776	3.452482	0.546437	9.580943	-0.792012	-1.515273	0.426165	0.107987	-0.287742	-0.893813	9.357962	2.673745	-0.650344	0.861453	-2.313828	-0.745959	-0.232495	-0.625383	-0.582704
-3.743195	2.275043	8.646635	-0.534916	4.270113	-0.021066	0.792908	-0.05486	-0.994099	3.05315	0.547333	9.7424	-0.637033	-1.453391	0.642702	0.120888	-0.302987	-0.893085	9.780979	2.675025	-0.103479	0.372077	-1.515872	-1.175872	-0.232704	-0.641575	-0.581866
-3.739813	2.218325	8.816953	-0.622305	5.039009	-0.100321	0.792122	-0.010018	-1.018423	3.445252	1.165835	9.298267	-1.072282	-1.673535	0.640163	0.159891	-0.287441	-0.894916	9.791443	2.909801	0.496579	0.038161	-0.937157	-1.055174	-0.246474	-0.624761	-0.598302
-3.966894	2.621064	8.927894	-1.326275	5.220801	-0.156676	0.821163	-0.072908	-0.977306	3.854793	0.883665	9.58969	-0.976715	-1.456898	0.519082	0.14625	-0.304981	-0.864937	9.19769	2.561707	0.244463	-0.396759	-1.180902	-1.296936	-0.232562	-0.643228	-0.550811
-4.189272	2.680119	9.2648	-1.41716	5.405107	-0.184087	0.820777	-0.059137	-0.980722	3.451165	0.60272	9.524351	-1.095847	-1.091692	0.707586	0.120813	-0.318307	-0.892081	9.906735	3.141341	0.379955	-1.205895	-1.790525	-1.780096	-0.260591	-0.641157	-0.597535
-3.681652	2.505733	8.876126	-0.984972	5.836303	-0.08632	0.807386	-0.034407	-1.026016	3.564548	0.884109	9.470366	-1.033903	-1.090102	0.584339	0.146539	-0.364119	-0.889622	10.086929	2.734898	0.501339	-2.052214	-3.567994	-1.737986	-0.287706	-0.612485	-0.537238
-3.853126	2.103766	8.871097	-1.258667	6.016621	0.162742	0.779945	-0.095798	-0.983502	3.162021	0.659542	9.461714	-1.501604	-1.404646	0.889116	0.173307	-0.315863	-0.921884	10.383941	2.85087	0.62715	-4.469217	-5.509716	-1.139277	-0.218308	-0.609812	-0.567943
-3.968955	2.390815	8.813223	-0.948906	6.75977	-0.194086	0.779202	-0.102855	-0.955351	2.930012	0.941578	9.400476	-2.066237	-2.028831	1.468191	0.14669	-0.333478	-0.891629	10.028744	2.851433	0.56064	-5.282852	-7.01111	-1.159728	-0.260244	-0.607946	-0.614737
-4.138616	2.563747	8.924313	-1.070756	6.913548	-0.252572	0.806657	-0.058762	-0.980372	3.225416	0.772332	9.746216	-2.009164	-2.367579	1.803978	0.120738	-0.333628	-0.891078	10.03274	3.02665	0.801009	-4.550381	-7.490925	-1.832466	-0.232637	-0.62373	-0.613759
-3.334785	2.506208	9.053366	-2.081355	6.937819	-0.095929	0.808557	-0.093019	-0.998277	3.214536	0.771905	9.23646	-2.045865	-2.799099	2.077112	0.15871	-0.291729	-0.837517	9.497328	2.9688	0.551231	-2.082817	-7.29758	-1.934013	-0.246679	-0.659624	-0.550044
-4.306832	2.277387	9.090325	-0.673759	6.825649	-0.46982	0.791807	-0.082744	-0.93438	3.274627	0.715562	9.3509	-2.110849	-3.016956	2.444832	0.120668	-0.288738	-0.879739	9.138829	2.968621	0.305	-1.383412	-5.348207	-0.906723	-0.260382	-0.624965	-0.598372
-3.459067	2.15947	8.538014	-0.919328	6.669111	-0.318317	0.779559	-0.082027	-0.986918	3.506013	1.391192	9.469584	-2.788305	-2.84219	2.53851	0.133274	-0.305056	-0.864661	9.499799	2.853142	0.67055	2.101893	-2.943868	1.453089	-0.260729	-0.658176	-0.58117
-3.975553	2.274485	8.471622	0.277138	6.765146	-0.16686	0.849776	-0.070129	-0.99208	3.44864	0.658955	9.411119	-2.291653	-2.623274	2.849369	0.147211	-0.286445	-0.90899	8.901799	2.910838	0.240444	1.818979	-1.471961	3.953299	-0.246612	-0.641779	-0.581937
-3.629018	2.734492	8.650793	-1.139357	6.058007	-0.7263	0.780673	-0.071442	-1.029146	3.564094	0.489748	9.413395	-2.717899	-2.137914	2.823024	0.133198	-0.320376	-0.863658	9.073211	2.967273	-0.055541	2.425235	1.161467	3.877407	-0.274286	-0.64384	-0.551021
-4.145131	2.332533	8.582229	0.524002	6.761423	0.26172	0.820392	-0.045366	-0.984137	2.762582	0.716769	9.623218	-2.899371	-1.890918	2.208769	0.133274	-0.305056	-0.864661	10.085444	3.373735	0.504059	4.956025	1.010677	4.541367	-0.218867	-0.640545	-0.597324
-3.737835	2.563457	8.932107	0.702878	6.150789	-0.024731	0.793279	-0.051331	-1.008175	2.991527	0.772621	9.571461	-2.499729	-2.010698	2.54701	0.107397	-0.289885	-0.865113	9.79353	3.433227	0.678524	3.65832	1.538968	3.290429	-0.232633	-0.642401	-0.566339
-3.86092	2.102077	8.473125	-0.492908	6.084094	-0.053041	0.806657	-0.058762	-0.980372	3.498736	0.771224	9.072585	-3.088868	-2.172478	2.699068	0.108207	-0.30199	-0.907159	10.201951	3.08259	0.38521	4.770324	-1.941601	3.058503	-0.260449	-0.64281	-0.566479
-4.37547	2.619665	8.522128	-0.031821	6.39529	-0.20265	0.834126	-0.03197	-0.987902	3.215984	1.278975	9.350166	-3.029183	-2.325826	2.820905	0.108283	-0.28667	-0.908163	9.366496	2.791875	-0.170595	5.222201	-2.540686	1.990004	-0.219072	-0.675408	-0.549066
-4.202303	2.217692	8.580633	2.323774	6.137029	-0.857657	0.849404	-0.073657	-0.978004	2.758201	1.11094	9.453631	-2.812805	-2.322478	2.728627	0.107837	-0.318382	-0.891806	9.483022	2.965586	-0.227559	6.523698	-2.951968	3.759941	-0.260591	-0.641157	-0.597535
-4.143277	2.84999	8.698107	1.102797	6.36742	0.008307	0.806657	-0.058762	-0.980372	3.390751	0.828055	9.410052	-3.745839	-2.79603	3.000622	0.173238	-0.270974	-0.910545	9.431439	3.083604	0.191183	8.022612	-2.861715	1.461818	-0.260729	-0.658176	-0.58117
-3.849661	1.932165	9.040932	0.428655	6.802155	-0.657383	0.805528	-0.052048	-0.955636	3.451619	0.997081	9.581322	-4.121682	-3.228239	2.718568	0.14625	-0.304981	-0.864937	9.433775	3.026022	0.31075	7.406882	-2.679453	1.371488	-0.218654	-0.643024	-0.550741
-3.971141	2.332891	8.699276	1.531978	6.807306	-0.660475	0.778058	-0.078841	-0.948106	3.393276	0.771819	9.523284	-4.011824	-4.271717	3.07822	0.107547	-0.259244	-0.867121	9.370472	2.502237	0.00789	8.063758	-2.32235	2.559376	-0.232842	-0.658594	-0.565502
-3.747566	2.159195	8.41874	1.806465	6.655982	-0.755729	0.807386	-0.034407	-1.026016	3.73977	0.82755	9.587225	-3.862067	-4.637947	3.105527	0.095231	-0.302065	-0.906883	9.007146	2.210442	-0.539111	6.928868	-2.337801	3.663851	-0.246403	-0.625587	-0.582774
-3.734453	2.506739	9.102425	1.469799	6.84088	-0.935763	0.807057	-0.089833	-0.959465	3.62343	0.827719	9.528167	-4.079188	-4.731078	2.8578	0.107912	-0.303062	-0.892809	9.77011	2.614477	-0.702795	6.015447	-3.670537	2.084213	-0.191047	-0.658808	-0.549763
-4.141625	2.103491	8.751823	2.477946	7.105356	-2.161095	0.849004	-0.042587	-0.998912	3.168497	0.434457	9.744722	-4.272431	-5.34715	2.913175	0.133644	-0.288663	-0.880015	10.962578	3.544207	0.101959	6.60427	-8.46208	-1.684854	-0.204955	-0.659012	-0.549833
-4.598878	2.563596	8.801699	1.864472	7.47961	-2.889288	0.808157	-0.061949	-1.019184	3.733833	0.770983	9.303979	-3.966565	-5.617009	2.571627	0.120003	-0.306203	-0.850036	11.63527	3.373685	1.371367	6.97452	-12.193496	-7.47512	-0.246124	-0.610221	-0.568083
-3.738001	2.793223	8.933072	2.877714	8.292722	-3.70704	0.834898	-0.059512	-0.981071	3.32902	1.109673	9.239162	-3.625284	-5.547944	2.048508	0.107762	-0.333703	-0.890802	9.984168	2.796706	1.338082	3.841815	-11.169336	-1.111803	-0.246821	-0.657972	-0.5811
-4.247226	2.105504	9.204421	0.765258	9.778785	-5.516933	0.791779	-0.048145	-0.969363	3.054706	0.998072	9.856058	-3.473229	-5.759036	1.799906	0.133864	-0.302912	-0.893361	9.14101	2.50426	0.362929	3.098674	-7.523512	9.876509	-0.246821	-0.657972	-0.5811
-4.13614	2.21958	9.036571	0.522186	10.585327	-6.269849	0.8078	-0.082776	-0.987617	3.614968	0.827387	9.13169	-4.181973	-5.615325	1.893249	0.120448	-0.27449	-0.866393	8.704268	3.197173	-0.839945	2.583679	-3.969046	12.031563	-0.274495	-0.660032	-0.550184
-4.027365	2.448057	8.755498	0.589208	11.977524	-7.044812	0.8078	-0.082776	-0.987617	3.280132	0.997452	9.634335	-4.516161	-5.160654	2.051643	0.068984	-0.303287	-0.891982	8.929173	2.787381	-1.496249	3.341761	-2.234395	7.221797	-0.26052	-0.641983	-0.582007
-4.311203	2.161539	8.86243	-1.402228	12.592218	-7.85716	0.793294	-0.068631	-0.990683	3.498736	0.771224	9.072585	-5.159806	-4.769827	1.993354	0.159446	-0.319154	-0.878559	9.337074	3.133903	-1.726691	5.353485	-1.468678	1.892722	-0.247305	-0.708202	-0.547533
-4.198014	2.448423	8.80901	-2.477461	11.655564	-7.010548	0.834941	-0.11141	-0.928596	3.444905	0.715144	9.241248	-5.590383	-4.593333	2.303045	0.107542	-0.319454	-0.877456	9.513582	3.365802	-1.7224	7.052766	-1.503485	-3.033867	-0.274357	-0.643014	-0.566549
-4.199951	2.04585	8.693615	-0.915745	11.948474	-7.807684	0.849033	-0.077186	-0.963928	3.447323	0.715239	9.354527	-5.713066	-4.532966	2.211062	0.133644	-0.288663	-0.880015	8.873863	2.61403	-1.318371	10.776447	0.107185	-6.661318	-0.247026	-0.692835	-0.532842
-4.374682	1.528276	8.517543	-1.656298	10.801407	-7.24148	0.834912	-0.076811	-0.963579	3.559928	0.771259	9.243713	-5.599464	-5.270598	2.697071	0.120963	-0.287667	-0.894089	8.52886	2.965521	-0.784328	10.488417	2.147702	-5.905979	-0.232421	-0.64488	-0.519755
-4.372621	1.758525	8.632215	-2.27092	9.833033	-6.120691	0.819263	-0.038652	-0.959401	3.394377	0.828197	9.579971	-5.884377	-5.796655	2.87658	0.108207	-0.30199	-0.907159	8.238741	3.199737	-0.489307	8.388874	2.428309	-1.223728	-0.232003	-0.612495	-0.521429
-4.319986	1.987285	8.406881	-0.52703	8.598054	-4.919026	0.821563	-0.103978	-0.956398	3.394246	0.264844	9.522857	-5.210577	-6.248223	2.903461	0.120743	-0.273418	-0.880743	7.952039	2.911762	-0.076697	5.947199	1.685393	-1.21134	-0.246679	-0.659624	-0.550044
-4.08668	2.21785	8.639713	0.606644	7.35221	-3.010412	0.820034	-0.066194	-0.95257	3.506636	0.433526	9.412138	-4.776727	-6.178585	2.472907	0.107837	-0.318382	-0.891806	8.301309	2.619336	-0.370865	5.876296	2.199511	-3.627957	-0.232212	-0.628688	-0.520592
-3.983472	2.445121	8.074374	-0.778534	5.297355	-1.261059	0.818905	-0.059479	-0.927834	3.740632	0.376906	9.586845	-4.681081	-5.961539	2.290172	0.095307	-0.286745	-0.907887	8.771122	3.140693	-0.419743	6.370335	2.758839	-4.304778	-0.246888	-0.675817	-0.549207
-4.318091	2.447299	8.522518	0.333523	4.87032	1.611582	0.848275	-0.066943	-0.953268	4.079441	0.657675	9.311138	-5.14419	-5.937156	2.351699	0.13431	-0.271199	-0.909718	8.775099	2.851054	-0.241259	6.329552	4.488699	-2.99872	-0.260449	-0.64281	-0.566479
-4.135317	2.621912	9.095113	-0.77537	3.785747	1.934491	0.820806	-0.093736	-0.945738	3.214728	0.039561	9.179203	-5.18097	-6.369086	2.686485	0.107617	-0.304134	-0.87846	8.776624	3.141929	-0.120209	5.393197	5.441771	-0.829946	-0.25954	-0.597537	-0.506879
-4.606631	2.504466	8.403486	5.476385	3.815981	1.824984	0.805928	-0.083118	-0.934729	3.730638	0.545518	9.133871	-4.743684	-5.909244	3.554601	0.094346	-0.305281	-0.863834	9.244217	3.197936	-0.350786	4.630919	6.012653	-0.096404	-0.260099	-0.62827	-0.53626
-4.325186	3.020267	8.183813	3.914471	5.527065	-0.626804	0.834512	-0.045741	-0.984487	3.614753	0.940048	9.131785	-3.81579	-5.80609	3.648858	0.094942	-0.242927	-0.882198	9.309275	2.966733	-0.05114	3.684544	6.27066	1.250565	-0.260307	-0.644462	-0.535423
-3.976134	3.078666	8.475	-1.058409	4.587857	-1.149112	0.848275	-0.066943	-0.953268	3.55477	0.940061	9.017297	-3.806399	-5.127213	3.008222	0.068319	-0.320751	-0.862279	9.122303	2.500057	-0.655488	2.309113	6.708452	2.812189	-0.274077	-0.627648	-0.551858
-3.80437	3.078542	8.478341	1.01494	5.348559	-5.037616	0.836055	-0.100825	-0.970823	3.725803	0.545329	8.907312	-3.460088	-4.63104	2.828465	0.095457	-0.256104	-0.909894	9.119852	3.08057	-0.712922	1.348142	8.76743	4.517415	-0.26017	-0.627443	-0.551788
-4.610262	2.905833	8.234616	-1.291954	5.800049	-7.845196	0.849047	-0.094485	-0.946436	3.391074	0.659063	9.40991	-4.039172	-4.024569	2.741544	0.107322	-0.305206	-0.86411	8.948846	2.849907	-0.417678	0.65513	10.535072	4.908821	-0.260587	-0.659828	-0.550114
-3.971348	2.620099	8.700482	-3.35487	6.068295	-10.656504	0.805885	-0.03122	-0.987204	3.504888	0.715131	9.355736	-3.84854	-3.565252	3.208689	0.121855	-0.224241	-0.926803	8.660233	2.910142	-0.063492	-0.070538	11.964538	5.454782	-0.246124	-0.610221	-0.568083
-4.609847	2.331417	8.232202	-4.248789	6.298037	-12.306379	0.834155	-0.066568	-0.952919	3.737006	0.376764	9.416927	-3.689041	-3.222147	2.626492	0.120894	-0.242777	-0.88275	9.142131	2.969363	0.484721	-0.247421	13.035214	5.389185	-0.274077	-0.627648	-0.551858
-4.141956	2.563023	8.753753	-4.438978	6.096315	-13.566592	0.81892	-0.076779	-0.910342	3.617494	0.771151	9.244922	-2.810311	-2.137681	2.607154	0.121334	-0.271274	-0.909442	9.142806	2.678983	0.483485	-0.407464	13.014786	4.350684	-0.204329	-0.610434	-0.552345
-4.20585	2.504176	8.41128	-3.02358	6.49371	-12.797449	0.821177	-0.090207	-0.959814	3.449071	0.433633	9.410929	-2.771152	-1.492916	2.55194	0.06884	-0.273718	-0.87964	10.097414	3.43453	1.163282	0.890301	13.200473	4.589609	-0.24647	-0.643432	-0.550881
-4.659017	1.931057	8.627371	-1.118225	6.925863	-12.182505	0.848647	-0.063415	-0.967344	3.563986	0.546079	9.413442	-2.703243	-1.002093	2.64936	0.055493	-0.290185	-0.86401	10.685219	3.025906	0.992835	3.879805	12.189091	5.806175	-0.246608	-0.66045	-0.534516
-4.483872	1.874215	8.80103	-1.177514	6.857161	-11.570049	0.83374	-0.018199	-0.991318	3.673073	0.545626	9.132662	-2.330754	-0.845071	2.805362	0.120668	-0.288738	-0.879739	11.09173	3.023477	0.641097	8.16474	12.082139	5.791166	-0.24647	-0.643432	-0.550881
-4.599702	2.161264	8.743156	0.97847	7.399824	-9.757911	0.820806	-0.093736	-0.945738	3.856756	0.489399	9.645998	-2.056212	-1.088877	3.111442	0.08152	-0.274715	-0.865566	10.502939	2.908923	0.689505	12.9932	12.216545	3.327918	-0.246262	-0.627239	-0.551718
-4.823975	1.760304	8.964426	1.845687	7.753133	-8.03717	0.847861	-0.018573	-0.991667	3.5094	0.884312	9.582437	-2.278669	-1.553409	3.384098	0.094201	-0.275712	-0.851492	10.152298	3.317254	0.92426	16.050169	13.243988	2.639545	-0.274357	-0.643014	-0.566549
-4.546528	1.643284	8.514686	3.694784	7.700741	-5.375127	0.806285	-0.062291	-0.966296	3.788203	0.545411	9.13508	-2.598215	-2.357042	3.74579	0.120894	-0.242777	-0.88275	10.196874	3.371981	0.146818	19.404837	13.237149	1.496584	-0.261079	-0.672716	-0.611388
-4.94401	1.701739	8.677692	6.890138	7.160168	-2.479589	0.888751	-0.051109	-0.91892	3.445444	0.433491	9.241011	-2.981186	-3.255874	4.476425	0.107767	-0.273493	-0.880467	9.784416	2.617691	0.075994	21.532495	13.586356	0.998201	-0.246888	-0.675817	-0.549207
-4.434536	2.044809	8.404896	9.625061	6.588108	0.294041	0.862024	-0.070846	-0.939541	3.453128	0.208454	9.580659	-3.763684	-4.034326	4.776338	0.068394	-0.305431	-0.863283	9.367846	2.211115	-0.173067	23.691142	13.718063	0.83694	-0.274428	-0.642187	-0.582077
-4.37621	2.10245	8.463103	9.844763	6.041997	2.461938	0.833412	-0.073625	-0.924767	3.621336	0.658632	9.414746	-4.206657	-4.867386	4.706042	0.095451	-0.316314	-0.920229	9.186976	2.907938	-0.293215	25.464568	11.921154	0.686278	-0.232492	-0.644054	-0.535283
-4.65576	2.046664	8.798413	11.49986	4.515386	4.947077	0.848647	-0.063415	-0.967344	3.450603	0.264689	9.467427	-5.018727	-5.524781	5.192106	0.0698	-0.255182	-0.923692	9.836424	2.7903	-0.281605	24.104106	12.730574	-1.146428	-0.23298	-0.675613	-0.549137
-4.709674	2.047429	8.967859	12.911229	3.578125	6.859793	0.861639	-0.057075	-0.942957	3.735473	0.545708	9.360429	-5.729699	-5.593116	4.88257	0.107472	-0.274565	-0.866117	8.825271	1.91923	-0.843183	23.30808	12.406326	0.355579	-0.232913	-0.657768	-0.581029
-4.434163	1.527835	8.402724	13.681863	3.443479	8.204715	0.846775	-0.063757	-0.914456	3.616824	0.489451	9.188045	-6.320058	-5.933059	4.138834	0.068469	-0.29011	-0.864286	9.64646	3.136442	-0.942399	20.072572	12.359362	0.825965	-0.232771	-0.65942	-0.549974
-4.601804	1.988457	8.628726	13.745664	3.530397	8.696606	0.834155	-0.066568	-0.952919	3.216284	0.4903	9.292862	-6.075865	-6.231753	3.396181	0.082036	-0.287892	-0.893261	9.228925	2.671543	-1.251614	17.681129	10.799794	-0.044258	-0.204817	-0.641993	-0.566198
-4.653781	2.391795	8.913567	14.11427	3.341815	9.213807	0.847918	-0.08777	-0.9217	3.387663	0.54626	9.239897	-6.415477	-6.26351	2.902339	0.08152	-0.274715	-0.865566	9.636536	2.669362	-1.543446	13.793347	9.734997	1.014044	-0.274704	-0.676225	-0.549347
-5.110413	1.990277	8.959823	14.608288	3.959428	9.161089	0.876531	-0.084991	-0.936475	3.567697	-0.129793	9.526152	-5.612524	-6.312235	2.532562	0.08174	-0.288964	-0.878912	9.68978	2.784142	-1.841385	11.219338	7.921865	0.940329	-0.246959	-0.67499	-0.564735
-4.60935	1.642119	8.229307	13.203326	4.940768	8.78242	0.834912	-0.076811	-0.963579	3.625394	0.433452	9.584475	-4.958161	-5.931382	1.827826	0.069135	-0.272646	-0.893989	9.634876	2.436563	-1.664248	8.551345	6.173385	0.49989	-0.24675	-0.658798	-0.565572
-4.308069	2.449471	9.034196	12.013286	5.796704	8.707757	0.792936	-0.089458	-0.959116	3.448724	-0.017058	9.35391	-4.146248	-5.303443	1.156503	0.082186	-0.257251	-0.895269	9.457287	2.669272	-1.666561	5.764234	4.230219	1.099955	-0.26052	-0.641983	-0.582007
-4.4326	2.447382	8.520291	11.343074	6.533189	8.537658	0.863525	-0.074032	-0.978353	3.963964	0.207199	9.251701	-3.36574	-4.735821	0.268759	0.069951	-0.224541	-0.9257	9.465395	2.496775	-1.247954	3.995201	2.103413	2.063973	-0.204747	-0.642819	-0.55067
-4.832267	2.447914	8.56935	11.562676	7.614991	8.094611	0.862767	-0.063789	-0.967693	3.852029	0.432879	9.419392	-2.676553	-4.076374	-0.772284	0.081891	-0.258323	-0.880919	9.581362	2.437934	-1.365814	2.558581	-0.13347	1.957598	-0.260099	-0.62827	-0.53626
-4.601105	2.563113	8.687992	10.161556	9.430218	7.361482	0.889508	-0.061352	-0.92958	3.672618	0.151265	9.07569	-1.899202	-3.668324	-0.705945	0.056014	-0.243152	-0.881371	9.523466	2.903172	-1.245123	1.129901	-1.578159	2.153048	-0.246612	-0.641779	-0.581937
-4.142081	2.735348	8.754477	7.748662	11.116746	6.721171	0.862782	-0.081088	-0.950202	4.078448	0.544967	9.254403	-1.462434	-3.354369	-0.979924	0.081005	-0.261538	-0.83787	9.235953	2.963654	-0.83103	0.194227	-3.020431	2.285574	-0.287777	-0.611659	-0.552766
-4.088374	3.02179	8.586238	6.961444	13.683113	5.047803	0.820034	-0.066194	-0.95257	3.450387	0.37735	9.467522	-1.090065	-3.226601	-1.04001	0.094496	-0.27464	-0.865841	9.304448	2.675116	-0.35191	-0.366292	-4.191736	2.965591	-0.274428	-0.642187	-0.582077
-3.801278	3.423915	8.650348	5.716142	16.023507	4.138746	0.834569	-0.114938	-0.91452	3.446869	0.320878	9.297555	-0.743836	-2.730837	-1.158114	0.095231	-0.302065	-0.906883	9.8404	2.500662	-0.10312	-0.646054	-4.778331	3.397295	-0.260516	-0.660655	-0.534586
-3.855317	3.597005	8.820518	4.979386	16.993905	2.28593	0.864282	-0.084275	-0.989014	3.448401	0.151933	9.354053	-0.711033	-2.605971	-1.434299	0.08152	-0.274715	-0.865566	9.540533	3.139432	-0.285624	-0.492539	-5.180156	3.857114	-0.288544	-0.658584	-0.58131
-4.254078	3.884985	8.927636	8.437549	17.462539	0.32086	0.834183	-0.101167	-0.917935	3.566835	0.320852	9.526532	-0.531241	-3.03354	-1.345921	0.094421	-0.28996	-0.864838	9.834493	2.673654	-0.401913	0.245553	-5.546448	4.039572	-0.246262	-0.627239	-0.551718
-4.263975	3.710489	8.415234	10.5823	19.038933	-2.29715	0.86241	-0.084617	-0.936126	3.449394	0.264642	9.410787	-0.815915	-3.529729	-1.042804	0.095382	-0.271424	-0.908891	9.545745	2.791964	-0.04748	1.1065	-5.631956	3.731223	-0.247096	-0.692009	-0.54837
-4.081569	2.850913	8.926633	8.094362	20.733664	-6.40272	0.861281	-0.077902	-0.911389	4.197421	0.432232	9.426645	-0.855889	-4.178728	-0.340244	0.0813	-0.260466	-0.852219	9.832853	2.905711	-0.460831	2.552605	-5.651974	3.206498	-0.260658	-0.659002	-0.565642
-4.312855	2.908038	8.808714	7.813066	22.187985	-10.089274	0.834541	-0.080339	-0.949503	3.626926	0.264508	9.640972	-0.923523	-4.610845	-0.036314	0.082481	-0.256179	-0.909618	10.011832	3.021952	-0.337222	3.908542	-5.335222	2.619367	-0.233122	-0.67396	-0.580192
-4.657992	3.597344	8.748076	7.107689	23.500692	-12.304815	0.904772	-0.08574	-0.937173	3.39591	0.659253	9.636469	-0.832984	-4.764005	0.116376	0.082556	-0.240858	-0.910622	9.425782	2.675588	-0.169989	5.142114	-5.238075	2.522746	-0.232216	-0.610016	-0.568013
-4.365863	3.196252	9.036219	6.773827	25.211108	-14.208285	0.863939	-0.122402	-0.939954	3.966166	0.319955	9.365075	-1.568562	-4.341877	-0.219128	0.082556	-0.240858	-0.910622	9.543679	2.733394	-0.167541	6.62417	-5.422903	3.160095	-0.232842	-0.658594	-0.565502
-4.769362	2.334195	8.854246	8.709788	26.456917	-14.86836	0.876931	-0.116062	-0.915567	3.904759	0.432581	9.194042	-0.452666	-4.050769	-0.369475	0.042592	-0.27494	-0.864738	9.72762	3.083176	0.256592	8.445743	-5.265625	3.366693	-0.274428	-0.642187	-0.582077
-4.64636	2.910458	9.313711	11.048621	27.910642	-14.72878	0.889908	-0.092423	-0.908672	3.786887	0.601694	9.078488	-0.791566	-3.964291	-0.18392	0.06921	-0.257326	-0.894993	9.36497	2.501	-0.291645	10.66551	-5.039739	2.990812	-0.288474	-0.65941	-0.565782
-5.447591	2.451506	9.296191	14.123423	28.740363	-13.466653	0.847532	-0.073999	-0.925116	3.622329	0.771341	9.47148	-0.63534	-3.810009	-0.02812	0.068243	-0.336072	-0.861275	9.775052	2.383162	-0.464157	12.755987	-5.144466	2.00571	-0.246403	-0.625587	-0.582774
-5.227522	2.506852	8.846062	15.700403	29.896215	-11.765541	0.863939	-0.122402	-0.939954	3.728675	0.939785	9.077563	-1.255132	-3.91367	0.556085	0.056309	-0.24208	-0.895721	10.023376	2.79212	0.260858	14.723729	-5.281801	1.174031	-0.232629	-0.661073	-0.518918
-5.451837	2.163333	9.067573	16.790509	31.227535	-9.477467	0.848704	-0.132612	-0.897377	3.736682	0.545756	9.417069	-1.199187	-4.286912	1.477263	0.082186	-0.257251	-0.895269	9.783045	2.733596	0.016582	16.293478	-5.550181	1.047374	-0.274424	-0.660859	-0.534656
-5.510371	2.392899	9.010571	18.609313	31.924644	-7.876557	0.931527	-0.100603	-0.881568	4.197529	0.375902	9.426598	-2.033994	-4.300917	2.000532	0.056529	-0.256329	-0.909067	10.08695	3.199754	0.563224	18.424668	-5.176729	1.160127	-0.260449	-0.64281	-0.566479
-5.57109	2.564542	8.839622	20.677203	33.049609	-5.962733	0.88988	-0.057824	-0.943656	4.021314	0.319752	9.253005	-2.291009	-5.013996	2.702284	0.082256	-0.30214	-0.906608	9.612869	2.619332	0.372227	20.213473	-4.891534	0.816093	-0.232354	-0.627035	-0.551648
-5.575461	2.448694	8.611727	24.650851	34.948849	-3.796484	0.904443	-0.141167	-0.870622	4.023062	0.038147	9.309407	-1.061587	-5.460922	3.099597	0.068764	-0.289039	-0.878636	9.191918	2.676623	-0.054577	21.853568	-4.555172	1.389248	-0.260587	-0.659828	-0.550114
-6.189588	2.337644	9.39494	23.439241	36.216648	-2.269632	0.9048	-0.120339	-0.90219	3.624077	0.489735	9.527883	-2.876367	-4.898377	2.641306	0.068764	-0.289039	-0.878636	9.491131	2.793088	0.191048	23.465932	-3.634897	1.68465	-0.260729	-0.658176	-0.58117
-5.495771	2.223711	9.748937	25.147629	38.786835	-0.57669	0.904043	-0.110096	-0.891529	4.137654	0.319584	9.312062	-3.310337	-5.111884	1.621503	0.055424	-0.245296	-0.852672	9.127555	3.082301	-0.293574	25.223878	-3.101316	0.972783	-0.218863	-0.659216	-0.549903
-6.025495	2.163506	8.999585	26.732104	41.015996	1.325722	0.932641	-0.090018	-0.923796	4.316717	0.150506	9.598745	-3.998596	-5.823811	1.305588	0.069285	-0.242005	-0.895997	10.018279	2.616656	-0.039418	27.356292	-2.326419	0.716858	-0.274144	-0.645493	-0.519966
-5.680896	2.22094	9.06336	28.841988	43.453618	4.027338	0.933427	-0.134859	-0.899472	4.31266	0.375686	9.429016	-5.808419	-7.171227	2.215581	0.056234	-0.257401	-0.894717	9.658005	2.90661	-0.344319	28.742882	-2.071043	0.160485	-0.260307	-0.644462	-0.535423
-6.029167	2.622315	8.830956	28.72161	47.019377	6.600334	0.931913	-0.114374	-0.878152	3.61486	0.883717	9.131738	-8.399907	-9.149434	4.29015	0.056084	-0.288042	-0.89271	10.018434	3.023436	0.02222	29.450243	-1.816529	-0.546237	-0.246399	-0.644258	-0.535353
-6.018074	2.682169	9.399728	28.295417	50.832241	8.932859	0.917035	-0.103757	-0.867143	3.853237	0.432926	9.476031	-10.392557	-10.199404	6.251125	0.043478	-0.271724	-0.907788	10.072489	2.78976	-0.277203	29.941188	-1.996398	-0.730532	-0.246399	-0.644258	-0.535353
-6.198413	2.220831	8.939632	29.792895	54.141812	10.36232	0.946433	-0.145819	-0.857594	4.018681	0.432318	9.139821	-10.77094	-10.730678	7.04708	0.030207	-0.272871	-0.893162	9.480957	2.907015	-0.34762	31.302069	-1.285132	-1.013919	-0.260237	-0.645288	-0.519896
-6.076234	2.394761	9.340555	31.226729	57.332672	11.391369	0.890694	-0.137264	-0.884349	4.195219	0.319476	9.313271	-13.096997	-11.407707	7.59339	0.056385	-0.22676	-0.896724	9.541748	2.616747	-0.287849	31.794163	-1.405084	-1.076254	-0.246746	-0.677469	-0.518151
-6.469097	2.224416	9.730008	34.496288	59.94553	12.651057	0.932298	-0.128145	-0.874736	4.014407	0.770159	8.970186	-9.696928	-11.270574	7.289204	0.055869	-0.213583	-0.869029	9.599684	3.081221	-0.284771	32.506687	-1.222466	-0.743516	-0.274841	-0.693244	-0.532982
-6.591814	2.797225	9.332223	37.55722	62.85313	14.928081	0.93307	-0.155687	-0.867904	3.616369	0.09509	9.131074	-9.836984	-10.195167	6.683213	0.042592	-0.27494	-0.864738	9.305974	2.965991	-0.23086	32.074786	-1.503104	-0.37386	-0.273727	-0.613108	-0.52164
-6.646842	2.797749	9.444815	38.57015	65.861842	18.285877	0.932699	-0.159215	-0.853829	3.727789	0.770746	9.020781	-9.50392	-10.770305	6.184507	0.043038	-0.243227	-0.881095	9.474354	2.905532	-0.707061	32.538626	-0.976065	-0.897621	-0.218651	-0.661695	-0.50332
-6.653606	2.911185	9.104179	40.346781	67.691656	22.94079	0.959825	-0.170549	-0.812299	3.730076	0.207488	9.076947	-9.058873	-9.783277	6.163851	0.068915	-0.258398	-0.880643	9.068404	3.140512	-0.294427	32.447383	-0.730422	-1.020713	-0.233189	-0.691805	-0.5483
-6.751163	2.570237	9.953301	41.50431	68.785753	27.18678	0.957196	-0.160649	-0.748751	4.074475	0.094133	9.027466	-7.729095	-9.702472	5.764954	0.042592	-0.27494	-0.864738	9.185991	2.384759	-0.415254	32.704441	0.306407	-0.629278	-0.218792	-0.660042	-0.534376
-7.088133	2.744258	10.288462	46.436306	66.96551	29.841313	0.988838	-0.198841	-0.806166	3.729645	0.43281	9.077136	-7.197758	-9.205745	5.862806	0.043113	-0.227907	-0.882099	9.004966	2.674803	-0.59704	32.561717	1.246565	0.10026	-0.218788	-0.678713	-0.486955
-6.748196	3.087935	10.126032	58.675869	67.261215	33.153057	0.974717	-0.198466	-0.805817	3.613867	0.771009	9.075003	-7.03759	-8.715938	6.299404	0.069065	-0.227757	-0.88265	9.111973	2.207205	-1.255793	32.512455	2.371545	0.736892	-0.260028	-0.629096	-0.520733
-6.582658	2.454506	9.785599	68.143944	70.904914	35.453981	0.973974	-0.205523	-0.777665	4.134589	0.657472	9.199068	-7.678861	-8.112249	6.52069	0.069656	-0.225613	-0.91135	9.058324	2.266652	-0.957112	31.231883	3.425874	1.867336	-0.232279	-0.646533	-0.488699
-6.495737	2.103743	8.365051	70.555042	73.482207	36.776703	1.002601	-0.220043	-0.774947	4.248272	0.150187	9.087779	-7.770259	-7.992168	6.73761	0.042297	-0.276012	-0.850389	8.702432	2.09274	-1.08427	29.670634	4.143664	2.908721	-0.2327	-0.660246	-0.534446
-6.555053	1.873535	8.249266	60.429482	79.435814	38.711618	0.959854	-0.205148	-0.777316	4.19036	-0.300396	9.029552	-7.395119	-7.764145	5.414555	0.056234	-0.257401	-0.894717	8.650828	1.745902	-0.727412	27.245191	5.015087	3.585747	-0.260721	-0.695518	-0.486329
-6.227488	2.386883	7.462176	62.258485	81.572548	40.703363	0.988866	-0.233439	-0.771182	4.544777	0.037319	9.490206	-5.87714	-7.551681	3.999783	0.030433	-0.22691	-0.896173	8.876564	1.452509	-1.323316	24.540434	5.485318	4.510213	-0.260512	-0.679326	-0.487166
-5.549882	3.131196	7.02385	57.705385	83.89512	39.957047	0.986966	-0.199183	-0.753278	4.533035	0.487537	8.980829	-5.439081	-7.202423	3.017102	0.094572	-0.259319	-0.866845	9.531554	2.265819	-0.888401	21.866814	5.861999	5.618406	-0.260237	-0.645288	-0.519896
-5.346267	2.838273	5.719476	55.901367	85.691116	37.998482	0.974003	-0.240121	-0.742681	4.538194	0.318735	9.207245	-5.374486	-7.015226	2.649076	0.042673	-0.19941	-0.855407	9.46661	1.97409	-1.250179	19.400552	5.82096	5.780355	-0.274562	-0.677877	-0.518292
-4.730861	2.719798	4.992152	49.09376	83.517335	39.945036	1.030528	-0.293518	-0.691603	4.475901	0.262322	8.979431	-5.745456	-6.992484	3.142256	0.017752	-0.225913	-0.910247	9.231086	1.742326	-1.25557	16.961485	5.507556	5.668427	-0.232838	-0.677265	-0.518081
0.695545	0.977133	1.45321	26.9476	63.377067	42.931438	1.029742	-0.248676	-0.715926	3.84091	-0.07457	8.852569	-5.963668	-7.119906	3.449097	0.056014	-0.243152	-0.881371	9.584778	1.915744	-1.248226	14.399434	5.193078	5.618078	-0.246537	-0.661277	-0.518988
0.022873	0.476138	5.07516	-19.634411	33.549859	44.481682	1.029728	-0.231377	-0.733418	4.252545	-0.187653	9.257414	-6.9241	-7.317866	3.72381	0.030433	-0.22691	-0.896173	9.706422	2.729775	-0.943029	12.15094	5.025096	6.299438	-0.246262	-0.627239	-0.551718
2.302894	0.025122	7.504486	-25.367236	18.080692	45.749135	1.043877	-0.26635	-0.698784	4.366706	0.319106	9.260258	-6.68419	-7.867932	3.903504	0.05624	-0.197191	-0.884382	9.473908	2.150049	-0.830089	10.514663	4.929969	6.061303	-0.288399	-0.678908	-0.502834
1.038801	0.082511	7.252818	-23.283846	6.278293	41.197656	1.059498	-0.269911	-0.737945	3.558481	0.264189	9.130007	-7.216771	-8.428403	4.174958	0.081601	-0.199185	-0.856234	9.650822	2.20772	-0.826541	9.160458	5.199773	6.126049	-0.218788	-0.678713	-0.486955
2.798349	-0.266801	6.489945	-34.645096	-2.65392	27.379461	0.972917	-0.285305	-0.66547	4.194095	-0.356585	9.199423	-7.71947	-9.022371	4.939357	0.043258	-0.257476	-0.894441	9.472268	2.382106	-0.889007	7.768624	4.799315	5.91905	-0.274211	-0.663337	-0.488073
4.042155	-1.535045	5.656337	-54.877141	-24.563387	23.923362	0.987409	-0.282151	-0.679895	4.192023	0.094012	9.143163	-7.546376	-9.914384	5.701337	0.042152	-0.246443	-0.838046	10.057177	1.798512	-1.239916	7.572872	4.35335	4.607629	-0.260587	-0.659828	-0.550114
3.603583	-0.72619	6.674163	-74.888092	-41.798579	22.964973	1.014878	-0.255358	-0.687425	4.251899	0.15033	9.257698	-7.856847	-10.04077	5.669002	0.029697	-0.199485	-0.855131	9.887156	2.091028	-0.822633	7.502071	4.432592	2.834807	-0.232141	-0.629514	-0.505064
3.216697	0.081418	7.408837	-83.892107	-53.877601	21.75206	0.987395	-0.264852	-0.697387	4.426343	-0.131599	9.317727	-6.932572	-10.300181	4.927284	0.042668	-0.25962	-0.865742	9.536071	1.743876	-0.710906	7.961931	4.780836	1.853449	-0.274141	-0.664164	-0.472545
2.935702	0.484922	7.689224	-90.220569	-65.123122	21.280928	1.017193	-0.337985	-0.66693	4.415571	-0.188356	8.807924	-6.378065	-10.501956	4.031702	0.004556	-0.21174	-0.896625	9.187361	2.268854	-0.355842	8.726925	5.384686	-0.077678	-0.246608	-0.66045	-0.534516
2.650212	0.944903	7.74244	-94.328501	-74.924441	21.746797	1.015636	-0.265601	-0.698085	4.19401	0.319429	9.256632	-5.91893	-10.862066	3.720207	0.055424	-0.245296	-0.852672	9.600724	1.686902	-0.410518	9.343735	6.256048	-1.306578	-0.302098	-0.662919	-0.503741
2.20327	1.005089	8.302304	-94.597738	-84.066837	22.580298	1.01675	-0.255016	-0.740313	4.250582	0.206613	9.201106	-5.390912	-10.640331	3.66118	0.003746	-0.199635	-0.85458	9.411436	1.742663	-1.072548	10.173552	6.854135	-2.657183	-0.232838	-0.677265	-0.518081
1.815478	1.525248	8.978919	-96.958958	-93.638231	22.400947	0.974774	-0.267663	-0.73585	4.248511	0.657209	9.144846	-5.543588	-10.4038	4.711573	0.042598	-0.21473	-0.854403	9.181164	2.093143	-0.716025	11.221519	7.510715	-3.672661	-0.246329	-0.645084	-0.519825
1.118936	2.327997	8.514111	-100.302898	-102.834855	21.279934	0.948034	-0.2701	-0.773963	4.018981	-0.356356	9.082517	-5.821247	-10.290699	5.637326	0.017237	-0.212737	-0.882551	9.595242	2.150521	-0.648168	11.686844	8.252234	-4.227999	-0.26156	-0.741617	-0.530401
1.248252	1.871518	9.253497	-100.5753	-110.55994	19.07007	0.988509	-0.254267	-0.739615	4.643199	-0.076221	8.699575	-5.346869	-9.397295	5.924047	0.030282	-0.257551	-0.894166	9.24182	1.860951	-0.656006	11.87187	8.873862	-5.117925	-0.246329	-0.645084	-0.519825
0.348303	2.679981	10.091856	-104.549854	-116.698907	16.467285	0.97779	-0.291335	-0.795982	4.182892	-0.18802	8.689809	-4.866843	-8.130867	5.443771	0.030288	-0.197341	-0.883831	9.480511	2.151533	-0.470648	11.568023	9.826754	-5.67148	-0.274215	-0.644666	-0.535494
-0.103093	2.739202	10.424308	-107.043106	-120.759986	12.912656	0.948748	-0.228445	-0.837099	4.530917	-0.301233	8.810247	-3.265262	-6.228963	3.737582	0.017312	-0.197416	-0.883555	8.712606	1.978813	-0.545602	10.61418	10.719922	-6.58913	-0.246466	-0.662103	-0.50346
-0.609848	3.258479	10.871283	-109.59595	-124.294192	8.968021	0.934256	-0.231599	-0.822673	4.590254	0.036737	8.925019	-2.18566	-4.087815	1.940872	0.017017	-0.198488	-0.869205	9.592076	2.091703	-0.828136	10.180197	11.343755	-7.904662	-0.246671	-0.696967	-0.455203
-1.625004	3.492368	11.648149	-109.483663	-128.339746	5.099322	0.905629	-0.217079	-0.825391	4.179935	0.093538	8.576767	-0.495155	-2.461977	0.416991	0.0033	-0.231348	-0.838223	9.587134	2.323018	-1.066774	10.297871	11.820726	-9.618766	-0.26017	-0.627443	-0.551788
-2.177672	3.726891	12.661335	-107.235546	-133.81564	0.771809	0.920464	-0.175798	-0.888876	4.581337	-0.357956	8.47157	-0.328287	-1.479131	0.488554	0.017237	-0.212737	-0.882551	9.361088	1.802852	-0.594146	10.43968	11.192729	-10.960938	-0.274353	-0.661685	-0.519129
-3.137925	4.132582	13.326332	-102.941149	-140.134685	-4.311445	0.891852	-0.178577	-0.874101	4.528846	0.149364	8.753986	-1.311715	-1.006465	1.324823	0.004481	-0.22706	-0.895622	9.644604	1.567153	-1.248608	10.400206	10.588039	-11.660793	-0.218513	-0.644676	-0.519685
-3.480338	4.133072	13.376504	-96.281611	-145.076308	-10.575402	0.861324	-0.1298	-0.858914	4.019974	-0.243648	9.139251	-0.995752	-0.39327	1.947738	0.016496	-0.245521	-0.851844	9.53362	2.324389	-0.76834	10.72874	10.050594	-12.820693	-0.275117	-0.727281	-0.500252
-4.058657	4.419488	13.08231	-93.652556	-147.331613	-16.723018	0.849104	-0.163682	-0.876469	4.423925	-0.131694	9.204448	-0.247589	0.080539	1.274831	0.030658	-0.180949	-0.899184	9.587694	2.55557	-1.005878	10.385615	10.274232	-13.859545	-0.219139	-0.693253	-0.517174
-5.253621	4.996462	13.459312	-88.338154	-146.712638	-23.015929	0.820835	-0.128334	-0.910755	4.479288	-0.244557	9.092283	0.369665	-0.058103	0.225793	0.056385	-0.22676	-0.896724	9.883585	2.206438	-1.00186	10.479795	10.892382	-14.443464	-0.274771	-0.69407	-0.517454
-5.94649	5.340402	13.163132	-84.424726	-144.562416	-29.310843	0.807857	-0.151974	-0.91765	4.588806	-0.470332	8.811313	1.169907	-0.32128	-0.176946	0.043333	-0.242155	-0.895445	9.17263	1.975013	-1.195774	11.006681	11.385938	-14.661643	-0.288537	-0.695927	-0.486469
-6.76261	5.452729	12.408936	-80.680462	-140.044687	-35.628393	0.793708	-0.117	-0.952284	4.421184	0.037203	9.091311	0.293802	-1.220334	-0.371559	-0.008715	-0.212887	-0.882	9.523696	1.857309	-1.369387	10.975865	12.006802	-15.55071	-0.246888	-0.675817	-0.549207
-8.022995	6.54503	12.389024	-74.230701	-136.318636	-38.837944	0.765467	-0.116251	-0.951586	4.250451	-0.35674	9.143992	-0.617681	-2.429458	-0.106862	-0.008941	-0.258848	-0.878989	10.054726	2.379025	-1.297351	8.665814	12.552603	-15.881099	-0.232767	-0.678091	-0.502553
-8.841177	6.427109	11.520156	-63.194588	-132.624181	-37.398634	0.779573	-0.099326	-0.969427	4.084015	-0.46884	9.423469	-1.44097	-4.033049	-0.308438	-0.009381	-0.230351	-0.852297	9.240565	1.453924	-0.777551	7.589589	12.263623	-14.92849	-0.233464	-0.725843	-0.51557
-10.23516	6.193995	10.469111	-55.06564	-125.667667	-31.941003	0.721548	-0.042744	-0.981693	4.544646	-0.526033	9.433093	-1.620706	-6.113846	-1.31577	0.056089	-0.227832	-0.882375	9.297535	1.860074	-0.834627	5.768682	11.763515	-14.52224	-0.261422	-0.724598	-0.546766
-11.914634	6.420861	9.471283	-48.837631	-115.772063	-23.42442	0.723462	-0.0943	-0.982106	4.596275	-0.582709	9.151056	-2.318671	-7.678193	-2.595833	0.003966	-0.213883	-0.867926	9.700204	2.089208	-1.365097	3.153414	11.588206	-13.258994	-0.219907	-0.740178	-0.545718
-12.504952	6.359974	8.550257	-42.700632	-102.274597	-12.641212	0.680315	-0.048335	-1.005381	4.439401	-0.638099	9.883697	-1.628414	-9.349998	-3.50591	0.003815	-0.244524	-0.865918	9.17261	1.510157	-1.257659	-0.583718	11.931701	-9.304845	-0.247585	-0.723568	-0.562223
-12.9233	6.011755	7.631366	-37.649668	-87.018369	-0.20158	0.679915	-0.017264	-1.026289	4.135105	-0.243863	9.141669	-1.097266	-11.334273	-3.833491	0.003966	-0.213883	-0.867926	9.054557	1.045572	-1.321745	-4.967209	11.96033	-4.704932	-0.205861	-0.722956	-0.562013
-12.6501	5.606562	6.953007	-31.030054	-70.425232	11.4877	0.694836	-0.07978	-0.984823	4.652223	0.262141	9.152976	-2.859113	-13.66935	-1.854311	0.030433	-0.22691	-0.896173	9.166973	1.566997	-1.556946	-7.97149	11.388738	-0.748799	-0.247238	-0.690357	-0.579425
-13.063171	5.66164	6.32007	-27.860845	-53.987753	19.135926	0.666937	-0.040904	-1.033184	4.315185	0.319451	9.542247	-5.397354	-16.264233	0.830716	0.016866	-0.229129	-0.867198	9.469176	0.870646	-1.254877	-11.408796	10.849339	2.903239	-0.26093	-0.711711	-0.485492
-12.726574	6.004593	5.98708	-24.801982	-38.563097	23.793342	0.639096	-0.071225	-1.011578	4.614431	0.037686	10.057811	-6.305086	-19.418463	3.110741	0.00323	-0.186458	-0.826884	9.231896	1.39387	-1.257053	-13.06724	10.147958	5.082626	-0.219836	-0.741005	-0.53019
-12.504978	5.485765	5.59139	-18.029316	-25.927636	26.462876	0.653931	-0.029944	-1.075063	4.138085	0.094262	9.311873	-4.678663	-22.507926	5.085175	0.017387	-0.182096	-0.884558	9.761921	0.927552	-1.368941	-14.421823	9.052526	7.018315	-0.261075	-0.691387	-0.563968
-11.416237	5.772426	5.670606	-12.72126	-14.608009	25.251682	0.666923	-0.023604	-1.050676	4.482615	0.54426	9.319505	-3.949831	-25.760553	6.810645	0.016646	-0.21488	-0.853852	9.584332	1.160262	-1.371253	-16.578079	8.6064	8.006325	-0.191815	-0.705733	-0.578307
-10.155526	5.771756	5.751956	-2.444746	-6.191895	21.863212	0.681072	-0.058577	-1.016042	4.828738	-0.470384	9.269266	-4.517871	-28.911456	9.21432	0.004186	-0.228132	-0.881272	9.585682	0.579501	-1.373726	-18.770904	7.984816	8.200623	-0.247234	-0.709028	-0.532005
-9.015466	5.02298	5.486824	9.094557	0.201514	15.739669	0.609698	-0.029163	-1.021127	4.836446	-0.075738	9.666075	-4.040915	-32.564253	10.658166	-0.00901	-0.213959	-0.86765	9.99839	0.752784	-1.365281	-21.450382	7.410977	9.527364	-0.232629	-0.661073	-0.518918
-8.098448	5.252325	5.562458	20.347752	5.4316	9.076494	0.639468	-0.067696	-1.025654	4.59813	-0.920644	9.207411	-2.771301	-34.898795	9.002057	0.00345	-0.200707	-0.84023	9.820761	0.055783	-1.491363	-24.407677	7.023154	10.518018	-0.23361	-0.705519	-0.594046
-7.182993	4.562122	5.520525	27.96591	9.383555	-0.204012	0.653217	-0.071599	-1.011927	5.239596	-0.808837	9.617281	-1.300119	-36.115563	5.630832	-0.009306	-0.21503	-0.8533	9.699293	0.113387	-1.673037	-27.610681	7.408986	10.558344	-0.233606	-0.72419	-0.546625
-6.49944	3.239504	5.300924	32.080342	11.971522	-9.895823	0.654717	-0.074785	-1.050739	5.23135	-0.92183	9.220709	0.555059	-38.707883	2.307922	-0.048529	-0.216327	-0.838123	10.05532	0.229223	-1.546126	-31.583458	7.417706	11.306267	-0.247167	-0.691183	-0.563898
-5.237942	2.147444	5.377689	35.067541	13.752541	-16.653627	0.655103	-0.088556	-1.047324	5.287167	-0.640333	9.165516	0.825993	-39.629421	-1.64702	-0.035258	-0.21518	-0.852749	10.408182	0.286242	-1.599183	-34.089021	6.896877	10.523125	-0.260516	-0.660655	-0.534586
-8.73307	9.125813	11.306312	45.953939	-9.917688	23.257873	0.640211	-0.06064	-1.053806	5.12425	-0.69596	9.614958	3.593598	-40.978691	-5.696657	-0.021691	-0.212962	-0.881724	10.051209	0.576938	-1.724363	-37.188244	5.985406	8.857613	-0.247309	-0.68953	-0.594953
-0.411545	-3.839648	3.173116	58.406683	16.88987	-23.570953	0.653589	-0.068071	-1.026003	5.699688	-0.584377	9.627142	5.400322	-42.528389	-9.101649	-0.061354	-0.185762	-0.839855	10.237466	0.404282	-1.242549	-39.27037	5.171263	7.004587	-0.23333	-0.690153	-0.579355
4.050229	1.166878	6.179356	15.390579	24.334985	-49.920994	0.668466	-0.078688	-1.037013	5.698587	-0.640755	9.570455	6.16733	-45.542544	-11.011471	-0.047718	-0.228432	-0.880169	10.355519	0.868868	-1.178463	-41.636218	3.622907	5.064428	-0.275263	-0.706957	-0.578729
7.512589	9.283231	10.884177	49.282324	46.141226	-91.727592	0.667709	-0.068446	-1.026353	5.759001	-0.86609	9.684754	8.976634	-48.312939	-13.410455	-0.047863	-0.198863	-0.867826	10.117408	1.275693	-1.241041	-41.439115	2.448326	3.357741	-0.246821	-0.657972	-0.5811
-6.048635	16.53835	25.938358	94.42718	32.717065	-57.528423	0.683373	-0.123904	-1.013038	5.182162	-0.245377	9.673186	8.47141	-51.658876	-13.968185	-0.073815	-0.199013	-0.867275	10.176546	4.064691	-0.868632	-37.397784	0.684332	0.81476	-0.205585	-0.688918	-0.594743
-6.536325	-6.829992	14.691613	85.229647	103.826785	-26.498228	0.682201	-0.065292	-1.040778	4.984562	0.376018	11.254781	5.53885	-58.438758	-10.061208	-0.061649	-0.186833	-0.825505	10.359198	6.389799	-0.256373	-33.028143	-2.793074	4.360895	-0.247167	-0.691183	-0.563898
-6.087625	9.196347	14.881552	107.624606	131.865157	37.741634	0.695979	-0.103793	-0.992067	6.273384	-0.583166	12.243444	11.422407	-69.321319	-9.024025	-0.061285	-0.230651	-0.851194	12.596076	4.304944	2.411347	-37.666048	-8.831353	21.768046	-0.218725	-0.642197	-0.566268
-7.035053	4.257137	1.373497	79.866159	115.055399	24.148889	0.725377	-0.145856	-0.982518	6.130534	-1.260054	10.881107	20.933441	-77.350834	-15.169165	-0.048014	-0.229504	-0.865819	12.957234	2.213891	2.528863	-28.584728	-15.455102	17.701262	-0.233748	-0.722537	-0.577681
-5.270031	3.404403	3.791111	-80.315607	69.843239	22.341756	0.726149	-0.173398	-0.975687	5.952487	-0.358585	10.70832	22.715111	-83.374097	-19.481723	-0.06202	-0.203226	-0.810152	11.883939	2.21385	1.909986	-15.218073	-17.098435	0.788733	-0.232984	-0.656941	-0.596557
-2.514087	2.222521	10.034251	-85.563462	56.610833	19.167351	0.710899	-0.166309	-0.950601	5.040334	-0.581851	11.085265	18.518044	-90.448157	-20.17194	-0.101023	-0.218771	-0.808321	10.91458	0.699605	0.328372	-1.896665	-12.487233	0.13778	-0.232633	-0.642401	-0.566339
-0.253363	0.733215	11.435877	-23.693455	57.206777	18.999026	0.737212	-0.098203	-0.968379	6.146704	-0.865077	11.674393	18.328383	-98.20349	-21.543887	-0.100508	-0.231948	-0.836017	10.132524	0.930451	-0.463735	5.771772	-8.585935	4.095192	-0.260658	-0.659002	-0.565642
-8.819407	0.042372	9.447773	17.961835	28.23496	-10.694936	0.753604	-0.129305	-1.000709	6.191056	-1.54172	10.995358	23.19105	-107.342745	-26.748008	-0.088713	-0.23616	-0.778894	9.109617	1.799931	-1.437244	7.951645	-5.23492	3.184954	-0.232704	-0.641575	-0.581866
-2.157431	1.638165	7.765509	-41.334177	7.110459	-20.498255	0.766982	-0.136737	-0.972906	6.866586	-1.541246	12.991042	23.083289	-116.328833	-32.262808	-0.141062	-0.268173	-0.761434	8.706314	2.790888	-0.781769	5.627398	-2.050765	2.077888	-0.219076	-0.656737	-0.596487
-4.705303	2.163277	9.195754	14.290577	7.089386	1.362129	0.753604	-0.129305	-1.000709	7.436196	-1.542561	12.719933	33.320145	-127.857305	-37.208788	-0.140987	-0.252853	-0.762437	9.834378	3.196585	-0.339781	-0.754882	-1.639482	1.518337	-0.246612	-0.641779	-0.581937
-2.836985	3.593605	8.215176	-8.886472	5.088613	-5.136015	0.766253	-0.161093	-0.927262	7.210746	-2.161623	12.884494	41.77687	-138.60251	-43.504682	-0.167604	-0.270467	-0.732183	9.833703	3.486965	-0.338545	-6.528738	-3.91456	-2.300805	-0.232775	-0.640749	-0.597394
-3.553077	1.532039	9.556488	-19.50008	10.238182	-0.114825	0.781859	-0.147354	-0.983915	8.189142	-2.050794	12.905141	51.354195	-148.657239	-50.070155	-0.16746	-0.300036	-0.744525	10.432283	4.126677	0.214341	-10.627671	-4.867371	-6.223889	-0.192028	-0.703254	-0.624891
-3.252537	1.822175	10.302352	-15.515124	14.76809	0.468684	0.738369	-0.139516	-0.958131	8.013382	-1.712583	12.788519	57.503698	-158.492972	-54.632514	-0.154038	-0.268248	-0.761158	10.668193	3.719357	0.157105	-11.192032	-5.09989	-7.595989	-0.26017	-0.627443	-0.551788
-3.152752	2.163605	9.566937	-8.228921	19.745876	-1.863491	0.752861	-0.136362	-0.972557	8.059098	-1.206143	12.280399	57.675423	-167.241177	-58.849766	-0.168345	-0.303252	-0.701476	10.43842	2.907822	0.38887	-10.519243	-6.328867	-6.828533	-0.218934	-0.65839	-0.565431
-3.061958	2.617988	8.377179	-5.942654	18.634564	-3.206876	0.753218	-0.115534	-1.004124	8.847851	-1.715337	11.447302	58.495062	-176.24337	-65.288316	-0.181912	-0.305471	-0.672501	9.267056	3.31928	0.907754	-9.08185	-7.977937	-6.581379	-0.219072	-0.675408	-0.549066
-3.653515	2.729185	7.400025	-9.56971	12.351691	-3.543902	0.765838	-0.112723	-0.965662	7.189957	-2.669451	11.864555	60.953359	-182.475854	-69.694411	-0.195779	-0.368971	-0.639511	8.615117	3.087719	0.714939	-5.471732	-10.798795	-7.620069	-0.2327	-0.660246	-0.534446
-3.514385	2.562085	8.652296	-18.436181	6.601871	-4.255876	0.766196	-0.091895	-0.997229	7.085837	-2.105456	12.429007	79.62726	-178.911626	-76.209413	-0.208379	-0.292444	-0.644253	8.377682	3.204164	0.651125	-2.53621	-14.094717	-7.30936	-0.219493	-0.689122	-0.594813
-3.272994	2.392248	9.28141	-19.30498	5.845927	-5.707097	0.766624	-0.157564	-0.941338	6.498872	-1.879483	11.907351	104.594954	-168.360277	-82.896452	-0.235963	-0.388804	-0.580281	8.675774	2.855527	0.774958	-0.145062	-16.264026	-6.696443	-0.233055	-0.656115	-0.612085
-3.324805	2.56582	9.565286	-19.67173	7.406142	-7.919534	0.795237	-0.154785	-0.956112	6.929413	-1.374509	10.558099	124.08309	-158.799255	-89.690108	-0.275331	-0.360532	-0.552762	8.664094	3.143435	0.177125	1.108057	-17.573432	-6.816976	-0.232842	-0.658594	-0.565502
-3.382842	2.106088	9.505388	-22.084872	8.873049	-8.164771	0.780373	-0.161467	-0.927611	7.597014	-1.264042	9.496548	132.40222	-148.411336	-94.542642	-0.275927	-0.422886	-0.534397	8.776354	3.258081	-0.119714	2.05677	-18.301541	-7.061426	-0.232913	-0.657768	-0.581029
-3.276252	2.276641	9.110368	-22.348104	10.713167	-7.919419	0.766224	-0.126494	-0.962246	7.246701	-0.587572	9.319945	152.44253	-136.312405	-99.029649	-0.249529	-0.391023	-0.551306	8.779365	2.910119	-0.001384	3.118783	-16.92675	-6.552293	-0.232909	-0.676439	-0.533609
-3.610415	1.646963	9.555857	-23.315964	11.672496	-6.183564	0.766967	-0.119437	-0.990398	7.17299	-0.362758	8.582611	170.500019	-117.051316	-100.056651	-0.277328	-0.412925	-0.463652	8.600001	3.432961	-0.062367	4.122133	-15.619961	-5.40083	-0.260658	-0.659002	-0.565642
-4.58114	1.131176	9.648462	-19.104797	11.595178	-3.068725	0.781102	-0.137111	-0.973255	8.039559	-0.08258	8.770901	192.664312	-97.06902	-95.80259	-0.29068	-0.489602	-0.458359	8.845389	2.737239	0.358416	4.550734	-12.846149	-4.345962	-0.274566	-0.659206	-0.565712
-3.730284	1.358632	9.268158	-9.324881	9.505601	0.886689	0.738355	-0.122217	-0.975623	8.523884	-0.760892	7.138663	203.875843	-99.566134	-76.800723	-0.214306	-0.554721	-0.3986	9.080353	2.736452	0.302911	5.723536	-9.922365	-2.744377	-0.274637	-0.65838	-0.58124
-3.794592	1.8742	8.928098	-6.602476	7.718566	2.383191	0.77883	-0.106383	-0.941275	4.705497	-1.770918	3.377656	180.264473	-98.55309	-66.452911	-0.27874	-0.523383	-0.413578	9.020102	2.794416	0.242151	5.966926	-6.962442	-1.995327	-0.232771	-0.65942	-0.549974
-3.620685	1.989441	9.045627	-8.107075	6.780586	3.16963	0.779587	-0.116626	-0.951935	-3.592633	-1.478798	-2.571011	114.348373	-77.095604	-65.244729	-0.305282	-0.525677	-0.384327	9.499144	3.608378	0.733671	6.541706	-5.07311	-1.120113	-0.246959	-0.67499	-0.564735
-3.331362	2.392048	9.223443	-8.599348	7.879259	0.950172	0.751318	-0.081278	-0.98622	5.354665	-0.872488	1.523815	29.1455	-34.808281	-50.960317	-0.280291	-0.544063	-0.340826	10.51821	2.97046	1.528448	6.654742	-8.06801	-4.2847	-0.232842	-0.658594	-0.565502
-3.220069	2.218917	9.054387	-10.74643	9.282376	-1.68896	0.752475	-0.122591	-0.975972	3.108672	-0.133604	4.194776	-23.808291	11.460815	-40.709652	-0.281107	-0.592168	-0.309115	13.024845	3.726453	3.195367	14.357551	-16.01821	-10.692471	-0.219143	-0.674582	-0.564594
-3.340146	2.217794	8.767894	-14.881816	10.539356	-3.09804	0.751718	-0.112348	-0.965312	2.094498	-0.015765	7.910115	-34.38353	29.329074	-22.815446	-0.254415	-0.559234	-0.340373	15.768334	3.668593	4.803319	20.858741	-27.929703	-33.668928	-0.219214	-0.673756	-0.580122
-3.855063	1.701193	8.755701	-18.43135	11.287892	-2.799642	0.76661	-0.140265	-0.95883	-0.030615	-0.239293	5.374263	5.915778	50.619824	-17.423191	-0.266505	-0.556093	-0.383147	9.873491	1.24315	4.742799	-1.400006	-23.608413	-39.261444	-0.205373	-0.691397	-0.548159
-3.890953	1.41861	9.83359	-15.290714	12.951498	-1.861592	0.809329	-0.120561	-0.991445	0.897554	-0.804086	5.676329	2.748876	56.990684	-13.447325	-0.254119	-0.558162	-0.354723	4.541686	1.295443	0.33181	-17.967743	-4.130978	14.704898	-0.247656	-0.722742	-0.577751
-4.196652	2.104015	8.864416	-11.651581	15.031958	0.461852	0.752089	-0.10882	-0.979388	1.510485	0.320627	4.840981	6.415176	46.868209	-9.907427	-0.280662	-0.560456	-0.325472	4.664604	2.793642	-2.414178	18.981739	-3.554906	66.419743	-0.233472	-0.6885	-0.610411
-3.961528	1.358315	9.149998	-12.404971	15.491902	2.955573	0.807071	-0.107132	-0.941973	1.651943	-0.413273	3.314722	-0.261846	36.817107	-9.334562	-0.279927	-0.587881	-0.366514	6.238482	2.204538	-3.525169	19.403099	0.026753	42.582256	-0.247305	-0.708202	-0.547533
-3.556501	1.646198	9.386411	-9.059095	14.553962	5.721408	0.794851	-0.141014	-0.959528	1.771478	-0.187977	3.543888	-15.098985	35.874221	-11.143869	-0.253899	-0.57241	-0.368069	6.784743	1.858081	-2.737959	12.133216	6.590289	17.631945	-0.260796	-0.676021	-0.549277
-3.9626	1.300633	9.092904	-3.145535	13.585002	6.853977	0.764309	-0.074938	-0.961833	2.014583	-0.582247	4.114788	-21.229183	41.679667	-15.468535	-0.2668	-0.557165	-0.368797	7.082065	2.787611	-2.488873	7.258209	9.618367	7.089914	-0.232909	-0.676439	-0.533609
-3.971016	2.160567	8.698552	-2.884774	12.127575	5.3882	0.794437	-0.092644	-0.997928	1.673595	-0.356089	4.334283	-30.687151	55.501186	-19.315359	-0.266725	-0.541845	-0.369801	8.513454	2.96206	-1.623025	5.442355	11.592687	4.855872	-0.260933	-0.69304	-0.532912
-3.910422	2.161249	8.870224	-3.843232	11.677828	4.003631	0.765467	-0.116251	-0.951586	1.222873	0.208505	4.834842	-43.420992	74.294054	-21.265721	-0.215342	-0.588578	-0.353543	9.416013	2.615287	-0.709398	2.561548	12.756509	0.765234	-0.219005	-0.657563	-0.580959
-4.134571	1.587965	9.09077	-6.909988	12.138381	2.793251	0.763924	-0.061167	-0.965249	1.282749	0.264823	4.949378	-56.880975	97.040266	-20.279592	-0.227803	-0.601829	-0.380963	10.791687	2.790612	0.335071	-4.723084	11.469229	-4.458978	-0.274774	-0.675399	-0.564875
-3.566605	1.75891	8.875216	-5.988839	12.576027	2.521706	0.780702	-0.106041	-0.994163	0.659439	0.77341	5.446263	-72.593294	120.406796	-15.898097	-0.239818	-0.583368	-0.42474	12.272863	2.672321	0.661622	-12.384618	4.663989	-8.646774	-0.233259	-0.690979	-0.563827
-3.564461	1.874275	8.989405	-6.377208	14.109984	2.609089	0.737226	-0.115502	-0.950887	0.849298	1.280773	6.29991	-86.211602	138.664068	-9.007014	-0.239598	-0.597617	-0.438086	11.799923	3.021857	0.654302	-21.152553	-2.989465	-11.023335	-0.218587	-0.625179	-0.582633
-3.896479	1.359963	9.549083	-7.515988	14.431459	0.900206	0.821921	-0.083151	-0.987966	1.559879	1.674599	7.277622	-91.839176	151.224596	-1.148763	-0.186727	-0.518571	-0.472907	10.632266	3.259829	1.352165	-23.953937	-9.689344	-11.836899	-0.246608	-0.66045	-0.534516
-4.363547	1.530689	9.086074	-2.091871	13.95815	1.490255	0.779187	-0.085555	-0.972842	1.860464	1.956234	7.90694	-93.748991	154.855495	6.777875	-0.199784	-0.594176	-0.481963	10.044575	3.145521	1.46048	-23.985202	-11.706641	-9.015608	-0.247096	-0.692009	-0.54837
-3.852504	1.242143	8.867477	-0.560107	12.965598	2.911088	0.777673	-0.06507	-0.951522	2.384705	1.899171	8.20097	-84.960341	151.673952	13.813057	-0.185992	-0.545996	-0.513949	8.97265	3.029575	0.901015	-20.101994	-9.606514	-6.686501	-0.205164	-0.675204	-0.548996
-3.55852	1.358508	9.271499	-2.125391	12.057039	3.790179	0.778816	-0.089084	-0.958766	2.962454	2.06718	8.326481	-80.293419	145.074506	20.194418	-0.185992	-0.545996	-0.513949	9.203233	3.492654	0.667767	-15.386825	-7.316056	-4.728013	-0.24647	-0.643432	-0.550881
-3.905595	1.64524	9.095465	0.289009	10.335267	4.828597	0.77883	-0.106383	-0.941275	3.491638	1.953975	8.847023	-80.126391	136.861223	25.662122	-0.185031	-0.52746	-0.558002	7.303091	1.867385	-0.213066	-17.453987	-3.560585	-4.799573	-0.232425	-0.626209	-0.567176
-3.688825	1.642421	8.474535	2.526329	10.063922	5.277752	0.808214	-0.131146	-0.949217	3.769925	2.51641	8.457064	-81.720731	130.93235	29.702198	-0.172125	-0.482495	-0.546939	6.638932	2.156036	-1.002724	-11.9836	1.625596	1.360043	-0.247723	-0.740587	-0.545858
-3.74146	1.413661	8.699869	-1.271113	10.19427	5.781471	0.794451	-0.109944	-0.980436	4.862112	2.063623	8.366375	-86.550891	128.002914	32.59801	-0.184291	-0.494675	-0.588708	7.642767	2.386292	-0.923121	-5.475055	5.062046	2.573167	-0.274633	-0.677051	-0.533819
-3.745215	1.987353	8.531722	-0.038907	10.933008	6.188599	0.793322	-0.103229	-0.9557	5.338458	2.007047	9.112314	-91.58778	125.693377	33.989161	-0.157227	-0.445348	-0.63532	8.234454	2.675816	-0.791066	-3.866472	7.914307	-0.563709	-0.246541	-0.642606	-0.566409
-4.085152	1.643676	8.694153	0.046671	11.734378	3.318674	0.763981	-0.130364	-0.895282	5.004616	2.28982	9.671693	-94.606099	124.089629	34.433226	-0.145212	-0.463809	-0.591543	9.304178	2.791268	-0.351416	-2.742239	10.34414	-1.465692	-0.246821	-0.657972	-0.5811
-3.797233	2.448133	8.816805	-4.277185	12.691528	1.169282	0.821963	-0.135049	-0.935491	4.611675	2.741646	10.173367	-96.177444	122.046046	34.658267	-0.132311	-0.479055	-0.590815	9.372653	2.037876	0.065819	-2.297693	12.96048	-2.885655	-0.260866	-0.675195	-0.564805
-3.622207	1.012452	8.927819	-5.801211	14.287559	0.739593	0.821192	-0.107507	-0.942322	4.558837	2.798274	10.398764	-96.294849	120.056518	34.11426	-0.142625	-0.409273	-0.709352	9.551652	2.618973	0.251313	-4.066333	13.627483	-5.87749	-0.246332	-0.626413	-0.567246
-4.134654	1.702848	9.091252	-1.074193	15.384451	0.80515	0.821206	-0.124806	-0.92483	4.857975	2.572839	10.914375	-92.053802	118.097383	32.679988	-0.13017	-0.456231	-0.692267	10.566316	1.980066	0.806463	-6.052655	12.37211	-6.444972	-0.233051	-0.674786	-0.564664
-4.360372	1.761179	9.257599	-1.498287	16.275701	0.636849	0.807071	-0.107132	-0.941973	5.146472	2.854001	10.977296	-87.626343	116.231903	31.339293	-0.15523	-0.392956	-0.724429	10.696453	1.982515	1.46764	-7.31111	10.121154	-2.18158	-0.232909	-0.676439	-0.533609
-3.900892	1.301556	9.321429	-2.84062	16.627039	1.627791	0.765838	-0.112723	-0.965662	4.905115	2.966666	10.462799	-87.322879	115.60578	29.267699	-0.116378	-0.408051	-0.724253	10.027063	2.153779	0.377953	-5.622997	8.841076	3.869906	-0.219355	-0.672103	-0.611178
-4.023361	1.529716	8.922196	0.750344	18.475606	-0.008561	0.821206	-0.124806	-0.92483	4.794951	3.530424	10.744053	-86.761684	115.867231	27.852579	-0.116302	-0.39273	-0.725257	9.616576	2.445846	0.551206	-4.441602	8.205729	6.558304	-0.274845	-0.674572	-0.580403
-3.747276	1.757104	8.417051	1.977254	19.229615	-0.950546	0.820835	-0.128334	-0.910755	4.683123	3.699773	10.911697	-87.587268	116.474957	27.025558	-0.102435	-0.32923	-0.758246	9.664992	2.26901	-0.047504	-4.339473	8.467194	7.932096	-0.275058	-0.672094	-0.626986
-4.032435	1.757552	8.468337	-1.464676	18.802497	-2.634335	0.834541	-0.080339	-0.949503	4.920746	3.643296	11.256323	-85.700556	116.535327	26.133614	-0.115712	-0.390587	-0.753956	9.607752	1.979012	0.010067	-6.105359	8.756368	5.980979	-0.260937	-0.674368	-0.580333
-4.425587	1.989298	8.859479	-4.527933	20.223298	-4.503876	0.821578	-0.121278	-0.938906	4.932488	3.193079	11.7657	-82.69611	117.037397	25.462774	-0.089164	-0.328083	-0.772872	9.547635	1.9789	-0.050941	-9.241574	8.601027	2.172595	-0.246892	-0.657145	-0.596627
-4.261079	1.240744	8.461711	-2.709673	22.174636	-5.090769	0.821549	-0.086679	-0.97389	5.323357	3.19185	11.207766	-78.067795	116.428631	24.443061	-0.10251	-0.34455	-0.757243	9.970227	1.689553	0.434781	-13.500482	7.56559	-2.697089	-0.246683	-0.640953	-0.597464
-3.903409	1.703164	9.209412	-3.145224	22.09748	-6.593551	0.792536	-0.058388	-0.980023	5.89329	3.021544	10.936515	-73.969758	115.387412	22.925348	-0.036519	-0.294998	-0.804681	9.918779	1.749494	0.853276	-16.642098	6.116614	-5.643296	-0.261008	-0.673542	-0.59586
-3.855518	2.33305	8.758356	-4.424408	23.695639	-7.115937	0.836841	-0.145666	-0.9465	5.886553	2.119923	10.539279	-71.051713	113.87285	21.217004	-0.088574	-0.325939	-0.801571	10.272066	2.09714	0.861362	-17.551969	4.49778	-6.182382	-0.219702	-0.705315	-0.593976
-4.763339	1.703545	9.135857	-2.083902	25.802331	-7.640479	0.791436	-0.086272	-0.920304	5.995077	1.78144	10.201574	-68.97583	111.763646	19.779536	-0.074492	-0.336897	-0.858242	9.922506	2.040863	1.09414	-17.811028	3.030142	-6.327246	-0.2471	-0.673338	-0.59579
-4.022496	1.874607	8.980497	-5.175859	28.312698	-10.749744	0.820449	-0.114563	-0.91417	5.829526	1.838378	10.537833	-69.370921	109.744049	18.587609	-0.074266	-0.290936	-0.861253	9.088151	1.750396	0.598243	-16.355405	2.58818	-4.496716	-0.260662	-0.640331	-0.613062
-4.370643	2.103657	8.747369	-0.56527	30.298683	-10.546714	0.834555	-0.097639	-0.932011	5.580677	1.443737	9.626432	-70.95995	108.683555	18.359974	-0.035113	-0.244749	-0.865091	9.093518	1.809708	0.898024	-12.988227	2.494627	-3.163739	-0.233751	-0.703866	-0.625102
-4.829833	2.161188	8.681849	-2.366331	31.834292	-11.191306	0.821592	-0.138577	-0.921415	6.262438	1.104081	9.187537	-79.410179	109.925404	18.242217	-0.047278	-0.256929	-0.906861	9.086646	1.924377	0.539077	-7.997761	2.055004	-3.301964	-0.24738	-0.688704	-0.610481
-4.312109	1.87409	8.80437	-1.171708	32.060877	-11.712453	0.847547	-0.091299	-0.907624	5.966711	1.442319	8.841939	-84.600985	112.42952	18.848715	-0.034007	-0.255782	-0.921487	9.262303	1.575021	0.421082	-6.026218	1.972223	-3.492081	-0.247033	-0.655493	-0.627683
-4.830449	1.471649	8.6221	-2.177911	33.574681	-12.819746	0.849804	-0.104728	-0.957097	6.560367	0.8786	9.646509	-85.469722	114.707412	20.258001	-0.046097	-0.252642	-0.96426	9.509912	1.344649	1.023563	-6.508088	3.31483	-3.343933	-0.261288	-0.688908	-0.610551
-4.48585	1.529083	8.685876	-0.951155	32.639104	-11.120958	0.847918	-0.08777	-0.9217	6.482298	2.117268	8.796749	-85.565342	114.862947	24.42145	-0.007465	-0.253488	-0.950737	9.863584	1.053211	0.969023	-6.352496	3.219516	-2.946734	-0.219773	-0.704488	-0.609503
-4.824882	1.472855	8.906366	-1.223499	32.533813	-10.079109	0.848318	-0.118841	-0.900793	7.342284	2.678861	8.702078	-85.978755	112.061665	30.31256	-0.019775	-0.236099	-0.980165	10.334052	0.819333	0.857024	-3.896902	3.156162	-4.850164	-0.261426	-0.705927	-0.594186
-4.371176	1.299234	8.687138	-0.208494	33.122711	-10.103128	0.849061	-0.111784	-0.928945	7.574616	2.227833	8.763174	-80.44706	107.947056	37.706142	0.019818	-0.21841	-1.010695	9.628465	0.647219	0.962891	-6.682697	4.001832	-13.645569	-0.191539	-0.671695	-0.611037
-4.777524	1.298318	8.395078	-1.250492	34.213132	-11.830591	0.890651	-0.085366	-0.936824	9.419366	2.731501	8.972204	-71.139648	104.310182	44.953471	0.058897	-0.187544	-1.01353	9.526379	0.418647	1.798397	-3.36869	3.464177	1.044998	-0.219217	-0.655085	-0.627543
-5.175296	1.758864	8.559773	0.650819	34.875973	-12.592043	0.834941	-0.11141	-0.928596	10.66778	2.672088	8.149159	-60.0034	98.678282	51.535068	0.032945	-0.187694	-1.012978	10.465715	1.112657	1.63925	0.728399	1.96119	-3.05806	-0.247238	-0.690357	-0.579425
-5.565849	1.474118	9.06245	2.370333	34.530338	-11.222456	0.918907	-0.103414	-0.920031	12.956991	2.723586	7.574527	-50.561143	90.978058	57.108198	0.046066	-0.217188	-1.025596	9.626399	0.588649	0.842829	0.229599	-0.082741	-6.713901	-0.24738	-0.688704	-0.610481
-5.618193	0.843267	9.286094	6.948856	36.613527	-11.477804	0.862439	-0.119215	-0.901142	14.309033	3.621197	6.301589	-46.974043	82.010308	62.324921	0.033686	-0.15491	-1.043685	9.206008	0.878491	0.476921	5.329211	-0.37024	-9.695401	-0.232846	-0.639923	-0.612922
-5.567951	1.30131	8.94802	8.928148	39.23102	-11.134252	0.905172	-0.116811	-0.916266	15.847823	4.124693	5.654981	-44.241995	71.206279	65.395324	0.086035	-0.122897	-1.061145	9.326916	0.588335	0.5977	9.202512	0.35255	-7.268013	-0.247171	-0.672512	-0.611318
-5.730724	1.188482	9.399021	12.497416	42.116687	-12.109731	0.889537	-0.095951	-0.894596	17.57621	4.008846	5.747793	-35.072137	56.354369	67.074042	0.08655	-0.136073	-1.088841	9.041469	0.707387	1.131854	10.923756	1.397132	-4.16196	-0.233263	-0.672308	-0.611248
-5.045981	1.302385	9.29916	16.410004	45.893218	-12.918369	0.890294	-0.106194	-0.905256	14.8138	14.954819	20.192659	-27.314891	39.336802	64.136105	0.124813	-0.153312	-1.059965	9.518115	0.184365	1.318153	10.344532	1.040886	-2.446686	-0.219426	-0.671277	-0.626705
-5.446762	1.302675	9.291365	19.224904	52.18321	-16.320669	0.876174	-0.105819	-0.904907	23.497229	4.112457	8.193421	171.876307	8.262227	31.583941	0.112722	-0.150172	-1.102738	10.11656	0.882152	1.871286	8.337749	-0.762263	-0.321998	-0.219147	-0.655911	-0.612015
-5.850018	1.647132	9.171312	20.966855	58.813307	-20.358522	0.87543	-0.112876	-0.876755	24.656361	7.603363	8.900214	164.422374	-40.646158	40.248228	0.098641	-0.139214	-1.046067	9.830978	1.05928	2.405688	8.573389	-1.109619	3.774288	-0.247451	-0.687878	-0.626009
-5.272114	1.935131	9.467919	22.222146	66.337837	-24.901957	0.946791	-0.124991	-0.889161	10.841673	14.051431	9.238518	222.491818	-76.260075	12.718316	0.111026	-0.141283	-1.017643	10.237509	1.521707	2.115834	11.458702	-1.412437	7.432993	-0.219284	-0.67293	-0.59565
-5.206407	2.568877	9.926512	23.141219	73.920623	-29.320904	0.931541	-0.117902	-0.864076	15.159192	20.252004	23.374979	175.11241	-36.760453	-83.412339	0.072087	-0.261927	-1.037487	9.711852	4.371367	2.777021	12.852522	0.133053	6.35081	-0.233334	-0.671481	-0.626776
-5.626258	3.669042	11.912047	24.956047	82.425506	-33.420808	0.917049	-0.121056	-0.849651	-2.177	-11.657709	19.699111	83.258152	-88.749929	-88.65719	0.059701	-0.259859	-1.06591	10.049004	6.92343	2.195432	5.344201	6.759294	10.778299	-0.247309	-0.68953	-0.594953
-6.027489	2.750026	11.843539	41.062318	95.409022	-33.77752	0.974317	-0.167396	-0.826724	17.425374	-3.139754	11.512965	142.399865	-65.875262	14.021032	0.071861	-0.307889	-1.034476	11.626277	5.347281	1.140145	-0.467821	22.537378	30.104078	-0.233263	-0.672308	-0.611248
-6.764329	1.660623	12.165597	43.618691	103.934388	-28.615765	0.9037	-0.148223	-0.84247	1.2039	5.216821	-0.992399	56.676987	-65.328182	-25.224597	0.071786	-0.323209	-1.033472	12.436726	3.133804	0.007925	-1.483718	32.077525	39.080766	-0.232775	-0.640749	-0.597394
-7.087097	1.30822	10.28243	54.267476	112.079469	-21.858031	0.944147	-0.097791	-0.843105	1.291417	2.29558	8.234973	-62.035905	-34.58429	-4.11367	0.045539	-0.324431	-1.018571	11.779245	1.971297	-0.608193	2.975135	29.960185	17.553581	-0.233196	-0.654463	-0.643141
-6.585377	1.592159	9.611421	52.487059	119.474672	-19.09488	0.944576	-0.16346	-0.787214	3.978926	-3.336571	15.023535	-30.24186	-36.601699	23.853483	0.05837	-0.294787	-1.006504	10.235306	1.333499	-1.238593	16.133211	20.283305	-3.598587	-0.218938	-0.639719	-0.612852
-6.236407	1.765441	9.903091	49.908957	127.025426	-16.848351	0.973174	-0.143382	-0.81948	2.882999	-2.435619	12.283833	19.705612	-46.167974	26.634895	0.032268	-0.325578	-1.003945	8.952356	1.339931	-0.424106	25.553608	11.924725	-5.548767	-0.247242	-0.671685	-0.626846
-7.124433	1.484928	11.305396	42.886259	134.12242	-14.351066	0.973588	-0.191752	-0.781081	4.53944	-1.596598	9.092354	49.853215	-50.935331	-1.997412	0.044578	-0.342967	-0.974518	9.548061	2.269527	0.010202	33.669199	7.530894	-3.815169	-0.247518	-0.705723	-0.594116
-7.868824	1.60035	11.291403	48.81675	142.150613	-7.428862	1.000686	-0.168487	-0.774535	3.464607	2.570231	4.940621	44.587519	-37.553372	-27.886757	0.018997	-0.326725	-0.98932	10.134671	2.848443	-0.096135	38.047828	8.447648	-5.180117	-0.190984	-0.622292	-0.629076
-7.525996	1.025445	11.238818	48.249741	150.059913	-0.827514	1.015207	-0.199932	-0.753976	2.01335	4.095854	7.176054	16.303783	-10.727464	-6.587956	0.006391	-0.310408	-1.004398	10.899005	3.136573	-0.200407	37.183208	12.269298	-5.286907	-0.23361	-0.705519	-0.594046
-8.025703	2.580358	12.088108	45.172298	161.173411	1.171483	1.02817	-0.158993	-0.764573	3.351403	0.15286	10.201229	3.366186	-6.888122	4.877012	0.006316	-0.325728	-1.003394	11.021034	3.31152	0.042163	31.073921	17.508356	-2.264152	-0.26087	-0.656523	-0.612225
-7.178845	2.174992	11.477737	50.203185	171.449331	1.75346	1.055654	-0.1495	-0.754611	3.474757	-0.354045	10.543058	9.474751	-10.622774	-3.016385	0.00565	-0.343192	-0.973691	10.608771	3.89372	0.156746	26.746777	20.899889	-3.364905	-0.261083	-0.654045	-0.658809
-8.206623	2.923202	11.631391	50.418062	181.718707	0.907823	1.041933	-0.180196	-0.733354	3.051942	0.547286	9.68576	10.495424	-10.546291	-3.35391	0.005355	-0.344264	-0.959341	10.958446	3.427066	-0.138163	22.859715	20.050756	-2.460475	-0.218938	-0.639719	-0.612852
-9.369154	2.403197	10.6973	51.507082	196.479759	-2.995428	1.025927	-0.162864	-0.697609	2.585374	0.547911	9.392891	8.434924	-12.431378	-5.131498	0.018846	-0.357366	-0.987313	10.184769	3.369262	-0.512158	21.10122	15.947237	3.280752	-0.247175	-0.65384	-0.658739
-9.660745	2.057548	10.406019	36.047489	205.630887	-6.512991	1.039318	-0.187594	-0.652315	2.799967	1.78623	8.775734	4.174917	-12.153367	-4.330638	0.005725	-0.327872	-0.974695	9.166048	2.438385	-1.493331	17.106378	12.484323	-0.447532	-0.261429	-0.687256	-0.641607
-8.59111	1.950363	12.415437	43.960101	201.67456	1.649668	1.066445	-0.198929	-0.610785	2.637804	1.336288	9.224845	1.471482	-10.647999	-0.618493	-0.00732	-0.283057	-0.96308	9.703546	3.019661	-1.061607	14.662804	11.058346	-5.382949	-0.233196	-0.654463	-0.643141
-7.971783	1.02843	11.855294	62.173009	191.580993	13.546346	1.081337	-0.226845	-0.604303	2.931675	1.335987	9.514087	-1.48232	-11.986134	1.338825	-0.007696	-0.35966	-0.958062	9.400222	3.250909	-1.485468	12.430912	5.887441	-0.093491	-0.233614	-0.686848	-0.641466
-8.308588	0.972685	12.18949	75.406045	179.506077	24.749703	1.109207	-0.231123	-0.590925	3.23079	0.490869	9.972537	-3.419446	-13.641037	2.122345	0.018921	-0.342045	-0.988316	9.523196	3.019324	-1.244629	8.143559	0.589615	-3.934105	-0.247522	-0.687052	-0.641537
-8.426768	1.431576	12.018634	92.239433	163.012268	39.702721	1.08098	-0.247673	-0.572735	3.225631	0.659671	9.746121	-3.324117	-13.54021	0.951953	-0.00747	-0.313698	-0.961073	9.000469	3.661601	-0.712651	4.182807	-4.55524	-4.689815	-0.233543	-0.687674	-0.625939
-8.39009	0.622769	10.936161	109.126244	152.390257	51.469288	1.093214	-0.23109	-0.537688	3.273095	0.884506	9.294403	-3.843522	-13.201683	-0.247395	-0.020597	-0.344414	-0.95879	8.767551	3.256103	-0.59897	5.656642	-7.087394	-7.769765	-0.261429	-0.687256	-0.641607
-8.074525	0.788814	9.522238	113.720191	141.082815	61.726461	1.093986	-0.258632	-0.530856	3.505427	0.433478	9.355499	-8.1699	-13.376816	-0.622554	0.006241	-0.341048	-1.00239	8.530926	3.024092	-0.664267	6.576372	-8.56427	-6.604725	-0.261571	-0.685603	-0.672663
-8.938003	1.075678	9.27933	108.629135	119.164494	71.74647	1.121498	-0.283737	-0.485911	3.173548	0.321985	9.971186	-8.660563	-13.19224	-1.669267	-0.019931	-0.32695	-0.988493	8.595464	3.490048	-0.301747	6.457947	-9.008704	-5.074103	-0.261083	-0.654045	-0.658809
-8.763888	0.903712	9.395653	125.323435	93.464233	82.62262	1.108164	-0.328204	-0.461238	3.33856	0.5467	9.635165	-4.716415	-13.969481	-1.766305	0.005801	-0.312551	-0.975698	8.760948	3.25462	-0.958411	6.969371	-7.333734	-4.197658	-0.260591	-0.641157	-0.597535
-8.234454	1.366007	10.146695	158.624777	70.838145	91.814427	1.120769	-0.308093	-0.440267	3.394162	0.940858	9.580066	-4.887219	-15.173315	-0.8844	-0.019561	-0.310558	-1.003846	8.646757	3.023327	-0.78188	6.535092	-4.781106	-2.74129	-0.219568	-0.669625	-0.657761
-6.626089	0.274423	10.4007	212.577046	60.446212	103.535647	1.092943	-0.355714	-0.40117	3.166749	0.716062	9.68832	-6.231518	-16.332127	0.212808	-0.058193	-0.309711	-1.017369	9.119582	3.196722	-0.712428	4.749146	-2.429147	-0.087107	-0.247663	-0.685399	-0.672592
-6.815181	-1.038123	12.380554	254.663366	70.095761	112.551058	1.105163	-0.321832	-0.383614	3.038775	1.110117	9.119838	-9.064132	-17.881203	1.829019	0.004985	-0.360656	-0.943988	8.997553	3.021775	-0.954998	2.404414	-0.134024	1.958159	-0.247313	-0.670859	-0.642374
5.731042	-12.630467	3.767016	204.217854	93.047505	43.332423	1.092228	-0.397369	-0.338034	3.160035	0.434125	9.348245	-11.918667	-18.696455	3.729969	-0.058859	-0.327175	-0.987666	8.703843	2.906546	-0.901088	0.293509	1.534447	2.56911	-0.247171	-0.672512	-0.611318
20.305364	-5.827189	-14.504366	16.99011	96.635766	-32.58399	1.092971	-0.390313	-0.366186	3.506205	0.658848	9.412328	-13.669567	-20.344242	3.773834	-0.032977	-0.282136	-0.976878	8.882552	3.138939	-0.776984	-2.084269	0.446129	3.469261	-0.247033	-0.655493	-0.627683
-1.806507	-3.625817	-0.831246	-58.208781	-69.936382	106.18167	1.121212	-0.391062	-0.366884	3.913521	-0.355761	9.533216	-14.473999	-20.618173	1.889939	-0.072275	-0.298753	-0.960698	9.584818	2.845455	-1.124456	-4.824732	-0.25373	5.132979	-0.261292	-0.670237	-0.657972
-5.101914	-2.706377	12.122695	-185.376439	-86.53795	129.936538	1.108264	-0.4493	-0.338796	3.628027	0.320886	9.697659	-13.597266	-19.859273	0.079328	-0.019266	-0.309486	-1.018196	9.406919	2.264606	-1.250043	-7.178081	-1.73328	5.423641	-0.260595	-0.622486	-0.644955
1.186574	1.193641	11.92047	-131.779793	-69.237157	49.818055	1.121612	-0.422132	-0.345977	3.454899	0.546532	9.694222	-14.435087	-20.289757	-1.374544	-0.006955	-0.326875	-0.988769	9.707407	3.252954	-0.82099	-8.984909	-4.157181	5.533447	-0.247242	-0.671685	-0.626846
2.507551	-3.255001	6.130711	-69.728804	-83.105059	75.25776	1.135347	-0.408736	-0.349742	3.448747	0.602625	9.411072	-12.864465	-20.611146	-0.759915	-0.058639	-0.341424	-1.001012	9.461574	3.193193	-1.364801	-11.006142	-6.211927	5.367189	-0.260733	-0.639505	-0.62859
0.872818	-1.754529	7.469168	-68.159115	-92.764314	84.414981	1.109364	-0.421415	-0.398516	3.565303	0.489796	9.470034	-15.993412	-21.296193	-0.553447	-0.033347	-0.298528	-0.961525	9.640958	3.135206	-1.241933	-12.408028	-7.772816	4.982383	-0.247033	-0.655493	-0.627683
-0.612338	-0.37389	7.673421	-55.925266	-84.093392	78.573928	1.11015	-0.466257	-0.374192	3.451273	0.546389	9.524303	-15.471454	-21.564341	-0.740662	-0.034088	-0.331313	-0.930818	9.412867	3.021325	-0.827481	-13.872383	-9.394457	4.536966	-0.274503	-0.62269	-0.645025
-0.06965	-0.668026	6.148316	-58.723977	-83.204252	74.948612	1.081509	-0.434437	-0.394401	3.74074	0.320576	9.586798	-16.215456	-21.787224	-0.928445	-0.032832	-0.311705	-0.989221	9.58924	3.3113	-0.822944	-13.78981	-10.182469	3.868022	-0.246962	-0.656319	-0.612155
0.162009	-1.242124	6.264063	-69.790157	-84.863693	70.355305	1.08188	-0.430909	-0.408477	3.630013	0.546303	9.811128	-16.772718	-21.886085	-0.960704	-0.058784	-0.311855	-0.988669	9.416458	3.37077	-0.58637	-14.041541	-10.422068	3.289366	-0.233263	-0.672308	-0.611248
0.220087	-0.839834	6.323719	-89.098058	-88.435901	62.964804	1.112779	-0.476157	-0.43774	3.675814	0.376729	9.245799	-15.692523	-21.964372	-0.960613	-0.058633	-0.281214	-0.990676	9.178463	3.254663	-0.71108	-13.637673	-10.395397	3.80736	-0.247592	-0.686225	-0.657064
0.134114	-0.259063	7.802085	-105.248861	-98.074793	57.673706	1.083795	-0.482465	-0.40889	3.681427	0.602289	9.529187	-15.218714	-21.188548	-1.445767	-0.032241	-0.309561	-1.01792	9.131126	2.96689	-0.114348	-12.537989	-10.496104	2.092296	-0.26087	-0.656523	-0.612225
-0.201002	0.432414	8.253125	-113.974727	-112.237932	53.023416	1.070046	-0.478562	-0.422617	4.086563	0.094607	9.593862	-14.720677	-20.933906	-1.905254	-0.059004	-0.297606	-0.975323	9.130181	3.373423	-0.112617	-11.240734	-9.471338	1.043555	-0.274991	-0.654249	-0.658879
-0.308007	0.836277	8.650559	-118.550716	-130.706554	50.008056	1.070789	-0.471505	-0.450769	3.971864	-0.1305	9.591254	-11.678393	-19.846313	-2.878488	-0.033347	-0.298528	-0.961525	8.888729	2.849795	-0.478685	-10.219618	-8.512207	0.332329	-0.232988	-0.63827	-0.643978
-0.711962	0.606077	8.47124	-126.397977	-147.030309	46.239755	1.057411	-0.464074	-0.478571	4.371757	0.206634	9.486722	-11.002552	-20.172829	-3.220297	-0.046173	-0.267962	-0.963256	8.725966	2.388559	0.234918	-8.708535	-8.103773	-0.194662	-0.260315	-0.60712	-0.630264
-0.410681	1.413429	9.276129	-138.753282	-155.419275	37.860807	1.058183	-0.491616	-0.47174	3.789974	0.883489	9.248643	-9.535188	-18.986585	-3.577257	-0.098893	-0.316367	-0.930443	8.600366	2.329022	-0.186878	-7.010054	-7.668181	-0.325144	-0.246612	-0.641779	-0.581937
-0.919871	2.219431	9.610604	-149.310805	-154.92516	27.964739	1.086038	-0.478594	-0.475854	3.967914	0.03835	9.421478	-9.651015	-18.460953	-4.466132	-0.045733	-0.296459	-0.989949	8.657877	2.502868	-0.244943	-5.835724	-6.830838	-1.036335	-0.288686	-0.656932	-0.612366
-0.969538	2.508368	10.008669	-151.234735	-152.145314	18.019048	1.060069	-0.508573	-0.507136	4.13569	0.71385	9.255755	-9.612752	-17.878065	-4.429478	-0.058929	-0.282286	-0.976327	9.014309	2.444476	-0.118774	-3.766594	-5.587898	-2.211135	-0.246825	-0.6393	-0.62852
-1.475055	2.855562	10.511773	-151.531858	-150.425685	10.013508	1.047421	-0.476786	-0.580582	3.722954	0.770556	8.794223	-11.442788	-18.310952	-2.739721	-0.0722	-0.283433	-0.961701	8.599826	2.561326	-0.185889	-2.192927	-4.342625	-3.781447	-0.274711	-0.638882	-0.644188
-1.590968	3.257494	10.454382	-148.344164	-151.285294	3.059699	1.06267	-0.483875	-0.605668	3.908601	0.320063	9.363866	-11.456855	-19.300593	-1.485625	-0.045802	-0.25157	-0.97861	8.896547	2.328594	-0.121469	-0.518972	-2.70818	-4.498232	-0.274711	-0.638882	-0.644188
-1.851179	4.182556	11.81715	-144.100025	-154.564677	-4.335435	1.063442	-0.511417	-0.598836	4.019112	0.206996	9.139631	-11.457747	-19.276568	-0.468062	-0.033347	-0.298528	-0.961525	8.837801	2.212577	-0.123064	-0.226327	-0.190043	-5.367036	-0.26087	-0.656523	-0.612225
-1.901628	4.011721	12.156431	-139.534389	-160.427735	-11.589767	1.077548	-0.494493	-0.616677	3.738992	0.602181	9.530395	-11.520742	-19.283592	0.487488	-0.058929	-0.282286	-0.976327	8.481233	2.329045	-0.248986	0.119294	0.885593	-5.740159	-0.246612	-0.641779	-0.581937
-1.896351	4.415018	12.442386	-132.42907	-166.856729	-19.443668	1.050021	-0.452088	-0.679114	4.534567	0.318593	9.037327	-12.700463	-19.643088	1.592778	-0.098742	-0.285726	-0.93245	8.944424	2.384063	-0.71919	-0.458132	2.140502	-6.01911	-0.302106	-0.625577	-0.598582
-3.215305	4.243164	12.302345	-126.724964	-172.193714	-26.540018	1.022923	-0.475353	-0.68566	4.073482	-0.018576	8.970731	-12.056567	-20.032743	1.46611	-0.084435	-0.250723	-0.992132	8.712491	2.501744	-0.48347	-0.606774	3.309301	-6.696498	-0.275267	-0.688286	-0.626149
-2.741971	4.648301	13.108886	-121.348718	-175.55581	-34.339827	1.067128	-0.441535	-0.774579	4.24838	0.093857	9.087732	-11.840884	-20.118985	1.003003	-0.07242	-0.269184	-0.948355	8.525248	2.151221	-1.087324	-1.718824	3.278187	-7.028496	-0.27464	-0.639709	-0.628661
-3.089786	4.417818	12.873827	-115.708481	-175.995556	-42.062611	1.036972	-0.389231	-0.773468	4.592564	0.093163	9.038346	-9.422505	-19.499868	0.117089	-0.059374	-0.313998	-0.95997	8.824731	2.151534	-0.842194	-3.011176	3.734272	-7.209359	-0.274987	-0.67292	-0.611459
-4.1056	4.01961	13.591185	-109.157882	-173.923985	-48.459142	1.109461	-0.408061	-0.81061	4.186865	0.262814	8.916747	-8.370939	-19.452046	-0.467323	-0.085101	-0.268187	-0.962429	8.879885	1.918106	-1.08171	-4.088446	4.223617	-7.574526	-0.27457	-0.640535	-0.613133
-4.220068	3.962251	13.588717	-102.536522	-170.032159	-55.317399	1.081906	-0.331057	-0.908031	4.069208	0.319265	8.801097	-7.905872	-19.265779	0.089808	-0.059444	-0.269109	-0.948631	9.00344	2.383928	-0.71809	-5.606307	3.983234	-8.51527	-0.274849	-0.655901	-0.627823
-5.702085	4.079659	13.901368	-95.413666	-168.775015	-62.895134	1.080049	-0.348699	-0.837651	4.02263	0.263469	9.309597	-8.433034	-19.339818	1.013492	-0.086137	-0.302044	-0.917373	9.244716	2.035921	-0.475544	-6.876721	3.24547	-8.598831	-0.260315	-0.60712	-0.630264
-5.635964	4.138989	14.357547	-85.975087	-172.513077	-73.84393	1.138731	-0.294429	-0.958487	4.132387	0.544717	9.085694	-9.396981	-19.756499	1.902591	-0.08451	-0.266043	-0.991129	8.708494	2.326527	-0.723839	-7.645977	2.649824	-7.462448	-0.316502	-0.65734	-0.612506
-6.727139	4.139053	14.165831	-74.839535	-181.955039	-88.327601	1.097127	-0.303548	-0.9681	4.016263	0.432224	9.026541	-10.55496	-20.879303	2.537888	-0.072865	-0.300897	-0.931998	8.824981	1.570527	-0.904573	-9.48757	1.757969	-4.670436	-0.260595	-0.622486	-0.644955
-7.716592	4.88312	13.354096	-62.12888	-192.746071	-105.293947	1.11119	-0.234725	-1.038416	4.76593	0.374539	9.098849	-11.036552	-22.182536	3.942645	-0.137595	-0.270631	-0.932627	8.706813	1.628873	-0.906527	-10.156339	0.681751	-1.392729	-0.246825	-0.6393	-0.62852
-9.121586	4.475269	11.733796	-68.333204	-197.519583	-123.582897	1.110776	-0.186355	-1.076815	4.368908	0.431861	9.373632	-11.711473	-24.159635	4.847296	-0.124989	-0.286948	-0.917549	9.054172	1.684656	-1.259118	-10.088895	-0.29152	1.056698	-0.246754	-0.640127	-0.612992
-12.32062	5.28346	12.072791	-73.238632	-200.748723	-133.780164	1.067628	-0.14039	-1.100091	4.312875	0.263025	9.428921	-11.598626	-27.352957	5.678834	-0.111568	-0.255161	-0.934182	8.819458	1.104435	-1.265992	-10.199246	-0.161397	3.226478	-0.274707	-0.657554	-0.596768
-15.531363	5.342257	11.783265	-64.076132	-200.69129	-135.094705	1.054594	-0.094832	-1.176953	4.595867	0.262297	9.208407	-14.23994	-30.862097	7.244903	-0.111568	-0.255161	-0.934182	8.943823	1.221801	-0.903856	-9.93473	0.333347	5.759969	-0.275058	-0.672094	-0.626986
-18.149509	6.024494	9.632489	-49.904755	-189.102993	-128.563211	1.054194	-0.063761	-1.197861	4.543029	0.318925	9.433804	-16.326161	-34.398147	9.304415	-0.111643	-0.270481	-0.933178	9.234907	1.045909	-1.138723	-10.599147	0.832331	7.5633	-0.288824	-0.67395	-0.596001
-21.354545	4.980522	6.667396	-38.563008	-169.032551	-114.489753	0.997297	-0.013893	-1.234863	4.780952	-0.526227	9.721126	-17.746794	-39.0589	11.10666	-0.137375	-0.28488	-0.945973	8.819998	0.872131	-1.266981	-11.362617	0.691439	9.094983	-0.316226	-0.623302	-0.645236
-21.041322	7.12427	11.058466	-4.928924	-170.90854	-16.839919	0.970171	-0.002559	-1.276393	5.018598	0.036979	10.122913	-18.060933	-44.194022	12.53514	-0.111643	-0.270481	-0.933178	9.173555	1.103625	-1.25939	-12.96102	0.893811	9.680545	-0.302039	-0.607732	-0.630475
-24.714869	1.802129	1.53073	49.61072	-109.079472	-47.218424	0.970514	0.035568	-1.325452	4.56388	-0.468944	10.339374	-16.084159	-49.161887	11.56248	-0.137595	-0.270631	-0.932627	8.759206	1.162399	-1.326753	-13.820202	0.727671	10.662542	-0.302106	-0.625577	-0.598582
-23.412152	6.866205	3.964292	-28.58183	-75.342633	-20.157363	0.970499	0.052867	-1.342944	5.320476	-0.357352	10.751661	-13.651531	-54.822296	9.473472	-0.15005	-0.223673	-0.949712	9.057433	0.755686	-1.203167	-16.089685	1.007078	12.442239	-0.27429	-0.625169	-0.598442
-24.221212	4.911843	3.485674	2.621819	-37.37863	20.023332	0.941887	0.050088	-1.32817	5.556089	-1.258929	10.925657	-7.36747	-61.405049	5.775323	-0.13774	-0.241062	-0.920284	8.760982	0.872266	-1.268082	-18.854162	0.853304	14.531487	-0.288131	-0.607528	-0.630405
-19.78857	6.165327	1.929095	-13.439758	-8.640924	35.438619	0.927023	0.043406	-1.299669	5.619722	-0.639117	11.267225	-3.836369	-68.268783	2.133852	-0.163547	-0.270781	-0.932075	9.220871	0.926543	-1.918007	-20.915128	0.650673	15.670883	-0.274152	-0.60815	-0.614807
-18.727724	7.43505	3.546333	-12.793431	10.879904	43.541751	0.913617	0.085436	-1.362455	5.449097	-1.08939	11.319859	0.424644	-75.985416	-1.053058	-0.150565	-0.210496	-0.922016	9.931941	0.635037	-1.786224	-21.894289	0.477785	17.264734	-0.274223	-0.607324	-0.630335
-15.279511	8.009874	4.297793	2.315499	24.171657	37.61282	0.886905	0.0484	-1.365585	6.028485	-1.146656	11.501819	6.68336	-84.647412	-5.974088	-0.176743	-0.256608	-0.918453	9.94142	0.346634	-1.308205	-23.266198	1.685348	18.333793	-0.315947	-0.607936	-0.630545
-12.057265	8.987678	5.217047	28.50828	29.635422	19.136607	0.92738	0.064233	-1.331236	6.261811	-1.484976	11.61965	9.656292	-94.268268	-11.462131	-0.203065	-0.27315	-0.902549	9.825163	0.056771	-1.251735	-25.985548	2.715547	21.303796	-0.260315	-0.60712	-0.630264
-10.22591	10.077741	5.257263	61.943009	39.391512	-25.270396	0.915146	0.047651	-1.366283	5.635606	-1.990528	11.889123	15.072487	-103.872865	-19.475793	-0.20321	-0.243581	-0.890206	9.237452	-0.522391	-1.205305	-29.231599	4.711393	22.406484	-0.302039	-0.607732	-0.630475
-7.452698	11.562435	3.726212	106.214055	61.647588	-97.162781	0.942258	0.053616	-1.342246	6.322118	-1.65398	11.733995	16.967755	-113.403611	-26.936545	-0.203875	-0.261045	-0.860503	8.952971	-0.345016	-0.610997	-29.378398	6.218282	21.574481	-0.301897	-0.609385	-0.599419
-5.795386	31.520791	10.26441	177.039499	80.539372	-135.390566	0.94303	0.026074	-1.335414	6.803299	-1.710367	12.706493	19.103441	-123.425181	-34.031951	-0.216846	-0.200911	-0.849892	9.206102	-0.109296	0.352904	-30.612514	5.284152	22.745006	-0.287989	-0.60918	-0.599349
-17.181892	7.126559	12.326985	214.364693	87.015085	-35.517624	0.985763	0.028479	-1.350538	7.008203	-1.484087	14.239578	21.709795	-135.197435	-40.065368	-0.243243	-0.232773	-0.832984	9.631192	3.262618	1.453271	-25.802281	1.198082	23.175042	-0.274014	-0.591131	-0.631172
0.121964	-3.843739	15.799828	68.368574	107.636012	18.081886	0.985806	-0.023419	-1.298062	6.590899	-0.692843	16.326236	18.296956	-153.609145	-42.223855	-0.243469	-0.278735	-0.829973	10.783257	5.184473	3.399359	-23.64401	-7.580992	35.834578	-0.31525	-0.560185	-0.617529
1.797011	11.325174	17.203446	127.647325	124.847269	1.109942	0.999155	0.003748	-1.305243	6.070538	-2.663679	16.030498	34.842776	-174.55142	-50.772196	-0.270677	-0.298493	-0.771019	13.032257	3.37948	3.553325	-27.665376	-26.603823	55.140447	-0.329504	-0.5936	-0.600397
-14.188966	3.343735	1.344156	202.943056	161.028264	-8.17925	1.028196	-0.059142	-1.264126	7.566053	-2.046845	16.062451	41.962594	-193.354425	-57.796305	-0.269716	-0.279957	-0.815072	14.397021	2.564546	3.874708	-30.380853	-36.645642	52.324095	-0.315388	-0.577204	-0.601164
6.3058	2.823787	4.525301	-112.667097	138.880186	28.033948	1.112548	-0.064917	-1.252146	6.928776	-1.82048	15.879424	47.763506	-216.003524	-61.715477	-0.284614	-0.317104	-0.72669	14.792757	1.513782	2.799637	-43.188081	-41.756934	57.225966	-0.329296	-0.577408	-0.601234
-14.606575	0.977244	12.067006	-17.140178	66.597279	-20.520996	1.110662	-0.04796	-1.216749	9.139361	-1.260322	17.058629	50.36766	-237.582336	-66.951967	-0.310415	-0.286613	-0.728146	12.966224	0.052582	-0.474529	-38.366531	-37.069266	63.943773	-0.315317	-0.57803	-0.585636
-2.372252	-4.780604	11.1441	-81.219715	36.162254	-97.068103	1.109904	-0.037718	-1.206089	10.323064	-1.376242	15.89449	43.572937	-264.813265	-71.882159	-0.350159	-0.334943	-0.695608	9.402787	2.147465	-1.490165	-25.207401	-15.9534	155.992696	-0.342644	-0.54688	-0.571923
-6.21713	4.100196	5.139552	103.318299	70.430103	7.747413	1.109876	-0.003119	-1.241073	8.326558	-3.735446	19.190714	30.913639	-282.190686	-78.599402	-0.338144	-0.353404	-0.651831	7.678789	1.858034	-2.242197	15.755463	-12.477734	64.516992	-0.32839	-0.513464	-0.589055
-1.604914	4.423594	1.025177	10.232811	32.503644	27.024401	1.097699	-0.088899	-1.206153	5.829553	-5.419339	20.665368	72.444268	-281.486171	-91.504591	-0.404575	-0.374459	-0.5777	7.617538	4.240027	-2.05344	18.47318	-9.349547	-6.43013	-0.328878	-0.545023	-0.602908
-4.655071	2.001809	11.753419	-69.78428	4.011812	-0.132653	1.138917	-0.066009	-1.199956	6.42355	-5.140389	18.866436	127.353998	-267.050577	-102.258976	-0.405241	-0.391923	-0.547997	8.218339	5.345088	-1.318856	4.588799	-8.789363	-3.265231	-0.314415	-0.495415	-0.620877
-4.489119	0.793965	11.410574	-2.397439	13.985363	1.675583	1.096155	-0.033815	-1.219816	6.649533	-4.411002	16.041117	165.131525	-254.125201	-112.795321	-0.431488	-0.393145	-0.533096	9.774842	3.89388	-0.278008	-8.023943	-10.221104	9.593453	-0.287084	-0.545237	-0.58717
-3.258384	2.842571	7.124036	18.721452	23.009207	11.360141	1.16713	-0.032159	-1.235638	6.544199	-3.455078	13.888409	197.335844	-232.628245	-125.654819	-0.458702	-0.473113	-0.484477	11.736485	2.556148	0.351689	-12.635848	-8.585684	9.571786	-0.342577	-0.529035	-0.603816
-3.287967	3.07841	8.545215	-16.318451	13.687425	0.576103	1.138531	-0.052238	-1.203372	4.062889	-2.211314	13.667551	224.467901	-191.91137	-135.060322	-0.408199	-0.462852	-0.414835	12.214407	2.905007	0.721417	-4.794197	-3.799235	-1.024013	-0.342018	-0.498302	-0.574434
-4.239183	1.762543	9.600944	-11.78141	12.736147	2.295641	1.096555	-0.064885	-1.198908	4.554298	-1.537314	12.489568	279.107721	-148.607044	-131.442652	-0.422361	-0.527425	-0.367496	11.752607	3.19894	1.312919	1.755341	-4.434755	-20.144879	-0.313994	-0.481701	-0.575131
-3.388782	2.621856	9.223295	-3.027499	15.414156	2.804649	1.166401	-0.056515	-1.189994	8.124886	-1.71294	12.621018	341.621742	-117.569397	-119.834574	-0.410421	-0.561206	-0.322715	10.849197	2.964458	0.277006	1.929737	-4.248622	-5.538845	-0.342227	-0.514495	-0.573597
-3.473216	3.247964	7.860362	-7.421765	16.678862	-2.099674	1.166029	-0.060044	-1.175918	-0.012007	-8.069093	5.53759	301.519611	-165.816596	-65.420642	-0.43778	-0.611605	-0.261753	9.530474	2.730427	-0.886423	3.193184	-4.912325	17.688662	-0.32811	-0.498098	-0.574364
-3.458653	1.585055	8.535601	-14.859262	15.325494	-5.044447	1.136659	-0.05258	-1.150484	-21.777002	-6.582784	-16.601441	112.138629	-121.706469	-59.864	-0.412569	-0.644239	-0.231598	10.71798	3.426617	-0.382193	0.144646	-10.39844	20.690946	-0.34188	-0.481283	-0.590799
-3.628686	2.27496	8.648862	-10.11436	10.795	0.695243	1.153038	-0.066383	-1.200305	-0.096487	-4.354314	1.915785	-71.783415	-10.112659	-41.949161	-0.439626	-0.633357	-0.174651	13.121773	2.384995	1.87393	13.479746	-12.179453	25.970078	-0.314482	-0.51326	-0.588984
-3.451646	2.678133	8.938157	-12.731378	8.563276	1.279859	1.138145	-0.038467	-1.206788	-2.126724	-2.257298	12.12216	-93.363986	28.583419	-32.642266	-0.452457	-0.663001	-0.186718	12.637248	2.034652	1.14476	27.104963	-8.251892	2.79379	-0.35565	-0.464469	-0.607234
-3.736348	2.046724	8.986788	-18.984884	8.786538	0.718799	1.138531	-0.052238	-1.203372	-5.907656	-0.338814	7.685153	-21.220765	62.374859	-35.022501	-0.387282	-0.661554	-0.202447	11.453219	2.210839	0.943773	41.109911	-8.214074	-1.963803	-0.328177	-0.515943	-0.542471
-4.762474	2.048435	9.194158	-16.824022	10.724242	1.480098	1.122153	-0.038434	-1.153551	-2.21855	-1.021536	7.931873	-6.636273	88.100905	-22.609288	-0.464698	-0.690501	-0.227484	10.795258	2.675202	0.514297	33.461636	-6.746953	1.418799	-0.369417	-0.466325	-0.576249
-4.765566	1.703062	9.022151	-13.861029	11.899269	4.772075	1.138145	-0.038467	-1.206788	-2.030144	-0.629266	6.011294	17.796948	86.171667	-17.584045	-0.425099	-0.612602	-0.247679	10.140288	2.326748	0.141268	16.050463	-5.33735	7.007192	-0.356344	-0.530891	-0.57283
-3.961653	1.53064	9.150722	-8.370453	12.945588	4.190602	1.15228	-0.056141	-1.189645	-2.100065	-1.36436	2.668941	3.365643	79.016778	-10.576573	-0.399818	-0.690126	-0.228863	10.133145	2.557568	-0.217185	9.304351	-3.449377	5.494392	-0.341668	-0.483762	-0.544216
-3.967593	2.046408	8.868628	-6.933059	11.584185	5.575022	1.151852	0.009528	-1.245536	-1.692187	-2.040939	2.846753	-31.28901	80.005972	-4.089981	-0.398788	-0.716479	-0.284255	8.829808	1.862143	-0.603803	4.647483	-2.225771	-2.043717	-0.328595	-0.548328	-0.540797
-3.741217	2.620175	8.761789	-9.371591	11.403658	1.531026	1.166015	-0.042744	-1.19341	-1.376425	-1.477034	4.212622	-55.12918	90.665334	-2.615858	-0.398198	-0.714335	-0.312954	8.823651	2.616143	-0.840216	0.600773	-1.856751	-9.548942	-0.328595	-0.548328	-0.540797
