1757_acc_x	1757_acc_y	1757_acc_z	1757_gyro_x	1757_gyro_y	1757_gyro_z	1757_mag_x	1757_mag_y	1757_mag_z	1758_acc_x	1758_acc_y	1758_acc_z	1758_gyro_x	1758_gyro_y	1758_gyro_z	1758_mag_x	1758_mag_y	1758_mag_z	1759_acc_x	1759_acc_y	1759_acc_z	1759_gyro_x	1759_gyro_y	1759_gyro_z	1759_mag_x	1759_mag_y	1759_mag_z
-1.889104	-0.364252	9.694522	-0.682412	0.147334	0.280369	0.336592	-0.085213	-0.814013	3.742511	0.658654	9.700362	-0.145207	0.704875	-0.229456	-0.782615	-0.021808	-0.421594	9.929473	0.938408	1.32907	0.082972	0.216209	-0.174521	-0.591975	-0.655477	-0.118694
-1.483129	0.153638	9.988754	-0.775666	0.056796	0.095159	0.141507	0.26359	-0.841981	3.506875	0.940548	9.469205	-0.205085	0.857213	-0.197161	-0.164508	-0.289317	-0.888022	9.925611	0.705115	1.088454	0.210646	0.425735	0.313023	-0.491442	-0.29996	-0.399755
-1.715445	0.095639	9.813499	-0.226662	-0.089421	-0.338149	0.099503	0.285541	-0.872501	3.039206	0.884795	9.119648	-0.36166	0.701125	-0.075527	-0.151387	-0.318811	-0.900641	9.271066	0.647288	0.776567	0.273714	0.45434	0.526599	-0.505696	-0.333376	-0.382623
-1.371877	0.037949	9.819939	0.50734	-0.175401	-0.587003	0.141479	0.298189	-0.876965	3.56608	0.715165	9.526864	-0.361778	0.671869	-0.291615	-0.113049	-0.32073	-0.872768	9.632866	0.648208	1.202518	0.397198	0.516593	0.464728	-0.505279	-0.300991	-0.384297
-2.007326	0.152081	9.523908	0.875596	-0.175074	-0.465386	0.156357	0.287572	-0.887974	3.507198	0.771556	9.469062	-0.17536	0.765611	-0.198048	-0.165028	-0.33635	-0.870662	9.509332	0.647242	0.900783	0.488281	0.550668	0.158606	-0.519537	-0.315735	-0.414586
-1.603655	-0.766791	9.641547	0.90454	-0.326505	-0.651938	0.115153	0.247382	-0.876679	3.447562	1.222261	9.411593	-0.452589	0.823614	-0.228523	-0.164884	-0.365919	-0.883004	9.921344	0.64605	0.848579	0.334432	0.611608	0.12831	-0.505279	-0.300991	-0.384297
-1.599989	0.325563	9.873545	0.228669	-0.544081	-0.714865	0.114009	0.271396	-0.869435	4.203489	1.052153	9.767005	-0.450095	1.008408	-0.349996	-0.125655	-0.304413	-0.887846	9.634777	0.299999	1.260942	0.336467	0.762979	0.280395	-0.519329	-0.299542	-0.415423
-1.951185	0.151799	9.468168	0.381516	-0.604829	-0.716292	0.142622	0.274175	-0.884209	3.279354	0.772082	9.577506	-0.388969	0.977118	-0.134461	-0.152128	-0.351596	-0.869934	9.691592	0.29937	1.142228	0.366184	0.578922	0.342291	-0.519675	-0.332753	-0.398221
-2.065653	0.09444	9.4657	-0.016888	-0.794558	-0.411549	0.155985	0.284043	-0.873898	3.629367	0.884286	9.811413	-0.416979	1.192184	-0.255657	-0.139517	-0.307703	-0.844521	9.801672	0.878377	0.78746	0.2427	0.516669	0.404161	-0.533374	-0.316765	-0.399128
-1.831068	0.095481	9.754419	-0.660291	-0.860765	-0.257433	0.101003	0.282355	-0.911313	3.272987	0.940837	9.29445	-0.414133	1.407441	-0.345999	-0.152203	-0.366916	-0.86893	10.160285	0.355624	0.971558	-0.002606	0.73054	0.342903	-0.519608	-0.314909	-0.430114
-1.477603	0.212286	10.273261	-0.687931	-1.307845	1.207437	0.112852	0.312709	-0.879682	3.331222	1.222429	9.352536	-0.569072	1.374414	-0.284796	-0.126025	-0.320805	-0.872493	9.743331	0.588132	0.785123	0.025979	0.42444	0.374824	-0.491721	-0.315327	-0.414445
-1.883827	0.039046	9.980477	-0.962591	-0.342187	-0.033459	0.086511	0.279202	-0.896888	3.677585	0.714807	9.359363	-0.91078	1.217181	-0.34829	-0.152122	-0.291386	-0.859599	9.625994	0.762877	0.843571	-0.343611	0.453383	0.406587	-0.506255	-0.364108	-0.412004
-1.543475	-0.191693	9.815633	-0.74765	-0.373655	0.118751	0.128516	0.25725	-0.866368	3.272987	0.940837	9.29445	-0.327376	0.948244	-0.288839	-0.139447	-0.352593	-0.85586	10.270499	0.876555	0.616543	-0.496947	0.451253	0.559967	-0.50535	-0.300164	-0.399825
-1.882506	-0.247921	10.036123	-0.563891	-0.278515	-0.06424	0.128873	0.278078	-0.897936	3.399321	0.772056	9.806482	0.038482	0.583963	-0.138026	-0.112829	-0.334978	-0.886115	9.683734	-0.10914	0.661242	-0.682081	0.326653	0.714048	-0.519325	-0.318214	-0.368002
-1.772824	0.268005	9.81311	-0.107182	-0.518052	-0.437463	0.114767	0.261153	-0.880095	3.396148	1.166275	9.693535	-0.054474	0.552726	-0.230896	-0.126546	-0.367838	-0.855132	9.455413	0.822841	1.199958	-0.771774	0.724615	0.651347	-0.477534	-0.299756	-0.399684
-2.233294	0.555062	9.691702	-0.110108	-0.82259	-0.687748	0.113252	0.281639	-0.858774	3.106443	0.885066	9.573974	0.194357	0.707777	-0.013358	-0.139077	-0.3362	-0.871213	9.391954	-0.107723	0.835461	-0.893478	0.845269	0.773464	-0.519541	-0.297064	-0.462006
-1.424388	-0.363136	10.044549	0.713172	-1.401244	-0.822195	0.073162	0.252034	-0.889707	3.739662	0.883881	9.587272	1.401683	0.96496	0.514249	-0.125284	-0.28802	-0.903199	9.571494	0.241069	1.019966	-0.861197	1.028918	0.772471	-0.505629	-0.315531	-0.414516
-1.720888	-0.077892	9.52851	0.587198	-1.548523	-1.437588	0.127758	0.267493	-0.855708	3.858635	0.771147	9.759514	4.829801	0.97418	1.072006	-0.100293	-0.306406	-0.859698	9.750764	0.706014	1.204966	-0.709233	0.878415	0.589261	-0.505558	-0.316357	-0.398988
-1.99384	-0.017348	10.205421	0.191501	-1.620887	-0.640254	0.113266	0.264339	-0.841283	2.991658	1.335974	9.628575	4.708255	1.154991	1.320331	-0.100149	-0.335975	-0.872041	10.281463	-0.050684	1.091842	-0.366331	1.18301	0.83107	-0.505838	-0.331723	-0.413679
-1.885971	-0.07632	9.866288	-0.546017	-1.587331	-1.189612	0.127716	0.319391	-0.908183	3.509724	0.71532	9.582294	3.073463	1.319413	1.135682	-0.126101	-0.336125	-0.871489	9.696399	0.126131	1.381114	-0.087432	1.212391	1.043861	-0.505279	-0.300991	-0.384297
-1.655881	-0.018803	9.927836	-0.789173	-1.500452	-0.819483	0.128887	0.260779	-0.880444	3.1026	0.997585	9.40415	3.316403	0.985639	1.070902	-0.126616	-0.322949	-0.843793	9.987659	0.821873	1.269769	0.470263	1.364498	1.316184	-0.519049	-0.284176	-0.400732
-1.602915	-0.249576	9.700572	-1.215105	-1.355053	-0.263869	0.098746	0.295784	-0.861841	3.513458	0.659132	9.752166	2.666424	0.85656	0.791642	-0.139077	-0.3362	-0.871213	9.631071	0.473486	1.081963	0.780162	1.393675	1.559428	-0.5057	-0.314704	-0.430043
-1.544381	-0.479142	9.757573	-0.941803	-1.59684	-0.513929	0.129273	0.247008	-0.877028	3.157186	0.659352	9.235156	1.832873	0.877649	0.63704	-0.125805	-0.335054	-0.885839	9.566032	1.169544	0.844201	1.057268	1.302273	1.619987	-0.519537	-0.315735	-0.414586
-1.661448	-0.020009	9.643571	-2.350601	-1.48119	-0.446658	0.114752	0.278452	-0.897586	3.3933	1.391502	9.580446	2.049443	0.910654	0.699199	-0.126101	-0.336125	-0.871489	9.806998	0.007978	0.963472	1.457074	1.088326	1.741813	-0.50535	-0.300164	-0.399825
-1.601387	-0.82375	9.755012	-1.527376	-2.18486	-0.399128	0.086511	0.279202	-0.896888	3.681319	0.658619	9.529234	2.170641	0.728032	0.728309	-0.11342	-0.337122	-0.857415	9.689817	0.589503	1.083558	1.487605	0.964818	1.864545	-0.519045	-0.302847	-0.353312
-1.717589	-0.019727	9.69931	-1.830104	-1.79025	-0.085164	0.128116	0.288321	-0.887276	2.988786	0.941518	9.458325	1.954265	0.696033	0.51202	-0.126911	-0.324021	-0.829443	9.50545	-0.050906	0.598281	1.304356	1.27131	1.741493	-0.519537	-0.315735	-0.414586
-1.42806	0.095673	9.87592	-2.075304	-2.041771	0.310137	0.143022	0.243105	-0.863301	3.553907	1.390705	9.017676	1.740269	0.876875	0.575302	-0.139372	-0.337272	-0.856864	9.754315	0.125748	1.322308	0.687767	1.299997	1.713026	-0.547074	-0.300777	-0.400036
-2.2342	0.267613	9.633642	-2.228043	-1.887435	0.190414	0.086154	0.258374	-0.86532	3.39524	0.377553	9.579592	2.701138	1.163197	0.856375	-0.151607	-0.304563	-0.887295	9.861073	0.239158	0.725934	0.0098	1.172677	1.960596	-0.533796	-0.330479	-0.444875
-1.891497	-0.134968	9.581781	-1.836446	-2.304004	-0.860195	0.127758	0.267493	-0.855708	3.455138	1.053554	9.751289	3.846079	1.359273	1.229184	-0.165028	-0.33635	-0.870662	9.68611	0.762989	0.904579	-1.036517	1.444529	1.932524	-0.533796	-0.330479	-0.444875
-1.828758	-0.01892	9.867643	-4.413607	-2.715195	-0.890128	0.126615	0.291507	-0.848463	3.854015	0.658296	9.532861	5.672115	1.686026	1.696325	-0.152793	-0.36906	-0.840231	9.807559	0.240529	1.024368	-1.6229	1.350338	1.965661	-0.505488	-0.317183	-0.38346
-2.056745	0.09637	9.920524	-4.568128	-2.743513	-1.166157	0.129245	0.281606	-0.912012	3.047453	0.997788	9.51622	6.730014	2.311235	1.919191	-0.113125	-0.33605	-0.871765	9.869316	0.008585	1.144293	-2.303017	1.227116	1.815896	-0.519537	-0.315735	-0.414586
-1.200238	0.210149	9.824003	-4.905103	-2.776863	-1.073724	0.085768	0.272145	-0.868736	3.168628	0.997809	9.801836	6.122749	3.131737	1.865205	-0.152052	-0.336275	-0.870938	9.693638	-0.106915	1.200405	-2.335917	0.858353	1.970591	-0.491721	-0.315327	-0.414445
-1.943142	-0.191162	9.864692	-4.295454	-3.046071	-1.47854	0.100646	0.261528	-0.879745	3.68145	1.221972	9.586348	6.315086	3.657194	1.593131	-0.139522	-0.367913	-0.854856	9.161817	0.18468	1.191737	-2.554749	0.242318	2.310521	-0.533378	-0.298094	-0.446549
-1.944049	-0.478611	9.806632	-4.599344	-2.679411	-1.41037	0.099131	0.282013	-0.858425	3.622006	0.940332	9.471623	4.561796	4.190028	1.103768	-0.151607	-0.304563	-0.887295	9.695029	0.242036	1.321702	-2.770427	0.303351	2.249884	-0.533166	-0.300573	-0.399965
-1.828965	0.268288	9.868849	-4.170816	-2.707097	-1.504058	0.100632	0.278827	-0.897237	3.518425	1.222675	10.035838	1.583146	5.505856	0.405408	-0.125881	-0.350374	-0.884835	9.394425	-0.223381	0.95478	-3.603002	-0.009951	2.682284	-0.533303	-0.317591	-0.3836
-1.432389	-0.077617	9.647783	-3.956034	-2.70679	-1.443335	0.085011	0.282388	-0.858076	3.685962	1.391153	9.813048	0.948463	4.15061	0.113968	-0.139152	-0.351521	-0.87021	9.699005	-0.047603	1.500186	-4.040675	-0.496836	2.288867	-0.491162	-0.284594	-0.385064
-2.066766	0.094199	9.408847	-3.370619	-2.431306	-1.103193	0.099875	0.28907	-0.886577	3.278061	1.448048	9.578075	0.452051	3.93291	-0.381845	-0.126546	-0.367838	-0.855132	9.513308	0.357604	1.079267	-4.814204	-0.929119	2.415986	-0.505629	-0.315531	-0.414516
-1.531268	-0.131598	10.441258	-3.583414	-2.31216	-0.855299	0.057884	0.293722	-0.899605	3.401392	0.32146	9.862742	-0.046819	3.501969	-1.095577	-0.191646	-0.353965	-0.840407	9.626649	0.007641	0.78045	-5.249661	-1.668596	2.787854	-0.519049	-0.284176	-0.400732
-2.111399	-0.42008	10.030945	-3.551412	-2.253334	-0.609091	0.085754	0.289444	-0.886228	3.689996	0.54629	9.925616	1.63881	4.959317	-0.309028	-0.152938	-0.339491	-0.827888	9.640124	-0.105544	1.498839	-6.555145	-2.708868	2.369658	-0.504932	-0.267779	-0.401499
-1.603205	0.152515	9.702261	-3.273544	-2.164022	-0.240423	0.113995	0.288695	-0.886926	3.508407	0.771604	9.525702	1.709909	5.58123	-1.50508	-0.113715	-0.338194	-0.843065	9.866014	0.007843	0.964573	-7.337473	-4.086876	2.256814	-0.519608	-0.314909	-0.430114
-1.600936	0.095556	9.815726	-2.292976	-2.28411	-0.091858	0.085754	0.289444	-0.886228	3.116006	0.941776	10.027138	2.934475	4.708256	-1.605259	-0.100739	-0.338119	-0.843341	9.810009	-0.339984	1.081803	-8.088635	-5.465393	2.204987	-0.533166	-0.300573	-0.399965
-1.880486	0.039769	10.151036	-2.076351	-1.976135	-0.056808	0.099117	0.299313	-0.875917	2.937373	0.885532	9.740266	4.246535	3.494518	-0.999713	-0.10089	-0.36876	-0.841334	9.393035	-0.572332	0.833483	-8.468529	-6.658724	2.120369	-0.519675	-0.332753	-0.398221
-1.882547	-0.190479	10.036365	-1.490449	-1.451666	0.011365	0.143365	0.281232	-0.912361	2.595284	1.055313	9.903074	6.885177	2.259514	0.747331	-0.126616	-0.322949	-0.843793	9.452611	-0.339915	0.895479	-7.985049	-7.818037	2.001897	-0.519191	-0.282524	-0.431788
-1.715238	-0.191569	9.812293	-1.091868	-1.387646	-0.050078	0.100246	0.292598	-0.900653	3.336596	0.940966	9.578857	9.28171	1.33405	1.572417	-0.074492	-0.336897	-0.858242	9.804622	-0.864151	0.720136	-7.495277	-7.902669	1.480951	-0.532882	-0.303878	-0.337854
-1.430245	0.037749	9.761972	-1.610837	-1.145613	0.078021	0.085768	0.272145	-0.868736	3.161937	1.335555	9.518923	9.720839	1.889488	1.886575	-0.139372	-0.337272	-0.856864	9.872732	-0.513605	1.261882	-6.536419	-7.874002	1.996917	-0.532744	-0.286859	-0.354219
-1.422244	-0.24777	10.158737	-1.791045	-0.437203	-0.124622	0.114367	0.292224	-0.901002	3.269468	0.884364	9.124484	7.48287	3.15321	1.219121	-0.126396	-0.337197	-0.857139	10.108796	-0.514145	1.266284	-5.387859	-7.418959	2.754672	-0.505212	-0.283146	-0.41619
-1.600688	-0.249093	9.814278	-0.83479	0.300626	0.252632	0.114738	0.295752	-0.915078	3.215876	1.335305	9.350213	4.556766	3.762944	0.760407	-0.127287	-0.400623	-0.824425	10.34293	-0.631332	1.150377	-3.745306	-6.621887	3.142246	-0.519608	-0.314909	-0.430114
-1.258316	-0.192142	9.764347	-0.921656	1.036717	0.356848	0.11288	0.27811	-0.844698	3.797682	1.278134	9.645453	2.581828	3.89279	0.513484	-0.1132	-0.351371	-0.870761	10.405113	-0.572649	1.331446	-1.767847	-6.001764	3.00987	-0.519537	-0.315735	-0.414586
-1.539803	-0.650502	9.984262	-0.54583	2.048059	0.770885	0.101003	0.282355	-0.911313	3.62574	0.884144	9.641494	1.679162	3.359527	0.59994	-0.112905	-0.350299	-0.885111	10.401832	-0.108535	1.21361	-0.003384	-5.046256	2.907228	-0.491859	-0.332345	-0.39808
-1.763626	-0.132156	10.266245	0.68552	2.883188	0.811581	0.129259	0.264307	-0.89452	3.452936	0.940798	9.637915	1.484755	2.651492	0.654399	-0.139962	-0.339416	-0.828164	10.350789	-0.222822	1.631363	1.971179	-4.668945	2.59264	-0.505141	-0.283972	-0.400662
-1.428018	0.038231	9.875678	1.086661	3.252783	0.908436	0.115138	0.264681	-0.894171	3.340331	0.884778	9.748729	1.327324	2.433673	0.837075	-0.139077	-0.3362	-0.871213	9.64356	-0.162878	1.678312	3.703387	-3.897073	2.490993	-0.50507	-0.284798	-0.385134
-1.657611	-0.708584	9.811234	1.057596	3.404559	1.064325	0.142608	0.291474	-0.901701	3.110739	1.166909	9.80077	1.169035	2.154123	1.080793	-0.139372	-0.337272	-0.856864	9.641899	-0.395677	1.557509	4.444029	-3.429906	1.935939	-0.505909	-0.330897	-0.429206
-1.370515	-0.306459	9.875344	2.040881	3.808646	1.068062	0.128902	0.243479	-0.862952	3.273657	1.222537	9.351327	1.570892	2.21773	1.513343	-0.126101	-0.336125	-0.871489	9.639834	-0.454247	1.437448	5.029207	-3.085017	1.320908	-0.519049	-0.284176	-0.400732
-2.054186	-0.36268	10.0323	2.444279	4.359499	1.443866	0.113238	0.298938	-0.876266	3.165325	0.828676	9.631775	1.174262	2.639522	1.887157	-0.140037	-0.354737	-0.82716	9.635702	-0.571388	1.197326	5.303771	-3.264715	1.045703	-0.505141	-0.283972	-0.400662
-1.879124	-0.304639	10.206441	2.759721	5.743489	1.496119	0.09876	0.278485	-0.844349	3.328697	1.278664	9.239304	-0.08031	3.602698	2.204007	-0.164878	-0.30571	-0.872669	9.695974	-0.164497	1.319971	4.622219	-3.354193	0.590152	-0.519399	-0.298716	-0.430951
-1.879207	-0.189756	10.206924	4.272637	7.251803	1.914956	0.129287	0.229708	-0.859536	3.279701	1.222774	9.634525	-1.245476	4.37823	3.258943	-0.11342	-0.337122	-0.857415	9.565951	-0.689878	0.596662	3.229536	-3.908205	0.445025	-0.518907	-0.285829	-0.369677
-1.370598	-0.191576	9.875827	3.633378	7.830948	2.079547	0.085382	0.285916	-0.872152	3.396472	0.997283	9.693393	-0.289972	4.292954	4.091228	-0.139592	-0.323024	-0.843517	9.812615	-0.513717	1.200875	1.618931	-4.707385	0.271294	-0.505488	-0.317183	-0.38346
-1.597099	-0.593019	9.98339	3.731895	8.782643	2.217401	0.127358	0.298563	-0.876615	2.587276	1.449342	9.563568	0.847269	3.990751	5.630558	-0.152793	-0.36906	-0.840231	9.85555	-0.226933	0.364515	0.251429	-5.467836	-0.606446	-0.519254	-0.31904	-0.352475
-1.600688	-0.249093	9.814278	4.871317	9.930188	1.772758	0.101003	0.282355	-0.911313	3.496557	1.278151	9.016372	0.003934	3.359638	6.733428	-0.113715	-0.338194	-0.843065	9.622382	-0.051424	0.540575	-1.576613	-6.047362	-1.391688	-0.533512	-0.333784	-0.382763
-1.194215	-0.420502	10.105614	5.174387	10.317074	0.306122	0.099517	0.268242	-0.855009	3.447	0.88423	9.354669	-4.920445	2.346318	6.781047	-0.100004	-0.365544	-0.884383	9.501203	0.354884	0.420291	-2.908315	-6.009879	-2.517853	-0.533233	-0.318418	-0.368073
-1.190584	-0.821869	10.274484	6.020407	10.512628	-3.035967	0.142622	0.274175	-0.884209	3.220149	0.997465	9.519847	-8.400218	0.654376	5.559112	-0.087248	-0.351221	-0.871313	10.210498	0.353511	0.493404	-4.236555	-5.171737	-4.167394	-0.51912	-0.28335	-0.41626
-1.539637	-0.880268	9.983297	12.590018	10.536859	-7.900177	0.128116	0.288321	-0.887276	3.567744	1.109574	9.640475	-8.90718	-0.50589	3.820778	-0.126621	-0.383159	-0.854128	10.15934	0.762156	0.973289	-5.131536	-4.428219	-5.390169	-0.491162	-0.284594	-0.385064
-1.653695	0.039121	10.041784	18.315379	9.76018	-15.658148	0.100289	0.2407	-0.848178	3.16785	0.77244	9.745007	-5.972853	-0.586886	3.14411	-0.126251	-0.366766	-0.869482	9.924531	1.169723	1.090432	-5.072985	-3.521695	-7.258949	-0.547003	-0.301603	-0.384508
-1.827354	-0.420769	9.922807	26.234676	11.037313	-22.03984	0.099489	0.302841	-0.889993	3.399428	0.715726	9.806435	-2.665406	-0.392828	3.333671	-0.152712	-0.29353	-0.830899	10.339014	1.052873	1.157547	-3.532977	-2.271159	-9.348631	-0.519258	-0.300369	-0.399895
-1.806897	-0.990842	10.943749	25.280626	16.652394	-24.307577	0.129616	0.285135	-0.926088	3.400098	0.997426	9.863312	-5.023357	6.163417	4.260161	-0.165028	-0.33635	-0.870662	9.46132	0.64985	1.498751	-0.982095	-1.749519	-11.591261	-0.546794	-0.285411	-0.385345
-3.166456	-1.721106	14.551373	20.378633	66.786417	-19.153696	0.114381	0.274924	-0.88351	3.220472	0.828473	9.519705	-3.968035	6.374009	2.228437	-0.165248	-0.322102	-0.857316	9.87789	1.056425	1.747813	1.603688	-0.800777	-13.713778	-0.519396	-0.317387	-0.38353
-3.304472	-1.553765	13.355955	-18.297617	88.170427	8.539279	0.156357	0.287572	-0.887974	3.506097	0.715178	9.412375	-6.23505	5.39683	1.908614	-0.125435	-0.318661	-0.901192	10.050536	1.055031	1.511486	4.657955	0.20041	-14.829753	-0.477672	-0.316775	-0.38332
0.038034	2.807118	26.396686	-26.282129	90.194016	24.602223	0.14225	0.270647	-0.870133	3.103702	1.053963	9.460837	-3.929206	4.565823	2.179659	-0.112829	-0.334978	-0.886115	10.04764	0.880062	1.331024	8.573879	0.835425	-15.733178	-0.505279	-0.300991	-0.384297
-3.568925	-2.468038	14.426735	49.885847	120.948913	17.768911	0.18577	0.22821	-0.860933	2.990342	1.392257	9.571983	-6.77566	4.221915	2.358919	-0.11342	-0.337122	-0.857415	10.345057	0.821805	1.456093	11.846123	1.926646	-16.605884	-0.533236	-0.299746	-0.415493
-4.012195	-2.866661	15.155228	29.432397	132.469252	33.775967	0.185012	0.238453	-0.850273	3.275512	0.884601	9.407682	-9.042076	3.305247	2.163011	-0.100293	-0.306406	-0.859698	10.3961	0.936091	1.038339	13.89175	2.565949	-15.607897	-0.533099	-0.282728	-0.431858
-1.249678	-1.084585	16.0121	24.715331	146.789448	42.239487	0.19839	0.231021	-0.82247	2.93243	0.941673	9.513755	-9.32485	2.933546	2.189915	-0.12551	-0.333982	-0.900189	10.221907	0.181755	1.091731	16.151025	3.458632	-15.375865	-0.478577	-0.380719	-0.395499
-1.78369	-1.375521	15.034369	43.942166	159.860571	40.557038	0.24038	0.226369	-0.809442	3.048769	0.941505	9.572813	-8.236732	3.526666	2.689941	-0.138926	-0.30556	-0.873221	9.32566	0.181308	0.476155	17.048457	3.890425	-15.411734	-0.533583	-0.332958	-0.398291
-1.75419	-1.496477	13.613673	49.761096	169.883667	39.384847	0.24148	0.254254	-0.869162	3.749656	0.715269	10.040247	-6.865814	4.348427	1.589399	-0.152052	-0.336275	-0.870938	8.732873	-0.108463	0.284194	16.490716	4.483514	-16.757138	-0.519049	-0.284176	-0.400732
-2.168664	-1.03955	12.925572	49.906445	177.736954	40.309295	0.2549	0.194924	-0.788884	3.225092	0.941324	9.746358	-4.366923	4.017841	0.724934	-0.126106	-0.396335	-0.881824	8.785131	-0.516861	-0.135784	14.299472	4.355171	-16.931944	-0.561328	-0.334192	-0.382904
-2.932849	-1.27312	11.886775	51.825146	176.496923	39.394452	0.284656	0.17369	-0.810902	3.103809	0.997633	9.46079	-2.392559	3.741517	-0.077757	-0.13848	-0.273847	-0.889578	8.896291	-0.402462	-0.49253	11.892996	4.535422	-17.443588	-0.533445	-0.315939	-0.414656
1.762688	-1.576071	9.078481	56.516551	163.605545	37.791603	0.298791	0.156016	-0.79376	3.394054	0.997189	9.580114	-0.703159	2.91031	-0.978676	-0.099778	-0.319583	-0.887394	9.373632	-0.75101	-0.245583	8.74435	4.437699	-17.951215	-0.519463	-0.335232	-0.351637
8.606465	-0.909882	4.952127	30.908013	114.536908	17.351323	0.325132	0.189523	-0.776554	3.162237	0.546881	9.461619	-0.805396	2.086225	-1.757653	-0.112459	-0.318586	-0.901468	9.482726	-0.695182	-0.72239	4.643051	4.672086	-18.365301	-0.519396	-0.317387	-0.38353
10.77263	-2.899391	10.271104	28.304879	89.148283	-34.210682	0.324389	0.182467	-0.748402	2.990426	0.716243	9.514774	-2.292924	1.699839	-1.824348	-0.139592	-0.323024	-0.843517	10.144568	-0.461396	0.009587	1.071853	6.014974	-19.306084	-0.520719	-0.413716	-0.394035
12.883266	-3.834264	6.955223	45.572259	74.419941	-91.226267	0.296176	0.148617	-0.71272	2.813996	0.772755	9.341276	-3.539582	0.797098	-2.173435	-0.125805	-0.335054	-0.885839	10.790195	0.117384	-0.09565	-1.861166	4.894041	-18.403924	-0.505767	-0.332549	-0.398151
11.359149	-5.564394	5.042881	48.88904	54.361882	-142.015432	0.323274	0.171882	-0.706174	2.938905	0.716588	9.796764	-4.597796	0.170475	-2.180518	-0.138486	-0.334057	-0.899913	11.087861	-0.52188	-0.03296	-4.135696	1.577808	-17.952046	-0.491859	-0.332345	-0.39808
9.989662	-5.792201	5.242605	31.302525	26.497906	-174.435076	0.380514	0.160141	-0.718231	3.285961	1.11035	9.917628	-4.85509	-0.62995	-2.188684	-0.151908	-0.365844	-0.88328	10.502237	-0.577617	0.195416	-5.794463	-1.765471	-17.624501	-0.519675	-0.332753	-0.398221
8.283578	-6.36296	5.775318	23.039753	13.85212	-190.121241	0.365993	0.191586	-0.738789	3.230705	1.166883	10.029746	-4.305963	-1.174665	-2.224486	-0.12529	-0.34823	-0.913535	10.030377	-0.692688	0.186118	-7.016394	-4.216592	-17.638938	-0.533095	-0.301399	-0.384437
7.026581	-6.87854	5.862355	17.340679	-1.247251	-189.030279	0.351501	0.188432	-0.724364	3.688033	0.940556	9.869309	-3.630727	-1.561469	-2.721036	-0.112754	-0.319658	-0.887118	10.269068	-0.402107	0.371476	-7.645945	-5.343022	-18.364686	-0.519325	-0.318214	-0.368002
5.088838	-6.875201	6.279322	9.200218	-20.015661	-171.781847	0.337723	0.226934	-0.773074	3.393276	0.771819	9.523284	-2.365457	-1.695907	-3.152946	-0.12595	-0.305485	-0.873496	10.086923	-0.577166	0.067899	-7.902641	-5.635294	-19.76804	-0.519466	-0.316561	-0.399058
3.780438	-6.24046	6.71119	-0.763249	-38.930168	-142.530465	0.323203	0.258378	-0.793633	3.405149	0.884954	10.089775	-1.130582	-1.799467	-3.677056	-0.125881	-0.350374	-0.884835	10.852202	-0.695568	-0.038104	-7.286054	-5.043069	-20.628721	-0.520093	-0.365138	-0.396547
3.064915	-6.003883	8.175861	-8.276321	-57.670258	-106.10739	0.351858	0.20926	-0.755932	3.168712	0.321796	9.744628	-0.446311	-1.480569	-4.228236	-0.099998	-0.305334	-0.874048	9.852634	-0.866759	0.122168	-7.405037	-4.151399	-21.121469	-0.492344	-0.382575	-0.364514
1.978769	-5.255873	8.271548	-13.762752	-77.415936	-67.07589	0.309096	0.241454	-0.775792	2.979008	0.997469	9.005255	-1.651734	-1.555978	-4.414922	-0.112384	-0.303266	-0.902471	10.561813	-0.3452	0.257412	-6.540994	-3.777132	-21.523634	-0.547562	-0.332335	-0.413889
1.589905	-4.793397	8.891068	-19.957305	-96.844766	-29.303903	0.2526	0.260251	-0.791887	3.225739	0.603341	9.746074	-3.139929	-1.974447	-4.266142	-0.112609	-0.349227	-0.899461	10.451214	-0.227048	0.675054	-5.67395	-3.470661	-21.283775	-0.520648	-0.414542	-0.378508
1.657631	-3.871961	9.464573	-26.176765	-113.505464	5.5606	0.29459	0.255599	-0.778858	3.333855	1.109863	9.46572	-3.701916	-2.413031	-3.931849	-0.138857	-0.350449	-0.884559	10.153662	-0.110715	0.550232	-4.009912	-3.090357	-21.994439	-0.520093	-0.365138	-0.396547
1.724327	-3.06565	9.980743	-32.75583	-126.090962	36.069882	0.308682	0.289823	-0.814191	3.281533	0.265155	9.633719	-4.635422	-2.946304	-3.907074	-0.112604	-0.289017	-0.889125	9.624448	0.007147	0.660636	-2.281322	-2.963683	-21.817958	-0.505696	-0.333376	-0.382623
0.925815	-2.662255	10.137402	-40.480691	-136.050237	59.568574	0.252971	0.26378	-0.805963	3.109615	0.490848	9.686921	-5.045981	-3.656506	-3.945294	-0.126245	-0.306556	-0.859147	9.572304	-0.107387	1.018483	-0.519885	-3.244326	-20.692363	-0.520372	-0.380505	-0.411237
1.114814	-1.854338	11.053771	-47.764626	-143.730262	74.792618	0.196089	0.296348	-0.825473	3.335842	1.33528	9.579189	-3.672637	-4.929645	-3.525258	-0.126025	-0.320805	-0.872493	9.510952	-0.04967	0.897816	1.48395	-3.640131	-20.178246	-0.478227	-0.366179	-0.36528
0.94882	-0.589052	11.396857	-54.019395	-148.7374	82.545951	0.225102	0.268057	-0.81934	3.323753	1.334805	9.012793	-2.574581	-5.962805	-2.825606	-0.138631	-0.304488	-0.88757	9.214636	0.008834	0.832654	3.40091	-3.58122	-19.299285	-0.506047	-0.347916	-0.412841
0.67896	-0.183135	12.245776	-59.610201	-150.610909	82.746185	0.196503	0.247979	-0.787074	2.76962	0.829715	9.96315	-4.246361	-6.345724	-3.786423	-0.126025	-0.320805	-0.872493	9.15643	-0.339487	0.83007	4.486688	-3.124181	-18.75535	-0.505976	-0.348742	-0.397314
-0.236163	0.047535	12.285778	-64.432127	-148.886463	77.883542	0.140764	0.256533	-0.813829	2.571992	1.223403	8.827064	-3.832466	-7.725853	-2.936632	-0.086947	-0.289939	-0.875327	8.972218	-0.573117	0.406432	4.614547	-2.635575	-18.635911	-0.492485	-0.380923	-0.395569
-0.921196	0.335723	12.387329	-68.271832	-144.749361	69.501144	0.211724	0.275488	-0.847143	3.444797	0.771474	9.241295	-1.925698	-8.348161	-2.540523	-0.126546	-0.367838	-0.855132	9.263863	-0.516458	0.23246	3.754707	-2.024378	-18.880181	-0.492556	-0.380096	-0.411097
-1.204501	0.853628	12.554493	-73.484084	-138.291027	59.259238	0.183483	0.276237	-0.846444	3.920066	1.278203	9.987708	-3.316809	-8.484843	-3.097904	-0.12551	-0.333982	-0.900189	9.329482	-0.515109	0.593002	3.077882	-1.40873	-19.491831	-0.534276	-0.39938	-0.363887
-1.657917	0.625158	12.772032	-77.405116	-129.989412	46.988763	0.098003	0.288728	-0.833689	2.337242	1.674336	8.652689	-6.693539	-9.262761	-3.231667	-0.13848	-0.273847	-0.889578	9.317937	-0.285278	-0.005078	1.535899	-1.134243	-19.945928	-0.492903	-0.413308	-0.393895
-2.446531	1.203049	13.441093	-77.790855	-120.351587	34.912891	0.140721	0.308432	-0.866304	3.555332	1.278091	9.074221	-5.6405	-9.035372	-3.136075	-0.138706	-0.319808	-0.886567	9.197704	-0.285502	-0.127092	-0.564914	-1.071778	-20.79424	-0.520719	-0.413716	-0.394035
-2.680127	1.374574	13.209951	-74.924859	-110.609503	23.073799	0.09916	0.247414	-0.823442	3.156755	0.884674	9.235345	-3.411988	-8.699477	-3.285082	-0.112829	-0.334978	-0.886115	9.314231	-0.111791	-0.184057	-2.200189	-1.199697	-20.818266	-0.492485	-0.380923	-0.395569
-3.432727	2.062722	12.800399	-70.644929	-100.934181	12.240691	0.097617	0.302499	-0.837105	3.755054	1.053489	10.323729	-1.250896	-8.737195	-2.697988	-0.138637	-0.364698	-0.897906	9.024652	-0.10988	0.109976	-3.679571	-1.237185	-20.659941	-0.506531	-0.398146	-0.379275
-4.232844	1.604012	12.839733	-65.652855	-91.526925	3.608538	0.071262	0.286291	-0.871803	4.087557	0.207315	9.650596	-0.599347	-8.485443	-2.417509	-0.099853	-0.334903	-0.88639	9.624718	-0.109005	0.660142	-4.69403	-1.029242	-20.412797	-0.492415	-0.381749	-0.380041
-4.071061	1.544274	12.331155	-59.276004	-82.723764	-2.737707	0.112452	0.343779	-0.90059	1.827399	1.788299	9.03838	-2.003662	-9.578627	-2.090401	-0.152793	-0.36906	-0.840231	9.676436	-0.285099	0.241153	-5.48987	-0.701632	-19.830877	-0.506811	-0.413512	-0.393965
-5.041087	1.603144	12.483026	-53.023936	-75.137077	-7.631462	0.055627	0.307151	-0.850133	3.742834	0.489662	9.700219	-1.261763	-9.423736	-0.885972	-0.138932	-0.365769	-0.883556	10.027927	-0.112175	0.128683	-4.991395	-0.430227	-19.283932	-0.479204	-0.429296	-0.392988
-6.427815	2.118459	11.83309	-50.213735	-68.920961	-12.38437	0.070119	0.310304	-0.864558	3.152051	1.447837	9.065901	-2.243886	-11.252477	0.204866	-0.125435	-0.318661	-0.901192	9.554447	0.469665	0.122352	-5.255908	0.040868	-17.604512	-0.520719	-0.413716	-0.394035
-6.731079	2.517138	10.976415	-49.726349	-65.528142	-18.556809	0.071248	0.30359	-0.889295	3.334502	0.771879	9.465436	-2.526882	-11.539456	1.342426	-0.138561	-0.349377	-0.898909	9.670258	0.004045	-0.057146	-5.646842	0.269011	-16.137365	-0.49332	-0.445693	-0.392221
-8.518629	3.090185	10.318926	-48.240168	-68.172347	-26.057358	0.083839	0.341	-0.885815	3.337698	0.997344	9.635544	-2.690822	-12.192067	2.353136	-0.151462	-0.334132	-0.899637	9.498672	-0.924025	0.115318	-6.403845	0.395229	-13.812725	-0.492623	-0.397941	-0.379204
-10.128108	4.181528	10.008068	-48.536028	-81.406531	-33.111725	0.057113	0.321264	-0.906437	3.970139	0.770789	9.592013	-3.237583	-13.828729	3.045473	-0.151607	-0.304563	-0.887295	10.03588	-0.691452	0.485652	-7.416999	0.383374	-13.01445	-0.465571	-0.463129	-0.360188
-12.343376	2.865608	10.811888	-33.109443	-107.186268	-36.519769	0.041863	0.328353	-0.881352	3.457425	0.490296	9.807454	-1.929869	-17.688711	5.011988	-0.12595	-0.305485	-0.873496	10.211018	-0.343648	0.43053	-8.582455	0.243248	-11.695487	-0.521349	-0.443622	-0.438945
-22.154023	12.180096	24.583772	-15.522279	-95.878692	-17.798875	0.028872	0.322013	-0.905739	3.679815	1.055269	12.190418	-3.602608	-29.790543	9.422117	-0.151462	-0.334132	-0.899637	10.20511	-0.170656	0.131737	-11.283998	-0.378602	-8.687818	-0.493041	-0.430326	-0.37753
-18.164802	0.346026	11.540491	93.077744	-125.269539	-14.601861	0.01438	0.318859	-0.891314	3.517755	0.940975	9.978961	11.833273	-44.849333	11.319526	-0.138781	-0.335129	-0.885563	10.682046	-0.344976	0.379427	-13.913325	-2.358661	-7.415849	-0.492694	-0.397115	-0.394732
-20.50229	2.635454	9.174627	137.736635	-110.462024	-5.902404	0.01588	0.315673	-0.930126	3.462199	1.786182	10.148382	11.079978	-50.311359	14.96409	-0.138926	-0.30556	-0.873221	10.26013	-0.346009	-0.107532	-16.359374	-4.707301	-5.928842	-0.478782	-0.415582	-0.347241
-22.972548	2.450636	5.772804	149.393846	-66.174261	5.97732	-0.010846	0.295937	-0.950747	3.767489	1.504655	10.947144	3.766112	-63.815679	20.835658	-0.126836	-0.3087	-0.830447	10.780001	-0.233544	-0.696202	-18.648895	-7.18401	-3.830536	-0.506744	-0.395667	-0.425858
-19.832047	1.872011	5.376808	128.274671	-8.796686	9.607801	0.016266	0.301902	-0.92671	4.175043	0.997068	11.125099	-11.343975	-83.238807	25.193208	-0.203881	-0.321255	-0.870838	10.422488	0.289456	-0.820394	-21.274364	-9.388504	-1.548901	-0.506811	-0.413512	-0.393965
-13.260464	14.171356	8.284335	125.030488	65.006057	-22.581896	0.003674	0.264492	-0.930189	4.869376	1.279954	14.027253	-43.49013	-94.640749	22.156046	-0.177999	-0.276216	-0.860051	10.244204	0.34769	-0.883355	-22.233491	-10.844688	-0.071469	-0.50709	-0.428878	-0.408656
-1.758207	-2.019184	-1.221347	45.919722	131.526186	-79.405633	0.017795	0.264117	-0.930538	6.098636	2.238547	17.790451	-30.328679	-107.146074	17.664593	-0.216707	-0.290689	-0.87257	10.787494	1.278905	-0.090705	-22.505633	-11.321519	1.582198	-0.507299	-0.44507	-0.407819
-0.886217	1.882019	11.314749	9.558369	132.255735	-85.456329	0.0613	0.23898	-0.93883	5.903412	-0.130439	13.82127	-3.025107	-119.79708	15.865244	-0.204176	-0.322327	-0.856489	12.098225	1.162502	0.591986	-23.136907	-10.299003	3.046649	-0.506949	-0.43053	-0.3776
-0.766452	1.04621	17.39441	14.95725	112.687143	-91.466809	0.031144	0.291285	-0.937719	5.48667	0.998835	15.964852	-6.499487	-136.06688	10.089929	-0.243324	-0.308304	-0.842315	13.396195	1.798615	0.678822	-25.203002	-9.684593	2.073168	-0.507161	-0.428052	-0.424184
-5.280416	2.00323	11.968583	73.810277	81.461659	-58.486406	0.07432	0.210721	-0.87946	5.495539	0.154162	16.303978	6.298023	-154.977856	7.815996	-0.243839	-0.295127	-0.814619	14.519203	2.958559	0.944303	-24.983313	-13.078589	2.058008	-0.492482	-0.399594	-0.348149
-5.452666	3.312164	9.072399	47.610944	66.759679	-5.676305	0.07392	0.241791	-0.900367	5.949808	-0.126253	18.691067	15.773076	-177.819432	3.712332	-0.269646	-0.324846	-0.82641	13.764057	2.033323	1.465203	-19.697983	-16.192921	3.367961	-0.479479	-0.463333	-0.360258
-1.377036	1.01349	9.596629	-8.92906	57.996436	23.139683	0.087669	0.237889	-0.886641	6.009683	-0.069935	18.805602	38.097027	-203.190174	-2.255728	-0.295818	-0.310748	-0.812513	11.932741	1.397931	1.248649	-15.012569	-13.873654	5.479398	-0.506598	-0.41599	-0.347382
0.237436	-0.823628	10.131762	-17.31382	53.214123	18.701119	0.074291	0.24532	-0.914443	6.417107	-1.140875	18.926443	51.556106	-228.496198	-7.767753	-0.334526	-0.325221	-0.825032	10.741143	1.514311	0.628066	-13.178537	-8.955896	6.732986	-0.478715	-0.397737	-0.379134
-0.930259	-2.538767	11.806732	4.027688	52.175629	-0.206251	0.088412	0.244945	-0.914792	5.896647	0.099367	18.916606	62.160237	-254.424409	-8.787352	-0.348533	-0.298943	-0.769364	10.437684	1.803636	0.204452	-13.401461	-5.586731	6.198117	-0.506531	-0.398146	-0.379275
-2.401261	-0.075947	9.856267	14.815539	46.425425	-6.311143	0.12963	0.267835	-0.908596	4.623109	1.284489	18.664447	73.634251	-281.653223	-2.389638	-0.362695	-0.363515	-0.722025	10.136966	1.861151	-0.100338	-13.186975	-4.496759	4.388852	-0.50674	-0.414338	-0.378437
-2.289642	0.842552	9.748648	9.074367	35.188442	1.220495	0.115896	0.254439	-0.904831	4.42177	2.354049	17.41565	82.903899	-309.488514	7.237394	-0.402138	-0.350564	-0.693502	9.963665	2.61778	0.199109	-11.904303	-4.530898	2.214347	-0.520722	-0.395045	-0.441456
-1.030826	0.381867	9.714361	-0.869825	28.830618	7.647209	0.130388	0.257592	-0.919256	3.030923	4.046314	17.104861	80.122071	-334.772467	25.420019	-0.428756	-0.368178	-0.663247	9.854051	3.259112	0.73879	-10.6566	-4.557268	-0.7241	-0.492485	-0.380923	-0.395569
-0.619154	-0.822524	10.228766	-2.291751	26.856025	7.741875	0.100646	0.261528	-0.879745	7.251143	4.379525	20.760482	82.968247	-354.29241	46.532343	-0.468199	-0.355226	-0.634724	9.275704	2.914478	1.325371	-9.160375	-5.797138	-1.579354	-0.506669	-0.415164	-0.36291
-2.78839	-0.474853	10.52902	0.307918	20.713155	8.462547	0.102547	0.227271	-0.89765	9.720496	3.698639	20.472059	74.137381	-357.986496	58.60529	-0.482726	-0.375981	-0.561696	8.807126	2.335292	1.433909	-6.344569	-7.734495	-2.558302	-0.50674	-0.414338	-0.378437
-1.944877	0.67022	9.811458	4.246392	14.979954	6.11937	0.129616	0.285135	-0.926088	9.882595	1.897554	22.511985	47.256157	-361.611025	57.776895	-0.508973	-0.377203	-0.546795	8.684132	2.102022	1.131185	-3.272363	-9.378935	-2.194832	-0.52086	-0.412063	-0.425091
-1.828343	-0.593335	9.86523	-3.10395	9.166495	8.928701	0.102532	0.244571	-0.915142	6.996612	1.900275	19.394209	43.223345	-351.823183	47.388124	-0.561537	-0.334758	-0.505654	8.272275	2.509994	1.245026	-0.221404	-9.706629	-1.990381	-0.492694	-0.397115	-0.394732
-1.539518	0.49857	10.045941	-7.707964	7.474093	9.926432	0.115138	0.264681	-0.894171	6.057915	2.523355	21.299926	54.408125	-328.249206	34.959689	-0.601796	-0.369911	-0.44542	8.569691	2.451737	1.370095	2.272787	-9.411956	-3.009375	-0.492761	-0.41496	-0.362839
-2.115107	-1.454992	9.799189	-5.089301	7.630045	5.382784	0.129645	0.250536	-0.891104	-4.169513	0.228837	16.384127	90.87876	-340.275465	9.250414	-0.563163	-0.370758	-0.431898	9.559875	1.923544	0.607788	6.306394	-9.914585	-3.296643	-0.492903	-0.413308	-0.393895
-2.34528	-1.397626	9.738124	-2.669532	7.676947	4.947244	0.173521	0.228927	-0.913472	-11.075901	-3.145355	7.913817	116.63455	-232.016929	18.66963	-0.617799	-0.396026	-0.300644	9.264119	2.214599	0.603522	10.835998	-9.768369	-4.047232	-0.50674	-0.414338	-0.378437
-2.39474	-1.395896	10.134982	-3.164653	6.436378	5.725848	0.128873	0.278078	-0.897936	-13.745504	-8.040002	9.098944	111.334455	-115.44563	8.971539	-0.61861	-0.383921	-0.258598	9.439257	2.562403	0.5484	14.091987	-7.835682	-3.48757	-0.520648	-0.414542	-0.378508
-2.346435	-1.340426	9.681512	-0.639881	5.439205	2.543656	0.12963	0.267835	-0.908596	-6.676607	-5.124309	8.966908	111.188321	-88.051416	9.243657	-0.605709	-0.399166	-0.25787	9.850574	2.386735	0.435547	15.08978	-3.565312	-2.014015	-0.506389	-0.399798	-0.348219
-0.973365	0.094618	9.714268	-0.786894	6.641175	2.195604	0.14568	0.198605	-0.891866	-12.254993	-6.07133	9.018756	61.448614	-24.313154	10.947043	-0.644562	-0.384071	-0.258046	10.324499	2.560377	0.564906	15.582007	2.530785	0.216745	-0.52016	-0.382983	-0.364654
-2.17649	-0.364286	9.632102	0.600416	6.373605	4.671313	0.158272	0.236016	-0.888387	-8.29959	-4.105337	11.198287	56.055151	-6.472715	10.842629	-0.606444	-0.371741	-0.216828	9.741325	1.924127	0.850717	14.951449	7.777916	1.355385	-0.507157	-0.446723	-0.376763
-1.251428	-0.477902	10.104259	-1.818989	6.357086	5.138014	0.144523	0.239919	-0.902113	-8.331151	-4.669922	9.668544	58.564571	15.201014	2.181565	-0.658273	-0.356721	-0.216729	9.690262	1.344986	1.206585	14.662364	10.410481	1.0688	-0.464874	-0.415378	-0.347171
-1.939423	-2.258575	9.969711	-3.220967	4.163031	2.898354	0.158643	0.239544	-0.902463	-8.122086	-4.333176	8.710791	55.299862	41.881	-5.509345	-0.619501	-0.447346	-0.225884	9.337016	1.92705	1.322269	14.322112	10.721795	0.426722	-0.520372	-0.380505	-0.411237
-1.547722	-0.479866	9.587014	-8.385566	4.62721	5.926141	0.143394	0.246633	-0.877377	-8.486736	-5.009302	7.740095	41.017151	74.05217	-12.568617	-0.620312	-0.435242	-0.183838	9.456284	1.868952	1.384129	13.494307	11.020302	0.856178	-0.506598	-0.41599	-0.347382
-1.370722	-0.019252	9.876551	-9.420945	4.696808	7.494253	0.116267	0.257967	-0.918907	-7.105274	-4.955558	7.769156	23.923361	106.271607	-19.352067	-0.605634	-0.383846	-0.258874	9.390084	1.170197	0.900807	13.038964	11.501798	1.466792	-0.520093	-0.365138	-0.396547
-1.424678	0.038955	10.046238	-5.961932	4.50655	6.71454	0.129616	0.285135	-0.926088	-6.360096	-4.562741	7.671925	9.44448	135.359583	-25.702023	-0.631956	-0.400388	-0.242969	9.149348	1.2859	0.657272	13.109592	12.509653	1.645106	-0.478715	-0.397737	-0.379134
-1.489478	-0.307341	9.645705	-3.698789	4.155663	6.058322	0.144122	0.270989	-0.923021	-5.48923	-4.00072	8.08701	-4.130078	162.653605	-33.11706	-0.644342	-0.398319	-0.271393	8.907241	1.517508	0.354325	11.854513	13.4503	1.950796	-0.507019	-0.429704	-0.393128
-1.371463	-0.536467	9.817526	-1.368942	4.540529	5.597867	0.131517	0.250878	-0.943992	-4.453592	-3.721008	8.109007	-15.27981	188.922404	-38.96809	-0.579613	-0.428585	-0.270764	8.553549	1.34409	0.34698	9.793463	13.93045	2.139349	-0.520719	-0.413716	-0.394035
-1.660987	-2.203029	9.577548	5.217035	5.300711	3.597904	0.144122	0.270989	-0.923021	-3.992052	-2.989478	8.232574	-26.843823	214.375455	-43.255369	-0.604308	-0.409127	-0.328615	8.188293	0.935648	-0.320329	6.86258	13.860938	1.936352	-0.492485	-0.380923	-0.395569
-3.210368	-0.421705	9.441258	5.736397	6.747717	0.890517	0.143765	0.250161	-0.891453	-3.00651	-2.822035	8.593106	-38.511821	239.138522	-45.823314	-0.604679	-0.42552	-0.313262	8.725075	0.877593	-0.011138	3.811593	13.940159	2.09984	-0.506673	-0.396493	-0.41033
-2.228544	-1.397227	9.854057	9.046777	6.980721	0.6701	0.172378	0.25294	-0.906228	-2.183778	-2.766549	9.403032	-49.340414	262.033614	-47.23778	-0.604459	-0.439768	-0.326608	8.018812	0.99586	0.095965	0.852058	14.052826	2.018331	-0.521069	-0.428256	-0.424254
-1.663054	-0.882115	9.526245	9.432006	8.089932	3.293762	0.1579	0.232487	-0.874311	-1.247556	-2.486004	10.158927	-57.937778	280.809518	-46.811106	-0.56376	-0.433112	-0.413533	8.134758	0.472164	-0.083779	-2.447553	13.979776	2.03063	-0.492974	-0.412481	-0.409423
-0.547672	-0.47478	10.970418	7.023271	10.046092	3.271153	0.173535	0.211627	-0.89598	-0.724501	-1.923432	10.453479	-66.135414	294.714308	-45.230423	-0.550564	-0.447285	-0.427155	8.372869	0.065339	-0.021201	-5.100096	13.382056	2.715485	-0.507161	-0.428052	-0.424184
-2.73505	-1.222599	10.299584	13.951758	7.812702	-0.219866	0.213982	0.262059	-0.896615	0.094951	-1.417397	11.150506	-73.838354	303.876233	-43.018409	-0.523726	-0.443919	-0.470756	8.374124	0.472366	0.100343	-7.91416	12.14577	2.976085	-0.507094	-0.410207	-0.456077
-0.095334	1.247169	10.759153	9.991221	9.698157	2.643607	0.172006	0.249412	-0.892152	1.19979	-1.531679	11.683137	-83.934136	309.493065	-41.614258	-0.522916	-0.456024	-0.512802	8.428624	0.994173	-0.076052	-9.746069	10.300584	3.297162	-0.53463	-0.395249	-0.441526
-2.458675	-1.397302	9.79275	17.315692	7.817527	-1.977555	0.186113	0.266337	-0.909993	1.949911	-1.195002	11.812416	-95.456931	312.190649	-41.195921	-0.509124	-0.407844	-0.544788	8.081109	0.531611	0.214902	-11.029461	8.128164	2.914851	-0.492836	-0.395463	-0.425788
-0.011014	1.412897	9.22707	11.303369	10.409238	0.10597	0.158257	0.253315	-0.905878	3.596846	0.042721	13.603137	-105.824679	310.871918	-42.142161	-0.507578	-0.447374	-0.627875	8.494877	-0.22457	0.159484	-12.158616	5.645693	2.991915	-0.492903	-0.413308	-0.393895
-1.429505	0.554964	9.820997	14.137178	9.029794	-1.764693	0.172392	0.235641	-0.888736	4.828172	0.942695	14.762075	-112.244248	304.012538	-44.650859	-0.429132	-0.44478	-0.658229	8.617467	0.182929	0.46295	-12.670034	3.411774	2.912738	-0.534906	-0.429286	-0.408796
-1.083129	-0.306425	9.937765	17.715512	8.942038	-3.401846	0.200247	0.248663	-0.89285	5.929969	1.785984	15.238872	-113.131729	289.994494	-46.394113	-0.401849	-0.409702	-0.718187	8.799747	0.299912	0.76628	-12.877278	1.528404	1.577686	-0.520789	-0.41289	-0.409563
-1.593924	-0.362529	10.154914	20.62571	9.615925	-4.718024	0.186113	0.266337	-0.909993	7.057152	2.630269	16.905101	-107.625973	268.718809	-44.875363	-0.387617	-0.390019	-0.776865	8.564243	0.533003	0.822774	-12.553286	0.099163	0.88038	-0.506322	-0.381953	-0.380112
-2.283328	-0.190189	10.02857	24.540537	9.593638	-6.569795	0.20059	0.28679	-0.94191	7.115841	3.306223	17.020158	-99.362838	243.644803	-38.12101	-0.37427	-0.373551	-0.792494	8.028966	0.417078	0.572748	-12.527873	-1.163401	1.71152	-0.506815	-0.394841	-0.441386
-1.825252	-0.247962	10.037237	28.57805	9.508724	-8.269611	0.17122	0.294254	-0.916475	6.657736	3.30718	17.123766	-101.781972	227.036597	-26.728538	-0.346917	-0.383362	-0.863791	8.387485	0.882112	0.880863	-11.231563	-1.751286	2.809914	-0.506952	-0.411859	-0.425021
-2.057693	-0.133637	9.862706	29.276416	8.967205	-9.016491	0.172778	0.22187	-0.88532	7.599272	4.601958	18.220352	-100.377432	217.373965	-11.965048	-0.320595	-0.36682	-0.879695	8.800733	0.823091	0.888319	-9.030266	-1.642492	4.879762	-0.548747	-0.411645	-0.440759
-1.651427	-0.017838	10.155249	29.894294	10.176213	-9.673352	0.172392	0.235641	-0.888736	9.896322	5.611454	18.099643	-94.516592	203.701837	6.338641	-0.293833	-0.378775	-0.922293	8.342639	0.943537	1.6588	-7.277606	-0.443919	7.893573	-0.534697	-0.413094	-0.409633
-2.044289	-0.188184	10.544702	33.86777	12.732784	-8.539133	0.185355	0.27658	-0.899332	13.731815	6.673754	17.275308	-89.743743	187.248301	26.186758	-0.229098	-0.34883	-0.911329	8.805695	1.056631	1.188843	-5.269298	2.042525	10.686425	-0.520581	-0.396697	-0.4104
-1.4998	-0.526933	12.031456	35.267265	18.19316	-4.344749	0.186541	0.200668	-0.854101	18.597394	6.49451	16.075212	-85.6524	174.958819	40.002926	-0.240302	-0.342474	-0.997151	8.281807	0.304094	1.475259	-4.251617	3.912076	13.638703	-0.492694	-0.397115	-0.394732
-4.003385	-3.004546	9.755929	40.737802	51.662367	0.44642	0.214411	0.19639	-0.840724	24.889266	6.706412	14.339275	-74.084352	171.031843	39.97314	-0.20138	-0.402459	-1.008314	8.283603	0.478816	1.595815	-3.004296	5.911419	18.912709	-0.492485	-0.380923	-0.395569
-1.497164	0.450296	12.206117	18.593972	55.887635	11.710904	0.243352	0.254596	-0.92205	30.887398	7.481968	12.371209	-56.862138	178.131076	27.509784	-0.200929	-0.310536	-1.014336	8.757353	-0.219176	1.601651	-0.542731	8.013602	20.574982	-0.520234	-0.363486	-0.427602
-1.592412	-0.005052	13.168462	18.394586	75.32707	15.37	0.202162	0.197107	-0.893263	33.757047	6.685188	9.260382	-33.751442	193.148404	5.141802	-0.122558	-0.323263	-1.043686	8.936757	0.187693	1.786404	2.915528	9.569131	19.240618	-0.548747	-0.411645	-0.440759
-0.845749	3.179591	19.277264	16.602369	78.876304	21.381776	0.216297	0.179433	-0.87612	35.088096	2.464977	17.323827	-11.316307	210.693673	-21.331346	-0.135383	-0.292697	-1.045417	10.066192	0.477485	2.287804	5.67689	10.5987	15.282547	-0.520093	-0.365138	-0.396547
-2.442196	-0.174825	13.605861	46.474481	107.875262	20.540633	0.200633	0.234892	-0.889434	35.774798	-0.649083	0.690936	32.826745	181.759853	-49.45048	-0.057313	-0.366705	-1.070753	12.014016	0.821733	2.385508	6.809539	9.904246	14.792694	-0.575933	-0.382147	-0.39599
-1.847305	1.265866	14.816943	26.711615	120.247912	24.049037	0.229274	0.203072	-0.869225	40.637271	3.17605	5.09911	94.078293	149.336192	-97.130533	-0.070654	-0.322963	-1.044789	13.063891	0.003024	1.623065	7.002798	7.277661	14.468299	-0.548538	-0.395453	-0.441596
-1.155466	0.806801	15.055787	33.356281	139.146297	23.601239	0.257901	0.188552	-0.866508	35.375718	6.560305	-1.179354	90.520781	94.197463	-110.688713	0.007346	-0.352081	-1.058786	13.171614	0.174757	1.086846	4.331119	4.139067	15.348819	-0.520163	-0.364312	-0.412075
-2.10879	0.86929	16.060455	18.163053	157.123526	19.491001	0.286528	0.174032	-0.86379	30.472473	2.17259	-4.852896	100.903976	22.32349	-81.528473	-0.031732	-0.382947	-1.055951	13.284684	-0.059053	0.788523	-0.626428	-0.334687	17.374976	-0.547912	-0.346875	-0.444108
-1.41258	0.526073	16.527194	16.977959	177.972768	19.618794	0.283142	0.194175	-0.789582	23.088074	10.415362	0.377631	40.171542	-54.939268	-32.440456	-0.018976	-0.368624	-1.042881	11.38941	-0.462995	0.33223	1.583587	-6.117029	18.281021	-0.519955	-0.34812	-0.412912
-1.974896	0.241451	17.02653	11.755976	201.248116	17.957823	0.341524	0.158421	-0.808883	15.742477	16.460236	4.531366	79.421269	-123.029197	46.328697	-0.032693	-0.401483	-1.011898	10.451619	-0.401276	0.674312	2.677877	-9.405185	20.157375	-0.520585	-0.378026	-0.457821
-2.071749	-1.076002	17.871549	10.676926	227.468383	20.7792	0.312526	0.169412	-0.797525	2.521741	11.352222	-3.393718	112.51344	-185.419709	166.915625	-0.044563	-0.412591	-1.068018	10.394264	-0.168342	0.794014	8.712813	-11.695798	21.919395	-0.533866	-0.329653	-0.460402
-2.663855	-0.837578	19.793271	19.406614	256.669505	27.147105	0.385043	0.115984	-0.799683	13.433641	12.082023	17.273816	52.356197	-205.174289	141.50745	-0.097428	-0.431428	-1.022862	11.056282	0.937078	1.649513	19.93184	-11.7427	15.520953	-0.547491	-0.333162	-0.398361
-0.834484	-2.263321	22.550705	32.751535	289.459517	32.670726	0.383171	0.115642	-0.746795	6.408433	2.518177	16.155394	74.366525	-156.113114	74.546154	-0.097428	-0.431428	-1.022862	12.760169	3.720565	1.633386	24.91271	-5.953459	4.563458	-0.533792	-0.34915	-0.397454
-2.454855	-3.689713	24.502239	59.629657	325.806093	38.305118	0.410284	0.121607	-0.722758	7.084073	4.649912	7.56611	50.978009	-138.2671	40.666511	-0.12375	-0.44797	-1.006957	14.635905	4.003904	1.010861	27.209313	3.906791	4.26357	-0.575519	-0.331091	-0.445085
-1.801455	-3.352799	22.811456	85.528951	359.495699	41.906077	0.438925	0.089787	-0.702549	8.043194	3.072308	9.226673	-12.468012	-105.830315	1.229525	-0.162904	-0.494156	-1.003119	13.458823	2.61278	0.982918	24.123589	14.03207	6.1214	-0.547912	-0.346875	-0.444108
-0.594901	-0.837381	20.231328	100.438121	391.79416	57.748745	0.493907	0.091475	-0.665133	4.513075	1.052467	10.792562	-26.839439	-82.569796	-4.099916	-0.163419	-0.48098	-0.975423	10.927866	2.561994	1.294793	28.890631	15.43945	1.818482	-0.506606	-0.378648	-0.442223
-2.652344	2.004885	26.340974	101.082012	416.685743	41.381594	0.521833	0.018	-0.581789	5.026867	0.769655	10.576647	-3.184026	-53.070517	5.79988	-0.176395	-0.481055	-0.975148	9.454913	1.984856	1.324717	32.286964	15.226153	2.907485	-0.547979	-0.36472	-0.412215
-5.804968	2.408531	26.110862	133.304354	426.602425	18.882685	0.575672	0.043702	-0.537129	3.728244	1.165107	9.077753	4.589977	-36.984054	4.486287	-0.163494	-0.4963	-0.97442	9.029	1.808607	0.597389	31.139643	18.559996	2.559532	-0.562167	-0.380291	-0.426976
-5.610405	-0.139369	21.330152	144.112322	412.097515	-4.568532	0.631425	0.017848	-0.492882	3.036057	1.898697	9.063862	-6.228077	-35.469294	0.392485	-0.188705	-0.463666	-1.004575	9.037378	1.519957	1.015501	29.08192	26.334244	-1.504431	-0.520372	-0.380505	-0.411237
-6.139399	-4.023707	26.304566	132.511674	395.158931	-14.778514	0.603999	-0.060843	-0.432877	3.958397	1.221006	9.082636	-17.41278	-34.107445	-9.190428	-0.175434	-0.462519	-1.0192	9.044946	1.579764	1.435097	25.415187	32.995655	-4.976453	-0.519959	-0.329448	-0.460332
0.605143	-3.826176	20.014751	132.085995	377.162694	-8.445504	0.672358	-0.066587	-0.367659	9.899208	2.111715	9.830948	-21.620366	-24.812907	-8.330721	-0.227778	-0.434322	-0.991405	9.449816	1.809392	1.024441	20.653145	34.960333	-10.225079	-0.534284	-0.362038	-0.458728
8.508954	-2.859433	5.737639	157.276027	299.81522	4.207897	0.670872	-0.0807	-0.311355	3.8541	-0.017718	9.475652	-13.156866	-4.84639	-1.836525	-0.240239	-0.447573	-1.018825	10.668267	2.266715	-0.028796	13.222597	33.31402	-13.337997	-0.575728	-0.347284	-0.444248
28.052428	-3.596041	-1.67109	124.775603	166.678854	-2.127042	0.682392	-0.105773	-0.213173	3.761028	-0.805323	10.435444	-8.532881	-2.905436	1.053505	-0.201751	-0.418851	-0.99296	11.308776	2.205176	-0.496194	3.713339	28.082905	-13.675879	-0.547704	-0.330683	-0.444945
10.278751	-4.790246	11.276475	68.708197	80.343366	-37.844419	0.712519	-0.123479	-0.249267	3.747346	0.658843	9.92692	3.845345	-6.313617	-2.36151	-0.25388	-0.465113	-0.988847	11.310282	2.031195	-0.437029	-3.504615	19.858022	-13.610498	-0.54833	-0.37926	-0.442434
17.497901	-6.587777	8.681459	60.886806	-10.459798	-41.997618	0.653008	-0.08101	-0.20523	3.097549	1.110057	9.177687	-0.258423	-8.475495	-3.280317	-0.214582	-0.448495	-1.005027	11.421347	3.13338	-0.669758	-10.636657	9.876926	-12.253537	-0.548889	-0.409993	-0.471815
12.807884	-4.675015	11.837629	97.082396	-42.723753	-55.4186	0.653765	-0.091253	-0.21589	2.719846	0.548454	10.301542	-1.445929	-9.50581	-2.767443	-0.201901	-0.449492	-0.990953	11.01354	1.799071	-0.563334	-18.680119	-0.660017	-7.681741	-0.547983	-0.346049	-0.459636
8.926579	-7.681918	6.4074	107.762325	-51.505743	-43.842801	0.653008	-0.08101	-0.20523	4.109395	-0.075868	7.95238	0.773935	-9.730167	-1.658081	-0.201461	-0.477989	-1.017645	10.362972	1.451606	-0.696736	-22.159637	-5.59305	-11.007263	-0.534142	-0.36369	-0.427673
7.300004	-8.502592	2.223682	71.21666	-67.324624	-19.424937	0.682763	-0.102244	-0.227249	3.506144	1.954544	9.526698	-5.192568	-7.689617	-1.735076	-0.227338	-0.462819	-1.018098	9.954976	2.092871	-0.342278	-26.832299	-6.973974	-12.175592	-0.492422	-0.344406	-0.474883
7.26704	-8.210035	3.474543	6.614507	-99.729996	13.571201	0.669743	-0.073986	-0.286619	4.076808	0.770241	9.197954	-7.771663	-8.91613	-2.057626	-0.252549	-0.430184	-1.048253	9.844222	1.804244	0.013727	-29.384196	-4.885201	-13.91822	-0.506118	-0.347089	-0.428369
7.74955	-5.722245	7.756696	-15.264654	-137.949619	36.746805	0.669386	-0.094813	-0.255051	4.262717	1.446453	9.881825	-8.392725	-9.198158	-2.338382	-0.202416	-0.436315	-0.963257	9.615725	1.864591	0.42892	-32.063673	-4.278978	-14.308681	-0.548192	-0.362242	-0.458798
6.843003	-5.030112	8.253453	-4.870155	-180.325769	51.29741	0.69837	-0.088506	-0.283902	4.148102	0.545333	9.822008	-6.401194	-10.519399	-2.75068	-0.228293	-0.421145	-0.96371	9.626979	1.286056	0.96561	-32.313182	-4.026015	-15.195204	-0.534563	-0.377404	-0.473419
5.556475	-4.747783	6.865689	-0.828161	-220.899031	60.9894	0.713234	-0.081824	-0.312403	3.908601	0.320063	9.363866	-5.290887	-10.629766	-2.473432	-0.241344	-0.436541	-0.96243	9.048923	1.290125	1.613581	-29.767315	-4.209497	-17.281554	-0.520443	-0.379678	-0.426765
4.859732	-5.208989	6.338719	-17.373439	-253.982729	68.685196	0.726968	-0.068427	-0.316168	3.737375	1.447139	9.531107	-4.822399	-10.253871	-2.777597	-0.227928	-0.464963	-0.989398	9.1107	1.523036	1.795392	-26.000113	-3.586401	-17.08426	-0.548259	-0.380087	-0.426906
4.468972	-5.206528	6.842602	-42.208299	-277.165004	73.22391	0.701385	-0.112177	-0.344034	3.40528	1.448307	10.146889	-3.757442	-9.133926	-3.166368	-0.214362	-0.462744	-1.018373	8.862936	1.346629	1.131272	-23.042375	-4.099862	-16.695257	-0.561891	-0.346253	-0.459706
3.856575	-4.627796	7.742416	-63.376561	-294.002374	73.164857	0.729198	-0.047257	-0.400624	3.103032	0.772263	9.403961	-1.99096	-8.710703	-3.499845	-0.240389	-0.478214	-1.016818	8.691389	1.34827	1.427505	-18.931509	-6.374728	-17.127111	-0.492348	-0.363904	-0.411934
3.482103	-4.047301	9.101509	-77.885491	-306.66519	68.556161	0.67573	-0.069431	-0.459359	4.027897	0.038337	9.535966	1.25519	-8.514602	-3.741906	-0.227338	-0.462819	-1.018098	8.391752	0.941177	1.120738	-15.868277	-8.561253	-17.58615	-0.561611	-0.330887	-0.445015
3.148101	-3.355582	9.609402	-87.203235	-315.040096	59.71007	0.69058	-0.045449	-0.505352	3.741864	0.996637	9.700646	2.749204	-7.664774	-4.194672	-0.214802	-0.434247	-0.991681	8.562218	1.404144	0.826483	-13.722789	-10.205859	-17.524954	-0.562171	-0.36162	-0.474396
3.030127	-3.183899	9.437339	-99.756851	-319.83906	48.999342	0.663082	-0.037644	-0.532805	3.69263	0.433724	10.038801	4.449414	-7.494513	-3.482571	-0.239723	-0.46075	-1.046521	8.319955	1.228972	0.461898	-11.847466	-10.840803	-17.589833	-0.520514	-0.378852	-0.442293
2.360025	-3.524432	10.275326	-115.907657	-321.08518	38.325263	0.622935	0.001949	-0.633705	3.67713	0.320446	9.302391	5.110068	-6.536635	-3.318375	-0.227338	-0.462819	-1.018098	8.438778	0.415391	0.400731	-10.984645	-10.619489	-17.991274	-0.534142	-0.36369	-0.427673
1.410782	-2.944004	11.509578	-132.45789	-320.45521	24.891749	0.623664	0.026305	-0.679349	3.565218	1.165809	9.527243	5.582554	-5.796179	-3.094837	-0.214211	-0.432103	-1.020381	7.552455	0.882024	0.386202	-9.039297	-10.090308	-18.214753	-0.547841	-0.347702	-0.42858
2.018212	-1.902751	13.344355	-143.687009	-319.820429	7.79265	0.653005	0.05344	-0.739767	3.854901	0.827335	9.589643	5.896831	-5.334887	-2.689235	-0.240684	-0.479286	-1.002468	7.846301	0.939178	0.332044	-6.87393	-9.009455	-18.472219	-0.519959	-0.329448	-0.460332
0.835337	-2.644519	14.284337	-146.60189	-318.243324	-10.298251	0.554533	0.059591	-0.751399	3.743527	1.391045	9.814257	4.309304	-6.104347	-0.632688	-0.214947	-0.404678	-0.979339	7.562899	0.651945	0.924375	-4.73731	-7.560073	-18.884131	-0.548259	-0.380087	-0.426906
-0.173802	-1.490117	15.406183	-151.465789	-314.36621	-28.470861	0.541455	0.157047	-0.880736	4.324317	0.601482	9.995601	8.871904	-6.497196	2.66569	-0.215027	-0.480208	-0.98867	7.793617	1.056948	0.69088	-2.52699	-5.419218	-18.107834	-0.534493	-0.37823	-0.457891
-0.542665	-0.965857	17.0493	-161.513078	-307.440571	-43.51342	0.485688	0.200201	-0.942475	4.159844	0.095116	10.331385	17.590862	-10.30648	6.61169	-0.266486	-0.448795	-1.003924	8.573452	0.360753	1.301288	-0.251945	-3.8738	-15.923219	-0.534351	-0.379883	-0.426835
-1.368859	-1.417771	18.679406	-162.702491	-293.076944	-56.866749	0.455532	0.252506	-0.941364	4.00871	1.220614	8.744007	16.831799	-23.524535	10.055774	-0.279537	-0.464191	-1.002645	9.033206	0.473105	0.65161	2.291548	-2.496404	-15.144466	-0.54805	-0.363894	-0.427743
-2.300535	-0.488835	20.824756	-159.149406	-269.114623	-65.507504	0.399764	0.295659	-1.003102	4.26455	0.488834	9.881018	13.434521	-26.043442	8.794849	-0.241419	-0.451861	-0.961427	8.628336	0.243477	1.062266	4.647469	-1.704639	-13.995522	-0.561611	-0.330887	-0.445015
-4.387522	-0.825195	22.373995	-161.127403	-242.982101	-64.525136	0.342853	0.362827	-1.057597	4.032517	0.151188	9.762619	18.158037	-33.726602	6.379294	-0.240609	-0.463966	-1.003472	9.095523	0.473712	0.832431	5.035962	-2.111041	-10.052757	-0.562029	-0.363272	-0.443341
-7.178437	0.616251	23.12141	-164.807751	-222.732838	-50.288296	0.300835	0.402077	-1.105608	3.850389	0.658154	9.362942	20.26503	-36.090176	1.39413	-0.293103	-0.46641	-0.97367	8.437542	0.47322	0.341071	5.557119	-2.721022	-4.122872	-0.520443	-0.379678	-0.426765
-12.285594	2.685664	22.519319	-172.03029	-204.142876	-21.560971	0.242423	0.472431	-1.121291	4.020559	0.714066	9.253337	14.586747	-40.663266	0.265113	-0.279682	-0.434622	-0.990302	8.141091	0.589799	0.276156	5.441409	-3.13623	3.459102	-0.53428	-0.380709	-0.411308
-18.504726	5.165234	23.60224	-183.485759	-187.671933	18.546782	0.227545	0.483048	-1.110281	4.372427	0.488334	9.543599	-6.645046	-48.844914	0.135869	-0.292588	-0.479586	-1.001366	7.719309	0.530691	-0.211049	3.463205	-3.40682	14.165319	-0.548259	-0.380087	-0.426906
-25.03066	8.949479	20.763394	-176.163969	-180.925291	66.618331	0.170249	0.563986	-1.168191	5.197994	4.212788	18.905561	-18.987684	-53.022387	-4.13902	-0.306004	-0.451164	-0.974398	7.59537	0.703953	-0.512043	0.953851	-2.796643	22.332975	-0.561745	-0.366577	-0.38123
-26.976198	12.672966	18.013385	-174.156236	-204.861501	100.309712	0.114138	0.569013	-1.180871	5.087094	0.884687	13.408721	18.984023	-88.852466	-5.20446	-0.268187	-0.500116	-0.929165	7.114822	0.063972	-1.062728	-0.638887	-2.415555	29.306701	-0.576145	-0.379669	-0.442574
-37.669763	15.261144	30.262153	-197.857786	-197.501117	138.590184	0.111109	0.609984	-1.13823	4.719296	1.222463	12.38224	7.634476	-97.56304	-8.845338	-0.318169	-0.463344	-1.016167	7.666005	-0.978656	-0.098764	-4.889421	-0.697146	33.226922	-0.54805	-0.363894	-0.427743
-31.848869	12.068116	23.428607	19.280487	-295.25447	103.343914	0.083611	0.61779	-1.165684	4.69517	2.068904	14.024291	16.447141	-113.718472	-7.888993	-0.331886	-0.496204	-0.985185	8.371478	-0.283612	-0.142499	-8.79233	2.338263	31.178331	-0.547912	-0.346875	-0.444108
-36.469791	19.264068	12.798599	165.515998	-279.798999	110.958401	0.042392	0.5949	-1.17188	5.215654	1.448346	14.091289	13.518311	-129.807219	-2.625524	-0.358498	-0.453608	-0.944595	10.092465	0.353781	0.491203	-13.885696	3.759891	28.010705	-0.53428	-0.380709	-0.411308
-43.444085	6.360416	-10.691918	114.779295	-135.62077	90.57987	-0.001098	0.602738	-1.146097	5.116931	2.350561	14.939224	7.468477	-150.762082	3.666151	-0.359314	-0.501713	-0.912885	11.395128	1.339586	0.879057	-13.371999	2.753651	21.960988	-0.534142	-0.36369	-0.427673
-37.810544	21.245718	5.790731	-73.458985	47.263675	24.561439	-0.014062	0.561799	-1.1355	5.307221	2.632602	15.792682	3.778728	-173.162196	9.852987	-0.38504	-0.455902	-0.915344	12.469699	2.21151	1.681363	-15.233442	1.899622	21.085332	-0.54805	-0.363894	-0.427743
-32.505368	31.546177	11.165738	-12.250426	191.554556	-122.818079	0.000788	0.585781	-1.181493	4.815296	2.859937	17.028062	-5.375957	-200.066461	17.748058	-0.385266	-0.501863	-0.912333	13.587819	1.685272	1.460418	-18.666012	0.727112	20.889387	-0.589845	-0.36368	-0.443481
-21.608421	21.82075	9.006656	61.184695	302.201201	-264.551628	0.028286	0.577975	-1.154039	5.077527	2.579086	18.50529	-8.540817	-231.970244	26.430871	-0.411809	-0.504157	-0.883082	13.232777	2.092614	1.455546	-19.427036	-2.247126	21.334293	-0.603544	-0.347692	-0.444389
-17.128848	21.505463	30.233374	-35.96603	266.308461	-201.070261	0.070633	0.594151	-1.172579	5.528839	2.580229	20.779337	-9.737459	-269.644427	32.807583	-0.477939	-0.46393	-0.812966	12.107939	3.140301	1.379181	-18.044352	-6.490066	20.982721	-0.561958	-0.364098	-0.427813
-3.465968	6.733905	17.138553	96.710807	183.101363	-161.637252	0.071033	0.56308	-1.151671	5.615979	2.91929	22.19682	-2.147299	-310.942404	40.727921	-0.478083	-0.434361	-0.800623	11.325458	3.080519	0.525932	-20.066052	-12.52105	20.835425	-0.561541	-0.331713	-0.429487
-11.756202	9.462726	8.918882	68.791301	146.26868	-83.343182	0.082882	0.593434	-1.12004	4.621226	2.753851	24.100664	13.832309	-357.900385	50.26395	-0.505442	-0.48476	-0.739662	11.446772	2.616135	0.645969	-24.447784	-23.246764	24.356731	-0.589356	-0.332122	-0.429628
-3.367041	3.992933	7.467754	19.417198	155.431881	-1.454515	0.100017	0.569388	-1.180521	4.758786	3.036189	25.179472	28.086157	-406.807271	61.043675	-0.622741	-0.472259	-0.709485	11.594975	0.530814	2.017128	-27.642439	-33.903874	30.594243	-0.589423	-0.349967	-0.397735
-19.444103	6.59711	22.453395	-1.804378	151.707697	39.237745	0.12713	0.575353	-1.156484	5.390042	3.429269	25.136462	43.093756	-450.159902	68.025417	-0.623551	-0.460154	-0.667439	11.098866	-0.519407	0.566109	-29.740179	-41.14823	29.566474	-0.603056	-0.316133	-0.430535
0.561865	-15.120747	11.498571	3.076631	14.197037	-9.316105	0.154228	0.598618	-1.149938	6.717335	6.130987	25.56302	36.483027	-476.251236	76.702776	-0.650759	-0.479912	-0.608485	10.282257	2.260355	-1.772699	-31.764629	-44.19608	19.011551	-0.574819	-0.302011	-0.384648
-1.471455	3.131148	7.785145	15.385564	6.278278	8.276547	0.141279	0.54038	-1.121849	14.569964	4.938963	32.124293	21.010732	-493.538446	99.119858	-0.678847	-0.442676	-0.496147	10.927924	3.768847	-1.754166	-38.52998	-49.632656	13.101489	-0.602918	-0.299115	-0.4469
-1.141663	-0.076859	9.880763	19.100827	9.279482	5.33996	0.16912	0.570701	-1.143455	12.227147	2.575637	29.97828	36.893772	-479.219051	89.346125	-0.732302	-0.463656	-0.422291	11.375421	3.659414	0.110156	-33.557578	-51.752615	0.990017	-0.533169	-0.281901	-0.447386
-1.734297	1.527817	8.909883	-6.751934	10.439939	14.38774	0.142393	0.550965	-1.164077	7.758116	1.291538	33.44998	46.405124	-451.451646	74.551758	-0.772706	-0.469241	-0.349715	11.675734	3.776127	0.415687	-29.700793	-52.992978	-7.85046	-0.602843	-0.318612	-0.383951
-1.772493	-0.191527	9.811179	-11.575679	7.441673	8.495724	0.197375	0.552652	-1.126662	-3.459574	0.568669	20.022644	76.919764	-450.232566	32.102767	-0.761351	-0.444956	-0.2659	12.631942	3.369906	1.030633	-23.059761	-49.578869	-10.457904	-0.588305	-0.288502	-0.338972
-2.057361	-0.59317	9.860776	1.431937	3.324649	2.840668	0.183226	0.587626	-1.161296	-12.868746	-6.473189	-0.901968	119.95704	-328.677788	35.408991	-0.775728	-0.43507	-0.194879	13.464366	3.543727	1.406222	-13.444432	-38.849023	-9.779934	-0.630033	-0.270443	-0.386603
-1.313385	-0.134176	9.877181	-1.897267	4.027137	4.579034	0.210324	0.61089	-1.15475	-20.223762	-9.942159	10.036877	99.83587	-135.641141	-40.9625	-0.78952	-0.48325	-0.162893	12.828933	3.315875	2.112011	-3.827616	-21.377407	-7.392169	-0.588797	-0.301389	-0.400246
-2.222521	-2.027877	10.135668	0.157871	6.348034	1.329427	0.182869	0.566798	-1.129729	-9.240494	-3.203035	10.330109	89.062838	-52.230296	-61.041634	-0.765409	-0.444642	-0.066007	11.662356	3.089239	2.807896	5.49393	-4.646663	-7.230725	-0.574952	-0.337701	-0.320863
-0.068967	0.838282	9.16669	-2.783178	9.591071	4.150668	0.182855	0.584097	-1.14722	-11.400765	-2.404453	17.02253	34.301756	23.218374	-52.197924	-0.790996	-0.48861	-0.091144	10.493172	3.036335	3.384709	15.497652	6.61345	-4.172855	-0.602422	-0.304898	-0.338205
-2.178882	-0.135002	9.519361	-2.067822	11.035224	4.478751	0.253443	0.599524	-1.166458	-7.868828	-4.105	12.50946	68.087748	17.113841	-65.825024	-0.803526	-0.456972	-0.107226	10.250059	2.279909	2.897838	28.396713	14.938512	-3.159061	-0.588167	-0.271483	-0.355337
-2.849026	-0.418093	10.357589	0.070939	10.469703	3.727392	0.182855	0.584097	-1.14722	-8.317938	-3.993387	10.348788	82.7699	38.588844	-81.905319	-0.778611	-0.490678	-0.062721	10.303688	1.755607	2.537272	40.746547	20.26773	-2.495718	-0.602075	-0.271687	-0.355407
-1.31759	-0.47979	9.648321	5.173966	9.410588	1.640772	0.197361	0.569952	-1.144154	-9.949964	-5.68357	6.519872	71.185568	74.154552	-87.170695	-0.725752	-0.532052	-0.118212	9.590802	1.407535	2.223049	48.224392	23.464612	-4.371772	-0.616471	-0.30345	-0.369331
-3.07173	-1.450669	10.633056	7.405561	7.872325	2.682711	0.211496	0.552278	-1.127011	-9.488771	-5.402732	6.58642	42.645876	122.016637	-90.447079	-0.739393	-0.549591	-0.088233	9.288714	1.580954	1.858847	53.455988	23.784031	-6.837159	-0.658408	-0.301583	-0.416125
-2.300114	-0.078925	9.176256	7.467165	8.68552	1.469048	0.239337	0.582599	-1.148617	-8.492218	-4.671509	7.513821	23.888542	159.870791	-92.212264	-0.751038	-0.514738	-0.147363	9.0301	1.808854	0.657296	53.200479	23.116702	-7.474833	-0.603331	-0.350171	-0.397805
-1.898012	-0.366182	9.239697	10.944281	7.372618	-0.586377	0.225202	0.600273	-1.16576	-7.628498	-4.166103	7.589021	14.354058	192.212577	-91.497368	-0.725236	-0.545229	-0.145908	9.019346	1.225374	-0.004152	49.999222	23.124727	-6.393639	-0.602701	-0.320264	-0.352896
-1.711116	0.268929	10.041636	15.376833	6.924616	-2.630522	0.211839	0.590405	-1.176071	-6.998259	-4.505414	7.432116	4.298393	225.050363	-88.990182	-0.671787	-0.584458	-0.230098	8.89415	0.99161	-0.42669	45.499825	23.351078	-6.164499	-0.589002	-0.336253	-0.351988
-1.430577	0.497281	9.763903	22.628902	6.739101	-4.98523	0.238951	0.59637	-1.152033	-6.470368	-3.942652	7.953227	-7.766247	260.530456	-83.437584	-0.723395	-0.583687	-0.243345	8.236574	0.816889	-0.918792	40.748781	23.089249	-6.146046	-0.589006	-0.317582	-0.399409
-1.307776	-0.190411	10.161206	29.637922	6.107257	-6.027754	0.226359	0.55896	-1.155512	-5.191409	-4.169871	8.546029	-20.353247	291.291874	-79.288488	-0.684178	-0.6426	-0.268857	7.644887	0.527365	-1.050846	34.110653	22.304348	-6.485001	-0.61668	-0.319642	-0.368494
-2.175625	-0.019395	9.690403	33.101693	6.558181	-6.429096	0.225631	0.534604	-1.109869	-4.61554	-4.28361	8.558023	-33.877438	318.824839	-75.511271	-0.65653	-0.651339	-0.354503	7.402665	1.281904	-1.291661	26.673832	21.262676	-5.933559	-0.589353	-0.350793	-0.382207
-1.707609	0.039886	10.21123	35.708598	6.939116	-6.43041	0.239723	0.568828	-1.145201	-3.723262	-4.171428	9.935602	-48.629409	339.845572	-70.936783	-0.65594	-0.649195	-0.383203	7.055016	0.877418	-1.00046	19.943918	20.414688	-6.119072	-0.617377	-0.367394	-0.38151
-1.670149	-0.309147	9.18754	38.957797	7.013312	-6.223875	0.240466	0.575885	-1.173353	-3.150911	-4.341639	9.77763	-64.110925	354.726584	-65.036905	-0.616792	-0.663218	-0.397376	6.700359	0.645677	-1.067959	13.426754	19.045823	-6.150063	-0.602843	-0.318612	-0.383951
-1.594872	-0.592536	10.097096	39.416257	5.860678	-4.679814	0.212253	0.542035	-1.137671	-2.27521	-3.779429	10.419274	-77.772015	364.698932	-58.41378	-0.562601	-0.669664	-0.512273	7.009205	0.88052	-0.282678	7.408857	17.170976	-4.407875	-0.589006	-0.317582	-0.399409
-1.879207	-0.189756	10.206924	38.146132	6.932827	-2.174578	0.254586	0.57551	-1.173703	-1.733806	-3.328807	11.563325	-91.088661	370.267683	-51.49509	-0.549185	-0.698086	-0.539241	6.896115	0.649475	-0.04624	2.857458	14.147483	-3.490669	-0.589286	-0.332948	-0.4141
-2.630149	-1.799269	9.78772	29.050142	10.893242	8.036215	0.227545	0.483048	-1.110281	-1.270627	-2.822552	11.743342	-103.16944	373.550558	-43.519199	-0.49617	-0.648608	-0.586404	6.96544	0.477337	0.493281	-1.692775	10.749382	-1.838177	-0.602705	-0.301593	-0.400316
-1.501825	0.736539	11.979912	25.408514	23.834833	11.752965	0.21111	0.566049	-1.130427	0.079565	-1.978982	13.074569	-112.829916	375.213101	-35.71151	-0.455772	-0.703234	-0.669315	7.904871	0.18356	0.210117	-3.809556	7.67516	-1.082339	-0.631151	-0.331908	-0.445366
-2.453854	-0.362148	10.081359	22.923852	30.945156	15.187548	0.255029	0.492542	-1.10032	1.099278	-1.979202	15.020867	-120.181257	373.785581	-28.086768	-0.415733	-0.653832	-0.716203	8.085916	0.358372	0.453788	-5.252313	4.953169	-1.61425	-0.561399	-0.333366	-0.398432
-2.089295	-0.185489	11.168972	17.217037	37.270682	18.741241	0.240494	0.541286	-1.13837	2.399696	-1.416893	16.690486	-124.485504	366.553142	-20.455653	-0.362133	-0.662421	-0.8024	8.027866	0.41683	0.512841	-6.775488	2.332128	-0.098654	-0.603119	-0.352649	-0.351222
-1.300479	0.500576	10.562073	17.277189	45.202158	21.231124	0.24278	0.493258	-1.152858	5.039618	-0.743785	19.124319	-128.611481	351.433257	-13.519416	-0.296368	-0.65883	-0.846828	8.569165	-0.163167	0.999528	-7.452725	0.247396	3.092325	-0.617239	-0.350375	-0.397875
-1.435995	1.19796	12.43778	7.416341	50.711094	21.900996	0.270221	0.55465	-1.195372	7.274056	-0.013687	21.436458	-128.736393	330.008933	-8.307358	-0.242982	-0.59296	-0.909345	8.037905	0.360979	1.051756	-6.25026	-0.834985	4.651891	-0.589494	-0.34914	-0.413263
-0.847452	2.177671	13.305814	20.806303	60.960335	20.526505	0.283999	0.516148	-1.146662	9.733354	0.769737	20.80943	-136.265723	307.314979	-1.541594	-0.216364	-0.575346	-0.939599	8.521058	0.827227	1.721513	-3.93276	-0.525819	5.131047	-0.602843	-0.318612	-0.383951
-1.748001	1.364943	11.125316	18.908263	69.650415	14.877599	0.31264	0.484329	-1.126453	12.78098	2.510271	20.874973	-149.510896	297.311602	9.56962	-0.150599	-0.571755	-0.984027	8.472891	0.423055	2.257844	-0.484909	-0.406587	9.580432	-0.63073	-0.318194	-0.39962
-1.665836	0.795794	12.374784	11.888794	79.520857	14.10763	0.313012	0.487857	-1.140528	18.743141	4.246838	22.700148	-150.640035	279.71227	16.669024	-0.137253	-0.555288	-0.999656	8.183158	0.018187	2.490239	2.983432	0.45334	22.279542	-0.630659	-0.31902	-0.384092
-1.493415	1.427768	12.437632	15.30233	90.933392	14.344661	0.312254	0.4981	-1.129868	25.254442	5.697248	20.573613	-155.869383	252.58455	16.610435	-0.084753	-0.492634	-1.019123	8.487717	-0.270891	2.97376	7.986081	2.295469	32.218297	-0.616893	-0.317164	-0.415077
-1.6632	1.773024	12.549446	13.241944	101.46766	11.1793	0.326018	0.476898	-1.09865	34.351004	6.691926	18.217901	-156.803756	231.124286	0.272613	-0.019503	-0.475867	-1.035855	8.375032	-0.676164	3.209456	14.171579	3.807015	39.03671	-0.603193	-0.333152	-0.41417
-1.827909	1.257622	12.885052	11.438249	112.813946	9.620997	0.340896	0.46628	-1.109659	43.181437	8.983694	16.990028	-152.699141	220.049599	-35.624506	0.01935	-0.490962	-1.035679	8.595805	-1.203097	2.31303	19.060286	5.841922	39.162148	-0.589215	-0.333774	-0.398572
-2.418689	-0.342083	14.799052	11.469439	126.061595	11.768254	0.353516	0.469092	-1.071196	37.881972	3.608549	-21.510422	61.092096	39.375793	-47.299461	0.021133	-0.364111	-1.101107	9.240466	-0.682639	2.147639	22.176091	6.964874	32.205748	-0.588518	-0.286023	-0.385555
-2.726252	-0.793646	16.609739	21.227483	144.891498	15.879506	0.411527	0.429809	-1.076422	49.373011	12.574112	13.556539	-11.822858	156.980549	-146.02114	0.059534	-0.471129	-1.094909	10.59056	-0.396848	1.814744	20.807133	5.986224	25.795685	-0.616751	-0.318816	-0.384022
-2.649369	-0.21493	17.636622	26.987599	170.069961	21.791944	0.410026	0.432995	-1.03761	44.558994	7.727389	0.543128	101.007293	156.993983	-182.357081	0.098763	-0.409622	-1.099751	11.449276	0.118124	0.455617	14.812842	2.445041	23.052534	-0.616893	-0.317164	-0.415077
-2.926443	-0.614883	18.08419	25.720173	199.595019	25.894021	0.438253	0.449545	-1.0558	42.625942	8.123979	-1.025703	98.05247	105.370338	-197.695671	0.123233	-0.475041	-1.038889	12.72962	0.285426	-0.477942	9.276482	-4.53508	18.795819	-0.588447	-0.286849	-0.370028
-2.276768	-0.381231	19.120759	22.584857	231.042751	27.273062	0.466537	0.396898	-1.004023	33.977293	12.359977	-6.865026	96.32727	1.912781	-138.846953	0.163567	-0.424567	-1.100126	12.531838	1.152769	-1.495952	5.620083	-10.074731	17.887917	-0.616475	-0.284779	-0.416751
-1.914436	-0.205053	20.094666	17.888075	266.82624	29.800368	0.480258	0.427594	-1.02528	24.388863	24.831302	-2.073357	106.180765	-146.484527	38.933617	0.136875	-0.457502	-1.068867	11.46312	2.025351	-1.751679	1.516613	-13.006209	16.021618	-0.644012	-0.269821	-0.402201
-1.25449	-0.313878	21.641466	23.520239	304.273189	30.178698	0.522276	0.388343	-0.977268	17.283005	36.9063	5.770653	114.465611	-255.070733	248.817179	0.13739	-0.470679	-1.096563	9.992274	2.436495	-1.477925	0.8985	-13.191949	16.024743	-0.64422	-0.286013	-0.401364
-0.727366	0.262818	22.279284	29.022314	343.865694	32.984047	0.578073	0.310591	-0.880546	24.981887	17.303344	22.333165	59.230131	-218.082828	223.016437	0.097501	-0.48944	-1.051683	10.069383	4.125509	-0.271517	3.267967	-8.42103	13.914863	-0.63108	-0.332734	-0.429838
-0.94844	0.966557	25.630945	48.457858	388.732298	33.198275	0.620034	0.340538	-0.902501	3.945306	3.250909	11.348718	113.005329	-161.287857	166.878264	0.033727	-0.500848	-1.1067	10.541262	4.705436	-0.200334	8.173287	3.306492	14.360748	-0.57461	-0.285819	-0.385485
0.962366	2.795799	23.914079	58.014219	426.392526	41.816876	0.673144	0.341883	-0.812198	11.752319	9.765492	5.68717	39.592798	-134.422898	125.486886	-0.033075	-0.538295	-1.017215	11.709805	2.666366	-1.085582	6.044987	17.417245	27.53705	-0.630383	-0.284983	-0.416822
-4.313536	3.409615	32.168115	89.076186	459.08349	12.639208	0.686936	0.286082	-0.745996	10.803747	4.419067	9.285839	15.199624	-129.12026	45.908173	-0.033445	-0.554688	-1.001862	10.977188	1.048915	0.570583	14.248672	29.160343	27.787552	-0.63073	-0.318194	-0.39962
-8.268566	0.986138	28.841637	132.078838	469.491731	-11.08272	0.770559	0.25595	-0.688371	5.75104	0.767305	9.45957	-22.723118	-107.483345	8.911949	-0.04568	-0.521978	-1.032293	10.094264	0.716217	3.846372	23.747484	35.464628	19.01101	-0.602567	-0.284575	-0.416681
-5.487367	-1.791222	24.621747	160.113763	451.605895	-32.158292	0.754581	0.238684	-0.617642	7.458943	-1.037022	11.13566	-11.2956	-84.72406	-5.711866	-0.085274	-0.539667	-1.001763	9.764552	1.594101	5.281243	32.300501	41.343357	12.624664	-0.574681	-0.284993	-0.401013
-5.420422	-5.051397	27.905471	162.83633	436.237916	-31.373484	0.809991	0.174702	-0.524336	6.793676	-5.769212	9.192632	24.918199	-33.380537	13.509605	-0.071632	-0.522128	-1.031742	10.514871	2.227721	4.459572	32.532627	46.499639	8.167234	-0.630104	-0.269617	-0.402131
4.372708	-5.522302	13.602218	159.808922	405.871738	-28.239733	0.794385	0.160964	-0.467683	3.525349	1.783928	7.715297	-2.27545	-10.654756	7.239641	-0.124051	-0.509252	-1.002943	10.551047	2.106242	3.202133	29.158749	49.213604	1.961988	-0.602359	-0.268382	-0.417518
18.530725	-8.706041	-2.957615	146.294143	301.56743	-11.31159	0.846723	0.189851	-0.384211	4.38423	-1.25758	9.938606	0.690455	-8.967494	-1.218973	-0.083873	-0.549628	-1.072508	11.947087	2.330856	2.151208	25.177977	48.083335	-2.541499	-0.630383	-0.284983	-0.416822
25.369105	-8.635638	1.381147	89.574721	144.394235	-15.238595	0.876893	0.120247	-0.367831	3.153475	1.335223	9.122446	-2.146012	-6.608019	-6.500186	-0.123536	-0.522428	-1.030639	14.339663	2.609766	0.759797	21.557985	40.477952	-5.028747	-0.616759	-0.281474	-0.478863
11.195159	-6.801604	11.228992	51.849588	54.707401	-22.32384	0.817381	0.162716	-0.323793	3.342617	0.32152	9.804894	-1.479135	-5.016427	-4.75747	-0.09825	-0.539742	-1.001487	16.191211	3.352522	-1.118795	15.429867	31.144919	-6.948518	-0.602571	-0.265903	-0.464102
18.127792	-4.897255	14.6112	57.661852	-67.102939	-30.945851	0.846423	0.099826	-0.282677	3.275081	1.109923	9.407872	1.842207	-3.747454	-4.803836	-0.111226	-0.539818	-1.001211	15.819892	2.710293	-2.146535	7.084593	20.39849	-11.940077	-0.574547	-0.249303	-0.464798
12.313383	-5.704247	12.84662	123.378328	-76.463213	-43.495833	0.819253	0.163058	-0.376681	2.613519	1.39167	8.0921	-6.620033	-5.86183	-2.673717	-0.097584	-0.522278	-1.03119	13.696681	2.599249	-2.126738	-7.8753	7.83226	-11.764822	-0.602363	-0.249711	-0.464939
10.604706	-8.496028	4.390715	123.338042	-87.775146	-35.642639	0.81811	0.187072	-0.369437	3.245142	-0.691597	10.537937	-5.495026	-9.652984	-2.186433	-0.123241	-0.521356	-1.044988	12.107356	2.25518	-1.978213	-20.737526	-4.260349	-12.210615	-0.616062	-0.233722	-0.465846
8.689343	-8.914886	0.089413	69.145251	-110.248804	-17.509347	0.848638	0.138295	-0.384624	3.915962	0.264017	9.703656	-6.325459	-11.694638	-1.066765	-0.097734	-0.552919	-1.029183	10.934	1.155425	-1.765291	-29.940008	-12.622864	-14.154317	-0.588455	-0.249507	-0.464869
8.758208	-7.119	3.678638	4.433263	-152.3347	3.492441	0.820768	0.142573	-0.398002	3.850496	0.601823	9.362894	-7.239956	-10.840274	-2.199642	-0.123756	-0.50818	-1.017293	10.866876	1.328058	-2.184998	-38.711271	-17.656905	-15.412574	-0.575244	-0.297054	-0.477815
8.483008	-4.576124	7.264319	-8.808773	-199.040051	15.590532	0.835274	0.128427	-0.394935	3.384838	1.39117	9.183968	-5.958495	-9.802335	-3.698859	-0.123316	-0.536677	-1.043985	10.368724	0.871835	-0.45958	-43.245248	-19.286602	-19.085973	-0.6025	-0.26673	-0.448574
6.889615	-4.170702	7.746509	9.222557	-250.823195	23.559896	0.822211	0.208584	-0.506781	3.098351	1.955109	9.291677	-8.059187	-7.491279	-4.8182	-0.11034	-0.536602	-1.04426	10.502183	1.339881	0.443202	-45.829299	-17.53675	-20.612866	-0.616475	-0.284779	-0.416751
5.383764	-4.977666	6.80453	19.614093	-299.5546	32.428441	0.797385	0.154591	-0.545307	3.168066	0.659779	9.744912	-7.913971	-5.802066	-4.955426	-0.136141	-0.506111	-1.045716	10.1599	0.994708	1.034185	-44.603139	-14.50436	-20.631778	-0.602709	-0.282922	-0.447737
3.541766	-5.208277	6.256255	8.752023	-333.846543	44.934067	0.783651	0.141195	-0.541542	3.62179	1.052993	9.471717	-6.272798	-5.59005	-6.061796	-0.123241	-0.521356	-1.044988	9.758602	0.649669	1.624067	-42.869812	-12.120887	-22.788459	-0.657852	-0.25218	-0.434164
2.281428	-5.72458	6.172734	-15.802985	-349.246573	60.206626	0.771373	0.17651	-0.629064	3.715246	0.37591	8.397414	4.023729	-4.81272	-6.477371	-0.110855	-0.523425	-1.016565	8.8739	0.41939	1.606572	-40.246779	-11.433498	-23.290155	-0.588384	-0.250333	-0.449341
1.725338	-5.375898	7.015843	-46.036885	-355.844391	75.882142	0.67363	0.207017	-0.686339	3.728436	0.432763	9.020497	10.015036	-4.918861	-6.751055	-0.135626	-0.519288	-1.073412	8.585712	0.770252	2.021901	-34.529493	-12.498571	-24.803071	-0.602083	-0.234345	-0.450248
1.811419	-5.197342	8.495861	-71.430093	-357.973288	84.902014	0.647618	0.228936	-0.770097	3.659883	0.488774	8.509579	9.72143	-3.640255	-5.90623	-0.123686	-0.553069	-1.028631	8.34484	0.944031	1.778613	-30.258424	-13.853271	-25.423208	-0.616688	-0.2823	-0.463335
2.008295	-4.502619	9.809718	-90.67922	-357.394567	85.702408	0.649118	0.22575	-0.808909	3.888959	1.107979	8.514936	7.813082	-2.997966	-4.668268	-0.135701	-0.534608	-1.072408	8.400825	0.827003	1.599499	-26.038197	-15.104432	-24.240805	-0.644504	-0.282708	-0.463475
1.346396	-3.864716	11.106632	-103.143553	-355.374689	78.935439	0.594137	0.224062	-0.846324	3.721183	0.432478	8.680659	5.561072	-2.666243	-3.495323	-0.097659	-0.537599	-1.030186	7.852478	0.650034	0.630343	-22.458758	-15.097559	-23.673217	-0.616408	-0.266934	-0.448644
0.964379	-3.630559	12.066305	-116.621212	-351.666017	69.408905	0.57963	0.238207	-0.849391	5.709167	0.148346	10.137515	5.660578	-2.028139	-2.409922	-0.148828	-0.565324	-1.070125	7.387512	0.885149	1.041876	-19.243488	-14.171577	-23.383708	-0.616826	-0.299319	-0.44697
-0.113268	-3.857366	12.555861	-132.077115	-345.820509	60.627288	0.508642	0.253851	-0.85106	3.973658	0.827262	9.761979	2.325737	-2.004512	-3.121412	-0.161503	-0.504117	-1.073864	6.625244	0.655589	1.266209	-16.083288	-11.51969	-24.385631	-0.602847	-0.299941	-0.431372
-1.340906	-3.389926	14.182035	-142.917005	-337.58722	52.146602	0.468481	0.310744	-0.969452	4.364635	0.769702	9.203998	3.061422	-2.397377	-2.569824	-0.149268	-0.536827	-1.043433	6.863084	0.364916	1.329282	-13.503178	-8.663318	-24.653059	-0.644575	-0.281882	-0.479003
-1.197369	-1.947456	15.725328	-161.416999	-323.740656	44.882347	0.412384	0.298471	-0.964639	3.508084	0.940595	9.525844	8.365199	-2.982788	-1.214947	-0.148897	-0.520435	-1.058787	6.626344	0.655836	1.326116	-10.545825	-5.570946	-23.945158	-0.630596	-0.282504	-0.463405
-3.418519	-7.458539	16.056708	-152.591787	-302.600346	24.319519	0.355459	0.382937	-1.036625	3.559713	0.88392	9.243808	10.317443	-4.89145	-0.954902	-0.162539	-0.537974	-1.028808	6.627444	0.656084	1.386023	-7.121334	-3.448121	-21.003622	-0.659597	-0.362222	-0.490416
-2.352247	-1.361797	18.149041	-184.605146	-278.645005	20.814092	0.356202	0.389994	-1.064777	4.201161	-0.015933	12.257037	23.560557	-8.083693	-2.887321	-0.161653	-0.534758	-1.071857	6.510357	0.249821	1.382092	-3.00272	-2.039205	-19.772385	-0.602426	-0.286227	-0.385626
-2.778696	-0.377963	19.792975	-195.010286	-252.310745	8.821428	0.326432	0.428528	-1.06025	4.132087	1.333391	9.142997	24.242096	-9.513849	6.162496	-0.11071	-0.552994	-1.028907	7.151967	0.18853	0.974601	0.961254	-0.443513	-18.908167	-0.630871	-0.316541	-0.430675
-2.892066	0.496571	22.806468	-201.338932	-234.099384	1.039206	0.229846	0.417721	-1.107278	3.382312	1.447406	9.070737	24.309019	-14.102885	4.667985	-0.111301	-0.555138	-1.000208	7.141658	0.360533	0.436181	3.847168	0.897922	-17.488772	-0.603056	-0.316133	-0.430535
-4.96549	1.427061	25.100106	-197.253456	-212.393314	-1.533542	0.227188	0.46222	-1.078714	3.573226	0.77178	9.866749	15.687555	-14.369415	5.244137	-0.136657	-0.492934	-1.01802	7.023356	0.476955	0.434474	5.728871	1.465301	-12.547702	-0.630454	-0.284157	-0.432349
-9.795408	3.666661	24.049482	-202.6337	-186.007975	7.77326	0.182897	0.532199	-1.094745	4.02628	0.883295	9.536677	12.999582	-16.971372	4.013797	-0.123391	-0.551997	-1.042981	7.249651	0.416113	-0.100533	7.426925	1.967371	-7.269289	-0.65827	-0.284565	-0.43249
-15.793233	6.029493	24.738402	-218.205739	-159.402397	31.187003	0.154999	0.571075	-1.143106	4.499862	0.375932	10.112318	10.528041	-22.107086	1.432829	-0.149638	-0.553219	-1.02808	7.188049	1.054837	-0.158821	8.344928	2.114951	2.44549	-0.630801	-0.317368	-0.415147
-22.121835	9.876603	23.210759	-208.199155	-142.441663	66.446172	0.11188	0.582442	-1.131398	3.739447	0.996542	9.587367	11.879197	-27.980694	-2.847923	-0.122951	-0.580494	-1.069673	7.062294	0.588521	-0.642255	6.770528	2.181652	13.20968	-0.644642	-0.299727	-0.44711
-24.592891	13.8855	19.940258	-201.391372	-146.578919	94.989425	0.096602	0.62413	-1.141297	4.779527	-0.413614	9.664581	9.435437	-30.938515	-5.499661	-0.123906	-0.538821	-1.015285	7.128297	-0.049214	-0.34434	6.566387	2.068845	21.097262	-0.616196	-0.269412	-0.402061
-25.730968	17.150081	17.488173	-186.745899	-192.939955	101.795993	0.111094	0.627283	-1.155722	4.725527	0.882333	9.947661	1.383165	-37.709284	-8.132148	-0.149198	-0.581716	-1.054772	7.130498	-0.048719	-0.224526	4.673797	1.156281	25.877178	-0.630316	-0.267138	-0.448714
-26.250882	15.208581	20.084076	-106.404973	-282.343107	91.07249	0.080567	0.67606	-1.140535	5.265774	3.53943	22.02017	-18.196469	-50.004613	-13.849888	-0.1635	-0.55651	-0.984755	7.923558	-0.277092	1.16665	3.014848	-0.261771	23.413875	-0.631151	-0.331908	-0.445366
-32.632867	9.060182	18.342772	60.507505	-362.195966	90.553663	0.051168	0.718122	-1.150084	4.007642	0.999965	14.065522	25.35503	-93.696019	-12.18367	-0.176401	-0.541265	-0.985483	8.929479	0.476589	1.428199	-0.634474	-0.34708	21.532262	-0.644433	-0.283534	-0.447948
-38.360432	5.279798	6.281043	162.045533	-366.910213	108.084314	-0.03094	0.727769	-1.229029	5.264865	1.391576	13.695973	7.293775	-107.813041	-13.818198	-0.16306	-0.585007	-1.011447	9.928372	0.938161	1.269163	-2.040303	2.91523	19.106923	-0.616475	-0.284779	-0.416751
-39.803714	8.905298	-5.893458	79.940552	-269.413339	115.173476	-0.072158	0.704878	-1.235225	4.266447	3.141374	15.601429	21.794303	-131.007959	-14.129482	-0.202057	-0.540343	-0.999281	11.574782	1.165448	1.00143	-2.555452	4.759157	18.091263	-0.615991	-0.234549	-0.450318
-28.42472	16.202541	-3.197658	-120.980342	-104.35316	67.97884	-0.142747	0.689452	-1.215987	3.474601	3.760751	13.603849	17.760586	-150.950195	-3.911146	-0.215404	-0.55681	-0.983652	12.644621	0.757969	1.378949	-3.291907	7.299197	20.680054	-0.616337	-0.26776	-0.433116
-20.036774	37.304298	16.831426	47.737131	144.112623	-50.827212	-0.156882	0.707126	-1.23313	4.03932	4.662966	15.881072	6.196878	-172.542914	9.02871	-0.22875	-0.573277	-0.968023	12.570874	0.464262	0.537916	-6.439892	9.718978	22.238882	-0.616759	-0.281474	-0.478863
-20.665393	18.691042	16.115609	253.331455	224.055031	-174.745505	-0.113763	0.695759	-1.244838	5.461621	3.591617	17.721652	4.503132	-202.546455	21.862504	-0.29378	-0.604294	-0.964637	12.566046	0.172646	0.237145	-14.907409	8.1457	26.526133	-0.630454	-0.284157	-0.432349
11.619443	-0.347014	-10.672089	122.32903	286.308171	-191.621133	-0.098485	0.654072	-1.23494	6.112393	2.241452	21.130979	-8.156322	-240.078142	32.146688	-0.319952	-0.590195	-0.950739	11.858278	0.464894	0.285083	-19.260427	5.19148	29.704689	-0.658061	-0.268372	-0.433327
2.19447	-1.959352	13.574867	-36.820148	332.705288	-244.175981	-0.041231	0.625031	-1.229505	6.381984	1.904556	22.947997	-13.856658	-287.022737	38.088701	-0.333663	-0.562845	-0.909422	10.243569	1.567781	-0.758349	-24.995251	0.569629	25.070382	-0.657994	-0.250527	-0.46522
-10.921269	12.519035	25.371995	71.258109	269.065816	-205.479608	-0.041217	0.607732	-1.212013	5.58171	2.35933	25.932142	-14.777247	-339.567942	43.27007	-0.385937	-0.579537	-0.892965	10.53813	2.264265	-0.689973	-39.32714	-3.652668	26.18181	-0.657994	-0.250527	-0.46522
-10.504995	11.195958	11.507894	101.846394	232.091636	-111.31603	-0.01339	0.655353	-1.251111	5.268502	1.966896	27.397186	2.260919	-395.994711	49.35253	-0.451477	-0.537167	-0.851548	12.539953	4.292335	-0.643905	-49.505737	-12.90979	21.677568	-0.630249	-0.249293	-0.480607
-14.044478	4.651399	11.695613	42.955684	188.614366	-14.354455	0.029343	0.657757	-1.266234	3.768784	3.546953	27.367082	17.911374	-449.378479	59.349103	-0.491661	-0.557	-0.792319	14.283294	3.365878	1.001538	-52.616795	-29.33387	17.732309	-0.657226	-0.203602	-0.436675
-3.295429	-1.104648	10.914316	7.645308	129.298	39.03019	0.056484	0.629124	-1.207213	3.473211	5.068226	27.13576	31.90587	-497.039465	67.829008	-0.544005	-0.528803	-0.764524	13.580987	2.729651	1.225241	-50.142825	-42.580413	10.206145	-0.657226	-0.203602	-0.436675
-8.337063	2.759928	13.730891	-4.153576	87.391239	28.816468	0.099217	0.631528	-1.222337	8.697537	10.642102	35.176383	0.606523	-519.267423	99.742514	-0.623337	-0.534613	-0.69112	12.037203	2.498633	0.656479	-49.726654	-52.302686	10.189923	-0.629127	-0.206499	-0.374424
-6.734113	-2.539165	10.614061	-1.518802	27.554966	0.636229	0.128573	0.641364	-1.265263	12.957078	6.124969	32.148079	21.931579	-544.706038	103.70095	-0.664181	-0.5117	-0.591852	11.023755	2.614855	0.099104	-46.271274	-55.061244	9.059662	-0.657506	-0.218969	-0.451366
-1.580764	2.098248	8.005987	6.103082	12.30264	7.174514	0.127058	0.66185	-1.243943	10.756694	2.128791	31.135901	23.580224	-500.623125	96.461608	-0.704585	-0.517285	-0.519276	11.31816	2.90456	0.105842	-40.163557	-55.391338	4.637818	-0.629481	-0.202368	-0.452063
-2.006207	-1.39884	9.517392	9.353438	12.562954	7.230722	0.098846	0.628	-1.208261	3.297372	0.392642	26.561801	39.961605	-496.350678	53.413024	-0.758625	-0.480199	-0.406387	11.616407	2.962703	0.291312	-30.346249	-52.933602	-1.980564	-0.643244	-0.222896	-0.373657
-1.393365	0.492897	8.741661	5.219159	9.869395	4.561497	0.14195	0.633933	-1.23746	-16.055368	2.996172	-1.07377	113.869386	-359.172449	25.883304	-0.784727	-0.510989	-0.403828	12.333695	3.311764	0.845163	-18.640111	-46.259143	-7.647615	-0.656805	-0.189889	-0.390929
-0.895239	-1.049912	10.733911	1.881027	6.743036	2.43492	0.141207	0.626876	-1.209308	-15.799388	-10.739465	9.676183	147.136865	-148.584617	-25.115941	-0.826016	-0.51979	-0.288203	13.180829	3.314571	1.9988	-9.382071	-31.080799	-5.492062	-0.643523	-0.238262	-0.388348
-1.715155	-0.306452	9.81181	11.359718	5.285603	-0.682829	0.12783	0.634308	-1.237111	-4.321209	-4.281528	11.564758	106.079462	-96.727283	-72.289361	-0.800505	-0.491142	-0.262062	13.261679	2.447745	3.074516	2.655606	-14.471184	-4.606399	-0.670575	-0.173074	-0.407364
-1.087791	-0.020183	9.711559	3.911566	3.563527	1.76405	0.140793	0.675246	-1.247708	-11.881765	-2.296457	10.671736	60.656257	-3.718429	-64.096216	-0.801245	-0.523927	-0.231355	12.55306	2.158738	3.000168	15.024562	-0.171199	-1.93829	-0.670922	-0.206285	-0.390162
-2.005425	-0.939066	9.576176	-4.130023	2.02645	1.210199	0.155699	0.63003	-1.223733	-8.933058	-2.468087	14.017136	72.439151	-7.991193	-72.451662	-0.78805	-0.538101	-0.244977	11.799845	1.350149	3.641377	27.204928	10.842573	-0.904146	-0.629336	-0.222692	-0.373587
-0.978518	-0.481004	9.42759	-12.017501	2.839029	4.926191	0.155685	0.647329	-1.241225	-9.102779	-1.737661	11.523192	108.271634	19.011146	-81.093133	-0.801396	-0.554568	-0.229348	10.498458	1.236226	3.436952	38.261647	17.653414	-1.985248	-0.671063	-0.204633	-0.421218
-1.599782	0.038356	9.872338	-15.046619	2.027022	7.528389	0.128944	0.644893	-1.279339	-10.1704	-4.499724	7.082428	112.992	57.515659	-81.600304	-0.77648	-0.588274	-0.184843	10.610138	0.653465	3.017332	46.540231	20.855021	-4.047603	-0.643106	-0.205877	-0.390022
-2.338102	-2.085477	10.076346	-12.881022	1.660964	5.461536	0.168677	0.653669	-1.216838	-9.844719	-5.571504	6.069267	90.478248	110.381323	-83.188535	-0.762694	-0.600304	-0.227164	9.826421	0.651512	2.104423	53.167384	21.785619	-5.970861	-0.670922	-0.206285	-0.390162
-1.373938	-0.1923	9.705267	-14.595155	4.62486	9.01063	0.141565	0.647704	-1.240876	-9.036925	-5.291265	6.199708	65.467295	146.976683	-82.197268	-0.788501	-0.630023	-0.238955	9.395722	1.113357	1.200094	56.888666	21.725544	-7.756598	-0.657081	-0.223926	-0.358199
-2.32198	-1.277677	10.932521	-10.083941	5.944254	8.344429	0.155299	0.661101	-1.244641	-7.821791	-5.405953	6.508199	46.70346	172.510694	-79.030067	-0.7756	-0.645269	-0.238227	9.024153	1.052135	0.234734	57.523844	21.875783	-10.235029	-0.642897	-0.189685	-0.390859
-2.326925	-2.140506	10.644636	2.516593	5.986802	1.623444	0.140464	0.61982	-1.181156	-7.422999	-5.125197	6.346979	33.550786	202.244439	-75.569899	-0.735862	-0.657148	-0.2811	9.077376	0.70206	-0.12509	55.115323	21.93494	-10.868358	-0.643385	-0.221243	-0.404712
-1.478467	-0.132604	10.21496	2.906217	7.646742	4.470698	0.167934	0.646613	-1.188686	-6.486106	-4.562952	7.159751	18.880823	234.186294	-71.719006	-0.70947	-0.685495	-0.308344	8.416634	0.468522	-0.79716	50.7101	22.127245	-10.27268	-0.629407	-0.221865	-0.389114
-1.708267	-0.592212	10.151722	9.672908	7.633938	2.948317	0.183569	0.625753	-1.210356	-5.448481	-4.057822	7.295217	6.258481	266.912031	-67.673626	-0.72222	-0.639609	-0.311079	8.05881	0.177963	-1.044626	45.035791	22.541454	-10.865318	-0.671969	-0.268576	-0.433397
-2.278584	-0.591315	10.254293	14.594748	8.224248	-1.012398	0.141179	0.661475	-1.244292	-4.118695	-5.18677	7.491992	-5.693723	296.374892	-65.170489	-0.694578	-0.708558	-0.40706	7.414305	0.064285	-0.817598	40.293323	23.194913	-10.606782	-0.656876	-0.189062	-0.406457
-1.432923	-0.882039	9.587552	24.156097	9.113224	-2.313541	0.153827	0.629688	-1.170845	-2.615472	-4.17529	7.920755	-18.822138	318.412679	-62.803848	-0.681307	-0.707411	-0.421686	7.186483	-0.165748	-0.403641	33.726757	22.701982	-9.572161	-0.615916	-0.254046	-0.38737
-2.055176	-0.535246	9.974723	27.406001	10.657139	-4.321927	0.185084	0.605267	-1.231676	-2.201419	-4.288279	8.438879	-33.354396	334.785351	-58.275375	-0.653879	-0.701902	-0.493986	7.41529	0.587464	-0.695559	27.67339	20.834865	-8.593952	-0.657506	-0.218969	-0.451366
-1.548095	0.037108	9.589186	28.054713	11.646648	-4.583731	0.183941	0.629281	-1.224432	-1.618512	-4.289072	8.790805	-46.99588	345.995001	-53.489321	-0.639797	-0.712859	-0.550657	7.125577	0.647451	-0.40128	21.833272	18.32168	-7.18557	-0.629895	-0.253424	-0.402968
-1.148427	0.036577	9.540127	27.833172	10.946146	-5.238524	0.184684	0.636338	-1.252584	-0.736551	-3.839286	9.715552	-59.169785	353.613123	-48.861119	-0.586568	-0.737841	-0.621501	7.073028	0.707146	-0.042692	16.92344	15.98848	-5.109046	-0.643732	-0.254454	-0.38751
-1.481891	-0.018445	10.044883	27.220374	10.379705	-4.325902	0.183183	0.639524	-1.213772	-0.20836	-4.065199	10.179359	-69.539086	357.428314	-44.084359	-0.520137	-0.716786	-0.695632	7.25913	0.127711	0.377486	12.909444	13.469301	-2.484723	-0.629895	-0.253424	-0.402968
-1.716517	0.037956	9.756405	26.879639	9.481032	-3.81816	0.198447	0.615135	-1.221365	1.022188	-3.390595	11.281468	-79.246926	357.369583	-39.838832	-0.50598	-0.712423	-0.753307	7.550234	0.416674	0.204503	9.477549	10.959519	-0.565442	-0.657502	-0.23764	-0.403946
-1.380744	-0.021423	9.364873	24.974254	8.955996	-4.373244	0.170563	0.636712	-1.252235	2.077707	-3.391776	12.209462	-88.18786	351.972103	-36.508973	-0.440145	-0.753722	-0.809074	7.31444	0.301062	0.199607	6.503567	8.460265	0.496392	-0.670784	-0.189267	-0.406527
-1.429997	-0.3069	9.760524	26.132	8.448744	-5.243549	0.199576	0.608421	-1.246101	3.76295	-2.830933	13.037949	-97.110858	338.313105	-33.199735	-0.360738	-0.732592	-0.883481	7.903366	0.357541	0.150952	4.300976	6.583828	0.757828	-0.615849	-0.236201	-0.419263
-1.764574	-0.362163	10.208427	33.879556	8.562051	-6.644119	0.214811	0.618631	-1.288678	5.16939	-1.931188	14.313793	-109.712227	315.105661	-27.769051	-0.319963	-0.710615	-0.97141	7.910664	0.5335	0.571042	3.084395	4.774349	0.801433	-0.61564	-0.220009	-0.4201
-1.828882	0.153405	9.868367	36.938799	8.152386	-7.211631	0.185455	0.608796	-1.245752	7.329771	-1.426968	15.831579	-117.709193	279.887359	-21.43692	-0.265918	-0.687491	-1.073965	7.796453	-0.162648	0.685688	1.62239	2.992701	1.029172	-0.671343	-0.219999	-0.435908
-1.877928	-0.419281	10.262812	39.282395	9.591267	-5.753544	0.183941	0.629281	-1.224432	8.634785	-1.371491	17.67069	-133.286434	243.757048	-17.89425	-0.135713	-0.655028	-1.093079	7.978733	-0.045665	0.989018	2.03866	1.533189	0.33168	-0.629757	-0.236405	-0.419333
-1.711898	-0.190845	9.982852	39.386954	13.816846	-1.606241	0.256072	0.589623	-1.230006	10.048347	-1.034814	19.229257	-150.694099	226.121717	-19.008656	-0.082923	-0.651512	-1.137231	8.52598	0.131056	1.898267	2.805053	-0.008019	1.742164	-0.643665	-0.236609	-0.419403
-2.143701	-1.046588	11.277945	26.458397	20.707982	3.357823	0.186198	0.615852	-1.273904	12.383111	0.483174	20.921443	-157.875601	208.443874	-17.494951	0.008354	-0.619274	-1.155518	8.578819	0.420065	1.601069	6.097179	-0.572624	1.274487	-0.671339	-0.23867	-0.388488
-2.34124	-0.822246	9.967949	21.673348	41.59941	7.421859	0.213325	0.604518	-1.232375	16.8888	3.458754	19.320272	-163.4194	189.277733	-5.575051	0.125728	-0.616455	-1.186699	8.284568	0.53714	1.655969	8.494716	0.323021	4.226194	-0.629966	-0.252598	-0.418496
-2.025277	-0.298966	11.510722	8.478272	50.710829	11.533213	0.185455	0.608796	-1.245752	21.351299	5.871659	18.340454	-167.171857	182.653457	11.989771	0.215014	-0.5764	-1.105542	8.123601	0.250626	2.490128	10.521748	2.591174	16.31192	-0.62997	-0.233927	-0.465916
-1.154011	0.967022	12.21497	8.539379	69.038479	13.118907	0.228974	0.566359	-1.236552	28.702874	6.812528	15.098833	-175.167767	200.864901	17.004794	0.291984	-0.579165	-1.064147	8.127848	-0.155165	2.668118	13.503215	5.765996	26.831979	-0.657506	-0.218969	-0.451366
-2.606927	1.792587	16.963944	-0.338036	77.989253	16.816453	0.228989	0.549059	-1.21906	36.0679	8.936956	12.594523	-176.581638	250.723648	-1.212835	0.355909	-0.537116	-1.011138	8.493469	-0.850662	3.210916	17.230148	7.995088	28.489169	-0.64311	-0.187206	-0.437442
-2.031441	1.435661	14.188943	36.681563	99.676085	13.47462	0.242723	0.562456	-1.222826	38.025381	10.451974	10.089333	-159.990289	305.239714	-34.535387	0.38068	-0.541254	-0.95429	9.902444	-0.50693	2.879368	21.514907	8.258153	22.26687	-0.643318	-0.203398	-0.436605
-2.132914	0.347008	14.807515	9.563412	112.888472	15.822055	0.27135	0.547936	-1.220108	39.797797	9.828475	9.503252	-115.753201	343.147084	-78.81786	0.430737	-0.562705	-0.868291	10.651507	-0.280337	1.936153	22.905302	5.705066	15.243504	-0.630316	-0.267138	-0.448714
-1.982815	0.412087	16.629282	26.81083	133.064262	20.884104	0.31334	0.543284	-1.20708	39.326563	8.476883	8.869407	-52.871848	331.552648	-126.225039	0.482201	-0.533908	-0.842702	12.583633	-0.288254	1.133771	19.033226	1.405536	12.618782	-0.630107	-0.250945	-0.449551
-2.099924	0.928661	16.515521	33.060193	154.302134	25.167043	0.299949	0.568014	-1.252374	38.991259	5.489818	6.368707	-16.173975	265.118101	-160.326837	0.507782	-0.55015	-0.8279	13.906081	0.049433	-0.69655	11.953073	-4.672617	12.306645	-0.671898	-0.269403	-0.417869
-1.848263	0.416347	17.654865	34.275895	175.695052	27.105881	0.35533	0.538632	-1.194051	34.824234	10.893008	-7.754359	178.216959	70.760448	-143.304976	0.494436	-0.566618	-0.812271	13.090704	-0.352984	-0.174524	8.582773	-13.025188	11.41118	-0.656951	-0.169565	-0.469405
-1.934893	0.365019	19.073724	29.097442	203.662687	28.771438	0.382457	0.527298	-1.152522	32.473944	17.050133	6.694939	123.636389	-3.62333	-106.549275	0.505936	-0.571902	-0.740798	11.721673	0.402885	-0.735782	7.196999	-19.966685	4.90845	-0.629273	-0.186175	-0.4529
-1.584354	-0.093314	19.419593	21.039901	237.680862	28.887951	0.383614	0.485984	-1.142275	22.827839	14.076376	-0.700274	214.221589	-130.934288	24.931625	0.493625	-0.554513	-0.770225	10.698206	1.039813	-1.770188	-0.993257	-21.445983	9.101959	-0.615361	-0.204643	-0.405409
-1.271234	-0.260056	20.78891	13.704871	274.459496	29.139351	0.424461	0.505346	-1.122002	1.803937	23.969073	-6.228374	209.503591	-244.434339	239.376332	0.481014	-0.598405	-0.795638	10.123471	1.50948	-0.880611	-2.221603	-20.090552	13.654221	-0.657364	-0.220621	-0.42031
-1.393631	-0.76629	23.284934	15.5264	313.018022	32.704963	0.480944	0.503848	-1.123399	23.449813	13.143085	28.355035	5.227635	-291.913122	278.806653	0.428734	-0.675308	-0.789517	10.2995	3.36825	-0.689677	2.097664	-15.454333	7.472789	-0.656809	-0.171217	-0.43835
0.354108	-0.818461	24.853131	27.673863	354.966288	30.654264	0.522205	0.47484	-1.064727	13.792752	13.999662	20.793128	132.998785	-193.665219	195.623228	0.363704	-0.706324	-0.786131	11.193181	4.472141	-0.069404	8.132664	-6.251237	3.922679	-0.657297	-0.202776	-0.452203
0.617561	-0.696265	26.620513	59.417706	400.287758	28.080871	0.592465	0.43484	-1.017413	13.269611	11.394839	4.135277	96.612825	-126.23954	96.906777	0.336867	-0.709689	-0.74253	13.263148	4.468404	0.208739	6.292618	9.164344	0.371544	-0.656529	-0.155851	-0.423659
1.19213	1.761685	23.91419	67.231894	440.304244	41.802149	0.675316	0.43225	-0.96662	12.607981	5.878837	7.683209	-7.949207	-116.103976	13.986581	0.246324	-0.769353	-0.765285	13.668747	2.490155	-0.45094	3.175053	25.543865	9.810112	-0.656809	-0.171217	-0.43835
-4.211845	1.108735	31.4216	106.744102	473.792487	18.654164	0.674987	0.376824	-0.900069	-1.167211	1.793856	8.918878	-43.203047	-114.282763	-14.015593	0.298084	-0.739484	-0.754046	11.408873	1.110249	1.596951	16.707759	32.869254	4.255082	-0.64283	-0.17184	-0.422752
-7.583398	1.145137	25.843622	142.546624	469.904286	-5.309636	0.759011	0.315622	-0.821537	1.031675	0.496875	12.077695	-39.119755	-125.571639	17.042818	0.285773	-0.722094	-0.783473	10.098686	1.182062	4.147884	25.0379	38.639147	2.394125	-0.671205	-0.20298	-0.452273
-7.05619	-2.114887	29.249961	140.477801	457.172245	-27.808802	0.784622	0.324773	-0.758688	5.320476	-0.357352	10.751661	-11.985918	-84.214529	8.905206	0.2593	-0.769278	-0.765561	8.929813	1.942717	4.847972	30.631876	45.036243	1.09025	-0.615085	-0.170605	-0.438139
-0.914469	-3.806922	24.247555	147.723117	433.844267	-32.105079	0.825884	0.295765	-0.700015	4.673983	0.262995	10.172489	-1.598411	-62.49206	0.250898	0.220448	-0.754182	-0.765737	8.466156	0.667361	5.133264	31.321479	48.526848	-1.893491	-0.615432	-0.203816	-0.420937
5.889991	-4.130691	3.464952	169.893836	352.734874	-17.601086	0.866759	0.280528	-0.644759	4.198607	-0.187403	9.426124	2.308323	-42.409329	-5.157014	0.259005	-0.770349	-0.751211	8.514479	1.478313	4.65857	29.11246	49.142996	-11.943061	-0.656809	-0.171217	-0.43835
28.230355	-5.330791	-4.345971	132.342879	204.815575	7.242306	0.850395	0.277032	-0.577446	6.888761	-0.589783	6.028804	-6.084058	-19.677516	-3.766317	0.182035	-0.767584	-0.792606	10.961845	2.627734	3.152154	26.400911	44.712491	-16.404341	-0.629414	-0.184523	-0.483955
11.913746	-2.658832	13.022174	66.212837	101.277219	-20.779871	0.880165	0.238498	-0.581973	3.314167	0.658412	8.502468	-1.285183	-9.041636	-3.101805	0.220818	-0.73779	-0.781091	13.803826	2.261289	0.448875	20.466292	37.137021	-13.688062	-0.643602	-0.200093	-0.498716
18.917997	-4.867739	8.204858	77.646098	24.777252	-28.252415	0.920641	0.254332	-0.547624	3.522351	0.434142	10.148453	-4.974443	-7.734519	-3.831646	0.206806	-0.771722	-0.735759	15.933812	3.057738	-2.322571	16.076822	28.098361	-13.87352	-0.643531	-0.20092	-0.483189
14.535699	-3.352691	12.445115	100.938048	-34.070843	-47.006176	0.891628	0.282623	-0.553758	2.261525	0.662072	10.405245	10.002007	-8.211218	-5.026621	0.182035	-0.767584	-0.792606	15.452029	2.475585	-2.932916	5.295083	13.773549	-13.827249	-0.643881	-0.21546	-0.513407
12.256404	-6.360995	6.98921	130.229498	-55.596204	-48.053976	0.90612	0.285777	-0.568183	3.616631	1.221795	9.245301	3.157682	-7.165797	-4.682627	0.233204	-0.739859	-0.752667	11.792042	1.960778	-3.123182	-10.236796	-1.36968	-13.056992	-0.643397	-0.16523	-0.546974
10.237749	-6.892241	3.253729	111.639337	-76.737265	-37.69949	0.850795	0.245962	-0.556539	3.450626	0.884372	9.524588	-4.045488	-5.317708	-5.87233	0.234159	-0.781532	-0.807055	10.318934	0.976861	-3.154896	-22.821481	-10.13523	-12.694549	-0.643881	-0.21546	-0.513407
9.314257	-7.41024	2.83577	59.223598	-110.433473	-16.134249	0.866016	0.273472	-0.616607	4.010326	0.375656	8.743296	-6.416231	-4.53219	-3.985932	0.182261	-0.721623	-0.795617	10.510443	1.38645	-2.311168	-33.930837	-15.994772	-11.831793	-0.60174	-0.182462	-0.514871
8.403613	-6.304395	6.062052	27.984046	-149.763661	3.374403	0.851496	0.304917	-0.637166	3.169467	-0.072518	9.744296	-9.4651	-3.747047	-3.364021	0.220668	-0.768431	-0.779084	9.811978	0.51866	-1.908733	-41.556916	-19.0151	-15.181872	-0.61544	-0.166474	-0.515778
7.956671	-6.24421	6.621916	25.44864	-192.181924	18.884418	0.838875	0.302105	-0.675629	3.047106	0.547096	9.459202	-8.57573	-4.342754	-4.324892	0.208062	-0.752114	-0.794161	9.486918	0.816526	-0.296613	-47.819865	-18.407291	-16.965067	-0.615924	-0.216704	-0.482211
6.238914	-6.070642	6.589235	28.924895	-233.624327	34.269	0.769759	0.318091	-0.730186	4.032779	1.277893	9.876847	-10.295349	-3.679996	-5.861074	0.207842	-0.737865	-0.780815	9.394331	0.764406	1.078797	-47.226325	-15.750175	-19.363455	-0.602296	-0.231866	-0.496832
4.61018	-6.07503	5.250436	15.507054	-268.346933	51.925398	0.799129	0.310628	-0.755621	4.086217	-0.356085	9.536843	-8.768902	-5.044381	-5.256858	0.208062	-0.752114	-0.794161	10.054358	0.358614	1.628333	-46.360609	-12.92341	-17.363227	-0.643948	-0.233304	-0.481514
4.092005	-6.707238	5.067201	-13.925362	-291.433776	70.42798	0.729255	0.336857	-0.799519	3.395024	0.490214	9.579687	-7.881564	-5.851131	-6.774724	0.208358	-0.751042	-0.808511	9.239716	1.060383	2.334777	-42.726596	-12.220388	-19.029898	-0.615786	-0.199685	-0.498576
3.20546	-5.953321	6.587556	-43.982757	-305.094292	87.673275	0.715091	0.389129	-0.851645	3.460058	0.37773	9.920638	-3.588661	-5.918908	-6.833599	0.207472	-0.754257	-0.765462	8.593125	0.423279	2.379859	-37.681951	-12.274107	-20.973065	-0.643665	-0.236609	-0.419403
2.426576	-4.971168	7.769984	-65.848399	-313.827816	99.8241	0.66161	0.384255	-0.927872	4.1538	0.094879	10.048187	1.906967	-6.153984	-7.108964	0.233719	-0.753035	-0.780363	8.067502	0.890586	2.731374	-32.143645	-13.568448	-21.078619	-0.629694	-0.199889	-0.498646
2.041094	-4.56541	8.559822	-83.680959	-320.408993	105.653235	0.661967	0.405083	-0.95944	3.268451	0.151972	9.010588	6.084223	-7.916625	-6.105815	0.220743	-0.75311	-0.780087	7.870355	0.537838	1.588359	-25.249258	-14.608478	-21.648661	-0.601736	-0.201133	-0.46745
2.977617	-3.584983	9.661949	-102.448406	-325.045146	105.141612	0.607743	0.393152	-1.007515	3.392044	0.152089	9.409483	6.601071	-8.526108	-5.679871	0.220743	-0.75311	-0.780087	7.68906	0.944033	1.407067	-20.771263	-14.54478	-20.351199	-0.629411	-0.203194	-0.436535
2.149688	-3.175515	11.238822	-116.261167	-327.837665	98.791644	0.508856	0.447672	-1.057546	3.00042	0.547631	9.967749	8.886506	-8.500523	-5.153706	0.182035	-0.767584	-0.792606	7.499616	0.593015	0.6834	-17.062227	-14.114607	-19.266594	-0.587895	-0.218774	-0.435487
1.468777	-2.426831	11.569716	-129.329909	-327.988851	90.520468	0.46648	0.466095	-1.07399	3.504865	0.095448	9.298575	11.83671	-9.631846	-4.607681	0.221484	-0.720326	-0.810794	7.260656	0.418586	0.498536	-15.164234	-12.277979	-18.762742	-0.615991	-0.234549	-0.450318
0.996043	-1.210776	13.782033	-138.738261	-327.721687	76.727547	0.425233	0.477804	-1.11517	3.377477	1.447216	8.844178	12.70794	-9.130204	-4.601992	0.207912	-0.782754	-0.792154	7.317066	0.592184	0.380564	-13.416688	-9.95217	-18.291236	-0.629064	-0.169983	-0.453737
0.371681	0.514373	14.118142	-121.194159	-325.047557	57.131549	0.382486	0.492699	-1.117538	3.480003	2.347862	8.337598	3.28589	-9.763516	-10.473119	0.194641	-0.783901	-0.777528	6.908355	0.594118	0.612489	-10.867599	-7.933738	-17.393343	-0.629414	-0.184523	-0.483955
1.978336	25.497287	27.04154	-50.245087	-312.606491	-25.543543	0.312612	0.518928	-1.161436	4.376561	-3.567605	9.370265	31.264174	-11.796436	-1.623264	0.207692	-0.768506	-0.778808	7.026252	0.651924	0.614937	-7.801451	-5.961965	-17.719442	-0.615227	-0.168953	-0.469195
-8.868225	-19.009219	0.330485	-13.526745	-324.23087	-0.504231	0.283956	0.568047	-1.199137	6.93715	-4.690857	18.707777	-49.533593	14.910294	15.039718	0.207842	-0.737865	-0.780815	7.27112	0.653362	1.098594	-3.703699	-3.671783	-15.942243	-0.587478	-0.186389	-0.437161
-2.142794	-4.480976	14.105008	-202.868981	-276.839572	0.717711	0.185127	0.553369	-1.179201	4.340027	0.994076	8.071396	65.511634	-9.006533	4.011935	0.221038	-0.752039	-0.794437	7.39753	0.364443	1.518907	0.292351	-1.767898	-15.293499	-0.62997	-0.233927	-0.465916
-1.520021	0.265328	22.71852	-240.464574	-228.435093	-15.22572	0.156843	0.606016	-1.230978	3.776767	-0.185024	11.22892	1.54255	-2.127772	4.861222	0.259665	-0.813095	-0.79125	7.393689	0.596005	1.340175	4.653718	-0.102017	-15.164446	-0.615156	-0.169779	-0.453667
-3.535093	2.127668	28.029233	-198.875245	-210.069284	-11.795976	0.099217	0.631528	-1.222337	3.377261	1.559877	8.844273	14.401246	-8.995367	1.535483	0.208207	-0.781683	-0.806504	7.91385	1.057173	0.812895	10.712265	0.977741	-13.969165	-0.615782	-0.218356	-0.451155
-5.770325	2.243685	27.872584	-131.334777	-179.742905	-24.532969	0.001116	0.641207	-1.248044	3.397812	1.560684	9.807146	15.017807	-9.080131	1.627621	0.194571	-0.739012	-0.76619	7.909178	1.172336	0.573761	15.374644	2.507169	-9.409343	-0.602083	-0.234345	-0.450248
-10.241262	2.852878	21.707332	-131.233102	-153.842055	-24.787331	-0.071373	0.660037	-1.210902	3.688703	1.222256	9.926185	17.312318	-10.541857	4.54362	0.208132	-0.797003	-0.8055	7.903676	1.1711	0.274227	17.793239	4.077087	-3.618949	-0.629344	-0.185349	-0.468428
-15.670365	4.972219	19.280616	-169.520364	-136.852472	-14.494312	-0.170588	0.659131	-1.194381	3.857103	0.940091	9.703017	16.799001	-21.541563	6.869287	0.180484	-0.788264	-0.719854	8.072421	0.006702	-0.326485	18.342991	4.592628	5.88174	-0.643807	-0.234957	-0.450459
-23.350424	6.757013	18.79777	-202.268578	-127.492555	6.361243	-0.214464	0.68074	-1.172014	3.921575	0.489576	9.987044	11.422971	-26.001272	12.523929	0.169354	-0.766587	-0.80668	7.426814	-0.107223	-0.159364	18.818562	4.759148	13.612234	-0.64374	-0.217112	-0.482352
-28.650087	8.247551	17.109717	-211.825316	-157.794076	35.702063	-0.272818	0.681896	-1.117729	3.860059	0.658533	9.816059	12.562539	-33.846955	9.240652	0.168839	-0.753411	-0.778984	7.901529	-0.746892	-0.093373	16.480806	3.966964	21.38854	-0.61592	-0.235375	-0.434791
-29.462582	9.509673	16.587759	-179.954944	-236.648051	66.153909	-0.317095	0.734576	-1.116268	3.963856	0.26353	9.251749	13.094866	-38.563606	4.60074	0.168689	-0.784051	-0.776977	8.387404	-0.97731	0.633324	12.331981	3.770357	24.186234	-0.629131	-0.187828	-0.421844
-30.085203	8.822278	16.913734	-78.603014	-331.653196	89.732804	-0.344936	0.704254	-1.094662	4.312205	-0.018675	9.372044	5.549547	-41.751344	3.730613	0.181445	-0.769728	-0.763907	9.048977	-0.627372	1.365795	10.391601	0.495727	23.689225	-0.629765	-0.199063	-0.514174
-33.579058	5.135238	13.70456	30.328505	-375.443603	111.696286	-0.404047	0.715653	-1.029718	4.73786	0.997853	13.231644	-18.783806	-53.198514	4.460435	0.195306	-0.766437	-0.807232	10.227004	0.35722	1.392007	9.020654	-3.366444	21.05318	-0.601736	-0.201133	-0.46745
-36.072476	3.726495	6.148508	69.651759	-331.575025	137.944409	-0.44638	0.682178	-0.993686	4.44234	4.725647	23.985418	4.557198	-86.496723	-4.082856	0.180999	-0.801441	-0.74755	10.566525	0.469348	0.620314	5.164541	-5.584479	18.296075	-0.601803	-0.218978	-0.435557
-34.135958	49.105915	33.826541	-175.943823	-110.857348	133.528989	-0.417382	0.671186	-1.005045	5.287111	0.263387	11.940406	10.55103	-129.709763	0.178406	0.168469	-0.769803	-0.763631	11.080894	0.580576	-0.26789	1.815894	-5.654177	15.007307	-0.602016	-0.2165	-0.482141
-26.35003	20.517551	12.318758	-63.073151	-22.763185	56.936221	-0.489485	0.676245	-0.964487	4.303922	3.142844	17.357257	-2.041067	-141.010673	0.425931	0.11649	-0.785423	-0.761524	12.789797	1.680105	-0.23128	-0.474666	-5.490212	13.150275	-0.601945	-0.217326	-0.466613
-19.771619	26.441367	15.313205	103.282083	126.343402	-59.467305	-0.476493	0.682585	-0.9401	4.76474	2.745284	14.649104	8.064381	-168.760439	11.564914	0.10499	-0.780139	-0.832997	12.905473	1.272561	-0.410531	-6.058597	-4.569386	16.834091	-0.587411	-0.168544	-0.469054
-11.003166	25.148069	10.022591	183.593993	247.528041	-223.350573	-0.461272	0.710095	-1.000169	5.345473	2.859441	17.605339	-12.950227	-195.136374	23.71017	0.065327	-0.752939	-0.791128	12.795799	0.519326	-0.056504	-11.331258	-1.945196	18.582995	-0.601528	-0.184941	-0.468287
-3.708953	-6.512249	-4.574394	-11.219377	301.402235	-269.700629	-0.445223	0.640865	-0.983439	5.386012	2.523023	19.474161	-19.015095	-229.307443	30.857556	0.053237	-0.749798	-0.833902	12.68549	0.986182	0.422528	-16.231699	-1.997198	18.967804	-0.629135	-0.169157	-0.469265
-1.389763	1.590019	23.579093	-61.244922	282.292825	-261.850789	-0.415867	0.650701	-1.026365	5.996053	2.241621	21.071922	-21.498718	-268.794542	34.964671	0.000742	-0.752242	-0.804099	11.80629	0.757139	0.704567	-26.53746	-4.377902	20.850565	-0.629414	-0.184523	-0.483955
-10.989808	11.814779	21.844207	86.22874	194.144205	-227.010173	-0.41621	0.612574	-0.977306	5.773912	1.399715	24.067065	-16.798687	-314.338272	38.277644	-0.025204	-0.692182	-0.793212	12.210795	2.090707	0.418422	-34.28496	-10.355705	16.536021	-0.574129	-0.216918	-0.466473
-13.832826	9.288516	8.082129	75.675715	179.117695	-122.291735	-0.41471	0.609388	-1.016118	4.778081	1.797581	25.971383	-2.00499	-365.184809	43.211122	-0.076963	-0.722052	-0.804452	13.909949	3.59479	-0.022493	-40.863396	-20.891017	12.697636	-0.587199	-0.171023	-0.422471
-14.334536	5.902251	8.626401	22.076905	159.909652	-2.462742	-0.387226	0.618881	-1.006156	4.065958	3.715785	27.826386	22.843826	-419.256962	50.957364	-0.116036	-0.692708	-0.791282	14.03715	2.492559	0.334452	-40.817629	-32.729211	10.033639	-0.615223	-0.187624	-0.421774
-1.641903	0.673632	10.669822	-30.308399	130.699372	65.160459	-0.373091	0.601207	-0.989013	3.997105	4.560471	27.372772	38.845237	-466.97326	59.006463	-0.245569	-0.647497	-0.791536	12.450566	1.91668	0.601802	-39.416117	-40.273431	6.67187	-0.586923	-0.136986	-0.4552
-9.124837	-0.913338	14.268389	-30.708034	101.282657	50.121236	-0.385311	0.567325	-1.006569	4.115178	6.813761	27.716924	36.793017	-505.62872	74.006767	-0.311404	-0.606198	-0.735769	10.854679	2.500839	0.514656	-40.689137	-45.978867	2.027436	-0.628647	-0.137598	-0.455411
-4.389607	-3.116003	10.486742	6.545607	35.075751	12.817933	-0.359399	0.666502	-1.045254	11.246393	6.466849	32.905051	8.733243	-533.075903	105.840706	-0.403342	-0.595691	-0.677444	10.489328	3.080184	-0.028636	-40.603782	-48.358381	-1.44569	-0.628434	-0.140077	-0.408828
-3.730361	-0.077648	9.205272	30.376583	2.366557	-14.647562	-0.331115	0.613855	-0.993477	9.44549	4.044788	29.18517	31.791464	-512.928006	98.782103	-0.469327	-0.585033	-0.61967	11.317755	3.078788	0.106584	-34.991171	-48.003623	-7.213335	-0.600134	-0.089439	-0.442254
-1.199	0.038066	9.880132	-4.169114	2.650457	5.789878	-0.344507	0.638585	-1.038771	11.528646	0.386671	37.491364	38.541138	-516.253934	74.920306	-0.522036	-0.513018	-0.566186	11.858264	3.312102	0.656639	-28.732146	-47.768544	-13.013042	-0.60013	-0.10811	-0.394834
-1.716559	0.095398	9.756646	0.950014	6.432954	7.707284	-0.345622	0.628	-0.996543	-8.486798	1.584227	11.029531	100.126937	-482.21095	39.820211	-0.601217	-0.488187	-0.49479	11.811508	3.721736	1.376151	-18.682033	-43.789365	-18.813522	-0.600685	-0.157514	-0.376795
-1.825868	-0.937502	9.977488	-5.11343	0.214051	3.422302	-0.314337	0.568981	-1.022391	-25.438133	-9.830567	-2.414427	194.583371	-266.010272	43.552146	-0.653862	-0.521272	-0.46298	11.882359	3.840473	2.036722	-9.833945	-33.378782	-17.061742	-0.628434	-0.140077	-0.408828
-1.552631	0.151026	9.362256	-2.114127	-0.573388	3.615543	-0.316223	0.585938	-0.986994	-8.772688	-8.273739	10.222233	128.570612	-104.305274	-61.404045	-0.680919	-0.510389	-0.406034	11.951239	2.912852	2.453215	1.374827	-16.99658	-15.194186	-0.614731	-0.174736	-0.3605
-1.772824	0.268005	9.81311	-6.171122	0.666333	6.468732	-0.28691	0.647672	-1.082396	-12.274288	-4.832723	8.226845	97.239197	-35.517666	-58.834523	-0.655633	-0.527703	-0.376882	10.609814	2.687115	3.265613	14.53067	-0.613347	-12.600215	-0.628221	-0.142556	-0.362244
-1.135723	-0.592626	10.162857	-1.747181	3.630082	4.418813	-0.288382	0.616259	-1.0086	-7.910767	-6.974986	15.676442	13.130718	-0.969472	-65.648329	-0.668534	-0.512458	-0.37761	9.892776	1.757046	2.649383	25.768976	11.581514	-10.74326	-0.614735	-0.156065	-0.40792
-1.743573	0.491698	8.393861	2.946406	8.30288	-1.866966	-0.317395	0.644551	-1.014734	-8.28245	-4.217334	11.991147	54.554476	1.395361	-98.479668	-0.682471	-0.531069	-0.333281	9.660688	1.467948	2.823465	35.438603	20.097351	-8.557429	-0.614109	-0.107488	-0.410432
-1.610626	-0.366147	9.302118	4.261901	10.574408	1.631644	-0.302474	0.582035	-0.973268	-9.943999	-5.399296	9.520799	54.255069	39.711188	-112.122775	-0.682251	-0.545318	-0.346627	9.542926	1.352066	2.82077	42.237139	25.5323	-8.180127	-0.628084	-0.125537	-0.378609
-2.161973	-0.418591	10.37095	4.878017	10.09858	3.186179	-0.31628	0.655135	-1.056962	-10.865421	-6.075969	6.726755	41.496791	89.796449	-118.631296	-0.68107	-0.54103	-0.404026	9.351977	1.175029	2.037937	48.626314	26.538372	-8.605351	-0.600898	-0.155035	-0.423378
-1.835972	-0.82479	9.466293	8.955201	9.363039	4.665182	-0.288768	0.63003	-1.012016	-9.525116	-5.120118	7.604961	17.904639	129.077952	-117.334887	-0.61619	-0.540655	-0.405405	8.628917	0.940884	1.185047	50.644207	25.181563	-9.828609	-0.600543	-0.159166	-0.345739
-0.686269	0.496742	9.778378	5.652157	11.518891	2.931028	-0.31628	0.655135	-1.056962	-8.039618	-4.954356	7.126778	0.932801	152.980291	-109.004764	-0.61538	-0.55276	-0.447451	8.555325	1.053957	0.405651	48.657944	23.242005	-9.323194	-0.586919	-0.155657	-0.40778
-1.369236	-0.535984	9.931232	7.597968	12.39197	5.331656	-0.302889	0.630405	-1.011667	-7.817148	-4.673419	6.792013	-16.113255	173.799053	-98.177813	-0.627551	-0.625149	-0.499556	8.305339	0.4122	-0.440167	44.890893	21.777966	-8.080139	-0.587061	-0.154004	-0.438836
-2.004726	-0.36441	9.635442	10.475397	13.260169	3.129449	-0.300988	0.596148	-1.029571	-6.543325	-4.112153	7.215561	-27.173773	198.948371	-87.395149	-0.615015	-0.596577	-0.473139	8.303294	0.818484	-0.498343	39.643057	20.80662	-7.65921	-0.545404	-0.171237	-0.406732
-1.30963	-0.707868	10.045328	13.823206	14.224577	3.472827	-0.288025	0.637087	-1.040168	-5.66061	-4.05668	8.139975	-32.426012	226.300003	-79.637122	-0.614204	-0.608682	-0.515185	7.298763	0.413753	-0.638595	34.114494	19.778454	-7.75653	-0.586919	-0.155657	-0.40778
-0.784982	0.212995	10.570888	12.32825	14.9181	4.040412	-0.274304	0.667783	-1.061425	-4.853786	-3.269467	8.270843	-38.018814	256.030243	-71.793872	-0.560674	-0.572382	-0.590044	7.350907	0.528287	-0.996441	26.58522	18.146375	-6.346227	-0.587266	-0.188868	-0.390578
-1.660459	0.152557	9.701148	16.001101	14.979906	2.804152	-0.286882	0.613073	-1.047412	-4.393693	-3.045007	8.280704	-46.829748	285.577153	-61.673868	-0.546963	-0.599732	-0.631361	7.054726	0.528715	-1.06185	20.033408	15.69754	-5.485658	-0.628505	-0.139251	-0.424355
-1.253738	-0.363501	9.991036	16.578772	14.495115	2.4266	-0.287653	0.640615	-1.054244	-3.979294	-2.707304	8.855847	-57.073103	311.912832	-50.785298	-0.481197	-0.596141	-0.675789	6.945072	0.240335	-0.645939	14.308036	13.139456	-5.605526	-0.615085	-0.170605	-0.438139
-2.517582	-0.650762	9.73792	19.59911	13.546775	0.562433	-0.330029	0.659038	-1.070688	-2.688031	-3.04671	10.014951	-66.260674	331.433074	-39.778547	-0.401345	-0.543298	-0.766553	7.535814	0.936392	-0.512154	9.421029	10.263044	-4.229389	-0.587269	-0.170197	-0.437998
-1.597596	0.09628	9.986285	25.743209	12.555736	-1.679461	-0.316652	0.651607	-1.042886	-1.360053	-2.598355	10.269693	-75.265618	345.876833	-29.191881	-0.361757	-0.585819	-0.807418	7.303705	0.182438	-0.399956	4.32107	7.504801	-2.516844	-0.573779	-0.202378	-0.436254
-1.426573	-0.42106	9.930601	27.26181	11.131077	-2.811049	-0.258255	0.598553	-1.044695	-0.645068	-1.979017	11.474154	-83.443705	357.160457	-20.54707	-0.296061	-0.537338	-0.840508	7.662069	0.240693	-0.153479	1.893228	5.241903	-3.414117	-0.559383	-0.170615	-0.42233
-2.175832	0.267813	9.691609	29.150298	10.546892	-4.727435	-0.273147	0.62647	-1.051177	0.127459	-1.979469	12.622661	-89.798554	365.878057	-13.775844	-0.243492	-0.519574	-0.871314	8.021128	0.473423	0.153647	-1.721383	3.5348	-2.262079	-0.573499	-0.187011	-0.421563
-1.705957	-0.706613	10.264946	34.399486	8.755126	-7.194523	-0.314365	0.60358	-1.057374	1.046758	-1.699589	12.585602	-91.252603	371.086646	-8.361138	-0.152139	-0.472016	-0.890604	7.611006	-0.338449	0.20239	-4.167225	2.613698	-2.768384	-0.601386	-0.186593	-0.437232
-1.833419	0.267323	9.641437	33.135946	8.269387	-8.241538	-0.257512	0.60561	-1.072847	2.531314	-0.799145	14.825527	-99.108605	373.116818	-6.528394	-0.099199	-0.437859	-0.936764	8.200492	-0.049419	0.21463	-6.797903	1.47434	-2.936793	-0.58762	-0.184737	-0.468217
-2.281966	-0.534597	10.083975	30.954469	7.587667	-8.645041	-0.229999	0.580505	-1.027902	4.194133	-0.912833	17.238145	-102.806016	366.934433	-3.941791	-0.020973	-0.421016	-0.953772	8.439723	0.008859	0.399	-8.557196	0.229619	-1.488051	-0.587966	-0.217948	-0.451015
-1.93337	0.155659	10.377817	30.163522	12.204664	-6.850237	-0.272747	0.595399	-1.03027	6.018684	-0.351256	19.201842	-107.882638	354.228226	-3.024345	0.055337	-0.381036	-0.872338	8.38812	-0.337979	0.755858	-9.200874	-0.40089	0.10655	-0.573082	-0.154627	-0.423238
-0.667273	1.317612	13.703506	16.885238	28.340482	-4.18823	-0.243005	0.591464	-1.06978	7.607599	0.492214	20.934382	-112.130116	341.018402	-3.190216	0.108051	-0.392841	-0.915487	8.62708	-0.16355	0.940722	-8.026651	-0.556873	0.805991	-0.587199	-0.171023	-0.422471
-3.55983	-1.456851	9.089115	24.79931	38.098004	-2.304303	-0.315151	0.648421	-1.081698	8.89493	1.333318	19.32035	-124.592462	333.661708	2.737937	0.160256	-0.331259	-0.920604	8.630537	0.243972	1.18208	-5.923128	-0.438323	1.898082	-0.558965	-0.13823	-0.424004
-1.610021	-0.296119	12.257606	-8.201433	52.281132	7.160146	-0.258255	0.598553	-1.044695	12.360259	3.580688	20.131096	-142.168776	340.336865	14.905968	0.210539	-0.306749	-0.837616	8.464783	0.595552	1.839238	-5.017771	0.07474	8.79986	-0.531146	-0.156493	-0.376443
-1.829058	-0.236341	12.765072	3.232852	70.873326	9.024112	-0.271604	0.571385	-1.037514	16.512315	6.051945	20.786621	-144.95802	335.686401	23.489584	0.236566	-0.291279	-0.839171	8.351402	0.015804	2.014285	-4.647045	1.416469	18.206496	-0.573291	-0.170819	-0.4224
-2.038572	0.514908	13.78711	1.063622	82.905857	14.653795	-0.243377	0.587936	-1.055704	24.251985	8.683886	19.705981	-151.763795	318.477572	25.994825	0.288175	-0.29205	-0.825925	8.409318	0.015422	1.955479	-2.027491	2.987369	26.932069	-0.601244	-0.188246	-0.406176
0.075123	1.78871	16.561453	34.678965	94.410476	19.098461	-0.244134	0.598178	-1.045044	35.117627	10.409335	19.426179	-144.148938	300.785635	8.22125	0.339349	-0.204115	-0.77565	7.77182	-0.271001	2.541207	1.093883	3.515993	33.093422	-0.573082	-0.154627	-0.423238
-2.767731	0.21903	11.612124	24.479171	108.946127	20.069405	-0.172417	0.606891	-1.089018	42.797811	11.128293	20.777012	-109.426485	281.577956	-29.921538	0.35262	-0.202968	-0.790276	8.839728	-0.795127	2.798417	6.984287	3.752249	32.979243	-0.573153	-0.1538	-0.438765
-1.703265	0.467874	16.293972	22.595816	123.483899	24.174821	-0.200658	0.60764	-1.08832	43.147743	10.165402	15.518394	-53.150305	258.735026	-74.676526	0.390593	-0.161069	-0.736715	9.837095	-0.62443	2.518332	12.248893	3.193238	26.726525	-0.573011	-0.155453	-0.40771
-2.628244	0.466607	15.821332	38.559732	144.702669	28.766677	-0.171288	0.600176	-1.113754	37.183432	13.930627	-7.475674	172.778357	152.174453	-97.377991	0.350264	-0.151334	-0.665143	11.475532	-0.282722	1.831745	14.851843	-0.15076	22.667394	-0.558965	-0.13823	-0.424004
-2.489404	0.701598	17.075292	36.133065	166.067927	31.727348	-0.116306	0.601864	-1.076339	43.141131	8.859979	4.307498	110.122742	145.849381	-151.427097	0.378358	-0.12836	-0.767146	13.11729	0.524584	1.386763	14.634878	-5.123775	18.412411	-0.545057	-0.138026	-0.423934
-1.779915	0.476159	18.224751	40.483326	194.521441	32.453458	-0.071258	0.521642	-1.070968	42.33895	2.148335	-6.924876	81.891485	47.741244	-128.663851	0.415069	-0.166279	-0.665518	12.563866	0.637007	0.179216	12.984414	-10.069677	16.974772	-0.544916	-0.139678	-0.392879
