1818_acc_x	1818_acc_y	1818_acc_z	1818_gyro_x	1818_gyro_y	1818_gyro_z	1818_mag_x	1818_mag_y	1818_mag_z	1819_acc_x	1819_acc_y	1819_acc_z	1819_gyro_x	1819_gyro_y	1819_gyro_z	1819_mag_x	1819_mag_y	1819_mag_z	1820_acc_x	1820_acc_y	1820_acc_z	1820_gyro_x	1820_gyro_y	1820_gyro_z	1820_mag_x	1820_mag_y	1820_mag_z
-1.3382	1.0936	10.0826	-0.4651	0.5393	-0.0161	0.4743	0.012	-0.1501	-1.1828	0.0984	9.9944	-0.6112	0.2556	0.0962	1.0511	-0.5558	-1.1315	8.3577	4.8094	0.5022	0.6588	1.5002	-0.4327	-1.0337	-0.0859	1.4785
-1.4637	1.1501	9.5486	-0.3449	0.5948	-0.1712	0.4503	0.018	-0.1441	-0.9674	-0.0181	9.2265	-0.6709	0.3788	0.2527	1.0516	-0.5749	-1.1307	8.3538	5.0956	0.3282	0.4463	1.3468	-0.4945	-1.1751	0.2374	0.3913
-1.2872	1.0352	9.729	-0.2497	0.4997	-0.0216	0.4383	0.012	-0.1621	-1.4759	0.1559	9.7509	-0.702	0.349	0.1594	1.0371	-0.5738	-1.1487	8.8058	4.8646	0.1031	0.1741	1.1933	-0.4934	-1.1227	0.2371	0.3922
-1.9794	0.7488	9.6557	-0.3403	0.7173	-0.0791	0.4503	0.024	-0.1561	-1.0757	0.0401	9.5807	-0.6401	0.3483	0.0669	1.0524	-0.5972	-1.0585	8.405	5.1519	0.0378	0.2107	1.2846	-0.1525	-1.1231	0.2566	0.372
-1.6899	0.6335	9.7201	-0.31	0.777	-0.1405	0.4503	0.006	-0.1561	-1.1968	-0.0174	9.2811	-0.2694	0.4337	0.1617	1.0513	-0.5734	-1.1664	8.1811	4.6366	0.2064	0.301	1.3153	-0.1842	-1.1933	0.2589	0.3525
-1.4552	0.8061	9.9615	0.0511	0.6689	-0.4245	0.4563	0.012	-0.1501	-1.6472	-0.5305	9.746	-0.18	0.3086	0.3449	1.0085	-0.5729	-1.1489	8.24	4.9237	0.3253	0.1167	1.4082	-0.1779	-1.1578	0.2217	0.3751
-1.5779	0.5753	9.5449	0.0225	0.8535	-0.4532	0.4323	0.012	-0.1561	-1.4858	-0.1885	9.2154	-0.1184	0.3377	0.4691	1.036	-0.517	-1.1331	8.5861	4.637	0.5062	0.2924	1.5319	-0.4245	-1.1752	0.255	0.3895
-1.4018	0.6904	9.7259	-0.1606	0.831	-0.3574	0.4563	0.018	-0.1561	-1.2525	0.1546	9.3991	0.1011	0.4888	0.1633	1.0657	-0.5738	-1.1663	8.8651	4.8649	0.221	0.4469	1.3467	-0.4637	-1.1925	0.22	0.3929
-1.3444	0.8053	9.7273	-0.189	0.68	-0.1745	0.4623	0.012	-0.1621	-1.3122	0.0401	9.2789	-0.0268	0.2753	0.3446	1.0509	-0.5381	-1.0965	8.1279	5.0964	0.4403	0.3584	1.4695	-0.2426	-1.2283	0.2767	0.3501
-1.2919	0.517	9.4322	0.1207	0.7893	-0.2119	0.4503	0.018	-0.1321	-1.0614	0.0415	10.2938	-0.1196	0.2463	0.313	1.0235	-0.594	-1.1123	8.6325	4.8071	-0.0173	0.4856	1.3454	-0.0946	-1.1932	0.2414	0.3544
-1.6934	0.6905	9.543	0.0905	0.7296	-0.1505	0.4563	0.03	-0.1441	-1.2499	0.0976	9.5179	-0.119	0.277	0.3136	1.0379	-0.6114	-1.165	8.637	4.8653	0.2164	0.3664	1.253	-0.0332	-1.1757	0.2413	0.3547
-1.3417	0.5756	9.8449	-0.1558	0.7705	-0.1443	0.4563	0.006	-0.1501	-1.1944	-0.0172	9.4	-0.0913	0.1228	0.3727	1.0804	-0.5935	-1.1654	8.2352	4.349	0.0314	0.5512	1.2215	0.0239	-1.1747	0.2179	0.4115
-1.5131	0.9787	9.9607	-0.2253	0.5587	-0.2964	0.4623	0.018	-0.1561	-1.2973	-0.2447	9.9913	-0.1768	0.4625	0.255	1.0359	-0.5162	-1.151	8.6439	4.8665	0.5665	0.4342	1.1595	0.2094	-1.1746	0.2004	0.4134
-1.8102	0.9206	9.4822	-0.2445	0.8053	-0.0199	0.4623	0	-0.1501	-1.244	-0.417	9.7545	-0.2091	0.3411	0.0366	1.0369	-0.5561	-1.1137	8.2951	4.6937	0.2089	0.4367	1.3129	0.4295	-1.157	0.2335	0.4283
-1.7453	0.6338	9.8372	-0.4687	0.7219	-0.259	0.4623	0.006	-0.1561	-1.5936	0.1559	9.6297	-0.3634	0.4033	0.4698	1.0653	-0.5554	-1.1492	8.5891	4.8671	0.6821	0.2803	1.2523	0.2151	-1.1753	0.2218	0.3749
-1.2241	1.1508	10.0259	-0.4683	0.6	-0.1682	0.4563	0.018	-0.1501	-1.2501	0.1549	9.518	-0.3032	0.2506	0.0348	1.0507	-0.5366	-1.1322	8.6856	5.1506	-0.1899	0.2221	1.1598	0.2753	-1.1748	0.2355	0.4096
-1.5761	0.8056	9.6637	-0.7769	0.7044	-0.2211	0.4563	0.018	-0.1561	-1.8813	-0.0723	9.6233	-0.2104	0.3097	0.2214	1.0655	-0.5562	-1.1314	8.1254	4.5221	0.2632	0.4041	1.3133	0.3377	-1.1572	0.2178	0.4118
-1.4612	1.0354	9.6665	-0.8612	0.9532	-0.0651	0.4683	0.012	-0.1561	-1.1969	0.0398	9.2813	-0.3339	0.3112	0.3447	1.0222	-0.5526	-1.1853	8.5792	4.6357	0.156	0.4319	1.1291	0.0852	-1.1928	0.2219	0.3746
-1.0486	0.2882	10.0863	-0.8675	0.678	-0.1275	0.4563	0.012	-0.1561	-1.1922	0.0403	9.5189	-0.2406	0.3108	0.0669	1.0795	-0.5382	-1.1142	8.5208	4.7503	0.097	0.2715	1.2537	-0.1854	-1.2106	0.2239	0.356
-1.108	0.6331	10.0269	-0.8936	0.8628	-0.0648	0.4743	0.024	-0.1501	-1.3604	0.0411	9.7531	-0.3939	0.3442	0.0672	1.0948	-0.5777	-1.0947	8.5252	4.8659	0.3308	0.3939	1.3149	-0.1245	-1.2275	0.2377	0.3904
-1.4068	0.9773	9.4902	-0.9553	0.8654	-0.0633	0.4803	0.012	-0.1621	-1.4219	-0.3026	9.5135	-0.6122	0.2244	0.2191	1.0509	-0.5381	-1.0965	8.0112	4.637	0.2613	0.6395	1.1602	-0.1646	-1.1761	0.21	0.3218
-1.2895	1.0924	9.6109	-1.0818	0.9312	-0.2124	0.4563	0.012	-0.1501	-1.1822	-0.1305	9.994	-0.3967	0.2209	0.1886	1.0516	-0.5749	-1.1307	8.4674	4.6363	0.2705	0.5812	1.0677	-0.1044	-1.1929	0.2394	0.3727
-1.7455	0.7488	9.8375	-0.9233	0.8337	-0.0033	0.4623	0.006	-0.1681	-1.1353	0.3835	9.5208	-0.5831	0.1019	0.0317	1.0649	-0.5362	-1.15	8.4707	4.7517	0.446	0.492	1.2829	0.1501	-1.1931	0.2238	0.3562
-1.4632	0.9201	9.548	-1.044	1.1442	-0.09	0.4563	0.024	-0.1441	-1.6468	0.271	9.8664	-0.4335	-0.0858	0.2448	1.0515	-0.5742	-1.1486	8.0097	4.8663	0.2038	0.3384	1.3142	0.1232	-1.158	0.2061	0.3587
-1.5807	0.8625	9.4274	-0.9807	1.2333	-0.0911	0.4563	0.018	-0.1501	-1.1858	-0.1308	9.8157	-0.2819	-0.1811	0.3978	1.0517	-0.5757	-1.1129	8.6347	4.8649	0.0997	0.4242	1.2841	-0.1568	-1.193	0.257	0.3708
-1.5802	0.6326	9.4268	-0.7046	1.3741	-0.2495	0.4563	0.012	-0.1621	-1.1266	-0.3026	9.876	-0.1922	-0.3958	-0.0074	1.0225	-0.5549	-1.1317	8.9268	4.8657	0.4555	0.5462	1.376	-0.0949	-1.1228	0.2039	0.3776
-1.4639	0.6325	9.4882	-1.0444	1.2662	-0.1809	0.4683	0.006	-0.1561	-1.5312	0.1563	9.8686	-0.2226	-0.3348	0.2098	1.008	-0.553	-1.1675	8.2406	4.5222	0.3238	0.6156	1.3131	0.241	-1.1585	0.2256	0.3385
-1.4559	0.576	9.9018	-1.1743	1.0876	-0.3007	0.4683	0.024	-0.1381	-1.4238	-0.0165	9.4547	-0.3418	-0.1481	0.0894	1.0222	-0.5365	-1.1146	8.4638	4.7504	0.0958	0.7392	1.4356	0.3961	-1.1745	0.2335	0.428
-1.463	0.8051	9.5477	-1.0462	1.1135	-0.1512	0.4503	0.006	-0.1621	-1.3611	0.3273	9.7536	-0.7444	-0.2643	0.1484	1.0657	-0.5577	-1.0956	8.3537	5.153	0.3284	0.9219	1.6812	0.5536	-1.1576	0.2373	0.3916
-1.569	0.6339	10.0179	-1.1697	0.9661	-0.0575	0.4443	0.018	-0.1561	-1.5943	0.4421	9.6303	-0.8986	-0.352	-0.2549	1.0092	-0.6105	-1.1652	8.3549	4.4073	0.3257	1.0118	1.6505	0.4584	-1.1749	0.2023	0.395
-1.5221	0.345	9.4273	-1.0124	0.9905	0.0303	0.4683	0.012	-0.1501	-1.3579	-0.4738	9.8114	-1.3871	-0.1291	-0.19	1.038	-0.596	-1.0765	8.5781	4.5782	0.0975	0.9788	1.6817	0.3675	-1.1741	0.1633	0.4354
-1.4023	0.9779	9.7266	-1.1699	1.1491	-0.1785	0.4563	0.024	-0.1441	-1.411	-0.416	10.048	-1.5987	0.0291	-0.4347	1.0355	-0.4978	-1.1339	8.1873	4.3508	0.4971	1.1284	1.651	0.2095	-1.1587	0.2607	0.3348
-1.5796	0.9202	9.4866	-1.2264	0.9693	0.1269	0.4383	0.012	-0.1381	-1.5957	0.0412	9.5106	-1.8477	-0.12	-0.4686	1.0227	-0.5564	-1.096	8.4741	4.7523	0.621	1.3122	1.8657	0.3969	-1.1924	0.2531	0.4075
-1.5768	0.5755	9.604	-1.1948	1.0596	0.0962	0.4563	0.018	-0.1621	-1.708	0.2708	9.687	-2.3679	0.0724	-0.3117	1.0377	-0.5937	-1.1301	8.5256	4.6364	0.33	1.2517	1.6505	0.2687	-1.1918	0.1985	0.4314
-1.5718	0.2886	9.8397	-1.1967	0.9983	0.0654	0.4623	-0.006	-0.1501	-1.711	0.0415	9.5083	-1.9965	0.1886	-0.2472	1.0078	-0.5353	-1.1326	8.5775	4.9797	0.0989	1.04	1.62	0.3337	-1.1236	0.2936	0.3499
-1.6353	0.4605	9.5435	-1.0449	0.7476	0.1212	0.4743	0.006	-0.1561	-1.1326	0.2121	9.6393	-2.1216	0.0683	-0.3422	1.0372	-0.5745	-1.1308	8.2401	4.8663	0.3251	1.0055	1.6207	0.1495	-1.175	0.2199	0.3932
-1.5214	0.5751	9.4869	-1.2231	1.0611	0.1884	0.4563	0.012	-0.1381	-1.1357	0.04	9.4607	-1.9955	0.2498	-0.2152	1.0802	-0.5758	-1.1305	8.4057	4.6929	0.0361	1.1573	1.5282	0.0513	-1.1577	0.2041	0.377
-1.1731	0.4598	9.6116	-1.2268	0.8472	0.1872	0.4443	0.012	-0.1441	-1.3089	0.1549	9.4574	-1.9022	0.3094	-0.1522	1.0366	-0.5538	-1.1673	8.5833	4.9234	0.3905	1.3087	1.3742	-0.1102	-1.1758	0.2588	0.3528
-1.4673	0.6896	9.311	-0.9859	0.6837	0.0584	0.4683	0.018	-0.1621	-1.3516	-0.1297	10.1687	-1.9915	0.4345	-0.3354	1.0502	-0.5166	-1.1509	8.4109	5.0382	0.3291	1.4022	1.3736	-0.0196	-1.1578	0.2217	0.3751
-1.5759	0.6906	9.6634	-0.9776	0.7761	0.3028	0.4563	0	-0.1501	-1.3066	-0.3028	9.5159	-2.3328	0.377	0.0953	1.0789	-0.5182	-1.1328	8.4071	4.5784	0.0941	1.7381	1.6188	0.1656	-1.1759	0.2764	0.3509
-1.9235	0.461	9.5379	-0.9819	0.6231	0.241	0.4563	0.018	-0.1621	-0.8923	0.1552	10.1193	-2.448	0.7785	0.0096	1.0513	-0.5565	-1.1136	8.2922	5.0949	0.0936	1.8676	1.6173	0.502	-1.1576	0.2373	0.3916
-1.6402	0.6899	9.3077	-0.9199	0.59	0.2698	0.4503	0.006	-0.1501	-1.4298	0.4981	9.218	-2.7246	0.7536	-0.2384	1.0362	-0.5346	-1.1681	8.6393	4.8657	0.3331	2.0306	1.6461	0.9928	-1.1927	0.2551	0.3892
-1.3973	0.691	9.9623	-0.8004	0.6455	0.0842	0.4503	0.03	-0.1441	-1.4075	-0.3584	10.2264	-3.0325	0.7287	-0.3629	1.0506	-0.5358	-1.1501	8.5835	4.8086	0.3901	2.1537	1.6149	1.0203	-1.1578	0.2724	0.3879
-1.4064	0.7474	9.4896	-0.4301	0.5384	0.1356	0.4563	0.012	-0.1621	-1.7614	-0.0149	9.8635	-2.97	0.7887	-0.2999	1.0507	-0.5366	-1.1322	8.6406	4.7512	0.391	2.1516	1.7997	1.0564	-1.1406	0.2567	0.3717
-0.8308	0.5162	9.4412	-0.3686	0.3223	0.2549	0.4563	0	-0.1561	-1.4191	-0.0161	9.6923	-3.2174	0.7616	-0.1464	1.0502	-0.5166	-1.1509	8.4775	4.7529	0.7961	2.2418	1.892	1.0572	-1.1753	0.2218	0.3749
-1.4076	0.7472	9.4305	-0.0974	0.1269	0.1251	0.4563	0.024	-0.1561	-1.5894	-0.1299	9.8074	-2.8772	0.8177	-0.2684	1.0513	-0.5565	-1.1136	8.5245	4.5789	0.2714	2.1466	1.9543	0.9376	-1.175	0.2199	0.3932
-1.462	0.8627	9.607	-0.0646	0.3394	0.0645	0.4503	0.012	-0.1441	-1.5325	-0.3018	9.7488	-2.7563	0.723	-0.1463	1.0647	-0.5347	-1.1857	8.7002	4.5794	0.5083	2.2577	2.3248	0.6994	-1.1401	0.2197	0.3938
-1.4687	0.8044	9.2522	-0.183	0.3451	0.2505	0.4503	0.018	-0.1561	-1.4279	0.212	9.2769	-2.3317	0.4383	0.1273	1.0498	-0.5143	-1.2045	8.4108	5.0955	0.3294	2.7124	2.4164	0.6313	-1.1744	0.216	0.4298
-1.6337	0.8057	9.6626	-0.12	0.2206	0.3703	0.4503	0.024	-0.1561	-1.3071	0.384	9.5767	-1.8723	0.3078	0.0949	1.0362	-0.5185	-1.0974	8.5272	5.0958	0.4483	2.798	2.7246	0.5767	-1.1752	0.255	0.3895
-1.5182	1.3231	9.7252	-0.1263	0.0979	0.2172	0.4683	0.012	-0.1321	-1.0056	-0.1878	10.1757	-1.6544	0.4272	0.0356	1.051	-0.555	-1.1493	8.6941	4.8652	0.2175	2.9179	2.7246	0.4818	-1.1926	0.2375	0.391
-1.3499	0.7471	9.4316	-0.1862	0.0092	0.3401	0.4563	0.012	-0.1561	-1.71	-0.3591	9.5074	-0.7652	0.318	0.4676	1.0502	-0.5166	-1.1509	8.5799	4.9228	0.2154	2.948	2.7554	0.4821	-1.1751	0.2374	0.3913
-1.7465	0.0586	9.7176	-0.066	0.1562	0.1245	0.4443	0	-0.1381	-1.2452	0.0981	9.7556	-0.7329	0.3793	0.3761	1.0655	-0.5562	-1.1314	8.9821	4.4636	0.3385	2.7044	2.8174	0.5504	-1.1767	0.2646	0.2978
-1.9871	0.6903	9.2418	0.0257	-0.0918	0.2429	0.4503	0.018	-0.1621	-1.1238	-0.474	9.9944	-0.1213	0.1242	0.1564	1.0218	-0.5342	-1.1682	8.6962	4.923	0.3344	2.6437	2.756	0.519	-1.2098	0.2025	0.3945
-1.4668	0.4021	9.3103	0.3286	-0.2884	0.1429	0.4323	0.006	-0.1501	-1.3052	0.098	9.6355	0.1892	0.2723	0.1905	1.0504	-0.5181	-1.1152	8.3988	4.7491	-0.3138	2.6983	3.0952	0.466	-1.1755	0.2062	0.3584
-1.6873	0.4612	9.8379	0.9168	-0.4958	0.3104	0.4383	0	-0.1441	-1.4767	-0.0159	9.6911	0.1265	0.242	0.3443	1.0506	-0.5358	-1.1501	8.7504	5.324	0.2203	2.3951	3.1572	0.5971	-1.1748	0.2355	0.4096
-1.8029	0.6339	9.8361	0.9768	-0.4985	0.2479	0.4563	0.018	-0.1561	-1.0261	-0.0753	9.1658	-0.3372	0.1274	0.2797	1.0515	-0.5742	-1.1486	8.4624	4.9223	0.0381	2.3386	3.2182	0.8466	-1.1751	0.2374	0.3913
-1.4063	0.6899	9.4895	1.594	-0.3718	0.1421	0.4683	0.006	-0.1561	-0.839	-0.0171	9.8825	-0.2438	0.2171	0.4667	1.0503	-0.5174	-1.133	8.7505	5.2667	0.2201	2.5887	3.4934	1.3118	-1.1929	0.2902	0.3854
-1.4026	0.5178	9.6664	2.0246	-0.4206	0.1009	0.4803	0.024	-0.1441	-1.4705	-0.1298	9.988	0.0034	0.2441	0.3441	1.0507	-0.5366	-1.1322	8.635	4.6928	0.099	2.1893	3.4641	1.1648	-1.1395	0.2334	0.4285
-1.8083	0.5183	9.5403	2.196	-0.6434	-0.2707	0.4683	0.012	-0.1501	-1.1313	-0.303	9.6383	0.0038	0.2445	0.2514	1.0221	-0.5357	-1.1325	8.5828	4.5216	0.3307	1.8547	3.4955	1.2341	-1.1755	0.2569	0.3711
-1.5181	0.633	9.6644	2.076	-0.2412	-0.3874	0.4623	0.006	-0.1501	-1.4837	-0.0738	9.3345	-0.1538	0.0627	0.3097	1.0368	-0.5553	-1.1316	8.5797	5.0375	0.2159	1.519	3.3734	1.1448	-1.1749	0.2023	0.395
-1.5223	0.46	9.4276	2.1042	-0.1513	-0.5401	0.4563	0.006	-0.1501	-1.0195	0.1543	9.5227	0.0683	0.397	0.2234	1.0644	-0.5001	-1.098	8.5796	4.4063	0.1552	0.8572	2.943	1.2691	-1.1411	0.243	0.3369
-1.2384	0.9765	9.2571	1.5508	-0.1583	-0.4352	0.4503	0.006	-0.1501	-1.1808	0.2703	10.1136	0.1259	0.2113	0.3437	1.05	-0.4989	-1.1159	8.4154	4.3504	0.5017	0.8622	2.6962	1.3236	-1.1925	0.22	0.3929
-1.8098	0.6906	9.4816	0.7851	0.0576	-0.3238	0.4623	0	-0.1501	-1.1898	0.0405	9.6378	0.3413	0.1776	0.1891	1.0649	-0.5362	-1.15	8.4092	4.6936	0.2112	0.4097	2.2659	1.2587	-1.2096	0.2181	0.4109
-1.6914	0.8633	9.6616	0.7539	0.0894	-0.3534	0.4623	0.024	-0.1501	-1.1885	-0.0166	9.6971	0.3714	0.1763	0.3744	1.0655	-0.5562	-1.1314	8.3445	4.4627	-0.1993	-0.1377	2.1132	1.2344	-1.1751	0.1867	0.3786
-1.4576	0.9208	9.8435	0.3566	0.2286	-0.2819	0.4623	0.012	-0.1441	-1.5218	-0.3008	10.2836	0.4657	0.237	0.1595	1.0658	-0.5746	-1.1485	8.6959	4.4065	0.2742	-0.1328	1.5588	1.0644	-1.2108	0.259	0.3522
-1.6917	1.0358	9.662	-0.0724	0.5216	-0.3308	0.4503	0	-0.1501	-1.0156	0.0402	9.7008	0.2191	0.2106	0.1277	1.0508	-0.5373	-1.1144	8.5239	4.2345	0.2118	-0.3659	1.0964	1.2408	-1.245	0.2378	0.3902
-1.5685	0.979	10.0778	0.0798	0.3929	-0.3352	0.4623	0.018	-0.1621	-1.1381	0.0398	9.3419	0.3405	0.1466	0.2503	1.0645	-0.517	-1.1508	8.861	4.5773	-0.0135	-0.6067	0.8811	1.2395	-1.2108	0.259	0.3522
-1.3423	0.8631	9.8456	0.0525	0.4556	-0.2427	0.4563	0.024	-0.1561	-1.4159	-0.3592	9.8105	0.3737	0.269	0.2216	1.0368	-0.5553	-1.1316	8.8057	4.922	0.1033	-0.5356	0.3873	1.3472	-1.1399	0.2353	0.4102
-1.1691	0.6903	9.8486	-0.1015	0.4315	-0.2086	0.4743	0.024	-0.1621	-1.0725	-0.303	9.6989	0.1263	0.2117	0.2511	1.0223	-0.5534	-1.1674	8.5755	4.8072	-0.0184	-0.3879	0.48	1.1928	-1.1752	0.255	0.3895
-1.6368	0.6328	9.4848	0.1123	0.3918	-0.275	0.4683	0.018	-0.1621	-1.4263	0.0405	9.3359	-0.0251	0.3372	0.2222	1.0505	-0.5189	-1.0973	8.5246	4.5215	0.2712	-0.3613	0.419	0.9748	-1.1395	0.2334	0.4285
-1.3395	0.5759	9.9631	0.0788	0.3317	-0.3356	0.4443	0.006	-0.1681	-1.1895	-0.074	9.6376	0.0374	0.3674	0.0993	1.0644	-0.5163	-1.1686	8.5817	4.5214	0.2723	-0.1218	0.4498	0.7859	-1.1928	0.2219	0.3746
-1.9775	0.9791	9.7744	0.1791	0.3897	-0.0936	0.4503	0	-0.1561	-1.2557	0.0398	9.2207	-0.2374	0.4946	0.1628	1.0212	-0.5135	-1.2047	8.4145	4.1781	0.4427	-0.1323	0.513	0.3564	-1.158	0.2061	0.3587
-1.3504	1.0346	9.4323	0.0809	0.2099	-0.1838	0.4683	0.018	-0.1501	-1.3703	0.2119	9.278	-0.4855	0.3765	0.0368	1.0521	-0.5949	-1.1121	8.6362	4.6356	0.1572	0.1324	0.5753	-0.0479	-1.1925	0.22	0.3929
-1.0565	0.9198	9.7332	-0.1365	0.1883	-0.2091	0.4623	-0.006	-0.1621	-1.4815	-0.0164	9.4535	-0.4842	0.4981	0.3169	1.0661	-0.5769	-1.0949	8.7558	4.0627	0.3908	0.0038	0.6997	-0.2575	-1.1761	0.21	0.3218
-1.4035	0.9778	9.6675	-0.2572	0.2548	-0.1448	0.4503	-0.012	-0.1441	-1.1818	-0.3022	9.9936	-0.4243	0.3451	-0.0255	1.0227	-0.5726	-1.1667	8.8089	5.0947	0.279	0.1222	0.946	-0.2529	-1.1762	0.2783	0.3326
-1.1147	0.6323	9.6723	-0.3127	0.4716	-0.0507	0.4563	0.018	-0.1501	-1.3626	-0.0163	9.6341	-0.4854	0.4067	0.1608	1.0653	-0.5554	-1.1492	8.9848	4.9232	0.5152	0.3932	1.1304	-0.2838	-1.2103	0.222	0.3743
-1.5177	0.403	9.6638	-0.4398	0.2628	-0.0488	0.4563	0.012	-0.1501	-1.7652	0.0992	9.6854	-0.1776	0.4015	0.1613	1.0367	-0.5546	-1.1495	8.8124	4.292	0.3928	0.17	1.2863	-0.614	-1.1926	0.1868	0.3783
-1.7493	0.9784	9.6607	-0.5034	0.4482	-0.2292	0.4563	0.018	-0.1441	-1.3648	-0.0738	9.5151	-0.236	0.5863	0.2571	1.0659	-0.5754	-1.1306	8.4697	4.6367	0.3872	-0.0756	1.3486	-0.6381	-1.1755	0.2569	0.3711
-1.8647	0.461	9.5981	-0.4385	0.385	-0.0786	0.4623	0	-0.1381	-1.4246	-0.1883	9.3949	-0.1746	0.5551	0.1331	1.0071	-0.4984	-1.0984	8.4628	4.6929	0.0373	-0.1407	1.4417	-0.7575	-1.1756	0.2237	0.3565
-1.3447	0.9778	9.7277	-0.2263	0.2535	-0.1456	0.4563	0	-0.1441	-1.1832	0.2701	9.9948	-0.2991	0.4655	0.0387	1.0225	-0.5549	-1.1317	8.2362	4.4066	0.09	-0.3524	1.5957	-0.5639	-1.1928	0.2219	0.3746
-1.5732	0.4609	9.7811	-0.6229	0.4843	-0.1041	0.4563	0	-0.1441	-1.3027	0.041	9.7542	-0.4806	0.6223	-0.0206	1.0362	-0.5185	-1.0974	8.7526	4.6359	0.2762	-0.2898	1.5338	-0.5361	-1.2111	0.2102	0.3212
-1.5746	0.6332	9.7224	-0.6182	0.5154	0.0485	0.4503	0.018	-0.1621	-1.2987	-0.6455	9.8717	-0.6684	0.5018	0.1931	1.0798	-0.5566	-1.1313	8.6315	4.7495	-0.0758	-0.067	1.4088	-0.205	-1.1759	0.2257	0.3382
-1.5764	0.9781	9.6641	-0.7443	0.6118	-0.1004	0.4683	0.03	-0.1501	-1.4205	0.0983	9.6331	-0.7922	0.4731	0.2233	1.0651	-0.5377	-1.1143	8.5831	4.3495	0.3301	0.06	1.5307	0.1042	-1.2097	0.2357	0.4091
-1.4636	0.5175	9.4879	-0.8065	0.8278	-0.2502	0.4563	-0.006	-0.1441	-1.3609	0.2701	9.7535	-0.3923	0.466	0.2856	1.0513	-0.5565	-1.1136	8.6352	4.5781	0.0986	0.1804	1.4999	0.0084	-1.1588	0.2782	0.3329
-1.7474	0.5761	9.7189	-0.7421	0.6425	-0.0393	0.4503	0.024	-0.1441	-1.2495	-0.0741	9.5175	-0.3009	0.4033	0.2229	1.0511	-0.5558	-1.1315	8.7491	4.6926	0.1013	-0.065	1.4085	-0.1126	-1.158	0.2568	0.3714
-1.6396	0.9775	9.3675	-0.868	0.6474	-0.1277	0.4563	-0.006	-0.1501	-1.5358	0.0986	9.6308	-0.3308	0.4649	0.2857	1.0646	-0.5178	-1.1329	8.4614	4.8074	-0.0207	-0.1271	1.255	-0.2699	-1.1579	0.2392	0.3733
-1.6281	0.8064	9.9581	-0.9896	0.7138	-0.0939	0.4683	0.018	-0.1501	-1.5852	0.0995	10.0455	-0.7331	0.3191	0.0971	1.0226	-0.5557	-1.1138	8.5836	4.7513	0.3899	-0.0645	1.1008	-0.3064	-1.2109	0.2258	0.3376
-1.406	0.5174	9.489	-0.8692	0.5252	-0.0979	0.4323	0.012	-0.1561	-1.2404	0.0986	9.9932	-0.5469	0.4378	0.3157	1.0511	-0.5558	-1.1315	8.5825	4.7511	0.3315	-0.1248	1.0086	-0.3386	-1.1918	0.1985	0.4314
-1.3993	0.5182	9.8437	-1.203	0.7231	0.0029	0.4563	0.018	-0.1501	-1.362	-0.2452	9.6336	-0.3944	0.3735	0.3766	1.0653	-0.5385	-1.0964	8.4726	4.2356	0.5024	-0.3053	1.0702	-0.1791	-1.2112	0.2785	0.332
-2.1503	0.9219	9.7709	-1.1408	0.7511	0.0016	0.4503	0.006	-0.1561	-1.2525	0.1546	9.3991	-0.3328	0.3125	0.0359	1.0364	-0.5361	-1.1324	8.1803	4.4069	0.1472	-0.2406	0.9157	-0.1232	-1.1579	0.2392	0.3733
-1.6279	0.6914	9.9578	-1.3517	0.7607	0.1898	0.4743	0.006	-0.1561	-1.488	-0.246	9.0965	-0.3345	0.2505	0.1892	1.0081	-0.5537	-1.1497	8.8678	4.6359	0.3368	-0.3975	0.9782	-0.2724	-1.1577	0.2549	0.3897
-1.5785	0.9203	9.5458	-1.3288	1.0331	-0.2668	0.4563	0.006	-0.1381	-1.3049	-0.0165	9.6353	-0.2728	0.2796	0.3134	1.0502	-0.5166	-1.1509	8.1717	4.807	-0.2598	-0.3064	1.0088	-0.2733	-1.1928	0.2219	0.3746
-1.6359	0.8054	9.5444	-1.2308	1.1518	-0.1465	0.4623	0.012	-0.1621	-1.4209	0.27	9.6335	-0.1189	0.2771	0.2827	1.0515	-0.558	-1.0779	8.595	4.0074	0.9124	-0.2775	0.6091	-0.6244	-1.1755	0.2569	0.3711
-1.4606	0.6904	9.6657	-1.1741	0.9046	-0.1798	0.4623	0	-0.1381	-1.1335	0.0975	9.5797	0.1922	0.4259	0.1624	1.0506	-0.5358	-1.1501	8.469	4.3497	0.3278	-0.2556	0.6412	-0.9938	-1.1754	0.2393	0.373
-1.6414	0.7472	9.2487	-1.2338	1.2735	-0.3287	0.4683	0.012	-0.1441	-1.4671	-0.0722	10.1664	-0.2736	0.1887	0.0338	1.0078	-0.5353	-1.1326	8.8116	4.8083	0.3947	-0.17	0.6726	-1.2412	-1.1925	0.22	0.3929
-1.5808	0.92	9.4275	-0.9865	1.1412	-0.244	0.4563	0.012	-0.1381	-1.1342	0.3836	9.5802	-0.1179	0.2783	0.0048	1.0076	-0.5345	-1.1504	8.6449	4.2355	0.5642	-0.0835	0.827	-1.3619	-1.1409	0.2586	0.3534
-1.8063	0.6335	9.6588	-1.0448	1.2967	-0.2112	0.4503	0.006	-0.1501	-1.5991	-0.0163	9.3323	-0.122	0.0633	0.0318	1.0513	-0.5565	-1.1136	8.8063	4.5778	0.1021	0.0717	0.7339	-1.306	-1.1754	0.2393	0.373
-1.7444	0.749	9.8966	-1.1387	1.2699	-0.2396	0.4503	0	-0.1441	-1.3659	-0.1311	9.4556	-0.0914	0.0927	0.2177	1.0499	-0.4982	-1.1338	8.3002	4.3504	0.4411	0.0776	0.7022	-1.0604	-1.1415	0.2625	0.3167
-1.6346	0.6906	9.6032	-1.2061	1.3329	-0.4816	0.4623	0.006	-0.1381	-1.4778	-0.0733	9.6316	-0.0297	0.1519	0.4968	1.0368	-0.5553	-1.1316	8.5243	4.751	0.272	0.2057	0.7932	-0.7213	-1.1578	0.2217	0.3751
-1.6392	0.7475	9.3669	-1.0829	1.1142	-0.3638	0.4503	0.03	-0.1381	-1.4803	-0.0163	9.5129	0.2158	0.0568	0.2176	1.0657	-0.5738	-1.1663	8.8724	4.6367	0.5703	0.0537	0.8551	-0.6548	-1.1746	0.2004	0.4134
-1.8096	0.6331	9.4815	-0.9585	1.1701	-0.3665	0.4503	0.012	-0.1441	-1.3078	-0.3029	9.4565	0.2189	0.2105	0.1586	1.0651	-0.5377	-1.1143	8.6445	4.465	0.5651	0.0605	0.9463	-0.2824	-1.1752	0.255	0.3895
-1.7529	0.5179	9.4232	-0.583	0.8196	0.0189	0.4503	0.018	-0.1561	-1.3136	0.6124	9.28	0.1292	0.3351	0.0989	1.022	-0.535	-1.1503	8.4705	4.8664	0.4464	0.0289	0.885	-0.376	-1.1407	0.2235	0.3571
-1.2885	1.15	9.6701	-0.5857	0.9108	-0.133	0.4683	0.018	-0.1381	-1.1319	-0.0741	9.6387	0.0035	0.1841	0.0033	1.036	-0.517	-1.1331	8.5302	4.6373	0.5634	-0.1241	0.7317	-0.5007	-1.1755	0.2569	0.3711
-1.5137	1.3236	9.9616	-0.5846	0.972	-0.1327	0.4563	0.006	-0.1561	-1.1226	0.0413	10.1143	0.0339	0.1832	0.096	1.0513	-0.5565	-1.1136	8.8121	5.2674	0.4547	-0.1289	0.8247	-0.652	-1.2101	0.2552	0.3889
-1.5803	0.69	9.427	-0.3333	0.9316	0.044	0.4623	0.006	-0.1441	-2.0483	-0.0713	9.9168	0.2149	-0.0043	0.1547	1.0078	-0.5353	-1.1326	8.4121	4.2924	0.3264	-0.1951	0.8564	-0.8656	-1.1923	0.2356	0.4093
-1.6316	0.921	9.781	-0.4567	0.9368	0.047	0.4623	0.006	-0.1501	-1.1354	-0.0744	9.4605	0.0659	0.2741	0.2521	1.0228	-0.5733	-1.1488	8.5782	4.5208	0.0973	0.0701	0.7034	-1.3993	-1.175	0.2199	0.3932
-1.9832	0.9784	9.4789	-0.4024	0.8419	-0.1684	0.4563	0.006	-0.1621	-1.3646	-0.1882	9.5149	-0.0929	-0.0291	-0.0007	1.0084	-0.5721	-1.1668	8.5862	5.2682	0.5668	0.1252	0.9195	-1.5175	-1.1926	0.2375	0.391
-1.1217	0.8039	9.318	-0.4927	0.785	-0.0445	0.4623	0.012	-0.1501	-1.4202	-0.0162	9.6329	0.0006	0.0607	0.1555	1.0365	-0.5369	-1.1145	8.7584	4.5795	0.5678	0.1491	1.0434	-1.7302	-1.1746	0.2004	0.4134
-1.6281	0.8064	9.9581	-0.0283	0.8573	-0.0554	0.4623	0	-0.1501	-1.3673	-0.0168	9.3964	0.1222	-0.0031	0.2472	1.0226	-0.5557	-1.1138	8.1205	4.7508	0.0306	0.2624	1.1675	-2.0372	-1.1923	0.2356	0.4093
-1.5727	0.806	9.841	-0.2095	1.0485	-0.0194	0.4443	0	-0.1501	-1.3581	-0.4166	9.8116	0.0927	0.0589	0.2174	1.0223	-0.5534	-1.1674	8.4151	4.5225	0.5023	0.2715	1.1969	-1.605	-1.1567	0.2315	0.4466
-1.1115	0.7477	9.8498	-0.0054	0.7331	-0.2702	0.4743	0.024	-0.1561	-1.1277	-0.3027	9.8165	0.3338	-0.1913	0.3369	1.0649	-0.5362	-1.15	8.6935	4.4635	0.1577	0.21	1.4124	-1.4743	-1.1578	0.2217	0.3751
-1.3994	0.5757	9.8438	-0.3744	0.8708	-0.2909	0.4683	0.012	-0.1501	-1.3092	0.2693	9.4576	0.0943	0.1208	0.095	1.0086	-0.5737	-1.1311	8.6962	4.9804	0.3346	-0.0501	1.2263	-0.9504	-1.1749	0.253	0.4078
-1.2282	0.2877	9.7283	-0.312	0.8072	-0.2318	0.4563	0	-0.1561	-1.303	0.1555	9.7545	0.1256	0.1508	0.1264	1.0511	-0.5558	-1.1315	8.7488	4.8647	0.102	-0.1956	1.164	-0.6718	-1.2278	0.2396	0.3721
-1.7476	0.691	9.7191	-0.5525	1.0928	-0.1633	0.4503	0.006	-0.1561	-1.6531	-0.0731	9.5092	-0.1529	0.1238	0.3726	1.0086	-0.5737	-1.1311	8.2988	4.5223	0.3833	0.0247	1.1625	-0.368	-1.1573	0.2354	0.4099
-1.5182	0.0579	9.6039	-0.5546	0.9706	-0.164	0.4683	0	-0.1741	-1.1901	-0.303	9.5777	0.067	0.3354	0.2841	0.9941	-0.5717	-1.1669	8.2338	4.4635	-0.0265	0.0024	1.069	-0.062	-1.1405	0.2391	0.3736
-1.403	0.6903	9.6668	-0.2219	0.7116	-0.2651	0.4683	0.018	-0.1501	-0.9026	-0.0175	9.5842	-0.1169	0.3695	0.2226	1.0507	-0.5366	-1.1322	8.2946	4.9806	0.2099	0.2123	1.1306	-0.1877	-1.1926	0.2375	0.391
-1.7509	0.6331	9.5417	-0.4325	0.6907	-0.0465	0.4563	0.018	-0.1381	-1.4196	-0.3023	9.6323	-0.1449	0.4933	0.1012	1.0368	-0.5553	-1.1316	8.1926	4.5813	0.7898	0.4581	1.0066	-0.1962	-1.193	0.257	0.3708
-1.9861	0.748	9.3011	-0.4042	0.6891	-0.1387	0.4683	0.006	-0.1501	-1.1887	0.0978	9.6973	-0.0516	0.5528	0.1642	1.0515	-0.5742	-1.1486	8.5766	4.8074	0.04	0.2453	0.8225	-0.2897	-1.1928	0.2726	0.3873
-1.1668	0.6906	9.9668	-0.255	0.5296	-0.2348	0.4683	0.024	-0.1621	-1.3036	-0.0736	9.6946	-0.421	0.5289	0.0396	1.0666	-0.613	-1.1469	8.5819	5.0953	0.3328	0.635	0.9149	-0.5414	-1.2095	0.2006	0.4128
-1.3449	1.0928	9.728	-0.0996	0.4928	-0.1778	0.4563	0	-0.1441	-1.1304	-0.1884	9.6979	-0.5785	0.3473	0.067	1.0655	-0.5562	-1.1314	8.4678	5.0954	0.3305	0.6958	0.884	-0.5743	-1.1749	0.253	0.4078
-1.2864	0.5752	9.7278	-0.1903	0.4053	-0.0541	0.4623	0.024	-0.1561	-1.7636	0.3856	9.8049	-0.791	0.5044	0.0694	1.0371	-0.5738	-1.1487	8.4134	4.9239	0.4454	0.8701	1.0079	-0.8825	-1.1573	0.2354	0.4099
-1.6372	0.8628	9.4854	-0.184	0.4365	0.1595	0.4503	0.012	-0.1561	-1.0228	0.0395	9.3442	-1.04	0.3853	0.1904	1.023	-0.5748	-1.1131	8.3534	4.6365	0.2682	0.8651	1.1625	-1.0013	-1.1573	0.2354	0.4099
-1.3461	0.5176	9.6084	-0.2211	0.3151	0.0072	0.4563	-0.006	-0.1381	-1.5984	0.1555	9.392	-1.3781	0.3916	0.0664	1.0643	-0.4994	-1.1158	8.6397	4.6363	0.3323	0.8931	1.1936	-1.0935	-1.1753	0.2218	0.3749
-1.3499	0.7471	9.4316	-0.066	0.3087	0.0339	0.4623	0.012	-0.1501	-1.4257	0.2695	9.3958	-1.4052	0.6064	0.1937	1.0353	-0.4801	-1.0989	8.8109	4.5213	0.3353	0.7119	1.4398	-0.8362	-1.1582	0.2412	0.355
-1.6949	0.9204	9.4844	-0.215	0.3768	0.1904	0.4503	0.012	-0.1441	-1.1344	-0.0171	9.52	-1.5569	0.7017	0.0716	1.0658	-0.5746	-1.1485	8.5841	5.153	0.4497	0.9538	1.3472	-0.9978	-1.1587	0.2607	0.3348
-1.863	0.7487	9.717	-0.338	0.504	0.1331	0.4563	0.018	-0.1501	-1.7017	0.0997	9.9837	-1.8667	0.6445	0.3171	1.0506	-0.5358	-1.1501	8.2389	4.8661	0.2667	1.0421	1.6551	-0.9292	-1.1579	0.2392	0.3733
-1.5182	0.6905	9.6645	-0.4666	0.3561	0.0439	0.4563	-0.006	-0.1381	-1.3553	-0.0728	9.9905	-2.017	0.7713	-0.0206	1.0377	-0.5937	-1.1301	8.5284	4.2927	0.4454	1.318	1.6542	-0.8731	-1.1578	0.2217	0.3751
-1.2859	0.9203	9.7878	-0.2423	0.4395	0.283	0.4503	0.018	-0.1501	-1.4773	-0.245	9.6313	-1.6792	0.7648	0.1651	1.036	-0.517	-1.1331	8.0713	4.867	0.4384	1.2035	1.9302	-0.3389	-1.1757	0.2413	0.3547
-1.508	0.6343	10.1963	-0.1828	0.4061	0.2203	0.4443	0.018	-0.1501	-1.4274	-0.0169	9.2764	-1.6525	0.5494	0.1614	1.0643	-0.4994	-1.1158	8.0721	5.0967	0.4976	1.5792	1.9585	0.1168	-1.1923	0.2863	0.4221
-1.9766	1.0942	9.8338	-0.2167	0.3766	0.1295	0.4503	0.018	-0.1501	-1.3678	0.1549	9.3968	-1.4721	0.3312	0.2195	1.0231	-0.5756	-1.0952	8.4111	4.9234	0.3287	1.4652	2.0191	0.5216	-1.1761	0.2608	0.3345
-1.7433	0.8066	9.9558	-0.2767	0.3794	0.1919	0.4563	0.018	-0.1621	-1.4826	-0.5317	9.3336	-0.3643	0.3722	0.5619	1.0656	-0.5569	-1.1135	8.3538	5.0956	0.3282	1.709	1.9878	0.485	-1.1575	0.2198	0.3935
-1.4059	0.4599	9.4889	-0.3658	0.6887	0.1349	0.4503	0.018	-0.1561	-1.7661	0.4426	9.6861	-0.1788	0.3701	0.3151	1.0513	-0.5565	-1.1136	8.6944	4.6358	0.2167	1.8564	2.0497	0.2988	-1.1582	0.2919	0.3677
-1.8108	0.633	9.4224	-0.1533	0.6182	0.0378	0.4503	0.018	-0.1441	-1.4256	-0.2457	9.3354	-0.12	0.2458	0.4366	1.0211	-0.4966	-1.1519	8.6393	4.8657	0.3331	2.0365	2.1112	0.2045	-1.1747	0.2179	0.4115
-1.6345	0.6331	9.603	0.06	0.7004	-0.1195	0.4743	0.024	-0.1441	-1.1899	0.0977	9.6379	0.1246	0.1198	0.2185	1.0521	-0.5949	-1.1121	8.7504	4.5781	0.1593	1.9682	2.2355	-0.0372	-1.175	0.2199	0.3932
-1.6949	0.2878	9.4238	-0.3113	0.6548	-0.1107	0.4503	0.012	-0.1441	-1.3049	-0.0165	9.6353	0.7112	0.232	0.3451	1.0926	-0.4818	-1.0985	8.4667	5.0952	0.2721	1.8564	2.2342	0.4274	-1.1587	0.2099	0.322
-1.5751	0.2881	9.6624	-0.1894	0.5579	-0.1142	0.4503	0.018	-0.1501	-0.8391	0.0401	9.8826	0.7128	0.2939	0.2227	1.065	-0.537	-1.1321	8.5788	4.9225	0.1571	1.8935	2.1101	0.6389	-1.1403	0.2548	0.39
-1.8644	0.9211	9.6583	0.0557	0.3949	-0.0906	0.4623	0.006	-0.1501	-1.4193	0.0984	9.6926	0.7728	0.231	0.3452	1.0513	-0.5565	-1.1136	8.6898	4.6349	-0.0167	1.4618	2.0196	0.3675	-1.1749	0.253	0.4078
-1.4074	0.6897	9.4304	0.2747	0.5692	-0.0949	0.4503	0.006	-0.1441	-1.4791	-0.0162	9.5723	0.6182	0.2028	0.3753	1.0499	-0.4982	-1.1338	8.9795	4.6927	0.2226	1.4313	2.0197	0.3681	-1.176	0.2432	0.3363
-1.3463	0.6326	9.6087	0.0602	0.5174	0.0015	0.4623	0.006	-0.1441	-1.6495	-0.0727	9.6875	0.5913	0.3878	0.2859	1.0517	-0.5757	-1.1129	8.4744	4.5802	0.6204	1.127	1.9281	0.3408	-1.1226	0.2196	0.3941
-1.5194	0.7479	9.6056	0.0899	0.5465	-0.0601	0.4443	0.006	-0.1621	-1.1338	-0.246	9.5196	0.3751	0.3307	0.161	1.0651	-0.5377	-1.1143	8.805	4.6923	0.0441	1.1313	1.8659	0.493	-1.1749	0.253	0.4078
-1.2189	0.7489	10.2613	0.213	0.4193	-0.0028	0.4503	0.018	-0.1381	-1.3646	0.3269	9.5754	0.068	0.3966	0.316	1.0516	-0.5749	-1.1307	8.806	4.7499	0.1027	1.0689	1.8662	0.4326	-1.193	0.2063	0.3581
-1.5231	0.9199	9.4287	-0.0555	0.8285	0.0976	0.4563	0.018	-0.1501	-1.1279	-0.2454	9.8167	-0.0248	0.3676	0.2845	1.0642	-0.4986	-1.1337	8.5858	4.8091	0.5068	0.8548	1.8669	0.4061	-1.1925	0.2707	0.4056
-1.5777	0.4603	9.5446	0.0255	0.4878	-0.1198	0.4503	0.012	-0.1381	-1.3072	-0.0739	9.5163	-0.1185	0.3076	0.345	1.0643	-0.5155	-1.1865	8.4638	4.7504	0.0958	1.0346	1.8977	0.2801	-1.1746	0.2511	0.4261
-1.5191	0.5754	9.6051	0.1884	0.5433	0.1511	0.4863	0.018	-0.1501	-1.1406	0.0968	9.2231	-0.1176	0.3386	0.2529	1.0361	-0.5339	-1.1859	8.4126	4.6942	0.3863	0.8794	1.6216	-0.0329	-1.2103	0.222	0.3743
-1.1195	0.8042	9.4363	0.2095	0.5104	-0.1852	0.4683	0.006	-0.1561	-1.2497	-0.0168	9.5176	-0.1488	0.3086	0.2214	1.0369	-0.5561	-1.1137	8.6966	4.6935	0.3336	0.8732	1.7149	-0.2459	-1.1925	0.22	0.3929
-1.1139	0.8049	9.7318	0.2755	0.4168	0.0262	0.4503	0.012	-0.1501	-1.535	-0.2448	9.6301	-0.274	0.2182	0.3123	1.0082	-0.5545	-1.1318	8.5214	5.1521	0.1568	0.9015	1.4998	-0.4992	-1.1579	0.2392	0.3733
-1.5208	0.8627	9.5467	0.0603	0.6699	-0.0891	0.4443	0.024	-0.1441	-0.72	-0.0743	10.063	-0.1805	0.248	0.1585	1.0501	-0.5159	-1.1687	8.4733	4.5226	0.5618	0.8136	1.5303	-0.3117	-1.1751	0.2374	0.3913
-1.5151	0.2308	9.7816	0.1508	0.5438	-0.0921	0.4503	0.006	-0.1441	-1.1368	-0.4753	9.3408	-0.3639	0.3127	0.1285	1.0525	-0.6141	-1.1113	8.5288	4.7518	0.5055	0.9315	1.7151	-0.3704	-1.1753	0.2218	0.3749
-1.578	0.6328	9.5451	-0.0326	0.5518	-0.0265	0.4623	-0.006	-0.1441	-1.3603	-0.474	9.6926	-0.5456	0.4693	0.131	1.0357	-0.4985	-1.116	8.5836	4.7513	0.3899	0.8225	1.6211	0.1531	-1.1755	0.2569	0.3711
-1.4056	0.92	9.5491	-0.0377	0.3987	-0.1188	0.4563	0.018	-0.1501	-1.1314	-0.2458	9.6384	-0.5468	0.4379	0.2848	1.0221	-0.5357	-1.1325	8.635	4.6928	0.099	0.9233	1.4042	0.4224	-1.1576	0.2373	0.3916
-1.6902	0.8059	9.7205	0.0236	0.4266	-0.1507	0.4503	-0.006	-0.1501	-1.1307	-0.074	9.6982	-0.084	0.4614	0.1316	1.0354	-0.497	-1.1518	8.5825	4.6937	0.3313	0.7105	1.6814	0.6503	-1.1581	0.2743	0.3696
-1.3481	0.3448	9.4898	-0.0964	0.4321	-0.0257	0.4683	0.018	-0.1441	-1.3575	0.3276	9.9319	-0.3657	0.2505	0.3127	1.0227	-0.5726	-1.1667	8.4077	4.9228	0.1537	0.7724	1.6196	0.6473	-1.1756	0.2237	0.3565
-1.6329	0.9783	9.7221	-0.0649	0.5224	-0.0564	0.4563	0.018	-0.1441	-1.6492	0.2708	9.7476	-0.3926	0.3756	-0.1175	1.0223	-0.5534	-1.1674	8.584	5.2104	0.4499	0.4068	1.5897	0.6538	-1.1227	0.2371	0.3922
-1.6316	0.921	9.781	0.1828	0.7562	-0.1831	0.4563	0.012	-0.1561	-1.5922	0.0416	9.6889	-0.3948	0.3131	0.1593	1.0227	-0.5726	-1.1667	8.3497	4.808	0.0937	0.4346	1.6823	0.5942	-1.1574	0.2022	0.3953
-1.5182	0.6905	9.6645	-0.1542	0.6181	0.0073	0.4443	0.006	-0.1501	-0.9609	0.2687	9.5836	-0.5776	0.4385	0.2848	1.0086	-0.5737	-1.1311	8.5199	4.6354	0.0382	0.4628	1.5595	0.4052	-1.1223	0.2176	0.4124
-1.5224	1.15	9.4883	-0.1304	0.4941	-0.177	0.4503	0	-0.1561	-1.2521	0.4981	9.4593	-0.7918	0.5035	0.2856	1.0359	-0.5162	-1.151	8.4125	4.7516	0.3865	0.4599	1.7138	0.3788	-1.1577	0.2549	0.3897
-1.6939	0.3454	9.483	-0.0982	0.5234	-0.1471	0.4563	0.006	-0.1381	-1.3063	0.0407	9.576	-0.333	0.3423	0.2526	0.9796	-0.5544	-1.1142	8.6366	4.4062	0.1564	0.4845	1.6531	0.0683	-1.1749	0.253	0.4078
-1.5774	0.9204	9.6049	-0.0068	0.5499	-0.2102	0.4563	0.006	-0.1501	-1.1292	-0.1883	9.7573	-0.3916	0.4968	0.2553	1.0087	-0.5744	-1.1132	8.5807	4.4065	0.2136	0.3937	1.561	0.0367	-1.1568	0.1983	0.432
-1.5789	0.5177	9.4857	0.0244	0.6707	-0.2713	0.4623	0.012	-0.1501	-1.4205	0.0983	9.6331	-0.3925	0.4058	0.0066	1.0361	-0.5177	-1.1153	8.2994	4.8667	0.4429	0.2933	1.5626	-0.362	-1.1756	0.2237	0.3565
-1.1192	0.6317	9.4358	0.1473	0.4824	-0.1838	0.4743	0.012	-0.1561	-1.4179	-0.0159	9.7518	-0.6669	0.5636	0.1015	1.0216	-0.5327	-1.2039	8.3545	4.6367	0.3265	0.1984	1.471	-0.5785	-1.1747	0.2179	0.4115
-1.1187	0.9768	9.4958	0.1811	0.512	-0.093	0.4443	-0.006	-0.1501	-1.4792	0.0411	9.5724	-0.7303	0.4424	-0.0243	1.0364	-0.5361	-1.1324	8.5834	4.1201	0.3292	0.0784	1.471	-0.4836	-1.159	0.2626	0.3165
-1.2239	0.4032	9.965	0.1573	0.7276	0.0309	0.4623	0.018	-0.1501	-1.3093	-0.1886	9.3973	-0.7601	0.504	0.0386	1.0507	-0.5366	-1.1322	8.5777	4.865	0.0985	-0.1612	1.5017	-0.2622	-1.1585	0.2256	0.3385
-1.5201	1.0928	9.6064	0.21	0.541	-0.185	0.4743	0.018	-0.1501	-1.5433	-0.2456	9.2141	-0.5138	0.5	0.008	1.0079	-0.536	-1.1147	8.4644	4.3489	0.0944	-0.1829	1.3159	0.0104	-1.1752	0.2042	0.3767
-1.6399	0.5174	9.3072	0.2776	0.539	0.0269	0.4743	0	-0.1561	-1.3598	-0.1878	9.7526	-0.762	0.4118	0.0678	1.0646	-0.5178	-1.1329	8.3497	4.7506	0.0935	-0.027	1.4072	0.2257	-1.1932	0.2414	0.3544
-1.7462	0.5187	9.7778	-0.0331	0.6737	-0.1173	0.4503	0.012	-0.1621	-1.0201	-0.0747	9.4629	-0.642	0.286	0.282	1.066	-0.5761	-1.1127	9.0916	4.4626	0.1074	0.096	1.3453	0.2214	-1.176	0.2432	0.3363
-1.2886	0.575	9.6096	0.0335	0.6107	0.0942	0.4683	0.006	-0.1621	-1.5413	-0.5889	9.2729	-0.5493	0.285	0.1586	1.065	-0.537	-1.1321	8.5184	4.8646	-0.0193	0.0985	1.3141	0.313	-1.1408	0.2411	0.3553
-1.5198	0.9203	9.606	-0.0956	0.6762	-0.1463	0.4563	-0.006	-0.1501	-0.9586	-0.189	9.6421	-0.1467	0.4011	0.1304	1.0237	-0.5956	-1.0766	8.6362	4.6356	0.1572	0.3388	1.3756	0.1866	-1.1928	0.2219	0.3746
-1.6351	0.978	9.6039	0.1227	0.759	-0.1206	0.4443	0.006	-0.1381	-1.4142	-0.0728	9.9299	0.0019	0.1823	0.4356	1.0517	-0.5757	-1.1129	9.0401	4.5785	0.3984	0.5407	1.4692	-0.2771	-1.1573	0.2354	0.4099
-1.7491	0.8634	9.6605	-0.0619	0.7973	-0.1159	0.4563	0.018	-0.1441	-1.2935	0.1564	10.2298	-0.0563	0.3373	0.3148	1.0374	-0.5753	-1.113	8.5193	4.291	-0.0214	0.6358	1.4991	-0.0932	-1.1581	0.2743	0.3696
-1.743	0.6341	9.9554	-0.0942	0.6154	-0.0552	0.4623	0.006	-0.1441	-0.6739	0.2679	9.5301	-0.0263	0.3059	0.376	1.0367	-0.5546	-1.1495	8.6925	4.4059	0.0991	0.5732	1.561	-0.121	-1.2264	0.1968	0.4491
-1.2367	0.6317	9.3154	-0.0011	0.6421	-0.0573	0.4683	0.018	-0.1441	-1.3026	-0.0162	9.7541	0.0661	0.3044	0.3453	1.007	-0.4977	-1.1163	8.7601	4.9241	0.6857	0.3015	1.469	-0.0566	-1.1405	0.2391	0.3736
-1.2314	0.1723	9.5507	-0.0675	0.6136	-0.2084	0.4443	-0.006	-0.1561	-1.6513	-0.3019	9.5682	0.0041	0.2749	0.3138	1.0648	-0.5355	-1.1679	8.2329	4.3486	-0.0853	0.21	1.377	-0.119	-1.1405	0.2391	0.3736
-1.2918	0.4596	9.432	-0.2538	0.6518	-0.2646	0.4443	0.018	-0.1561	-1.306	-0.0738	9.5758	0.1544	0.058	0.1866	1.0504	-0.5181	-1.1152	8.3528	4.2347	0.2084	0.0641	1.2533	0.0961	-1.1584	0.2763	0.3512
-1.5681	0.7491	10.0773	-0.0617	0.7058	-0.0554	0.4503	0.018	-0.1621	-1.6608	-0.3028	9.0928	0.3716	0.1764	0.3435	1.0501	-0.4997	-1.0981	8.5783	4.4634	0.0971	0.0618	1.2229	-0.028	-1.192	0.2336	0.4277
-1.5168	1.1507	9.7838	-0.1539	0.8317	-0.1135	0.4683	0.018	-0.1501	-1.1824	0.4419	10.0545	0.7124	0.2634	0.1912	1.037	-0.5568	-1.0959	8.4621	4.4058	-0.0221	-0.0888	1.0077	-0.0928	-1.158	0.2568	0.3714
-1.8122	0.8053	9.3637	0.1207	0.7893	-0.2119	0.4563	0.018	-0.1441	-1.4128	-0.1299	9.9892	0.2833	0.4229	0.5022	1.0374	-0.5922	-1.1658	8.4686	4.6365	0.3288	-0.0993	1.2554	-0.3937	-1.1749	0.253	0.4078
-1.5199	0.9778	9.6061	0.0878	0.6683	-0.2118	0.4563	0.024	-0.1441	-1.3065	-0.3601	9.5158	0.4051	0.3292	0.3772	1.0648	-0.5355	-1.1679	8.5793	4.5784	0.1558	-0.074	1.1023	-0.7377	-1.157	0.2335	0.4283
-1.7516	0.403	9.482	0.1483	0.5435	-0.1835	0.4563	0.012	-0.1501	-1.2559	0.6122	9.2812	0.4348	0.2973	0.5311	1.0227	-0.5564	-1.096	8.2867	4.9217	-0.1988	-0.2103	1.1971	-1.3179	-1.1754	0.2393	0.373
-1.2879	0.8051	9.6693	0.3021	0.6591	-0.2781	0.4683	0.018	-0.1501	-1.0138	-0.2458	9.7596	0.4403	0.5439	0.2884	1.0647	-0.5186	-1.115	8.6928	4.9224	0.1594	-0.2438	1.0746	-1.5365	-1.1571	0.2003	0.4137
-1.4098	0.747	9.3123	0.119	0.6365	-0.1823	0.4623	0.006	-0.1441	-1.13	-0.3601	9.6976	0.009	0.5207	0.2564	1.0499	-0.4982	-1.1338	8.5846	4.8089	0.4485	-0.1564	1.2596	-1.5946	-1.1402	0.2372	0.3919
-1.7524	0.863	9.4831	0.1793	0.6033	-0.2144	0.4383	-0.012	-0.1441	-1.3547	0.1562	10.0504	-0.1161	0.4305	0.3163	1.0509	-0.5542	-1.1672	8.5324	3.9491	0.6193	-0.2727	0.8284	-1.6355	-1.1756	0.2744	0.3693
-1.9782	0.6915	9.7146	-0.0285	0.5522	0.1259	0.4503	0.006	-0.1741	-1.1256	0.27	9.996	-0.1486	0.3089	0.1597	1.0222	-0.5365	-1.1146	8.5324	4.695	0.6803	-0.3278	1.0737	-1.1958	-1.1918	0.1985	0.4314
-1.8112	0.8629	9.4229	-0.0956	0.6762	-0.1463	0.4623	0	-0.1441	-1.1913	-0.3031	9.5182	-0.3327	0.3427	0.16	1.0663	-0.5946	-1.1298	8.526	5.0956	0.39	-0.4701	1.0724	-0.7306	-1.1754	0.1886	0.3603
-1.2281	0.2302	9.7281	-0.2486	0.5608	-0.0212	0.4683	0.024	-0.1501	-1.2432	-0.2452	9.8143	-0.7321	0.3802	0.1599	1.0513	-0.5565	-1.1136	8.6429	4.7516	0.5077	-0.4946	1.0408	-0.4844	-1.158	0.2061	0.3587
-1.6813	0.8645	10.1935	-0.0368	0.5513	-0.179	0.4563	0.012	-0.1621	-1.364	-0.4172	9.5145	-0.4567	0.3137	0.2519	1.0656	-0.5569	-1.1135	8.8094	4.7505	0.2777	-0.7027	1.0405	-0.2337	-1.1747	0.2179	0.4115
-1.6362	0.9779	9.5448	-0.0675	0.6136	-0.2084	0.4563	0.018	-0.1501	-1.5936	0.1559	9.6297	-0.4532	0.4678	0.1002	1.0516	-0.5749	-1.1307	8.641	4.5217	0.3902	-0.3965	0.9166	-0.2742	-1.1924	0.2531	0.4075
-1.3535	0.8617	9.2546	-0.3117	0.5327	-0.0504	0.4563	0.006	-0.1441	-1.3019	-0.3024	9.7536	-0.3314	0.4343	0.2851	1.0366	-0.5377	-1.0966	8.3455	4.5203	-0.1407	-0.4917	0.8866	-0.4581	-1.1744	0.216	0.4298
-1.5809	0.9775	9.4277	-0.037	0.6428	-0.2395	0.4623	0.006	-0.1561	-0.9568	0.0402	9.7614	-0.3321	0.4034	0.3155	1.0506	-0.5358	-1.1501	8.5833	4.1774	0.3295	-0.2547	0.9486	-0.7385	-1.175	0.2199	0.3932
-1.5745	0.5758	9.7222	-0.0031	0.5198	-0.0579	0.4563	0.024	-0.1621	-1.242	-0.245	9.8737	-0.1468	0.431	0.3163	1.0658	-0.5746	-1.1485	8.4676	4.5216	0.2701	-0.4452	1.0425	-1.0094	-1.1758	0.2588	0.3528
-1.7502	0.8633	9.6013	-0.1249	0.7692	-0.1451	0.4563	0	-0.1441	-1.0155	-0.017	9.7006	-0.425	0.3743	0.3148	1.0091	-0.5936	-1.1124	8.6393	4.8657	0.3331	-0.1671	0.9797	-0.8934	-1.1585	0.2256	0.3385
-1.4044	0.8626	9.6081	0.0215	0.7924	-0.4536	0.4623	0.006	-0.1501	-0.9586	-0.189	9.6421	-0.3629	0.3739	0.1605	1.0798	-0.5566	-1.1313	8.6985	4.9234	0.4512	-0.2586	1.0722	-0.8273	-1.1756	0.2237	0.3565
-1.5797	0.9777	9.4868	-0.2478	0.8049	-0.1419	0.4503	0.018	-0.1441	-1.3577	-0.0731	9.8717	-0.4254	0.3438	0.2834	1.0364	-0.5361	-1.1324	8.5869	4.1207	0.5043	-0.2265	1.1027	-0.7346	-1.1223	0.2176	0.4124
-1.3993	0.5182	9.8437	-0.1656	0.8304	-0.5403	0.4503	0.006	-0.1501	-1.5386	0.27	9.5123	-0.1777	0.4314	0.3471	1.0799	-0.5574	-1.1134	8.5778	4.8076	0.0983	-0.1587	0.8246	-0.6206	-1.1755	0.2062	0.3584
-1.5796	0.9202	9.4866	-0.0356	0.9175	-0.3599	0.4383	0.018	-0.1501	-1.3506	-0.0724	10.2282	-0.2089	0.3714	0.1298	1.0508	-0.5373	-1.1144	8.4114	4.694	0.3279	-0.1031	0.8253	-0.8683	-1.211	0.2434	0.3358
-1.2887	0.6325	9.6098	0.0344	0.7633	0.0341	0.4503	0.024	-0.1621	-1.7701	-0.3592	9.3874	-0.0867	0.3383	0.2221	1.0514	-0.5573	-1.0958	8.586	4.6943	0.5064	-0.226	0.795	-0.9284	-1.1924	0.2531	0.4075
-1.2344	1.207	9.4941	-0.0682	0.7661	-0.3295	0.4503	0.024	-0.1561	-1.3072	-0.0739	9.5163	0.283	0.3325	0.0991	1.0518	-0.5765	-1.095	9.3259	4.9224	0.4637	-0.1669	1.0105	-0.8617	-1.1757	0.2413	0.3547
-1.637	0.7478	9.4851	-0.1541	0.7707	-0.0833	0.4623	0.006	-0.1441	-1.5365	-0.1305	9.5709	0.0358	0.2754	0.0667	1.0372	-0.5907	-1.2015	8.4713	4.3501	0.4445	-0.1359	0.9796	-0.8632	-1.2105	0.2064	0.3578
-1.2821	0.6908	9.9645	-0.0693	0.705	-0.3298	0.4383	0.012	-0.1501	-1.1295	-0.0739	9.7576	-0.1155	0.4311	0.1619	1.0363	-0.5354	-1.1502	8.5847	4.7515	0.4482	-0.2317	1.042	-1.0137	-1.2096	0.2181	0.4109
-1.4596	0.748	9.7249	-0.2471	0.8965	-0.1719	0.4563	0.018	-0.1501	-1.4214	-0.0163	9.5735	-0.0258	0.3064	0.2525	1.0513	-0.5565	-1.1136	8.6851	4.7488	-0.2497	-0.2577	1.0106	-0.8291	-1.176	0.2432	0.3363
-1.2874	1.1502	9.7292	-0.189	0.68	-0.1745	0.4563	0	-0.1501	-1.1817	-0.3594	9.9935	0.0649	0.2429	0.3751	1.0223	-0.5534	-1.1674	8.2962	4.694	0.2673	0.0138	1.1642	-0.861	-1.1049	0.2351	0.4108
-1.582	0.9774	9.3686	-0.0316	0.8569	-0.1773	0.4623	0.012	-0.1501	-1.3544	0.0417	10.0502	-0.1492	0.2782	0.1591	1.0649	-0.5362	-1.15	8.4209	4.4662	0.7939	-0.1027	0.8868	-0.8049	-1.1573	0.2354	0.4099
-1.2822	0.7483	9.9647	-0.1858	0.7719	-0.1131	0.4623	0.006	-0.1501	-1.303	0.1555	9.7545	-0.1172	0.3691	0.3152	1.0507	-0.5366	-1.1322	8.4143	4.3502	0.4434	0.1372	1.1636	-0.8018	-1.1411	0.243	0.3369
-1.4089	0.8621	9.3717	0.0629	0.8228	-0.0883	0.4623	0.024	-0.1621	-1.4239	0.0407	9.4548	0.2204	0.3322	0.4078	1.0367	-0.5546	-1.1495	8.4642	4.521	0.095	0.0484	1.0712	-0.741	-1.1579	0.2392	0.3733
-1.6913	0.8058	9.6614	-0.188	0.7411	-0.1742	0.4503	0.018	-0.1381	-1.2469	-0.1883	9.6361	0.2182	0.2396	0.5297	1.065	-0.537	-1.1321	8.4662	4.6935	0.2123	-0.0103	1.1017	-0.6157	-1.1745	0.2335	0.428
-1.8629	0.6913	9.7169	-0.1905	0.7409	-0.2657	0.4443	0.018	-0.1501	-1.2491	-0.2457	9.5172	0.5564	0.2036	0.437	1.0496	-0.4798	-1.1167	8.9273	4.5215	0.4543	0.1106	1.1324	-0.648	-1.1751	0.2374	0.3913
-1.4633	0.9776	9.5481	-0.2192	0.7729	-0.2038	0.4623	0.012	-0.1501	-1.2469	0.3269	9.6966	0.5588	0.3263	0.4392	1.0235	-0.594	-1.1123	8.6908	4.7499	0.042	0.1666	1.1945	-0.8323	-1.1582	0.2412	0.355
-1.577	0.6905	9.6043	-0.2196	0.8949	-0.2946	0.4563	0.012	-0.1561	-1.2388	-0.073	10.0523	0.2841	0.4238	0.286	1.0643	-0.4994	-1.1158	8.4071	4.5784	0.0941	0.0186	1.2557	-0.581	-1.1225	0.2527	0.4086
-1.6939	0.978	9.5436	-0.1838	0.7416	-0.0218	0.4563	0.018	-0.1381	-1.3058	-0.6462	9.5152	0.1892	0.2723	0.1905	1.0367	-0.5546	-1.1495	8.235	5.2097	0.0929	-0.0137	1.3791	-0.5769	-1.1925	0.22	0.3929
-1.5219	0.8626	9.4876	-0.159	0.6786	-0.2058	0.4563	0.006	-0.1441	-1.125	-0.4741	9.935	0.1902	0.3035	0.0675	1.0218	-0.5173	-1.1154	8.4164	4.4654	0.5605	0.014	1.3794	-0.7007	-1.1579	0.1885	0.3606
-1.579	0.5752	9.4858	-0.2532	0.6823	-0.2645	0.4623	0.024	-0.1621	-1.4676	-0.3585	10.1064	0.2845	0.4242	0.1934	1.0365	-0.5369	-1.1145	8.3608	4.2936	0.6171	0.2583	1.3173	-0.7382	-1.1755	0.2569	0.3711
-1.5178	0.4605	9.664	0.0588	0.7308	-0.1803	0.4683	0.018	-0.1621	-1.2537	0.1545	9.3397	0.2844	0.4541	0.3792	1.0655	-0.5562	-1.1314	7.8961	4.5223	0.2003	0.2531	1.072	-1.1458	-1.1403	0.2548	0.39
-1.7543	0.6327	9.3644	0.0253	0.6708	-0.2408	0.4623	0.006	-0.1621	-1.826	-0.0727	9.5056	0.3127	0.3006	0.253	1.094	-0.5563	-1.149	8.8118	4.6936	0.3943	0.5257	1.2869	-1.0835	-1.2103	0.222	0.3743
-1.4053	0.7475	9.5487	-0.1244	0.7998	-0.1449	0.4743	-0.006	-0.1501	-1.1874	0.0407	9.7566	0.1603	0.4251	0.4711	1.0513	-0.5565	-1.1136	8.1844	4.7519	0.3819	0.7417	1.163	-1.0605	-1.1749	0.2023	0.395
-1.1656	0.6332	10.0258	-0.0636	1.0411	-0.328	0.4683	0.012	-0.1621	-1.3602	-0.0161	9.7529	0.0983	0.3655	0.2847	1.0363	-0.5354	-1.1502	8.4131	4.35	0.385	0.83	1.194	-1.1847	-1.158	0.2568	0.3714
-1.5134	0.5186	9.9005	-0.0661	0.6443	-0.1777	0.4683	-0.006	-0.1501	-1.1224	0.442	10.1746	-0.2379	0.4941	0.2864	1.064	-0.4971	-1.1694	8.4718	4.7519	0.5043	1.0096	1.2864	-1.2781	-1.1931	0.2238	0.3562
-1.2274	1.0929	9.8484	-0.1551	0.7096	-0.0837	0.4803	0.006	-0.1501	-1.5961	0.2129	9.511	0.0374	0.4273	0.4401	1.0361	-0.5177	-1.1153	8.7438	4.4048	-0.1915	0.7963	1.4099	-1.1778	-1.1583	0.2587	0.3531
-1.5779	0.5753	9.5449	-0.0302	0.6435	0.0044	0.4563	0.012	-0.1621	-1.0752	0.3264	9.6407	-0.3019	0.3722	0.315	1.0377	-0.5937	-1.1301	8.6354	4.406	0.098	0.8953	1.4085	-0.8408	-1.2109	0.2258	0.3376
-1.574	0.2883	9.7215	-0.0599	0.767	-0.0246	0.4503	0.006	-0.1501	-1.1302	0.2123	9.7582	-0.2367	0.5254	0.1325	1.0655	-0.5562	-1.1314	8.6419	4.694	0.4492	0.7715	1.7167	-0.7062	-1.21	0.2376	0.3907
-1.7532	0.6904	9.4236	-0.1824	0.7722	0.0089	0.4623	0.012	-0.1621	-1.1833	-0.1878	9.9344	-0.36	0.5573	0.3491	1.0228	-0.5733	-1.1488	8.4644	4.3489	0.0944	0.6825	1.5935	-0.6771	-1.1746	0.2511	0.4261
-1.5779	0.5753	9.5449	-0.1869	0.5582	-0.0227	0.4623	0.012	-0.1501	-1.3019	-0.3024	9.7536	-0.3322	0.4033	0.3464	1.0507	-0.5366	-1.1322	8.2411	4.9239	0.3837	0.8962	1.5314	-0.714	-1.1586	0.2938	0.3494
-1.6302	0.7486	9.8397	-0.2773	0.8369	-0.1105	0.4563	0	-0.1621	-1.1348	0.1546	9.5204	-0.396	0.2517	0.1582	1.0372	-0.5745	-1.1308	8.3566	4.7518	0.4437	0.7744	1.8392	-0.487	-1.1576	0.2373	0.3916
-1.634	0.9782	9.663	-0.1189	0.8309	0.0382	0.4623	0.012	-0.1621	-1.365	-0.0165	9.5153	-0.3318	0.4037	0.2537	1.0645	-0.517	-1.1508	8.468	4.2348	0.269	0.9258	1.6853	-0.6485	-1.2102	0.2727	0.387
-1.4645	0.9774	9.489	-0.1509	0.8625	-0.0219	0.4383	0.018	-0.1441	-1.0725	0.2121	9.7593	-0.0872	0.3077	0.1906	1.0517	-0.5757	-1.1129	8.2903	4.865	-0.0239	0.9486	1.8402	-0.8912	-1.1748	0.2355	0.4096
-1.6904	0.2884	9.6602	-0.2176	0.6205	-0.0521	0.4503	0.018	-0.1561	-1.1326	0.2121	9.6393	-0.179	0.3098	0.067	1.0213	-0.4981	-1.1162	8.5803	4.6359	0.2144	1.0062	1.656	-1.175	-1.1927	0.2043	0.3764
-1.293	1.1495	9.4337	-0.0928	0.646	-0.0245	0.4623	-0.006	-0.1561	-1.1897	-0.4747	9.5773	0.0962	0.2731	0.3757	1.0519	-0.5934	-1.1478	8.1836	4.5222	0.3227	1.1539	1.8409	-1.2652	-1.2281	0.2416	0.3538
-1.3398	0.7484	9.9636	-0.0368	0.7038	-0.2696	0.4563	0.006	-0.1441	-1.5405	-0.4171	9.3326	-0.05	0.6448	0.1967	1.05	-0.5151	-1.1866	8.4777	4.6382	0.7957	1.1858	1.8406	-1.2042	-1.1933	0.2082	0.3398
-1.573	0.9785	9.8414	-0.0595	0.7365	0.0057	0.4563	0.018	-0.1561	-0.8415	0.0399	9.7637	-0.208	0.4324	0.2235	1.0224	-0.5541	-1.1496	8.4705	4.8664	0.4464	1.0087	1.9017	-0.8906	-1.2103	0.222	0.3743
-1.7483	0.4609	9.6595	-0.0298	0.5216	0.0952	0.4383	0.012	-0.1561	-1.4219	0.1554	9.5738	-0.4547	0.4061	0.1918	1.0792	-0.5367	-1.1499	8.6333	4.3482	-0.0189	0.7146	1.7162	-0.5201	-1.2106	0.2239	0.356
-1.4633	0.9776	9.5481	0.0918	0.6077	-0.0292	0.4503	0.018	-0.1561	-1.4179	-0.0159	9.7518	-0.4253	0.3739	0.4074	1.0364	-0.5361	-1.1324	8.3589	4.7523	0.5604	0.7264	1.6528	-0.029	-1.1572	0.2178	0.4118
-1.7581	0.9198	9.1878	-0.0326	0.7043	-0.1172	0.4563	0.006	-0.1501	-1.3585	0.2703	9.8724	-0.5491	0.3152	0.2826	1.0658	-0.5746	-1.1485	8.6968	4.5788	0.3332	0.7647	1.3132	0.0839	-1.1755	0.2569	0.3711
-1.5174	0.8631	9.7241	-0.0365	0.5208	-0.1486	0.4443	0.018	-0.1501	-1.3637	0.4415	9.635	-0.2994	0.4951	0.2863	1.0368	-0.5553	-1.1316	8.808	4.9224	0.22	1.0082	1.4357	0.1441	-1.1571	0.2003	0.4137
-1.295	0.4016	9.2546	-0.0985	0.5539	-0.1775	0.4563	0.006	-0.1441	-1.3544	0.0417	10.0502	-0.0846	0.4908	0.441	1.0509	-0.5542	-1.1672	8.6984	4.9808	0.4514	0.8475	1.4374	-0.2225	-1.1917	0.181	0.4333
-1.8117	0.5178	9.363	0.0311	0.6714	-0.0274	0.4623	0.006	-0.1561	-1.2462	0.0408	9.696	-0.333	0.3423	0.2526	1.0653	-0.5385	-1.0964	8.7484	5.0942	0.1028	1.2379	1.4374	-0.5077	-1.1402	0.2372	0.3919
-1.5725	0.691	9.8407	-0.0959	0.7067	-0.1766	0.4503	0.036	-0.1441	-1.1951	0.269	9.4006	-0.5208	0.2218	0.4663	1.0361	-0.5177	-1.1153	8.4716	4.8666	0.5047	1.3378	1.8711	-1.2063	-1.1762	0.2783	0.3326
-1.6397	1.035	9.3676	0.0251	0.6098	-0.2106	0.4623	0.006	-0.1441	-1.3048	-0.0737	9.6352	-0.3026	0.3414	0.3453	1.0225	-0.5549	-1.1317	8.413	4.4074	0.3852	1.1842	1.8101	-1.2975	-1.1401	0.2197	0.3938
-1.5239	0.7473	9.3691	-0.125	0.6167	-0.0544	0.4563	0.012	-0.1501	-1.2479	0.7275	9.6974	-0.4238	0.4657	0.4708	1.0664	-0.5953	-1.112	8.6362	4.6356	0.1572	1.3701	1.4709	-1.4034	-1.1754	0.2393	0.373
-1.6916	0.9783	9.6619	0.1761	0.5114	-0.2759	0.4503	0	-0.1381	-1.5901	-0.3017	9.7476	-0.2101	0.37	0.4695	1.0224	-0.5541	-1.1496	8.757	4.7514	0.51	1.2745	1.9331	-1.2649	-1.1752	0.2042	0.3767
-1.463	0.8051	9.5477	-0.0335	0.5517	-0.057	0.4503	0.006	-0.1681	-1.5903	0.2707	9.8082	-0.3918	0.4667	0.1312	1.0227	-0.5726	-1.1667	8.3569	4.5798	0.443	1.2265	1.6544	-0.8712	-1.2105	0.2064	0.3578
-1.58	0.5176	9.4266	-0.1866	0.7718	-0.1435	0.4563	0.006	-0.1561	-0.9576	-0.1316	9.7016	-0.178	0.371	0.099	1.0228	-0.5733	-1.1488	8.3012	5.1539	0.5607	1.0184	1.8386	-0.4919	-1.1753	0.2218	0.3749
-1.5202	0.5177	9.5459	0.0608	0.548	0.0017	0.4683	0.024	-0.1501	-0.8998	-0.189	9.7027	-0.5503	0.2538	0.2815	1.0505	-0.5189	-1.0973	8.5822	4.9232	0.3322	0.8712	1.7152	-0.3383	-1.1403	0.204	0.3773
-1.7536	0.8628	9.424	-0.1249	0.7692	-0.1451	0.4563	0.012	-0.1621	-1.5889	0.1564	9.8674	-0.1517	0.1852	0.3737	1.0502	-0.5166	-1.1509	8.3513	4.5214	0.1511	0.812	1.7766	-0.2121	-1.1752	0.255	0.3895
-0.998	0.4597	9.7332	-0.0387	0.8867	-0.4515	0.4563	0	-0.1501	-1.8274	-0.0156	9.4463	-0.3669	0.1891	0.3116	1.0513	-0.5565	-1.1136	8.4638	4.7504	0.0958	0.8958	1.9313	-0.456	-1.2098	0.2532	0.4072
-1.1827	0.1711	9.079	0.3601	0.9306	-0.583	0.4623	0.006	-0.1561	-1.4193	0.0984	9.6926	0.2169	0.1781	0.5595	1.0363	-0.5354	-1.1502	8.4109	4.2922	0.2681	0.7751	1.9314	-0.3919	-1.1925	0.22	0.3929
-1.9809	0.3461	9.5365	0.206	0.9981	-0.6094	0.4503	0	-0.1321	-1.2474	0.0406	9.6366	0.5311	0.5405	0.7209	1.0377	-0.5937	-1.1301	8.8607	4.8067	-0.0127	1.0738	1.8086	-0.7713	-1.1922	0.218	0.4112
-1.3509	0.6895	9.3724	0.0856	0.8816	-0.4241	0.4563	0.006	-0.1321	-1.8835	-0.1298	9.5043	0.4989	0.4494	0.6266	1.0653	-0.5554	-1.1492	8.6369	4.9227	0.2166	1.0109	1.7475	-0.8951	-1.193	0.2063	0.3581
-1.4546	0.4611	9.9606	0.5173	0.8025	-0.4045	0.4683	0.012	-0.1621	-1.3654	0.1551	9.5156	0.8416	0.6285	0.4451	1.0362	-0.5346	-1.1681	8.5302	4.6373	0.5634	1.1946	1.747	-0.8679	-1.1578	0.2217	0.3751
-1.6952	1.0928	9.4848	0.3601	0.534	-0.3413	0.4503	0.012	-0.1501	-1.1349	0.2118	9.5205	0.6267	0.6629	0.4453	1.0364	-0.5523	-1.203	8.6921	4.6353	0.1	1.1664	1.6852	-0.8075	-1.1926	0.1868	0.3783
-1.5232	0.9774	9.4288	-0.0085	0.5497	-0.2712	0.4623	0.012	-0.1441	-1.1849	-0.0163	9.8753	0.2253	0.578	0.3504	1.0228	-0.5733	-1.1488	8.1903	4.6382	0.6732	1.1159	1.4377	-0.5053	-1.175	0.2199	0.3932
-1.57	0.5763	9.9587	0.2434	0.5399	-0.0943	0.4503	0.006	-0.1561	-0.9569	0.0974	9.7615	-0.2649	0.679	0.2278	1.0378	-0.5945	-1.1122	8.4054	4.9224	0.0369	1.0876	1.5604	-0.3163	-1.1395	0.2334	0.4285
-1.7384	0.5772	10.1917	0.3025	0.7811	-0.3384	0.4623	0	-0.1441	-1.3012	-0.0733	9.8134	0.1591	0.3036	0.1601	1.0514	-0.5573	-1.0958	8.6975	4.8658	0.3926	1.1473	1.4682	-0.4434	-1.1572	0.2178	0.4118
-1.5764	0.9781	9.6641	0.0279	0.5796	-0.0889	0.4563	0.006	-0.1501	-1.3096	-0.0741	9.3975	-0.2061	0.5248	0.1634	1.0369	-0.5722	-1.1844	8.751	4.9225	0.2189	1.2349	1.5916	-0.5341	-1.1746	0.2004	0.4134
-1.7523	0.8055	9.483	-0.0927	0.7986	-0.1152	0.4563	0.006	-0.1501	-1.3086	0.0404	9.4571	-0.1771	0.4621	0.3477	1.0513	-0.5565	-1.1136	8.6959	4.4065	0.2742	1.2654	1.5915	-0.5347	-1.1753	0.2218	0.3749
-1.5184	0.8055	9.6648	0	0.8557	-0.1476	0.4623	0.024	-0.1321	-1.1815	0.0413	10.0537	-0.2077	0.4629	0.2859	1.0372	-0.5745	-1.1308	8.5848	4.6941	0.448	1.2895	1.8385	-0.6514	-1.1752	0.255	0.3895
-1.4712	0.9766	9.1344	-0.2518	0.6215	-0.1733	0.4803	0.012	-0.1561	-1.0081	-0.1308	10.0569	-0.2695	0.4336	0.1926	1.0638	-0.4963	-1.1872	8.1259	4.9239	0.323	1.3519	1.6536	-0.7196	-1.2099	0.2708	0.4053
-1.3376	0.7487	10.0818	-0.0905	0.8293	-0.054	0.4623	0.012	-0.1501	-1.7063	0.042	9.7459	-0.2687	0.4646	0.1314	1.0088	-0.5913	-1.166	8.694	4.9226	0.2177	1.3717	2.055	-0.9243	-1.1573	0.2354	0.4099
-1.5206	1.3803	9.6071	-0.182	0.8943	-0.0514	0.4503	0.012	-0.1441	-1.4131	-0.0155	9.9894	-0.2692	0.4939	0.4407	1.022	-0.535	-1.1503	8.5256	4.6364	0.33	1.1919	1.8397	-0.9269	-1.1758	0.2588	0.3528
-1.2377	1.2066	9.3168	-0.22	0.5288	-0.0831	0.4743	0	-0.1441	-1.7705	0.3277	9.4482	-0.6096	0.3474	0.1596	1.0369	-0.5561	-1.1137	8.2952	4.6364	0.2087	1.2859	1.9929	-0.7086	-1.2096	0.2181	0.4109
-1.4017	0.6329	9.7257	-0.3728	0.7184	-0.1393	0.4503	-0.006	-0.1621	-1.366	-0.0739	9.4557	-0.4879	0.3137	0.3754	1.0657	-0.5738	-1.1663	8.637	4.8653	0.2164	1.1457	1.8991	-0.2153	-1.1574	0.2022	0.3953
-1.288	0.8626	9.6694	-0.3395	0.5649	0.042	0.4563	0.018	-0.1501	-1.8269	0.2707	9.5063	-0.7006	0.4706	0.4396	1.0365	-0.5369	-1.1145	8.3497	4.7506	0.0935	0.8231	1.7133	0.2482	-1.1921	0.2005	0.4131
-1.515	0.7484	9.842	-0.1848	0.6805	-0.0221	0.4503	0.006	-0.1441	-1.3681	-0.1886	9.3367	-0.3344	0.2506	0.1583	1.0659	-0.5754	-1.1306	8.8028	4.6345	-0.0728	0.8903	1.7122	0.5243	-1.2102	0.2727	0.387
-1.8662	0.6333	9.5394	-0.1628	0.5562	-0.2674	0.4503	0	-0.1441	-1.1359	0.6124	9.5213	-0.3638	0.3729	0.4075	1.0364	-0.5361	-1.1324	8.6863	4.6917	-0.1916	0.8605	1.6199	0.4914	-1.1927	0.2043	0.3764
-1.8119	0.6328	9.3633	-0.2784	0.6232	-0.0201	0.4563	0.012	-0.1561	-1.015	0.2692	9.7606	-0.4563	0.3141	0.1592	1.0377	-0.5937	-1.1301	8.5728	4.3477	-0.1951	0.7378	1.528	0.3988	-1.1394	0.2665	0.4431
-1.4091	0.9771	9.3719	-0.1854	0.6499	-0.0223	0.4623	0.006	-0.1621	-1.3699	0.0402	9.2777	-0.609	0.4082	0.3151	1.0645	-0.517	-1.1508	8.5187	4.6352	-0.0202	0.8218	1.529	0.058	-1.1929	0.2902	0.3854
-1.4649	0.5749	9.429	-0.2798	0.5926	-0.0508	0.4563	0	-0.1561	-1.2486	0.0405	9.5772	-0.4545	0.3763	-0.025	1.036	-0.517	-1.1331	8.3475	4.7502	-0.0232	0.5355	1.5007	-0.4919	-1.1572	0.2178	0.4118
-1.8047	0.4037	9.7173	-0.3145	0.5629	-0.1721	0.4503	0	-0.1501	-0.953	-0.5319	9.8791	-0.6422	0.2559	0.1579	0.9939	-0.5541	-1.1319	8.4643	4.4636	0.0948	0.4765	1.5928	-0.334	-1.1576	0.2373	0.3916
-1.1656	0.6332	10.0258	-0.2786	0.5622	0.01	0.4623	0.012	-0.1321	-1.3022	0.3273	9.8142	-1.011	0.2627	0.0338	1.0368	-0.5553	-1.1316	8.465	4.6933	0.154	0.2359	1.5006	-0.2393	-1.2099	0.2201	0.3926
-1.6297	0.4611	9.839	-0.2144	0.5599	0.1	0.4563	0.018	-0.1441	-1.4161	-0.2447	9.8107	-1.6609	0.0894	0.0605	1.0214	-0.515	-1.169	8.35	4.5785	0.0929	0.601	1.5614	-0.2449	-1.1576	0.2373	0.3916
-1.5678	0.5766	10.0769	-0.2515	0.1944	0.0988	0.4623	0	-0.1501	-1.3683	-0.1314	9.3368	-1.8459	0.0621	-0.0021	1.0656	-0.5569	-1.1135	8.6407	4.6938	0.3908	0.3274	1.5927	-0.1769	-1.1577	0.2041	0.377
-1.2293	0.9201	9.7298	-0.3112	0.5633	-0.0502	0.4563	0.012	-0.1681	-1.1808	0.2703	10.1136	-2.3689	0.0413	-0.2196	1.0363	-0.5354	-1.1502	8.6984	4.9808	0.4514	0.3889	1.5617	-0.179	-1.1226	0.2196	0.3941
-1.4017	0.6329	9.7257	-0.2166	0.5291	0.0388	0.4743	0.006	-0.1501	-1.3741	0.326	9.1	-3.0473	-0.0689	-0.4698	1.0506	-0.5358	-1.1501	8.5769	4.6353	0.0393	0.3265	1.5621	-0.2394	-1.1398	0.2177	0.4121
-1.7502	0.8633	9.6013	-0.4319	0.6298	0.0141	0.4563	-0.006	-0.1441	-0.9027	0.0397	9.5843	-3.6309	0.0024	-0.4695	1.0363	-0.5354	-1.1502	8.6343	4.4058	0.0396	0.3855	1.6545	-0.2687	-1.1924	0.2024	0.3948
-1.6351	0.978	9.6039	-0.3434	0.5339	-0.0801	0.4623	0.03	-0.1501	-1.3688	0.0976	9.3372	-3.6645	-0.1203	-0.3483	1.0363	-0.5354	-1.1502	8.7603	4.8094	0.6853	0.0511	1.6244	-0.2321	-1.1751	0.2374	0.3913
-1.5081	0.6917	10.1965	-0.2467	0.622	0.0096	0.4503	0.018	-0.1501	-1.4214	-0.0163	9.5735	-3.8483	-0.1163	-0.5647	1.0792	-0.5367	-1.1499	8.5803	4.6933	0.2146	0.1722	1.5935	-0.297	-1.1571	0.2003	0.4137
-1.6375	0.4027	9.4252	-0.311	0.4718	0.0103	0.4563	0.012	-0.1501	-1.6467	-0.2442	9.806	-3.8818	-0.2089	-0.3193	1.0508	-0.5373	-1.1144	8.6419	4.694	0.4492	-0.0081	1.5012	-0.2344	-1.2105	0.2064	0.3578
-1.8706	0.6328	9.303	-0.2431	0.5919	0.1618	0.4563	0	-0.1501	-1.4165	-0.0731	9.8111	-3.8784	-0.0549	-0.4401	1.0081	-0.5537	-1.1497	8.7559	4.6939	0.4515	0.1745	1.6239	-0.1729	-1.1748	0.2355	0.4096
-1.6372	0.8628	9.4854	-0.4341	0.599	-0.047	0.4563	0.012	-0.1441	-1.1321	0.0404	9.639	-3.6941	-0.1185	-0.6571	1.0795	-0.5382	-1.1142	9.2016	4.1748	-0.1248	0.0882	1.5003	-0.0206	-1.1754	0.2393	0.373
-1.2335	0.7471	9.493	-0.3726	0.5354	-0.0184	0.4443	0.006	-0.1501	-1.1305	0.3267	9.7584	-3.1703	-0.0667	-0.5009	1.036	-0.517	-1.1331	8.1263	4.6944	0.3222	0.0857	1.4391	-0.1764	-1.1754	0.2393	0.373
-1.2924	0.8045	9.4329	-0.4019	0.4758	0.0735	0.4503	0.012	-0.1441	-1.2996	0.213	9.9329	-2.3378	0.0111	-0.4671	1.051	-0.555	-1.1493	8.4685	4.6939	0.329	-0.0668	1.4395	-0.1733	-1.1929	0.2394	0.3727
-2.0335	0.6918	9.8317	-0.4094	0.3835	-0.1404	0.4563	0.012	-0.1621	-1.4253	0.0978	9.3955	-1.9367	0.0954	-0.2487	1.0503	-0.5174	-1.133	8.0727	4.6951	0.4961	-0.2762	1.3471	-0.0485	-1.1754	0.1886	0.3603
-1.528	0.5168	9.1322	-0.4628	0.4785	0.1055	0.4623	0.012	-0.1501	-1.3548	0.2134	10.0505	-1.2573	0.2367	-0.0906	1.0363	-0.5354	-1.1502	8.7501	4.7502	0.1599	-0.3447	1.3484	-0.3862	-1.1404	0.2216	0.3754
-1.4656	0.9773	9.4299	-0.4074	0.3532	-0.0491	0.4563	0.018	-0.1381	-1.3587	0.3275	9.8725	-0.5806	0.2548	0.158	1.0662	-0.5938	-1.1477	8.2983	4.8091	0.3844	-0.4337	1.3175	-0.2928	-1.1754	0.2393	0.373
-1.8696	0.6904	9.3623	-0.4352	0.3854	0.0433	0.4563	0.006	-0.1501	-1.1319	-0.0741	9.6387	0.0392	0.4594	0.1009	1.0653	-0.5385	-1.0964	8.4719	4.6945	0.5041	-0.471	1.2264	-0.6645	-1.1751	0.2374	0.3913
-1.5773	0.8629	9.6047	-0.4394	0.2324	-0.0185	0.4443	0.012	-0.1561	-1.4147	-0.3591	9.8699	0.1057	0.7043	0.0127	1.0078	-0.5353	-1.1326	8.3564	4.8666	0.4441	-0.2791	0.9477	-0.4606	-1.1753	0.2218	0.3749
-2.0428	0.8632	9.3593	-0.3413	0.4121	0.0717	0.4563	0	-0.1621	-1.5965	-0.1306	9.4509	0.5021	0.5131	0.0718	1.0361	-0.5177	-1.1153	8.3529	4.9233	0.2692	-0.4027	1.0098	-0.4871	-1.175	0.2199	0.3932
-1.5809	0.9775	9.4277	-0.2469	0.7135	-0.0509	0.4743	0	-0.1501	-1.4731	0.4424	9.9298	0.3781	0.4841	0.1637	1.051	-0.555	-1.1493	8.4185	4.5805	0.6776	-0.4623	1.0097	-0.4243	-1.1571	0.251	0.4264
-1.8076	0.7484	9.5999	-0.3101	0.6244	-0.0499	0.4623	0.006	-0.1621	-1.421	-0.188	9.5731	0.5317	0.4812	0.2257	1.0513	-0.5734	-1.1664	8.6928	4.9224	0.1594	-0.4309	0.948	-0.4267	-1.1753	0.2218	0.3749
-1.5217	0.7476	9.4874	-0.4398	0.5069	-0.1999	0.4503	0	-0.1501	-1.7561	-0.2433	10.1007	0.5907	0.3572	0.2854	1.037	-0.5568	-1.0959	8.8694	4.3493	0.3941	-0.3749	1.0101	-0.611	-1.2098	0.2025	0.3945
-1.112	1.0352	9.8505	-0.3831	0.5038	-0.3844	0.4563	0	-0.1501	-1.4763	-0.1876	9.6908	0.6155	0.0796	0.4658	1.0509	-0.5381	-1.0965	8.357	4.5224	0.4428	-0.377	1.1027	-0.6391	-1.2109	0.2258	0.3376
-1.5728	0.2309	9.7805	-0.1299	0.5246	-0.1769	0.4503	0.006	-0.1501	-1.0108	-0.4745	9.878	1.1387	0.0407	0.3116	0.9795	-0.5536	-1.132	8.699	4.6366	0.4501	-0.3449	0.9486	-0.675	-1.1939	0.2628	0.3159
-1.513	0.9212	9.9606	-0.1241	0.7693	-0.1146	0.4383	0.006	-0.1561	-1.1262	0.0409	9.9361	1.3558	0.189	0.6543	1.0649	-0.5362	-1.15	8.4638	4.7504	0.0958	-0.3474	1.072	-0.7023	-1.2277	0.2221	0.374
-1.0619	0.8041	9.4374	-0.3452	0.8693	-0.3527	0.4623	0	-0.1561	-1.4219	-0.3026	9.5135	1.3875	0.2196	0.5623	1.0646	-0.5178	-1.1329	8.5193	5.0369	0.0396	-0.412	1.042	-0.8868	-1.1578	0.2724	0.3879
-1.6905	0.3458	9.6603	-0.2843	0.6226	-0.2336	0.4623	0.006	-0.1441	-1.5336	0.156	9.7497	1.6316	0.0329	0.1579	1.0656	-0.5569	-1.1135	7.8982	4.6374	0.3174	-0.2197	0.9171	-0.5551	-1.1756	0.2237	0.3565
-1.4074	0.6897	9.4304	-0.1935	0.71	-0.3573	0.4563	0.012	-0.1441	-1.4792	0.0411	9.5724	1.4818	0.3103	0.5023	1.0649	-0.5362	-1.15	8.2987	4.5796	0.3835	-0.1252	0.8549	-0.4663	-1.2094	0.2337	0.4274
-1.5092	0.6916	10.1374	-0.3444	0.8694	-0.3222	0.4443	0.006	-0.1561	-1.1336	0.1547	9.5798	1.6372	0.3995	0.5659	1.0506	-0.5358	-1.1501	8.6969	5.2674	0.394	-0.0957	1.101	-0.3366	-1.175	0.2199	0.3932
-1.6294	0.9212	9.8993	-0.1668	0.4642	-0.3593	0.4623	0.018	-0.1561	-1.0743	-0.017	9.64	1.2366	0.3758	0.5339	1.0374	-0.5753	-1.113	8.5218	4.8653	0.1557	-0.3089	0.8554	-0.4934	-1.2108	0.259	0.3522
-1.402	0.1729	9.6655	-0.2561	0.7125	-0.3863	0.4623	0.012	-0.1501	-1.6597	0.2125	9.2127	1.0259	0.5949	0.383	1.0366	-0.5538	-1.1673	8.8142	4.6366	0.5108	-0.6028	0.7929	-0.027	-1.1573	0.1847	0.3972
-1.7496	1.1509	9.6611	-0.244	0.8359	-0.0198	0.4743	0.006	-0.1441	-1.0708	-0.0167	9.8183	0.808	0.4757	0.4114	1.0657	-0.5577	-1.0956	8.9797	4.5206	0.222	-0.4826	0.8237	-0.0901	-1.0698	0.2505	0.4278
-1.6957	0.7477	9.4249	-0.2541	0.6822	-0.295	0.4683	0.018	-0.1501	-1.5364	0.3275	9.6312	0.6259	0.6019	0.3516	1.0229	-0.5741	-1.1309	8.6991	4.5792	0.4499	-0.5443	0.8239	-0.1197	-1.1564	0.2296	0.4649
-1.6866	0.6914	9.8976	-0.2444	0.7138	0.0406	0.4383	0.006	-0.1621	-1.1332	-0.017	9.5794	0.1936	0.5475	0.4425	1.0499	-0.4982	-1.1338	8.699	4.6366	0.4501	-0.5481	0.6707	-0.4014	-1.1575	0.2198	0.3935
-1.8636	0.4611	9.6572	-0.1557	0.679	-0.0838	0.4563	0.024	-0.1501	-1.2452	0.0981	9.7556	0.1619	0.4869	0.3796	1.0513	-0.5734	-1.1664	8.6421	4.5219	0.4486	-0.4004	0.6711	-0.6202	-1.1759	0.2257	0.3382
-1.4572	0.6908	9.843	-0.2433	0.7749	0.0409	0.4503	0.006	-0.1501	-1.5349	0.2131	9.6904	0.1334	0.5501	0.0718	1.0375	-0.576	-1.0951	8.5873	4.5798	0.5643	-0.4944	0.7947	-0.6456	-1.14	0.2021	0.3956
-1.8032	1.439	9.8971	-0.2463	0.7441	-0.0507	0.4563	0.018	-0.1561	-1.2437	-0.5314	9.7543	0.0389	0.4891	0.3485	1.0368	-0.5553	-1.1316	8.6923	4.5206	0.0996	-0.3096	0.9478	-0.46	-1.1575	0.2198	0.3935
-1.5232	0.9774	9.4288	-0.4959	0.6931	-0.106	0.4563	-0.006	-0.1501	-1.0785	-0.2464	9.4019	0.1307	0.487	0.4722	1.0228	-0.5733	-1.1488	8.1251	4.6942	0.2638	-0.2566	1.0719	-0.7349	-1.2107	0.2415	0.3541
-1.8103	0.9781	9.4823	-0.4355	0.8124	-0.2288	0.4563	0.006	-0.1561	-1.0158	0.0974	9.7009	0.0075	0.4589	0.3479	1.0361	-0.5177	-1.1153	8.4096	5.1527	0.2712	-0.163	1.2559	-0.5157	-1.1751	0.2374	0.3913
-1.0619	0.8041	9.4374	-0.467	0.7221	-0.198	0.4563	0.006	-0.1441	-1.1328	-0.6466	9.5187	0.0688	0.4276	0.2548	1.0379	-0.5952	-1.0943	8.2932	4.4639	0.0914	-0.0977	1.009	-0.4933	-1.1222	0.2001	0.4142
-1.6909	0.5758	9.6609	-0.4042	0.5366	-0.0481	0.4563	0.006	-0.1561	-1.2486	0.0405	9.5772	-0.0495	0.6753	0.2282	1.0222	-0.5365	-1.1146	8.2299	4.8071	-0.2003	-0.1803	1.0079	-0.0909	-1.1751	0.2374	0.3913
-1.6921	0.6332	9.6019	-0.4038	0.8112	-0.1991	0.4623	0.024	-0.1621	-1.3627	0.0409	9.6342	-0.1455	0.5225	0.4415	1.0225	-0.5549	-1.1317	8.5256	4.6364	0.33	-0.0442	0.7901	0.3933	-1.1748	0.2355	0.4096
-1.346	1.0926	9.6689	-0.2199	0.6813	-0.1738	0.4563	0.006	-0.1441	-1.1975	0.2687	9.2817	-0.3286	0.5575	0.1638	1.0798	-0.5566	-1.1313	8.4639	4.6931	0.0956	-0.4077	1.0367	0.6851	-1.1405	0.2391	0.3736
-1.405	0.575	9.5483	-0.211	0.9568	-0.0199	0.4563	0.018	-0.1501	-1.1346	-0.4178	9.4598	-0.6066	0.501	0.1314	1.0227	-0.5564	-1.096	8.6932	4.6929	0.1585	-0.0986	0.943	0.7995	-1.1926	0.2375	0.391
-1.6966	0.6326	9.3655	-0.4696	0.5693	-0.1988	0.4503	0	-0.1561	-1.0731	-0.5321	9.639	-0.452	0.4993	-0.0845	1.0222	-0.5526	-1.1853	8.6444	4.5224	0.5653	0.0534	1.0657	0.8616	-1.1579	0.2392	0.3733
-1.3968	0.4035	9.9616	-0.2166	0.7732	-0.1123	0.4623	0	-0.1441	-1.4231	-0.3027	9.4541	-0.3645	0.282	0.1279	1.037	-0.573	-1.1665	8.6943	4.6931	0.2169	0.085	0.8502	0.7624	-1.1754	0.2393	0.373
-2.1565	0.5761	9.4155	-0.2468	0.8661	-0.1415	0.4623	0.024	-0.1501	-1.1903	-0.2458	9.5778	-0.4237	0.4058	0.13	1.0653	-0.5554	-1.1492	8.4099	4.9232	0.2704	0.4119	1.066	0.5154	-1.2275	0.2377	0.3904
-1.3446	0.9203	9.7276	-0.2542	0.7737	-0.3554	0.4563	0.006	-0.1561	-1.1299	0.0978	9.7579	-0.6705	0.3793	0.1291	1.0212	-0.4973	-1.134	8.4674	4.6363	0.2705	0.3404	1.037	0.0228	-1.1569	0.1652	0.4174
-1.3493	1.0347	9.4914	-0.4024	0.8419	-0.1684	0.4623	-0.006	-0.1201	-1.7082	-0.1299	9.6267	-0.6069	0.5006	0.2241	1.0074	-0.5169	-1.1155	8.2949	4.8085	0.2093	0.5783	1.0374	-0.2594	-1.1578	0.2724	0.3879
-1.6343	1.1507	9.6634	-0.4664	0.6612	-0.1374	0.4443	0.006	-0.1561	-1.1943	0.4408	9.4603	-0.9489	0.3523	0.3753	1.0662	-0.5938	-1.1477	8.6392	4.9231	0.3333	0.3516	1.3783	-0.615	-1.1923	0.1849	0.3966
-1.7493	0.3458	9.6001	-0.2827	0.4702	-0.0819	0.4503	0.006	-0.1561	-1.1892	0.2695	9.6977	-0.9468	0.4148	0.0984	1.0361	-0.5177	-1.1153	8.3476	4.6355	-0.0236	0.3905	1.3154	-0.2785	-1.1747	0.2179	0.4115
-1.6371	0.8053	9.4852	-0.4693	0.5388	-0.1685	0.4383	0.012	-0.1501	-1.5342	-0.073	9.6898	-1.5012	0.3937	0.0662	1.0365	-0.5369	-1.1145	8.3575	4.9241	0.5027	0.3661	1.3145	-0.0006	-1.1933	0.2082	0.3398
-1.4014	0.4605	9.7253	-0.2791	0.6842	-0.0808	0.4623	0.006	-0.1501	-1.2994	-0.3594	9.8723	-1.7493	0.2757	-0.0599	1.0211	-0.4966	-1.1519	8.4099	4.2347	0.2095	0.3047	1.4378	0.0658	-1.1575	0.2198	0.3935
-1.231	0.5749	9.6108	-0.2542	0.5297	-0.2043	0.4323	0.012	-0.1441	-1.1336	0.1547	9.5798	-1.4119	0.2386	0.0945	1.0087	-0.5744	-1.1132	8.5756	4.7498	-0.0186	0.3991	1.5601	0.2832	-1.176	0.2432	0.3363
-1.2889	0.7474	9.6101	-0.3432	0.595	-0.1103	0.4563	0	-0.1501	-1.5312	0.1563	9.8686	-1.5941	0.3646	0.0655	1.0923	-0.4795	-1.1521	8.6441	4.7518	0.5661	0.5209	1.6214	0.3133	-1.1578	0.2217	0.3751
-1.4021	0.2303	9.6657	-0.2839	0.5006	-0.1427	0.4503	0	-0.1561	-1.6529	-0.1303	9.5091	-1.4754	0.1773	0.3094	1.0514	-0.5573	-1.0958	8.4676	4.5216	0.2701	0.7605	1.7752	0.2204	-1.1928	0.2219	0.3746
-1.3456	0.8627	9.6683	-0.3108	0.5328	-0.0199	0.4563	0.006	-0.1441	-1.4223	-0.1309	9.5138	-1.1927	0.4193	0.0363	1.022	-0.535	-1.1503	8.5823	4.8658	0.3319	0.7546	1.7146	-0.0894	-1.1755	0.2569	0.3711
-1.4577	0.9783	9.8437	-0.3698	0.5967	0.0429	0.4503	0.018	-0.1501	-1.2423	-0.1306	9.8739	-1.0101	0.2938	-0.0583	1.0221	-0.5357	-1.1325	8.6356	4.2912	0.0976	0.9351	1.6531	-0.2489	-1.1397	0.2002	0.4139
-1.6366	0.5753	9.4847	-0.2202	0.4677	-0.053	0.4683	0.006	-0.1561	-1.188	0.2697	9.7571	-0.9795	0.323	0.1585	1.0223	-0.5534	-1.1674	8.6431	4.6369	0.5073	0.8712	1.8075	-0.2741	-1.1929	0.2394	0.3727
-1.4564	0.8634	9.9025	-0.1908	0.5273	-0.1449	0.4563	0	-0.1441	-1.1866	-0.3026	9.7559	-1.0114	0.2922	0.3123	0.9938	-0.5702	-1.2026	8.699	4.6366	0.4501	1.0255	1.6838	-0.2807	-1.1408	0.2411	0.3553
-1.334	0.6341	10.2588	-0.3369	0.4736	0.194	0.4563	0.012	-0.1501	-1.6516	-0.1874	9.5684	-0.5514	0.1625	0.0946	1.0508	-0.5373	-1.1144	8.7587	4.4075	0.5671	0.9631	1.7764	-0.2768	-1.1058	0.2409	0.3558
-1.6383	0.8626	9.4263	-0.1577	0.3127	0.0666	0.4563	0.012	-0.1501	-1.2984	0.2132	9.9923	-0.457	0.2833	0.1896	1.0083	-0.5552	-1.114	8.6941	4.8652	0.2175	0.784	1.5609	-0.2485	-1.105	0.2526	0.4089
-1.4054	0.805	9.5488	-0.1551	0.4655	0.0675	0.4563	0.012	-0.1501	-1.1848	-0.0735	9.8752	-0.3336	0.2816	0.0971	1.0502	-0.5166	-1.1509	8.4592	4.807	-0.1374	0.7581	1.4373	-0.1282	-1.1919	0.2161	0.4295
-1.4648	0.5174	9.4288	-0.1839	0.5891	0.0689	0.4623	0	-0.1501	-1.3045	-0.1881	9.6349	-0.1491	0.3084	0.2832	1.049	-0.4598	-1.1353	8.3599	4.8098	0.6189	0.6684	1.591	0.0629	-1.2103	0.222	0.3743
-1.9839	0.7483	9.4193	-0.311	0.4718	0.0103	0.4623	0.018	-0.1501	-1.4817	0.0981	9.4537	0.0046	0.2454	0.0353	1.0366	-0.5377	-1.0966	8.1281	4.9817	0.4399	1.0562	1.6221	-0.3139	-1.1752	0.2042	0.3767
-1.0566	0.9773	9.7333	-0.2764	0.5929	0.0711	0.4683	0.012	-0.1561	-1.362	-0.2452	9.6336	0.4315	0.1135	0.4661	1.0353	-0.4962	-1.1696	7.9526	4.8664	0.2027	0.9597	1.7769	-0.4308	-1.1748	0.2355	0.4096
-1.6868	1.4389	9.9585	-0.4009	0.537	0.0739	0.4623	0.006	-0.1501	-0.7879	-0.2468	9.5267	0.7394	0.1085	0.4047	0.9939	-0.571	-1.1847	8.6962	4.923	0.3344	1.0754	1.7469	-0.7423	-1.1581	0.2236	0.3568
-0.9373	0.6325	9.912	-0.3785	0.6263	-0.2923	0.4503	0.012	-0.1501	-1.3678	0.1549	9.3968	0.803	0.1998	0.3447	1.0365	-0.5369	-1.1145	8.4682	4.866	0.3297	1.0394	1.7478	-0.9881	-1.1929	0.2394	0.3727
-1.3443	0.7478	9.7271	-0.2193	0.4678	-0.0225	0.4623	0	-0.1441	-1.1312	0.1549	9.6986	0.6784	0.1401	0.4361	1.0369	-0.5561	-1.1137	8.349	4.5209	0.0343	1.2244	1.8393	-0.8351	-1.1922	0.218	0.4112
-1.6345	0.6331	9.603	-0.2123	0.8347	0.01	0.4443	0.012	-0.1381	-1.4842	0.613	9.3953	0.6186	0.2332	0.4376	1.0643	-0.4994	-1.1158	8.4647	4.1768	0.0937	1.1034	1.7779	-0.8344	-1.1586	0.2938	0.3494
-1.2886	0.575	9.6096	-0.1612	0.4038	-0.1158	0.4683	0	-0.1561	-1.3687	0.0403	9.3371	0.0955	0.2122	0.251	1.05	-0.4989	-1.1159	8.7461	4.4052	-0.0748	0.9206	1.6246	-0.9276	-1.1753	0.2218	0.3749
-1.2924	0.8045	9.4329	-0.5005	0.5706	-0.1981	0.4683	0.006	-0.1501	-1.3033	-0.188	9.6944	0.3726	0.2377	0.3755	1.0076	-0.5176	-1.0976	8.8109	4.5213	0.3353	0.8102	1.5308	-0.4657	-1.1927	0.2043	0.3764
-1.1192	0.6317	9.4358	-0.2233	0.5284	-0.2051	0.4563	0.012	-0.1681	-1.1295	-0.0739	9.7576	0.1894	0.3325	0.4695	1.0227	-0.5726	-1.1667	8.6985	4.9234	0.4512	0.8486	1.591	-0.064	-1.1229	0.2215	0.3757
-1.1768	0.6318	9.4347	-0.3039	0.7471	0.1032	0.4563	0.006	-0.1501	-1.0702	-0.2456	9.8178	0.3423	0.2688	0.4069	1.0366	-0.5377	-1.0966	8.4603	4.8072	-0.079	0.85	1.683	0.0619	-1.2272	0.2358	0.4088
-1.5179	0.518	9.6641	-0.0987	0.6454	-0.2379	0.4443	0.006	-0.1561	-1.2441	-0.3597	9.7546	0.0991	0.3965	0.2234	1.0228	-0.5733	-1.1488	8.8027	4.6919	-0.0726	0.7271	1.5605	-0.0625	-1.1574	0.2022	0.3953
-1.3413	0.9782	9.905	-0.1934	0.6185	-0.2968	0.4623	0.012	-0.1681	-1.0137	0.2121	9.82	0.1022	0.5801	0.3503	1.037	-0.573	-1.1665	8.0113	4.5797	0.2611	0.8471	1.4682	-0.2216	-1.1925	0.22	0.3929
-1.466	0.5747	9.3699	-0.1284	0.6163	-0.1764	0.4503	0.012	-0.1501	-1.1312	0.1549	9.6986	-0.2369	0.5552	0.3492	1.0509	-0.5381	-1.0965	8.3565	4.8092	0.4439	0.8705	1.5307	-0.4977	-1.1413	0.2274	0.3205
-1.6357	0.6904	9.5441	-0.313	0.6546	-0.1717	0.4503	0.012	-0.1501	-1.4229	0.0981	9.5143	-0.3306	0.4652	0.2239	1.0369	-0.5561	-1.1137	8.35	4.5785	0.0929	0.9889	1.5002	-0.6859	-1.1404	0.2216	0.3754
-1.3464	0.69	9.6088	-0.2542	0.5297	-0.2043	0.4623	0.006	-0.1561	-1.3638	0.4988	9.6351	-0.4845	0.4977	0.4095	1.0226	-0.5718	-1.1845	8.2381	4.6365	0.2075	0.9304	1.4692	-0.5932	-1.1752	0.2042	0.3767
-1.4613	0.4603	9.606	-0.3379	0.8091	-0.0481	0.4563	0.024	-0.1441	-1.1894	-0.1312	9.6374	-0.4521	0.5591	0.2872	1.0357	-0.4985	-1.116	8.6971	4.4067	0.3326	1.0166	1.5929	-0.7455	-1.1573	0.2354	0.4099
-1.5696	0.9789	10.0187	-0.0667	0.4612	-0.0872	0.4743	0.006	-0.1561	-1.0771	-0.3607	9.4611	-0.6722	0.3173	0.2825	1.0225	-0.5549	-1.1317	8.4158	4.8095	0.5617	1.0203	1.4385	-0.6883	-1.1419	0.282	0.2966
-1.6874	0.5187	9.8381	-0.0656	0.4308	-0.0264	0.4623	0	-0.1561	-1.1366	-0.0746	9.4011	-0.5176	0.3755	0.4073	1.0084	-0.5721	-1.1668	8.6975	4.8658	0.3926	0.6887	1.5925	-0.3999	-1.1575	0.2198	0.3935
-1.6857	0.8065	9.957	-0.3745	0.5657	-0.1097	0.4563	0.024	-0.1501	-1.3606	0.1556	9.7533	-0.362	0.4349	0.2542	1.0515	-0.5742	-1.1486	8.7556	4.9233	0.4523	1.1446	1.5609	-0.5023	-1.1749	0.253	0.4078
-1.5156	0.4608	9.7822	-0.3428	0.717	-0.1706	0.4443	0.006	-0.1561	-1.2485	-0.0167	9.5771	-0.3624	0.4045	0.1919	1.0805	-0.5781	-1.0769	8.6969	4.5214	0.333	1.0228	1.4996	-0.5325	-1.1756	0.2237	0.3565
-1.1136	0.6324	9.7314	-0.3059	0.7774	0.0119	0.4443	0	-0.1501	-1.1978	-0.0748	9.2216	-0.1769	0.4924	0.4409	1.0637	-0.4787	-1.1523	8.4752	4.7525	0.6794	0.9258	1.5007	-0.7771	-1.1576	0.1866	0.3789
-1.5188	1.0355	9.6654	-0.4056	0.75	-0.2299	0.4563	0.006	-0.1381	-1.3005	0.0985	9.8732	0.0988	0.3961	0.3161	1.022	-0.535	-1.1503	8.4687	4.5792	0.3286	1.0726	1.7473	-0.8655	-1.158	0.2568	0.3714
-1.9836	0.5758	9.4188	-0.1844	0.8025	-0.0824	0.4563	-0.006	-0.1501	-0.9039	0.0396	9.5249	-0.0251	0.3073	0.0363	1.0216	-0.5165	-1.1332	8.4635	4.9225	0.0964	1.3449	1.6239	-1.0594	-1.1578	0.2217	0.3751
-1.5195	0.8053	9.6057	-0.0649	0.7664	-0.2076	0.4623	0.006	-0.1621	-1.1829	0.1557	9.9945	-0.1175	0.3388	0.222	1.0363	-0.5354	-1.1502	8.5904	4.8099	0.7402	1.1935	1.6856	-0.9621	-1.1573	0.2354	0.4099
-1.4584	0.7482	9.784	-0.1559	0.862	-0.2048	0.4503	0.018	-0.1561	-1.306	-0.0738	9.5758	-0.086	0.3691	0.1917	1.0656	-0.5569	-1.1135	8.8	4.9209	-0.1885	0.9907	1.5615	-0.5609	-1.175	0.2199	0.3932
-1.462	0.8627	9.607	-0.2478	0.8049	-0.1419	0.4443	0.012	-0.1561	-1.5936	0.1559	9.6297	0.0365	0.3663	0.3463	1.0503	-0.5174	-1.133	8.6423	4.4072	0.4481	0.9356	1.6222	-0.2498	-1.1925	0.22	0.3929
-1.7431	0.6916	9.9556	-0.0628	0.6446	-0.0558	0.4683	0	-0.1621	-1.3008	-0.245	9.8131	0.0056	0.3367	0.2222	1.0353	-0.4962	-1.1696	8.9275	4.4068	0.4539	0.8188	1.591	-0.0326	-1.1757	0.2413	0.3547
-1.975	0.8069	9.8922	-0.0041	0.6112	-0.1489	0.4503	0.018	-0.1621	-1.1311	0.0977	9.6985	-0.1504	0.2467	0.3439	1.0227	-0.5726	-1.1667	8.0647	5.4396	0.1487	0.6645	1.6224	-0.0903	-1.1757	0.2413	0.3547
-1.6934	0.6905	9.543	-0.1569	0.5568	-0.054	0.4623	-0.006	-0.1381	-1.8302	0.1559	9.3279	-0.4578	0.2824	0.4057	1.0227	-0.5726	-1.1667	8.6411	4.4644	0.39	0.7865	1.5298	-0.157	-1.1577	0.2041	0.377
-1.5186	0.9205	9.6651	-0.1559	0.618	-0.0537	0.4443	0	-0.1501	-1.1315	0.2694	9.6989	-0.0584	0.2148	0.2508	1.0226	-0.5557	-1.1138	8.4709	5.3255	0.5064	0.8735	1.4688	-0.4071	-1.192	0.2336	0.4277
-1.5724	0.6335	9.8406	-0.2713	0.746	0.1634	0.4563	0.012	-0.1441	-1.0718	0.3839	9.8191	-0.2147	0.0946	0.2793	1.0216	-0.5165	-1.1332	8.5829	4.4643	0.3305	0.873	1.4073	-0.4705	-1.1921	0.2005	0.4131
-1.6914	0.8633	9.6616	-0.0663	0.5832	-0.1476	0.4503	-0.006	-0.1561	-1.5313	-0.3017	9.8082	-0.2743	0.2179	0.4049	1.0503	-0.5174	-1.133	8.6383	4.7508	0.2743	0.561	1.6552	-0.6113	-1.1576	0.2373	0.3916
-1.4077	0.8047	9.4306	-0.2178	0.8036	-0.1731	0.4563	0.012	-0.1501	-1.1883	-0.0738	9.697	-0.2397	0.4019	0.3156	1.0223	-0.5372	-1.0968	8.7505	4.5207	0.1591	0.6864	1.5621	-0.524	-1.1403	0.204	0.3773
-1.637	0.7478	9.4851	-0.2168	0.7121	-0.0821	0.4683	0.018	-0.1561	-1.5325	-0.3018	9.7488	-0.0585	0.2147	0.2817	1.0511	-0.5558	-1.1315	8.5719	4.9213	-0.193	0.6199	1.7477	-0.6407	-1.2098	0.2025	0.3945
-1.4046	0.9776	9.6084	-0.1207	0.9222	-0.0833	0.4563	0.012	-0.1561	-1.3031	-0.3025	9.6941	0.0663	0.2746	0.1286	1.0655	-0.5562	-1.1314	8.0637	4.5788	0.0288	0.5282	1.6249	-0.7348	-1.1757	0.2413	0.3547
-1.64	0.5749	9.3074	-0.1888	0.741	-0.2047	0.4623	0.006	-0.1501	-1.8788	-0.1293	9.742	-0.1788	0.3401	0.1602	1.0369	-0.5561	-1.1137	8.3578	4.6947	0.5018	0.6504	1.6553	-0.7055	-1.1925	0.2707	0.4056
-1.8058	0.9786	9.7187	-0.0936	0.6459	-0.055	0.4503	0.012	-0.1561	-1.3606	-0.3596	9.6928	0.0345	0.244	0.2515	1.0664	-0.5953	-1.112	8.18	4.6364	0.148	0.716	1.5314	-0.5871	-1.1579	0.2392	0.3733
-1.4641	0.7475	9.4885	-0.0053	0.8857	-0.3608	0.4503	0.012	-0.1441	-1.2419	-0.3023	9.8736	0.1889	0.3019	0.4381	1.0222	-0.5365	-1.1146	8.8129	4.7511	0.4528	0.759	1.1911	-0.2586	-1.1747	0.2179	0.4115
-1.6294	0.9212	9.8993	-0.1536	0.8012	-0.0832	0.4443	0.012	-0.1501	-1.1395	0.1541	9.2827	0.6217	0.3869	0.3786	1.0519	-0.5934	-1.1478	8.5804	4.5786	0.2142	0.612	1.1906	-0.0091	-1.1755	0.2062	0.3584
-1.861	0.864	9.8355	-0.2853	0.714	-0.3245	0.4623	0.006	-0.1501	-1.5948	0.1558	9.5703	0.9028	0.6271	0.5378	1.0647	-0.5186	-1.115	8.6479	4.4656	0.7401	0.4128	1.0044	0.5136	-1.158	0.2061	0.3587
-1.4071	1.1498	9.4906	-0.065	0.8579	-0.268	0.4623	0.012	-0.1441	-1.3613	-0.0734	9.6934	1.1472	0.5008	0.3815	1.0508	-0.5373	-1.1144	8.5151	4.7493	-0.1948	0.4396	1.2509	0.5201	-1.1749	0.253	0.4078
-1.519	1.1504	9.6656	-0.1895	0.802	-0.2653	0.4563	0.012	-0.1501	-1.0221	-0.2466	9.3437	1.0867	0.5931	0.5684	1.0363	-0.5354	-1.1502	8.7024	4.6372	0.6252	0.6211	1.0354	0.2946	-1.2277	0.1714	0.3613
-1.6323	0.6333	9.7212	-0.1566	0.7704	-0.1748	0.4563	0.012	-0.1441	-1.4722	0.099	9.9291	0.994	0.5643	0.506	1.065	-0.537	-1.1321	8.5261	5.0382	0.3898	0.3079	0.9451	-0.1333	-1.2103	0.222	0.3743
-1.5751	0.2881	9.6624	-0.1263	0.7386	-0.1757	0.4563	0.006	-0.1501	-1.1359	-0.3607	9.4005	1.121	0.7467	0.4168	1.0507	-0.5366	-1.1322	8.3518	4.9231	0.2109	0.3923	1.0998	-0.3463	-1.123	0.239	0.3739
-1.5807	0.8625	9.4274	-0.1541	0.7707	-0.0833	0.4563	0	-0.1381	-1.3097	-0.0169	9.3976	0.6874	0.6308	0.5375	1.0653	-0.5385	-1.0964	8.6362	4.6356	0.1572	0.5107	1.2539	-0.406	-1.1747	0.2179	0.4115
-1.348	0.9199	9.5502	-0.0332	0.7652	-0.1778	0.4563	0.012	-0.1441	-1.3666	0.155	9.4562	0.8748	0.7509	0.4164	1.0655	-0.5562	-1.1314	8.586	4.6943	0.5064	0.5994	1.3463	-0.4667	-1.1747	0.2179	0.4115
-1.4674	0.7471	9.3112	-0.122	0.6475	0.0372	0.4563	0.012	-0.1561	-1.4223	-0.1309	9.5138	0.6245	0.5403	0.4122	1.0374	-0.5922	-1.1658	8.5314	4.5801	0.6215	0.5699	1.377	-0.4036	-1.1578	0.2217	0.3751
-1.4029	0.6328	9.6666	-0.0931	0.6765	-0.0549	0.4503	0.006	-0.1621	-1.0238	-0.533	9.2242	0.6549	0.5692	0.6908	1.0659	-0.5592	-1.0599	8.5346	4.7528	0.7972	0.6024	1.4689	-0.2475	-1.1926	0.1868	0.3783
-1.4048	0.46	9.548	-0.0955	0.5847	-0.0858	0.4623	0.012	-0.1501	-1.1369	0.0399	9.4013	0.3813	0.758	0.7245	1.0367	-0.5546	-1.1495	8.4694	4.8662	0.388	0.5985	1.408	-0.465	-1.1931	0.2238	0.3562
-1.8663	0.6908	9.5396	0.1236	0.7591	-0.0902	0.4503	0.024	-0.1561	-1.3555	-0.0156	9.9906	0.2874	0.6677	0.661	1.0511	-0.5558	-1.1315	8.8146	5.0957	0.5708	0.5102	1.2847	-0.4051	-1.1581	0.2743	0.3696
-1.3427	0.4605	9.7856	-0.2521	0.6519	-0.2037	0.4623	0.012	-0.1441	-1.3086	0.4984	9.5175	0.626	0.6321	0.4756	1.0352	-0.4793	-1.1168	8.3506	4.9229	0.1525	0.6051	1.3762	-0.1886	-1.1753	0.2218	0.3749
-1.2833	0.7481	9.9056	-0.0051	0.5501	-0.1492	0.4443	0.012	-0.1561	-1.2986	-0.1876	9.932	0.6604	0.8458	0.6031	1.0509	-0.5542	-1.1672	8.2969	4.981	0.3266	0.3654	1.5914	0.1614	-1.1755	0.2569	0.3711
-1.6358	0.7479	9.5442	-0.2479	0.6524	-0.0512	0.4503	0.012	-0.1561	-1.1323	0.0976	9.6391	0.5664	0.7253	0.4463	1.0654	-0.5393	-1.0786	8.5148	4.9787	-0.194	0.649	1.5278	0.5238	-1.1922	0.218	0.4112
-1.5173	0.8056	9.7239	-0.0554	0.5844	0.2488	0.4683	0.018	-0.1621	-1.5312	0.1563	9.8686	0.532	0.5416	0.4739	1.0372	-0.5745	-1.1308	8.8077	5.1518	0.2208	0.6517	1.5274	0.6471	-1.1921	0.2005	0.4131
-1.3003	0.8035	9.0192	-0.2798	0.5926	-0.0508	0.4503	0.012	-0.1441	-1.3033	0.2699	9.7547	0.5363	0.7567	0.4159	1.0229	-0.5741	-1.1309	8.3009	4.6374	0.5005	0.8329	1.558	0.5827	-1.1743	0.1984	0.4317
-1.4656	0.9773	9.4299	-0.1189	0.6783	0.1288	0.4563	0.018	-0.1441	-1.3565	-0.073	9.9311	0.5044	0.6659	0.229	1.0225	-0.5549	-1.1317	8.5771	4.5206	0.0389	0.8607	1.4661	0.3945	-1.1228	0.2547	0.3903
-1.748	0.921	9.7197	-0.0317	0.7044	-0.0867	0.4563	0	-0.1501	-1.1309	0.4984	9.7587	0.2885	0.6989	0.538	1.022	-0.5188	-1.0797	8.4101	4.8085	0.27	0.7681	1.405	0.3022	-1.1925	0.22	0.3929
-1.6345	0.6331	9.603	-0.1579	0.6482	-0.145	0.4563	-0.006	-0.1501	-1.5901	-0.3017	9.7476	0.223	0.4554	0.3174	1.0085	-0.5729	-1.1489	8.7475	4.9792	0.044	1.0078	1.3743	0.0807	-1.192	0.2336	0.4277
-1.342	0.6906	9.8452	-0.0238	0.8273	0.1274	0.4623	0.012	-0.1681	-1.3597	0.2702	9.8129	0.2863	0.5464	0.3191	1.0359	-0.5162	-1.151	8.6439	4.8665	0.5665	1.1921	1.5582	0.2673	-1.2112	0.2785	0.332
-1.4636	0.5175	9.4879	-0.062	0.4922	0.0654	0.4563	0.018	-0.1501	-1.1927	-0.246	9.4589	0.3208	0.7303	0.2607	1.0651	-0.5377	-1.1143	8.5209	4.693	0.0968	1.0715	1.466	0.267	-1.1582	0.2412	0.355
-1.6319	1.0359	9.7813	-0.2487	0.6523	-0.0817	0.4623	0	-0.1681	-1.4783	0.1557	9.6321	-0.0222	0.5207	0.3799	1.0214	-0.515	-1.169	8.4124	4.8089	0.3867	1.2831	1.5888	0.2663	-1.1757	0.2413	0.3547
-1.9274	0.748	9.3613	-0.0038	0.5808	-0.1186	0.4623	0.006	-0.1621	-1.1314	0.2122	9.6987	-0.3898	0.589	0.226	1.0659	-0.5754	-1.1306	8.4703	4.2352	0.3857	0.9722	1.6212	0.0268	-1.1574	0.2022	0.3953
-1.8062	1.2086	9.7193	-0.001	0.5506	0.0032	0.4503	-0.012	-0.1381	-1.1878	-0.3028	9.6965	-0.4845	0.4677	0.2546	1.0515	-0.5742	-1.1486	8.2905	4.6929	-0.0245	1.2167	1.5898	0.0211	-1.1757	0.2413	0.3547
-1.7536	0.8628	9.424	-0.1266	0.3724	0.0357	0.4623	0	-0.1561	-1.5397	0.2127	9.4527	-0.4837	0.4987	0.1934	1.0367	-0.5546	-1.1495	8.5275	4.8663	0.4475	1.3045	1.5594	-0.1665	-1.1756	0.2744	0.3693
-1.5748	0.7482	9.7226	0.0601	0.6089	-0.059	0.4563	0.006	-0.1501	-1.303	0.1555	9.7545	-0.5448	0.5002	0.0697	1.0665	-0.6122	-1.1648	8.7458	4.5773	-0.0742	1.1161	1.8375	-0.2165	-1.1574	0.2529	0.4081
-1.9284	0.6904	9.302	0.1536	0.3611	0.1204	0.4563	0.006	-0.1561	-1.4163	0.3277	9.8713	-0.7292	0.5337	0.1627	1.0799	-0.5574	-1.1134	8.3574	4.2356	0.4418	1.2146	1.6824	-0.0071	-1.1751	0.2374	0.3913
-1.4603	1.1505	9.7259	0.0316	0.5494	0.0634	0.4563	0	-0.1501	-1.3048	-0.0737	9.6352	-0.604	0.6841	0.3818	1.0511	-0.5558	-1.1315	8.5223	4.5211	0.1545	1.3004	2.0214	-0.0299	-1.1574	0.2529	0.4081
-1.6326	0.8058	9.7217	-0.0936	0.6459	-0.055	0.4563	0.024	-0.1561	-1.7193	0.0407	9.0923	-0.7948	0.32	0.1279	1.0511	-0.5558	-1.1315	8.6363	4.5783	0.157	1.1534	1.7441	0.0267	-1.1755	0.2062	0.3584
-1.9238	0.6334	9.5383	-0.2505	0.4996	-0.052	0.4563	0.012	-0.1561	-1.1345	0.0401	9.5201	-0.7027	0.3182	0.1898	1.0517	-0.5757	-1.1129	8.2418	4.5224	0.3822	1.1552	1.6208	0.0232	-1.1748	0.2355	0.4096
-1.4651	1.3224	9.4899	-0.0343	0.5516	-0.0875	0.4443	0.006	-0.1381	-1.2947	0.1563	10.1704	-0.5157	0.4378	0.1922	1.0801	-0.575	-1.1483	8.8106	4.7507	0.3361	0.8814	1.7136	0.1238	-1.1752	0.2042	0.3767
-1.9223	1.0362	9.6575	-0.0675	0.6136	-0.2084	0.4683	0	-0.1621	-1.357	-0.3592	9.8711	-0.5171	0.3461	0.0979	1.0658	-0.5746	-1.1485	8.5267	4.694	0.3885	1.0055	1.5284	0.0852	-1.1577	0.2549	0.3897
-1.4591	0.4606	9.7242	-0.0669	0.4001	-0.0571	0.4683	0.018	-0.1441	-1.1857	-0.1881	9.8156	-0.6397	0.3788	0.1292	1.0364	-0.5361	-1.1324	8.2346	4.6932	0.0327	0.8826	1.5904	0.0894	-1.1574	0.2529	0.4081
-1.5164	0.9207	9.7833	-0.0691	0.3694	-0.1182	0.4443	0	-0.1501	-1.0144	0.4983	9.8205	-0.9496	0.2615	0.0648	1.0502	-0.5166	-1.1509	8.6451	4.8094	0.6247	0.9105	1.8983	0.1901	-1.1755	0.2569	0.3711
-1.6937	0.2304	9.4827	0.0606	0.4869	0.0318	0.4383	0.006	-0.1501	-1.3071	0.384	9.5767	-0.8851	0.444	0.2226	1.0658	-0.5746	-1.1485	8.8611	4.5199	-0.0137	0.9176	1.7434	0.4013	-1.175	0.2199	0.3932
-1.6374	0.9778	9.4857	-0.2451	0.4697	0.1612	0.4503	0	-0.1621	-1.1873	0.4987	9.817	-0.827	0.2588	0.2194	1.0369	-0.5561	-1.1137	8.8126	4.9232	0.4534	0.9096	1.8677	0.1276	-1.1928	0.2219	0.3746
-1.6882	0.9212	9.839	-0.0929	0.4935	0.0661	0.4443	0	-0.1501	-1.2484	0.4412	9.6374	-0.7936	0.3814	0.129	1.0086	-0.5737	-1.1311	8.4706	4.809	0.4462	1.0009	1.8367	0.0941	-1.1749	0.2023	0.395
-1.2933	0.6894	9.3735	-0.09	0.4633	0.1879	0.4383	0.018	-0.1681	-1.1312	0.1549	9.6986	-0.8858	0.3831	0.0979	1.0509	-0.5381	-1.0965	8.3544	4.6941	0.3268	1.185	1.8053	0.1203	-1.1405	0.1884	0.3608
-1.4002	1.0357	9.8449	-0.1589	0.3431	0.0058	0.4563	-0.012	-0.1681	-1.4829	0.098	9.3943	-0.7927	0.3524	-0.2731	1.022	-0.535	-1.1503	8.4686	4.6365	0.3288	1.1916	1.7735	0.3967	-1.1927	0.2551	0.3892
-1.6401	0.6324	9.3075	-0.12	0.6172	0.1285	0.4623	0.018	-0.1441	-1.4178	-0.5311	9.6913	-0.7942	0.3207	-0.0265	1.08	-0.5581	-1.0955	8.4066	4.8652	0.0951	1.1589	1.7432	0.2732	-1.1761	0.2608	0.3345
-1.6922	0.6907	9.6021	-0.2822	0.5008	-0.0818	0.4503	-0.006	-0.1501	-1.3035	-0.1308	9.6945	-0.8552	0.3524	-0.0261	1.0503	-0.5174	-1.133	8.693	4.8076	0.159	1.2467	1.7128	0.0856	-1.1922	0.218	0.4112
-1.339	0.921	10.0231	-0.2163	0.4987	0.0691	0.4503	0.006	-0.1501	-1.2539	0.269	9.34	-1.0401	0.3552	0.0663	1.0798	-0.5566	-1.1313	8.6274	4.4045	-0.3105	0.9062	1.6836	-0.155	-1.1575	0.2198	0.3935
-1.6914	0.8633	9.6616	-0.1909	0.3748	-0.0542	0.4443	0	-0.1501	-1.4192	0.0412	9.6925	-0.8228	0.4138	-0.1485	1.0369	-0.5561	-1.1137	8.2425	4.8094	0.4416	0.9144	1.4978	0.0861	-1.1406	0.206	0.359
-1.4584	0.7482	9.784	-0.1881	0.5886	-0.0836	0.4623	0.006	-0.1501	-1.1901	0.155	9.638	-0.9513	0.1694	0.0631	1.0639	-0.4802	-1.1166	8.5275	4.8663	0.4475	0.8491	1.7447	0.0637	-1.1754	0.1886	0.3603
-1.3401	0.9209	9.964	-0.2178	0.5595	-0.022	0.4683	0.03	-0.1441	-1.248	0.2696	9.6371	-0.7986	0.1054	0.0623	1.0372	-0.5745	-1.1308	8.41	4.8659	0.2702	0.7002	1.683	0.1882	-1.1743	0.2492	0.4444
-1.5796	0.9202	9.4866	-0.0978	0.6455	-0.2074	0.4623	0.006	-0.1501	-1.4262	-0.0168	9.3358	-0.8883	0.2302	-0.0283	1.0229	-0.5741	-1.1309	8.2461	4.6953	0.6162	0.7298	1.6523	0.1251	-1.175	0.2199	0.3932
-2.0368	1.2665	9.7149	-0.2494	0.7132	-0.1424	0.4743	0.012	-0.1501	-1.4714	-0.2444	9.9284	-0.8542	0.4135	0.0368	1.0942	-0.5578	-1.1133	8.3553	4.8664	0.3857	0.6431	1.5595	0.2783	-1.1931	0.2745	0.369
-1.6866	0.6914	9.8976	-0.062	0.4922	0.0654	0.4383	0.006	-0.1501	-1.1923	0.0975	9.5191	-0.4891	0.1622	-0.0906	1.0507	-0.5366	-1.1322	8.9257	4.8081	0.397	0.6165	1.6205	0.4963	-1.1581	0.2236	0.3568
-1.6385	0.9776	9.4266	-0.1551	0.7096	-0.0837	0.4503	0.006	-0.1561	-0.9507	-0.0165	10.0584	-0.4545	0.4063	0.13	1.0807	-0.5957	-1.1119	9.0373	4.9222	0.2829	0.5273	1.4666	0.4937	-1.157	0.1827	0.4155
-1.2882	0.9776	9.6697	-0.0626	0.7057	-0.0859	0.4503	0	-0.1621	-1.5961	0.2129	9.511	-0.7002	0.4411	0.1611	1.065	-0.537	-1.1321	8.5255	4.6938	0.3302	0.5584	1.4664	0.5239	-1.2097	0.2357	0.4091
-2.0336	0.7493	9.8319	-0.1575	0.3737	0.0365	0.4503	0.006	-0.1621	-0.9563	0.3264	9.8214	-0.6094	0.3477	0.0978	1.0513	-0.5565	-1.1136	8.9221	4.9222	0.2223	0.4025	1.6519	0.5015	-1.1575	0.2198	0.3935
-1.5194	0.7479	9.6056	-0.2507	0.4386	-0.0219	0.4383	0.018	-0.1501	-1.2971	0.156	10.0516	-0.7945	0.2902	-0.0889	1.0513	-0.5565	-1.1136	8.6857	5.0932	-0.1901	0.2823	1.6211	0.5647	-1.1228	0.2039	0.3776
-1.2919	0.517	9.4322	-0.1893	0.4664	-0.0537	0.4623	0.012	-0.1501	-1.137	-0.4181	9.3409	-0.8254	0.2906	-0.058	1.0519	-0.5772	-1.0771	8.7572	4.6367	0.5096	0.4653	1.4361	0.4324	-1.1578	0.2217	0.3751
-1.5781	0.6903	9.5452	-0.1264	0.586	-0.0851	0.4503	0	-0.1501	-1.765	-0.0152	9.6852	-1.0094	0.3546	0.0663	1.0364	-0.5361	-1.1324	8.8108	4.636	0.3357	0.3368	1.4682	0.1585	-1.1929	0.2394	0.3727
-1.3985	0.6908	9.9032	-0.2204	0.4067	-0.0228	0.4683	0.018	-0.1621	-1.42	0.3845	9.6931	-0.7929	0.3822	-0.0563	1.0359	-0.5331	-1.2038	8.5252	4.8659	0.3308	0.2127	1.4688	0.0685	-1.1926	0.2375	0.391
-2.0978	0.6336	9.4758	-0.1239	0.4337	0.097	0.4623	0.018	-0.1501	-1.4193	-0.4168	9.6321	-0.7951	0.2896	0.0656	1.0655	-0.5562	-1.1314	8.6385	4.6361	0.2739	0.2373	1.5004	-0.1777	-1.1756	0.2744	0.3693
-1.6338	0.2306	9.6021	-0.06	0.4619	0.1566	0.4503	0.006	-0.1501	-1.8243	-0.3015	9.5646	-0.8844	0.4748	0.1922	1.0651	-0.5539	-1.1849	8.9278	4.9233	0.5141	0.4883	1.4372	0.0929	-1.1582	0.2412	0.355
-1.7502	0.8633	9.6013	-0.0647	0.4309	0.0041	0.4683	0.006	-0.1621	-1.1296	-0.0166	9.7577	-0.7307	0.4719	0.2542	1.065	-0.537	-1.1321	8.6361	4.7504	0.1576	0.3625	1.5611	0.0065	-1.1577	0.2549	0.3897
-1.7513	0.8631	9.5422	-0.2207	0.4372	-0.0531	0.4623	0.006	-0.1441	-1.4789	-0.0734	9.5722	-0.8853	0.3836	-0.0256	1.0521	-0.5949	-1.1121	8.4142	5.0962	0.5044	0.6356	1.5607	-0.0606	-1.1401	0.2197	0.3938
-1.1172	0.8045	9.5545	-0.1903	0.5579	-0.1447	0.4503	0.018	-0.1561	-1.4733	0.0417	9.8695	-0.671	0.3487	0.0977	1.0369	-0.5561	-1.1137	8.9213	4.6926	0.1631	0.6393	1.4063	-0.0035	-1.1573	0.2354	0.4099
-1.7451	0.5188	9.8369	-0.2776	0.6233	0.0103	0.4563	0.012	-0.1561	-1.4857	0.2694	9.2758	-0.5144	0.4693	0.0075	1.0228	-0.5733	-1.1488	8.698	4.5216	0.3913	0.5489	1.5602	0.1569	-1.157	0.2335	0.4283
-1.9799	1.0363	9.6564	-0.3416	0.6867	-0.1098	0.4623	0.006	-0.1561	-1.13	-0.3601	9.6976	-0.4836	0.4988	0.1625	1.0365	-0.5369	-1.1145	8.2409	4.3501	0.3232	0.6782	1.528	0.4616	-1.1752	0.255	0.3895
-1.4059	0.4599	9.4889	-0.3764	0.5045	-0.1405	0.4503	0.012	-0.1501	-1.2998	-0.1877	9.8726	-0.4862	0.3758	0.2221	1.0361	-0.5339	-1.1859	8.4115	4.6366	0.3277	0.7448	1.4654	0.6743	-1.1578	0.2217	0.3751
-1.8056	0.8636	9.7184	-0.279	0.5927	-0.0203	0.4623	0.024	-0.1621	-1.4086	-0.4157	10.1669	-0.7284	0.5947	0.2564	1.0503	-0.5174	-1.133	8.4651	4.6359	0.1538	0.3768	1.5589	0.6535	-1.1749	0.2023	0.395
-1.5787	0.4027	9.4854	-0.2783	0.5317	0.0403	0.4623	0	-0.1561	-1.6539	0.2703	9.5099	-0.4855	0.3765	0.0368	1.0499	-0.4982	-1.1338	8.7516	4.5209	0.2174	0.5022	1.3735	0.6765	-1.1752	0.255	0.3895
-1.346	0.4601	9.6082	-0.159	0.4346	-0.0546	0.4443	0.006	-0.1501	-1.1316	0.3266	9.699	-0.7002	0.4711	0.316	1.0376	-0.5768	-1.0772	8.4659	4.177	0.1521	0.5571	1.6512	0.5909	-1.175	0.2199	0.3932
-1.6886	0.5186	9.779	-0.2499	0.4386	0.0086	0.4623	0.012	-0.1501	-1.13	0.1551	9.758	-0.6398	0.3786	0.1601	1.0498	-0.4974	-1.1516	8.807	4.8648	0.1615	0.4052	1.5592	0.5604	-1.1927	0.2551	0.3892
-1.5217	0.7476	9.4874	-0.2869	0.2257	-0.0832	0.4623	0	-0.1621	-1.371	0.4981	9.2786	-0.6982	0.5634	0.2559	1.0502	-0.5166	-1.1509	8.6913	4.4057	0.0408	0.4929	1.498	0.3412	-1.175	0.2199	0.3932
-1.1734	0.6322	9.612	-0.0032	0.3673	0.0327	0.4383	0	-0.1501	-1.7067	0.2137	9.7463	-0.8236	0.4129	0.0677	1.0787	-0.5006	-1.0978	8.2406	4.5222	0.3238	0.2723	1.5612	0.07	-1.1404	0.2216	0.3754
-1.6859	0.9215	9.9572	-0.2763	0.5014	0.1316	0.4503	0.024	-0.1561	-1.653	0.3849	9.5696	-0.7595	0.5648	0.1941	1.0506	-0.5358	-1.1501	8.5182	4.9794	-0.0189	0.271	1.5614	0.0083	-1.2104	0.2395	0.3724
-1.7522	0.748	9.4829	-0.281	0.4704	-0.021	0.4503	0.006	-0.1501	-1.188	0.2697	9.7571	-0.9741	0.6294	0.2875	1.0374	-0.5753	-1.113	8.7006	5.0959	0.5685	0.421	1.4999	-0.1505	-1.175	0.2706	0.4059
-1.5724	1.2661	9.9012	-0.3407	0.4427	0.0718	0.4623	0.018	-0.1501	-1.3117	-0.1888	9.2784	-0.853	0.5049	0.1928	1.0087	-0.5906	-1.1839	8.4723	5.1536	0.5641	0.5086	1.531	-0.3055	-1.1748	0.2355	0.4096
-1.7467	0.8062	9.7785	-0.2526	0.2248	0.0379	0.4563	-0.012	-0.1621	-1.1388	-0.132	9.2821	-1.0367	0.5692	0.2554	1.0509	-0.5381	-1.0965	8.0668	4.8088	0.2047	0.5999	1.5001	-0.3391	-1.2284	0.2435	0.3355
-1.1714	0.7475	9.7305	-0.0332	0.5212	-0.0267	0.4443	0.024	-0.1621	-1.3604	0.0411	9.7531	-1.2802	0.6666	-0.0212	1.0653	-0.5385	-1.0964	8.4159	4.7522	0.5615	0.3304	1.5307	-0.0862	-1.193	0.257	0.3708
-1.5775	0.9779	9.605	-0.4087	0.3226	-0.0797	0.4443	0	-0.1441	-1.4202	-0.0162	9.6329	-1.1615	0.4493	0.0678	1.0078	-0.5353	-1.1326	8.2983	4.8091	0.3844	0.4257	1.5914	0.1294	-1.1576	0.2373	0.3916
-1.5221	0.9775	9.4879	-0.3721	0.4134	0.0724	0.4503	-0.006	-0.1441	-1.4261	-0.5319	9.2754	-1.0998	0.4784	0.1919	1.0505	-0.535	-1.168	8.5814	4.6935	0.273	0.6438	1.2826	0.1162	-1.1748	0.2355	0.4096
-1.7496	1.1509	9.6611	-0.2851	0.3784	-0.1129	0.4623	0.012	-0.1501	-1.2444	-0.2453	9.7549	-1.1285	0.5414	-0.0541	1.0372	-0.5745	-1.1308	8.5264	4.1202	0.3281	0.3336	1.4995	0.0361	-1.1586	0.2431	0.3366
-1.2904	0.3447	9.4909	-0.3791	0.4432	-0.2018	0.4563	0.012	-0.1501	-1.7113	0.156	9.5085	-1.0355	0.6307	0.2256	1.0075	-0.5338	-1.1683	8.4661	4.7508	0.2125	0.436	1.4053	0.463	-1.1753	0.2218	0.3749
-1.2345	1.2645	9.4942	-0.2508	0.5301	-0.0824	0.4563	0	-0.1501	-1.5311	0.099	9.8685	-0.9453	0.4766	0.0069	1.0363	-0.5354	-1.1502	8.7598	4.4077	0.6255	0.441	1.2507	0.5817	-1.175	0.2706	0.4059
-1.4072	0.5747	9.4301	-0.256	0.4685	-0.2351	0.4683	0.024	-0.1561	-1.3091	0.2121	9.4575	-1.0386	0.4169	-0.0253	1.0377	-0.5937	-1.1301	8.2923	4.2916	0.0324	0.4717	1.2813	0.6128	-1.1232	0.2234	0.3574
-1.5285	0.8042	9.1329	-0.1296	0.2501	0.0046	0.4443	0.018	-0.1561	-1.5358	0.0986	9.6308	-1.0385	0.4171	-0.0561	1.036	-0.517	-1.1331	8.6969	4.5214	0.333	0.5621	1.2198	0.5168	-1.1755	0.2062	0.3584
-1.7491	0.8634	9.6605	-0.346	0.3811	-0.0809	0.4563	0	-0.1441	-1.3614	-0.0162	9.6935	-0.9144	0.4762	-0.024	1.0372	-0.5745	-1.1308	8.584	4.5218	0.3891	0.5896	1.374	0.4898	-1.2104	0.2395	0.3724
-1.7485	0.5759	9.6598	-0.3471	0.4115	-0.1417	0.4563	0.012	-0.1561	-1.1321	0.0404	9.639	-0.9479	0.3234	-0.0576	1.0216	-0.5165	-1.1332	8.7016	4.4075	0.566	0.3449	1.5592	0.5925	-1.2275	0.2377	0.3904
-1.5162	0.8058	9.783	-0.1379	0.2492	-0.3003	0.4623	0.018	-0.1501	-1.4779	-0.016	9.6317	-0.9149	0.4756	0.1304	1.0363	-0.5354	-1.1502	8.5793	4.5784	0.1558	0.3716	1.4982	0.3744	-1.1932	0.2414	0.3544
-1.5714	0.6912	9.8998	-0.2547	0.4991	-0.2045	0.4683	0	-0.1441	-1.4284	-0.0742	9.2169	-0.9472	0.3843	0.067	1.0513	-0.5734	-1.1664	8.978	4.9219	0.1651	0.4023	1.4366	0.3412	-1.1406	0.206	0.359
-1.2793	1.0362	10.1427	-0.3797	0.2601	-0.1113	0.4443	0.006	-0.1381	-1.075	0.2691	9.6406	-1.3171	0.3298	-0.0891	1.0082	-0.5545	-1.1318	8.7482	4.5203	0.0423	0.3679	1.468	0.1887	-1.1403	0.2548	0.39
-1.7489	0.7484	9.6602	-0.1378	0.1577	-0.2398	0.4503	0.012	-0.1441	-1.2425	-0.0161	9.8742	-1.5033	0.2712	0.0022	1.0643	-0.4994	-1.1158	8.6988	4.7513	0.4505	0.182	1.6227	0.166	-1.176	0.2432	0.3363
-1.6905	0.9784	9.721	0.0173	0.1513	-0.2131	0.4623	0.006	-0.1621	-1.1879	-0.2455	9.6966	-2.0266	0.25	-0.1226	1.0359	-0.5162	-1.151	8.3016	4.9244	0.5599	0.1836	1.561	0.195	-1.158	0.2568	0.3714
-1.1108	0.9778	9.9095	-0.1337	0.2496	-0.1478	0.4443	0.012	-0.1501	-1.1962	-0.2463	9.2807	-1.9058	0.1251	-0.1246	1.0653	-0.5554	-1.1492	8.6341	4.5205	0.0401	-0.0292	1.5614	0.2301	-1.1747	0.2686	0.4242
-1.7458	0.9213	9.8379	0.0711	0.0258	-0.4287	0.4563	0	-0.1441	-1.3089	0.1549	9.4574	-2.3339	0.2858	-0.0916	1.0786	-0.4998	-1.1157	8.8089	4.3488	0.2179	-0.0283	1.4997	0.2283	-1.1753	0.2725	0.3876
-1.2892	0.9199	9.6105	0.1082	0.1473	-0.2763	0.4503	0.012	-0.1501	-1.4209	-0.2452	9.573	-2.21	0.3445	0.0332	1.0381	-0.6129	-1.1293	8.6941	4.8078	0.2173	0.034	1.4994	0.2887	-1.2097	0.2357	0.4091
-1.8086	0.6907	9.5407	0.2245	0.0193	-0.4629	0.4683	0	-0.1441	-0.9537	0.7274	10.0004	-2.3025	0.2859	-0.246	1.0505	-0.535	-1.168	8.3593	4.5228	0.5596	0.217	1.4989	0.2851	-1.1757	0.2413	0.3547
-1.5756	0.5756	9.6631	0.5011	-0.0535	-0.4701	0.4563	0.012	-0.1381	-1.4194	-0.3596	9.6322	-2.1765	0.4673	-0.0881	1.0511	-0.5558	-1.1315	8.6934	4.5208	0.1579	0.5559	1.4976	0.4324	-1.1932	0.2414	0.3544
-1.2337	0.862	9.4932	0.4991	-0.1757	-0.4707	0.4623	0.006	-0.1441	-1.5351	-0.1876	9.6302	-2.1744	0.5597	-0.1791	1.0207	-0.4774	-1.1526	8.4642	5.2095	0.1558	0.8612	1.4353	0.3937	-1.1927	0.2551	0.3892
-1.8071	0.4609	9.5993	0.6499	-0.3351	-0.5058	0.4503	0.024	-0.1561	-1.4207	0.1555	9.6333	-2.0847	0.4051	-0.2744	1.0216	-0.5165	-1.1332	8.466	4.8082	0.2127	1.4953	1.4962	0.1361	-1.1573	0.2354	0.4099
-1.1185	0.8618	9.4955	0.961	-0.3477	-0.422	0.4443	-0.006	-0.1561	-1.3595	0.1557	9.8127	-2.0881	0.251	-0.1227	1.051	-0.555	-1.1493	8.407	4.6358	0.0943	2.0684	1.5573	-0.1202	-1.1397	0.2685	0.4248
-1.3481	0.9774	9.5504	0.4705	-0.2352	-0.3484	0.4563	0.012	-0.1741	-1.7035	-0.1295	9.8644	-1.6594	0.1512	-0.0311	1.0226	-0.5557	-1.1138	8.3541	4.1776	0.2665	2.4938	1.5257	-0.2221	-1.1755	0.2062	0.3584
-1.7499	0.6908	9.6009	-0.4507	0.2617	-0.4451	0.4383	0.012	-0.1501	-1.4143	-0.5308	9.8696	-1.2007	-0.0101	-0.0332	1.0226	-0.5557	-1.1138	8.4058	4.6356	0.0359	2.1422	1.3753	-1.0516	-1.1572	0.2178	0.4118
-1.7977	0.8646	10.1322	-0.4452	0.5368	-0.4132	0.4563	0	-0.1501	-1.3636	-0.5888	9.5141	-0.7991	0.1049	0.1858	1.0224	-0.5541	-1.1496	8.6346	4.9222	0.0999	1.6606	1.4062	-0.7329	-1.1402	0.2372	0.3919
-1.5789	0.5177	9.4857	-0.6294	0.6972	-0.4688	0.4563	0.018	-0.1561	-1.5372	0.1557	9.5715	-0.5517	0.1321	0.0323	1.0503	-0.5174	-1.133	8.8062	4.6352	0.1023	1.2882	1.4696	-0.9702	-1.1927	0.2551	0.3892
-1.6911	0.6908	9.6612	-0.6602	0.6985	-0.468	0.4503	0.006	-0.1621	-1.2498	0.0404	9.5178	0.1571	0.2112	0.2511	1.0517	-0.5918	-1.1835	8.5801	4.808	0.215	2.1242	1.4396	-1.8201	-1.1232	0.2234	0.3574
-1.8074	0.6334	9.5997	-0.7838	0.6426	-0.4348	0.4563	0	-0.1561	-1.1922	0.0403	9.5189	-0.0563	0.3373	0.3148	1.0513	-0.5734	-1.1664	8.422	4.5238	0.8525	2.5046	1.195	-2.7286	-1.1926	0.2375	0.391
-1.4618	0.7477	9.6067	-0.5383	0.7542	-0.5622	0.4683	0.012	-0.1441	-1.2473	-0.0166	9.6365	-0.2976	0.5272	-0.0529	1.0363	-0.5354	-1.1502	8.6285	4.4621	-0.2519	2.2465	1.2286	-3.339	-1.2284	0.2942	0.3482
-1.4046	0.9776	9.6084	-0.5091	0.5086	-0.4728	0.4563	0.018	-0.1561	-0.9605	0.0971	9.5832	-0.3596	0.5278	0.0706	1.0363	-0.5354	-1.1502	8.8062	4.6352	0.1023	2.2567	1.1347	-2.9411	-1.1748	0.2355	0.4096
-0.8858	0.9192	9.6183	-0.3514	0.5025	-0.3546	0.4623	0.018	-0.1501	-1.1906	-0.1313	9.578	-0.8253	0.3508	0.221	1.0368	-0.5553	-1.1316	8.6369	4.9227	0.2166	1.6647	1.0719	-2.1604	-1.1747	0.2179	0.4115
-1.1683	0.9204	9.9082	0.1114	0.4832	-0.366	0.4443	0.006	-0.1441	-1.3641	0.098	9.5749	-1.1318	0.4475	0.3766	1.0501	-0.4997	-1.0981	8.1838	4.4075	0.3223	1.2577	1.1006	-1.2267	-1.1752	0.255	0.3895
-1.2898	0.6323	9.5507	0.3572	0.1677	-0.2213	0.4683	0.024	-0.1621	-1.3641	0.098	9.5749	-1.2562	0.358	0.2513	1.0651	-0.5539	-1.1849	8.7446	4.6344	-0.1323	1.0238	0.8843	-0.92	-1.1579	0.2392	0.3733
-1.5192	1.2654	9.6659	0.7932	0.2415	-0.1399	0.4503	0.012	-0.1561	-1.7089	0.1562	9.6273	-1.4412	0.3608	0.3437	1.036	-0.517	-1.1331	8.9722	4.2323	-0.1875	1.3563	1.0378	-0.9531	-1.2274	0.2709	0.405
-1.6313	0.7485	9.7806	0.5442	0.4652	-0.3461	0.4503	-0.006	-0.1501	-1.3625	-0.0735	9.634	-1.2243	0.3889	0.0975	1.0511	-0.5558	-1.1315	8.4006	5.0363	-0.1961	1.5975	1.1299	-1.0169	-1.1925	0.22	0.3929
-1.6271	0.864	10.0173	0.3878	0.3494	-0.343	0.4503	0	-0.1441	-1.3063	0.0407	9.576	-1.0694	0.4475	0.1297	1.0372	-0.5745	-1.1308	8.4002	4.5772	-0.2561	1.811	1.2216	-0.9569	-1.1582	0.2412	0.355
-1.2869	0.2301	9.6679	0.2619	0.3543	-0.4314	0.4683	0	-0.1561	-1.4827	-0.4745	9.3337	-0.8557	0.4118	0.4382	1.037	-0.5568	-1.0959	8.7467	4.7496	-0.0152	2.0985	1.4389	-1.6038	-1.2102	0.2044	0.3761
-1.3467	0.805	9.6091	0.2587	0.2624	-0.4929	0.4443	-0.006	-0.1621	-1.4302	0.1546	9.1579	-0.639	0.4096	0.0989	1.0369	-0.5722	-1.1844	8.4659	4.8656	0.2129	2.5658	1.687	-2.3767	-1.2108	0.259	0.3522
-1.4036	1.0353	9.6676	0.1292	0.2059	-0.6731	0.4563	0.012	-0.1381	-1.3692	0.2693	9.3376	-1.131	0.3885	-0.1803	1.065	-0.537	-1.1321	8.9233	4.8651	0.2804	3.1621	1.6876	-3.0051	-1.1399	0.2353	0.4102
-1.6982	0.8625	9.3069	0.1328	0.1758	-0.5208	0.4563	0.012	-0.1441	-1.2456	0.2698	9.7559	-1.0064	0.4481	-0.2717	1.0228	-0.5572	-1.0781	8.8072	4.6927	0.1608	3.9126	1.6261	-3.6075	-1.1758	0.2081	0.3401
-1.4081	0.4021	9.3706	-0.124	0.185	-0.8806	0.4443	0.012	-0.1501	-1.4267	-0.303	9.2758	-1.4994	0.3658	-0.5829	1.038	-0.6121	-1.1471	8.583	4.4069	0.3303	4.5462	1.9024	-3.7356	-1.2094	0.2337	0.4274
-1.9262	0.7482	9.4204	0.2288	-0.1679	-1.3183	0.4563	0.012	-0.1561	-1.1903	0.2694	9.6382	-2.0545	0.3138	-0.5848	1.0507	-0.5366	-1.1322	8.6294	4.6344	-0.1929	5.4921	1.6847	-3.8841	-1.1577	0.2041	0.377
-1.2926	0.9195	9.4332	0.4849	-0.7615	-1.755	0.4563	0	-0.1501	-1.1892	0.2695	9.6977	-2.9182	0.2061	-0.6809	1.0518	-0.5765	-1.095	8.579	4.7505	0.1565	6.0752	1.8057	-3.6456	-1.1404	0.2216	0.3754
-1.9177	0.9792	9.8938	0.5639	-1.6562	-2.8298	0.4503	-0.012	-0.1561	-1.7113	0.156	9.5085	-3.8085	0.344	-0.6491	1.0233	-0.5933	-1.1302	8.6317	4.6348	-0.0762	6.715	2.1734	-3.4322	-1.1741	0.2141	0.4482
-1.3559	0.9764	9.1367	2.4681	-2.4999	-2.7284	0.4443	0.006	-0.1561	-1.1342	0.3836	9.5802	-3.8084	0.314	-0.8349	1.0499	-0.4982	-1.1338	8.5282	4.4074	0.4459	7.4503	2.171	-3.2928	-1.2271	0.2182	0.4106
-1.5806	0.805	9.4273	1.5072	-2.5213	-2.8272	0.4443	0.006	-0.1501	-1.1894	-0.1312	9.6374	-3.3139	0.4582	-0.6153	1.0643	-0.4994	-1.1158	8.682	4.5187	-0.4256	8.0416	2.1985	-2.749	-1.1747	0.2179	0.4115
-1.513	0.9212	9.9606	1.8842	-2.5361	-2.5924	0.4683	0.006	-0.1561	-1.1342	-0.0743	9.5199	-2.7317	0.3252	-0.5549	1.0506	-0.5358	-1.1501	8.8568	4.347	-0.2478	8.5095	2.3188	-2.2	-1.193	0.2063	0.3581
-1.5219	0.8626	9.4876	1.2374	-2.5394	-2.5157	0.4443	0	-0.1501	-1.5319	-0.5307	9.7483	-2.2988	0.4403	-0.4594	1.0362	-0.5346	-1.1681	8.3474	4.8075	-0.023	8.9139	2.4704	-1.7414	-1.1575	0.2198	0.3935
-1.1706	0.2876	9.7294	0.5873	-2.543	-2.5609	0.4623	0.012	-0.1441	-1.5352	0.3276	9.6907	-1.9571	0.5883	-0.5488	1.0499	-0.4982	-1.1338	8.5094	4.7483	-0.4866	8.8202	2.717	-1.6708	-1.1576	0.2373	0.3916
-1.6374	0.9778	9.4857	0.1351	-2.3394	-2.2742	0.4443	0.006	-0.1561	-1.5295	-0.0725	9.9275	-1.2808	0.5458	-0.4867	1.0785	-0.499	-1.1336	8.9729	4.5193	-0.1281	9.0284	2.9326	-1.7613	-1.1578	0.2217	0.3751
-2.0983	0.9211	9.4765	-0.2863	-2.4422	-1.8069	0.4563	0.018	-0.1381	-1.425	-0.0166	9.3952	-0.8845	0.3546	-0.4276	1.0511	-0.5388	-1.0787	8.3432	4.5773	-0.2572	8.9751	2.8701	-1.4538	-1.1756	0.2237	0.3565
-1.6948	0.8629	9.4843	-0.521	-1.9119	-1.6762	0.4563	0	-0.1621	-1.3583	-0.3021	9.8118	-0.3278	0.5284	-0.2073	1.0628	-0.4403	-1.1538	8.7983	4.5763	-0.3064	8.7587	2.6558	-1.733	-1.1921	0.2512	0.4258
-1.5238	0.6898	9.369	-1.0952	-1.6725	-1.3558	0.4503	-0.006	-0.1621	-1.1894	-0.1312	9.6374	-0.0506	0.524	-0.2687	1.0653	-0.5385	-1.0964	8.4588	4.2905	-0.1976	8.367	2.1946	-1.8308	-1.1747	0.2179	0.4115
-1.6315	0.2309	9.7203	-1.3413	-1.5706	-1.3797	0.4563	0	-0.1441	-1.2429	-0.3596	9.814	-0.1151	0.4016	-0.1166	1.0354	-0.497	-1.1518	8.4005	4.3477	-0.2569	7.5124	2.1968	-1.8445	-1.1924	0.2024	0.3948
-1.5215	0.6326	9.4871	-1.1469	-1.4248	-1.1395	0.4623	0.006	-0.1381	-1.1319	-0.0741	9.6387	0.1296	0.3056	-0.1796	1.0647	-0.5186	-1.115	8.2236	4.4043	-0.5519	7.1706	1.8911	-2.3396	-1.1404	0.2216	0.3754
-1.4618	0.7477	9.6067	-1.1378	-1.3323	-0.8647	0.4503	0.006	-0.1501	-0.9574	0.2691	9.7618	0.6805	0.1726	0.0043	1.0787	-0.5006	-1.0978	8.3963	4.8634	-0.4301	7.129	1.8621	-2.8636	-1.1745	0.2335	0.428
-1.5136	0.6336	9.9008	-0.6354	-0.986	-0.7834	0.4503	0	-0.1561	-1.3033	-0.188	9.6944	0.4971	0.2072	-0.1807	1.0935	-0.5363	-1.1676	8.4515	4.576	-0.5467	6.6852	1.712	-3.7222	-1.1574	0.2022	0.3953
-1.1773	0.9193	9.4354	-0.7484	-0.6136	-0.626	0.4563	0.012	-0.1561	-1.4766	-0.0732	9.691	1.5358	-0.2396	-0.3413	1.0516	-0.5749	-1.1307	8.9095	4.9199	-0.4196	6.1742	1.5275	-3.5014	-1.1744	0.1653	0.4171
-1.1683	0.9204	9.9082	-1.2006	-0.41	-0.3392	0.4563	0.012	-0.1621	-1.3603	-0.474	9.6926	3.3835	-0.1795	-0.2135	1.0792	-0.5367	-1.1499	8.9696	4.4613	-0.3034	5.7898	1.4036	-3.0349	-1.175	0.2199	0.3932
-1.5763	0.288	9.6033	-0.8818	-0.1168	-0.1623	0.4563	-0.006	-0.1501	-1.3582	-0.3593	9.8117	2.7335	-0.323	0.0299	1.0076	-0.5176	-1.0976	8.4455	4.7471	-0.8379	4.9211	1.2188	-2.4371	-1.1223	0.2176	0.4124
-1.2873	1.0927	9.7291	-0.9322	0.4057	-0.0665	0.4683	0.012	-0.1501	-1.2519	-0.0743	9.3987	1.2165	-0.728	0.2671	1.0498	-0.4974	-1.1516	8.3434	4.4052	-0.2578	4.3741	0.9076	-1.1712	-1.1745	0.2335	0.428
-1.4622	0.9777	9.6072	-1.0433	0.5952	0.2728	0.4563	0.006	-0.1501	-1.411	-0.416	10.048	1.8618	-0.7402	0.546	1.0229	-0.5741	-1.1309	8.2292	4.5201	-0.2597	3.623	0.657	0.5628	-1.1577	0.2041	0.377
-1.6374	0.9778	9.4857	-1.5973	0.8932	0.166	0.4563	0.012	-0.1501	-1.2495	-0.5892	9.4571	2.6865	-1.0617	0.6343	1.022	-0.535	-1.1503	8.3984	4.2326	-0.374	3.0277	0.3132	2.3836	-1.1052	0.237	0.3925
-0.8863	0.5741	9.5584	-1.7215	1.0508	0.0479	0.4503	0.018	-0.1441	-1.3033	-0.7032	9.6339	1.6616	-1.4755	0.9649	1.0366	-0.5377	-1.0966	8.3938	4.2891	-0.6073	3.0762	-0.0634	4.3138	-1.1578	0.2217	0.3751
-1.4028	1.2079	9.7271	-1.9943	1.3985	0.026	0.4623	0	-0.1501	-1.3622	-0.188	9.6338	2.0924	-1.5129	0.8105	1.0648	-0.5355	-1.1679	8.5744	4.807	-0.0768	3.0284	-0.7159	5.8373	-1.1745	0.1828	0.4152
-1.402	0.8054	9.7262	-2.3043	1.2282	0.0936	0.4503	0.012	-0.1561	-1.3013	-0.5313	9.7531	1.965	-1.6058	1.519	1.0501	-0.5159	-1.1687	8.4571	4.6344	-0.2547	3.3397	-1.276	7.1097	-1.1391	0.1631	0.436
-1.1139	0.8049	9.7318	-2.4975	1.2046	-0.1764	0.4503	0.012	-0.1501	-1.524	-0.3582	10.1646	1.5968	-1.4482	2.0154	1.0359	-0.5162	-1.151	8.4578	4.9215	-0.1953	3.429	-2.1725	7.7605	-1.1924	0.2531	0.4075
-1.1137	0.6899	9.7315	-2.6438	1.334	0.0415	0.4503	0.018	-0.1681	-1.3594	-0.3595	9.7522	1.6691	-2.4034	2.5235	1.0224	-0.5541	-1.1496	8.286	4.6347	-0.2582	3.5624	-3.1281	7.6072	-1.14	0.2021	0.3956
-0.6552	0.8613	9.6227	-3.3949	1.7299	-0.5481	0.4563	0.006	-0.1621	-1.9088	0.217	11.1676	2.7153	-3.9283	3.1467	1.0086	-0.5737	-1.1311	8.3423	5.1509	-0.2551	3.4726	-3.8355	7.1881	-1.1751	0.2374	0.3913
-1.1216	0.7464	9.3179	-4.4082	2.1086	-0.5518	0.4443	0.018	-0.1501	-1.0005	0.1562	10.4735	-1.0742	-7.6331	1.468	1.0506	-0.5358	-1.1501	8.1148	4.0038	-0.3222	3.2901	-4.5119	6.7409	-1.1401	0.2197	0.3938
-1.1164	0.9771	9.614	-4.1941	2.0384	-0.5879	0.4503	0.012	-0.1621	-1.3586	-0.7028	9.7516	5.1538	-8.722	1.5521	1.0373	-0.5914	-1.1836	8.4002	4.5772	-0.2561	3.239	-5.4052	6.5623	-1.1751	0.2374	0.3913
-1.6441	0.3444	9.0704	-4.5074	1.6237	-0.4912	0.4503	0.006	-0.1561	-1.649	-0.3017	9.687	3.0387	-9.8531	1.6517	1.0794	-0.5374	-1.132	8.1106	4.4621	-0.4956	3.4372	-5.7464	7.011	-1.1387	0.1944	0.4689
-1.4044	0.8626	9.6081	-4.7155	1.6031	-0.1812	0.4443	0.006	-0.1501	-1.1292	-0.1883	9.7573	2.0915	-11.0057	2.1237	1.0227	-0.5564	-1.096	8.6291	4.8065	-0.1923	3.9175	-6.0894	7.793	-1.2099	0.2201	0.3926
-1.8521	0.9226	10.3085	-4.4494	1.1021	-0.3125	0.4563	0.006	-0.1501	-1.3504	-0.1296	10.2281	1.452	-12.0737	3.1227	1.0516	-0.5749	-1.1307	8.7397	4.8057	-0.3651	4.3096	-6.525	8.6666	-1.192	0.2336	0.4277
-1.4033	0.8628	9.6672	-4.125	0.3541	-0.4162	0.4503	0.006	-0.1561	-1.4629	0.1572	10.4045	2.0137	-12.9207	5.0853	1.0361	-0.5177	-1.1153	8.287	4.7497	-0.1994	4.0094	-6.7096	8.7598	-1.1753	0.2218	0.3749
-1.2905	0.4022	9.491	-3.7026	-0.2752	-0.3996	0.4443	0.018	-0.1621	-0.7746	-0.36	10.1801	-0.1511	-13.1066	6.9004	1.0227	-0.5726	-1.1667	8.682	4.5187	-0.4256	3.676	-7.1704	8.5376	-1.193	0.257	0.3708
-1.4019	0.7479	9.726	-3.4704	-0.8057	-0.6219	0.4443	0.012	-0.1441	-1.5265	-0.3012	10.0459	-3.2626	-14.4743	8.8473	1.0083	-0.5714	-1.1846	8.7997	4.4045	-0.2487	2.9393	-7.2602	8.2723	-1.2097	0.2357	0.4091
-1.4024	0.4028	9.6661	-3.3219	-1.1483	-0.6275	0.4503	0.006	-0.1441	-1.1165	0.4426	10.4717	-5.7801	-16.898	11.2396	1.0359	-0.5162	-1.151	8.8528	4.7479	-0.4214	1.5887	-7.3171	7.8662	-1.1565	0.1457	0.4376
-1.6327	0.8633	9.7218	-2.8824	-0.9216	-0.5148	0.4503	0.006	-0.1741	-2.0806	-0.2404	11.1631	-6.203	-21.192	11.9036	1.0227	-0.5564	-1.096	8.5757	4.6925	-0.0188	0.6378	-7.7753	7.3173	-1.175	0.2199	0.3932
-1.7513	0.8631	9.5422	-2.6972	-1.1734	-0.3682	0.4503	0.018	-0.1561	-5.0254	-0.2911	10.8648	-17.5253	-31.7466	5.0552	0.9948	-0.6093	-1.1832	8.5167	4.4627	-0.1375	-0.4467	-8.0469	6.3756	-1.1749	0.2023	0.395
-1.4579	0.4607	9.7833	-3.2529	-1.3637	-0.2338	0.4503	0	-0.1441	-1.3299	-0.7573	11.1775	-4.9237	-34.3292	5.9576	0.9927	-0.4972	-1.1164	8.5202	4.4633	0.0376	-1.0942	-8.7209	5.5987	-1.1573	0.1847	0.3972
-1.7508	0.5756	9.5415	-2.6371	-1.2676	-0.3702	0.4443	0.018	-0.1501	-3.0275	0.5151	15.778	5.7161	-39.6944	-2.2733	1.0083	-0.5552	-1.114	9.032	4.6344	-0.0099	-2.0521	-9.3011	4.6458	-1.1917	0.2317	0.446
-1.2831	0.6331	9.9053	-2.61	-1.1473	-0.5838	0.4503	0.018	-0.1681	-1.4639	-0.4154	10.2845	52.1069	-45.9131	3.5029	0.9945	-0.5909	-1.1661	8.2904	4.7503	-0.0243	-3.0347	-9.636	4.1319	-1.1575	0.2705	0.4062
-1.4625	0.5176	9.547	-2.6827	-0.9582	0.0292	0.4563	0.024	-0.1561	-1.5524	-0.1835	11.6493	21.5941	-52.4393	-0.1567	0.9807	-0.6104	-1.1476	8.286	4.6347	-0.2582	-4.0819	-9.9088	3.4977	-1.1919	0.2161	0.4295
-1.9848	0.6331	9.3599	-2.0144	-0.8658	-0.4441	0.4623	0.018	-0.1561	-1.5391	0.2185	12.3631	30.3616	-59.0372	0.0497	0.9936	-0.5525	-1.1677	8.5818	4.464	0.2721	-5.2215	-10.2119	2.8029	-1.157	0.2335	0.4283
-1.5199	0.9778	9.6061	-3.7098	-0.3628	0.5152	0.4563	0.012	-0.1501	-1.0954	-1.3871	11.2998	33.6147	-63.5861	-4.5659	0.937	-0.5715	-1.1316	8.8108	4.5786	0.3355	-6.6222	-10.2349	1.5356	-1.2435	0.2457	0.4799
-1.3462	0.5751	9.6085	-3.0119	0.0989	0.8975	0.4563	0.018	-0.1441	-1.7537	0.9648	13.2512	25.6136	-65.6266	1.8388	0.9806	-0.6097	-1.1655	8.8136	4.2922	0.4512	-7.4398	-9.9523	0.6352	-1.1927	0.2551	0.3892
-1.517	0.6331	9.7235	-2.8839	0.0638	1.0772	0.4683	0.024	-0.1441	-0.6747	-0.1271	12.3208	54.2047	-70.316	0.9401	0.9226	-0.5873	-1.2024	8.3575	4.1782	0.4416	-8.9919	-9.6367	-0.342	-1.1743	0.1984	0.4317
-1.0535	1.1502	9.911	-3.8958	0.6655	3.2407	0.4443	0.012	-0.1621	-0.6133	-1.6724	12.3189	54.2624	-74.1156	-1.0425	0.8947	-0.6071	-1.1661	8.4123	4.1203	0.3258	-9.6582	-9.5081	-1.4038	-1.2276	0.2553	0.3886
-1.1152	0.9198	9.6729	-3.7723	0.1324	1.3128	0.4443	0.024	-0.1441	-0.353	-2.1853	13.7487	65.0661	-75.105	0.5956	0.9101	-0.6474	-1.1288	8.4107	4.407	0.2685	-10.611	-9.6585	-1.8206	-1.1922	0.218	0.4112
-1.2863	0.5177	9.7277	-1.2342	0.2104	1.4345	0.4623	0.018	-0.1621	0.0379	-1.844	13.1635	86.7912	-76.0902	0.8011	0.8969	-0.7038	-1.1444	8.8236	4.4662	0.977	-11.719	-10.0849	-2.5505	-1.192	0.2336	0.4277
-1.4632	0.9201	9.548	-1.1718	0.1469	1.4936	0.4503	0.012	-0.1501	-0.135	-1.9008	13.1598	98.4398	-78.008	0.7872	0.8806	-0.6251	-1.1834	8.592	4.5233	0.7975	-12.7785	-10.7248	-3.9964	-1.2268	0.2163	0.429
-1.8036	0.4038	9.7764	-1.1024	0.2061	1.7363	0.4383	-0.006	-0.1561	1.1727	-2.7072	12.1754	110.8675	-79.8345	-2.1578	0.8973	-0.723	-1.1437	9.2184	4.35	0.7511	-13.6548	-11.4267	-5.4785	-1.1743	0.2492	0.4444
-1.3456	0.8627	9.6683	-0.8029	0.1007	1.4539	0.4623	0.006	-0.1501	0.3516	-2.3059	11.5059	118.5462	-82.2276	-4.4417	0.8684	-0.7206	-1.1796	8.9861	4.1201	0.5123	-14.0546	-11.8867	-5.9461	-1.1919	0.2161	0.4295
-1.0597	0.2293	9.4951	-0.2384	0.5666	1.4734	0.4443	0.012	-0.1381	1.7901	-2.1379	11.4171	111.8966	-81.6413	-7.3151	0.8393	-0.6998	-1.1985	9.438	3.9464	0.2874	-13.9132	-12.3775	-6.7952	-1.2269	0.2338	0.4271
-1.2299	0.575	9.6699	-0.2033	0.7183	1.5344	0.4563	0.012	-0.1501	1.5392	-2.0821	10.4024	120.7737	-81.6413	-13.9707	0.8261	-0.7401	-1.1435	9.3222	3.602	0.1672	-13.6205	-12.4686	-7.4202	-1.2269	0.2338	0.4271
-1.3453	0.6902	9.6679	-0.6057	0.8569	1.4229	0.4383	0.012	-0.1441	0.9933	-2.7132	8.9643	111.6569	-74.5089	-22.8157	0.8561	-0.7985	-1.141	8.808	4.1765	0.159	-12.9349	-12.2218	-7.9817	-1.1918	0.1985	0.4314
-1.6364	0.4603	9.4844	-0.9146	0.9918	1.3397	0.4563	0.012	-0.1561	1.9068	-1.9721	8.6283	106.1629	-68.8288	-29.6109	0.7848	-0.7986	-1.0879	8.9282	3.9479	0.4522	-12.191	-11.6055	-8.4106	-1.2092	0.2494	0.4438
-1.2889	0.7474	9.6101	-0.5129	1.1581	1.2394	0.4383	0.024	-0.1501	-3.9435	-3.7469	1.139	126.8881	-49.6973	-41.2161	0.7707	-0.8328	-1.1758	9.5033	3.8331	0.6966	-11.4283	-10.4339	-8.9781	-1.174	0.1965	0.45
-1.7531	0.6329	9.4235	-0.3281	1.1809	1.2045	0.4443	0	-0.1441	-8.2349	-2.8747	2.7749	56.969	-21.7183	-23.1119	0.7846	-0.7971	-1.1237	9.7328	3.6608	0.7589	-9.9445	-8.8364	-8.3764	-1.209	0.2143	0.4476
-1.5184	0.8055	9.6648	-0.0442	1.6885	1.109	0.4443	0	-0.1441	-8.8812	-4.2482	1.9866	31.03	-17.1295	19.299	0.7712	-0.8358	-1.1044	8.9901	3.7192	0.6859	-8.1315	-6.9619	-7.8659	-1.2437	0.2125	0.4653
-1.4004	0.5181	9.7846	-0.1403	2.2716	0.6266	0.4503	0.006	-0.1621	-8.4417	-5.11	0.8059	-23.4879	0.2667	52.4095	0.7291	-0.8729	-1.1032	9.4424	4.062	0.5212	-7.0208	-4.6196	-8.4378	-1.1566	0.214	0.4484
-1.7505	0.4032	9.5411	0.1863	2.4391	0.04	0.4683	0.006	-0.1381	-7.0512	-5.2787	4.0416	-53.2538	15.6747	78.5486	0.7731	-0.9141	-1.0656	9.1655	3.9492	0.9236	-5.7388	-1.9991	-9.3442	-1.209	0.2143	0.4476
-1.1108	0.3452	9.8489	0.6368	2.6319	-0.5494	0.4563	0.024	-0.1501	-6.1832	-5.6239	4.1776	-76.8423	23.3914	90.9705	0.7445	-0.9132	-1.0658	9.8035	3.7206	1.4606	-4.7484	0.4047	-9.7886	-1.1911	0.2454	0.4808
-1.1709	0.46	9.7298	0.7842	2.3196	-0.6158	0.4563	0.018	-0.1621	-5.767	-5.4519	4.8398	-92.4828	29.539	94.0803	0.7869	-0.8946	-1.0841	9.3385	4.1788	1.0446	-3.5463	2.8959	-8.8784	-1.2434	0.1599	0.4709
-1.6841	0.5192	10.0154	1.7296	1.8208	-0.7637	0.4503	0.03	-0.1381	-5.8715	-4.5347	5.4929	-102.2072	39.36	90.6245	0.7429	-0.8372	-1.051	8.9972	4.3516	1.0967	-3.4037	4.804	-7.9945	-1.1734	0.1927	0.4867
-1.5717	0.8636	9.9002	1.2233	1.4435	-0.9671	0.4563	0.012	-0.1501	-6.0397	-4.0186	5.7875	-107.411	52.9252	83.9071	0.7429	-0.8372	-1.051	8.9939	4.2363	0.9212	-3.6039	6.1558	-6.4414	-1.2091	0.2318	0.4457
-1.3977	0.2884	9.9022	2.814	0.5206	-0.9806	0.4383	0.018	-0.1561	-6.3217	-2.7007	6.2596	-108.7735	68.7067	74.9811	0.7993	-0.8006	-1.0521	8.9404	4.1796	1.0949	-3.3316	6.9504	-4.6054	-1.2259	0.2105	0.4839
-1.0541	0.8626	9.8512	2.2874	0.4204	-0.9684	0.4443	0.018	-0.1621	-6.4257	-2.4704	6.8519	-106.9661	84.1295	65.5292	0.7999	-0.8205	-1.0335	8.7047	3.8917	0.6808	-3.2648	7.16	-2.8128	-1.2089	0.1967	0.4494
-1.5129	0.8637	9.9605	3.6672	-0.0963	-1.0354	0.4503	0.012	-0.1561	-6.8829	-1.1523	7.2016	-104.6996	98.0939	57.8439	0.814	-0.8194	-1.0691	8.7588	3.6042	0.5059	-2.6878	6.6007	-1.9464	-1.1913	0.2298	0.4643
-1.2874	0.5176	9.6686	3.4745	0.4949	-0.5392	0.4503	0.018	-0.1381	-7.1643	-0.0633	7.6732	-99.8356	109.8816	53.3985	0.828	-0.7853	-0.9812	8.9867	3.7185	0.5109	-2.2782	5.3059	-2.269	-1.1571	0.251	0.4264
-1.2282	0.2877	9.7283	2.7455	0.3136	0.0266	0.4683	0.018	-0.1381	-7.5576	0.1104	8.2	-95.9519	119.3394	52.0296	0.8424	-0.7865	-0.9632	8.7013	3.8911	0.5058	-1.9062	3.9815	-2.9308	-1.1919	0.2161	0.4295
-1.2931	0.5744	9.3732	4.078	0.2587	0.2074	0.4563	0.006	-0.1441	-7.0881	0.1101	8.6255	-94.8585	126.8669	53.6175	0.8842	-0.7309	-0.9473	8.36	3.318	0.4968	-0.8527	2.9046	-4.3389	-1.2792	0.2166	0.4281
-1.4589	0.9781	9.7846	3.5727	0.7708	0.6192	0.4563	0.012	-0.1501	-7.9972	1.0295	9.3808	-94.6938	132.9881	57.4954	0.8984	-0.7306	-0.9651	8.297	3.4891	0.2045	0.0552	1.2733	-5.8216	-1.1915	0.2142	0.4479
-1.5735	0.6334	9.7815	4.6305	0.8499	0.838	0.4503	0.024	-0.1621	-7.0626	0.8568	9.9936	-93.5126	137.4948	61.5007	0.9129	-0.7318	-0.9471	8.2478	3.6054	0.6123	0.9029	0.5955	-6.5977	-1.209	0.2143	0.4476
-1.2895	0.4598	9.5503	4.9415	0.9287	0.8614	0.4443	0.018	-0.1441	-6.124	0.0547	10.7241	-91.1143	139.1654	63.3571	0.9845	-0.7178	-0.8759	8.591	3.6624	0.6777	2.4541	-0.3611	-7.4884	-1.2263	0.23	0.4637
-1.3477	0.1148	9.4892	4.8791	0.9923	0.8022	0.4503	0.018	-0.1501	-4.8429	0.1674	11.404	-90.857	137.697	61.1074	0.9839	-0.6809	-0.8417	8.6996	3.4891	0.3876	4.7502	-0.2711	-8.4565	-1.2091	0.2318	0.4457
-1.2316	0.2873	9.551	5.5866	0.9318	0.7237	0.4503	0.006	-0.1441	-4.3028	0.2255	12.4844	-89.5954	133.6395	57.207	0.9996	-0.7235	-0.7507	8.9817	3.2586	0.2174	6.7654	-0.4871	-9.921	-1.1568	0.1983	0.432
-1.4565	0.2884	9.842	6.0621	0.9748	1.1394	0.4623	0.006	-0.1561	-3.4152	0.6263	13.6914	-85.8467	129.1998	53.7983	1.0139	-0.707	-0.6978	8.9886	3.9484	0.6284	8.7365	0.0374	-11.4868	-1.1743	0.1984	0.4317
-1.5674	0.9792	10.1369	6.8634	1.0326	1.0288	0.4563	0.012	-0.1501	-2.8907	0.7401	13.9995	-77.1152	124.4569	51.2269	1.0135	-0.6886	-0.6807	9.3879	3.9478	0.6364	10.8097	0.38	-14.0771	-1.1746	0.2004	0.4134
-1.5135	0.5761	9.9007	6.359	1.1132	0.6144	0.4563	0.006	-0.1441	-1.675	0.6232	14.2618	-70.7881	118.0965	48.7461	1.0286	-0.7105	-0.6263	9.4419	3.6602	0.4614	12.5831	0.6919	-16.4466	-1.1917	0.181	0.4333
-1.4109	0.7468	9.2532	6.8862	1.1525	0.6628	0.4503	0.012	-0.1561	-0.3297	0.9654	15.3	-66.7576	105.9737	45.9422	1.0422	-0.6571	-0.5392	8.8724	3.8908	0.5092	13.7284	0.9111	-18.3129	-1.2088	0.1792	0.4513
-1.6944	0.6329	9.4837	7.0057	1.2079	0.4772	0.4623	0.006	-0.1561	0.7166	0.8492	15.7371	-54.4327	89.8316	45.3667	1.0581	-0.7166	-0.501	8.6499	3.9496	0.7966	14.2624	0.9121	-19.0018	-1.1559	0.1926	0.487
-1.2905	0.9773	9.5515	6.0749	1.3376	0.2565	0.4503	0.006	-0.1501	1.6411	0.9617	15.8752	-40.1494	73.2538	45.5591	1.0289	-0.6797	-0.4492	9.6201	3.5465	0.8146	14.4386	0.8204	-19.3779	-1.1915	0.2142	0.4479
-1.3006	0.976	9.0196	5.5634	1.5394	-0.4925	0.4503	0.012	-0.1441	2.7177	2.3311	15.128	-21.4082	59.9103	47.0525	1.031	-0.7595	-0.3747	8.93	4.2351	0.5699	14.792	1.2521	-19.6501	-1.1387	0.1944	0.4689
-1.5703	0.7488	9.9591	4.9957	1.6223	-0.9663	0.4503	-0.018	-0.1621	4.2359	1.465	13.1381	-18.2175	57.2862	44.9108	1.0021	-0.7402	-0.3578	8.9865	3.1447	0.4504	14.7337	2.0254	-20.3667	-1.1563	0.212	0.4668
-1.4597	0.8055	9.725	5.2605	1.6398	-1.4608	0.4443	0.012	-0.1381	5.8846	1.2297	11.9836	-25.0524	67.4695	38.5942	0.9607	-0.7988	-0.3023	9.279	3.5472	0.8661	15.1645	2.9512	-20.9347	-1.1742	0.2316	0.4463
-1.3451	0.5752	9.6676	4.6459	2.7031	-1.9888	0.4443	-0.006	-0.1561	7.2632	1.3404	11.7747	-35.5344	77.5851	26.7723	0.9609	-0.7995	-0.2844	9.1043	3.6616	0.688	15.0694	4.336	-20.1225	-1.1916	0.1634	0.4351
-1.4	0.9207	9.8446	5.1398	3.3841	-2.424	0.4623	-0.012	-0.1681	9.2499	1.6245	13.1823	-39.0543	80.3597	9.4885	0.9894	-0.7835	-0.2314	8.9284	3.8331	0.4518	14.651	5.3768	-17.6181	-1.2436	0.1443	0.4544
-1.3409	0.7482	9.9045	5.3638	3.5543	-3.3741	0.4623	0.006	-0.1561	10.9359	2.6522	14.0507	-30.7433	75.0483	-9.1846	0.9185	-0.8021	-0.1955	8.7606	3.8914	0.6236	13.9366	6.54	-14.6111	-1.1554	0.1555	0.509
-1.5202	0.5177	9.5459	5.7694	3.9041	-3.443	0.4563	0.006	-0.1501	11.8521	3.2218	13.8332	-13.1742	64.631	-26.6658	0.9053	-0.8423	-0.1405	8.7595	3.8912	0.5653	13.0921	7.5201	-12.1001	-1.1909	0.1596	0.4718
-1.5716	0.8061	9.9001	5.9976	4.5675	-3.4142	0.4563	0.012	-0.1621	12.6322	3.1028	12.4829	1.655	54.7135	-42.4437	0.8471	-0.8014	-0.1603	8.8154	3.8335	0.5078	12.3246	8.4716	-10.2696	-1.1564	0.1789	0.4522
-1.741	0.7494	10.0739	7.8218	4.7663	-3.4879	0.4563	-0.012	-0.1621	12.1156	4.1346	12.712	10.3302	52.1019	-54.9515	0.8915	-0.8618	-0.122	9.2777	3.6618	0.8081	12.4544	9.362	-9.2911	-1.1559	0.1418	0.4742
-1.4562	0.7484	9.9022	8.9456	5.1483	-3.2995	0.4503	0.018	-0.1441	10.7423	4.3107	13.2186	35.5975	52.9486	-59.185	0.8775	-0.8798	-0.1392	8.5875	3.7192	0.5029	12.7418	9.8207	-8.3898	-1.1216	0.1455	0.4382
-1.9216	0.6912	9.6567	12.2159	5.3469	-3.5914	0.4443	-0.006	-0.1561	11.029	3.9664	13.105	66.2832	50.3089	-59.5493	0.8636	-0.8986	-0.1385	8.6409	3.8332	0.3293	13.2463	9.9399	-7.5642	-1.174	0.1458	0.4373
-1.3883	0.6346	10.435	13.2582	5.6424	-2.944	0.4383	0.006	-0.1561	10.4477	3.5094	12.7951	87.0059	44.7745	-61.3104	0.8197	-0.842	-0.0876	8.6442	3.9485	0.5048	13.9002	9.9055	-6.9925	-1.1379	0.1047	0.4966
-1.2214	0.8636	10.1434	15.1619	6.8823	-1.8849	0.4563	-0.006	-0.1501	-6.6018	2.7504	13.0956	415.2148	-49.6845	-89.9373	0.8187	-0.8021	-0.1248	8.6482	4.2935	0.7395	14.1212	9.4993	-5.5597	-1.1559	0.1418	0.4742
-1.8026	0.4615	9.8357	19.1573	6.5907	-2.4719	0.4563	-0.006	-0.1561	-16.2025	-1.3799	-3.5633	111.2088	-92.4773	-62.265	0.8469	-0.7838	-0.1254	8.5347	4.6381	0.7968	15.2015	8.1321	-3.1851	-1.1382	0.1066	0.4782
-1.3967	0.9786	10.0221	18.0917	6.6938	-3.086	0.4563	-0.006	-0.1621	-10.0245	-1.428	8.5618	-14.2729	-107.5776	-51.975	0.863	-0.8617	-0.1043	8.2033	5.0996	1.3752	15.3824	7.5998	-0.892	-1.139	0.1456	0.4379
-1.9045	0.5208	10.5428	19.2156	9.1502	-4.1669	0.4503	0	-0.1621	-3.6202	-2.353	11.721	-20.7609	-125.0517	-18.1724	0.8764	-0.823	-0.1236	8.7732	4.5823	1.3264	14.4148	9.0157	0.4932	-1.1568	0.1983	0.432
-1.194	0.6369	11.5614	20.6504	11.6291	-4.0655	0.4563	0	-0.1621	-3.1251	-1.8414	10.6037	49.8902	-121.9629	11.933	0.8613	-0.785	-0.1074	8.7572	4.6367	0.5096	12.0344	10.9072	-0.9772	-1.1383	0.1242	0.4764
-1.5995	0.5224	11.435	27.8866	19.8886	-4.377	0.4563	-0.018	-0.1681	0.4279	-0.7014	12.6393	49.3222	-87.5934	18.3517	0.8468	-0.783	-0.1432	9.1448	5.4947	-0.0045	7.4768	14.5589	-1.7066	-1.1214	0.1611	0.4546
-1.2219	1.151	10.1441	6.2954	32.4039	-6.2507	0.4503	0	-0.1741	0.3292	-0.4191	10.6185	56.1057	-51.9245	14.7376	0.848	-0.8406	-0.1409	9.3072	5.8945	-0.4081	3.3172	18.0369	3.0379	-1.1559	0.1418	0.4742
-1.7805	0.0616	10.9577	4.463	36.5054	-9.111	0.4563	-0.006	-0.1681	-1.4833	-0.2455	9.3342	34.6739	-36.6926	6.077	0.8479	-0.8398	-0.1588	9.3495	5.8343	-1.1658	-3.0158	21.3843	11.5209	-1.1729	0.1556	0.5087
-3.4307	-1.0829	11.9271	-11.4522	53.4329	-10.6093	0.4623	0.006	-0.1681	-1.9529	-0.188	8.9088	25.8597	-34.0276	6.7269	0.8336	-0.8394	-0.1589	9.6729	6.1746	-2.0914	-7.2178	23.2462	20.1341	-1.1214	0.1611	0.4546
-3.1578	0.9922	14.3599	-8.1195	60.3416	-7.1121	0.4443	-0.012	-0.1741	-2.057	-0.4156	9.4408	20.7542	-33.3386	9.51	0.8189	-0.8198	-0.1598	9.901	6.1743	-2.0868	-8.5076	25.8815	25.752	-1.1221	0.1825	0.4161
-0.7721	2.0259	15.7087	35.3645	62.9191	5.3288	0.4623	-0.012	-0.1561	-1.6546	-0.4167	9.3897	16.4141	-31.0633	4.5087	0.819	-0.8205	-0.1419	10.4123	6.001	-2.1938	-8.0823	27.3261	26.6786	-1.1049	0.1336	0.3853
-2.7416	0.9283	12.0046	37.3432	76.7358	9.2957	0.4563	-0.012	-0.1741	-1.4232	-0.7606	9.3937	9.2483	-28.9136	-2.9396	0.8193	-0.839	-0.159	10.3073	6.0028	-1.7293	-8.401	26.7941	20.1666	-1.1216	0.1455	0.4382
-1.9654	0.9303	13.4377	22.476	86.8069	9.6237	0.4443	-0.024	-0.1741	-1.8803	-0.4729	9.6225	4.8494	-26.2732	-6.9152	0.8622	-0.8402	-0.1587	10.1443	5.9472	-1.3244	-8.0458	24.4902	8.3812	-1.1213	0.1436	0.4565
-1.7814	1.6214	14.0929	30.7336	94.1902	7.6654	0.4683	-0.024	-0.1741	-1.8838	-0.5305	9.4441	2.3709	-22.4201	-7.7773	0.8475	-0.8206	-0.1596	9.4838	5.3214	-0.1733	-6.7917	20.6704	-2.4491	-1.1566	0.1632	0.4357
-1.6855	1.7338	13.0906	35.4722	103.1326	7.1135	0.4923	-0.018	-0.1681	-2.2669	-0.642	10.4457	-4.9377	-15.1989	-8.8039	0.8466	-0.7823	-0.1611	9.5966	6.1243	-0.1681	-5.8852	16.2241	-10.1157	-1.1222	0.1494	0.4015
-1.6774	1.6198	13.5041	30.7726	114.2043	4.6985	0.4743	-0.018	-0.1741	-1.6517	0.3278	9.6289	-10.1684	-6.9732	-8.8825	0.8185	-0.8175	-0.2134	9.5048	5.7843	0.9371	-3.488	11.7867	-12.4483	-1.1386	0.1768	0.4708
-1.6689	1.9084	13.9776	37.6083	124.3958	2.1198	0.4863	-0.024	-0.1681	-1.9362	-0.2436	9.7406	-11.2396	-7.8546	-6.7381	0.8187	-0.819	-0.1777	8.9923	5.2688	0.925	-1.4136	8.3844	-10.7064	-1.1397	0.1495	0.4012
-2.1443	1.1024	13.1392	41.9394	135.5848	1.1027	0.4863	-0.012	-0.1741	-1.5383	0.1556	9.512	-11.5527	-6.7387	-7.9542	0.8189	-0.8036	-0.0891	8.9863	4.6939	0.5727	-1.1193	5.6908	-7.5524	-1.1225	0.202	0.3959
-2.3198	0.0673	12.8969	39.626	149.5131	3.9543	0.4983	-0.036	-0.1981	-1.765	-0.0152	9.6852	-16.9336	-6.6106	-9.3201	0.8616	-0.8195	-0.1952	8.6465	5.3834	0.7435	-1.2237	3.4291	-4.1932	-1.1389	0.128	0.4397
-2.5453	-0.2192	13.1281	36.4192	164.5459	6.2238	0.4923	-0.018	-0.1801	-2.1709	-0.0145	9.5581	-19.2189	-6.8807	-8.8657	0.8324	-0.7826	-0.1434	8.0772	5.4419	0.7906	-1.1623	2.7737	-1.8704	-1.0695	0.1979	0.4334
-2.7148	-0.2185	13.3021	37.0498	180.0034	9.5923	0.5103	-0.024	-0.1981	-1.9338	-0.2434	9.8594	-19.4143	-7.3402	-8.3183	0.8751	-0.7816	-0.1966	7.6181	5.7864	0.666	0.438	2.4554	-0.0928	-1.1574	0.1515	0.3826
-2.1309	-0.1036	13.7273	41.2962	196.4125	13.5495	0.5103	-0.03	-0.1861	-1.3615	-0.4742	9.6332	-19.8388	-6.9352	-8.003	0.7901	-0.8182	-0.1779	7.6635	5.2104	0.0231	2.6895	2.4507	-0.3845	-1.1042	0.163	0.4366
-2.2937	0.5305	14.3165	48.3791	211.8131	16.7914	0.5043	-0.042	-0.1981	-1.8672	-0.0137	10.3365	-21.2066	-6.0211	-8.1126	0.8189	-0.8198	-0.1598	7.0302	5.3824	-0.2806	5.6051	3.3467	-3.1299	-1.1047	0.1493	0.4018
-1.9605	0.0683	13.6129	62.3706	228.4882	21.093	0.5283	-0.042	-0.1801	-1.764	-0.4158	9.6844	-27.147	-2.815	-9.0231	0.8172	-0.743	-0.1629	7.3022	5.7239	-0.9156	7.6274	3.8417	-5.1598	-1.105	0.2019	0.3962
-1.7191	0.2418	14.2089	76.0141	244.9486	21.8627	0.5464	-0.036	-0.1981	-1.7687	0.0417	9.5071	-23.3711	-4.9089	-8.2818	0.8183	-0.7998	-0.1784	7.1969	4.5206	-0.5721	7.9061	4.7939	-4.3059	-1.0866	0.196	0.4515
-2.4413	-0.3861	15.5521	96.531	259.7737	21.9676	0.5764	-0.03	-0.1861	-1.66	-0.6462	9.0921	-22.6791	-5.6899	-7.893	0.8324	-0.7826	-0.1434	6.4472	5.4384	-0.9337	6.7487	7.1647	-2.5505	-1.069	0.1608	0.4555
-4.279	-0.267	15.8711	122.6394	271.5162	20.6373	0.5584	-0.054	-0.1861	-1.8771	-0.8161	9.7406	-21.4946	-4.282	-4.4068	0.8179	-0.7807	-0.1792	6.6825	5.2098	-0.5799	4.4309	9.2311	-1.058	-1.1218	0.1299	0.4217
-7.0959	-0.9009	13.0968	142.7844	275.5676	28.4999	0.6064	-0.048	-0.1921	-1.6486	-0.9313	9.6263	-17.7054	-6.24	-6.7515	0.8035	-0.7795	-0.1972	6.7322	4.8067	-0.9887	3.2535	11.5388	1.1275	-1.1043	0.1298	0.422
-9.9674	-0.8945	13.5726	116.7388	273.7829	36.1106	0.6064	-0.06	-0.1801	-1.5876	-0.8739	9.8059	-17.1519	-6.01	-5.3257	0.8174	-0.7607	-0.1978	6.8402	5.035	-1.2773	1.8255	14.3402	3.3629	-1.1043	0.1298	0.422
