1757_acc_x	1757_acc_y	1757_acc_z	1757_gyro_x	1757_gyro_y	1757_gyro_z	1757_mag_x	1757_mag_y	1757_mag_z	1758_acc_x	1758_acc_y	1758_acc_z	1758_gyro_x	1758_gyro_y	1758_gyro_z	1758_mag_x	1758_mag_y	1758_mag_z	1759_acc_x	1759_acc_y	1759_acc_z	1759_gyro_x	1759_gyro_y	1759_gyro_z	1759_mag_x	1759_mag_y	1759_mag_z
-1.3271	1.8736	9.2602	-0.4068	0.2433	0.0665	1.1324	-0.656	-0.8024	1.8982	3.0844	9.777	-0.1475	0.5499	0.0156	0.1913	-0.4311	-1.8282	9.908	-0.2286	0.0062	-0.7399	1.2816	0.0373	-0.4132	-0.7409	-0.2836
-1.6056	1.9904	9.6531	-0.3152	0.2447	-0.0258	0.2229	-0.2391	-1.4183	1.5437	2.803	9.3164	-0.1767	0.6726	-0.0448	0.1655	-0.4006	-1.8297	9.3686	0.0032	-0.4221	-0.2778	1.0667	0.2812	-0.4108	-0.4151	-0.6411
-1.2728	2.8496	9.1518	-0.1927	0.1203	0.1558	0.1668	-0.2687	-1.396	1.7676	2.9713	9.0382	-0.5502	0.4531	-0.0165	0.1776	-0.4038	-1.7869	9.7228	0.4092	-0.3538	0.0017	1.3433	0.2483	-0.3968	-0.4157	-0.6255
-1.616	2.5052	9.1436	-0.3782	0.0929	-0.2121	0.1961	-0.2588	-1.4389	1.894	2.7462	9.5502	-0.3326	0.5774	0.1391	0.1906	-0.4037	-1.7872	9.7778	-0.231	-0.655	0.1248	1.0337	0.6466	-0.3828	-0.3985	-0.6418
-1.4364	2.4493	9.5447	-0.8074	0.0598	-0.1807	0.1805	-0.238	-1.4172	1.8415	2.6339	9.7754	-0.3329	0.5472	0.0771	0.1522	-0.4018	-1.8151	9.5422	0.0602	-0.5983	0.5572	1.2201	0.5219	-0.4105	-0.3997	-0.6264
-1.6643	2.4497	9.5971	-0.5296	0.3059	-0.0855	0.1816	-0.262	-1.4245	1.7854	2.5214	9.8307	-0.3351	0.364	-0.048	0.1908	-0.3577	-1.7902	10.076	0.3501	-0.4074	-0.1886	0.9181	-0.1158	-0.4104	-0.4005	-0.6109
-1.1005	2.1602	9.1522	-0.6233	0.0914	-0.1807	0.1805	-0.238	-1.4172	1.7757	3.1407	9.4348	-0.4588	0.3616	0.0752	0.1522	-0.4018	-1.8151	9.6	0.1179	-0.6568	-0.1604	0.8921	-0.5436	-0.3965	-0.3825	-0.6427
-1.7809	2.1621	9.48	-0.5916	0.1198	0.0343	0.1958	-0.2623	-1.4248	2.0058	2.5769	9.3825	-0.0875	0.4267	0.2302	0.166	-0.3536	-1.847	9.9601	-0.114	-0.3517	-0.4372	0.8898	-0.4204	-0.4115	-0.4628	-0.6541
-1.5531	2.3915	9.4285	-0.5294	0.3052	-0.0242	0.1805	-0.2553	-1.3997	1.8368	2.5774	9.5488	-0.2742	0.3027	0.0747	0.1915	-0.3851	-1.8312	10.138	0.002	-0.288	-0.0041	0.8885	-0.1469	-0.3689	-0.4169	-0.5943
-1.4342	2.3924	9.6582	-0.437	0.3982	-0.0536	0.166	-0.2411	-1.4028	1.8961	2.9153	9.6636	-0.1795	0.4576	0.0147	0.1779	-0.4027	-1.8013	9.6661	-0.1131	-0.2973	-0.4034	0.9464	0.0377	-0.4107	-0.3972	-0.673
-1.8458	2.0456	9.0804	-0.193	0.2463	-0.1181	0.1946	-0.2729	-1.3826	2.0627	2.9711	9.384	-0.1818	0.2738	-0.018	0.1518	-0.4335	-1.7987	9.6049	-0.1135	-0.4182	-0.31	1.1003	-0.0245	-0.3966	-0.3995	-0.6263
-1.838	2.0473	9.4784	-0.2545	0.1528	-0.0275	0.2106	-0.273	-1.4358	1.8267	2.8023	9.0959	-0.0875	0.398	-0.0783	0.1525	-0.4007	-1.8294	9.5456	0.0028	-0.4188	-0.1835	1.0947	0.5558	-0.3826	-0.4009	-0.5952
-1.4304	1.8187	9.8263	-0.4388	0.0905	-0.0279	0.2088	-0.2733	-1.3829	2.4692	2.9705	9.5624	-0.548	0.6364	0.0778	0.1918	-0.3841	-1.8456	9.4261	-0.2878	-0.542	0.0641	1.0937	0.7382	-0.397	-0.414	-0.6565
-1.4921	1.7603	9.5975	-0.6231	-0.0658	0.1234	0.1393	-0.2609	-1.4234	1.8294	3.2531	9.2662	-0.2411	0.458	-0.1703	0.2034	-0.374	-1.7751	9.8974	0.0596	-0.5318	-0.0037	1.0431	-0.3004	-0.4109	-0.4321	-0.6247
-1.3284	2.1031	9.2044	-0.5604	0.1496	0.1267	0.1393	-0.2609	-1.4234	1.7314	2.5216	9.9995	-0.3015	0.5786	0.0158	0.1783	-0.4312	-1.8279	9.542	-0.3466	-0.6599	-0.1237	0.9742	0.4033	-0.3687	-0.3999	-0.6107
-1.3781	2.4495	9.6027	-0.2863	-0.0946	0.0913	0.1809	-0.269	-1.3963	1.8891	2.8024	9.3236	-0.3926	0.7003	-0.0139	0.2175	-0.385	-1.8318	9.8961	0.1174	-0.5914	0.2399	0.6151	-0.2381	-0.3826	-0.3823	-0.6426
-1.3703	2.4512	10.0006	-0.5628	-0.1252	-0.0311	0.1805	-0.238	-1.4172	2.1357	2.4646	10.0645	-0.3011	0.6097	-0.0456	0.1651	-0.3568	-1.804	9.7828	0.0025	-0.3545	-0.0699	0.4925	-0.3281	-0.3974	-0.4464	-0.6549
-1.5509	2.3345	9.542	-0.3779	-0.096	0.1835	0.1816	-0.262	-1.4245	1.8917	2.6898	9.4368	-0.1475	0.5495	0.0773	0.1521	-0.4324	-1.813	9.7864	-0.1129	-0.1753	0.1768	0.4313	-0.237	-0.4385	-0.3976	-0.6731
-1.1563	1.7009	9.206	-0.2252	-0.0936	0.0298	0.1797	-0.245	-1.3891	1.889	2.8587	9.3237	-0.4877	0.5148	0.0458	0.1786	-0.3699	-1.832	9.5407	-0.2307	-0.7193	0.0877	0.7041	-0.0241	-0.3691	-0.4144	-0.6409
-1.3746	2.3354	9.7727	-0.4379	0.1816	0.0655	0.1946	-0.2729	-1.3826	2.1208	2.6893	9.385	-0.4582	0.4224	0.1682	0.1779	-0.4027	-1.8013	9.6598	0.2341	-0.5953	0.0843	0.4001	-0.206	-0.3689	-0.4161	-0.6098
-1.4421	2.563	9.2609	-0.468	0.3991	-0.1455	0.1671	-0.2478	-1.4275	2.4095	2.8578	9.4478	-0.3025	0.4879	-0.1701	0.2164	-0.374	-1.7754	9.717	0.0593	-0.7148	0.0571	0.7654	-0.0548	-0.3693	-0.4306	-0.64
-1.3871	2.6199	9.1486	-0.4071	0.2754	-0.0557	0.1942	-0.2419	-1.4035	1.8324	2.3518	9.3221	-0.2099	0.4884	-0.0775	0.2047	-0.3993	-1.8449	9.6582	0.0013	-0.7161	0.1851	0.8813	0.6166	-0.4105	-0.3997	-0.6264
-1.6721	2.3332	9.1986	-0.2846	0.2449	-0.0259	0.224	-0.2804	-1.408	1.8896	2.5207	9.3234	-0.2089	0.5796	0.0467	0.1651	-0.3721	-1.803	9.6088	-0.345	-0.2395	-0.4568	0.8374	1.6888	-0.3411	-0.4157	-0.6097
-1.3745	2.163	9.772	-0.1622	0.2772	-0.1177	0.2087	-0.2387	-1.4179	1.6649	2.803	9.602	-0.0849	0.6121	0.0163	0.1517	-0.3886	-1.7874	9.6608	0.2924	-0.5352	-0.7006	1.0793	1.8719	-0.397	-0.4132	-0.6721
-1.4421	2.563	9.2609	-0.3468	0.2159	-0.2102	0.1801	-0.2415	-1.4031	2.5902	3.0832	9.8481	-0.1791	0.4886	-0.0467	0.1651	-0.3721	-1.803	9.8383	-0.4051	-0.5947	-0.4287	0.6874	1.4144	-0.3969	-0.4149	-0.641
-1.6641	2.1625	9.5959	-0.4679	0.2423	0.128	0.1664	-0.2549	-1.3994	2.2992	2.8582	9.672	-0.0535	0.6437	-0.0759	0.179	-0.3535	-1.8473	9.9521	-0.4645	-0.8324	-0.3405	0.4165	1.018	-0.4109	-0.4134	-0.6721
-1.4338	1.8754	9.656	-0.5923	0.059	-0.028	0.1653	-0.2482	-1.3746	2.0677	2.8586	9.6105	-0.3642	0.5161	0.0768	0.178	-0.372	-1.8033	9.6019	0.2345	-0.5365	-0.7457	0.1438	0.6235	-0.4107	-0.4159	-0.6256
-1.2151	2.2177	9.1502	-0.2853	0.1216	0.0028	0.1813	-0.2828	-1.3929	1.8849	3.0839	9.154	-0.3328	0.5476	0.0155	0.1785	-0.4005	-1.83	9.7233	-0.288	-0.4167	-0.3168	0.1508	0.1023	-0.4253	-0.4638	-0.6386
-1.2655	2.1043	9.4897	-0.4067	0.4308	-0.2065	0.1812	-0.2482	-1.4279	1.8867	3.422	9.2675	-0.5162	0.6988	-0.014	0.178	-0.3874	-1.8023	9.7253	-0.1713	-0.2964	-0.5355	0.2175	-0.5085	-0.3691	-0.4331	-0.5935
-1.0345	2.3918	9.6091	-0.4988	0.3993	-0.1761	0.2084	-0.2768	-1.3689	2.0159	2.3519	9.8354	-0.2412	0.4572	-0.047	0.1651	-0.3721	-1.803	9.8986	0.0018	-0.4721	-0.4115	0.3409	-0.5706	-0.3969	-0.4149	-0.641
-1.6734	2.6201	9.143	-0.4698	0.06	-0.059	0.1942	-0.2246	-1.421	1.6101	2.5779	9.7139	-0.1491	0.4267	0.1069	0.1904	-0.4343	-1.7852	9.899	0.2924	-0.4109	-0.809	0.4883	-0.1726	-0.3556	-0.4466	-0.6391
-1.8339	2.5078	9.7077	-0.3174	0.0631	-0.2741	0.224	-0.2977	-1.3905	1.8943	2.5772	9.55	-0.4272	0.4231	0.1066	0.1782	-0.4016	-1.8156	9.4824	0.4088	-0.5979	-1.2708	0.7648	-0.4473	-0.4115	-0.4628	-0.6541
-1.3209	2.5069	9.604	-0.498	0.4283	-0.0223	0.1675	-0.2443	-1.4416	2.0079	2.746	9.4959	-0.2428	0.3343	-0.0174	0.1909	-0.3873	-1.8025	9.6606	-0.1143	-0.5968	-0.6875	0.5543	-0.6012	-0.3827	-0.3993	-0.6263
-1.7225	2.2198	9.5382	-0.5301	0.2448	-0.1172	0.1805	-0.2726	-1.3822	1.9413	3.0837	9.0985	-0.2414	0.4279	-0.2631	0.1918	-0.3841	-1.8456	9.7132	0.2908	-0.8935	-0.5966	0.3714	-0.6312	-0.3971	-0.431	-0.6402
-1.2107	2.3336	9.3781	-0.5309	0.1843	-0.2102	0.1519	-0.2407	-1.4024	1.8954	2.6336	9.6067	-0.3967	0.3927	0.1372	0.1915	-0.3851	-1.8312	10.142	0.1772	-0.0476	-0.1972	0.2824	-0.7545	-0.4109	-0.4142	-0.6566
-1.5587	2.3328	9.144	-0.3441	0.5212	-0.0212	0.2095	-0.2836	-1.3936	2.1301	2.8587	9.8383	-0.1505	0.305	-0.0485	0.191	-0.372	-1.8035	9.7865	0.2939	-0.1136	-0.0737	0.2825	-0.7244	-0.3977	-0.4609	-0.6851
-1.2029	2.3352	9.7761	-0.1935	0.0599	0.0629	0.1809	-0.2517	-1.4138	2.1867	2.7459	9.7828	-0.211	0.397	-0.1709	0.1649	-0.4028	-1.801	10.0078	-0.0005	-0.9491	-0.1323	0.3696	-0.2967	-0.3968	-0.4157	-0.6255
-1.6674	2.1044	9.4251	-0.4668	0.4895	0.0093	0.1671	-0.2478	-1.4275	1.8349	2.2956	9.4353	-0.2419	0.4253	0.1376	0.1777	-0.3884	-1.7879	9.4825	0.3507	-0.5981	0.1209	0.6064	0.557	-0.3966	-0.3995	-0.6263
-1.4365	2.5642	9.5452	-0.4384	0.2145	-0.1179	0.195	-0.2521	-1.4141	2.1765	3.0272	9.3299	-0.2729	0.3955	-0.0477	0.2048	-0.384	-1.8459	9.7196	-0.1145	-0.5957	0.061	1.0376	0.2495	-0.3959	-0.3331	-0.6607
-1.5498	2.3348	9.5988	-0.1934	0.2474	-0.2101	0.2095	-0.249	-1.4286	1.842	3.0282	9.8324	-0.4266	0.4548	-0.0472	0.1783	-0.4312	-1.8279	9.4825	-0.1142	-0.66	-0.2458	1.3131	0.1271	-0.3968	-0.3978	-0.6574
-1.7249	2.3342	9.4249	-0.5313	0.0289	-0.0593	0.2095	-0.2663	-1.4111	1.6695	2.9159	9.8287	-0.2405	0.5181	0.0152	0.1914	-0.4005	-1.8302	9.6056	0.5259	-0.2956	-0.9853	1.1231	0.4974	-0.369	-0.4153	-0.6253
-1.2614	2.5648	9.7191	-0.3776	0.1222	-0.0889	0.1813	-0.2655	-1.4104	1.8401	2.7465	9.7189	-0.2073	0.7027	-0.0137	0.1918	-0.3841	-1.8456	9.6575	-0.1731	-0.7768	-1.6042	1.001	0.2557	-0.4105	-0.381	-0.6738
-1.2139	2.1031	9.2066	-0.6528	0.1817	-0.0258	0.2221	-0.2288	-1.4076	1.8963	2.8027	9.6635	-0.2102	0.4582	-0.1395	0.2039	-0.3872	-1.8028	9.9	-0.1141	-0.4127	-1.7627	0.7602	-0.1704	-0.3971	-0.4497	-0.5928
-1.094	2.4488	9.4945	-0.4379	0.307	-0.1471	0.1813	-0.2655	-1.4104	1.7202	2.6902	9.4898	-0.3634	0.5775	0.0774	0.1788	-0.3995	-1.8443	9.8412	-0.2301	-0.4143	-0.9327	0.4885	-0.2333	-0.4102	-0.3843	-0.6117
-1.3287	2.5627	9.2063	-0.3139	0.4598	-0.0223	0.1523	-0.2718	-1.3815	2.1739	3.0834	9.2166	-0.1204	0.2439	-0.0182	0.1919	-0.3688	-1.8466	9.4827	-0.2303	-0.6605	-0.3176	0.4005	-0.3879	-0.4114	-0.4645	-0.623
-0.9794	2.2764	9.496	-0.192	0.4939	-0.2674	0.1797	-0.245	-1.3891	1.8944	3.1969	9.6072	-0.1831	0.1814	0.0428	0.2175	-0.385	-1.8318	9.4259	-0.2297	-0.5418	-0.407	0.7048	-0.2668	-0.4383	-0.3823	-0.6584
-1.2139	2.1031	9.2066	-0.1607	0.5859	-0.2354	0.1961	-0.2069	-1.4914	2.2973	3.1962	9.6156	-0.3656	0.3943	-0.0478	0.1781	-0.4169	-1.8146	9.7254	-0.2294	-0.2967	-0.1921	0.6454	-0.3589	-0.4103	-0.4022	-0.5798
-1.5035	2.1025	9.0305	-0.1003	0.4011	-0.1772	0.1675	-0.2616	-1.4241	1.5432	3.0283	9.3166	-0.2742	0.3027	0.0747	0.2041	-0.3413	-1.8058	9.7227	0.0024	-0.4155	0.4585	0.8281	-0.0565	-0.4386	-0.4155	-0.6412
-1.834	2.6227	9.7082	-0.5613	0.121	-0.0578	0.1946	-0.2556	-1.4001	2.2333	2.8017	9.2743	-0.2738	0.3333	0.075	0.1785	-0.4005	-1.83	9.6594	-0.0565	-0.6565	0.0929	1.284	0.0954	-0.355	-0.398	-0.6416
-1.3331	2.4468	8.9784	-0.377	0.1205	0.0644	0.1389	-0.2471	-1.4268	1.8373	2.2957	9.5486	-0.2731	0.3944	0.1065	0.1265	-0.356	-1.8175	9.6648	0.0028	-0.3567	-0.055	1.4578	0.9814	-0.4105	-0.3818	-0.6583
-1.4376	2.5065	9.4881	-0.4686	0.1818	0.035	0.1808	-0.2171	-1.4488	2.0091	2.746	9.5526	-0.5184	0.5158	-0.17	0.1783	-0.3863	-1.8166	9.7188	0.234	-0.5942	-0.3053	1.3396	0.4939	-0.397	-0.4319	-0.6246
-1.3231	2.5064	9.4903	-0.6536	0.1216	-0.1495	0.166	-0.2411	-1.4028	2.2413	3.0273	9.6709	-0.1779	0.5808	-0.0766	0.1781	-0.3567	-1.8043	9.8485	-0.0542	0.0058	-1.0836	1.0095	-0.388	-0.3968	-0.4157	-0.6255
-1.3295	2.1029	9.1475	-0.592	0.0269	0.0941	0.2084	-0.2595	-1.3863	2.1256	2.6895	9.6116	-0.207	0.7329	0.0482	0.1781	-0.3567	-1.8043	9.9023	-0.1717	-0.2931	-0.932	0.7045	-0.4177	-0.3969	-0.4149	-0.641
-2.0618	2.4507	9.7599	-0.4073	0.1507	0.0956	0.1653	-0.2655	-1.3571	1.8298	3.0841	9.266	0.0362	0.429	0.1071	0.1906	-0.3884	-1.7882	9.6671	-0.0548	-0.2371	-0.6583	0.3712	-0.631	-0.4103	-0.3835	-0.6272
-1.6124	2.1613	9.3127	-0.6836	0.2133	-0.1172	0.1664	-0.2722	-1.3819	2.0015	2.9711	9.2129	-0.3049	0.3321	0.1983	0.1654	-0.371	-1.8173	9.6601	0.5828	-0.5339	-0.2573	0.4966	-0.7859	-0.4244	-0.3999	-0.6265
-0.9737	2.1628	9.7798	-0.4366	0.4596	-0.0526	0.182	-0.293	-1.4036	1.8993	3.1408	9.8337	-0.3062	0.2393	0.3207	0.1522	-0.4018	-1.8151	9.5478	0.0033	-0.299	0.2382	0.5252	-0.4211	-0.3689	-0.3974	-0.6572
-1.3204	1.8751	9.6014	-0.2518	0.6456	-0.1115	0.2236	-0.2493	-1.4289	1.7221	2.9719	9.6034	-0.1518	0.2124	0.0431	0.1519	-0.4028	-1.8007	9.9571	-0.2309	-0.5319	0.3657	0.7041	0.0666	-0.4109	-0.4142	-0.6566
-1.2184	2.2744	8.9799	-0.4683	0.3372	-0.1158	0.1667	-0.2341	-1.4309	1.7197	2.9718	9.4901	0.0051	0.3988	-0.0166	0.204	-0.3719	-1.8038	9.6591	0.0596	-0.656	0.6179	1.0049	0.645	-0.3969	-0.4149	-0.641
-1.2131	2.6203	9.2656	-0.1937	0.1545	-0.1503	0.2102	-0.2592	-1.4392	1.8374	2.8591	9.6057	-0.2736	0.3345	-0.1099	0.2166	-0.3882	-1.7887	9.8961	0.1174	-0.5914	0.2201	1.246	0.8592	-0.3829	-0.3968	-0.6728
-1.1523	2.2763	9.4358	0.0218	0.3092	-0.1484	0.1809	-0.269	-1.3963	2.3527	3.0833	9.5035	-0.3973	0.3326	-0.0484	0.1905	-0.419	-1.7862	9.5512	-0.5189	-0.1814	0.0971	1.2449	0.9208	-0.3968	-0.3978	-0.6574
-1.0993	2.0455	9.2086	-0.3149	0.3376	-0.0856	0.2091	-0.2352	-1.432	1.894	2.7462	9.5502	-0.2743	0.2736	-0.1722	0.1912	-0.3862	-1.8169	9.4851	0.1769	-0.4791	0.0957	1.3408	0.523	-0.3687	-0.3999	-0.6107
-1.6662	1.8748	9.481	-0.253	0.3676	0.0067	0.1938	-0.2108	-1.4244	1.8337	2.9152	9.4358	-0.4579	0.424	-0.0784	0.1915	-0.3851	-1.8312	9.9015	-0.2881	-0.3535	0.185	1.3162	-0.0273	-0.3685	-0.365	-0.6589
-1.2714	2.4478	9.2069	-0.4678	0.3673	-0.054	0.1668	-0.2687	-1.396	2.3503	3.0832	9.3902	-0.4876	0.5154	-0.0466	0.1914	-0.4005	-1.8302	9.5399	0.1177	-0.7178	-0.3701	0.9418	0.496	-0.3968	-0.3978	-0.6574
-1.4307	2.2782	9.8282	-0.4075	0.2139	-0.0567	0.195	-0.2521	-1.4141	2.3448	2.8013	9.1068	-0.7028	0.604	0.0465	0.1774	-0.3895	-1.7736	10.0731	0.1751	-0.5879	-0.5214	0.8737	1.1082	-0.3552	-0.4329	-0.5934
-1.4342	2.4498	9.6584	-0.5605	0.0561	0.2479	0.195	-0.2694	-1.3967	1.8966	2.6337	9.6633	-0.4266	0.4548	-0.0472	0.2035	-0.4189	-1.7865	10.079	0.0021	-0.2891	-0.4402	0.4918	-0.3879	-0.3832	-0.4308	-0.6401
-1.1534	2.2761	9.379	-0.5609	0.151	0.0041	0.1667	-0.2168	-1.4484	1.9007	3.0282	9.8902	-0.3372	0.2101	0.0429	0.1783	-0.3863	-1.8166	9.6744	0.586	0.2449	-0.689	0.6502	-0.999	-0.3551	-0.4151	-0.6253
-1.3823	2.1039	9.3738	-0.3154	0.1826	0.0345	0.1809	-0.2344	-1.4313	1.7168	3.1971	9.377	-0.1525	0.1513	0.0117	0.1782	-0.4016	-1.8156	9.5411	0.0599	-0.6582	-0.9987	0.4656	-0.997	-0.3689	-0.3974	-0.6572
-1.7247	2.1618	9.4242	-0.2849	0.1831	0.0038	0.1801	-0.2415	-1.4031	2.2952	2.4074	9.4451	0.1841	-0.0899	0.0404	0.1648	-0.4181	-1.8	9.5452	0.1771	-0.418	-0.4066	0.7351	-0.2364	-0.397	-0.4319	-0.6246
-1.1533	2.1037	9.3783	-0.0686	0.5546	-0.1441	0.195	-0.2521	-1.4141	1.775	2.859	9.3779	-0.4355	-0.2216	0.2235	0.204	-0.3719	-1.8038	10.0121	0.0586	-0.7093	0.059	0.9171	0.0667	-0.3409	-0.3808	-0.6579
-0.9769	1.9323	9.6083	-0.2838	0.4303	-0.1149	0.1816	-0.262	-1.4245	2.1241	2.8585	9.5551	-0.5272	-0.1603	0.0391	0.1782	-0.4016	-1.8156	9.7214	0.0603	-0.4751	0.7988	0.9201	0.0335	-0.3968	-0.3978	-0.6574
-1.6114	2.2764	9.3701	0.1148	0.4943	-0.1763	0.1679	-0.2927	-1.4032	1.8863	2.9713	9.2105	-0.4946	-0.0075	0.1948	0.1527	-0.3547	-1.8324	9.8996	-0.4048	-0.4738	1.1365	0.769	-0.0282	-0.4241	-0.348	-0.6911
-1.7347	2.0448	8.9121	-0.1299	0.4918	-0.053	0.1797	-0.2277	-1.4066	2.4159	2.6327	9.7309	-0.2758	0.18	0.0735	0.1907	-0.4333	-1.7995	9.8451	0.0031	-0.1737	1.3856	1.0137	0.0615	-0.3557	-0.4636	-0.6228
-1.269	2.2759	9.3199	-0.6196	0.5813	-0.0194	0.1797	-0.245	-1.3891	1.8324	2.9715	9.3792	-0.155	-0.0333	0.1023	0.1656	-0.3853	-1.8307	9.8982	-0.2889	-0.5332	0.7044	0.9236	-0.333	-0.3966	-0.3995	-0.6263
-1.2064	2.6217	9.6067	-0.5586	0.6138	-0.1418	0.195	-0.2694	-1.3967	1.8369	3.1407	9.6059	-0.2165	-0.0038	0.1642	0.1648	-0.3579	-1.7896	9.6063	0.2355	-0.2969	-0.2854	0.9569	-0.9408	-0.3966	-0.3808	-0.6737
-1.4374	2.2193	9.4869	-0.4055	0.5523	-0.0819	0.1816	-0.2447	-1.442	2.0662	3.0276	9.554	-0.2173	-0.0653	0.1944	0.1781	-0.3567	-1.8043	9.7806	0.4669	-0.4124	-0.5628	0.8626	-0.7865	-0.3408	-0.4011	-0.5795
-1.1568	2.3902	9.2089	-0.1294	0.6154	-0.1123	0.195	-0.2694	-1.3967	1.7772	2.9717	9.4913	-0.0318	-0.0624	0.1021	0.2301	-0.4013	-1.8167	9.4276	0.0031	-0.421	-0.6537	0.8903	-0.5418	-0.4251	-0.4485	-0.624
-1.3869	2.3327	9.1474	-0.0685	0.4917	-0.0225	0.1805	-0.2553	-1.3997	1.7728	2.7462	9.2645	-0.3414	-0.1272	0.0396	0.1914	-0.4158	-1.8292	9.8435	0.2352	-0.2326	-0.4378	0.7977	-0.3894	-0.3965	-0.4003	-0.6108
-0.9166	2.335	9.7816	-0.2222	0.4299	-0.0537	0.1675	-0.2443	-1.4416	1.8952	3.366	9.664	-0.1565	-0.156	0.1011	0.1785	-0.4005	-1.83	9.6	0.1179	-0.6568	-0.5587	0.8859	-0.0837	-0.3557	-0.4636	-0.6228
-1.261	1.9904	9.7167	-0.0698	0.433	-0.2688	0.2087	-0.256	-1.4004	2.2367	2.9145	9.4443	-0.186	-0.0341	0.1639	0.1525	-0.4007	-1.8294	9.7772	0.5242	-0.5919	-0.8675	0.8545	-0.113	-0.4386	-0.4155	-0.6412
-1.2093	1.9317	9.4333	-0.0385	0.4625	-0.1457	0.1935	-0.2489	-1.3753	1.8884	3.1404	9.3239	-0.0588	0.2441	0.0743	0.2172	-0.3861	-1.8174	9.4244	0.4091	-0.5391	-1.1108	0.9095	0.4072	-0.3835	-0.4462	-0.6548
-1.5577	2.5628	9.2018	-0.1601	0.5842	-0.082	0.1946	-0.2556	-1.4001	1.7154	2.69	9.2633	-0.1194	0.3353	0.0752	0.1648	-0.4334	-1.799	9.7799	-0.1724	-0.5349	-0.8659	0.6653	0.438	-0.3828	-0.3976	-0.6573
-1.2722	2.0454	9.1484	-0.2533	0.3683	-0.0546	0.2099	-0.28	-1.4077	2.0618	2.8021	9.3273	-0.2432	0.3038	-0.0486	0.1655	-0.3404	-1.8193	9.8384	0.0597	-0.5329	-0.4038	0.3882	0.7739	-0.3407	-0.3833	-0.6113
-1.6071	2.4497	9.5982	-0.3747	0.4896	0.0397	0.2095	-0.2663	-1.4111	1.8357	3.1407	9.5493	-0.0574	0.3657	0.2297	0.2045	-0.3851	-1.8315	9.6681	0.0036	-0.177	-0.0035	0.4527	0.5887	-0.3972	-0.4489	-0.6083
-1.7185	1.3014	9.7049	-0.4976	0.5211	-0.0821	0.1813	-0.2828	-1.3929	2.0652	2.9149	9.4973	-0.2443	0.2409	0.1974	0.1645	-0.4192	-1.7856	10.2491	-0.3485	-0.7066	0.2411	0.3956	0.2825	-0.3406	-0.3655	-0.6432
-1.6679	2.6788	9.4275	-0.5605	0.3064	-0.1467	0.1828	-0.3033	-1.4142	1.4291	3.1413	9.3709	-0.3365	0.2706	0.1668	0.1911	-0.3566	-1.8045	9.7137	0.0585	-0.8945	0.3616	0.3392	-0.1456	-0.3418	-0.4634	-0.6227
-1.6115	2.3913	9.3706	-0.2853	0.2155	-0.149	0.1805	-0.2726	-1.3822	1.7724	2.9715	9.2647	0.0021	0.1829	0.1662	0.1915	-0.3851	-1.8312	9.784	0.4096	-0.2329	0.3008	0.4305	-0.1152	-0.3686	-0.3829	-0.627
-1.6731	2.2755	9.1415	-0.4072	0.1818	0.0655	0.1969	-0.2864	-1.4321	1.8918	3.2532	9.4939	-0.2744	0.273	-0.0797	0.1915	-0.3403	-1.8199	9.3661	0.5837	-0.4795	-0.4352	0.7618	0.1304	-0.3546	-0.3835	-0.6114
-1.3812	2.219	9.4311	-0.4077	0.2457	-0.1482	0.195	-0.2694	-1.3967	2.1821	3.2527	9.6133	-0.3936	0.6091	-0.1381	0.1649	-0.4028	-1.801	9.659	0.1177	-0.6557	-0.4354	0.5448	0.4065	-0.4108	-0.4151	-0.6411
-1.2086	2.5638	9.4928	-0.5011	-0.0635	-0.0303	0.2099	-0.2973	-1.3902	1.8974	2.859	9.7202	-0.1484	0.4594	-0.2011	0.1782	-0.3414	-1.8053	9.4243	0.0024	-0.6007	-0.8974	0.5422	0.4999	-0.3968	-0.397	-0.6729
-1.3794	2.6791	9.5468	-0.7769	-0.0962	0.0313	0.1809	-0.2517	-1.4138	2.4034	3.4773	9.2218	0.0077	0.584	-0.1997	0.1782	-0.4016	-1.8156	9.6633	0.1768	-0.4158	-0.9257	0.7547	0.6518	-0.3967	-0.3987	-0.6418
-1.2121	2.7928	9.3232	-0.4397	-0.126	0.0912	0.195	-0.2521	-1.4141	1.8929	2.6899	9.4935	-0.2077	0.6432	-0.2918	0.1652	-0.3415	-1.805	9.4902	-0.1124	-0.2407	-0.9233	0.6569	1.2329	-0.3971	-0.431	-0.6402
-1.3692	2.5089	10.0577	-0.4998	0.0892	0.0642	0.1523	-0.2545	-1.399	1.6043	3.0847	9.4878	-0.2977	0.8566	-0.2897	0.2042	-0.3861	-1.8172	9.7705	0.0579	-1.0132	-1.0477	0.8759	0.7128	-0.3688	-0.3991	-0.6262
-1.3143	2.6807	9.9459	-0.5939	-0.1865	-0.0627	0.1805	-0.238	-1.4172	1.9486	3.0277	9.4383	-0.1442	0.7963	-0.1361	0.1657	-0.3547	-1.8327	9.5476	0.1195	-0.2985	-0.6502	0.8216	0.192	-0.4114	-0.4458	-0.6705
-1.8908	2.0483	9.7047	-0.5014	-0.0938	-0.0614	0.2236	-0.2666	-1.4114	2.1864	2.9149	9.7829	-0.4212	0.8551	-0.2898	0.1909	-0.4026	-1.8015	10.197	0.0018	-0.2869	-0.1898	0.6409	0.0689	-0.3549	-0.3989	-0.6261
-1.3801	2.1618	9.4877	-0.4703	-0.0637	0.0003	0.1805	-0.238	-1.4172	1.5485	2.8032	9.5429	-0.1741	0.858	-0.2588	0.1653	-0.3864	-1.8163	9.4855	0.0027	-0.4798	-0.6217	0.5467	0.1626	-0.3558	-0.4628	-0.6383
-1.6124	2.0464	9.3123	-0.6243	-0.1248	-0.0922	0.1668	-0.2687	-1.396	2.1214	2.971	9.4419	-0.2364	0.826	-0.1667	0.1777	-0.3884	-1.7879	9.364	0.0603	-0.6615	-1.1432	0.757	0.3469	-0.4246	-0.4161	-0.6256
-1.5003	2.333	9.202	-0.7156	-0.0334	-0.0598	0.1801	-0.2588	-1.3856	2.2468	2.6895	9.8972	-0.053	0.675	-0.168	0.2044	-0.3555	-1.8192	9.784	-0.0553	-0.2948	-1.1748	0.7585	0.1942	-0.355	-0.398	-0.6416
-1.7856	2.5633	9.2542	-0.7771	-0.1269	0.0308	0.179	-0.2002	-1.4134	1.8323	3.0279	9.3793	-0.1454	0.7037	-0.0445	0.1655	-0.4006	-1.8297	9.6594	-0.0565	-0.6565	-0.956	0.8157	0.6516	-0.3965	-0.3825	-0.6427
-1.7213	2.1051	9.5945	-0.4693	0.0586	0.0636	0.1961	-0.2761	-1.4214	2.0602	2.971	9.2708	-0.119	0.3661	0.0446	0.1651	-0.417	-1.8143	9.725	-0.0552	-0.2959	-1.1403	0.8447	0.7438	-0.4243	-0.3829	-0.6428
-1.55	2.6794	9.6003	-0.498	0.4911	-0.1439	0.1957	-0.2451	-1.4423	1.8312	2.9715	9.3226	-0.0564	0.4281	0.0761	0.1779	-0.4027	-1.8013	9.7772	0.5242	-0.5919	-0.7082	0.7523	0.9566	-0.4105	-0.3997	-0.6264
-1.2097	2.5636	9.4359	-0.5291	0.4609	-0.2057	0.1939	-0.2281	-1.4069	1.8314	2.8588	9.3225	0.0014	0.122	0.104	0.1652	-0.4017	-1.8153	10.02	0.0022	-0.2902	-0.4289	0.8119	1.1998	-0.397	-0.4327	-0.6091
-1.2141	2.4477	9.208	-0.2836	0.555	-0.2662	0.1954	-0.2832	-1.3932	2.1792	2.2386	9.3859	0.0638	0.1833	0.2279	0.1656	-0.3853	-1.8307	9.8929	0.5815	-0.7092	0.0001	0.8185	0.7092	-0.3832	-0.4308	-0.6401
-1.3802	2.2767	9.4882	-0.1602	0.522	-0.0217	0.1813	-0.2655	-1.4104	1.6072	2.8595	9.6008	-0.1521	0.1822	-0.0189	0.2044	-0.4004	-1.8305	10.0707	0.6975	-0.6455	-0.1557	0.9763	0.1895	-0.3551	-0.4151	-0.6253
-1.1533	2.1612	9.3785	0.1449	0.3083	-0.0261	0.2229	-0.2564	-1.4008	2.293	2.9143	9.3888	-0.0263	0.3671	0.0756	0.1777	-0.3884	-1.7879	9.7766	-0.1732	-0.7147	-0.091	1.033	0.6474	-0.3689	-0.3983	-0.6417
-1.2679	2.2187	9.3765	-0.2248	0.1243	-0.212	0.1946	-0.2383	-1.4176	1.8921	2.4645	9.4366	-0.3361	0.3015	0.1363	0.1653	-0.3864	-1.8163	9.6657	0.0611	-0.2965	0.2795	1.0021	0.799	-0.3963	-0.3663	-0.6435
-1.2689	2.1036	9.3192	-0.224	0.1533	-0.0582	0.1526	-0.2683	-1.3956	1.8368	2.5774	9.5488	-0.5486	0.5759	-0.0461	0.1779	-0.4027	-1.8013	9.7291	0.062	-0.0558	-0.1542	0.9734	0.4645	-0.4109	-0.4321	-0.6247
-1.1491	2.4494	9.6071	-0.5315	-0.1268	0.1221	0.1946	-0.2556	-1.4001	2.0644	2.6895	9.4405	-0.2394	0.6099	0.047	0.1513	-0.405	-1.772	9.7836	0.1189	-0.2941	-0.5293	0.7025	-0.0829	-0.3829	-0.4155	-0.6254
-1.3845	2.1609	9.2603	-0.6237	-0.0326	-0.0907	0.1801	-0.2415	-1.4031	2.4129	2.9706	9.6179	-0.392	0.7322	-0.1986	0.1653	-0.3864	-1.8163	10.2512	-0.2899	-0.5865	-0.3758	0.7352	-0.2365	-0.3831	-0.4138	-0.6565
-1.6653	2.2772	9.5395	-0.6544	-0.1267	0.0612	0.1816	-0.262	-1.4245	2.4056	2.9704	9.278	-0.4252	0.5769	0.0465	0.1396	-0.3854	-1.8301	9.3123	0.2364	-0.2425	-0.8132	0.341	-0.722	-0.3831	-0.413	-0.672
-1.3196	2.3348	9.6601	-0.7163	-0.1252	-0.092	0.1946	-0.2729	-1.3826	2.06	3.0837	9.2709	-0.4227	0.7615	-0.0441	0.2296	-0.3728	-1.79	9.9032	0.4095	-0.1708	-0.72	0.6816	-1.0907	-0.3964	-0.3833	-0.6272
-1.1577	2.0453	9.1506	-0.7142	0.0878	0.0955	0.1523	-0.2545	-1.399	1.7201	2.7465	9.4899	-0.3292	0.8244	-0.1051	0.2175	-0.385	-1.8318	9.4308	0.0619	-0.241	-0.01	0.7135	-0.9712	-0.3971	-0.431	-0.6402
-1.3778	2.0474	9.601	-0.5624	-0.0637	-0.0301	0.1801	-0.2415	-1.4031	2.5223	2.8012	9.3369	-0.2674	0.8252	-0.105	0.1652	-0.4017	-1.8153	10.0788	0.0602	-0.2888	0.6092	0.804	-0.6377	-0.4248	-0.4144	-0.6567
-1.2669	2.3913	9.4341	-0.5938	-0.1557	-0.0622	0.1812	-0.2482	-1.4279	1.8939	2.8026	9.5502	-0.2389	0.6412	-0.0452	0.1648	-0.4181	-1.8	9.4867	-0.0551	-0.4201	0.5838	0.9178	0.1871	-0.3689	-0.3974	-0.6572
-0.9839	2.3903	9.2691	-0.3786	-0.0625	-0.0613	0.1805	-0.2207	-1.4347	2.0649	3.0838	9.4974	-0.2687	0.7326	-0.0135	0.1791	-0.3831	-1.8597	9.6037	-0.0556	-0.4778	0.4024	0.7862	1.0136	-0.396	-0.3509	-0.6288
-1.616	2.3903	9.1431	-0.5938	-0.1557	-0.0622	0.2102	-0.2592	-1.4392	1.5483	2.9159	9.543	-0.3012	0.6093	0.0161	0.1912	-0.4015	-1.8159	9.8401	-0.2304	-0.4742	0.064	0.6904	1.2903	-0.3966	-0.3995	-0.6263
-1.4927	2.5645	9.6009	-0.5917	-0.0052	0.2163	0.1805	-0.2207	-1.4347	2.2385	2.5766	9.5006	-0.1779	0.5808	-0.0766	0.1906	-0.3884	-1.7882	9.89	-0.0583	-0.9516	0.0605	0.7591	0.5565	-0.4246	-0.4169	-0.6101
-1.4432	2.5628	9.2041	-0.5914	0.1505	0.0348	0.1805	-0.238	-1.4172	2.1224	2.4641	9.4415	-0.5213	0.2999	0.0128	0.1659	-0.3689	-1.846	10.0158	-0.1149	-0.5303	-0.064	0.7609	0.343	-0.3553	-0.4313	-0.6244
-0.9816	2.2759	9.3823	-0.561	0.2139	-0.1176	0.2099	-0.28	-1.4077	1.8979	3.2534	9.7771	-0.3985	0.2404	-0.0185	0.2044	-0.4004	-1.8305	10.0769	-0.0565	-0.4091	-0.4668	0.732	0.0389	-0.3968	-0.3978	-0.6574
-1.323	2.449	9.4901	-0.4977	0.5215	-0.1128	0.1683	-0.2718	-1.4348	1.604	2.634	9.4307	-0.4291	0.27	0.0743	0.1777	-0.3884	-1.7879	9.2475	-0.1134	-0.6045	-0.3129	0.6711	0.0692	-0.3834	-0.4657	-0.5918
-1.2007	2.3357	9.8898	-0.3436	0.6762	-0.1414	0.2102	-0.2592	-1.4392	2.1246	3.1965	9.612	-0.3354	0.3622	0.2294	0.1912	-0.4015	-1.8159	9.6046	0.0027	-0.4177	-0.0035	0.7942	0.0981	-0.4108	-0.4151	-0.6411
-1.4364	2.4493	9.5447	-0.3759	0.3991	-0.1151	0.1668	-0.2687	-1.396	1.8272	2.5206	9.0956	-0.2139	0.1814	-0.0189	0.1785	-0.4005	-1.83	9.253	-0.1122	-0.305	-0.2174	0.7588	0.4964	-0.3833	-0.4487	-0.6082
-1.6125	2.2762	9.3132	-0.0984	0.5834	0.0098	0.1816	-0.2447	-1.442	2.2373	2.5765	9.444	0.0647	0.2164	-0.1417	0.1777	-0.3731	-1.7889	9.543	0.1766	-0.5379	0.3703	0.9747	0.5238	-0.3829	-0.4155	-0.6254
-1.4938	2.6217	9.5443	-0.3154	0.2765	-0.1173	0.1668	-0.2687	-1.396	2.0065	2.8586	9.4394	-0.0914	0.1198	0.258	0.1904	-0.4343	-1.7852	9.7223	0.1767	-0.4147	0.3424	1.0623	0.9208	-0.3552	-0.4142	-0.6408
-1.0916	2.2196	9.6073	-0.4989	0.2746	-0.0248	0.1675	-0.2616	-1.4241	2.123	2.8021	9.4984	-0.0874	0.4275	0.1069	0.2042	-0.3259	-1.8068	10.0205	-0.2301	-0.2912	0.6158	0.7605	0.6156	-0.4252	-0.4281	-0.7024
-1.6114	2.2764	9.3701	-0.2846	0.2134	0.035	0.1526	-0.2683	-1.3956	1.8819	2.7458	8.9838	-0.3051	0.3023	0.0747	0.1651	-0.3721	-1.803	9.6613	0.0601	-0.5362	0.5546	0.6972	0.7995	-0.3687	-0.3812	-0.6581
-1.6117	2.6785	9.3718	-0.3458	0.1817	0.096	0.166	-0.2238	-1.4203	1.8359	3.028	9.5492	-0.3051	0.3023	0.0747	0.1652	-0.4017	-1.8153	9.536	-0.1155	-0.9584	0.426	0.4896	0.1286	-0.3552	-0.4142	-0.6408
-1.3794	2.7939	9.5473	-0.5611	0.1203	0.0036	0.1652	-0.2309	-1.3921	1.6567	3.2534	9.2625	-0.4903	0.3296	0.229	0.1651	-0.3721	-1.803	9.676	-0.1109	0.2419	-0.0386	0.585	-0.3898	-0.4109	-0.4142	-0.6566
-1.1567	2.2753	9.2084	-0.4994	0.1195	0.0954	0.1526	-0.2683	-1.3956	1.8927	2.8025	9.4936	-0.1813	0.3337	0.1984	0.1781	-0.4169	-1.8146	9.7242	-0.1716	-0.3563	-0.4995	0.5493	-0.0518	-0.3549	-0.3989	-0.6261
-1.2587	1.8186	9.8296	-0.4079	0.1524	-0.0577	0.1534	-0.2785	-1.4063	1.7167	2.6337	9.3199	-0.365	0.4546	0.107	0.1909	-0.4026	-1.8015	10.0162	0.1757	-0.4691	-0.3129	0.6711	0.0692	-0.4108	-0.4151	-0.6411
-1.1585	1.7005	9.0923	-0.4369	0.3353	0.068	0.2099	-0.2454	-1.4426	2.1224	3.0837	9.4986	-0.2384	0.6726	-0.1682	0.1781	-0.4169	-1.8146	9.6067	0.0613	-0.2976	-0.002	0.9157	0.1892	-0.3973	-0.4472	-0.6393
-1.4386	2.3914	9.4307	-0.3157	0.1208	0.0642	0.1794	-0.2312	-1.3925	1.7193	2.5211	9.4331	-0.1782	0.5502	-0.0769	0.1909	-0.3873	-1.8025	10.0731	0.1751	-0.5879	-0.0034	0.8873	-0.0246	-0.3976	-0.4626	-0.654
-1.2656	2.2192	9.4902	-0.3158	0.0586	0.1245	0.1668	-0.2687	-1.396	1.8951	2.8026	9.6068	-0.0231	0.6126	0.0472	0.2043	-0.4157	-1.8295	9.5403	-0.0565	-0.7186	0.2145	0.7909	0.4946	-0.3973	-0.4286	-0.6868
-1.4926	2.4496	9.6004	-0.5609	0.245	-0.1477	0.153	-0.2648	-1.4097	2.0574	3.1962	9.1577	-0.0244	0.4914	-0.1698	0.2039	-0.3872	-1.8028	9.5487	0.1197	-0.2386	-0.2476	0.8195	0.5267	-0.4106	-0.3989	-0.6419
-1.6654	2.3346	9.5398	-0.5915	0.1195	0.065	0.1797	-0.2277	-1.4066	1.6049	2.8031	9.4875	-0.0242	0.521	-0.0154	0.1914	-0.4005	-1.8302	10.0205	0.6997	-0.1674	-0.4943	0.6635	0.7423	-0.397	-0.4327	-0.6091
-1.3266	2.678	9.3205	-0.3461	0.2138	-0.0262	0.1809	-0.269	-1.3963	1.8326	2.2392	9.322	-0.1177	0.4585	-0.0161	0.1779	-0.3425	-1.7909	9.9553	0.0592	-0.5906	-0.865	0.5083	0.8361	-0.3694	-0.4298	-0.6556
-2.0627	2.2207	9.702	-0.3766	0.2759	-0.0864	0.1943	-0.2765	-1.3685	1.8933	2.4645	9.4933	-0.1165	0.5509	-0.0768	0.2172	-0.3861	-1.8174	9.8332	0.4072	-0.771	-0.4666	0.5453	0.3455	-0.3826	-0.4001	-0.6107
-1.5492	1.588	9.5957	-0.4994	0.1821	0.0044	0.1809	-0.2517	-1.4138	1.8901	2.9151	9.3804	-0.1463	0.6417	0.0474	0.1785	-0.4005	-1.83	9.6638	-0.0555	-0.4168	-0.1903	0.2382	0.5599	-0.3694	-0.4477	-0.6237
-1.606	2.5074	9.6553	-0.5918	0.2141	-0.1482	0.2095	-0.2836	-1.3936	2.0014	2.3514	9.1558	-0.5489	0.5743	0.2005	0.1916	-0.3698	-1.8322	9.6009	0.1762	-0.5967	-0.466	0.4823	0.5291	-0.3964	-0.3833	-0.6272
-1.6674	2.1044	9.4251	-0.2841	0.3374	-0.055	0.1939	-0.2454	-1.3894	2.1818	2.7457	9.5562	-0.4275	0.3931	0.0138	0.1912	-0.3862	-1.8169	9.7206	-0.521	-0.5974	-0.4688	0.4564	0.0708	-0.3972	-0.4481	-0.6238
-1.4351	2.1624	9.6003	-0.3142	0.492	-0.1444	0.1809	-0.269	-1.3963	1.77	2.9714	9.1514	-0.2747	0.2716	0.1361	0.191	-0.372	-1.8035	9.7785	0.4083	-0.5325	0.0876	0.4247	0.3746	-0.4114	-0.4636	-0.6386
-1.3869	2.3327	9.1474	-0.2825	0.6458	-0.142	0.1671	-0.2651	-1.41	1.8935	3.0279	9.5504	-0.2787	-0.0357	0.2255	0.1923	-0.3524	-1.8619	9.4825	0.3507	-0.5981	0.0893	0.5458	0.4963	-0.3833	-0.4292	-0.6712
-0.8131	2.1028	9.2144	-0.0091	0.2472	-0.1186	0.1675	-0.2962	-1.3891	1.8914	2.8588	9.437	-0.2156	0.0581	0.0723	0.1648	-0.3579	-1.7896	9.4189	-0.057	-0.9005	-0.5547	0.8783	0.6498	-0.3414	-0.4311	-0.6244
-1.3766	1.9902	9.6576	-0.377	0.2144	-0.0874	0.1946	-0.221	-1.4351	2.0634	3.1965	9.4409	-0.1531	0.1196	0.1655	0.1516	-0.4192	-1.7854	9.6628	-0.1138	-0.477	-1.1416	1.0024	0.2846	-0.369	-0.4153	-0.6253
-1.211	2.7356	9.3798	-0.5608	0.1507	0.0347	0.1809	-0.2517	-1.4138	1.8309	3.1405	9.3227	-0.1514	0.2429	0.0742	0.1779	-0.4027	-1.8013	9.7818	0.4091	-0.3527	-0.894	1.1568	0.2218	-0.3833	-0.43	-0.6556
-1.7237	2.2195	9.4813	-0.6228	0.0586	0.0027	0.1939	-0.2454	-1.3894	1.7816	2.5776	9.6609	-0.337	0.2111	-0.1112	0.1644	-0.3896	-1.7733	10.1369	0.0017	-0.3479	-0.4027	1.0381	0.0373	-0.4111	-0.4304	-0.6558
-1.2083	2.1043	9.4908	-0.561	0.026	0.186	0.211	-0.2867	-1.4324	1.894	2.7462	9.5502	-0.3367	0.2409	0.0124	0.1779	-0.4027	-1.8013	9.8953	0.001	-0.6518	-0.4055	0.8884	-0.2676	-0.3684	-0.3659	-0.6434
-1.1522	2.2189	9.4356	-0.3766	0.2759	-0.0864	0.1797	-0.245	-1.3891	2.2331	2.858	9.2743	-0.6149	0.2368	0.1046	0.1774	-0.3742	-1.7746	9.6023	0.0603	-0.5373	-0.1623	0.8025	-0.7571	-0.3694	-0.4477	-0.6237
-1.6081	2.3346	9.5409	-0.3757	0.3359	0.0372	0.2095	-0.2663	-1.4111	2.0595	2.7456	9.2139	-0.6748	0.3891	0.1369	0.1783	-0.371	-1.8176	9.7256	0.1774	-0.235	-0.4729	0.8058	-1.1839	-0.4107	-0.4167	-0.61
-1.1535	2.4484	9.3797	-0.2209	0.5825	0.0408	0.1519	-0.258	-1.3849	1.8979	2.6337	9.72	-0.2439	0.2718	0.1669	0.1912	-0.4015	-1.8159	9.2444	0.2927	-0.7226	-0.2565	0.6502	-0.8477	-0.3968	-0.3978	-0.6574
-1.5499	2.5071	9.5996	-0.2833	0.5228	-0.144	0.1939	-0.2627	-1.3719	2.0593	2.802	9.214	0.2783	0.0335	0.1033	0.1915	-0.3851	-1.8312	9.2576	0.2956	-0.0037	-0.1263	0.9171	0.0063	-0.3976	-0.4626	-0.654
-1.039	2.4483	9.3819	-0.0069	0.7103	-0.2951	0.1942	-0.2419	-1.4035	2.0609	2.633	9.2705	0.1268	0.2763	0.1981	0.1792	-0.3678	-1.8607	9.7297	0.2945	0.0051	-0.0303	0.9417	0.6171	-0.3972	-0.4302	-0.6557
-1.3238	1.9892	9.4313	-0.0388	0.5261	-0.3287	0.1816	-0.262	-1.4245	1.8339	2.8026	9.4357	-0.0012	-0.0921	0.0094	0.1516	-0.4039	-1.7864	9.7788	-0.1727	-0.5948	0.0033	1.185	0.7686	-0.4107	-0.398	-0.6574
-1.6655	2.4495	9.5402	-0.1605	0.6481	-0.2957	0.1946	-0.2729	-1.3826	1.8373	2.9154	9.6057	-0.3685	0.1788	0.0734	0.1649	-0.4028	-1.801	9.7196	-0.1145	-0.5957	-0.5828	1.1214	0.8016	-0.3965	-0.3825	-0.6427
-1.0369	2.5637	9.4961	-0.407	0.4629	-0.3287	0.1976	-0.2793	-1.4602	1.6626	2.6903	9.4886	-0.2771	0.0874	0.1651	0.1784	-0.4159	-1.829	9.7818	-0.0558	-0.4146	-0.7412	0.8805	0.3754	-0.3688	-0.3991	-0.6262
-1.26	2.1055	9.774	-0.5586	0.4573	0.101	0.1801	-0.2415	-1.4031	2.0622	2.5767	9.3271	-0.0898	0.2429	0.1976	0.1265	-0.4162	-1.8278	9.9015	0.1767	-0.2916	-0.8039	0.7579	0.3762	-0.3969	-0.4149	-0.641
-1.673	2.1606	9.1411	-0.5286	0.4595	-0.083	0.1957	-0.2451	-1.4423	2.4713	3.1396	9.6759	-0.2468	0.0275	0.0104	0.1908	-0.4179	-1.8005	9.4847	-0.1137	-0.5402	-1.0212	0.76	0.1019	-0.4117	-0.479	-0.6533
-1.3813	2.2765	9.4314	-0.4061	0.3976	0.0076	0.1801	-0.2415	-1.4031	1.8966	2.6337	9.6633	-0.3995	0.149	-0.1119	0.2044	-0.4004	-1.8305	9.6004	-0.0564	-0.6576	-0.962	0.6407	-0.1728	-0.3828	-0.4163	-0.6099
-1.204	2.3924	9.7195	-0.2528	0.3669	0.068	0.195	-0.2521	-1.4141	1.898	1.9014	9.6627	-0.2159	0.0279	0.0104	0.1648	-0.3579	-1.7896	9.8356	0.2915	-0.6517	-0.8683	0.9182	-0.3578	-0.3552	-0.4321	-0.6089
-1.3735	2.2207	9.8291	-0.0678	0.615	-0.0511	0.2091	-0.2698	-1.397	1.6633	2.972	9.5455	-0.1203	0.2731	0.1979	0.1919	-0.3688	-1.8466	10.1345	0.0593	-0.4674	-0.2193	0.7935	0.0989	-0.3691	-0.4136	-0.6564
-1.2668	2.3338	9.4338	-0.2527	0.523	-0.1441	0.195	-0.2694	-1.3967	1.8917	3.3095	9.494	-0.3054	0.2724	-0.0489	0.1777	-0.3884	-1.7879	9.61	0.062	-0.1179	-0.1865	0.914	0.2816	-0.3833	-0.4487	-0.6082
-1.3228	2.1618	9.4889	-0.3464	0.246	-0.1483	0.1816	-0.262	-1.4245	2.1174	3.1962	9.2722	-0.1182	0.4271	0.1069	0.1522	-0.4018	-1.8151	9.8378	0.292	-0.5319	-0.4048	0.918	-0.1761	-0.355	-0.398	-0.6416
-1.322	2.5067	9.5472	-0.623	0.2471	-0.3622	0.182	-0.2757	-1.421	2.06	2.464	9.2137	-0.3024	0.5169	0.0768	0.1649	-0.4028	-1.801	9.905	0.1194	-0.1122	0.0286	1.1025	-0.1174	-0.3691	-0.4144	-0.6409
-1.1568	2.4477	9.2091	-0.5598	0.3358	-0.0236	0.2083	-0.2249	-1.4213	2.2438	2.9711	9.7842	-0.208	0.6418	-0.076	0.1914	-0.4158	-1.8292	9.7241	0.3514	-0.2942	-0.1874	1.009	-0.0245	-0.3827	-0.3993	-0.6263
-1.4374	2.2193	9.4869	-0.3481	0.0944	-0.3348	0.2236	-0.2493	-1.4289	1.8914	2.8588	9.437	-0.1162	0.581	0.016	0.191	-0.372	-1.8035	9.6079	0.0034	-0.238	0.1789	0.6757	-0.2076	-0.3828	-0.3976	-0.6573
-1.4421	2.6204	9.2612	-0.4692	0.1522	-0.0575	0.1943	-0.2592	-1.386	1.7257	2.9721	9.7733	-0.422	0.8222	0.0489	0.1778	-0.418	-1.8003	9.4321	-0.054	-0.1816	0.6761	0.7633	0.3709	-0.4248	-0.4323	-0.6248
-1.4441	2.2753	9.146	-0.5612	0.0892	0.0337	0.2087	-0.256	-1.4004	1.9525	2.2392	9.5509	-0.0829	0.7658	-0.0438	0.1654	-0.4159	-1.8287	9.7811	0.2346	-0.4134	0.6475	0.7899	0.7376	-0.3694	-0.4477	-0.6237
-1.6148	2.2757	9.1995	-0.5614	0.0274	0.0634	0.1668	-0.2514	-1.4135	1.8937	2.9152	9.5503	-0.024	0.5509	0.1082	0.218	-0.3982	-1.8595	9.6631	0.2349	-0.4156	0.3037	0.5182	0.2817	-0.4248	-0.4144	-0.6567
-1.0388	2.1611	9.3807	-0.3781	-0.0954	0.1222	0.1671	-0.2478	-1.4275	1.8983	3.0281	9.7769	-0.5773	0.7591	0.0174	0.1525	-0.4007	-1.8294	9.5469	-0.055	-0.3591	0.0882	0.5789	0.2516	-0.4105	-0.3997	-0.6264
-1.5025	2.3326	9.0883	-0.3792	-0.1862	-0.0019	0.1809	-0.2517	-1.4138	2.1259	3.1402	9.6686	-0.2112	0.3956	0.0449	0.192	-0.3983	-1.8589	9.6627	-0.0558	-0.4767	-0.1882	0.6069	0.4053	-0.3828	-0.3985	-0.6418
-1.5496	2.105	9.5979	-0.3158	0.1211	0.0335	0.1797	-0.245	-1.3891	1.777	3.0844	9.4914	-0.0887	0.3058	-0.0484	0.1521	-0.3722	-1.8027	9.5407	0.2341	-0.6574	-0.3709	0.8812	0.4352	-0.3833	-0.43	-0.6556
-1.4382	1.7595	9.4281	-0.3153	0.2762	-0.0866	0.2095	-0.2663	-1.4111	2.2419	2.6894	9.6706	-0.2442	0.2415	0.105	0.1654	-0.371	-1.8173	9.8985	0.0599	-0.4718	-0.2782	0.8812	0.4654	-0.3275	-0.4308	-0.6243
-1.8425	2.1038	9.2512	-0.2526	0.4291	0.0077	0.2076	-0.2493	-1.3757	2.2298	2.6889	9.1042	0.0368	0.4605	-0.0159	0.1903	-0.4496	-1.7842	9.5404	-0.1146	-0.7188	0.063	1.0647	0.5856	-0.3971	-0.431	-0.6402
-1.3352	2.274	8.864	-0.4989	0.3685	-0.1766	0.1652	-0.2309	-1.3921	2.4151	2.4637	9.6741	-0.3373	0.2093	0.1662	0.1658	-0.3995	-1.844	10.2513	0.1169	-0.5249	0.4593	0.8265	0.0963	-0.3965	-0.3825	-0.6427
-1.1529	1.6442	9.3763	-0.6837	0.2137	-0.1479	0.2084	-0.2422	-1.4038	2.1791	2.9146	9.4431	-0.3017	0.578	0.1083	0.1516	-0.4039	-1.7864	9.1324	0.5267	-0.3644	0.5816	0.6737	0.1271	-0.4107	-0.4159	-0.6256
-1.4417	1.9886	9.2585	-0.4687	0.4011	-0.3295	0.2087	-0.256	-1.4004	2.1714	2.5199	9.0463	-0.4259	0.5157	0.0151	0.2044	-0.4004	-1.8305	9.8382	0.1178	-0.5326	0.6147	0.6694	0.5549	-0.3827	-0.418	-0.5788
-1.1591	2.4472	9.0954	-0.5	0.1838	-0.1489	0.1645	-0.2206	-1.3815	1.8942	2.6336	9.5501	-0.3615	0.7017	-0.168	0.1911	-0.3566	-1.8045	9.8959	-0.2313	-0.6528	0.8612	0.7327	0.4315	-0.4108	-0.4151	-0.6411
-1.266	2.6787	9.4921	-0.5594	0.2094	0.281	0.1816	-0.2793	-1.407	2.4088	3.1958	9.4481	-0.4536	0.7613	-0.075	0.178	-0.3874	-1.8023	9.6601	0.118	-0.5958	0.5836	0.6699	0.4939	-0.3828	-0.4171	-0.5944
-1.148	2.5645	9.6645	-0.501	-0.0638	0.0004	0.1664	-0.2549	-1.3994	2.0113	2.8588	9.6659	-0.0844	0.6433	-0.0759	0.1912	-0.4015	-1.8159	9.7228	-0.0556	-0.4157	0.3009	0.4614	-0.1459	-0.3966	-0.3995	-0.6263
-1.386	2.6776	9.2057	-0.3787	-0.1875	0.1207	0.2225	-0.2426	-1.4042	1.8871	2.577	9.2102	-0.2428	0.3343	-0.0174	0.178	-0.3874	-1.8023	10.1988	-0.2883	-0.2282	0.2967	0.1899	-0.5114	-0.3834	-0.447	-0.6393
-1.317	1.8184	9.7717	-0.4691	0.0579	0.125	0.195	-0.2867	-1.3792	2.2952	3.0271	9.5022	-0.3966	0.3931	0.0755	0.1656	-0.3853	-1.8307	10.0197	0.1184	-0.2897	-0.1954	0.4653	-0.6943	-0.3689	-0.4161	-0.6098
-1.78	2.4496	9.538	-0.7758	-0.0054	0.1555	0.1526	-0.251	-1.4131	1.8968	2.5773	9.6633	-0.336	0.3023	0.013	0.1914	-0.4005	-1.8302	10.0742	0.1754	-0.528	-0.075	0.3472	-1.0609	-0.3695	-0.4282	-0.6866
-1.0972	2.2758	9.3232	-0.6529	0.182	-0.0565	0.1958	-0.2623	-1.4248	2.3559	2.6891	9.6164	-0.4287	0.3009	0.0438	0.1515	-0.3743	-1.774	9.7821	-0.1719	-0.4151	0.2062	0.5894	-0.7269	-0.383	-0.4146	-0.6409
-1.4376	2.5065	9.4881	-0.3467	0.3095	-0.3313	0.1511	-0.2132	-1.4093	1.8933	3.1406	9.5505	-0.5505	0.4516	0.1993	0.1914	-0.4005	-1.8302	10.0191	-0.1142	-0.3506	0.7019	0.6177	-0.3315	-0.3689	-0.4161	-0.6098
-1.492	1.6454	9.5971	-0.499	0.306	-0.0856	0.1797	-0.245	-1.3891	2.1854	2.8022	9.7262	-0.1476	0.5207	-0.2005	0.1397	-0.3701	-1.8311	9.3068	0.2352	-0.542	0.5502	0.7057	-0.0257	-0.3967	-0.4165	-0.61
-1.6094	2.6215	9.4852	-0.4374	0.3056	-0.0244	0.166	-0.2065	-1.4378	2.2942	2.9144	9.4455	-0.3013	0.5801	-0.2	0.2041	-0.4015	-1.8162	9.6104	0.3526	-0.0568	0.5518	0.7647	0.1879	-0.3688	-0.3991	-0.6262
-1.7733	2.451	9.8791	-0.1925	0.3075	-0.0865	0.1954	-0.2486	-1.4282	2.184	2.8585	9.6696	-0.33	0.7628	-0.0749	0.1523	-0.3864	-1.8161	9.658	0.5243	-0.654	0.3038	0.6421	0.1283	-0.3968	-0.3978	-0.6574
-1.6091	2.1046	9.4831	-0.4979	0.2715	0.2512	0.2087	-0.2387	-1.4179	1.8929	2.6899	9.4935	-0.1452	0.7335	0.0791	0.2042	-0.3861	-1.8172	9.8974	-0.4053	-0.5936	0.025	0.4885	0.0995	-0.3827	-0.3993	-0.6263
-1.2061	2.2196	9.605	-0.8074	-0.1281	0.1229	0.1809	-0.2863	-1.3788	1.6685	2.8032	9.7719	-0.1195	0.3058	-0.1101	0.1778	-0.3578	-1.7899	9.4328	-0.3444	-0.1828	-0.2529	0.4881	0.0393	-0.3692	-0.4128	-0.6719
-1.2108	2.5059	9.3788	-0.5915	0.1195	0.065	0.2099	-0.28	-1.4077	1.8874	3.0277	9.2672	-0.2385	0.6718	-0.0449	0.1777	-0.3884	-1.7879	10.0129	0.175	-0.6489	-0.9625	0.3001	0.2262	-0.3972	-0.4481	-0.6238
-1.3205	1.99	9.6018	-0.501	-0.0638	0.0004	0.1668	-0.2514	-1.4135	2.2345	2.8017	9.3309	-0.3648	0.4556	-0.0471	0.2169	-0.3871	-1.8031	9.299	0.2915	-0.9611	-1.7009	0.1082	0.7799	-0.355	-0.3972	-0.6572
-1.2086	2.5638	9.4928	-0.4699	-0.065	0.123	0.208	-0.2458	-1.3898	1.7775	2.8591	9.4912	0.2196	0.2777	0.1674	0.152	-0.3875	-1.8017	9.9018	0.0606	-0.2921	-1.5783	0.1099	0.6572	-0.3828	-0.4163	-0.6099
-1.3308	2.4473	9.0921	-0.6526	0.2438	-0.0862	0.1668	-0.2514	-1.4135	1.8388	3.4225	9.7194	-0.0882	0.3659	0.1372	0.2048	-0.384	-1.8459	9.7201	0.1762	-0.5346	-0.6531	0.2993	0.4084	-0.3968	-0.397	-0.6729
-1.2161	2.1026	9.0929	-0.4388	0.0905	-0.0279	0.1801	-0.2415	-1.4031	2.4113	3.1396	9.5614	-0.0906	0.1813	0.2278	0.1909	-0.4026	-1.8015	10.141	0.1189	-0.1078	0.6433	0.4875	0.4028	-0.3411	-0.397	-0.6571
-1.4946	2.2194	9.4858	-0.2525	0.4598	0.0082	0.2099	-0.28	-1.4077	1.8338	2.8589	9.4358	-0.15	0.3651	0.1371	0.1523	-0.3864	-1.8161	9.7894	0.004	0.005	0.9821	0.5515	0.2485	-0.3969	-0.4149	-0.641
-1.434	2.1626	9.6572	-0.223	0.4634	-0.2985	0.1965	-0.2899	-1.418	2.3585	2.5765	9.7296	-0.3677	0.2401	0.074	0.1784	-0.4159	-1.829	9.7807	0.4088	-0.4127	0.6483	0.9126	0.7064	-0.369	-0.4153	-0.6253
-1.094	2.3914	9.4943	-0.2242	0.2165	-0.2105	0.182	-0.2757	-1.421	2.3018	2.7457	9.7852	-0.368	0.2099	0.0121	0.1788	-0.3841	-1.8453	9.8396	0.0019	-0.4732	0.3413	0.9711	0.8601	-0.3828	-0.3985	-0.6418
-1.3207	2.2772	9.6031	-0.1004	0.2761	0.0048	0.1519	-0.2234	-1.4199	1.8334	2.4645	9.3788	0.0059	0.4601	-0.016	0.178	-0.3874	-1.8023	9.8364	-0.0569	-0.6532	-0.2148	0.9713	0.6482	-0.411	-0.4312	-0.6402
-1.6699	2.4485	9.3128	-0.3773	0.1215	-0.0276	0.1954	-0.2832	-1.3932	1.774	2.7463	9.3212	-0.2093	0.5492	0.0156	0.165	-0.3874	-1.802	10.0689	-0.4069	-0.8899	-0.6472	1.0953	0.3435	-0.4109	-0.4321	-0.6247
-1.4949	2.564	9.4872	-0.6242	-0.0626	-0.1526	0.1946	-0.2383	-1.4176	2.2298	3.3649	9.1614	-0.3924	0.7015	-0.1989	0.1905	-0.419	-1.7862	9.6678	0.1197	-0.1765	-1.0203	0.7272	0.316	-0.3552	-0.4321	-0.6089
-1.0917	2.277	9.6075	-0.7153	-0.0341	0.0015	0.166	-0.2411	-1.4028	1.7133	3.1406	9.207	-0.3312	0.6707	-0.045	0.1777	-0.3731	-1.7889	9.6081	-0.0546	-0.2382	-1.7651	0.4543	-0.169	-0.3829	-0.3968	-0.6728
-1.213	2.448	9.2649	-0.7771	-0.1269	0.0308	0.2233	-0.2702	-1.3974	1.7765	2.7464	9.4345	-0.5146	0.8218	-0.0745	0.1783	-0.371	-1.8176	9.8387	0.4084	-0.4715	-1.7362	0.4582	-0.5358	-0.3554	-0.4304	-0.64
-1.148	2.507	9.6642	-0.6857	-0.1876	-0.0011	0.1943	-0.2592	-1.386	2.2328	3.027	9.2744	-0.5463	0.7599	-0.0443	0.2177	-0.3992	-1.8451	9.7228	0.4092	-0.3538	-1.122	0.0924	-0.4446	-0.3688	-0.3991	-0.6262
-1.5485	2.1052	9.6547	-0.7466	-0.1264	0.0001	0.1958	-0.2796	-1.4073	1.488	3.0849	9.4287	0.1034	0.8303	-0.1664	0.2167	-0.3729	-1.7897	9.3649	0.1767	-0.6011	-0.6883	0.1832	-0.2021	-0.3689	-0.3974	-0.6572
-1.323	2.3916	9.4898	-0.3783	-0.0947	0.0609	0.1817	-0.3139	-1.372	2.4679	3.0268	9.5058	-0.238	0.7031	-0.1371	0.1917	-0.4147	-1.8436	9.8942	0.0008	-0.7117	-0.3194	0.2488	-0.5094	-0.3694	-0.4298	-0.6556
-1.0434	2.3325	9.154	-0.1947	-0.0617	-0.0618	0.1965	-0.2726	-1.4355	2.2403	2.9146	9.6142	-0.4231	0.7306	-0.0136	0.1523	-0.3864	-1.8161	9.7196	-0.1145	-0.5957	-0.0708	0.4323	-0.4195	-0.4105	-0.4184	-0.579
-1.7821	2.3342	9.4238	-0.1934	0.0284	0.1237	0.1946	-0.221	-1.4351	1.8905	2.6898	9.3802	-0.2374	0.7636	-0.0131	0.1794	-0.3973	-1.873	9.5455	0.5258	-0.3567	-0.2245	0.6481	-0.6339	-0.3552	-0.4329	-0.5934
-1.4936	2.277	9.5429	-0.5303	0.1201	0.0341	0.1671	-0.2651	-1.41	1.8366	2.69	9.5489	-0.0545	0.5527	-0.2309	0.1789	-0.3688	-1.8463	9.8407	0.0022	-0.4133	-0.1294	0.8919	-0.5132	-0.3688	-0.4177	-0.5788
-1.551	2.5069	9.5427	-0.4691	0.0893	0.0641	0.1526	-0.251	-1.4131	2.0099	2.3517	9.5522	-0.3624	0.6402	-0.1378	0.1912	-0.3862	-1.8169	9.7284	-0.5773	-0.1783	-0.4053	1.0432	-0.4518	-0.3969	-0.3962	-0.6884
-1.4892	2.3355	9.7705	-0.5313	0.0289	-0.0593	0.1824	-0.3068	-1.4001	2.1282	2.577	9.7248	-0.3323	0.5791	-0.1075	0.178	-0.3874	-1.8023	9.8941	0.0589	-0.7115	-0.8382	1.0751	-0.7254	-0.3965	-0.3816	-0.6582
-1.3195	2.1625	9.6594	-0.5002	0.1845	-0.2102	0.2233	-0.2702	-1.3974	2.0044	2.6895	9.326	-0.425	0.5777	-0.0768	0.1786	-0.3699	-1.832	9.6602	-0.405	-0.6579	-1.4232	1.0402	-0.5092	-0.3972	-0.4481	-0.6238
-1.0943	2.7935	9.496	-0.624	-0.0319	-0.1521	0.1816	-0.2793	-1.407	1.8941	2.6899	9.5501	-0.3634	0.5777	0.0466	0.1913	-0.3709	-1.8179	9.7251	-0.1132	-0.2962	-1.6067	1.1609	-0.4174	-0.3413	-0.4327	-0.5933
-1.2039	2.1627	9.7185	-0.6837	0.1197	0.0039	0.1798	-0.2623	-1.3716	1.722	3.0283	9.6034	-0.3039	0.3947	0.014	0.1786	-0.3699	-1.832	9.2559	0.0628	-0.1245	-1.4232	1.0402	-0.5092	-0.3972	-0.4302	-0.6557
-1.3801	2.1618	9.4877	-0.3158	0.215	-0.1183	0.1958	-0.2623	-1.4248	2.065	3.0275	9.4974	-0.0853	0.5812	0.0468	0.1647	-0.3885	-1.7876	9.5473	-0.2292	-0.3599	-1.3592	1.0051	-0.0508	-0.3833	-0.43	-0.6556
-1.5565	2.4482	9.2582	-0.1309	0.4006	-0.1465	0.1653	-0.2482	-1.3746	2.1224	3.0837	9.4986	-0.6436	0.3909	-0.0788	0.191	-0.372	-1.8035	9.6049	-0.1135	-0.4182	-1.2344	1.0648	0.1318	-0.3835	-0.4462	-0.6548
-1.3814	2.4488	9.4321	-0.2219	0.5853	-0.2045	0.2087	-0.256	-1.4004	2.1215	2.9147	9.4419	-0.3969	0.3632	-0.0481	0.2167	-0.4178	-1.8011	9.4196	0.1175	-0.8398	-0.4945	1.1608	-0.0241	-0.3967	-0.4165	-0.61
-1.5497	2.2773	9.5986	-0.1606	0.4606	-0.0227	0.153	-0.2648	-1.4097	2.4124	2.5763	9.5609	-0.3984	0.2408	-0.0801	0.1652	-0.4017	-1.8153	9.6001	0.0598	-0.6571	0.0891	1.074	-0.3009	-0.3694	-0.4298	-0.6556
-1.3746	2.3354	9.7727	-0.1622	0.3711	-0.2695	0.1946	-0.2383	-1.4176	1.832	2.5208	9.3222	-0.4586	0.363	-0.1406	0.1909	-0.3873	-1.8025	9.6643	-0.2878	-0.4178	0.2407	1.1414	-0.8519	-0.3967	-0.3987	-0.6418
-1.442	2.4481	9.2604	-0.2842	0.3688	-0.1159	0.166	-0.2584	-1.3853	1.8847	3.1965	9.1541	-0.1504	0.3056	-0.1409	0.1655	-0.4006	-1.8297	9.5484	0.2359	-0.2381	-0.2217	1.0464	-0.6969	-0.3698	-0.48	-0.622
-1.3212	1.4727	9.5428	-0.5614	0.2464	-0.2704	0.124	-0.2711	-1.3808	1.8943	3.2533	9.6072	-0.1792	0.488	0.0458	0.1783	-0.3863	-1.8166	9.7191	0.1178	-0.5947	-0.1586	1.1371	-0.5754	-0.4112	-0.4474	-0.6394
-2.0674	2.5644	9.4761	-0.5302	0.0572	0.1558	0.1943	-0.2765	-1.3685	1.8938	2.8589	9.5502	-0.2108	0.3978	-0.2942	0.1647	-0.3885	-1.7876	9.494	0.1208	-0	0.0549	1.018	-0.8201	-0.3834	-0.447	-0.6393
-1.3209	2.6218	9.6045	-0.163	0.1232	-0.0895	0.2229	-0.2564	-1.4008	2.0077	2.8586	9.496	-0.2724	0.4556	0.1379	0.1787	-0.4148	-1.8433	9.6653	-0.2295	-0.3577	0.1455	0.8979	-1.0032	-0.3826	-0.4001	-0.6107
-1.7268	1.8742	9.3093	-0.6225	0.0579	0.0641	0.1794	-0.2312	-1.3925	1.884	3.5345	9.1543	-0.243	0.3337	0.0751	0.1656	-0.3853	-1.8307	9.425	0.1768	-0.5401	0.115	0.835	-0.85	-0.3968	-0.397	-0.6729
-1.5533	2.5638	9.4292	-0.407	0.1811	0.1268	0.182	-0.2584	-1.4385	2.0633	2.6331	9.3838	-0.181	0.3637	0.2912	0.1782	-0.3414	-1.8053	9.8392	0.641	-0.4106	0.6388	0.6203	-0.6063	-0.383	-0.4146	-0.6409
-0.8065	2.2191	9.556	-0.4373	0.2113	0.158	0.1668	-0.2687	-1.396	1.8856	2.7459	9.1537	-0.4573	0.4839	0.138	0.2163	-0.3893	-1.7744	10.0743	0.1173	-0.5282	0.7948	0.7104	-0.3934	-0.3964	-0.3833	-0.6272
-1.1503	2.6789	9.5512	-0.008	0.3691	-0.0246	0.2084	-0.2422	-1.4038	1.7764	2.8027	9.4345	-0.5191	0.4831	0.138	0.1652	-0.4017	-1.8153	10.019	0.4088	-0.2884	0.858	0.9251	-0.4252	-0.397	-0.4327	-0.6091
-1.2622	2.0476	9.6601	-0.2827	0.5211	0.0093	0.2084	-0.2941	-1.3514	2.2948	3.2524	9.5024	-0.3312	0.6707	-0.045	0.1786	-0.3699	-1.832	9.4254	0.4675	-0.4789	0.6117	0.9857	-0.4552	-0.383	-0.4146	-0.6409
-0.9222	2.3338	9.4974	-0.4975	0.4269	0.1004	0.1939	-0.2454	-1.3894	2.1797	2.5766	9.4428	-0.0258	0.3982	0.0142	0.1912	-0.4015	-1.8159	9.8359	-0.2895	-0.7141	0.674	0.7983	-0.0572	-0.3832	-0.4122	-0.6875
-1.3767	2.1051	9.6581	-0.2549	0.0914	-0.0284	0.1816	-0.262	-1.4245	1.6037	2.803	9.4309	-0.2085	0.6105	0.0162	0.1777	-0.3884	-1.7879	9.6686	0.2361	-0.1161	0.8909	1.0765	-0.2732	-0.3833	-0.43	-0.6556
-1.15	2.2194	9.5493	-0.1012	0.1532	0.0028	0.2087	-0.2387	-1.4179	1.8917	3.3095	9.494	-0.1517	0.2128	-0.0186	0.2046	-0.3698	-1.8325	9.7279	0.1198	-0.1155	0.5827	1.1372	-0.3335	-0.4245	-0.3991	-0.642
-1.6688	2.4488	9.3697	-0.4388	0.0905	-0.0279	0.1656	-0.2273	-1.4062	1.4369	2.2402	9.6533	-0.4278	0.3626	-0.0173	0.1652	-0.4017	-1.8153	9.7219	0.3509	-0.414	0.6136	1.0131	-0.1497	-0.3967	-0.3987	-0.6418
-1.5564	2.2184	9.2572	-0.2553	0.1238	-0.1813	0.2095	-0.2317	-1.4461	2.0059	3.1966	9.4397	-0.4587	0.3624	-0.0481	0.1904	-0.4343	-1.7852	9.9058	0.2358	-0.0518	0.92	0.9247	-0.3643	-0.4104	-0.3827	-0.6428
-1.5506	1.9324	9.5403	-0.3453	0.3368	-0.0242	0.1382	-0.2714	-1.3812	1.8276	2.9713	9.1527	-0.2121	0.3337	0.1367	0.1784	-0.4159	-1.829	9.7827	0.0606	-0.3542	0.9767	0.5928	-0.7908	-0.3835	-0.4462	-0.6548
-1.6067	1.9327	9.596	-0.1933	0.1845	-0.0884	0.1672	-0.2997	-1.3751	1.8981	3.1407	9.777	-0.3358	0.3317	0.1983	0.1779	-0.4027	-1.8013	9.5437	-0.1138	-0.5391	0.9193	0.7086	-0.1799	-0.3688	-0.3991	-0.6262
-1.4991	2.2758	9.2586	-0.3452	0.3679	-0.0544	0.1946	-0.2556	-1.4001	2.2913	3.1959	9.3324	-0.5528	0.2681	0.1358	0.1519	-0.4028	-1.8007	10.1992	0.0023	-0.1671	0.3991	0.7304	0.4943	-0.397	-0.414	-0.6565
-1.0882	2.048	9.7771	-0.2235	0.2144	-0.0265	0.1813	-0.2655	-1.4104	2.1793	2.8019	9.443	-0.1836	0.1501	0.1349	0.1779	-0.4027	-1.8013	9.4789	0.0012	-0.8392	0.3374	0.9475	0.1878	-0.355	-0.4167	-0.5942
-1.607	2.2774	9.5975	-0.2838	0.2424	0.1888	0.1946	-0.2556	-1.4001	1.8474	2.6904	10.0587	-0.3055	0.2718	0.0436	0.178	-0.3874	-1.8023	9.7228	-0.0556	-0.4157	0.4274	0.7974	-0.0563	-0.3963	-0.3841	-0.6116
-1.257	2.6232	9.9467	-0.5897	0.3021	0.2213	0.1954	-0.2486	-1.4282	1.8997	2.9155	9.8335	-0.2431	0.3043	-0.1102	0.1778	-0.418	-1.8003	9.4891	-0.1127	-0.3006	-0.0634	1.0081	0.0973	-0.3693	-0.4306	-0.64
-1.4967	2.0466	9.3713	-0.2848	0.3081	-0.1782	0.1809	-0.2517	-1.4138	2.1804	2.8583	9.4997	-0.1802	0.3968	-0.0784	0.204	-0.4321	-1.8141	9.483	-0.3465	-0.661	-0.2178	1.0079	0.0673	-0.3966	-0.3995	-0.6263
-1.7812	2.6217	9.4819	-0.2842	0.3688	-0.1159	0.1668	-0.2514	-1.4135	1.8355	2.6336	9.4922	-0.3657	0.3939	0.0139	0.2043	-0.3708	-1.8182	9.3135	-0.2863	-0.2447	-0.3399	1.0674	0.1897	-0.383	-0.4146	-0.6409
-1.0972	2.2183	9.323	-0.3757	0.3984	-0.0538	0.166	-0.2411	-1.4028	2.1216	2.8584	9.4418	-0.4271	0.4238	0.0141	0.1787	-0.3546	-1.833	9.6609	0.2344	-0.5354	-0.4336	0.945	0.1601	-0.3965	-0.4003	-0.6108
-1.5029	2.8495	9.0904	-0.5301	0.2448	-0.1172	0.2102	-0.2592	-1.4392	1.7258	2.9157	9.7732	-0.364	0.5458	0.2312	0.1788	-0.3841	-1.8453	9.8347	0.2332	-0.7118	-0.2194	1.0732	-0.3303	-0.4109	-0.4142	-0.6566
-1.4386	2.334	9.4305	-0.5629	0.0316	-0.3045	0.1813	-0.2655	-1.4104	1.7787	2.8591	9.5478	-0.5499	0.4831	0.0763	0.178	-0.372	-1.8033	9.0105	0.2937	-0.6072	-0.1004	0.7403	-0.6348	-0.3552	-0.4142	-0.6408
-1.5507	2.1048	9.541	-0.5311	0.0597	-0.0588	0.1946	-0.2556	-1.4001	1.898	2.5774	9.7199	-0.0873	0.4277	0.0761	0.1916	-0.3698	-1.8322	9.7219	0.3509	-0.414	0.5178	0.5533	-0.086	-0.3687	-0.3999	-0.6107
-1.3242	2.4488	9.4332	-0.4997	0.1517	-0.0268	0.1931	-0.2697	-1.3438	2.1177	3.0272	9.272	-0.2113	0.3952	0.1065	0.1917	-0.3545	-1.8332	9.7773	0.4662	-0.5921	0.5848	0.7607	0.5851	-0.4105	-0.3997	-0.6264
-1.3218	2.3344	9.5464	-0.4385	0.1209	0.0032	0.1969	-0.2864	-1.4321	1.8909	3.0841	9.4372	-0.3647	0.456	-0.1088	0.2044	-0.4004	-1.8305	9.6067	0.0613	-0.2976	0.3693	0.7593	0.647	-0.4248	-0.4136	-0.6722
-1.093	2.564	9.5519	-0.4701	0.0921	-0.1812	0.1942	-0.2246	-1.421	1.6048	2.8594	9.4876	-0.0545	0.5812	0.1085	0.2033	-0.3894	-1.7741	9.7253	-0.1713	-0.2964	-0.1596	0.3938	0.3145	-0.4109	-0.4321	-0.6247
-1.2656	2.2192	9.4902	-0.3458	0.2442	0.005	0.2091	-0.2698	-1.397	2.0652	2.9149	9.4973	-0.1795	0.4578	-0.0161	0.1913	-0.4311	-1.8282	9.7835	0.177	-0.2938	-0.2819	0.3915	0.4983	-0.3689	-0.3974	-0.6572
-1.0905	2.2198	9.6641	-0.5	0.0274	0.0939	0.1935	-0.2489	-1.3753	1.3211	2.5784	9.6512	-0.1466	0.6115	-0.0146	0.1524	-0.3711	-1.8171	9.6557	0.117	-0.8354	-0.0397	0.2145	-0.0518	-0.4106	-0.3989	-0.6419
-1.2656	2.1618	9.49	-0.4079	0.0899	0.0333	0.1671	-0.2478	-1.4275	2.1762	2.5201	9.2728	-0.3983	0.27	0.136	0.165	-0.3874	-1.802	9.8968	0.2919	-0.5308	-0.2549	0.1503	0.1632	-0.4104	-0.3827	-0.6428
-1.4398	2.4486	9.3741	-0.3176	-0.0926	-0.0926	0.1939	-0.2281	-1.4069	2.0127	2.8025	9.7225	-0.7322	0.7261	0.0786	0.1915	-0.3851	-1.8312	9.658	0.0594	-0.7159	-0.2568	0.1541	-0.2036	-0.3547	-0.4005	-0.5951
-1.3289	2.7924	9.2073	-0.3465	0.0585	0.1246	0.1671	-0.2651	-1.41	2.0126	2.8588	9.7226	-0.5784	0.6671	0.0164	0.1792	-0.3678	-1.8607	9.66	0.6409	-0.5337	0.0519	0.1234	-0.0823	-0.3694	-0.429	-0.6711
-1.2062	2.3345	9.6055	-0.3772	0.0897	0.0639	0.1809	-0.2517	-1.4138	2.2946	2.7454	9.4453	-0.1163	0.5517	-0.2001	0.1901	-0.4354	-1.7708	9.5486	-0.3451	-0.3005	-0.7183	-0.0979	0.3494	-0.4112	-0.4474	-0.6394
-1.6138	2.4482	9.2571	-0.5925	-0.0028	0.0017	0.195	-0.2694	-1.3967	1.8943	2.5772	9.55	-0.1743	0.857	-0.1047	0.1647	-0.3885	-1.7876	9.482	0.583	-0.5971	-1.025	0.3636	-0.0184	-0.3692	-0.4315	-0.6245
-1.2645	2.2194	9.5471	-0.5914	0.1505	0.0348	0.1939	-0.2627	-1.3719	2.1716	3.027	9.1033	-0.2687	0.7322	0.0482	0.2038	-0.4025	-1.8018	9.4894	0.236	-0.2392	-1.087	0.4882	-0.2633	-0.3684	-0.3659	-0.6434
-1.2152	2.39	9.1509	-0.6223	0.0572	0.1254	0.179	-0.2348	-1.3784	1.885	3.0276	9.1539	-0.1782	0.5506	-0.1385	0.1919	-0.3688	-1.8466	9.7184	-0.0566	-0.6554	-0.84	0.4264	-0.1111	-0.3692	-0.4315	-0.6245
-1.3251	2.1613	9.3752	-0.3781	0.0611	-0.1206	0.179	-0.2175	-1.3959	2.2341	2.9707	9.331	-0.1785	0.5201	-0.1697	0.1781	-0.3567	-1.8043	9.5917	0.3484	-1.0752	-0.7156	0.3316	0.2251	-0.3824	-0.3661	-0.6435
-1.6045	1.9906	9.71	-0.684	0.0893	-0.0272	0.1813	-0.2655	-1.4104	1.8944	3.1969	9.6072	-0.1493	0.3972	-0.0784	0.1915	-0.3851	-1.8312	9.4874	0.1194	-0.3595	-0.7763	0.2986	0.4395	-0.3967	-0.4173	-0.5944
-1.9501	1.7032	9.5884	-0.5923	0.153	-0.1798	0.1812	-0.2482	-1.4279	1.8333	2.5209	9.3788	-0.394	0.5789	-0.2001	0.1526	-0.3854	-1.8304	10.0228	0.1772	-0.1097	-0.4974	0.3279	0.6522	-0.4111	-0.4491	-0.6084
-1.4376	2.4491	9.4878	-0.3161	0.1847	-0.1494	0.1797	-0.245	-1.3891	1.7798	2.9155	9.6045	-0.3644	0.4863	-0.0468	0.1261	-0.3723	-1.8022	9.3111	0.2942	-0.3021	-0.4968	0.4509	0.5905	-0.383	-0.4146	-0.6409
-1.1556	2.2756	9.2653	-0.4376	0.2749	-0.0249	0.1939	-0.2454	-1.3894	1.6623	2.8593	9.4888	-0.2394	0.6097	0.0778	0.165	-0.3874	-1.802	9.955	0.1754	-0.5901	-0.006	0.3023	0.345	-0.4111	-0.4304	-0.6558
-1.6127	2.5634	9.3144	-0.1609	0.4613	-0.084	0.1809	-0.2517	-1.4138	2.1824	2.464	9.556	0.008	0.6144	-0.1686	0.2043	-0.3708	-1.8182	9.6025	0.4671	-0.4756	0.1829	0.5439	0.7099	-0.4109	-0.4134	-0.6721
-1.6663	2.0472	9.4817	-0.284	0.431	-0.1762	0.1816	-0.2447	-1.442	1.7198	2.9155	9.49	-0.0259	0.3978	0.0759	0.1648	-0.4181	-1.8	9.6606	-0.1143	-0.5968	0.279	0.91	0.83	-0.3696	-0.446	-0.6547
-1.0931	2.6788	9.5523	-0.3459	0.401	-0.2685	0.1817	-0.3312	-1.3545	2.2366	2.9708	9.4443	-0.5505	0.4232	-0.1401	0.1914	-0.3556	-1.8189	9.8428	0.0607	-0.2932	0.0359	0.9956	1.3501	-0.3972	-0.4489	-0.6083
-1.6126	2.391	9.3137	-0.2851	0.1838	-0.0575	0.2106	-0.2903	-1.4183	1.8948	2.3519	9.5498	-0.2394	0.6101	0.0162	0.1906	-0.3884	-1.7882	10.1289	0.1162	-0.7667	-0.2443	0.7823	1.1687	-0.3963	-0.3841	-0.6116
-1.1564	1.8158	9.2065	-0.1929	0.246	-0.0875	0.2106	-0.273	-1.4358	1.8987	2.8028	9.7768	-0.301	0.6099	-0.0764	0.1646	-0.4038	-1.7866	9.8312	0.2906	-0.8913	-0.9562	0.7539	0.713	-0.3973	-0.4659	-0.5919
-1.4977	1.7591	9.3133	-0.5301	0.1508	0.0346	0.1801	-0.2415	-1.4031	2.0079	2.746	9.4959	-0.3637	0.5474	-0.0154	0.1651	-0.417	-1.8143	9.4902	0.3524	-0.1788	-1.0515	0.5417	0.5004	-0.3694	-0.4298	-0.6556
-1.4444	2.6774	9.1477	-0.6844	0.0593	-0.0891	0.2232	-0.2183	-1.4498	2.2936	2.6327	9.3886	-0.3338	0.4564	-0.1088	0.2175	-0.4299	-1.8431	9.8436	-0.2877	-0.2947	-1.1123	0.8502	0.2241	-0.3692	-0.4315	-0.6245
-1.3218	2.3344	9.5464	-0.4085	-0.0337	0.0926	0.1667	-0.2168	-1.4484	2.6882	3.1949	9.0577	-0.2723	0.4562	0.0454	0.1777	-0.3731	-1.7889	9.7241	0.3514	-0.2942	-0.8698	0.6417	-0.2342	-0.3691	-0.4331	-0.5935
-1.4914	2.335	9.6568	-0.4086	-0.0019	0.0011	0.1946	-0.2383	-1.4176	1.8912	2.9715	9.4371	-0.334	0.4554	0.0454	0.178	-0.4323	-1.8136	10.197	0.0018	-0.2869	-0.3147	0.7367	-0.3589	-0.3966	-0.3995	-0.6263
-1.3218	2.2195	9.546	-0.654	0.0287	-0.0897	0.1801	-0.2588	-1.3856	2.2391	2.9146	9.5575	-0.3673	0.271	0.0435	0.1648	-0.4181	-1.8	9.7216	0.0022	-0.4754	0.3345	0.8598	-0.2091	-0.4105	-0.3818	-0.6583
-1.4949	2.564	9.4872	-0.5612	0.2146	-0.1789	0.1809	-0.269	-1.3963	1.8962	2.859	9.6635	-0.3044	0.3636	0.0753	0.1263	-0.3866	-1.8155	9.8459	0.1195	-0.1133	0.362	0.5868	-0.4218	-0.3969	-0.4149	-0.641
-0.9781	2.0469	9.5519	-0.5315	0.0296	-0.1207	0.1943	-0.2592	-1.386	2.0739	2.8025	9.8937	-0.5194	0.453	0.0452	0.1911	-0.3566	-1.8045	9.9539	0.1751	-0.65	0.4901	0.9509	-0.0878	-0.4254	-0.463	-0.6542
-1.4375	2.3342	9.4874	-0.3464	0.246	-0.1483	0.1649	-0.2344	-1.3781	1.9002	2.6901	9.8333	-0.3036	0.4247	0.1067	0.1392	-0.3569	-1.8034	9.8959	0.2336	-0.5909	0.6456	1.011	0.0642	-0.3969	-0.4149	-0.641
-1.3713	2.2787	9.9431	-0.3157	0.0897	0.0944	0.224	-0.2804	-1.408	1.6668	3.0285	9.7155	-0.4273	0.3937	-0.0786	0.1911	-0.4169	-1.8149	9.6653	0.2354	-0.2958	0.2469	1.0055	0.4629	-0.3691	-0.4144	-0.6409
-1.4385	2.2191	9.43	-0.502	-0.2175	-0.0021	0.1664	-0.2549	-1.3994	1.7746	2.4646	9.3209	-0.4878	0.5146	0.0767	0.165	-0.3874	-1.802	9.8979	-0.1727	-0.5327	0.0919	0.8201	0.5866	-0.3828	-0.4163	-0.6099
-1.8946	2.5645	9.5363	-0.4385	0.0269	0.155	0.2221	-0.2634	-1.3726	1.8966	2.6337	9.6633	-0.301	0.6103	-0.138	0.1917	-0.3545	-1.8332	9.8953	0.001	-0.6518	-0.1288	0.5803	0.0384	-0.4106	-0.3989	-0.6419
-1.72	1.8182	9.6502	-1.1127	0.0863	0.0659	0.195	-0.2521	-1.4141	1.887	3.253	9.2674	-0.3658	0.3935	0.0756	0.2167	-0.3729	-1.7897	9.6671	-0.0548	-0.2371	-0.627	0.3083	-0.4475	-0.3691	-0.4136	-0.6564
-1.1455	2.2203	9.7767	-0.6528	0.1817	-0.0258	0.1954	-0.2313	-1.4457	1.7735	3.0279	9.3214	-0.0851	0.5824	-0.1381	0.1916	-0.3698	-1.8322	9.6642	0.2351	-0.3557	-0.6266	0.3698	-0.4783	-0.3693	-0.4306	-0.64
-1.4901	2.1629	9.7129	-0.6536	0.0277	0.0023	0.1946	-0.2729	-1.3826	1.8945	3.1406	9.6071	-0.1805	0.3666	-0.1404	0.1784	-0.3557	-1.8186	10.198	0.0602	-0.2267	-0.4714	0.5236	-0.5102	-0.3968	-0.4343	-0.5781
-1.3207	2.2772	9.6031	-0.1937	0.1545	-0.1503	0.1958	-0.2969	-1.3898	1.9511	2.9715	9.5516	-0.3044	0.3636	0.0753	0.1651	-0.4323	-1.8133	9.7236	-0.4041	-0.4172	-0.4991	0.5796	-0.0213	-0.4104	-0.4005	-0.6109
-1.444	2.103	9.1453	-0.1916	0.4925	-0.1448	0.1809	-0.2517	-1.4138	1.9047	2.8593	10.06	-0.209	0.579	0.1392	0.1522	-0.4171	-1.814	9.3664	0.4676	-0.48	-0.5301	0.6728	-0.1745	-0.3691	-0.4136	-0.6564
-1.5485	2.1052	9.6547	-0.3151	0.4008	-0.2379	0.182	-0.293	-1.4036	2.2359	2.6891	9.3874	-0.1793	0.4588	-0.1703	0.1774	-0.3742	-1.7746	10.0136	-0.1154	-0.6501	-0.3778	0.4287	-0.1739	-0.4112	-0.4474	-0.6394
-1.3837	2.5058	9.3186	-0.2537	0.3382	-0.1164	0.2099	-0.28	-1.4077	1.8917	2.6898	9.4368	-0.1806	0.366	-0.0479	0.1651	-0.4323	-1.8133	10.0704	-0.116	-0.7688	0.0572	0.3927	0.4971	-0.3829	-0.4155	-0.6254
-1.3231	2.5639	9.4906	-0.438	0.2759	-0.1169	0.1801	-0.2761	-1.3682	1.8997	2.9155	9.8335	-0.3348	0.3941	0.0448	0.1785	-0.4005	-1.83	9.835	0.5819	-0.6504	0.0235	0.6464	-0.3903	-0.369	-0.4153	-0.6253
-1.6635	2.7946	9.6554	-0.4065	0.3676	-0.0542	0.224	-0.2977	-1.3905	1.5985	2.9718	9.2045	-0.1207	0.2427	0.1667	0.166	-0.3536	-1.847	10.012	0.1167	-0.709	-0.1294	0.7367	-0.2985	-0.3835	-0.4462	-0.6548
-1.8417	2.4487	9.3095	-0.4692	0.2775	-0.2702	0.1793	-0.2139	-1.41	2.1764	3.0835	9.3299	-0.276	0.1503	-0.0809	0.1643	-0.4049	-1.7723	9.7807	-0.056	-0.4745	-0.0698	0.7719	-0.7267	-0.3967	-0.4165	-0.61
-1.2725	2.4475	9.1501	-0.7144	0.1824	-0.1177	0.2091	-0.2698	-1.397	1.8921	2.4645	9.4366	-0.4276	0.3636	-0.1714	0.1909	-0.4026	-1.8015	9.8941	0.0589	-0.7115	-0.1322	0.8972	-1.0327	-0.4526	-0.4148	-0.6568
-1.2028	2.2778	9.7758	-0.6832	0.2123	-0.0253	0.1809	-0.269	-1.3963	1.8364	2.7463	9.5489	-0.274	0.3037	-0.0794	0.1651	-0.417	-1.8143	9.4855	0.0027	-0.4798	-0.1617	0.5531	-0.2975	-0.3967	-0.3987	-0.6418
-1.3793	2.5642	9.5463	-0.4691	0.1518	-0.0269	0.195	-0.2867	-1.3792	1.716	2.9717	9.3202	-0.3652	0.4247	-0.0166	0.1654	-0.371	-1.8173	9.7217	-0.0559	-0.4756	-0.0028	0.8551	0.1284	-0.3968	-0.3978	-0.6574
-1.4958	2.334	9.4294	-0.3162	0.0911	-0.0283	0.1656	-0.21	-1.4237	2.1785	2.5766	9.3861	-0.366	0.3634	-0.0172	0.1914	-0.4158	-1.8292	9.4873	0.1774	-0.3592	0.1203	0.7628	0.2201	-0.4107	-0.398	-0.6574
-1.3821	1.8167	9.3726	-0.3465	0.0585	0.1246	0.182	-0.2757	-1.421	2.0079	2.746	9.4959	-0.2418	0.4257	0.076	0.1788	-0.3841	-1.8453	9.6617	0.3508	-0.475	0.2776	0.9438	0.5242	-0.4115	-0.4628	-0.6541
-1.3864	1.7009	9.1447	-0.4084	-0.0026	0.0625	0.1957	-0.2278	-1.4598	2.4001	2.6885	8.9946	-0.0575	0.3365	0.0136	0.1785	-0.4005	-1.83	9.6604	0.4667	-0.5344	0.2456	0.7595	0.5864	-0.3556	-0.4466	-0.6391
-1.6072	2.5646	9.5987	-0.5925	-0.0342	0.0625	0.195	-0.2694	-1.3967	1.8902	2.8588	9.3803	-0.3665	0.3323	0.0441	0.1649	-0.4028	-1.801	9.6529	-0.1161	-1.0162	0.1515	0.7932	0.2504	-0.4103	-0.3835	-0.6272
-1.0941	2.5637	9.495	-0.4378	0.2442	-0.0254	0.1813	-0.2828	-1.3929	1.888	2.746	9.267	-0.1513	0.2437	-0.0491	0.1909	-0.4475	-1.8129	10.0726	-0.1155	-0.649	0.1799	0.6738	-0.0242	-0.4107	-0.4159	-0.6256
-1.5495	2.0476	9.5976	-0.3764	0.2441	0.0051	0.1672	-0.2824	-1.3925	1.8923	3.0278	9.4937	-0.09	0.213	0.074	0.1527	-0.3701	-1.8314	9.4275	0.0612	-0.4207	-0.2824	0.734	-0.084	-0.3974	-0.4464	-0.6549
-1.0925	1.9321	9.5492	-0.2545	0.2153	-0.1184	0.1801	-0.2588	-1.3856	2.176	2.6328	9.2729	0.1881	0.2169	0.0126	0.1785	-0.3403	-1.8196	9.4313	-0.1704	-0.242	-0.5584	0.7922	0.1001	-0.4249	-0.4128	-0.6877
-1.497	2.3338	9.3725	-0.223	0.4009	-0.2075	0.195	-0.2521	-1.4141	1.8327	2.8025	9.3791	-0.5823	0.3607	-0.0174	0.217	-0.3718	-1.8041	9.6653	0.2354	-0.2958	-0.4631	1.0666	0.2207	-0.3826	-0.4001	-0.6107
-0.9265	2.1605	9.2692	-0.3461	0.2453	-0.087	0.1671	-0.2478	-1.4275	2.1217	2.802	9.4418	-0.1185	0.397	0.0141	0.1784	-0.4159	-1.829	9.6623	0.1185	-0.476	-0.7082	1.0317	0.558	-0.3963	-0.3841	-0.6116
-1.2072	2.1045	9.5477	-0.4997	0.1517	-0.0268	0.208	-0.2631	-1.3723	2.4587	2.8011	9.0525	-0.4876	0.5156	-0.0775	0.1646	-0.4038	-1.7866	9.8993	0.1762	-0.4114	-0.9815	1.3331	0.8937	-0.4114	-0.4645	-0.623
-1.5496	2.105	9.5979	-0.5297	0.1494	0.1573	0.1946	-0.2556	-1.4001	1.7152	2.8027	9.2634	-0.0847	0.6131	-0.1378	0.1649	-0.4028	-1.801	9.665	0.3515	-0.2953	-1.046	1.0901	0.7117	-0.3693	-0.4306	-0.64
-1.0986	2.6202	9.2678	-0.5317	-0.0636	-0.0302	0.1664	-0.2549	-1.3994	2.2933	2.7453	9.3887	-0.0863	0.49	-0.0774	0.1651	-0.417	-1.8143	9.6622	0.1765	-0.4758	-0.5516	0.9345	1.1386	-0.3693	-0.4306	-0.64
-1.6684	1.8744	9.3673	-0.5608	0.1821	-0.0261	0.2229	-0.2391	-1.4183	1.8901	3.5348	9.4375	0.0365	0.4304	-0.1087	0.1911	-0.4169	-1.8149	9.7844	0.2353	-0.2337	0.0646	0.8755	1.1366	-0.3835	-0.4462	-0.6548
-1.3781	2.507	9.6029	-0.4078	0.1521	-0.027	0.1954	-0.2832	-1.3932	2.1241	2.8585	9.5551	-0.1814	0.3335	0.2292	0.1651	-0.417	-1.8143	9.8977	-0.0565	-0.5322	0.4279	0.8895	-0.0873	-0.369	-0.3966	-0.6728
-1.6079	2.0474	9.5397	-0.3769	0.308	-0.2086	0.1958	-0.2796	-1.4073	2.4138	2.4637	9.6174	-0.3671	0.272	-0.1106	0.1909	-0.3873	-1.8025	9.6595	0.3503	-0.5948	0.4268	0.8295	-0.2093	-0.3833	-0.43	-0.6556
-1.2658	2.449	9.4912	-0.3449	0.3357	0.0678	0.1526	-0.2683	-1.3956	2.1222	2.5767	9.4416	-0.3065	0.1808	-0.1115	0.1524	-0.3711	-1.8171	9.7159	0.059	-0.7747	0.2465	1.1304	0.2178	-0.4111	-0.4296	-0.6713
-1.4416	1.8737	9.258	-0.4688	0.3076	-0.2083	0.1534	-0.2612	-1.4238	1.7186	2.9155	9.4334	-0.15	0.3651	0.1371	0.1642	-0.4202	-1.7713	9.9033	0.3515	-0.1711	-0.2153	1.0032	0.5258	-0.3691	-0.4136	-0.6564
-1.6091	2.162	9.4833	-0.2549	0.1224	-0.0586	0.208	-0.2631	-1.3723	1.8432	3.0283	9.889	-0.305	0.3317	0.26	0.1783	-0.3863	-1.8166	9.656	0.0008	-0.8359	-1.3527	1.0858	1.0185	-0.424	-0.3675	-0.6281
-1.4925	2.3347	9.6	-0.3154	0.2451	-0.0564	0.1816	-0.2793	-1.407	1.8973	2.9154	9.7202	-0.3357	0.3323	0.1058	0.1785	-0.3852	-1.831	9.6661	0.3518	-0.2354	-1.3863	0.9977	0.6523	-0.4106	-0.3989	-0.6419
-1.7236	2.1621	9.4811	-0.2844	0.2756	-0.0254	0.1664	-0.2376	-1.4169	2.0706	2.6334	9.7236	-0.3342	0.4257	-0.1091	0.1651	-0.417	-1.8143	10.1303	0.0002	-0.7073	-0.8346	0.7887	0.3456	-0.3696	-0.446	-0.6547
-1.3756	2.0479	9.7147	-0.6526	0.2438	-0.0862	0.153	-0.2648	-1.4097	1.5514	2.578	9.656	-0.1793	0.4876	0.1075	0.2047	-0.3993	-1.8449	10.1347	0.4661	-0.4058	-0.2183	0.6985	0.405	-0.3975	-0.4634	-0.6385
-1.6122	1.7592	9.311	-0.5299	0.2441	-0.0558	0.1526	-0.251	-1.4131	1.8958	2.4646	9.6066	-0.2116	0.3654	-0.0171	0.1791	-0.3984	-1.8587	9.5411	0.0599	-0.6582	0.1184	0.549	0.1905	-0.383	-0.4333	-0.5935
-1.6089	1.9322	9.4823	-0.6516	0.4286	-0.1138	0.1389	-0.2644	-1.4093	1.8327	2.8025	9.3791	-0.1509	0.2742	-0.0179	0.1912	-0.4015	-1.8159	9.905	0.1194	-0.1122	-0.0043	0.7028	0.068	-0.3693	-0.4306	-0.64
-1.3777	1.9326	9.6005	-0.2849	0.2145	-0.057	0.1946	-0.2729	-1.3826	1.9524	2.9715	9.6082	-0.3665	0.3325	0.0133	0.1909	-0.3873	-1.8025	10.0089	-0.0002	-0.8892	-0.4053	0.7638	-0.0531	-0.3696	-0.4647	-0.6073
-1.2038	2.1052	9.7183	-0.4975	0.5208	-0.0514	0.195	-0.2521	-1.4141	2.1247	3.1402	9.612	-0.3058	0.2417	-0.0492	0.2179	-0.3533	-1.8481	9.6598	0.2341	-0.5953	-0.8402	0.6131	-0.4176	-0.3975	-0.4448	-0.6859
-1.2623	2.2774	9.661	-0.3454	0.3996	-0.1459	0.1805	-0.238	-1.4172	1.8949	2.9153	9.6069	-0.3673	0.271	0.0435	0.191	-0.372	-1.8035	9.481	0.5247	-0.6573	-0.5977	0.5597	-1.0906	-0.3555	-0.4475	-0.6236
-1.6688	2.4488	9.3697	-0.2235	0.3084	-0.1784	0.1668	-0.2687	-1.396	1.8883	3.1967	9.324	-0.2114	0.366	-0.1096	0.1777	-0.3884	-1.7879	9.8972	0.1177	-0.5315	-0.5957	0.5559	-0.7238	-0.3556	-0.4466	-0.6391
-1.3915	2.5615	8.9209	-0.621	0.3351	0.0072	0.166	-0.2411	-1.4028	1.901	2.8592	9.8901	-0.3966	0.3935	0.0139	0.1783	-0.3863	-1.8166	9.9081	0.1782	0.0678	-0.5296	0.734	-0.1748	-0.3689	-0.4161	-0.6098
-1.2645	2.2194	9.5471	-0.5619	0.2167	-0.3629	0.166	-0.2584	-1.3853	2.2298	2.6889	9.1042	-0.1189	0.3665	-0.017	0.2162	-0.4046	-1.7734	9.4803	0.3502	-0.7179	-0.6843	0.4241	0.1635	-0.3696	-0.4638	-0.6228
-1.6686	2.219	9.3687	-0.8064	0.1509	-0.0872	0.2099	-0.2454	-1.4426	2.1171	2.6892	9.2151	-0.1181	0.4281	-0.0472	0.1524	-0.3711	-1.8171	9.6674	-0.1709	-0.2376	-0.5927	0.6745	-0.3576	-0.3698	-0.4622	-0.6539
-1.2634	2.2197	9.6039	-0.6538	-0.0031	0.0018	0.1946	-0.2556	-1.4001	1.7782	3.0844	9.548	-0.3049	0.3035	-0.1103	0.1782	-0.4016	-1.8156	9.7243	-0.2296	-0.3566	-0.3443	0.8583	-0.2983	-0.4113	-0.4466	-0.6549
-1.3353	2.3889	8.8644	-0.5602	0.2429	0.0362	0.1656	-0.2619	-1.3712	1.9567	2.5773	9.7778	-0.2095	0.5191	-0.0772	0.192	-0.3534	-1.8476	9.721	0.2345	-0.4744	-0.0032	0.887	0.006	-0.3968	-0.397	-0.6729
-1.1475	1.8752	9.6616	-0.3458	0.1192	0.1869	0.1958	-0.2969	-1.3898	1.7755	2.6336	9.3777	-0.3648	0.4556	-0.0471	0.1391	-0.3723	-1.8024	9.8912	-0.1161	-0.8919	0.3957	0.9852	-0.485	-0.3554	-0.4304	-0.64
-1.0378	2.3337	9.4383	-0.4377	0.1813	0.0962	0.208	-0.2458	-1.3898	1.6611	2.8592	9.4321	-0.3674	0.2706	0.1052	0.2042	-0.3861	-1.8172	9.7194	0.0017	-0.5952	0.1186	0.8902	-0.2696	-0.4108	-0.4151	-0.6411
-1.6656	2.6793	9.5412	-0.2846	0.3074	-0.1169	0.1798	-0.2623	-1.3716	1.8838	3.0275	9.0973	-0.3971	0.362	0.1369	0.1915	-0.3851	-1.8312	9.3078	0.2935	-0.4819	-0.4652	1.1638	-0.2993	-0.397	-0.414	-0.6565
-1.6651	1.9325	9.5381	-0.5294	0.4305	-0.2368	0.1809	-0.2517	-1.4138	1.7193	2.5211	9.4331	-0.4272	0.4234	0.0758	0.191	-0.372	-1.8035	9.4798	0.5825	-0.717	-0.065	1.1974	-0.4537	-0.3558	-0.4628	-0.6383
-1.4373	2.1044	9.4864	-0.3756	0.3981	-0.0231	0.2072	-0.2009	-1.4141	1.8907	2.5771	9.3801	-0.488	0.4847	-0.047	0.2043	-0.4157	-1.8295	9.8364	-0.0569	-0.6532	-0.2819	1.0745	-0.4829	-0.3833	-0.4479	-0.6237
-1.5549	1.7591	9.3122	-0.6521	0.2735	0.0063	0.1809	-0.2517	-1.4138	1.8897	3.0841	9.3805	-0.4563	0.5468	-0.108	0.1914	-0.4158	-1.8292	9.6698	-0.2866	-0.1183	-0.6219	0.8885	-0.3586	-0.3829	-0.4155	-0.6254
-1.2044	1.4157	9.6585	-0.4377	0.3688	-0.1768	0.1935	-0.2489	-1.3753	1.8928	2.7462	9.4935	0.0686	0.5228	-0.1078	0.1653	-0.3864	-1.8163	9.6057	0.0029	-0.3578	-0.3736	0.8863	-0.0538	-0.3822	-0.3491	-0.6598
-1.5475	2.3353	9.7125	-0.4687	0.2447	-0.0867	0.2225	-0.2599	-1.3867	2.3654	2.7458	10.0696	-0.2404	0.5189	-0.1081	0.1657	-0.4149	-1.843	9.7222	-0.2882	-0.4766	-0.8346	1.006	0.039	-0.3695	-0.4468	-0.6392
-1.6092	2.2769	9.4838	-0.4083	0.1224	-0.1195	0.1805	-0.238	-1.4172	1.8256	2.7459	9.0392	-0.118	0.4285	-0.1089	0.1656	-0.37	-1.8317	9.6016	0.3507	-0.536	-0.5884	0.9457	0.0384	-0.4107	-0.398	-0.6574
-2.0089	2.3349	9.5331	-0.2239	0.0905	0.0634	0.2091	-0.2525	-1.4145	2.1266	2.8022	9.6683	-0.2374	0.7636	-0.0131	0.1783	-0.3863	-1.8166	9.5419	0.1763	-0.5978	-0.3459	0.8302	-0.5427	-0.3833	-0.43	-0.6556
-1.3301	2.9071	9.1509	-0.2842	0.3688	-0.1159	0.1794	-0.2658	-1.3575	2.2885	2.7452	9.1621	-0.3931	0.6695	0.0166	0.1783	-0.3863	-1.8166	9.4249	0.2349	-0.5398	0.0555	1.1723	-0.9431	-0.3834	-0.447	-0.6393
-1.6091	2.1046	9.4831	-0.5926	0.0287	-0.0592	0.1946	-0.2383	-1.4176	2.2946	2.7454	9.4453	-0.4568	0.5154	0.015	0.2162	-0.4046	-1.7734	10.0208	0.5835	-0.1679	-0.1316	0.9272	-0.9718	-0.3686	-0.3829	-0.627
-1.3803	2.5065	9.4892	-0.6527	0.2442	-0.1168	0.1812	-0.2482	-1.4279	1.3131	2.9724	9.3117	-0.3336	0.4863	0.0148	0.1785	-0.4005	-1.83	9.5476	0.1195	-0.2985	-0.3795	0.7112	-0.8782	-0.3549	-0.3989	-0.6261
-1.6664	2.162	9.4822	-0.683	0.243	-0.0248	0.1668	-0.2687	-1.396	1.9463	2.9713	9.325	-0.2117	0.3644	0.137	0.1783	-0.3863	-1.8166	9.8944	0.4076	-0.6501	0.2104	0.7367	-0.1775	-0.4243	-0.4015	-0.5954
-1.2142	2.62	9.2088	-0.3462	0.2767	-0.1478	0.211	-0.2867	-1.4324	2.0063	2.9712	9.4395	-0.5195	0.4524	0.1377	0.1773	-0.4048	-1.7726	9.6029	0.2928	-0.4764	0.1789	0.6757	-0.2076	-0.3835	-0.4649	-0.6074
-1.7261	2.4488	9.3686	-0.4066	0.3679	-0.0849	0.1958	-0.2796	-1.4073	1.7283	3.5355	9.9437	0.0023	0.1837	0.0429	0.1909	-0.4026	-1.8015	9.54	0.0597	-0.7181	-0.0069	0.863	-0.6357	-0.3692	-0.4315	-0.6245
-1.6173	2.7347	9.0877	-0.6525	0.2435	-0.0555	0.2103	-0.2938	-1.4043	2.4107	3.4776	9.5616	-0.0912	0.121	0.0731	0.1651	-0.4323	-1.8133	9.781	-0.1722	-0.475	0.0564	1.0152	-0.545	-0.3832	-0.4308	-0.6401
-1.2075	2.5066	9.5494	-0.1921	0.3689	-0.0855	0.1797	-0.2277	-1.4066	2.0093	2.6897	9.5525	-0.2153	0.0884	0.1343	0.1772	-0.4202	-1.7716	10.0136	0.3495	-0.5882	0.2442	1.1348	-0.2101	-0.425	-0.412	-0.7033
-1.3229	2.2767	9.4893	-0.2232	0.2762	-0.0562	0.1954	-0.2659	-1.4107	2.3019	2.6893	9.7851	-0.1512	0.2443	-0.1416	0.1912	-0.3862	-1.8169	9.5452	0.1771	-0.418	0.0921	1.0683	0.2493	-0.383	-0.4146	-0.6409
-1.5045	1.9874	8.9731	-0.2842	0.3688	-0.1159	0.1813	-0.2655	-1.4104	2.2954	2.9144	9.5021	0.0631	0.1224	0.1657	0.1782	-0.4016	-1.8156	9.8377	0.3501	-0.5316	-0.1265	1.0417	-0.2083	-0.3689	-0.3974	-0.6572
-1.2624	2.3348	9.6613	-0.222	0.4917	-0.0834	0.2076	-0.2493	-1.3757	1.9512	2.2954	9.4943	-0.1204	0.2441	-0.049	0.1787	-0.4148	-1.8433	9.2496	-0.0548	-0.4844	-0.4653	0.9777	-0.0539	-0.3555	-0.4475	-0.6236
-1.4386	2.3914	9.4307	-0.1918	0.3054	0.0975	0.1797	-0.2277	-1.4066	1.7759	3.028	9.4347	-0.2783	-0.0046	0.1641	0.1912	-0.3862	-1.8169	9.8368	-0.2311	-0.6539	-0.4317	1.0967	0.2816	-0.3829	-0.4155	-0.6254
-1.6126	2.391	9.3137	-0.1004	0.3075	-0.056	0.1809	-0.269	-1.3963	1.8938	2.8589	9.5502	-0.4318	0.0554	0.0721	0.1651	-0.3568	-1.804	10.49	-0.0574	-0.4014	-0.6449	1.3394	0.4034	-0.411	-0.4499	-0.5928
-1.4935	2.2196	9.5426	-0.0704	0.2469	-0.1185	0.179	-0.2175	-1.3959	2.1855	2.7458	9.7261	-0.2775	0.0567	0.1648	0.1521	-0.3722	-1.8027	10.0714	0.4072	-0.6468	-0.3743	0.7945	-0.0534	-0.3965	-0.3825	-0.6427
-1.6093	2.4492	9.4845	-0.6222	0.3072	-0.2386	0.166	-0.2757	-1.3678	2.1216	2.8584	9.4418	-0.0622	-0.0313	-0.0209	0.205	-0.3982	-1.8592	9.4914	-0.1703	-0.181	-0.0342	0.8872	-0.0245	-0.3552	-0.4134	-0.6563
-1.1533	2.1037	9.3783	-0.4061	0.3976	0.0076	0.1385	-0.2852	-1.3778	2.1797	3.2526	9.5	-0.1527	0.1216	-0.1428	0.1393	-0.3865	-1.8158	9.7215	0.5251	-0.4133	0.3662	0.9205	-0.1483	-0.3972	-0.4481	-0.6238
-1.2027	2.1055	9.7751	-0.2844	0.2131	0.0656	0.1943	-0.2592	-1.386	2.0687	2.9713	9.6672	-0.1524	0.1808	0.1969	0.1656	-0.3853	-1.8307	9.7785	0.4083	-0.5325	0.3334	0.7999	-0.331	-0.3828	-0.4163	-0.6099
-1.4418	2.1035	9.259	-0.4371	0.3046	0.0675	0.195	-0.2348	-1.4316	1.8901	2.9151	9.3804	-0.3979	0.3005	0.1671	0.1779	-0.4027	-1.8013	9.5397	0.1758	-0.7176	0.3662	0.7032	0.1583	-0.3691	-0.4136	-0.6564
-1.2049	2.105	9.6614	-0.0995	0.3362	0.1284	0.195	-0.2348	-1.4316	2.408	2.9704	9.3913	-0.2123	0.304	-0.0177	0.1654	-0.371	-1.8173	9.7188	0.234	-0.5942	0.4927	0.9149	0.4319	-0.3972	-0.4302	-0.6557
-1.039	2.3909	9.3817	-0.1005	0.3704	-0.1777	0.1939	-0.2454	-1.3894	1.5549	2.6345	9.826	-0.5831	0.2991	0.0128	0.1662	-0.3832	-1.8594	9.8421	0.3511	-0.292	0.2784	1.2216	0.2784	-0.4103	-0.3835	-0.6272
-1.267	2.5636	9.4348	-0.2231	0.3384	-0.1165	0.195	-0.2521	-1.4141	2.12	3.0836	9.3854	-0.3349	0.3939	0.0756	0.2041	-0.4168	-1.8152	9.7306	-0.112	0.0034	0.2777	1.0677	0.3708	-0.397	-0.4132	-0.6721
-1.1556	2.2181	9.265	-0.3147	0.3058	0.0059	0.1534	-0.2785	-1.4063	2.2911	2.6326	9.2753	-0.3056	0.271	0.1669	0.1912	-0.3862	-1.8169	9.8418	0.0024	-0.3534	0.3103	1.0956	0.6457	-0.3967	-0.3987	-0.6418
-1.5014	2.3328	9.1451	-0.3457	0.3067	-0.086	0.166	-0.2757	-1.3678	1.6652	3.2537	9.659	-0.0578	0.3064	-0.0792	0.1516	-0.4039	-1.7864	9.4786	0.1174	-0.8387	0.2761	1.0709	0.0652	-0.3829	-0.4155	-0.6254
-1.2151	2.2751	9.1505	-0.4987	0.3364	-0.0544	0.1805	-0.2553	-1.3997	2.2969	2.8018	9.5587	-0.1489	0.4279	-0.0781	0.1652	-0.4017	-1.8153	9.6019	0.2345	-0.5365	0.0848	0.7715	-0.6356	-0.3829	-0.4155	-0.6254
-1.4948	2.3917	9.4865	-0.3452	0.3679	-0.0544	0.1816	-0.262	-1.4245	1.8385	2.9154	9.6624	-0.4578	0.4242	-0.1092	0.1652	-0.4017	-1.8153	9.718	0.1176	-0.6546	-0.0659	1.0129	-0.3612	-0.3554	-0.4304	-0.64
-1.1027	2.1023	9.0383	-0.4385	0.1834	-0.0878	0.1813	-0.2655	-1.4104	2.0151	2.8026	9.8358	-0.366	0.3636	-0.0481	0.1785	-0.4005	-1.83	9.8402	0.2345	-0.4123	0.3359	0.6709	0.3114	-0.3689	-0.3974	-0.6572
-1.032	2.0477	9.7214	-0.254	0.2764	-0.0868	0.1946	-0.2556	-1.4001	1.9466	2.8023	9.3248	-0.2701	0.6105	-0.1072	0.1653	-0.3864	-1.8163	9.5422	-0.4047	-0.6601	-0.0641	0.6058	0.5577	-0.3696	-0.446	-0.6547
-1.496	2.5063	9.4301	-0.3456	0.2125	0.0965	0.1801	-0.2761	-1.3682	2.2923	3.3086	9.3892	-0.1806	0.366	-0.0479	0.2035	-0.4036	-1.7875	9.8359	0.1754	-0.6522	-0.7718	0.6316	0.774	-0.3831	-0.4317	-0.6246
-1.4366	2.6217	9.5454	-0.408	0.2153	-0.1793	0.2087	-0.256	-1.4004	2.0632	2.6894	9.3838	-0.2117	0.3644	0.137	0.178	-0.372	-1.8033	10.0168	0.4083	-0.4083	-1.0173	0.6285	0.9889	-0.4248	-0.4144	-0.6567
-1.4475	2.332	8.9757	-0.0999	0.3687	-0.0244	0.1668	-0.2687	-1.396	2.0636	3.0838	9.4408	0.0329	0.1539	-0.019	0.1915	-0.3851	-1.8312	9.6073	0.7587	-0.1748	-0.9926	0.2987	0.3485	-0.3833	-0.4487	-0.6082
-1.4892	2.4503	9.771	-0.161	0.3991	-0.0237	0.2084	-0.2595	-1.3863	2.3409	2.9138	8.9369	-0.1822	0.2431	-0.0183	0.165	-0.3874	-1.802	9.7822	0.2348	-0.3535	-0.3119	0.2034	0.9272	-0.3835	-0.4641	-0.6229
-1.3252	2.3911	9.3761	-0.3451	0.4614	-0.1755	0.1809	-0.2344	-1.4313	1.7831	3.0846	9.7746	-0.4911	0.2682	0.2283	0.1655	-0.4006	-1.8297	10.1351	-0.173	-0.4684	-0.2517	0.1444	0.7439	-0.4111	-0.4304	-0.6558
-1.5003	2.333	9.202	-0.4055	0.6462	-0.2337	0.2099	-0.28	-1.4077	2.0026	3.0274	9.2696	-0.3055	0.2718	0.0436	0.165	-0.3874	-1.802	9.786	0.0614	-0.1745	-0.1598	0.3941	0.284	-0.4109	-0.4134	-0.6721
-1.6662	1.9323	9.4812	-0.2833	0.5854	-0.235	0.208	-0.2631	-1.3723	2.0598	2.5766	9.2138	-0.3072	0.1483	0.1656	0.2301	-0.4013	-1.8167	9.8992	0.2343	-0.4112	0.1491	0.4873	0.2518	-0.397	-0.414	-0.6565
-1.2161	2.1026	9.0929	-0.56	0.399	-0.1759	0.195	-0.2694	-1.3967	1.8366	2.69	9.5489	-0.215	0.0896	-0.0507	0.1647	-0.3885	-1.7876	9.6554	0.2331	-0.8349	0.1778	0.4294	-0.0536	-0.3835	-0.4641	-0.6229
-1.6134	1.9313	9.2549	-0.4371	0.336	0.0067	0.1946	-0.2556	-1.4001	1.892	3.1405	9.4938	-0.1837	0.121	-0.112	0.1915	-0.3851	-1.8312	9.8428	0.5256	-0.2313	-0.2515	0.5477	0.1919	-0.4251	-0.4663	-0.5921
-1.2061	2.1622	9.6048	-0.3466	0.1213	0.003	0.2244	-0.2769	-1.4221	2.3587	3.0835	9.7867	0.066	0.3376	0.0753	0.1784	-0.4159	-1.829	10.1324	0.5237	-0.5254	-0.2206	0.6096	0.1303	-0.3836	-0.4632	-0.6384
-1.4936	2.277	9.5429	-0.6523	0.2428	0.0058	0.166	-0.2584	-1.3853	2.2957	2.8018	9.502	-0.0255	0.3998	-0.2324	0.1785	-0.4005	-1.83	9.6617	-0.1141	-0.5369	-0.5578	0.791	0.2224	-0.3968	-0.4157	-0.6255
-1.6688	2.5062	9.3699	-0.4073	0.2132	0.0046	0.2095	-0.249	-1.4286	2.1828	2.8584	9.6129	-0.2734	0.3642	0.0445	0.1912	-0.4015	-1.8159	9.7182	0.5244	-0.593	-0.0686	0.4591	-0.0529	-0.369	-0.4153	-0.6253
-1.2687	1.8738	9.3182	-0.4709	-0.0933	-0.0922	0.2083	-0.2249	-1.4213	2.3575	3.0835	9.73	-0.21	0.4878	0.015	0.1651	-0.3721	-1.803	9.6682	0.4103	-0.1153	0.1448	0.4334	-0.4508	-0.4522	-0.4003	-0.6266
-1.4253	2.3943	10.113	-0.5602	0.3054	-0.0548	0.1229	-0.2297	-1.3911	2.1311	2.9714	9.895	-0.3356	0.3325	0.075	0.2044	-0.3555	-1.8192	9.8971	-0.2891	-0.5931	0.2403	0.5523	-0.085	-0.3837	-0.4624	-0.654
-1.206	1.9899	9.6041	-0.4081	0.0903	0.0026	0.1672	-0.2824	-1.3925	1.8902	2.8588	9.3803	-0.2739	0.3043	-0.1719	0.1914	-0.4158	-1.8292	9.8461	0.0615	-0.1135	0.5837	0.856	0.2485	-0.3973	-0.4472	-0.6393
-1.4397	2.3912	9.3739	-0.3466	0.2152	-0.1488	0.2374	-0.2532	-1.4152	1.8931	3.1969	9.5505	-0.4913	0.2384	0.1047	0.178	-0.3874	-1.8023	9.7803	0.1182	-0.4738	0.8361	1.0943	0.9494	-0.3826	-0.3823	-0.6426
-1.2084	2.2192	9.4913	-0.3454	0.3996	-0.1459	0.1801	-0.2761	-1.3682	2.0656	2.6895	9.4971	-0.2132	0.2421	0.0742	0.1914	-0.4005	-1.8302	9.7769	0.1755	-0.6533	1.0797	0.9457	0.613	-0.3694	-0.4298	-0.6556
-1.2096	2.4487	9.4354	-0.3159	0.1214	0.0029	0.2095	-0.2663	-1.4111	2.0665	2.8586	9.5539	-0.1818	0.2738	-0.018	0.1783	-0.3863	-1.8166	9.5994	0.3502	-0.6558	0.676	0.8566	0.2176	-0.3694	-0.4477	-0.6237
-1.2668	2.3338	9.4338	-0.1608	0.3359	0.1286	0.1943	-0.2765	-1.3685	2.1188	3.0836	9.3287	-0.057	0.3677	-0.0786	0.2045	-0.3851	-1.8315	9.8374	0.0014	-0.593	0.2448	0.8232	0.3416	-0.3689	-0.3983	-0.6417
-1.5573	1.931	9.1992	-0.4384	0.2145	-0.1179	0.2233	-0.2875	-1.3799	1.9513	2.9151	9.5515	-0.5504	0.4234	-0.1709	0.1778	-0.418	-1.8003	9.5381	-0.057	-0.8384	-0.3128	0.5777	0.2225	-0.4247	-0.4153	-0.6412
-1.725	2.5065	9.4257	-0.5294	0.2427	0.0668	0.2366	-0.243	-1.4045	1.6509	3.1405	8.9793	-0.2104	0.4572	0.0147	0.1914	-0.3556	-1.8189	9.7898	-0.1702	0.0042	-0.8974	0.6043	0.4079	-0.3974	-0.4643	-0.623
-1.3228	2.1618	9.4889	-0.3783	-0.0947	0.0609	0.1526	-0.251	-1.4131	2.0042	3.4218	9.3832	0.0347	0.3068	0.0442	0.1647	-0.3885	-1.7876	9.3598	0.0013	-0.9013	-1.0832	0.6674	0.1637	-0.3828	-0.4163	-0.6099
-0.9745	1.6455	9.7208	-0.4976	0.5211	-0.0821	0.2381	-0.2635	-1.4259	2.1211	3.14	9.442	-0.2411	0.4578	-0.1395	0.1525	-0.4007	-1.8294	9.4224	-0.1143	-0.721	-0.5287	0.6391	0.1313	-0.3968	-0.4157	-0.6255
-1.7807	1.9898	9.4792	-0.3154	0.339	-0.2083	0.1805	-0.2726	-1.3822	2.3543	2.858	9.5599	-0.4607	0.2087	0.012	0.1382	-0.3755	-1.7594	9.5983	0.8148	-0.6539	-0.2812	0.6696	0.222	-0.355	-0.398	-0.6416
-1.497	2.4486	9.373	-0.1315	0.2774	-0.1178	0.1805	-0.2553	-1.3997	2.1753	3.0271	9.2732	-0.368	0.2099	0.0121	0.165	-0.4477	-1.8123	9.7208	0.3506	-0.4739	0.0282	0.7928	0.2508	-0.3833	-0.43	-0.6556
-1.4442	2.3902	9.1465	-0.2858	0.1858	-0.2415	0.1816	-0.2793	-1.407	2.111	2.7453	8.932	-0.2106	0.4275	-0.1398	0.1784	-0.4159	-1.829	9.6052	0.2352	-0.3568	0.5543	0.853	0.5237	-0.3834	-0.4657	-0.5918
-0.866	2.3335	9.4416	-0.2846	0.3074	-0.1169	0.153	-0.2648	-1.4097	1.8301	2.9151	9.2659	-0.4257	0.5168	-0.1391	0.1647	-0.3885	-1.7876	9.6634	0.1187	-0.4161	0.5542	0.7291	0.6771	-0.3829	-0.4155	-0.6254
-1.0948	1.9316	9.4355	-0.4089	-0.0012	-0.0602	0.1526	-0.2683	-1.3956	1.8912	2.9715	9.4371	-0.4556	0.6076	-0.0149	0.1656	-0.37	-1.8317	9.6587	0.6987	-0.5933	0.4313	0.821	0.616	-0.3689	-0.3983	-0.6417
-1.0364	1.9318	9.4935	-0.4698	-0.0025	0.032	0.1939	-0.2627	-1.3719	1.8876	2.915	9.2671	-0.3303	0.7326	-0.1368	0.1655	-0.4006	-1.8297	9.7196	-0.1145	-0.5957	0.1829	0.7303	0.4339	-0.3967	-0.3987	-0.6418
-1.7786	2.1626	9.5937	-0.3781	-0.0639	0.0614	0.1801	-0.2415	-1.4031	2.126	3.0839	9.6686	-0.3605	0.7933	-0.1054	0.1911	-0.4169	-1.8149	9.6551	0.3493	-0.8345	-0.1876	0.9162	0.0676	-0.3971	-0.4124	-0.6876
-1.4913	2.1626	9.6561	-0.5931	-0.095	0.0002	0.1794	-0.2658	-1.3575	1.8911	3.0278	9.4371	-0.3602	0.8232	0.0182	0.1654	-0.371	-1.8173	10.2491	0.1164	-0.6447	-0.4973	0.7934	0.0082	-0.3833	-0.4479	-0.6237
-1.3229	2.2192	9.4891	-0.6532	0.0891	0.0033	0.1683	-0.2718	-1.4348	2.3485	2.7451	9.2766	-0.6703	0.7273	0.017	0.2036	-0.3883	-1.7885	10.2578	0.1764	-0.1652	-0.7791	0.397	-0.2028	-0.4105	-0.3818	-0.6583
-1.5563	2.1036	9.2568	-0.6541	-0.0649	0.0315	0.1527	-0.2856	-1.3781	1.8911	3.0278	9.4371	-0.3321	0.6087	0.0469	0.1908	-0.4179	-1.8005	9.8995	0.583	-0.3498	-0.5331	0.3061	-0.2033	-0.3833	-0.4487	-0.6082
-1.5509	2.392	9.5422	-0.3783	0.0618	-0.1819	0.1797	-0.2277	-1.4066	2.0115	2.8024	9.6659	-0.3014	0.5795	-0.1075	0.1656	-0.3853	-1.8307	9.6634	-0.3461	-0.478	-0.1335	0.1546	-0.204	-0.3689	-0.3983	-0.6417
-1.6103	2.2192	9.4267	-0.561	0.1514	-0.0266	0.2095	-0.249	-1.4286	1.898	3.1971	9.7771	-0.3961	0.4243	-0.0167	0.1653	-0.3864	-1.8163	9.3682	0.1775	-0.4213	0.0837	0.1837	0.009	-0.439	-0.43	-0.6714
-1.3197	2.5072	9.6609	-0.5615	0.1528	-0.1492	0.1797	-0.245	-1.3891	1.6649	2.803	9.602	-0.0255	0.4284	0.0762	0.1917	-0.3545	-1.8332	9.3605	0.6406	-0.7788	-0.0025	0.5129	0.6801	-0.3692	-0.4315	-0.6245
-1.7762	1.8759	9.7062	-0.3453	0.2743	0.0668	0.2091	-0.2352	-1.432	2.1777	3.0272	9.3865	-0.3658	0.3933	0.1064	0.1912	-0.4015	-1.8159	9.4851	-0.2879	-0.5409	0.6154	0.513	0.8918	-0.3974	-0.4464	-0.6549
-1.1488	2.1622	9.6059	-0.2536	0.4318	-0.2376	0.1671	-0.2478	-1.4275	1.6662	2.7468	9.6586	-0.4557	0.6067	0.1084	0.1777	-0.3731	-1.7889	9.3041	0.0021	-0.7227	0.832	0.7916	0.6452	-0.3968	-0.4157	-0.6255
-1.6599	2.4507	9.8245	-0.2526	0.4291	0.0077	0.1664	-0.2376	-1.4169	2.1827	2.9147	9.613	-0.5191	0.4835	0.0763	0.178	-0.3874	-1.8023	9.9586	0.06	-0.4108	0.7417	0.9114	0.8589	-0.397	-0.414	-0.6565
-1.5542	2.3338	9.3714	-0.1319	0.1534	-0.0278	0.1671	-0.2478	-1.4275	2.1217	2.802	9.4418	-0.3325	0.5781	0.0466	0.2041	-0.3566	-1.8048	9.8347	0.2332	-0.7118	0.62	1.1251	0.8583	-0.3554	-0.4304	-0.64
-2.0079	2.45	9.5904	-0.5306	0.0583	0.0638	0.169	-0.2821	-1.4454	1.774	2.7463	9.3212	-0.4564	0.5462	-0.0155	0.1653	-0.3864	-1.8163	10.008	-0.5234	-1.0113	0.7102	1.1298	0.4301	-0.3833	-0.4479	-0.6237
-1.5497	2.2773	9.5986	-0.7766	-0.0658	0.0625	0.2084	-0.2595	-1.3863	1.5974	2.9154	9.1478	-0.0559	0.4595	-0.0469	0.1785	-0.3852	-1.831	9.9596	0.1183	-0.3507	0.583	0.7951	0.2182	-0.3971	-0.4124	-0.6876
-1.7228	2.5644	9.5396	-0.532	-0.1568	0.0603	0.182	-0.2584	-1.4385	2.3549	3.1961	9.6168	-0.4866	0.5777	-0.2002	0.1781	-0.4169	-1.8146	9.6597	0.2922	-0.5951	-0.038	0.708	-0.4515	-0.3826	-0.3814	-0.6581
-1.3802	2.3342	9.4885	-0.5929	0.0297	-0.1512	0.1809	-0.2863	-1.3788	1.8298	3.0841	9.266	-0.4877	0.5152	-0.0158	0.1915	-0.3851	-1.8312	10.0156	0.4661	-0.4679	-0.3203	0.3125	-0.7542	-0.3554	-0.4296	-0.6555
-1.5599	2.4475	9.0876	-0.3165	-0.0333	0.0924	0.1801	-0.2415	-1.4031	2.01	2.9151	9.6094	-0.4855	0.6981	0.1401	0.1922	-0.3677	-1.8609	9.6668	0.0614	-0.2366	-0.7217	0.3432	-0.9057	-0.4246	-0.3982	-0.6575
-1.3192	1.8179	9.658	-0.5917	0.0887	0.0645	0.1942	-0.2419	-1.4035	2.4105	2.9705	9.5046	-0.332	0.6091	-0.0148	0.1651	-0.3721	-1.803	9.7895	0.4108	0.0666	-0.8435	0.4951	-0.8449	-0.41	-0.3495	-0.66
-1.2098	2.621	9.4362	-0.2533	0.3058	0.0364	0.1645	-0.2379	-1.364	2.0018	2.8021	9.2128	-0.3661	0.3628	0.0752	0.1912	-0.3862	-1.8169	9.7792	0.1179	-0.5337	-0.4093	0.6471	-0.6027	-0.4252	-0.4468	-0.655
-1.7251	2.6788	9.4264	-0.3754	0.3663	0.0684	0.1813	-0.2655	-1.4104	2.3004	2.8583	9.7286	-0.3038	0.3953	-0.0785	0.178	-0.372	-1.8033	9.492	0.0623	-0.1201	0.0884	0.6095	0.2515	-0.3692	-0.4315	-0.6245
-1.3758	2.3351	9.7159	-0.1929	0.246	-0.0875	0.1809	-0.269	-1.3963	1.9501	2.2391	9.4377	-0.2096	0.5185	0.0153	0.1648	-0.3732	-1.7886	9.4262	0.119	-0.4804	0.7384	0.7934	0.4316	-0.3974	-0.4456	-0.6704
-1.4954	1.7596	9.427	-0.4687	0.3072	-0.1777	0.1961	-0.2761	-1.4214	1.8938	2.8589	9.5502	-0.3656	0.3941	-0.0169	0.1649	-0.4028	-1.801	9.7304	0.0042	0.0039	1.0532	1.2168	1.0091	-0.3972	-0.4302	-0.6557
-1.8358	1.9903	9.5918	-0.2854	0.2473	-0.2405	0.1816	-0.262	-1.4245	1.4882	2.9722	9.4286	-0.362	0.6709	-0.1375	0.1652	-0.4017	-1.8153	9.7745	0.2331	-0.7728	0.7137	1.1232	1.0719	-0.397	-0.4319	-0.6246
-1.5463	2.1632	9.7687	-0.3168	0.1553	-0.2726	0.2095	-0.2663	-1.4111	1.8923	3.0278	9.4937	-0.1774	0.6117	-0.1071	0.1261	-0.3877	-1.8012	9.9555	0.466	-0.5289	0.4668	1.0296	1.165	-0.4108	-0.4151	-0.6411
-1.6026	2.3358	9.8251	-0.1944	0.0937	-0.2126	0.1809	-0.269	-1.3963	2.527	2.8577	9.5635	-0.3339	0.4562	-0.0779	0.1782	-0.4016	-1.8156	9.484	0.1767	-0.539	0.0039	1.0598	1.0443	-0.411	-0.4312	-0.6402
-1.8394	2.3343	9.4227	-0.3157	0.2147	-0.0876	0.1816	-0.262	-1.4245	2.4654	3.083	9.3926	-0.1197	0.3052	-0.0176	0.1782	-0.3414	-1.8053	9.725	-0.0552	-0.2959	-0.3399	0.9431	0.3737	-0.3968	-0.3978	-0.6574
-1.5519	2.2194	9.4846	-0.4684	0.3376	-0.1465	0.2084	-0.2422	-1.4038	2.289	3.1395	9.2191	-0.273	0.3948	0.0448	0.1655	-0.4006	-1.8297	10.1374	0.2343	-0.287	-0.2481	0.9447	0.2511	-0.3833	-0.4479	-0.6237
-1.1544	2.1609	9.3216	-0.5607	0.3382	-0.2382	0.1672	-0.2997	-1.3751	2.2479	2.7459	9.9539	-0.2724	0.4554	0.1687	0.1785	-0.4005	-1.83	9.375	0.0628	-0.0624	-0.3751	0.5167	0.1925	-0.3832	-0.4308	-0.6401
-1.5531	2.334	9.4283	-0.1925	0.3075	-0.0865	0.1954	-0.2659	-1.4107	1.8926	2.8589	9.4936	-0.5501	0.4539	-0.1398	0.1659	-0.3842	-1.845	10.0755	0.0594	-0.4685	-0.5923	0.4254	0.0714	-0.3831	-0.4317	-0.6246
-1.0981	1.8735	9.2647	-0.0376	0.4287	0.1297	0.2087	-0.256	-1.4004	1.6043	3.0847	9.4878	-0.5512	0.3619	-0.1407	0.1911	-0.3566	-1.8045	9.7228	0.4092	-0.3538	-0.4991	0.5175	0.0707	-0.3554	-0.4304	-0.64
-1.2085	2.334	9.4918	-0.1311	0.1195	0.2477	0.1809	-0.2863	-1.3788	1.8896	2.5207	9.3234	-0.1803	0.396	0.0449	0.1912	-0.3862	-1.8169	9.7185	-0.1147	-0.6556	-0.3726	0.8535	0.1603	-0.4249	-0.4315	-0.6403
-1.2735	2.2749	9.0925	-0.3774	0.1219	-0.0583	0.1534	-0.2785	-1.4063	2.4144	2.8017	9.6744	-0.2109	0.4259	0.1068	0.1912	-0.3862	-1.8169	9.7787	-0.1146	-0.5946	-0.284	0.6438	-0.2364	-0.3835	-0.4462	-0.6548
-1.2669	2.5062	9.4346	-0.5297	0.1809	0.0965	0.237	-0.2741	-1.3836	1.8946	3.0843	9.6071	-0.3364	0.2714	0.0435	0.2032	-0.3598	-1.7618	9.8426	0.1188	-0.293	-0.0662	0.8893	-0.2383	-0.4111	-0.4483	-0.6239
-1.3251	2.2188	9.3754	-0.2235	0.2144	-0.0265	0.1954	-0.2313	-1.4457	2.0622	2.5767	9.3271	-0.1796	0.4572	0.0763	0.1914	-0.4158	-1.8292	9.9044	0.3517	-0.1112	-0.2792	0.821	0.374	-0.3969	-0.4149	-0.641
-1.0952	2.5635	9.4382	-0.4379	0.1816	0.0655	0.1671	-0.2478	-1.4275	1.7776	2.8027	9.4911	-0.5534	0.2075	0.0119	0.1902	-0.4201	-1.7718	9.7818	-0.0558	-0.4146	0.0268	0.7023	0.129	-0.3833	-0.43	-0.6556
-1.2712	2.2754	9.2062	-0.4996	0.1827	-0.0569	0.1946	-0.2383	-1.4176	2.0023	3.1401	9.2697	-0.4604	0.2388	0.1048	0.1651	-0.417	-1.8143	9.4858	0.3514	-0.4184	0.5161	0.5255	-0.3609	-0.3832	-0.4308	-0.6401
-1.2041	2.4499	9.7197	-0.3767	0.2762	-0.1171	0.1813	-0.2828	-1.3929	1.8916	2.7461	9.4369	-0.4913	0.2384	0.1047	0.1788	-0.3841	-1.8453	10.0153	0.1174	-0.5293	0.4853	0.37	-0.1156	-0.3828	-0.4163	-0.6099
-1.4472	1.9874	8.9742	-0.0701	0.2459	-0.0265	0.195	-0.2694	-1.3967	1.8814	3.0274	8.984	-0.4925	0.1464	0.1038	0.178	-0.372	-1.8033	9.7168	0.6403	-0.6524	0.2121	0.392	0.6188	-0.4114	-0.4458	-0.6705
-1.204	2.2776	9.719	-0.3757	0.3984	-0.0538	0.1683	-0.2891	-1.4173	2.1799	3.14	9.4999	-0.0597	0.1819	0.197	0.1524	-0.416	-1.8284	9.3046	0.2347	-0.6618	0.0606	0.6037	0.8017	-0.4248	-0.4323	-0.6248
-1.2024	1.7034	9.7734	-0.0098	0.1864	-0.181	0.1813	-0.2828	-1.3929	2.237	2.7455	9.4441	-0.1523	0.1814	0.1044	0.178	-0.372	-1.8033	9.6064	0.1774	-0.2971	0.1551	0.9418	0.6775	-0.4244	-0.382	-0.6584
-1.6135	2.0462	9.2554	-0.4375	0.3685	-0.1461	0.1664	-0.2549	-1.3994	1.8475	2.6341	10.0586	-0.1507	0.3038	0.1365	0.1656	-0.3853	-1.8307	9.7759	0.1172	-0.7134	-0.1818	1.0604	0.9227	-0.3966	-0.3995	-0.6263
-1.5509	2.4494	9.5425	-0.4068	0.3372	-0.0854	0.2084	-0.2768	-1.3689	2.114	2.4074	9.0449	-0.2118	0.3357	-0.1715	0.1779	-0.4027	-1.8013	9.7833	-0.2298	-0.3555	-0.7701	0.7836	0.865	-0.3689	-0.3974	-0.6572
-1.3228	2.1044	9.4886	-0.2233	0.3391	-0.1779	0.1947	-0.2902	-1.3651	2.2357	2.8018	9.3875	-0.2104	0.4285	-0.2939	0.1516	-0.4192	-1.7854	9.7282	0.0037	-0.116	-0.9592	0.6044	0.3775	-0.3966	-0.4182	-0.5789
-1.7235	2.0472	9.4806	-0.5009	-0.0013	-0.0906	0.1805	-0.238	-1.4172	1.9991	2.9146	9.0996	-0.5188	0.4849	-0.1395	0.1526	-0.3854	-1.8304	10.1293	-0.0581	-0.7675	-0.8371	0.5762	0.1938	-0.3689	-0.3974	-0.6572
-1.3857	2.1606	9.2035	-0.5306	0.2147	-0.179	0.2225	-0.2599	-1.3867	1.8363	2.8027	9.549	-0.2411	0.458	-0.1703	0.1918	-0.3841	-1.8456	10.0135	0.8724	-0.5261	-1.2722	0.3949	-0.1705	-0.4111	-0.4483	-0.6239
-1.8381	2.1622	9.4788	-0.5008	-0.0016	-0.0599	0.2087	-0.256	-1.4004	1.8973	2.9154	9.7202	-0.3324	0.5787	-0.0459	0.1527	-0.3701	-1.8314	9.5423	0.0021	-0.5985	-1.1835	0.154	-0.5058	-0.383	-0.4146	-0.6409
-1.4877	1.8762	9.8254	-0.4994	0.1821	0.0044	0.1946	-0.2556	-1.4001	1.8905	2.6898	9.3802	-0.672	0.5751	-0.1695	0.1777	-0.3884	-1.7879	9.8437	0.1191	-0.2331	-0.9937	0.3318	0.1039	-0.3689	-0.3974	-0.6572
-1.4389	2.7361	9.4322	-0.714	0.056	0.187	0.1946	-0.2556	-1.4001	1.3807	2.8037	9.7659	-0.0579	0.306	-0.0176	0.1781	-0.3567	-1.8043	9.8945	0.3495	-0.6503	-0.5914	0.3926	0.2855	-0.3965	-0.4003	-0.6108
-1.5004	2.5054	9.2027	-0.4071	0.2129	0.0353	0.1813	-0.2655	-1.4104	2.3582	2.7455	9.7297	-0.3037	0.3957	-0.1402	0.2041	-0.4168	-1.8152	9.8982	0.176	-0.4714	-0.7722	0.6943	0.6209	-0.3552	-0.4142	-0.6408
-1.3816	2.6786	9.4331	-0.162	0.3079	-0.1172	0.153	-0.2302	-1.4447	2.0658	3.1966	9.5542	-0.0888	0.3056	-0.0176	0.1771	-0.3753	-1.7602	9.7781	0.1177	-0.5936	-0.461	0.7522	1.0474	-0.3555	-0.4288	-0.671
-1.4926	2.5071	9.6007	-0.224	0.3097	-0.301	0.1946	-0.2729	-1.3826	1.889	3.4784	9.3808	0.0032	0.2457	-0.0489	0.1902	-0.4201	-1.7718	9.5456	0.4677	-0.3569	-0.4282	1.0279	1.0154	-0.3975	-0.4634	-0.6385
-1.3208	2.392	9.6035	-0.5599	0.4926	-0.2971	0.1946	-0.2556	-1.4001	1.7771	3.0281	9.4913	-0.1514	0.2431	0.0434	0.1649	-0.4028	-1.801	10.1954	0.2339	-0.3458	-0.2172	0.9757	0.2203	-0.383	-0.4146	-0.6409
-1.4309	2.4505	9.829	-0.3456	0.4314	-0.2373	0.1816	-0.262	-1.4245	1.8914	2.8588	9.437	-0.1832	0.1808	0.1352	0.1519	-0.4028	-1.8007	9.8955	0.4078	-0.5902	-0.0949	0.9472	0.0671	-0.3689	-0.3983	-0.6417
-1.2645	2.2194	9.5471	-0.3777	0.1851	-0.2106	0.1805	-0.2553	-1.3997	1.8872	3.1403	9.2673	-0.3351	0.364	-0.048	0.1912	-0.4015	-1.8159	10.0713	0.4652	-0.6465	-0.2815	0.7633	0.0381	-0.3831	-0.4317	-0.6246
-1.2069	1.7599	9.5463	-0.2834	0.3978	0.0379	0.182	-0.2757	-1.421	1.8996	2.9718	9.8335	-0.3337	0.4857	0.1073	0.178	-0.3874	-1.8023	9.658	0.0594	-0.7159	-0.4047	0.6695	0.1918	-0.3833	-0.4479	-0.6237
-1.7294	2.4481	9.198	-0.5304	0.1515	-0.0267	0.1939	-0.2281	-1.4069	1.8926	2.8589	9.4936	-0.3945	0.5472	-0.0463	0.1651	-0.417	-1.8143	10.0755	-0.4054	-0.5304	-0.2839	0.5195	-0.0524	-0.425	-0.4306	-0.6558
-1.5486	2.2201	9.6552	-0.5293	0.2423	0.0975	0.1515	-0.2443	-1.3884	2.1201	3.0273	9.3853	-0.5466	0.7296	-0.1062	0.1646	-0.4038	-1.7866	9.7806	0.002	-0.4743	-0.4068	0.7354	-0.2669	-0.3966	-0.3808	-0.6737
-0.9266	2.2754	9.2697	-0.685	-0.0329	-0.0906	0.1382	-0.2714	-1.3812	1.8386	2.8591	9.6623	-0.3609	0.7911	0.2336	0.2037	-0.373	-1.7895	9.7783	0.0596	-0.5939	-0.0673	0.8602	-0.391	-0.383	-0.4325	-0.609
-1.4934	1.9898	9.5417	-0.6835	0.0565	0.1562	0.2229	-0.2391	-1.4183	1.9451	2.9712	9.2684	-0.2682	0.7638	-0.1057	0.178	-0.372	-1.8033	9.8409	0.4089	-0.3516	-0.0356	0.6724	0.0377	-0.3549	-0.3989	-0.6261
-1.2666	2.0466	9.4326	-0.7455	-0.0042	0.0634	0.2084	-0.2422	-1.4038	2.1267	2.7459	9.6683	-0.1145	0.7045	-0.1061	0.2169	-0.3871	-1.8031	9.8404	0.1183	-0.4128	-0.3428	0.6382	0.2835	-0.3413	-0.414	-0.6407
-1.8875	2.1065	9.8755	-0.5307	0.0272	0.094	0.1671	-0.2651	-1.41	1.9519	2.5771	9.5512	-0.2664	0.9161	0.05	0.1775	-0.4191	-1.7859	9.8967	0.35	-0.5305	-0.3435	0.7016	0.0692	-0.4108	-0.4151	-0.6411
-1.6113	2.1615	9.3696	-0.4697	-0.0029	0.0626	0.1805	-0.2207	-1.4347	1.7783	3.0281	9.548	-0.3298	0.7923	0.1104	0.1908	-0.3577	-1.7902	9.9549	-0.2314	-0.6517	-0.1921	0.6141	-0.2977	-0.425	-0.4306	-0.6558
-1.4993	2.4482	9.2593	-0.4392	0.123	-0.1807	0.1671	-0.2651	-1.41	1.8935	3.0279	9.5504	-0.2066	0.7636	0.0485	0.1651	-0.3721	-1.803	9.9034	-0.1715	-0.2332	-0.0063	0.4581	0.0692	-0.4109	-0.4142	-0.6566
-1.206	2.0473	9.6043	-0.1609	0.3988	0.0069	0.2362	-0.2465	-1.3905	2.0647	2.5205	9.4403	-0.3291	0.8248	-0.1668	0.1782	-0.4016	-1.8156	9.547	-0.1131	-0.3594	-0.0652	0.608	0.3437	-0.397	-0.4132	-0.6721
-1.3296	2.2178	9.148	-0.5619	0.0288	-0.0593	0.2083	-0.2249	-1.4213	2.3548	2.6327	9.5597	-0.1788	0.5187	0.0461	0.1786	-0.3699	-1.832	9.7197	0.3504	-0.5338	0.3043	0.7033	0.128	-0.4115	-0.4628	-0.6541
-1.4349	1.8752	9.5991	-0.5315	-0.0643	0.0312	0.153	-0.2821	-1.3922	2.0579	3.5343	9.2146	-0.1779	0.5808	-0.0766	0.1655	-0.4006	-1.8297	9.7807	0.4088	-0.4127	-0.0322	0.9764	0.2196	-0.3694	-0.4477	-0.6237
-1.5474	2.1055	9.7116	-0.6226	0.0893	0.0032	0.2091	-0.2698	-1.397	1.8934	3.0842	9.5504	-0.3958	0.455	-0.0163	0.1918	-0.3841	-1.8456	9.7826	-0.4042	-0.4161	-0.186	0.851	0.4652	-0.4109	-0.4329	-0.6092
-1.8305	2.4511	9.878	-0.5616	0.0592	-0.0281	0.2374	-0.2532	-1.4152	1.89	2.9714	9.3804	-0.3027	0.4869	-0.016	0.1395	-0.4008	-1.8291	9.6627	-0.0558	-0.4767	-0.0948	0.7917	0.3124	-0.383	-0.4325	-0.609
-1.616	2.4478	9.1434	-0.5927	-0.0649	0.062	0.1805	-0.2726	-1.3822	1.892	2.5208	9.4367	-0.1513	0.2721	0.2903	0.1911	-0.3566	-1.8045	9.901	0.409	-0.2906	0.0914	0.8832	0.403	-0.4105	-0.3818	-0.6583
-1.6685	2.0467	9.368	-0.3152	0.3072	-0.1168	0.1797	-0.245	-1.3891	2.2362	3.1398	9.4445	-0.3978	0.3013	0.0438	0.1123	-0.4205	-1.7702	9.7831	0.3512	-0.2931	0.3376	0.8229	0.4024	-0.397	-0.4319	-0.6246
-1.5629	2.0447	8.9154	-0.3753	0.4913	-0.1136	0.1809	-0.269	-1.3963	1.7215	2.6339	9.5464	-0.5522	0.3282	0.3214	0.1914	-0.4005	-1.8302	9.6075	-0.2872	-0.2991	0.2764	0.7908	0.525	-0.4108	-0.4337	-0.5937
-1.6622	2.5651	9.7113	-0.3771	0.3712	-0.3609	0.2099	-0.28	-1.4077	1.7773	2.9154	9.4912	-0.2413	0.4568	0.0146	0.1523	-0.3864	-1.8161	9.7238	0.0027	-0.3556	0.4945	0.9736	0.6761	-0.3688	-0.3991	-0.6262
-1.0356	2.3342	9.552	-0.041	0.0941	-0.1824	0.1813	-0.2828	-1.3929	1.893	2.6335	9.4934	-0.1486	0.4579	0.0147	0.1777	-0.3884	-1.7879	9.7772	0.0594	-0.6538	0.5876	0.9726	0.7981	-0.3688	-0.3991	-0.6262
-1.2688	1.9313	9.3185	-0.4092	0.0309	-0.1823	0.1828	-0.3033	-1.4142	1.8916	2.7461	9.4369	-0.2089	0.5512	-0.2927	0.178	-0.3874	-1.8023	9.6604	0.0018	-0.5963	0.9269	1.1599	0.5514	-0.4113	-0.4466	-0.6549
-1.3803	2.3916	9.4887	-0.6539	-0.0656	0.0928	0.195	-0.2521	-1.4141	2.5248	2.745	9.4502	-0.3294	0.823	0.1107	0.1654	-0.371	-1.8173	9.719	0.1759	-0.5945	0.2782	1.1289	0.3705	-0.4251	-0.4485	-0.624
-1.4867	2.0487	9.883	-0.5625	-0.1573	0.0911	0.1668	-0.286	-1.3785	1.7747	2.4083	9.3209	-0.2045	0.9175	-0.0424	0.1781	-0.4169	-1.8146	9.7196	-0.1145	-0.5957	-0.3085	1.1284	0.2199	-0.4251	-0.4476	-0.6395
-1.2105	2.0463	9.3769	-0.7167	-0.1867	-0.093	0.195	-0.304	-1.3617	2.2328	3.027	9.2744	-0.2647	1.0398	-0.1029	0.1778	-0.418	-1.8003	9.8446	0.2354	-0.1727	-0.7749	0.8858	-0.144	-0.3552	-0.4142	-0.6408
-1.498	2.2186	9.3152	-0.4101	-0.1227	-0.1848	0.2232	-0.2529	-1.4148	2.0697	3.084	9.724	-0.2685	0.7332	-0.106	0.1902	-0.4201	-1.7718	9.9	0.3507	-0.3508	-0.6544	0.55	-0.1734	-0.3831	-0.4138	-0.6565
-1.7754	2.3357	9.7649	-0.653	0.0259	0.1556	0.1816	-0.262	-1.4245	2.2361	3.1961	9.4445	-0.3955	0.4851	0.0764	0.1911	-0.4169	-1.8149	9.7206	-0.0561	-0.5355	0.0831	0.4644	-0.5119	-0.3693	-0.4306	-0.64
-1.1532	1.9889	9.3778	-0.6231	0.0282	-0.0284	0.1671	-0.2651	-1.41	2.4121	2.7453	9.561	-0.122	0.121	0.0114	0.1649	-0.4028	-1.801	9.7212	0.1764	-0.4747	0.6347	0.1624	-0.6958	-0.3963	-0.3841	-0.6116
-1.316	1.9335	9.829	-0.5912	0.2752	-0.1165	0.1813	-0.2655	-1.4104	1.8863	2.9713	9.2105	-0.0932	-0.0327	0.1332	0.1783	-0.3863	-1.8166	9.6608	-0.1724	-0.597	0.8512	0.4413	-0.973	-0.3688	-0.3991	-0.6262
-1.0913	1.8175	9.6056	-0.0701	0.3712	-0.2391	0.1805	-0.2553	-1.3997	1.8924	2.9715	9.4937	-0.1546	-0.0028	0.1334	0.1779	-0.4027	-1.8013	9.7254	-0.2294	-0.2967	1.2892	0.7412	-0.2425	-0.3827	-0.3993	-0.6263
-1.2679	2.3336	9.377	0.1452	0.4952	-0.2377	0.1809	-0.2517	-1.4138	1.7681	2.6897	9.0379	-0.5247	0.0534	0.1954	0.1522	-0.3569	-1.8037	9.7777	0.2919	-0.5929	0.9894	1.2207	0.612	-0.3974	-0.4464	-0.6549
-1.2071	2.0471	9.5475	-0.0395	0.4028	-0.3	0.1668	-0.2514	-1.4135	1.8936	2.9716	9.5503	-0.3685	0.1786	0.1042	0.1785	-0.4005	-1.83	9.7795	0.0018	-0.5342	1.1465	1.4019	0.8857	-0.3832	-0.4308	-0.6401
-1.5543	2.4487	9.3719	-0.4068	0.4311	-0.2372	0.1668	-0.2687	-1.396	1.8911	3.0278	9.4371	-0.3681	0.2097	0.0429	0.1513	-0.405	-1.772	10.0165	0.0596	-0.4696	0.7458	1.6487	0.5498	-0.4106	-0.3989	-0.6419
-1.1512	2.334	9.4929	-0.4999	-0.0044	0.1854	0.224	-0.2631	-1.4255	1.8941	2.6899	9.5501	-0.4889	0.4228	0.0449	0.1658	-0.3995	-1.844	9.5377	0.5821	-0.7758	0.371	1.2528	0.2474	-0.3552	-0.4134	-0.6563
-1.1446	2.4503	9.8345	-0.2571	-0.1842	-0.1249	0.2244	-0.2942	-1.4046	1.8929	2.6899	9.4935	-0.485	0.7296	0.0171	0.1655	-0.4006	-1.8297	9.8953	0.4659	-0.5899	0.6165	1.0696	0.3085	-0.3966	-0.3808	-0.6737
-1.6142	1.4715	9.1961	-0.593	-0.0014	-0.121	0.2095	-0.2663	-1.4111	1.8423	2.8592	9.8322	-0.2336	1.041	-0.2262	0.1647	-0.3885	-1.7876	10.0766	0.0597	-0.4086	0.7346	0.7695	-0.2101	-0.4109	-0.4134	-0.6721
-0.9189	2.4494	9.6684	-0.6265	-0.3689	-0.2495	0.1805	-0.238	-1.4172	2.6958	2.3502	9.3402	-0.2941	1.133	-0.3486	0.1909	-0.4026	-1.8015	9.78	0.2343	-0.4733	0.3627	0.7407	-0.5142	-0.3693	-0.4485	-0.6081
-0.9202	2.6215	9.6123	-0.5981	-0.7379	-0.2249	0.1961	-0.2761	-1.4214	1.7704	2.7461	9.1513	-0.2016	1.1332	-0.1944	0.1655	-0.4006	-1.8297	9.3625	0.2343	-0.7206	0.8203	0.3482	-0.8502	-0.3828	-0.3976	-0.6573
-1.1491	2.5068	9.6074	-0.6002	-1.0134	-0.3214	0.1809	-0.2517	-1.4138	1.8871	2.577	9.2102	-0.5066	1.4361	-0.2225	0.2304	-0.4002	-1.8311	9.4299	-0.0545	-0.3014	1.4364	0.2583	-0.8214	-0.4115	-0.4628	-0.6541
-1.4922	1.9901	9.5985	-1.3731	-1.7801	-0.7917	0.1805	-0.2207	-1.4347	2.0622	3.1964	9.3842	-0.7181	1.8302	0.0587	0.1909	-0.4026	-1.8015	9.836	0.1173	-0.6524	1.8679	0.3223	-0.9456	-0.3829	-0.4155	-0.6254
-1.7876	2.2181	9.1391	-0.7014	-2.02	-1.0429	0.1801	-0.2588	-1.3856	2.1626	3.3083	8.7071	-1.9395	2.9205	-0.2397	0.1778	-0.418	-1.8003	9.6587	-0.231	-0.7171	2.2737	0.4694	-0.2448	-0.383	-0.4146	-0.6409
-1.6711	2.5632	9.2565	-1.1327	-2.3912	-1.017	0.166	-0.2411	-1.4028	1.9954	2.9708	8.9297	-1.1784	4.4921	0.0232	0.2041	-0.4015	-1.8162	10.0154	0.0593	-0.5296	1.9347	0.437	-0.1823	-0.3828	-0.4163	-0.6099
-1.4419	2.3332	9.2599	-2.7609	-3.0763	-0.9008	0.1797	-0.245	-1.3891	2.1142	2.9707	9.1021	-3.718	6.3632	-0.3302	0.1781	-0.3567	-1.8043	9.8478	-0.2287	-0.0548	0.9161	0.4664	-0.4232	-0.4107	-0.4167	-0.61
-1.6027	2.5655	9.8261	-3.1248	-2.6512	-0.5861	0.1935	-0.2489	-1.3753	2.1188	2.4639	9.2716	-3.5873	6.8602	-1.065	0.1914	-0.4005	-1.8302	9.4938	0.237	0.0004	-0.1709	0.2601	-1.5491	-0.3973	-0.4472	-0.6393
-1.2095	2.2764	9.4347	-2.11	-1.9676	-0.8233	0.2087	-0.2387	-1.4179	2.1323	2.9715	9.9517	-1.9979	5.6177	-0.2129	0.1913	-0.3709	-1.8179	9.9025	0.2351	-0.2315	-0.08	-0.1713	-1.2112	-0.4108	-0.4151	-0.6411
-1.4352	2.3347	9.6011	-2.75	-1.3238	-0.9336	0.1946	-0.2556	-1.4001	1.9046	2.9157	10.0601	0.7725	2.4904	0.4673	0.2044	-0.4004	-1.8305	9.4806	0.234	-0.7184	0.5096	-0.3937	-0.2037	-0.3832	-0.4308	-0.6401
-1.1526	2.6784	9.4375	-1.9155	-0.1818	-1.0095	0.1958	-0.2796	-1.4073	2.2991	2.9146	9.672	1.3017	0.4102	0.7553	0.1912	-0.4015	-1.8159	9.7813	-0.2883	-0.4755	0.7596	-0.6785	0.8053	-0.3969	-0.4149	-0.641
-1.5508	2.2771	9.5417	-0.6538	0.4663	-0.7266	0.1805	-0.2726	-1.3822	1.5471	2.9158	9.4864	1.3798	-0.7238	0.8365	0.1649	-0.4028	-1.801	9.5448	-0.1136	-0.4792	0.791	-0.3691	0.4675	-0.3835	-0.4462	-0.6548
-1.607	2.2774	9.5975	-0.1594	0.9578	-0.5053	0.1526	-0.251	-1.4131	1.8957	2.521	9.6066	0.8808	-1.0981	0.8324	0.2032	-0.4047	-1.7731	9.5478	-0.4615	-0.3609	1.3469	-0.2135	0.4036	-0.3409	-0.3808	-0.6579
-1.152	1.9317	9.4344	0.4549	1.1447	-0.4734	0.2091	-0.2698	-1.397	2.1189	3.0273	9.3287	0.3867	-1.0747	0.9864	0.1914	-0.4005	-1.8302	9.7162	-0.522	-0.8371	0.633	-0.3311	-0.2962	-0.439	-0.43	-0.6714
-1.2003	1.8762	9.8879	0.4272	1.4177	-0.1622	0.1824	-0.2376	-1.4701	1.8912	2.9715	9.4371	-0.5666	-0.7778	0.6186	0.1783	-0.371	-1.8176	10.0791	0.4089	-0.2274	0.0688	-0.6882	-1.4538	-0.4109	-0.4142	-0.6566
-1.0962	2.3335	9.3803	0.5212	1.6312	0.025	0.1652	-0.2309	-1.3921	2.0083	2.577	9.4958	-0.0046	-0.3101	0.5313	0.1913	-0.3709	-1.8179	10.1975	-0.2305	-0.2879	0.8378	-0.9614	-1.3941	-0.4104	-0.3827	-0.6428
-1.6687	2.2764	9.369	0.2764	1.5665	0.2087	0.1805	-0.2553	-1.3997	1.7776	2.8027	9.4911	-0.6097	0.6934	0.6332	0.1908	-0.4179	-1.8005	9.8407	0.0022	-0.4133	1.706	-1.1229	-0.2657	-0.3553	-0.4313	-0.6244
-1.6035	2.1632	9.7676	-0.0001	1.5044	0.1471	0.1675	-0.2789	-1.4066	2.6383	2.97	9.3961	-0.2293	1.4931	0.9806	0.165	-0.3874	-1.802	10.0208	-0.3462	-0.2917	2.5144	-1.0396	0.8312	-0.4246	-0.4161	-0.6256
-1.3263	2.276	9.3188	-0.0387	0.4943	-0.2372	0.153	-0.2648	-1.4097	2.0675	2.9713	9.6106	-2.1047	2.1753	0.8626	0.2044	-0.4004	-1.8305	9.5476	0.1195	-0.2985	2.7284	-1.2217	0.7702	-0.4111	-0.4483	-0.6239
-1.2666	1.9892	9.4324	-0.3528	-0.5492	-0.4986	0.1805	-0.2726	-1.3822	1.8897	3.0841	9.3805	-2.8022	3.1792	0.7179	0.2046	-0.3698	-1.8325	9.7767	0.2336	-0.653	2.5004	-1.8513	-0.5402	-0.3693	-0.4493	-0.5926
-1.67	2.506	9.3131	-1.0934	-1.2892	-0.6005	0.1797	-0.245	-1.3891	1.7758	2.4647	9.3776	-2.3962	3.522	0.6599	0.1656	-0.3853	-1.8307	9.5465	0.1192	-0.3584	1.5408	-1.7545	-1.3623	-0.3824	-0.3652	-0.659
-1.2142	2.62	9.2088	-1.4945	-1.6277	-0.7275	0.1954	-0.2832	-1.3932	1.8915	2.8025	9.4369	-2.4579	3.5221	0.5366	0.1534	-0.3373	-1.8621	9.425	0.1768	-0.5401	0.0687	-1.3401	-0.5338	-0.397	-0.4327	-0.6091
-1.3869	2.3327	9.1474	-1.4931	-1.538	-0.5114	0.1954	-0.2313	-1.4457	2.3516	3.0269	9.4468	-1.5231	4.1189	0.1733	0.2178	-0.3839	-1.8461	9.6135	0.4695	0.1235	-0.572	-1.138	0.415	-0.3971	-0.431	-0.6402
-1.2682	2.7357	9.3787	-2.4081	-0.8665	-0.4672	0.2095	-0.2663	-1.4111	2.1722	2.7453	9.1031	-1.7562	5.1914	-0.1861	0.204	-0.3719	-1.8038	9.6108	0.1784	-0.0575	-1.8602	-0.4104	0.5996	-0.4107	-0.398	-0.6574
-0.9176	2.1625	9.7241	-1.9422	0.1819	-0.5741	0.166	-0.2411	-1.4028	2.2953	2.9708	9.5022	-4.0445	4.9798	-0.4059	0.2299	-0.3717	-1.8044	9.6099	0.5849	-0.0558	-2.5731	-0.1885	-0.4075	-0.3971	-0.431	-0.6402
-1.3837	2.5058	9.3186	-1.1391	1.4198	-0.9857	0.1946	-0.2383	-1.4176	1.6195	2.1276	10.11	-3.2142	2.3472	0.5551	0.2045	-0.3851	-1.8315	10.3717	0.5239	-0.3412	-2.1874	-0.2205	-3.0982	-0.3692	-0.4315	-0.6245
-1.4961	2.6787	9.4308	-1.0422	2.0632	-0.7608	0.1385	-0.2333	-1.4302	1.7871	2.8594	9.9443	1.849	-0.2584	0.9032	0.1915	-0.3403	-1.8199	9.8502	-0.2862	0.0647	-1.4642	-0.4963	-5.7584	-0.3549	-0.3989	-0.6261
-1.5552	2.1038	9.3136	-0.5805	2.3726	-0.7571	0.1942	-0.2419	-1.4035	1.896	2.9717	9.6636	1.3625	-2.0737	0.9156	0.191	-0.372	-1.8035	9.9014	-0.23	-0.3533	-3.1651	-0.4617	-6.7304	-0.3832	-0.4308	-0.6401
-1.4948	2.4491	9.4867	0.3432	2.8655	-0.4758	0.1809	-0.2344	-1.4313	1.5538	2.5781	9.7693	0.6524	-4.3598	2.1562	0.2044	-0.3555	-1.8192	9.7176	0.2918	-0.6539	-4.4311	-0.6179	-6.8473	-0.3832	-0.4495	-0.5927
-1.6623	2.68	9.7118	1.5728	3.5805	-0.6824	0.1549	-0.2817	-1.4451	2.2326	2.52	9.2174	1.7459	-5.8177	2.1426	0.1918	-0.3841	-1.8456	9.8375	-0.0567	-0.5933	-4.1428	-0.4201	-5.1684	-0.3703	-0.4938	-0.6677
-1.2017	2.2206	9.8324	2.5284	4.5079	-0.7621	0.1664	-0.2549	-1.3994	1.7243	3.0847	9.7167	1.1778	-6.7752	2.1018	0.1907	-0.373	-1.7892	9.4807	0.176	-0.7187	-4.22	-0.077	-2.8776	-0.3972	-0.4481	-0.6238
-1.3251	2.2188	9.3754	2.777	4.6868	-0.1772	0.166	-0.2238	-1.4203	1.8878	3.4783	9.3242	2.0674	-7.312	1.5115	0.1911	-0.3566	-1.8045	9.603	0.2348	-0.4766	-3.3764	0.1842	-1.2315	-0.3835	-0.4641	-0.6229
-1.4395	2.104	9.3727	2.2874	4.4946	0.3118	0.2091	-0.2525	-1.4145	2.0058	2.5769	9.3825	4.9481	-6.7205	1.0572	0.1906	-0.3884	-1.7882	9.6601	0.118	-0.5958	-2.0148	0.5524	-0.8715	-0.3832	-0.4308	-0.6401
-1.6672	1.8172	9.4239	2.1007	4.0324	0.3355	0.1653	-0.2655	-1.3571	2.1064	3.2521	8.7625	3.7922	-5.2955	1.2863	0.1651	-0.3568	-1.804	9.7791	0.176	-0.5335	-1.6814	0.1298	-1.2985	-0.3833	-0.43	-0.6556
-2.0762	2.3902	9.0205	2.187	3.0788	0.4424	0.2087	-0.2387	-1.4179	1.8194	3.4217	8.8132	1.1699	-2.6292	1.0949	0.1912	-0.4015	-1.8159	9.722	0.2928	-0.4143	-1.8496	-0.5892	-2.8226	-0.3552	-0.4134	-0.6563
-1.8978	2.3915	9.365	1.9052	2.2809	0.2156	0.1801	-0.2588	-1.3856	2.1176	2.4639	9.2149	-1.4975	-1.0681	1.0158	0.1916	-0.3698	-1.8322	10.0171	0.2921	-0.4087	-2.6065	-1.4912	-4.5882	-0.3687	-0.3999	-0.6107
-1.5068	2.1593	8.8601	1.7475	1.5419	0.2654	0.1664	-0.2895	-1.3644	2.3343	2.5756	8.5968	-1.1705	0.3181	0.6599	0.1659	-0.3842	-1.845	9.8992	-0.2305	-0.4731	-2.6216	-2.0522	-6.5414	-0.3973	-0.4472	-0.6393
-1.2667	2.219	9.4334	0.917	1.1399	0.1386	0.2244	-0.2596	-1.4396	1.8934	3.0842	9.5504	-1.6818	1.3859	0.4851	0.2181	-0.3675	-1.8615	9.8385	0.4665	-0.4712	-3.0301	-2.2255	-7.6698	-0.4104	-0.3827	-0.6428
-1.836	2.335	9.5933	0.2412	0.7656	0.3491	0.2221	-0.2461	-1.3901	2.0617	2.8584	9.3273	-1.6379	2.3704	0.0634	0.1781	-0.4169	-1.8146	9.6039	-0.1718	-0.4783	-3.4926	-2.2581	-7.6374	-0.3693	-0.4493	-0.5926
-1.4386	2.334	9.4305	-0.133	-0.0314	-0.0001	0.1969	-0.2864	-1.4321	2.1751	3.0834	9.2733	-1.2521	3.5706	0.1373	0.1909	-0.3873	-1.8025	10.0125	0.3492	-0.6481	-4.0138	-2.2657	-7.0854	-0.4116	-0.4612	-0.6852
-1.6103	2.3341	9.4272	-0.017	-1.076	0.0132	0.153	-0.2475	-1.4272	2.1681	2.3508	8.8762	-2.0966	5.1269	-0.372	0.1912	-0.4015	-1.8159	10.0158	0.35	-0.4684	-4.9043	-2.0273	-6.7777	-0.4103	-0.3835	-0.6272
-1.1569	2.5051	9.2094	-0.8764	-1.2641	-0.018	0.208	-0.2458	-1.3898	1.7716	2.7462	9.2079	-3.3956	7.4111	-0.5353	0.2044	-0.4004	-1.8305	9.7763	0.4078	-0.6523	-5.8655	-2.3931	-7.2309	-0.4112	-0.4474	-0.6394
-1.6696	1.989	9.3109	-1.6454	-1.9168	0.3109	0.2088	-0.2733	-1.3829	1.7229	3.1973	9.6602	-3.6784	9.3755	-1.41	0.1782	-0.4016	-1.8156	9.6001	0.5246	-0.5952	-7.6846	-2.3066	-7.347	-0.4107	-0.4159	-0.6256
-1.9469	1.8763	9.7597	-1.9226	-2.1647	0.369	0.1805	-0.2899	-1.3647	1.8862	3.0276	9.2106	-3.9991	10.8454	-1.7656	0.1651	-0.3721	-1.803	9.5342	0.1746	-1.0171	-9.4446	-2.7115	-7.247	-0.3975	-0.4634	-0.6385
-1.2648	2.6215	9.5488	-2.7545	-2.7507	0.2086	0.1686	-0.2683	-1.4488	2.0692	2.6897	9.667	-3.5275	11.495	-1.7279	0.1917	-0.3545	-1.8332	9.9568	0.3501	-0.4695	-10.7742	-3.237	-7.1785	-0.3694	-0.4298	-0.6556
-1.2646	2.2769	9.5473	-3.5864	-3.4303	0.1692	0.1244	-0.2675	-1.3949	1.6066	2.5215	9.5439	-2.448	11.385	-1.574	0.2187	-0.3807	-1.8892	9.1305	0.4101	-0.4847	-12.1619	-3.4277	-6.9587	-0.4385	-0.4171	-0.6102
-1.2068	1.5301	9.5453	-3.8615	-3.5277	0.5058	0.1801	-0.2588	-1.3856	1.8538	2.5217	10.3417	-1.8357	8.5975	-0.7689	0.1917	-0.3545	-1.8332	9.6086	0.1779	-0.1773	-13.7703	-3.8273	-7.3177	-0.3833	-0.43	-0.6556
-1.6563	2.1642	9.9939	-3.7061	-3.0324	0.2681	0.1511	-0.2132	-1.4093	1.1087	2.0725	10.4389	0.1915	2.915	0.0394	0.204	-0.3719	-1.8038	9.4907	-0.3447	-0.2417	-15.0686	-3.7323	-8.0775	-0.397	-0.4327	-0.6091
-1.4372	1.9321	9.4857	-2.7206	-2.1964	0.1255	0.195	-0.2348	-1.4316	2.0088	2.915	9.5527	3.484	-0.3933	1.2731	0.2047	-0.3544	-1.8335	9.3138	0.0624	-0.1833	-14.4544	-3.7875	-8.4461	-0.3833	-0.4292	-0.6712
-1.1499	2.1045	9.5488	-2.2582	-1.5761	-0.1725	0.1805	-0.238	-1.4172	1.5947	3.0843	9.0346	-0.2245	-0.5035	1.5465	0.2174	-0.3401	-1.8204	9.6722	0.1207	0.0632	-13.0025	-3.7877	-7.9319	-0.3977	-0.4804	-0.6221
-1.0915	1.9898	9.6063	-1.427	-1.1758	0.1077	0.1943	-0.2765	-1.3685	2.1821	3.2527	9.6133	-1.8219	0.2107	1.7681	0.2176	-0.3544	-1.8338	9.3661	-0.346	-0.6033	-11.4897	-3.8793	-7.4174	-0.3692	-0.4315	-0.6245
-1.6058	2.1627	9.6539	-0.1991	-0.7689	-0.0426	0.166	-0.2238	-1.4203	1.6587	2.8591	9.3189	-1.3154	1.1391	1.4386	0.2037	-0.373	-1.7895	9.3021	-0.1145	-0.843	-11.0565	-4.1912	-6.684	-0.3974	-0.4464	-0.6549
-1.3722	1.9912	9.885	-0.1626	0.1218	0.0331	0.237	-0.2741	-1.3836	2.0586	3.1963	9.2143	-1.2076	2.3071	1.2037	0.2039	-0.3872	-1.8028	9.4819	0.1181	-0.659	-10.3696	-4.3603	-4.8825	-0.3838	-0.4794	-0.6376
-1.6035	2.1632	9.7676	0.701	0.9552	0.0748	0.1675	-0.2616	-1.4241	1.8833	3.3092	9.0975	-1.162	3.4149	0.6907	0.2043	-0.3708	-1.8182	9.2464	-0.1136	-0.6644	-10.2035	-4.3516	-2.7133	-0.3828	-0.4163	-0.6099
-1.2117	2.161	9.3205	1.1975	1.9102	0.0889	0.1946	-0.2729	-1.3826	2.4123	2.6326	9.5609	-0.2723	5.3296	0.3097	0.1785	-0.3852	-1.831	9.4303	-0.2287	-0.3022	-9.3274	-4.0312	-0.8537	-0.3971	-0.4497	-0.5928
-1.2083	2.1617	9.4911	1.2959	3.0501	-0.1075	0.1522	-0.2372	-1.4165	2.1154	2.9708	9.1587	-0.8861	8.0523	0.0588	0.1912	-0.3862	-1.8169	9.4299	-0.5193	-0.3633	-8.3974	-4.0065	0.0292	-0.397	-0.4327	-0.6091
-1.0873	2.4503	9.8356	1.1492	4.0007	0.031	0.1816	-0.262	-1.4245	2.1126	3.1397	9.0456	-2.7574	11.3789	-1.2352	0.2046	-0.4146	-1.8439	9.8455	0.2938	-0.1125	-7.1942	-3.8482	-0.0676	-0.3832	-0.4308	-0.6401
-1.773	2.1064	9.8777	1.4319	5.4533	-0.5595	0.1526	-0.251	-1.4131	1.886	3.1403	9.2106	-4.6791	13.2864	-1.2795	0.2043	-0.4157	-1.8295	9.7924	0.1209	0.1852	-5.9339	-4.0228	-0.4993	-0.3696	-0.4647	-0.6073
-1.5454	2.5081	9.827	2.8832	7.2753	-0.7181	0.182	-0.2757	-1.421	1.8361	2.9153	9.5491	-7.2781	12.947	-1.3158	0.2302	-0.3707	-1.8187	9.7857	-0.2873	-0.2359	-4.948	-4.111	-0.5024	-0.4108	-0.4337	-0.5937
-1.6067	1.8753	9.5958	3.9368	9.0307	-0.6006	0.1942	-0.2419	-1.4035	1.7776	2.8027	9.4911	-6.9572	11.507	-0.8366	0.2308	-0.3685	-1.8474	9.6701	0.527	0.005	-5.1336	-4.1104	-0.624	-0.4113	-0.4831	-0.5756
-1.2577	1.9911	9.8872	5.6611	10.6116	-1.0706	0.1939	-0.2454	-1.3894	1.8983	2.4084	9.7198	-5.6996	8.4805	0.2442	0.2171	-0.4014	-1.8164	9.6732	0.179	0.1233	-5.5851	-3.8226	0.9655	-0.3836	-0.4632	-0.6384
-1.5363	2.2228	10.2806	6.8969	12.5292	-1.6256	0.1801	-0.2588	-1.3856	1.3839	2.3532	9.8788	-3.3972	5.0373	1.4449	0.2305	-0.3696	-1.8331	9.554	0.179	0.0612	-4.5163	-3.3609	4.0158	-0.397	-0.4327	-0.6091
-1.7091	2.1078	10.2199	9.33	14.509	-1.7538	0.1534	-0.2612	-1.4238	1.7834	2.296	9.7173	-2.5833	3.4822	1.7075	0.1914	-0.3556	-1.8189	9.6671	0.4101	-0.1752	-2.7411	-2.7053	6.2986	-0.4251	-0.4485	-0.624
-1.2488	1.993	10.342	13.2382	16.7024	-1.1467	0.2088	-0.2733	-1.3829	1.6737	2.5781	9.9983	-3.1022	3.9665	1.6503	0.204	-0.3719	-1.8038	9.6667	0.5843	-0.1745	-0.4195	-2.3107	7.3886	-0.3557	-0.4636	-0.6228
-1.6583	1.8191	9.8787	15.5772	18.4372	-1.4013	0.2095	-0.2663	-1.4111	1.6591	2.6338	9.3187	-4.2066	4.5655	1.6862	0.2432	-0.3706	-1.819	9.3686	0.4681	-0.3602	2.3885	-1.6529	6.8557	-0.3829	-0.4341	-0.578
-0.1208	5.0458	12.5364	3.7998	23.2703	3.9247	0.2374	-0.2705	-1.3977	1.7232	3.0283	9.66	-4.8464	5.2055	1.0446	0.2045	-0.3851	-1.8315	9.7183	0.0014	-0.6551	5.1597	-1.6665	6.1733	-0.397	-0.4319	-0.6246
-2.9336	1.3694	11.9547	16.6442	32.7453	-2.4598	0.2515	-0.2709	-1.3981	1.7789	2.7465	9.5477	-5.6118	5.7188	0.7717	0.2174	-0.3401	-1.8204	9.4231	0.525	-0.5985	6.79	-1.467	5.1884	-0.4246	-0.4356	-0.5627
-0.5777	2.7608	15.4162	31.74	35.6132	5.5476	0.2374	-0.2878	-1.3802	2.1801	3.0273	9.4998	-5.5782	5.9051	0.4653	0.2038	-0.3576	-1.7905	9.6615	0.4669	-0.4745	7.4675	-1.1215	4.5424	-0.3833	-0.4487	-0.6082
-1.9279	1.2034	13.6217	33.3217	45.747	9.5717	0.2374	-0.3051	-1.3627	1.551	2.747	9.6562	-5.8859	5.9934	0.4351	0.2175	-0.385	-1.8318	10.1939	0.4079	-0.405	8.4249	-0.5621	4.0167	-0.397	-0.4319	-0.6246
-3.4372	0.568	12.5099	34.9175	54.8955	11.0345	0.2229	-0.2737	-1.3833	1.7212	2.8029	9.5466	-6.163	6.0522	0.2813	0.2173	-0.3554	-1.8194	9.5458	0.4096	-0.3572	9.107	0.1783	3.644	-0.4246	-0.4356	-0.5627
-3.7497	0.7474	14.0958	36.9862	61.9732	19.1165	0.2664	-0.2815	-1.4091	1.8963	2.8027	9.6635	-5.6342	6.2782	-0.4251	0.1918	-0.3841	-1.8456	9.957	0.292	-0.4698	10.4913	0.2517	2.9356	-0.4112	-0.4474	-0.6394
-3.9273	-0.4028	13.7465	46.8054	69.4665	26.232	0.2794	-0.3098	-1.3497	1.7791	2.6338	9.5476	-5.9053	6.7977	-0.6976	0.23	-0.4166	-1.8157	9.8972	-0.3472	-0.5934	12.3097	0.1356	2.9602	-0.3828	-0.4163	-0.6099
-5.1456	-1.4969	12.8657	44.3621	79.1163	35.9319	0.3229	-0.3349	-1.358	1.4383	2.7473	9.767	-7.5545	5.7993	-1.2637	0.2314	-0.3664	-1.8761	9.3705	-0.345	-0.3637	14.1018	0.6317	2.9207	-0.3833	-0.4479	-0.6237
-6.7552	-1.7844	12.4922	35.6047	94.3219	51.6261	0.3381	-0.342	-1.3831	1.1086	2.7486	10.4961	-3.8887	2.6803	-0.1203	0.2305	-0.3247	-1.8217	9.4189	-0.057	-0.9005	15.5037	1.7272	3.9496	-0.4247	-0.4339	-0.5937
-4.5566	0.4595	13.7947	40.1674	93.1098	68.24	0.3374	-0.3145	-1.3899	1.8975	2.183	9.663	-1.5291	1.1785	-0.3183	0.205	-0.338	-1.8489	9.0638	-0.5793	-1.0291	16.0192	3.3635	5.6209	-0.3832	-0.4495	-0.5927
-2.3559	1.2677	15.148	84.0216	78.3046	72.1955	0.3794	-0.3537	-1.3419	1.5559	2.7472	9.8827	-1.3234	0.3817	0.013	0.2049	-0.3534	-1.8479	9.4787	-0.8704	-0.9628	15.7611	5.3128	6.3461	-0.3827	-0.418	-0.5788
-2.2607	-0.6449	11.1637	116.2754	67.3654	74.5612	0.3786	-0.3089	-1.3662	1.5495	2.2962	9.5425	-1.1447	-0.1374	0.0388	0.2309	-0.3532	-1.8484	9.8891	-0.6395	-1.0739	14.9038	6.7884	5.3336	-0.4252	-0.4655	-0.6076
-2.5429	-0.1842	11.3875	130.5468	50.7687	77.9289	0.3641	-0.3466	-1.3168	1.7753	2.7463	9.3778	-0.5883	-0.129	-0.1764	0.2568	-0.3531	-1.849	9.6488	-0.6981	-1.3182	11.0337	6.3699	3.0573	-0.3973	-0.4472	-0.6393
0.1605	-1.3449	9.1051	148.388	34.7898	85.0972	0.4069	-0.3788	-1.2969	1.4915	2.5217	9.5415	-0.522	0.239	-0.0494	0.2699	-0.3377	-1.8502	10.1278	-1.2787	-1.0123	7.4621	4.6983	0.7859	-0.3971	-0.4497	-0.5928
3.8774	-4.4184	2.9699	138.817	15.8444	87.7903	0.4077	-0.3891	-1.3076	1.4344	2.2965	9.5401	-0.856	0.6662	-0.3846	0.2304	-0.34	-1.8207	10.0638	-1.0472	-1.252	8.0861	3.0686	-1.134	-0.3693	-0.4485	-0.6081
10.3705	-6.9008	1.2672	78.2774	-0.7749	78.5295	0.4215	-0.4449	-1.2414	1.89	2.9714	9.3804	-1.531	0.9965	-0.6284	0.2305	-0.3696	-1.8331	10.7211	-1.2212	-0.8213	9.464	1.9743	-1.3171	-0.4109	-0.4329	-0.6092
4.6295	-6.9	0.3599	13.8031	-6.6474	46.9516	0.3924	-0.3993	-1.265	1.3127	2.5218	9.2547	-2.2371	1.2976	-1.1501	0.204	-0.3719	-1.8038	10.8358	-1.2222	-0.9988	9.7811	0.9928	-3.9114	-0.4246	-0.4161	-0.6256
9.4416	-6.6607	3.5234	-60.111	-26.9611	29.9094	0.3653	-0.4398	-1.2541	1.7777	2.7464	9.4911	-2.6701	1.2319	-1.3361	0.1915	-0.3403	-1.8199	10.723	-0.6397	-0.6391	7.9809	0.3224	-10.6862	-0.4115	-0.5001	-0.5593
9.1782	-5.0345	7.6737	-77.4517	-50.9443	9.7298	0.4065	-0.3996	-1.2654	1.8922	2.4082	9.4366	-2.9499	1.0763	-1.5228	0.2306	-0.3543	-1.8341	10.7149	-0.9321	-1.1196	6.9489	-0.4333	-17.8298	-0.3832	-0.4308	-0.6401
7.2592	-4.7973	9.0582	-67.6488	-60.8805	-7.3884	0.3787	-0.3781	-1.2962	1.6689	2.5779	9.7717	-4.0974	0.6954	-1.7741	0.2307	-0.339	-1.8351	10.2494	-0.4646	-0.7071	7.2653	-0.6993	-21.5883	-0.4104	-0.4013	-0.5953
5.8476	-5.264	7.0965	-74.9967	-61.8638	-18.5472	0.3497	-0.3671	-1.2849	1.264	2.9729	9.707	-2.9661	-0.211	-1.6281	0.2173	-0.3554	-1.8194	10.658	-0.4085	-0.9388	8.8191	-1.2168	-24.25	-0.3971	-0.431	-0.6402
4.3569	-5.4932	6.9529	-104.8528	-56.8072	-23.9001	0.3355	-0.3321	-1.3195	1.6649	2.803	9.602	-2.759	-0.9146	-1.4808	0.2318	-0.2898	-1.8811	10.2361	0.0553	-1.3638	11.0009	-1.319	-25.4491	-0.439	-0.4665	-0.5921
3.13	-4.5085	8.6381	-137.7629	-51.506	-24.9768	0.3218	-0.3282	-1.3332	1.6655	2.4651	9.6017	-2.7967	-1.4657	-1.6713	0.2437	-0.3389	-1.8353	10.0663	-0.698	-1.0708	11.5762	-1.3279	-27.3456	-0.4392	-0.4649	-0.6232
2.761	-2.3182	10.345	-155.5212	-50.5316	-25.9835	0.3336	-0.2633	-1.3366	1.67	2.6342	9.8284	-2.3088	-1.9509	-1.5524	0.2434	-0.3246	-1.822	9.5902	-0.4073	-1.2581	11.5392	-0.9127	-29.0586	-0.3972	-0.4481	-0.6238
2.7254	-1.4517	11.4846	-157.937	-52.5111	-28.6159	0.292	-0.2378	-1.3812	1.5519	2.916	9.713	-1.1376	-2.1797	-1.8003	0.2047	-0.3391	-1.8345	9.4135	-0.5811	-1.2622	11.6066	0.008	-29.3382	-0.3832	-0.4495	-0.5927
1.813	-0.3013	11.699	-153.9863	-55.8286	-32.6687	0.3343	-0.2389	-1.3822	1.7899	2.6905	10.0574	-1.2662	-2.5793	-1.8969	0.2434	-0.34	-1.821	9.0538	-0.5235	-1.568	8.9583	0.5819	-29.5453	-0.4253	-0.4647	-0.6231
1.2478	0.3327	12.0885	-151.384	-58.5617	-37.2911	0.3023	-0.1696	-1.3457	1.5369	2.5774	8.9764	-0.9848	-2.3295	-2.0483	0.2306	-0.3543	-1.8341	9.2412	-0.6959	-1.0263	5.7766	0.83	-30.9711	-0.3835	-0.4641	-0.6229
0.675	0.7352	12.0791	-149.3269	-60.0025	-42.2285	0.2488	-0.1399	-1.4569	1.726	2.8031	9.7731	-1.2681	-2.7613	-2.207	0.2176	-0.3544	-1.8338	9.2926	-0.7558	-1.4448	3.8851	0.9986	-33.1344	-0.3836	-0.4819	-0.591
-0.1813	1.7705	12.2373	-147.2208	-63.818	-46.4992	0.2454	-0.1025	-1.4002	1.5604	2.2967	10.0523	-0.2876	-3.3922	-2.305	0.2567	-0.3235	-1.8366	9.4131	-0.4069	-1.2614	1.2665	0.8608	-32.5437	-0.3698	-0.4809	-0.6065
-0.8649	1.5994	12.3938	-139.6878	-69.1358	-48.9387	0.2576	-0.0859	-1.3652	1.609	1.9019	9.6	1.3119	-3.9237	-2.309	0.2445	-0.351	-1.8774	9.1812	-0.2892	-1.0257	-3.4797	0.8087	-32.0985	-0.3978	-0.4788	-0.6532
-1.0794	1.6601	13.1286	-126.8412	-73.6058	-50.7662	0.2018	-0.0427	-1.4269	1.4877	3.2539	9.4288	1.2691	-4.8167	-1.8246	0.2173	-0.3554	-1.8194	9.7094	-0.9303	-1.2581	-5.629	1.0633	-30.8392	-0.4255	-0.4987	-0.5904
-1.4409	1.7714	12.2128	-113.8492	-75.326	-51.0156	0.1854	0.0057	-1.4121	1.7829	2.5213	9.7175	1.2019	-5.2752	-2.1683	0.2306	-0.3543	-1.8341	9.8249	-0.2919	-1.3131	-7.7696	1.674	-28.5121	-0.4123	-0.5471	-0.5878
-2.0673	1.7151	12.3709	-105.7683	-73.8291	-49.5727	0.2117	0.0565	-1.4124	1.8914	2.8588	9.437	2.5788	-6.3006	-2.1158	0.256	-0.3563	-1.8059	9.2377	-1.1034	-1.2677	-10.5177	2.3894	-24.6861	-0.3699	-0.4979	-0.5901
-2.0754	2.173	11.9748	-101.0818	-71.3127	-47.2445	0.1415	0.0619	-1.4247	1.5443	2.465	9.3161	2.135	-7.195	-2.1867	0.2306	-0.3543	-1.8341	9.4717	-0.6977	-1.3215	-12.2598	2.4471	-21.991	-0.384	-0.4956	-0.6368
-2.0253	2.8034	11.6375	-98.6998	-68.4183	-46.6522	0.1388	0.141	-1.4311	1.5508	2.24	9.5991	4.1813	-8.9811	-1.7404	0.2174	-0.3401	-1.8204	9.2339	-0.407	-1.3845	-14.6025	2.4377	-21.8908	-0.398	-0.5137	-0.6049
-2.3824	3.1454	10.95	-92.4546	-64.4085	-47.9548	0.1534	0.1095	-1.4106	1.3177	2.4656	9.4812	3.7936	-10.2772	-1.2295	0.2047	-0.2942	-1.8232	9.4097	-0.8144	-1.5028	-15.6097	2.073	-19.5019	-0.425	-0.4493	-0.6084
-2.7199	3.9512	11.2878	-94.6486	-56.1572	-49.9004	0.1091	0.1622	-1.4091	1.6111	2.6906	9.7706	3.9894	-11.8413	-0.8133	0.2177	-0.339	-1.8348	9.6567	-0.8125	-0.8993	-18.1765	1.9268	-15.122	-0.412	-0.5317	-0.5731
-3.4537	4.9307	11.846	-93.0392	-47.0145	-53.0082	0.1206	0.189	-1.3634	1.9016	3.1972	9.947	3.8375	-13.995	-0.0025	0.2044	-0.4004	-1.8305	9.0022	-0.4055	-1.1493	-20.4914	2.2063	-10.4088	-0.3418	-0.4821	-0.5753
-4.5996	6.0804	11.8285	-81.8329	-37.7621	-56.4794	0.1194	0.2131	-1.3561	1.4575	2.1847	10.6162	2.2803	-17.3905	0.3941	0.1916	-0.3698	-1.8322	9.2351	-0.9297	-1.3868	-21.3281	1.0315	-9.4833	-0.3839	-0.4973	-0.6057
-6.0877	6.8284	11.8596	-64.8868	-27.5958	-59.6148	0.0896	0.2516	-1.3516	1.5683	1.959	10.3918	6.3606	-21.972	0.8143	0.1917	-0.3994	-1.8446	9.4185	-1.2773	-1.0854	-20.2889	0.9283	-10.984	-0.4398	-0.5134	-0.6207
-7.6376	7.7479	11.6628	-45.7404	-14.488	-61.0522	0.103	0.2788	-1.3588	2.2595	2.352	10.4633	11.7453	-26.0423	0.624	0.2049	-0.3687	-1.8469	9.2344	-1.1041	-1.4474	-19.5926	-0.504	-11.2548	-0.384	-0.4964	-0.6212
-8.6906	7.9736	10.5067	-27.3356	-1.9372	-62.5271	0.0866	0.2753	-1.2915	1.8383	3.0281	9.6625	12.2864	-27.2019	0.7979	0.1917	-0.3545	-1.8332	8.7672	-1.7992	-1.2795	-21.128	0.0997	-11.0076	-0.3697	-0.4817	-0.5909
-9.4725	7.6213	8.5577	-17.9524	1.9512	-60.0672	0.1026	0.2752	-1.3447	2.0106	3.2531	9.6663	10.5969	-28.9089	0.6254	0.1778	-0.3578	-1.7899	8.7624	-1.626	-1.5183	-22.9134	1.4265	-6.8207	-0.4257	-0.5149	-0.5895
-8.9722	6.8133	7.7684	-12.4826	-2.6702	-56.8755	0.0862	0.289	-1.2949	1.8483	3.4792	10.1726	4.6885	-31.734	3.7987	0.1913	-0.3709	-1.8179	8.4636	-1.9167	-1.7647	-20.131	2.6673	-1.6106	-0.412	-0.5317	-0.5731
-7.7391	6.5194	6.4272	-4.858	-10.3817	-54.0777	0.029	0.2662	-1.2479	1.8061	3.7052	10.9079	-4.9563	-34.338	8.1118	0.1785	-0.4005	-1.83	8.4604	-1.9755	-1.9447	-19.6006	3.7161	3.6394	-0.4116	-0.4985	-0.5903
-6.0894	5.8265	5.8881	-1.6394	-15.2877	-53.8293	0.0851	0.2957	-1.2702	0.0822	3.9902	11.0418	5.0036	-42.1232	17.3836	0.1787	-0.3546	-1.833	8.7533	-1.9767	-2.059	-24.5643	4.3847	8.2694	-0.4116	-0.4798	-0.6377
-30.7272	-10.3167	68.0816	0.7711	-14.1496	-58.3274	0.0554	0.317	-1.2482	1.592	3.8166	8.9786	-0.8246	-48.1798	22.3747	0.1392	-0.3569	-1.8034	9.6828	-1.8078	-2.8194	-28.5037	5.7271	13.1677	-0.3839	-0.4786	-0.6531
-15.5559	7.6177	-6.9048	389.9345	3.1465	-101.4489	0.0699	0.3028	-1.2451	3.2366	-0.6356	10.1415	19.7185	-59.6386	27.5492	0.1389	-0.358	-1.7891	9.4531	-1.6896	-2.4639	-29.6376	8.4149	16.1239	-0.3981	-0.512	-0.636
-6.4632	5.7953	-1.5072	372.3545	21.9333	-30.8046	0.0997	0.2297	-1.2146	2.0795	5.6266	18.5016	-41.2195	-64.8468	16.1032	0.1392	-0.3569	-1.8034	9.554	-1.4032	-3.3591	-35.0574	11.2125	18.8201	-0.384	-0.4956	-0.6368
-5.4941	-0.074	9.7393	235.5519	3.7862	6.4365	0.0882	0.1856	-1.2428	2.2979	3.1422	12.3331	29.0632	-87.464	27.3418	0.0868	-0.3441	-1.7746	10.1439	-0.8236	-3.2857	-41.6955	13.633	19.1077	-0.4254	-0.4817	-0.6067
-0.3826	4.7392	7.9268	125.1553	19.6333	-26.7859	0.0588	0.193	-1.2174	1.8018	4.4985	16.1736	-21.6487	-94.7547	21.001	0.0603	-0.3913	-1.7567	11.9776	2.5434	-2.5782	-31.6918	13.9438	10.2363	-0.3984	-0.5282	-0.6352
0.6634	4.9716	8.7437	78.1894	23.5828	-28.3961	0.0867	0.1715	-1.1865	2.0241	4.2724	15.7818	10.6375	-112.901	29.5406	0.0611	-0.3432	-1.7884	15.4158	4.5146	-1.4277	-51.2855	12.6964	8.7544	-0.3698	-0.48	-0.622
1.5867	2.6745	9.0361	39.0926	45.2232	-17.7179	0.0886	0.1372	-1.2044	3.7317	1.7333	14.6831	9.6034	-128.8834	26.9145	0.0217	-0.3751	-1.7713	16.2185	0.6276	0.0078	-105.8343	5.4254	3.8825	-0.4252	-0.4655	-0.6076
-0.8566	1.5887	9.8933	33.5621	53.2578	-26.6196	0.1454	0.1565	-1.2374	2.0374	2.3575	16.2333	11.1369	-145.0753	18.8009	0.0209	-0.3181	-1.7179	15.3546	-0.9925	0.9429	-87.9931	-3.868	-17.1028	-0.3974	-0.4456	-0.6704
-2.1419	1.7564	8.5619	37.5123	38.6848	-27.1439	0.1188	0.1022	-1.223	2.9887	2.357	17.6686	27.498	-165.5589	15.0344	-0.0307	-0.3622	-1.7425	12.463	-0.5791	0.9506	-30.5627	-1.5574	-25.5724	-0.37	-0.4962	-0.6212
