1757_acc_x	1757_acc_y	1757_acc_z	1757_gyro_x	1757_gyro_y	1757_gyro_z	1757_mag_x	1757_mag_y	1757_mag_z	1758_acc_x	1758_acc_y	1758_acc_z	1758_gyro_x	1758_gyro_y	1758_gyro_z	1758_mag_x	1758_mag_y	1758_mag_z	1759_acc_x	1759_acc_y	1759_acc_z	1759_gyro_x	1759_gyro_y	1759_gyro_z	1759_mag_x	1759_mag_y	1759_mag_z
-1.5494	1.8752	9.5969	-0.6213	0.3048	-0.0239	1.2966	-0.2566	-1.0784	2.0632	2.6894	9.3838	-0.5182	0.5454	-0.0155	-0.1353	-0.851	-0.5093	9.5486	-0.3451	-0.3005	-0.6503	0.977	-0.0532	-0.6066	-0.7408	-0.0369
-1.1443	2.0482	9.8328	-0.6228	0.09	-0.0581	1.2402	-0.2551	-1.077	1.6653	2.5777	9.6018	-0.3322	0.5793	-0.1384	-0.0956	-0.9384	-0.5615	9.7137	-0.8712	-1.0183	-1.2694	0.6689	-0.0495	-0.6479	-0.7082	-0.0544
-1.1429	1.7038	9.8882	-0.4388	0.0591	0.0329	1.2398	-0.2586	-1.0629	2.1872	2.4642	9.7825	0.1629	0.6473	-0.199	-0.0434	-0.9371	-0.577	9.7821	-0.6368	-0.477	-1.3329	0.5479	-0.2015	-0.6054	-0.6428	-0.0575
-1.4419	2.2758	9.2597	-0.5307	0.1211	-0.0578	1.2684	-0.2558	-1.0777	1.8868	2.746	9.2103	-0.0196	0.86	-0.2586	-0.1215	-0.9233	-0.562	9.7227	-0.4624	-0.4774	-1.2691	0.7925	-0.1724	-0.6053	-0.6436	-0.042
-1.5477	2.565	9.7135	-0.5017	-0.2182	0.0592	1.2547	-0.2865	-1.0564	2.1818	2.7457	9.5562	-0.3013	0.6087	0.1086	-0.0696	-0.923	-0.5631	10.0739	-0.1734	-0.5893	-0.8048	0.6977	0.2848	-0.6057	-0.6768	-0.0248
-1.3195	2.22	9.6597	-0.6836	0.0883	0.0647	1.255	-0.2657	-1.088	2.1832	2.6894	9.6128	-0.2703	0.6097	0.0161	-0.0443	-0.925	-0.5349	9.8445	-0.2294	-0.2346	-0.1549	0.8195	0.557	-0.6333	-0.6602	-0.0413
-1.0865	2.7952	9.8939	-0.5627	-0.1566	0.0297	1.2547	-0.2692	-1.0739	1.8974	2.859	9.7202	-0.2698	0.6406	-0.0144	-0.0967	-0.9723	-0.5165	9.6001	-0.4051	-0.719	0.3392	1.0061	0.432	-0.6338	-0.6918	-0.0551
-1.3727	2.6805	9.8879	-0.4395	-0.0328	0.0007	1.2684	-0.2731	-1.0602	1.9519	2.5771	9.5512	-0.5181	0.5745	0.2314	-0.0829	-0.9843	-0.5588	9.7155	-0.6965	-0.8977	0.5852	1.0083	0.3089	-0.6059	-0.6922	-0.0395
-1.6148	2.3331	9.1998	-0.4108	-0.2775	-0.0953	1.2551	-0.283	-1.0705	2.3512	2.5762	9.3898	-0.6136	0.3296	-0.0178	-0.044	-0.9392	-0.5483	9.7213	-0.3465	-0.5368	0.6444	1.2305	-0.4565	-0.6339	-0.7096	-0.0232
-1.0943	2.7935	9.496	-0.5635	-0.311	0.0886	1.2119	-0.2716	-1.0588	2.1188	2.4639	9.2716	-0.3028	0.486	0.1074	-0.07	-0.9394	-0.5477	9.9009	-0.5207	-0.4144	0.3307	1.1464	-1.3107	-0.6338	-0.6926	-0.0396
-1.4341	2.2775	9.6577	-0.5628	-0.0627	-0.1221	1.2547	-0.2865	-1.0564	1.7191	2.0141	9.376	-0.3657	0.3939	0.0139	-0.0695	-0.9525	-0.5754	9.7202	-0.8116	-0.6586	0.1769	1.0831	-1.157	-0.6192	-0.6447	-0.0265
-0.974	2.45	9.781	-0.3477	-0.0945	0.0608	1.2818	-0.2459	-1.0673	2.1824	2.464	9.556	-0.2102	0.4584	-0.1703	-0.083	-0.9394	-0.5475	10.018	-0.5793	-0.4724	0.0255	1.1706	-0.7901	-0.6483	-0.7414	-0.0372
-1.2648	2.5641	9.5485	-0.3765	0.1816	0.096	1.2401	-0.2205	-1.1119	2.1847	2.5205	9.6693	-0.3337	0.4857	0.1073	-0.0965	-0.9417	-0.5185	9.5426	-0.5789	-0.6609	-0.3743	1.136	-0.544	-0.6192	-0.6438	-0.042
-1.7305	2.4478	9.1412	-0.4384	0.2459	-0.1787	1.2829	-0.2526	-1.0921	2.3032	2.6331	9.8417	-0.0861	0.5199	0.0462	-0.0576	-0.9414	-0.5193	9.5949	-0.5225	-1.019	-0.3713	1.3167	-0.2698	-0.6191	-0.6455	-0.011
-1.4991	2.2758	9.2586	-0.4377	0.3688	-0.1768	1.2547	-0.2519	-1.0914	2.477	2.6891	9.902	-0.2692	0.7011	0.1095	-0.0446	-0.9414	-0.5196	9.7158	-0.3478	-0.8363	-0.2163	1.1914	0.0664	-0.6334	-0.6781	-0.0094
-1.5575	2.2756	9.2006	-0.3449	0.3357	0.0678	1.2554	-0.2967	-1.0671	2.0674	2.4079	9.5535	-0.2079	0.642	-0.1068	-0.0705	-0.9262	-0.52	9.4819	-0.3467	-0.7209	0.0042	1.5558	0.4001	-0.6475	-0.6579	-0.0879
-1.6146	1.9885	9.1983	-0.4063	0.4608	-0.1447	1.2402	-0.307	-1.0245	1.8947	2.4083	9.5499	-0.2088	0.5802	-0.0458	-0.0445	-0.9709	-0.5319	9.3054	-0.1138	-0.6633	0.2525	1.4605	0.8275	-0.6193	-0.643	-0.0576
-1.2141	2.4477	9.208	-0.2835	0.5235	-0.2054	1.2405	-0.2342	-1.1085	2.1199	2.5203	9.3282	-0.3318	0.6103	-0.1997	-0.0572	-0.9699	-0.546	9.5456	-0.9269	-0.5426	0.0985	1.4597	0.8586	-0.6051	-0.6274	-0.0428
-1.5005	2.5628	9.2029	-0.5602	0.3368	-0.1156	1.2546	-0.2346	-1.1089	1.8382	3.0844	9.6625	-0.2382	0.6736	-0.3223	-0.0576	-1.0016	-0.5296	9.429	-0.1128	-0.3616	-0.2743	1.2773	0.6163	-0.5923	-0.7074	-0.0541
-1.378	2.3921	9.6024	-0.4078	0.3085	-0.2698	1.255	-0.2657	-1.088	1.8899	2.3517	9.3233	-0.395	0.5161	0.0151	-0.0703	-0.9404	-0.5334	9.5537	-0.6345	-0.0621	-0.3047	1.0902	0.9535	-0.6337	-0.6748	-0.0715
-1.4387	2.4488	9.431	-0.7447	0.1813	-0.0256	1.2692	-0.2833	-1.0708	1.9033	2.2959	9.9462	-0.3326	0.5486	-0.1387	-0.0437	-0.9381	-0.5626	9.6024	-0.4627	-0.5994	-0.5213	0.8425	1.1695	-0.6199	-0.6737	-0.0869
-1.4955	1.9319	9.4277	-0.4074	0.2761	-0.117	1.2688	-0.2869	-1.0567	2.4682	2.8578	9.5057	-0.1815	0.304	0.044	-0.044	-0.9392	-0.5483	9.7257	-0.8104	-0.359	-0.1505	1.1217	0.9223	-0.6339	-0.691	-0.0706
-1.3833	1.9313	9.3162	-0.3154	0.214	-0.0263	1.2536	-0.2798	-1.0317	2.4124	2.5763	9.5609	0.2493	0.1861	0.1665	-0.0575	-0.9863	-0.5307	9.8905	0.1743	-0.8907	-0.0613	0.9419	0.5866	-0.6057	-0.6582	-0.0722
-1.3259	1.8164	9.3169	-0.3157	0.1208	0.0642	1.226	-0.2547	-1.0766	2.5887	2.5761	9.7344	-0.0262	0.3675	0.0139	-0.0703	-0.9404	-0.5334	9.8974	-0.4053	-0.5936	0.3098	0.9723	0.7379	-0.6199	-0.7102	-0.0076
-1.4326	1.7608	9.7124	-0.4694	0.0589	0.033	1.2246	-0.2861	-1.0028	2.4053	2.5197	9.221	-0.4288	0.3001	0.1671	-0.0703	-0.9404	-0.5334	9.7279	-0.345	-0.1773	0.6193	1.0954	0.7668	-0.6615	-0.6752	-0.0716
-1.2702	2.3906	9.2635	-0.4368	0.2724	0.1897	1.2261	-0.272	-1.0591	2.2998	2.5203	9.6717	-0.0273	0.2759	-0.0487	-0.0701	-0.9547	-0.5467	9.5494	-0.6936	-0.3019	0.8932	0.917	0.3693	-0.634	-0.708	-0.0543
-1.386	2.6776	9.2057	-0.3765	0.1191	0.187	1.2684	-0.2904	-1.0427	1.8368	2.5774	9.5488	-0.2111	0.3962	-0.0476	-0.0569	-0.9689	-0.5604	9.7221	-0.2301	-0.4764	0.8002	0.9485	0.2473	-0.6199	-0.6916	-0.055
-1.2108	2.5633	9.3791	-0.3147	0.3058	0.0059	1.2814	-0.2495	-1.0533	2.236	3.2525	9.4446	-0.2422	0.395	0.0757	-0.0571	-0.9546	-0.547	9.6659	0.0031	-0.2968	0.8947	1.0693	0.4297	-0.6337	-0.6748	-0.0715
-1.4373	2.1044	9.4864	-0.3462	0.2142	-0.0569	1.2264	-0.2512	-1.0907	1.8361	2.9153	9.5491	-0.5503	0.4524	0.076	-0.0708	-0.9875	-0.516	9.5442	-0.3461	-0.5401	1.0245	1.0574	1.6213	-0.5781	-0.6918	-0.0393
-1.0984	2.3904	9.2669	-0.2849	0.3084	-0.2088	1.2672	-0.2145	-1.0879	2.2324	2.6326	9.2175	-0.3327	0.5482	-0.077	-0.0575	-0.971	-0.5317	9.6691	-0.4611	-0.1789	0.9953	1.0542	1.927	-0.5919	-0.675	-0.0557
-1.5563	2.161	9.257	-0.683	0.3055	-0.1157	1.2684	-0.2558	-1.0777	2.0048	3.1402	9.383	-0.1494	0.3966	0.0141	-0.0833	-0.9558	-0.5321	9.7738	-0.4062	-0.8954	1.0238	1.0278	1.5297	-0.6337	-0.6748	-0.0715
-1.3207	2.2197	9.6028	-0.162	0.3394	-0.178	1.2398	-0.2586	-1.0629	2.1254	2.8022	9.6117	-0.1165	0.5505	-0.0152	-0.0829	-0.9843	-0.5588	10.1901	-0.3483	-0.7077	0.5928	1.3044	1.2549	-0.6056	-0.659	-0.0567
-1.5466	2.5653	9.7704	-0.0372	0.5526	0.0398	1.2264	-0.2684	-1.0732	1.836	2.9717	9.5491	-0.1479	0.5189	0.077	-0.0565	-0.9525	-0.5757	10.0778	-0.463	-0.4109	0.3734	0.9999	1.0432	-0.6471	-0.6621	-0.0103
-1.7258	2.1616	9.3674	-0.4055	0.5837	-0.1427	1.2692	-0.266	-1.0883	1.8902	2.8588	9.3803	0.1577	0.248	-0.1104	-0.082	-0.9209	-0.5915	9.9018	-0.4043	-0.354	0.3096	1.0347	0.6154	-0.606	-0.6914	-0.055
-1.7215	2.3349	9.5955	-0.4966	0.6434	-0.0188	1.2684	-0.2731	-1.0602	1.8854	2.8022	9.1537	0.1274	0.3077	0.0751	-0.0962	-0.9406	-0.5328	9.6647	-0.462	-0.4186	0.0903	0.9475	0.097	-0.6467	-0.611	-0.0594
-1.7249	2.4491	9.4254	-0.4367	0.4914	-0.1441	1.2673	-0.2491	-1.0529	2.471	2.6889	9.6188	-0.1506	0.3046	0.0132	-0.0833	-0.9405	-0.5331	10.0661	-0.6399	-1.0706	-0.2484	0.7281	0.4966	-0.6196	-0.677	-0.0248
-1.3826	2.5634	9.3757	-0.3767	0.2137	-0.0261	1.2405	-0.2688	-1.0735	2.524	2.5196	9.3933	-0.2125	0.3032	0.1056	-0.0833	-0.9558	-0.5321	9.7836	-0.3459	-0.356	-0.0287	0.8455	1.0454	-0.6613	-0.6776	-0.025
-1.8348	2.1629	9.6494	-0.4081	0.0903	0.0026	1.2539	-0.2763	-1.0457	2.4161	2.5764	9.7308	-0.0865	0.4892	0.0459	-0.083	-0.9394	-0.5475	9.7759	-0.3476	-0.7753	0.1233	0.7572	0.7702	-0.6614	-0.6768	-0.0406
-1.4442	2.4476	9.1467	-0.5007	-0.0334	0.0316	1.2703	-0.2901	-1.0956	2.0032	2.6895	9.2693	-0.4558	0.6063	0.1701	-0.0566	-0.9678	-0.5747	9.7205	-0.4629	-0.5972	0.3682	0.7303	0.4944	-0.6061	-0.7092	-0.0231
-1.6699	2.3911	9.3126	-0.5933	-0.1882	0.0907	1.2264	-0.2512	-1.0907	1.8359	2.4083	9.492	-0.5527	0.2683	0.105	-0.0704	-0.9109	-0.521	9.191	-0.2289	-0.4863	0.6758	0.6396	0.4937	-0.6055	-0.6598	-0.0411
-1.2039	2.1627	9.7185	-0.4097	-0.2181	0.0896	1.2402	-0.2724	-1.0595	2.123	2.8021	9.4984	-0.3328	0.548	-0.0462	-0.1091	-0.9253	-0.5336	9.3679	-0.6361	-0.5446	0.7981	0.8905	-0.0581	-0.6199	-0.6916	-0.055
-1.1515	2.7361	9.4946	-0.255	-0.0022	0.0927	1.284	-0.2767	-1.0993	1.8966	2.6337	9.6633	-0.4561	0.5763	0.0773	-0.0703	-0.9404	-0.5334	9.6027	-0.5788	-0.5999	0.7345	0.8319	-0.3326	-0.6335	-0.6772	-0.0249
-1.4375	2.3916	9.4876	-0.4399	-0.1568	0.0907	1.2543	-0.2554	-1.0773	2.0581	2.8019	9.1573	-0.3329	0.547	0.1079	-0.0572	-0.925	-0.5347	9.2504	-0.4033	-0.4859	0.8914	0.8271	0.1864	-0.6476	-0.6936	-0.0241
-1.3317	2.1599	9.034	-0.3468	0.0281	0.0935	1.2249	-0.2307	-1.0694	2.1789	3.0273	9.4432	-0.5189	0.4841	-0.0162	-0.0692	-0.9066	-0.5784	9.6674	-0.1709	-0.2376	0.9252	0.9458	0.5525	-0.6058	-0.6939	-0.0084
-1.323	2.449	9.4901	-0.223	0.307	-0.0557	1.2699	-0.2763	-1.099	1.8915	2.8025	9.4369	-0.2413	0.457	-0.0162	-0.057	-0.9393	-0.548	9.5412	-0.463	-0.7203	0.8656	1.1591	0.6128	-0.606	-0.6914	-0.055
-1.4407	2.1612	9.3161	-0.407	0.369	-0.1768	1.2684	-0.3077	-1.0252	2.1235	2.5204	9.4982	-0.3344	0.4249	0.0142	-0.0956	-0.9384	-0.5615	9.6028	-0.6369	-0.6001	0.68	1.0354	0.6752	-0.6333	-0.6602	-0.0413
-1.3214	1.7025	9.5438	-0.284	0.3996	-0.1154	1.2692	-0.266	-1.0883	1.9022	2.9156	9.9468	-0.3973	0.3326	-0.0484	-0.0441	-0.9545	-0.5473	9.8408	-0.5208	-0.4754	0.7747	0.9383	1.2254	-0.6199	-0.6924	-0.0395
-1.5476	2.4501	9.713	-0.3155	0.4958	-0.4817	1.2692	-0.2833	-1.0708	2.235	2.5201	9.3307	-0.0909	0.1224	-0.1427	-0.122	-0.955	-0.5456	9.4848	-0.6366	-0.6023	0.5848	0.4813	0.9838	-0.6339	-0.691	-0.0706
-1.6057	2.0478	9.6534	-0.2834	0.5232	-0.1747	1.2413	-0.2791	-1.0842	1.8873	2.4643	9.2101	-0.212	0.3632	0.322	-0.0315	-0.9709	-0.5322	9.7239	-0.5203	-0.4177	0.1835	0.4496	0.9548	-0.6061	-0.6905	-0.0705
-1.3152	2.3933	9.8878	-0.1909	0.5533	-0.0825	1.2261	-0.272	-1.0591	1.8895	2.5771	9.3235	-0.3693	0.1171	0.1345	-0.0561	-0.9361	-0.5911	9.9011	-0.5787	-0.4147	0.5232	0.3877	1.1373	-0.6474	-0.6774	-0.025
-1.7226	2.2772	9.5384	-0.13	0.4607	-0.0228	1.2409	-0.2653	-1.0876	2.1285	2.408	9.7246	-0.0917	0.0897	0.1652	-0.0833	-0.9405	-0.5331	10.0167	-0.9863	-0.5939	0.2735	0.1131	0.9867	-0.6059	-0.6744	-0.0713
-1.2052	2.4496	9.6629	-0.2836	0.4925	-0.1752	1.2127	-0.2818	-1.0694	2.0067	2.7459	9.4393	-0.214	0.1808	0.0736	-0.0698	-0.9536	-0.5611	9.607	-0.5197	-0.36	0.1186	0.2693	0.6197	-0.6201	-0.6891	-0.1016
-1.3283	2.0457	9.2041	-0.1301	0.4296	0.0074	1.2257	-0.2928	-1.0275	2.0566	2.3512	9.0437	-0.1198	0.3046	0.0749	-0.0839	-0.958	-0.5034	9.959	-0.5791	-0.4735	0.18	0.4253	0.3437	-0.6197	-0.6754	-0.0559
-1.6136	2.2759	9.2564	-0.5619	0.0913	-0.1502	1.2676	-0.2283	-1.0845	2.5258	3.4773	9.5641	-0.2425	0.3648	0.0137	-0.0443	-0.9852	-0.5453	9.7247	-0.4039	-0.3573	0.4552	0.4616	-0.1159	-0.605	-0.6283	-0.0273
-1.8369	2.0475	9.5352	-0.4984	0.3357	0.0069	1.2691	-0.2487	-1.1058	2.4076	2.5761	9.3343	-0.4904	0.3005	-0.018	-0.0575	-0.971	-0.5317	9.7194	0.0017	-0.5952	0.2428	0.9512	-0.2092	-0.6189	-0.6285	-0.0273
-0.9189	2.4494	9.6684	-0.2551	0.1546	-0.1808	1.2409	-0.2826	-1.0701	1.6559	3.0844	9.2058	-0.1834	0.1509	0.0116	-0.071	-0.9732	-0.5027	9.668	-0.4613	-0.2388	0.5556	1.099	0.4002	-0.6196	-0.6584	-0.0723
-1.2558	2.4511	10.0029	-0.2849	0.0891	0.1556	1.2539	-0.259	-1.0632	2.2373	2.5765	9.444	-0.2136	0.2116	0.043	-0.07	-0.9394	-0.5477	10.3063	-0.5233	-0.8261	0.3117	1.2482	0.6755	-0.6335	-0.6772	-0.0249
-0.9846	1.8157	9.2098	-0.4083	0.1224	-0.1195	1.2402	-0.2724	-1.0595	2.2947	2.6891	9.4453	-0.0579	0.3058	0.0133	-0.0572	-0.9097	-0.5357	9.7852	-0.578	-0.297	0.4081	1.4895	1.0407	-0.634	-0.708	-0.0543
-1.3826	2.5634	9.3757	-0.1631	-0.0018	0.0924	1.2543	-0.2727	-1.0598	1.8478	2.5214	10.0585	-0.2117	0.3361	-0.2332	-0.0436	-0.9677	-0.575	9.7195	-0.5212	-0.6573	0.3756	1.2131	1.1339	-0.6472	-0.6791	0.0061
-1.2712	2.2754	9.2062	-0.3164	0.0603	-0.0288	1.2818	-0.2632	-1.0499	1.8913	2.9151	9.437	0.0982	0.431	-0.0778	-0.0308	-0.9534	-0.5619	9.7737	0.1167	-0.8332	0.3415	0.9087	0.9826	-0.6192	-0.6447	-0.0265
-1.4387	2.4488	9.431	-0.2849	0.2145	-0.057	1.2696	-0.2971	-1.0674	1.9416	2.9147	9.0984	-0.3004	0.6418	-0.261	-0.0833	-0.9558	-0.5321	9.9013	-0.6949	-0.4152	-0.6485	0.5699	0.8656	-0.6194	-0.66	-0.0412
-1.3801	2.1044	9.4875	-0.5604	0.2747	-0.0553	1.2822	-0.277	-1.0464	1.8938	2.8589	9.5502	-0.4844	0.7613	-0.1367	-0.0694	-0.9372	-0.5764	10.0726	-0.5804	-0.7109	-1.0224	0.4828	0.2867	-0.6334	-0.6781	-0.0094
-1.1567	2.2179	9.2082	-0.3164	0.1853	-0.2108	1.255	-0.2484	-1.1055	2.2323	2.689	9.2175	-0.4544	0.6995	-0.014	-0.0696	-0.923	-0.5631	9.3672	-0.3457	-0.5434	-1.3295	0.6346	0.287	-0.6474	-0.6774	-0.025
-1.7811	2.5068	9.4814	-0.2544	0.1525	0.0032	1.2543	-0.2554	-1.0773	1.8938	2.8589	9.5502	-0.0544	0.582	-0.0148	-0.0962	-0.9406	-0.5328	9.9652	-0.8683	-0.1752	-0.9862	0.5971	1.0806	-0.6478	-0.6912	-0.0707
-1.4408	2.3335	9.3168	-0.3784	-0.0318	-0.0608	1.2402	-0.2551	-1.077	2.0067	2.7459	9.4393	0.0081	0.6437	0.0475	-0.0707	-0.9721	-0.517	10.1333	0.1171	-0.5271	-0.5524	0.6254	1.4457	-0.6189	-0.6285	-0.0273
-1.4342	2.4498	9.6584	-0.2862	-0.0635	0.0611	1.2272	-0.2614	-1.1013	2.2379	2.9145	9.5009	-0.0859	0.5211	-0.1388	-0.0313	-0.9851	-0.5456	9.7782	-0.4052	-0.6557	-0.4268	0.5906	1.9038	-0.6056	-0.659	-0.0567
-1.7283	2.4483	9.2549	-0.4379	0.1191	0.1565	1.2684	-0.2731	-1.0602	2.3577	2.3512	9.6728	-0.1774	0.6117	-0.1071	-0.0832	-0.9854	-0.5444	9.7244	-0.2877	-0.3568	-0.3644	0.4653	2.2098	-0.6475	-0.6766	-0.0405
-1.3804	2.5639	9.4894	-0.5298	0.1812	0.0658	1.2405	-0.2688	-1.0735	2.1838	2.3514	9.6125	-0.4872	0.546	-0.0463	-0.0962	-0.9253	-0.5338	9.8432	-0.5784	-0.3559	-0.1216	0.4113	1.5979	-0.6335	-0.6586	-0.0723
-1.6114	2.2764	9.3701	-0.3478	-0.0002	-0.1217	1.2688	-0.2523	-1.0917	2.1223	2.5204	9.4415	-0.3962	0.4241	0.0142	-0.0706	-0.9415	-0.519	10.1333	-0.8126	-0.6509	0.1815	0.2982	0.8027	-0.6196	-0.677	-0.0248
-1.094	2.4488	9.4945	-0.3484	-0.1549	-0.0322	1.2413	-0.2964	-1.0667	1.8352	2.7463	9.4923	-0.4253	0.5763	0.139	-0.0566	-0.9229	-0.5634	9.8367	-0.6379	-0.7155	0.5456	0.0624	0.069	-0.6199	-0.7102	-0.0076
-1.4362	2.1621	9.5435	-0.4066	0.2426	0.1278	1.2402	-0.2724	-1.0595	2.0679	2.746	9.6104	-0.4861	0.638	-0.0454	-0.0701	-0.9547	-0.5467	9.7771	-0.4055	-0.7157	0.574	0.0981	-0.4202	-0.6476	-0.6936	-0.0241
-1.1545	2.3333	9.3224	-0.468	0.2112	0.1581	1.2261	-0.272	-1.0591	2.185	2.3515	9.6691	-0.6417	0.5441	-0.0465	-0.0828	-0.969	-0.5598	9.6604	-0.986	-0.7203	0.7281	0.0678	-0.3901	-0.6609	-0.6453	-0.0267
-1.5498	2.3922	9.5991	-0.5306	0.0269	0.1246	1.2692	-0.266	-1.0883	2.123	2.8021	9.4984	-0.1181	0.4281	-0.0472	-0.0566	-0.9076	-0.5644	9.8414	-0.2882	-0.4145	0.4239	0.4003	-0.1155	-0.6336	-0.6756	-0.056
-1.5499	2.5071	9.5996	-0.439	0.0598	-0.0284	1.2551	-0.283	-1.0705	2.3505	2.3509	9.3329	-0.4276	0.3925	0.1063	-0.0571	-0.9546	-0.547	9.7782	-0.4052	-0.6557	0.5227	0.5751	0.7696	-0.6192	-0.6625	0.0054
-1.4376	2.4491	9.4878	-0.3468	0.122	-0.0584	1.2688	-0.2696	-1.0742	2.2915	2.4636	9.2752	-0.4917	0.2075	0.1353	-0.0831	-0.9701	-0.5455	9.542	-0.3466	-0.6599	0.5553	0.6338	1.0137	-0.6605	-0.6307	0.0035
-1.6127	2.5059	9.3142	-0.5308	0.184	-0.1795	1.2409	-0.2653	-1.0876	2.0068	2.6896	9.4392	0.0326	0.1526	0.166	-0.0572	-0.925	-0.5347	9.7284	-0.5773	-0.1783	0.339	0.7892	0.7081	-0.6615	-0.6938	-0.0242
-1.6104	2.449	9.4276	-0.5304	0.183	-0.0875	1.2417	-0.2755	-1.0983	2.0635	2.5204	9.3837	-0.059	0.2144	-0.0801	-0.0829	-0.9241	-0.5485	10.0136	-0.1154	-0.6501	-0.091	0.9087	0.8314	-0.6331	-0.6449	-0.0266
-1.0942	2.6212	9.4952	-0.255	0.2167	-0.2411	1.2543	-0.2554	-1.0773	2.2957	2.1258	9.4448	-0.2421	0.3954	0.014	-0.057	-0.9393	-0.548	9.899	-0.6373	-0.5347	-0.3388	0.6615	0.9863	-0.6475	-0.6758	-0.056
-1.6069	2.1625	9.597	-0.3162	0.2475	-0.2711	1.2974	-0.2841	-1.0715	2.647	2.238	9.7354	-0.1805	0.3666	-0.1404	-0.0445	-0.9709	-0.5319	9.3163	-0.5181	-0.1259	-0.2755	0.6898	1.2304	-0.6338	-0.6926	-0.0396
-1.2106	2.1612	9.3774	-0.3461	0.2453	-0.087	1.2707	-0.2865	-1.1096	1.8342	2.6336	9.4356	-0.3312	0.6707	-0.045	-0.0827	-0.9537	-0.5608	9.8937	-0.2318	-0.7726	-0.3049	0.6869	1.5056	-0.6473	-0.6604	-0.0413
-1.2724	2.3901	9.1498	-0.469	0.2143	-0.1178	1.2547	-0.2692	-1.0739	1.8954	2.6336	9.6067	-0.2704	0.6089	0.1394	-0.0824	-0.9526	-0.5752	9.4244	-0.9854	-0.7247	-0.3662	0.6239	1.6589	-0.6194	-0.66	-0.0412
-1.4956	1.9894	9.4279	-0.2839	0.3681	-0.0545	1.2688	-0.2523	-1.0917	2.0668	2.6896	9.5537	-0.2694	0.6716	-0.0757	-0.0697	-0.9383	-0.5621	10.1371	-1.0441	-0.4721	-0.5177	0.7734	1.9338	-0.6193	-0.6617	-0.0101
-1.4992	2.3907	9.2591	-0.5307	0.1211	-0.0578	1.2543	-0.2381	-1.0948	2.4088	2.5761	9.391	-0.2992	0.7628	-0.0132	-0.0568	-0.9535	-0.5614	9.4811	-0.4631	-0.7813	-0.2975	0.9833	2.4211	-0.6198	-0.6932	-0.024
-1.3266	2.678	9.3205	-0.7766	0.0596	-0.1501	1.2829	-0.2699	-1.0746	1.886	2.5206	9.1535	-0.0532	0.6451	-0.2916	-0.0569	-0.9689	-0.5604	9.4858	-0.5783	-0.5422	-1.0051	0.8537	2.8827	-0.5917	-0.6588	-0.0566
-1.3208	2.4495	9.6038	-0.6227	0.0582	0.0334	1.2535	-0.2625	-1.0492	2.6406	3.0264	9.5095	-0.2703	0.5806	-0.2308	-0.0838	-0.9273	-0.5054	9.7176	-0.6379	-0.7776	-1.2229	0.8876	2.486	-0.6056	-0.659	-0.0567
-1.9527	2.2197	9.4769	-0.5919	0.1519	-0.0878	1.2539	-0.2763	-1.0457	2.0627	2.2951	9.3268	-0.1468	0.5818	-0.169	-0.0707	-0.9721	-0.517	9.4226	-0.2304	-0.7215	-1.6625	0.4354	1.6951	-0.5918	-0.6758	-0.0402
-1.8457	1.8733	9.0797	-0.1333	0.0008	-0.1223	1.2264	-0.2684	-1.0732	2.0023	2.5204	9.2125	-0.2361	0.8562	-0.1047	-0.083	-0.9394	-0.5475	9.66	-0.8117	-0.7196	-1.3592	0.3529	0.8998	-0.6058	-0.6752	-0.0558
-1.2139	2.2179	9.2071	-0.2872	-0.1546	-0.0324	1.2524	-0.2385	-1.0419	2.2368	2.8582	9.4442	-0.3308	0.7011	-0.0138	-0.0833	-0.9558	-0.5321	9.9018	-0.4043	-0.354	-1.024	0.1444	0.4717	-0.6333	-0.661	-0.0257
-1.387	2.505	9.1481	-0.5618	-0.0341	0.0624	1.2684	-0.2731	-1.0602	1.8848	2.5205	9.0968	-0.2089	0.5796	0.0467	-0.0446	-0.9862	-0.5309	9.5379	0.0011	-0.8381	-0.6508	0.1707	1.0203	-0.6477	-0.6928	-0.0397
-1.3286	2.4478	9.2058	-0.44	-0.1878	0.1209	1.2539	-0.259	-1.0632	2.1267	2.7459	9.6683	-0.4573	0.4843	0.0764	-0.0569	-0.9689	-0.5604	9.8467	-0.6938	-0.1766	-0.1168	0.7749	1.9324	-0.6191	-0.6081	-0.1058
-1.3748	2.5077	9.7735	-0.4095	-0.062	-0.1225	1.2406	-0.2861	-1.056	2.007	2.5769	9.4391	-0.5198	0.4224	0.0449	-0.0833	-0.9405	-0.5331	9.8361	-0.4056	-0.7146	0.2291	0.9496	2.9083	-0.6331	-0.644	-0.0421
-1.5048	2.3895	8.9748	-0.4385	0.1209	0.0032	1.2676	-0.2456	-1.067	1.8369	3.1407	9.6059	-0.1794	0.4582	-0.0778	-0.0571	-0.9546	-0.547	9.6625	-0.4625	-0.5384	0.2026	0.91	3.7644	-0.6198	-0.6746	-0.0714
-1.3865	1.7583	9.1449	-0.6836	0.2133	-0.1172	1.2532	-0.2487	-1.0526	1.8847	2.5769	9.0969	-0.4261	0.4859	-0.1085	-0.0569	-0.9842	-0.5593	9.9622	-0.0554	-0.2316	0.357	0.786	3.9784	-0.6338	-0.6926	-0.0396
-1.2646	2.3918	9.5478	-0.4975	0.4583	0.0395	1.2547	-0.2692	-1.0739	1.723	2.5213	9.603	-0.4263	0.4853	-0.0161	-0.0832	-0.9252	-0.5341	9.6601	-0.3469	-0.6577	-0.1068	1.0663	3.3369	-0.6195	-0.6779	-0.0093
-1.4914	2.3924	9.657	-0.3463	0.1831	-0.0267	1.2684	-0.2731	-1.0602	2.3545	2.7454	9.5598	-0.2721	0.4568	-0.0471	-0.044	-0.9392	-0.5483	9.7253	-0.6362	-0.3583	0.1655	1.0461	2.4191	-0.6194	-0.6608	-0.0257
-0.9749	2.1625	9.723	-0.3462	0.1828	0.004	1.2409	-0.2826	-1.0701	2.299	2.2949	9.6149	-0.147	0.5812	-0.0765	-0.0446	-0.9414	-0.5196	9.7834	-1.2176	-0.4795	0.406	1.1829	1.1033	-0.647	-0.6442	-0.0422
-1.5405	1.8772	10.0517	-0.2848	0.2456	-0.0872	1.2547	-0.2865	-1.0564	2.0632	2.6894	9.3838	-0.3955	0.4849	0.1073	-0.057	-0.9393	-0.548	9.722	-0.6369	-0.538	0.4018	0.8184	0.8606	-0.6333	-0.6602	-0.0413
-1.4386	2.3914	9.4307	-0.1315	0.1834	0.034	1.1837	-0.3055	-1.0231	2.2401	3.0273	9.6143	-0.3648	0.4556	-0.0471	-0.0829	-0.9843	-0.5588	9.3043	-0.5789	-0.7851	-0.0921	0.8176	0.7707	-0.634	-0.6893	-0.1017
-1.3206	2.1048	9.6023	-0.4384	0.152	-0.0269	1.2547	-0.2692	-1.0739	2.1855	2.7458	9.7261	-0.1479	0.4904	-0.2624	-0.0706	-0.9568	-0.518	9.5409	-0.8117	-0.7817	-0.2451	0.7527	1.0772	-0.6333	-0.6415	-0.0887
-1.2075	2.564	9.5496	-0.5615	0.1213	-0.0884	1.2253	-0.2617	-1.0485	2.1944	2.5209	10.1224	-0.2103	0.458	-0.1087	-0.0445	-0.9709	-0.5319	9.6617	-0.5789	-0.5988	-0.5825	0.9656	1.0774	-0.6338	-0.6739	-0.087
-1.5477	2.565	9.7135	-0.5616	-0.0033	0.0629	1.2539	-0.2936	-1.0282	2.1206	2.7457	9.3851	-0.5794	0.6046	0.2008	-0.0826	-0.923	-0.5628	9.6079	-0.4614	-0.2999	-0.5788	1.1447	1.5044	-0.6335	-0.6772	-0.0249
-1.846	2.2179	9.0811	-0.6216	0.3369	-0.1461	1.255	-0.2484	-1.1055	2.1822	2.5767	9.5561	-0.2716	0.4883	-0.1701	-0.0821	-0.9515	-0.5895	9.5416	-0.6372	-0.721	-0.4843	0.9861	2.0855	-0.6327	-0.6116	-0.0438
-1.8364	2.7945	9.5952	-0.3776	0.1536	-0.1498	1.226	-0.2374	-1.0941	2.237	2.7455	9.4441	-0.3643	0.5155	0.1692	-0.0566	-0.9076	-0.5644	9.7147	-0.8129	-0.9581	-0.4212	0.7662	2.6671	-0.6055	-0.6606	-0.0256
-1.548	2.9671	9.7152	-0.5615	0.1213	-0.0884	1.2535	-0.2279	-1.0841	2.287	2.9141	9.1056	-0.3016	0.5782	0.0774	-0.083	-0.9394	-0.5475	9.4244	-0.5206	-0.6628	-0.5126	0.4534	3.3107	-0.6339	-0.691	-0.0706
-1.6733	2.4478	9.1423	-0.3781	-0.0328	0.0312	1.2539	-0.259	-1.0632	2.0619	2.7457	9.3272	-0.0844	0.6433	-0.0759	-0.0964	-0.9712	-0.5308	9.8967	-0.5797	-0.6543	-0.5408	0.4482	3.7999	-0.619	-0.6276	-0.0429
-1.4344	2.6796	9.6594	-0.3776	0.1222	-0.0889	1.2539	-0.2244	-1.0982	1.8929	2.6899	9.4935	-0.1771	0.6421	-0.076	-0.0703	-0.9404	-0.5334	9.6613	-0.4047	-0.598	-0.3602	0.6125	2.7593	-0.6062	-0.7076	-0.0541
-1.4911	1.8754	9.6549	-0.531	-0.0346	0.1236	1.2696	-0.2971	-1.0674	1.7812	2.1832	9.6039	-0.2709	0.549	-0.077	-0.0695	-0.9525	-0.5754	9.7233	-0.7528	-0.4786	-0.5561	0.3221	1.2026	-0.6055	-0.6598	-0.0411
-1.3758	2.45	9.7164	-0.5312	-0.0964	0.1533	1.2264	-0.2512	-1.0907	1.8323	3.0279	9.3793	-0.3008	0.6396	0.0781	-0.044	-0.9392	-0.5483	10.0228	-0.7525	-0.2335	-0.1955	0.0929	-0.1729	-0.6473	-0.6596	-0.0569
-1.4355	2.6793	9.6025	-0.3456	0.0871	0.3091	1.2703	-0.2728	-1.113	1.8325	3.5349	9.4363	-0.2408	0.5169	0.2002	-0.0963	-0.9559	-0.5318	9.1938	-0.9837	-0.4296	0.0825	0.2172	-0.2662	-0.6613	-0.659	-0.0725
-1.5501	2.7943	9.6008	-0.4386	0.0273	0.1244	1.281	-0.2357	-1.0567	2.2896	2.8015	9.2188	-0.3375	0.1794	0.0426	-0.0698	-0.9689	-0.5601	9.4265	-0.462	-0.5428	0.3929	0.2454	0.0687	-0.6055	-0.6606	-0.0256
-1.4969	2.2763	9.3723	-0.1013	0.2475	-0.1797	1.268	-0.2593	-1.0636	1.8942	2.6336	9.5501	-0.1799	0.4269	0.0144	-0.0697	-0.9383	-0.5621	9.835	-0.8707	-0.8363	0.5188	0.1478	0.68	-0.6194	-0.66	-0.0412
-1.4399	2.5635	9.3746	-0.2522	0.3966	0.1605	1.255	-0.2484	-1.1055	2.1287	2.3516	9.7246	-0.3046	0.3624	0.2603	-0.0704	-0.9558	-0.5324	9.6125	-0.5185	-0.0605	1.0189	0.6645	1.1647	-0.6753	-0.6762	-0.0562
-1.3858	2.3904	9.2044	-0.2841	0.4624	-0.237	1.2692	-0.3006	-1.0533	2.1806	2.7457	9.4996	-0.1809	0.3361	-0.1715	-0.071	-1.0181	-0.514	9.1904	-0.4615	-0.5472	1.4223	0.7852	1.4683	-0.661	-0.6444	-0.0422
-1.1492	2.6791	9.6081	-0.3142	0.4295	-0.0535	1.2253	-0.2444	-1.0659	2.2421	2.5767	9.6705	-0.7078	0.2346	0.2587	-0.0956	-0.9231	-0.5625	9.7769	-0.2893	-0.7152	1.3956	1.2429	1.5579	-0.6061	-0.6905	-0.0705
-1.5048	2.447	8.9751	-0.1918	0.4932	-0.2061	1.2394	-0.2621	-1.0488	2.5873	2.6887	9.6779	-0.0592	0.2132	0.1048	-0.0957	-0.9538	-0.5605	9.8971	-0.2891	-0.5931	1.3654	1.0243	1.987	-0.6193	-0.643	-0.0576
-1.6092	2.2194	9.4835	-0.3454	0.4311	-0.2067	1.2562	-0.2897	-1.0952	1.8868	2.746	9.2103	-0.213	0.2722	0.167	-0.0701	-0.9547	-0.5467	10.0139	-0.6964	-0.7125	0.7482	0.9921	1.9282	-0.6332	-0.6432	-0.0576
-1.3854	1.7585	9.2018	-0.3754	0.3977	0.0075	1.2543	-0.2554	-1.0773	1.721	2.2959	9.4895	-0.3072	0.1483	0.1656	-0.0949	-0.9659	-0.6026	9.6002	-0.4631	-0.7192	0.2144	0.4806	0.924	-0.6057	-0.676	-0.0403
-1.8362	2.5647	9.5942	-0.1914	0.4293	0.0075	1.2558	-0.2932	-1.0811	1.8938	2.8589	9.5502	-0.3061	0.2115	-0.1112	-0.07	-0.9394	-0.5477	9.245	-0.9274	-0.8476	-0.0417	0.3425	-0.6026	-0.6193	-0.643	-0.0576
-0.9231	2.1038	9.4396	-0.5899	0.4593	-0.0828	1.2684	-0.2731	-1.0602	2.4199	2.4639	9.9006	-0.1814	0.3048	-0.0793	-0.0711	-0.9283	-0.4913	9.7863	-0.5777	-0.2371	-0.0163	0.1046	-1.2433	-0.6334	-0.6594	-0.0568
-1.4432	2.5053	9.2038	-0.3144	0.5552	-0.2968	1.2692	-0.3006	-1.0533	1.606	2.8594	9.5442	-0.2415	0.4558	0.1688	-0.0704	-0.9711	-0.5314	9.8338	-0.348	-0.8341	-0.2033	-0.0475	-1.3947	-0.6052	-0.6266	-0.0583
-1.6115	2.4487	9.3708	-0.498	0.4597	-0.0831	1.2398	-0.2586	-1.0629	2.1222	2.5767	9.4416	-0.1775	0.6115	-0.0763	-0.0577	-0.9721	-0.5173	9.5482	-0.1709	-0.2997	-0.0757	0.069	-0.7845	-0.6056	-0.659	-0.0567
-1.2624	2.3348	9.6613	-0.3455	0.3375	-0.0855	1.2261	-0.272	-1.0591	2.3548	2.6327	9.5597	-0.2131	0.2427	-0.0183	-0.057	-0.9393	-0.548	9.4263	-0.8688	-0.6044	-0.0056	0.3947	0.2834	-0.6469	-0.6459	-0.0111
-1.6125	2.2762	9.3132	-0.1604	0.5852	-0.174	1.1978	-0.2539	-1.0759	2.1839	2.9148	9.6696	-0.2727	0.4253	0.0759	-0.0703	-0.9404	-0.5334	9.6629	-0.6368	-0.5391	0.3715	0.7861	1.0137	-0.6749	-0.6625	-0.0104
-1.4476	2.4469	8.9762	-0.1928	0.2146	-0.0266	1.2967	-0.2912	-1.0434	2.2901	2.5199	9.2186	-0.2422	0.395	0.0757	-0.0698	-0.9087	-0.5497	9.7702	-0.7557	-1.1365	0.3142	0.8707	1.6859	-0.6474	-0.6588	-0.0724
-1.2095	2.2764	9.4347	-0.3144	0.3987	-0.054	1.2409	-0.2653	-1.0876	2.0694	2.577	9.6669	-0.1512	0.2727	0.1978	-0.0569	-0.924	-0.549	9.8976	-0.5214	-0.5941	0.4678	0.8413	1.6243	-0.6194	-0.6422	-0.0731
-1.3822	2.0465	9.3736	-0.2227	0.3373	-0.0245	1.2703	-0.2901	-1.0956	1.7792	2.5775	9.5476	-0.3977	0.3015	0.013	-0.083	-0.9548	-0.5465	9.7775	-1.0446	-0.7783	0.6538	0.778	1.899	-0.6194	-0.6608	-0.0257
-1.2659	2.6213	9.4919	-0.3771	0.0583	0.1247	1.2543	-0.2554	-1.0773	2.5189	2.0687	9.1098	-0.3054	0.272	0.0127	-0.0575	-0.971	-0.5317	9.8897	-0.407	-1.013	0.5267	0.5984	1.4725	-0.6472	-0.6426	-0.0732
-1.2084	2.2192	9.4913	-0.4681	0.243	0.0666	1.2547	-0.2519	-1.0914	2.2985	2.5765	9.6151	-0.3959	0.4544	0.0761	-0.0826	-0.923	-0.5628	9.7807	-0.5209	-0.5364	0.3075	0.3867	1.1686	-0.6192	-0.6447	-0.0265
-1.4981	2.4484	9.3162	-0.3471	0.1541	-0.1805	1.2402	-0.2724	-1.0595	1.8941	2.6899	9.5501	-0.3669	0.3015	0.0746	-0.0958	-0.9691	-0.5595	9.6633	-0.811	-0.5399	-0.1597	0.3629	0.3452	-0.6332	-0.6619	-0.0102
-1.2623	2.2774	9.661	-0.3466	0.1213	0.003	1.2268	-0.2649	-1.0873	1.8916	2.7461	9.4369	-0.2416	0.4556	0.1996	-0.0702	-0.9251	-0.5344	9.6096	-0.6935	-0.2409	-0.191	0.581	-0.053	-0.6336	-0.6756	-0.056
-1.7789	2.5647	9.5953	-0.5304	0.183	-0.0875	1.2413	-0.2618	-1.1017	1.6638	2.7467	9.5453	-0.4585	0.3921	0.1063	-0.0833	-0.9558	-0.5321	10.258	-0.8694	-0.2895	0.4283	0.7024	0.2498	-0.6616	-0.6922	-0.0553
-1.898	2.6787	9.3662	-0.2545	0.1839	-0.0576	1.2688	-0.2696	-1.0742	1.9046	2.9157	10.0601	-0.3031	0.4562	-0.0163	-0.0826	-0.923	-0.5628	9.6606	-0.5792	-0.6587	0.7101	1.0059	0.5835	-0.6062	-0.7084	-0.0386
-1.3263	2.3334	9.319	-0.4373	0.3992	-0.1456	1.2413	-0.2791	-1.0842	1.8879	2.8023	9.267	-0.2086	0.6099	0.1087	-0.0567	-0.9382	-0.5624	9.7753	-1.0451	-0.8981	0.8664	1.0645	0.8883	-0.6056	-0.659	-0.0567
-1.6078	1.875	9.5389	-0.1922	0.3693	-0.1161	1.2703	-0.2901	-1.0956	1.9438	2.4078	9.1546	-0.1494	0.3966	0.0141	-0.0959	-0.9395	-0.5472	9.7217	-0.9856	-0.5994	1.0222	1.0619	1.1934	-0.6337	-0.6748	-0.0715
-1.5498	2.4497	9.5993	-0.1619	0.2765	-0.0564	1.2825	-0.2735	-1.0605	1.7781	2.5211	9.4909	-0.0881	0.3661	0.1063	-0.0566	-0.9229	-0.5634	9.8949	-0.2896	-0.713	0.7447	0.9366	1.3784	-0.6332	-0.6432	-0.0576
-1.4408	2.276	9.3166	-0.1914	0.3983	0.0377	1.2543	-0.29	-1.0423	1.71	2.9715	9.037	-0.1503	0.3062	-0.2334	-0.0824	-0.9373	-0.5762	9.6628	-1.0435	-0.6008	-0.0259	0.8714	1.5037	-0.5919	-0.675	-0.0557
-1.4924	2.1624	9.5992	-0.3774	0.0904	0.0026	1.2547	-0.2865	-1.0564	1.7191	2.6338	9.4332	-0.4263	0.4851	0.0148	-0.0569	-0.924	-0.549	9.7185	-0.5796	-0.7175	-0.7062	0.8106	1.2314	-0.619	-0.6098	-0.0748
-1.1581	2.6198	9.153	-0.2871	-0.1236	-0.0625	1.2551	-0.3003	-1.053	2.1219	2.7457	9.4417	-0.3605	0.7933	-0.1054	-0.0701	-0.97	-0.5457	10.0087	-0.3489	-0.9506	-1.2026	0.7215	0.8057	-0.661	-0.6444	-0.0422
-1.4353	2.3921	9.6013	-0.3469	0.0284	0.0628	1.2696	-0.2971	-1.0674	2.4062	2.6887	9.2778	-0.3303	0.7612	0.1717	-0.083	-0.9548	-0.5465	9.5508	-0.8095	-0.2425	-1.1755	0.5425	0.3786	-0.6196	-0.6584	-0.0723
-1.1028	2.2171	9.0387	-0.623	-0.0661	0.1541	1.2543	-0.2554	-1.0773	2.0701	2.8587	9.7238	-0.5159	0.7288	0.0788	-0.0959	-0.9844	-0.5585	9.5415	-0.1143	-0.6589	-0.9297	0.5449	0.2249	-0.6473	-0.6596	-0.0569
-1.552	2.3917	9.4854	-0.5309	0.0904	-0.0583	1.268	-0.2593	-1.0636	2.1268	2.6896	9.6682	-0.4832	0.8535	-0.1666	-0.0959	-0.9242	-0.5482	10.1316	-0.5805	-0.7098	-0.6549	0.1785	0.2562	-0.6752	-0.6779	-0.0251
-1.203	2.4501	9.7766	-0.2557	-0.0316	-0.0304	1.2253	-0.2617	-1.0485	2.0128	2.7462	9.7225	-0.2089	0.5798	0.0159	-0.0836	-0.9569	-0.5178	9.5515	-0.1702	-0.12	-0.2495	0.4818	0.6506	-0.6192	-0.6447	-0.0265
-1.4397	2.3912	9.3739	-0.2872	-0.0918	-0.154	1.268	-0.242	-1.0811	2.2363	2.4638	9.3872	-0.0531	0.6746	-0.1064	-0.0965	-0.9865	-0.5298	9.6565	-0.2315	-0.8369	0.3095	0.5071	1.3514	-0.6476	-0.6936	-0.0241
-1.6129	2.7931	9.3154	-0.5929	-0.0642	0.0007	1.2532	-0.2487	-1.0526	2.1226	2.9711	9.4985	-0.1438	0.8265	-0.0741	-0.0828	-0.969	-0.5598	9.5508	-0.3446	-0.1806	0.4318	0.6337	0.9836	-0.6332	-0.6432	-0.0576
-1.0993	2.0455	9.2086	-0.4078	0.1521	-0.027	1.2536	-0.2798	-1.0317	1.8901	2.9151	9.3804	-0.3022	0.5181	-0.1081	-0.0442	-0.9699	-0.5463	9.841	-0.114	-0.4138	-0.0951	0.6681	0.4352	-0.6196	-0.677	-0.0248
-1.2613	2.3925	9.7184	-0.4079	0.215	-0.1487	1.2978	-0.2806	-1.0856	2.2376	2.4075	9.4438	-0.1181	0.4281	-0.0472	-0.0573	-0.9404	-0.5337	9.6045	-0.8689	-0.5412	-0.4334	0.8204	0.3746	-0.6195	-0.6592	-0.0567
-0.9258	2.7352	9.3285	-0.7432	0.5525	-0.2342	1.2558	-0.2759	-1.0986	2.1293	2.6333	9.7815	-0.0888	0.3054	0.0132	-0.0575	-0.971	-0.5317	9.7191	-0.8119	-0.7185	-0.713	0.6993	0.1622	-0.6608	-0.6461	-0.0112
-1.4353	2.4496	9.6015	-0.4369	0.3978	-0.0229	1.2131	-0.2783	-1.0835	1.8916	2.7461	9.4369	-0.3945	0.5474	-0.0771	-0.057	-0.9393	-0.548	10.0199	-0.4626	-0.3521	-1.2074	0.5443	0.1953	-0.6611	-0.6428	-0.0733
-1.5642	2.2742	8.8595	-0.0074	0.5552	-0.175	1.2695	-0.2798	-1.0849	2.0683	2.5206	9.6102	-0.458	0.4234	0.0141	-0.0824	-0.9526	-0.5752	9.9527	-0.6968	-0.8334	-1.362	0.5446	0.1042	-0.6329	-0.6278	-0.0429
-1.2151	2.3326	9.1507	-0.5909	0.2742	-0.0245	1.2387	-0.2692	-1.0207	2.0659	2.5205	9.4969	-0.2423	0.3946	0.1373	-0.0571	-0.9546	-0.547	9.7207	-0.5791	-0.5977	-1.0229	0.3286	0.4096	-0.6061	-0.7092	-0.0231
-1.4397	2.3912	9.3739	-0.5298	0.2751	-0.086	1.2406	-0.2861	-1.056	2.1205	2.802	9.3851	-0.2094	0.5486	0.108	-0.0828	-0.969	-0.5598	9.6682	-0.5194	-0.2391	-0.8058	0.2338	0.7761	-0.6472	-0.6613	-0.0258
-1.0871	2.0482	9.834	-0.3454	0.3371	-0.0549	1.2135	-0.3094	-1.0626	1.9466	2.8023	9.3248	-0.4575	0.4544	-0.0472	-0.0961	-0.9702	-0.5452	9.3664	-0.4621	-0.6038	-0.896	0.5085	0.8056	-0.6336	-0.6764	-0.0404
-1.6601	2.6805	9.8255	-0.4679	0.3362	-0.0239	1.226	-0.2547	-1.0766	1.8992	2.5774	9.7766	0.0058	0.4309	-0.2321	-0.0836	-0.9569	-0.5178	9.4303	-0.6936	-0.364	-0.8113	0.3063	-0.3245	-0.6195	-0.6592	-0.0567
-1.1493	2.8515	9.6088	-0.6229	0.1528	-0.1797	1.2409	-0.248	-1.1051	1.7649	3.0839	8.925	-0.2407	0.4886	-0.17	-0.0698	-0.9536	-0.5611	9.5448	-0.1136	-0.4792	-0.3248	0.3523	-1.6407	-0.6331	-0.644	-0.0421
-1.2005	2.106	9.8888	-0.2853	0.153	-0.058	1.2547	-0.2865	-1.0564	2.2363	2.4638	9.3872	-0.2712	0.5478	0.108	-0.0969	-0.9581	-0.5031	9.5427	-0.637	-0.6611	-0.3232	0.9079	-2.1324	-0.6468	-0.6289	-0.0275
-1.4354	2.507	9.6018	-0.3778	0.0604	-0.0593	1.268	-0.2593	-1.0636	2.2393	2.8019	9.5575	-0.1158	0.6117	0.0163	-0.0954	-0.9527	-0.5749	9.6019	-0.6952	-0.6603	-0.3253	0.8499	-2.4377	-0.6474	-0.6774	-0.025
-1.8953	1.9899	9.477	-0.5313	-0.0336	0.0317	1.2535	-0.2452	-1.0666	2.3519	2.8579	9.4466	-0.3639	0.5462	0.1696	-0.0441	-0.9545	-0.5473	9.8927	-0.2901	-0.8328	-0.4499	0.8829	-2.7125	-0.6059	-0.6922	-0.0395
-1.3138	1.9914	9.943	-0.7158	-0.0641	-0.0603	1.2261	-0.2893	-1.0416	2.065	2.3515	9.4402	-0.487	0.5759	0.0773	-0.0444	-0.9556	-0.5329	9.6595	-0.5794	-0.7186	-0.6078	0.7653	-3.2309	-0.6473	-0.6596	-0.0569
-1.4375	2.3916	9.4876	-0.4709	-0.0619	-0.153	1.2409	-0.2826	-1.0701	2.4736	2.5763	9.732	-0.5174	0.6066	0.0159	-0.0698	-0.9087	-0.5497	9.6061	-0.6361	-0.4204	-0.9165	0.7648	-3.2909	-0.6337	-0.6748	-0.0715
-1.607	2.2774	9.5975	-0.5919	0.1205	-0.027	1.2695	-0.2798	-1.0849	1.894	2.1266	9.493	-0.4261	0.4861	-0.1394	-0.0962	-0.9253	-0.5338	9.6657	-0.4037	-0.3584	-1.408	0.8838	-3.1369	-0.6055	-0.6598	-0.0411
-1.379	2.2195	9.5448	-0.653	-0.0055	0.2165	1.2825	-0.2562	-1.078	1.8416	2.5775	9.7754	-0.3335	0.4869	-0.0776	-0.032	-0.9577	-0.5045	9.7282	-0.4612	-0.1778	-0.8531	0.7928	-3.0162	-0.6334	-0.6781	-0.0094
-1.5499	2.5645	9.5998	-0.4706	-0.0315	-0.1218	1.2695	-0.2798	-1.0849	2.3526	3.1396	9.5035	-0.3645	0.4859	0.0148	-0.0437	-0.9228	-0.5636	9.8452	-0.5198	-0.2358	-0.6968	0.6962	-2.4967	-0.6336	-0.6756	-0.056
-1.8936	2.7946	9.5941	-0.5305	-0.0046	0.1855	1.2688	-0.2523	-1.0917	2.2374	2.5202	9.4439	-0.2717	0.4876	-0.0776	-0.069	-0.9208	-0.5918	9.7272	-0.5195	-0.238	-0.506	0.6237	-1.3357	-0.5779	-0.6578	-0.072
-1.7232	1.6451	9.4789	-0.4988	0.2428	0.0667	1.2539	-0.2763	-1.0457	2.2962	2.5201	9.5018	-0.3	0.7011	0.0478	-0.0568	-0.9535	-0.5614	9.727	-0.9263	-0.2996	-0.5012	0.6146	-0.4494	-0.6472	-0.6613	-0.0258
-1.2656	2.1618	9.49	-0.2221	0.3981	0.0378	1.2692	-0.3179	-1.0358	1.894	2.7462	9.5502	-0.3334	0.5161	0.1385	-0.0445	-0.926	-0.5206	10.0037	-0.5825	-1.2512	-0.5297	0.8274	-0.328	-0.6334	-0.6594	-0.0568
-1.1613	2.5042	8.982	-0.1307	0.3689	-0.055	1.2695	-0.2798	-1.0849	2.2416	2.8583	9.6708	-0.5219	0.2684	0.1358	-0.0824	-0.9526	-0.5752	9.4889	-0.5195	-0.3622	-0.903	0.646	-0.662	-0.5775	-0.6432	-0.0418
-1.4367	2.8514	9.5464	-0.6511	0.3647	0.0998	1.2554	-0.2967	-1.0671	1.8884	2.5207	9.2668	-0.3015	0.5786	0.0158	-0.0447	-0.9567	-0.5186	10.251	-0.6967	-0.6482	-1.2776	0.5913	-1.4245	-0.6473	-0.6604	-0.0413
-1.2093	1.9891	9.4335	-0.5005	0.0287	-0.0288	1.2119	-0.2889	-1.0413	2.0627	2.9711	9.384	-0.2392	0.6111	-0.138	-0.0827	-0.9384	-0.5618	9.6054	-0.8106	-0.4811	-0.9814	0.3982	-3.35	-0.6333	-0.6602	-0.0413
-1.441	2.6207	9.318	-0.2553	-0.0955	0.1832	1.2409	-0.2826	-1.0701	1.8902	2.8588	9.3803	-0.2713	0.5185	-0.1081	-0.0702	-0.9853	-0.5447	9.6677	-1.2749	-0.3621	-0.7122	0.3528	-4.7872	-0.6193	-0.6617	-0.0101
-1.4398	2.4486	9.3741	-0.4079	-0.004	0.1851	1.2691	-0.2487	-1.1058	2.0661	2.4079	9.4969	-0.3025	0.4879	-0.1701	-0.0704	-1.016	-0.5427	9.5478	-0.4615	-0.3609	-0.5571	0.6	-4.9723	-0.6335	-0.6772	-0.0249
-1.2107	2.3336	9.3781	-0.4719	-0.3095	-0.0037	1.2539	-0.259	-1.0632	2.2932	2.8017	9.3887	-0.1764	0.7031	-0.0137	-0.0308	-0.9534	-0.5619	9.8415	-0.3463	-0.4148	0.0687	0.7091	-3.4776	-0.592	-0.6741	-0.0713
-1.4319	2.3354	9.7716	-0.3774	0.0904	0.0026	1.2398	-0.2759	-1.0454	1.835	2.2393	9.4352	-0.24	0.5498	-0.1386	-0.0567	-0.9382	-0.5624	9.7799	-0.6373	-0.5968	0.2319	0.8166	-1.9811	-0.6336	-0.6764	-0.0404
-1.7261	2.4488	9.3686	-0.4389	-0.0345	0.154	1.2692	-0.2833	-1.0708	2.2299	2.6325	9.1042	-0.3978	0.3013	0.0438	-0.0705	-0.9262	-0.52	9.8449	-0.8685	-0.2972	0.1126	0.8086	-1.2472	-0.5922	-0.6903	-0.0704
-1.2704	2.6203	9.2645	-0.47	0.1232	-0.2113	1.2829	-0.2526	-1.0921	1.8962	2.859	9.6635	-0.7662	0.4806	0.0453	-0.0308	-0.9534	-0.5619	9.7134	-0.2902	-0.9559	0.6101	0.9576	-0.6995	-0.6193	-0.643	-0.0576
-1.6038	2.5653	9.7692	-0.715	0.0588	-0.0583	1.2688	-0.2696	-1.0742	2.2919	2.858	9.3322	-0.4862	0.637	0.1087	-0.0311	-0.9545	-0.5476	9.4939	-0.2859	-0.0617	0.5782	1.1458	-1.1588	-0.6196	-0.6762	-0.0404
-1.4972	2.7359	9.3742	-0.4087	0.0295	-0.0597	1.2821	-0.2424	-1.0814	1.6075	2.6905	9.6007	-0.6386	0.7894	-0.044	-0.057	-0.9393	-0.548	10.0132	-0.406	-0.7112	0.5462	1.1479	-1.3726	-0.6334	-0.6594	-0.0568
-1.443	2.2181	9.2026	-0.5915	0.1509	0.0042	1.2268	-0.2649	-1.0873	2.6409	2.8574	9.5093	-0.1147	0.7035	0.048	-0.0954	-0.9527	-0.5749	9.7227	-0.4624	-0.4774	0.6725	1.2669	-1.0069	-0.6473	-0.6596	-0.0569
-1.5048	2.447	8.9751	-0.4991	0.1185	0.1874	1.2402	-0.3243	-1.007	2.1243	2.7458	9.555	-0.0838	0.7036	0.0789	-0.0827	-0.9537	-0.5608	9.7825	-0.811	-0.4778	0.0562	0.9225	-0.4529	-0.6061	-0.6905	-0.0705
-1.4366	2.6791	9.5457	-0.5001	-0.0037	0.1241	1.2695	-0.2625	-1.1024	2.1246	2.5768	9.5548	-0.1771	0.6421	-0.076	-0.0704	-0.9711	-0.5314	10.0172	-0.6957	-0.5328	-0.2828	0.7967	-0.2371	-0.6331	-0.6449	-0.0266
-1.1581	2.6198	9.153	-0.439	0.1223	-0.1194	1.2413	-0.3137	-1.0492	2.1256	2.6895	9.6116	-0.2991	0.7632	-0.0749	-0.07	-0.9394	-0.5477	9.6054	-0.8106	-0.4811	-0.5682	0.5623	-1.3352	-0.6059	-0.6922	-0.0395
-1.6067	1.9327	9.596	-0.2243	0.0915	-0.0285	1.2524	-0.2731	-1.0069	2.0063	2.3516	9.3823	-0.5201	0.421	0.2607	-0.0966	-0.957	-0.5175	10.2569	-0.8697	-0.3494	-0.9131	0.2615	-1.9438	-0.6341	-0.7071	-0.0698
-1.4422	2.6779	9.2614	-0.3466	0.1842	-0.1187	1.2257	-0.2582	-1.0625	1.8906	2.6334	9.3801	-0.7056	0.3894	0.0444	-0.0694	-0.9372	-0.5764	9.3073	-0.462	-0.6049	-0.6983	0.109	-1.9132	-0.6612	-0.6411	-0.1044
-1.4398	2.506	9.3744	-0.3761	0.2745	0.0362	1.2405	-0.2688	-1.0735	2.2958	2.7454	9.502	-0.2751	0.2409	0.1358	-0.1093	-0.956	-0.5316	9.654	-0.5807	-1.0181	-0.4179	0.0426	-1.3027	-0.6337	-0.6748	-0.0715
-1.4396	2.2188	9.3732	-0.4988	0.4307	-0.2369	1.2402	-0.2724	-1.0595	2.2939	2.4637	9.3885	-0.1843	0.0892	0.0727	-0.0438	-0.9535	-0.5616	9.7835	-0.2878	-0.3557	-0.2929	0.0399	-0.9975	-0.6199	-0.6924	-0.0395
-1.2019	2.4504	9.8334	-0.4067	0.3993	-0.1457	1.284	-0.2767	-1.0993	2.2917	2.3509	9.2751	-0.1177	0.4585	-0.0161	-0.0575	-0.971	-0.5317	9.958	-0.6374	-0.5336	-0.0433	0.563	-1.2149	-0.6338	-0.6918	-0.0551
-1.5531	2.2766	9.428	-0.5607	0.2757	-0.1472	1.2405	-0.2688	-1.0735	1.8934	3.0842	9.5504	-0.4287	0.3009	0.0438	-0.071	-0.9732	-0.5027	9.7767	-0.6961	-0.7768	0.4192	0.5955	-1.2472	-0.6196	-0.6762	-0.0404
-1.1568	2.3902	9.2089	-0.5607	0.0878	0.1564	1.2402	-0.2897	-1.042	2.4724	2.5763	9.6754	-0.1805	0.3664	-0.1095	-0.0961	-0.9099	-0.5348	9.7213	-0.3465	-0.5368	0.45	0.5647	-1.2166	-0.6612	-0.6598	-0.0569
-1.4923	2.105	9.599	-0.3761	0.243	0.097	1.2532	-0.266	-1.0351	1.9467	2.7459	9.3248	-0.3665	0.3323	0.0441	-0.0443	-0.925	-0.5349	9.7178	-0.2892	-0.7163	0.1743	0.4982	-0.7875	-0.6196	-0.677	-0.0248
-1.2106	2.2187	9.3776	-0.2249	0.0932	-0.1818	1.2684	-0.2558	-1.0777	2.1746	2.7454	9.2164	-0.3332	0.5169	0.0151	-0.0705	-0.9262	-0.52	9.721	-0.6952	-0.5982	-0.5651	0.5254	-0.7238	-0.6474	-0.6774	-0.025
-1.2647	2.5066	9.5483	-0.1612	0.3684	-0.0242	1.2677	-0.2629	-1.0495	1.8349	2.9153	9.4924	-0.4235	0.6999	-0.0139	-0.0832	-0.9854	-0.5444	9.5435	-0.9854	-0.6626	-0.715	0.8273	-0.3885	-0.6056	-0.659	-0.0567
-0.9886	2.6766	9.0429	-0.4082	0.0906	-0.028	1.2543	-0.2381	-1.0948	2.0117	2.6898	9.6658	-0.5433	1.0046	0.0507	-0.0574	-0.9557	-0.5327	9.43	-0.5774	-0.3636	-0.931	0.8269	-0.4183	-0.62	-0.6907	-0.0706
-1.15	2.1619	9.5491	-0.6542	0.0605	-0.1811	1.241	-0.3172	-1.0351	2.4075	2.6324	9.3344	-0.4837	0.822	-0.0436	-0.0703	-0.9404	-0.5334	9.6609	-0.2305	-0.5973	-0.8394	0.8909	-0.6634	-0.6061	-0.7092	-0.0231
-1.3231	2.5064	9.4903	-0.6532	0.1202	-0.0268	1.226	-0.2547	-1.0766	2.1791	2.9146	9.4431	-0.3619	0.6713	-0.1991	-0.0577	-0.9568	-0.5183	9.5453	-0.3459	-0.4802	-0.5276	1.0718	-0.2986	-0.6202	-0.7069	-0.0697
-1.4371	1.8172	9.4852	-0.5012	-0.0006	-0.1519	1.2413	-0.2964	-1.0667	1.8265	2.915	9.096	-0.2058	0.7963	-0.2594	-0.0833	-0.9405	-0.5331	9.3042	-0.5208	-0.7849	-0.5582	0.8228	0.1	-0.6474	-0.6774	-0.025
-1.3234	2.9085	9.492	-0.4095	-0.1559	0.0293	1.2695	-0.2798	-1.0849	2.1199	2.5203	9.3282	-0.1795	0.4576	0.0147	-0.0573	-0.9404	-0.5337	9.3105	-0.868	-0.4868	-0.6534	0.5481	0.0099	-0.6062	-0.7262	-0.0067
-1.8347	1.9906	9.6487	-0.3165	-0.0647	0.1532	1.1986	-0.2988	-1.0516	1.8963	2.8027	9.6635	-0.611	0.5437	0.0768	-0.0706	-0.9415	-0.519	10.0136	-0.5802	-0.712	-0.4399	0.4603	-0.296	-0.6609	-0.6453	-0.0267
-1.3184	2.2202	9.7165	-0.2561	0.0009	-0.1833	1.2676	-0.2456	-1.067	1.8913	2.9151	9.437	-0.6127	0.3915	-0.1096	-0.0439	-0.9688	-0.5606	9.7251	-0.5781	-0.3581	-0.5668	0.1871	-0.5388	-0.6054	-0.6428	-0.0575
-0.9155	2.3353	9.8385	-0.5921	0.1212	-0.0883	1.2119	-0.2716	-1.0588	2.0117	2.6898	9.6658	-0.4287	0.3009	0.0438	-0.0828	-0.969	-0.5598	9.428	-0.1711	-0.4217	-0.2585	0.3124	-0.7239	-0.6193	-0.6617	-0.0101
-1.4958	2.2766	9.4292	-0.3156	0.2772	-0.1786	1.2127	-0.2645	-1.0869	1.8328	2.7462	9.379	-0.0284	0.2128	0.2282	-0.044	-0.9841	-0.5596	9.9062	-0.4033	-0.1144	0.0225	0.7726	-0.7577	-0.6339	-0.7096	-0.0232
-1.9549	2.2767	9.3634	-0.5607	0.2132	-0.0563	1.2826	-0.2908	-1.043	1.8903	2.8024	9.3803	-0.0853	0.5814	0.016	-0.0698	-0.9536	-0.5611	9.6616	-0.5209	-0.5985	0.1211	1.0098	0.0049	-0.6336	-0.6764	-0.0404
-1.0368	2.4488	9.4956	-0.5912	0.1813	0.0353	1.2558	-0.2759	-1.0986	1.8869	2.6896	9.2103	-0.1803	0.3964	-0.0168	-0.0962	-0.9406	-0.5328	9.9567	-0.5215	-0.593	0.2198	1.3709	0.6141	-0.6054	-0.6615	-0.0101
-1.211	2.7931	9.38	-0.5307	0.1211	-0.0578	1.2543	-0.2381	-1.0948	2.0562	2.5765	9.0439	-0.4265	0.4841	0.1689	-0.0704	-0.9109	-0.521	9.538	-0.5218	-0.9003	0.1264	1.2791	0.5843	-0.5916	-0.6596	-0.0411
-1.6148	2.2757	9.1995	-0.3769	0.183	-0.0266	1.2253	-0.2617	-1.0485	2.061	2.5767	9.2704	-0.4537	0.7607	0.0175	-0.083	-0.9548	-0.5465	9.669	-0.403	-0.1787	0.0016	1.3124	0.279	-0.6189	-0.6285	-0.0273
-1.322	2.5067	9.5472	-0.3168	-0.0011	-0.0298	1.2684	-0.2558	-1.0777	1.6078	2.5215	9.6006	-0.3318	0.639	0.1088	-0.0426	-0.889	-0.6087	9.253	-0.577	-0.3669	-0.3108	1.1328	-0.208	-0.6333	-0.661	-0.0257
-1.3245	2.9083	9.4351	-0.286	-0.0953	0.1526	1.2547	-0.2519	-1.0914	2.4677	3.1394	9.5059	-0.3301	0.762	0.0484	-0.0567	-0.9382	-0.5624	9.5505	-0.6933	-0.242	-0.6484	1.0045	0.2522	-0.6476	-0.675	-0.0716
-1.147	2.6222	9.7215	-0.5	0.0274	0.0939	1.2413	-0.2618	-1.1017	2.2383	2.6892	9.5007	-0.3592	0.9146	0.1116	-0.0963	-0.9559	-0.5318	9.4903	-0.6354	-0.3028	-1.2993	0.7912	-0.05	-0.5916	-0.6596	-0.0411
-1.5575	2.3331	9.2009	-0.6531	0.0574	0.0948	1.2405	-0.2342	-1.1085	2.1791	2.2949	9.3859	-0.4532	0.7919	-0.0747	-0.0824	-0.9373	-0.5762	9.7826	-0.8691	-0.478	-1.2057	0.8205	0.1023	-0.6612	-0.6598	-0.0569
-1.1533	2.1612	9.3785	-0.4081	0.0592	0.0328	1.2547	-0.2519	-1.0914	2.0641	2.8585	9.4406	-0.3289	0.8546	-0.0431	-0.0701	-0.9547	-0.5467	9.4305	-0.2868	-0.3024	-0.7766	0.5165	0.0717	-0.6059	-0.693	-0.0239
-1.7258	2.0467	9.3669	-0.5633	-0.0924	-0.2146	1.2688	-0.2869	-1.0567	2.1814	2.971	9.5564	0.009	0.7054	-0.0135	-0.0574	-0.9557	-0.5327	9.5961	-0.1154	-0.8974	-0.4071	0.5188	-0.0214	-0.6196	-0.6762	-0.0404
-1.3298	2.5624	9.1494	-0.2246	0.0611	-0.0597	1.2703	-0.2901	-1.0956	2.2911	2.6326	9.2753	-0.4534	0.7909	0.0794	-0.0704	-0.9558	-0.5324	9.5419	-0.7534	-0.7215	-0.3758	0.5179	0.0702	-0.6196	-0.6762	-0.0404
-1.3274	2.3332	9.2622	-0.6218	0.2122	0.0052	1.2532	-0.2487	-1.0526	2.4116	2.3509	9.5041	-0.4274	0.3935	-0.0478	-0.0834	-0.9712	-0.5311	9.6009	-0.2887	-0.6586	-0.345	0.4871	0.1008	-0.6338	-0.6926	-0.0396
-1.2669	2.5062	9.4346	-0.1015	0.0289	0.1234	1.2547	-0.2865	-1.0564	2.2968	2.8581	9.5587	-0.4874	0.5164	-0.2008	-0.0957	-0.9538	-0.5605	9.661	-0.7534	-0.6594	-0.2817	0.8257	-0.0844	-0.6333	-0.6424	-0.0732
-0.9819	2.678	9.384	-0.3788	-0.0308	-0.1527	1.2535	-0.2452	-1.0666	2.0058	2.5769	9.3825	-0.4577	0.4536	0.0761	-0.0826	-0.923	-0.5628	10.1308	-0.6969	-0.7702	-0.1266	0.7935	0.1291	-0.6341	-0.7258	-0.0224
-1.3209	2.5644	9.6043	-0.5621	-0.0959	0.0921	1.2417	-0.2928	-1.0808	1.9009	2.9155	9.8901	-0.3362	0.3011	0.198	-0.0706	-0.9568	-0.518	9.7306	-0.5769	-0.0585	-0.1539	1.1592	0.2497	-0.6054	-0.6428	-0.0575
-0.9201	2.5641	9.6121	-0.4699	-0.1901	0.3049	1.2413	-0.2964	-1.0667	2.4678	2.4634	9.4487	-0.4254	0.5468	-0.0463	-0.0571	-0.9546	-0.547	9.9633	-0.0552	-0.1717	0.1536	1.224	0.0038	-0.6054	-0.6428	-0.0575
-1.497	2.4486	9.373	-0.5614	-0.004	0.1242	1.2539	-0.2763	-1.0457	2.0048	2.4642	9.3258	-0.3943	0.5769	0.1082	-0.0707	-0.9119	-0.5067	9.5482	-0.6358	-0.3616	-0.2139	1.4352	0.1569	-0.6334	-0.6781	-0.0094
-1.1581	2.6772	9.1533	-0.6234	-0.0022	-0.0596	1.2829	-0.3045	-1.0396	2.1266	2.8022	9.6683	-0.3607	0.7921	0.0795	-0.0701	-0.97	-0.5457	9.8366	-0.5798	-0.7153	0.311	1.4046	0.3386	-0.6061	-0.6905	-0.0705
-1.8328	2.5655	9.7648	-0.6854	-0.1258	-0.0307	1.2417	-0.2928	-1.0808	2.0117	2.6898	9.6658	-0.5776	0.7284	0.0171	-0.0829	-0.9843	-0.5588	9.7784	-0.4633	-0.656	0.1867	1.2509	0.3703	-0.6338	-0.6918	-0.0551
-1.2678	2.1038	9.376	-0.5005	-0.0338	0.0622	1.255	-0.2657	-1.088	1.8378	2.6901	9.6055	-0.3901	0.8855	-0.197	-0.0571	-0.9546	-0.547	9.8357	-0.6962	-0.7757	-0.1229	1.2832	0.0962	-0.6195	-0.6592	-0.0567
-1.6732	2.3904	9.142	-0.5621	-0.0334	0.0011	1.2555	-0.314	-1.0496	2.5861	2.6887	9.6213	-0.5439	0.9441	-0.0733	-0.0701	-0.9547	-0.5467	9.6064	-0.2874	-0.359	-0.588	0.9139	0.1608	-0.6338	-0.6918	-0.0551
-1.267	2.5636	9.4348	-0.4066	0.274	0.067	1.255	-0.2657	-1.088	2.5342	2.9143	9.9034	-0.6979	0.973	-0.1039	-0.0837	-0.9722	-0.5168	9.7236	-0.4041	-0.4172	-1.2347	0.8791	0.3467	-0.6335	-0.6586	-0.0723
-1.2726	2.5624	9.1505	-0.5009	-0.0327	-0.0298	1.2409	-0.2826	-1.0701	2.3001	2.3513	9.6716	-0.3587	0.9458	0.0194	-0.0574	-0.9557	-0.5327	9.6059	-0.52	-0.4199	-1.6042	1.0319	0.225	-0.6472	-0.6426	-0.0732
-1.3758	2.3351	9.7159	-0.3493	-0.215	-0.1558	1.2818	-0.2459	-1.0673	2.121	2.5767	9.3849	-0.3914	0.7927	-0.0746	-0.0699	-0.924	-0.5487	10.0783	-0.6372	-0.4116	-1.4216	0.8509	0.0418	-0.6055	-0.6598	-0.0411
-1.616	2.4478	9.1434	-0.3776	-0.0028	0.093	1.2547	-0.2519	-1.0914	2.363	2.126	9.8991	-0.1445	0.7658	-0.1672	-0.0704	-0.9558	-0.5324	9.6533	-0.2903	-1.0169	-1.3915	0.8214	-0.0498	-0.6334	-0.6594	-0.0568
-1.4948	2.4491	9.4867	-0.5016	-0.0621	-0.1529	1.2405	-0.2688	-1.0735	1.8979	2.6337	9.72	-0.1763	0.7033	-0.0445	-0.0836	-0.9416	-0.5188	9.1962	-0.5764	-0.2481	-1.0225	0.6383	0.0414	-0.6609	-0.6453	-0.0267
-1.1601	2.2746	9.0379	-0.5309	-0.0035	0.0935	1.2264	-0.2684	-1.0732	1.8923	2.3518	9.4365	-0.3624	0.6398	-0.0761	-0.0704	-0.9711	-0.5314	9.5482	-0.6358	-0.3616	-1.0852	0.7021	-0.2337	-0.6343	-0.742	-0.0216
-1.4926	2.4496	9.6004	-0.8676	0.1503	-0.0564	1.2547	-0.2865	-1.0564	2.3475	2.6324	9.2199	-0.3335	0.5157	0.2001	-0.0055	-0.9554	-0.5338	9.8419	-0.0557	-0.3536	-1.3665	0.491	-0.629	-0.6064	-0.7051	-0.1007
-1.6059	2.2776	9.6543	-0.6225	0.2143	-0.1787	1.2546	-0.2346	-1.1089	1.8952	2.7463	9.6068	-0.269	0.7021	-0.0446	-0.0571	-0.9546	-0.547	9.6004	-0.5212	-0.7194	-1.3016	0.6404	-0.2632	-0.5774	-0.644	-0.0263
-1.4933	1.875	9.5412	-0.7435	0.3967	-0.0527	1.2123	-0.2335	-1.1078	1.8909	2.4644	9.38	-0.057	0.3677	-0.0786	-0.0827	-0.8935	-0.5505	10.0099	0.0581	-0.8291	-0.8677	0.6688	0.1018	-0.6338	-0.6918	-0.0551
-1.379	2.2195	9.5448	-0.6226	0.2146	-0.2094	1.2684	-0.2731	-1.0602	2.1193	2.8019	9.3285	-0.1186	0.3964	0.1066	-0.0824	-0.9526	-0.5752	9.6075	-0.752	-0.361	-0.4972	0.6379	0.2534	-0.6336	-0.6764	-0.0404
-1.6644	2.5072	9.5973	-0.2857	-0.0024	0.0928	1.2696	-0.2971	-1.0674	2.1232	2.6894	9.4983	-0.2401	0.5488	0.0155	-0.0838	-0.9427	-0.5044	9.5413	-0.5211	-0.7205	-0.3716	0.7273	0.5276	-0.6476	-0.6936	-0.0241
-1.4409	2.5058	9.3175	-0.4385	0.1209	0.0032	1.2692	-0.2833	-1.0708	1.8881	2.6897	9.2669	-0.5494	0.5432	0.2619	-0.0834	-0.9712	-0.5311	9.7288	-0.2867	-0.1172	-0.4025	1.0378	0.0678	-0.6335	-0.6951	0.007
-1.3262	2.1611	9.3183	-0.5001	0.0588	0.0331	1.2413	-0.2964	-1.0667	2.121	2.5767	9.3849	-0.4563	0.5755	0.2006	-0.0312	-0.9698	-0.5466	9.8379	-0.2309	-0.594	-0.2156	1.1902	0.1887	-0.6475	-0.6766	-0.0405
-1.4295	2.0487	9.8841	-0.4995	0.0885	0.1255	1.2264	-0.2684	-1.0732	1.9525	2.2392	9.5509	-0.2687	0.7326	-0.0135	-0.0443	-0.925	-0.5349	9.4821	-0.4048	-0.7212	-0.1239	1.4094	-0.2712	-0.6194	-0.66	-0.0412
-1.3229	2.2192	9.4891	-0.5912	0.2124	0.0052	1.2264	-0.2512	-1.0907	2.4725	2.5199	9.6753	-0.4563	0.5464	-0.0463	-0.0564	-0.9371	-0.5767	9.5466	-0.4037	-0.4205	-0.0931	1.2231	0.0047	-0.6339	-0.691	-0.0706
-1.2658	2.5064	9.4914	-0.6237	-0.0326	-0.0907	1.2387	-0.2519	-1.0381	1.7777	2.7464	9.4911	-0.4259	0.5159	-0.0158	-0.0962	-0.9855	-0.5442	9.3691	-0.6939	-0.485	-0.2761	1.1565	0.4641	-0.6753	-0.677	-0.0406
-0.9726	2.1056	9.8364	-0.4696	0.1221	-0.1193	1.2268	-0.2649	-1.0873	2.2929	2.9707	9.3889	-0.177	0.6423	-0.1068	-0.0837	-0.912	-0.5064	9.6035	0.0024	-0.4776	-0.5525	1.464	0.2191	-0.6472	-0.6613	-0.0258
-1.4938	2.5643	9.5441	-0.2549	0.1853	-0.1803	1.2551	-0.283	-1.0705	2.0068	2.6896	9.4392	-0.1768	0.6434	-0.2609	-0.0572	-0.925	-0.5347	10.0783	-0.6372	-0.4116	-0.1228	1.3141	0.0655	-0.578	-0.6748	-0.0557
-1.2153	2.5624	9.1517	-0.346	0.2449	-0.0564	1.2264	-0.2857	-1.0557	1.7812	2.8029	9.6611	-0.4249	0.5785	-0.2001	-0.044	-0.9239	-0.5493	9.3082	-0.3456	-0.5445	-0.0634	1.2876	-0.3014	-0.647	-0.6256	-0.0896
-1.552	2.3343	9.4851	-0.2549	0.1853	-0.1803	1.2837	-0.2975	-1.0678	1.8992	2.5774	9.7766	-0.0254	0.4288	0.0145	-0.0833	-0.9405	-0.5331	9.3022	-0.6374	-0.9052	0.3685	1.0403	0.0956	-0.6197	-0.6941	-0.0085
-1.673	2.1606	9.1411	-0.467	0.4902	-0.052	1.2268	-0.2995	-1.0523	2.1769	2.8018	9.3297	-0.2414	0.4562	0.1071	-0.0698	-0.9689	-0.5601	9.8366	-0.5798	-0.7153	0.4606	0.7618	0.4328	-0.6196	-0.6584	-0.0723
-0.6886	2.1623	9.7285	-0.1307	0.4314	-0.146	1.2405	-0.2688	-1.0735	1.7783	2.4084	9.4908	-0.1184	0.3974	-0.0475	-0.0832	-0.9854	-0.5444	9.8271	-0.7563	-1.2552	0.274	0.578	0.4038	-0.6335	-0.6772	-0.0249
-1.3701	2.2215	9.9997	-0.498	0.5536	-0.2349	1.2982	-0.3116	-1.0647	2.1242	2.8021	9.555	-0.4595	0.3009	-0.0179	-0.057	-0.9393	-0.548	9.9049	-0.3454	-0.174	0.1195	0.4538	0.5272	-0.6331	-0.6449	-0.0266
-1.6665	2.3344	9.4829	-0.2529	0.4923	-0.1446	1.2409	-0.2826	-1.0701	2.3559	2.6891	9.6164	-0.6444	0.3583	0.2291	-0.0575	-0.971	-0.5317	9.77	-0.6395	-1.136	-0.2209	0.6102	0.0692	-0.6337	-0.6748	-0.0715
-1.212	2.5631	9.3222	1.1861	0.5971	-0.6684	1.2116	-0.2924	-1.0272	2.3552	2.4074	9.5595	-0.3973	0.3322	0.0133	-0.0705	-0.9262	-0.52	9.5413	-0.5211	-0.7205	-0.2518	0.7965	-0.2066	-0.6335	-0.6772	-0.0249
-1.2109	2.6208	9.3793	0.4501	0.0629	0.0611	1.2409	-0.2826	-1.0701	1.8389	2.7464	9.6622	-0.1794	0.4584	-0.1086	-0.0699	-0.924	-0.5487	9.6682	-0.5194	-0.2391	-0.1596	0.7353	-0.1761	-0.6059	-0.6744	-0.0713
-1.5422	2.6237	9.998	-0.991	-0.0671	0.0938	1.2829	-0.2699	-1.0746	2.4135	2.6327	9.6176	-0.2063	0.7648	-0.1364	-0.0316	-0.926	-0.5209	9.8978	-0.1146	-0.5325	-0.2217	0.7048	-0.2063	-0.6202	-0.7069	-0.0697
-1.1488	2.1047	9.6057	-0.8701	-0.3121	0.0588	1.2543	-0.2727	-1.0598	2.128	2.6896	9.7249	-0.3915	0.7921	0.0178	-0.0827	-0.9384	-0.5618	9.6048	-0.0554	-0.4179	-0.0989	0.8305	-0.4824	-0.6475	-0.6758	-0.056
-1.6081	2.3346	9.5409	-0.7468	-0.2822	0.1816	1.2123	-0.2681	-1.0728	1.8957	3.1406	9.6638	-0.1767	0.6728	-0.0757	-0.0569	-0.9689	-0.5604	9.5412	-0.463	-0.7203	0.0876	0.9526	-0.392	-0.6475	-0.6766	-0.0405
-1.554	2.104	9.3705	-0.7756	-0.0061	0.2168	1.2543	-0.2554	-1.0773	1.8326	2.8589	9.3791	-0.5469	0.6996	-0.199	-0.0696	-0.9832	-0.5734	9.5444	-0.4042	-0.5403	0.2398	0.8948	-0.6673	-0.5915	-0.6613	-0.01
-1.7183	2.5079	9.7668	-0.195	-0.186	0.0589	1.2692	-0.3006	-1.0533	2.0699	2.9714	9.7239	-0.2374	0.7634	0.0177	-0.0832	-0.9252	-0.5341	9.5415	-0.5792	-0.7208	0.2403	0.6766	-0.269	-0.62	-0.6721	-0.118
-1.6646	2.7944	9.5985	-0.4085	-0.1276	0.2444	1.2543	-0.2727	-1.0598	1.9991	2.9146	9.0996	-0.3014	0.5792	-0.0767	-0.0441	-0.9545	-0.5473	10.0103	-0.581	-0.8917	0.024	0.6455	-0.2986	-0.6198	-0.6746	-0.0714
-1.3836	2.3334	9.3179	-0.4701	-0.0644	0.0616	1.2695	-0.2625	-1.1024	2.2893	2.3508	9.1618	-0.5776	0.7288	-0.0446	-0.0439	-0.9688	-0.5606	9.8445	-0.2294	-0.2346	-0.1559	1.0699	0.0056	-0.6336	-0.6764	-0.0404
-1.0303	2.7949	9.8382	-0.2854	0.1219	-0.0279	1.2688	-0.2523	-1.0917	1.8408	2.3522	9.7185	-0.2994	0.7332	-0.1676	-0.0706	-0.9415	-0.519	9.4278	-0.5779	-0.4834	0.0324	1.468	0.0336	-0.6198	-0.6746	-0.0714
-1.4352	2.2198	9.6006	-0.439	0.0598	-0.0284	1.2261	-0.2893	-1.0416	1.7841	2.5213	9.7741	-0.2366	0.8252	-0.0434	-0.0701	-0.9547	-0.5467	9.7844	-0.6944	-0.3574	0.2823	1.5868	0.46	-0.6472	-0.6426	-0.0732
-1.324	2.2764	9.4325	-0.8057	0.1488	0.0967	1.2543	-0.29	-1.0423	1.8893	2.6897	9.3235	-0.2058	0.7961	-0.2286	-0.0445	-0.9709	-0.5319	9.6625	-0.4625	-0.5384	0.5006	1.3034	1.3164	-0.6336	-0.6756	-0.056
-2.067	1.9326	9.4734	-0.5307	0.1211	-0.0578	1.2669	-0.2526	-1.0388	1.5964	2.8027	9.091	-0.2125	0.3032	0.1056	-0.0706	-0.9568	-0.518	9.5433	-0.4044	-0.6002	0.1918	1.0239	1.6245	-0.6336	-0.6764	-0.0404
-1.489	2.1057	9.7695	-0.3456	0.275	0.0055	1.2127	-0.2818	-1.0694	2.0671	2.5206	9.5536	-0.1789	0.5183	0.1078	-0.0965	-0.9865	-0.5298	10.0184	-1.2183	-0.535	-0.0862	0.9617	1.6258	-0.6333	-0.661	-0.0257
-1.6103	2.2766	9.4269	-0.4689	0.339	-0.2692	1.2405	-0.2515	-1.091	1.8916	2.7461	9.4369	-0.0593	0.1841	-0.1421	-0.0701	-0.97	-0.5457	9.7184	-0.5215	-0.7172	0.1323	1.1126	1.8993	-0.6475	-0.6766	-0.0405
-1.4958	2.2191	9.4289	-0.1897	0.7063	-0.0186	1.2402	-0.2724	-1.0595	2.1186	2.5766	9.2716	-0.0304	0.0595	0.2266	-0.083	-0.9394	-0.5475	9.7134	-0.2902	-0.9559	-0.0847	1.0831	1.7169	-0.6057	-0.676	-0.0403
-1.3803	2.5065	9.4892	-0.4956	0.8595	-0.1073	1.2699	-0.2763	-1.099	2.3529	2.9706	9.5034	-0.2479	-0.0645	0.0094	-0.0697	-0.9383	-0.5621	10.0731	0.1751	-0.5879	-0.085	1.1768	1.533	-0.6338	-0.6926	-0.0396
-1.1588	2.1025	9.094	-0.0969	0.8607	-0.0471	1.2677	-0.2629	-1.0495	1.8949	2.9153	9.6069	0.0315	0.032	-0.1435	-0.0953	-0.9374	-0.5759	9.6632	-0.2881	-0.4777	0.0658	1.1836	0.9212	-0.661	-0.6444	-0.0422
-1.3823	2.1614	9.374	-0.1919	0.3682	-0.0241	1.2547	-0.2692	-1.0739	2.2851	2.6323	8.9921	-0.1825	0.213	-0.1111	-0.057	-0.9393	-0.548	9.42	-0.0567	-0.8406	0.2181	1.0325	0.7991	-0.6331	-0.6449	-0.0266
-1.3306	2.1027	9.0906	-0.1933	0.1845	-0.0884	1.297	-0.253	-1.0924	2.1799	2.5203	9.4427	-0.3636	0.5767	0.2007	-0.0572	-0.925	-0.5347	9.4234	-0.5789	-0.723	0.4933	0.7585	0.7689	-0.6473	-0.6604	-0.0413
-1.3284	2.1606	9.2046	-0.2549	0.0914	-0.0284	1.2535	-0.2625	-1.0492	2.2922	2.689	9.332	-0.2095	0.5191	-0.0772	-0.0701	-0.97	-0.5457	9.4915	-0.6932	-0.2431	0.7082	0.7299	0.646	-0.6336	-0.6756	-0.056
-1.4396	2.1614	9.3729	-0.5006	0.0291	-0.0594	1.2684	-0.2904	-1.0427	2.241	2.5203	9.6139	-0.2389	0.641	-0.0144	-0.0441	-0.9545	-0.5473	9.6009	-0.2887	-0.6586	0.4011	0.8818	0.6463	-0.6057	-0.676	-0.0403
-1.4307	2.2208	9.828	-0.5	0.0899	0.0029	1.2974	-0.2495	-1.1065	2.1267	2.7459	9.6683	-0.0556	0.4894	0.0768	-0.0827	-0.9537	-0.5608	9.8337	-0.29	-0.8339	0.7746	0.9386	1.1949	-0.6055	-0.6598	-0.0411
-1.5564	2.3333	9.2577	-0.378	-0.0018	0.0011	1.2558	-0.2932	-1.0811	2.2987	2.4639	9.615	-0.5182	0.5452	0.0153	-0.1097	-0.9877	-0.5152	9.6004	-0.5212	-0.7194	0.6508	0.8458	1.2569	-0.6607	-0.6291	-0.0276
-1.5497	2.2773	9.5986	-0.4085	0.0917	-0.12	1.2543	-0.2381	-1.0948	2.3009	2.5766	9.7284	-0.3332	0.5171	-0.0157	-0.0956	-0.9833	-0.5729	9.4848	-0.6366	-0.6023	0.5597	1.1844	1.0111	-0.6198	-0.6746	-0.0714
-1.1513	2.4489	9.4934	-0.3772	0.1837	-0.0879	1.2547	-0.2692	-1.0739	1.8966	2.6337	9.6633	-0.3666	0.3315	0.1674	-0.0825	-0.9679	-0.5742	9.3093	-0.3453	-0.4846	0.7716	0.9752	0.614	-0.6477	-0.692	-0.0552
-1.0432	2.1027	9.1531	-0.3772	0.0897	0.0639	1.2394	-0.2621	-1.0488	1.6642	2.5213	9.5451	-0.4871	0.5464	-0.108	-0.0448	-0.972	-0.5176	9.3121	-0.6352	-0.366	0.556	0.912	0.7373	-0.591	-0.611	-0.0436
-1.2099	2.8508	9.4371	-0.4671	0.4591	-0.0219	1.2699	-0.2417	-1.134	1.89	2.9714	9.3804	-0.1175	0.4882	0.1383	-0.0567	-0.9382	-0.5624	9.7163	-0.5801	-0.8373	0.6154	0.513	0.8918	-0.6194	-0.66	-0.0412
-1.6093	2.3918	9.4843	-0.2541	0.3707	-0.2693	1.2421	-0.2893	-1.0949	2.5225	2.6885	9.3368	-0.3644	0.4865	-0.0777	-0.0568	-0.9535	-0.5614	9.6652	-0.1714	-0.3574	0.3694	0.4796	1.0763	-0.6337	-0.6934	-0.0241
-1.4977	1.874	9.3138	-0.0697	0.2763	0.0047	1.2551	-0.283	-1.0705	2.2938	2.52	9.3885	-0.4286	0.3299	0.2907	-0.0701	-0.9547	-0.5467	9.2486	-0.1131	-0.5446	0.2734	0.3928	0.5575	-0.6196	-0.6584	-0.0723
-1.8447	1.9884	9.137	-0.2212	0.4268	0.2222	1.2409	-0.2653	-1.0876	2.1822	2.5767	9.5561	-0.0888	0.3056	-0.0176	-0.0448	-0.972	-0.5176	9.8423	-0.6948	-0.4163	0.2124	0.5156	0.496	-0.6199	-0.6924	-0.0395
-1.2691	2.3908	9.3204	-0.224	0.1533	-0.0582	1.2264	-0.2857	-1.0557	1.899	2.6901	9.7767	-0.3339	0.4562	-0.0779	-0.0698	-0.9689	-0.5601	9.8459	-0.8102	-0.237	0.1829	0.5439	0.7099	-0.6334	-0.6781	-0.0094
-1.3297	2.4476	9.149	-0.376	0.3995	-0.1458	1.2119	-0.2543	-1.0763	1.6088	2.6342	9.6573	0.1287	0.4007	-0.0781	-0.0829	-0.9241	-0.5485	9.9544	-0.522	-0.7128	0.5249	0.6019	1.1362	-0.6055	-0.6598	-0.0411
-1.2174	2.447	9.0375	-0.4987	0.2114	0.1275	1.2963	-0.2601	-1.0643	2.2359	2.6891	9.3874	-0.117	0.5197	0.0153	-0.0696	-0.923	-0.5631	9.6071	-0.113	-0.2984	-0.1242	0.4163	1.1089	-0.6329	-0.6278	-0.0429
-1.0928	2.2768	9.5507	-0.6534	0.1523	-0.149	1.2402	-0.2724	-1.0595	1.8915	2.8025	9.4369	-0.1516	0.2136	-0.1419	-0.0572	-0.925	-0.5347	9.8451	-0.4617	-0.2355	-0.0039	0.2673	0.773	-0.6193	-0.643	-0.0576
-1.2643	1.8748	9.5456	-0.3463	0.2771	-0.1785	1.2551	-0.283	-1.0705	1.8324	2.3518	9.3221	-0.0886	0.3349	0.1985	-0.0706	-0.9415	-0.519	9.6006	-0.6374	-0.7199	-0.0368	0.1779	0.529	-0.6331	-0.644	-0.0421
-1.2648	2.679	9.549	-0.4685	0.3379	-0.1772	1.2688	-0.2523	-1.0917	2.0623	2.5204	9.327	-0.4262	0.4857	-0.0777	-0.0705	-0.9864	-0.5304	9.4909	-0.4028	-0.2419	-0.2207	0.082	0.8664	-0.6191	-0.6455	-0.011
-1.2085	2.4489	9.4923	-0.4366	0.4596	-0.0526	1.2409	-0.248	-1.1051	1.8881	2.6897	9.2669	-0.3353	0.363	0.1061	-0.083	-0.9548	-0.5465	9.7236	-0.4041	-0.4172	0.0616	0.2912	1.445	-0.6334	-0.6594	-0.0568
-0.9253	2.0459	9.3256	-0.2523	0.5845	-0.1431	1.2547	-0.2865	-1.0564	2.5884	2.7451	9.7346	-0.243	0.3335	0.1059	-0.0827	-0.9537	-0.5608	9.7121	-0.6391	-1.0772	-0.218	0.5115	0.742	-0.6335	-0.6772	-0.0249
-1.4453	2.4474	9.0899	-0.2846	0.3388	-0.1777	1.2825	-0.2562	-1.078	1.8976	2.1267	9.6629	-0.1177	0.4587	-0.0469	-0.0574	-0.9557	-0.5327	9.7268	-0.3453	-0.2372	-0.4665	0.7005	0.1308	-0.6062	-0.7076	-0.0541
-1.6113	2.1615	9.3696	-0.4086	-0.0019	0.0011	1.2253	-0.2617	-1.0485	2.181	2.5767	9.4994	-0.2388	0.6418	-0.1377	-0.0565	-0.9525	-0.5757	9.9511	-0.5228	-0.8926	-0.3415	0.6978	0.436	-0.6475	-0.6758	-0.056
-1.5499	2.5071	9.5996	-0.4084	0.0913	-0.0893	1.2673	-0.2491	-1.0529	1.8937	2.9152	9.5503	-0.1465	0.6123	-0.1379	-0.083	-0.9394	-0.5475	9.7184	-0.5215	-0.7172	-0.3072	0.8464	0.863	-0.6479	-0.709	-0.0388
-1.5489	2.7371	9.6574	-0.7453	0.1205	-0.0879	1.2684	-0.2558	-1.0777	2.1848	2.4641	9.6692	-0.488	0.4845	-0.0161	-0.0829	-0.9241	-0.5485	9.7209	-0.6372	-0.5979	-0.3405	0.7889	0.4967	-0.6473	-0.6783	-0.0094
-1.6026	2.3358	9.8251	-0.5312	0.0915	-0.1503	1.268	-0.2593	-1.0636	2.0676	2.915	9.6106	-0.4884	0.4827	0.2613	-0.0569	-0.924	-0.549	10.0741	-0.2895	-0.5898	-0.3453	0.9223	-0.5737	-0.6473	-0.6604	-0.0413
-1.8401	1.8745	9.3639	-0.4404	-0.0614	-0.1837	1.2688	-0.2696	-1.0742	2.4095	2.8578	9.4478	-0.3661	0.3632	0.0136	-0.0571	-0.9546	-0.547	9.7203	-0.8697	-0.6588	-0.5911	0.9199	-0.4199	-0.6057	-0.6768	-0.0248
-1.4343	2.5647	9.6589	-0.1008	0.34	-0.2089	1.2261	-0.2893	-1.0416	2.5846	2.8576	9.5648	-0.2128	0.2732	0.0128	-0.0961	-0.9702	-0.5452	9.6002	-0.4631	-0.7192	-0.5317	0.676	-0.4801	-0.647	-0.6442	-0.0422
-1.4253	2.4517	10.1132	-0.4667	0.5206	-0.0209	1.2543	-0.2727	-1.0598	2.2349	2.5764	9.3307	-0.1506	0.3044	0.044	-0.0566	-0.9076	-0.5644	9.4266	-0.5201	-0.543	-0.2202	0.8884	-0.2072	-0.6195	-0.6779	-0.0093
-1.4365	2.5642	9.5452	-0.2844	0.307	-0.0862	1.2413	-0.2964	-1.0667	2.4701	2.5198	9.5621	-0.0912	0.1212	0.0422	-0.0433	-0.9666	-0.5893	9.3706	-0.403	-0.3639	0.2144	1.0085	0.1574	-0.6056	-0.659	-0.0567
-1.4388	2.6212	9.4317	0.1134	0.2167	-0.0888	1.2829	-0.3045	-1.0396	2.0129	3.3095	9.7796	-0.0577	0.307	-0.1717	-0.0701	-0.9547	-0.5467	9.835	-0.4059	-0.7745	0.1864	1.2203	0.3704	-0.6194	-0.66	-0.0412
-1.3218	2.3344	9.5464	-0.2239	0.1844	-0.0884	1.2829	-0.2699	-1.0746	2.3486	2.6888	9.2766	-0.3348	0.3943	0.0139	-0.0572	-0.9097	-0.5357	9.6635	-0.4042	-0.4782	0.06	0.9152	0.2501	-0.6331	-0.6449	-0.0266
-1.5499	2.5645	9.5998	-0.3781	-0.0328	0.0312	1.2688	-0.2696	-1.0742	2.0714	2.8024	9.7804	-0.4852	0.7	-0.1373	-0.0701	-0.97	-0.5457	9.8956	-0.58	-0.7142	-0.0308	1.0669	0.3414	-0.6201	-0.7078	-0.0542
-1.384	2.9653	9.3206	-0.164	-0.093	-0.001	1.2688	-0.2523	-1.0917	1.8853	2.8586	9.1538	-0.4242	0.6392	-0.107	-0.0431	-0.936	-0.5913	9.7752	-0.5221	-0.836	-0.433	0.9128	0.313	-0.6334	-0.6594	-0.0568
-1.216	2.0451	9.0926	-0.4687	0.2133	-0.0259	1.2406	-0.3034	-1.0386	1.8942	2.6336	9.5501	-0.3927	0.7001	0.0169	-0.0701	-0.97	-0.5457	10.019	-0.5209	-0.4122	-0.5242	0.8791	0.5886	-0.6613	-0.6776	-0.025
-1.0401	2.3906	9.3248	-0.4389	0.0594	0.0022	1.2696	-0.2971	-1.0674	1.7782	3.0844	9.548	-0.1752	0.7949	0.018	-0.0443	-0.9403	-0.5339	9.725	-0.52	-0.3578	-0.7746	0.6057	0.3157	-0.6333	-0.6602	-0.0413
-1.6665	2.3344	9.4829	-0.4083	-0.0655	0.1841	1.2402	-0.2724	-1.0595	2.1171	2.6892	9.2151	-0.3615	0.7308	0.0789	-0.07	-0.9394	-0.5477	9.3661	-0.8108	-0.6652	-0.6203	0.6993	0.1925	-0.6197	-0.6754	-0.0559
-1.5524	2.8513	9.4873	-0.7159	-0.1263	0	1.2696	-0.2971	-1.0674	2.3567	2.2384	9.616	-0.208	0.6414	-0.0143	-0.0705	-0.9864	-0.5304	9.836	-0.3475	-0.7143	-0.6514	0.6686	0.1927	-0.6336	-0.6764	-0.0404
-1.4365	2.5642	9.5452	-0.5616	0.0592	-0.0281	1.2387	-0.2692	-1.0207	2.124	2.9148	9.5551	-0.3275	0.9478	-0.2272	-0.0704	-0.9711	-0.5314	9.8979	-0.6376	-0.5946	-0.8986	0.7929	-0.082	-0.6194	-0.66	-0.0412
-1.1536	2.5633	9.3802	-0.4389	-0.0031	0.0932	1.2818	-0.2632	-1.0499	1.8368	2.5774	9.5488	-0.2079	0.642	-0.1068	-0.045	-0.8975	-0.4939	10.1387	-0.2884	-0.2892	-0.8672	0.6366	0.2548	-0.6478	-0.6912	-0.0707
-1.3283	1.9883	9.2039	-0.4995	0.026	0.2165	1.2405	-0.2688	-1.0735	1.7771	3.0281	9.4913	-0.2389	0.6412	-0.0452	-0.0443	-0.925	-0.5349	10.0685	-0.6975	-0.951	-0.525	0.9116	0.4051	-0.6053	-0.6436	-0.042
-1.9022	2.3331	9.1373	-0.2855	0.0598	0.0325	1.2833	-0.301	-1.0537	2.0731	2.5772	9.8368	-0.4894	0.3913	0.1679	-0.0696	-0.9832	-0.5734	10.0696	-0.6973	-0.8911	-0.28	0.7604	0.3132	-0.6475	-0.6758	-0.056
-1.5484	2.0478	9.6545	-0.6222	0.2133	-0.0867	1.2547	-0.2519	-1.0914	2.2436	2.4641	9.7271	-0.2744	0.302	0.1672	-0.0709	-0.9426	-0.5047	9.6636	-0.9271	-0.5404	-0.587	0.6947	0.6508	-0.6056	-0.659	-0.0567
-1.0941	2.5063	9.4948	-0.3768	0.1826	0.0041	1.2558	-0.2932	-1.0811	2.0667	2.7459	9.5538	-0.5204	0.3907	0.1987	-0.0702	-0.9251	-0.5344	9.8962	-0.8704	-0.7154	-0.4308	1.0018	0.5877	-0.6194	-0.66	-0.0412
-1.5551	2.0464	9.3134	-0.1621	0.1519	0.0949	1.2551	-0.283	-1.0705	2.2973	2.5765	9.5585	-0.3645	0.4857	0.0456	-0.0698	-0.9087	-0.5497	9.6639	-0.5784	-0.479	-0.0277	1.03	0.9528	-0.634	-0.7088	-0.0388
-1.2074	2.3917	9.5489	-0.2239	0.1844	-0.0884	1.2703	-0.3074	-1.0781	2.3538	2.52	9.503	-0.3045	0.3341	-0.11	-0.0572	-0.9853	-0.545	9.429	-0.1128	-0.3616	-0.0615	0.6941	0.8934	-0.6338	-0.6926	-0.0396
-1.4364	2.3919	9.5445	-0.2224	0.4617	-0.1452	1.2123	-0.2681	-1.0728	2.2957	2.8018	9.502	-0.1209	0.2126	0.0739	-0.0317	-1.0015	-0.5302	9.7213	-0.3465	-0.5368	-0.3989	1	0.7709	-0.6337	-0.6748	-0.0715
-1.2152	2.39	9.1509	-0.375	0.6157	-0.2343	1.2551	-0.283	-1.0705	1.8887	2.3517	9.2666	-0.1511	0.2734	0.1054	-0.0697	-0.9383	-0.5621	9.7141	-0.5806	-0.9571	-0.5218	0.9056	0.9858	-0.6061	-0.6905	-0.0705
-1.6742	2.1604	9.0842	-0.5906	0.336	-0.0542	1.2261	-0.272	-1.0591	1.8907	2.5771	9.3801	-0.4878	0.4859	-0.2319	-0.0442	-0.9699	-0.5463	9.483	0.1184	-0.5991	-0.5535	1.0934	0.5571	-0.5917	-0.6588	-0.0566
-1.4938	2.6217	9.5443	-0.4072	0.2757	-0.0864	1.2409	-0.2653	-1.0876	2.3512	2.5762	9.3898	-0.3043	0.364	0.0137	-0.0573	-0.9404	-0.5337	10.0225	-0.6363	-0.233	-0.491	0.9678	0.8937	-0.6061	-0.6905	-0.0705
-1.3839	2.793	9.3198	-0.5306	0.2147	-0.179	1.2283	-0.2854	-1.1086	1.6601	2.7465	9.3754	-0.1489	0.4279	-0.0781	-0.0701	-0.9547	-0.5467	9.778	-0.2891	-0.6553	-0.4598	0.8739	1.108	-0.6338	-0.6926	-0.0396
-1.6094	2.6215	9.4852	-0.6537	0.153	-0.2103	1.2417	-0.3101	-1.0633	2.2963	3.0835	9.5589	-0.0852	0.5816	-0.0148	-0.0571	-0.9546	-0.547	9.305	-0.4044	-0.7245	-0.4277	0.7476	1.5058	-0.6195	-0.6592	-0.0567
-1.4892	2.4503	9.771	-0.3465	0.2777	-0.2398	1.2123	-0.2335	-1.1078	1.8402	2.6902	9.7188	0.0049	0.3691	-0.171	-0.0434	-0.9371	-0.577	10.0802	-0.5206	-0.2913	-0.7078	0.3789	1.5697	-0.647	-0.6451	-0.0266
-1.6116	2.5062	9.371	-0.4992	0.3067	-0.1469	1.2562	-0.2897	-1.0952	1.7799	2.2395	9.5473	-0.0874	0.4275	0.1069	-0.0827	-0.9384	-0.5618	9.8986	-0.4631	-0.534	-0.8042	0.2928	0.9897	-0.6619	-0.7084	-0.0544
-1.3108	2.5091	10.1157	-0.6212	0.3044	0.0067	1.2268	-0.2649	-1.0873	1.7884	2.8032	10.0009	-0.2103	0.458	-0.1087	-0.0702	-0.9853	-0.5447	9.6576	-0.6961	-0.8389	-0.4671	0.1117	0.8671	-0.6756	-0.6924	-0.0553
-1.724	2.6791	9.4832	-0.315	0.244	0.0355	1.255	-0.2657	-1.088	2.0054	2.8022	9.3827	-0.1187	0.3673	-0.1403	-0.0821	-0.876	-0.5802	9.6023	-0.4046	-0.5991	-0.4991	0.2381	0.4693	-0.6329	-0.6278	-0.0429
-1.4913	2.2201	9.6563	-0.2236	0.2773	-0.1482	1.2829	-0.2872	-1.0571	2.1233	2.6331	9.4983	-0.2115	0.3658	-0.0787	-0.0706	-0.9568	-0.518	10.0218	-0.8108	-0.2936	-0.6841	0.3304	0.3473	-0.6059	-0.6744	-0.0713
-1.6149	2.448	9.2002	-0.4998	0.0892	0.0642	1.2692	-0.266	-1.0883	2.4686	2.6888	9.5056	-0.0571	0.3671	0.0139	-0.0701	-0.97	-0.5457	9.7902	-0.8093	-0.0584	-0.4058	0.4232	0.3458	-0.6471	-0.6434	-0.0577
-1.727	2.2762	9.311	-0.4688	0.1197	0.0953	1.2543	-0.2727	-1.0598	1.8401	2.7465	9.7189	-0.4268	0.4538	0.1069	-0.0574	-0.9557	-0.5327	9.6072	-0.6359	-0.3605	0.1193	0.4853	0.4353	-0.647	-0.6442	-0.0422
-1.5576	2.448	9.2013	-0.8078	-0.1896	0.1219	1.2543	-0.2727	-1.0598	2.2457	2.6332	9.8405	-0.3028	0.4864	0.0457	-0.0962	-0.9253	-0.5338	9.6048	-0.5202	-0.4798	0.4602	0.4522	0.801	-0.6199	-0.6737	-0.0869
-1.3286	2.3904	9.2056	-0.5	0.0274	0.0939	1.2543	-0.2554	-1.0773	2.0112	2.9151	9.666	-0.3653	0.4243	0.045	-0.0567	-0.9382	-0.5624	9.8485	-0.519	-0.0561	0.677	0.4201	1.0143	-0.6618	-0.7092	-0.0389
-1.4398	2.4486	9.3741	-0.5019	-0.155	-0.0931	1.2413	-0.2791	-1.0842	1.8933	2.4645	9.4933	-0.2369	0.7949	-0.1053	-0.0701	-0.9547	-0.5467	9.018	-0.5762	-0.3114	0.7381	0.4834	0.8304	-0.5914	-0.6434	-0.0419
-1.2063	2.392	9.6058	-0.4092	-0.063	-0.0305	1.2127	-0.2472	-1.1044	1.8944	2.5209	9.55	-0.2393	0.6103	-0.0147	-0.0569	-0.924	-0.549	9.6057	-0.9268	-0.4816	0.5859	0.3861	1.3204	-0.6477	-0.6928	-0.0397
-1.0872	2.2205	9.8347	-0.5628	-0.1252	-0.0311	1.2398	-0.2413	-1.0804	1.9516	2.7461	9.5514	-0.2085	0.6105	0.0162	-0.07	-0.9394	-0.5477	9.6618	-0.637	-0.599	0.6484	0.4156	1.4423	-0.6334	-0.6594	-0.0568
-1.6619	2.1056	9.7094	-0.4391	0.0912	-0.0893	1.268	-0.2766	-1.0461	1.7804	2.5775	9.6042	-0.2094	0.5197	-0.1697	-0.0569	-0.924	-0.549	9.4201	-0.5796	-0.9027	0.6811	0.5986	1.5025	-0.6196	-0.677	-0.0248
-1.0941	2.5637	9.495	-0.3466	0.1527	-0.0579	1.2688	-0.2869	-1.0567	1.893	2.6335	9.4934	-0.2416	0.4265	-0.0473	-0.0704	-0.9711	-0.5314	9.4815	-0.6374	-0.782	0.8367	0.8758	1.3783	-0.6473	-0.6604	-0.0413
-1.2085	2.3915	9.4921	-0.5912	0.1813	0.0353	1.2398	-0.2586	-1.0629	2.294	2.4074	9.3884	-0.4268	0.4536	0.1378	-0.057	-0.9393	-0.548	9.9639	-0.3456	-0.1729	0.2187	0.8761	1.136	-0.6055	-0.6598	-0.0411
-0.8649	2.3338	9.4985	-0.4383	0.2141	-0.0873	1.239	-0.231	-1.0697	2.3586	2.5202	9.7296	-0.2396	0.58	-0.0766	-0.044	-0.9239	-0.5493	9.2449	-0.8694	-0.8473	0.0346	0.9669	1.1668	-0.6333	-0.6789	0.0062
-1.6069	2.2199	9.5972	-0.4699	0.0603	-0.0897	1.2257	-0.2755	-1.045	2.1203	2.9147	9.3852	-0.3019	0.5484	-0.0462	-0.0827	-0.9384	-0.5618	9.5409	-0.3469	-0.7198	-0.2734	1.2757	0.7692	-0.6474	-0.6774	-0.025
-1.435	1.9326	9.5994	-0.4997	0.2456	-0.1786	1.2127	-0.2818	-1.0694	2.239	2.3512	9.5004	-0.0864	0.4896	-0.0158	-0.0826	-0.9833	-0.5731	9.4849	-0.6947	-0.6026	-0.0324	0.9458	0.2197	-0.5779	-0.6756	-0.0401
-1.2714	2.5052	9.2072	-0.6834	0.3694	-0.3294	1.2417	-0.2928	-1.0808	2.0072	2.5206	9.4391	-0.3017	0.5778	0.1391	-0.0579	-0.9425	-0.505	9.664	-0.6365	-0.4792	-0.2169	0.7269	0.6188	-0.6478	-0.6912	-0.0707
-1.2073	2.2768	9.5484	-0.5293	0.2738	0.0366	1.2558	-0.2759	-1.0986	1.893	2.6335	9.4934	-0.2076	0.6724	-0.0757	-0.0577	-0.9721	-0.5173	9.4862	-0.7525	-0.5429	-0.1872	0.605	0.5887	-0.6197	-0.6754	-0.0559
-1.6709	2.3334	9.2555	-0.3489	-0.1225	-0.185	1.2829	-0.2699	-1.0746	1.8925	2.9152	9.4937	-0.1449	0.764	0.1102	-0.0572	-0.9097	-0.5357	9.5482	-0.6358	-0.3616	0.1196	0.2674	0.8031	-0.6473	-0.6604	-0.0413
-1.3756	2.1628	9.7152	-0.4078	0.0582	0.1248	1.2551	-0.283	-1.0705	1.6623	2.2396	9.4316	-0.3933	0.6396	-0.107	-0.0832	-0.9854	-0.5444	9.7827	0.0606	-0.3542	0.5484	0.2434	0.3127	-0.6052	-0.6453	-0.0109
-1.094	2.4488	9.4945	-0.5006	-0.0648	0.0924	1.2822	-0.2597	-1.0639	1.662	3.0283	9.4889	-0.4839	0.8212	0.0797	-0.1088	-0.9692	-0.5593	9.8984	-0.8699	-0.5956	0.2394	-0.0049	0.5595	-0.6333	-0.661	-0.0257
-1.3802	2.3342	9.4885	-0.4396	-0.001	-0.0908	1.2669	-0.2353	-1.0563	2.5261	2.6887	9.5068	-0.1792	0.488	0.0458	-0.0704	-0.9711	-0.5314	10.1359	-0.9863	-0.5318	-0.0365	0.1773	0.5902	-0.6475	-0.6766	-0.0405
-1.3837	2.5632	9.3189	-0.5313	0.0604	-0.1202	1.2554	-0.2967	-1.0671	2.123	2.8021	9.4984	-0.1185	0.3972	-0.0167	-0.0957	-0.9538	-0.5605	9.0114	-0.1128	-0.6089	0.3985	0.5762	0.6173	-0.6468	-0.6467	0.0044
-1.616	2.5052	9.1436	-0.5002	0.2156	-0.2404	1.2264	-0.2684	-1.0732	1.8414	2.6902	9.7755	-0.1497	0.3666	-0.0787	-0.0695	-0.9525	-0.5754	9.8941	-0.406	-0.7734	0.2772	0.8514	0.5858	-0.6332	-0.6619	-0.0102
-1.3263	2.3334	9.319	-0.2238	0.184	-0.0577	1.2405	-0.2688	-1.0735	1.7231	2.465	9.6029	-0.0539	0.6128	-0.0453	-0.0441	-0.9545	-0.5473	9.5431	-0.8112	-0.6619	0.1895	0.9661	1.2885	-0.6336	-0.6756	-0.056
-1.2645	2.162	9.5468	-0.5313	0.0289	-0.0593	1.2703	-0.2901	-1.0956	2.2371	2.6892	9.4441	-0.3007	0.6402	-0.0144	-0.0836	-0.9569	-0.5178	9.6031	-0.753	-0.6006	0.2228	1.0237	1.6549	-0.6338	-0.6926	-0.0396
-1.497	2.3338	9.3725	-0.6549	-0.0624	-0.1831	1.2688	-0.2696	-1.0742	1.8864	2.9149	9.2105	-0.6095	0.6659	0.1397	-0.1098	-0.9428	-0.5039	9.6037	-0.5205	-0.5397	-0.4919	0.8142	0.9555	-0.6196	-0.6762	-0.0404
-1.4916	2.6796	9.6583	-0.531	0.0283	0.002	1.2695	-0.2625	-1.1024	2.0633	3.2528	9.4409	-0.3922	0.7314	-0.0753	-0.0697	-0.9383	-0.5621	9.7246	-0.3458	-0.3571	-0.5572	0.6346	0.5593	-0.6058	-0.6752	-0.0558
-1.4364	2.4493	9.5447	-0.5311	-0.0653	0.1231	1.2253	-0.2271	-1.0834	1.8392	2.5774	9.6621	-0.484	0.792	-0.1364	-0.0565	-0.9525	-0.5757	9.55	-0.461	-0.241	-0.2845	0.2411	0.2546	-0.634	-0.7088	-0.0388
-1.4342	2.4498	9.6584	-0.6235	-0.0333	-0.0294	1.2684	-0.2558	-1.0777	1.9025	2.7466	9.9466	-0.4555	0.6082	-0.1074	-0.0569	-0.924	-0.549	9.4848	-0.6366	-0.6023	-0.3158	0.0867	0.3777	-0.634	-0.7088	-0.0388
-1.9459	2.1063	9.8175	-0.4081	-0.0662	0.2454	1.2554	-0.2967	-1.0671	2.2377	2.3512	9.4438	-0.4566	0.5164	-0.1391	-0.0698	-0.9536	-0.5611	9.8432	-0.5784	-0.3559	-0.1286	0.3315	0.437	-0.6336	-0.6756	-0.056
-1.3273	2.2183	9.2617	-0.4381	0.2448	-0.0868	1.2405	-0.2515	-1.091	1.8965	2.69	9.6634	-0.302	0.5478	0.0463	-0.0307	-0.9227	-0.5639	9.7236	-0.869	-0.4791	0.2097	0.4276	0.1296	-0.6055	-0.6606	-0.0256
-1.3261	2.1036	9.3181	-0.1613	0.3687	-0.0549	1.2272	-0.296	-1.0664	2.4095	2.8578	9.4478	-0.2737	0.3343	-0.0791	-0.0836	-0.9569	-0.5178	9.781	-0.637	-0.5369	0.1539	1.0061	0.3716	-0.661	-0.6444	-0.0422
-1.3794	2.7365	9.547	0.1444	0.3097	-0.1487	1.2428	-0.2996	-1.1055	1.8946	2.4646	9.5499	-0.0293	0.1222	0.0115	-0.0704	-0.9558	-0.5324	9.6643	-0.7527	-0.4797	0.0989	1.2105	1.2877	-0.6193	-0.6617	-0.0101
-1.6147	2.2182	9.1993	-0.4988	0.4932	-0.3279	1.2264	-0.2512	-1.0907	2.7595	2.97	9.6818	-0.4607	0.2087	0.012	-0.0837	-0.9722	-0.5168	10.4841	-0.8141	-0.824	-0.2359	1.0769	2.2676	-0.6055	-0.6598	-0.0411
-1.6676	2.2767	9.4258	-0.6511	0.6151	-0.2948	1.2555	-0.314	-1.0496	2.0671	2.5206	9.5536	-0.3091	-0.0046	0.1025	-0.0447	-0.9567	-0.5186	9.6009	-0.7535	-0.7204	-0.2673	1.0777	2.176	-0.6198	-0.6932	-0.024
-1.3736	2.4505	9.8301	-0.3142	0.5859	-0.2963	1.2257	-0.2582	-1.0625	1.8355	2.6336	9.4922	-0.1841	0.09	-0.0506	-0.1087	-0.9538	-0.5603	9.9002	-0.6951	-0.4751	-0.6734	0.9	1.4754	-0.6751	-0.66	-0.057
-1.1524	2.4486	9.4366	-0.3137	0.522	-0.0826	1.255	-0.2484	-1.1055	2.4602	2.6321	9.109	-0.1523	0.1812	0.1353	-0.0575	-0.9863	-0.5307	9.8323	-0.6389	-0.9552	-0.4281	0.9967	1.0767	-0.6338	-0.6926	-0.0396
-1.6654	2.3346	9.5398	-0.4367	0.5225	-0.1743	1.2264	-0.2512	-1.0907	1.6641	2.5777	9.5452	0.0024	0.1843	-0.0495	-0.0437	-0.9228	-0.5636	9.7206	-0.9859	-0.6593	-0.3416	0.7911	0.2827	-0.5919	-0.675	-0.0557
-1.3196	2.2774	9.6599	-0.5302	0.2762	-0.178	1.2417	-0.2755	-1.0983	1.8934	3.0842	9.5504	-0.2735	0.3638	0.1062	-0.0705	-0.9262	-0.52	9.4313	-0.1704	-0.242	-0.405	0.8874	-0.176	-0.6336	-0.6577	-0.0878
-1.1589	2.2174	9.0945	-0.2545	0.1528	-0.0275	1.2543	-0.2554	-1.0773	2.1335	2.9715	10.0083	-0.3967	0.3927	0.1372	-0.0443	-0.925	-0.5349	9.8392	-0.7536	-0.5962	-0.3194	0.5904	-1	-0.6333	-0.6602	-0.0413
-1.1524	2.3912	9.4363	-0.0997	0.3994	-0.0239	1.2818	-0.2459	-1.0673	1.8402	2.6902	9.7188	-0.2759	0.1796	0.1352	-0.1099	-0.9581	-0.5029	9.4178	-0.0572	-0.9604	0.2081	0.8962	-0.82	-0.6335	-0.6586	-0.0723
-1.2646	2.2769	9.5473	-0.1618	0.2447	0.0351	1.2673	-0.2491	-1.0529	2.2863	2.6324	9.0488	-0.0892	0.2745	0.0438	-0.0574	-0.9557	-0.5327	9.7796	-0.986	-0.6582	0.4919	0.8853	0.3404	-0.5911	-0.628	-0.0272
-1.2072	2.1045	9.5477	-0.1308	0.3692	-0.0856	1.2279	-0.2889	-1.0945	1.7766	2.69	9.4344	-0.2764	0.1481	0.2582	-0.0704	-0.9711	-0.5314	9.8371	-0.8121	-0.7163	0.2803	1.0318	0.8906	-0.6336	-0.6764	-0.0404
-1.0972	2.2758	9.3232	-0.4349	0.7366	-0.0788	1.2695	-0.2798	-1.0849	2.2908	2.8016	9.2755	-0.2172	-0.0649	0.1328	-0.0698	-0.9689	-0.5601	9.4288	-0.5196	-0.4232	0.3748	1.1213	1.1343	-0.6472	-0.6426	-0.0732
-1.2668	2.2764	9.4336	-0.0989	0.7413	-0.3557	1.2402	-0.2551	-1.077	1.8298	2.4081	9.2088	-0.4945	-0.0358	-0.1754	-0.0698	-0.9536	-0.5611	9.7202	-0.3468	-0.5967	0.0971	0.9034	1.4114	-0.6194	-0.66	-0.0412
-1.7162	2.7382	9.8815	-0.2531	0.5869	-0.3577	1.2551	-0.3003	-1.053	2.2962	2.5201	9.5018	-0.2175	-0.0952	0.0708	-0.1095	-0.9417	-0.5182	9.5454	-0.8688	-0.5423	0.0028	0.6892	1.3822	-0.6058	-0.6752	-0.0558
-1.6116	2.5062	9.371	-0.4668	0.5834	-0.1425	1.2547	-0.2865	-1.0564	2.1732	2.858	9.1598	-0.0609	0.0613	-0.1125	-0.083	-0.9394	-0.5475	9.5408	-0.2888	-0.7196	-0.1877	0.5438	0.589	-0.6192	-0.6447	-0.0265
-1.3217	2.1046	9.5455	-0.2523	0.5534	-0.113	1.268	-0.242	-1.0811	2.0632	2.0698	9.3267	-0.4941	0.0233	0.1643	-0.0567	-0.9382	-0.5624	10.0137	-0.6383	-0.7122	-0.1308	0.7083	-0.5123	-0.6194	-0.66	-0.0412
-1.386	2.6776	9.2057	-0.2537	0.4633	-0.2984	1.2554	-0.2794	-1.0845	2.9825	2.3496	9.2896	-0.6795	0.0208	0.1949	-0.044	-0.9392	-0.5483	9.5488	-0.4032	-0.3007	0.2082	0.772	-0.6361	-0.6614	-0.6947	-0.0087
-1.3219	2.4492	9.5469	-0.3439	0.5519	-0.0207	1.2257	-0.2755	-1.045	2.1188	3.0836	9.3287	-0.0909	0.1513	0.135	-0.0827	-0.9384	-0.5618	9.6635	-0.4042	-0.4782	0.1168	0.6764	-0.2991	-0.661	-0.6444	-0.0422
-0.7506	2.5635	9.5017	-0.4051	0.4888	0.1011	1.255	-0.2657	-1.088	2.1858	2.5768	9.726	-0.0944	-0.1247	0.1323	-0.0835	-0.9865	-0.5301	10.0185	-0.8116	-0.4734	0.2709	0.6149	-0.2077	-0.6473	-0.6596	-0.0569
-1.608	2.2197	9.5404	-0.4677	0.4609	-0.1752	1.199	-0.2952	-1.0657	1.6622	2.9156	9.4888	-0.4008	0.0564	-0.0203	-0.0443	-0.925	-0.5349	9.7773	-0.4636	-0.7159	0.3347	0.7974	-0.0865	-0.6341	-0.7258	-0.0224
-1.3781	2.507	9.6029	-0.1929	0.3085	-0.1784	1.2119	-0.2889	-1.0413	1.9601	2.6901	9.9478	-0.1523	0.1812	0.1353	-0.0573	-0.9404	-0.5337	9.7206	-0.521	-0.5974	0.6471	0.8839	0.5232	-0.6196	-0.6584	-0.0723
-1.2132	2.7926	9.2663	-0.2851	0.1523	0.0033	1.2264	-0.2857	-1.0557	1.8964	2.7463	9.6634	-0.3362	0.3011	0.198	-0.0956	-0.9231	-0.5625	9.7235	-0.346	-0.417	0.5523	0.8259	0.1876	-0.6055	-0.6598	-0.0411
-0.9806	2.4485	9.4399	-0.2845	0.182	0.0958	1.268	-0.2766	-1.0461	1.8921	2.4645	9.4366	-0.6124	0.4214	0.014	-0.0561	-0.9361	-0.5911	9.8998	-0.5209	-0.4743	0.4594	0.7331	0.2495	-0.6335	-0.6586	-0.0723
-1.3198	2.6221	9.6614	-0.3468	0.0281	0.0935	1.2825	-0.2735	-1.0605	2.0677	2.8586	9.6105	-0.2118	0.3353	-0.1099	-0.0563	-0.9218	-0.5777	9.8958	-0.6961	-0.7147	0.6118	0.4887	0.2807	-0.6333	-0.6602	-0.0413
-1.4376	2.5065	9.4881	-0.2246	0.0611	-0.0597	1.2554	-0.2794	-1.0845	2.5312	2.5762	9.7332	-0.3667	0.3027	-0.1103	-0.0316	-0.9862	-0.5312	9.6595	-0.5794	-0.7186	0.1792	0.5199	0.0682	-0.6193	-0.643	-0.0576
-1.4904	2.4501	9.7141	-0.2844	0.2442	0.0355	1.2539	-0.259	-1.0632	2.4042	2.4633	9.1643	-0.3968	0.3634	-0.0789	-0.0443	-0.925	-0.5349	9.6712	-0.4025	-0.0589	0.1843	0.9138	0.433	-0.6751	-0.6787	-0.0096
-1.3824	2.3337	9.3748	-0.283	0.4907	-0.0219	1.2119	-0.2543	-1.0763	2.1265	2.8586	9.6684	-0.2112	0.3958	0.014	-0.0448	-0.972	-0.5176	9.6071	-1.0427	-0.4221	0.1522	0.7298	0.4646	-0.6612	-0.6606	-0.0414
-1.3812	2.1042	9.4307	-0.0074	0.4927	-0.084	1.2543	-0.2727	-1.0598	2.1807	2.6893	9.4995	-0.3671	0.2718	-0.0798	-0.0574	-0.9557	-0.5327	9.8379	-0.2309	-0.594	0.0316	0.7553	0.9234	-0.6197	-0.6754	-0.0559
-1.4353	2.4496	9.6015	-0.0997	0.368	0.0369	1.2543	-0.29	-1.0423	1.8355	2.6336	9.4922	-0.181	0.3353	-0.0482	-0.0564	-0.9371	-0.5767	9.7235	-0.346	-0.417	-0.0931	0.6643	0.802	-0.6192	-0.6438	-0.042
-1.207	1.8747	9.5467	-0.2529	0.4923	-0.1446	1.2554	-0.2621	-1.102	2.4056	2.3507	9.2209	-0.304	0.3943	0.0756	-0.0695	-0.9679	-0.5744	9.6053	-0.7525	-0.4808	-0.0006	0.7268	0.7097	-0.6338	-0.6918	-0.0551
-1.3253	2.4485	9.3764	-0.528	0.3639	0.2221	1.2684	-0.2731	-1.0602	2.0631	2.7458	9.3839	-0.5807	0.4835	-0.047	-0.0443	-0.9403	-0.5339	9.8955	-1.0448	-0.7761	-0.2478	0.7268	0.6189	-0.6472	-0.6791	0.0061
-1.5529	2.1043	9.4273	-0.3463	0.3085	-0.2393	1.2692	-0.3006	-1.0533	2.0047	2.5205	9.3258	-0.3934	0.6392	-0.0453	-0.0707	-0.9721	-0.517	9.7797	-0.5792	-0.5966	-0.3071	0.8152	0.9243	-0.6328	-0.6295	-0.0119
-1.4387	2.5063	9.4312	-0.194	0.1866	-0.2724	1.284	-0.2767	-1.0993	2.653	2.2382	10.0186	-0.302	0.5476	0.0771	-0.0833	-0.9405	-0.5331	9.3109	-0.1125	-0.3638	-0.3984	0.9369	0.9546	-0.6474	-0.6774	-0.025
-1.5521	2.5066	9.4859	-0.2255	0.001	-0.1833	1.268	-0.2766	-1.0461	2.2951	3.0834	9.5023	-0.3045	0.3628	0.1986	-0.0841	-0.9284	-0.4911	9.8983	-0.8118	-0.5954	-0.6793	0.6628	0.743	-0.6194	-0.6422	-0.0731
-1.55	2.622	9.6	-0.3481	0.0005	-0.183	1.3245	-0.2435	-1.0825	2.1232	2.6894	9.4983	-0.1478	0.5195	-0.0155	-0.0962	-0.9855	-0.5442	9.542	-0.3466	-0.6599	-0.8047	0.7595	0.2234	-0.6331	-0.6449	-0.0266
-1.3779	2.2198	9.6017	-0.5001	-0.0037	0.1241	1.2543	-0.2727	-1.0598	1.904	2.5776	10.0031	-0.1152	0.6433	-0.1376	-0.0959	-0.9395	-0.5472	9.8291	-0.2329	-1.0733	-0.5946	0.6471	-0.6631	-0.6055	-0.6606	-0.0256
-1.6676	2.3916	9.4263	-0.5628	-0.0627	-0.1221	1.2818	-0.2632	-1.0499	2.1276	2.9149	9.725	0.1023	0.7387	-0.2289	-0.0434	-0.9371	-0.577	10.0692	-0.523	-0.8904	-0.4433	0.7151	-1.2753	-0.6747	-0.6284	-0.0432
-1.615	2.5629	9.2007	-0.4074	0.2136	-0.026	1.2684	-0.2558	-1.0777	1.8366	2.69	9.5489	-0.3936	0.6095	-0.1998	-0.0437	-0.9228	-0.5636	9.5434	-0.4625	-0.6005	-0.229	0.4393	-1.1525	-0.6195	-0.6592	-0.0567
-1.0398	1.9885	9.3231	-0.5311	0.0911	-0.1197	1.2131	-0.2783	-1.0835	2.0036	2.4641	9.2691	-0.4826	0.9136	0.019	-0.07	-0.9996	-0.5581	9.4785	-0.7542	-0.9623	-0.3182	0.4948	-0.6328	-0.5914	-0.6434	-0.0419
-0.9178	2.4497	9.7253	-0.6217	0.1494	0.1269	1.2684	-0.2904	-1.0427	1.888	2.746	9.267	-0.3348	0.3943	0.0139	-0.0699	-0.924	-0.5487	9.3075	-0.5201	-0.6051	-0.6553	0.4898	-0.2648	-0.6194	-0.6608	-0.0257
-1.4344	2.737	9.6596	-0.6223	0.2136	-0.1174	1.2547	-0.3211	-1.0214	2.2992	2.8582	9.672	-0.118	0.4283	-0.078	-0.0831	-0.9701	-0.5455	9.4845	-0.5205	-0.6018	-0.7794	0.5218	-0.4479	-0.5917	-0.6588	-0.0566
-1.6146	2.1034	9.1988	-0.4077	0.1518	0.0036	1.2409	-0.2826	-1.0701	2.1307	2.5207	9.838	-0.1214	0.1813	0.1661	-0.0832	-0.9854	-0.5444	9.4822	-0.9277	-0.7833	-0.5302	0.6731	-0.205	-0.6052	-0.6453	-0.0109
-1.6103	2.2766	9.4269	-0.3144	0.3987	-0.054	1.2547	-0.2519	-1.0914	2.4672	2.7451	9.449	-0.2744	0.302	0.1672	-0.0569	-0.9689	-0.5604	9.6004	-0.5212	-0.7194	-0.5313	0.6441	-0.3577	-0.6337	-0.6748	-0.0715
-1.7855	2.3335	9.2533	-0.0079	0.3687	0.006	1.255	-0.2657	-1.088	2.0033	2.6331	9.2693	-0.1209	0.2126	0.0739	-0.0699	-0.924	-0.5487	9.7753	-1.0451	-0.8981	-0.6247	0.5523	-0.3875	-0.62	-0.7094	-0.0232
-1.4419	2.3332	9.2599	-0.2532	0.4933	-0.2366	1.2543	-0.2727	-1.0598	1.8943	2.5772	9.55	0.0036	0.2763	-0.0486	-0.0565	-0.9525	-0.5757	9.6042	-0.7528	-0.5407	-0.4713	0.7096	-0.7556	-0.6198	-0.6746	-0.0714
-1.9009	2.0461	9.193	-0.6523	0.2742	-0.055	1.2555	-0.314	-1.0496	2.1879	2.7459	9.8394	-0.3977	0.3019	-0.0487	-0.0567	-0.9382	-0.5624	9.6672	-0.5777	-0.2992	-0.5341	0.7116	-0.9693	-0.6197	-0.6754	-0.0559
-1.1513	2.4489	9.4934	-0.3761	0.2745	0.0362	1.2966	-0.2566	-1.0784	1.8882	2.6333	9.2669	-0.0582	0.2757	-0.0795	-0.0833	-0.9405	-0.5331	9.9569	-0.6377	-0.5935	-0.6276	0.7132	-1.1523	-0.6474	-0.6774	-0.025
-1.4399	2.6784	9.3751	-0.5904	0.3667	-0.0537	1.268	-0.2766	-1.0461	1.8943	2.5772	9.55	-0.2406	0.489	-0.2317	-0.0833	-0.9405	-0.5331	9.6672	-0.5777	-0.2992	-1.0296	0.6518	-1.2728	-0.6616	-0.6743	-0.0872
-1.5057	2.1021	8.9167	-0.6225	0.2768	-0.2697	1.2264	-0.2512	-1.0907	2.3054	2.7458	9.9551	-0.3319	0.6095	-0.0764	-0.0573	-0.9404	-0.5337	9.724	-0.5783	-0.418	-1.4342	0.5334	-1.7904	-0.6756	-0.6916	-0.0709
-1.5611	2.5621	9.0313	-0.4089	0.0302	-0.121	1.2673	-0.2318	-1.0704	2.0687	2.3516	9.6101	-0.2717	0.4878	-0.1084	-0.083	-0.9394	-0.5475	9.3697	-0.4614	-0.4241	-1.5586	0.3797	-1.7586	-0.6334	-0.6594	-0.0568
-1.4903	2.3927	9.7139	-0.6842	0.09	-0.0886	1.2966	-0.2566	-1.0784	1.952	2.5208	9.5512	-0.5465	0.7302	-0.1987	-0.0308	-0.9381	-0.5629	10.0157	-0.5217	-0.5919	-1.5873	0.4997	-1.5451	-0.5915	-0.6426	-0.0574
-1.6092	2.2194	9.4835	-0.5012	0.0308	-0.2127	1.2402	-0.2551	-1.077	2.1824	2.464	9.556	-0.0829	0.7656	-0.013	-0.0961	-0.9702	-0.5452	9.6628	-0.1138	-0.477	-1.1865	0.439	-1.4546	-0.6338	-0.6918	-0.0551
-1.1534	2.2761	9.379	-0.4705	-0.0319	-0.0912	1.2272	-0.2787	-1.0839	1.8908	2.5208	9.38	-0.0515	0.797	-0.0743	-0.0701	-0.9547	-0.5467	9.9613	-0.6367	-0.3539	-1.2491	0.3164	-1.4538	-0.6338	-0.6926	-0.0396
-1.837	2.1624	9.5357	-0.3158	0.1211	0.0335	1.2547	-0.2865	-1.0564	2.0576	3.0836	9.1576	-0.2073	0.6738	-0.2915	-0.0316	-0.9413	-0.5199	9.7817	-0.4626	-0.4763	-1.4332	0.1278	-1.0244	-0.6335	-0.6772	-0.0249
-1.5002	2.2182	9.2015	-0.4996	0.1827	-0.0569	1.254	-0.3109	-1.0108	1.6091	2.4652	9.6571	-0.2379	0.7035	-0.1987	-0.0573	-0.9404	-0.5337	9.4811	-0.4631	-0.7813	-1.4627	0.3425	-1.0864	-0.6617	-0.71	-0.0234
-1.1577	2.1028	9.1508	-0.2851	0.1212	0.0335	1.2272	-0.2787	-1.0839	1.8449	2.7467	9.9454	-0.2999	0.7019	-0.0755	-0.0572	-0.9097	-0.5357	9.3687	-0.0548	-0.4223	-1.3452	0.0436	-1.7272	-0.5914	-0.6434	-0.0419
-1.2112	3.0803	9.3812	-0.4079	0.215	-0.1487	1.2691	-0.2487	-1.1058	1.8402	2.6902	9.7188	-0.3975	0.3313	0.1366	-0.0829	-0.9843	-0.5588	10.0754	-0.8122	-0.5921	-1.1331	0.0514	-2.4004	-0.6057	-0.6768	-0.0248
-1.0355	2.2767	9.5518	-0.5303	0.1826	-0.0568	1.2543	-0.2381	-1.0948	1.8948	2.9716	9.607	-0.4892	0.3925	-0.017	-0.0703	-0.9404	-0.5334	10.0132	-0.406	-0.7112	-0.6407	0.1481	-2.7083	-0.62	-0.6907	-0.0706
-1.0925	1.9321	9.5492	-0.7133	0.2104	0.1281	1.2707	-0.2865	-1.1096	2.1268	2.6896	9.6682	-0.489	0.4224	0.1066	-0.0572	-0.9097	-0.5357	9.959	-0.5791	-0.4735	-0.36	0.5776	-2.7419	-0.6339	-0.691	-0.0706
-1.2143	2.7349	9.2092	-0.2844	0.2756	-0.0254	1.2413	-0.2618	-1.1017	1.8843	2.7459	9.097	-0.5185	0.5148	-0.0159	-0.0957	-0.9538	-0.5605	9.6008	-0.6955	-0.7202	-0.1393	0.7244	-2.071	-0.6338	-0.6926	-0.0396
-1.4353	2.4496	9.6015	-0.4989	0.3371	-0.1158	1.2398	-0.2586	-1.0629	1.719	2.6901	9.4332	-0.2102	0.4586	-0.2011	-0.0575	-0.971	-0.5317	9.4296	-0.4032	-0.3628	0.3922	0.9297	-1.0348	-0.6333	-0.661	-0.0257
-0.9214	2.7362	9.5559	-0.4685	0.3379	-0.1772	1.2543	-0.29	-1.0423	1.8905	2.6898	9.3802	-0.1481	0.4894	-0.1083	-0.0837	-0.9722	-0.5168	9.6061	-0.6361	-0.4204	0.58	0.925	-0.5159	-0.6337	-0.6934	-0.0241
-1.5566	2.5631	9.2587	-0.2538	0.3072	-0.0863	1.2539	-0.259	-1.0632	1.7815	2.6339	9.6609	-0.3652	0.4249	-0.0474	-0.0836	-0.9569	-0.5178	9.7183	-0.4634	-0.717	0.5758	0.8399	-1.1573	-0.6196	-0.6584	-0.0723
-1.2075	2.5066	9.5494	-0.4989	0.3685	-0.1766	1.2417	-0.2928	-1.0808	1.8306	2.6334	9.2657	-0.117	0.5197	0.0153	-0.0567	-0.9382	-0.5624	9.432	0.0041	-0.1814	-0.0425	0.9029	-1.5527	-0.6331	-0.644	-0.0421
-1.2704	2.6778	9.2647	-0.5917	0.1202	0.0037	1.2123	-0.2854	-1.0553	2.073	2.6335	9.8369	0.1307	0.5829	0.2011	-0.083	-0.9548	-0.5465	9.6585	-0.6378	-0.7787	-0.2602	0.8747	-1.8574	-0.6338	-0.6926	-0.0396
-1.3187	2.5649	9.718	-0.6224	0.2765	-0.2391	1.2688	-0.2696	-1.0742	1.8947	2.4083	9.5499	-0.2745	0.3014	0.2597	-0.0837	-0.9722	-0.5168	9.5433	-0.4044	-0.6002	-0.1056	0.9986	-1.9502	-0.6479	-0.7082	-0.0544
-1.3809	1.7021	9.429	-0.6222	0.2447	-0.1476	1.2818	-0.2459	-1.0673	2.2973	2.5765	9.5585	-0.0915	0.0908	0.0111	-0.0696	-0.923	-0.5631	9.4218	-0.3468	-0.7819	-0.0468	0.849	-2.2553	-0.6198	-0.6746	-0.0714
-1.3736	2.4505	9.8301	-0.2236	0.3398	-0.2392	1.2539	-0.259	-1.0632	2.1276	2.9149	9.725	-0.4924	0.1756	0.3199	-0.0836	-0.9416	-0.5188	9.5478	-0.4615	-0.3609	-0.2599	0.8741	-1.7962	-0.6196	-0.6762	-0.0404
-1.5531	2.334	9.4283	-0.2859	0.1233	-0.1505	1.255	-0.2657	-1.088	2.1217	2.802	9.4418	-0.5203	0.3913	0.1062	-0.0828	-0.969	-0.5598	9.6074	-0.2291	-0.2989	-0.5065	0.4383	-1.1515	-0.6338	-0.6926	-0.0396
-1.2096	2.3912	9.4352	-0.3756	0.367	0.007	1.2402	-0.2897	-1.042	1.8965	2.69	9.6634	-0.4902	0.3015	-0.1721	-0.0579	-0.9425	-0.505	9.2555	-0.6927	-0.2475	-0.3521	0.5316	-1.2441	-0.6197	-0.6754	-0.0559
-1.2139	2.1605	9.2068	-0.4683	0.3372	-0.1158	1.2406	-0.2861	-1.056	1.893	2.6335	9.4934	-0.0277	0.2737	0.2904	-0.0314	-0.9555	-0.5332	10.0715	-0.5806	-0.7708	0.0497	0.6554	-1.2462	-0.6196	-0.6762	-0.0404
-1.2681	2.5059	9.3777	-0.1925	0.2449	0.0045	1.2123	-0.2508	-1.0903	2.4086	2.6888	9.3911	-0.213	0.2722	0.167	-0.1085	-0.9681	-0.5736	9.5507	-0.2866	-0.1804	0.1129	0.7149	-1.0633	-0.6057	-0.6582	-0.0722
-1.2052	2.5071	9.6631	-0.284	0.2117	0.1883	1.2554	-0.2967	-1.0671	2.3009	2.5766	9.7284	-0.1197	0.305	0.0132	-0.057	-0.9393	-0.548	9.8441	-0.52	-0.2957	0.4518	0.6234	-0.9724	-0.6191	-0.6455	-0.011
-1.5533	2.6213	9.4295	-0.3459	0.2446	-0.0257	1.2146	-0.2988	-1.1048	2.1815	2.9147	9.5563	-0.46	0.2696	0.0742	-0.0568	-0.9535	-0.5614	9.6588	-0.7539	-0.7792	0.5433	0.6877	-1.2481	-0.6341	-0.7071	-0.0698
-1.4352	2.3347	9.6011	-0.2533	0.2118	0.1882	1.2547	-0.3038	-1.0389	1.8943	2.5772	9.55	-0.4901	0.3308	0.044	-0.07	-0.9394	-0.5477	9.7885	-0.5772	-0.1173	0.4497	0.5963	-1.3085	-0.6482	-0.7244	-0.0535
-1.4957	2.1617	9.4287	-0.3773	0.0901	0.0332	1.2417	-0.2755	-1.0983	1.8932	2.5209	9.4933	-0.5809	0.4825	0.1071	-0.0708	-0.9875	-0.516	9.4356	-0.1113	-0.0021	0.6975	0.8435	-1.4634	-0.6474	-0.6774	-0.025
-1.2084	2.2766	9.4916	-0.5005	-0.0027	0.0321	1.297	-0.2703	-1.0749	2.4089	2.5198	9.3909	-0.4568	0.5154	0.015	-0.0827	-0.9384	-0.5618	9.658	-0.4055	-0.7778	0.636	0.905	-1.5246	-0.6336	-0.6943	-0.0085
-1.8976	2.2192	9.3643	-0.3769	0.1515	0.0342	1.2272	-0.2787	-1.0839	1.8968	2.5773	9.6633	-0.3926	0.7003	-0.0139	-0.1085	-0.9232	-0.5623	9.4256	-0.5784	-0.6032	0.6679	0.9342	-1.372	-0.6197	-0.6754	-0.0559
-1.4398	2.506	9.3744	-0.4382	0.2138	-0.0566	1.3119	-0.2636	-1.1034	2.463	2.4632	9.2222	-0.4221	0.822	0.0798	-0.0699	-0.924	-0.5487	9.5988	-0.8121	-0.8405	0.518	0.8633	-0.4848	-0.6199	-0.6916	-0.055
-1.4417	1.9886	9.2585	-0.1622	0.2772	-0.1177	1.2535	-0.2625	-1.0492	2.4687	2.6325	9.5055	-0.2362	0.8558	-0.0431	-0.0704	-0.9558	-0.5324	9.5494	-0.6936	-0.3019	0.2739	1.0128	-0.2401	-0.6196	-0.677	-0.0248
-0.9224	2.6785	9.4988	-0.5316	-0.0954	0.0613	1.2257	-0.2582	-1.0625	2.2358	2.7454	9.3875	-0.3897	0.9158	-0.1351	-0.0826	-0.923	-0.5628	9.7137	-0.8712	-1.0183	0.1835	1.5054	-0.5784	-0.647	-0.6451	-0.0266
-1.2611	2.1627	9.7174	-0.5616	0.1217	-0.1191	1.2825	-0.2562	-1.078	1.88	2.464	8.8702	-0.1739	0.8879	-0.1352	-0.0703	-0.9404	-0.5334	10.3102	-0.29	-0.5854	0.121	1.2583	-0.363	-0.606	-0.6914	-0.055
-1.663	2.1053	9.6525	-0.4692	0.1836	-0.1183	1.2699	-0.259	-1.1165	1.776	2.352	9.3775	-0.0528	0.7048	-0.0444	-0.0573	-0.9404	-0.5337	9.5466	-0.4037	-0.4205	-0.3696	1.1893	0.2198	-0.6626	-0.7553	-0.083
-1.7261	2.5063	9.3688	-0.3758	0.2109	0.2192	1.2405	-0.2688	-1.0735	1.894	2.7462	9.5502	0.0098	0.767	-0.0437	-0.0571	-0.8944	-0.5367	9.3658	-0.6947	-0.6647	-0.7094	0.9409	0.4667	-0.6332	-0.6619	-0.0102
-1.0993	2.0455	9.2086	-0.3762	0.2434	0.0664	1.2684	-0.2731	-1.0602	2.118	2.2385	9.2147	-0.2699	0.6402	0.0473	-0.0706	-0.9568	-0.518	9.8996	-0.4048	-0.4738	-0.4048	0.7007	0.1306	-0.62	-0.6907	-0.0706
-1.4385	2.2765	9.4303	-0.3471	0.1541	-0.1805	1.2829	-0.2699	-1.0746	1.8914	2.2391	9.3798	-0.3998	0.1476	0.1039	-0.0963	-0.9559	-0.5318	10.0135	-0.5222	-0.7117	-0.4733	0.434	-0.7237	-0.6336	-0.6577	-0.0878
-1.837	2.105	9.5355	-0.5303	0.1512	0.004	1.2688	-0.2523	-1.0917	2.1215	2.295	9.3847	-0.2764	0.1195	-0.0504	-0.0836	-0.9416	-0.5188	9.424	-0.3463	-0.6621	-0.2891	0.3741	-0.7852	-0.6338	-0.6739	-0.087
-1.7348	2.1597	8.9125	-0.2224	0.4617	-0.1452	1.2535	-0.2625	-1.0492	2.4089	2.5198	9.3909	0.0325	0.1232	-0.0193	-0.0566	-0.9678	-0.5747	9.5451	-0.2297	-0.4797	0.1158	0.4298	-0.1145	-0.6328	-0.6295	-0.0119
-1.7774	2.048	9.65	-0.4068	0.3997	-0.1763	1.2406	-0.2861	-1.056	2.5276	2.5761	9.5633	-0.3369	0.2401	0.1357	-0.0704	-0.9558	-0.5324	9.6661	-0.578	-0.3592	0.489	0.4561	0.4341	-0.6334	-0.6594	-0.0568
-1.4398	2.4486	9.3741	-0.2523	0.5534	-0.113	1.239	-0.2483	-1.0522	2.2393	2.8019	9.5575	-0.3708	-0.005	0.0408	-0.0569	-0.9842	-0.5593	9.6621	-0.7532	-0.5995	0.7641	0.4927	-0.0561	-0.6199	-0.6924	-0.0395
-1.6167	1.8731	9.0841	-0.2545	0.2467	-0.1793	1.2833	-0.301	-1.0537	2.1824	2.464	9.556	-0.4928	0.1161	0.0419	-0.0576	-0.9414	-0.5193	9.7188	-0.6957	-0.718	0.3289	0.4669	-0.6656	-0.5919	-0.675	-0.0557
-1.2139	2.1605	9.2068	-0.4671	0.3652	0.13	1.2684	-0.2558	-1.0777	1.8925	2.2955	9.4365	-0.6173	0.0524	0.1644	-0.0827	-0.9384	-0.5618	9.7229	-0.1137	-0.416	0.2649	0.5332	-1.1853	-0.6196	-0.677	-0.0248
-1.6084	2.6792	9.5423	-0.1308	0.2438	0.127	1.2551	-0.283	-1.0705	2.0085	2.4643	9.4957	-0.1811	0.3349	0.0135	-0.058	-0.9578	-0.504	10.0224	-0.5783	-0.2327	0.2691	0.8047	-0.8198	-0.6199	-0.6916	-0.055
-1.4408	2.276	9.3166	-0.3456	0.3689	-0.1464	1.2421	-0.3066	-1.0774	1.8984	2.3521	9.7197	-0.4282	0.3322	-0.0484	-0.0567	-0.9382	-0.5624	9.6555	-0.2898	-0.8971	0.4622	1.1936	0.0945	-0.6338	-0.6739	-0.087
-1.2119	2.4482	9.3217	-0.3748	0.521	-0.0211	1.2417	-0.2755	-1.0983	1.8884	3.1404	9.3239	-0.1504	0.3058	-0.1718	-0.0436	-0.9677	-0.575	9.3538	-0.2906	-1.262	0.125	1.0643	0.6465	-0.6616	-0.693	-0.0397
-1.2658	2.449	9.4912	-0.1921	0.3689	-0.0855	1.2405	-0.2342	-1.1085	1.9557	2.4646	9.721	-0.334	0.4556	0.0145	-0.0964	-0.9712	-0.5308	9.5444	-0.4042	-0.5403	-0.2808	0.7929	0.1297	-0.6196	-0.6762	-0.0404
-1.3725	2.5082	9.8872	-0.4985	0.3361	-0.0238	1.2264	-0.2512	-1.0907	2.2397	2.5766	9.5573	-0.088	0.3667	0.0139	-0.0701	-0.97	-0.5457	9.7758	-0.2896	-0.7751	-0.595	0.4925	-0.5096	-0.6058	-0.6939	-0.0084
-1.607	2.3923	9.598	-0.1905	0.7398	-0.2634	1.255	-0.2484	-1.1055	2.1256	2.6895	9.6116	-0.2416	0.4267	-0.0782	-0.0964	-0.9712	-0.5308	9.5419	-0.2885	-0.6597	-0.7556	0.1937	-1.2411	-0.62	-0.7094	-0.0232
-1.2085	2.334	9.4918	-0.2835	0.4921	-0.1445	1.2543	-0.2554	-1.0773	1.8901	2.9151	9.3804	-0.1509	0.2744	-0.0488	-0.0583	-0.9742	-0.4886	10.0176	-0.405	-0.4716	-0.911	0.0714	-1.301	-0.6052	-0.6444	-0.0264
-1.4331	2.4501	9.7153	-0.3751	0.4906	-0.0523	1.2405	-0.2688	-1.0735	2.111	2.7453	8.932	-0.3967	0.3929	0.1063	-0.0835	-0.9865	-0.5301	9.6573	-0.5799	-0.8384	-0.7869	-0.147	-0.842	-0.6199	-0.6916	-0.055
-1.0378	2.3337	9.4383	-0.3453	0.4307	-0.176	1.1978	-0.2539	-1.0759	2.0119	2.5771	9.6657	0.2484	0.0957	-0.0811	-0.0438	-0.9535	-0.5616	9.6605	-0.0563	-0.5966	-0.5964	0.1848	-0.3247	-0.6055	-0.6606	-0.0256
-1.55	2.6794	9.6003	-0.192	0.4311	-0.1458	1.2684	-0.2558	-1.0777	2.3609	2.5766	9.8429	-0.5203	0.3913	0.1062	-0.0577	-0.9568	-0.5183	9.601	-0.3467	-0.6588	-0.4079	0.5203	-0.1742	-0.633	-0.6457	-0.011
-1.8999	2.2761	9.2508	-0.4072	0.1818	0.0655	1.2413	-0.2964	-1.0667	2.2451	2.9148	9.8407	-0.2138	0.1818	-0.0806	-0.057	-0.9393	-0.548	9.8418	-0.9273	-0.4771	-0.2828	0.5173	0.1616	-0.6332	-0.6619	-0.0102
-1.4431	2.4479	9.2036	-0.4074	0.245	-0.0868	1.2543	-0.2381	-1.0948	1.9469	2.6896	9.3248	-0.0595	0.1829	0.0429	-0.044	-0.9841	-0.5596	9.5969	-0.4639	-0.8989	-0.3438	0.5779	0.1921	-0.606	-0.71	-0.0076
-1.2063	2.4494	9.606	-0.2845	0.2445	0.0048	1.2405	-0.2688	-1.0735	1.7173	2.9717	9.3768	-0.4593	0.3306	0.1365	-0.0962	-0.9406	-0.5328	9.7163	-0.1152	-0.7754	-0.406	0.5165	0.1926	-0.6474	-0.6774	-0.025
-1.3273	2.1608	9.2614	-0.3151	0.2444	0.0049	1.2829	-0.2526	-1.0921	2.4123	2.6326	9.5609	-0.551	0.3915	0.0137	-0.0839	-0.958	-0.5034	10.0156	0.0013	-0.5298	-0.6857	0.3645	0.0109	-0.6196	-0.6584	-0.0723
-1.3845	2.1034	9.2601	-0.4079	0.215	-0.1487	1.255	-0.2657	-1.088	1.8958	3.0843	9.6637	-0.5192	0.4829	0.1688	-0.0702	-0.9251	-0.5344	9.7144	-0.6967	-0.9576	-0.8714	0.5206	-0.3559	-0.6061	-0.6905	-0.0705
-1.3756	2.1628	9.7152	-0.4387	0.0901	0.0027	1.2264	-0.2684	-1.0732	1.9452	2.9149	9.2683	-0.6129	0.3901	0.1061	-0.0578	-0.9272	-0.506	9.6618	-0.637	-0.599	-0.9055	0.3404	-0.6911	-0.6202	-0.7256	-0.0223
-1.6676	2.2767	9.4258	-0.3466	0.1842	-0.1187	1.2547	-0.3038	-1.0389	2.286	2.8014	9.0489	-0.3612	0.7322	-0.1369	-0.0706	-0.9568	-0.518	9.5392	-0.0567	-0.7785	-0.9356	0.5251	-0.8141	-0.634	-0.6901	-0.0862
-1.2736	2.4473	9.0932	-0.4075	0.1514	0.0343	1.2546	-0.2346	-1.1089	2.2919	2.2383	9.275	-0.421	0.8851	-0.1971	-0.0961	-0.9702	-0.5452	9.9562	-0.3473	-0.5923	-0.9941	0.7361	-0.5399	-0.6192	-0.6625	0.0054
-1.2691	2.4482	9.3206	-0.3484	-0.0924	-0.1232	1.2264	-0.2684	-1.0732	2.1166	2.9708	9.2153	-0.2652	0.9795	-0.2577	-0.0956	-0.9231	-0.5625	9.839	-0.6955	-0.596	-1.085	0.7639	-0.2952	-0.676	-0.7248	-0.0537
-1.8381	2.1047	9.4786	-0.7464	-0.1896	0.1524	1.2543	-0.2554	-1.0773	2.3523	2.6326	9.4464	-0.1429	0.8885	-0.166	-0.0567	-0.9382	-0.5624	9.5986	-0.6959	-0.84	-1.0528	0.7615	-0.0508	-0.6475	-0.6571	-0.1034
-1.3273	2.2183	9.2617	-0.5318	-0.1261	0.0608	1.2127	-0.2818	-1.0694	1.9016	2.5775	9.8898	-0.1127	0.8281	-0.259	-0.0702	-0.9853	-0.5447	10.0755	-0.4054	-0.5304	-1.0532	0.6691	0.0108	-0.6198	-0.6932	-0.024
-1.1503	2.564	9.5507	-0.4702	-0.064	0.031	1.2413	-0.2791	-1.0842	1.8928	2.7462	9.4935	-0.2692	0.6724	-0.1991	-0.0437	-0.9381	-0.5626	9.4207	-0.8119	-0.9037	-0.8375	0.7632	-0.1432	-0.6617	-0.6914	-0.0708
-1.2118	2.3908	9.3215	-0.5319	-0.1572	0.091	1.2684	-0.2904	-1.0427	2.3511	2.6326	9.3898	-0.2077	0.6432	-0.2918	-0.0698	-0.9689	-0.5601	10.0759	-0.5796	-0.5312	-1.1811	0.6462	-0.7833	-0.6475	-0.6758	-0.056
-1.6085	2.7941	9.5428	-0.5313	0.0289	-0.0593	1.255	-0.2657	-1.088	2.1221	2.633	9.4416	-0.0854	0.5519	-0.1693	-0.0565	-0.9525	-0.5757	9.4336	-0.6928	-0.1843	-1.2738	0.6462	-0.8135	-0.6474	-0.6774	-0.025
-1.2069	1.7599	9.5463	-0.5009	-0.0641	0.0311	1.2543	-0.2727	-1.0598	2.1235	2.5204	9.4982	-0.0865	0.4892	0.0459	-0.0698	-0.9689	-0.5601	9.7752	-0.5221	-0.836	-0.7484	0.3974	-0.2335	-0.6053	-0.6436	-0.042
-1.3811	2.0467	9.4304	-0.4696	0.1846	-0.2103	1.2684	-0.2904	-1.0427	1.8998	2.8591	9.8334	-0.1809	0.3648	0.1371	-0.0573	-0.9404	-0.5337	9.8378	-0.6377	-0.6556	-0.5938	0.2418	0.0723	-0.6475	-0.6766	-0.0405
-1.2096	2.3912	9.4352	-0.5291	0.2731	0.098	1.2405	-0.2515	-1.091	1.8348	2.3519	9.4353	-0.1216	0.1519	-0.0191	-0.083	-0.9996	-0.5578	9.661	-0.7534	-0.6594	-0.4694	0.4886	-0.0821	-0.6336	-0.6764	-0.0404
-1.2692	2.5631	9.3211	-0.4062	0.398	-0.023	1.2696	-0.2971	-1.0674	2.4658	2.8577	9.3924	-0.4295	0.2394	0.074	-0.0706	-0.9415	-0.519	9.1838	-0.4629	-0.9066	-0.5007	0.3652	0.0103	-0.5917	-0.6588	-0.0566
-1.5462	2.1057	9.7684	-0.3446	0.4911	-0.083	1.2829	-0.2872	-1.0571	1.9004	2.5775	9.8332	-0.4584	0.3925	0.0446	-0.0824	-0.9373	-0.5762	9.7232	-0.6947	-0.4784	-0.6825	0.6379	0.193	-0.6478	-0.6912	-0.0707
-1.432	2.4503	9.7721	-0.1001	0.4944	-0.2677	1.2539	-0.259	-1.0632	2.4728	2.3509	9.6752	-0.15	0.3651	0.1371	-0.0702	-0.9251	-0.5344	9.721	-0.6952	-0.5982	0.0273	0.7013	0.2207	-0.6196	-0.677	-0.0248
-1.3878	2.1027	9.0895	-0.5295	0.3055	-0.0548	1.1989	-0.2779	-1.0832	1.8917	2.6898	9.4368	-0.2392	0.6109	-0.1072	-0.0312	-0.9698	-0.5466	9.6577	-0.2893	-0.7773	-0.0054	0.6738	-0.0847	-0.6336	-0.6764	-0.0404
-1.717	2.221	9.8224	-0.3761	0.212	0.1272	1.2543	-0.2727	-1.0598	1.7778	2.6901	9.491	-0.5499	0.4835	0.0146	-0.07	-0.9394	-0.5477	10.0166	-0.4634	-0.5318	0.3318	0.6167	-0.3607	-0.6196	-0.677	-0.0248
-1.2656	2.1618	9.49	-0.3459	0.1506	0.1261	1.2551	-0.3003	-1.053	2.1268	2.6896	9.6682	-0.2708	0.5496	-0.1694	-0.0445	-0.9709	-0.5319	10.1367	-0.4051	-0.4095	-0.0979	0.6113	0.0076	-0.6199	-0.6924	-0.0395
-1.3757	2.2202	9.7154	-0.5004	0.0909	-0.0891	1.2257	-0.2409	-1.08	1.8435	2.8593	9.8889	-0.2409	0.4876	-0.0159	-0.0575	-0.9863	-0.5307	9.4851	-0.2879	-0.5409	-0.4375	0.7041	-0.2055	-0.6194	-0.66	-0.0412
-1.0939	2.2191	9.4936	-0.6214	0.3676	-0.1456	1.2417	-0.2582	-1.1158	2.126	2.4642	9.6114	-0.3345	0.4243	0.1067	-0.057	-0.9393	-0.548	10.0685	-0.6975	-0.951	-0.5288	0.6394	0.1007	-0.6337	-0.6934	-0.0241
-1.3197	2.3923	9.6604	-0.2841	0.4939	-0.2978	1.2261	-0.2893	-1.0416	2.0706	2.6334	9.7236	0.063	0.0931	-0.0504	-0.07	-0.9394	-0.5477	9.6061	-0.1713	-0.3585	-0.4964	0.5433	0.529	-0.6338	-0.6926	-0.0396
-1.0996	2.3902	9.21	-0.2233	0.433	-0.3297	1.2673	-0.2491	-1.0529	2.1245	2.0135	9.4977	0.0012	0.0921	-0.0196	-0.0706	-0.9415	-0.519	9.8408	-0.5208	-0.4754	-0.4643	0.6652	0.5894	-0.6201	-0.7078	-0.0542
-1.7228	2.6219	9.5399	-0.3451	0.5554	-0.3273	1.2405	-0.2688	-1.0735	1.8928	2.7462	9.4935	0.0321	0.0923	0.0112	-0.0711	-0.9283	-0.4913	9.6586	-0.1729	-0.7169	-0.5323	0.5839	-0.4491	-0.5921	-0.6912	-0.0549
-1.7193	2.3354	9.7092	-0.2242	0.279	-0.3015	1.2413	-0.2791	-1.0842	2.0126	2.8588	9.7226	-0.0291	0.1521	0.1351	-0.083	-0.9548	-0.5465	9.7211	-0.7533	-0.5984	-0.5024	0.6168	-0.6633	-0.592	-0.6733	-0.0868
-1.2161	2.1026	9.0929	-0.3136	0.4592	0.039	1.2249	-0.2653	-1.0344	2.181	2.5767	9.4994	-0.5238	0.1153	0.1035	-0.0563	-0.9218	-0.5777	9.4277	-0.5198	-0.4831	-0.4721	0.6491	-0.8164	-0.6612	-0.6606	-0.0414
-1.7852	1.9888	9.2518	-0.4066	0.3365	-0.024	1.2402	-0.2551	-1.077	2.3565	2.9708	9.6733	-0.2436	0.273	-0.018	-0.0574	-0.9557	-0.5327	9.954	-0.3478	-0.7121	-0.1335	0.434	-0.6027	-0.6476	-0.6936	-0.0241
-1.4374	2.2768	9.4871	-0.4984	0.2418	0.1587	1.2406	-0.2861	-1.056	2.296	2.6328	9.5019	-0.43	0.2081	0.1661	-0.0701	-0.9547	-0.5467	9.5448	-0.1136	-0.4792	-0.1007	0.4303	-0.236	-0.6341	-0.7071	-0.0698
-1.6744	2.505	9.0857	-0.438	0.1195	0.1259	1.2833	-0.2837	-1.0712	2.1777	3.0272	9.3865	-0.1202	0.2735	0.1362	-0.0968	-0.9427	-0.5041	9.6587	-0.6958	-0.779	0.1744	0.3427	-0.5422	-0.62	-0.7094	-0.0232
-1.6043	1.7034	9.7088	-0.4383	0.183	-0.0571	1.2115	-0.2578	-1.0622	1.8861	2.4643	9.1534	-0.1805	0.3666	-0.1404	-0.0709	-1.0028	-0.515	9.6075	-0.752	-0.361	-0.1039	0.1881	-0.4793	-0.6618	-0.7092	-0.0389
-1.5557	2.7931	9.3165	-0.4074	0.1511	0.065	1.2554	-0.2794	-1.0845	2.18	2.464	9.4427	-0.3333	0.5165	0.0768	-0.0706	-0.9568	-0.518	9.4277	-0.5198	-0.4831	-0.1641	0.3402	-0.4187	-0.6336	-0.6764	-0.0404
-1.61	1.8171	9.425	-0.1625	0.3093	-0.2398	1.2417	-0.2928	-1.0808	1.8941	2.6899	9.5501	-0.2098	0.5179	0.1077	-0.0699	-0.9843	-0.5591	9.5463	-0.2875	-0.42	0.1172	0.7376	-0.2994	-0.6336	-0.6756	-0.056
-1.2699	1.931	9.2616	-0.3764	0.2127	0.0659	1.2833	-0.2837	-1.0712	2.531	2.6889	9.7333	-0.5162	0.699	-0.0448	-0.096	-0.9548	-0.5462	9.606	-0.1132	-0.3583	0.179	0.6445	-0.1464	-0.5915	-0.6613	-0.01
-1.4442	2.3902	9.1465	-0.2555	0.1242	-0.2119	1.2829	-0.2526	-1.0921	1.666	2.1834	9.6015	-0.4235	0.7001	-0.0448	-0.0829	-0.9843	-0.5588	9.1905	-0.5195	-0.5474	-0.2825	0.7652	-0.1453	-0.6336	-0.6756	-0.056
-1.609	1.9897	9.4826	-0.6827	0.3048	-0.0544	1.2543	-0.2727	-1.0598	1.9506	2.6334	9.4946	-0.8571	0.6033	-0.1386	-0.0573	-0.9404	-0.5337	10.1883	-0.5231	-0.8283	-0.8104	0.522	-0.4784	-0.6057	-0.6768	-0.0248
-1.7215	2.3349	9.5955	-0.4392	0.1855	-0.2717	1.2405	-0.2342	-1.1085	2.0665	2.2389	9.4967	-0.5812	0.4523	0.0451	-0.0572	-0.9853	-0.545	9.6605	-0.5211	-0.6584	-0.9956	0.5217	-0.5083	-0.5783	-0.7267	0.0089
-1.1502	2.4491	9.5503	-0.5921	0.1526	-0.1492	1.2398	-0.2759	-1.0454	2.2389	3.0272	9.5576	-0.21	0.5169	0.2619	-0.0833	-0.9405	-0.5331	10.08	-0.4625	-0.291	-1.0241	0.6414	-0.2642	-0.6335	-0.6772	-0.0249
-1.1503	2.564	9.5507	-0.499	0.2435	0.0054	1.31	-0.2467	-1.068	2.2402	2.971	9.6142	0.0038	0.2773	-0.2028	-0.083	-0.9548	-0.5465	9.8462	0.0034	-0.1138	-0.6192	0.8214	0.2225	-0.6477	-0.6928	-0.0397
-1.6699	2.3911	9.3126	-0.3148	0.2433	0.0969	1.2692	-0.2833	-1.0708	2.0033	2.6331	9.2693	0.0656	0.307	0.075	-0.0833	-0.9558	-0.5321	10.0157	-0.5217	-0.5919	-0.2482	0.8208	0.4045	-0.6337	-0.6934	-0.0241
-1.3261	2.0462	9.3178	-0.2223	0.5238	-0.2055	1.2532	-0.2487	-1.0526	1.608	3.0849	9.6577	-0.1226	0.0896	0.1344	-0.0446	-0.9862	-0.5309	9.7799	-0.6373	-0.5968	-0.0925	0.6321	0.955	-0.6198	-0.6746	-0.0714
-1.669	2.7934	9.3711	-0.1302	0.43	-0.0233	1.2394	-0.2448	-1.0663	2.007	2.5769	9.4391	-0.401	0.0554	0.1338	-0.0439	-0.9688	-0.5606	9.5961	-0.1154	-0.8974	-0.0625	0.6338	0.802	-0.6194	-0.66	-0.0412
-1.2097	2.5636	9.4359	-0.0993	0.4919	-0.0531	1.2543	-0.2727	-1.0598	1.604	2.634	9.4307	-0.4925	0.1464	0.1038	-0.0575	-0.971	-0.5317	9.6599	-0.2888	-0.6575	0.1823	0.7003	0.3729	-0.6198	-0.6932	-0.024
-1.323	2.3341	9.4896	-0.4053	0.552	-0.0512	1.297	-0.253	-1.0924	2.4675	2.6324	9.4489	-0.4918	0.2071	0.1969	-0.0843	-0.9744	-0.4881	9.6613	0.0601	-0.5362	0.3941	0.6156	-0.2387	-0.6063	-0.7254	-0.0222
-1.3176	2.5651	9.7748	-0.4678	0.4612	-0.2058	1.2551	-0.283	-1.0705	2.2983	2.6892	9.6152	-0.1213	0.1824	0.012	-0.0953	-0.9221	-0.5769	9.7821	-0.1719	-0.4151	0.2718	0.7063	-0.1775	-0.6053	-0.6436	-0.042
-1.6721	2.3332	9.1986	-0.2222	0.5549	-0.2357	1.2551	-0.283	-1.0705	1.6053	2.5777	9.4873	-0.1811	0.3349	0.0135	-0.0706	-0.9415	-0.519	9.6618	-0.637	-0.599	0.0918	1.0377	0.2494	-0.6481	-0.7252	-0.038
-1.3226	1.8171	9.4874	-0.4988	0.2428	0.0667	1.2692	-0.2833	-1.0708	2.0719	2.5771	9.7802	-0.1781	0.5512	-0.231	-0.0706	-0.9568	-0.518	9.7154	-0.1735	-0.8356	-0.0008	0.9134	0.4031	-0.6472	-0.6613	-0.0258
-1.6074	2.8518	9.5999	-0.2839	0.3681	-0.0545	1.2386	-0.2173	-1.0731	2.1235	2.5204	9.4982	-0.2397	0.5796	-0.015	-0.0571	-0.9546	-0.547	10.1329	-0.6383	-0.6501	0.5533	0.8861	0.279	-0.6194	-0.66	-0.0412
-1.4933	1.9324	9.5414	-0.2233	0.4016	-0.2688	1.2543	-0.2727	-1.0598	2.2999	2.4639	9.6717	-0.2432	0.304	-0.0794	-0.0701	-0.9547	-0.5467	9.6038	-0.5786	-0.54	0.1501	0.7961	-0.0247	-0.6195	-0.6779	-0.0093
-1.8428	2.4484	9.2526	-0.2547	0.2471	-0.2099	1.2688	-0.2869	-1.0567	2.0642	2.8021	9.4405	-0.2754	0.2105	0.1046	-0.0447	-0.9567	-0.5186	9.3117	-0.9258	-0.4271	0.0276	0.9492	-0.0861	-0.6051	-0.6461	0.0046
-1.2591	2.393	9.8321	-0.2852	0.2466	-0.1792	1.2825	-0.2735	-1.0605	1.777	2.4647	9.4342	-0.1823	0.2429	0.0125	-0.0577	-0.9721	-0.5173	10.1933	-0.2895	-0.5277	-0.1553	1.1308	0.0359	-0.6196	-0.677	-0.0248
-1.671	2.3908	9.2557	-0.3147	0.3369	-0.0243	1.2684	-0.2558	-1.0777	2.1186	2.5766	9.2716	-0.2419	0.4253	0.1376	-0.0441	-0.9545	-0.5473	9.7199	-0.2306	-0.5962	0.1254	1.281	0.4009	-0.6334	-0.6594	-0.0568
-1.4972	2.621	9.3737	-0.4075	0.2764	-0.1477	1.2695	-0.2798	-1.0849	2.5232	2.9702	9.3937	-0.2419	0.3962	-0.1093	-0.0833	-0.9558	-0.5321	9.7763	-0.057	-0.7142	-0.1532	1.0958	0.464	-0.5779	-0.6756	-0.0401
-1.6106	2.6787	9.4286	-0.622	0.3379	-0.2381	1.2406	-0.3034	-1.0386	2.3516	3.0269	9.4468	-0.2123	0.304	-0.0177	-0.1084	-0.9528	-0.5746	9.6631	-0.23	-0.4775	-0.2781	1.0052	0.312	-0.6197	-0.6754	-0.0559
-1.2087	2.6212	9.493	-0.4059	0.4283	0.0081	1.2405	-0.2688	-1.0735	2.0629	2.8584	9.384	-0.2431	0.3045	-0.141	-0.0956	-0.9384	-0.5615	9.6628	-0.1138	-0.477	-0.0302	0.9726	0.5864	-0.6202	-0.7069	-0.0697
-1.4913	2.2775	9.6566	-0.13	0.5546	-0.1746	1.2394	-0.2275	-1.0838	1.37	2.6906	9.256	0.28	0.1568	0.0121	-0.0835	-0.9263	-0.5198	9.7799	-0.1724	-0.5349	-0.1529	1.0021	0.6478	-0.6057	-0.676	-0.0403
-1.9568	1.7018	9.2473	-0.2224	0.3992	-0.0542	1.2692	-0.266	-1.0883	2.2339	2.4637	9.274	0.0656	0.307	0.075	-0.0701	-0.97	-0.5457	9.6628	-0.5787	-0.5389	0.2774	0.9441	0.4937	-0.6057	-0.6768	-0.0248
-0.9202	2.6215	9.6123	-0.5286	0.3967	0.0386	1.2543	-0.2727	-1.0598	2.3488	2.5761	9.2765	-0.2432	0.3038	-0.0486	-0.0829	-0.9241	-0.5485	9.8301	-0.1745	-1.0131	0.3075	0.6973	0.7087	-0.6199	-0.6924	-0.0395
-1.7786	2.1626	9.5937	-0.4073	0.3386	-0.208	1.2551	-0.283	-1.0705	1.9399	3.14	9.0419	0.0678	0.4617	-0.1392	-0.0576	-0.9414	-0.5193	9.7774	-0.5216	-0.7161	0.2458	0.8213	0.5249	-0.6059	-0.6922	-0.0395
-1.3272	2.1034	9.2612	-0.4091	-0.0005	-0.1215	1.2268	-0.2822	-1.0698	2.6413	2.6885	9.5092	-0.0263	0.3673	0.0447	-0.045	-0.9578	-0.5042	9.6024	-0.4627	-0.5994	0.2179	0.8155	1.0752	-0.62	-0.7094	-0.0232
-1.6622	2.5077	9.711	-0.071	0.1233	-0.0591	1.2409	-0.2999	-1.0526	1.6053	2.5777	9.4873	-0.0263	0.3669	0.1064	-0.0437	-0.9228	-0.5636	9.3643	-0.0558	-0.662	0.2799	1.0636	0.7682	-0.5918	-0.6758	-0.0402
-1.0919	2.6216	9.609	-0.6227	-0.0043	0.1244	1.2528	-0.2695	-1.021	2.1225	2.4077	9.4414	-0.2126	0.2742	-0.1413	-0.0701	-0.9547	-0.5467	9.778	-0.2891	-0.6553	-0.1255	0.9776	0.0671	-0.6338	-0.6926	-0.0396
-1.3218	2.2195	9.546	-0.3149	0.2437	0.0662	1.2833	-0.2664	-1.0887	2.2385	2.5766	9.5006	-0.3968	0.3636	-0.1097	-0.0444	-0.9556	-0.5329	9.7782	-0.8701	-0.7176	-0.5608	0.7967	-0.3278	-0.6472	-0.6613	-0.0258
-1.3187	2.5649	9.718	-0.1934	0.1849	-0.1191	1.2547	-0.2692	-1.0739	2.0603	2.9147	9.2707	-0.1173	0.4894	-0.0466	-0.0446	-0.9862	-0.5309	9.7205	-0.4629	-0.5972	-0.4353	0.7	0.1918	-0.6199	-0.6916	-0.055
-1.5588	2.5626	9.145	-0.3762	0.3998	-0.1764	1.2551	-0.283	-1.0705	2.1205	2.802	9.3851	-0.2717	0.4876	-0.0776	-0.0704	-0.9558	-0.5324	10.1986	-0.2302	-0.228	-0.4658	0.668	0.3143	-0.634	-0.7266	-0.0069
-1.3824	2.2762	9.3745	-0.4064	0.3672	-0.0235	1.2402	-0.2724	-1.0595	2.2387	2.4639	9.5005	-0.4271	0.4238	0.0141	-0.0834	-0.9712	-0.5311	9.8378	-0.6377	-0.6556	-0.3449	0.4559	0.1621	-0.6058	-0.6752	-0.0558
-1.3779	2.2772	9.6019	-0.4076	0.2768	-0.1783	1.2699	-0.259	-1.1165	1.8942	2.6336	9.5501	-0.086	0.5203	-0.0154	-0.058	-0.9578	-0.504	9.3642	-0.4626	-0.7236	0.1174	0.2715	0.4058	-0.6198	-0.6932	-0.024
-1.377	2.4498	9.6595	-0.4696	0.2161	-0.2711	1.2268	-0.2476	-1.1048	2.119	2.3513	9.2715	-0.6722	0.5741	-0.0154	-0.0568	-0.9535	-0.5614	9.8445	-0.6943	-0.2964	0.116	0.3674	0.008	-0.6473	-0.6783	-0.0094
-1.562	2.3896	8.9737	-0.5296	0.337	-0.1157	1.2547	-0.2865	-1.0564	2.009	2.8024	9.5526	-0.3324	0.5785	-0.0151	-0.0576	-0.9414	-0.5193	9.6042	-0.7528	-0.5407	0.1783	0.5527	-0.1459	-0.6058	-0.6939	-0.0084
-1.4394	1.8742	9.3717	-0.4691	0.1832	-0.0877	1.2825	-0.2389	-1.0955	2.2977	2.9709	9.6154	-0.2696	0.6418	-0.1994	-0.0705	-0.9864	-0.5304	9.5441	-0.7529	-0.6017	0.3025	0.5825	-0.0243	-0.6057	-0.676	-0.0403
-1.2654	1.8745	9.4888	-0.2851	0.0584	0.1551	1.2417	-0.2755	-1.0983	1.8925	2.2955	9.4365	-0.1185	0.3972	-0.0167	-0.0695	-0.9525	-0.5754	9.606	-0.5781	-0.4202	0.4653	1.0945	0.7979	-0.6201	-0.7086	-0.0387
-1.6095	2.7364	9.4857	-0.2547	0.1221	-0.028	1.2829	-0.2699	-1.0746	2.0654	2.8022	9.4972	-0.5515	0.3605	0.0751	-0.0962	-0.9406	-0.5328	9.8977	-0.0565	-0.5322	0.125	0.9092	0.8612	-0.6196	-0.677	-0.0248
-1.6115	2.3338	9.3703	-0.2235	0.1519	0.0644	1.255	-0.2657	-1.088	1.8869	2.6896	9.2103	-0.0868	0.4587	0.0148	-0.0827	-0.9537	-0.5608	9.5409	-0.3469	-0.7198	-0.0287	0.9077	0.9534	-0.6336	-0.6756	-0.056
-1.3277	2.7927	9.2641	-0.1932	0.1842	-0.0578	1.1863	-0.2808	-1.1216	1.6618	2.5213	9.4318	-0.3357	0.3321	0.1366	-0.0572	-0.9699	-0.546	9.8323	-0.174	-0.8933	-0.1876	1.0093	-0.0551	-0.6199	-0.6924	-0.0395
-1.4396	2.1614	9.3729	-0.4382	0.1827	-0.0264	1.2555	-0.314	-1.0496	2.0721	2.4645	9.7801	-0.5504	0.4522	0.1068	-0.0577	-0.9568	-0.5183	9.5991	-0.4634	-0.7791	-0.3148	0.7988	-0.4509	-0.6197	-0.6941	-0.0085
-1.4431	2.4479	9.2036	-0.3779	0.2172	-0.3327	1.2528	-0.2176	-1.0735	2.577	3.0263	9.2251	-0.5205	0.3612	0.0134	-0.0305	-0.9523	-0.5763	9.6646	-0.8688	-0.4802	-0.2834	0.8289	-0.3901	-0.6196	-0.6762	-0.0404
-1.7834	2.6212	9.3682	-0.7146	0.1203	-0.0573	1.2409	-0.2653	-1.0876	2.1241	2.8585	9.5551	-0.5478	0.6661	0.2323	-0.084	-0.9733	-0.5024	9.6617	-0.5789	-0.5988	0.2144	0.9464	0.2494	-0.6479	-0.7082	-0.0544
-1.6589	2.6233	9.8821	-0.4692	0.0897	0.0335	1.268	-0.2766	-1.0461	2.2346	2.7454	9.3308	-0.3026	0.4871	-0.0468	-0.0697	-0.9383	-0.5621	10.014	-0.2896	-0.6508	0.6167	0.7898	0.7377	-0.6339	-0.691	-0.0706
-1.3207	2.3346	9.6033	-0.2553	-0.0015	0.0314	1.2681	-0.2939	-1.0286	1.8914	2.8588	9.437	-0.5204	0.3619	-0.079	-0.0833	-0.9405	-0.5331	9.6595	-0.5794	-0.7186	0.5567	0.8795	0.9209	-0.6192	-0.6438	-0.042
-1.6124	2.1613	9.3127	-0.347	0.0913	-0.0589	1.2539	-0.2936	-1.0282	1.8293	2.6897	9.2091	-0.2727	0.4253	0.0759	-0.0574	-0.9557	-0.5327	9.5466	-0.4037	-0.4205	0.4958	0.9089	1.0126	-0.6337	-0.6748	-0.0715
-1.4409	2.5058	9.3175	-0.2852	0.2466	-0.1792	1.2413	-0.2618	-1.1017	2.0715	2.7461	9.7803	-0.1178	0.4581	0.0456	-0.0048	-0.9379	-0.5635	9.6039	-0.6366	-0.5402	0.4924	0.7913	0.5548	-0.648	-0.7074	-0.0699
-1.6137	2.3908	9.2568	-0.2532	0.3369	0.0062	1.2532	-0.266	-1.0351	2.2965	2.9708	9.5588	-0.2105	0.4568	0.0763	-0.0709	-1.0028	-0.515	9.5964	-0.2316	-0.8979	0.3702	0.8508	0.6772	-0.6482	-0.7244	-0.0535
-1.3758	2.45	9.7164	-0.3773	0.278	-0.2704	1.2688	-0.3042	-1.0393	1.6528	2.8026	9.0356	0.0016	0.1228	-0.0193	-0.0434	-0.9371	-0.577	9.8443	-0.5781	-0.2959	0.2751	0.7621	0.3417	-0.6201	-0.7086	-0.0387
-1.4421	2.563	9.2609	-0.3769	0.2141	-0.0568	1.2547	-0.2519	-1.0914	2.5347	2.6327	9.9032	-0.7024	0.6349	0.016	-0.1093	-0.956	-0.5316	9.898	-0.6956	-0.5949	0.0631	0.9714	0.7388	-0.6336	-0.6764	-0.0404
-1.4377	2.6789	9.4888	-0.2842	0.3688	-0.1159	1.2699	-0.259	-1.1165	1.8912	2.9715	9.4371	-0.4873	0.5454	0.0461	-0.0956	-0.9987	-0.5719	9.8935	-0.1737	-0.7724	0.1547	0.7872	0.8311	-0.6061	-0.6905	-0.0705
-1.2702	2.448	9.2638	-0.4688	0.3076	-0.2083	1.2822	-0.277	-1.0464	1.6601	2.7465	9.3754	-0.3658	0.3931	0.1372	-0.0829	-0.9241	-0.5485	9.899	-0.1725	-0.4728	0.2785	0.7246	1.0143	-0.6195	-0.6779	-0.0093
-1.1504	2.7938	9.5517	-0.4064	0.2733	0.1283	1.2692	-0.3006	-1.0533	1.7174	2.9154	9.3767	-0.2084	0.6111	-0.0763	-0.0836	-0.9416	-0.5188	9.3665	-0.5202	-0.604	0.5248	0.8195	0.799	-0.6059	-0.6922	-0.0395
-1.3175	2.4502	9.7743	-0.316	0.0904	0.033	1.2547	-0.2865	-1.0564	2.2995	2.0696	9.6147	-0.2392	0.6109	-0.1072	-0.031	-0.9238	-0.5496	9.5491	-0.0545	-0.2393	0.6163	0.7596	0.7073	-0.6196	-0.6584	-0.0723
-1.2106	2.2187	9.3776	-0.2541	0.2143	-0.0265	1.2699	-0.2936	-1.0815	2.0625	2.4077	9.3269	-0.2698	0.6408	-0.0452	-0.0703	-0.9404	-0.5334	10.0158	-0.5798	-0.5922	0.6754	0.6715	0.3713	-0.6757	-0.7094	-0.039
-1.6169	2.1603	9.0853	-0.3145	0.3366	0.0064	1.2677	-0.2629	-1.0495	2.4703	3.0269	9.6191	-0.3312	0.6709	-0.0758	-0.0704	-0.9711	-0.5314	9.8361	-0.4056	-0.7146	0.6144	0.6079	0.5858	-0.6336	-0.6756	-0.056
-1.3273	2.2183	9.2617	-0.4383	0.1202	0.0646	1.2417	-0.2928	-1.0808	2.0098	3.0277	9.6094	-0.5466	0.7298	-0.137	-0.0829	-0.9843	-0.5588	9.6598	-0.6956	-0.7191	0.3733	0.8448	1.2579	-0.6336	-0.6764	-0.0404
-1.4926	2.4496	9.6004	-0.7468	-0.0632	-0.1522	1.2829	-0.2872	-1.0571	2.0639	2.9711	9.4407	-0.2045	0.9175	-0.0424	-0.0571	-0.8944	-0.5367	9.8394	-0.4049	-0.5348	0.3755	0.9649	1.4713	-0.6059	-0.6922	-0.0395
-1.5443	2.5083	9.8838	-0.6554	-0.3114	0.0888	1.2676	-0.2456	-1.067	2.2482	2.5769	9.9537	-0.173	0.9496	-0.1962	-0.0706	-0.9568	-0.518	9.305	-0.4044	-0.7245	0.3429	0.8128	1.3804	-0.6338	-0.7105	-0.0077
-1.6721	2.448	9.1991	-0.5009	-0.1892	0.213	1.2547	-0.2865	-1.0564	2.1273	2.4079	9.668	-0.3283	0.8863	-0.197	-0.0311	-0.9391	-0.5486	9.7802	-0.2886	-0.5354	-0.4293	0.7195	1.2614	-0.6201	-0.7086	-0.0387
-1.5461	1.9334	9.7677	-0.472	-0.4345	0.1783	1.2409	-0.2653	-1.0876	2.0036	2.4641	9.2691	-0.575	0.9142	-0.2585	-0.0572	-0.9699	-0.546	9.7821	-0.1719	-0.4151	-0.0336	0.4513	0.7111	-0.6475	-0.6766	-0.0405
-1.0883	2.2203	9.7778	-0.5018	-0.3117	0.1804	1.2822	-0.2597	-1.0639	1.9003	2.6338	9.8333	-0.5145	0.8511	0.1416	-0.0573	-0.9404	-0.5337	9.5954	-0.2899	-0.9581	0.0251	0.2087	0.5287	-0.6337	-0.6748	-0.0715
-1.3747	2.4503	9.7732	-0.4402	-0.2186	0.1204	1.2409	-0.2826	-1.0701	1.4883	2.2962	9.3714	-0.0858	0.5215	-0.2004	-0.0445	-0.9709	-0.5319	9.8952	-0.4057	-0.7135	0.4893	0.2382	0.8019	-0.6199	-0.6924	-0.0395
-1.4376	2.5065	9.4881	-0.4396	-0.0949	0.0611	1.2681	-0.2939	-1.0286	1.8326	2.8589	9.3791	-0.2108	0.4267	-0.0165	-0.0309	-0.9085	-0.5506	9.5481	-0.5777	-0.3614	0.7068	0.36	0.9228	-0.5781	-0.6739	-0.0712
-1.5577	2.5054	9.2016	-0.4104	-0.216	-0.0943	1.2692	-0.2833	-1.0708	2.1264	2.9149	9.6684	-0.6405	0.6647	0.263	-0.0572	-0.9699	-0.546	9.9553	-0.8705	-0.7143	1.0514	0.6615	1.4703	-0.6062	-0.7076	-0.0541
-1.268	2.391	9.3772	-0.3772	-0.0353	0.2459	1.2547	-0.2692	-1.0739	1.8946	2.4646	9.5499	-0.3311	0.6711	-0.1066	-0.0698	-0.9689	-0.5601	9.6646	-0.8688	-0.4802	0.9269	0.8184	1.0421	-0.6059	-0.6922	-0.0395
-1.7202	2.0479	9.6511	-0.3789	-0.1243	-0.0316	1.2818	-0.2805	-1.0324	2.6363	2.7446	9.2827	-0.3597	0.8546	-0.1048	-0.0698	-0.9689	-0.5601	9.6537	-0.4645	-1.0176	0.7108	0.9113	0.859	-0.6061	-0.6905	-0.0705
-1.0422	2.2753	9.2106	-0.3775	0.0594	0.0327	1.2264	-0.2857	-1.0557	2.0649	2.4078	9.4402	-0.3571	1.0687	-0.0102	-0.096	-0.9548	-0.5462	9.6579	-0.3474	-0.7775	0.771	0.697	0.8904	-0.6058	-0.6752	-0.0558
-1.3902	2.332	8.9768	-0.6222	0.1193	0.0651	1.2116	-0.2751	-1.0447	1.8921	2.4645	9.4366	-0.2308	1.2559	-0.2549	-0.0701	-0.9547	-0.5467	9.8383	-0.4051	-0.5947	0.3663	0.5786	0.3729	-0.6616	-0.6922	-0.0553
-1.0961	2.2186	9.3799	-0.2551	0.1856	-0.2109	1.2833	-0.2837	-1.0712	2.3541	2.351	9.5029	-0.4749	1.4978	-0.2218	-0.0704	-0.9558	-0.5324	9.7218	-0.5788	-0.5378	0.2079	0.2756	0.0387	-0.6475	-0.6758	-0.056
-1.3859	2.5053	9.2049	-0.684	0.0579	0.0336	1.2543	-0.2554	-1.0773	1.897	2.4647	9.6632	-0.5345	1.6804	-0.1276	-0.1097	-0.9877	-0.5152	9.7793	-0.405	-0.5958	0.2058	0.4349	-0.5733	-0.6062	-0.7076	-0.0541
-1.4375	2.3342	9.4874	-0.2878	-0.184	-0.1555	1.2837	-0.2802	-1.0852	1.7775	2.8591	9.4912	-0.8953	2.4432	-0.2436	-0.0441	-0.9545	-0.5473	9.6031	-0.2882	-0.5387	0.3928	0.7424	-0.6672	-0.6479	-0.7277	0.0086
-1.5587	2.3903	9.1443	-0.7181	-0.4643	-0.0055	1.2551	-0.283	-1.0705	1.8924	2.9715	9.4937	-1.6864	3.3838	-0.2657	-0.0706	-0.9568	-0.518	9.6042	-0.2879	-0.4788	0.2082	0.7099	-0.5441	-0.6337	-0.6934	-0.0241
-1.4969	2.2763	9.3723	-1.2411	-0.7112	-0.1307	1.268	-0.2766	-1.0461	2.2237	2.745	8.8211	-1.9446	4.9439	-0.2196	-0.0702	-0.9853	-0.5447	9.7238	-0.4622	-0.4175	-0.1944	0.5564	-0.6336	-0.6052	-0.6444	-0.0264
-1.1545	2.2184	9.3219	-1.6124	-1.1411	-0.3206	1.268	-0.2593	-1.0636	2.1189	3.0273	9.3287	-2.3286	6.2908	-0.6381	-0.0956	-0.9384	-0.5615	9.1949	-0.5185	-0.3078	-0.6009	0.1311	-1.058	-0.6475	-0.6758	-0.056
-1.4882	2.5655	9.8283	-1.6731	-1.0806	-0.2581	1.2413	-0.2964	-1.0667	1.7787	2.8591	9.5478	-5.6492	7.4771	-0.9372	-0.0695	-0.9679	-0.5744	9.5467	-0.4618	-0.4208	-1.4429	-0.5678	-1.7851	-0.6614	-0.6768	-0.0406
-1.2682	2.7357	9.3787	-2.2263	-1.2351	-0.4123	1.2268	-0.2822	-1.0698	1.9002	2.6901	9.8333	-3.9998	6.0538	-0.4568	-0.0446	-0.9414	-0.5196	9.7748	0.117	-0.7733	-1.8174	-1.2437	-1.6277	-0.6336	-0.6764	-0.0404
-0.9807	2.506	9.4401	-2.2873	-1.2675	-0.29	1.2562	-0.307	-1.0777	1.8961	2.2956	9.6064	-1.5891	3.8389	0.6637	-0.0569	-0.9689	-0.5604	9.4887	-0.4033	-0.3617	-2.0013	-1.7742	-0.677	-0.62	-0.6907	-0.0706
-1.6047	2.2204	9.7109	-1.8581	-1.2348	-0.2907	1.2684	-0.2558	-1.0777	1.8413	2.1269	9.7183	-2.0103	2.3002	0.7097	-0.044	-0.9392	-0.5483	9.5402	-0.5213	-0.7805	-2.0305	-1.9947	-0.0646	-0.6479	-0.7082	-0.0544
-1.3241	2.3913	9.433	-2.0092	-0.9285	-0.2547	1.2401	-0.2378	-1.0944	1.553	2.3527	9.7125	-0.9741	1.2372	1.1624	-0.0311	-0.9391	-0.5486	9.6123	-0.4604	-0.0602	-2.2714	-2.1309	1.19	-0.634	-0.7088	-0.0388
-1.4913	2.2201	9.6563	-1.5506	-1.0172	-0.3801	1.268	-0.2766	-1.0461	2.0068	2.0699	9.3821	-0.4816	1.1194	1.3775	-0.0701	-0.9547	-0.5467	9.6081	-0.5195	-0.3001	-2.2071	-1.9493	1.4028	-0.6196	-0.6762	-0.0404
-1.7832	2.2765	9.3667	-1.2141	-1.2014	-0.2614	1.2555	-0.314	-1.0496	1.7769	2.521	9.4343	-0.5431	1.1202	1.1308	-0.0571	-0.9546	-0.547	10.1344	-0.3475	-0.5291	-1.8454	-2.0565	0.0572	-0.6335	-0.6772	-0.0249
-1.5529	2.0468	9.4271	-1.519	-0.9259	-0.2867	1.2688	-0.2696	-1.0742	1.8903	2.8024	9.3803	-0.7199	1.7925	1.1373	-0.0438	-0.9535	-0.5616	9.8967	-0.5797	-0.6543	-1.4604	-2.4596	-2.2344	-0.6334	-0.6781	-0.0094
-1.4414	1.6439	9.2571	-1.3664	-1.017	-0.3193	1.2257	-0.2755	-1.045	1.8964	2.7463	9.6634	-1.0519	2.4015	1.1431	-0.083	-0.9394	-0.5475	9.4335	-0.6347	-0.1841	-0.6918	-2.2973	-2.8798	-0.6203	-0.7061	-0.0853
-1.1477	2.1624	9.6628	-1.0885	-0.6773	-0.3452	1.2539	-0.2763	-1.0457	2.1114	3.1396	8.9889	-1.8112	3.4621	1.5847	-0.0701	-0.9547	-0.5467	9.2578	-0.7502	-0.128	0.3639	-2.1213	-1.7842	-0.6061	-0.6905	-0.0705
-1.3758	2.45	9.7164	-1.3942	-0.6187	-0.2207	1.2535	-0.2625	-1.0492	1.8308	2.5208	9.2656	-2.9956	5.0426	1.4144	-0.0694	-0.9372	-0.5764	9.9136	-0.7502	0.2436	0.8372	-1.6744	-0.4739	-0.6472	-0.6613	-0.0258
-1.2636	2.4494	9.6049	-1.4252	-0.6178	-0.3126	1.2268	-0.2649	-1.0873	2.0596	2.6893	9.2139	-4.3659	6.5603	1.0893	-0.0451	-0.9282	-0.4919	9.3143	-0.6347	-0.2462	1.3432	-1.3863	1.4178	-0.6336	-0.6756	-0.056
-1.3848	2.5055	9.2618	-1.8529	-0.4358	-0.2778	1.2826	-0.2908	-1.043	1.6045	2.9721	9.4877	-4.902	8.1175	1.0427	-0.0445	-0.9709	-0.5319	9.8477	-0.6354	-0.1165	1.4781	-0.7249	2.5756	-0.6061	-0.6905	-0.0705
-1.3294	2.0455	9.1473	-1.8521	-0.5007	0.0279	1.2692	-0.266	-1.0883	1.9002	2.6901	9.8333	-5.3449	9.6791	0.503	-0.0438	-0.9535	-0.5616	10.0195	-0.2884	-0.3513	0.9954	-0.2189	3.7669	-0.6613	-0.6776	-0.025
-1.3228	2.1044	9.4886	-1.5783	-0.6814	-0.1905	1.2405	-0.2688	-1.0735	2.2453	2.1825	9.7835	-5.1797	10.5098	0.3881	-0.0701	-0.9098	-0.5354	9.9013	-0.6949	-0.4152	0.1911	-0.1546	3.1888	-0.6054	-0.6428	-0.0575
-1.4473	2.0448	8.9745	-1.3943	-0.6183	-0.2514	1.2543	-0.2727	-1.0598	1.4453	2.2406	10.0498	-3.7876	8.2002	-0.0654	-0.0833	-0.9558	-0.5321	10.0765	-0.8119	-0.5322	-0.8046	-0.079	1.4499	-0.62	-0.7094	-0.0232
-1.3229	2.2192	9.4891	-0.903	-0.462	-0.2809	1.2394	-0.2621	-1.0488	1.6185	2.0149	10.0532	-0.7049	2.9011	0.4393	-0.0435	-0.8922	-0.5656	9.8964	-0.4636	-0.6538	-1.7118	0.0357	-1.084	-0.6192	-0.6625	0.0054
-1.5005	2.5628	9.2029	-1.6105	-0.8649	-0.2854	1.2257	-0.2928	-1.0275	1.9016	1.9578	9.8327	3.309	-1.9909	1.4112	-0.0571	-0.9546	-0.547	9.9009	-0.5207	-0.4144	-2.5561	-0.2552	-2.8217	-0.6195	-0.6779	-0.0093
-1.1477	2.1624	9.6628	-1.4548	-0.4643	-0.31	1.2539	-0.259	-1.0632	2.1253	2.8585	9.6117	1.6596	-2.9623	1.4003	-0.0695	-0.9077	-0.5641	9.7835	-0.2878	-0.3557	-2.9844	-0.2943	-2.1475	-0.6199	-0.6916	-0.055
-1.0873	2.3354	9.8352	-1.1458	-0.0008	-0.3954	1.2535	-0.2625	-1.0492	2.0498	2.7452	8.7608	-0.5251	-2.3141	1.1891	-0.0705	-0.9864	-0.5304	9.9078	-0.6353	-0.0555	-3.1828	-0.0797	0.6945	-0.6339	-0.7096	-0.0232
-1.4374	2.2193	9.4869	-0.7443	0.4931	-0.4192	1.2409	-0.2653	-1.0876	2.1265	2.2389	9.6112	-0.7924	-1.4884	1.0122	-0.1086	-0.9385	-0.5613	10.2604	-0.927	-0.1699	-2.7996	0.1137	2.8316	-0.6342	-0.725	-0.0379
-1.4882	2.508	9.8281	-0.464	1.2326	-0.4693	1.2283	-0.3027	-1.0911	2.0068	2.6896	9.4392	0.0882	-0.2799	0.7783	-0.0302	-0.9512	-0.5906	10.0192	-0.6371	-0.4127	-2.219	-0.4641	2.71	-0.5773	-0.627	-0.0427
-1.442	2.5056	9.2607	0.0593	1.6667	-0.5864	1.2264	-0.2684	-1.0732	2.2875	2.6324	9.1054	-1.3487	0.8687	0.5111	-0.0436	-0.9075	-0.5646	10.3861	-0.4607	0.3135	-2.1525	-1.3146	-0.8009	-0.6477	-0.6928	-0.0397
-1.6653	2.1623	9.539	1.0742	2.0682	-0.3375	1.2558	-0.2759	-1.0986	1.4897	2.8033	9.4851	-1.8351	1.476	0.4859	-0.0435	-0.9524	-0.576	9.8463	-0.9844	-0.2378	-0.4833	-1.5375	-5.2986	-0.5919	-0.6936	-0.0083
-1.2096	2.3338	9.435	1.2306	2.5292	-0.2691	1.2413	-0.2964	-1.0667	1.8342	2.6336	9.4356	-1.4216	2.402	0.3413	-0.07	-0.9394	-0.5477	9.6764	-0.2851	0.2412	1.6039	-1.3877	-7.2322	-0.6335	-0.6772	-0.0249
-1.3163	2.3356	9.8307	1.4775	2.7758	-0.2352	1.2394	-0.2621	-1.0488	1.893	2.6335	9.4934	-2.031	3.0686	0.3783	-0.0567	-0.9382	-0.5624	9.6774	-0.6916	0.2394	2.8466	-0.687	-6.5371	-0.6475	-0.6766	-0.0405
-1.1475	1.8752	9.6616	1.7547	3.0861	-0.3842	1.2684	-0.2731	-1.0602	1.774	2.7463	9.3212	-2.2094	3.6178	0.4452	-0.0567	-0.9382	-0.5624	9.8439	-0.4039	-0.2952	3.265	0.0262	-4.3722	-0.6052	-0.6444	-0.0264
-1.6037	2.393	9.7685	1.7882	3.5476	-0.4075	1.2978	-0.2633	-1.1031	2.1249	3.0275	9.6119	-3.2466	4.647	0.4546	-0.0436	-0.9677	-0.575	9.8419	-0.0557	-0.3536	2.9142	0.7335	-1.8988	-0.6335	-0.6772	-0.0249
