1757_acc_x	1757_acc_y	1757_acc_z	1757_gyro_x	1757_gyro_y	1757_gyro_z	1757_mag_x	1757_mag_y	1757_mag_z	1758_acc_x	1758_acc_y	1758_acc_z	1758_gyro_x	1758_gyro_y	1758_gyro_z	1758_mag_x	1758_mag_y	1758_mag_z	1759_acc_x	1759_acc_y	1759_acc_z	1759_gyro_x	1759_gyro_y	1759_gyro_z	1759_mag_x	1759_mag_y	1759_mag_z
-4.765566	1.703062	9.022151	2.13724	11.563766	-2.455673	0.619489	0.22574	-1.164001	1.218465	1.734103	10.157827	-0.973484	-1.29693	-0.496652	-0.169601	-0.32286	-0.643073	8.984982	1.798718	-1.798886	0.516266	2.732955	2.104132	-0.544688	-0.216842	-0.156613
-4.717836	1.011551	8.508691	2.503449	11.22571	-2.308879	0.869	-0.034462	-0.777398	1.099037	1.452476	9.928614	-0.447346	-1.199479	-0.310292	0.34112	-0.197684	-0.861749	9.099018	1.62323	-2.037055	0.328145	2.272496	2.198701	-0.436563	-0.420754	-0.238336
-4.831355	1.1842	8.564041	2.348135	10.824107	-2.192286	0.811403	-0.043549	-0.733773	1.386541	1.620929	9.934801	-0.911694	-1.267494	-0.188029	0.302418	-0.151948	-0.863932	9.45271	1.796648	-2.02971	-0.134639	2.085087	2.415215	-0.435936	-0.372176	-0.240847
-4.882178	1.530338	8.905494	2.866425	10.458815	-2.29172	0.826667	-0.067937	-0.741367	1.150366	2.184475	9.703881	-0.448164	-1.26101	-0.280076	0.27609	-0.2287	-0.858363	9.274156	1.971034	-2.092177	-0.353547	1.779673	2.295212	-0.477802	-0.371136	-0.272114
-4.661902	1.298476	8.454158	2.557971	9.899714	-1.901231	0.824781	-0.05098	-0.705971	1.446093	1.846238	10.049478	-0.231749	-1.257462	-0.403179	0.262674	-0.200278	-0.831395	9.392458	1.854612	-2.090471	-0.601764	1.688593	2.143729	-0.491777	-0.389185	-0.240291
-4.253617	1.701966	8.861613	2.833087	9.464862	-1.387731	0.840016	-0.04077	-0.748548	1.326989	1.395619	9.820123	-0.297865	-1.595764	-0.375768	0.277201	-0.179523	-0.904423	9.814624	1.274637	-1.665892	-0.94795	1.607583	0.983965	-0.46417	-0.404969	-0.239313
-4.605554	1.010986	8.397212	2.551808	8.477756	-1.188287	0.83963	-0.026999	-0.751964	1.267676	1.677332	9.762511	-0.084491	-1.837134	-0.562965	0.301752	-0.169412	-0.834229	9.221837	0.984866	-1.857853	-1.347089	1.820269	0.984396	-0.463752	-0.372584	-0.240988
-5.234778	1.758423	8.444953	2.733334	8.109844	-1.194789	0.853779	-0.061972	-0.717329	1.842552	1.450885	9.717771	-1.235256	-2.435687	-0.354046	0.250659	-0.181817	-0.875172	9.457942	1.914037	-1.729682	-1.647866	2.115287	1.931537	-0.463752	-0.372584	-0.240988
-4.602835	1.873333	8.57139	2.606146	7.371382	-1.175757	0.840002	-0.02347	-0.76604	1.500355	1.676996	9.880626	-1.642649	-2.843056	0.196481	0.302563	-0.181517	-0.876275	9.98372	1.853509	-2.019559	-1.428279	2.698847	1.77514	-0.463961	-0.388777	-0.240151
-4.60473	1.413318	8.455754	2.880061	6.940003	-0.96888	0.839659	-0.061597	-0.71698	1.552439	2.014682	9.655561	-3.312389	-2.928975	0.718362	0.250879	-0.196065	-0.888518	9.513252	2.087388	-1.90756	-1.799912	3.32161	0.581551	-0.477869	-0.388981	-0.240221
-4.377815	1.240345	8.345778	2.90609	6.390116	-1.253905	0.824752	-0.016381	-0.740954	1.60791	1.845488	9.543349	-3.496663	-2.81108	1.089324	0.262969	-0.199206	-0.845745	9.869954	1.912844	-1.781885	-1.897021	3.547387	-0.580564	-0.505893	-0.405582	-0.239524
-4.781854	1.125028	8.166941	2.626287	5.805632	-1.323935	0.812547	-0.067563	-0.741018	1.09893	1.508806	9.928661	-3.618757	-2.633084	1.769215	0.263265	-0.198134	-0.860094	9.871305	1.332084	-1.784358	-1.966405	3.251352	-1.556904	-0.492403	-0.437763	-0.23778
-4.712641	1.529731	8.795128	2.653396	5.252614	-1.333001	0.825538	-0.061223	-0.716631	1.613068	1.676686	9.769765	-3.553888	-2.387178	1.802541	0.288921	-0.199056	-0.846296	9.992794	1.739335	-1.540799	-2.215932	3.100667	-1.860906	-0.519663	-0.388767	-0.255959
-4.368001	1.529724	8.858662	2.18927	4.637233	-1.46434	0.824781	-0.05098	-0.705971	1.953757	2.239202	9.607574	-3.151676	-2.379063	1.340522	0.288996	-0.183736	-0.8473	9.579681	1.74028	-1.548502	-2.624025	2.647311	-2.529636	-0.421958	-0.372798	-0.225249
-4.831604	1.528849	8.565489	2.058719	3.564191	-1.757418	0.838501	-0.020284	-0.727228	1.381813	1.564408	9.708195	-2.473052	-2.490485	0.939194	0.288996	-0.183736	-0.8473	9.278382	1.100388	-1.976072	-2.31517	2.523223	-2.255101	-0.463681	-0.373411	-0.22546
-5.007946	1.700333	8.33546	1.993839	2.697861	-1.280619	0.839287	-0.065126	-0.702904	1.43817	1.564253	9.652764	-2.345071	-2.179647	0.541622	0.301376	-0.246014	-0.829211	9.401667	1.682362	-1.611957	-1.699781	2.279461	-2.133918	-0.463823	-0.371758	-0.256515
-4.432884	1.29831	8.458612	1.559396	1.741092	-1.11091	0.825138	-0.030152	-0.737538	1.613176	1.620355	9.769717	-1.358478	-2.320833	0.602668	0.276385	-0.227628	-0.872713	9.0367	1.622624	-2.217876	-1.330433	2.561459	-2.65616	-0.464241	-0.404143	-0.254841
-4.659302	0.781985	8.565692	1.096802	0.620435	-0.05441	0.840045	-0.075368	-0.713564	1.672382	1.394973	9.827376	-1.911299	-2.024456	1.098421	0.276096	-0.16849	-0.848028	9.285275	1.450575	-1.55524	-0.797847	2.671519	-1.283306	-0.478357	-0.42054	-0.254074
-4.96137	1.066022	7.765388	0.695101	-0.123161	0.302676	0.812146	-0.036492	-0.761925	1.552523	1.338668	9.598353	-1.446949	-1.95644	0.976158	0.314578	-0.199978	-0.832498	9.221722	1.507797	-1.795721	-0.206474	2.694128	-0.30755	-0.491568	-0.372993	-0.241128
-4.667718	1.641919	8.17134	0.571371	-0.683861	0.907276	0.783148	-0.0255	-0.750567	1.785549	1.789023	9.773486	-1.410947	-1.528546	1.257895	0.275951	-0.138921	-0.835685	9.520664	1.740415	-1.549602	-0.175612	2.569988	-0.123692	-0.450124	-0.387747	-0.255608
-4.206052	1.24022	8.349118	0.075912	-1.673052	1.199303	0.853379	-0.030901	-0.738237	1.667438	1.451114	9.600865	-1.501564	-1.375793	1.166857	0.275505	-0.170634	-0.819328	9.398926	1.914172	-1.730782	0.560945	2.392893	-0.492268	-0.478011	-0.387329	-0.271276
-4.61471	1.353705	7.943835	-0.415573	-2.079031	1.562132	0.825138	-0.030152	-0.737538	1.786219	2.070723	9.830363	-0.664261	-1.119687	1.139249	0.288701	-0.184807	-0.83295	9.219946	1.79793	-1.854392	0.648971	2.74327	-1.808451	-0.450403	-0.403113	-0.270299
-5.173976	1.471897	8.615419	-0.542534	-2.724283	1.490676	0.825152	-0.047452	-0.720047	1.840027	1.507121	9.604539	-0.202174	-1.23526	0.953503	0.288701	-0.184807	-0.83295	9.221877	1.914577	-1.734083	0.956476	3.087488	-2.453017	-0.449911	-0.390225	-0.209025
-4.834696	1.183476	8.393482	-1.002193	-2.945727	1.856412	0.811775	-0.04002	-0.747849	1.61855	1.338892	9.996039	0.045249	-1.259368	0.429384	0.274909	-0.232988	-0.800964	9.107842	2.090064	-1.495915	1.33237	3.3881	-1.814003	-0.464174	-0.386298	-0.286734
-4.894426	1.527684	8.28011	-1.001802	-3.228575	2.403829	0.825538	-0.061223	-0.716631	1.611082	1.451269	9.656296	-0.479641	-1.264421	0.182286	0.27565	-0.200203	-0.831671	9.281839	1.50791	-1.734713	1.830258	4.095339	-2.002556	-0.463752	-0.372584	-0.240988
-4.834862	1.413242	8.394447	-0.910863	-3.53825	2.643875	0.824395	-0.037209	-0.709387	1.440803	1.451687	9.765948	-0.389532	-1.477097	0.056932	0.236572	-0.231069	-0.828836	9.989067	1.447966	-1.781662	1.98527	4.373727	-2.248945	-0.464103	-0.387124	-0.271206
-4.659592	1.184076	8.567381	-1.307971	-3.543935	2.982267	0.797654	-0.039646	-0.7475	1.205922	1.339267	9.53446	-0.848774	-1.146263	0.152336	0.262969	-0.199206	-0.845745	9.514062	1.738932	-1.909043	1.923257	4.436262	-2.40183	-0.46389	-0.389603	-0.224623
-4.265533	1.239779	8.234298	-1.338565	-3.669441	3.194987	0.838116	-0.006513	-0.730643	1.733466	1.451338	9.998551	-1.001683	-0.968258	0.770545	0.2755	-0.230844	-0.829663	9.689179	1.62188	-2.02605	1.700401	4.355694	-3.562	-0.46417	-0.404969	-0.239313
-4.782103	1.469677	8.168389	-1.094645	-3.789835	3.069659	0.867886	-0.045047	-0.73517	1.553624	1.395046	9.65504	-1.2825	-1.215295	0.49041	0.250213	-0.21353	-0.858815	9.573348	1.622645	-1.908438	1.907143	3.90802	-4.569155	-0.436007	-0.37135	-0.256375
-4.774225	1.356483	8.565878	-0.911902	-3.910863	2.975164	0.825881	-0.023096	-0.76569	1.557251	1.395188	9.824958	-0.78983	-1.360739	0.242735	0.288551	-0.215448	-0.830943	9.871615	2.145643	-1.661083	2.425206	3.797316	-5.517913	-0.477664	-0.354117	-0.288478
-4.653201	1.587614	8.910189	-0.66926	-4.05886	2.573384	0.839273	-0.047826	-0.720396	1.437847	1.733245	9.652906	-0.454011	-1.720988	-0.284654	0.250364	-0.182889	-0.860822	8.980851	1.681577	-2.039008	2.756999	3.098432	-5.851956	-0.478078	-0.405174	-0.239384
-4.605927	1.52796	8.399383	-0.091337	-4.85727	2.742749	0.840416	-0.07184	-0.72764	1.845078	1.394649	9.831003	0.531714	-1.981212	-0.779698	0.276021	-0.183811	-0.847024	9.462323	1.45017	-1.551939	3.313732	2.786647	-5.088446	-0.47794	-0.388155	-0.255749
-4.659592	1.184076	8.567381	1.038344	-5.809899	3.184027	0.854537	-0.072215	-0.727989	1.561655	1.6207	10.051707	-0.055352	-1.989062	-0.718592	0.2755	-0.230844	-0.829663	9.574178	1.739044	-1.848036	3.531568	2.379982	-4.13988	-0.464378	-0.421162	-0.238476
-4.604647	1.298435	8.455271	1.923958	-6.798233	3.962765	0.810275	-0.036834	-0.709037	1.493533	1.451389	9.540599	-0.552465	-2.210394	-0.659537	0.276611	-0.181667	-0.875723	9.453675	1.854972	-1.969556	3.74193	2.049629	-4.658616	-0.491986	-0.405378	-0.239454
-4.957414	1.756286	7.995696	2.778985	-8.006017	5.106026	0.812161	-0.053791	-0.744434	1.097829	1.452428	9.871974	-0.92105	-2.003459	-0.195355	0.288996	-0.183736	-0.8473	9.868564	1.563894	-1.903183	3.732854	1.539059	-5.572995	-0.464867	-0.452721	-0.25233
-4.664129	1.297994	8.340452	2.652831	-9.060548	5.886591	0.85528	-0.065158	-0.756141	1.84102	1.619829	9.661274	-1.231589	-2.101589	0.142529	0.275945	-0.199131	-0.84602	9.634025	1.855308	-1.786534	3.418909	1.082887	-5.936419	-0.450053	-0.388573	-0.24008
-4.663181	1.528001	8.39827	2.466921	-9.932015	6.762301	0.839259	-0.030527	-0.737888	1.606485	1.958101	9.486804	-1.353373	-1.950635	0.267244	0.237237	-0.213605	-0.858539	9.215565	2.261797	-2.032134	2.832108	0.958422	-5.9337	-0.450403	-0.403113	-0.270299
-4.883581	1.932188	8.85033	2.279714	-10.643212	7.057949	0.783905	-0.035743	-0.761227	1.323255	1.451808	9.650251	-1.567178	-1.768784	0.176396	0.250069	-0.183961	-0.846472	9.337148	1.681261	-1.912592	2.867961	1.104231	-5.231611	-0.450262	-0.404765	-0.239243
-4.839398	1.52716	8.167517	2.364722	-11.593079	6.827601	0.825538	-0.061223	-0.716631	1.501456	1.733374	9.937313	-1.19438	-1.61015	0.085789	0.289512	-0.196912	-0.874996	9.102184	1.682048	-1.857087	2.963036	0.727086	-4.221619	-0.477869	-0.388981	-0.240221
-4.603783	1.643325	8.513572	2.882999	-12.20879	7.12277	0.825138	-0.030152	-0.737538	1.607024	1.676449	9.486567	-0.448242	-1.261413	-0.218424	0.262524	-0.230919	-0.829388	8.984577	1.972946	-1.798145	3.32494	-0.063444	-4.555336	-0.464099	-0.405796	-0.223786
-4.426037	1.069992	8.798765	3.370017	-12.728968	7.112915	0.82591	-0.057694	-0.730707	1.899794	1.619769	9.719122	-0.28808	-0.828934	-0.398963	0.237307	-0.258494	-0.869878	9.039617	2.262449	-1.975529	4.399982	-0.455334	-4.74073	-0.450262	-0.404765	-0.239243
-4.192649	1.185674	9.031114	4.501313	-13.310739	7.376204	0.798026	-0.036118	-0.761576	1.493533	1.451389	9.540599	-0.281337	-0.307024	-0.486252	0.249993	-0.199281	-0.845469	9.211973	1.912352	-2.273245	4.898201	-0.773323	-3.396294	-0.47857	-0.418061	-0.300658
-4.253244	1.184992	8.859441	4.562967	-13.311496	7.468014	0.812532	-0.050263	-0.75851	1.673698	1.33869	9.883968	-0.151599	0.213432	-0.111036	0.236132	-0.202572	-0.802144	9.042493	1.972563	-1.856951	5.330534	-1.114557	-2.784989	-0.450262	-0.404765	-0.239243
-4.487213	1.873491	8.630471	5.055245	-12.970442	7.410806	0.783162	-0.0428	-0.733075	2.075686	1.84491	9.892858	-0.05685	0.397188	0.106664	0.262749	-0.184958	-0.832398	9.228345	1.974136	-1.374395	5.667609	-1.357736	-2.815611	-0.477869	-0.388981	-0.240221
-4.418782	1.81842	9.199874	4.32217	-12.417546	7.145902	0.795754	-0.005389	-0.729596	0.971602	1.564878	9.359895	0.13409	0.858103	0.327198	0.250289	-0.198209	-0.859819	9.514352	2.087635	-1.847653	6.682832	-1.815436	-2.572605	-0.477944	-0.369484	-0.303169
-4.195083	1.472399	8.918614	3.868078	-11.121244	6.493608	0.840016	-0.04077	-0.748548	1.733574	1.395007	9.998504	0.41128	0.799899	0.388498	0.302268	-0.182589	-0.861925	9.162166	1.740236	-1.795832	7.016351	-2.082898	-3.214342	-0.422588	-0.402705	-0.270159
-4.593637	1.473172	9.024526	3.167244	-9.821574	5.443407	0.840388	-0.037241	-0.762624	1.782354	1.563559	9.603378	0.507899	1.107924	0.360811	0.262454	-0.186029	-0.818049	9.406338	1.567199	-1.372824	7.506121	-2.384808	-3.42861	-0.46417	-0.404969	-0.239313
-4.364992	1.98998	9.031152	2.742999	-8.554137	4.637216	0.812161	-0.053791	-0.744434	1.66295	1.901615	9.431326	0.571132	1.259415	0.763134	0.289587	-0.181592	-0.875999	9.690725	2.37761	-1.843116	7.65827	-2.597746	-3.489269	-0.464311	-0.403317	-0.270369
-4.202012	1.815601	8.578944	1.673831	-7.285887	3.495551	0.798783	-0.04636	-0.772236	1.32809	1.451997	9.87681	0.142942	1.620092	1.043829	0.262894	-0.214526	-0.844741	9.102339	2.088828	-1.795449	7.785451	-2.387277	-3.093427	-0.464587	-0.437354	-0.237639
-4.137378	2.391664	8.980442	0.846434	-6.319653	1.980264	0.783177	-0.060099	-0.715583	1.551553	1.845643	9.598779	-0.039848	1.860239	1.477664	0.27521	-0.171706	-0.804978	9.281028	1.856366	-1.73323	7.754812	-2.511951	-2.878786	-0.464382	-0.402491	-0.285897
-3.849537	1.759841	9.040208	-0.104706	-5.475882	0.371326	0.825895	-0.040395	-0.748199	1.790277	1.845544	10.000092	-0.133153	1.827191	1.66223	0.275575	-0.215523	-0.830667	8.931043	1.509461	-1.561595	6.860115	-2.452097	-3.059204	-0.492265	-0.420744	-0.254145
-4.142448	1.701159	8.693281	-0.932178	-4.634671	-0.962012	0.811403	-0.043549	-0.733773	1.49619	1.958506	9.710945	0.3271	1.5589	1.382479	0.262084	-0.202422	-0.802695	9.274446	2.319738	-2.030787	6.770585	-2.054457	-3.09134	-0.464938	-0.451894	-0.267858
-4.196238	1.529599	8.862002	-1.266049	-3.362311	-2.167102	0.782791	-0.046328	-0.718999	1.669856	1.451208	9.714144	0.040788	0.882359	1.128896	0.301307	-0.201125	-0.817872	8.986913	1.915364	-1.678578	6.403489	-1.750842	-2.999773	-0.506315	-0.419295	-0.285271
-4.249204	1.760372	9.089267	-1.479231	-2.960316	-2.466638	0.798426	-0.067188	-0.740669	1.553193	1.620368	9.655229	0.380271	0.827555	0.789514	0.263565	-0.136852	-0.864109	9.097533	2.262067	-2.034335	6.316957	-1.420999	-2.389789	-0.464032	-0.387951	-0.255678
-4.421708	1.243281	9.026901	-1.751265	-2.252678	-2.638365	0.78502	-0.025158	-0.803455	1.895067	1.563249	9.492517	0.350118	0.888292	0.820922	0.276241	-0.198059	-0.86037	8.739304	2.145736	-2.28106	5.770318	-0.7248	-1.871572	-0.47829	-0.402695	-0.285967
-4.371673	1.988532	8.690033	-1.592094	-1.611803	-2.168382	0.770171	-0.049139	-0.757462	1.72863	1.451148	9.771993	-0.077879	1.221324	0.63892	0.288776	-0.169487	-0.833954	8.627874	2.147489	-1.923819	5.066071	-0.550435	-1.228041	-0.450888	-0.453343	-0.236732
-4.712641	1.529731	8.795128	-1.49348	-1.161171	-1.210627	0.79804	-0.053417	-0.744084	1.783778	1.450945	9.659923	0.167129	1.041477	0.483189	0.289436	-0.212233	-0.873992	8.863649	1.798246	-1.980808	4.605543	-0.152229	-1.442212	-0.436563	-0.420754	-0.238336
-4.595864	1.472689	8.91082	-1.517053	-0.399273	-0.646151	0.839645	-0.044298	-0.734472	1.616372	1.84582	9.939826	-0.01769	1.070596	0.360017	0.249993	-0.199281	-0.845469	9.218171	2.088063	-1.913062	3.622715	0.395779	-1.532955	-0.464658	-0.436528	-0.253167
-4.246894	1.645971	9.20249	-1.208584	-0.278391	-0.338394	0.797269	-0.025875	-0.750916	1.896491	1.450635	9.549061	0.258055	0.861684	0.019052	0.249773	-0.185033	-0.832123	9.518464	1.739921	-1.669416	2.67205	0.941377	-1.379304	-0.463823	-0.371758	-0.256515
-4.083008	1.759041	8.808342	-0.99099	-0.067134	0.093765	0.812146	-0.036492	-0.761925	1.327551	1.73365	9.877047	-0.022486	0.673362	0.140266	0.289957	-0.165199	-0.891353	9.577054	1.449158	-1.729459	1.999267	1.642501	-1.380213	-0.491989	-0.386706	-0.286874
-4.202919	1.528152	8.520884	-0.806141	-0.069056	0.338545	0.783548	-0.056571	-0.729659	1.838926	1.450743	9.547852	-0.946348	0.934769	0.573716	0.288331	-0.2012	-0.817597	9.334002	2.087299	-2.030675	0.894547	2.094203	-1.072742	-0.492545	-0.43611	-0.268835
-4.311736	1.357116	8.802198	-0.650814	0.23863	0.373766	0.826653	-0.050638	-0.758859	1.320059	1.226343	9.480143	-1.439097	1.051156	0.574477	0.288626	-0.200128	-0.831946	9.281724	2.030841	-1.672582	-0.396387	2.454418	-0.855847	-0.463961	-0.388777	-0.240151
-4.027691	1.356427	8.69406	-0.893793	0.544108	0.440766	0.782777	-0.029029	-0.736491	1.8977	1.450682	9.605701	-0.663819	1.247963	0.114636	0.301677	-0.184732	-0.833226	9.516128	1.797502	-1.788982	-1.535444	2.353817	-0.392801	-0.478219	-0.403521	-0.270439
-4.203292	2.045126	8.523056	-1.290102	0.911725	0.386545	0.825881	-0.023096	-0.76569	1.664697	1.62001	9.487728	-1.456506	2.065918	0.091303	0.302117	-0.21323	-0.859918	9.282534	1.682385	-1.674065	-2.437255	1.806288	-0.998176	-0.450262	-0.404765	-0.239243
-4.766431	1.358172	8.96385	-1.657486	1.315778	-0.157853	0.784305	-0.066813	-0.740319	1.663273	1.732624	9.431184	-1.452684	2.400812	0.464574	0.276611	-0.181667	-0.875723	9.279773	1.449339	-1.854775	-2.907676	1.353975	-1.78894	-0.436287	-0.386716	-0.271066
-4.199454	1.356551	8.690719	-1.77844	1.686072	-0.335494	0.825152	-0.047452	-0.720047	1.778404	1.732408	9.433601	-0.818896	3.608185	-0.077816	0.288476	-0.230769	-0.829939	9.39767	1.507145	-1.852326	-3.25421	0.652661	-2.120524	-0.450053	-0.388573	-0.24008
-4.600359	1.529166	8.683649	-2.60564	2.150832	-1.000257	0.825538	-0.061223	-0.716631	1.500463	1.620666	9.880579	-0.953951	5.196331	0.616086	0.250364	-0.182889	-0.860822	8.75386	1.567942	-1.56465	-3.621237	0.024724	-0.679759	-0.436563	-0.420754	-0.238336
-4.253534	1.587082	8.86113	-2.877652	3.014895	-1.414785	0.811789	-0.05732	-0.730358	1.32317	2.127821	9.70746	-0.381519	6.548369	1.277382	0.249253	-0.232066	-0.814762	8.750828	1.451049	-1.744865	-2.91286	-0.9027	0.514053	-0.436354	-0.404561	-0.239173
-4.311777	1.414558	8.80244	-3.330881	4.277256	-1.791651	0.769442	-0.073495	-0.711818	1.38082	1.4517	9.65146	0.561403	7.789288	0.889715	0.262969	-0.199206	-0.845745	8.926641	1.508472	-1.801223	-2.394196	-1.852863	0.883466	-0.450541	-0.420132	-0.253934
-4.310871	1.702007	8.860499	-3.197505	6.249842	-2.22	0.82591	-0.057694	-0.730707	1.15263	1.001534	9.702885	-0.844487	8.967332	0.86947	0.27609	-0.2287	-0.858363	8.932724	2.207115	-1.378908	-1.446146	-2.983426	1.09937	-0.464938	-0.451894	-0.267858
-4.027774	1.47131	8.694542	-3.401539	7.814731	-2.071305	0.797283	-0.043174	-0.733424	1.44279	1.677104	9.879417	1.052137	9.884499	0.263554	0.27587	-0.214451	-0.845017	8.986218	1.740889	-1.739227	-0.125308	-3.993763	1.649546	-0.423072	-0.452934	-0.236592
-4.768699	1.415131	8.850385	-2.8995	9.066555	-1.132358	0.811418	-0.060848	-0.716282	1.326774	1.50828	9.820218	2.041012	9.841148	-0.56844	0.249843	-0.229922	-0.843462	8.878089	1.743384	-1.202266	1.538277	-4.699194	2.410972	-0.478499	-0.418887	-0.28513
-4.30621	1.415764	9.086705	-2.552692	10.198211	-0.501602	0.812932	-0.081334	-0.737602	2.015595	1.901253	9.778417	4.052962	10.087103	-1.458388	0.301672	-0.244942	-0.843561	8.634997	1.451813	-1.627252	3.884851	-5.41101	4.025745	-0.464449	-0.420336	-0.254004
-5.044002	1.647517	9.414314	-2.414939	12.377171	-0.159904	0.812532	-0.050263	-0.75851	1.608017	1.789157	9.543301	5.477456	10.351845	-1.670405	0.276316	-0.182739	-0.861374	8.764999	1.512339	-0.965828	6.134124	-6.051891	4.6625	-0.46452	-0.419509	-0.269532
-4.800882	2.167461	10.16003	-0.450072	14.442335	-2.585449	0.799169	-0.060131	-0.76882	1.844216	1.845294	9.831382	6.281151	10.364451	-2.039569	0.288996	-0.183736	-0.8473	8.747412	1.973238	-1.862453	9.589159	-6.942923	6.243579	-0.450124	-0.387747	-0.255608
-5.195806	1.766867	10.434811	1.238894	19.359528	-1.866355	0.825924	-0.074994	-0.713215	1.620884	2.015001	10.166527	7.115313	10.432535	-1.452489	0.289292	-0.182664	-0.861649	8.988284	1.799459	-1.619166	13.75959	-7.905184	9.045024	-0.45047	-0.420958	-0.238406
-4.957466	1.194216	10.891677	5.662524	25.051322	-0.590518	0.783562	-0.07387	-0.712167	1.615702	1.56412	9.882949	5.904122	9.983338	-0.748886	0.289292	-0.182664	-0.861649	9.400857	2.030818	-1.610474	19.187076	-8.631757	10.190314	-0.464591	-0.418683	-0.28506
-5.29963	0.850056	10.940401	10.977292	30.395569	1.873137	0.840788	-0.068312	-0.741716	1.623948	1.677113	10.279521	6.883086	9.344507	0.386188	0.302123	-0.15302	-0.849583	9.937929	2.321466	-1.239892	22.348945	-9.183222	8.408716	-0.491848	-0.388359	-0.255819
-5.237305	1.54052	11.228676	12.84247	37.624807	4.714664	0.841145	-0.047484	-0.773284	1.156064	1.734021	9.93006	7.244682	8.585849	-0.114315	0.32866	-0.210936	-0.889169	9.761421	2.089567	-1.244182	24.859574	-9.419475	5.497117	-0.49282	-0.470148	-0.236106
-5.245183	1.653714	10.831187	16.734826	41.903109	5.723676	0.825553	-0.078522	-0.699139	1.218657	1.001758	10.100571	10.364954	8.539885	-1.098759	0.315093	-0.213154	-0.860194	10.351448	2.146293	-1.232931	26.731818	-8.775108	2.98102	-0.478148	-0.404347	-0.254912
-5.136283	1.709866	10.54939	19.604862	45.895425	4.430959	0.797283	-0.043174	-0.733424	1.676463	1.789476	10.054267	11.537357	8.375025	-1.746843	0.314503	-0.215298	-0.831494	9.759895	1.798693	-1.365232	27.970198	-7.50711	2.053579	-0.436283	-0.405387	-0.223645
-4.728821	1.711024	10.898303	21.214655	49.423357	2.919641	0.797669	-0.056945	-0.730008	1.201217	1.90243	9.365015	13.911057	8.006782	-1.779423	0.288626	-0.200128	-0.831946	9.818486	1.50793	-1.425275	29.54766	-4.995748	-0.68423	-0.491848	-0.388359	-0.255819
-4.676269	2.054666	10.673452	23.282972	52.205549	2.314895	0.85568	-0.096228	-0.735234	1.554617	1.507755	9.711774	10.070233	7.18958	-1.48236	0.289141	-0.213305	-0.859642	9.581726	1.333995	-1.490325	30.255429	-2.599722	-4.396261	-0.478357	-0.42054	-0.254074
-4.572605	1.65008	10.105459	29.049194	52.467472	3.253242	0.81066	-0.050605	-0.705622	1.549805	2.127248	9.542377	8.242367	6.881828	-0.161285	0.26334	-0.182814	-0.861098	9.395469	1.506651	-1.97214	28.820306	0.410781	-6.147442	-0.463819	-0.390429	-0.209095
-4.976726	1.649647	9.927105	31.266796	53.696707	4.15619	0.812547	-0.067563	-0.741018	0.865065	2.128778	9.811068	3.821693	6.724731	1.220862	0.263635	-0.181742	-0.875448	9.092395	1.156892	-2.458381	26.989396	3.317094	-6.82703	-0.450191	-0.405592	-0.223715
-5.31914	1.650136	9.977277	34.997338	57.058878	4.568108	0.869029	-0.069061	-0.742415	1.204066	1.677203	9.478104	4.057808	5.811375	0.687891	0.249478	-0.186104	-0.817773	9.393673	1.331928	-2.092696	23.979809	6.046102	-8.51001	-0.464237	-0.422814	-0.207421
-5.381671	1.246881	9.690209	35.259152	54.190224	5.624736	0.826667	-0.067937	-0.741367	1.097182	1.790412	9.872259	3.36922	5.097683	0.649411	0.262599	-0.215598	-0.830391	9.740202	1.271311	-2.505689	20.935482	7.913138	-9.6692	-0.45075	-0.436324	-0.253097
-5.106244	0.84217	9.125556	39.426696	49.759842	5.080717	0.882392	-0.059193	-0.732104	1.04389	1.452679	10.040684	3.390364	4.245519	-0.283888	0.301972	-0.183661	-0.847575	9.670296	0.746042	-3.16799	17.184192	8.84194	-9.079397	-0.409444	-0.468097	-0.251212
-4.578623	0.729568	9.760479	35.722079	42.530982	9.604536	0.898813	-0.124894	-0.72945	1.094225	2.071969	9.759217	3.412057	3.482124	-0.723055	0.288551	-0.215448	-0.830943	9.854393	1.502604	-2.682219	14.263235	9.529642	-8.55257	-0.492123	-0.422396	-0.223089
-2.403819	0.383103	9.744491	35.899866	31.335211	10.495366	0.883507	-0.048608	-0.774332	0.974151	2.128326	9.530288	3.374499	2.988889	-0.388881	0.301822	-0.214301	-0.845568	10.26432	0.977985	-2.916369	10.437132	8.651458	-7.770502	-0.478286	-0.421366	-0.238547
-1.667182	0.208551	9.360271	33.9703	30.223331	4.778875	0.910619	-0.042642	-0.750294	1.435213	1.845811	9.539722	1.856884	2.720745	0.162137	0.263265	-0.198134	-0.860094	10.208044	0.746311	-2.798645	8.474487	6.695484	-8.609765	-0.478286	-0.421366	-0.238547
-0.053788	-0.135088	9.901678	30.995488	26.576288	-5.453612	0.898413	-0.093824	-0.750357	1.667893	1.845475	9.657837	0.058481	2.177118	0.093628	0.288991	-0.243945	-0.857635	10.387584	1.095103	-2.614139	6.1138	4.232655	-13.815247	-0.45047	-0.420958	-0.238406
0.631086	-1.744672	9.737724	33.221767	21.787548	-15.873615	0.897284	-0.087109	-0.725621	0.92658	1.959821	9.982053	-0.652511	2.19454	0.74062	0.275575	-0.215523	-0.830667	11.333503	1.325742	-2.475729	6.074339	1.171756	-16.581382	-0.450612	-0.419305	-0.269462
0.897812	-2.43852	8.71704	30.131429	17.96287	-24.054862	0.912162	-0.097727	-0.736631	1.330316	2.184436	10.047345	0.118362	2.082084	0.678466	0.301602	-0.200053	-0.832222	10.744827	0.688255	-2.489453	3.735172	-0.800691	-12.988066	-0.464658	-0.436528	-0.253167
1.586145	-2.668542	8.78629	18.171808	10.284962	-29.451639	0.869415	-0.082832	-0.738999	1.263187	2.127834	9.592972	-0.472602	1.79624	1.045085	0.28781	-0.248233	-0.800236	11.047476	0.747387	-2.064356	2.101478	-1.428441	-12.00124	-0.47794	-0.388155	-0.255749
1.537141	-3.298669	9.180494	13.335331	0.846381	-28.486903	0.869786	-0.079304	-0.753075	1.096858	1.959403	9.872401	-0.908238	1.574088	1.350808	0.288476	-0.230769	-0.829939	10.212581	0.689223	-2.559264	1.770233	-1.944849	-15.420243	-0.450541	-0.420132	-0.253934
1.75956	-3.415165	8.843346	8.08154	-7.502083	-26.276332	0.898799	-0.107595	-0.746941	1.437847	1.733245	9.652906	-1.841538	1.070486	1.530018	0.301527	-0.215373	-0.831218	10.216733	1.27122	-2.257257	1.897093	-1.737131	-20.677749	-0.422584	-0.421376	-0.222738
2.162237	-2.955441	8.966778	0.876403	-14.731528	-23.275174	0.912548	-0.111498	-0.733215	0.922738	2.07234	9.812229	-2.057291	1.127663	1.74621	0.275575	-0.215523	-0.830667	9.868814	0.982886	-1.965562	1.762114	-1.187612	-23.582842	-0.463886	-0.408274	-0.177202
2.332845	-2.898365	8.913506	-5.216116	-19.792451	-21.315537	0.911805	-0.118554	-0.705063	1.385224	1.677212	9.878208	-1.534854	0.919472	1.775389	0.301747	-0.229622	-0.844565	9.457611	0.635622	-1.914841	1.782803	-1.385549	-25.140375	-0.465146	-0.468087	-0.267021
2.340598	-2.839235	9.311719	-12.013605	-23.448665	-21.539424	0.925125	-0.056788	-0.747227	1.095087	1.621325	9.758837	-2.242775	1.096056	1.52995	0.301527	-0.215373	-0.831218	10.05233	1.04204	-1.602572	2.002963	-1.113568	-24.745232	-0.450262	-0.404765	-0.239243
1.986553	-2.151859	8.796256	-21.562391	-28.804075	-24.850229	0.94116	-0.108718	-0.747989	1.3762	1.338849	9.424807	-1.71722	1.133182	1.56157	0.28803	-0.262481	-0.813582	9.984355	0.633418	-2.144565	2.1242	-1.357523	-24.775064	-0.4504	-0.421784	-0.222878
1.719832	-3.009173	9.753572	-31.123535	-34.782805	-30.134285	0.940389	-0.081176	-0.754821	1.500463	1.620666	9.880579	-2.489619	1.123182	1.591677	0.276385	-0.227628	-0.872713	9.569891	1.215124	-2.149796	2.335299	-1.658225	-25.202188	-0.422934	-0.435916	-0.252957
1.437226	-1.916612	9.980001	-35.673593	-43.322204	-35.290504	0.955267	-0.091794	-0.76583	1.149457	1.395753	9.589938	-1.965232	1.068315	1.622382	0.301307	-0.201125	-0.817872	9.392688	0.808749	-2.214735	1.897197	-1.771732	-26.208428	-0.520774	-0.487575	-0.219881
0.744688	-2.032204	9.681892	-39.748848	-49.805857	-39.924027	0.954895	-0.095322	-0.751754	1.161546	1.396227	10.156334	-1.874733	0.886307	1.497332	0.301156	-0.231766	-0.815865	8.926196	0.75299	-1.924251	1.522041	-2.04269	-26.755792	-0.43698	-0.453139	-0.236662
0.114558	-1.572216	9.671574	-46.300175	-54.756687	-45.200513	0.968644	-0.099225	-0.738027	1.438624	1.958614	9.709736	-2.156368	0.606394	1.555978	0.301897	-0.198981	-0.846572	9.279867	0.461552	-1.978791	1.55589	-1.830978	-26.512473	-0.478771	-0.471596	-0.20498
-0.499735	-1.453499	10.455751	-51.039939	-59.895776	-49.41174	0.955624	-0.070966	-0.797398	0.917448	1.677789	9.5287	-2.560218	0.417913	1.461295	0.289512	-0.196912	-0.874996	9.464214	0.637106	-1.5554	1.126845	-2.05485	-25.715383	-0.464867	-0.452721	-0.25233
-1.18481	-1.10787	10.557543	-52.013894	-66.25531	-52.917482	0.955267	-0.091794	-0.76583	1.200332	1.733391	9.308233	-1.10865	0.405268	1.523993	0.28796	-0.217592	-0.802243	8.690806	0.46315	-1.929889	0.977443	-1.878174	-25.104552	-0.451443	-0.502746	-0.218693
-1.863986	-1.220567	10.94167	-52.700101	-72.178341	-54.14685	0.983851	-0.054416	-0.815588	1.142766	1.733499	9.307024	0.248705	0.240337	1.245992	0.314653	-0.184657	-0.833501	8.867045	0.811201	-1.925104	0.82893	-1.610046	-24.4636	-0.437535	-0.502542	-0.218623
-2.82758	-0.8156	11.436108	-52.300166	-77.383052	-53.220223	0.970087	-0.033214	-0.846807	1.210673	2.015471	9.818227	1.452324	0.134574	0.999283	0.301822	-0.214301	-0.845568	9.219501	1.042447	-1.977419	0.685286	-1.25803	-23.059135	-0.464934	-0.470566	-0.220437
-3.63343	-1.045751	11.192142	-51.072154	-79.480131	-49.453847	1.012078	-0.037866	-0.833778	1.499901	1.282635	9.823655	0.519461	-0.366818	0.839406	0.289587	-0.181592	-0.875999	8.572524	1.044427	-1.86971	0.082041	-0.540605	-21.654733	-0.464445	-0.439007	-0.206584
-4.260137	-0.699922	11.3519	-48.892174	-77.752485	-43.664865	0.955953	-0.01554	-0.863949	1.208124	1.452023	9.647834	1.131962	-0.787887	0.774056	0.27565	-0.200203	-0.831671	8.452946	0.288967	-2.054846	-0.955004	0.117244	-20.554039	-0.450608	-0.437976	-0.222041
-4.541914	-0.756192	11.573504	-47.187633	-73.973052	-37.350574	0.942604	-0.042707	-0.856768	1.617149	2.071189	9.996655	-0.48268	-1.480688	0.426758	0.288256	-0.21652	-0.816593	8.747777	0.8693	-1.986965	-2.208114	1.085259	-19.942962	-0.479188	-0.503981	-0.203306
-4.714506	0.392763	11.57499	-45.804018	-69.021414	-28.808062	0.9983	0.000636	-0.882488	0.974798	1.790343	9.530003	-1.355712	-2.134627	0.265413	0.289216	-0.197984	-0.860646	9.103514	0.636432	-1.921444	-3.948373	2.598655	-18.99658	-0.451305	-0.485728	-0.235058
-4.714299	0.105556	11.573783	-44.332239	-64.872504	-19.941896	0.998286	0.017935	-0.89998	1.211319	1.677488	9.817942	-1.271061	-2.805272	-0.172781	0.301822	-0.214301	-0.845568	9.03749	0.809312	-2.281244	-5.578841	3.610445	-19.790015	-0.451514	-0.50192	-0.234221
-4.154785	-0.357286	10.90075	-44.58439	-65.193088	-13.474798	0.970788	0.025741	-0.927434	1.374368	2.296468	9.425613	-0.075776	-3.555818	-0.302595	0.327479	-0.215223	-0.83177	9.155523	0.809042	-2.279043	-6.967088	4.507387	-21.225487	-0.465071	-0.487584	-0.204072
-4.562702	0.273413	10.554492	-50.233226	-70.080619	-7.74135	1.012735	0.072987	-0.966881	1.266359	1.733615	9.705919	-1.052716	-5.099846	-0.53453	0.301972	-0.183661	-0.847575	9.28757	0.463283	-1.559443	-8.534997	5.672993	-22.080984	-0.423419	-0.486146	-0.21939
-4.34309	0.960616	10.107017	-55.544123	-79.295145	-2.600736	0.983751	0.06668	-0.93803	1.784448	1.732645	9.716799	1.895692	-6.441582	-0.637983	0.302268	-0.182589	-0.861925	9.277511	0.054278	-2.160243	-10.032221	6.914839	-21.409221	-0.451514	-0.50192	-0.234221
-3.70199	0.732806	10.686831	-59.738179	-90.552313	1.429963	0.957753	0.071299	-1.004296	1.383477	1.958817	9.821806	-1.833164	-8.233175	-1.182874	0.301521	-0.275583	-0.841554	9.277417	1.042065	-2.036226	-11.968452	7.455019	-21.068652	-0.451723	-0.518113	-0.233384
-3.824584	1.133291	10.288322	-64.764656	-102.020021	4.662204	0.942489	0.095688	-0.996702	1.265043	1.789899	9.649327	-1.883394	-9.766091	-1.321468	0.249768	-0.245242	-0.842458	9.337378	0.635398	-2.036856	-13.742867	8.602215	-20.212081	-0.466052	-0.53203	-0.2792
-4.754017	1.131059	9.588269	-69.954622	-108.94552	5.852646	0.929884	0.075577	-1.017673	1.329538	1.959067	9.990516	-4.559425	-11.273825	-1.030332	0.288105	-0.247161	-0.814586	8.973937	0.866534	-2.521725	-15.4933	8.986328	-19.504741	-0.465839	-0.534509	-0.232617
-5.095814	1.821089	9.69819	-74.744894	-109.886733	5.54447	0.929483	0.106647	-1.038581	1.510696	1.959076	10.39062	-6.988444	-12.836348	-1.263619	0.27587	-0.214451	-0.845017	9.102123	0.287482	-2.042741	-17.826841	9.301162	-18.214345	-0.438098	-0.514603	-0.295425
-5.031262	2.512035	10.10017	-75.884953	-105.205008	4.397123	0.886722	0.138841	-1.058441	1.272272	1.1705	9.932003	-5.891314	-14.046316	-1.675531	0.301527	-0.215373	-0.831218	9.333111	0.576333	-2.276731	-19.579131	9.254162	-17.229902	-0.396441	-0.531836	-0.263321
-5.48893	3.546555	10.152459	-71.94822	-98.014351	3.705262	0.873359	0.128973	-1.068752	1.15805	1.959438	10.043529	-7.978941	-15.510537	-2.215844	0.288846	-0.214376	-0.845292	9.095001	0.983158	-2.339309	-21.402068	9.068801	-17.680795	-0.438236	-0.531622	-0.27906
-5.891897	3.488921	10.030717	-61.458547	-92.64829	3.884925	0.858438	0.191488	-1.110218	1.213629	1.733913	9.931269	-6.91044	-16.53731	-2.564301	0.263114	-0.228775	-0.858087	9.213708	0.692508	-2.338344	-22.67407	9.079386	-19.143041	-0.465772	-0.516664	-0.26451
-6.651301	4.347947	9.280771	-50.587775	-90.707541	5.29586	0.816833	0.182369	-1.11983	1.217495	2.241077	10.158254	-7.577367	-18.043248	-3.350508	0.275505	-0.170634	-0.819328	9.100773	0.868242	-2.040269	-24.555494	8.887814	-19.013081	-0.465839	-0.534509	-0.232617
-7.291572	3.426926	8.696131	-39.475476	-89.790262	7.578791	0.843946	0.188335	-1.095793	1.154747	1.790304	9.873468	-6.7955	-19.776927	-4.014501	0.301156	-0.231766	-0.815865	8.923725	0.868647	-2.04357	-26.331574	9.044753	-17.051655	-0.409999	-0.5175	-0.233173
-7.426206	3.537549	7.671031	-33.587234	-85.569265	9.225071	0.774458	0.200792	-1.136275	1.503096	1.508099	9.993763	-9.84767	-21.746872	-4.129026	0.27609	-0.2287	-0.858363	9.278112	1.21654	-1.975577	-28.600225	8.732855	-14.291637	-0.424324	-0.550089	-0.231569
-7.883993	3.193231	7.660675	-30.187065	-77.645903	11.429298	0.800812	0.217	-1.101577	1.501349	1.789705	9.937361	-10.736132	-23.597994	-4.148145	0.302412	-0.212158	-0.874268	9.105735	1.101782	-1.739745	-30.937914	8.186411	-12.538666	-0.41042	-0.531214	-0.278919
-8.39817	3.193846	7.707507	-25.062281	-68.673777	14.013559	0.788207	0.19689	-1.122548	1.845209	1.958002	9.888117	-13.483289	-25.842103	-3.956871	0.288626	-0.200128	-0.831946	9.446512	1.620937	-2.389894	-32.739635	6.963911	-13.259741	-0.451447	-0.484075	-0.266113
-8.298343	3.477834	6.97185	-17.468601	-61.529174	16.070351	0.816062	0.209911	-1.126662	1.725782	1.676375	9.658903	-14.846353	-28.587779	-4.108576	0.288701	-0.184807	-0.83295	9.326684	1.446484	-2.51265	-34.70705	4.893476	-14.862386	-0.43865	-0.582678	-0.229965
-9.271544	3.306214	6.952197	-9.439344	-53.525919	18.477126	0.773686	0.228335	-1.143106	2.195868	1.732223	10.121739	-14.473433	-30.765715	-3.297576	0.224041	-0.199431	-0.844917	9.625336	1.330399	-2.327921	-35.064066	2.814962	-15.126208	-0.438586	-0.546162	-0.309278
-10.144878	3.361141	6.196646	-1.648249	-44.919401	21.783613	0.787835	0.193361	-1.108472	2.021616	1.281807	10.004454	-19.21948	-34.722126	-3.094105	0.250509	-0.212458	-0.873165	9.497555	1.735223	-2.807647	-35.087014	0.716246	-16.277353	-0.438653	-0.564007	-0.277386
-11.356786	2.727983	5.65893	1.75297	-33.678864	26.831941	0.772543	0.252348	-1.135862	1.791809	1.676599	10.05659	-18.247404	-38.135683	0.232995	0.237237	-0.213605	-0.858539	9.973566	2.432292	-2.496342	-36.431963	-1.332023	-16.843326	-0.424395	-0.549263	-0.247097
-11.987124	3.475179	5.649819	2.227801	-19.461941	31.109029	0.773329	0.207507	-1.111539	2.145987	1.507293	10.460178	-27.780764	-41.885642	1.760282	0.224117	-0.184111	-0.845921	9.923873	1.737245	-2.081061	-36.355749	-3.287812	-16.987063	-0.438653	-0.564007	-0.277386
-12.219109	2.957647	5.472634	4.810599	-5.404355	33.966933	0.787821	0.210661	-1.125964	2.365861	-0.014584	9.840698	-26.418381	-49.237939	-1.610317	0.250289	-0.198209	-0.859819	9.504448	2.08541	-2.386815	-35.916914	-5.104133	-18.660704	-0.438653	-0.564007	-0.277386
-11.628381	3.995282	6.454615	8.354322	-10.055314	30.845628	0.775229	0.17325	-1.129443	2.150391	1.732805	10.686926	-17.26201	-52.594067	4.097727	0.223891	-0.230072	-0.84291	9.561803	1.852477	-2.506518	-35.076773	-6.361154	-21.041274	-0.451935	-0.515634	-0.279967
-13.338427	4.285422	6.820389	23.085094	-1.831665	46.205951	0.772185	0.231521	-1.104294	2.509859	1.958049	11.374044	-27.641691	-62.239081	4.825868	0.211286	-0.213755	-0.857988	8.909615	2.201924	-2.636953	-35.122439	-7.730167	-21.767959	-0.451797	-0.498615	-0.296332
-12.427432	5.145417	6.614412	38.517126	10.778402	46.366421	0.773714	0.193736	-1.108123	2.436447	1.394188	10.579407	-22.004324	-68.01871	8.37989	0.211066	-0.199506	-0.844642	8.903957	1.793908	-2.998125	-35.030819	-8.970058	-20.142813	-0.438374	-0.548641	-0.262695
-10.339512	6.643436	8.082099	54.629521	12.868388	42.122949	0.788578	0.200418	-1.136624	3.089655	1.055778	11.498654	-15.893217	-85.31312	9.816004	0.237689	-0.121682	-0.864561	8.902026	1.677261	-3.118433	-35.886086	-9.609188	-17.783681	-0.452491	-0.565038	-0.261928
-8.596626	6.233064	6.466188	100.499704	-7.205731	23.26754	0.746245	0.166943	-1.100593	2.825953	0.209876	9.850559	5.996448	-102.624025	16.012327	0.185484	-0.183264	-0.859444	9.014692	1.617679	-3.416014	-35.944104	-10.640865	-15.639433	-0.452632	-0.563385	-0.292984
-5.566813	2.175761	11.96374	69.579003	23.255489	2.324384	0.803099	0.168973	-1.116065	1.364032	1.622412	11.57614	3.971248	-125.846973	16.149878	0.185484	-0.183264	-0.859444	8.783029	1.619208	-3.180788	-35.748788	-11.994858	-11.813738	-0.424537	-0.547611	-0.278153
3.955239	-1.549095	15.827231	127.058349	13.192094	-0.090132	0.774086	0.197264	-1.122199	4.891482	1.731499	15.103785	22.820471	-111.925174	2.430482	0.211436	-0.183114	-0.859995	9.266567	1.446372	-2.573657	-33.309847	-14.783458	-1.571248	-0.369114	-0.562987	-0.277035
6.053984	-5.793782	17.611906	121.555088	31.328936	-18.917352	0.816848	0.16507	-1.102339	3.53339	1.225628	13.433005	60.601135	-126.747942	-8.291203	0.171622	-0.186555	-0.816119	10.024204	2.720806	-2.913354	-28.110152	-19.363859	14.325287	-0.410838	-0.563599	-0.277245
0.393464	1.828008	12.36236	94.742283	73.294293	-4.448376	0.817591	0.172127	-1.130491	2.44222	2.410806	13.63759	41.539262	-149.9963	9.09616	0.145891	-0.200953	-0.828913	12.044404	3.474665	-2.034028	-24.591364	-29.072548	34.656616	-0.466398	-0.565242	-0.261998
-6.055819	5.603967	7.592736	80.820671	64.948138	5.055083	0.777144	0.121695	-1.129856	3.443322	1.395831	14.620161	62.202729	-167.816779	24.134508	0.184228	-0.202872	-0.801041	13.311119	3.536086	-0.512999	-19.857896	-37.875092	44.709303	-0.424954	-0.579995	-0.276478
-6.748807	4.569069	7.233912	63.748986	45.031377	3.829811	0.832512	0.109611	-1.089025	3.79549	0.381424	14.853119	73.807586	-186.310544	39.745129	0.106147	-0.249283	-0.796376	13.853519	2.956336	0.033594	-13.213812	-42.149934	25.659613	-0.397071	-0.561742	-0.308231
-3.024633	1.821768	10.249953	38.300002	32.188409	4.001005	0.876774	0.074231	-1.107977	4.131225	3.143167	17.35363	71.822864	-208.006408	48.80811	0.132689	-0.24699	-0.825627	12.53356	2.780134	-1.189495	2.143303	-33.114421	-14.845012	-0.424679	-0.545958	-0.309208
-0.627119	0.956716	9.895128	44.095551	36.051963	-0.982378	0.833626	0.120196	-1.131252	4.266275	0.946678	18.090513	94.152432	-213.202382	41.714205	0.079755	-0.220936	-0.769132	11.415284	2.899593	-1.030188	8.432605	-24.318576	-50.017391	-0.452632	-0.563385	-0.292984
-2.373543	2.273083	8.445946	35.814442	37.132244	-4.774532	0.803513	0.120603	-1.077666	3.743458	0.891128	17.853027	99.0669	-223.653264	29.621386	0.028366	-0.234413	-0.795725	10.698557	2.783083	-1.523143	14.022109	-13.99767	-46.512392	-0.452561	-0.564211	-0.277456
-3.769996	0.832973	7.219275	10.886804	30.297046	2.393144	0.804642	0.113889	-1.102402	4.521768	-0.235793	19.170505	105.362268	-243.951304	23.382264	0.053652	-0.251727	-0.766573	10.576933	2.433908	-1.766455	10.580646	-6.651431	-15.704718	-0.38351	-0.594749	-0.290958
-4.017338	0.899066	9.203807	-10.201793	23.039395	13.130495	0.876374	0.105302	-1.128884	4.404894	-0.345949	21.772206	107.314557	-263.703649	14.093089	0.001448	-0.313309	-0.761456	11.101651	3.302844	-1.99247	7.480086	-4.219148	11.281445	-0.4107	-0.54658	-0.29361
-2.573356	0.38371	9.854857	-0.798156	16.673397	6.498747	0.818019	0.106458	-1.074599	3.427599	-0.4004	21.808246	133.222576	-288.901744	0.792489	-0.025535	-0.287106	-0.705513	10.97279	4.172277	-2.470218	1.359873	-5.671515	10.607536	-0.466257	-0.566894	-0.230943
-2.867464	0.43967	9.451559	5.55431	11.03477	2.21809	0.875259	0.094717	-1.086656	3.951662	-2.260182	21.930841	149.504127	-314.120752	-19.235986	-0.052528	-0.381322	-0.67024	10.438944	5.335013	-2.475177	-3.921783	-7.397303	-16.59597	-0.438374	-0.548641	-0.262695
-3.685278	1.355937	8.643888	4.361786	5.726593	3.637955	0.889365	0.111641	-1.104497	4.048684	-1.641426	21.140826	168.819577	-338.309226	-36.476633	-0.078775	-0.382544	-0.655339	9.745306	4.75884	-1.771972	1.973841	-7.688096	-48.576363	-0.410349	-0.53204	-0.263392
-2.579586	1.301568	9.574452	0.988591	0.766011	3.321707	0.846246	0.123008	-1.09279	5.129044	-0.967982	20.597968	186.278021	-347.630378	-47.744721	-0.105243	-0.369518	-0.627091	8.619287	3.946857	-2.155783	0.324199	-8.040455	-56.481169	-0.411393	-0.613003	-0.259206
-2.915976	0.671407	9.906235	4.863007	-1.198788	1.99059	0.890123	0.101399	-1.115158	6.970879	1.448587	18.147759	213.279853	-336.429332	-54.20838	-0.144767	-0.432096	-0.6079	7.571572	3.83635	-1.397296	-1.400363	-10.486537	-24.596513	-0.424604	-0.565456	-0.24626
-2.97814	1.302341	9.680364	9.087495	-1.102627	0.661282	0.875631	0.098245	-1.100732	11.851199	2.168912	15.023884	236.774381	-316.942345	-61.578926	-0.158779	-0.466028	-0.562568	7.471842	4.015051	-0.380338	1.786236	-14.387297	16.577437	-0.439071	-0.596392	-0.275711
-2.577691	1.761583	9.690089	7.175286	2.090029	0.227988	0.874845	0.143086	-1.125056	11.134203	0.704474	13.648794	203.337499	-305.002827	-26.377248	-0.147504	-0.517274	-0.488084	7.830651	4.828788	-0.010832	6.595897	-15.324979	29.06699	-0.438862	-0.5802	-0.276549
-2.752587	1.473776	9.514982	3.629543	5.020034	-2.106297	0.859638	0.098277	-1.047495	12.029139	-3.974059	12.021652	128.118645	-288.55448	12.938263	-0.161221	-0.550133	-0.457101	7.84071	5.237793	0.589967	17.000754	-15.261485	14.661935	-0.425021	-0.59784	-0.244586
-3.035187	1.015174	9.678044	3.971364	6.291321	-2.945335	0.860367	0.122633	-1.093139	7.411907	-5.033902	13.961855	73.557434	-240.441781	35.322684	-0.20052	-0.566751	-0.440921	7.855246	4.195144	1.244493	23.583275	-14.5028	-6.17955	-0.439	-0.597218	-0.260184
-2.807573	1.416858	9.627334	4.589637	6.936058	-2.629951	0.847018	0.095466	-1.085958	-4.061686	-4.557753	18.307051	118.031267	-177.84064	46.246828	-0.227502	-0.540548	-0.384978	8.03571	3.672549	1.365383	26.272564	-9.569262	-12.080476	-0.424537	-0.547611	-0.278153
-3.102588	1.185369	9.165976	4.411167	7.169923	-1.64425	0.861138	0.095091	-1.086307	-15.76791	-8.139733	19.473388	212.687331	-167.581944	41.461198	-0.228393	-0.603973	-0.352264	7.669488	3.205784	0.63792	24.905422	-2.462276	-1.779763	-0.42523	-0.614033	-0.243749
-2.8072	0.899884	9.625162	3.807774	8.297499	-1.041492	0.846261	0.105708	-1.075298	-18.661323	-15.237849	12.669273	168.084447	-292.626639	84.180657	-0.24277	-0.594087	-0.281243	8.35996	3.72314	-0.245253	23.112771	5.411286	14.143762	-0.439626	-0.645796	-0.257672
-2.462809	1.244526	9.690144	4.189048	9.856403	-0.12788	0.86191	0.067549	-1.079476	-22.170684	-9.100167	2.467045	125.476669	-244.578632	135.254287	-0.269092	-0.610629	-0.265338	8.867902	4.70452	-1.369377	24.253138	12.968342	14.378661	-0.38316	-0.580209	-0.26074
-2.754731	1.35841	9.400794	3.952933	11.081005	0.199383	0.889365	0.111641	-1.104497	-4.694232	-8.74424	-3.619611	73.523143	-109.357034	220.407478	-0.269908	-0.658734	-0.233628	9.499722	4.118071	-2.378162	25.784267	21.005485	0.886274	-0.424533	-0.566282	-0.230732
-2.981688	1.588824	9.511011	2.180621	11.777421	0.39981	0.905029	0.056183	-1.091183	-9.474612	-7.211987	-1.001178	32.477607	134.32893	337.728624	-0.322403	-0.661178	-0.203825	9.855055	4.059432	-2.3119	25.703993	25.388008	-8.791911	-0.411255	-0.595984	-0.275571
-2.697601	1.530693	9.402631	1.418308	12.858098	-0.34713	0.873787	0.063304	-1.012861	-4.638253	-11.610384	4.135178	37.962326	260.716279	325.573002	-0.334557	-0.552939	-0.224925	8.954075	2.779582	-3.352263	23.240969	25.80989	-3.10058	-0.43935	-0.611758	-0.290402
-2.293272	1.243919	9.579778	-1.271716	14.265006	-0.837876	0.861138	0.095091	-1.086307	-1.011049	-18.144884	11.735279	-16.059729	269.747975	238.943695	-0.345611	-0.515941	-0.312755	8.01862	2.78372	-2.890615	15.392679	25.011639	6.314575	-0.45277	-0.580404	-0.276619
-2.580741	1.358768	9.51784	-2.459858	15.835	-1.544975	0.874887	0.091188	-1.07258	1.145591	-11.894667	13.59774	-63.585558	188.921648	55.328551	-0.359548	-0.534553	-0.268426	8.493646	2.95761	-2.701349	8.317369	23.964161	16.431866	-0.425509	-0.629399	-0.258439
-2.469573	1.357962	9.349508	-2.94547	16.883088	-2.017234	0.887493	0.111299	-1.051609	-2.473315	-4.399785	9.169054	-55.441561	176.346157	-43.749408	-0.371418	-0.54566	-0.324546	8.024953	2.901356	-2.530679	2.905198	21.525879	22.576635	-0.397768	-0.609493	-0.321247
-2.752504	1.358893	9.5145	-4.321558	17.744035	-2.612647	0.916492	0.100307	-1.062968	-6.175964	1.465202	8.756778	-30.059447	212.136628	-91.365597	-0.345316	-0.51487	-0.327104	7.375951	3.774476	-2.419261	2.630873	19.05901	15.497735	-0.410905	-0.581444	-0.245353
-3.095824	1.071933	9.506612	-3.671142	18.541143	-2.172206	0.874887	0.091188	-1.07258	-5.05808	17.521871	14.059537	63.686386	272.410421	-71.610583	-0.318629	-0.542145	-0.368698	7.972384	2.496195	-2.233975	1.713872	16.918886	3.224073	-0.411672	-0.628369	-0.273897
-2.468293	1.128437	9.405396	-2.77375	19.428106	-1.424334	0.875245	0.112016	-1.104148	-5.996151	1.293788	6.382608	-52.900573	265.753892	51.63171	-0.293343	-0.559459	-0.339546	7.445215	2.207771	-2.065395	0.151357	13.00615	-0.541434	-0.453258	-0.611962	-0.290472
-2.698259	0.898595	9.343124	-2.79596	20.154693	-0.46175	0.930612	0.099933	-1.063317	-3.443879	2.137194	10.116877	-40.289119	310.084971	27.696509	-0.304177	-0.53671	-0.440722	6.913105	2.150663	-2.135453	-1.076615	10.352249	4.243558	-0.383368	-0.596402	-0.259903
-3.211653	1.358983	9.448739	-2.26703	21.010594	0.163998	0.917649	0.058994	-1.05272	-2.653609	3.994118	9.568971	-34.055945	317.134086	5.328158	-0.278375	-0.567201	-0.439266	6.681327	2.675124	-1.838095	-1.742119	5.229907	8.335482	-0.425163	-0.596188	-0.275641
-3.093472	0.900091	9.619595	-1.919286	21.982988	1.282843	0.874159	0.066832	-1.026937	-2.594127	2.360378	9.512165	-51.756581	329.738926	9.015612	-0.237971	-0.561616	-0.511842	6.798009	3.255614	-1.833422	0.549482	2.76294	8.094437	-0.411259	-0.577313	-0.322992
-4.943098	0.438025	8.672383	-1.8242	21.786527	2.383409	0.917278	0.055466	-1.038645	-2.834508	1.574091	11.657761	-29.415833	331.156511	-5.472375	-0.225441	-0.593254	-0.495761	6.801965	2.50112	-1.716822	2.248675	1.20685	5.344902	-0.467028	-0.595148	-0.306908
-2.751308	1.244251	9.57087	-1.616065	23.876752	5.146167	0.87223	0.135687	-1.044016	-0.432129	2.01964	11.029239	-28.90754	326.799312	-12.081646	-0.236646	-0.586898	-0.581584	7.099517	2.384788	-1.592001	3.858253	-0.944941	3.973962	-0.43928	-0.612585	-0.274874
-2.698342	1.013478	9.343606	3.665502	25.217835	5.582099	0.903143	0.07314	-1.055787	0.285874	1.061723	12.232372	-22.894836	328.000674	-15.702454	-0.159751	-0.604984	-0.539185	6.985481	2.560275	-1.353832	5.311921	-1.693414	5.867242	-0.424742	-0.582474	-0.229895
-3.835139	0.326697	9.716412	8.065583	26.627133	7.769675	0.9043	0.031827	-1.04554	7.740472	0.990243	11.030132	-19.745219	324.583883	-25.321105	-0.183931	-0.598703	-0.624732	7.815299	2.907829	-1.097315	7.341054	-0.957412	9.34076	-0.397906	-0.626512	-0.304882
-3.262926	0.785815	9.729478	10.749255	28.028758	9.931372	0.915749	0.093251	-1.034816	2.354316	-0.688687	11.934585	-35.127368	333.570873	-34.954209	-0.131362	-0.580938	-0.655538	8.289494	2.96532	-0.968451	9.043413	-0.342678	9.637313	-0.425096	-0.578343	-0.307534
-3.490954	0.958547	9.782601	12.452489	29.925792	11.367936	0.91652	0.065709	-1.027984	-0.049271	-1.134283	12.506467	-31.090408	346.929476	-39.164306	-0.091398	-0.546857	-0.701422	8.484109	2.039159	-0.130408	10.011242	1.966643	8.491877	-0.425372	-0.61238	-0.274804
-3.677566	1.472509	9.042342	13.969761	32.109628	11.828384	0.946276	0.044474	-1.050003	1.789332	-0.966499	15.092867	-57.544498	353.283468	-42.050707	-0.091624	-0.592818	-0.698411	8.478492	2.560855	-0.367811	10.905388	3.584495	6.158003	-0.411184	-0.59681	-0.260043
-3.720138	1.188479	9.779112	14.192454	34.152569	10.634313	0.91612	0.096779	-1.048892	1.713554	-0.683066	16.959794	-65.470648	330.773444	-35.623004	-0.051955	-0.559808	-0.729945	8.534767	2.792529	-0.485535	12.151447	6.390307	4.428505	-0.397347	-0.59578	-0.275501
-3.66206	1.590769	9.838768	13.845956	38.408268	9.201841	0.888651	0.069986	-1.041362	4.742874	-1.137939	18.664826	-80.360191	313.660445	-40.151894	-0.024967	-0.525802	-0.775553	9.124639	2.442476	-0.535921	15.345302	8.603323	4.498069	-0.425021	-0.59784	-0.244586
-3.952496	1.187921	9.604099	14.457706	44.490928	6.937631	0.903157	0.05584	-1.038295	7.802055	0.492745	21.957522	-79.544183	292.269178	-20.111481	0.038802	-0.574603	-0.730872	8.706833	2.093729	-0.844642	15.561544	9.379596	3.454411	-0.425301	-0.613207	-0.259276
-3.828132	1.419775	10.118969	14.831439	51.021013	5.754695	0.931012	0.068862	-1.04241	9.684658	-0.074829	21.147348	-91.65175	284.194326	-6.945927	0.066085	-0.539525	-0.790829	8.698705	1.801371	-1.325133	15.787735	10.478505	3.753985	-0.426136	-0.677977	-0.255928
-3.493471	1.360155	9.670584	17.54799	60.119245	3.962746	0.916492	0.100307	-1.062968	11.92634	1.439508	18.478284	-113.040149	261.378612	-14.126542	0.105829	-0.491195	-0.823367	8.584784	1.453926	-1.149097	18.014053	9.201669	6.716739	-0.397627	-0.611146	-0.290192
-4.017012	1.990696	9.265245	16.641933	68.624516	1.466217	0.945176	0.01659	-0.990283	19.390623	4.131177	20.675535	-192.089735	250.390019	-13.066445	0.10723	-0.501156	-0.894112	8.525903	1.395985	-1.150445	15.994272	6.739937	7.438788	-0.425513	-0.610728	-0.30586
-3.8304	1.476734	10.005504	14.605651	77.332657	-0.4411	0.958139	0.057528	-1.00088	25.611023	8.063099	21.319173	-214.683511	256.340724	21.224944	0.146678	-0.453897	-0.9123	7.342569	1.746647	-1.290784	12.348321	4.909086	8.713889	-0.426069	-0.660132	-0.287821
-3.885635	1.764466	10.119303	18.965995	86.719918	-5.45334	1.000515	0.039105	-0.984436	26.609041	10.313052	19.756922	-239.510087	278.457051	50.775729	0.147194	-0.467074	-0.939995	7.708386	2.38764	-0.562579	10.917311	3.56518	13.952212	-0.425234	-0.595362	-0.291169
-4.217037	1.939693	10.73873	25.395607	100.606227	-13.526884	0.958896	0.047286	-1.01154	32.469579	17.627505	22.717167	-225.725713	331.353829	24.306361	0.226091	-0.372557	-0.976371	8.52915	3.314225	-0.722938	9.453259	-0.320591	22.443211	-0.439213	-0.59474	-0.306767
-4.545384	0.966572	11.467037	34.400465	115.875861	-23.395378	0.987523	0.032765	-1.008823	36.243857	11.413123	10.279222	27.705459	282.018079	-18.709269	0.226091	-0.372557	-0.976371	9.164488	4.529864	-1.30471	12.561453	-3.964837	20.982075	-0.453329	-0.611136	-0.306
-5.712106	4.077488	13.38969	30.246716	118.570319	-24.290442	1.000915	0.008035	-0.963528	47.997485	11.217803	5.60047	-13.615187	198.292999	-92.044973	0.291561	-0.370039	-1.006449	9.982836	3.654608	-1.832174	14.594258	-7.440532	8.764698	-0.39693	-0.563395	-0.277175
-6.037682	4.528783	11.396195	28.668227	103.335253	-11.713058	0.972645	0.043383	-0.997813	52.904123	8.049697	0.662065	9.240114	140.611713	-136.397317	0.330564	-0.354493	-1.00828	9.686749	2.667249	-2.0216	12.237825	-9.511101	-1.822499	-0.397489	-0.594127	-0.306556
-4.940401	3.783186	11.869039	45.695565	106.043265	-10.552593	1.057011	0.020308	-0.968341	47.167096	10.255929	-1.041677	-15.874855	47.912276	-166.586524	0.368902	-0.356412	-0.980408	10.384748	2.3147	-2.608947	7.699038	-11.282009	5.201384	-0.42558	-0.628573	-0.273967
-4.711591	4.070228	11.874699	45.460243	114.309937	-13.545851	1.01465	0.021431	-0.967293	41.413187	22.108938	13.511003	-26.831495	-33.415491	-161.979834	0.369863	-0.337876	-1.024461	10.732938	2.486882	-2.901137	3.279651	-12.234265	15.919847	-0.43991	-0.642491	-0.319784
-4.183762	3.670418	12.508415	48.564054	125.94115	-22.014924	1.056311	-0.038647	-0.887714	23.465043	34.541422	20.221789	168.675708	-79.392899	-110.471521	0.368682	-0.342163	-0.967062	11.795634	2.310223	-2.882071	0.768958	-11.159235	17.574426	-0.42558	-0.628573	-0.273967
-4.979674	3.557321	12.776609	54.752129	140.999284	-30.774974	1.070789	-0.018194	-0.919631	12.0614	3.226224	0.705846	414.471187	-43.013543	30.005499	0.369347	-0.324699	-0.996765	13.448241	2.713222	-2.789621	-2.475512	-8.860113	12.990211	-0.425509	-0.629399	-0.258439
-5.459208	3.39309	14.585163	60.734821	162.946727	-40.465773	1.056668	-0.017819	-0.919282	-12.841597	-1.272765	19.710747	122.497427	-5.416925	133.65098	0.368526	-0.433014	-0.97539	14.508567	4.976498	-2.580451	-8.881808	-5.319059	20.332582	-0.425439	-0.630225	-0.242911
-5.864868	3.347319	17.248109	72.79425	194.432841	-54.805121	1.112393	-0.009075	-0.910018	-11.557051	7.342425	18.669655	273.620774	-25.923133	139.921084	0.341688	-0.43638	-0.931789	15.079157	7.236899	-3.338594	-6.565751	0.322124	46.496647	-0.397765	-0.628165	-0.273827
-6.451359	1.978345	19.390486	81.923136	218.582454	-54.714585	1.097172	-0.036585	-0.849949	5.347203	12.990299	7.820059	42.18352	-87.910934	27.347925	0.328041	-0.514129	-0.912145	14.752643	5.603534	-5.268039	-4.555362	9.967005	22.567123	-0.425301	-0.613207	-0.259276
-8.501788	-0.54566	19.794608	85.711618	232.976974	-41.637705	1.153283	-0.041611	-0.83727	4.863925	4.033044	5.933741	4.105743	-84.348503	9.040136	0.328266	-0.468167	-0.915156	13.83809	2.300305	-4.101601	-6.024978	13.130996	-47.302473	-0.42558	-0.628573	-0.273967
-7.767454	-2.156974	19.233796	86.698535	253.943512	-27.158565	1.138005	7.6e-05	-0.847168	2.367635	3.870218	7.579595	4.020829	-87.191862	-2.024726	0.354514	-0.466945	-0.930058	11.81341	-0.12625	-2.233479	-17.254457	9.223028	-93.306075	-0.426277	-0.676324	-0.286984
-8.018053	-2.206489	21.047286	86.858165	283.544529	-11.096278	1.151068	-0.080081	-0.735323	-1.414527	1.230271	8.063974	-50.419846	-87.510994	2.059269	0.276143	-0.454219	-0.900707	11.716286	-0.121283	-1.097449	-15.441412	6.442275	-45.617243	-0.425931	-0.643113	-0.304186
-7.762762	-3.12017	22.3555	91.844494	310.675237	13.312977	1.221657	-0.064654	-0.754561	-1.3456	1.852657	11.349592	-64.775947	-91.528147	2.069453	0.263462	-0.453222	-0.914781	11.143097	1.104114	-0.024937	-8.346126	4.147379	36.823749	-0.411743	-0.627543	-0.289425
-7.796716	-3.000179	23.548784	93.782518	334.963506	45.959502	1.221299	-0.085482	-0.722993	3.632698	1.281126	12.699155	-49.550649	-84.43711	-20.721847	0.276588	-0.422506	-0.917064	9.033233	4.250025	1.146935	-9.522083	-1.030344	49.082079	-0.42621	-0.658479	-0.318876
-7.063798	-1.107319	23.059545	102.396597	363.191132	72.053915	1.189314	-0.085417	-0.616518	4.303233	0.490352	11.693486	-25.259379	-62.777533	-30.289872	0.263022	-0.424725	-0.888089	8.199364	5.644751	0.897835	0.481164	-0.239701	5.602722	-0.425651	-0.627747	-0.289495
-7.11317	0.950203	20.623549	114.360802	381.598762	93.77581	1.21757	-0.103465	-0.599725	5.300039	-0.806466	12.449261	-43.058803	-34.821519	-38.996661	0.224609	-0.438127	-0.914958	7.602425	4.772983	0.403867	0.537934	3.572036	-28.765164	-0.410975	-0.580618	-0.26088
-6.798263	4.205986	16.381116	97.778585	382.910533	103.928651	1.27298	-0.167447	-0.506419	1.344195	-0.404051	13.159133	35.840883	-12.94439	-18.894373	0.251968	-0.387728	-0.975919	7.631844	4.243241	-1.274651	-5.426303	13.242919	-28.331371	-0.426002	-0.642287	-0.319713
-10.615453	4.947259	14.377758	122.888922	359.319477	94.33901	1.272995	-0.184746	-0.488927	0.521851	1.622498	9.860027	82.699347	-9.251693	-14.288369	0.237805	-0.4523	-0.92858	7.243613	3.771532	-3.200252	-4.378149	22.930911	2.514485	-0.425789	-0.644765	-0.27313
-9.9371	0.935787	16.704091	129.379857	320.731162	78.489239	1.286415	-0.244075	-0.408649	1.760163	1.788028	8.584055	34.24324	-14.053773	-11.75479	0.262941	-0.500255	-0.897421	6.870478	2.489725	-4.410432	-4.914934	26.040715	18.151075	-0.411672	-0.628369	-0.273897
-8.690843	-1.550834	13.023874	139.805113	292.85601	80.090277	1.285658	-0.233833	-0.397989	1.021053	2.01513	9.021645	-0.433174	-15.949138	-14.329374	0.237875	-0.49719	-0.939918	6.164525	3.42155	-4.180054	-7.896111	30.883852	7.318401	-0.397835	-0.627338	-0.289354
-4.109167	-1.841116	13.1686	115.039834	234.502412	98.400569	1.297177	-0.258905	-0.299806	1.630962	1.170375	10.562292	-0.672163	-12.112039	-5.998827	0.224314	-0.439199	-0.900608	6.520418	3.595463	-4.052895	-5.336681	36.420109	-0.572157	-0.411814	-0.626716	-0.304953
0.617319	0.632709	14.975875	112.775423	161.541968	107.243348	1.283071	-0.27583	-0.281965	0.749479	1.734633	9.751679	7.697636	-11.789055	-1.611326	0.264568	-0.464255	-0.971177	7.234654	3.362775	-3.741145	-2.811653	40.289612	-1.11933	-0.439701	-0.626298	-0.320621
10.389208	-17.972268	4.687564	225.445509	133.739542	75.018908	1.268222	-0.299811	-0.235973	0.812958	1.17141	9.978972	-16.002289	-14.789662	-1.413604	0.224088	-0.48516	-0.897597	8.127849	2.781472	-3.367669	-2.862508	34.610045	-2.192296	-0.412027	-0.624238	-0.351536
15.518499	-9.318531	1.016172	38.776915	41.012348	17.390748	1.32549	-0.346151	-0.213046	1.404196	0.607596	10.670262	-12.418047	-14.627961	-0.422616	0.237435	-0.468693	-0.913226	9.084618	2.607803	-2.691828	-6.607523	24.365952	-6.866928	-0.411814	-0.626716	-0.304953
10.85985	-1.846384	14.766842	-33.535991	-1.819696	27.451151	1.267122	-0.327696	-0.176253	2.147303	1.45101	10.51677	-1.934307	-13.81133	-1.793322	0.224754	-0.467696	-0.9273	11.478392	2.086888	-0.912735	-13.323443	13.111679	-6.513853	-0.384069	-0.625482	-0.32034
14.406187	-9.433167	14.3492	21.628769	-84.650143	-3.124539	1.25413	-0.334036	-0.20064	1.854079	1.113329	10.227243	1.338006	-14.269588	-5.093829	0.211408	-0.484163	-0.911671	10.728539	2.673606	0.093849	-14.487739	4.36519	1.783924	-0.439768	-0.644143	-0.288728
5.447098	-9.132938	15.710623	20.912721	-97.218568	-1.363895	1.297606	-0.324574	-0.243915	1.264912	1.226546	9.592213	0.132042	-14.46244	-6.083205	0.237956	-0.421659	-0.930587	9.318619	2.736406	0.427127	-11.339581	0.482324	-3.221231	-0.426002	-0.642287	-0.319713
7.84035	-10.540862	9.272572	35.342733	-90.509651	-20.342465	1.296091	-0.304089	-0.222595	1.441689	1.620726	9.82273	2.778509	-15.370771	-7.415697	0.250555	-0.498187	-0.925844	8.845119	2.853391	0.358911	-5.329325	0.283687	-14.488391	-0.453542	-0.608657	-0.352584
7.661591	-11.014304	5.970936	-13.280649	-103.718627	-19.680975	1.311712	-0.30765	-0.261756	0.92293	1.339996	9.754973	1.031335	-16.770563	-7.770124	0.23773	-0.467621	-0.927576	7.88696	2.67811	-0.438228	-0.253822	1.566549	-18.485542	-0.398119	-0.624033	-0.351466
9.425451	-10.258674	8.395307	-70.857204	-136.827512	-22.445563	1.29682	-0.279733	-0.268239	0.987856	1.283842	10.095972	-1.431561	-18.521164	-7.450407	0.198356	-0.499559	-0.910392	7.591994	2.155853	-0.505862	3.164458	4.574276	-12.369893	-0.39819	-0.623207	-0.366994
9.469571	-8.123446	10.735212	-87.616811	-175.351003	-19.649217	1.312841	-0.314364	-0.286492	1.208339	1.339362	9.647739	-0.430093	-19.804958	-6.136775	0.250486	-0.453297	-0.914506	7.229944	2.73594	-0.869434	5.795432	6.899885	-2.672108	-0.398536	-0.656418	-0.349792
8.200941	-7.95214	10.256615	-89.940211	-220.693553	-15.103505	1.311698	-0.29035	-0.279248	1.448488	1.226649	10.105596	-7.27682	-21.222022	-4.368362	0.198362	-0.439349	-0.900056	6.927026	2.792961	-1.294037	6.634906	8.600738	1.748336	-0.412302	-0.658275	-0.318806
6.923155	-7.438114	9.32464	-114.587148	-264.305994	-12.888408	1.326933	-0.28014	-0.321825	1.740372	1.000931	10.28137	-7.518272	-23.274759	-5.128832	0.212148	-0.451378	-0.942378	7.392552	2.790397	-1.644675	7.431838	10.475662	-1.808791	-0.398745	-0.672611	-0.348955
6.240964	-6.459905	9.599646	-142.849504	-300.250909	-13.237329	1.329548	-0.272741	-0.402865	1.331047	1.17044	9.989852	-8.453347	-26.697562	-8.770451	0.224088	-0.48516	-0.897597	7.273129	2.441717	-1.768173	8.186893	12.464654	-7.536061	-0.384416	-0.658693	-0.303138
5.415138	-5.87763	11.29095	-171.35399	-329.795267	-14.03366	1.32952	-0.238142	-0.437848	1.559645	0.7756	9.881076	-8.920743	-29.691409	-11.451753	0.212368	-0.465627	-0.955724	6.686519	1.862801	-1.661836	9.082777	13.365121	-8.521551	-0.440189	-0.657857	-0.334474
3.621756	-4.029489	13.309751	-191.8672	-345.58822	-16.654008	1.316557	-0.279081	-0.427252	1.499231	1.000935	9.766778	-10.58471	-31.88376	-12.399708	0.185751	-0.483241	-0.925469	7.027971	2.091576	-2.31322	9.182055	14.442709	-3.239924	-0.384979	-0.670754	-0.37994
-2.998577	0.575949	14.450659	-190.818087	-352.97645	-18.831914	1.276796	-0.253259	-0.524736	1.688504	0.550584	10.50634	-11.855579	-34.688293	-12.767712	0.224239	-0.454519	-0.899604	6.975692	2.035118	-1.955126	8.098563	13.984589	2.236919	-0.398603	-0.674263	-0.317899
-0.842863	-1.096015	13.405765	-200.810729	-351.423206	-18.747299	1.305751	-0.212353	-0.58857	1.858244	0.831818	10.396925	-11.504756	-36.334009	-13.677781	0.198362	-0.439349	-0.900056	7.102663	1.97875	-1.473917	6.949109	15.242231	4.46623	-0.412094	-0.642083	-0.319643
-1.467727	-0.852241	16.577142	-206.940425	-356.879725	-31.332635	1.281268	-0.228219	-0.676155	1.706483	-0.63174	11.241659	-4.792653	-38.087036	-13.967253	0.211188	-0.469915	-0.898325	7.514676	1.977557	-1.526121	5.118899	15.567147	1.995651	-0.370579	-0.657663	-0.318596
-3.851469	0.992454	17.675159	-190.901117	-341.760166	-49.753275	1.279696	-0.138536	-0.724802	1.615247	1.169758	9.825978	-17.756987	-45.460343	-23.175756	0.198136	-0.48531	-0.897046	7.744968	2.091933	-1.82076	2.493935	13.730171	-1.714751	-0.454164	-0.675906	-0.302652
-5.925286	0.014545	16.948734	-183.609617	-333.973903	-49.433097	1.197217	-0.132418	-0.789671	3.249377	0.885942	10.879103	1.624905	-47.353484	-29.06684	0.185676	-0.498562	-0.924466	7.513035	2.209614	-1.585039	0.786338	11.976556	-1.333449	-0.412724	-0.671989	-0.364553
-5.978103	0.947203	20.134141	-190.48434	-326.285329	-54.44231	1.167046	-0.062814	-0.806052	3.352719	0.096577	10.257821	5.130748	-53.900619	-34.184585	0.17263	-0.453747	-0.912851	7.983098	2.149964	-1.696297	-2.42373	9.332282	1.838779	-0.398536	-0.656418	-0.349792
-6.845413	0.371479	19.660201	-175.510179	-330.419645	-47.435371	1.170061	-0.086485	-0.866184	2.422695	0.999305	9.8994	12.55483	-58.66022	-42.425565	0.212004	-0.421809	-0.930035	7.747439	1.976276	-1.70144	-5.919773	7.355308	2.502707	-0.398186	-0.641878	-0.319573
-6.823309	0.60607	20.798228	-173.793057	-330.873984	-39.257221	1.113165	-0.036617	-0.903187	2.297247	1.337125	9.44415	10.816809	-65.003674	-51.429319	0.159874	-0.468071	-0.925921	8.583164	2.150838	-1.14613	-10.278824	6.83413	1.115069	-0.426069	-0.660132	-0.287821
-6.975739	3.138206	21.885714	-169.734713	-326.487162	-36.344912	1.085295	-0.03234	-0.916564	3.682589	-0.63703	9.471504	7.064177	-71.807989	-59.576026	0.17248	-0.484388	-0.910844	8.932029	2.03264	-1.439557	-14.186505	7.329457	-3.763151	-0.412582	-0.673641	-0.333497
-6.979654	2.390501	21.655164	-183.708814	-307.205853	-24.48913	1.02797	0.083197	-1.009458	2.768257	-0.353369	9.792236	3.473887	-75.572573	-67.877203	0.185386	-0.439424	-0.899781	9.213499	2.203226	-2.152195	-18.434381	9.750791	-11.613497	-0.371205	-0.70624	-0.316084
-8.246188	5.472126	30.16808	-197.922836	-315.162463	-36.93888	0.930655	0.048035	-1.010842	3.3565	1.279755	10.542015	-3.666808	-87.316601	-59.060641	0.171965	-0.471212	-0.883148	9.314755	2.3154	-3.048104	-20.246487	10.379816	-16.866152	-0.412582	-0.673641	-0.333497
-34.677394	27.516457	49.126052	-150.022371	-481.689585	37.443001	0.900471	0.134938	-1.044714	0.70679	2.805684	10.544325	13.339727	-95.801477	-60.888264	0.158769	-0.457038	-0.869526	10.010439	2.485288	-3.693132	-24.38761	7.558153	-14.606882	-0.385117	-0.687773	-0.363575
-21.34293	16.390799	1.885131	169.399297	-90.40994	1.29385	0.887108	0.12507	-1.055025	2.333072	3.706956	14.03274	26.716863	-92.88696	-58.351762	0.159654	-0.453822	-0.912575	10.152448	3.348606	-5.483329	-19.231462	2.535831	-0.421267	-0.413003	-0.687355	-0.379243
-39.754943	6.412935	2.337396	-147.157554	-97.092575	29.909679	0.873016	0.090846	-1.019692	1.627542	3.200658	13.281492	35.124868	-104.886929	-36.64002	0.145642	-0.487754	-0.867243	10.052543	2.655673	-4.589894	-18.024772	-7.09957	3.012863	-0.42712	-0.703752	-0.378476
-25.912036	15.604691	5.259598	-158.321757	-123.682674	11.050053	0.875273	0.077417	-1.069165	4.13682	0.997934	12.030123	44.265825	-120.892628	-25.170228	0.10701	-0.486907	-0.880766	8.937798	1.730011	-4.37513	-23.90133	-13.34207	-19.428863	-0.412168	-0.622585	-0.382592
-30.193611	15.885315	2.904283	-174.374832	-106.71452	5.054552	0.817262	0.1167	-1.063939	2.134404	2.748569	12.725596	43.981681	-135.045069	-15.323171	0.093889	-0.457413	-0.868147	8.775886	1.850029	-3.53924	-27.942111	-17.829921	-24.55703	-0.440677	-0.689416	-0.348328
-37.7535	10.732187	5.349713	-178.020836	-170.336446	38.099413	0.831368	0.133625	-1.08178	3.011483	1.9588	13.309462	55.580277	-154.403553	-3.051839	0.11969	-0.487904	-0.866692	9.327575	2.95745	-2.266594	-26.43801	-21.610386	13.290701	-0.399304	-0.703343	-0.378336
-44.71899	13.601558	3.407748	-92.387603	-151.322159	45.367089	0.816462	0.178841	-1.105755	4.882219	0.886114	14.593317	59.317741	-170.843031	2.491055	0.093738	-0.488054	-0.86614	10.822632	2.551745	-1.222397	-25.429274	-23.184442	47.59446	-0.412791	-0.689834	-0.33266
-43.678098	15.73638	-7.644938	-81.181536	-55.67499	43.055796	0.7741	0.179965	-1.104707	5.025715	1.22502	15.95537	69.568636	-189.128417	16.40638	0.015587	-0.489576	-0.850136	11.479978	3.772329	-0.606031	-25.286294	-21.544997	48.8091	-0.398745	-0.672611	-0.348955
-40.583548	22.009304	-4.262141	-110.506884	19.819495	28.392166	0.817219	0.168598	-1.116415	5.095154	1.338047	16.52307	102.433049	-209.543084	23.999065	0.027307	-0.509109	-0.792009	12.138344	3.133738	-0.177297	-13.533731	-16.184655	25.41453	-0.399024	-0.687977	-0.363645
-35.828516	26.869678	4.943702	-45.807825	37.153454	16.866183	0.758837	0.204353	-1.097113	3.624424	2.299559	17.795155	109.110212	-234.873996	32.477724	-0.024822	-0.555371	-0.787895	11.365321	2.320698	-0.614413	-4.297248	-8.129995	-10.937605	-0.425864	-0.625268	-0.336078
-29.638866	31.844623	14.348425	117.94634	43.460218	-6.165627	0.842803	0.212348	-1.088548	4.357842	2.130934	19.791906	126.593011	-255.80218	36.168594	-0.050994	-0.541272	-0.773998	9.648331	1.858522	-1.007745	4.909158	0.92106	-43.037106	-0.440398	-0.674049	-0.333637
-11.379632	40.016083	-5.664088	281.724025	52.925882	-33.996238	0.829839	0.17141	-1.077952	4.252359	1.511846	20.185444	154.460591	-282.52887	44.619902	-0.052024	-0.514919	-0.718606	8.460284	1.394637	-1.510987	2.060448	11.686932	-43.903063	-0.440465	-0.691894	-0.301745
13.706062	7.057578	28.953677	158.416325	5.633106	-87.607248	0.816076	0.192612	-1.10917	3.743838	1.177549	23.288248	160.744372	-315.194857	44.886482	-0.104744	-0.563324	-0.685793	7.909567	3.657603	-2.290038	-8.312877	19.288843	4.288247	-0.412865	-0.670336	-0.395608
12.370401	3.525082	21.979497	169.732767	59.15292	-67.992016	0.789007	0.134749	-1.080733	3.038496	1.690016	28.029477	138.907871	-358.070875	37.753133	-0.118166	-0.595112	-0.66916	11.86076	6.785651	-1.963331	2.311669	6.660786	87.379813	-0.413555	-0.75543	-0.313784
-12.680631	9.334231	5.547365	180.529737	152.389537	88.816067	0.747774	0.129158	-1.104421	2.659158	0.961711	31.757403	141.269181	-405.133917	15.984744	-0.184377	-0.630415	-0.608375	15.296382	7.477945	-1.117749	-6.877821	-19.728769	125.102275	-0.397981	-0.607015	-0.367831
-9.426042	10.881101	5.219377	61.532657	162.072878	61.20625	0.83214	0.106083	-1.074949	3.391077	-0.561373	30.865605	196.298071	-452.095642	-10.055023	-0.237242	-0.649252	-0.563219	14.264323	6.789892	0.417056	-1.505701	-35.488177	53.834461	-0.426002	-0.642287	-0.319713
-8.612836	-0.352365	11.21187	-61.815479	75.570132	31.580514	0.860753	0.108862	-1.089723	5.195381	2.757446	29.434458	211.930464	-465.918151	-14.556982	-0.251399	-0.653614	-0.505545	12.73367	8.014482	0.753078	12.359081	-45.046198	-46.29712	-0.440051	-0.640838	-0.350839
-4.007669	0.121746	15.508895	19.60303	32.596225	-28.724981	0.861524	0.08132	-1.082891	6.777609	7.485386	28.509418	218.195861	-475.272743	-10.667967	-0.332137	-0.709673	-0.371732	11.798789	5.403963	0.904066	18.8085	-66.27575	-37.267222	-0.439075	-0.577721	-0.323132
-3.830721	2.555778	7.111695	183.712412	69.608722	-41.325834	0.874887	0.091188	-1.07258	13.895048	4.764776	24.750123	278.088953	-439.975899	-20.997561	-0.294685	-0.714807	-0.30081	8.562623	1.229916	0.825741	17.388623	-65.554195	-21.773807	-0.439839	-0.643317	-0.304256
-3.953039	2.299474	0.856889	37.447517	38.067316	19.09459	0.9043	0.031827	-1.04554	14.199411	-3.974098	16.65298	222.07912	-452.343586	31.119651	-0.322333	-0.706068	-0.215164	6.865849	3.722312	-1.291182	10.494005	-51.050165	4.403047	-0.468418	-0.709321	-0.28552
-4.723124	-0.011257	11.118476	-62.59219	-3.798236	-29.417404	0.917649	0.058994	-1.05272	10.743246	-2.165007	16.638603	28.181735	-376.318057	98.715879	-0.349246	-0.724754	-0.17056	10.156259	5.687111	-1.760313	30.476556	-41.217968	68.912576	-0.454164	-0.675906	-0.302652
-2.55583	0.78966	10.766195	37.00958	4.426704	-6.597667	0.889022	0.073514	-1.055438	-2.316006	1.695271	22.482064	62.451007	-164.788882	134.546871	-0.337966	-0.71579	-0.085741	13.210387	5.851104	-2.481138	32.216223	-40.5599	59.087424	-0.439697	-0.64497	-0.2732
-2.886932	1.182308	8.488193	18.642202	6.603833	-5.527992	0.859281	0.07745	-1.015927	-26.586351	-4.110088	30.572565	283.17625	35.270626	74.705317	-0.364063	-0.686371	-0.072847	12.432038	5.908463	-3.094266	36.049587	-32.937301	-17.352227	-0.439697	-0.64497	-0.2732
-2.453694	0.959248	10.143762	2.070169	7.474912	-5.098101	0.9024	0.066083	-1.027635	-49.473055	-17.025596	27.363019	212.86038	-78.10638	-5.18822	-0.365614	-0.707051	-9.5e-05	10.786688	4.751712	-2.890395	39.890203	-26.21151	-63.166664	-0.453325	-0.629807	-0.25858
-2.798209	0.786931	10.079504	1.594435	12.505837	-1.733427	0.904272	0.066425	-1.080523	-14.564153	-11.639684	13.551095	216.324628	-195.612328	-21.211622	-0.390976	-0.705057	-0.028243	9.66364	2.662057	-3.279645	39.247072	-17.727113	-40.964311	-0.426553	-0.710362	-0.254254
-2.699745	1.415328	9.288442	10.939387	12.869296	-2.858481	0.887879	0.097528	-1.048194	-21.594088	2.94733	-4.473761	107.22951	20.126024	108.175904	-0.392967	-0.69724	0.071202	10.614345	2.2546	-2.964234	32.313508	-8.44168	8.155136	-0.439764	-0.662814	-0.241307
-2.753369	1.014002	9.456199	1.154047	13.25652	-5.768216	0.916149	0.06218	-1.013908	-11.387183	-8.67364	-1.77862	29.915541	196.456007	195.165048	-0.417732	-0.632892	0.02469	11.803803	3.532292	-2.27781	27.200273	0.866929	34.998627	-0.45416	-0.694577	-0.255231
-2.459385	1.130367	9.860221	-3.443722	15.521463	-9.521165	0.903157	0.05584	-1.038295	-3.548906	-8.683198	4.217253	-54.432256	270.411384	222.202894	-0.418398	-0.650357	0.054393	11.80813	4.985923	-1.852281	21.209833	8.092196	17.5002	-0.411531	-0.630021	-0.242841
-2.407947	1.473768	9.578516	1.463468	17.443559	-11.68161	0.916135	0.07948	-1.0314	-6.369076	-12.506292	6.532446	-5.041327	287.781138	179.825018	-0.429157	-0.612288	-0.047787	10.687883	4.059025	-1.937052	23.93968	10.121124	-32.853333	-0.453254	-0.630634	-0.243052
-3.039517	0.841885	9.449907	-3.034694	18.841652	-12.136658	0.916906	0.051938	-1.024569	-4.32757	-9.802583	10.767156	-107.83606	259.963405	91.242095	-0.467934	-0.581872	-0.048967	9.096857	2.552447	-2.033099	18.249908	12.732685	-50.718499	-0.440114	-0.677354	-0.271526
-2.579006	0.497386	9.571074	-2.680637	20.609542	-10.69812	0.889051	0.038916	-1.020454	-6.130695	-8.051228	12.712327	-62.980159	243.88753	4.852776	-0.440211	-0.575291	-0.135617	8.558218	1.041213	-2.6485	14.481855	12.564723	-18.010769	-0.44004	-0.696852	-0.208578
-2.977353	0.210951	9.675779	-1.616815	21.897178	-7.275929	0.902028	0.062555	-1.013559	-7.970798	-4.275639	10.412444	-37.717383	255.566047	-70.442009	-0.43947	-0.542506	-0.166323	7.802013	1.045441	-2.063737	4.230339	12.078905	13.630136	-0.426411	-0.712014	-0.223198
-3.152539	0.325235	9.502362	4.567834	22.919276	-2.738129	0.918421	0.031452	-1.045889	-8.096613	-1.461471	7.468347	-29.724339	293.989341	-93.447635	-0.43866	-0.554611	-0.208369	6.21389	3.025896	-1.545881	-3.009005	11.819873	9.561787	-0.425856	-0.66261	-0.241237
-3.09978	0.38167	9.276304	5.93595	23.932813	0.586565	0.931055	0.016964	-0.989934	-7.126978	-0.5623	7.14982	-48.444034	339.333231	-76.489977	-0.373855	-0.569556	-0.208744	5.031386	3.492958	-1.625819	2.472497	8.485655	-9.268908	-0.453463	-0.646826	-0.242215
-2.697353	1.186044	9.401183	6.686386	25.08239	2.504483	0.918435	0.014153	-1.028397	-5.322308	0.280171	8.20752	-78.352991	376.450394	-41.250909	-0.397961	-0.547954	-0.295295	5.853595	2.850995	-1.912667	10.29893	8.089331	-9.662085	-0.426203	-0.695822	-0.224035
-3.039393	0.66956	9.449184	8.881342	26.445792	5.127039	0.916906	0.051938	-1.024569	-3.723061	-1.749026	10.1642	-104.933445	387.459577	-21.834575	-0.370753	-0.528196	-0.354249	6.210238	1.281885	-1.972646	8.713648	7.524659	0.034409	-0.467509	-0.664049	-0.22592
-3.03164	0.72869	9.847396	10.768627	27.279114	8.293821	0.946676	0.013404	-1.029095	-1.247658	-2.821651	12.819495	-101.027796	388.784391	-43.920521	-0.343695	-0.539079	-0.411196	6.207632	1.455619	-2.091718	1.052755	6.626963	4.345316	-0.48135	-0.646408	-0.257883
-2.975333	0.498642	9.790692	13.636837	28.429162	11.033544	0.959639	0.054342	-1.039692	0.029107	-0.00688	13.584777	-82.813864	378.915359	-57.351436	-0.304026	-0.506069	-0.442729	6.569877	2.212022	-1.542739	-2.962595	7.060676	2.432276	-0.411598	-0.647866	-0.210949
-2.862311	1.015291	9.738237	16.349952	29.77155	13.010158	0.915777	0.058652	-0.999832	-1.068094	-1.357001	13.277471	-83.553325	399.110821	-50.276842	-0.315306	-0.515034	-0.527549	6.810479	2.154395	-1.298957	-2.095953	6.371012	-1.571323	-0.481976	-0.694986	-0.255372
-3.552829	1.187389	9.55504	19.559301	32.50732	14.272	0.931813	0.006722	-1.000594	-2.268528	-1.974089	13.5914	-62.459184	398.495573	-22.769356	-0.23745	-0.514583	-0.529203	6.6454	2.215595	-0.643036	-2.361611	5.412664	-3.644019	-0.440181	-0.695199	-0.239633
-3.560291	0.726168	9.155138	21.290714	34.912095	14.306101	0.928783	0.047692	-0.957954	1.393917	0.388952	18.256152	-115.291495	396.963768	-45.299265	-0.222408	-0.507005	-0.629927	6.88241	1.808523	-0.640364	-1.07051	6.759827	-6.283427	-0.453951	-0.678385	-0.256068
-3.209343	1.244582	9.561962	18.541694	37.658639	12.181404	0.988295	0.005223	-1.001991	2.303129	-1.641288	17.537472	-105.536472	381.838402	-43.006955	-0.143296	-0.486947	-0.689984	6.234468	1.75218	-0.59281	0.132171	6.298041	-5.582666	-0.439626	-0.645796	-0.257672
-3.673112	1.473474	9.269754	19.169244	40.373131	11.549071	0.957782	0.036701	-0.969312	2.606006	-2.314887	20.883475	-117.926144	356.960033	-52.173297	-0.103778	-0.484578	-0.71951	7.057257	1.807624	-0.756877	1.988248	5.796331	-3.753289	-0.453881	-0.679211	-0.240541
-3.269814	1.071575	9.389566	21.938714	43.231985	9.900938	0.958911	0.029986	-0.994048	7.25791	0.211019	20.700333	-112.185907	323.225676	-43.565485	-0.051428	-0.452565	-0.73697	7.657343	2.273354	-0.144826	3.265572	5.586212	-6.660265	-0.454369	-0.71077	-0.254394
-3.669564	1.18699	9.439107	25.369019	48.140293	9.357521	0.916177	0.027582	-0.978925	8.806315	1.618613	23.281733	-158.544851	319.699301	-29.211394	0.001732	-0.432657	-0.796476	6.830131	1.752065	-0.282271	6.664209	3.315284	-7.731375	-0.440461	-0.710566	-0.254324
-4.011522	0.555623	9.486625	27.710623	55.254526	8.945092	0.989424	-0.001491	-1.026727	8.560666	1.05746	25.20096	-173.476411	308.164428	-21.076794	0.054451	-0.384252	-0.829289	7.177761	1.691696	-0.635357	7.675616	1.840224	-6.719482	-0.481696	-0.679619	-0.240681
-4.578457	0.499802	9.759514	37.373038	64.824729	11.710118	0.958925	0.012687	-0.976557	13.235708	2.232239	25.979553	-209.277892	302.710205	-23.903485	0.106656	-0.32267	-0.834407	6.589145	2.448776	-0.463426	8.482885	0.252372	2.178808	-0.45381	-0.680037	-0.225013
-4.071091	2.221228	9.435656	39.250739	71.979577	10.195724	0.987923	0.001695	-0.987915	19.910671	5.487049	26.292456	-252.541389	297.226617	-22.63651	0.184952	-0.350717	-0.862753	6.358022	2.218001	-0.22919	10.042891	-0.084	11.588648	-0.453672	-0.663019	-0.241378
-4.187579	1.876179	9.318275	37.519092	78.629747	11.044798	0.958582	-0.02544	-0.927497	24.468364	9.084352	27.183949	-276.962644	290.131459	-0.469443	0.211129	-0.304605	-0.866316	6.833608	2.624442	0.020972	11.524521	3.309338	18.20002	-0.44004	-0.696852	-0.208578
-3.605303	2.280026	9.842777	38.924504	87.258138	4.00505	1.000944	-0.026564	-0.928545	29.334322	13.130229	26.383887	-261.612788	281.874974	4.639795	0.250873	-0.256275	-0.898853	7.669623	3.147708	0.637672	14.032842	5.257399	22.95023	-0.48107	-0.631042	-0.243192
-3.411228	2.227285	10.982938	42.895335	101.30916	-6.051756	1.002072	-0.033278	-0.953281	34.361614	16.553289	22.303043	-193.224138	267.929126	-14.834804	0.289952	-0.225409	-0.901688	7.128864	3.495402	0.149997	14.961176	5.778958	17.197635	-0.440319	-0.712218	-0.223268
-4.62596	3.329478	13.294003	40.434967	103.326655	-11.563057	1.015436	-0.02341	-0.94297	39.072236	18.623723	16.742386	-129.847739	246.046716	-52.547848	0.328289	-0.227328	-0.873815	8.411678	3.547046	-0.664243	17.689702	3.669756	6.16359	-0.438858	-0.598871	-0.229128
-5.709382	3.388672	13.5005	47.437151	102.999251	-6.926759	1.029556	-0.023785	-0.943319	44.400575	11.735138	9.658217	-41.503398	225.864862	-115.155803	0.341415	-0.196612	-0.876098	9.700515	2.902767	-1.241822	24.15945	2.086057	1.807651	-0.453601	-0.663845	-0.22585
-5.266272	2.465898	12.709604	49.925607	106.782315	-3.560173	1.044063	-0.03793	-0.940253	52.560958	4.844082	5.860534	68.440937	215.63319	-239.146693	0.392654	-0.213776	-0.847498	10.260809	2.487962	-2.909941	33.614518	0.77636	1.565719	-0.41181	-0.645388	-0.257532
-4.911528	2.353179	13.284333	55.01026	119.934141	-1.704874	1.071961	-0.076806	-0.891891	56.829923	8.089684	-9.502614	106.383734	157.029479	-290.261367	0.419196	-0.211482	-0.876749	11.184139	2.016249	-4.09245	29.568676	-2.113867	4.5894	-0.481629	-0.661774	-0.272574
-4.33107	3.733291	13.756084	55.609779	133.474332	-3.479875	1.099059	-0.053542	-0.885346	43.95188	11.438228	-8.69446	-100.930191	15.285229	-180.292416	0.445223	-0.196012	-0.878304	12.197182	2.074254	-3.534333	25.380756	-5.803668	10.949086	-0.439134	-0.632908	-0.196398
-4.853207	3.961983	13.405909	59.632832	153.626862	-10.033632	1.070074	-0.059849	-0.856495	35.189697	32.429585	14.012155	-237.298404	-46.920121	-71.39243	0.47132	-0.225431	-0.891198	12.333497	1.78756	-2.574858	23.215695	-11.763327	12.727622	-0.467788	-0.679415	-0.240611
-4.921115	4.201965	15.792477	58.4578	178.165384	-21.010004	1.099102	-0.10544	-0.83287	23.446379	23.834722	15.682819	14.819766	-30.880912	-13.26329	0.419277	-0.135952	-0.867418	12.695182	2.311412	-2.086775	23.48855	-12.939916	2.370809	-0.453601	-0.663845	-0.22585
-6.276411	2.828223	16.669612	66.290295	206.000177	-29.41347	1.127714	-0.102661	-0.847645	23.543188	10.031775	13.577953	170.444422	-14.721573	3.238043	0.457979	-0.181688	-0.865234	12.937539	1.498796	-1.846207	30.779202	-13.504488	-5.599143	-0.453463	-0.646826	-0.242215
-7.55239	1.746472	18.686128	66.723649	231.471181	-30.349954	1.126185	-0.064876	-0.843816	1.054791	14.027585	25.167988	227.856758	-81.409841	145.006483	0.456943	-0.215545	-0.820177	11.704356	0.747632	-1.632903	33.503256	-13.893753	-14.347434	-0.467367	-0.665701	-0.194864
-7.914975	-0.255731	20.54604	68.884186	261.922026	-28.603103	1.126614	-0.130545	-0.787925	-11.062197	-16.773094	12.714289	622.980792	-48.921302	247.173982	0.406515	-0.210485	-0.890823	10.668267	2.266715	-0.028796	30.388445	-12.100413	-11.38042	-0.480929	-0.632694	-0.212137
-7.950178	-0.583168	24.578934	64.892061	297.556724	-18.472664	1.139577	-0.089606	-0.798522	-13.631715	8.649012	26.723062	316.364915	8.03833	338.520271	0.417344	-0.293444	-0.799982	10.674005	4.534152	0.579915	26.25554	-9.2751	6.805641	-0.453948	-0.697056	-0.208648
-7.498352	-0.962106	30.098676	66.430984	336.982627	-2.500558	1.194216	-0.126046	-0.712047	-7.564178	14.469025	-3.885867	311.084083	-110.413204	191.412964	0.391832	-0.322091	-0.826123	12.358779	7.487663	-0.453888	28.844718	-10.550897	36.453473	-0.454369	-0.71077	-0.254394
-6.316938	-2.551232	34.831882	91.143785	383.196337	21.915984	1.209094	-0.136663	-0.723056	11.193952	16.527417	7.096762	105.562521	-221.926542	64.698611	0.351127	-0.388957	-0.749533	12.510768	6.900565	-1.890824	33.278053	-10.900547	24.455518	-0.495187	-0.647438	-0.242425
-7.158	-4.914681	32.702835	113.049053	430.983143	62.642119	1.205736	-0.151118	-0.613865	13.826007	16.014821	6.35899	99.682609	-231.789501	-30.419505	0.312124	-0.404503	-0.747702	11.889017	4.861095	-3.887409	34.720496	-5.072238	-29.978239	-0.494978	-0.631246	-0.243262
-4.704418	-1.323785	26.628011	120.250513	457.925495	97.728578	1.248512	-0.200612	-0.576513	6.066386	-0.978531	10.596937	-181.261778	-173.551416	-116.743018	0.260295	-0.389483	-0.747603	9.70619	3.587924	-4.053379	26.629895	5.042039	-46.587764	-0.453948	-0.697056	-0.208648
-2.502348	3.481311	22.371985	103.652203	482.772998	104.678354	1.288258	-0.209134	-0.49652	1.977881	-4.73353	23.58563	-194.093675	-65.074052	-44.381729	0.286687	-0.41783	-0.774846	8.985776	4.109756	-4.663428	27.665338	30.403624	9.78992	-0.481763	-0.697464	-0.208788
-10.247161	7.033041	18.655994	141.570969	444.999258	104.56751	1.315028	-0.241296	-0.423423	0.56517	-4.736897	16.705642	78.989407	0.871343	20.182829	0.299964	-0.356473	-0.779137	10.942036	5.372207	-7.19657	13.452301	57.766243	66.055281	-0.453459	-0.665497	-0.194794
-8.222357	1.853126	16.627651	152.404474	355.460237	84.045593	1.313599	-0.324607	-0.297152	1.539964	7.417596	4.16849	288.367822	-4.554538	4.636408	0.286762	-0.402509	-0.77585	9.306765	5.089316	-6.330015	6.810957	65.768522	35.55758	-0.481417	-0.664253	-0.22599
-6.607723	-3.570783	11.180476	228.492775	289.34525	101.049742	1.298735	-0.331289	-0.268651	-0.344091	3.931377	7.239625	-158.924035	-31.671535	-18.559026	0.247991	-0.311884	-0.766695	8.625732	3.353848	-5.092593	9.815067	73.323899	-40.100521	-0.439693	-0.663641	-0.22578
-5.208059	-0.406461	12.641799	196.138706	204.570253	127.959862	1.312098	-0.321421	-0.25834	2.051047	-0.346014	16.627494	-57.083102	-17.876268	11.069813	0.247615	-0.388486	-0.761677	7.995666	3.185308	-4.087022	7.71417	71.854315	-55.544806	-0.467021	-0.63249	-0.212066
6.82332	-13.249801	6.911325	172.416112	173.257265	116.977239	1.297235	-0.328103	-0.229839	1.641167	1.281079	8.354652	59.253778	-7.934868	6.175543	0.247979	-0.432303	-0.787365	9.004112	1.905834	-3.95394	2.455527	60.733627	-14.652194	-0.453463	-0.646826	-0.242215
21.682286	-30.514068	2.183333	80.133074	36.924354	15.396002	1.31177	-0.376847	-0.191789	1.912206	1.451252	10.285376	-23.005939	-13.996733	-0.270718	0.260591	-0.388411	-0.761952	11.968686	2.134601	-3.119139	-8.870446	40.37318	18.310977	-0.481905	-0.695812	-0.239844
3.79687	0.312459	7.818909	-98.71261	-54.757885	128.334137	1.284272	-0.369041	-0.219243	1.443221	1.451782	9.879228	1.361284	-17.218551	-4.259952	0.24806	-0.356773	-0.778034	13.759538	2.367552	-1.946906	-23.564971	15.955826	10.747423	-0.46758	-0.663223	-0.241448
20.187247	-4.714319	17.493551	-59.081225	-83.283077	54.684735	1.27018	-0.403265	-0.18391	1.441712	2.240409	9.879892	3.611264	-14.908956	-1.368182	0.220852	-0.376531	-0.71908	11.162038	3.186805	-1.931957	-28.512987	-4.90399	-23.63882	-0.439764	-0.662814	-0.241307
4.749532	-9.996477	15.12511	-5.100857	-111.771807	53.729526	1.31217	-0.407917	-0.170882	1.824551	2.013526	8.925291	-4.888549	-15.380743	-1.996271	0.273642	-0.373015	-0.763232	9.284796	3.077446	-1.368597	-28.179759	-13.235552	-51.923497	-0.467718	-0.680241	-0.225083
7.590953	-8.534343	8.310062	34.018492	-89.120257	21.913461	1.312513	-0.36979	-0.219941	1.038623	1.677811	9.814315	-15.375178	-16.354948	0.020256	0.248575	-0.36995	-0.805729	9.106471	2.205969	-1.555327	-23.730405	-14.349255	-37.330455	-0.453605	-0.645174	-0.27327
7.627274	-9.757828	4.270652	-8.758433	-111.501997	12.258932	1.244568	-0.412417	-0.24676	0.753645	1.453123	9.92136	-12.561514	-18.30137	3.024329	0.24828	-0.371021	-0.79138	8.570904	1.741339	-1.866744	-19.69743	-13.813533	-16.752693	-0.453672	-0.663019	-0.241378
7.843986	-8.771554	6.609071	-69.425892	-151.575309	-1.465515	1.285415	-0.393055	-0.226487	0.933032	1.115053	10.2079	-21.75846	-22.409365	3.746794	0.247244	-0.404878	-0.746323	7.907285	1.797687	-2.657391	-22.354748	-10.359027	-11.595015	-0.46758	-0.663223	-0.241448
8.016722	-7.667462	9.629097	-80.464415	-192.234044	-6.234373	1.27168	-0.406451	-0.222722	0.638167	1.002647	9.861923	-30.950447	-26.203516	3.362565	0.221223	-0.360139	-0.734433	7.187432	2.55207	-3.206544	-18.39526	-7.203125	-13.73304	-0.467651	-0.662396	-0.256976
7.095291	-7.955212	9.325809	-71.928283	-228.013944	-7.882723	1.258645	-0.360893	-0.299584	1.690922	0.550679	10.619619	-23.522866	-27.695819	2.120574	0.235084	-0.356848	-0.777758	7.190464	2.668964	-3.026329	-15.60684	-5.576924	-19.190374	-0.453743	-0.662192	-0.256906
5.564653	-8.365393	7.134752	-88.396049	-266.820781	-8.342765	1.302479	-0.330604	-0.374427	1.271279	1.057792	9.875269	-14.405056	-27.476888	0.403708	0.235455	-0.340456	-0.793111	6.613467	1.74357	-2.44222	-16.360366	-5.557119	-27.285396	-0.426273	-0.694995	-0.239563
5.283576	-7.847006	7.415622	-131.093293	-296.674025	-9.072629	1.290259	-0.364486	-0.391983	1.164718	1.002009	10.269281	-11.839131	-27.751323	-4.25198	0.233828	-0.376456	-0.719355	5.905293	2.210046	-2.393541	-15.791028	-5.396179	-24.904819	-0.467438	-0.664875	-0.210392
4.690599	-6.402309	9.342411	-162.523299	-314.96325	-15.658532	1.290602	-0.326359	-0.441042	1.571734	0.776074	10.447472	-7.516423	-28.483666	-10.513794	0.24806	-0.356773	-0.778034	6.400377	1.807378	-1.18833	-14.89591	-5.232943	-13.755114	-0.481212	-0.629389	-0.274248
3.169304	-4.959603	10.626001	-180.191266	-330.307786	-21.285634	1.249326	-0.280052	-0.517206	1.685763	0.719481	10.393203	-8.507702	-29.168814	-15.546251	0.195416	-0.389858	-0.746224	6.052862	1.344816	-0.897376	-13.9812	-5.172406	-4.498841	-0.454227	-0.712422	-0.223339
2.293686	-3.916066	12.716093	-190.320227	-342.520065	-25.99424	1.234463	-0.286734	-0.488705	1.504174	0.944794	9.993289	-3.832452	-28.656077	-19.236635	0.208687	-0.388711	-0.760849	5.950121	1.871479	0.001252	-14.654263	-1.393602	-3.383646	-0.453881	-0.679211	-0.240541
1.2803	-3.049837	13.609319	-189.084548	-353.398846	-29.701782	1.208822	-0.261287	-0.586538	1.684231	0.888425	10.336706	-3.720426	-29.831728	-22.145953	0.209277	-0.386567	-0.789549	6.129235	1.929644	0.124614	-14.290248	2.096485	-9.483319	-0.481905	-0.695812	-0.239844
-0.354675	-2.755878	14.885856	-185.990994	-352.86725	-31.879874	1.195059	-0.240084	-0.617756	1.396296	0.945294	10.330709	-0.265828	-33.070674	-26.645229	0.247169	-0.420198	-0.74532	5.370113	1.294047	0.46703	-11.077533	6.567234	-14.772593	-0.440044	-0.678181	-0.255998
-2.399547	-2.176352	15.700979	-186.256228	-345.466383	-33.200649	1.124799	-0.200085	-0.66507	1.740911	0.719278	10.281133	-0.125229	-36.910367	-30.135836	0.234859	-0.402809	-0.774747	5.59807	1.466004	0.052825	-9.340628	10.873117	-13.485374	-0.454231	-0.693751	-0.270759
-2.246754	-2.123136	14.738059	-192.08125	-326.179814	-31.889244	1.194973	-0.136288	-0.722707	1.917126	0.775428	10.454726	4.896667	-40.831096	-35.226247	0.196156	-0.357073	-0.776931	5.3477	1.46333	-0.730366	-8.132278	14.195353	-5.98772	-0.453672	-0.663019	-0.241378
-3.847228	-0.890048	20.736149	-230.55113	-334.781157	-46.304892	1.126257	-0.151373	-0.756357	3.002107	1.561723	10.138521	12.154696	-46.110841	-39.218592	0.182521	-0.314402	-0.736617	5.521062	2.101267	-0.844159	-8.014946	16.325394	1.061576	-0.482322	-0.728197	-0.23817
-5.289066	-0.259326	20.199288	-177.144672	-330.894344	-33.419736	1.098344	-0.095197	-0.82221	2.604153	0.210639	10.2422	16.421913	-53.191138	-41.042596	0.196012	-0.327504	-0.764588	6.404103	2.098747	-0.947466	-8.275288	18.092777	1.634786	-0.46758	-0.663223	-0.241448
-5.348097	0.659539	20.145183	-197.052038	-329.624296	-34.139396	1.055954	-0.059475	-0.856146	2.535516	0.942664	9.788491	10.887873	-56.48067	-45.95016	0.195786	-0.373465	-0.761577	6.978028	1.977536	-1.83556	-10.007836	19.464181	-1.421774	-0.481629	-0.661774	-0.272574
-6.775144	1.765516	23.30459	-213.453408	-320.526366	-37.073329	1.027298	-0.010356	-0.893847	2.244062	0.943061	9.612528	23.761937	-62.437328	-52.872991	0.195566	-0.359217	-0.748231	7.092624	2.034601	-2.012832	-12.050982	20.373066	-4.230432	-0.509792	-0.695394	-0.255512
-8.432157	2.641651	26.401725	-218.070765	-305.699032	-41.113838	0.998643	0.038763	-0.931548	1.84005	2.126804	9.661701	9.238348	-68.092881	-55.869235	0.143587	-0.374837	-0.746125	7.617997	2.148301	-2.301968	-15.587788	20.681791	-8.681046	-0.454231	-0.693751	-0.270759
-10.20735	3.976678	29.328004	-206.749686	-297.235193	-47.420264	0.986394	0.03948	-0.984087	0.927789	1.959869	10.038693	-2.474448	-77.957448	-52.431847	0.208982	-0.387639	-0.775199	8.429202	1.503866	-3.187885	-18.912738	21.123124	-14.049687	-0.468489	-0.708495	-0.301048
-12.752746	4.157623	30.870508	-194.049885	-291.299823	-50.029299	0.95701	0.064243	-0.976144	2.490971	2.351652	10.524782	-12.425489	-87.793802	-49.979133	0.18259	-0.359292	-0.747955	8.531828	1.500135	-4.024381	-22.236946	19.66895	-16.567119	-0.45444	-0.709944	-0.269922
-13.814369	-1.658524	40.713835	-166.220401	-274.30062	-53.391879	0.915763	0.075951	-1.017324	0.830514	3.369153	11.000334	6.757324	-90.188663	-49.956674	0.18244	-0.389933	-0.745948	8.63544	2.019582	-4.738838	-21.221121	17.877959	-8.677826	-0.439555	-0.646622	-0.242145
-18.614715	13.426724	21.248045	-162.874048	-234.025345	-62.871326	0.84396	0.171035	-1.078301	1.260221	4.552478	12.369143	6.611682	-104.390443	-27.163581	0.157009	-0.34305	-0.762757	8.564879	2.249549	-5.338018	-15.893257	12.850304	3.093314	-0.453881	-0.679211	-0.240541
-30.486907	13.188608	17.037985	-143.125348	-124.85475	-60.939747	0.844703	0.178092	-1.106453	3.683919	2.069456	12.47447	30.681909	-110.899162	-26.68484	0.156413	-0.405403	-0.744393	8.581926	2.020954	-4.440404	-18.341029	7.054858	3.618856	-0.468281	-0.692303	-0.301885
-32.736365	15.492327	4.55808	-178.37165	-98.335126	-87.284384	0.787835	0.193361	-1.108472	3.866263	1.449829	12.874052	36.847471	-129.047705	-3.061624	0.130385	-0.420874	-0.742838	8.357541	1.733586	-3.846973	-17.354606	0.441918	7.497938	-0.482535	-0.725718	-0.284753
-36.505235	16.543768	7.955858	-181.648465	-139.605129	-58.675655	0.785906	0.262216	-1.125551	4.26581	1.336271	12.712501	36.844014	-149.970301	10.079158	0.130831	-0.389161	-0.759195	7.493538	3.018723	-2.540088	-20.326626	-6.562199	15.336379	-0.453817	-0.642695	-0.319854
-43.426511	17.14481	-0.587137	-85.279429	-155.836541	-33.509792	0.729038	0.277486	-1.12757	4.488069	1.337892	15.038351	25.39187	-174.25404	31.131789	0.117635	-0.374987	-0.745573	9.812795	3.482268	-1.476776	-13.225176	-16.553191	31.590281	-0.481562	-0.643929	-0.304466
-50.57729	15.33299	-9.258427	-85.987088	-75.841585	0.333768	0.742801	0.256284	-1.096352	3.237907	1.67891	15.804994	51.34224	-196.727046	44.587321	0.077005	-0.426533	-0.669986	10.659504	3.194448	-0.384282	-14.161056	-25.72151	48.39126	-0.453951	-0.678385	-0.256068
-49.455875	15.729186	-10.428383	-106.266126	1.681725	43.998446	0.714517	0.308931	-1.148128	3.669986	1.622963	17.17276	79.4257	-214.615207	50.752616	0.051644	-0.42454	-0.698134	11.627027	3.604259	0.953007	-19.063017	-28.819461	41.666985	-0.481492	-0.644756	-0.288939
-40.23	22.011227	-3.743783	-106.608513	7.014421	80.383358	0.743144	0.294411	-1.145411	3.342641	2.300335	18.072309	109.502807	-233.36586	56.232753	0.012271	-0.456477	-0.68095	11.267002	3.313205	0.585727	-15.793513	-22.052979	15.393903	-0.481354	-0.627737	-0.305304
-33.358289	27.731449	5.450027	-35.618286	7.75574	81.969118	0.738614	0.338568	-1.063958	3.886678	2.638392	19.329545	123.852501	-262.346985	64.342774	0.025252	-0.396193	-0.670891	10.604809	1.33615	-0.393294	-7.921093	-4.327262	-24.999531	-0.509237	-0.64599	-0.273551
-25.055358	30.832774	20.400508	78.986464	54.089426	54.005203	0.725994	0.335756	-1.102421	3.734055	1.625477	20.174658	123.872924	-289.294923	71.074162	-0.040149	-0.443601	-0.652151	9.570276	0.57604	-2.212422	-12.582313	10.321759	-47.082024	-0.481976	-0.694986	-0.255372
-8.267664	41.686191	36.40116	385.284998	129.183314	43.827069	0.698882	0.329791	-1.126459	5.028359	0.3285	21.389595	137.879838	-317.367154	64.856138	-0.067577	-0.44911	-0.579851	8.654762	0.338839	-3.907311	-24.744489	23.681955	-29.808454	-0.46821	-0.693129	-0.286357
19.313683	29.365609	61.94793	174.15829	63.267127	-101.076004	0.714174	0.270804	-1.099069	4.399933	-1.301468	24.149054	101.654998	-354.500059	39.454253	-0.093748	-0.435012	-0.565954	9.328578	3.757771	-5.317284	-26.372648	29.232756	30.47167	-0.509307	-0.645164	-0.289079
4.878614	9.577113	25.439599	329.553309	190.684268	58.416077	0.730167	0.270771	-1.152306	2.49893	-0.110203	29.545139	77.130583	-413.606437	11.656334	-0.146468	-0.483417	-0.53314	13.224988	9.327371	-4.442131	-11.165708	6.580491	126.062904	-0.509445	-0.662183	-0.272714
-16.855745	17.76622	-11.490599	204.984602	271.117057	52.786541	0.814933	0.216626	-1.101926	1.397775	0.459634	34.617791	97.91707	-476.270696	-12.408548	-0.211863	-0.470616	-0.504066	16.876018	9.621135	-1.558144	-5.604012	-32.373985	150.675622	-0.453534	-0.646	-0.257743
-22.440395	0.053442	9.467028	-18.681948	138.212611	117.04961	0.845075	0.18162	-1.120529	2.973716	1.133591	35.727153	154.204838	-498.660408	-48.189503	-0.225731	-0.534116	-0.471076	18.741023	9.973564	0.45438	-2.682625	-78.027596	74.865948	-0.481003	-0.613197	-0.275085
-8.116839	1.965996	16.175536	3.600996	48.035799	6.965169	0.856937	0.194675	-1.071406	7.821546	3.427648	28.527764	221.032845	-517.490075	-43.82186	-0.226981	-0.493514	-0.402338	19.084712	8.008193	2.847752	10.008127	-113.940623	-10.178688	-0.467166	-0.612167	-0.290543
-5.321164	-0.808228	12.694736	168.370485	46.455002	-97.773173	0.870701	0.173472	-1.040187	14.960695	8.705058	23.813538	220.391596	-477.923426	-43.091065	-0.26702	-0.542916	-0.355451	12.319297	4.48405	3.425003	10.827724	-98.970731	-56.451876	-0.523424	-0.66156	-0.288312
-1.605867	5.74475	1.030727	143.933271	85.97709	0.063025	0.901585	0.145523	-1.086942	10.214451	1.389364	21.839136	215.910924	-484.260777	-27.867854	-0.30765	-0.594462	-0.279864	5.208822	3.041183	1.54947	7.578494	-84.575168	-101.652168	-0.494911	-0.613401	-0.275155
-5.293238	0.067245	2.469494	-2.589791	-1.389416	-22.158844	0.885593	0.145556	-1.033705	10.908562	2.176888	22.080865	171.148832	-472.10968	-21.772241	-0.296515	-0.555929	-0.182703	6.472062	5.166865	-3.268531	4.694066	-40.91502	-10.752571	-0.467229	-0.648683	-0.211229
-3.258773	0.569359	12.854319	-68.695377	-7.599054	-8.482371	0.857738	0.132534	-1.029591	6.980944	4.498157	26.982471	94.006016	-330.774972	51.954249	-0.363021	-0.592305	-0.107568	13.893615	4.275002	-4.032187	24.449865	-25.317676	99.594852	-0.480511	-0.600309	-0.213811
-2.301647	2.046412	9.185185	69.877839	6.487226	4.013703	0.871072	0.177001	-1.054263	-22.472146	1.620001	21.662374	309.007906	-82.338308	135.102373	-0.35056	-0.579053	-0.080148	14.923129	6.531356	-5.50041	14.936375	-26.203756	75.502567	-0.508882	-0.650121	-0.195912
-2.93664	1.528688	8.886499	14.667535	4.524083	0.061972	0.88595	0.166383	-1.065273	-18.989864	-19.283179	23.86841	74.287708	8.860535	8.358507	-0.364422	-0.582344	-0.036823	12.555361	7.232433	-5.840995	30.170931	-26.52294	-24.542628	-0.508607	-0.616084	-0.228642
-3.077801	0.788586	10.415055	-19.241338	8.666425	5.777695	0.886707	0.156141	-1.075933	-26.107535	-9.976145	22.821306	259.872416	-64.956964	73.967355	-0.377328	-0.627308	-0.047886	11.6894	4.624004	-5.149744	35.075031	-22.787832	-91.296583	-0.495325	-0.664457	-0.22606
-2.792766	0.960462	10.364493	18.629901	13.201093	11.660989	0.872615	0.121916	-1.0406	-14.495769	-17.000632	2.79111	151.047119	-103.771383	-57.126875	-0.363461	-0.563807	-0.080876	12.324038	2.540818	-2.990992	27.602976	-20.386027	-62.905605	-0.508674	-0.633929	-0.196749
-2.129801	1.931404	9.188043	18.554531	15.088281	5.12927	0.872587	0.156515	-1.075584	-22.655234	5.258015	-5.45645	-43.165172	87.942306	-64.716925	-0.378654	-0.602027	0.021855	12.641513	1.906004	-1.849978	24.13065	-13.448282	13.313107	-0.522231	-0.619593	-0.166601
-2.590105	1.988695	9.06567	7.925386	14.393516	-0.279569	0.901971	0.131752	-1.083526	-8.817464	-0.278328	6.152125	13.394077	288.574099	9.027878	-0.365238	-0.630449	-0.005113	10.414136	4.355025	-0.74318	12.850847	-5.566497	31.045952	-0.495116	-0.648265	-0.226898
-2.414628	1.472321	9.237398	0.051924	13.592182	-6.00494	0.858081	0.170661	-1.07865	-3.697796	-4.454468	8.407305	-21.422196	245.540789	123.513571	-0.363831	-0.5802	-0.065523	9.880405	4.994829	-0.810272	18.626904	3.639925	-8.387462	-0.508465	-0.617736	-0.197586
-2.691661	1.014926	9.684725	-3.356821	14.847918	-9.716381	0.886722	0.138841	-1.058441	-9.38412	-9.403126	5.735876	-14.928498	245.548952	144.333412	-0.390154	-0.596742	-0.049618	10.234826	2.960369	-1.05195	22.455346	12.259572	-47.890239	-0.522511	-0.634959	-0.181292
-2.739883	0.844572	10.137712	-2.005182	18.887807	-7.661088	0.886364	0.118014	-1.026873	-7.302652	-10.136634	8.83611	-75.83213	261.198656	86.03844	-0.388533	-0.620952	-0.133709	9.406764	1.857826	-1.311681	18.858792	14.526391	-43.51914	-0.480649	-0.617328	-0.197446
-2.970672	0.212399	10.016897	2.66872	22.688349	-2.123048	0.915363	0.107022	-1.038232	-7.931523	-9.006217	11.824451	-54.127512	269.581061	6.780517	-0.388307	-0.57499	-0.13672	8.164893	0.581753	-1.639764	7.594318	13.534424	-4.696811	-0.494486	-0.618359	-0.181988
-2.974261	0.556324	9.847786	8.533577	24.033817	6.284846	0.88745	0.163197	-1.104085	-9.23562	-5.118225	10.385137	-43.412693	294.68472	-57.60406	-0.361099	-0.555232	-0.195674	6.627887	1.223853	-1.725563	-4.426067	11.725978	21.121553	-0.508603	-0.634755	-0.181221
-3.094586	0.89985	9.562741	18.051571	23.525672	11.61579	0.914977	0.120793	-1.041648	-7.592271	-2.249301	9.45974	-55.170725	333.016427	-73.445146	-0.359548	-0.534553	-0.268426	5.092023	2.795911	-1.627685	-9.130853	8.852864	16.322651	-0.522723	-0.632481	-0.227875
-3.319849	0.326324	9.726434	19.144723	24.284787	15.580821	0.91572	0.127849	-1.0698	-5.940468	-2.53479	8.644968	-65.016647	359.500725	-57.561405	-0.280442	-0.574704	-0.338818	5.026174	3.840425	-1.863963	-4.450283	10.582043	1.565084	-0.495187	-0.647438	-0.242425
-3.080235	1.075311	10.302556	24.385624	28.474646	16.829762	0.900085	0.148709	-1.04813	-3.636689	-3.77842	8.635641	-91.737722	377.053575	-56.575727	-0.306915	-0.621887	-0.320906	4.620434	2.564687	-1.637477	0.583297	11.944742	-10.164827	-0.522581	-0.634133	-0.196819
-3.490996	1.015988	9.782842	27.787034	33.033623	17.292708	0.92834	0.130661	-1.031337	-2.002428	-3.498885	9.74588	-116.581626	385.234813	-74.053073	-0.252794	-0.583443	-0.424465	5.207814	1.865435	-1.869067	0.048086	13.768166	-9.193653	-0.536281	-0.618145	-0.197727
-3.441702	1.244024	9.386949	30.106683	37.676773	15.306944	0.928712	0.134189	-1.045413	-0.577846	0.556318	12.157172	-143.273347	380.88175	-77.570136	-0.21298	-0.580002	-0.468341	4.492592	1.574945	-2.302857	-4.229833	14.517467	-3.252833	-0.536698	-0.65053	-0.196053
-3.670305	0.669775	9.380082	31.743421	40.088716	14.6668	0.927969	0.127133	-1.017261	1.511756	0.38411	12.993505	-150.809474	364.466538	-23.703594	-0.173832	-0.594026	-0.482514	4.564678	1.635853	-1.582627	-4.527041	15.802722	2.518477	-0.536911	-0.648051	-0.242636
-3.67406	1.243466	9.211936	37.935933	41.392365	13.351551	0.887479	0.128598	-1.069101	1.885298	0.835246	14.360488	-147.597676	357.524782	-17.974745	-0.133278	-0.557801	-0.557097	5.39268	1.343829	-1.50855	-5.898901	13.994795	2.348692	-0.522652	-0.633307	-0.212347
-3.453002	1.471378	8.819383	39.223502	42.053716	12.469293	0.915391	0.072423	-1.003248	1.034037	1.400689	14.965864	-130.226428	351.316369	-8.096252	-0.079308	-0.549997	-0.658648	5.273432	1.866784	-1.508526	-8.065313	11.390927	-0.992971	-0.495045	-0.649091	-0.21137
-3.452096	1.758827	8.877443	31.228694	44.168141	9.73608	0.958125	0.074828	-1.018372	1.338657	0.837462	15.707749	-121.458442	352.819529	-10.447942	-0.04119	-0.537667	-0.61743	5.983132	1.691182	-1.436155	-9.3154	8.530784	0.06434	-0.522373	-0.617941	-0.197657
-3.618867	1.013176	9.098378	25.717367	45.037278	9.428746	0.928369	0.096062	-0.996353	1.838102	1.345139	17.586954	-115.670282	351.203629	-9.47291	-0.014058	-0.53323	-0.675381	6.463369	1.517605	-1.008745	-7.516115	7.802099	3.117627	-0.536352	-0.617318	-0.213255
-3.961736	1.645523	9.151205	26.59534	48.238193	9.355582	0.942875	0.081917	-0.993287	2.433398	0.556145	18.447973	-117.944767	343.113796	-2.649939	0.024575	-0.534076	-0.661858	6.644975	1.924968	-0.704179	-3.840504	6.060689	1.217694	-0.522373	-0.617941	-0.197657
-3.88753	1.304451	10.003667	26.942781	55.318656	8.396351	0.914248	0.096437	-0.996004	3.621103	1.118765	20.228453	-137.914569	331.19099	3.812425	0.090636	-0.529414	-0.720636	6.713085	2.275514	-0.162433	-0.155976	2.62244	-2.232832	-0.494907	-0.632072	-0.227735
-4.632045	1.592198	9.990398	28.535047	66.824232	5.205461	0.972259	0.057154	-1.001229	5.232855	1.399784	22.980032	-150.207282	318.381797	15.513136	0.103467	-0.49977	-0.708569	6.65928	1.928182	0.074611	2.34594	-0.267866	-2.869907	-0.495049	-0.63042	-0.25879
-4.179908	2.050192	9.716971	32.738991	78.133122	4.119849	0.971131	0.063868	-0.976493	8.142471	2.071642	24.570316	-151.768842	305.932084	25.623196	0.169898	-0.478715	-0.7827	6.54675	1.929688	0.371945	4.769258	-1.287565	1.924537	-0.564171	-0.599055	-0.260816
-4.162922	3.202883	10.631446	39.336498	91.382021	0.88149	0.957367	0.08507	-1.007712	11.625216	2.798657	26.059457	-157.506462	301.858154	24.375641	0.157292	-0.462397	-0.797777	6.7271	1.930025	0.554967	9.036205	-1.043081	9.33503	-0.522652	-0.633307	-0.212347
-4.552769	1.94163	11.130021	38.811745	103.353189	-3.737271	1.013907	0.014375	-0.939141	18.426166	5.433995	26.827373	-167.521727	308.104534	13.855375	0.210012	-0.413992	-0.830591	7.314635	1.637553	0.385014	16.011699	0.710979	13.672288	-0.509024	-0.648469	-0.226968
-3.383936	4.53122	12.470771	47.724869	99.393996	-5.882118	1.00203	0.01862	-1.005756	24.642246	8.464393	27.187054	-194.493469	318.102126	5.239602	0.262501	-0.471758	-0.870728	7.606705	1.984839	0.272186	20.734075	3.082316	16.700525	-0.536285	-0.599473	-0.245147
-3.111564	5.274857	11.797238	50.727649	83.747668	-4.029001	1.014264	0.035202	-0.970709	50.463927	25.371771	28.083967	-299.769886	408.817778	-39.873304	0.275778	-0.410401	-0.875019	7.490604	2.101756	0.390293	24.59029	4.834991	20.101738	-0.522652	-0.633307	-0.212347
-4.32368	4.928907	11.260729	56.209597	94.39229	-13.808659	1.042491	0.051752	-0.988899	29.921605	11.76811	16.034627	-26.51251	356.54061	-44.921705	0.341103	-0.378313	-0.892754	7.194463	3.031895	0.448654	23.253111	0.159848	19.181299	-0.536493	-0.615666	-0.24431
-3.190809	4.248471	13.553113	56.970205	108.907922	-22.83755	1.027627	0.04507	-0.960398	41.905594	9.720414	19.285063	-111.055856	279.645688	-84.285816	0.353634	-0.409951	-0.876673	8.476197	3.548147	-0.363608	28.975526	-1.036482	18.524366	-0.536143	-0.601126	-0.214092
-3.996001	4.650419	13.368654	71.502684	126.005336	-31.833918	1.057797	-0.024534	-0.944018	54.840124	5.575935	10.268338	-22.518707	269.806638	-178.128685	0.406203	-0.392187	-0.907479	9.461128	2.43771	-1.487829	32.89664	-2.062877	9.681396	-0.536422	-0.616492	-0.228782
-5.583904	3.620768	14.072223	75.023128	142.186895	-35.108399	1.057054	-0.03159	-0.915866	65.160801	2.444681	-5.199791	43.266717	214.707605	-244.784152	0.483688	-0.408129	-0.89378	10.504036	2.721457	-2.485202	31.238731	-2.365515	5.837683	-0.563959	-0.601534	-0.214232
-5.633115	3.277849	14.467634	79.919657	157.911417	-38.240951	1.125385	-0.002735	-0.885631	61.549827	8.078462	-12.120975	-82.185942	89.593453	-206.040427	0.522101	-0.394727	-0.866912	11.723028	2.946475	-3.539428	24.773585	-2.153718	18.63662	-0.536285	-0.599473	-0.245147
-5.675894	3.281026	15.20561	82.888486	173.431603	-40.481729	1.083395	0.001917	-0.89866	48.307176	20.39832	4.765859	-160.436182	-27.808621	-162.524621	0.561845	-0.346397	-0.899449	12.360931	3.058669	-4.125898	19.82655	-4.188606	30.341558	-0.522231	-0.619593	-0.166601
-6.335152	3.344997	16.613817	88.784074	197.365649	-44.189215	1.096015	0.004728	-0.860197	34.27082	35.4266	25.148492	-33.493838	-113.713609	-120.067378	0.536263	-0.330155	-0.914251	12.88916	2.417629	-4.358341	13.679123	-6.71086	20.716023	-0.549842	-0.585138	-0.214999
-7.442293	1.687982	18.460701	94.559253	224.766427	-45.140463	1.112422	-0.043674	-0.875035	18.950489	38.675503	35.529674	434.439327	-188.574636	-34.622097	0.523363	-0.314909	-0.914979	13.682355	2.13118	-2.967413	7.07463	-8.782457	5.803	-0.522581	-0.634133	-0.196819
-8.518382	0.210048	21.900196	99.015387	257.42638	-39.529692	1.125799	-0.051105	-0.847232	-7.692783	14.025132	3.527496	324.450037	-121.765916	245.746238	0.57364	-0.350609	-0.842326	13.335347	3.818667	-2.367777	6.456073	-10.302384	7.646366	-0.536422	-0.616492	-0.228782
-8.961869	-0.520879	25.525635	101.343818	293.24964	-27.143925	1.123913	-0.034148	-0.811836	-18.580314	-3.627347	20.2109	255.767437	-125.190088	185.115243	0.482357	-0.443057	-0.834374	12.140495	8.176081	-2.610871	10.953586	-8.302	37.608135	-0.56347	-0.569975	-0.200378
-8.229008	-1.360763	30.764748	108.944323	336.405457	-10.023642	1.179309	-0.08083	-0.736021	3.80837	14.794161	5.977678	281.556457	-160.092329	128.633593	0.481246	-0.492234	-0.788314	13.467	10.08355	-4.015167	18.23212	3.232519	60.518998	-0.549633	-0.568945	-0.215836
-8.493347	-3.066872	34.730544	128.652764	377.649971	28.371635	1.192673	-0.070962	-0.72571	13.171291	11.844026	2.265341	91.725304	-181.980392	27.285519	0.442243	-0.50778	-0.786483	13.788212	6.705183	-6.239459	19.438304	18.828208	5.137424	-0.564167	-0.617727	-0.213395
-7.912489	-6.237711	32.114278	139.880463	420.498367	72.786445	1.218313	-0.096409	-0.627877	6.566512	10.451016	5.409018	-3.31892	-181.330384	-31.696737	0.416511	-0.522178	-0.799278	11.607173	2.29467	-6.718313	13.380826	20.286286	-61.062536	-0.535863	-0.58576	-0.199401
-6.877186	-1.621281	23.799804	129.722397	448.195999	115.441624	1.260332	-0.13566	-0.579865	4.223852	1.393326	13.447654	-153.276558	-170.57769	-94.65356	0.391369	-0.534433	-0.840772	7.017196	1.04324	-3.036553	5.728997	23.504331	-55.398688	-0.535863	-0.58576	-0.199401
-7.456563	2.583988	26.534119	119.765039	481.271623	146.253908	1.26036	-0.170258	-0.544882	6.329978	-7.561722	19.654933	-160.923081	-66.847684	-13.577207	0.378179	-0.46005	-0.816815	7.09419	3.255186	-1.768013	2.306592	30.787651	34.945982	-0.55033	-0.616696	-0.228853
-12.279618	7.385455	20.095537	137.216302	394.599211	144.701906	1.286415	-0.244075	-0.408649	5.446792	-1.537793	13.867053	38.776733	-9.233386	19.680035	0.366609	-0.409876	-0.876949	10.255043	5.914942	-2.775541	-11.730354	44.957609	85.902138	-0.563892	-0.583689	-0.246125
-11.009309	2.433673	17.542005	173.81005	335.013178	117.549618	1.313913	-0.251881	-0.381195	3.804353	3.867428	7.496538	134.529444	-1.708449	-2.70379	0.365353	-0.429484	-0.818546	10.610146	6.902166	-2.585014	-12.046031	50.596064	31.632341	-0.563541	-0.569149	-0.215906
-2.477352	-2.110866	17.575146	217.104685	259.012228	117.905357	1.297177	-0.258905	-0.299806	0.88263	2.183436	7.943217	-20.579588	-13.79525	-12.351222	0.352742	-0.473377	-0.843959	10.892595	4.283867	-3.609055	2.234374	60.070573	-48.258934	-0.549913	-0.584311	-0.230527
-4.246432	-7.980722	14.674473	217.357927	172.081863	119.832037	1.299107	-0.327761	-0.282727	1.934289	1.283114	11.304747	30.654333	-6.774193	-6.506274	0.364757	-0.491838	-0.800182	12.074944	3.410026	-3.590754	-5.025807	63.450799	-66.94463	-0.56375	-0.585342	-0.215069
5.181094	-15.255434	7.723384	177.555509	110.730221	76.989984	1.270151	-0.368667	-0.218893	1.596814	1.957722	9.033687	17.778733	-6.304931	-4.785615	0.351561	-0.477664	-0.78656	12.603598	3.059613	-3.762054	-10.761105	52.186921	-0.474923	-0.536355	-0.598647	-0.260675
30.071151	-30.308771	-1.97174	106.738654	-4.220422	-53.010521	1.312498	-0.352491	-0.237433	1.375015	1.958485	9.425329	0.622622	-12.339101	-6.277493	0.339621	-0.443883	-0.831341	13.356347	2.647864	-4.588176	-19.769096	36.518763	32.277776	-0.536147	-0.582455	-0.261512
18.469627	6.707134	15.007744	-29.825002	-29.646454	56.759416	1.296492	-0.335159	-0.201687	1.325241	1.677225	9.76372	-7.599565	-12.379349	-1.999439	0.338956	-0.461347	-0.801638	14.13072	2.880143	-4.153533	-37.185859	15.885944	-4.943153	-0.535796	-0.567915	-0.231294
16.733099	-10.046375	19.165632	-53.493404	-140.914567	-67.073048	1.312127	-0.356019	-0.223357	1.778512	1.676078	9.433554	-1.540385	-12.082212	-2.854792	0.378549	-0.443658	-0.832168	11.135202	2.890244	-3.430866	-47.539868	-0.631525	-58.848228	-0.550055	-0.582659	-0.261582
3.473713	-9.756831	17.20403	39.377053	-129.31007	-38.192231	1.31287	-0.348963	-0.251509	1.725782	1.676375	9.658903	-8.087727	-11.895348	-1.933363	0.338736	-0.447098	-0.788292	9.324814	2.724404	-2.447304	-42.114719	-7.510335	-60.240279	-0.550055	-0.582659	-0.261582
5.768502	-12.9795	2.743326	82.796789	-105.255749	-58.970758	1.313227	-0.328135	-0.283076	1.613068	1.676686	9.769765	-12.066546	-10.994562	2.665782	0.365353	-0.429484	-0.818546	7.978271	1.858347	-1.997067	-35.05175	-11.13791	-26.427173	-0.50826	-0.582873	-0.245844
5.876797	-12.993376	-0.493959	-41.470167	-129.518056	-52.902192	1.298349	-0.317518	-0.272067	1.331501	1.564801	10.046823	-18.520392	-12.965913	5.569681	0.352968	-0.427415	-0.84697	7.519172	0.990759	-1.41051	-37.877942	-13.368114	-15.802768	-0.50889	-0.612779	-0.290753
7.510196	-9.918206	7.052389	-142.960017	-165.544987	-47.152081	1.355589	-0.329259	-0.284124	0.859428	1.283536	9.470519	-27.857812	-15.884718	7.074572	0.365278	-0.444805	-0.817543	7.172144	2.213391	-0.872759	-36.068113	-15.362324	-14.577439	-0.536076	-0.583281	-0.245984
7.135496	-6.567689	11.435165	-136.124874	-202.303023	-36.173478	1.328076	-0.304154	-0.329069	1.625673	0.775824	10.278762	-32.226443	-19.456576	5.524948	0.364983	-0.445876	-0.803193	6.638527	2.330264	-1.001982	-28.031539	-15.87016	-10.020142	-0.522865	-0.630828	-0.258931
5.882222	-6.980007	8.79485	-106.244916	-252.669844	-23.519759	1.342911	-0.262873	-0.392554	1.703873	0.100509	11.185636	-26.996045	-24.134039	-0.621342	0.391751	-0.397621	-0.835455	5.754655	2.216385	-0.959077	-22.991957	-15.323821	-13.799877	-0.536355	-0.598647	-0.260675
4.955674	-6.349659	8.268011	-127.732926	-301.199478	-12.958835	1.344412	-0.266059	-0.431366	1.879526	-0.181372	11.302305	-13.443894	-28.02016	-8.479339	0.339106	-0.430706	-0.803645	5.637994	2.10075	-0.901865	-20.402956	-14.881795	-20.167577	-0.563963	-0.582863	-0.261653
3.370034	-5.885106	9.148413	-148.773841	-322.726319	-9.383342	1.315371	-0.203169	-0.472483	1.804259	-0.407298	10.451312	4.356535	-27.997236	-14.969365	0.352077	-0.490841	-0.814256	5.699055	1.69433	-0.842588	-17.601269	-13.805363	-16.821441	-0.536422	-0.616492	-0.228782
2.178986	-4.560426	9.755964	-168.735762	-330.879133	-9.672956	1.33212	-0.213444	-0.53638	1.435645	1.620489	9.539532	7.492653	-27.130429	-19.520625	0.352673	-0.428487	-0.83262	5.348125	1.753958	-0.669223	-14.637544	-10.939262	-9.022564	-0.536288	-0.580802	-0.292568
1.648873	-3.172006	11.967891	-185.535386	-337.431647	-11.387177	1.332849	-0.189088	-0.582024	1.73027	1.225873	9.828443	5.958676	-26.149199	-17.785795	0.340878	-0.424275	-0.889743	4.883179	2.453928	-0.195805	-12.182093	-6.990762	-5.505213	-0.508122	-0.565854	-0.262209
0.972623	-2.709564	12.524991	-177.527486	-336.391403	-12.988168	1.305351	-0.181282	-0.609477	2.953791	-0.355554	7.701406	-9.378698	-29.72622	-16.415652	0.339917	-0.442811	-0.845691	5.068876	2.048721	0.225114	-8.627809	-1.464594	-6.277933	-0.550263	-0.598851	-0.260745
0.37437	-1.668164	14.165826	-176.204144	-337.65578	-17.64378	1.292688	-0.132196	-0.700415	1.961179	0.887459	9.832994	-5.289905	-31.612637	-20.161179	0.313305	-0.400215	-0.805101	5.178935	2.162873	-0.191539	-7.551724	3.981922	-9.058311	-0.564939	-0.64598	-0.28936
-0.309094	-2.011592	14.321575	-173.123315	-336.053697	-24.65048	1.279682	-0.121236	-0.742294	1.44309	0.888429	9.822114	-7.173699	-34.084201	-21.050416	0.339992	-0.42749	-0.846694	5.23627	1.465084	-0.373126	-6.409076	8.705381	-9.910124	-0.550543	-0.614218	-0.275436
-1.666457	-2.06442	15.147406	-182.180194	-327.92423	-31.424583	1.252513	-0.058004	-0.836299	1.915271	1.113363	10.398371	-5.737367	-37.77382	-21.517514	0.340362	-0.411098	-0.862048	5.645386	1.288922	-0.605792	-7.027628	11.815172	-9.128149	-0.578288	-0.615452	-0.260049
-2.443812	-1.656442	16.384275	-196.463727	-322.674016	-36.144787	1.238749	-0.036802	-0.867517	2.148597	0.775044	10.516201	0.730307	-42.282146	-27.753268	0.313965	-0.442961	-0.845139	6.456476	1.167418	-1.429577	-6.641303	14.148647	-3.914704	-0.549984	-0.583485	-0.246055
-3.606608	-0.900146	18.41074	-198.826307	-321.557087	-37.898994	1.225715	0.008756	-0.94438	2.666039	1.112057	10.527366	4.820761	-49.063199	-33.458579	0.338661	-0.462419	-0.787288	6.398716	1.57458	-1.309133	-7.151163	16.389684	1.058141	-0.578079	-0.59926	-0.260886
-4.554904	-0.089711	19.70281	-201.144338	-320.104183	-36.703099	1.155455	0.048756	-0.991693	2.084425	0.436884	10.17487	9.551227	-54.059547	-38.83731	0.313965	-0.442961	-0.845139	7.160849	1.862216	-1.533218	-6.618462	17.710518	0.713714	-0.563754	-0.56667	-0.26249
-6.522685	0.781324	21.543609	-208.759072	-311.716848	-35.839517	1.126399	0.128945	-1.050302	2.369295	0.717903	10.067872	10.52909	-57.557544	-41.429818	0.287938	-0.458431	-0.843584	7.324557	1.91692	-2.248553	-6.572395	17.802506	-2.251472	-0.536355	-0.598647	-0.260675
-6.930288	1.884142	24.154529	-211.189326	-302.079483	-37.27114	1.097773	0.143465	-1.053019	2.301843	0.830292	9.613642	5.384504	-61.506198	-43.291907	0.300474	-0.429859	-0.817168	7.916899	1.451208	-2.179619	-8.869737	17.544816	-4.748008	-0.563892	-0.583689	-0.246125
-8.095352	2.697397	26.067529	-211.600832	-297.433119	-40.108646	0.956153	0.195581	-1.087926	3.058764	0.772893	10.025787	-3.38484	-62.109729	-52.490853	0.274591	-0.474899	-0.827955	8.033831	1.450691	-2.237325	-12.409445	16.616905	-7.9397	-0.550125	-0.581833	-0.27711
-10.599348	4.151223	29.775758	-215.810228	-292.575172	-41.459408	0.954967	0.271493	-1.133157	2.256043	0.999866	10.178971	2.637694	-76.928601	-54.421122	0.312633	-0.477889	-0.785733	7.959679	1.331213	-3.077617	-16.367384	15.972564	-9.114163	-0.550614	-0.613391	-0.290964
-15.596047	5.02566	31.841808	-202.693012	-274.834504	-42.957573	0.914863	0.259188	-1.181582	2.836556	1.618661	10.47478	-1.603023	-82.589061	-55.528826	0.288233	-0.45736	-0.857934	8.133696	1.213914	-3.25453	-21.685313	15.053919	-4.934201	-0.564104	-0.58121	-0.292708
-20.64047	7.575934	22.775233	-163.180958	-246.850934	-57.924684	0.815219	0.32395	-1.220953	2.320777	1.676056	10.577226	-7.141158	-94.247122	-42.733429	0.286612	-0.43315	-0.773843	8.06221	2.315269	-3.790096	-20.043086	12.159805	6.320863	-0.550543	-0.614218	-0.275436
-25.187119	11.525745	18.725314	-213.30532	-166.59895	-75.130337	0.801455	0.345153	-1.252171	2.901534	2.409896	13.590622	23.700088	-96.572314	-54.229486	0.261471	-0.445405	-0.815337	8.005355	1.386187	-3.795152	-21.574748	9.027113	7.01378	-0.536706	-0.613187	-0.290894
-29.021603	12.448069	18.768278	-223.332252	-162.722651	-79.303328	0.715989	0.340343	-1.221924	3.114525	1.95811	12.745484	37.527952	-106.035575	-44.01682	0.261471	-0.445405	-0.815337	7.247529	2.087327	-3.207422	-26.641759	7.69446	6.9468	-0.550547	-0.595546	-0.322857
-34.196866	19.38602	14.889219	-155.459454	-179.69139	-82.228915	0.686619	0.347807	-1.19649	4.352519	1.900654	14.130174	88.428689	-121.95795	-39.26363	0.274221	-0.491291	-0.812602	6.592329	2.784736	-3.456187	-21.023219	0.000297	19.373005	-0.550125	-0.581833	-0.27711
-43.367081	16.583181	2.423664	-72.322468	-203.378117	-53.583865	0.701083	0.385559	-1.245898	4.291604	0.492262	13.844582	58.971674	-139.31122	-18.960256	0.235739	-0.459803	-0.828131	6.838608	3.59998	-2.789348	-16.801407	-4.199875	30.657718	-0.563545	-0.550478	-0.263327
-52.909293	14.016671	-8.57054	-82.920337	-129.910203	-13.649187	0.602267	0.353583	-1.20847	2.619035	0.889606	13.696576	88.221125	-160.096894	-12.36124	0.208531	-0.479561	-0.769177	8.514034	3.659467	-1.500244	-13.25653	-13.692764	32.982994	-0.550547	-0.595546	-0.322857
-53.447039	15.538449	-15.507896	-108.898899	-36.432622	21.126173	0.614473	0.404764	-1.208407	6.072795	1.84319	16.544048	69.820127	-184.59581	9.083502	0.208606	-0.464241	-0.770181	10.355235	3.832229	-0.806413	-10.015309	-23.01208	30.294959	-0.550196	-0.581006	-0.292638
-47.718055	21.70717	-9.119114	-119.618688	22.184418	54.579376	0.615616	0.38075	-1.215651	3.190429	3.989138	16.485405	79.715346	-213.301211	28.722061	0.18354	-0.461175	-0.812679	11.442235	2.673222	0.406588	-7.538069	-29.832095	25.243981	-0.549779	-0.548621	-0.294312
-32.099312	23.683974	-0.566569	-57.644242	54.618436	65.290192	0.60111	0.394896	-1.218718	4.3371	2.862472	18.886289	95.71129	-243.381677	44.344674	0.157287	-0.522607	-0.808113	11.815154	2.153684	1.369476	-7.912731	-28.272387	22.150456	-0.578154	-0.579762	-0.323834
-28.515253	28.010068	4.351965	-39.482754	12.344461	74.17681	0.6423	0.452384	-1.247505	4.829569	1.961507	20.311192	131.002243	-276.441333	54.404094	0.14313	-0.52697	-0.750438	11.335572	1.572026	0.878945	-6.71727	-16.892609	4.516275	-0.577874	-0.564396	-0.309143
-25.116661	24.729737	17.020597	122.123828	2.124775	54.937435	0.657206	0.407168	-1.22353	4.349986	0.161276	21.941342	129.25261	-311.809053	57.7822	0.090931	-0.528342	-0.734985	9.174095	0.871321	-1.260379	-11.887244	3.433685	-28.536178	-0.549641	-0.531603	-0.310677
-2.940839	32.236028	30.384085	425.39061	61.205184	-3.420704	0.656849	0.386341	-1.191963	5.334193	-0.626657	24.848641	164.518947	-355.225332	51.891693	0.038362	-0.546106	-0.704179	8.025102	-0.003929	-2.902482	-12.122508	20.713037	-40.106249	-0.564033	-0.582037	-0.27718
42.406885	17.06164	36.60108	106.323495	150.075662	-94.896007	0.674385	0.331224	-1.231537	5.174883	-1.693803	28.071361	156.318613	-418.228785	45.43292	-0.040009	-0.53338	-0.674829	7.882556	2.489407	-3.912469	-19.533667	34.816175	4.68269	-0.619252	-0.531797	-0.326556
14.742668	13.505042	32.467672	179.662935	192.484263	-23.457343	0.70264	0.313176	-1.214743	0.015821	1.926909	34.703289	89.283769	-473.953339	2.004051	-0.080494	-0.614495	-0.611585	11.446138	6.772863	-5.264812	4.489537	13.600102	103.365941	-0.550267	-0.58018	-0.308166
-15.129743	14.79181	-8.23023	227.786046	260.898575	99.455197	0.717518	0.302559	-1.225752	0.907373	2.661111	38.798882	158.004674	-526.181148	-32.275792	-0.107332	-0.61786	-0.567984	14.848541	9.156173	-2.795675	8.116728	-19.648739	149.18808	-0.591641	-0.566252	-0.278158
-28.001065	-1.967267	5.997355	73.897689	170.43122	106.518975	0.760294	0.253065	-1.188401	1.710027	4.121812	36.099547	219.883037	-537.447038	-42.201886	-0.133874	-0.620154	-0.538733	18.839848	11.131106	-0.437078	-0.505029	-71.584581	97.122932	-0.591089	-0.498178	-0.343618
-8.611387	2.545368	17.248136	-63.528959	47.768272	84.293368	0.802656	0.251941	-1.189448	10.653556	8.887281	29.611113	242.141193	-517.25673	-14.825839	-0.213727	-0.672997	-0.447969	20.859376	12.363058	3.678098	29.044212	-125.810563	53.666016	-0.590877	-0.500656	-0.297034
-6.661322	-3.097898	14.307099	182.910708	37.970741	-107.864936	0.775544	0.245976	-1.213486	13.975299	6.565904	23.281428	235.554611	-483.788551	-10.060218	-0.267327	-0.664408	-0.361772	15.894305	5.936255	5.534045	15.567247	-130.611698	-6.971443	-0.590944	-0.518501	-0.265141
-1.792371	10.739875	0.47985	225.730912	93.871471	25.561421	0.80417	0.231456	-1.210769	12.562605	0.088774	21.207935	234.7563	-495.868342	-12.492678	-0.255607	-0.683941	-0.303645	7.617327	2.814109	4.168495	17.886556	-104.386962	-127.427437	-0.590735	-0.502309	-0.265978
-3.543986	-4.535635	1.006527	-20.349226	5.644397	-28.986747	0.804928	0.221213	-1.221429	12.540091	5.780066	23.363821	81.557229	-412.135478	44.508252	-0.256863	-0.703549	-0.245242	7.10985	5.801991	-3.792869	23.060852	-51.829153	-69.764882	-0.604292	-0.487973	-0.23583
-2.829958	3.390218	14.408971	-129.05282	-3.219763	-1.919768	0.789321	0.207475	-1.164776	-2.562321	4.39914	21.969749	133.484282	-171.482005	127.414403	-0.310017	-0.663247	-0.175402	13.67681	1.012519	-6.62533	52.000595	-27.115264	87.697495	-0.591078	-0.554191	-0.201356
-2.574635	0.613234	9.798969	68.547926	10.02819	2.909725	0.803042	0.23817	-1.186033	-31.631027	-8.895328	22.93271	312.224503	11.68435	147.141199	-0.336855	-0.666613	-0.131801	14.253367	4.494494	-6.899026	31.337835	-12.872424	72.56602	-0.548657	-0.505828	-0.188129
-2.373662	0.894245	8.383302	22.963695	11.144261	10.511114	0.776329	0.201135	-1.189163	-26.049066	-8.795554	20.275937	-93.363416	-56.295725	99.145019	-0.349611	-0.680936	-0.144871	14.428876	7.050423	-6.645219	57.952653	-6.302712	-9.460348	-0.631829	-0.473015	-0.22128
