1757_acc_x	1757_acc_y	1757_acc_z	1757_gyro_x	1757_gyro_y	1757_gyro_z	1757_mag_x	1757_mag_y	1757_mag_z	1758_acc_x	1758_acc_y	1758_acc_z	1758_gyro_x	1758_gyro_y	1758_gyro_z	1758_mag_x	1758_mag_y	1758_mag_z	1759_acc_x	1759_acc_y	1759_acc_z	1759_gyro_x	1759_gyro_y	1759_gyro_z	1759_mag_x	1759_mag_y	1759_mag_z
-3.904367	0.853645	12.047334	-12.453743	-19.329286	-0.094276	-0.024941	-0.057148	-0.98109	-0.110699	1.905383	9.903606	2.472988	0.153547	0.075449	-0.095322	-0.002456	-1.050964	8.815043	3.950655	-1.134064	-6.395928	7.407334	-5.656002	-0.426022	-0.884186	0.281226
-4.484665	0.79493	11.637986	-10.212862	-13.438728	-0.894371	-0.01772	0.457319	-0.924773	0.169444	2.129882	9.570003	2.348321	0.060387	0.012766	0.250185	-0.514579	-0.910491	8.986879	4.297717	-1.368907	-6.586816	7.107381	-6.295669	-0.480858	-0.633521	-0.196609
-4.065601	0.786154	9.657036	-14.007397	-21.779547	-1.509687	-0.004356	0.467187	-0.914462	0.461868	1.622511	9.745539	1.85402	0.082767	0.320872	0.250185	-0.514579	-0.910491	9.171185	3.54356	-1.069285	-7.142957	7.107591	-6.507585	-0.522164	-0.601748	-0.198494
-4.117247	0.72996	9.939946	-22.548634	-40.1834	-0.434773	-0.018463	0.450262	-0.896621	0.05563	2.073815	9.624177	1.637139	0.019499	0.196756	0.302019	-0.469389	-0.900255	9.291169	4.124792	-0.884892	-7.515085	6.70669	-6.320957	-0.508536	-0.61691	-0.213114
-4.213898	0.676462	10.847128	-19.979021	-52.031818	1.726727	-0.018477	0.467562	-0.914113	-0.055227	1.736189	9.791393	1.665459	-0.193959	0.071344	0.263607	-0.482791	-0.927124	8.871858	3.950026	-1.252778	-7.3972	6.251741	-6.655387	-0.494978	-0.631246	-0.243262
-4.611546	0.964683	11.011099	-12.539351	-50.182799	4.372753	-0.0051	0.46013	-0.88631	-0.110891	2.637728	9.960862	1.637176	-0.008952	-0.142636	0.31507	-0.453994	-0.901534	9.342772	4.47163	-1.241749	-6.787959	5.678098	-7.174396	-0.494415	-0.619185	-0.16646
-4.62569	0.502015	10.270078	-7.966744	-40.99525	6.624894	-0.003599	0.456944	-0.925123	0.409053	2.298822	10.028097	1.665303	-0.223416	-0.113918	0.288673	-0.485857	-0.884626	9.236939	3.486832	-0.708991	-6.999489	5.731252	-6.470976	-0.508394	-0.618563	-0.182059
-4.927883	0.958377	9.470498	-7.940991	-32.330518	7.010947	-0.018877	0.498632	-0.935021	-0.169473	1.905444	9.845758	1.634174	-0.253668	-0.237556	0.301429	-0.471533	-0.871556	8.98798	4.297965	-1.309	-7.488375	5.565807	-5.429327	-0.480649	-0.617328	-0.197446
-4.52603	1.015769	9.535387	-8.869404	-27.295159	4.458091	-0.016977	0.464375	-0.952925	-0.047412	2.074504	10.188155	1.201075	-0.290827	-0.084133	0.301799	-0.455141	-0.886909	8.988905	3.426577	-1.372616	-8.316878	5.617374	-4.784779	-0.522511	-0.634959	-0.181292
-4.866998	0.556968	9.640482	-5.598979	-21.363388	0.466296	-0.074602	0.489887	-0.944284	0.236334	1.679462	9.967309	1.075472	-0.446122	-0.024122	0.353778	-0.43952	-0.889016	8.882302	3.719947	-0.714605	-7.914344	5.367157	-4.112683	-0.522164	-0.601748	-0.198494
-9.559138	1.0579	18.473701	-18.272694	-4.016813	-0.196695	-0.074573	0.455289	-0.909301	0.174842	2.468102	9.853485	0.60672	-0.880708	-0.121305	0.288968	-0.484785	-0.898976	9.167209	3.833198	-1.24777	-8.402804	5.5114	-3.43924	-0.508882	-0.650121	-0.195912
-10.787831	-0.650343	8.269957	13.2699	10.027727	2.026175	-0.059695	0.444671	-0.92031	0.004994	2.243198	9.962948	0.324503	-1.192296	0.091166	0.302019	-0.469389	-0.900255	9.519935	3.948293	-1.30058	-7.014712	5.235717	-2.923395	-0.508811	-0.650948	-0.180384
-11.95347	-0.58407	10.122967	1.432245	17.49129	11.166899	-0.088694	0.455663	-0.908951	0.453645	2.129201	9.406128	-0.453932	-1.691933	-0.037741	0.263091	-0.469614	-0.899428	9.286051	3.484472	-1.247052	-8.148526	4.814709	-1.052974	-0.494766	-0.633725	-0.196679
-13.290359	-2.138622	9.010632	6.468925	20.347409	32.356929	-0.060439	0.437615	-0.892158	0.063553	2.355799	10.020891	-1.076184	-2.066146	-0.288587	0.288748	-0.470536	-0.88563	9.291979	3.776336	-0.886375	-8.268844	4.342802	0.172224	-0.480299	-0.602788	-0.167227
-0.672078	-0.649193	10.455789	19.524235	3.9076	50.908298	-0.060824	0.451386	-0.895574	0.011793	1.849122	10.245814	-1.670038	-2.624765	-0.417932	0.288598	-0.501177	-0.883622	9.460359	3.715877	-1.362576	-6.881385	3.94413	0.749799	-0.480787	-0.634347	-0.181081
0.936494	-2.027986	10.708588	13.856743	-5.691023	35.837254	-0.03034	0.454507	-0.963236	0.001021	1.792365	9.73601	-1.648538	-3.360545	-0.394403	0.275622	-0.501252	-0.883347	9.284971	3.94908	-1.245075	-4.1721	3.557793	0.589015	-0.495045	-0.649091	-0.21137
2.970391	-1.288528	9.387336	26.361912	13.933784	20.666137	-0.060796	0.416787	-0.86059	-0.287776	2.299878	9.730392	-2.49403	-4.260633	-0.373205	0.302459	-0.497886	-0.926947	9.515574	4.877015	-1.416438	-0.56266	3.504858	1.034641	-0.508465	-0.617736	-0.197586
1.55132	-1.342279	9.984642	26.415635	30.705719	-0.190338	-0.032612	0.485235	-0.931256	0.174149	1.566719	9.739447	-3.433495	-5.254503	-0.260531	0.289043	-0.469464	-0.899979	9.055779	3.834952	-0.890529	-1.196156	2.823887	4.554995	-0.481137	-0.648887	-0.2113
-1.540632	0.498329	9.989088	33.794858	27.840835	-4.705065	-0.003971	0.453416	-0.911047	0.055846	1.961153	9.624082	-3.90085	-5.53859	0.075378	0.289043	-0.469464	-0.899979	9.063482	3.836683	-0.471181	-0.441499	3.171247	6.720666	-0.494486	-0.618359	-0.181988
-1.269824	0.32242	9.197988	20.325687	19.219787	4.700647	-0.003599	0.456944	-0.925123	-0.10092	1.849432	10.356675	-4.678206	-5.917991	0.317604	0.315806	-0.481419	-0.942576	8.948481	3.953846	-0.293167	2.892622	3.579003	6.890032	-0.480649	-0.617328	-0.197446
0.05606	0.151072	9.677699	4.428045	17.683991	8.95345	-0.044803	0.416755	-0.913827	-0.100165	1.455119	10.356343	-3.049949	-6.574889	0.774805	0.262941	-0.500255	-0.897421	9.01383	4.071347	0.067869	5.422531	4.019825	6.542555	-0.480858	-0.633521	-0.196609
-0.972329	-1.341421	9.708236	6.668559	5.082451	-0.948639	-0.016576	0.433305	-0.932018	-0.041283	1.398728	10.414145	-2.968179	-7.403714	1.074911	0.289414	-0.453072	-0.915333	8.826182	3.895051	-0.535243	7.243452	4.799321	5.737567	-0.494903	-0.650744	-0.180314
0.22469	-0.136984	9.509274	5.240862	1.622125	0.041945	0.011636	0.467155	-0.9677	0.407498	1.848083	9.914439	-2.759828	-7.957594	1.778619	0.249299	-0.517794	-0.867442	8.598401	4.594729	0.002484	8.967707	5.369082	4.475474	-0.494695	-0.634551	-0.181151
-0.172833	-0.021087	9.672522	-1.204277	4.440576	0.934335	-0.017334	0.443548	-0.921358	0.349525	2.693196	9.970581	-4.194463	-8.962186	2.56901	0.288818	-0.515426	-0.896968	8.949042	4.186398	-0.232271	8.478551	5.514586	5.026703	-0.508607	-0.616084	-0.228642
-0.791207	-0.420309	10.227115	-4.770723	2.32798	1.462285	-0.016948	0.429777	-0.917942	-0.056975	2.017794	9.734991	-4.704213	-10.137012	3.050171	0.289489	-0.437752	-0.916336	8.939968	4.300572	-0.711032	8.079851	5.912713	4.842863	-0.522719	-0.651152	-0.180455
-0.736014	-0.650599	10.113557	-5.574894	1.030749	1.688858	-0.018477	0.467562	-0.914113	-0.331852	1.568163	10.294963	-5.033973	-11.709777	3.774147	0.275917	-0.50018	-0.897696	9.002961	4.010798	-0.531447	8.906192	5.772211	3.923622	-0.508465	-0.617736	-0.197586
-0.286803	-0.767744	9.667158	-3.411869	0.014453	0.040723	-0.003571	0.422346	-0.890139	0.066186	2.243233	10.134076	-7.938309	-14.141905	4.302538	0.262646	-0.501327	-0.883071	8.885374	4.766551	-0.41062	9.292475	5.335601	1.90711	-0.522373	-0.617941	-0.197657
-0.335564	-0.191357	10.123282	-2.095619	-0.350263	0.215015	-0.003199	0.425874	-0.904215	0.079592	2.187424	10.757064	-11.726687	-17.800424	7.777559	0.263537	-0.437902	-0.915785	8.931185	4.763449	-1.128402	8.359881	4.756731	1.363111	-0.537045	-0.683741	-0.178851
-0.106381	-0.421289	10.126771	-1.885296	-0.931777	0.082287	-0.016948	0.429777	-0.917942	-1.302034	3.093731	13.50294	-16.869803	-24.103834	5.0595	0.302465	-0.437677	-0.916612	8.880007	4.707239	-0.710402	6.560065	4.088978	0.241982	-0.52181	-0.605879	-0.120855
-0.457702	-0.422729	9.722118	-1.948132	-1.115412	-0.012521	-0.030683	0.41638	-0.914177	-0.111317	2.471073	12.621572	-16.288584	-36.413827	8.082089	0.263016	-0.484935	-0.898424	8.525505	4.882277	-0.716263	3.96513	3.436954	0.285055	-0.494836	-0.632899	-0.212207
-0.340593	-0.939303	9.835879	-1.181714	-0.830728	-0.408784	-0.031054	0.412852	-0.900101	-0.119024	2.076427	12.224763	-8.469896	-45.653001	10.370337	0.23736	-0.484013	-0.912223	9.286267	5.285818	-0.999761	0.273238	3.470327	1.70417	-0.494974	-0.649917	-0.195842
-0.342696	-1.11211	9.721449	-0.507038	-0.609674	-0.652477	-0.018077	0.436491	-0.893206	-0.357209	1.794874	11.823213	-8.426372	-54.507008	8.925894	0.237215	-0.454444	-0.89988	8.927634	5.343715	-1.245744	-3.138892	3.252096	3.887582	-0.480858	-0.633521	-0.196609
-0.220973	-0.306323	10.125026	0.566977	-0.358115	-0.712817	0.012451	0.387714	-0.908393	-0.643912	2.471474	11.931017	-4.429966	-63.319953	8.810678	0.263242	-0.438974	-0.901435	8.697726	4.590256	-1.013732	-4.732857	3.383834	5.390363	-0.495183	-0.66611	-0.195005
-0.27802	-0.593489	10.122706	1.026085	-0.260297	-1.019229	-0.059695	0.444671	-0.92031	-0.247106	2.526813	11.656329	-4.989087	-70.814107	9.198167	0.211483	-0.468843	-0.912675	9.289663	4.298773	-0.944057	-5.254403	3.221748	6.096004	-0.508808	-0.669619	-0.132964
-0.627979	-0.939337	9.773459	1.088387	0.05009	-1.259709	-0.016191	0.419534	-0.928602	0.273508	2.469607	11.780441	-4.598295	-78.680904	12.079851	0.237805	-0.4523	-0.92858	9.235899	4.881151	-0.583244	-6.267651	3.241113	6.833128	-0.494207	-0.602992	-0.167298
-0.279465	-0.134198	10.067784	1.27305	0.26781	-1.410043	-0.030697	0.43368	-0.931668	0.105863	2.357459	12.003277	-4.315687	-85.380752	14.510631	0.251152	-0.435833	-0.944209	9.356673	4.649072	-0.462218	-7.531714	2.988063	7.205689	-0.480645	-0.635999	-0.150025
-0.456671	-0.307605	9.779454	1.5836	0.695662	-1.066634	-0.003199	0.425874	-0.904215	0.164314	2.52639	12.061268	-2.587312	-92.582216	16.660141	0.198953	-0.437205	-0.928756	9.01383	4.071347	0.067869	-8.119077	2.895763	7.055434	-0.507902	-0.605675	-0.120784
-0.276906	-0.593248	10.179559	2.413763	1.09869	-1.031805	-0.018834	0.446734	-0.882545	0.212616	1.680898	11.552009	-2.922487	-99.461878	17.146424	0.198582	-0.453597	-0.913403	8.888675	4.767293	-0.230899	-8.521975	2.587791	7.119492	-0.480992	-0.669211	-0.132823
-0.342204	-0.250246	9.781922	2.509559	1.338368	-0.445492	-0.018091	0.453791	-0.910697	0.965024	1.454317	11.737454	-0.134372	-106.11488	17.144209	0.146013	-0.471362	-0.882597	8.774099	5.175084	0.008258	-7.167849	2.597399	6.656074	-0.52244	-0.635786	-0.165764
-0.292329	-0.826392	9.382651	1.958491	1.427987	-0.44245	-0.060839	0.468685	-0.913066	0.905041	1.45433	11.622966	2.962412	-112.851449	16.401516	0.147049	-0.437505	-0.927653	8.365483	4.189231	0.116166	-5.872728	2.601741	6.681927	-0.480716	-0.635173	-0.165553
-0.56524	-0.82329	10.05932	0.762001	0.925136	0.04351	-0.044432	0.420283	-0.927903	1.363601	1.847734	11.57633	5.226941	-119.531665	14.764676	0.159729	-0.438502	-0.913579	8.366603	4.654334	0.237957	-4.178617	2.331585	6.768774	-0.494691	-0.653222	-0.133731
-0.74517	-0.30788	9.66018	-0.217905	1.012057	0.109079	-0.018077	0.436491	-0.893206	1.37994	0.890684	12.255199	11.064651	-124.484035	13.887781	0.095145	-0.437805	-0.92655	8.012486	4.190289	0.16947	-1.775655	2.344017	6.393237	-0.49497	-0.668588	-0.148421
-0.456671	-0.307605	9.779454	-0.892744	0.82278	0.261284	0.01015	0.453041	-0.911396	1.827142	0.269617	11.584673	16.07308	-129.249514	10.946547	0.095	-0.408236	-0.914208	8.42672	4.654446	0.298965	-0.354765	1.971637	7.398499	-0.45227	-0.604859	-0.120503
-0.27035	-0.419476	10.521402	-1.504783	0.754631	0.599285	-0.058567	0.437957	-0.945046	2.071371	0.551407	12.269421	26.385341	-129.777737	8.51413	0.068307	-0.441171	-0.882949	8.193666	4.307025	0.412893	1.592154	1.814957	8.431399	-0.508741	-0.651774	-0.164857
-0.91479	-0.19239	9.771028	-1.719298	0.910069	0.357086	-0.016205	0.436833	-0.946094	2.517758	1.620351	11.713597	39.096225	-133.18352	9.692836	0.081428	-0.470665	-0.895568	8.434133	4.307473	0.656923	2.398386	1.778108	9.315041	-0.466596	-0.637448	-0.118899
-0.290227	-0.653585	9.497081	-1.80929	0.966584	0.756945	-0.030697	0.43368	-0.931668	1.939363	1.790325	11.588371	46.269988	-134.904617	9.958967	0.016919	-0.454648	-0.909542	8.310328	4.422659	0.355682	3.354344	1.967606	9.066153	-0.522719	-0.651152	-0.180455
-0.048961	-0.651097	10.126919	-1.532025	1.057633	0.972301	-0.031454	0.443922	-0.921008	2.711328	1.451842	12.679955	52.879516	-134.880639	9.748724	0.0296	-0.455645	-0.895468	7.953065	4.364652	0.169111	3.228012	2.034962	8.424424	-0.508599	-0.653426	-0.133801
-0.053663	-0.307412	9.900954	-0.736043	1.001281	0.846423	0.009778	0.449513	-0.89732	2.393627	1.901887	11.31494	67.777388	-133.805791	10.418796	0.016473	-0.486361	-0.893185	7.83986	4.656538	0.467681	3.528704	1.771166	7.415955	-0.480507	-0.618981	-0.16639
-0.792238	-0.535434	10.169779	0.306395	0.973676	0.996313	-0.003599	0.456944	-0.925123	3.127794	1.730925	10.650838	65.366297	-131.164122	14.728316	-0.023937	-0.552155	-0.830945	8.486951	4.131627	0.29784	4.118571	2.603927	6.951374	-0.508532	-0.635581	-0.165694
0.000624	-0.825151	9.729337	1.746245	0.982139	0.838967	-0.018077	0.436491	-0.893206	2.900728	1.956821	10.816111	63.720525	-126.926218	15.7248	-0.036832	-0.4767	-0.821337	8.24691	4.421805	0.114954	3.554854	2.308011	5.79338	-0.508252	-0.620215	-0.151003
-0.23219	-0.193853	9.556978	3.247487	1.084475	0.560299	-0.016576	0.433305	-0.932018	2.063218	2.917147	12.101494	74.063583	-119.39699	20.00071	-0.08807	-0.459536	-0.849937	9.016456	4.362469	0.248826	3.768897	2.529536	5.149699	-0.480366	-0.620633	-0.135335
-0.283629	-0.537254	9.838682	3.61161	0.783742	0.125013	-0.032212	0.454165	-0.910348	0.64318	2.805555	10.259918	96.561464	-110.100123	26.215448	-0.050994	-0.541272	-0.773998	8.59593	4.710387	-0.116835	3.797724	2.254023	5.181474	-0.507902	-0.605675	-0.120784
-0.459639	-0.825302	9.606723	4.561283	0.726714	0.121352	-0.031454	0.443922	-0.921008	-5.996521	0.223413	6.268428	86.916615	-84.482964	49.862584	-0.07606	-0.538206	-0.816496	8.835411	4.187657	0.005156	3.171495	1.680055	4.26956	-0.466875	-0.652814	-0.13359
-0.398096	-0.594613	9.836214	4.471231	1.002523	0.156762	-0.002842	0.446702	-0.935783	-10.905928	-1.965122	5.200948	59.135159	-55.276448	93.943578	-0.12944	-0.543866	-0.743644	8.773519	4.477677	-0.114523	2.886788	1.320177	3.477649	-0.494691	-0.653222	-0.133731
-0.166893	-0.536854	9.954615	3.918127	0.753746	0.184979	-0.018849	0.464033	-0.900037	-10.733863	-4.162525	4.976167	34.833805	-33.166363	145.916644	-0.090217	-0.542569	-0.758821	9.251981	4.594233	0.254217	1.642688	0.591047	2.568726	-0.480366	-0.620633	-0.135335
-0.282722	-0.249805	9.896742	3.303596	0.598963	0.030893	-0.001727	0.457286	-0.978011	-10.397434	-5.797231	4.415649	10.461529	-1.903277	171.4025	-0.142271	-0.57351	-0.755711	9.668105	4.245326	0.38025	1.147396	0.468806	2.387723	-0.50839	-0.637234	-0.134638
-0.223199	-0.306806	10.01132	2.294357	0.869784	0.130203	-0.001713	0.439987	-0.960519	-6.782363	-6.086148	3.925177	-12.979964	27.651222	173.003699	-0.128775	-0.526402	-0.773347	9.069025	4.76763	-0.047877	1.731163	0.443791	2.04953	-0.481133	-0.667558	-0.163879
-0.566809	-0.191674	10.005122	1.711395	0.649857	0.312314	-0.002056	0.40186	-0.911459	-5.148903	-6.651665	4.921426	-35.753026	57.881937	137.144419	-0.154061	-0.509088	-0.802499	9.662758	4.650869	0.142353	2.252904	0.543434	1.466462	-0.494624	-0.635377	-0.165623
-0.341748	-0.882103	9.779268	1.312427	0.524374	0.372759	0.010936	0.4082	-0.887072	-4.709347	-3.665242	6.914788	-45.326416	82.982236	90.424598	-0.154061	-0.509088	-0.802499	9.541404	4.185542	-0.101453	3.362773	0.76502	1.12519	-0.466596	-0.637448	-0.118899
-0.230994	-0.308494	9.613348	1.741376	0.526725	0.340894	-0.044789	0.399455	-0.896336	-4.445407	-2.312318	8.619949	-33.582308	106.399741	51.324846	-0.155022	-0.527624	-0.758446	9.42088	3.836614	-0.284858	4.625038	1.145784	0.232473	-0.508666	-0.671271	-0.101908
-0.521637	-0.424135	9.379886	2.013983	0.005224	0.362302	-0.003956	0.436117	-0.893555	-4.738824	-1.917655	8.387678	-21.828575	129.39222	25.264733	-0.115428	-0.509934	-0.788976	8.958655	3.839919	0.245501	4.59015	1.122333	-0.470234	-0.494553	-0.636204	-0.150096
-0.458732	-0.537853	9.664782	3.024491	-0.144061	0.387635	-0.018105	0.47109	-0.928189	-4.402409	-1.017298	8.055853	-24.517568	149.793596	10.975881	-0.114612	-0.461829	-0.820687	8.947806	4.244226	-0.291931	4.001493	1.125585	-0.987684	-0.508461	-0.636408	-0.150166
-0.39719	-0.307164	9.894273	3.881932	-0.075461	0.110271	-0.002084	0.436459	-0.946443	-4.563532	-0.115165	8.676021	-28.383806	166.036495	7.0034	-0.088515	-0.491248	-0.83358	8.715043	4.245508	-0.116612	2.891984	1.120648	-0.891954	-0.480574	-0.636826	-0.134498
-0.288124	-0.480778	9.611511	4.189158	-0.01361	0.202395	-0.017705	0.440019	-0.907282	-3.566656	0.447067	9.60328	-31.854239	177.698906	10.846962	-0.061603	-0.472562	-0.878185	8.832089	3.72206	-0.23645	1.349094	0.682751	-0.486961	-0.536832	-0.68622	-0.132267
-0.513843	-0.422446	9.777858	4.679427	0.051534	0.079371	-0.016562	0.416006	-0.914526	-2.233197	0.557628	10.084297	-34.291778	183.441373	17.931173	-0.049582	-0.430813	-0.824072	8.485405	3.375897	0.114905	-0.226492	-0.24847	0.28726	-0.522507	-0.65363	-0.133871
-0.396941	-0.651813	9.892826	5.723548	0.425877	0.021114	-0.015848	0.457661	-0.977661	-1.491968	1.119295	9.817289	-38.122206	183.998882	23.637076	-0.036021	-0.488804	-0.863383	8.770602	3.837852	-0.35687	-1.305397	-1.308464	1.854947	-0.494762	-0.652396	-0.149258
-0.399707	0.094444	9.782256	6.061734	0.518256	0.144313	-0.045189	0.430526	-0.917243	0.365386	0.722102	10.535317	-44.168117	179.965438	24.516947	-0.010139	-0.443765	-0.852595	8.705389	3.662276	-0.718153	-1.799649	-2.302015	3.114582	-0.467013	-0.669833	-0.117225
-0.225012	-0.881703	9.895201	6.307075	0.831933	-0.311314	-0.017705	0.440019	-0.907282	1.533163	0.326249	11.295478	-47.631864	171.873364	18.668505	0.003352	-0.456867	-0.880567	8.529036	3.837156	-0.660806	-2.291245	-2.959081	4.372613	-0.494411	-0.637856	-0.11904
-0.114092	-0.537861	9.728316	7.012815	0.989231	-0.341458	0.041049	0.407793	-0.940659	2.39291	0.380821	11.14374	-51.038439	158.116066	7.892853	0.030045	-0.423932	-0.911825	8.771007	3.663624	-0.357611	-2.262782	-3.451229	4.649935	-0.494624	-0.635377	-0.165623
-0.684534	-0.364639	9.831612	7.077811	1.510913	-0.241162	-0.031083	0.447451	-0.935084	3.490865	1.336629	11.450714	-48.43908	137.859874	-4.853727	0.055482	-0.410605	-0.884681	8.52915	3.314225	-0.722938	-2.603061	-3.978132	5.203836	-0.494829	-0.670241	-0.117366
-0.3408	-0.652096	9.837086	5.759811	1.724401	-0.632583	-0.031054	0.412852	-0.900101	3.028917	1.450105	11.384498	-47.941369	117.629633	-16.645752	0.055042	-0.382108	-0.857989	8.529866	3.953555	-0.600405	-2.908677	-4.232777	6.061957	-0.480779	-0.671689	-0.08624
-0.334285	-0.420882	10.17917	4.53622	1.962445	-0.441184	-0.01732	0.426248	-0.903866	2.645994	2.353001	12.396307	-45.810822	102.263564	-24.380327	0.068608	-0.379889	-0.886964	8.829348	3.953869	-0.355275	-2.971583	-4.944732	6.860259	-0.49462	-0.654049	-0.118203
-0.397806	-0.996703	9.834525	3.92465	2.174704	-0.435973	-0.016576	0.433305	-0.932018	1.959375	2.072784	12.551482	-40.111604	100.443536	-30.250868	0.107021	-0.366487	-0.860095	8.939117	3.719317	-0.833318	-3.188367	-5.813018	7.934952	-0.49497	-0.668588	-0.148421
-0.400696	-0.078121	9.724679	2.947492	2.535428	-0.120618	0.010907	0.442799	-0.922056	2.400102	1.676802	11.597948	-42.555316	106.774749	-37.896342	0.120732	-0.393838	-0.901413	8.705119	3.778428	-0.717659	-2.73425	-7.192555	8.398365	-0.494758	-0.671067	-0.101838
-0.569077	-0.134715	9.891657	2.428449	2.840311	-0.114169	-0.002056	0.40186	-0.911459	2.463173	1.958584	11.882592	-46.965004	106.593395	-46.871908	0.108051	-0.392841	-0.915487	9.538622	3.487641	-0.344047	-2.307751	-8.143645	8.82927	-0.522365	-0.655283	-0.102815
-0.054942	-0.077888	9.845066	1.87926	3.300098	-0.227787	-0.030683	0.41638	-0.914177	3.046296	1.84513	12.234424	-47.101162	97.774693	-52.847331	0.121322	-0.391694	-0.930112	9.359238	3.545627	-0.466915	-2.284958	-9.183837	8.864717	-0.494482	-0.63703	-0.134568
-0.336388	-0.593689	10.06474	1.391538	3.634464	-0.098278	-0.015833	0.440362	-0.96017	3.286598	2.915453	12.806556	-45.013759	84.392267	-54.951566	0.134298	-0.391619	-0.930388	9.422656	3.546481	-0.226187	-2.140218	-9.972574	8.287223	-0.508599	-0.653426	-0.133801
-0.345917	0.266004	9.613535	1.363916	4.126371	-0.120871	-0.030297	0.402609	-0.910761	3.73514	2.857786	12.249784	-45.548244	69.207565	-53.839225	0.198148	-0.36489	-0.876375	9.595303	3.545087	-0.462513	-2.454443	-10.614445	8.1386	-0.467225	-0.667354	-0.163809
-0.748552	-0.251162	9.489862	1.058837	4.496497	-0.359321	0.026171	0.41841	-0.929649	4.478093	2.518164	11.982018	-48.352765	53.088183	-50.333646	0.185172	-0.364965	-0.876099	9.658295	3.255314	-0.282928	-2.766057	-10.733491	7.71239	-0.508808	-0.669619	-0.132964
-0.290434	-0.366377	9.498287	0.999344	4.835298	-0.445648	-0.003571	0.422346	-0.890139	4.93633	3.08056	11.935524	-51.649342	37.259704	-45.623346	0.146985	-0.332406	-0.905979	9.531075	3.892689	-0.701758	-3.074338	-10.579456	7.498818	-0.481413	-0.682924	-0.17857
-0.508192	-0.536123	10.06164	1.122678	4.990222	-0.504821	-0.003585	0.439645	-0.907631	5.50065	2.684694	11.380885	-56.639474	26.828252	-39.935911	0.185467	-0.363893	-0.890449	9.41951	3.952519	-0.34427	-3.351244	-10.612617	7.652803	-0.467151	-0.686851	-0.10086
-0.573448	-0.250563	9.663762	1.337169	5.022651	-0.566247	0.011293	0.429028	-0.91864	5.139758	2.572063	10.637222	-72.422859	34.87906	-35.922847	0.199479	-0.329962	-0.935781	9.41978	3.836367	-0.344765	-3.164559	-10.39784	7.651101	-0.481267	-0.703248	-0.100094
-0.388448	-0.075468	10.350063	1.154865	5.17371	-0.409928	-0.029525	0.375067	-0.903929	5.242398	3.024402	12.791115	-77.33015	57.649714	-30.614026	0.237967	-0.30124	-0.909916	8.949966	3.31501	-0.295886	-2.824163	-10.367923	7.833114	-0.480641	-0.654671	-0.102605
-0.226416	-0.479854	9.840037	0.423454	5.721699	-0.245576	0.011707	0.380658	-0.880241	5.857105	4.095216	14.729851	-57.064297	75.112988	-22.994846	0.187024	-0.283004	-0.952866	9.549087	3.722417	0.256011	-2.177806	-10.48763	7.80078	-0.494829	-0.670241	-0.117366
-0.511989	0.09501	9.893736	0.058464	6.212723	-0.328549	-0.002427	0.398332	-0.897383	7.093992	4.37336	13.397334	-27.501878	75.359157	-17.327303	0.224401	-0.303459	-0.880941	9.48787	3.722058	0.135096	-1.655834	-10.698912	7.708204	-0.536202	-0.656313	-0.087358
-0.505101	-0.19075	10.233648	-0.736258	6.48454	-0.22984	-0.003971	0.453416	-0.911047	9.06822	4.086322	11.513662	-12.125274	60.085379	-18.730771	0.238337	-0.284847	-0.92527	9.548661	3.43179	0.194868	-1.101746	-10.726243	7.584068	-0.494482	-0.63703	-0.134568
-0.224106	-0.594255	9.95326	-1.132926	6.853191	-0.376046	-0.016948	0.429777	-0.917942	10.771328	3.913149	10.416995	-10.114696	37.667046	-27.244503	0.225361	-0.284922	-0.924994	9.010353	3.19897	-0.235374	-0.889955	-10.810925	6.972412	-0.480921	-0.670037	-0.117296
-0.396983	-0.594371	9.893067	-1.192157	7.347729	-0.643851	-0.001699	0.422688	-0.943027	10.708127	3.068014	10.075237	-9.91077	18.674013	-38.438125	0.251684	-0.26838	-0.940899	9.365706	3.605187	-0.107227	-0.553596	-10.866467	6.543556	-0.4949	-0.669415	-0.132894
-0.629838	0.094369	9.720949	-1.435148	7.74713	-0.728664	-0.016191	0.419534	-0.928602	9.969447	3.069795	10.512638	-4.455993	7.063783	-48.13589	0.264585	-0.283625	-0.940171	9.187827	3.489192	-0.170929	0.709929	-10.643396	6.110013	-0.48057	-0.655497	-0.087077
-1.033752	-0.193272	9.541389	-2.111378	7.436672	-0.731763	-0.003242	0.477772	-0.95669	9.100222	2.2825	10.154003	8.147	4.0188	-55.060807	0.264365	-0.269377	-0.926825	9.367637	3.721833	0.013082	2.380474	-10.275401	6.591237	-0.480779	-0.671689	-0.08624
-0.393559	-0.708531	10.063143	-2.324835	7.77684	-1.001633	-0.017348	0.460847	-0.938849	8.108228	2.959824	9.567625	17.280911	0.4558	-59.835865	0.251394	-0.209242	-0.916214	9.248774	3.605704	-0.049521	4.072846	-10.66631	6.525844	-0.480988	-0.687882	-0.085403
-0.168296	-0.135005	9.899451	-2.84538	7.773017	-0.877524	0.039506	0.462877	-0.954322	7.585866	3.298635	9.38711	23.774301	-8.920321	-62.328157	0.263919	-0.30109	-0.910468	9.195935	3.316695	0.247677	4.75827	-10.491063	7.561722	-0.508666	-0.671271	-0.101908
-0.23145	0.323363	9.616003	-2.603161	7.50106	-1.189323	0.025399	0.445952	-0.936481	6.652384	2.849194	8.744353	27.97606	-18.526695	-62.266157	0.264365	-0.269377	-0.926825	9.071185	3.838413	-0.051833	5.971293	-10.072066	8.869618	-0.480641	-0.654671	-0.102605
-0.506214	-0.190992	10.176794	-2.173329	7.563482	-1.097541	0.025399	0.445952	-0.936481	6.573598	2.566795	7.723394	29.221988	-22.329453	-59.806188	0.27719	-0.299943	-0.925093	9.19443	3.490676	0.188512	6.965639	-9.182736	8.984033	-0.508733	-0.689116	-0.070015
-0.345586	-0.193528	9.611604	-3.608034	8.479031	-1.109199	-0.002827	0.429402	-0.918291	5.588595	2.117699	7.362625	22.242484	-21.806811	-54.782204	0.251458	-0.314341	-0.937888	9.372558	3.025663	0.189836	8.974246	-8.128291	8.26873	-0.494762	-0.652396	-0.149258
0.238342	-0.53618	10.189822	-3.1187	8.891251	-2.023955	-0.001327	0.426216	-0.957103	-0.059072	7.677213	39.802064	-41.32889	-15.200793	-62.96698	0.251238	-0.300093	-0.924542	9.13939	3.201172	0.365896	10.650235	-6.373422	7.734682	-0.494478	-0.655701	-0.087147
-0.808365	0.207929	9.376973	-5.15402	11.489594	-1.607846	0.010936	0.4082	-0.887072	-1.244155	-8.246211	-6.37742	174.247798	-15.444291	-10.207036	0.26503	-0.251913	-0.956528	9.672756	3.665307	0.557499	12.160758	-4.814926	5.429437	-0.480921	-0.670037	-0.117296
-0.225178	-0.651937	9.896166	-10.073788	14.428485	-2.588642	0.03952	0.445578	-0.93683	0.245813	-2.885647	7.302616	174.226136	3.997104	8.421424	0.251533	-0.299021	-0.938892	9.482368	3.720821	-0.164438	12.314479	-2.547031	2.086602	-0.480708	-0.672516	-0.070712
-1.130937	-1.051194	10.388339	-14.376826	17.171222	-2.286331	0.039949	0.379909	-0.880939	0.375834	0.947851	11.045263	146.342696	9.057318	-8.475329	0.263248	-0.378764	-0.8911	9.771811	3.776986	-0.458223	9.86225	-0.5654	1.872082	-0.508528	-0.654253	-0.118273
-0.612431	-0.878518	10.569643	-15.035103	23.94973	-1.346217	-0.030697	0.43368	-0.931668	-0.703553	3.314155	9.213027	105.874895	6.852277	-12.444917	0.250492	-0.393087	-0.90417	10.651321	4.819588	-0.616987	5.745317	1.533887	1.540777	-0.480433	-0.638478	-0.103442
0.783514	0.631379	14.69495	-10.586221	35.865262	3.956156	0.011293	0.429028	-0.91864	-1.789088	5.344576	9.758161	78.326699	2.484175	-2.768996	0.249681	-0.380982	-0.862125	10.166277	5.166404	-1.283283	1.224695	3.388929	1.028721	-0.494482	-0.63703	-0.134568
-0.350382	-0.354473	12.281862	-16.82287	46.972231	5.687995	0.025414	0.428653	-0.918989	-0.171952	3.201046	9.846848	39.134191	-2.069796	3.319802	0.289055	-0.349045	-0.879309	10.573193	4.989748	-1.635763	-3.082162	4.503665	1.191815	-0.494687	-0.671893	-0.08631
-0.645438	-0.52852	11.820746	-14.261124	58.740863	6.82259	0.03992	0.414507	-0.915923	-0.55948	1.456028	10.403312	22.733619	-1.951482	4.972512	0.276148	-0.394009	-0.890372	10.270679	4.87254	-2.061108	-7.701601	3.979935	2.922595	-0.453034	-0.670455	-0.101627
-0.593046	-1.506274	11.533492	-13.796367	67.250315	9.934217	0.025799	0.414882	-0.915573	-0.116181	2.243177	9.677332	20.486088	-3.762124	5.538439	0.263768	-0.331731	-0.908461	10.507263	4.174841	-2.11958	-8.180749	1.929687	2.842424	-0.467084	-0.669006	-0.132753
-0.46617	-0.124865	12.223747	-15.682821	72.807565	12.268593	0.01205	0.418785	-0.9293	-0.409813	2.750501	9.445156	10.696285	-3.842027	3.433438	0.275187	-0.412545	-0.846319	10.342995	3.887585	-1.465141	-5.330528	-0.045489	2.566456	-0.467084	-0.669006	-0.132753
-1.230355	-0.358435	11.184951	-17.513642	78.819417	12.463586	0.094473	0.481864	-0.934399	0.112633	1.735676	9.568462	1.402859	-3.702407	1.546825	0.263688	-0.407261	-0.917792	9.947509	4.357341	-0.45245	-4.274149	-2.606373	2.1164	-0.536552	-0.670853	-0.117576
-0.758175	0.103902	11.934879	-20.049406	84.952805	12.478593	0.066632	0.451543	-0.912793	-0.399196	1.624222	9.840685	-0.819649	-3.663662	0.682234	0.249235	-0.412695	-0.845768	9.422811	3.953261	-0.16455	-4.900939	-4.576361	3.106105	-0.494967	-0.68726	-0.101001
-0.714733	-0.81834	11.193042	-21.387394	91.616653	12.253453	0.080781	0.41657	-0.878158	0.001345	1.623373	9.735868	-1.402629	-3.421156	-0.02487	0.250121	-0.40948	-0.888817	9.370398	3.954879	0.193791	-5.888322	-5.634104	4.490101	-0.495037	-0.686433	-0.116529
-1.216827	-0.585306	11.866223	-23.661603	95.00755	13.051098	0.053269	0.441675	-0.923104	-0.055359	1.172837	9.73428	-2.228788	-2.846075	-0.482238	0.275552	-0.456363	-0.872008	9.541519	3.66261	-0.163585	-5.241971	-5.412297	3.967114	-0.466733	-0.654467	-0.102535
-1.513695	-1.334251	11.288987	-23.298001	103.010141	14.65209	0.095245	0.454322	-0.927567	-0.109297	1.173087	9.90299	-2.62492	-2.450307	-0.81773	0.23663	-0.396378	-0.860845	9.074912	4.129782	0.189031	-3.395339	-3.971145	1.294522	-0.523129	-0.720879	-0.083939
-1.450133	-0.815871	11.633391	-21.718296	109.42015	16.285009	0.150998	0.428468	-0.88332	-0.275279	1.455347	10.239438	-2.184602	-1.831513	-0.811223	0.237365	-0.423803	-0.901887	9.309336	4.361299	0.134515	-0.188092	-2.066896	-1.324026	-0.508874	-0.687464	-0.101071
-1.382691	-1.043508	12.145217	-17.133269	117.185021	16.152735	0.15177	0.400926	-0.876488	0.29597	1.228758	10.024779	-0.874915	-0.835576	-0.522814	0.289055	-0.349045	-0.879309	9.421171	4.185317	-0.223468	2.470707	-0.021761	-2.96322	-0.494829	-0.670241	-0.117366
-1.440153	-0.756258	12.14531	-15.972796	125.222033	17.690645	0.164361	0.438336	-0.873009	0.055715	1.397801	9.566968	0.67077	-0.696337	-0.057764	0.250121	-0.40948	-0.888817	9.007902	3.779483	-0.292808	3.928404	1.42652	-3.494966	-0.494967	-0.68726	-0.101001
-1.454255	-1.276369	11.404048	-9.696968	133.636177	17.840052	0.165119	0.428093	-0.883669	0.298519	1.792205	10.195172	2.466362	-0.367757	0.07026	0.275558	-0.396153	-0.861673	8.657262	4.187814	-0.058053	4.404223	2.582716	-2.738154	-0.452825	-0.654262	-0.102464
-1.678529	-1.677329	11.625317	-6.805738	138.880915	19.756875	0.166276	0.38678	-0.873422	0.121742	1.398025	9.964654	4.631535	-0.097617	0.475454	0.223874	-0.410702	-0.873916	8.30274	3.897997	-0.125798	3.518477	3.029208	-1.85077	-0.509016	-0.685811	-0.132127
-2.441849	-1.566008	10.644822	-2.478103	143.330568	21.93259	0.178482	0.437962	-0.873358	-0.168395	1.342139	9.845283	7.59391	-0.306717	0.691555	0.275332	-0.442114	-0.858662	8.244824	3.89838	-0.066992	2.448098	3.691688	-1.208242	-0.467013	-0.669833	-0.117225
-2.612581	-1.450759	10.698817	0.190479	147.001796	24.345705	0.262805	0.466785	-0.896361	0.061867	1.341707	9.850119	11.272903	-0.045419	0.697114	0.249901	-0.395231	-0.875471	8.466563	3.42977	-0.903265	2.296193	3.935224	-1.147729	-0.480921	-0.670037	-0.117296
-2.672311	-1.106551	10.585446	5.18621	151.096315	25.593771	0.291075	0.431437	-0.862076	-0.221664	1.624089	10.07087	12.697162	0.218334	0.639226	0.250121	-0.40948	-0.888817	8.30272	3.433142	-0.187683	3.95757	4.227558	-2.224828	-0.494691	-0.653222	-0.133731
-2.720575	-1.219463	11.038674	7.944552	155.30561	26.635493	0.246455	0.445989	-0.811556	-0.110614	1.22937	9.846397	12.329725	0.459754	0.518018	0.237516	-0.393162	-0.903895	7.934472	3.837517	-0.911438	5.650001	4.333308	-2.995517	-0.537533	-0.7153	-0.192704
-2.936728	-0.527104	11.719353	11.686759	160.980256	26.165056	0.304095	0.403178	-0.802706	0.056169	1.792162	9.62394	10.382076	0.284554	0.083116	0.250121	-0.40948	-0.888817	8.281291	4.125604	-1.26304	6.859491	5.349006	-3.188117	-0.494833	-0.65157	-0.164786
-3.334335	-0.296324	11.883083	15.546697	166.731707	24.377006	0.318587	0.406332	-0.817131	0.065948	1.736211	10.077009	8.493356	-0.076469	0.047178	0.23648	-0.427019	-0.858838	8.10934	4.301473	-0.966066	5.631795	6.296344	-3.524375	-0.48148	-0.700769	-0.146677
-2.490817	-0.702414	11.102153	15.953117	173.940975	22.622585	0.333465	0.395714	-0.82814	-0.057106	1.454442	9.677877	6.976081	-0.371659	0.043022	0.275998	-0.42465	-0.888365	7.69005	4.591562	-1.272067	3.303368	7.625712	-2.727671	-0.494277	-0.602166	-0.182825
-4.159363	-0.185927	10.674062	16.409681	179.962719	19.959433	0.360949	0.405208	-0.818178	0.227441	1.904452	9.571022	6.601853	-0.652348	0.03993	0.287573	-0.414614	-0.817895	7.344041	3.95502	-0.921948	1.74558	8.461471	-1.259023	-0.495041	-0.667762	-0.163949
-4.962696	-0.817686	10.542113	8.299798	179.949847	15.076213	0.402553	0.414327	-0.808566	0.053967	1.679406	9.510566	4.808709	-0.767882	0.16065	0.250196	-0.394159	-0.889821	7.700068	4.070856	-0.795037	0.834422	9.145977	0.269148	-0.467852	-0.715931	-0.161298
-5.633995	-1.043577	11.323729	-3.761155	173.054805	14.170838	0.404111	0.341943	-0.777411	-0.109836	1.454739	9.903227	3.602609	-0.904219	-0.0883	0.262802	-0.410476	-0.874743	7.342805	4.012849	-0.981607	1.18072	9.816735	0.600885	-0.481066	-0.649713	-0.195772
-4.297705	-1.110216	9.417206	-11.21235	167.894951	13.801721	0.40221	0.3762	-0.759506	0.242163	1.79236	10.250602	3.626486	-1.4558	-0.093766	0.223874	-0.410702	-0.873916	7.406898	3.723322	-0.742116	2.267033	10.428029	1.021917	-0.49553	-0.699321	-0.177803
-6.510486	-2.150791	7.437545	-36.2683	159.17702	16.614584	0.444586	0.357777	-0.743062	0.068665	0.947631	10.132985	4.024167	-1.757558	-0.065618	0.289564	-0.422431	-0.91734	8.048683	4.533665	-1.026084	3.469551	10.370226	1.109527	-0.481204	-0.666732	-0.179407
-7.144341	-1.794064	10.154579	-47.393992	150.635929	23.03921	0.444214	0.354248	-0.728986	-0.513441	1.793477	9.895049	4.758909	-2.269863	-0.008465	0.289124	-0.393934	-0.890648	8.286929	4.068764	-0.963753	3.566274	10.735133	1.351941	-0.453672	-0.663019	-0.241378
-6.707669	-1.511772	9.084485	-30.645253	131.673107	25.258436	0.458335	0.353874	-0.729336	0.064631	1.792494	10.020417	4.632724	-2.456832	0.205371	0.3021	-0.393859	-0.890924	8.686971	4.006776	-1.67518	2.338168	11.031252	1.874551	-0.509087	-0.684985	-0.147655
-5.188564	-1.46124	7.750316	-11.103785	114.646527	25.722634	0.472113	0.315372	-0.680625	-0.862999	2.075634	9.718114	4.076095	-2.466705	0.636419	0.237	-0.379986	-0.876199	8.930469	4.124119	-1.250936	1.720278	10.596656	2.276187	-0.453109	-0.650957	-0.164576
3.167999	-1.882451	4.842243	3.028834	89.77167	27.761296	0.499596	0.324866	-0.670664	-0.338781	1.398887	9.954983	3.520361	-2.414644	0.975599	0.262802	-0.410476	-0.874743	9.390379	4.64325	-1.838976	1.529868	10.699429	1.145544	-0.495392	-0.682302	-0.194168
13.118104	-2.007199	4.410124	19.626493	29.705024	20.205891	0.498839	0.335109	-0.660003	-0.172106	2.01801	9.732573	2.225473	-2.216852	1.03818	0.262947	-0.440045	-0.887085	10.109712	4.586026	-1.226949	1.584522	9.87463	1.057593	-0.481271	-0.684577	-0.147514
16.04183	-1.031841	4.698426	27.425261	-38.536713	-5.918858	0.515217	0.321305	-0.709825	0.061651	1.454369	9.850214	-0.027488	-2.033022	1.377305	0.223874	-0.410702	-0.873916	10.287705	4.179089	-1.225378	1.783965	8.75772	-0.313133	-0.508811	-0.650948	-0.180384
19.730549	-3.397117	2.998464	36.137953	-94.953125	-21.337105	0.528609	0.296575	-0.66453	-0.284172	1.680337	9.84315	-2.344873	-2.092683	1.313191	0.262576	-0.456438	-0.871732	10.638636	4.119461	-1.398743	2.812771	6.904588	-1.194333	-0.453739	-0.680864	-0.209485
16.02229	-3.276645	3.608807	30.175247	-126.05908	-30.352334	0.501468	0.325208	-0.723551	-0.111045	1.454692	9.846587	-3.984388	-2.267589	1.433445	0.23692	-0.455516	-0.88553	10.463363	3.829733	-1.343374	4.291963	4.455203	-3.41905	-0.495671	-0.697668	-0.208858
13.85582	-3.675231	4.019629	20.046039	-147.499175	-31.346307	0.471713	0.346443	-0.701533	0.177752	0.947178	9.852205	-4.509793	-2.303911	1.27852	0.262651	-0.441117	-0.872736	10.810317	4.059744	-1.695224	6.730499	2.685738	-5.986622	-0.481555	-0.681272	-0.209625
12.811204	-3.377827	6.21695	14.070923	-179.512087	-34.211037	0.500339	0.331923	-0.698815	0.063745	1.623455	9.963635	-4.56671	-1.935705	1.127995	0.264278	-0.405117	-0.946492	10.519233	4.235636	-1.460357	8.244524	1.998735	-10.022868	-0.482252	-0.729023	-0.222642
11.071741	-3.081614	8.002938	16.131875	-212.425571	-41.530739	0.458707	0.357402	-0.743411	0.35794	1.454162	10.252736	-4.313901	-1.502249	0.978368	0.24938	-0.442264	-0.85811	9.75652	3.250593	-1.359052	9.368254	2.283809	-13.542697	-0.509437	-0.699525	-0.177873
7.488794	-2.49928	9.185969	21.041668	-235.102956	-49.981082	0.444958	0.361305	-0.757138	-0.110267	1.680061	9.903416	-3.787952	-1.463109	0.701727	0.262281	-0.45751	-0.857382	9.342482	4.122926	-1.303139	8.534651	2.996992	-14.765458	-0.496297	-0.746246	-0.206347
4.235645	-2.954279	9.632247	18.475603	-244.834718	-55.592371	0.388847	0.366332	-0.769817	-0.336364	1.398982	10.068262	-3.289352	-1.148173	0.396978	0.237516	-0.393162	-0.903895	8.809676	3.891343	-1.433846	7.007108	4.082289	-13.756646	-0.439969	-0.697678	-0.19305
1.352331	-2.829321	11.452094	7.637102	-246.423518	-58.286664	0.38919	0.404459	-0.818877	-0.117197	1.510785	9.563436	-3.563156	-0.843239	0.122337	0.289194	-0.438823	-0.901987	8.635523	4.066718	-1.256685	5.908005	4.864817	-12.90073	-0.49588	-0.713861	-0.208021
-1.254773	-2.6493	12.766071	-3.129618	-242.211746	-59.690513	0.362478	0.367423	-0.822007	0.295324	1.566741	10.025063	-3.651241	-0.505489	-0.121	0.223874	-0.410702	-0.873916	8.809541	3.949419	-1.433599	5.047888	5.228167	-12.83823	-0.495112	-0.666936	-0.179477
-3.046913	-2.524405	14.777634	-7.80022	-233.478865	-61.191888	0.291875	0.369296	-0.820261	-0.280223	1.511488	10.012927	-3.182328	-0.127403	-0.764253	0.23744	-0.408483	-0.902891	8.692339	4.066088	-1.375398	4.001036	5.221559	-12.55937	-0.523487	-0.698077	-0.208999
-4.705437	-2.005747	14.86122	-6.750754	-221.92473	-62.295762	0.249513	0.37042	-0.819213	-0.162327	1.962059	10.185643	-1.63488	0.049546	-1.377809	0.262651	-0.441117	-0.872736	8.40247	3.719296	-1.142756	3.110494	4.931996	-11.485165	-0.48176	-0.716136	-0.161368
-5.740098	-2.52294	14.611593	-6.476498	-209.278573	-59.698153	0.220486	0.41601	-0.842838	0.239183	1.454235	10.080399	0.193608	0.474736	-1.896186	0.223799	-0.426022	-0.872912	7.937483	3.489556	-0.793107	2.066528	4.671525	-10.318854	-0.467788	-0.679415	-0.240611
-6.094262	-3.214402	14.033486	-9.587266	-196.980382	-52.280038	0.221229	0.423067	-0.87099	-0.048644	1.454774	10.074354	1.189505	1.012002	-2.414117	0.237956	-0.421659	-0.930587	8.282216	3.254216	-1.326656	1.635781	4.637175	-10.103207	-0.481901	-0.714483	-0.192423
-6.675714	-3.215918	13.567526	-14.367256	-184.864137	-40.412406	0.205608	0.426627	-0.831829	-0.109728	1.398409	9.903179	2.459352	1.273793	-2.472148	0.223799	-0.426022	-0.872912	8.525984	3.255407	-0.902906	1.051911	5.097076	-10.408891	-0.453597	-0.682516	-0.178429
-6.104491	-2.929366	13.523015	-16.153156	-170.665653	-26.557334	0.165119	0.428093	-0.883669	0.06748	1.567267	10.133507	2.89358	1.402744	-2.593828	0.275483	-0.411473	-0.860669	8.691508	3.949689	-1.4358	-0.114202	5.113365	-9.426812	-0.482319	-0.746868	-0.190749
-5.878197	-2.240716	13.416658	-14.15173	-153.462308	-13.125545	0.165104	0.445393	-0.901161	-0.51137	1.34288	9.951309	3.411993	0.915954	-2.16666	0.223573	-0.471983	-0.869901	8.341368	3.196005	-1.325803	-1.365358	5.86034	-8.142295	-0.523487	-0.698077	-0.208999
-5.216547	-2.53397	12.121192	-11.247192	-138.338066	-0.497888	0.151012	0.411169	-0.865828	-0.228594	1.454813	9.73089	4.265675	0.094752	-1.526752	0.262431	-0.426869	-0.85939	8.700447	3.893591	-0.956792	-2.215624	6.360252	-6.491302	-0.495463	-0.681476	-0.209696
-4.832676	-2.250671	11.277397	-17.788364	-128.979436	12.215692	0.079238	0.471654	-0.891822	-0.051062	1.454679	9.961075	5.21636	-0.416414	-1.222789	0.263022	-0.424725	-0.888089	8.993732	3.718193	-1.071845	-2.912628	6.83139	-4.962953	-0.453601	-0.663845	-0.22585
-3.515208	-1.562084	11.362756	-26.97656	-124.712263	22.645455	0.108979	0.467719	-0.931332	-0.104092	2.243651	10.243728	6.938245	-1.009577	-0.94985	0.223278	-0.473055	-0.855551	8.9907	3.601299	-1.25206	-3.399512	7.283118	-4.443796	-0.509859	-0.713239	-0.223619
-3.780448	-1.384969	12.438121	-29.409933	-121.64179	30.184116	0.068118	0.465656	-0.969096	0.295994	1.848441	10.08194	4.988767	-1.22269	-0.27532	0.237365	-0.423803	-0.901887	8.816974	4.067302	-1.013756	-3.175166	7.702393	-3.49919	-0.495671	-0.697668	-0.208858
-4.16927	-0.979934	13.0574	-26.397338	-118.703917	35.374362	0.039134	0.459349	-0.940246	0.464848	1.960636	9.915743	5.104232	-1.864689	-0.343267	0.262431	-0.426869	-0.85939	9.053983	3.660229	-1.011085	-2.771099	8.008168	-3.349302	-0.496439	-0.744593	-0.237403
-4.979083	-0.349186	12.646494	-21.938445	-114.084805	39.330505	0.081524	0.423626	-0.90631	0.006288	1.567232	9.962379	4.632486	-2.543998	-0.53537	0.249531	-0.411623	-0.860117	9.353601	3.602467	-0.766202	-2.45938	8.033878	-2.769873	-0.48246	-0.745215	-0.221805
-5.31119	0.802548	13.270023	-19.474698	-104.107512	41.784993	0.053669	0.410605	-0.902196	0.291913	1.453937	9.855049	3.734467	-2.709497	-0.414426	0.275552	-0.456363	-0.872008	9.050797	3.136556	-1.252938	-2.487278	7.531388	-1.514318	-0.468348	-0.710148	-0.269992
-5.832586	1.548454	12.978873	-14.996884	-89.644079	42.589563	0.038377	0.469592	-0.929586	-0.334354	2.244082	10.238893	3.355129	-3.36039	-0.082094	0.249311	-0.397375	-0.846771	9.874302	3.831331	-1.294472	-2.51593	6.71984	0.048356	-0.454227	-0.712422	-0.223339
-5.483492	1.549412	13.26982	-7.067057	-74.788204	39.956633	0.011665	0.432556	-0.932716	0.287208	2.0171	9.685605	3.660909	-3.601996	-0.053423	0.262431	-0.426869	-0.85939	8.753535	3.601592	-1.316369	-2.332384	6.195421	0.539201	-0.482114	-0.712004	-0.239007
-6.066099	1.605097	12.747248	-0.052234	-61.741036	33.709542	0.010521	0.45657	-0.925472	0.293445	1.284993	9.911547	3.379163	-3.882521	0.097702	0.262727	-0.425797	-0.873739	9.111474	3.36922	-1.131034	-1.87033	5.949522	0.813769	-0.468277	-0.710974	-0.254464
-6.228778	1.996896	10.302028	-3.324207	-54.827266	24.571179	-0.001313	0.408917	-0.939611	0.173825	1.735711	9.739589	2.88494	-3.88839	0.03559	0.23751	-0.453372	-0.91423	9.238154	2.964148	-0.711216	-1.376024	6.011532	0.903372	-0.468135	-0.712626	-0.223409
-6.587313	1.189586	9.496025	-18.80844	-54.198526	14.322734	-0.017348	0.460847	-0.938849	0.010477	1.905405	10.189222	2.69373	-4.350727	0.030839	0.289199	-0.378614	-0.891651	9.290163	3.136758	-1.068815	-0.755762	6.193195	1.29758	-0.467997	-0.695608	-0.239774
-6.965949	1.367026	10.626016	-33.844755	-54.132198	2.345856	-0.002113	0.471057	-0.981426	0.061674	2.074052	9.907375	1.887138	-4.607452	0.212606	0.23648	-0.427019	-0.858838	8.997978	3.312403	-0.893855	-0.506882	6.283017	1.571319	-0.481834	-0.696638	-0.224316
-6.783548	2.058612	11.200784	-32.856273	-58.704131	-11.562897	-0.016619	0.485203	-0.984493	-0.048968	1.623765	10.074497	1.541184	-5.101813	0.114927	0.249675	-0.441192	-0.87246	9.289218	3.54329	-1.067085	-1.020731	6.820415	2.670897	-0.454302	-0.692925	-0.286287
-7.400234	2.406613	11.87222	-17.737	-63.773564	-24.632063	-0.029968	0.458036	-0.977312	-0.10949	1.905431	9.960246	0.825205	-5.511296	0.387733	0.211413	-0.423953	-0.901336	8.701392	3.487059	-0.958522	-0.405593	6.949724	2.2096	-0.495675	-0.678997	-0.256279
-9.031319	2.574066	10.420439	-4.719231	-55.667964	-31.899365	0.038348	0.50419	-0.96457	-0.110052	1.5674	9.903321	1.123504	-6.335963	0.472257	0.249751	-0.425872	-0.873464	9.167054	3.426419	-1.309407	0.335186	7.137191	2.083769	-0.481976	-0.694986	-0.255372
-10.637701	2.45962	10.21822	0.062639	-35.966908	-32.237095	-0.045589	0.461596	-0.938151	-0.283095	1.117032	9.842676	0.868127	-6.983289	0.496443	0.210157	-0.443561	-0.842933	8.991106	3.427071	-1.252802	0.153069	7.565743	1.990693	-0.467788	-0.679415	-0.240611
-10.979291	2.862442	10.326934	1.326775	-12.636298	-28.947543	-0.074959	0.46906	-0.912716	0.349047	1.679152	9.856448	0.866998	-7.046433	0.773268	0.236995	-0.440195	-0.886534	8.80869	3.368164	-1.555885	-0.738981	7.403268	2.605968	-0.454861	-0.723657	-0.315668
-10.620465	3.267661	11.131247	9.536326	4.586571	-26.482771	-0.017362	0.478146	-0.956341	0.237974	1.454187	10.023759	0.553497	-7.389091	0.985405	0.2496	-0.456513	-0.871456	9.169099	3.020134	-1.251231	-3.050269	7.330617	2.920321	-0.482043	-0.712831	-0.223479
-10.523316	2.631862	10.22117	23.206998	13.666169	-24.718218	-0.04406	0.423811	-0.941979	0.061436	1.56703	9.850309	0.4898	-7.514351	1.261562	0.236555	-0.411698	-0.859842	8.691893	3.310606	-1.498426	-5.488798	7.420249	2.286892	-0.482673	-0.742737	-0.268388
-9.98108	1.41842	8.635351	31.081806	17.026988	-22.447185	-0.045604	0.478896	-0.955643	0.695086	1.340522	9.863417	0.818253	-8.399768	1.314679	0.249531	-0.411623	-0.860117	8.811141	2.787651	-1.49845	-7.248998	7.170778	2.14164	-0.496719	-0.75996	-0.252094
-8.97149	1.183324	7.57422	29.174084	17.327632	-17.222637	-0.031083	0.447451	-0.935084	0.63016	1.396676	9.522418	1.426697	-9.185635	0.752448	0.223724	-0.441342	-0.871908	8.806759	3.251518	-1.676193	-9.036278	7.224582	2.239547	-0.454924	-0.760173	-0.236355
-11.645278	-3.731641	-0.568424	42.121555	60.963849	9.977728	-0.015819	0.423062	-0.942678	0.295563	2.073763	10.082129	0.706117	-9.962727	0.959938	0.210672	-0.456738	-0.870629	8.747318	2.961025	-1.738437	-10.368579	6.455991	2.15635	-0.496514	-0.725096	-0.300351
-0.102609	-5.648469	10.104811	29.939562	76.559524	57.66928	-0.058552	0.420658	-0.927554	-0.220909	1.229775	10.070538	-0.032319	-12.150103	1.091736	0.198362	-0.439349	-0.900056	9.2152	3.365736	-1.907623	-10.900112	5.13304	2.714731	-0.45416	-0.694577	-0.255231
0.717788	-2.427739	11.214122	38.591658	59.180195	57.361949	-0.001327	0.426216	-0.957103	-0.045018	1.454916	10.244273	-1.364021	-14.77853	1.866063	0.224094	-0.42495	-0.887262	9.444662	3.363712	-2.262663	-13.624347	3.529751	3.007322	-0.468277	-0.710974	-0.254464
2.593823	-2.432002	10.56863	14.762178	65.322403	42.538224	0.025785	0.432181	-0.933065	0.013757	1.454856	10.302122	-4.536972	-16.477997	2.370693	0.262061	-0.443261	-0.844036	9.737198	4.931337	-2.190578	-8.816759	1.157039	0.433916	-0.468907	-0.74088	-0.299374
0.726489	-2.138602	11.670154	38.932243	71.955549	14.888091	-0.001341	0.443515	-0.974595	0.081986	1.567836	10.813182	-10.988545	-20.890226	3.369794	0.210603	-0.411848	-0.85929	10.100274	5.80414	-1.581198	-4.131028	-1.808625	-1.035915	-0.497002	-0.756655	-0.314205
-1.926642	-1.451498	10.655326	58.218337	55.00887	-8.382087	0.013565	0.398299	-0.95062	0.082764	1.793205	10.870011	4.475232	-35.90842	8.627906	0.223799	-0.426022	-0.872912	10.645029	5.631663	-0.853153	-10.625604	-4.957732	5.482081	-0.469186	-0.756246	-0.314064
-1.839401	0.840532	9.359585	40.101523	30.989499	-3.35329	0.055527	0.428246	-0.972576	-0.800785	2.416083	12.663657	-15.944882	-43.372754	8.290642	0.211413	-0.423953	-0.901336	11.122931	5.515667	-0.54531	-15.395074	-6.576221	9.511059	-0.482811	-0.759755	-0.252023
-0.179846	0.436998	9.333333	11.919566	21.685299	6.083595	0.012422	0.422313	-0.943376	-0.285484	1.344643	12.447078	-17.54432	-54.871095	9.377369	0.17219	-0.42525	-0.886159	11.012156	4.762185	-0.25119	-14.091467	-6.49831	5.379731	-0.496443	-0.725922	-0.284823
-0.329831	-0.419917	10.406582	5.909845	17.999068	3.46495	0.024999	0.477023	-0.957389	-0.377516	1.909113	13.577927	-7.892274	-65.826884	10.201093	0.146684	-0.393688	-0.901964	10.549911	4.300635	0.217283	-10.912561	-5.844449	-0.564216	-0.482468	-0.707873	-0.316646
-2.050804	-0.419397	10.202618	8.945791	8.164618	-3.481241	-0.001684	0.405388	-0.925535	-0.434434	1.571237	13.576433	-5.50749	-77.512155	9.840236	0.198808	-0.407636	-0.916413	10.008321	4.531929	-0.330794	-5.82292	-5.213037	-6.636938	-0.468907	-0.74088	-0.299374
-0.12358	0.264391	9.27687	-3.38362	0.02155	-0.572602	0.012822	0.391243	-0.922469	-0.105966	1.569927	12.790732	3.321786	-90.154818	8.765998	0.17182	-0.441643	-0.870806	9.704997	4.763178	-0.754655	-4.658777	-5.070393	-8.200448	-0.482189	-0.692507	-0.301955
-0.401271	-0.825103	9.664689	-7.07197	-0.810434	-1.894238	-0.000198	0.419502	-0.981839	0.409621	2.244875	12.745542	9.49847	-100.012087	8.087262	0.17175	-0.396753	-0.859467	9.280299	4.064244	-1.484208	-9.297969	-5.025317	-5.280546	-0.482326	-0.709526	-0.28559
-0.622867	-0.306274	10.060379	-4.92523	-0.616373	-1.866595	0.042178	0.401079	-0.965395	-0.29731	2.470874	11.99491	10.682002	-108.812834	9.665503	0.133042	-0.411227	-0.871986	9.571653	3.772199	-1.719569	-10.741615	-5.661841	-3.377447	-0.468769	-0.723861	-0.315739
-0.686678	-0.480005	9.717423	-5.016416	-0.994625	-1.075107	0.027314	0.394397	-0.936894	-0.072231	2.019562	11.716168	10.725968	-117.295237	11.893405	0.146458	-0.439649	-0.898954	8.992922	4.066649	-1.070362	-9.017646	-6.8615	-2.124915	-0.454022	-0.677559	-0.271596
-0.459763	-0.652978	9.607447	-4.798467	-0.690476	-0.702774	0.012036	0.436084	-0.946792	0.788594	1.510828	11.563956	11.407354	-124.292773	13.458352	0.120431	-0.455119	-0.897398	8.936532	4.357906	-0.890505	-7.448401	-8.433172	-0.442156	-0.481909	-0.677141	-0.287264
-0.278967	-0.823497	10.064888	-4.122621	-0.785782	-0.154244	0.011679	0.415257	-0.915224	0.848877	0.722141	11.621141	11.309492	-129.599819	13.035594	0.120066	-0.411302	-0.87171	8.818634	4.3001	-0.892953	-6.027816	-9.053382	0.869865	-0.482677	-0.724065	-0.315809
-0.289113	-0.653343	9.553934	-3.512222	-0.994567	-0.466074	0.040292	0.418036	-0.929999	1.231608	0.551589	10.666588	15.825749	-134.131442	10.897841	0.080247	-0.474952	-0.838169	8.947246	4.011675	-0.352827	-4.200186	-8.969892	2.299321	-0.468631	-0.706843	-0.332104
-0.289155	-0.595902	9.554175	-3.726099	-1.216603	0.052288	0.040677	0.404265	-0.926583	1.122868	1.002733	11.004387	17.300784	-137.380326	8.46211	0.067642	-0.458635	-0.853246	8.013992	4.016308	0.228635	-1.964413	-7.532786	3.10958	-0.48198	-0.676314	-0.302792
-0.057827	-0.710468	9.671853	-2.775968	-1.055726	-0.193175	0.013937	0.401828	-0.964696	1.415877	1.453075	11.294009	18.539388	-141.969456	8.725798	0.04169	-0.458785	-0.852695	7.718506	4.191211	0.223875	-0.498329	-5.572763	3.369988	-0.468698	-0.724688	-0.300211
-0.221547	-1.053304	10.065036	-1.794898	-0.676453	-0.711192	0.025785	0.432181	-0.933065	1.077199	1.735659	11.62683	17.605231	-147.356493	9.442242	0.015443	-0.460007	-0.837794	7.656188	4.190604	0.043054	0.043009	-3.926975	4.124267	-0.496376	-0.708077	-0.316716
-0.288989	-0.825668	9.55321	-0.59838	-0.267533	-1.045339	0.0277	0.380625	-0.933478	1.80476	1.22643	10.622606	20.748442	-152.693732	10.439922	0.015738	-0.458935	-0.852143	7.84148	3.959626	0.464714	-0.028954	-2.476064	5.768064	-0.510004	-0.692915	-0.302096
0.290278	-0.882076	9.905222	-0.015399	-0.141539	-1.075637	-0.000927	0.395146	-0.936195	2.044261	1.4517	11.080748	23.873193	-157.106686	10.830198	-0.010064	-0.428445	-0.853599	7.783699	3.901932	0.523274	-0.453669	-2.428732	6.961389	-0.454306	-0.674254	-0.333708
0.17449	-0.652469	9.847107	1.180897	-0.013726	-1.015668	0.041449	0.376723	-0.919751	2.62639	1.225537	11.375846	31.527249	-160.071957	9.82038	-0.02341	-0.444912	-0.83797	7.897485	4.307452	0.347484	0.815103	-1.967241	7.137979	-0.468769	-0.723861	-0.315739
-0.397972	-0.766937	9.83549	2.160228	-0.036402	-1.325537	0.026542	0.421939	-0.943725	2.456112	1.225955	11.485498	34.033884	-162.212248	8.752961	-0.08888	-0.447431	-0.807892	8.308397	4.306013	0.235374	2.965055	-1.912498	5.540581	-0.496234	-0.70973	-0.285661
-0.230621	-0.825468	9.611177	3.264927	0.089938	-1.173322	0.013179	0.41207	-0.954036	2.961981	0.661158	10.872869	41.13809	-164.77838	6.636843	-0.075094	-0.459461	-0.850213	8.667436	4.073888	0.480615	4.715332	-2.140803	4.55728	-0.496305	-0.708903	-0.301188
0.008377	-0.766021	10.12755	4.187144	0.493049	-1.108089	0.013951	0.384528	-0.947205	3.717931	1.110733	11.285441	45.159019	-167.067159	3.041249	-0.102151	-0.448578	-0.793266	8.31583	4.423896	0.655216	5.425909	-2.10987	4.768507	-0.496652	-0.742115	-0.283986
-0.284784	-0.480054	9.78207	5.016474	0.710645	-0.984268	0.012793	0.425841	-0.957452	3.555383	2.12548	11.849064	52.804744	-165.738398	2.444036	-0.140419	-0.491548	-0.832478	8.251737	4.713422	0.415724	5.362508	-2.137844	4.493794	-0.482326	-0.709526	-0.28559
-0.29031	-0.538702	9.497563	5.140755	0.956724	-0.949958	0.042192	0.383779	-0.947903	4.941812	2.742766	12.161797	51.135272	-163.342512	3.607139	-0.128618	-0.435551	-0.765019	8.957845	4.188376	0.246984	4.44062	-1.681388	4.403262	-0.468281	-0.692303	-0.301885
-0.168131	-0.364771	9.898486	4.316261	1.132036	-0.484714	0.055169	0.407418	-0.941008	5.047919	2.404188	11.710814	61.198221	-160.965549	6.999149	-0.128699	-0.511081	-0.774351	8.951938	4.361367	-0.051809	4.111236	-1.018156	5.226519	-0.496723	-0.741288	-0.299514
-0.055476	-0.88231	9.784835	2.815738	1.121548	-0.173886	-0.015448	0.426591	-0.956754	4.246731	2.462218	11.920495	74.092178	-149.65043	10.081484	-0.168883	-0.530914	-0.715121	9.01358	4.652354	0.130249	2.913478	-0.783126	5.749327	-0.454231	-0.693751	-0.270759
-0.515039	-0.307805	9.721487	2.176278	1.669975	-0.009792	-0.000941	0.412445	-0.953687	3.975583	2.348375	9.989818	88.230148	-134.872544	16.220494	-0.181269	-0.528846	-0.743545	9.064738	4.243709	-0.349637	1.590976	-0.514796	5.966786	-0.496167	-0.691885	-0.317553
-0.341789	-0.824662	9.779509	1.506373	2.155056	0.306699	0.057056	0.390461	-0.976404	-1.398818	1.622864	6.139768	103.414533	-113.053205	21.906307	-0.246739	-0.531365	-0.713466	9.30644	4.186329	-0.045948	0.974285	-0.051238	5.294394	-0.468769	-0.723861	-0.315739
-0.351976	-0.597067	9.268796	1.294415	2.365699	0.617411	0.026185	0.401111	-0.912158	-7.853813	-0.67509	5.43603	74.735512	-61.154278	51.996209	-0.247329	-0.533508	-0.684767	9.307405	4.244652	0.014206	1.738738	-0.408919	4.651486	-0.495959	-0.675692	-0.31839
-0.109928	-0.134805	9.957418	0.529548	2.264365	1.10865	0.056698	0.369634	-0.944836	-12.676858	-2.749934	5.729204	70.205559	-22.133567	98.290458	-0.234278	-0.518113	-0.686046	9.663298	4.418565	0.141364	1.759428	-0.606857	3.093601	-0.46884	-0.723035	-0.331266
-0.049043	-0.536214	10.127401	-0.358972	2.322026	1.081477	0.027686	0.397925	-0.95097	-10.316076	-4.331702	5.664162	64.882846	5.697035	146.234845	-0.259935	-0.517191	-0.699845	9.184721	4.824941	-0.165243	2.585446	-0.870971	2.297218	-0.496305	-0.708903	-0.301188
-0.400116	-0.882303	9.721301	-1.248349	2.131748	1.234283	0.012436	0.405014	-0.925884	-7.649686	-5.972013	3.73722	45.069938	33.164354	169.219605	-0.247399	-0.488619	-0.673428	9.94861	4.357589	-0.392543	2.582718	-0.896832	1.838901	-0.481838	-0.677967	-0.271737
-0.56091	-0.65	10.287457	-2.137938	2.004672	1.234778	0.026171	0.41841	-0.929649	-4.417907	-6.428408	4.144377	10.363582	61.778251	155.845923	-0.285742	-0.54691	-0.711636	9.359393	3.952407	-0.405278	2.949991	-0.921362	1.379239	-0.510284	-0.708281	-0.316786
-0.336346	-0.651131	10.064498	-2.324931	1.48068	1.288136	0.026914	0.425467	-0.957801	-2.782152	-4.402436	5.482644	-13.19448	83.135169	115.42787	-0.272986	-0.532587	-0.698565	9.652428	4.358017	-0.457952	2.886505	-0.235064	0.061982	-0.482677	-0.724065	-0.315809
-0.627072	-0.651888	9.831518	-2.050242	1.360084	1.193382	0.027286	0.428995	-0.971877	-2.738803	-3.048702	7.636087	-22.434101	103.15732	72.174746	-0.297751	-0.468239	-0.745078	9.363545	4.534403	-0.103271	3.869878	0.054192	-0.951531	-0.496238	-0.691058	-0.333081
-0.396983	-0.594371	9.893067	-1.989971	1.238139	1.129892	0.071176	0.390087	-0.976753	-3.417106	-1.356876	8.359318	-17.027797	129.125531	37.937088	-0.247179	-0.502868	-0.686774	9.357057	4.009988	-0.524844	4.166729	-0.078102	-2.846845	-0.510146	-0.691263	-0.333151
-0.695337	-0.826584	9.26115	-1.684787	1.055527	1.095378	0.013165	0.42937	-0.971528	-3.481447	-0.343009	8.132404	-11.361194	154.83017	15.845906	-0.246809	-0.486475	-0.702128	9.067904	4.302527	-0.169669	3.974945	-0.127968	-4.007269	-0.468631	-0.706843	-0.332104
-0.401437	-0.595336	9.665654	-1.102022	0.994349	1.30738	-0.002113	0.471057	-0.981426	-3.484942	0.220202	8.019599	-12.76136	174.912609	5.532069	-0.233317	-0.499577	-0.730099	8.704308	4.126884	-0.716175	4.332903	-0.69365	-5.381144	-0.496376	-0.708077	-0.316716
-0.120815	-0.481867	9.387439	-1.163962	1.027228	1.093419	0.039906	0.431807	-0.933414	-3.129617	1.346639	8.594197	-18.336152	188.262213	4.766449	-0.220197	-0.529071	-0.742717	9.128696	4.012259	-0.109898	4.997808	-1.690253	-6.387323	-0.454652	-0.707465	-0.316506
-0.29163	-0.251735	9.441917	-1.196543	0.782274	0.997528	0.012393	0.456912	-0.97836	-2.770388	1.064862	9.224249	-22.510743	195.822557	11.435674	-0.180748	-0.481813	-0.760905	9.178098	4.358602	-0.586569	4.620669	-2.702599	-6.22832	-0.496585	-0.72427	-0.315879
-0.226457	-0.422412	9.840278	-1.380509	0.750336	1.028206	0.055541	0.410947	-0.955084	-2.020937	1.119839	9.296652	-25.659303	199.304862	20.809023	-0.193353	-0.465495	-0.775983	9.239835	3.661802	-0.528528	5.082494	-2.979073	-5.95362	-0.496234	-0.70973	-0.285661
-0.225302	-0.479613	9.89689	-1.412217	0.565454	1.055961	0.013165	0.42937	-0.971528	-0.968266	1.343885	10.111557	-29.244846	197.375897	27.877741	-0.128329	-0.494689	-0.789704	8.826742	4.127603	-0.474347	5.604225	-3.15883	-6.13802	-0.482259	-0.691681	-0.317483
0.008418	-0.823463	10.127308	-1.719257	0.534334	0.964335	0.042178	0.401079	-0.965395	0.071753	1.229426	10.303141	-34.574156	191.562394	30.775245	-0.166962	-0.493842	-0.803227	8.830294	3.547337	-0.357005	5.78864	-3.126	-6.291651	-0.524121	-0.709312	-0.301329
-0.00181	-0.538426	9.616837	-1.994243	0.436679	1.331553	0.012793	0.425841	-0.957452	1.294917	1.340393	11.008298	-38.445965	185.823454	29.728438	-0.126853	-0.48933	-0.861453	8.474826	3.664052	-0.42302	6.190158	-3.187942	-6.07888	-0.496518	-0.706425	-0.347772
-0.28136	-0.594213	9.952147	-1.719117	0.346119	1.298621	-0.000555	0.398674	-0.950271	1.43699	1.791912	12.313806	-36.314215	183.143	26.897953	-0.100895	-0.42897	-0.851669	8.891241	3.663848	-0.235597	5.608821	-3.322807	-5.067602	-0.510142	-0.709934	-0.285731
0.23756	-0.995953	10.131038	-1.255056	0.930431	1.46012	-0.001313	0.408917	-0.939611	1.440485	1.228702	12.426611	-31.44731	181.581931	22.10774	-0.035425	-0.426451	-0.881747	8.717629	3.606919	-0.059425	5.763153	-3.664088	-4.546983	-0.496447	-0.707251	-0.332244
-0.400572	-0.250446	9.723955	0.032866	1.122222	1.336859	0.027671	0.415224	-0.968461	1.965396	1.453338	12.777519	-26.730762	177.792395	15.877128	-0.061452	-0.441921	-0.880192	8.834135	3.315775	-0.178274	5.400732	-3.152028	-3.906315	-0.538308	-0.724882	-0.31609
-0.450689	-0.880814	10.061306	1.627006	1.410073	0.999604	-0.002099	0.453758	-0.963935	3.118152	1.958252	12.915403	-23.100591	171.114364	8.938739	-0.02282	-0.442768	-0.866669	8.706644	4.069302	-0.596609	4.822008	-2.764045	-3.172583	-0.524401	-0.724678	-0.316019
-0.164417	-0.881021	10.066874	3.15846	1.482515	0.659027	0.026528	0.439238	-0.961217	3.118452	1.169577	12.858099	-22.620319	162.155948	2.622609	-0.009844	-0.442693	-0.866945	8.354458	3.721904	-0.544788	4.029059	-2.876662	-1.427122	-0.523841	-0.693945	-0.286638
-0.456381	-0.709696	9.777765	4.812969	1.554139	0.440754	0.054026	0.431432	-0.933764	3.400473	1.675823	12.638012	-23.592486	150.928463	-1.559232	0.042431	-0.426001	-0.883402	8.769212	3.488901	-0.478167	3.270098	-2.653636	0.408328	-0.495541	-0.643307	-0.320065
-0.283504	-0.709579	9.837958	5.60773	1.40733	0.160069	0.025399	0.445952	-0.936481	3.220116	2.520867	12.351899	-22.391163	136.057977	-2.045367	0.080988	-0.442168	-0.868875	8.937592	3.428443	-0.954368	2.962756	-2.998158	1.083472	-0.509867	-0.675896	-0.318461
0.230548	-0.537868	9.79185	6.89525	1.50623	0.096635	0.055155	0.424718	-0.9585	3.494969	2.350815	11.734765	-22.471821	119.975037	-2.544584	0.056217	-0.43803	-0.925723	8.76425	3.255361	-0.77869	2.621294	-3.460732	1.331422	-0.496167	-0.691885	-0.317553
-0.348429	-0.883551	9.438149	7.691488	1.668129	-0.30171	0.06969	0.375973	-0.92045	4.126849	1.78623	11.63431	-26.563179	108.569418	-9.412636	0.082464	-0.436808	-0.940624	8.940738	3.022405	-0.836285	2.502481	-3.656057	2.433065	-0.482122	-0.674662	-0.333848
-0.164624	-0.593813	10.06808	6.804436	1.815551	-0.112752	0.027671	0.415224	-0.968461	3.971184	1.730887	12.42359	-27.912189	103.535222	-20.099188	0.082244	-0.42256	-0.927278	8.759443	3.4286	-1.017576	2.720679	-3.846063	3.136143	-0.523983	-0.692293	-0.317694
0.054372	-0.596151	9.560856	5.85899	2.455089	0.023035	0.028057	0.401453	-0.965046	4.432616	2.518746	12.547205	-21.271882	97.418167	-32.485295	0.10797	-0.468371	-0.924819	9.410281	3.659914	-0.884669	2.816963	-3.728734	3.654817	-0.482397	-0.708699	-0.301118
-0.621298	-0.93789	10.114577	5.096616	3.160422	-0.147315	0.041049	0.407793	-0.940659	4.299999	2.180267	11.694908	-16.965705	87.446469	-45.774424	0.121612	-0.450832	-0.954797	9.235569	3.602737	-0.768403	2.882894	-3.891858	4.663966	-0.482185	-0.711178	-0.254535
-0.447763	-0.305675	10.234278	4.365888	3.831689	-0.01163	0.012436	0.405014	-0.925884	4.512991	1.728481	10.849771	-17.766626	74.281914	-58.852466	0.09478	-0.393988	-0.900861	8.947921	3.721295	-0.354063	3.197062	-3.684509	5.425941	-0.538238	-0.725708	-0.300562
-0.170316	-0.422695	9.784539	4.123998	4.478337	-0.2151	0.054412	0.417661	-0.930348	3.925487	2.236107	10.328352	-26.60283	63.4827	-69.72461	0.159955	-0.392541	-0.91659	9.35084	3.369421	-0.946912	3.731361	-3.422455	6.889845	-0.510004	-0.692915	-0.302096
0.066372	-0.248848	10.187688	4.098702	5.276511	-0.140719	0.026914	0.425467	-0.957801	4.035004	2.010332	10.047382	-43.242605	61.411629	-75.923314	0.173886	-0.434139	-0.971254	9.126704	2.501046	-0.41586	3.900651	-2.550268	8.382742	-0.510493	-0.724474	-0.315949
-0.456215	-0.939462	9.776799	4.223387	5.490116	0.046402	0.040663	0.421564	-0.944075	4.109086	2.855893	10.898896	-57.710795	67.914074	-76.579216	0.173522	-0.390322	-0.945565	9.47779	2.848198	-0.527588	4.462153	-2.34329	9.266106	-0.51063	-0.741492	-0.299584
-0.290102	-0.825909	9.496357	4.870398	6.04663	0.022916	0.069676	0.393273	-0.937941	4.0166	3.026001	11.972773	-61.822996	80.387401	-70.386214	0.173892	-0.37393	-0.960918	9.006491	2.965677	-0.47599	4.96104	-1.979491	9.751606	-0.509867	-0.675896	-0.318461
-0.221713	-0.823538	10.066001	5.301729	6.480259	-0.09395	0.055169	0.407418	-0.941008	4.657658	3.982814	12.439994	-54.959476	89.016058	-59.629728	0.212525	-0.374776	-0.947396	9.355781	3.138106	-0.708273	4.654617	-2.015287	10.150236	-0.496376	-0.708077	-0.316716
-0.911325	-0.363991	9.940864	6.316105	6.977025	-0.119464	0.028429	0.404981	-0.979122	6.325068	3.754271	12.361584	-44.581853	87.445445	-47.646162	0.226241	-0.341917	-0.978378	9.067979	2.849885	-0.35557	3.450776	-2.700135	10.891436	-0.495892	-0.657847	-0.350283
-0.512563	-0.651971	9.833745	6.255588	7.193594	-0.26911	0.014322	0.388057	-0.961281	7.63653	3.356957	11.766021	-39.174575	73.872182	-37.635255	0.212895	-0.358384	-0.962749	9.357152	3.022201	-0.648861	1.935098	-3.255223	10.807878	-0.509725	-0.677549	-0.287405
-0.115372	-0.308336	9.672428	5.799259	7.776379	-0.350329	0.042549	0.404607	-0.979471	8.543501	3.129342	11.105499	-38.994966	52.249429	-30.390294	0.225796	-0.373629	-0.962021	9.593912	3.196137	-0.583811	1.312762	-3.805518	10.568235	-0.523916	-0.674448	-0.349586
-0.400323	-0.595095	9.722508	5.988885	8.637006	-0.275551	0.028457	0.370383	-0.944138	9.338537	3.127406	10.612667	-41.51007	29.696959	-27.28737	0.251829	-0.297949	-0.953241	9.654589	3.4288	-0.461907	1.27914	-3.924516	10.232705	-0.52392	-0.655777	-0.397007
-0.111	-0.192488	9.900323	5.318539	9.2799	-0.324508	0.056684	0.386933	-0.962328	9.92591	2.056428	11.076972	-41.89224	14.211462	-27.53415	0.252269	-0.326446	-0.979934	9.425262	3.372748	-0.107115	1.706752	-3.946303	9.528259	-0.496167	-0.691885	-0.317553
-0.333829	-1.052739	10.176515	4.802355	10.202517	-0.58404	0.041035	0.425092	-0.958151	10.101694	2.337899	11.250755	-32.153659	9.575664	-31.148262	0.277404	-0.374401	-0.948775	9.536016	3.661374	-0.463119	2.687541	-3.962626	8.485571	-0.510355	-0.707455	-0.332314
-0.396284	-0.019715	9.952333	4.221217	10.572042	-0.883042	0.055927	0.397176	-0.951668	10.447218	2.900605	11.315122	-17.434227	14.871701	-38.882721	0.265395	-0.29573	-0.982217	9.478641	3.429452	-0.405302	4.037735	-3.88333	7.196581	-0.523633	-0.677753	-0.287475
-0.109555	-0.651779	9.955246	2.624211	10.386475	-1.433487	0.053269	0.441675	-0.923104	10.123987	2.449077	9.60951	-7.458798	18.448198	-50.768535	0.265395	-0.29573	-0.982217	9.186166	3.256394	-0.291732	4.373847	-3.56582	6.18522	-0.523707	-0.658255	-0.350423
-0.734983	-0.535475	10.170893	2.22184	9.957863	-1.745977	0.0277	0.380625	-0.933478	10.073459	2.56213	9.948233	-8.119131	13.952834	-63.236072	0.265019	-0.372332	-0.977198	9.538487	3.545717	-0.3438	4.56517	-2.614693	5.966037	-0.523774	-0.6761	-0.318531
-0.402882	-0.136045	9.610732	0.993507	9.802658	-2.112983	0.042564	0.387308	-0.961979	9.387725	2.450952	10.16019	-5.238839	-0.881822	-72.535951	0.264949	-0.327443	-0.96586	9.18329	3.54628	-0.41031	5.213086	-2.240568	5.50344	-0.524054	-0.691467	-0.333221
-0.622494	-0.823248	10.058207	0.378291	9.962836	-2.936656	0.028057	0.401453	-0.965046	7.995276	2.453112	9.62142	0.412002	-18.529153	-77.946834	0.303952	-0.311897	-0.96769	9.424432	3.256348	-0.167516	5.552608	-1.619055	4.674013	-0.524334	-0.706833	-0.347912
-0.515945	-0.595254	9.663428	-1.882608	11.152479	-3.064155	0.055912	0.414475	-0.96916	6.586765	2.003964	8.289316	0.17678	-27.360215	-78.527982	0.290976	-0.311972	-0.967415	9.189872	3.082908	-0.112753	6.414736	-1.365247	4.088965	-0.537336	-0.643093	-0.335803
-0.169161	-0.479895	9.84115	-4.319422	14.070842	-3.929765	0.056341	0.348806	-0.913269	6.058227	1.779185	7.768489	-8.494119	-31.259353	-75.92291	0.290236	-0.344757	-0.936708	9.487985	3.199126	0.072964	7.555382	-1.174457	3.778285	-0.523845	-0.675274	-0.334059
-0.914417	-0.709364	9.768857	-8.438183	16.907674	-3.718458	0.068933	0.386216	-0.909789	2.268207	2.467413	13.577371	195.089966	-68.024092	-33.617203	0.304028	-0.296577	-0.968694	9.075432	3.432623	0.126157	9.189262	-0.484898	2.729911	-0.537611	-0.677131	-0.303073
-0.453823	-1.168745	9.88954	-10.229898	19.229819	-3.246197	0.084182	0.379127	-0.934875	-2.218803	1.006505	8.103499	70.567777	-41.446299	-24.636942	0.291492	-0.325149	-0.99511	9.611114	3.37432	0.375441	9.723959	0.95627	2.568279	-0.551315	-0.642471	-0.351401
0.038565	-0.931832	11.661859	-17.544669	24.114723	-0.661614	0.05557	0.376348	-0.9201	-1.409687	0.838484	10.951052	55.092239	-32.002689	2.048528	0.27807	-0.356937	-0.978478	9.661617	3.720911	-0.041323	8.592554	2.641856	1.861374	-0.510146	-0.691263	-0.333151
-0.919694	-1.112661	9.482902	-5.007346	42.810861	0.802241	0.055155	0.424718	-0.9585	-1.296482	-0.682846	10.725631	72.664757	-38.198681	12.914381	0.278145	-0.341616	-0.979481	10.002799	4.065837	-0.692213	8.076915	4.362473	0.938133	-0.509591	-0.641859	-0.35119
-0.117899	-0.526239	12.456151	-13.06934	50.51642	3.618774	0.054784	0.421189	-0.944424	-0.692598	-0.516178	9.379721	162.819811	-14.21081	8.816935	0.264874	-0.342763	-0.964856	10.014363	4.300861	-0.032248	5.505609	5.683688	2.438741	-0.496656	-0.723443	-0.331407
-0.2381	-0.355038	12.170383	-15.993792	61.00667	6.833742	0.068533	0.417287	-0.930697	-0.01892	3.368955	8.944384	108.560153	-4.632398	-4.572613	0.251522	-0.419441	-0.959562	10.358712	4.704605	-0.50317	0.989099	6.630524	3.978763	-0.523495	-0.660734	-0.30384
-0.514185	-0.582426	12.675528	-19.617435	72.884414	9.306569	0.098646	0.41688	-0.984283	-0.757169	3.145414	9.381595	74.238513	-5.123837	3.96508	0.238992	-0.387803	-0.975643	10.359407	4.87908	-0.442521	-1.559844	8.340711	3.368558	-0.537544	-0.659286	-0.334966
-0.205767	-0.405483	13.818881	-17.821667	84.45975	10.808213	0.09716	0.402766	-0.92798	-0.247997	2.749751	8.939026	47.403599	-7.199488	6.697403	0.277844	-0.402898	-0.975467	10.359117	4.530377	-0.503912	-2.643616	8.966619	1.627377	-0.523566	-0.659908	-0.319368
-0.226343	-1.214249	12.735294	-18.656463	95.443223	14.607711	0.097131	0.437365	-0.962963	-0.229564	1.961787	9.731317	31.424002	-5.717909	7.00756	0.263757	-0.45215	-0.929131	10.457881	4.293353	-1.581024	-2.175322	8.957249	2.695445	-0.537753	-0.675478	-0.334129
-0.334171	-1.212718	13.074185	-12.439206	107.109416	17.937966	0.097174	0.385467	-0.910488	0.293899	1.679354	9.968518	26.021227	-5.541378	7.035797	0.250787	-0.392015	-0.91852	9.889708	3.834792	-0.455775	0.054502	8.29445	5.44128	-0.537615	-0.65846	-0.350494
-0.751655	-1.216047	12.213595	-9.790732	116.637931	21.335671	0.110165	0.391807	-0.886101	-0.183201	2.130244	9.222912	18.511299	-6.026229	5.637651	0.186197	-0.451529	-0.941826	10.306818	4.009064	-0.207703	2.876105	5.756163	6.360105	-0.509658	-0.659704	-0.319298
-0.987353	-1.217329	11.868022	-7.989725	124.467813	22.43903	0.195632	0.396616	-0.916348	-0.511239	1.906233	10.008423	8.639613	-5.277516	3.263368	0.277254	-0.405042	-0.946767	9.596673	3.429182	-0.403101	3.843379	3.343709	6.306986	-0.509729	-0.658878	-0.334825
-1.233363	-0.818691	11.012461	-10.032941	130.189859	23.611169	0.195246	0.410387	-0.919764	0.070329	1.342039	10.246596	6.88076	-5.289191	1.62794	0.238031	-0.406339	-0.93159	9.783761	3.372926	0.139115	5.176203	1.220537	5.028593	-0.481633	-0.643103	-0.319994
-1.466669	-1.049256	10.77963	-7.82735	135.433124	22.678168	0.210524	0.368699	-0.909866	0.471862	1.453899	10.198514	9.384894	-5.190876	0.8294	0.264058	-0.390868	-0.933146	9.83743	3.778335	-0.097681	5.280028	-0.014909	3.261407	-0.50952	-0.642685	-0.335663
-1.936586	-0.01739	10.206534	-8.119128	138.36109	21.714706	0.223487	0.409638	-0.920462	-0.118298	1.454407	9.506749	8.859826	-5.254242	0.1193	0.264278	-0.405117	-0.946492	9.235994	3.893365	-0.70726	6.52718	-0.505795	0.87529	-0.551519	-0.677335	-0.303143
-1.866627	-0.646634	10.830377	-10.248428	141.776737	20.335159	0.210152	0.365171	-0.89579	0.063399	1.172763	9.906616	6.985793	-4.393272	0.804572	0.251007	-0.406264	-0.931866	9.007072	3.663084	-0.35321	8.831036	-0.511991	-0.691732	-0.523361	-0.625044	-0.367625
-1.512706	-1.161685	11.346564	-12.58277	146.853016	18.707212	0.265477	0.404986	-0.907434	0.053189	1.454037	9.453737	6.345649	-3.698004	1.088424	0.224389	-0.423878	-0.901612	9.356787	4.12614	-0.52435	12.126807	0.313798	-2.510795	-0.523428	-0.642889	-0.335733
-2.126792	-1.330177	12.129535	-12.501143	155.026724	18.502573	0.279241	0.383784	-0.876215	0.238189	1.341526	10.023664	5.180472	-2.979945	1.557049	0.211708	-0.422881	-0.915686	9.172751	4.764146	-0.824466	14.930196	1.042895	-4.021969	-0.55159	-0.676509	-0.318671
-1.884122	-1.729538	12.814537	-11.78014	166.004523	20.457536	0.322345	0.389717	-0.905415	0.464393	1.566275	9.858771	5.739714	-2.670059	2.146316	0.250636	-0.422656	-0.916513	8.702668	4.358941	-0.775093	16.142383	2.053529	-3.725562	-0.509658	-0.659704	-0.319298
-2.444169	-2.071119	13.427338	-5.982789	179.48356	23.26647	0.308268	0.338193	-0.85259	0.065278	1.454511	10.020133	6.576098	-2.447234	2.519143	0.238326	-0.405267	-0.94594	8.060653	4.594461	-0.366861	15.855055	3.906432	-2.572004	-0.509658	-0.659704	-0.319298
-2.859218	-2.361173	12.679247	2.285336	191.004995	26.31239	0.293375	0.36611	-0.859073	0.001991	1.28539	9.735583	7.256333	-2.435591	2.057383	0.23788	-0.43698	-0.929583	7.883314	4.246162	-0.431553	14.963693	6.509292	-0.197319	-0.508752	-0.59576	-0.307118
-3.202046	-1.786268	12.731832	12.673793	198.884876	29.016976	0.362478	0.367423	-0.822007	-0.222549	1.45505	10.014088	7.93988	-2.148967	1.752501	0.237365	-0.423803	-0.901887	7.646825	3.956075	-0.497097	13.949041	9.266911	1.963175	-0.509449	-0.643511	-0.320135
-3.094715	-1.0985	12.395837	19.515071	204.404849	29.822953	0.389961	0.376917	-0.812045	0.232253	1.284959	9.740419	7.63465	-1.904545	1.292263	0.23766	-0.422731	-0.916237	7.176201	3.783175	-0.446736	12.800364	11.330299	3.180028	-0.468281	-0.692303	-0.301885
-3.740932	0.04741	11.592471	21.970926	206.999672	26.791811	0.402567	0.397028	-0.791074	0.006503	1.454571	9.962284	6.182861	-1.893309	1.445347	0.224534	-0.453447	-0.913954	6.815366	3.840577	-0.812532	12.529597	12.589548	2.594291	-0.551661	-0.675682	-0.334199
-5.749725	-1.803062	8.306264	-3.718791	203.145115	23.092799	0.418217	0.358868	-0.795252	0.244018	1.454425	10.306957	5.129287	-2.152361	1.50358	0.224609	-0.438127	-0.914958	7.228479	3.839632	-0.804829	12.063765	12.935744	1.494044	-0.537127	-0.626901	-0.33664
-4.457883	-0.188373	10.043111	-22.948161	191.131113	23.842003	0.445729	0.333763	-0.750307	-0.164314	1.736642	10.072174	4.347201	-2.957447	1.186664	0.263832	-0.43683	-0.930135	7.401956	3.954637	-0.980754	12.304022	13.104092	0.08647	-0.523637	-0.659082	-0.334896
-5.307729	-2.726077	7.458515	-51.663619	181.079594	26.367555	0.444972	0.344006	-0.739646	-0.161681	1.624076	10.185358	4.02852	-3.728006	1.178745	0.23788	-0.43698	-0.929583	7.34128	3.721974	-1.102657	11.190405	12.796388	-0.121969	-0.537753	-0.675478	-0.334129
-6.659996	-1.214191	11.530374	-64.917639	174.695446	34.090118	0.47247	0.3362	-0.712193	0.007389	1.62361	10.019066	4.056957	-3.940864	0.960855	0.238471	-0.434836	-0.958283	7.27456	3.720378	-1.523106	10.177795	12.286552	1.503972	-0.495821	-0.658673	-0.334755
-5.768878	-0.588304	10.300077	-34.148294	158.119229	34.897212	0.487748	0.294512	-0.702295	0.238775	2.29924	10.13775	3.007039	-3.89447	1.207096	0.224389	-0.423878	-0.901612	7.8042	3.893144	-1.572367	9.354142	11.552523	4.169489	-0.509937	-0.67507	-0.333988
-4.309047	-0.825421	8.849882	-7.492338	143.527036	32.344952	0.512588	0.331206	-0.646277	-0.051409	1.003987	9.904056	2.731179	-3.714809	1.331974	0.250486	-0.453297	-0.914506	8.451042	3.94924	-1.679829	8.459613	10.525287	5.583578	-0.523637	-0.659082	-0.334896
-0.308725	-2.163753	5.569057	8.749295	124.191608	31.953199	0.511845	0.324149	-0.618125	0.409246	1.566478	9.970841	2.580648	-3.381259	1.612623	0.289414	-0.453072	-0.915333	8.398493	4.008935	-1.321241	7.714949	9.848355	5.711763	-0.537753	-0.675478	-0.334129
10.37707	-2.69306	4.694899	21.33122	62.207996	27.229925	0.542773	0.244302	-0.612404	-0.116527	1.792485	9.620313	2.527009	-2.709617	1.958368	0.236995	-0.440195	-0.886534	9.336574	4.295918	-1.601932	6.320259	9.298082	5.199848	-0.495403	-0.626289	-0.336429
24.25773	-2.882452	3.316013	31.690886	-13.393939	9.565895	0.528995	0.282804	-0.661114	0.063207	1.905108	9.963872	1.790467	-2.349831	1.776384	0.237736	-0.407411	-0.917241	9.986427	4.004053	-1.591063	4.93033	9.670274	4.225057	-0.537544	-0.659286	-0.334966
20.438634	-3.220706	4.092758	32.943121	-76.476831	-14.280033	0.499625	0.290267	-0.63568	-0.166624	1.680217	9.958847	0.687327	-1.658238	1.720717	0.276663	-0.407186	-0.918068	10.459947	4.351923	-1.460963	5.324976	9.931893	2.724757	-0.509524	-0.624014	-0.383083
15.763239	-3.959946	4.964818	34.409038	-114.801774	-31.531263	0.541244	0.282087	-0.608576	-0.110291	1.060378	9.846255	-0.881534	-1.184969	1.323394	0.250411	-0.468618	-0.913502	11.045572	4.40766	-1.689339	6.351267	8.611404	0.618475	-0.537615	-0.65846	-0.350494
14.391318	-3.901027	5.052041	25.349941	-129.145312	-36.768794	0.557622	0.268283	-0.658397	-0.044371	1.116933	10.243989	-2.108421	-0.553057	0.773783	0.211708	-0.422881	-0.915686	10.745259	4.290947	-1.99487	8.079932	7.026986	-2.344803	-0.5098	-0.658051	-0.350353
13.604066	-3.667545	5.776508	19.807974	-159.849783	-40.717957	0.543487	0.285957	-0.67554	-0.403469	1.962063	9.67105	-2.653491	0.270457	0.380768	0.224094	-0.42495	-0.887262	10.530082	3.831329	-0.922925	10.018982	6.136842	-7.298572	-0.52329	-0.625871	-0.352098
11.925198	-3.37065	7.734168	22.751243	-199.854271	-46.039029	0.501097	0.32168	-0.709476	-0.408089	1.849212	9.444397	-3.043234	1.129008	-0.381711	0.23773	-0.467621	-0.927576	10.10556	4.00403	-1.528956	12.303471	5.825988	-11.950561	-0.5098	-0.658051	-0.350353
8.800043	-3.995161	8.864186	32.69676	-228.902517	-49.392429	0.429751	0.316496	-0.679578	0.058695	1.735926	9.737172	-2.819531	1.628626	-1.332232	0.185681	-0.438352	-0.91413	9.341921	3.890375	-1.364035	13.403072	5.508301	-13.389337	-0.523499	-0.642063	-0.351261
6.043171	-4.339751	8.354466	32.306608	-243.480638	-47.265961	0.475113	0.309	-0.758249	0.409892	1.228495	9.970557	-2.139076	1.641274	-1.948119	0.250636	-0.422656	-0.916513	8.984523	3.890443	-1.550359	12.352446	5.198311	-13.353493	-0.495683	-0.641655	-0.35112
3.133175	-4.278024	8.809597	20.151396	-250.684357	-41.028684	0.417117	0.330984	-0.735532	-0.283179	1.793046	9.899884	-2.412254	2.006728	-2.098844	0.211338	-0.439274	-0.900332	8.458455	3.602267	-1.321871	10.934222	4.851357	-12.827188	-0.537474	-0.660112	-0.319438
0.886051	-3.749984	10.9845	6.292427	-255.616333	-35.056587	0.403339	0.369485	-0.784243	-0.116635	1.848816	9.620361	-2.471471	2.191139	-2.282026	0.251001	-0.466474	-0.942201	8.693844	3.892107	-1.316233	9.026834	4.712033	-11.8417	-0.496029	-0.674866	-0.333918
-0.967305	-2.764149	12.828009	0.66099	-256.103653	-32.379638	0.363249	0.339881	-0.815175	-0.397101	1.793309	9.954106	-1.298694	2.085187	-2.559588	0.238471	-0.434836	-0.958283	8.574151	3.659579	-1.439237	6.876001	4.658864	-10.397331	-0.523637	-0.659082	-0.334896
-2.552489	-2.931453	13.705757	0.331816	-249.606043	-33.00935	0.335365	0.361458	-0.846045	-0.053372	1.398254	9.847749	0.608598	1.465733	-2.595041	0.211483	-0.468843	-0.912675	8.278375	3.485779	-1.505388	4.481171	4.941302	-8.953662	-0.509662	-0.641033	-0.366718
-3.240738	-2.816314	13.636025	-3.343283	-238.748923	-34.20279	0.292232	0.390124	-0.851829	-0.100381	1.56778	10.356438	2.049078	0.59367	-2.417585	0.223868	-0.470911	-0.884251	8.276059	4.008216	-1.563069	1.843859	5.494384	-7.143657	-0.495959	-0.675692	-0.31839
-4.454216	-2.817856	13.044111	-12.789798	-225.13065	-34.414541	0.252886	0.367576	-0.910913	0.012655	1.398478	10.245435	2.158117	-0.482663	-1.719157	0.224829	-0.452375	-0.928304	8.632742	3.368817	-1.499279	-0.427695	5.870614	-5.853652	-0.509729	-0.658878	-0.334825
-4.741519	-2.932773	12.981207	-24.441976	-211.904702	-33.552709	0.21051	0.385999	-0.927357	0.06748	1.567267	10.133507	2.519374	-1.157221	-1.01653	0.237805	-0.4523	-0.92858	8.69562	3.601975	-1.257562	-1.502792	6.231613	-5.637551	-0.55159	-0.676509	-0.318671
-4.999954	-2.926534	14.396967	-32.828361	-200.379526	-33.341376	0.182283	0.369449	-0.909167	-0.338974	2.131231	10.012239	2.545395	-1.525817	-0.866034	0.237585	-0.438052	-0.915233	8.985738	3.367759	-1.552584	-1.991533	6.811061	-5.638546	-0.510075	-0.692089	-0.317623
-6.299363	-2.404747	15.283178	-33.108063	-186.383611	-33.450653	0.138764	0.411885	-0.918367	-0.222095	1.849411	10.07106	2.325515	-1.776499	-0.467938	0.2252	-0.435983	-0.943657	9.107072	3.368231	-1.370662	-1.276631	7.392629	-5.42998	-0.495959	-0.675692	-0.31839
-6.994501	-2.003848	14.873534	-31.213239	-168.609079	-32.339184	0.139521	0.401643	-0.929027	-0.112254	1.454644	9.789947	1.857314	-2.122314	-0.070989	0.224308	-0.499408	-0.910943	8.696295	3.311594	-1.258799	-0.314339	8.06686	-5.222751	-0.510146	-0.691263	-0.333151
-7.055179	-1.889647	14.702344	-32.836552	-151.123324	-29.013777	0.125758	0.422845	-0.960246	-0.222418	2.018402	10.071202	1.358606	-2.466508	0.017672	0.211778	-0.467771	-0.927024	8.813382	3.717857	-1.254867	0.58222	8.438113	-5.319454	-0.523566	-0.659908	-0.319368
-6.952012	-1.604935	14.137246	-34.671386	-138.946498	-24.179084	0.083382	0.441268	-0.97669	0.237543	1.67951	10.023949	1.202538	-2.591331	0.047133	0.224239	-0.454519	-0.899604	8.873208	3.369265	-1.25525	0.522119	8.124416	-4.58426	-0.496171	-0.673213	-0.364974
-6.612981	-1.548707	13.916756	-31.555653	-130.303923	-17.575906	0.039906	0.431807	-0.933414	-0.102583	1.455024	10.243064	1.973951	-2.67232	-0.13802	0.224164	-0.469839	-0.898601	9.17076	3.252933	-1.130428	-0.309926	7.623771	-3.784249	-0.523845	-0.675274	-0.334059
-6.967849	-1.263663	13.342751	-23.77196	-121.508761	-8.990407	0.041406	0.428621	-0.972226	-0.216482	2.07497	10.354447	2.590267	-2.815795	-0.447232	0.211558	-0.453522	-0.913678	9.054233	3.079222	-1.073464	-1.261623	6.991494	-2.127429	-0.495821	-0.658673	-0.334755
-7.091556	-0.86342	12.887389	-17.043212	-111.706957	2.558145	0.054755	0.455788	-0.979407	0.067695	1.454606	10.133412	2.712243	-2.965743	-0.726077	0.198582	-0.453597	-0.913403	9.046395	3.135567	-1.492565	-2.346145	5.880045	-1.506948	-0.49638	-0.689406	-0.364137
-7.672967	-0.922377	12.421188	-15.250793	-103.553035	16.362562	-0.015819	0.423062	-0.942678	0.059149	2.130287	9.794143	3.080863	-3.143824	-0.912519	0.224829	-0.452375	-0.928304	8.931799	3.078503	-1.315293	-2.811367	5.510981	-1.47294	-0.495821	-0.658673	-0.334755
-7.33666	-0.177333	12.089887	-15.521876	-96.820745	29.93405	-0.016205	0.436833	-0.946094	0.062321	1.736069	9.90709	2.58469	-3.303021	-0.976158	0.23773	-0.467621	-0.927576	9.220412	3.018268	-1.669479	-3.832058	5.07874	-1.436618	-0.51015	-0.672591	-0.380572
-7.046556	0.685048	12.326486	-14.454754	-90.146047	40.985517	-0.030311	0.419909	-0.928253	2.8e-05	1.679656	9.679276	1.964397	-3.495256	-0.916912	0.224314	-0.439199	-0.900608	9.865613	3.306422	-1.835859	-5.282378	4.85845	-1.338626	-0.551665	-0.657011	-0.38162
-7.04161	1.547877	12.614372	-7.884836	-82.684439	47.250429	-0.041431	0.413911	-1.005527	0.291589	1.622929	9.855192	2.641372	-3.701091	-0.949242	0.237215	-0.454444	-0.89988	9.463485	2.844984	-1.306378	-6.701857	4.638271	-1.240747	-0.482614	-0.687549	-0.395122
-7.04116	2.467183	12.675086	1.138992	-75.473799	46.820372	-0.028797	0.399423	-0.949573	0.007281	1.679941	10.019113	3.163564	-3.939148	-1.043673	0.249675	-0.441192	-0.87246	9.109408	3.310649	-1.251095	-8.244701	4.604027	-1.418371	-0.52357	-0.641237	-0.366788
-6.988981	3.3278	12.452406	9.889395	-68.841548	40.341696	-0.028811	0.416722	-0.967065	0.005749	1.848885	9.962616	3.220675	-4.2777	-0.738713	0.210968	-0.455666	-0.884979	9.344507	3.251786	-1.306848	-9.226952	5.026852	-1.233456	-0.537548	-0.640615	-0.382386
-7.5378	3.49326	10.737516	15.534169	-65.39338	28.6994	-0.002827	0.429402	-0.918291	-0.455229	1.455386	9.895973	2.25677	-4.751649	-0.466749	0.212224	-0.436058	-0.943381	9.348504	3.427003	-1.066479	-10.150821	5.331951	-1.476067	-0.524125	-0.69064	-0.348749
-7.393501	2.97013	9.317358	0.329224	-72.762266	16.204613	-0.057052	0.417472	-0.966366	0.459127	1.791407	9.632402	2.990193	-5.356766	-0.287207	0.251227	-0.420512	-0.945212	9.002785	3.139164	-0.654969	-10.679691	5.711653	-2.881831	-0.467379	-0.609688	-0.337126
-7.499226	3.144468	9.770679	-18.798849	-79.84123	3.632888	-0.057409	0.396644	-0.934799	0.057247	1.228857	9.623466	2.669368	-6.253019	0.166044	0.236914	-0.515726	-0.895866	9.162922	3.309278	-1.54953	-10.96373	6.09571	-4.624667	-0.510359	-0.688784	-0.379735
-8.383503	3.841425	11.404499	-19.260622	-71.039231	-10.851691	-0.085679	0.431992	-0.969084	0.00916	1.961688	10.13263	1.952027	-6.784164	0.283498	0.211928	-0.43713	-0.929032	8.936356	3.486271	-1.014028	-11.176432	6.213198	-4.227154	-0.5242	-0.671143	-0.411698
-8.376822	3.842873	11.745617	-4.948058	-47.253463	-25.780677	-0.055894	0.376159	-0.956119	0.057031	1.341518	9.623561	2.557664	-7.727784	0.397916	0.2381	-0.451228	-0.942929	8.930584	3.601187	-1.313068	-13.268264	5.886196	-2.903851	-0.496309	-0.690232	-0.348609
-8.918421	3.263041	10.368709	7.635959	-21.437321	-39.047196	-0.084536	0.407978	-0.976328	0.299166	1.454222	10.194887	3.355444	-8.175575	0.085824	0.186567	-0.435136	-0.95718	8.756256	2.904927	-1.259429	-15.238289	5.748856	-2.132004	-0.50987	-0.657225	-0.365881
-8.769585	2.625993	9.17548	10.755345	-2.95142	-46.976805	-0.084907	0.40445	-0.962252	-0.055012	1.623528	9.791299	3.720711	-8.600202	0.081896	0.224088	-0.48516	-0.897597	8.820619	2.499249	-1.020431	-16.746178	6.017476	-2.005575	-0.510079	-0.673418	-0.365044
-9.050207	2.512523	9.453695	15.517804	8.970516	-47.410237	-0.086408	0.407636	-0.92344	-0.048082	1.792804	10.131278	4.301297	-9.112878	-0.107703	0.198287	-0.454669	-0.899053	8.700271	3.021956	-1.080314	-16.781382	5.590989	-2.186787	-0.482405	-0.671357	-0.395959
-8.851621	1.471655	7.861919	17.534974	12.730254	-39.348512	-0.098285	0.411881	-0.990055	0.354445	2.017372	10.139931	4.043391	-9.916568	0.377348	0.198287	-0.454669	-0.899053	8.751429	2.613311	-1.560199	-16.968102	5.562571	-2.461036	-0.496104	-0.655368	-0.396867
-9.144533	1.412973	7.514992	13.067921	9.31321	-24.453059	-0.057023	0.382873	-0.931383	-0.045449	1.680238	10.244463	2.790453	-11.253137	0.70216	0.198802	-0.467846	-0.926749	9.173886	2.38204	-1.07423	-18.569409	5.584242	-2.149716	-0.496175	-0.654542	-0.412394
-19.120112	10.244569	15.769082	-28.641905	74.511115	11.198946	-0.084507	0.373379	-0.941344	0.064847	1.679833	10.020322	-0.070345	-12.674455	1.487258	0.224534	-0.453447	-0.913954	9.340625	2.553637	-1.609349	-20.820923	5.081026	-1.589036	-0.496246	-0.653716	-0.427922
-13.650377	-2.794013	16.900295	3.166126	97.20146	58.081803	-0.028425	0.402951	-0.963649	0.065924	1.116528	10.019848	-2.013467	-14.876148	1.463804	0.23751	-0.453372	-0.91423	9.169234	2.962058	-1.251478	-18.898911	4.474617	-4.404821	-0.495895	-0.639176	-0.397704
1.998371	-0.643138	12.383161	26.885934	85.071788	69.864291	-0.083378	0.366665	-0.96608	-0.092135	1.680773	10.75301	-7.149687	-17.976955	1.428841	0.211778	-0.467771	-0.927024	9.576865	3.424732	-1.481425	-21.524959	3.326735	-3.748033	-0.510012	-0.655573	-0.396937
2.691256	-1.91873	9.720233	-5.36887	85.169263	42.704104	-0.041031	0.382841	-0.98462	-1.016902	4.501455	13.51017	-6.891724	-24.78563	-2.646293	0.17226	-0.47014	-0.897498	10.090599	4.756052	-2.244624	-17.142327	1.498359	-5.863938	-0.440264	-0.638359	-0.397423
1.272636	-4.775013	13.147255	48.754608	91.178142	11.860426	-0.027268	0.361638	-0.953401	-0.807153	2.584837	12.380602	-11.541968	-35.24974	3.411557	0.211193	-0.409705	-0.88799	10.453425	6.209862	-1.572865	-10.912181	-0.78439	-7.770402	-0.524337	-0.688162	-0.395333
-0.945771	-1.105865	11.073675	75.099374	72.280641	-12.505027	0.015837	0.367571	-0.982601	-0.352566	2.527408	12.107028	-11.45727	-47.692745	6.925679	0.185681	-0.438352	-0.91413	10.348308	5.864395	-0.917574	-17.796972	-4.17209	0.980883	-0.496455	-0.669908	-0.427085
-2.244843	1.127065	9.125584	43.149313	44.648561	-6.053573	-0.01279	0.382091	-0.985318	-0.280279	2.415208	12.787817	-15.205821	-58.059597	9.00844	0.198432	-0.484238	-0.911395	10.769779	5.109945	-0.553643	-23.756814	-6.593662	8.318827	-0.510288	-0.68961	-0.364207
-0.700786	0.551048	9.039529	10.281606	30.808835	11.204542	-0.027625	0.340811	-0.921834	-0.670178	1.909462	13.345324	-9.174862	-69.523853	10.163314	0.185091	-0.440496	-0.885431	11.144204	4.416425	0.46841	-20.027614	-7.792009	4.215408	-0.523573	-0.622565	-0.414209
0.183522	-0.822863	10.301208	-0.245686	31.435077	14.004927	0.042592	0.352709	-0.926995	-0.315654	2.190847	13.805931	-10.109027	-82.294061	9.727348	0.1601	-0.42211	-0.928932	10.493386	4.649968	0.397387	-13.593182	-6.792147	-4.492516	-0.495966	-0.63835	-0.413231
-0.390011	-0.995015	10.232496	9.956401	32.176196	4.327739	-0.026153	0.372223	-0.995629	-0.370932	1.627697	13.860888	-1.091034	-96.883654	11.131043	0.17307	-0.482244	-0.939543	10.189731	3.602802	-0.211634	-10.255089	-5.650525	-10.224975	-0.482125	-0.655991	-0.381269
-1.367465	0.096355	10.047593	8.535006	27.065605	1.826043	0.000974	0.360889	-0.9541	-0.369377	2.078436	13.974546	2.564922	-110.525521	11.830794	0.147564	-0.450682	-0.955349	9.00186	4.010551	-0.591354	-10.744988	-5.006789	-10.531876	-0.52427	-0.670317	-0.427226
-0.228643	-0.480336	9.726331	2.067519	1.123539	-3.361198	0.014723	0.356986	-0.940373	0.417821	1.118502	13.027791	5.516937	-123.741653	11.578528	0.146383	-0.454969	-0.89795	9.464916	4.123645	-1.061311	-12.117859	-5.598306	-7.040158	-0.565506	-0.63937	-0.413582
-0.054404	-0.824628	9.841929	-4.827706	-0.412989	-0.790184	0.015494	0.329444	-0.933541	0.124596	0.780821	12.738264	10.653447	-135.240402	10.882661	0.107976	-0.408161	-0.914483	9.15829	4.354152	-1.664893	-12.590103	-6.72678	-1.593058	-0.496455	-0.669908	-0.427085
-0.393269	-1.110622	10.061454	-1.45228	0.71779	-1.548226	0.045221	0.342808	-0.990544	0.794053	0.553352	11.733069	13.938194	-144.357634	8.328425	0.069118	-0.453276	-0.924995	8.931975	3.950138	-1.19177	-12.572635	-8.778044	4.529316	-0.495892	-0.657847	-0.350283
-0.238581	-0.597391	9.21417	-1.66729	0.279937	-0.972028	0.042935	0.390836	-0.976055	1.136704	0.721602	11.627185	18.048005	-151.516527	8.198952	0.081723	-0.469593	-0.909917	8.763014	3.31319	-0.83835	-11.180253	-10.831556	8.385196	-0.467938	-0.64042	-0.366508
-0.512273	-1.054062	9.832056	-1.571962	0.427072	-0.35655	-0.012775	0.364792	-0.967827	1.07368	1.679186	11.456864	19.490184	-157.029146	9.224349	0.068307	-0.441171	-0.882949	8.83294	4.303314	-0.114164	-8.61861	-12.007052	10.551657	-0.495892	-0.657847	-0.350283
-0.517059	-0.595495	9.606574	0.018905	0.067122	-0.489652	0.001359	0.347118	-0.950684	0.950087	1.67907	11.057969	19.802481	-163.938554	10.419937	0.003503	-0.426226	-0.882574	8.255018	4.249308	0.53356	-6.175168	-11.981889	11.918139	-0.510221	-0.671765	-0.3961
-0.056631	-0.82511	9.728223	-0.566674	-0.42696	-0.526664	0.017338	0.364385	-1.021413	1.236682	1.0588	10.950212	18.763961	-170.21968	11.435712	-0.009108	-0.470118	-0.907987	8.493284	4.249262	0.657776	-3.791896	-10.469526	11.413236	-0.51043	-0.687958	-0.395263
-0.520234	-0.825985	9.43505	-0.722765	-0.701134	-0.806683	0.014751	0.322388	-0.905389	1.936468	0.776186	11.360959	18.708769	-174.52043	11.886207	-0.0355	-0.441771	-0.880743	8.145364	3.960929	0.949472	-1.863476	-7.886659	10.752046	-0.509803	-0.63938	-0.397774
-0.055186	-1.284401	9.783146	0.350562	-0.729291	-0.595554	0.016223	0.3538	-0.979185	1.527489	1.396387	11.12646	23.550691	-177.556645	11.520827	-0.009844	-0.442693	-0.866945	8.092951	3.962547	1.307813	-1.107286	-5.617318	10.432821	-0.496246	-0.653716	-0.427922
-0.571796	-0.997062	9.717478	2.494643	-0.496502	-1.27264	0.043321	0.377065	-0.972639	2.26034	1.281708	10.405766	28.33972	-182.370181	10.582833	-0.074874	-0.473709	-0.863559	7.967215	3.961086	0.886263	0.594437	-3.604362	8.613702	-0.523361	-0.625044	-0.367625
-0.11199	-0.365054	9.842746	3.536638	-0.303769	-1.579189	0.028829	0.373911	-0.958214	3.341409	0.321472	9.748254	33.12274	-185.448774	7.164952	-0.113726	-0.458614	-0.863736	7.969146	4.077733	1.006572	3.033892	-2.453725	7.6213	-0.52357	-0.641237	-0.366788
-0.16652	-1.053828	9.952443	4.672684	-0.085437	-1.394902	-0.01239	0.351021	-0.964411	4.318381	0.544915	9.712356	35.579507	-184.586758	2.150465	-0.100305	-0.426826	-0.880368	8.6201	3.786115	1.077347	3.470614	-1.747679	7.524654	-0.509945	-0.637728	-0.428829
-0.284535	-0.824703	9.780622	5.93106	0.228096	-1.424097	0.028443	0.387682	-0.96163	4.039447	0.320464	10.102599	40.808448	-179.42436	-2.634059	-0.192838	-0.478672	-0.803679	8.902515	3.550169	0.362978	4.120264	-1.004274	6.846331	-0.523711	-0.639584	-0.397844
-0.288165	-0.423336	9.611752	6.854069	0.566267	-1.05324	0.014723	0.356986	-0.940373	4.553955	1.558718	10.057883	45.591984	-175.194572	-6.503327	-0.180233	-0.494989	-0.788601	9.19364	4.303987	0.25188	4.92077	0.08752	5.06549	-0.52357	-0.641237	-0.366788
-0.05993	-0.883275	9.557423	6.392904	0.411852	-1.177095	-0.012747	0.330193	-0.932843	7.135051	1.384497	9.659025	50.381408	-170.159663	-6.757737	-0.193649	-0.466567	-0.761633	8.837207	4.362379	0.125711	5.749611	1.246286	2.734106	-0.53804	-0.653502	-0.443661
-0.274596	-0.707649	10.292783	6.886475	0.936929	-1.20065	0.05707	0.373162	-0.958912	5.904362	2.289626	11.389015	48.342631	-160.572236	-7.773935	-0.219161	-0.495214	-0.787774	9.428178	4.012573	0.135232	5.250446	2.404389	0.010261	-0.468288	-0.65496	-0.396726
-0.164293	-1.053346	10.06615	6.183367	1.210224	-1.194184	0.057056	0.390461	-0.976404	4.940926	2.573728	12.105016	53.58578	-151.104326	-4.592889	-0.219971	-0.48311	-0.745728	9.422541	4.069413	-0.164055	3.271887	3.40076	-2.37121	-0.495962	-0.657021	-0.365811
-0.17939	-0.194859	9.330679	5.32737	1.575693	-1.247117	0.015108	0.343215	-0.936957	4.854672	2.403706	10.744314	70.07855	-138.286938	0.911793	-0.218941	-0.509463	-0.80112	9.300127	4.533549	-0.343999	1.570688	3.653252	-3.710988	-0.523782	-0.638758	-0.413372
-0.511574	-0.479405	9.891322	4.073661	1.686843	-0.720344	0.017766	0.298716	-0.965522	4.964554	3.640283	7.917004	91.884015	-122.825485	6.416266	-0.259344	-0.515047	-0.728544	9.061977	4.010663	-0.530346	-0.901753	2.910219	-3.698488	-0.510012	-0.655573	-0.396937
-0.169203	-0.422454	9.841392	2.421678	1.858291	-0.252782	0.042592	0.352709	-0.926995	-2.413911	1.735935	4.420123	92.380946	-87.433048	18.914958	-0.272766	-0.546835	-0.711911	9.121978	4.533707	-0.407207	-3.064324	1.69968	-2.737454	-0.524129	-0.671969	-0.39617
-0.003955	-0.653792	9.502648	1.476272	2.278535	0.247457	0.029215	0.36014	-0.954798	-8.933889	0.397854	6.150276	67.549613	-41.145604	50.431961	-0.285817	-0.562231	-0.710632	8.831009	4.186668	-0.234472	-5.507264	0.121077	-1.773641	-0.468426	-0.671979	-0.380361
-0.33977	-0.536971	9.894422	0.499383	2.607136	0.684959	0.016237	0.336501	-0.961693	-13.800508	-0.774977	7.179315	62.402469	-4.041029	101.825038	-0.286332	-0.549054	-0.682936	8.765951	4.417871	-0.534118	-6.470689	-1.637615	-0.630943	-0.51015	-0.672591	-0.380572
-0.516769	-0.997586	9.604885	0.533	2.880386	0.995981	0.001717	0.367946	-0.982252	-11.988491	-2.751322	5.630432	58.366527	26.05727	156.670159	-0.273872	-0.535802	-0.655516	8.709541	4.244272	-0.416146	-6.910653	-2.927375	-0.287004	-0.523991	-0.65495	-0.412535
-0.524071	-0.13741	9.267386	0.104824	3.094894	0.878028	0.001759	0.316048	-0.929776	-8.328743	-3.885873	4.460782	28.753935	62.904574	183.472435	-0.313095	-0.537099	-0.640339	9.066108	4.127804	-0.290224	-7.381343	-4.310577	0.210308	-0.523924	-0.637105	-0.444428
-0.574106	-0.882661	9.604254	0.136018	3.218659	0.818615	0.016995	0.326258	-0.972353	-3.373653	-4.965328	4.677127	-4.556011	89.153216	163.476596	-0.31236	-0.564525	-0.681381	9.175067	4.241708	-0.766784	-8.007638	-5.536337	0.218426	-0.509595	-0.623188	-0.398611
-0.512688	-0.479647	9.834469	-0.110292	2.907765	1.028945	0.030344	0.353426	-0.979534	-1.899091	-3.896272	6.464078	-35.536171	111.919563	117.484791	-0.325625	-0.505462	-0.65642	9.303429	4.534291	-0.164278	-8.043706	-6.520003	0.681697	-0.524058	-0.672795	-0.380642
-0.165572	-0.823821	10.010262	0.009711	2.446322	1.113104	0.043735	0.328695	-0.93424	-2.710737	-1.920906	9.053026	-40.802223	130.78366	71.078274	-0.286032	-0.487772	-0.686951	9.421731	4.417869	-0.162572	-7.799672	-6.638317	0.375747	-0.51015	-0.672591	-0.380572
-0.22728	-0.824744	9.781736	0.711296	2.083615	0.859847	-0.013147	0.361264	-0.953751	-3.205919	-0.623338	10.232668	-25.473419	149.746541	35.175813	-0.286107	-0.503093	-0.685947	9.775268	4.184507	-0.216865	-7.689652	-6.767804	-1.85511	-0.495825	-0.640002	-0.382176
-0.91322	-0.824006	9.825227	0.891951	1.655621	0.7297	0.028829	0.373911	-0.958214	-3.777923	-0.002435	10.447659	-10.481045	167.650271	10.425016	-0.259564	-0.500799	-0.715198	9.718587	4.127061	-0.098399	-7.388471	-6.349505	-3.753053	-0.509453	-0.62484	-0.367555
-0.166644	-0.881504	9.953167	0.981122	1.413674	0.418833	0.042592	0.352709	-0.926995	-4.312289	-0.340112	9.64354	-5.615557	184.472218	-4.601959	-0.285366	-0.470308	-0.716654	9.779534	4.243572	0.02301	-7.27198	-5.808255	-5.773131	-0.509803	-0.63938	-0.397774
0.001323	-0.250495	9.788603	1.104413	1.600027	0.298836	0.015094	0.360515	-0.954449	-4.312266	0.279571	9.700701	-5.544094	199.242498	-10.435425	-0.232432	-0.496361	-0.773148	9.664513	3.895881	0.139139	-6.753058	-5.082347	-7.764954	-0.509524	-0.624014	-0.383083
-0.403995	-0.136287	9.553879	1.072215	1.51047	0.05213	0.015851	0.350272	-0.965109	-4.652799	0.900091	9.977167	-8.995469	212.172519	-8.768099	-0.245332	-0.481116	-0.773876	9.533566	4.241887	-0.520554	-6.1365	-4.707392	-8.319073	-0.509874	-0.638554	-0.413302
-0.680779	-0.938331	9.999758	1.380463	1.788486	0.055761	0.044864	0.321981	-0.958976	-4.365642	0.617852	9.926335	-14.007506	221.836907	-2.541188	-0.193353	-0.465495	-0.775983	8.88933	4.012057	-0.29402	-5.924625	-5.164814	-8.378779	-0.53769	-0.638962	-0.413442
0.006025	-0.594179	10.014567	1.930363	1.420543	0.201537	0.030372	0.318827	-0.944551	-3.204209	1.010437	10.460602	-18.89402	226.960265	5.274595	-0.192242	-0.416318	-0.822043	9.010083	3.315122	-0.234879	-4.909252	-5.405547	-8.411868	-0.496522	-0.687753	-0.395192
-0.225634	-0.02008	9.89882	2.850229	1.454872	0.260783	0.030715	0.356954	-0.99361	-2.446427	0.502393	10.872368	-21.995315	226.603504	11.711729	-0.153019	-0.415021	-0.83722	8.65392	3.257362	-0.361543	-3.486268	-5.59564	-7.285358	-0.453963	-0.622371	-0.39833
-0.399044	-0.82462	9.778395	3.065101	1.642697	0.048542	0.000216	0.371132	-0.94344	-0.830322	0.161534	11.075852	-23.632113	219.700271	15.310317	-0.127738	-0.492545	-0.818404	8.537974	3.781058	-0.181798	-2.214665	-5.263762	-6.405273	-0.538107	-0.671347	-0.411768
-0.230704	-0.710585	9.611659	3.681478	2.105143	0.176955	0.014322	0.388057	-0.961281	0.448314	0.103307	11.668796	-25.970025	208.283998	14.547359	-0.114462	-0.431189	-0.822694	8.597956	3.839246	-0.120543	-1.069792	-4.894804	-6.19725	-0.482125	-0.655991	-0.381269
-0.3969	-0.709255	9.892584	3.132074	2.377761	0.305639	0.016995	0.326258	-0.972353	1.327294	0.214968	12.42334	-29.435613	195.371535	10.778208	-0.087404	-0.442071	-0.879641	8.775834	3.95524	-0.056841	-1.029537	-4.446896	-5.129881	-0.495895	-0.639176	-0.397704
-0.335108	-0.823214	10.120627	2.277011	2.83438	0.346189	0.04445	0.37035	-0.997375	1.279639	0.722477	12.932314	-31.545299	184.619287	7.000863	-0.048922	-0.473559	-0.864111	8.369439	3.434737	0.232766	-1.293394	-4.318592	-2.837395	-0.523711	-0.639584	-0.397844
-0.628434	-0.30748	9.776113	1.852639	3.413494	0.602165	0.015466	0.364043	-0.968525	2.317025	0.720584	13.010714	-32.836906	175.154658	4.531818	-0.034759	-0.408987	-0.91145	8.531081	3.430871	-0.60263	-0.631355	-3.816115	-0.916759	-0.510008	-0.674244	-0.349516
-0.62266	-0.593482	10.059172	2.161888	3.6573	0.911915	0.029229	0.342841	-0.937306	2.838201	1.001409	13.19175	-36.884185	163.061812	5.086417	-0.009398	-0.41098	-0.883302	8.65336	3.024811	-0.422439	-0.070392	-3.825467	0.181515	-0.496242	-0.672387	-0.380502
-0.217632	-0.305599	10.295585	2.04122	3.995468	0.856423	0.029972	0.349897	-0.965458	3.369072	1.902297	13.883064	-40.091032	147.028484	10.103455	0.016774	-0.425079	-0.8972	8.771277	3.547472	-0.358106	0.517619	-4.293223	1.251324	-0.495828	-0.621331	-0.429596
-0.162522	-0.421006	10.18251	2.196981	4.333186	0.953467	0.029615	0.32907	-0.933891	4.389857	1.730749	13.168368	-38.553258	132.51584	16.434331	0.01744	-0.407615	-0.926903	8.536023	3.199556	-0.363991	0.922953	-4.766057	2.749718	-0.509941	-0.656399	-0.381409
-0.050281	-0.36413	10.071272	3.362714	4.64837	0.740559	0.030729	0.339655	-0.976118	4.216407	2.125386	13.165073	-39.464909	121.767434	18.484676	0.056072	-0.408461	-0.91338	8.891916	3.373468	-0.236833	1.328605	-5.177396	4.217271	-0.537202	-0.607403	-0.399588
0.008335	-0.70858	10.127791	4.041597	5.357989	0.780806	0.042949	0.373537	-0.958563	5.478334	1.953833	12.964968	-42.37024	109.278098	15.675924	0.030566	-0.376899	-0.929186	9.064542	2.907219	-0.535044	2.229896	-5.529252	6.01897	-0.537619	-0.639788	-0.397914
-0.68544	-0.652088	9.773552	4.346903	5.425402	0.382341	0.058599	0.335377	-0.962741	5.701558	1.840456	12.629871	-43.643127	91.137476	8.434601	0.056443	-0.392069	-0.928734	9.188482	2.733957	-0.23405	2.337438	-5.371236	8.524128	-0.537895	-0.673826	-0.365184
-0.058034	-0.423261	9.673059	4.563946	5.857335	0.3274	0.029972	0.349897	-0.965458	5.918953	1.614182	12.011482	-43.306586	70.464233	-2.406552	0.056888	-0.360356	-0.945091	9.249179	3.431476	-0.050262	3.12481	-4.8721	10.811287	-0.510079	-0.673418	-0.365044
-0.287052	-0.423095	9.668605	3.365404	5.642199	-0.163333	0.017037	0.27436	-0.919878	5.634167	0.657149	12.06127	-43.537536	51.085218	-15.793686	0.082175	-0.37767	-0.915939	9.303368	3.139725	-0.349932	4.672519	-4.443359	11.292684	-0.495687	-0.622984	-0.398541
-0.581983	-0.769467	9.206765	3.766126	6.138191	-0.371101	0.043721	0.345994	-0.951732	6.262443	0.712104	11.848057	-41.720981	37.160429	-29.86438	0.109307	-0.373233	-0.97389	9.246553	3.140354	-0.231219	6.434616	-3.45221	10.700825	-0.523987	-0.673622	-0.365114
-0.40024	-0.709978	9.722025	2.693738	6.194993	-0.397759	0.002102	0.354175	-0.978836	6.609045	0.711505	11.911951	-38.258173	28.917732	-42.520519	0.096476	-0.402877	-0.985956	9.248484	3.257001	-0.110911	8.223023	-2.545461	9.406276	-0.523152	-0.608852	-0.368463
-0.112772	-0.824827	9.783963	2.94379	6.995841	-0.446799	0.073834	0.345587	-1.005318	7.013235	1.330481	12.034214	-35.00725	30.98549	-52.423045	0.121548	-0.345733	-0.933123	9.313272	3.14195	0.18923	9.429887	-1.586886	8.816593	-0.495754	-0.640828	-0.366648
-0.167017	-0.36453	9.955339	3.255856	7.794886	-0.312038	0.016237	0.336501	-0.961693	6.882497	1.27375	11.295434	-32.225564	47.46416	-59.038355	0.083136	-0.359134	-0.959992	9.136514	3.491058	0.247319	10.947556	-0.849202	8.990966	-0.565923	-0.671755	-0.411908
-0.503697	-0.5926	10.288811	3.075466	8.378609	-0.363368	0.031887	0.298341	-0.965871	7.323378	2.060803	10.456175	-36.700855	74.129808	-62.968847	0.110124	-0.325128	-1.0056	9.016125	3.084054	0.063666	12.279169	-0.544845	9.595993	-0.468217	-0.655786	-0.381198
-0.457412	-0.82482	9.720429	2.926107	9.117867	-0.565599	0.042978	0.338938	-0.92358	6.456594	1.893286	10.26798	-48.645229	103.992902	-64.900726	0.148386	-0.342367	-0.976724	8.942959	3.487755	-0.654586	13.288738	-0.805457	8.523802	-0.509803	-0.63938	-0.397774
-0.172626	-0.308295	9.671315	2.161183	9.235822	-0.438808	0.028857	0.339312	-0.92323	6.987764	2.005499	10.901991	-55.223681	121.246119	-63.932937	0.14816	-0.388328	-0.973713	9.133077	3.548392	0.067845	14.117269	-0.670649	7.603213	-0.537619	-0.639788	-0.397914
-0.168213	-0.249888	9.898969	1.336623	9.88078	-0.732633	0.044107	0.332223	-0.948316	7.051182	2.737972	11.243654	-51.391399	114.521567	-58.972399	0.148606	-0.356615	-0.99007	9.242286	3.081289	-0.471094	14.603481	-0.934722	6.685774	-0.52392	-0.655777	-0.397007
-0.336553	-0.363923	10.065705	1.240663	9.672884	-1.410434	0.030344	0.353426	-0.979534	7.914686	3.356039	11.318949	-40.683166	87.522568	-51.896112	0.162618	-0.322684	-1.035402	9.179833	3.138758	-0.651668	15.246869	-0.924513	5.919284	-0.50987	-0.657225	-0.365881
-0.44434	-0.419834	10.404355	-0.508869	9.640951	-2.019282	0.056713	0.352334	-0.927345	8.92932	3.240584	10.321101	-34.125176	54.743762	-46.205995	0.188274	-0.323606	-1.021604	9.118616	3.138399	-0.772582	15.314373	-0.718046	6.682165	-0.538107	-0.671347	-0.411768
-0.333953	-0.880414	10.177239	-0.910479	9.867416	-3.179845	0.044078	0.366822	-0.983299	9.166703	2.677085	10.608661	-31.011942	27.701119	-44.006409	0.2011	-0.354171	-1.019873	9.473969	3.544616	-0.644435	14.762089	-0.414779	6.743847	-0.509319	-0.58915	-0.431341
-0.688123	-0.020714	9.6625	-3.358931	11.098055	-4.287534	0.044493	0.318452	-0.9449	9.461568	2.789492	10.954638	-20.838092	9.011231	-44.831406	0.227793	-0.321237	-1.051131	9.716231	3.719787	-0.27985	15.102258	0.329729	5.852693	-0.523223	-0.608026	-0.38399
-0.222619	-1.110987	10.007942	-5.068298	12.102757	-4.143609	0.058613	0.318078	-0.945249	9.566143	2.619858	10.447157	-11.902132	-0.35787	-48.277323	0.226907	-0.324452	-1.008082	9.533525	3.312176	-0.644323	15.379853	1.04469	4.839658	-0.495825	-0.640002	-0.382176
-0.922418	-0.423845	9.372092	-5.880684	14.465122	-4.102874	0.028829	0.373911	-0.958214	9.440779	2.281663	9.934698	-12.067821	-1.706952	-53.315338	0.214817	-0.321312	-1.050855	9.248058	2.966373	-0.172054	15.312519	1.520966	3.126053	-0.510012	-0.655573	-0.396937
-0.966311	-0.420909	10.053215	-8.26083	15.675514	-3.401641	0.042192	0.383779	-0.947903	8.917292	1.944413	9.640336	-15.01889	-3.431059	-57.989378	0.188199	-0.338926	-1.0206	9.313967	3.316425	0.249878	16.02019	2.054261	2.081785	-0.523573	-0.622565	-0.414209
-1.024223	-1.052965	9.992594	-12.412714	17.548789	-2.255179	0.043707	0.363294	-0.969223	8.875334	2.001468	10.375489	-15.440446	-12.497739	-60.299218	0.18879	-0.336782	-1.0493	10.192897	3.66162	-0.031666	16.420404	3.019436	0.578133	-0.523991	-0.65495	-0.412535
-0.911817	-1.225855	9.880391	-16.182674	22.199486	-1.954059	0.030758	0.305056	-0.941135	7.717527	1.609025	10.011141	-12.20228	-25.031472	-59.989673	0.150232	-0.320615	-1.063826	9.254681	3.432712	0.249272	17.87049	3.364606	0.235042	-0.523499	-0.642063	-0.351261
-0.27252	-0.222702	16.262061	-21.648413	23.928696	0.512555	0.07009	0.344903	-0.899542	6.567189	1.104206	9.986536	-9.947537	-37.035659	-58.288545	0.17641	-0.274504	-1.067388	9.948454	3.950809	-0.45418	17.566103	3.759592	0.387074	-0.509595	-0.623188	-0.398611
-0.917881	-0.537763	9.599021	-11.994057	37.041964	2.599305	0.072719	0.335003	-0.96309	5.845003	1.331973	11.217081	-4.048096	-46.604301	-56.252016	0.201546	-0.322459	-1.03623	10.01996	3.31431	0.14327	17.796691	3.794439	3.014515	-0.51043	-0.687958	-0.395263
-0.616062	-0.477151	10.400773	-12.088451	40.590093	4.037278	0.057842	0.34562	-0.952081	5.152901	1.389549	11.145982	20.043372	-53.910737	-55.349692	0.175964	-0.306217	-1.051031	10.488518	3.42864	-0.027153	18.54385	3.504136	4.724769	-0.537552	-0.621943	-0.429807
-0.672819	-1.166408	10.396764	-14.469428	46.627047	4.571599	0.115067	0.351178	-0.981629	5.003314	-0.18896	9.386409	33.496094	-55.253802	-58.373027	0.189756	-0.258036	-1.083018	10.136062	3.197394	0.025162	19.446206	4.174976	5.237889	-0.509524	-0.624014	-0.383083
-1.013668	-0.246371	10.564503	-19.58587	50.607249	6.491036	0.042192	0.383779	-0.947903	4.335599	0.148881	7.787486	24.722932	-48.669298	-64.54115	0.163804	-0.258186	-1.082466	10.488653	3.370564	-0.0274	20.745056	4.762425	5.077561	-0.523432	-0.624218	-0.383153
-0.954886	-0.820587	10.620057	-20.712935	55.844026	7.622069	0.071576	0.359016	-0.955846	1.742387	8.111018	24.497841	139.42783	-74.583781	-20.502675	0.163139	-0.275651	-1.052763	10.720991	3.078655	-0.263862	21.852539	5.609696	3.388492	-0.523223	-0.608026	-0.38399
-0.948371	-0.589373	10.962141	-23.956489	60.668277	9.028477	0.113967	0.323294	-0.92191	-3.421374	-1.411012	10.850204	148.227595	-24.629299	-6.712478	0.162323	-0.323756	-1.021053	10.713983	3.2514	-0.622562	21.181027	6.025522	-1.562283	-0.565226	-0.624004	-0.398892
-0.998613	-1.047417	11.300215	-26.766443	66.201085	10.445145	0.128058	0.357518	-0.957243	-5.13325	-0.057519	8.947177	175.103943	4.089609	24.17672	0.148681	-0.341295	-0.991074	10.834081	3.3097	-0.5003	20.989789	6.468027	-8.929047	-0.482125	-0.655991	-0.381269
-0.937319	-0.472078	11.531154	-25.349221	71.261246	11.903287	0.098674	0.382281	-0.9493	-0.876722	1.908457	11.755788	157.186918	0.813196	26.226129	0.162022	-0.385037	-1.017038	10.41203	3.366744	-0.987011	18.693809	6.79387	-17.570665	-0.523987	-0.673622	-0.365114
-0.878536	-1.046293	11.586708	-26.43929	77.762218	12.625415	0.127301	0.367761	-0.946582	2.007483	5.898336	7.064292	133.61492	-0.026239	5.574153	0.148675	-0.401505	-1.001409	10.463228	3.887809	-1.343127	17.776815	7.423893	-22.612415	-0.524058	-0.672795	-0.380642
-0.931254	-1.16017	11.812524	-27.61949	84.664056	13.170327	0.141036	0.381157	-0.950348	-1.304744	5.677924	5.522565	76.09622	-6.439224	11.814784	0.148525	-0.432146	-0.999402	10.340814	4.351946	-1.523071	14.498197	7.027698	-23.882056	-0.509591	-0.641859	-0.35119
-1.091675	-1.444841	12.376508	-28.633636	92.687092	15.143591	0.154042	0.370198	-0.908469	-0.009643	1.679277	9.226159	40.843993	-2.810312	12.069128	0.161495	-0.49228	-1.010013	10.279057	4.583891	-1.642996	11.244429	6.491186	-20.445279	-0.510221	-0.671765	-0.3961
-1.32523	-1.330757	12.145124	-23.97412	101.604122	16.440417	0.140293	0.374101	-0.922196	0.071969	1.116765	10.303046	27.440172	-2.967948	10.14539	0.16135	-0.462711	-0.99767	9.508681	4.526828	-1.837269	10.768782	5.49657	-10.201502	-0.52392	-0.655777	-0.397007
-1.385742	-1.446322	11.972969	-22.712769	110.054398	19.548633	0.140293	0.374101	-0.922196	-0.173854	2.299615	9.676171	27.350835	-5.116737	10.339752	0.14889	-0.475963	-1.02509	9.995366	3.947955	-1.112056	8.465963	5.193624	-2.398576	-0.523991	-0.65495	-0.412535
-1.621399	-1.505045	11.627155	-21.883815	119.043692	20.980289	0.210138	0.38247	-0.913282	-0.132889	2.129852	8.884283	13.678567	-6.959716	7.720818	0.147564	-0.450682	-0.955349	10.18722	2.788749	-0.454723	8.727057	4.825548	0.75019	-0.524267	-0.688988	-0.379805
-1.850707	-1.102789	11.62439	-20.764826	125.860535	21.731841	0.210167	0.347872	-0.878298	0.004086	1.454476	9.849005	4.372581	-7.859728	5.361416	0.122272	-0.493577	-0.994836	9.596808	3.371106	-0.403348	8.957931	4.018151	-0.958313	-0.536918	-0.610708	-0.337477
-1.856606	-0.644463	11.342055	-21.732462	132.767954	21.754937	0.252143	0.360519	-0.882761	-0.106317	1.511212	10.073193	3.325972	-7.68161	4.221694	0.122052	-0.479329	-0.98149	9.191263	3.431858	0.008544	8.373652	2.33306	-3.851572	-0.523503	-0.623392	-0.398681
-2.267284	-0.818669	10.821859	-22.584351	139.101207	20.971104	0.181554	0.345093	-0.863524	-0.044587	1.229594	10.244083	5.832012	-7.459018	3.177761	0.186637	-0.480026	-0.968519	8.841973	3.259429	0.240827	8.164868	0.576789	-5.645576	-0.495895	-0.639176	-0.397704
-1.685956	-0.644828	11.288543	-22.882089	145.680154	20.404319	0.238022	0.360894	-0.882412	-0.164984	1.454942	10.015297	7.735952	-5.959307	2.608468	0.135028	-0.479254	-0.981765	8.431466	3.086641	0.352196	8.956453	-0.14628	-6.439589	-0.510221	-0.671765	-0.3961
-2.156939	-1.221807	10.594984	-21.985059	152.141305	19.862846	0.295276	0.331853	-0.876977	-0.221125	1.342436	10.070633	9.976814	-4.72807	1.543526	0.134808	-0.465005	-0.968419	8.307412	3.782834	0.113335	9.693128	-0.354592	-6.746875	-0.523711	-0.639584	-0.397844
-2.487145	-1.161222	11.270782	-21.812588	159.567753	20.565726	0.280026	0.338942	-0.851892	0.358048	1.397831	10.252688	13.262005	-3.858345	1.523989	0.109447	-0.463012	-0.996567	7.77364	3.492928	-0.077526	10.49665	0.669407	-7.885432	-0.51015	-0.672591	-0.380572
-2.880131	-1.159243	11.660959	-20.891703	168.743436	21.693529	0.320488	0.372075	-0.835035	0.059665	1.228952	9.736745	14.849954	-2.828606	1.874616	0.147853	-0.50982	-0.980034	7.650376	3.375809	-0.379756	12.174532	2.1724	-7.715314	-0.495683	-0.641655	-0.35112
-2.924972	-1.386314	12.284264	-18.247388	179.126562	22.652022	0.378113	0.346563	-0.843676	0.29433	1.454032	9.968329	15.9389	-2.201982	1.943379	0.096766	-0.462015	-1.010641	8.002292	3.83936	-0.431082	13.158332	4.265115	-5.650699	-0.537478	-0.641441	-0.366859
-2.856582	-1.383943	12.853909	-18.16971	190.380844	24.245341	0.362878	0.336353	-0.801099	0.063961	1.510794	9.96354	16.128737	-1.832653	2.101346	0.135248	-0.493502	-0.995111	7.884665	3.665402	-0.434025	11.992469	7.140723	-3.12357	-0.537966	-0.673	-0.380712
-3.60394	-1.786219	12.667185	-9.276423	200.92792	24.053971	0.348743	0.354027	-0.818242	0.286862	1.566409	9.628586	15.512919	-1.686763	2.040644	0.108636	-0.450907	-0.954522	7.699353	3.431525	-0.91757	10.512766	9.808384	-1.297202	-0.51015	-0.672591	-0.380572
-3.829783	-1.555563	12.834256	-6.406732	208.740574	24.17277	0.375498	0.339164	-0.762637	-0.112123	2.017997	9.847061	15.418917	-1.809392	1.85438	0.135173	-0.508823	-0.994108	7.705571	4.072092	-0.495502	8.793935	12.833474	1.384121	-0.523987	-0.673622	-0.365114
-3.828836	-1.325556	12.892074	-1.034288	215.593948	23.226207	0.417845	0.35534	-0.781176	0.283582	2.016958	9.515686	13.626769	-1.891444	1.54384	0.147413	-0.481323	-0.953342	7.352574	4.07315	-0.442198	6.479504	15.471422	2.846957	-0.524196	-0.689814	-0.364277
-4.701962	-1.557836	12.135316	2.42472	222.507531	18.882408	0.446872	0.309749	-0.757551	-0.050608	1.84904	10.018047	12.234343	-2.092672	1.479062	0.10841	-0.496868	-0.951511	7.223538	4.070947	-1.043468	4.587566	17.414268	3.639193	-0.510359	-0.688784	-0.379735
-5.003041	-1.101233	11.392589	-7.223245	224.72719	16.891747	0.487362	0.308283	-0.705711	-0.284172	1.680337	9.84315	12.257828	-2.703575	1.164725	0.109151	-0.464084	-0.982217	7.405413	4.362159	-0.739396	2.805272	18.452088	3.243367	-0.537966	-0.673	-0.380712
-3.716046	-1.395908	9.881959	-19.922956	223.791125	15.717139	0.487005	0.287456	-0.674143	0.062213	1.792399	9.907138	11.455825	-2.650221	0.825501	0.108706	-0.495796	-0.96586	7.698293	4.360989	-0.853708	1.595533	17.871544	2.761501	-0.537757	-0.656807	-0.381549
-5.649028	-2.725346	7.56554	-42.647378	222.150312	15.725179	0.51486	0.300478	-0.678257	0.06748	1.567267	10.133507	10.12451	-2.911393	0.667692	0.134658	-0.495646	-0.966412	7.753717	4.011409	-1.093718	0.71875	16.248292	2.650169	-0.5242	-0.671143	-0.411698
-8.312108	-2.774808	8.934292	-54.003316	218.350524	18.486546	0.528252	0.275747	-0.632963	-0.001396	1.79227	9.622731	10.246796	-3.002425	0.759369	0.120721	-0.514257	-0.922083	8.030516	4.297158	-2.04549	-0.432759	14.121975	3.764778	-0.524408	-0.687335	-0.410861
-7.769069	-1.103104	10.429492	-45.39138	201.025993	22.31967	0.527137	0.265162	-0.590735	0.17428	2.130072	9.796561	10.186608	-2.880346	0.729707	0.121462	-0.481473	-0.95279	8.392181	4.356155	-1.619292	-0.703751	11.186484	3.565822	-0.509803	-0.63938	-0.397774
-6.496348	-0.13696	8.241934	-24.156378	179.637229	15.839172	0.567984	0.284524	-0.570462	-0.165068	2.130956	10.072506	9.60245	-2.64408	0.978211	0.134588	-0.450757	-0.955073	9.383756	4.176912	-2.260302	0.928363	8.305219	1.73985	-0.524129	-0.671969	-0.39617
-5.602733	-2.338054	4.101418	-9.946625	149.117005	15.179319	0.552749	0.274313	-0.527885	0.064439	2.524838	10.077673	9.603503	-2.552688	1.071605	0.121977	-0.494649	-0.980486	9.508951	4.410676	-1.837764	2.594584	6.690937	-1.314774	-0.510217	-0.690436	-0.348679
8.204302	-2.990556	1.866692	13.182758	89.811666	14.853835	0.567255	0.260168	-0.524818	0.06353	1.736116	9.96373	9.202908	-2.466592	1.195452	0.108706	-0.495796	-0.96586	9.981641	4.642147	-1.768065	1.134263	6.210146	-2.651936	-0.523849	-0.656603	-0.381479
21.765798	-3.621579	4.628357	39.677503	-24.108664	0.843365	0.595111	0.27319	-0.528933	0.174926	1.792089	9.796277	8.153247	-2.390338	1.565303	0.121462	-0.481473	-0.95279	10.396259	4.467221	-1.701196	-2.220743	6.932234	-2.643232	-0.52427	-0.670317	-0.427226
12.936569	-6.075732	6.66266	67.97011	-106.293078	-3.486911	0.595125	0.25589	-0.511441	-0.396539	2.131339	10.01103	7.320962	-2.276851	1.349965	0.147633	-0.495571	-0.966688	10.6908	4.69885	-1.694705	-3.082637	7.920014	-3.806183	-0.523849	-0.656603	-0.381479
14.392313	-5.279624	5.04625	59.049749	-158.352326	8.63483	0.56837	0.270753	-0.567046	0.062644	1.567077	9.906948	5.184292	-2.673693	1.621753	0.10826	-0.527509	-0.949503	10.583637	4.759669	-1.09759	-0.780573	7.761809	-5.4641	-0.52392	-0.655777	-0.397007
13.551188	-5.102818	5.939921	49.119151	-165.7745	27.094997	0.540901	0.24396	-0.559516	0.526579	1.679018	10.086633	3.142896	-2.883958	1.679676	0.121386	-0.496793	-0.951786	10.463809	4.585216	-1.220346	1.396467	6.426526	-5.740665	-0.482196	-0.655164	-0.396796
13.326251	-4.584713	6.165051	48.04979	-192.626308	32.028003	0.569142	0.243211	-0.560215	0.063984	2.130477	10.020702	1.911741	-2.560707	1.435275	0.121456	-0.541683	-0.963125	10.24205	4.58897	-0.445958	2.948413	4.359913	-6.500458	-0.551945	-0.672377	-0.39631
13.413362	-4.291033	7.702405	50.329462	-242.461194	21.9828	0.558036	0.219914	-0.619998	0.062775	2.13043	9.964062	1.115785	-2.046166	0.915672	0.148519	-0.492355	-1.009737	9.883686	4.530716	-0.692436	5.568457	2.597733	-9.710431	-0.510363	-0.670113	-0.427155
10.522213	-4.110322	9.124521	58.947362	-282.827887	3.669977	0.541629	0.268316	-0.60516	-0.112231	2.074328	9.847109	0.748292	-1.804943	0.82529	0.108335	-0.512189	-0.950507	9.649802	4.066895	-0.638909	8.742175	1.367995	-13.933333	-0.523573	-0.622565	-0.414209
7.61564	-4.162755	9.749729	62.056902	-302.854717	-14.544072	0.54503	0.230873	-0.661876	0.345313	1.73534	9.686577	0.750473	-1.679062	0.333293	0.121606	-0.511042	-0.965133	8.996223	4.067391	-0.890641	9.743711	1.029481	-16.349519	-0.523573	-0.622565	-0.414209
4.688035	-4.392096	9.294004	53.278616	-306.400656	-28.348029	0.531667	0.221005	-0.672187	0.412118	1.960934	10.141092	0.966261	-1.764691	-0.22229	0.135173	-0.508823	-0.994108	8.697841	4.067324	-1.075864	9.374046	0.965395	-16.195081	-0.482476	-0.670531	-0.411487
2.347202	-4.274067	9.589952	34.053069	-299.486831	-35.296731	0.462565	0.219692	-0.709253	0.058802	1.679596	9.737124	1.123147	-1.578337	-0.281967	0.121977	-0.494649	-0.980486	8.691103	4.123917	-1.435058	8.027007	1.438918	-15.122896	-0.482822	-0.703742	-0.394285
0.309591	-4.497274	10.742816	11.862014	-289.600762	-36.943465	0.491549	0.225999	-0.738104	0.290727	2.073573	9.855571	0.878295	-1.397683	-0.24954	0.147709	-0.480251	-0.967691	8.285578	4.649524	-0.961281	6.837539	2.279129	-13.961344	-0.482405	-0.671357	-0.395959
-1.027403	-3.45413	12.653441	-3.91966	-280.237058	-36.071145	0.393791	0.273805	-0.812871	-0.001828	2.017592	9.622921	0.782729	-1.61432	-0.128458	0.096175	-0.464159	-0.981942	8.520792	4.06773	-1.079165	6.545619	3.271412	-12.406479	-0.510571	-0.686305	-0.426318
-2.157809	-3.737372	13.369055	-10.138186	-270.770962	-34.917952	0.423547	0.25257	-0.834889	0.060789	1.905013	9.850593	0.623191	-2.014929	-0.13257	0.147853	-0.50982	-0.980034	8.055516	3.489286	-0.790907	6.255932	4.632045	-10.975602	-0.510571	-0.686305	-0.426318
-3.41984	-3.449735	13.232058	-14.779344	-259.522314	-32.973505	0.381199	0.236395	-0.81635	-0.165415	1.680264	10.015487	0.556997	-2.382288	-0.352073	0.109001	-0.494724	-0.98021	8.341523	3.602785	-1.264165	5.19172	5.438027	-9.417015	-0.497219	-0.735505	-0.408209
-4.449389	-3.333865	13.269351	-24.615454	-247.530371	-28.210772	0.35253	0.302813	-0.871543	0.002122	1.848743	9.792697	0.67422	-2.87197	-0.264363	0.108706	-0.495796	-0.96586	8.531236	3.837651	-0.540992	5.356715	6.25633	-8.62694	-0.552433	-0.703936	-0.410164
-4.844727	-3.160044	13.546546	-36.960447	-236.067626	-21.271824	0.312454	0.255909	-0.884984	0.512635	2.01648	9.463882	0.300256	-3.122601	-0.174672	0.121236	-0.527434	-0.949779	8.052214	3.488544	-0.970627	5.297854	6.654417	-8.689748	-0.496242	-0.672387	-0.380502
-5.174483	-2.180153	14.283058	-44.374488	-225.16643	-14.387139	0.31354	0.301093	-0.962195	0.229427	2.129869	9.684491	-0.44518	-3.439067	-0.116762	0.09573	-0.495871	-0.965585	8.405481	3.371335	-1.024426	4.285557	6.671891	-7.76934	-0.51043	-0.687958	-0.395263
-5.665981	-1.197966	15.527907	-45.34442	-212.687985	-8.354406	0.298648	0.329009	-0.968677	0.292822	2.24266	9.968993	-0.601871	-3.56711	0.405916	0.121977	-0.494649	-0.980486	8.646352	3.197555	-0.781138	3.427945	6.626846	-6.665819	-0.510571	-0.686305	-0.426318
-6.132142	-0.739791	15.122957	-39.222107	-194.219938	-1.41698	0.273051	0.302559	-1.014035	0.009268	1.905358	10.132582	-0.210265	-4.358718	0.305876	0.095064	-0.513335	-0.935882	8.690408	3.949442	-1.495707	3.031056	6.400552	-5.624215	-0.552082	-0.689396	-0.379945
-6.161342	-0.401414	13.646225	-36.45286	-173.099381	6.094243	0.215411	0.34537	-1.022886	0.295216	1.623071	10.02511	-0.095576	-5.062061	0.237318	0.135028	-0.479254	-0.981765	8.463687	3.719656	-1.021842	1.613217	6.052965	-5.036752	-0.524267	-0.688988	-0.379805
-5.242754	-0.803686	13.776058	-39.959707	-159.341414	11.939698	0.202434	0.321731	-1.029781	0.348963	2.355165	9.913657	0.271917	-5.331941	0.019133	0.108706	-0.495796	-0.96586	7.987136	3.254891	-1.332158	-0.504219	5.933051	-3.041988	-0.468568	-0.670326	-0.411417
-5.167399	0.349205	14.7485	-36.317269	-151.593509	13.649659	0.172664	0.360265	-1.025254	0.408707	1.84813	9.971078	0.672683	-5.38858	0.080549	0.134507	-0.526287	-0.964405	8.398878	3.369851	-1.383867	-1.887122	5.484663	-1.567849	-0.552291	-0.705589	-0.379108
-5.953455	0.468046	15.529337	-23.08861	-142.837846	11.76053	0.201276	0.363044	-1.040029	0.056623	2.186523	9.680911	0.577584	-5.574154	0.140283	0.135098	-0.524143	-0.993104	8.632182	3.136265	-1.560175	-1.885091	4.952962	-0.434502	-0.483102	-0.719108	-0.408976
-6.86994	1.043124	15.513934	-8.827357	-129.726284	8.528514	0.173035	0.363793	-1.03933	0.291828	2.129951	9.912258	1.532179	-5.835984	-0.169833	0.133772	-0.498862	-0.923363	8.809925	3.310335	-1.496225	-1.822315	4.112745	0.975176	-0.510567	-0.704976	-0.378898
-7.46521	1.670571	14.368392	1.042097	-112.442751	4.334176	0.172621	0.412163	-1.077729	0.232168	1.960972	9.797628	2.049383	-6.472301	-0.329884	0.069112	-0.513486	-0.93533	8.578127	3.369941	-1.260752	-2.893449	3.503693	3.304781	-0.524688	-0.702702	-0.425551
-7.647409	2.242939	13.855787	9.413948	-94.116233	-0.36035	0.114638	0.416847	-1.037521	-0.16222	1.905728	10.185595	2.260105	-6.899286	-0.272304	0.134438	-0.481398	-0.953066	8.636469	3.660186	-1.258416	-4.119222	3.174443	5.144626	-0.497152	-0.71766	-0.440102
-7.890861	2.182527	13.112001	17.2103	-78.355734	-6.873826	0.116524	0.39989	-1.072917	0.239422	1.961257	10.137465	2.499187	-7.539537	-0.370962	0.082603	-0.526587	-0.963302	8.758882	3.196049	-1.078472	-5.127424	3.556791	6.277331	-0.510288	-0.68961	-0.364207
-7.838185	2.353845	12.886427	23.20192	-66.565096	-13.876239	0.132545	0.365259	-1.09117	0.298196	1.961197	10.195314	2.641533	-8.488437	-0.349454	0.109742	-0.46194	-1.010917	8.936491	3.428195	-1.014275	-5.489498	4.068242	6.979185	-0.510292	-0.670939	-0.411627
