1824_acc_x	1824_acc_y	1824_acc_z	1824_gyro_x	1824_gyro_y	1824_gyro_z	1824_mag_x	1824_mag_y	1824_mag_z	1825_acc_x	1825_acc_y	1825_acc_z	1825_gyro_x	1825_gyro_y	1825_gyro_z	1825_mag_x	1825_mag_y	1825_mag_z	1826_acc_x	1826_acc_y	1826_acc_z	1826_gyro_x	1826_gyro_y	1826_gyro_z	1826_mag_x	1826_mag_y	1826_mag_z
-0.0704	-0.4576	10.0068	-0.2048	-0.0538	0.1859	-0.0359	0.2356	-1.0305	0.2495	0.2536	9.5932	-0.8163	1.1034	-0.1554	0.5404	-0.2522	-0.7445	-9.682	1.7572	-0.1711	-0.5375	1.8337	-0.5224	0.8136	-0.2939	0.8059
-0.1393	-0.3349	9.5371	-0.1059	0.2829	0.2535	-0.0588	0.2529	-1.098	0.0291	0.2561	10.0575	-0.7233	1.1367	-0.0025	0.5404	-0.2762	-0.7445	-10.1343	1.1891	-0.1227	-0.3486	1.6494	-0.4066	0.7652	-0.2964	0.7339
-0.0789	0.3063	9.5885	-0.1051	0.2518	0.3758	-0.0426	0.2704	-1.1132	0.5464	0.6008	10.1861	-0.6952	1.1971	-0.1874	0.5584	-0.2822	-0.7385	-9.7441	1.8708	-0.4582	-0.1036	1.4069	-0.4773	0.7813	-0.3141	0.7869
-0.3792	0.5977	9.6379	-0.0443	0.4067	0.0401	-0.0026	0.2517	-1.0614	0.5436	0.2549	10.0088	-0.6574	0.9521	0.0289	0.5584	-0.2642	-0.7565	-9.5147	1.5862	-0.3398	0.1158	1.3448	-0.3922	0.829	-0.2947	0.7529
0.0407	0.0734	9.5351	-0.0094	0.5899	0.1359	-0.0389	0.2338	-1.0808	-0.2138	0.5409	9.3514	-0.127	0.6162	-0.0951	0.5464	-0.2762	-0.7445	-9.4552	1.8706	-0.1669	0.3914	0.9806	-0.4648	0.8129	-0.3138	0.7698
0.0463	-0.1054	9.8293	0.0844	0.6211	0.1969	0.0172	0.2326	-1.0442	0.4227	0.7714	9.716	-0.2485	0.522	-0.1246	0.5464	-0.2702	-0.7445	-9.1704	1.8703	-0.1044	0.3484	0.7424	-0.8341	0.8133	-0.2946	0.7704
-0.4981	0.3054	9.6979	0.0845	0.6826	0.106	-0.0214	0.2714	-1.0618	0.0817	0.4275	9.825	-0.1895	0.7098	0.0583	0.5704	-0.2642	-0.7565	-9.4544	1.2451	-0.1673	0.5967	0.6507	-0.8116	0.8602	-0.3508	0.7873
-0.3064	-0.1108	10.2902	0.0478	0.377	0.0383	-0.0037	0.2511	-1.0782	0.4298	0.4854	10.0662	-0.193	0.8641	0.0267	0.5464	-0.2702	-0.7565	-9.6836	1.359	-0.2859	0.3704	0.8685	-1.1411	0.8303	-0.218	0.7554
-0.0834	0.5426	9.3519	0.1079	0.2553	0.0657	-0.058	0.234	-1.0986	0.1407	0.7154	9.9446	-0.5062	1.0453	-0.0954	0.5524	-0.2642	-0.7265	-9.5704	1.5864	-0.2836	0.2514	1.2319	-1.0117	0.8133	-0.3131	0.8053
-0.4983	-0.3359	9.6475	-0.0154	0.1925	0.1889	-0.0711	0.2183	-1.0332	0.1453	0.6015	10.1784	-0.57	1.2007	0.0577	0.5524	-0.2582	-0.7505	-9.7409	1.7572	-0.2866	-0.1467	1.4126	-0.8754	0.7806	-0.3525	0.7857
-0.6832	-0.216	9.4093	-0.0157	0.1926	0.1581	-0.0531	0.2175	-1.0321	0.5398	0.5992	9.8346	-0.6339	1.2289	-0.1572	0.5524	-0.2762	-0.7505	-9.578	1.8135	-0.6841	-0.2038	1.7456	-0.7481	0.7649	-0.3525	0.8031
0.0381	-0.333	9.3651	0.0496	0.4071	0.162	-0.0178	0.2348	-1.0295	0.4143	0.4818	9.2461	-0.5652	0.921	-0.0944	0.5464	-0.2642	-0.7505	-9.7964	1.6435	-0.2305	-0.3287	1.7155	-0.7754	0.8294	-0.3124	0.8234
-0.074	-0.1636	9.8279	0.1796	0.7748	0.1991	-0.0546	0.1779	-1.0836	0.2019	0.3711	10.1198	0.0929	0.4966	0.0887	0.5584	-0.2702	-0.7565	-9.7957	1.8711	-0.1731	-0.2688	1.686	-0.8389	0.798	-0.2566	0.7713
-0.0828	0.0757	9.3578	0.5199	0.9626	-0.0472	-0.0382	0.2149	-1.0814	0.4927	0.3716	10.3597	0.3204	0.0056	0.2439	0.5524	-0.2762	-0.7445	-9.6864	1.9276	-0.3999	-0.539	1.6515	-0.5545	0.8129	-0.3138	0.7698
-0.1336	0.186	9.8809	0.5865	1.115	0.1706	-0.0207	0.2525	-1.0624	0.5934	0.138	9.5993	0.1715	-0.2751	0.1543	0.5584	-0.2762	-0.7445	-9.6834	1.9846	-0.2282	-0.3229	1.469	-0.5624	0.8439	-0.3334	0.7165
-0.5002	0.3068	9.5811	0.674	1.0258	-0.1707	-0.0207	0.2525	-1.0624	0.7124	0.8292	9.8975	0.4776	-0.1795	0.1212	0.5524	-0.2762	-0.7505	-9.394	1.7001	0.063	-0.5645	1.3137	-0.3413	0.8129	-0.3138	0.7698
-0.2667	0.1949	9.178	0.4551	0.8401	-0.1413	-0.0382	0.2149	-1.0814	0.5353	0.5982	9.6003	0.3506	0.0368	0.2436	0.5644	-0.2642	-0.7565	-9.6827	1.4159	-0.2286	-0.468	1.2511	-0.2218	0.7657	-0.2953	0.7872
-0.2007	-0.159	9.4754	0.2976	0.6553	-0.1433	-0.0207	0.2525	-1.0624	0.2547	0.4274	9.8869	-0.0571	0.3098	0.1214	0.5584	-0.2642	-0.7505	-9.4519	1.757	0.0048	-0.5304	1.4037	-0.2495	0.8288	-0.3135	0.7701
-0.0794	-0.1015	9.5352	0.0453	0.2858	-0.0559	0.0162	0.232	-1.061	0.3067	0.2535	9.5943	-0.2556	0.8941	-0.0038	0.5644	-0.2762	-0.7685	-10.1434	1.7574	-0.5801	-0.5851	1.3088	-0.0028	0.8131	-0.295	0.7526
-0.2498	0.1832	10.1124	-0.2091	-0.1136	-0.1229	-0.0214	0.2714	-1.0618	0.4311	0.3132	10.124	-0.3527	1.0778	-0.0965	0.5584	-0.2822	-0.7685	-9.4029	2.1547	-0.3945	-0.5188	1.5201	0.1199	0.8128	-0.3326	0.7869
-0.3145	0.4196	9.8748	-0.457	-0.2388	0.0006	-0.0052	0.2115	-1.1297	0.1968	0.1397	9.8259	-0.4802	1.2935	-0.0356	0.5524	-0.2642	-0.7385	-9.8544	1.8142	-0.2887	-0.6077	1.2744	0.2742	0.7489	-0.3343	0.7679
-0.4336	0.244	9.9332	-0.2988	-0.1157	0.155	-0.0037	0.2511	-1.0782	0.194	-0.2061	9.6486	-0.7002	1.4765	-0.0661	0.5524	-0.2762	-0.7505	-9.4056	1.7565	-0.5665	-0.5482	1.3975	0.1812	0.8122	-0.3337	0.7336
-0.6176	-0.3365	9.7038	-0.3302	-0.1466	0.1547	0.0115	0.268	-1.1101	0.713	0.4267	9.8957	-0.5729	1.2922	-0.0658	0.5524	-0.2522	-0.7565	-9.228	1.7566	-0.1628	-0.7625	1.2744	0.2788	0.8451	-0.294	0.771
-0.4309	-0.166	10.0552	-0.1738	-0.0228	0.1555	-0.0191	0.2147	-1.0636	0.1987	0.3128	9.9439	-0.5663	1.0467	0.12	0.5404	-0.2762	-0.7445	-9.8479	1.587	0.0546	-0.8835	1.273	0.3746	0.7823	-0.2751	0.8237
-0.1972	0.3633	9.7024	-0.0477	0.0697	0.2481	-0.0225	0.2708	-1.0786	0.5419	0.6573	9.952	-0.3454	0.8013	0.0894	0.5704	-0.2642	-0.7445	-9.4602	1.7567	-0.4531	-0.7942	1.0309	0.2778	0.8124	-0.3333	0.7514
0.1052	0.012	9.7705	-0.1057	0.3751	0.1325	-0.0387	0.2533	-1.0635	0.0234	0.3698	9.7651	-0.2784	0.5228	-0.0015	0.5464	-0.2642	-0.7565	-9.628	1.4158	-0.342	-0.7756	0.9758	-0.1226	0.7657	-0.3138	0.8221
-0.3161	0.0709	9.7624	-0.0488	0.1624	0.0041	-0.0348	0.1589	-1.0664	0.1348	0.3113	9.5913	-0.4306	0.4285	-0	0.5524	-0.2762	-0.7625	-9.3448	1.8704	-0.3365	-1.059	0.9474	-0.268	0.7809	-0.3333	0.7863
-0.0798	0.1903	9.5315	-0.4487	0.0962	0.2538	-0.0389	0.2338	-1.0808	0.7079	0.1953	9.6018	-0.4993	0.7682	0.0291	0.5524	-0.2642	-0.7565	-9.5699	2.0413	-0.226	-1.0628	0.9492	-0.3908	0.8289	-0.332	0.805
0.1037	0.3629	9.7077	-0.4506	-0.0568	0.312	-0.0371	0.2155	-1.0646	0.5992	0.5997	9.9528	-0.6921	1.074	-0.1252	0.5464	-0.2762	-0.7385	-9.6269	1.4158	-0.2848	-1.1269	0.8587	-0.4511	0.8126	-0.3145	0.7342
-0.3181	-0.0443	9.647	-0.3906	-0.24	0.4303	-0.0405	0.2716	-1.0796	0.1924	0.0812	9.5913	-0.9137	1.2867	-0.2789	0.5524	-0.2642	-0.7505	-9.5721	2.0981	-0.3405	-1.3093	1.0095	-0.3522	0.829	-0.3131	0.7879
-0.4996	-0.1601	9.5869	-0.3883	-0.0257	0.3119	-0.0222	0.2902	-1.0613	0.3628	0.3107	9.5371	-0.8187	1.2273	-0.1254	0.5524	-0.2642	-0.7445	-9.8583	1.5297	-0.5178	-1.4463	1.0011	0.2356	0.8131	-0.3135	0.7875
-0.4978	0.1303	9.7001	-0.329	-0.0548	0.126	-0.0359	0.2356	-1.0305	0.2014	0.6586	10.1211	-0.569	1.1068	-0.0647	0.5584	-0.2582	-0.7445	-9.4531	1.8707	-0.0524	-1.3004	1.1577	-0.0747	0.7972	-0.3138	0.7872
0.0473	0.6519	9.9366	-0.3228	0.2195	0.2856	-0.0397	0.2527	-1.0802	0.2568	0.4855	10.0043	-0.1558	0.5868	0.0896	0.5464	-0.2642	-0.7565	-9.7987	1.7572	-0.3449	-1.3019	0.9756	-0.1069	0.7654	-0.3145	0.7866
-0.3732	0.0688	9.9365	-0.04	0.5279	0.258	-0.0575	0.2729	-1.0639	0.7142	0.3694	9.954	-0.1454	0.1555	0.2458	0.5524	-0.2702	-0.7685	-9.6811	1.871	-0.1138	-1.1801	0.9156	-0.1725	0.7973	-0.295	0.7701
0.0471	0.069	9.8855	-0.0395	0.5585	0.2586	-0.0225	0.2708	-1.0786	-0.0337	0.2549	9.7634	0.4105	0.0987	0.1814	0.5464	-0.2942	-0.7445	-9.6285	1.8707	-0.3417	-1.1455	0.8834	-0.0508	0.7811	-0.3145	0.7691
-0.1336	0.186	9.8809	-0.0675	0.7723	0.2021	0.0172	0.2326	-1.0442	0.3582	0.4822	9.3035	0.1349	-0.0287	0.0916	0.5584	-0.2762	-0.7565	-9.461	1.5292	-0.5105	-0.7979	0.7583	0.1836	0.7816	-0.295	0.7875
-0.5613	0.1909	9.5231	-0.2571	0.4338	0.3202	-0.0201	0.2141	-1.0804	0.6028	0.4279	10.1278	0.2303	-0.1829	0.0305	0.5464	-0.2762	-0.7385	-9.6765	1.4731	0.1148	-0.4925	0.608	0.0503	0.7967	-0.3333	0.7688
-0.4333	0.0105	9.9362	-0.4841	0.0054	-0.0246	-0.0196	0.2531	-1.0457	0.0281	0.8312	10.06	0.2241	0.095	-0.0019	0.5464	-0.2762	-0.7565	-9.6899	1.3587	-0.6293	-0.4615	0.6385	0.0496	0.7969	-0.333	0.7866
0.0453	-0.163	9.7716	-0.3618	-0.2081	0.1846	-0.0026	0.2517	-1.0614	0.3081	0.7716	9.7138	-0.0633	0.5877	0.0891	0.5524	-0.2702	-0.7505	-9.6895	1.8706	-0.5717	-0.4554	0.7576	0.2348	0.8128	-0.3326	0.7869
0.0457	0.3032	9.8242	-0.52	-0.3927	0.121	-0.0547	0.2553	-1.031	0.4294	0.0251	10.0055	-0.4747	1.0465	-0.0034	0.5644	-0.2702	-0.7625	-10.0915	2.3259	-0.8075	-0.5545	0.8823	0.0236	0.8136	-0.2939	0.8059
-0.0727	-0.3394	9.8885	-0.4575	-0.3308	0.0908	-0.0415	0.271	-1.0964	0.4262	0.6572	9.8912	-0.5121	1.3553	-0.0051	0.5464	-0.2702	-0.7625	-9.4583	1.8705	-0.3386	-0.761	1.1518	0.3393	0.7494	-0.2963	0.7513
-0.1361	0.4209	9.7611	-0.3387	-0.6352	0.1135	-0.058	0.234	-1.0986	0.656	0.2542	9.8938	-0.6374	1.4468	-0.0049	0.5644	-0.2822	-0.7505	-9.6885	1.9275	-0.5144	-1.0664	1.2716	0.4723	0.7967	-0.3333	0.7688
-0.0704	0.3004	10.0557	-0.3006	-0.238	0.1831	-0.0351	0.2167	-1.0311	0.2614	0.3715	10.2381	-0.727	1.3225	0.0271	0.5464	-0.2702	-0.7445	-9.6336	1.6999	-0.628	-1.0872	1.2364	0.8106	0.7973	-0.295	0.7701
-0.2599	-0.1013	9.532	-0.2963	-0.0245	0.2492	-0.0549	0.2358	-1.0483	0.2536	0.4272	9.8283	-0.6315	1.1686	-0.0032	0.5644	-0.2582	-0.7625	-9.8587	1.8709	-0.5175	-0.9702	1.1482	0.5913	0.7968	-0.3145	0.7517
-0.5	0.1901	9.5825	0.0422	0.041	0.0311	0.0133	0.2497	-1.0939	0.7719	0.1393	9.9541	-0.7495	0.8882	-0.0931	0.5584	-0.2702	-0.7445	-9.6274	1.757	-0.2845	-0.7488	0.8413	0.7666	0.782	-0.2758	0.7881
0.101	0.0149	9.5369	-0.2356	0.0689	0.0045	-0.0219	0.2324	-1.0966	0.3046	0.8859	9.5386	-0.6814	0.643	0.0616	0.5464	-0.2642	-0.7385	-9.6877	2.0982	-0.457	-1.0542	0.9612	0.8996	0.8129	-0.3138	0.7698
-0.1344	-0.0468	9.8254	-0.1954	0.5883	0.0767	-0.0217	0.2519	-1.0792	0.5997	0.3121	9.9516	-0.3964	0.3378	0.1847	0.5464	-0.2642	-0.7565	-9.3437	1.8135	-0.2793	-0.965	0.9934	0.7743	0.7808	-0.3521	0.8034
0.104	0.1295	9.7106	-0.2647	0.0986	0.1285	-0.04	0.2332	-1.0976	0.6564	0.6571	9.9542	-0.2212	0.7083	-0.0644	0.5404	-0.2702	-0.7445	-9.2327	1.3015	-0.4493	-0.7584	0.7848	0.4592	0.8299	-0.2744	0.8069
-0.1374	-0.1613	9.6517	-0.4217	-0.0557	0.1271	-0.0037	0.2511	-1.0782	0.6487	0.6553	9.5441	-0.5025	0.8277	-0.2171	0.5464	-0.2582	-0.7565	-9.5746	1.643	-0.5125	-0.4802	0.6328	0.4496	0.7501	-0.2765	0.7875
-0.1915	0.0678	9.9981	-0.4587	-0.4226	0.1196	-0.0188	0.2342	-1.0463	0.2488	0.6562	9.595	-0.5702	1.2322	0.1189	0.5464	-0.2642	-0.7505	-9.1236	1.5286	-0.676	-0.6733	0.6971	0.2101	0.7801	-0.3535	0.7324
0.1011	-0.0434	9.5376	-0.5843	-0.5461	0.1185	0.018	0.2137	-1.0448	0.3701	0.6	9.9484	-0.5106	1.2302	-0.158	0.5524	-0.2642	-0.7565	-9.401	1.4155	-0.3379	-0.8592	0.9409	0.1869	0.8286	-0.3138	0.7523
0.0473	-0.0477	9.887	-0.6447	-0.4857	0.1513	-0.0034	0.2706	-1.0608	-0.0288	0.6012	10.0579	-0.5718	1.2301	-0.0962	0.5464	-0.2522	-0.7445	-9.91	1.6437	-0.2326	-0.9789	1.0608	0.3143	0.7806	-0.3525	0.7857
-0.3262	-0.3303	9.1835	-0.551	-0.3622	0.0606	-0.0201	0.2141	-1.0804	0.7138	0.5995	9.955	-0.6641	1.2295	-0.0649	0.5584	-0.2762	-0.7505	-9.6836	1.359	-0.2859	-0.6035	1.1201	0.4265	0.8288	-0.3135	0.7701
0.1717	0.0659	10.1212	-0.4908	-0.4532	0.0578	-0.04	0.2332	-1.0976	0.0313	0.2566	10.1746	-0.5379	1.0756	-0.1262	0.5524	-0.2642	-0.7505	-9.6861	1.6433	-0.4001	-0.7017	1.214	0.2458	0.7816	-0.295	0.7875
-0.1322	-0.0482	9.9422	-0.4237	-0.1779	0.1245	-0.0188	0.2342	-1.0463	0.3754	0.0259	10.1802	-0.3755	0.7701	0.0898	0.5584	-0.2642	-0.7505	-9.7976	1.7572	-0.2877	-0.5166	1.001	0.2386	0.7968	-0.3145	0.7517
-0.2529	0.1854	9.9372	-0.077	0.2225	0.1596	-0.0191	0.2147	-1.0636	0.4298	0.4854	10.0662	-0.1471	0.2167	0.1839	0.5464	-0.2702	-0.7565	-9.566	1.4159	-0.0548	-0.3275	0.8776	0.3548	0.7815	-0.3138	0.8047
0.0311	0.1967	9.0081	0.051	0.5295	0.1031	-0.0546	0.1779	-1.0836	0.2629	0.1417	10.2957	0.166	0.0037	0.2141	0.5524	-0.2702	-0.7385	-9.8584	1.6434	-0.5177	-0.1421	0.7559	0.3483	0.7979	-0.2755	0.7885
-0.1323	0.0101	9.9415	-0.0731	0.4977	0.104	-0.0183	0.1958	-1.0642	0.1927	0.599	9.6522	0.2937	-0.2753	-0.0001	0.5343	-0.2642	-0.7445	-9.2886	1.4722	-0.393	-0.1179	0.6982	0.132	0.7491	-0.334	0.7856
-0.3733	0.1855	9.935	-0.0433	0.5293	-0.0495	-0.0204	0.1946	-1.0977	0.595	0.4836	9.718	0.1664	-0.0911	-0.0004	0.5464	-0.2762	-0.7565	-9.7393	1.3591	-0.2297	0.0005	0.7617	-0.0554	0.7972	-0.3323	0.8222
-0.6101	0.4164	10.1615	-0.197	0.3736	0.2566	-0.0565	0.2735	-1.0471	0.3641	0.1959	9.5952	-0.0626	0.525	-0.0028	0.5644	-0.2762	-0.7625	-9.6223	1.871	0.0017	-0.0289	0.6695	0.0062	0.7965	-0.3152	0.7161
0.0438	0.1879	9.7089	-0.2949	0.098	0.1904	-0.0382	0.2149	-1.0814	0.2555	0.6002	9.9462	-0.5614	0.767	-0.032	0.5704	-0.2582	-0.7445	-9.8544	1.7573	-0.2887	-0.125	0.8538	-0.1123	0.8128	-0.3326	0.7869
-0.1355	-0.7457	9.7174	-0.3535	0.2499	0.2559	-0.0039	0.2316	-1.0955	-0.0916	0.6	9.7639	-0.5669	1.0458	0.0278	0.5524	-0.2642	-0.7565	-9.7379	1.871	-0.1148	-0.1867	0.9147	-0.11	0.8129	-0.3323	0.8047
0.2921	0.0657	10.1233	-0.3897	0.0672	0.0371	-0.0196	0.2531	-1.0457	0.4849	0.4273	9.9499	-0.5115	1.2926	-0.0969	0.5524	-0.2762	-0.7565	-9.5178	1.5292	-0.5116	-0.1729	1.1216	0.3214	0.8134	-0.2758	0.7532
-0.1332	-0.1059	9.8845	-0.4454	0.2178	0.3794	-0.0389	0.2338	-1.0808	0.3077	0.3688	9.6534	-0.5425	1.292	-0.1274	0.5524	-0.2702	-0.7625	-9.8631	2.0982	-0.7463	-0.5969	1.117	0.6414	0.8453	-0.2936	0.7888
0.1673	0.1856	9.8862	-0.3224	0.3424	0.1345	0.0141	0.2308	-1.0945	0.0239	0.7151	9.8252	-0.4456	1.1398	0.0266	0.5644	-0.2702	-0.7565	-9.4581	1.6999	-0.3387	-0.5526	1.1718	1.0707	0.8134	-0.2758	0.7532
0.347	0.011	9.8331	-0.1663	0.4047	0.1954	-0.0029	0.2322	-1.0788	0.3131	0.4276	9.9466	-0.4385	0.8313	0.0898	0.5584	-0.2702	-0.7505	-9.3474	1.4722	-0.5085	-0.3881	0.9844	1.4022	0.83	-0.2556	0.7897
-0.4317	-0.3404	9.999	-0.0746	0.3446	0.1929	-0.0209	0.233	-1.0798	0.7643	0.0799	9.5438	-0.4286	0.3993	0.1845	0.5404	-0.2822	-0.7505	-9.4582	1.8136	-0.3386	-0.1984	1.0436	1.52	0.797	-0.3142	0.7694
-0.0758	-0.3956	9.7141	0.0483	0.3461	0.1299	-0.017	0.2159	-1.0301	0.3667	0.6568	9.773	-0.3055	0.3685	0.0611	0.5343	-0.2702	-0.7505	-9.4613	1.8135	-0.5103	-0.4124	1.0117	1.6183	0.797	-0.3142	0.7694
-0.3251	-0.331	9.2419	-0.1666	0.3434	0.2556	-0.0766	0.2731	-1.0817	0.1474	0.0266	10.2344	-0.3678	0.3988	0.0612	0.5524	-0.2702	-0.7625	-9.7455	1.302	-0.5731	-0.165	0.6158	1.6384	0.7974	-0.3135	0.805
-0.191	0.4173	10.0521	-0.3557	0.097	0.2834	0.0144	0.2503	-1.0771	0.2	0.8309	10.0633	-0.154	0.4937	0.0594	0.5524	-0.2522	-0.7445	-9.452	1.8139	0.0048	0.1103	0.465	1.5368	0.7814	-0.2953	0.7697
-0.3795	0.0732	9.5861	-0.3218	0.2806	0.2869	-0.0719	0.2372	-1.0326	0.7066	0.3101	9.5437	-0.2518	0.6765	-0.1255	0.5524	-0.2702	-0.7505	-9.8478	1.5301	0.0545	0.2327	0.3134	1.5012	0.7975	-0.2762	0.7529
-0.256	0.1292	9.7627	-0.4514	0.0357	0.0987	-0.0742	0.2165	-1.0835	0.2513	0.4842	9.7114	-0.3754	0.675	-0.1555	0.5524	-0.2702	-0.7385	-9.4506	1.5865	0.0619	0.4698	0.227	1.1554	0.8286	-0.3138	0.7523
-0.1923	-0.1649	9.9426	-0.6364	-0.0278	0.2227	-0.0031	0.2127	-1.0961	0.3732	0.7158	10.1247	-0.1906	0.7084	-0.0953	0.5524	-0.2702	-0.7505	-9.6295	1.8138	-0.399	0.5879	0.1992	0.9673	0.8287	-0.3323	0.7873
-0.0726	-0.3978	9.8893	-0.6057	0.0034	0.1614	-0.0387	0.2533	-1.0635	0.4208	0.5984	9.5981	-0.0673	0.6778	-0.188	0.5584	-0.2702	-0.7505	-9.5706	1.757	-0.2835	0.5488	-0.0103	0.721	0.7653	-0.296	0.7516
-0.1958	0.0708	9.7645	-0.449	0.2193	0.0411	-0.0371	0.2155	-1.0646	0.2447	0.4826	9.3599	-0.1219	0.4004	-0.0324	0.5404	-0.2642	-0.7565	-9.3992	1.6999	-0.2232	0.5468	0.2649	0.631	0.828	-0.3522	0.7511
-0.196	0.2459	9.7623	-0.2275	0.4962	0.1059	-0.0214	0.2714	-1.0618	0.3699	0.7151	9.949	-0.0001	0.4314	-0.1562	0.5464	-0.2762	-0.7565	-9.177	1.3582	-0.5054	0.5758	0.2353	0.5685	0.7809	-0.3333	0.7863
-0.1345	0.07	9.8239	-0.1975	0.4046	0.165	-0.0034	0.1933	-1.1135	0.2598	0.6588	10.1808	-0.1221	0.4001	-0.0631	0.5464	-0.2702	-0.7505	-9.8583	1.5297	-0.5178	0.5025	0.4845	0.1732	0.8133	-0.3131	0.8053
-0.0766	0.1881	9.7067	-0.1731	0.1922	-0.1167	-0.0534	0.198	-1.0495	0.2556	0.5427	9.946	-0.1268	0.5847	-0.1564	0.5464	-0.2642	-0.7565	-9.2864	1.4154	-0.2785	0.1585	0.6078	0.0616	0.7809	-0.3148	0.7514
-0.6804	0.0153	9.5816	-0.2673	0.0997	-0.1175	-0.0354	0.2745	-0.9958	0.4235	0.2538	9.7137	-0.4417	0.8907	-0.1564	0.5584	-0.2642	-0.7565	-9.6923	1.643	-0.7435	0.001	0.9443	-0.0539	0.8127	-0.3142	0.752
-0.1956	-0.046	9.7659	-0.3241	0.22	0.1626	-0.0402	0.2137	-1.115	0.0257	0.9457	9.9434	-0.4159	1.1387	-0.1273	0.5404	-0.2762	-0.7565	-9.5243	1.7564	-0.8548	-0.3714	1.2494	-0.1018	0.829	-0.2947	0.7529
-0.3156	-0.3376	9.7675	-0.2344	0.1607	-0.0243	-0.0191	0.2147	-1.0636	0.3699	0.0247	9.8873	-0.8781	1.166	-0.0018	0.5524	-0.2702	-0.7445	-9.8587	1.8709	-0.5175	-0.6147	1.4301	0.0298	0.7977	-0.2758	0.7707
-0.2573	0.2467	9.7028	-0.1147	-0.1441	0.0906	-0.0531	0.2175	-1.0321	0.3628	0.3107	9.5371	-0.8453	1.0736	-0.0014	0.5464	-0.2762	-0.7325	-9.6242	1.7003	-0.1129	-0.4475	1.5158	0.425	0.8129	-0.3138	0.7698
-0.3149	-0.0465	9.8222	0.0121	0.0711	0.0629	-0.0188	0.2342	-1.0463	0.3772	0.314	10.2986	-0.5625	0.8609	0.0904	0.5464	-0.2702	-0.7565	-9.7942	1.5299	-0.1161	-0.0436	1.3629	0.4731	0.7801	-0.3535	0.7324
-0.2603	0.1905	9.5284	-0.0154	0.1925	0.1889	-0.058	0.234	-1.0986	0.2544	0.6	9.8877	-0.4982	0.7379	0.0907	0.5524	-0.2822	-0.7505	-9.4608	2.2116	-0.4528	-0.1097	1.2125	0.351	0.797	-0.3142	0.7694
-0.3189	0.5393	9.6397	0.0139	0.1934	0.0348	-0.0387	0.2533	-1.0635	0.1411	0.4854	9.9435	-0.4035	0.6146	0.0294	0.5404	-0.2582	-0.7625	-9.8028	1.7001	-0.5739	0.2026	0.9065	0.4621	0.8289	-0.332	0.805
-0.0837	-0.0402	9.3009	-0.1382	0.3139	0.0701	-0.0008	0.2334	-1.0452	0.1331	0.6561	9.5342	-0.4667	0.6755	-0.0013	0.5343	-0.2642	-0.7565	-9.6811	1.8141	-0.1138	0.2362	0.8443	0.5528	0.7809	-0.3148	0.7514
-0.1379	0.1889	9.6473	-0.3321	-0.0228	-0.2116	-0.0541	0.2169	-1.0489	0.6569	0.3695	9.9529	-0.3124	0.6774	0.0285	0.5584	-0.2822	-0.7505	-9.2912	1.927	-0.5071	-0.1986	0.6924	0.5339	0.8129	-0.3138	0.7698
0.229	-0.1654	9.95	-0.3668	-0.3291	-0.0948	0.0002	0.234	-1.0284	0.1921	0.3112	9.5924	-0.6592	1.0452	0.0591	0.5524	-0.2702	-0.7505	-9.9671	1.9281	-0.2334	-0.0728	1.0268	0.5635	0.8289	-0.332	0.805
-0.4978	0.0719	9.7008	-0.5872	-0.5448	-0.1582	-0.0217	0.2519	-1.0792	0.3628	0.3107	9.5371	-0.7585	1.3849	0.1191	0.5343	-0.2702	-0.7565	-9.62	1.7005	0.116	-0.3222	1.058	0.5097	0.797	-0.3326	0.8044
-0.1347	0.1867	9.8225	-0.4594	-0.4223	0.0581	-0.0408	0.2521	-1.097	0.3152	0.4856	10.064	-1.1332	1.5339	-0.0639	0.5584	-0.2822	-0.7325	-9.6339	1.9842	-0.6278	-0.1396	0.9681	0.4114	0.7496	-0.3145	0.804
-0.0115	-0.3402	9.948	-0.3967	-0.3298	-0.0022	-0.0539	0.1591	-1.0842	0.4283	0.0248	9.947	-0.9453	1.3806	-0.1256	0.5524	-0.2642	-0.7445	-9.4611	1.6429	-0.5104	-0.015	0.9068	0.4379	0.796	-0.3717	0.7676
0.2201	0.1906	9.4784	-0.3952	-0.2997	0.0907	-0.0382	0.2149	-1.0814	0.248	1.1163	9.5971	-0.6341	1.2922	-0.004	0.5644	-0.2762	-0.7565	-9.795	1.3024	-0.1736	-0.1113	0.9999	0.3186	0.8122	-0.3522	0.7685
-0.1373	-0.2197	9.6524	-0.2688	-0.1458	0.1232	-0.092	0.2368	-1.0672	0.2032	0.2563	10.1779	-0.4146	1.1086	-0.0349	0.5464	-0.2582	-0.7625	-9.738	1.9848	-0.1147	0.1703	0.7547	0.4311	0.8444	-0.3323	0.7698
-0.0722	0.0684	9.9418	-0.2633	0.221	0.0696	-0.0359	0.2356	-1.0305	0.0258	0.2553	9.8817	-0.311	0.6473	0.1209	0.5404	-0.2702	-0.7445	-9.2256	1.5292	-0.0485	0.2362	0.8443	0.5528	0.7968	-0.296	0.7167
-0.3783	-0.0442	9.646	-0.1661	0.4354	0.1653	-0.057	0.2346	-1.0819	0.5414	0.2544	9.8916	-0.0846	0.1867	0.2145	0.5464	-0.2702	-0.7565	-9.6265	1.9277	-0.2272	-0.0158	0.9377	0.4074	0.7818	-0.2762	0.7704
-0.3243	-0.1567	9.2981	-0.0734	0.4364	0.1642	-0.0395	0.2722	-1.0629	0.0799	0.1969	9.7068	0.0097	0.1264	0.2758	0.5524	-0.2762	-0.7505	-9.9132	1.7573	-0.4042	-0.2341	1.0298	0.3532	0.83	-0.2741	0.8246
-0.3141	0.1278	9.8784	-0.1987	0.3128	0.1938	-0.0181	0.2153	-1.0468	0.256	0.3127	9.945	0.0389	0.1565	0.1525	0.5464	-0.2702	-0.7325	-9.7415	2.269	-0.2862	-0.2656	0.8776	0.353	0.8287	-0.3323	0.7873
0.098	-0.0996	9.3632	-0.0123	0.4373	0.1019	-0.0214	0.194	-1.1145	0.0261	0.0827	9.8809	0.0702	0.0938	0.0298	0.5524	-0.2582	-0.7565	-9.399	1.5293	-0.2233	-0.4306	1.2176	-0.0081	0.7804	-0.3528	0.7679
-0.4386	0.0726	9.6434	-0.2276	0.3732	0.2877	-0.0392	0.2143	-1.0982	0.4902	0.6011	10.2435	-0.2478	0.5546	0.0596	0.5464	-0.2762	-0.7625	-9.4523	2.0983	0.005	-0.0871	1.2468	0.074	0.8128	-0.3326	0.7869
-0.0163	0.0713	9.7093	-0.0467	0.1308	0.2495	-0.0181	0.2153	-1.0468	0.7192	0.6583	10.2482	-0.1554	0.5238	-0.0329	0.5644	-0.2702	-0.7445	-9.5706	1.757	-0.2835	-0.1485	1.1246	0.1056	0.796	-0.3717	0.7676
-0.0748	-0.3379	9.7717	0.0127	0.0093	0.2153	-0.0567	0.2541	-1.0645	0.3139	0.6004	10.0059	-0.4397	0.798	-0.1558	0.5464	-0.2822	-0.7505	-9.5739	1.9274	-0.4551	-0.1169	1.3377	0.1064	0.7816	-0.2765	0.7526
-0.4351	-0.2215	9.8223	0.1072	0.1941	0.0951	0.0193	0.2338	-1.0106	0.0827	-0.2052	9.8222	-0.6258	0.8582	-0.1244	0.5524	-0.2582	-0.7445	-9.5735	1.5862	-0.4553	-0.0817	1.1833	0.2577	0.7977	-0.2943	0.8056
-0.3709	-0.0494	10.0548	0.1381	0.1944	0.0947	-0.0397	0.2527	-1.0802	-0.0289	0.6587	10.0582	-0.5608	0.6725	-0.2158	0.5584	-0.2702	-0.7505	-9.8529	2.2692	-0.1738	0.0158	1.1508	0.4082	0.8126	-0.333	0.7692
-0.0702	0.1253	10.0579	0.2657	0.3786	0.1894	-0.0586	0.2723	-1.0807	0.4315	0.0831	10.123	0.0296	0.4939	-0.126	0.5584	-0.2582	-0.7565	-9.6358	1.8135	-0.7424	0.2433	0.9934	0.7689	0.8128	-0.3326	0.7869
-0.1322	-0.1066	9.9429	0.1099	0.3775	0.0683	-0.0047	0.2505	-1.0949	0.545	0.0827	10.0666	0.1897	0.249	-0.0333	0.5343	-0.2702	-0.7625	-9.4047	1.9272	-0.5092	0.4219	0.814	0.547	0.765	-0.3337	0.786
-0.2632	-0.0407	9.3561	0.1826	0.9889	0.1422	0.0162	0.232	-1.061	0.1983	0.5428	9.9449	0.4408	0.0666	0.0277	0.5584	-0.2642	-0.7565	-9.9664	1.3594	-0.2339	0.4185	0.6327	0.4535	0.7965	-0.3522	0.786
-0.3802	-0.1595	9.5306	0.2094	0.8063	0.0456	-0.0379	0.2344	-1.0641	0.3078	0.3113	9.6532	0.6284	-0.0551	0.0274	0.5464	-0.2582	-0.7685	-9.2243	2.1549	0.0665	0.486	0.5996	0.6355	0.7806	-0.3525	0.7857
-0.0738	-0.3387	9.8301	0.2443	0.928	0.2323	-0.0026	0.2517	-1.0614	0.2013	0.7161	10.1214	0.288	0.035	0.121	0.5464	-0.2522	-0.7565	-9.6267	2.0983	-0.227	0.6071	0.6314	0.54	0.8134	-0.2758	0.7532
0.2275	0.1855	9.8872	0.0826	0.5911	0.0733	-0.0379	0.2344	-1.0641	0.4812	0.7141	9.7754	0.288	0.0668	0.213	0.5524	-0.2702	-0.7385	-9.6254	1.8709	-0.17	0.6086	0.5088	0.6004	0.7969	-0.333	0.7866
0.1092	0.2425	10.0012	-0.1375	0.3752	0.0406	-0.0549	0.2358	-1.0483	0.6527	0.9439	9.7798	0.1891	0.3117	0.0585	0.5524	-0.2762	-0.7565	-9.515	1.8706	-0.3396	0.7052	0.5071	0.7204	0.7654	-0.3145	0.7866
-0.4389	0.2476	9.6413	-0.2663	0.0993	-0.0253	-0.0047	0.2505	-1.0949	0.5463	0.6583	10.1863	0.3084	0.4985	0.0567	0.5704	-0.2702	-0.7385	-9.5221	1.6428	-0.7404	0.6168	0.7488	0.8479	0.7967	-0.3333	0.7688
-0.1335	0.0692	9.8823	-0.2075	-0.1142	0.0309	-0.04	0.2332	-1.0976	1.0431	0.7105	9.2006	-0.07	0.7697	-0.2807	0.5404	-0.2522	-0.7505	-9.6273	1.7002	-0.2846	0.5529	1.024	0.7598	0.8295	-0.2751	0.7713
-0.3725	-0.3981	9.9424	-0.2701	-0.1453	0.0002	-0.0196	0.1758	-1.0983	-0.2038	0.4857	9.8783	-0.7216	1.0119	-0.1247	0.5524	-0.2702	-0.7445	-9.2345	1.927	-0.506	0.2077	1.026	0.6166	0.8446	-0.3135	0.7526
-0.2573	0.305	9.7021	-0.2104	-0.3283	0.0878	0.035	0.2123	-1.0605	0.4881	0.5431	10.1261	-0.8458	1.0412	-0.1549	0.5584	-0.2702	-0.7445	-9.6294	1.7001	-0.399	-0.097	1.0846	0.7798	0.797	-0.3326	0.8044
-0.0164	0.1296	9.7085	-0.0827	-0.175	0.2433	-0.0366	0.2545	-1.0299	0.4221	0.4836	9.6561	-0.754	1.0095	-0.3396	0.5524	-0.2702	-0.7385	-9.3458	1.8703	-0.3937	-0.4424	1.0258	0.636	0.797	-0.3326	0.8044
0.464	0.1881	9.6579	-0.0867	-0.2964	0.0562	-0.0183	0.1958	-1.0642	0.0262	0.6581	9.9421	-0.6542	0.7022	-0.2462	0.5524	-0.2822	-0.7445	-9.6841	1.7571	-0.2856	-0.5723	1.181	0.426	0.7974	-0.3135	0.805
-0.069	0.0662	10.117	-0.2683	-0.1768	0.2148	-0.0578	0.2535	-1.0813	0.3706	0.3125	9.9472	-0.2173	0.4911	-0.1553	0.5584	-0.2582	-0.7445	-9.4018	2.0979	-0.3373	-0.7291	1.1513	0.369	0.8134	-0.2943	0.7882
-0.1336	0.186	9.8809	-0.1121	0.0701	0.0029	-0.0209	0.233	-1.0798	0.3722	0.6581	10.0659	-0.0274	0.3722	0.1516	0.5404	-0.2642	-0.7445	-10.0769	1.5303	-0.0641	-0.5137	1.0301	0.3309	0.75	-0.2768	0.7697
-0.1375	-0.0446	9.6502	-0.1675	0.313	0.2242	-0.0214	0.2714	-1.0618	0.2494	0.944	9.6549	-0.0307	0.4632	-0.0333	0.5524	-0.2582	-0.7565	-9.9077	1.4732	-0.1183	-0.7643	1.0009	0.246	0.7802	-0.3532	0.7501
0.0468	-0.5139	9.8344	-0.2969	0.0373	0.0968	-0.0379	0.2344	-1.0641	0.3072	-0.0341	9.593	0.0609	0.5584	0.1192	0.5524	-0.2642	-0.7565	-9.6902	1.6431	-0.6291	-0.5526	0.8815	0.085	0.7659	-0.2765	0.77
-0.1879	-0.2845	10.1777	-0.3871	0.0661	0.2831	-0.0572	0.2151	-1.0992	0.4902	0.6011	10.2435	-0.3769	0.7683	-0.0945	0.5524	-0.2822	-0.7565	-9.5693	1.5295	-0.2264	-0.2889	0.9045	0.5997	0.7809	-0.3148	0.7514
-0.0805	-0.1008	9.4768	-0.5107	0.0034	0.3755	-0.0894	0.1996	-1.0516	0.5966	0.1963	9.7753	-0.4738	0.9841	-0.0645	0.5584	-0.2702	-0.7385	-9.6229	1.5297	-0.0558	-0.2844	0.8415	0.7527	0.7965	-0.3337	0.7511
-0.3736	0.3606	9.9328	-0.2981	-0.0545	0.1256	-0.0029	0.2322	-1.0788	0.2029	0.4288	10.1787	-0.9094	1.1333	-0.1551	0.5464	-0.2822	-0.7445	-9.8574	1.6434	-0.4605	-0.2659	0.7559	0.352	0.797	-0.3142	0.7694
-0.3149	-0.0465	9.8222	-0.2666	0.0071	0.0958	-0.0392	0.2143	-1.0982	0.3633	0.0231	9.5358	-0.8237	1.5067	-0.0041	0.5464	-0.2762	-0.7505	-9.5172	1.9274	-0.454	-0.2356	0.5733	0.3496	0.7804	-0.3528	0.7679
-0.1457	0.5442	9.2341	-0.2067	-0.2068	0.2441	-0.0395	0.2722	-1.0629	0.4276	0.4849	9.949	-0.9475	1.4731	-0.1569	0.5404	-0.2702	-0.7565	-9.4567	1.4156	-0.2817	-0.0875	0.8203	0.1014	0.8287	-0.3508	0.8222
-0.1324	0.0685	9.9407	-0.2668	-0.0851	0.2168	-0.0562	0.2157	-1.0825	0.4272	0.0246	9.8884	-0.793	1.3799	-0.3723	0.5464	-0.2702	-0.7505	-9.2839	1.8705	-0.1065	-0.2704	0.8494	0.1992	0.7814	-0.2953	0.7697
-0.4342	0.7109	9.9274	-0.1703	0.2219	0.0992	-0.0199	0.2336	-1.063	0.6552	0.0814	9.8345	-0.3829	1.0783	-0.0042	0.5464	-0.2702	-0.7685	-9.6882	1.7001	-0.5146	-0.4539	0.6654	0.2955	0.796	-0.3532	0.7327
-0.0748	-0.3379	9.7717	-0.2015	0.2217	0.0688	-0.0397	0.2527	-1.0802	0.4225	0.1961	9.6548	-0.337	0.4627	0.2451	0.5644	-0.2582	-0.7445	-9.7905	1.8713	0.113	-0.1757	0.5133	0.2859	0.8126	-0.333	0.7692
-0.0701	0.0669	10.0586	-0.0159	0.1619	0.1882	-0.0732	0.2171	-1.0667	0.1933	0.254	9.6507	0.0008	0.4644	0.0587	0.5524	-0.2582	-0.7445	-9.2393	1.5855	-0.7925	-0.4149	0.8141	0.5413	0.8124	-0.3518	0.7863
0.0438	0.1879	9.7089	-0.1058	0.4674	-0.0193	-0.0423	0.2898	-1.0958	0.3732	0.0254	10.063	0.0662	0.2793	0.0287	0.5343	-0.2762	-0.7385	-9.8546	1.9279	-0.2886	-0.571	0.6927	0.5143	0.829	-0.3131	0.7879
-0.3772	-0.045	9.7044	0.0179	0.4378	0.04	-0.0183	0.1958	-1.0642	0.0878	0.7166	10.1778	0.1255	0.4356	0.1503	0.5464	-0.2762	-0.7625	-9.4544	2.0982	-0.1094	-0.2585	0.722	0.5973	0.7488	-0.3532	0.785
-0.1386	-0.0438	9.5918	-0.0773	0.2842	0.0379	-0.0039	0.2316	-1.0955	0.541	0.4845	9.8926	-0.2778	0.4601	-0.0933	0.5464	-0.2762	-0.7505	-9.6199	1.5867	0.116	-0.2864	0.8119	0.6911	0.8135	-0.3128	0.8231
-0.143	0.0758	9.3567	-0.0471	0.1617	0.1579	-0.0214	0.2714	-1.0618	0.4346	0.1989	10.2992	-0.2201	0.7098	0.0893	0.5404	-0.2582	-0.7505	-9.6295	1.7569	-0.399	-0.171	0.8159	0.4111	0.8288	-0.3135	0.7701
-0.1422	0.2502	9.4129	-0.1732	0.0077	0.1561	-0.0578	0.2535	-1.0813	0.2581	0.3707	10.0624	-0.3487	0.9241	-0.0035	0.5343	-0.2762	-0.7505	-9.5702	1.4157	-0.2838	-0.0852	0.9716	0.164	0.797	-0.3142	0.7694
-0.4993	-0.3352	9.5891	-0.3008	-0.1149	-0.0295	-0.0756	0.2737	-1.0649	0.0867	0.0834	10.0578	-0.5996	1.0749	-0.1258	0.5524	-0.2762	-0.7625	-9.6911	2.3255	-0.6285	-0.0772	1.1203	0.4107	0.7809	-0.3148	0.7514
-0.2507	0.0672	10.0554	-0.1128	0.0089	0.0324	-0.0371	0.2155	-1.0646	0.0846	0.6583	10.0018	-0.661	1.0746	-0.0947	0.5584	-0.2582	-0.7445	-9.5084	1.5865	0.0036	-0.0724	1.1485	0.5645	0.8293	-0.294	0.7885
-0.0752	-0.0461	9.7681	-0.0814	0.0398	0.0326	-0.0418	0.2515	-1.1138	0.8227	0.0801	9.6034	-0.5091	1.1686	-0.1269	0.5524	-0.2582	-0.7505	-9.5162	1.9274	-0.3968	-0.0723	0.8742	0.593	0.797	-0.3142	0.7694
-0.1356	0.0707	9.7655	-0.2317	0.2826	0.0398	0.0121	0.2296	-1.128	0.1469	0.3142	10.2357	-0.3765	0.7689	-0.0331	0.5343	-0.2702	-0.7565	-9.3448	1.8704	-0.3365	0.0846	0.9647	0.6505	0.8295	-0.2936	0.8063
-0.4342	-0.0471	9.8785	-0.1706	0.2835	-0.0225	-0.0037	0.2511	-1.0782	0.0776	0.2539	9.5899	-0.2505	0.6783	0.0589	0.5524	-0.2702	-0.7445	-9.91	1.6437	-0.2326	0.0842	0.8125	0.6493	0.7811	-0.3145	0.7691
-0.0732	0.0108	9.8841	-0.0745	0.4676	0.0111	-0.0047	0.2505	-1.0949	0.5965	0.2538	9.7756	-0.2155	0.4616	-0.0015	0.5584	-0.2702	-0.7565	-9.2263	1.2449	-0.1059	0.0179	0.6316	0.5269	0.7973	-0.295	0.7701
-0.3747	-0.3383	9.8248	-0.1419	0.1309	0.0046	-0.0191	0.2147	-1.0636	0.1395	0.1398	9.8248	-0.2816	0.5823	-0.2476	0.5404	-0.2822	-0.7565	-9.5178	1.5292	-0.5116	0.0704	0.6056	0.2178	0.7963	-0.334	0.7333
-0.4364	0.0127	9.761	-0.2672	0.0073	0.0343	-0.0219	0.2324	-1.0966	0.5976	0.2541	9.8341	-0.4055	0.6755	-0.0631	0.5464	-0.2582	-0.7385	-9.2311	1.7565	-0.3345	0.4364	0.6693	0.023	0.7796	-0.41	0.7838
-0.5543	-0.2804	9.8793	-0.2711	-0.1449	-0.092	-0.0392	0.2143	-1.0982	0.2029	0.4288	10.1787	-0.256	0.8617	-0.1573	0.5464	-0.2762	-0.7565	-9.6799	1.7573	-0.0567	0.379	0.6062	0.1779	0.8136	-0.2939	0.8059
-0.0766	0.1881	9.7067	-0.3636	-0.2381	0.0609	-0.04	0.2332	-1.0976	0.1978	0.8304	9.9462	-0.3538	1.1399	-0.0662	0.5464	-0.2762	-0.7565	-9.4016	1.9273	-0.3375	0.3092	0.7927	-0.0951	0.7963	-0.334	0.7333
-0.6777	0.4216	9.7516	-0.398	-0.3293	-0.1252	-0.0191	0.2147	-1.0636	0.305	0.6558	9.5375	-0.6017	1.231	0.0269	0.5404	-0.2762	-0.7565	-9.3379	1.3588	0.0065	0.4266	0.8262	-0.3134	0.7813	-0.2957	0.752
-0.0795	-0.0432	9.5345	-0.1781	-0.3594	0.2712	-0.0044	0.27	-1.0776	0.7043	0.3671	9.4268	-0.7897	1.2571	-0.2794	0.5464	-0.2702	-0.7445	-9.404	2.2116	-0.4517	0.4144	0.8319	-0.7125	0.7979	-0.2755	0.7885
-0.0751	-0.1628	9.7695	-0.2686	-0.0536	0.0022	-0.0191	0.2147	-1.0636	0.3065	0.426	9.5951	-0.8513	1.32	-0.095	0.5404	-0.2582	-0.7565	-9.4572	1.8706	-0.2813	0.2064	0.9192	-0.429	0.8117	-0.3717	0.7502
-0.0794	-0.1015	9.5352	-0.2665	-0.0852	0.2475	-0.0541	0.2169	-1.0489	0.2546	0.4849	9.8871	-0.509	1.2322	0.0571	0.5584	-0.2762	-0.7625	-9.3469	1.8703	-0.4509	0.174	0.7675	-0.46	0.8606	-0.3128	0.7707
0.1043	-0.104	9.7136	-0.32	0.4644	0.1679	0.0162	0.232	-1.061	0.3671	0.4267	9.7719	-0.3174	0.8932	-0.0342	0.5404	-0.2642	-0.7445	-9.4003	1.6999	-0.2804	-0.0748	0.7069	-0.4838	0.8131	-0.3135	0.7875
-0.0742	-0.0468	9.8265	-0.1981	0.4663	0.0126	-0.0209	0.233	-1.0798	0.0812	0.0821	9.7649	-0.1857	0.5241	0.0287	0.5584	-0.2702	-0.7565	-9.6286	1.9276	-0.3416	-0.4769	0.7981	-0.471	0.7974	-0.3135	0.805
-0.3214	0.0746	9.4704	-0.1986	0.3743	0.1029	-0.041	0.2326	-1.1144	0.4215	0.8287	9.6577	0.0359	0.3431	0.2743	0.5524	-0.2642	-0.7625	-9.3469	1.9272	-0.4509	-0.766	0.7724	-0.8006	0.8117	-0.3532	0.7152
-0.3191	-0.102	9.5894	-0.0468	0.2231	0.0977	-0.0191	0.2147	-1.0636	0.1893	-0.0346	9.4151	-0.2771	0.5246	0.1829	0.5464	-0.2642	-0.7625	-9.5675	1.7571	-0.1118	-0.7908	0.9219	-0.6143	0.8141	-0.2744	0.8243
0.158	0.0171	9.3628	-0.1038	0.4051	0.2561	-0.0408	0.2521	-1.097	0.2497	0.0811	9.5924	-0.0639	0.6186	0.0889	0.5464	-0.2882	-0.7565	-9.7953	1.5867	-0.1733	-0.5979	1.1015	-0.4035	0.796	-0.3717	0.7676
-0.3192	0.0148	9.5879	-0.0468	0.1616	0.1886	0.017	0.2131	-1.0615	0.1924	0.7716	9.653	-0.4102	0.8919	-0.0644	0.5464	-0.2642	-0.7445	-9.6811	1.8141	-0.1138	-0.4424	1.345	-0.4062	0.7974	-0.3135	0.805
-0.1354	-0.046	9.767	0.1035	0.0111	0.0297	-0.0552	0.2163	-1.0657	0.7699	0.0237	9.8364	-0.6265	0.8574	-0.2165	0.5704	-0.2702	-0.7505	-9.8544	1.7573	-0.2887	-0.2136	1.309	-0.0139	0.7973	-0.2765	0.7351
-0.1344	-0.0468	9.8254	0.1054	0.0103	0.2142	0.0306	0.2678	-1.0923	0.481	0.8291	9.7759	-0.5648	0.8898	-0.1249	0.5464	-0.2702	-0.7445	-9.2341	1.6426	-0.5063	-0.0215	1.2451	0.195	0.8126	-0.333	0.7692
-0.1406	-0.1591	9.4765	0.1963	0.0427	-0.0015	-0.0173	0.1964	-1.0474	0.4825	0.5993	9.8335	-0.5302	0.7361	-0.0627	0.5464	-0.2702	-0.7445	-9.288	1.8134	-0.3355	-0.1106	1.2433	0.3205	0.8126	-0.3515	0.8041
-0.3174	0.2468	9.7018	-0.0165	0.0699	0.2785	0.0149	0.2119	-1.0951	0.6611	0.4856	10.1878	-0.1893	0.6465	-0.0949	0.5404	-0.2642	-0.7565	-9.344	2.0979	-0.2791	-0.3539	1.1193	0.4805	0.8126	-0.3145	0.7342
0.3414	0.2481	9.5382	0.0766	0.1937	0.1263	-0.0018	0.2328	-1.062	0.3648	0.4837	9.655	-0.186	0.492	-0.094	0.5524	-0.2762	-0.7505	-10.0809	2.2126	-0.2353	-0.3706	1.1736	0.9423	0.8297	-0.2933	0.824
-0.1331	-0.2226	9.886	0.017	0.2844	0.1905	-0.0047	0.2505	-1.0949	0.5306	0.1368	9.3053	-0.0884	0.2771	-0.0319	0.5704	-0.2702	-0.7445	-9.739	1.9279	-0.172	-0.2174	1.2658	0.877	0.7977	-0.2943	0.8056
-0.4428	0.0171	9.4106	0.046	0.1932	0.1574	-0.0162	0.197	-1.0307	0.2006	0.4858	10.0618	-0.0904	0.3062	-0.2164	0.5524	-0.2762	-0.7385	-9.3992	1.6999	-0.2232	-0.2452	1.0815	0.9993	0.8126	-0.3515	0.8041
-0.497	0.3046	9.7563	-0.1391	0.2835	0.0386	-0.0016	0.2523	-1.0446	0.2049	-0.146	10.2347	-0.1877	0.6168	0.0282	0.5464	-0.2762	-0.7445	-9.5143	2.0981	-0.2822	-0.0689	0.7507	0.7148	0.7808	-0.3337	0.7685
-0.43	-0.05	10.1121	-0.419	0.1277	0.1003	-0.056	0.2352	-1.0651	0.3704	0.4275	9.9477	-0.1571	0.6168	-0.0027	0.5464	-0.2642	-0.7565	-9.8563	1.5866	-0.4033	0.0467	0.846	0.4356	0.8134	-0.2943	0.7882
-0.1406	-0.1007	9.4757	-0.2937	0.1898	0.1616	-0.0199	0.2336	-1.063	0.4249	0.0816	9.7715	-0.408	0.7677	-0.1251	0.5704	-0.2882	-0.7445	-9.5676	1.814	-0.1118	0.1558	0.9444	-0.0586	0.7806	-0.3525	0.7857
-0.1914	-0.0489	9.9995	-0.5112	0.0958	0.193	-0.0031	0.2127	-1.0961	0.4816	-0.2064	9.7127	-0.5362	0.9825	-0.1563	0.5644	-0.2702	-0.7505	-9.9063	2.0419	-0.0034	0.135	0.8787	0.2795	0.829	-0.3131	0.7879
-0.1386	-0.0438	9.5918	-0.3238	0.1584	0.2843	-0.0222	0.2902	-1.0613	0.6474	0.77	9.4861	-0.5037	0.9849	0.0586	0.5524	-0.2942	-0.7505	-9.2873	2.1547	-0.278	-0.1448	0.7877	0.2565	0.7969	-0.333	0.7866
-0.4883	0.1237	10.2256	-0.4508	-0.026	0.2511	-0.0562	0.2157	-1.0825	0.4877	0.0828	10.0655	-0.6289	1.0131	-0.0945	0.5464	-0.2762	-0.7565	-9.4625	1.9272	-0.5674	-0.0573	0.8817	0.0702	0.7955	-0.3912	0.7492
-0.4326	0.3016	9.9909	-0.415	0.1876	0.3783	-0.0361	0.2161	-1.0479	0.1869	0.0799	9.2984	-0.4128	1.0156	-0.0651	0.5464	-0.2702	-0.7505	-9.6306	1.8706	-0.4561	-0.0929	0.9143	-0.0821	0.798	-0.2566	0.7713
-0.2588	-0.1604	9.5912	-0.2278	0.281	0.4088	-0.0758	0.2543	-1.0823	0.768	0.4836	9.7799	-0.3423	0.6146	-0.0324	0.5524	-0.2642	-0.7505	-9.8569	2.0984	-0.4029	-0.3525	0.9807	-0.4733	0.7965	-0.3522	0.786
0.4668	-0.3386	9.7813	-0.0423	0.375	0.2855	-0.0565	0.2735	-1.0471	-0.2574	0.2565	10.0519	-0.1862	0.5553	0.0592	0.5404	-0.2642	-0.7505	-9.6821	1.8141	-0.1711	-0.1038	1.0108	-0.4497	0.7664	-0.2754	0.8234
-0.0779	0.3639	9.6461	-0.0119	0.3448	0.2844	-0.0026	0.2517	-1.0614	0.1407	0.0826	9.8831	0.099	0.2186	0.121	0.5464	-0.2582	-0.7625	-9.5634	1.8141	0.1172	-0.2568	0.9795	-0.3839	0.7815	-0.3138	0.8047
-0.744	0.1926	9.4031	-0.2289	0.3122	0.2557	-0.0717	0.2566	-1.0152	0.4321	0.4284	10.1831	-0.056	0.2477	0.091	0.5404	-0.2582	-0.7445	-9.515	1.8706	-0.3396	-0.3467	1.039	-0.2886	0.7969	-0.3514	0.8215
-0.3836	-0.0406	9.354	-0.134	0.466	0.2271	-0.0044	0.27	-1.0776	0.3669	0.5417	9.7724	-0.1236	0.4935	-0.0022	0.5524	-0.2582	-0.7565	-9.7441	1.8139	-0.4583	-0.4948	1.0663	-0.0689	0.8288	-0.295	0.7352
0.2254	0.1869	9.7704	-0.0448	0.2838	0.1912	-0.0343	0.1978	-1.0317	0.4832	0.1392	9.8314	-0.1546	0.5565	0.1512	0.5524	-0.2702	-0.7505	-9.293	1.6426	-0.6218	-0.371	1.0663	-0.0726	0.7649	-0.334	0.7682
-0.4944	-0.047	9.8775	0.0194	0.2527	0.4665	-0.0207	0.2525	-1.0624	0.425	0.7144	9.8329	-0.2228	0.7381	-0.1875	0.5343	-0.2702	-0.7625	-9.8544	1.8142	-0.2887	-0.6166	1.1262	-0.0033	0.7973	-0.295	0.7701
-0.0798	0.1903	9.5315	-0.2318	0.1596	0.2217	-0.057	0.2346	-1.0819	-0.0315	0.2554	9.8806	-0.2543	0.8005	-0.0955	0.5464	-0.2822	-0.7445	-9.4608	2.2116	-0.4528	-0.6823	1.128	-0.1242	0.7808	-0.3337	0.7685
-0.0851	0.1939	9.2395	-0.0799	0.0699	0.1255	-0.0034	0.2706	-1.0608	0.2557	0.4852	9.9457	-0.6245	0.7964	-0.124	0.5404	-0.2642	-0.7505	-9.5714	1.5294	-0.3409	-0.6191	1.2188	-0.0946	0.7809	-0.3148	0.7514
-0.0788	0.2479	9.5892	-0.0507	-0.0521	0.1533	-0.0371	0.2155	-1.0646	0.4172	0.0797	9.3614	-0.628	0.9825	-0.0636	0.5343	-0.2762	-0.7565	-9.7454	2.0413	-0.5153	-0.4552	1.1536	0.2072	0.7652	-0.3148	0.7688
-0.0755	0.129	9.7659	-0.1731	0.0384	0.126	0.017	0.2131	-1.0615	0.089	0.6593	10.2361	-0.7513	0.9812	-0.0629	0.5464	-0.2642	-0.7445	-9.6768	1.7005	0.115	-0.4554	1.0623	0.2065	0.8441	-0.37	0.8041
-0.0695	0.4164	10.1126	-0.2671	-0.085	0.186	-0.0049	0.231	-1.1123	0.8294	0.657	10.0161	-0.8189	1.2588	-0.0641	0.5343	-0.2822	-0.7505	-8.778	1.6422	-0.3835	-0.5133	1.1519	0.3318	0.7802	-0.3532	0.7501
-0.2593	0.1898	9.5868	-0.2987	-0.085	0.1249	-0.0029	0.2322	-1.0788	0.5321	0.5399	9.4243	-1.1278	1.3184	0.0295	0.5464	-0.2702	-0.7385	-9.5198	2.3822	-0.5681	-0.2611	0.8146	0.506	0.7962	-0.3529	0.7504
-0.1376	0.0138	9.6495	-0.237	-0.2074	0.306	-0.0567	0.2541	-1.0645	0.4834	0.0242	9.8309	-1.1006	1.4412	-0.0943	0.5404	-0.2702	-0.7625	-9.6211	1.7573	0.0589	-0.1447	0.8181	0.2567	0.797	-0.3142	0.7694
-0.1427	-0.1576	9.3597	-0.2682	-0.2076	0.2757	-0.0026	0.2517	-1.0614	0.4784	0.3682	9.5981	-1.0061	1.3812	-0.0023	0.5524	-0.2702	-0.7625	-9.9666	1.5869	-0.2337	-0.2188	0.8542	-0.1403	0.7968	-0.3145	0.7517
-0.1929	0.302	9.9367	-0.3891	0.0054	0.1895	-0.0049	0.231	-1.1123	0.1987	0.3128	9.9439	-0.5698	1.1692	-0.0036	0.5404	-0.2642	-0.7445	-9.4577	2.2686	-0.281	-0.3155	0.8255	-0.2605	0.7825	-0.2563	0.8065
-0.1331	-0.2226	9.886	-0.2011	0.1907	0.1604	-0.0371	0.2155	-1.0646	0.1433	0.4859	10.0607	-0.651	0.7381	0.276	0.5404	-0.2582	-0.7445	-9.7423	2.0415	-0.3436	-0.5343	1.0398	-0.3444	0.8442	-0.3327	0.752
-0.4324	0.1265	9.9931	-0.2021	0.1296	0.1591	0.0157	0.1931	-1.0957	0.2458	0.4829	9.4185	-0.1236	0.5253	0.0898	0.5464	-0.2702	-0.7565	-10.025	2.0419	-0.2916	-0.87	1.0983	-0.1803	0.8294	-0.3124	0.8234
-0.0768	0.3048	9.7053	-0.1082	0.2838	0.0383	-0.0716	0.1793	-1.0679	0.7165	0.3124	10.0709	-0.4294	0.4618	0.2456	0.5524	-0.2762	-0.7505	-9.5067	1.8709	0.1183	-1.1154	1.2191	-0.1105	0.7965	-0.3337	0.7511
-0.2592	0.1314	9.5875	0.0715	-0.0503	0.0288	-0.0389	0.2338	-1.0808	0.5957	0.081	9.7162	-0.3725	0.6152	0.06	0.5404	-0.2702	-0.7445	-9.3938	1.4727	0.0628	-1.1547	1.2535	-0.3856	0.7802	-0.3532	0.7501
-0.074	-0.1636	9.8279	-0.0819	-0.0523	0.1229	-0.0578	0.2535	-1.0813	0.4266	0.4271	9.8902	-0.4372	0.7694	0.0902	0.5464	-0.2582	-0.7565	-9.6832	1.8709	-0.2283	-1.464	1.3446	-0.3756	0.7811	-0.333	0.8041
-0.013	0.0107	9.8852	-0.1147	-0.2056	0.1815	-0.0408	0.2521	-1.097	0.1988	0.2553	9.9436	-0.6592	1.0134	-0.0329	0.5524	-0.2702	-0.7565	-9.7402	2.0984	-0.2291	-1.4318	1.4355	-0.3451	0.7963	-0.334	0.7333
-0.1424	0.4253	9.4107	-0.1795	-0.2665	-0.0035	-0.0204	0.272	-1.0451	0.5939	0.4833	9.6594	-0.7834	1.0745	0.0289	0.5644	-0.2822	-0.7565	-9.9207	1.8707	-0.8048	-1.4335	1.4973	-0.4061	0.7967	-0.3333	0.7688
-0.2582	0.189	9.6452	-0.2075	-0.1757	0.1218	-0.0387	0.2533	-1.0635	0.2582	0.3132	10.0621	-0.7575	1.2274	-0.1872	0.5464	-0.2702	-0.7565	-9.8506	2.0987	-0.0595	-1.0929	1.5278	-0.416	0.7649	-0.334	0.7682
-0.3244	-0.0983	9.2974	0.041	-0.0508	0.0599	-0.0714	0.1988	-1.0505	0.1364	0.024	9.6486	-0.539	1.1377	-0.0958	0.5343	-0.3002	-0.7685	-9.3994	1.8137	-0.2231	-0.7794	1.2823	-0.2737	0.7972	-0.2953	0.7523
-0.3161	0.0126	9.7631	-0.1713	0.1608	0.0979	-0.0013	0.1944	-1.0799	0.0185	0.6563	9.532	-0.5024	0.9231	0.0589	0.5283	-0.2522	-0.7625	-9.6313	2.3825	-0.4557	-0.4269	0.8806	0.1427	0.7956	-0.3724	0.7321
-0.0165	0.2464	9.7071	-0.0448	0.4376	-0.0515	-0.0219	0.2324	-1.0966	0.5478	0.371	10.2436	-0.3055	0.4321	0.2451	0.5584	-0.2762	-0.7625	-9.8561	2.326	-0.3455	-0.3349	0.9115	0.1095	0.7813	-0.3141	0.7869
-0.3126	-0.1647	9.9405	0.0483	0.4076	0.039	-0.0541	0.2169	-1.0489	0.546	0.8308	10.1871	-0.0509	0.0001	0.0618	0.5524	-0.2762	-0.7625	-9.7966	1.7573	-0.2304	-0.2086	0.7885	0.1969	0.7816	-0.295	0.7875
-0.2542	0.3028	9.8773	0.0841	0.6827	0.0753	-0.0047	0.2505	-1.0949	0.367	0.4842	9.7722	0.3832	-0.0559	0.2132	0.5404	-0.2702	-0.7445	-9.6818	2.4397	-0.1134	-0.0606	0.7308	-0.0231	0.7809	-0.3148	0.7514
-0.07	0.0086	10.0593	0.1731	0.5621	-0.0822	-0.0233	0.2896	-1.078	-0.0317	0.3704	9.8811	0.595	0.0682	0.0268	0.5404	-0.2642	-0.7325	-9.685	1.6433	-0.3429	-0.1147	0.8186	0.2251	0.8138	-0.2751	0.7888
-0.3766	0.3045	9.7584	0.2932	0.411	-0.1793	-0.0018	0.2328	-1.062	0.6507	0.8283	9.6621	0.1922	0.2204	0.2127	0.5584	-0.2642	-0.7685	-9.5216	2.1547	-0.6828	0.2597	0.8478	0.3063	0.797	-0.3326	0.8044
-0.0782	0.539	9.6439	0.0789	0.408	0.0079	-0	0.2145	-1.0458	0.0276	0.4858	9.9999	-0.0952	0.6813	0.2116	0.5524	-0.2642	-0.7445	-9.1806	1.7562	-0.6768	0.3224	0.817	0.3349	0.8124	-0.3333	0.7514
-0.6168	-0.1038	9.7593	-0.1122	0.1625	-0.1488	-0.0397	0.2527	-1.0802	0.193	0.4265	9.6515	-0.2824	0.7719	0.1814	0.5464	-0.2762	-0.7445	-9.3363	1.757	0.1213	0.3472	0.9418	0.1201	0.8126	-0.333	0.7692
-0.9797	-0.3353	9.6391	-0.0244	-0.2652	0.0561	-0.0199	0.2336	-1.063	0.3048	0.0805	9.4764	-0.319	0.9865	0.0267	0.5524	-0.2702	-0.7565	-9.68	1.8141	-0.0566	0.4733	1.0627	0.1787	0.797	-0.3142	0.7694
-0.3688	0.0075	10.1708	-0.0839	-0.113	0.0294	-0.041	0.2326	-1.1144	0.9397	0.5983	9.7837	-0.3837	1.1407	0.0569	0.5524	-0.2822	-0.7565	-9.8546	1.9279	-0.2886	0.5092	1.1518	0.332	0.8122	-0.3337	0.7336
-0.3238	0.2512	9.3514	0.0735	0.1027	-0.0294	-0.0225	0.2708	-1.0786	0.601	0.1973	10.0096	-0.5727	1.229	-0.2191	0.5524	-0.2762	-0.7445	-9.6202	1.8711	0.1162	0.2352	1.1191	0.4936	0.8126	-0.333	0.7692
-0.4374	-0.0449	9.7033	-0.1746	-0.0532	0.1241	-0.0204	0.1946	-1.0977	0.1329	0.1383	9.4733	-0.6989	1.3511	-0.2498	0.5464	-0.2702	-0.7385	-9.6831	1.7571	-0.2283	0.0214	1.1481	0.5924	0.8131	-0.3135	0.7875
0.2928	0.2985	10.1788	-0.2672	0.0073	0.0343	-0.0423	0.2898	-1.0958	0.084	0.3705	9.9419	-0.6971	1.3852	0.088	0.5404	-0.2642	-0.7385	-9.6326	1.8137	-0.5707	0.113	1.0269	0.5579	0.8128	-0.3326	0.7869
0.0484	-0.1068	9.9461	-0.4814	0.1274	0.0396	-0.0018	0.2328	-1.062	0.5424	0.3122	9.9505	-0.5102	1.199	-0.1885	0.5524	-0.2582	-0.7505	-9.4531	1.8707	-0.0524	-0.0767	0.9677	0.4402	0.7806	-0.3525	0.7857
-0.0756	0.1873	9.7651	-0.5452	0.0045	0.0377	-0.0034	0.2706	-1.0608	0.0819	0.3124	9.8245	-0.5964	0.9837	0.0284	0.5584	-0.2642	-0.7565	-9.5689	2.0983	-0.1688	-0.0014	1.0673	-0.1451	0.8285	-0.3511	0.8044
-0.4996	-0.1017	9.5862	-0.6413	-0.2411	0.0951	-0.0225	0.2708	-1.0786	0.3673	0.2542	9.7712	-0.3208	1.0159	-0.1271	0.5404	-0.2702	-0.7625	-9.7964	1.6435	-0.2305	-0.0757	1.0122	-0.5427	0.782	-0.2758	0.7881
-0.0777	0.1888	9.6483	-0.8036	-0.67	0.0263	-0.0047	0.2505	-1.0949	0.542	0.5422	9.9515	-0.4738	1.0158	0.0275	0.5343	-0.2582	-0.7565	-9.5106	1.6433	-0.1108	-0.295	1.0743	-0.6279	0.7977	-0.2943	0.8056
-0.1987	-0.1021	9.5915	-0.5879	-0.8214	0.2048	-0.0044	0.27	-1.0776	0.3629	0.2532	9.5368	-0.6709	1.5701	-0.0054	0.5464	-0.2822	-0.7505	-9.4614	1.8704	-0.5103	-0.4264	1.0777	-0.8697	0.7647	-0.3344	0.7504
-0.4342	0.7109	9.9274	-0.6474	-0.823	0.4208	0.0358	0.1935	-1.0611	0.1477	0.4869	10.295	-0.8903	1.6586	-0.2198	0.5343	-0.2822	-0.7505	-9.3489	1.8133	-0.5654	-0.2686	1.1373	-0.7818	0.7811	-0.333	0.8041
0.1101	0.3585	10.0581	-0.5274	-0.9126	0.2329	-0.0583	0.2145	-1.116	0.2587	0.6585	10.1222	-1.1992	1.7182	-0.1261	0.5464	-0.2642	-0.7565	-9.46	1.5861	-0.4532	-0.2446	1.3234	-1.0269	0.8287	-0.3323	0.7873
-0.0874	0.3121	9.1213	-0.4931	-0.7291	0.2672	-0.0402	0.2137	-1.115	0.8295	0.5995	10.0158	-1.1722	1.8725	-0.1886	0.5524	-0.2702	-0.7505	-9.9035	2.3264	0.1685	-0.3724	1.2339	-1.1467	0.7811	-0.3145	0.7691
-0.5552	0.42	9.8705	-0.6421	-0.3638	0.2154	-0.0402	0.2137	-1.115	0.3147	0.7732	10.0653	-1.0431	1.5952	-0.2185	0.5464	-0.2702	-0.7565	-9.5663	1.6434	-0.0547	-0.3405	1.2334	-1.1169	0.8451	-0.3309	0.8409
-0.254	0.1861	9.8788	-0.5761	-0.2111	0.3717	-0.0732	0.2171	-1.0667	0.3132	0.3701	9.9463	-0.6359	1.3852	0.0262	0.5464	-0.2702	-0.7565	-9.2798	1.9275	0.1225	-0.2736	1.0178	-0.9362	0.8296	-0.2563	0.7542
-0.373	-0.0479	9.938	-0.6047	0.0645	0.1628	-0.0191	0.2147	-1.0636	0.2586	0.0256	10.0608	-0.5077	1.1386	-0.0345	0.5584	-0.2822	-0.7565	-9.6283	1.7001	-0.3418	-0.3353	1.1091	-0.9337	0.8293	-0.2755	0.7535
-0.0743	0.0115	9.8257	-0.54	0.2792	0.1051	-0.0248	0.2501	-1.1295	0.258	0.4282	10.0626	-0.5282	0.6752	0.0298	0.5404	-0.2582	-0.7445	-9.9132	1.7573	-0.4042	-0.2074	0.8939	-0.7856	0.8293	-0.294	0.7885
-0.4417	0.0164	9.469	-0.5673	0.4312	0.201	-0.0018	0.2328	-1.062	0.1393	0.2548	9.8253	-0.3718	0.5525	-0.0318	0.5524	-0.2702	-0.7685	-9.6873	1.8138	-0.4572	-0.4608	0.866	-0.9626	0.7974	-0.3135	0.805
0.1054	-0.1047	9.772	-0.536	0.4006	0.2922	-0.0039	0.2316	-1.0955	0.4858	-0.0903	9.9475	-0.1882	0.6162	-0.0333	0.5464	-0.2642	-0.7565	-9.4517	1.5864	0.0046	-0.3359	0.896	-0.9354	0.7811	-0.296	0.7342
-0.1303	0.067	10.0575	-0.5431	0.0344	0.1921	-0.073	0.2366	-1.0494	0.3604	0.4827	9.4207	-0.252	0.7716	0.1198	0.5584	-0.2582	-0.7505	-9.6249	1.4728	-0.1703	-0.7097	0.775	-0.9866	0.7963	-0.3525	0.7682
-0.0157	-0.3373	9.7144	-0.3336	-0.2682	0.0291	-0.0343	0.1978	-1.0317	0.2559	0.3702	9.9452	-0.6295	1.0758	-0.0027	0.5404	-0.2702	-0.7445	-9.968	1.8712	-0.2907	-0.6778	1.0794	-0.9851	0.8134	-0.2943	0.7882
0.0397	0.0741	9.4767	-0.5151	-0.1179	0.1577	-0.0377	0.2539	-1.0467	0.1441	0.6587	10.12	-0.5707	1.2316	0.0575	0.5584	-0.2762	-0.7565	-9.8024	2.212	-0.5162	-0.8637	1.3232	-1.0083	0.8283	-0.3145	0.7168
-0.0772	0.5966	9.7016	-0.3979	-0.4216	0.0266	-0.0201	0.2141	-1.0804	0.43	0.3129	10.0654	-0.6055	1.385	-0.0354	0.5644	-0.2702	-0.7685	-9.6895	1.8706	-0.5717	-0.9405	1.6509	-0.5118	0.7979	-0.2939	0.8234
-0.3756	0.3037	9.8168	-0.3952	-0.2997	0.0907	-0.0173	0.1964	-1.0474	0.5936	0.6559	9.6602	-0.7579	1.3222	0.0273	0.5584	-0.2702	-0.7445	-9.4592	1.7567	-0.3959	-1.024	1.6465	-0.202	0.828	-0.3522	0.7511
-0.0721	0.768	9.9914	-0.2048	0.0077	0.095	-0.0575	0.2729	-1.0639	0.4196	0.6556	9.5397	-0.7517	0.9806	-0.1243	0.5464	-0.2882	-0.7445	-9.62	1.7005	0.116	-0.9005	1.5553	-0.2064	0.7967	-0.3333	0.7688
-0.2002	0.1904	9.5294	-0.23	0.2511	0.2544	-0.0408	0.2521	-1.097	0.194	0.4843	9.7103	-0.2221	0.7708	-0.0033	0.5704	-0.2702	-0.7565	-9.6263	1.7571	-0.2273	-0.4715	1.3441	-0.3439	0.8282	-0.3518	0.7689
-0.3129	0.0104	9.9383	-0.1696	0.2831	0.0698	-0.0735	0.1976	-1.0841	0.1979	0.14	9.8845	-0.3969	0.3372	0.1232	0.5404	-0.2762	-0.7565	-10.2562	2.042	-0.5247	-0.3719	1.402	-0.1313	0.8276	-0.3713	0.7505
-0.3789	0.4227	9.6401	0.0494	0.5302	-0.0506	-0.0389	0.2338	-1.0808	0.4815	0.484	9.7744	-0.0861	0.28	0.2754	0.5404	-0.2702	-0.7745	-9.5182	1.9273	-0.5112	-0.44	1.222	-0.3151	0.7649	-0.334	0.7682
-0.1289	-0.1672	10.1189	0.0811	0.5609	-0.0196	-0.0209	0.233	-1.0798	0.3672	0.3692	9.7717	0.0718	0.0958	0.2448	0.5343	-0.2822	-0.7505	-9.515	1.8706	-0.3396	-0.5575	1.1276	-0.0972	0.8138	-0.2751	0.7888
-0.0761	-0.2205	9.7119	-0.0445	0.4375	-0.0207	-0.0186	0.2537	-1.0289	0.2611	0.544	10.2389	-0.1476	0.2161	0.1225	0.5464	-0.2702	-0.7565	-9.6326	1.8137	-0.5707	-0.6102	1.0623	0.2111	0.7643	-0.3535	0.7498
-0.1937	-0.6887	9.8324	-0.1709	0.2836	-0.0532	-0.0214	0.194	-1.1145	0.3056	0.2533	9.5357	-0.1547	0.5247	0.0592	0.5343	-0.2642	-0.7625	-9.458	1.643	-0.3387	-0.4566	1.0019	0.1753	0.7647	-0.3528	0.7854
-0.1368	0.1882	9.7057	-0.3569	0.0667	0.2212	-0.0598	0.2523	-1.1148	0.256	0.3127	9.945	-0.3747	0.7076	0.0287	0.5524	-0.2702	-0.7445	-9.8448	1.5871	0.2263	-0.3931	1.2145	0.2058	0.782	-0.2758	0.7881
0.2825	0.0723	9.5978	-0.6067	-0.0577	0.1601	-0.0222	0.2129	-1.1139	0.3677	0.7145	9.8318	-0.5077	1.1068	-0.1265	0.5343	-0.2762	-0.7565	-9.4587	2.2117	-0.3383	-0.3394	0.9746	-0.0435	0.8123	-0.3706	0.8035
-0.5597	-0.2184	9.5866	-0.6065	-0.027	0.13	-0.017	0.2159	-1.0301	0.543	0.6575	10.0106	-0.6022	1.1986	-0.1265	0.5644	-0.2702	-0.7685	-9.8545	1.871	-0.2886	-0.3064	1.0346	0.0174	0.8138	-0.2936	0.8237
-0.0759	-0.3372	9.7133	-0.5815	-0.3011	0.0008	-0.0173	0.1964	-1.0474	0.2503	0.4264	9.6526	-0.6309	1.074	-0.1871	0.5584	-0.2762	-0.7625	-9.4554	2.0413	-0.1667	0.0348	0.943	0.0372	0.7808	-0.3337	0.7685
-0.0765	0.0713	9.7082	-0.6115	-0.3634	0.1843	-0.04	0.2332	-1.0976	0.6581	0.3123	10.0112	-0.5698	1.201	0.0884	0.5404	-0.2642	-0.7445	-9.454	1.757	-0.1097	-0.2103	0.8503	0.136	0.7974	-0.3135	0.805
-0.1353	-0.1044	9.7677	-0.5465	-0.2103	0.2483	-0.0011	0.2139	-1.0626	0.4247	0.1966	9.772	-0.6645	1.2289	-0.1263	0.5464	-0.2702	-0.7325	-9.3407	1.9274	-0.1075	-0.3125	0.8851	-0.1679	0.8126	-0.333	0.7692
-0.073	-0.1059	9.8856	-0.4839	-0.2407	0.3699	-0.0034	0.2706	-1.0608	0.4777	0.8283	9.6002	-0.5634	0.8597	-0.0325	0.5464	-0.2762	-0.7565	-9.2343	1.8132	-0.5061	-0.3468	1.0085	-0.2888	0.7974	-0.3135	0.805
-0.2507	0.0672	10.0554	-0.6373	-0.1197	0.2822	-0.0766	0.2731	-1.0817	-0.0392	0.8865	9.532	-0.4379	0.7368	-0.094	0.5644	-0.2702	-0.7505	-9.7418	1.7003	-0.3439	-0.3959	0.9256	-0.8719	0.7657	-0.2953	0.7872
-0.1942	-0.3385	9.828	-0.8543	-0.0908	0.1625	-0.0217	0.2519	-1.0792	-0.1359	0.0854	10.4049	-0.4112	0.9859	0.058	0.5584	-0.2702	-0.7505	-9.6316	1.8137	-0.5134	-0.8086	0.9302	-1.1975	0.8119	-0.3713	0.7679
-0.1977	-0.0445	9.6491	-0.7623	-0.0896	0.0999	-0.023	0.2318	-1.1133	0.1948	0.6571	9.7697	-0.5676	1.1085	0.1196	0.5524	-0.2822	-0.7505	-9.6286	1.9276	-0.3416	-0.778	1.1437	-1.2274	0.7963	-0.334	0.7333
-0.308	0.2985	10.2266	-0.5468	-0.2101	0.2176	0.0306	0.2678	-1.0923	0.367	0.4842	9.7722	-0.5421	1.3244	0.026	0.5464	-0.2882	-0.7565	-9.5642	1.6435	0.0598	-0.9004	1.2954	-1.1918	0.8287	-0.3323	0.7873
-0.1318	-0.34	9.9459	-0.5173	-0.2708	0.1851	-0.058	0.234	-1.0986	0.3104	0.7146	9.8307	-1.01	1.5985	0.0886	0.5283	-0.2642	-0.7505	-9.5746	1.5862	-0.5126	-0.9869	1.2314	-0.9747	0.8285	-0.3511	0.8044
-0.5538	0.1274	9.9326	-0.6738	-0.3945	0.1844	-0.0204	0.272	-1.0451	0.6557	0.4268	9.8946	-1.1384	1.813	0.0266	0.5644	-0.2642	-0.7565	-9.5658	2.0984	0.0029	-0.9785	1.197	-0.6986	0.8124	-0.3518	0.7863
-0.314	0.0695	9.8792	-0.5793	-0.3021	0.216	-0.0747	0.1775	-1.1182	0.4337	0.0836	10.2401	-1.1034	1.6281	0.0582	0.5524	-0.2762	-0.7565	-9.575	1.9274	-0.5123	-1.0384	1.257	-0.6349	0.8137	-0.2567	0.7538
-0.0773	-0.103	9.652	-0.6398	-0.1494	0.0971	-0	0.2145	-1.0458	0.3123	0.2548	9.8872	-0.6969	1.3537	0.0268	0.5464	-0.2762	-0.7625	-9.4562	1.8706	-0.2241	-1.0399	1.3796	-0.6953	0.7481	-0.3546	0.7139
-0.3739	-0.1639	9.881	-0.455	-0.2396	0.185	-0.0037	0.2511	-1.0782	0.1391	0.3699	9.8258	-0.5013	0.8928	0.1205	0.5584	-0.2822	-0.7385	-9.6287	1.9845	-0.3416	-0.6675	1.3793	-0.6757	0.7969	-0.333	0.7866
-0.0732	0.0108	9.8841	-0.3584	-0.025	0.2192	-0.074	0.236	-1.0661	0.2529	0.1969	9.7687	-0.4647	0.6146	0.0913	0.5464	-0.2822	-0.7625	-9.4572	1.8706	-0.2813	-0.518	1.1685	-0.8355	0.8607	-0.3313	0.8057
-0.2483	-0.1094	10.1744	-0.4804	0.1269	0.1318	0.0013	0.1573	-1.0644	0.3759	0.4288	10.2406	-0.3685	0.4297	0.0611	0.5464	-0.2762	-0.7565	-9.8517	2.0987	-0.1167	-0.4478	1.1342	-0.5614	0.8439	-0.3703	0.7864
0.2225	-0.0443	9.5982	-0.2652	0.068	0.1278	-0.0361	0.2161	-1.0479	0.5406	0.0816	9.8323	-0.49	0.3672	0.1236	0.5343	-0.2582	-0.7445	-9.511	1.9845	-0.1106	-0.4114	1.0403	-0.3788	0.7967	-0.3333	0.7688
-0.3117	-0.1071	9.9982	-0.2948	0.1287	0.1603	-0.058	0.234	-1.0986	0.8239	0.6557	9.7232	-0.2166	0.4919	-0.0631	0.5464	-0.2702	-0.7565	-9.2848	1.7567	-0.1638	-0.3784	0.7955	-0.2896	0.7809	-0.3333	0.7863
-0.3191	-0.102	9.5894	-0.7012	-0.0887	0.0376	-0.0395	0.2722	-1.0629	0.1987	0.3128	9.9439	-0.3441	0.6759	-0.0942	0.5584	-0.2642	-0.7385	-9.2835	1.5861	-0.1067	-0.1359	0.9504	-0.48	0.7813	-0.2957	0.752
-0.0144	0.2449	9.8239	-0.397	-0.4835	0.2098	-0.0217	0.2519	-1.0792	0.653	0.7138	9.7787	-0.4106	0.8596	-0.2178	0.5524	-0.2582	-0.7445	-9.4047	1.9272	-0.5092	0.0302	0.9756	-0.116	0.8124	-0.3333	0.7514
-0.5612	0.1325	9.5238	-0.3662	-0.4524	0.1486	-0.0209	0.233	-1.0798	0.2006	0.4858	10.0618	-0.3796	0.892	-0.0953	0.5644	-0.2762	-0.7565	-9.5673	1.5865	-0.1119	-0.1898	1.1295	-0.2311	0.8283	-0.3145	0.7168
-0.0113	0.3011	9.9983	-0.5196	-0.3313	0.0608	-0.0567	0.2541	-1.0645	0.4227	0.7714	9.716	-0.6637	1.1983	-0.0954	0.5464	-0.2762	-0.7505	-9.4653	1.6427	-0.7394	-0.2288	1.2551	-0.5055	0.8126	-0.333	0.7692
-0.3197	0.3649	9.5835	-0.4553	-0.178	0.0634	-0.0008	0.1561	-1.0979	0.1959	0.6573	9.8282	-0.8192	1.2267	-0.1869	0.5404	-0.2702	-0.7565	-9.9163	1.7003	-0.576	-0.3189	1.2233	-0.4109	0.7803	-0.3717	0.7851
-0.0738	0.4193	9.879	-0.48	0.0345	0.3143	-0.0612	0.3095	-1.0963	0.254	0.1396	9.827	-0.7238	1.1361	-0.064	0.5404	-0.2822	-0.7445	-9.3996	1.9843	-0.223	-0.4914	1.278	0.0249	0.8285	-0.3511	0.8044
-0.2607	-0.334	9.4766	-0.359	0.0368	0.0668	-0.0016	0.2523	-1.0446	0.5343	0.5404	9.5414	-0.6918	1.0743	-0.0945	0.5524	-0.2582	-0.7565	-9.4497	1.6434	0.1191	-0.5209	1.4297	0.0577	0.8129	-0.3138	0.7698
0.3379	0.5421	9.3593	-0.1706	0.0067	0.4021	0.0311	0.2294	-1.1102	0.369	0.5998	9.8899	-0.3816	0.9847	-0.0958	0.5584	-0.2762	-0.7505	-9.9123	1.8711	-0.3469	-0.6454	1.2166	0.0598	0.7638	-0.373	0.7314
-0.3699	0.0083	10.1124	-0.4523	-0.0562	0.1582	0.0141	0.2308	-1.0945	0.2497	0.7715	9.6541	-0.7449	0.6718	-0.0918	0.5524	-0.2702	-0.7565	-9.6315	1.7	-0.5135	-0.652	1.2197	-0.1551	0.8126	-0.333	0.7692
0.2197	0.4824	9.4748	-0.4189	-0.0261	0.343	-0.0219	0.2324	-1.0966	0.0825	0.6003	9.8844	-0.5656	1.0158	0.1202	0.5464	-0.2642	-0.7565	-9.1764	1.6995	-0.4479	-0.5607	1.3119	-0.2186	0.797	-0.3142	0.7694
0.1071	0.1856	9.8851	-0.6434	-0.3633	0.0925	-0.0024	0.2712	-1.044	0.4199	0.4831	9.539	-0.7277	1.3216	-0.0651	0.5524	-0.2762	-0.7565	-9.6816	1.416	-0.1714	-0.7134	1.3718	-0.1521	0.8281	-0.3334	0.7339
-0.432	-0.1069	9.996	-0.583	-0.5466	0.2415	-0.0018	0.2328	-1.062	0.5902	0.0797	9.4233	-0.8859	1.4419	-0.2492	0.5524	-0.2702	-0.7505	-9.6869	2.3257	-0.3996	-0.8456	1.4062	-0.4244	0.8297	-0.2933	0.824
-0.4345	0.128	9.8763	-0.5808	-0.3937	0.214	-0.0761	0.2348	-1.0997	0.3712	0.6003	10.007	-0.9766	1.4115	-0.0949	0.5464	-0.2822	-0.7685	-9.4536	1.4726	-0.1099	-0.8764	1.1623	-0.3947	0.7649	-0.334	0.7682
-0.2556	-0.1626	9.7664	-0.3322	-0.2073	0.0612	-0.0209	0.233	-1.0798	0.3075	0.4838	9.6539	-1.1618	1.4411	-0.0325	0.5524	-0.2702	-0.7505	-9.9153	1.7572	-0.5187	-0.9665	1.1305	-0.3001	0.7969	-0.333	0.7866
-0.0763	-0.0454	9.7097	-0.1766	-0.1754	0.1214	-0.0055	0.2694	-1.0944	0.2524	0.4844	9.77	-0.9145	1.3491	-0.2178	0.5464	-0.2582	-0.7505	-9.6281	1.5295	-0.3419	-0.8752	1.2531	-0.3633	0.8287	-0.3323	0.7873
-0.5625	0.3084	9.4632	-0.1125	-0.1142	0.245	-0.0201	0.2141	-1.0804	0.4856	0.7151	10.0097	-0.8825	1.3509	-0.0643	0.5584	-0.2642	-0.7565	-9.6762	2.0987	0.1725	-0.9327	1.1596	-0.2086	0.7811	-0.3145	0.7691
-0.1375	-0.1029	9.6509	-0.2354	-0.1158	0.308	0.0131	0.2302	-1.1113	0.1949	0.5995	9.7694	-1.0092	1.536	0.0275	0.5404	-0.2762	-0.7505	-9.8547	1.9848	-0.2885	-0.9619	1.0979	-0.1468	0.8287	-0.3323	0.7873
-0.1333	-0.0475	9.8838	-0.3336	-0.4835	0.3627	-0.0024	0.2712	-1.044	0.1325	0.3683	9.4744	-1.072	1.5021	-0.2178	0.5644	-0.2762	-0.7565	-9.6256	1.9846	-0.1699	-0.9292	1.0666	-0.0866	0.7811	-0.3145	0.7691
0.0992	-0.217	9.423	-0.5502	-0.3933	0.1829	-0.0199	0.2336	-1.063	0.5377	-0.1492	9.6555	-1.421	1.9942	-0.1264	0.5464	-0.2702	-0.7505	-9.7434	2.0983	-0.4008	-1.0663	1.0422	-0.5129	0.8447	-0.3131	0.7704
-0.3793	-0.1019	9.5883	-0.7361	-0.4872	0.2755	-0.0008	0.2334	-1.0452	0.5978	0.8294	9.8953	-1.3906	1.9939	-0.1881	0.5584	-0.2762	-0.7445	-9.6283	1.6432	-0.3419	-0.9496	1.1675	-0.7612	0.797	-0.3142	0.7694
-0.5521	-0.3402	9.9969	-0.8923	-0.6111	0.3055	-0.0034	0.2706	-1.0608	0.5457	1.0034	10.1879	-1.2626	1.8742	0.0884	0.5464	-0.2522	-0.7685	-9.3999	1.4155	-0.2806	-0.8612	1.2306	-0.917	0.8283	-0.333	0.7517
0.1607	0.365	9.5336	-0.6109	-0.2713	0.094	-0.0217	0.2519	-1.0792	0.133	0.7136	9.5345	-1.1028	1.5336	-0.1256	0.5644	-0.2762	-0.7505	-9.7996	1.6434	-0.4022	-1.0803	1.3536	-1.0016	0.796	-0.3717	0.7676
-0.3688	-0.0508	10.1716	-0.2974	0.0068	0.0961	-0.0523	0.1986	-1.0327	0.9433	0.4265	9.9587	-1.0374	1.3803	-0.0636	0.5464	-0.2642	-0.7565	-9.2312	1.8134	-0.3344	-0.9844	1.4131	-0.9118	0.8126	-0.333	0.7692
-0.2591	0.0147	9.589	-0.1703	0.2219	0.0992	-0.0544	0.1974	-1.0663	0.4244	0.3691	9.7728	-0.5024	0.9549	0.1509	0.5644	-0.2582	-0.7385	-9.6297	1.9275	-0.3989	-0.948	1.3497	-0.729	0.7973	-0.295	0.7701
-0.3778	0.3636	9.6992	-0.1692	0.2521	0.1614	-0.0379	0.2344	-1.0641	0.2622	0.5443	10.2975	-0.4323	0.5533	0.1222	0.5404	-0.2822	-0.7565	-9.7402	2.0416	-0.2292	-0.8523	1.3788	-0.6395	0.782	-0.2943	0.8231
-0.3697	-0.1668	10.1146	-0.0436	0.3141	0.2534	-0.0361	0.2161	-1.0479	-0.0907	0.7153	9.823	-0.3101	0.5849	0.0598	0.5464	-0.2822	-0.7505	-9.7377	1.7573	-0.1149	-1.0653	1.3465	-0.5105	0.7806	-0.334	0.7507
-0.0737	0.361	9.8797	-0.0133	0.3762	0.1006	0.034	0.2117	-1.0773	0.1338	0.2535	9.5324	-0.4033	0.6149	0.0602	0.5584	-0.2642	-0.7445	-9.6913	1.6431	-0.6863	-1.2276	1.35	-0.7514	0.7804	-0.3528	0.7679
-0.3859	0.136	9.235	-0.3221	0.3422	0.1652	-0.0201	0.2141	-1.0804	0.4849	0.4273	9.9499	-0.5586	0.6436	-0.0006	0.5524	-0.2642	-0.7565	-9.6247	2.0984	-0.1126	-1.2676	1.4761	-1.0565	0.7816	-0.3134	0.8224
-0.2595	-0.3931	9.5357	-0.2323	0.129	0.221	-0.0382	0.2149	-1.0814	-0.0903	0.4853	9.822	-0.4405	0.8922	-0.0027	0.5644	-0.2642	-0.7565	-9.5721	2.0981	-0.3405	-1.2379	1.6596	-1.1174	0.8453	-0.3121	0.8237
-0.3192	-0.0436	9.5886	-0.2048	0.0077	0.095	-0.0037	0.2511	-1.0782	0.3111	0.3121	9.8289	-0.5661	0.9834	-0.0333	0.5524	-0.2942	-0.7565	-9.9093	1.9849	-0.1751	-1.2306	1.5952	-0.8723	0.7969	-0.333	0.7866
-0.1949	0.1868	9.8214	-0.2358	-0.1156	0.2772	-0.0408	0.2521	-1.097	0.4308	0.5432	10.125	-0.4135	1.0147	-0.1573	0.5524	-0.2582	-0.7565	-9.4554	1.245	-0.2246	-1.1075	1.6566	-0.9062	0.8144	-0.2368	0.79
-0.0753	0.0123	9.7673	-0.1437	-0.0529	0.1237	-0.0889	0.1612	-1.0695	0.1983	0.5428	9.9449	-0.722	1.0431	-0.0942	0.5464	-0.2702	-0.7625	-9.7462	1.8707	-0.5727	-1.0656	1.56	-0.5395	0.7801	-0.3535	0.7324
-0.197	0.1882	9.7046	-0.2972	-0.0549	0.2178	-0.0761	0.2348	-1.0997	0.5444	0.4277	10.0681	-0.5018	0.8286	-0.1249	0.5404	-0.2762	-0.7565	-9.3408	2.0412	-0.1074	-1.2113	1.4643	-0.2286	0.7653	-0.296	0.7516
-0.0735	0.2442	9.8812	-0.1425	-0.0226	0.1858	-0.0572	0.2151	-1.0992	0.4849	0.4848	9.9501	-0.4027	0.5522	-0.0317	0.5404	-0.2762	-0.7385	-9.1659	2.4961	0.1822	-0.9617	1.1892	-0.1461	0.7975	-0.2946	0.7878
-0.0776	0.1304	9.6491	-0.202	0.0373	0.3109	-0.057	0.2346	-1.0819	0.2563	0.773	10.0056	-0.2776	0.4922	0.0294	0.5644	-0.2822	-0.7745	-9.6263	1.7571	-0.2273	-0.9962	1.2518	-0.2675	0.7963	-0.3525	0.7682
-0.4384	-0.1025	9.6456	-0.2381	-0.1762	0.1529	-0.0024	0.2712	-1.044	0.4818	0.3115	9.7736	-0.3405	0.5852	0.1214	0.5524	-0.2582	-0.7505	-9.5656	1.9278	0.0028	-0.6269	1.131	-0.3409	0.7973	-0.295	0.7701
-0.4392	0.4811	9.6383	-0.4214	-0.1174	0.2488	-0.0382	0.2149	-1.0814	0.3059	0.7711	9.5966	-0.3747	0.7076	0.0287	0.5524	-0.2582	-0.7565	-9.9627	1.8145	-0.0046	-0.6045	1.1046	-0.6184	0.7975	-0.2946	0.7878
0.1697	0.009	10.0052	-0.3325	-0.2994	0.1822	-0.0361	0.2161	-1.0479	0.4221	0.4261	9.6559	-0.4122	0.9847	-0.0649	0.5524	-0.2642	-0.7505	-10.1341	1.8716	-0.0649	-0.605	1.2572	-0.6479	0.8129	-0.3323	0.8047
-0.5623	0.1916	9.4647	-0.2397	-0.1755	-0.0008	-0.0408	0.2521	-1.097	0.3678	0.657	9.8315	-0.508	1.1383	-0.0653	0.5644	-0.2822	-0.7505	-9.6298	2.0413	-0.3988	-0.6418	1.1685	-0.8318	0.7808	-0.3337	0.7685
-0.3774	0.0717	9.7029	-0.2369	-0.0844	0.1242	-0.0175	0.177	-1.0648	0.4806	0.3688	9.7153	-0.6053	1.4171	0.0873	0.5464	-0.2882	-0.7505	-9.6816	2.269	-0.1135	-0.4717	1.2833	-0.3444	0.7813	-0.3141	0.7869
-0.3106	-0.1078	10.0566	-0.236	-0.054	0.1556	0.0314	0.2489	-1.0929	0.4849	0.4273	9.9499	-0.7251	1.2297	0.0277	0.5404	-0.2762	-0.7505	-9.3499	1.7564	-0.6227	-0.4356	1.1285	-0.1623	0.7809	-0.3148	0.7514
-0.2592	0.1314	9.5875	-0.387	0.2506	0.0103	-0.0557	0.2547	-1.0477	0.2502	0.4839	9.6528	-0.4425	0.985	-0.0033	0.5343	-0.2582	-0.7505	-9.2307	1.4153	-0.3347	-0.4383	1.1602	-0.2542	0.7811	-0.3145	0.7691
-0.136	0.3625	9.7619	-0.3262	0.1901	0.0082	-0.0196	0.2531	-1.0457	0.4284	0.6577	10.0084	-0.596	0.9525	-0.0022	0.5464	-0.2822	-0.7505	-9.5742	1.245	-0.5128	-0.5323	1.0998	-0.2826	0.797	-0.3142	0.7694
-0.1379	0.1889	9.6473	-0.2933	0.3127	0.0105	-0.0742	0.2165	-1.0835	0.0252	0.6004	9.8833	-0.5929	0.8612	0.152	0.5524	-0.2642	-0.7505	-9.4543	1.9844	-0.1095	-0.6218	1.281	-0.1862	0.7485	-0.3723	0.7844
-0.1948	0.1284	9.8221	-0.4217	-0.0557	0.1271	-0.0586	0.2723	-1.0807	0.186	0.655	9.301	-0.6848	0.734	-0.1233	0.5464	-0.2762	-0.7505	-9.1737	2.0408	-0.276	-0.4134	1.3155	-0.4688	0.7488	-0.3347	0.7501
0.2824	0.1891	9.5963	-0.2313	0.1901	0.2223	-0.0209	0.233	-1.0798	0.8915	0.4279	10.2505	-0.4967	0.6764	0.1218	0.5524	-0.2582	-0.7445	-9.455	1.7569	-0.1669	-0.322	1.1334	-0.5037	0.8121	-0.371	0.7857
-0.3181	-0.0443	9.647	-0.2643	0.16	0.0683	-0.0199	0.2336	-1.063	0.0796	0.3694	9.7076	-0.6795	0.4866	-0.1218	0.5524	-0.2762	-0.7505	-9.455	1.7569	-0.1669	0.0175	1.1035	-0.5448	0.8133	-0.3131	0.8053
-0.4952	-0.2797	9.822	-0.1359	0.313	0.2853	-0.0039	0.2316	-1.0955	0.4782	0.5408	9.5989	-0.2159	0.4928	0.0291	0.5464	-0.2642	-0.7445	-9.5151	1.9275	-0.3396	0.1075	0.8001	-0.6114	0.7809	-0.3148	0.7514
-0.6809	-0.3342	9.5275	-0.2336	0.1296	0.098	-0.0379	0.2344	-1.0641	0.2527	0.3119	9.7692	-0.1232	0.4941	0.0592	0.5464	-0.2762	-0.7505	-9.7458	1.5295	-0.573	0.1485	1.0087	-0.3037	0.8139	-0.2563	0.7716
-0.1409	0.0744	9.4735	-0.1385	0.1603	0.282	-0.0207	0.2525	-1.0624	0.3747	0.486	10.1822	-0.4355	0.6446	-0.032	0.5343	-0.2702	-0.7565	-9.3476	1.6428	-0.5083	-0.2153	1.0659	-0.0465	0.7973	-0.295	0.7701
-0.61	-0.4583	10.1141	-0.3248	0.2203	0.1011	-0.0562	0.2157	-1.0825	0.197	0.6576	9.8868	-0.4348	0.6455	0.0602	0.5584	-0.2642	-0.7625	-10.0833	1.6438	-0.4074	-0.1507	1.0342	0.0435	0.8435	-0.371	0.7508
-0.0784	-0.0439	9.5929	-0.0789	0.131	0.1268	-0.0188	0.2342	-1.0463	0.192	0.3687	9.5926	-0.5027	0.8592	-0.1558	0.5524	-0.2582	-0.7505	-9.8576	1.814	-0.4604	-0.3335	1.0633	0.1414	0.8612	-0.3118	0.8241
-0.1347	0.1867	9.8225	-0.3003	-0.1458	0.0621	-0.0536	0.1785	-1.0669	0.5443	-0.1477	10.007	-0.4711	0.8922	0.0282	0.5464	-0.2702	-0.7445	-9.97	1.8142	-0.4052	-0.2349	1.0911	0.323	0.8127	-0.3142	0.752
-0.5618	0.5995	9.5179	-0.4835	-0.1178	0.2188	-0.0588	0.2529	-1.098	0.0312	0.3141	10.1749	-0.4454	1.0765	-0.1267	0.5464	-0.2642	-0.7385	-9.6856	2.0983	-0.3425	-0.1788	1.0329	0.1365	0.7815	-0.3138	0.8047
-0.6193	0.1312	9.6395	-0.4859	-0.2399	0.1854	-0.0199	0.2336	-1.063	0.3087	0.4266	9.7122	-0.443	0.9844	-0.0647	0.5584	-0.2702	-0.7505	-9.8513	1.7574	-0.117	-0.0241	1.0025	0.1317	0.8126	-0.333	0.7692
-0.1337	0.2443	9.8801	-0.4253	-0.2696	0.1225	-0.0392	0.2143	-1.0982	0.3169	0.0833	10.1208	-0.313	0.6765	-0.0636	0.5524	-0.2642	-0.7625	-9.5703	1.5295	-0.2837	0.0355	0.8513	0.0672	0.8289	-0.332	0.805
-0.4364	-0.0456	9.7617	-0.4226	-0.1476	0.1866	-0.0204	0.272	-1.0451	0.1976	0.3125	9.8853	-0.2804	0.6474	0.09	0.5464	-0.2822	-0.7685	-9.625	1.5296	-0.1702	0.1002	0.85	0.1574	0.8126	-0.3145	0.7342
-0.3139	-0.0473	9.8806	-0.3246	0.251	0.071	-0.0235	0.2702	-1.0954	0.5929	0.4256	9.6006	-0.2802	0.6159	0.0287	0.5584	-0.2582	-0.7685	-9.5179	1.643	-0.5115	0.225	0.8496	0.1844	0.7809	-0.3333	0.7863
-0.0783	-0.1023	9.5936	-0.1079	0.1607	0.2509	-0.0178	0.2348	-1.0295	0.486	-0.2053	9.947	-0.4635	0.4891	-0.0924	0.5524	-0.2702	-0.7565	-9.1778	1.9838	-0.5049	-0.0289	0.9743	-0.0221	0.7813	-0.2957	0.752
-0.0203	-0.1009	9.4779	-0.2336	0.1296	0.098	-0.0732	0.2171	-1.0667	0.4244	0.3691	9.7728	-0.2778	0.5237	0.0907	0.5584	-0.2762	-0.7505	-9.345	2.041	-0.3363	-0.1884	0.9764	-0.1709	0.7965	-0.3337	0.7511
-0.3177	-0.3361	9.6507	-0.3236	0.1891	0.2542	-0.0371	0.2155	-1.0646	0.253	0.7722	9.8299	-0.3428	0.6458	-0.0018	0.5524	-0.2642	-0.7565	-9.1772	1.5288	-0.5053	-0.3453	0.8859	-0.2284	0.8126	-0.333	0.7692
-0.0712	0.126	9.9995	-0.3552	0.1275	0.284	-0.0363	0.1966	-1.0652	0.2599	0.6013	10.1806	-0.443	1.0162	0.0273	0.5584	-0.2762	-0.7445	-9.9062	1.9851	-0.0034	-0.2647	0.8612	-0.6305	0.8132	-0.2762	0.7355
-0.1984	-0.3356	9.5944	-0.2965	0.0064	0.1884	-0.0389	0.2338	-1.0808	0.2536	0.4272	9.8283	-0.5983	1.0131	-0.1254	0.5644	-0.2822	-0.7445	-9.7978	1.871	-0.2876	-0.0433	1.1639	-0.5118	0.8135	-0.3128	0.8231
-0.6234	0.0757	9.4067	-0.4217	-0.0557	0.1271	-0.0536	0.1785	-1.0669	0.2496	0.829	9.6544	-0.6625	1.1679	-0.0338	0.5404	-0.2642	-0.7385	-9.6847	2.212	-0.2852	-0.0158	0.9522	-0.6065	0.7652	-0.2964	0.7339
-0.071	-0.049	10.0017	-0.3589	-0.0555	0.2186	0.001	0.2151	-1.029	0.3095	0.5994	9.7716	-0.6632	1.1671	-0.126	0.5464	-0.2702	-0.7385	-9.6274	1.757	-0.2845	-0.2257	1.0403	-0.3844	0.8286	-0.3138	0.7523
-0.4981	0.3054	9.6979	-0.2657	0.0375	0.1272	-0.0057	0.2499	-1.1117	0.1896	0.4832	9.476	-0.7839	1.0421	-0.1245	0.5464	-0.2762	-0.7685	-9.6879	1.4157	-0.5148	-0.3202	1.1325	-0.4423	0.8126	-0.333	0.7692
-0.5618	0.5995	9.5179	-0.2022	0.1604	0.0983	0.0121	0.2296	-1.128	0.6055	0.1408	10.2437	-0.7192	0.8561	-0.2467	0.5644	-0.2702	-0.7565	-9.9049	1.7576	0.0536	-0.077	1.1956	-0.6027	0.8288	-0.3135	0.7701
0.1023	-0.1609	9.5975	-0.0733	0.344	0.3159	-0.0711	0.2183	-1.0332	0.4863	0.255	10.0077	-0.3122	0.6459	-0.0327	0.5464	-0.2702	-0.7385	-9.3954	1.9844	0.006	-0.1128	1.1674	-0.7555	0.797	-0.2957	0.7345
-0.1949	0.1868	9.8214	0.0487	0.3151	0.2215	-0.056	0.2352	-1.0651	0.1366	0.5419	9.7095	-0.2762	0.494	0.2138	0.5584	-0.2702	-0.7385	-9.3499	1.8133	-0.6227	-0.1168	1.0778	-0.879	0.8133	-0.3131	0.8053
-0.1336	0.186	9.8809	0.0808	0.3457	0.2833	-0.0758	0.2543	-1.0823	0.205	0.4869	10.2961	0.0345	0.3732	0.182	0.5464	-0.2762	-0.7625	-9.9687	1.5868	-0.3482	-0.2404	1.1387	-0.8748	0.7813	-0.3141	0.7869
-0.5589	0.0144	9.6421	0.0825	0.4681	0.2551	-0.0402	0.2137	-1.115	0.3699	0.7151	9.949	-0.1214	0.401	0.0291	0.5464	-0.2762	-0.7505	-9.7964	1.6435	-0.2305	-0.1475	1.1691	-0.8774	0.7979	-0.2939	0.8234
-0.4428	0.0171	9.4106	-0.0833	0.1021	-0.2428	-0.0217	0.2519	-1.0792	0.6425	0.4237	9.1916	-0.2487	0.6488	0.2127	0.5584	-0.2582	-0.7445	-9.962	1.189	-0.0051	-0.61	1.1681	-0.8021	0.7659	-0.2765	0.77
-0.2542	0.3612	9.8766	-0.3414	-0.5418	-0.2843	-0.0395	0.2722	-1.0629	0.3638	0.4259	9.5962	-1.0986	1.5707	0.5195	0.5644	-0.2642	-0.7625	-9.9153	1.7572	-0.5187	-0.6371	1.1967	-0.6781	0.8126	-0.333	0.7692
-0.1397	-0.0431	9.5334	-0.4404	-0.94	-0.2609	-0.0207	0.2525	-1.0624	-0.0406	0.4258	9.4127	-1.0831	2.2185	0.3312	0.5283	-0.2642	-0.7505	-9.4005	1.8705	-0.2803	-0.8435	1.1614	-0.3342	0.7963	-0.3525	0.7682
-0.4965	-0.0456	9.7607	-0.2849	-1.0312	-0.0188	-0.0026	0.2517	-1.0614	0.2491	0.4837	9.5942	-1.3949	2.3378	0.2094	0.5524	-0.2762	-0.7385	-9.5119	1.0176	-0.2258	-0.8091	1.0684	-0.2131	0.8294	-0.3124	0.8234
-0.1914	-0.0489	9.9995	-0.4082	-1.0941	0.1044	-0.0029	0.2322	-1.0788	0.1393	0.2548	9.8253	-1.3319	2.3084	0.3014	0.5464	-0.2642	-0.7685	-9.5177	1.4724	-0.5116	-0.7704	0.8659	-0.9533	0.7648	-0.3155	0.7333
-0.3738	-0.2223	9.8818	-0.4956	-0.8203	0.173	-0.0243	0.289	-1.0948	0.4301	0.2554	10.0652	-1.1071	1.8775	0.2719	0.5283	-0.2762	-0.7625	-9.5184	2.0979	-0.5111	-0.8099	1.1441	-1.2572	0.8129	-0.3323	0.8047
-0.1986	-0.1605	9.5922	-0.4949	-0.6976	0.0526	-0.0207	0.2525	-1.0624	0.3122	0.3123	9.8875	-1.0029	1.2899	0.1519	0.5524	-0.2522	-0.7445	-9.4662	1.5289	-0.7967	-1.0011	1.2076	-1.4353	0.7982	-0.2563	0.7891
0.1627	-0.336	9.6008	-0.3031	-0.3293	0.0889	-0.0732	0.2171	-1.0667	0.5984	0.4269	9.8935	-0.6894	1.0139	0.0595	0.5524	-0.2822	-0.7625	-9.4552	1.8706	-0.1669	-1.0288	1.328	-1.3414	0.765	-0.3337	0.786
-0.0817	0.075	9.4162	-0.3331	-0.2377	0.0298	-0.056	0.2352	-1.0651	0.5342	0.6555	9.5419	-0.6828	0.673	-0.0307	0.5644	-0.2702	-0.7625	-9.6293	1.6432	-0.3991	-0.9976	1.4193	-1.3416	0.8136	-0.2755	0.771
-0.1332	-0.1059	9.8845	-0.2291	0.343	0.1948	-0.0732	0.2171	-1.0667	0.4856	0.7151	10.0097	-0.7174	0.8585	-0.0009	0.5464	-0.2762	-0.7505	-9.7461	1.7569	-0.5728	-1.3088	1.4809	-1.3932	0.8439	-0.3518	0.7514
-0.1327	0.3019	9.9378	-0.1656	0.466	0.166	0.016	0.2125	-1.0783	0.707	0.08	9.5427	-0.6564	0.8264	-0.1854	0.5524	-0.2702	-0.7565	-9.7376	1.6436	-0.115	-1.5929	1.5443	-1.5686	0.7659	-0.295	0.805
-0.3727	0.535	9.989	-0.0357	0.7107	0.3849	-0.0209	0.233	-1.0798	0.1948	-0.0333	9.708	-0.718	0.8576	-0.0931	0.5404	-0.2702	-0.7565	-9.9649	1.8713	-0.119	-1.8412	1.6359	-1.5912	0.7647	-0.3344	0.7504
-0.1288	-0.2839	10.1203	-0.0353	0.772	0.3247	-0.0742	0.2165	-1.0835	0.3046	0.1955	9.4769	-0.6855	0.6695	-0.3994	0.5524	-0.2762	-0.7505	-9.5081	1.3022	0.0034	-1.775	1.512	-1.4405	0.8119	-0.3713	0.7679
-0.1412	0.3078	9.4706	0.1155	0.6521	0.1665	-0.0742	0.2165	-1.0835	0.1951	0.4845	9.7689	-0.4656	0.6134	-0.0316	0.5584	-0.2762	-0.7445	-9.6221	1.7004	0.0016	-1.7075	1.479	-1.2584	0.7967	-0.3333	0.7688
-0.5001	0.2485	9.5818	0.2094	0.7448	0.1365	-0.0949	0.2545	-1.1001	0.1991	0.7156	10.0042	-0.2226	0.7384	-0.1567	0.5404	-0.2582	-0.7445	-9.7358	1.8711	-0.0004	-1.5093	1.5647	-0.8642	0.7809	-0.3333	0.7863
-0.5611	0.0742	9.5245	0.2101	0.6522	0.3498	-0.0209	0.233	-1.0798	0.0286	0.5436	10.0587	-0.3161	0.7996	-0.1258	0.5464	-0.2642	-0.7505	-9.6787	1.5867	0.0004	-1.1613	1.5613	-0.6288	0.7973	-0.295	0.7701
-0.0736	0.3026	9.8805	0.2702	0.592	0.2862	-0.0222	0.2902	-1.0613	0.188	0.0801	9.357	-0.4377	0.7053	-0.1553	0.5524	-0.2642	-0.7565	-10.1945	1.4165	-0.2952	-1.1814	1.4039	-0.2607	0.7811	-0.296	0.7342
-0.2557	-0.1042	9.7656	0.2094	0.6525	0.2883	-0.0201	0.2141	-1.0804	0.1384	0.1395	9.7662	-0.5318	0.7341	-0.2778	0.5464	-0.2702	-0.7625	-9.3446	1.7566	-0.3366	-0.9943	1.2509	-0.2061	0.7975	-0.2762	0.7529
-0.7403	-0.1598	9.5827	0.0809	0.3149	0.3441	-0.0191	0.2147	-1.0636	0.0251	0.6579	9.8835	-0.5322	0.7971	-0.1553	0.5524	-0.2762	-0.7565	-9.4519	1.757	0.0048	-1.1128	1.1569	-0.0189	0.7809	-0.3148	0.7514
-0.4996	-0.1601	9.5869	-0.2961	0.0062	0.2191	-0.0026	0.2517	-1.0614	0.305	0.6558	9.5375	-0.7799	0.8567	-0.1234	0.5524	-0.2762	-0.7385	-9.6799	1.7004	-0.0567	-0.7338	1.1535	0.2155	0.7806	-0.334	0.7507
-0.0774	-0.0446	9.6513	-0.2667	-0.1159	0.2776	-0.0191	0.2147	-1.0636	0.3193	0.6592	10.2991	-0.7538	1.0416	-0.2169	0.5404	-0.2522	-0.7565	-9.2923	1.9839	-0.5643	-0.5538	1.1258	0.0256	0.7966	-0.3149	0.7339
-0.0774	-0.0446	9.6513	-0.2976	-0.0239	0.1262	-0.0737	0.1781	-1.1014	0.4254	0.4844	9.8319	-0.7872	1.2285	-0.0334	0.5524	-0.2702	-0.7505	-9.4006	1.9842	-0.2802	-0.7941	1.0613	0.2781	0.797	-0.3142	0.7694
-0.4352	-0.1047	9.8208	-0.5505	-0.3316	0.0612	-0.0397	0.2527	-1.0802	0.2493	0.3686	9.5937	-0.816	1.1673	0.0593	0.5524	-0.2762	-0.7445	-9.9741	1.7003	-0.6342	-1.1967	1.0308	0.2899	0.7966	-0.3149	0.7339
-0.2501	-0.3414	10.0605	-0.5236	-0.6065	0.1164	-0.0578	0.2535	-1.0813	0.4197	0.5981	9.5395	-0.6665	1.3534	-0.0349	0.5464	-0.2702	-0.7625	-9.909	1.7006	-0.1753	-1.0415	1.1525	0.2862	0.8131	-0.3135	0.7875
-0.378	-0.2193	9.6482	-0.4365	-0.8801	0.0171	-0.0327	0.1601	-1.0329	0.0218	0.6571	9.7078	-0.7554	1.23	0.0893	0.5644	-0.2702	-0.7445	-9.1749	1.3583	-0.391	-0.9815	1.123	0.2227	0.828	-0.3706	0.786
-0.0791	0.423	9.587	-0.6828	-0.9137	0.1425	-0.0389	0.2338	-1.0808	-0.2029	0.601	9.9374	-1.1338	1.5648	-0.0641	0.5524	-0.2822	-0.7625	-9.402	2.2685	-0.3372	-1.1456	1.1578	-0.0794	0.7813	-0.3326	0.8218
-0.3753	0.1286	9.819	-0.6802	-0.6995	0.0549	-0.04	0.2332	-1.0976	0.1413	0.3704	9.943	-1.1003	1.4733	0.0284	0.5404	-0.2762	-0.7505	-9.5655	1.814	0.0027	-1.1219	1.2526	-0.3252	0.8444	-0.3323	0.7698
-0.0759	-0.3372	9.7133	-0.615	-0.6695	0.3315	-0.0369	0.235	-1.0473	0.4861	0.3701	10.0082	-1.0699	1.473	-0.0332	0.5584	-0.2582	-0.7625	-9.6885	1.9275	-0.5144	-1.0938	1.2235	-0.4184	0.8293	-0.2755	0.7535
-0.4335	0.1856	9.934	-0.4593	-0.5762	0.3008	-0.0578	0.2535	-1.0813	0.2606	0.8316	10.2402	-0.6667	1.3531	-0.0656	0.5464	-0.2642	-0.7505	-9.4013	1.6998	-0.3376	-1.1892	1.3161	-0.507	0.797	-0.3142	0.7694
-0.1962	-0.3954	9.7119	-0.425	-0.3927	0.3351	-0.0238	0.2507	-1.1128	0.588	0.7121	9.3676	-0.663	1.1674	-0.0952	0.5464	-0.2642	-0.7505	-9.401	1.4724	-0.3378	-1.2158	1.5273	-0.3816	0.7977	-0.2758	0.7707
-0.2549	0.0701	9.8218	-0.3912	-0.1783	0.2778	-0.0018	0.2328	-1.062	-0.0331	0.5427	9.8233	-0.872	0.8563	-0.0614	0.5584	-0.2642	-0.7625	-9.6911	1.5293	-0.6864	-1.0298	1.5883	-0.3867	0.8131	-0.3135	0.7875
-0.1937	0.1277	9.8805	-0.237	-0.2074	0.306	-0.0379	0.2344	-1.0641	0.0226	0.197	9.7057	-0.7502	0.9509	-0.0013	0.5464	-0.2762	-0.7505	-9.685	1.5864	-0.3429	-0.8782	1.4983	-0.4841	0.7324	-0.373	0.7663
-0.2577	0.5385	9.6992	-0.3266	-0.025	0.3111	-0.0578	0.2535	-1.0813	-0.2075	0.0821	9.6422	-0.5938	0.8918	0.1211	0.5584	-0.2582	-0.7505	-9.3969	1.4725	-0.1089	-0.9128	1.5305	-0.6057	0.7811	-0.3145	0.7691
-0.319	-0.1603	9.5901	-0.1427	-0.0533	0.2159	-0.0238	0.2507	-1.1128	0.1368	0.4269	9.7089	-0.6231	0.7664	-0.0316	0.5464	-0.2702	-0.7625	-9.6279	1.302	-0.3421	-0.7306	1.2884	-0.7053	0.7965	-0.3337	0.7511
0.167	-0.339	9.8344	-0.2028	0.0684	0.1886	-0.0219	0.2324	-1.0966	0.0808	0.3122	9.7659	-0.3791	0.8608	-0.1258	0.5584	-0.2642	-0.7565	-9.6181	1.8712	0.2306	-0.3062	1.11	-0.996	0.8133	-0.3131	0.8053
-0.1348	0.2451	9.8217	-0.1038	0.3128	0.4079	-0.0191	0.2147	-1.0636	0.0876	0.1987	10.1169	-0.563	0.8285	-0.0631	0.5644	-0.2642	-0.7565	-9.3954	1.9844	0.006	-0.0548	1.1083	-0.8806	0.798	-0.2566	0.7713
-0.6128	0.01	9.9914	-0.0755	0.2527	0.2525	-0.0188	0.2342	-1.0463	0.0829	0.3702	9.8833	-0.3452	0.738	-0.0638	0.5584	-0.2702	-0.7625	-9.5089	1.9277	0.0038	0.0761	0.9527	-0.6399	0.7977	-0.2943	0.8056
-0.0774	-0.0446	9.6513	-0.2308	0.2207	0.223	0.0144	0.2503	-1.0771	-0.0929	0.7148	9.7058	-0.1567	0.5856	-0.0333	0.5343	-0.2762	-0.7565	-9.5704	2.4394	-0.2257	0.5992	0.8325	-0.7487	0.797	-0.3142	0.7694
-0.0186	-0.5102	9.5414	-0.3207	0.4032	0.1973	0.0368	0.1941	-1.0443	0.4784	0.3682	9.5981	-0.1853	0.461	-0.0938	0.5404	-0.2582	-0.7505	-9.74	1.8709	-0.2293	0.5426	1.0433	-0.5917	0.781	-0.3518	0.8212
-0.4966	0.0128	9.7599	-0.0768	0.3147	0.0385	-0.0371	0.2155	-1.0646	0.1347	0.3688	9.5915	-0.0664	0.679	-0.0651	0.5584	-0.2642	-0.7505	-9.6901	1.5294	-0.6291	0.6052	0.9516	-0.5636	0.765	-0.3152	0.751
-0.3151	0.0702	9.8208	-0.3236	0.3121	0.0723	-0.0345	0.1783	-1.0491	0.4282	0.7727	10.0089	-0.0573	0.2777	-0.0013	0.5343	-0.2642	-0.7445	-9.631	1.3588	-0.5138	0.6107	0.9185	-0.3797	0.7818	-0.2762	0.7704
-0.136	-0.3955	9.713	-0.228	0.4656	0.1052	-0.0967	0.2727	-1.1163	0.4306	-0.0322	10.0639	0.0671	0.2168	-0.0324	0.5584	-0.2762	-0.7565	-9.685	1.5864	-0.3429	0.5807	0.918	-0.348	0.7975	-0.2946	0.7878
-0.074	-0.1636	9.8279	-0.0402	0.5587	0.1971	-0.0204	0.1946	-1.0977	0.5409	0.5995	9.8932	0.1285	0.249	0.0285	0.5584	-0.2522	-0.7505	-9.8449	1.644	0.2263	0.2617	0.9223	-0.6457	0.8299	-0.2744	0.8069
-0.314	0.0695	9.8792	0.0824	0.5604	0.1034	0.0178	0.1943	-1.0621	0.541	0.4845	9.8926	0.0021	0.3708	-0.0329	0.5584	-0.2642	-0.7445	-9.6312	1.4725	-0.5137	0.1843	1.0674	-0.1506	0.7809	-0.3333	0.7863
-0.0792	0.5397	9.5855	0.0832	0.5908	0.1348	-0.0544	0.1974	-1.0663	0.3627	0.4257	9.5376	0.0349	0.3101	0.0594	0.5524	-0.2762	-0.7445	-10.0798	2.1558	-0.1781	-0.1281	1.0382	-0.2337	0.7974	-0.3135	0.805
-0.2598	0.54	9.5824	-0.0789	0.2233	-0.0249	0.0154	0.2509	-1.0604	0.1392	0.3123	9.8256	-0.2199	0.6783	0.028	0.5584	-0.2522	-0.7385	-9.7957	1.9279	-0.1731	-0.1756	1.1533	0.2296	0.7819	-0.2573	0.7532
-0.3719	-0.107	9.9971	-0.2103	-0.1438	-0.185	-0.0196	0.2531	-1.0457	0.3803	0.4298	10.4749	-0.5018	0.8286	-0.1249	0.5404	-0.2762	-0.7565	-9.4595	1.188	-0.4535	-0.136	1.2102	0.5054	0.8124	-0.3333	0.7514
0.045	0.0705	9.7687	-0.2155	-0.357	-0.3433	-0.0037	0.2511	-1.0782	0.2511	0.5992	9.7119	-0.6881	0.8885	-0.1242	0.5163	-0.2642	-0.7625	-9.798	2.0416	-0.2874	0.047	1.2421	0.408	0.797	-0.3326	0.8044
-0.3182	0.014	9.6463	-0.4647	-0.6047	-0.1611	-0.0008	0.2334	-1.0452	0.2537	0.3697	9.828	-0.7821	1.0127	0.0293	0.5343	-0.2642	-0.7325	-9.6309	1.245	-0.5139	0.3319	1.1478	0.6138	0.7965	-0.3522	0.786
-0.3212	-0.1005	9.4726	-0.402	-0.7275	0.1123	-0.0371	0.2155	-1.0646	0.256	0.3127	9.945	-0.9121	1.257	-0.1558	0.5404	-0.2642	-0.7565	-9.6838	1.4728	-0.2858	0.2687	1.3313	0.5557	0.7809	-0.3333	0.7863
-0.0757	-0.4539	9.7148	-0.4003	-0.5437	-0.0068	-0.0026	0.2517	-1.0614	0.2051	0.4293	10.2958	-1.1944	1.5021	-0.0941	0.5524	-0.2822	-0.7445	-9.8054	1.3019	-0.7459	-0.1454	1.2146	0.1984	0.7811	-0.3145	0.7691
-0.6132	0.3019	9.9877	-0.3349	-0.3292	-0.0029	-0	0.2145	-1.0458	0.0823	0.0824	9.8235	-0.9187	1.5979	-0.0656	0.5464	-0.2702	-0.7745	-9.6852	1.7571	-0.3428	-0.2428	1.2777	0.0482	0.8288	-0.3135	0.7701
-0.0858	-0.0388	9.1841	-0.4905	-0.5148	0.1795	-0.0201	0.2141	-1.0804	0.489	0.6584	10.1852	-1.2622	1.843	0.0579	0.5524	-0.2642	-0.7565	-9.6242	1.7003	-0.1129	-0.1297	1.1304	-0.2944	0.7806	-0.334	0.7507
-0.0793	-0.1599	9.5359	-0.4854	-0.2094	0.1861	-0.0011	0.2139	-1.0626	0.3033	0.3678	9.4191	-1.2623	1.7158	-0.3101	0.5404	-0.2762	-0.7565	-9.401	1.4155	-0.3379	-0.4421	1.1316	-0.3772	0.8134	-0.2943	0.7882
-0.0752	-0.0461	9.7681	-0.5499	-0.3934	0.2136	0.0185	0.2527	-1.0101	0.2459	0.4254	9.4182	-1.1021	1.5663	0.0586	0.5464	-0.2762	-0.7685	-9.6758	1.7574	0.1723	-0.5158	0.9846	-0.7449	0.8131	-0.3319	0.8225
-0.1333	-0.0475	9.8838	-0.5754	-0.1499	0.3423	-0.0186	0.1764	-1.0816	0.1921	0.3112	9.5924	-0.7874	1.26	0.0278	0.5524	-0.2582	-0.7385	-9.9161	2.4396	-0.5181	-0.8604	0.8645	-0.8585	0.7643	-0.3535	0.7498
-0.378	-0.2777	9.6489	-0.7927	-0.2747	0.4346	-0.0552	0.2163	-1.0657	0.5962	0.4263	9.7763	-0.568	1.1397	0.1502	0.5524	-0.2642	-0.7685	-9.3478	1.8134	-0.5082	-0.7151	0.8385	-1.1703	0.7972	-0.3138	0.7872
-0.0199	-0.3343	9.4808	-0.6996	-0.0893	0.1914	-0.0181	0.2153	-1.0468	0.1387	0.5999	9.8269	-0.4727	0.9537	-0.0029	0.5464	-0.2702	-0.7625	-9.222	1.9844	0.1808	-0.7805	0.9316	-1.2905	0.8299	-0.2744	0.8069
-0.3167	-0.2785	9.7084	-0.6068	-0.1192	0.2511	-0.0408	0.2521	-1.097	0.4813	0.6566	9.7752	-0.5022	0.9552	0.1816	0.5404	-0.2822	-0.7385	-9.4617	1.2448	-0.568	-0.9988	1.0237	-1.3447	0.8133	-0.3131	0.8053
-0.1349	-0.3962	9.7714	-0.6352	-0.0898	0.4366	-0.0541	0.2169	-1.0489	0.14	0.4851	9.8849	-0.6985	1.3516	-0.1883	0.5464	-0.2762	-0.7445	-9.8018	1.7571	-0.5166	-0.9756	1.2406	-1.6202	0.7813	-0.3141	0.7869
-0.0747	0.3617	9.8213	-0.2346	-0.0238	0.2485	-0.0018	0.2328	-1.062	0.2559	0.3702	9.9452	-0.5987	1.0443	-0.0949	0.5524	-0.2762	-0.7445	-9.3985	1.9843	-0.1657	-1.1863	1.3597	-1.4286	0.797	-0.3142	0.7694
-0.1305	0.2421	10.0553	-0.1727	0.0383	0.1568	-0.0193	0.1952	-1.081	0.3131	0.4276	9.9466	-0.4742	1.0471	0.058	0.5584	-0.2762	-0.7505	-9.4613	1.7566	-0.5103	-1.3092	1.6639	-1.4225	0.8293	-0.294	0.7885
-0.374	-0.1055	9.8803	0.1127	0.4071	0.2842	-0.0557	0.2547	-1.0477	0.0844	0.7733	10.0023	-0.4423	1.017	0.1195	0.5524	-0.2642	-0.7565	-9.7966	1.7573	-0.2304	-1.2748	1.5709	-1.3013	0.8288	-0.3135	0.7701
-0.0782	-0.219	9.5951	-0.0101	0.5286	0.1654	-0.0716	0.1793	-1.0679	0.2046	0.084	10.2357	-0.1276	0.679	-0.0033	0.5464	-0.2582	-0.7385	-10.0317	1.5866	-0.6926	-1.4256	1.3252	-1.1451	0.7813	-0.3326	0.8218
-0.1335	0.0692	9.8823	0.1129	0.4993	0.1632	-0.0536	0.2559	-1.0142	0.4852	0.2548	9.9491	-0.1844	0.4622	0.0291	0.5524	-0.2822	-0.7505	-9.6833	1.9277	-0.2282	-1.3525	1.32	-0.7786	0.7818	-0.2762	0.7704
-0.2614	0.1912	9.47	0.0232	0.7125	0.1074	-0.0609	0.2517	-1.1316	0.8848	0.4839	9.8993	-0.2454	0.4625	0.1216	0.5584	-0.2642	-0.7445	-9.3405	1.7568	-0.1076	-1.004	1.164	-0.5138	0.797	-0.2957	0.7345
0.0995	0.3659	9.4741	-0.0708	0.4968	0.3192	-0.0047	0.2505	-1.0949	0.4262	-0.0332	9.8295	-0.2421	0.2761	0.0305	0.5464	-0.2762	-0.7565	-9.5695	1.7001	-0.2263	-1.0273	0.8861	-0.2387	0.7815	-0.3138	0.8047
-0.4324	0.1849	9.9924	-0.1645	0.5886	0.0763	-0.0217	0.2519	-1.0792	0.3764	0.0837	10.239	-0.1483	0.2152	0.0303	0.5464	-0.2822	-0.7565	-9.5669	1.2453	-0.1122	-0.9317	0.8544	-0.1497	0.8285	-0.3511	0.8044
-0.1976	-0.1028	9.6499	-0.4487	0.1577	0.1628	-0.0552	0.2163	-1.0657	0.4247	0.1966	9.772	-0.367	0.3364	0.0002	0.5644	-0.2762	-0.7625	-9.6811	1.8141	-0.1138	-0.5959	0.8567	-0.3133	0.8138	-0.2751	0.7888
-0.1981	0.2473	9.6455	-0.3933	-0.1467	0.0325	-0.0199	0.2336	-1.063	0.0214	0.2542	9.6474	-0.2791	0.5219	-0.0937	0.5404	-0.2762	-0.7445	-9.5102	1.3589	-0.1111	-0.4138	1.1937	-0.4697	0.8131	-0.3135	0.7875
0.1118	-0.1675	10.1231	-0.3919	-0.178	0.2163	-0.0387	0.2533	-1.0635	0.429	0.2551	10.0066	-0.3161	0.8313	-0.0338	0.5524	-0.2822	-0.7445	-9.5708	1.9276	-0.2834	-0.4402	1.1611	-0.3156	0.7653	-0.296	0.7516
-0.1396	-0.1015	9.5341	-0.4256	-0.3309	0.1827	-0.0029	0.2322	-1.0788	0.2052	0.3718	10.2956	-0.5051	0.9831	-0.1258	0.5584	-0.2702	-0.7565	-9.5645	1.871	0.06	-0.284	1.3129	-0.2883	0.7975	-0.2946	0.7878
0.1683	0.2432	9.9438	-0.3664	-0.4215	0.0877	-0.0374	0.196	-1.082	0.3103	0.0817	9.7693	-0.4201	1.3556	-0.0671	0.5464	-0.2642	-0.7505	-9.8014	2.2689	-0.459	-0.4083	1.4655	-0.3141	0.7969	-0.333	0.7866
-0.4361	-0.2207	9.7639	-0.3661	-0.4217	0.1185	-0.0423	0.2898	-1.0958	0.539	0.3689	9.775	-0.8489	1.1961	-0.1251	0.5464	-0.2702	-0.7505	-9.5121	2.0413	-0.1678	-0.5582	1.2193	-0.1272	0.7962	-0.3529	0.7504
-0.2569	-0.0451	9.7065	-0.4261	-0.3	0.0911	-0.0209	0.233	-1.0798	0.3165	0.3709	10.1221	-0.6656	1.3546	0.088	0.5524	-0.2582	-0.7445	-9.5134	1.4157	-0.2827	-0.7401	1.2479	0.0014	0.7962	-0.3529	0.7504
-0.439	0.3644	9.6398	-0.3984	-0.4521	0.0259	-0.0047	0.2505	-1.0949	0.3147	0.0828	10.0036	-0.818	1.2282	-0.0332	0.5464	-0.2642	-0.7745	-9.5106	1.6433	-0.1108	-0.8002	1.2166	0.0644	0.8127	-0.3142	0.752
-0.26	-0.0429	9.5313	-0.4612	-0.5139	0.0254	-0.0389	0.2338	-1.0808	0.1986	0.3703	9.9441	-0.7885	1.3221	0.0582	0.5584	-0.2762	-0.7445	-9.4625	1.9272	-0.5674	-0.8733	1.2522	-0.3019	0.7811	-0.3145	0.7691
-0.0746	0.245	9.8228	-0.457	-0.3618	0.1824	-0.0382	0.2149	-1.0814	0.5398	0.5992	9.8346	-0.7858	1.1985	0.0589	0.5404	-0.2642	-0.7445	-9.4602	1.7567	-0.4531	-0.7825	1.1923	-0.3665	0.8285	-0.3511	0.8044
-0.0712	0.0677	10.0002	-0.612	-0.4554	0.2746	-0.0395	0.2722	-1.0629	0.3132	0.3701	9.9463	-0.9436	1.2876	-0.1558	0.5404	-0.2582	-0.7445	-9.3431	1.3586	-0.2796	-0.6327	1.1032	-0.5254	0.8139	-0.2563	0.7716
-0.0773	-0.103	9.652	-0.5438	-0.0883	0.3125	-0.0021	0.2133	-1.0794	0.3079	0.8867	9.7143	-0.9154	1.3798	-0.2487	0.5404	-0.2522	-0.7565	-9.8535	1.928	-0.2313	-0.8003	1.2006	-0.9498	0.8288	-0.3135	0.7701
-0.3167	-0.2785	9.7084	-0.3627	-0.2385	0.1532	-0.057	0.2346	-1.0819	-0.433	0.4861	9.8739	-0.883	1.4139	0.0582	0.5464	-0.2762	-0.7505	-9.914	1.5298	-0.4616	-0.9199	1.351	-0.8221	0.8286	-0.3138	0.7523
-0.4353	-0.0464	9.8201	-0.2393	-0.268	0.1817	-0.0549	0.2358	-1.0483	0.1937	0.6568	9.7111	-1.3188	1.5947	0.029	0.5404	-0.2822	-0.7565	-10.0824	1.7575	-0.3501	-0.7984	1.5045	-0.9167	0.7972	-0.2953	0.7523
0.1589	0.1331	9.4197	-0.2347	0.007	0.1876	-0.0204	0.272	-1.0451	0.0216	0.1392	9.6469	-0.848	1.1973	-0.0022	0.5343	-0.2702	-0.7445	-10.0749	1.5304	0.0503	-0.9173	1.2888	-0.7305	0.7649	-0.334	0.7682
-0.1349	-0.3962	9.7714	-0.2033	0.0378	0.1879	-0.0384	0.1954	-1.0988	0.5987	0.2543	9.8927	-0.472	0.9546	0.0893	0.5464	-0.2702	-0.7505	-9.2345	1.927	-0.506	-0.8853	1.3188	-0.7004	0.8133	-0.3131	0.8053
-0.3138	-0.1056	9.8814	-0.2305	0.2206	0.2537	-0.0727	0.256	-1.032	0.2508	0.0813	9.651	-0.3438	0.708	0.0285	0.5584	-0.2762	-0.7625	-9.3953	1.8707	0.0059	-0.5805	1.2907	-0.8634	0.8124	-0.3333	0.7514
-0.0721	-0.0483	9.9433	-0.1993	0.3131	0.1323	-0.0353	0.1972	-1.0485	0.1432	-0.147	9.9993	-0.2512	0.6774	-0.0333	0.5524	-0.2582	-0.7445	-10.0813	1.7007	-0.2929	-0.3887	1.1355	-0.6553	0.7969	-0.3514	0.8215
-0.2512	-0.3406	10.0022	-0.232	0.1289	0.2517	-0.0183	0.1958	-1.0642	0.4265	0.4847	9.8904	-0.2172	0.5864	0.1207	0.5404	-0.2822	-0.7385	-9.3985	1.9274	-0.1658	-0.1356	1.0417	-0.4793	0.7813	-0.3141	0.7869
-0.3209	0.4824	9.5236	-0.3563	0.2202	0.04	-0.0034	0.2706	-1.0608	0.5479	0.3135	10.2434	-0.2762	0.4304	0.0298	0.5464	-0.2642	-0.7505	-9.4068	1.9271	-0.6236	-0.2962	0.9834	-0.6593	0.8128	-0.3326	0.7869
-0.622	-0.2168	9.4687	-0.4797	0.1882	0.1024	-0.0196	0.2531	-1.0457	0.599	0.0818	9.8919	-0.3097	0.5537	0.0293	0.5524	-0.2822	-0.7505	-9.5762	2.098	-0.5694	-0.0075	0.9178	-0.3304	0.7808	-0.3337	0.7685
-0.315	0.0118	9.8215	-0.2976	-0.0239	0.1262	-0.0021	0.2133	-1.0794	0.1938	0.5993	9.7108	-0.2807	0.6153	-0.0327	0.5524	-0.2822	-0.7565	-9.3444	1.5292	-0.3367	-0.1367	1.0117	-0.5102	0.8292	-0.2943	0.7707
-0.0118	-0.1068	9.9451	-0.395	-0.269	0.0606	-0.0214	0.2714	-1.0618	0.3635	0.5985	9.597	-0.3164	0.8311	-0.0645	0.5584	-0.2762	-0.7625	-9.6333	1.5293	-0.6281	-0.0787	0.9526	-0.6353	0.7975	-0.2946	0.7878
-0.3253	0.6021	9.2886	-0.5227	-0.5146	0.0569	-0.0369	0.235	-1.0473	0.3159	0.0255	10.0619	-0.4793	1.2629	-0.0047	0.5343	-0.2642	-0.7385	-9.7965	1.7004	-0.2305	-0.1314	1.1921	-0.3553	0.814	-0.2748	0.8065
-0.0119	-0.0484	9.9443	-0.3994	-0.4517	-0.0663	-0.0209	0.233	-1.0798	0.3646	0.5987	9.6555	-0.6646	1.1971	-0.2183	0.5404	-0.2642	-0.7505	-9.3997	2.0411	-0.2229	-0.0994	1.5269	-0.3536	0.7802	-0.3347	0.7152
-0.5554	-0.2213	9.8202	-0.4607	-0.4218	-0.0649	-0.0204	0.1946	-1.0977	0.2583	0.2557	10.0619	-0.7575	1.2592	-0.0952	0.5464	-0.2642	-0.7505	-9.7985	1.5866	-0.345	-0.2158	1.5233	-0.1043	0.8447	-0.2947	0.7355
-0.4376	0.0718	9.7018	-0.368	-0.4824	0.0249	-0.0021	0.2133	-1.0794	0.3718	0.1977	10.0052	-0.8149	1.0733	-0.0631	0.5644	-0.2702	-0.7505	-9.4625	1.8703	-0.5675	-0.183	1.492	-0.044	0.8134	-0.2758	0.7532
-0.4348	-0.3965	9.8245	-0.2088	-0.329	0.2415	-0.0781	0.2336	-1.1332	0.3684	0.2544	9.8297	-0.6598	1.1079	0.1509	0.5704	-0.2642	-0.7565	-9.4611	1.586	-0.5105	-0.0354	1.3126	-0.265	0.7969	-0.333	0.7866
-0.2578	-0.1611	9.6496	-0.2048	0.0077	0.095	-0.0405	0.2716	-1.0796	0.147	0.2566	10.2354	-0.7172	0.7952	-0.1542	0.5343	-0.2822	-0.7565	-9.6881	1.6432	-0.5146	0.0919	1.2195	-0.1466	0.8288	-0.3135	0.7701
-0.3157	-0.2209	9.766	-0.0197	0.0712	-0.029	-0.0397	0.2527	-1.0802	0.0258	0.2553	9.8817	-0.221	0.6768	-0.1256	0.5644	-0.2642	-0.7505	-9.4499	1.8709	0.1193	0.3329	1.1618	-0.3694	0.8289	-0.332	0.805
-0.1357	0.1874	9.7641	-0.139	0.1912	0.1904	0.0172	0.2326	-1.0442	0.5995	0.4271	9.9521	-0.5255	0.5197	-0.0615	0.5644	-0.2882	-0.7445	-9.4562	1.8706	-0.2241	0.2948	0.9823	-0.5848	0.8128	-0.3511	0.8219
-0.3118	0.0096	9.9967	-0.2919	0.2813	0.1943	-0.0199	0.2336	-1.063	0.5979	0.0815	9.8334	-0.3077	0.461	0.0298	0.5404	-0.2762	-0.7445	-9.5137	1.6431	-0.2825	0.1394	1.1044	-0.6099	0.8136	-0.2939	0.8059
-0.2543	-0.3968	9.8277	-0.5703	0.3709	0.0152	-0.0353	0.1972	-1.0485	0.3706	0.255	9.9469	-0.3412	0.5525	-0.0627	0.5644	-0.2882	-0.7505	-9.9666	1.5869	-0.2337	0.0125	1.0144	-0.699	0.8131	-0.3319	0.8225
0.1619	0.3059	9.5927	-0.4807	0.1271	0.1011	-0.0018	0.2328	-1.062	0.2597	0.0834	10.1197	-0.4373	0.7058	-0.0938	0.5584	-0.2582	-0.7385	-9.681	1.7572	-0.1139	-0.1446	1.1678	-0.7853	0.7973	-0.295	0.7701
-0.1894	0.0664	10.1149	-0.577	-0.0877	0.0976	-0.0196	0.1758	-1.0983	0.3614	0.5405	9.4795	-0.3844	1.1399	-0.0353	0.5584	-0.2702	-0.7505	-9.5176	1.4155	-0.5116	-0.2391	1.2599	-0.8432	0.8295	-0.2936	0.8063
-0.0776	0.1304	9.6491	-0.5164	-0.1173	0.0347	-0.0235	0.2702	-1.0954	0.3101	0.1968	9.7698	-0.8171	1.1976	-0.0023	0.5584	-0.2702	-0.7565	-9.7967	1.871	-0.2303	-0.4219	1.3194	-0.745	0.7809	-0.3148	0.7514
-0.0848	0.0188	9.2417	-0.334	-0.3296	0.0893	-0.0204	0.1946	-1.0977	0.7694	0.3113	9.8377	-0.8552	1.6009	0.1799	0.5524	-0.2642	-0.7325	-9.7935	1.7574	-0.0587	-0.2941	1.3786	-0.6255	0.8457	-0.2556	0.7723
-0.4342	-0.0471	9.8785	-0.2107	-0.2667	-0.0339	-0.0418	0.2515	-1.1138	0.0254	0.4853	9.8827	-0.6718	1.5371	-0.2203	0.5404	-0.2702	-0.7385	-9.5175	2.1548	-0.4538	-0.3577	1.4403	-0.6845	0.8129	-0.3323	0.8047
0.3444	0.3626	9.7119	-0.2998	-0.0538	-0.0282	-0.0168	0.2354	-1.0127	0.7196	0.4282	10.2472	-0.7577	1.2907	-0.034	0.5644	-0.2642	-0.7505	-9.7441	1.8708	-0.4582	-0.1427	1.1974	-0.7236	0.7973	-0.295	0.7701
-0.0682	0.2406	10.1732	-0.205	-0.0845	0.216	-0.0212	0.2908	-1.0445	0.8308	0.4848	10.0739	-0.787	1.197	-0.0947	0.5584	-0.2702	-0.7625	-9.1781	2.2112	-0.5048	-0.1734	0.9534	-0.6939	0.7816	-0.295	0.7875
0.1061	0.1864	9.8267	-0.2374	-0.1764	0.2144	-0.0021	0.2133	-1.0794	0.1937	0.6568	9.7111	-0.5989	1.1076	0.0584	0.5584	-0.2702	-0.7385	-9.346	1.1879	-0.4515	-0.0235	0.8948	-0.8525	0.8121	-0.371	0.7857
0.103	0.0718	9.653	-0.3645	-0.33	0.1204	-0.056	0.2352	-1.0651	0.3075	0.4838	9.6539	-0.6581	0.9513	-0.0633	0.5404	-0.2642	-0.7505	-9.6219	1.5866	0.0015	-0.1288	0.8396	-1.2493	0.7808	-0.3521	0.8034
0.0442	-0.1623	9.7132	-0.5768	-0.1185	0.1584	-0.0008	0.2334	-1.0452	0.3186	0.4289	10.2395	-0.6894	0.9503	-0.1245	0.5584	-0.2762	-0.7505	-9.852	1.5299	-0.1744	-0.3696	0.9278	-1.0263	0.7965	-0.3337	0.7511
-0.7357	-0.3961	9.8192	-0.8246	-0.1822	0.1909	0.0113	0.2485	-1.1275	0.4246	0.2541	9.7723	-0.5108	1.2935	-0.0047	0.5404	-0.2822	-0.7625	-9.9702	1.0749	-0.463	-0.282	0.7474	-1.184	0.8136	-0.2939	0.8059
-0.4296	-0.3418	10.1158	-0.6395	-0.2726	0.3097	-0.0201	0.2141	-1.0804	0.2562	0.1976	9.9444	-0.8515	1.3515	-0.0338	0.5343	-0.2642	-0.7385	-9.6896	1.1313	-0.6295	-0.4401	0.9013	-1.3009	0.7804	-0.3528	0.7679
0.103	0.0718	9.653	-0.5769	-0.18	0.2494	-0.0207	0.2525	-1.0624	0.2552	0.1399	9.8856	-1.2494	1.2559	0.092	0.5584	-0.2762	-0.7505	-9.9079	1.7006	-0.1181	-0.7111	0.9281	-1.0468	0.8129	-0.3138	0.7698
-0.3149	-0.0465	9.8222	-0.453	-0.1174	0.1877	-0.0931	0.2362	-1.0839	0.143	0.6584	10.0615	-1.0602	1.0726	0.1228	0.5464	-0.2522	-0.7565	-9.6335	1.643	-0.628	-1.0172	1.1397	-0.9438	0.8131	-0.3135	0.7875
0.0489	0.301	9.9994	-0.2928	0.1279	0.3447	-0.0063	0.2883	-1.0938	0.2542	0.715	9.8882	-0.966	0.9487	0	0.5524	-0.2702	-0.7625	-9.5753	2.1549	-0.5121	-1.0685	1.2261	-0.6035	0.7965	-0.3337	0.7511
0.1097	-0.166	10.0063	-0.0819	-0.0523	0.1229	-0.0379	0.2344	-1.0641	0.4894	0.4283	10.1842	-0.8411	0.8884	0.0304	0.5404	-0.2702	-0.7625	-9.9102	1.8712	-0.2324	-0.8268	1.4119	-0.8244	0.7649	-0.3525	0.8031
-0.4969	0.1879	9.7577	0.0481	0.3769	0.0691	-0.0379	0.2344	-1.0641	0.1436	0.3134	10.0599	-0.8112	0.8558	-0.1847	0.5584	-0.2762	-0.7325	-9.4546	2.2688	-0.1093	-0.6645	1.4084	-0.5834	0.8129	-0.2953	0.7348
-0.3187	0.4226	9.6412	-0.0448	0.2838	0.1912	-0.0191	0.2147	-1.0636	0.2508	0.0813	9.651	-0.8757	1.0103	-0.1238	0.5464	-0.2582	-0.7565	-9.7442	1.9276	-0.4582	-0.4829	1.2885	-0.7127	0.7979	-0.2755	0.7885
-0.802	0.1912	9.5188	-0.1669	0.405	0.1339	-0.0541	0.2169	-1.0489	0.2569	0.428	10.004	-0.6593	0.9816	-0.1249	0.5524	-0.2702	-0.7445	-9.2845	1.5292	-0.164	-0.3916	1.1064	-0.7476	0.8131	-0.295	0.7526
-0.0687	-0.1672	10.1199	-0.482	0.1276	-0.0219	-0.0188	0.2342	-1.0463	0.361	0.7705	9.4806	-0.8182	1.2597	0.028	0.5464	-0.2702	-0.7745	-9.4608	1.3586	-0.5106	-0.261	1.1643	-0.536	0.7809	-0.3333	0.7863
-0.8598	-0.0436	9.6375	-0.4306	-0.4519	-0.0967	-0.056	0.2352	-1.0651	0.0307	0.6016	10.1762	-0.8825	1.3827	0.0277	0.5524	-0.2642	-0.7505	-9.682	1.7003	-0.1712	-0.5697	1.1333	-0.4963	0.7654	-0.3145	0.7866
-0.0725	0.2435	9.9396	-0.5265	-0.6668	-0.0694	-0.0031	0.2127	-1.0961	-0.0308	0.4857	9.9402	-1.1272	1.2875	0.0297	0.5464	-0.2582	-0.7445	-9.9174	1.7571	-0.6331	-0.7184	1.2827	-0.3063	0.8293	-0.294	0.7885
-0.1977	-0.0445	9.6491	-0.557	-0.6058	-0.1292	-0.0923	0.2173	-1.0845	0.3089	0.3115	9.7117	-0.9123	1.2885	-0.0945	0.5404	-0.2702	-0.7565	-9.4542	1.9276	-0.1096	-0.586	1.3093	-0.0335	0.8133	-0.3131	0.8053
-0.313	0.0687	9.9376	-0.5206	-0.3309	-0.0314	-0.0567	0.2541	-1.0645	0.6034	0.0828	10.1263	-0.976	1.3488	-0.1867	0.5644	-0.2642	-0.7565	-9.6823	1.9847	-0.1709	-0.4351	1.2807	-0.1611	0.7808	-0.3337	0.7685
-0.3222	-0.1581	9.4149	-0.6416	-0.2409	0.0643	-0.0219	0.2324	-1.0966	0.2533	0.5997	9.8291	-0.9094	1.1651	-0.0631	0.5464	-0.2582	-0.7445	-9.8017	1.7002	-0.5166	-0.16	1.0386	-0.2635	0.7816	-0.295	0.7875
-0.0745	0.1866	9.8235	-0.4839	-0.0254	0.0363	-0.0225	0.2708	-1.0786	0.0814	0.6	9.8258	-1.0358	1.3505	0.0595	0.5524	-0.2582	-0.7565	-9.5703	1.4726	-0.2837	-0.0399	0.7661	-0.3614	0.8297	-0.2748	0.7891
-0.0795	-0.0432	9.5345	-0.6074	-0.119	0.1896	-0.0219	0.2324	-1.0966	0.1399	0.5427	9.8852	-0.8469	1.1351	-0.0325	0.5644	-0.2702	-0.7385	-9.6905	1.8706	-0.6289	-0.0688	0.8261	-0.2986	0.8135	-0.3128	0.8231
0.0421	0.5972	9.6453	-0.5439	0.004	0.1607	-0.0196	0.1758	-1.0983	0.3756	0.6013	10.2413	-0.7266	1.2595	-0.0954	0.5464	-0.2702	-0.7505	-9.2342	1.6995	-0.5062	-0.3513	0.7668	-0.4136	0.7811	-0.3145	0.7691
-0.2012	-0.5668	9.4222	-0.7333	-0.2423	0.1577	-0.0188	0.2342	-1.0463	0.7138	0.5995	9.955	-0.663	1.1992	-0.0032	0.5584	-0.2762	-0.7565	-9.6853	1.8708	-0.3427	-0.3548	0.8599	-0.5356	0.8133	-0.3131	0.8053
-0.437	0.4213	9.7558	-0.8293	-0.5802	0.3669	-0.0039	0.2316	-1.0955	0.3123	0.2548	9.8872	-1.0027	1.2902	0.1826	0.5524	-0.2822	-0.7505	-9.8016	1.5865	-0.5167	-0.3889	1.0442	-0.656	0.7963	-0.3525	0.7682
-0.0184	0.0727	9.5925	-0.8625	-0.5181	0.0611	-0.0073	0.2877	-1.1105	0.0763	0.3687	9.5318	-1.1023	1.566	0.0279	0.5524	-0.2642	-0.7565	-9.5741	1.1881	-0.5129	-0.4144	1.3159	-0.4995	0.8127	-0.3142	0.752
-0.3756	0.3037	9.8168	-0.8316	-0.5792	0.1516	-0.0212	0.2908	-1.0445	0.4879	-0.0323	10.065	-1.1378	1.7185	-0.1572	0.5524	-0.2522	-0.7445	-9.573	1.1881	-0.4556	-0.6373	1.4102	-0.7071	0.8287	-0.3323	0.7873
-0.374	-0.1055	9.8803	-0.7383	-0.6401	0.3029	-0.0201	0.2141	-1.0804	0.3182	0.6589	10.2405	-1.012	1.6912	0.0881	0.5584	-0.2702	-0.7445	-9.519	1.6998	-0.5687	-0.5498	1.1994	-0.8651	0.7489	-0.3343	0.7679
0.1034	-0.22	9.6566	-0.5767	-0.1493	0.2193	-0.057	0.2346	-1.0819	0.203	0.3713	10.1784	-1.0384	1.4742	0.0588	0.5464	-0.2702	-0.7505	-9.5203	1.9272	-0.6257	-0.6465	1.1707	-0.9853	0.7973	-0.295	0.7701
0.0392	-0.3337	9.4235	-0.2972	-0.0549	0.2178	-0.017	0.2159	-1.0301	0.3726	0.428	10.0648	-0.9105	1.1955	-0.1247	0.5524	-0.2822	-0.7445	-9.627	1.4727	-0.2848	-0.6241	1.1442	-1.2628	0.8288	-0.3135	0.7701
0.2231	0.3051	9.6522	-0.0782	0.1307	0.1883	-0.0209	0.233	-1.0798	0.49	0.0258	10.1824	-0.6872	0.9215	0.0907	0.5404	-0.2762	-0.7505	-9.6289	1.302	-0.3994	-0.7458	1.2346	-1.1969	0.8459	-0.2553	0.79
-0.0734	0.1275	9.8827	-0.1398	0.1608	0.159	-0.0188	0.2342	-1.0463	0.0274	0.6009	10.0004	-0.4055	0.7391	0.1209	0.5404	-0.2702	-0.7445	-9.5173	1.9842	-0.454	-1.0205	1.2936	-1.0653	0.7972	-0.3138	0.7872
-0.077	-0.3365	9.6549	-0.0768	0.2532	0.1295	-0.0598	0.2523	-1.1148	0.3623	0.6557	9.5386	-0.5887	0.6124	-0.0002	0.5404	-0.2702	-0.7505	-9.5181	1.8136	-0.5113	-0.8348	1.2632	-1.0711	0.8453	-0.2936	0.7888
-0.3771	-0.1617	9.7058	-0.0761	0.3144	0.1	-0.0183	0.1958	-1.0642	0.2552	0.0824	9.8853	-0.1549	0.5244	0.0285	0.5404	-0.2762	-0.7505	-9.7967	1.8141	-0.2304	-0.8688	1.2037	-1.1628	0.7659	-0.2765	0.77
0.1578	0.1922	9.3606	-0.2294	0.2817	0.255	-0.0199	0.2336	-1.063	0.4797	0.2535	9.6562	-0.1822	0.3698	0.0603	0.5524	-0.2582	-0.7625	-9.7392	1.2454	-0.2298	-0.7765	1.0211	-1.167	0.7975	-0.2762	0.7529
-0.4352	-0.1047	9.8208	-0.1331	0.6194	0.0766	-0.0588	0.2529	-1.098	0.367	0.4842	9.7722	-0.4007	0.4594	-0.0311	0.5404	-0.2642	-0.7505	-9.6886	2.0413	-0.5143	-0.5257	1.1112	-1.0816	0.7973	-0.295	0.7701
0.1012	-0.1018	9.5384	-0.2277	0.404	0.2269	-0	0.2145	-1.0458	0.0779	0.0814	9.5891	-0.1556	0.5553	0.0283	0.5524	-0.2642	-0.7385	-9.5664	1.7571	-0.0546	-0.5251	1.0194	-1.0516	0.8128	-0.3326	0.7869
-0.3191	-0.102	9.5894	-0.1972	0.4044	0.1958	-0.023	0.2318	-1.1133	0.4297	0.5429	10.0664	-0.3349	0.2113	-0.1837	0.5584	-0.2642	-0.7505	-9.5749	1.8136	-0.5124	-0.5524	0.9872	-0.9282	0.8119	-0.3529	0.733
-0.2571	0.13	9.7043	-0.3884	0.1282	0.0692	-0.0008	0.2334	-1.0452	0.4277	0.3699	9.9485	-0.367	0.3046	-0.0918	0.5464	-0.2762	-0.7505	-9.6252	1.7002	-0.1701	-0.1376	1.0121	-0.5409	0.8136	-0.2939	0.8059
-0.08	0.3654	9.5293	-0.3369	-0.3899	-0.0965	-0.0387	0.2533	-1.0635	0.3607	0.2526	9.4197	-0.5938	0.86	0.0291	0.5464	-0.2582	-0.7445	-9.6304	1.6432	-0.4563	-0.294	0.7995	-0.5686	0.8136	-0.2755	0.771
-0.3786	0.1892	9.643	-0.2745	-0.3895	-0.0358	0.001	0.2151	-1.029	0.5944	0.1958	9.6581	-0.6654	1.2595	-0.1572	0.5404	-0.2702	-0.7625	-9.5737	1.7	-0.4552	-0.2304	1.0425	-0.5379	0.8129	-0.3323	0.8047
-0.3191	-0.102	9.5894	-0.3392	-0.6043	0.0219	-0.0178	0.1575	-1.0822	-0.0407	0.4834	9.413	-0.755	1.1988	0.0588	0.5584	-0.2762	-0.7505	-9.3981	1.6431	-0.166	-0.3809	1.2233	-0.409	0.7975	-0.2946	0.7878
-0.1905	0.0671	10.0565	-0.3085	-0.6346	0.0516	-0.0379	0.2344	-1.0641	0.0217	0.0817	9.6466	-0.6363	1.3847	-0.0352	0.5644	-0.2642	-0.7385	-9.6265	1.9277	-0.2272	-0.6012	0.9507	-0.4968	0.797	-0.3142	0.7694
-0.2585	-0.3939	9.5941	-0.4917	-0.4528	-0.0344	0.0178	0.1943	-1.0621	-0.0342	-0.0905	9.7033	-0.6654	1.3231	0.0268	0.5464	-0.2822	-0.7625	-9.3392	1.5862	-0.0505	-0.7623	1.045	-0.7063	0.8295	-0.2936	0.8063
-0.1973	0.4217	9.7017	-0.2735	-0.3899	0.0565	-0.0162	0.197	-1.0307	0.6486	0.0799	9.483	-0.7211	1.0124	-0.0633	0.5584	-0.2702	-0.7565	-9.4047	1.8703	-0.5092	-0.9766	1.2266	-0.637	0.8282	-0.3518	0.7689
-0.3742	0.0695	9.8781	-0.3294	-0.1162	0.1861	-0.0173	0.1964	-1.0474	0.0231	0.5423	9.7658	-0.7832	1.0748	0.0597	0.5404	-0.2762	-0.7505	-9.4571	1.7568	-0.2814	-1.2481	1.1013	-0.384	0.8127	-0.3142	0.752
0.1084	0.0098	9.9457	-0.3882	0.005	0.2818	-0.023	0.2318	-1.1133	0.1899	0.3107	9.4752	-0.6872	0.9215	0.0907	0.5404	-0.2642	-0.7445	-9.3444	1.5292	-0.3367	-1.4364	1.1634	-0.4701	0.7982	-0.2748	0.824
-0.5008	-0.0426	9.5271	-0.393	-0.2083	0.1542	-0.0245	0.2696	-1.1122	0.4937	0.4869	10.4188	-0.496	0.5819	-0.062	0.5524	-0.2762	-0.7505	-9.3461	2.0978	-0.3935	-1.4398	1.2869	-0.5919	0.7664	-0.257	0.7884
-0.1998	-0.043	9.5324	-0.5181	-0.3012	0.1537	-0.0199	0.2336	-1.063	0.4254	0.4844	9.8319	-0.5938	0.8918	0.1211	0.5464	-0.2762	-0.7565	-9.9089	1.6437	-0.1754	-1.3789	1.2569	-0.6247	0.814	-0.2748	0.8065
-0.3253	0.6021	9.2886	-0.741	-0.4852	-0.1857	-0.0541	0.2169	-1.0489	0.3654	0.0811	9.6532	-0.6918	1.1697	0.1815	0.5464	-0.2642	-0.7445	-9.6933	1.5861	-0.8008	-1.4488	1.1082	-0.8696	0.8129	-0.3138	0.7698
-0.076	0.4792	9.7615	-0.6147	-0.362	-0.1232	-0.0578	0.2535	-1.0813	0.0219	0.5996	9.7075	-0.9453	1.4442	0.0584	0.5524	-0.2702	-0.7625	-9.7991	1.2453	-0.4025	-1.416	1.1073	-0.8092	0.8133	-0.3131	0.8053
0.2311	-0.1085	10.0661	-0.6429	-0.3942	0.184	-0.0369	0.235	-1.0473	0.3643	0.0809	9.5946	-1.0668	1.4135	0.213	0.5524	-0.2642	-0.7505	-9.6884	1.8138	-0.5145	-1.3201	1.1669	-0.7194	0.814	-0.2748	0.8065
-0.0751	-0.1628	9.7695	-0.5174	-0.1784	0.0334	-0.0225	0.2708	-1.0786	0.1973	0.485	9.886	-1.0728	1.5964	-0.0647	0.5464	-0.2762	-0.7385	-9.518	1.7567	-0.5114	-1.0558	0.7775	-1.1606	0.8126	-0.3145	0.7342
-0.4386	0.0142	9.6442	-0.4543	-0.0245	-0.0871	-0.0063	0.2883	-1.0938	0.3793	0.3721	10.4161	-0.757	1.3233	0.1502	0.5404	-0.2822	-0.7565	-9.228	1.7566	-0.1628	-0.6528	0.6555	-1.1429	0.8121	-0.3525	0.7508
-0.0791	-0.335	9.5381	-0.2357	-0.0541	0.1863	-0.0207	0.2525	-1.0624	0.4827	0.4843	9.833	-0.5082	1.1698	-0.004	0.5404	-0.2582	-0.7445	-9.7397	1.6435	-0.2295	-0.1505	0.5	-0.9133	0.7498	-0.2772	0.7519
-0.2542	0.3028	9.8773	-0.267	0.038	0.0042	-0.0382	0.2149	-1.0814	-0.1511	-0.0333	9.5842	-0.8773	1.1036	-0.0629	0.5524	-0.2582	-0.7505	-9.7441	1.8708	-0.4582	-0.3081	0.5013	-1.0008	0.8136	-0.2939	0.8059
-0.0774	-0.0446	9.6513	-0.3271	0.0982	0.0677	-0.0562	0.2157	-1.0825	0.1925	0.7141	9.6528	-0.6242	0.8603	0.0907	0.5524	-0.2702	-0.7565	-9.5706	1.757	-0.2835	-0.3961	0.5599	-0.8441	0.7967	-0.3333	0.7688
-0.1406	0.6573	9.5246	-0.4844	0.0056	-0.0553	-0.0763	0.2153	-1.117	0.315	0.6006	10.0645	-0.4388	0.831	0.0591	0.5524	-0.2702	-0.7565	-9.915	1.4729	-0.5189	-0.4277	0.6517	-0.8731	0.8128	-0.3326	0.7869
-0.0736	0.3026	9.8805	-0.4191	0.0047	0.2822	-0.0016	0.2523	-1.0446	-0.1995	0.5443	10.1129	-0.7796	0.9205	0.0913	0.5464	-0.2762	-0.7565	-10.0218	1.9851	-0.12	-0.331	0.6804	-0.7529	0.7975	-0.2946	0.7878
-0.5601	0.0735	9.5829	-0.4801	0.0653	0.2535	-0.0044	0.27	-1.0776	0.1365	0.5994	9.7097	-0.8147	1.0418	-0.1243	0.5584	-0.2702	-0.7565	-9.6907	1.9843	-0.6288	-0.1815	0.7744	-0.9409	0.829	-0.3131	0.7879
-0.3759	-0.2208	9.765	-0.3262	0.0978	0.16	-0.0562	0.2157	-1.0825	0.485	0.3698	9.9496	-0.5996	1.1067	-0.0338	0.5644	-0.2642	-0.7325	-10.0856	1.7574	-0.5218	-0.1144	0.9244	-0.7881	0.8136	-0.2939	0.8059
-0.1337	0.2443	9.8801	-0.3252	0.0974	0.2522	-0.0534	0.198	-1.0495	0.0239	0.0822	9.7638	-0.7808	0.9509	0.0297	0.5584	-0.2762	-0.7505	-9.6274	1.757	-0.2845	-0.2375	0.863	-0.7542	0.7804	-0.3344	0.733
-0.1931	-0.3392	9.8864	-0.3581	0.0364	0.1591	-0.0379	0.2344	-1.0641	0.6611	0.4856	10.1878	-0.5681	1.0443	-0.1258	0.5524	-0.2522	-0.7505	-9.8535	1.0749	-0.2892	-0.0517	0.8935	-0.7595	0.7972	-0.3138	0.7872
-0.1345	0.07	9.8239	-0.2313	0.1901	0.2223	-0.0562	0.2157	-1.0825	0.4263	0.5997	9.891	-0.6559	0.827	-0.124	0.5584	-0.2882	-0.7445	-9.7984	1.5297	-0.3451	-0.1104	1.0139	-0.6646	0.7968	-0.3145	0.7517
0.162	0.1892	9.5942	-0.2009	0.1599	0.2213	-0.0188	0.2342	-1.0463	0.7182	0.6005	10.1894	-0.439	0.7989	-0.0636	0.5524	-0.2702	-0.7505	-9.852	1.5299	-0.1744	-0.1687	0.9817	-0.5402	0.7815	-0.3138	0.8047
-0.1933	-0.1641	9.8842	-0.1085	0.2225	0.0985	-0.0541	0.2169	-1.0489	0.3034	0.3102	9.4188	-0.8424	0.982	0.122	0.5584	-0.2642	-0.7565	-9.398	1.5294	-0.1661	-0.5978	0.8576	-0.3747	0.7822	-0.2939	0.8408
-0.0773	-0.103	9.652	-0.2362	-0.0847	0.1857	-0.0534	0.198	-1.0495	-0.1484	0.3126	9.7615	-0.8766	1.0409	-0.1547	0.5644	-0.2762	-0.7625	-9.7471	1.7569	-0.63	-0.5933	1.0689	-0.2503	0.7967	-0.3333	0.7688
-0.4904	0.1251	10.1089	-0.3893	0.0362	0.1287	-0.0029	0.2322	-1.0788	0.3745	0.6011	10.1828	-0.9477	1.5046	-0.0956	0.5524	-0.2702	-0.7625	-9.5666	1.0178	-0.1124	-0.8091	1.0684	-0.2131	0.8292	-0.2943	0.7707
-0.0759	0.4208	9.7622	-0.3331	-0.2377	0.0298	-0.0003	0.195	-1.0632	0.4806	0.3688	9.7153	-1.0008	1.1021	-0.0929	0.5584	-0.2762	-0.7505	-9.7449	1.6433	-0.5156	-0.7767	1.2201	-0.1821	0.8127	-0.3142	0.752
-0.1362	-0.2204	9.7108	-0.2724	-0.3596	0.1186	-0.0018	0.2328	-1.062	0.427	0.1396	9.8889	-0.9378	1.0727	-0.0009	0.5584	-0.2822	-0.7385	-9.7423	2.0415	-0.3436	-0.6867	1.2214	-0.277	0.8128	-0.3326	0.7869
-0.3212	-0.1005	9.4726	-0.2968	0.0065	0.1576	-0.0361	0.2161	-1.0479	0.0255	0.4278	9.8825	-0.7178	0.8897	0.0296	0.5524	-0.2762	-0.7445	-9.677	1.8711	0.1151	-0.5317	1.2824	-0.2811	0.7654	-0.3145	0.7866
-0.0699	-0.0498	10.0601	-0.3282	-0.0859	0.2483	-0.0376	0.1766	-1.0994	0.5962	0.4263	9.7763	-0.4707	0.8928	0.0896	0.5464	-0.2702	-0.7625	-9.5146	1.4725	-0.3399	-0.4761	1.072	-0.4688	0.7647	-0.3344	0.7504
-0.2534	-0.2808	9.8846	-0.0801	0.0392	0.1556	-0.0382	0.2149	-1.0814	0.4302	0.1979	10.0649	-0.5621	0.7661	-0.1242	0.5644	-0.2582	-0.7565	-9.1688	1.4154	-0.0475	-0.1571	1.0677	-0.1711	0.8299	-0.2744	0.8069
-0.4389	0.2476	9.6413	-0.204	-0.0234	0.2173	-0.0384	0.1954	-1.0988	0.4227	0.081	9.6543	-0.5308	0.7988	0.0291	0.5404	-0.2762	-0.7625	-9.6222	1.7572	0.0016	-0.2755	1.0042	0.0163	0.7966	-0.2964	0.699
0.2895	-0.399	9.954	-0.5545	-0.5145	-0.035	-0.0207	0.2525	-1.0624	-0.2001	0.2564	10.053	-0.6916	1.1064	0.0282	0.5464	-0.2702	-0.7625	-9.6266	1.1315	-0.285	0.0527	0.9796	-0.3932	0.8128	-0.3326	0.7869
-0.0685	0.4157	10.171	-0.5884	-0.5751	-0.2204	-0.0212	0.2135	-1.0972	0.5975	0.3116	9.8344	-0.9693	1.0715	-0.0929	0.5584	-0.2582	-0.7385	-9.2345	1.927	-0.506	-0.0362	0.7339	-0.2389	0.7977	-0.2758	0.7707
-0.5552	-0.3964	9.8224	-0.7405	-0.5161	-0.0942	-0.0541	0.2169	-1.0489	0.134	0.1385	9.5319	-1.0045	1.2878	-0.0632	0.5524	-0.2642	-0.7625	-9.6866	2.0982	-0.3998	0.2091	0.8875	-0.3372	0.7823	-0.2382	0.7538
0.1034	-0.1616	9.6559	-0.492	-0.3297	-0.247	0.0162	0.232	-1.061	0.1391	0.3699	9.8258	-0.8812	1.2573	-0.156	0.5524	-0.2882	-0.7445	-9.2353	1.7563	-0.5634	0.2042	0.8288	-0.4911	0.829	-0.3131	0.7879
-0.198	0.1306	9.647	-0.396	-0.2071	-0.1225	-0.058	0.234	-1.0986	-0.2048	0.4279	9.8195	-0.7564	1.197	-0.1256	0.5464	-0.2642	-0.7625	-9.6881	1.6432	-0.5146	0.2986	0.7062	-0.4335	0.8292	-0.3128	0.8056
-0.0678	-0.0512	10.1769	-0.3935	-0.1158	-0.0283	0.0327	0.269	-1.0587	0.3607	0.2526	9.4197	-0.4394	0.8301	-0.0331	0.5524	-0.2702	-0.7445	-9.6312	1.4725	-0.5137	0.2918	0.618	-0.6491	0.8138	-0.2751	0.7888
0.1056	-0.2214	9.7734	-0.3592	0.0061	0.0969	-0.0214	0.2714	-1.0618	0.3119	0.4848	9.8882	-0.3434	0.7086	0.09	0.5584	-0.2522	-0.7445	-9.7439	1.6433	-0.4584	0.016	0.6166	-0.5487	0.7809	-0.3148	0.7514
0.0429	0.0719	9.6519	-0.017	0.1931	0.0352	-0.0235	0.2702	-1.0954	0.1404	0.2551	9.8839	-0.37	0.523	0.122	0.5584	-0.2582	-0.7625	-9.5197	1.4154	-0.6261	0.1471	0.857	-0.3356	0.8452	-0.2752	0.7539
-0.1942	-0.3385	9.828	-0.1986	0.4358	0.0119	0.0497	0.2676	-1.0745	0.3632	0.0806	9.5361	-0.3335	0.213	0.0007	0.5464	-0.2642	-0.7565	-10.0235	1.6438	-0.2347	0.0518	0.6752	-0.3956	0.7972	-0.3138	0.7872
-0.0805	-0.0424	9.4761	-0.2915	0.3427	0.1341	-0.0387	0.2533	-1.0635	0.3026	0.7703	9.4209	-0.3696	0.4282	-0.0926	0.5404	-0.2582	-0.7445	-9.4506	1.5865	0.0619	0.0818	0.6757	-0.4272	0.7821	-0.2755	0.8059
-0.0812	0.4245	9.4702	-0.2009	0.2214	0.1303	-0.0374	0.2733	-1.0293	0.4782	0.4833	9.5986	-0.4051	0.7079	0.0904	0.5524	-0.2762	-0.7505	-9.5163	2.0411	-0.3967	0.3248	0.9828	-0.6164	0.7661	-0.2946	0.8227
-0.4344	0.0696	9.877	-0.0774	0.315	-0.023	-0.0361	0.2161	-1.0479	0.1319	0.0805	9.4145	-0.7835	1.0109	-0.1551	0.5584	-0.2582	-0.7445	-10.0169	1.4166	0.1085	0.2289	0.9232	-0.7062	0.7818	-0.2762	0.7704
-0.1294	0.183	10.1145	-0.0443	0.3143	0.1919	-0.0379	0.2344	-1.0641	0.4297	-0.1475	10.0048	-0.4428	0.9847	-0.034	0.5404	-0.2642	-0.7505	-9.9688	1.6437	-0.3481	0.1093	1.0735	-0.5785	0.7979	-0.2755	0.7885
0.2291	0.5342	9.9996	0.0467	0.4083	-0.1147	-0.0181	0.2153	-1.0468	0.5388	0.4839	9.7755	-0.6242	0.8285	-0.0013	0.5524	-0.2822	-0.7565	-10.0814	1.7576	-0.2929	-0.1853	1.0664	-0.0781	0.8293	-0.294	0.7885
-0.1981	0.2473	9.6455	0.0206	0.4983	0.1951	-0.0374	0.196	-1.082	0.1455	0.4864	10.1778	-0.781	0.9188	-0.0931	0.5524	-0.2582	-0.7565	-10.1996	1.3594	-0.5814	-0.1155	1.1846	0.1666	0.797	-0.3326	0.8044
0.2848	-0.0459	9.716	0.206	0.5616	0.1019	-0.0745	0.197	-1.1008	0.4227	0.081	9.6543	-0.6235	0.8294	0.0909	0.5343	-0.2702	-0.7505	-9.7446	1.4158	-0.5158	-0.3475	1.0858	0.6951	0.8288	-0.295	0.7352
0.042	-0.0441	9.595	0.1742	0.4694	0.1618	-0.0363	0.1966	-1.0652	0.5441	0.6578	10.0692	-0.4089	0.7983	-0.156	0.5464	-0.2702	-0.7505	-9.1704	1.8703	-0.1044	-0.1006	0.8424	0.6858	0.8133	-0.3131	0.8053
-0.2595	-0.3931	9.5357	0.0802	0.4075	0.1308	-0.073	0.2366	-1.0494	0.0885	0.314	10.176	-0.5333	0.891	-0.0329	0.5524	-0.2822	-0.7445	-9.5705	1.6432	-0.2836	-0.1912	0.6585	0.7792	0.7648	-0.3155	0.7333
-0.1398	0.0736	9.5319	-0.0416	0.4363	0.256	-0.0029	0.2322	-1.0788	0.2489	0.5987	9.5948	-0.6577	0.92	-0.0938	0.5584	-0.2702	-0.7445	-9.6258	2.2121	-0.1697	-0.1723	0.3899	0.4077	0.7965	-0.3337	0.7511
-0.1437	-0.1569	9.3013	-0.1984	0.2511	0.3155	-0.0207	0.2525	-1.0624	0.5355	0.4832	9.5997	-0.7211	0.9807	-0.1553	0.5584	-0.2582	-0.7565	-9.4522	1.9845	0.0049	-0.0246	0.2408	0.187	0.7977	-0.2758	0.7707
-0.2575	-0.3362	9.6518	-0.3897	-0.0866	0.2798	-0.0008	0.2334	-1.0452	0.5986	0.3118	9.893	-0.4756	1.0453	-0.1263	0.5464	-0.2642	-0.7505	-9.1801	1.3012	-0.6772	-0.1827	0.3642	0.0698	0.8449	-0.3128	0.7882
0.0462	-0.047	9.8286	-0.4538	-0.1478	0.1563	-0.0768	0.2537	-1.0991	0.1947	0.0817	9.7085	-0.8464	1.1039	-0.0631	0.5404	-0.2642	-0.7565	-9.345	2.041	-0.3363	-0.4012	0.3955	0.0152	0.8305	-0.2361	0.8081
-0.1946	0.0117	9.8236	-0.5511	-0.4237	0.1515	-0.0385	0.2727	-1.0461	0.4857	0.6576	10.0095	-0.82	1.3209	-0.0338	0.5343	-0.2702	-0.7505	-9.3449	1.9841	-0.3364	-0.5614	0.4893	-0.1637	0.7813	-0.2957	0.752
-0.4926	0.185	9.9913	-0.4921	-0.5142	0.0258	-0.0008	0.2334	-1.0452	0.2487	0.7137	9.5953	-0.8821	1.3515	-0.0029	0.5524	-0.2762	-0.7565	-9.9101	1.7574	-0.2325	-0.8105	0.6119	-0.2167	0.7975	-0.2946	0.7878
-0.141	0.1327	9.4728	-0.3364	-0.5132	0.1469	-0.0583	0.2145	-1.116	0.6516	0.9436	9.7212	-1.1312	1.4412	-0.0634	0.5464	-0.2642	-0.7505	-9.6266	1.9845	-0.2271	-0.936	0.704	-0.2736	0.8134	-0.2943	0.7882
-0.0739	-0.2803	9.8294	-0.0854	-0.1431	-0.0635	-0.0209	0.233	-1.0798	0.2546	0.4849	9.8871	-1.2873	1.5005	-0.155	0.5644	-0.2642	-0.7505	-10.0869	1.9848	-0.5789	-0.7816	0.8567	-0.3078	0.8131	-0.3135	0.7875
-0.0779	0.3639	9.6461	-0.1738	-0.0228	0.1555	-0.0531	0.2175	-1.0321	0.4283	0.7152	10.0086	-1.1946	1.47	-0.2168	0.5584	-0.2882	-0.7625	-9.5786	1.4723	-0.7416	-0.7556	1.0723	-0.4912	0.7977	-0.2758	0.7707
-0.0784	-0.0439	9.5929	-0.3273	-0.0863	0.3405	0.0149	0.2119	-1.0951	0.3119	0.4848	9.8882	-1.1573	1.288	0.122	0.5524	-0.2642	-0.7565	-9.2344	1.017	-0.564	-0.4625	0.9277	-1.0235	0.798	-0.2751	0.8062
-0.1899	-0.3414	10.0616	-0.1746	-0.1147	0.215	-0.0415	0.271	-1.0964	0.7125	0.0813	9.8356	-1.182	0.978	0.0626	0.5704	-0.2762	-0.7445	-9.7996	1.6434	-0.4022	-0.6532	0.8386	-1.1721	0.7498	-0.2956	0.7869
-0.1375	-0.1029	9.6509	-0.3311	-0.177	0.1233	-0.0181	0.2153	-1.0468	0.1993	0.6006	10.0037	-0.7546	1.1358	-0.0638	0.5524	-0.2702	-0.7625	-9.5129	0.9607	-0.2831	-0.8458	0.7503	-1.3822	0.7975	-0.2946	0.7878
-0.1322	-0.0482	9.9422	-0.4881	-0.3313	0.122	-0.024	0.2312	-1.1301	0.2508	0.7717	9.7127	-0.5643	0.9222	0.0286	0.5524	-0.2702	-0.7565	-9.6825	2.1553	-0.1708	-1.0025	0.7511	-1.439	0.8141	-0.256	0.7894
-0.08	-0.451	9.4812	-0.3625	-0.2078	0.1231	0.018	0.2137	-1.0448	0.256	0.3127	9.945	-0.6913	1.1703	0.2429	0.5404	-0.2762	-0.7625	-9.1741	1.529	-0.3336	-0.8713	0.6867	-1.1976	0.8134	-0.2758	0.7532
0.2234	0.0717	9.6551	-0.4025	-0.635	-0.0702	-0.0379	0.2344	-1.0641	0.5968	0.0813	9.7748	-1.2544	1.5353	0.2133	0.5524	-0.2702	-0.7445	-9.9139	1.4729	-0.4617	-0.887	0.4662	-0.6765	0.7811	-0.296	0.7342
-0.4354	0.012	9.8194	-0.4947	-0.6669	0.0225	-0.0567	0.2541	-1.0645	0.2544	0.6	9.8877	-1.5694	1.7777	0.0294	0.5524	-0.2642	-0.7445	-9.9095	2.0987	-0.175	-0.7368	0.1942	-0.8061	0.798	-0.2751	0.8062
-0.1312	-0.049	10.0006	-0.6417	-0.3024	0.1553	-0.0217	0.2519	-1.0792	0.4255	0.3694	9.8314	-1.4183	1.9023	-0.0337	0.5584	-0.2762	-0.7565	-9.4031	1.4723	-0.4523	-0.6423	0.102	-0.7482	0.8133	-0.2946	0.7704
-0.0651	0.2967	10.3477	-0.5778	-0.2719	0.3089	-0.0572	0.2151	-1.0992	0.3676	0.0817	9.7704	-1.321	1.6872	-0.0023	0.5524	-0.2642	-0.7505	-9.5713	1.4726	-0.3409	-0.5246	-0.0475	-0.9373	0.7823	-0.2751	0.8237
-0.3177	0.4218	9.6996	-0.5124	-0.0575	0.3127	-0.0567	0.2541	-1.0645	0.0911	0.0845	10.2921	-0.8497	1.3221	0.12	0.5464	-0.2522	-0.7445	-9.6815	1.3591	-0.1714	-0.2511	-0.1973	-1.1003	0.8134	-0.2943	0.7882
-0.3769	-0.2784	9.7073	-0.6053	0.0647	0.1013	-0.0029	0.2322	-1.0788	0.1356	0.4841	9.6506	-0.6585	1.046	0.1513	0.5524	-0.2702	-0.7625	-9.6222	1.7572	0.0016	-0.2894	-0.133	-1.3444	0.8138	-0.2751	0.7888
-0.0792	-0.2183	9.5367	-0.676	-0.3936	-0.0308	-0.0039	0.2316	-1.0955	0.2575	0.0254	10.0022	-0.566	1.047	0.1507	0.5584	-0.2642	-0.7565	-10.0826	1.9281	-0.35	-0.4939	0.166	-0.9672	0.8454	-0.2933	0.8066
-0.5619	-0.1002	9.4683	-0.365	-0.3606	0.1198	-0.0207	0.2525	-1.0624	0.3625	0.5407	9.5381	-0.8781	1.2296	0.1822	0.5704	-0.2582	-0.7505	-9.8608	1.0746	-0.6899	-0.5471	0.2533	-0.6884	0.8131	-0.3319	0.8225
-0.0796	0.0735	9.533	-0.5196	-0.3313	0.0608	0.017	0.2131	-1.0615	0.3669	0.5417	9.7724	-1.0082	1.5372	0.1504	0.5524	-0.2642	-0.7505	-9.9155	1.0747	-0.5764	-0.6076	0.405	-0.6546	0.8298	-0.256	0.7719
-0.2586	-0.3355	9.5934	-0.8023	-0.6706	0.1493	-0.0238	0.2507	-1.1128	-0.2056	0.2552	9.7601	-1.4462	1.874	0.2739	0.5644	-0.2702	-0.7445	-9.8624	1.5295	-0.7467	-0.4504	0.2821	-0.5681	0.8286	-0.3138	0.7523
-0.3092	-0.4004	10.1186	-0.964	-1.069	0.0812	-0.0356	0.2551	-1.0132	0.4854	0.8301	10.0103	-1.9186	2.3012	0.1819	0.5524	-0.2702	-0.7505	-9.8629	1.9276	-0.7464	-0.8086	0.3366	-0.1268	0.7655	-0.2957	0.7694
-0.0759	-0.3372	9.7133	-1.056	-1.0702	0.1438	-0.1121	0.2364	-1.1017	0.4386	0.4875	10.5348	-1.9801	2.2691	0.121	0.5584	-0.2642	-0.7625	-9.6288	2.0982	-0.3415	-0.9961	0.3679	-0.1824	0.8292	-0.2943	0.7707
0.1096	-0.1076	10.0056	-1.12	-1.2237	0.172	-0.0021	0.2133	-1.0794	0.3175	0.4286	10.1809	-2.0683	2.1466	0.3374	0.5524	-0.2702	-0.7445	-9.5683	1.5864	-0.1692	-0.995	0.1235	-0.1229	0.782	-0.2758	0.7881
0.2817	-0.102	9.5416	-1.3046	-1.0413	-0.037	-0.0405	0.2716	-1.0796	0.313	0.4851	9.9468	-2.1961	2.3302	0.2756	0.5524	-0.2822	-0.7745	-9.4575	2.0412	-0.2812	-1.0308	0.0649	-0.2759	0.7975	-0.2946	0.7878
-0.2516	0.0096	9.9978	-1.0494	-0.7346	0.2433	-0.0356	0.2551	-1.0132	0.6012	0.0823	10.0091	-2.0111	2.3321	0.2745	0.5404	-0.2642	-0.7565	-9.5733	1.4156	-0.4555	-0.3762	-0.3027	-0.1141	0.7816	-0.2765	0.7526
-0.624	0.4843	9.4015	-0.9229	-0.5192	0.1849	-0.0408	0.2521	-1.097	0.3059	0.0807	9.535	-2.1005	2.2399	0.4292	0.5584	-0.2642	-0.7565	-9.741	1.8709	-0.2865	-0.1543	-0.4574	0.0624	0.8129	-0.3138	0.7698
-0.0225	-0.0411	9.3603	-0.8949	-0.6715	0.1504	-0.0719	0.2372	-1.0326	0.1891	0.7708	9.4773	-2.165	2.3944	0.4901	0.5524	-0.2642	-0.7445	-9.5113	1.3589	-0.1683	-0.2513	-0.5774	-0.0586	0.7975	-0.2762	0.7529
-0.081	0.3077	9.4717	-1.1166	-1.0406	0.2067	-0.0534	0.198	-1.0495	0.1904	0.656	9.5353	-2.2901	2.4544	0.429	0.5524	-0.2582	-0.7325	-9.4045	1.6997	-0.5093	-0.3205	-0.7874	-0.2733	0.7821	-0.2755	0.8059
-0.014	-0.0469	9.8275	-1.1514	-1.2546	0.1718	-0.0207	0.2525	-1.0624	0.1939	-0.1486	9.6489	-2.4486	2.6695	0.4594	0.5524	-0.2762	-0.7445	-9.6243	0.9609	-0.1707	-0.1036	-1.0312	-0.251	0.8296	-0.2563	0.7542
-0.0716	-0.3985	9.9477	-1.27	-0.981	0.2099	-0.0196	0.2531	-1.0457	0.2613	0.429	10.2384	-2.6667	2.6962	0.2454	0.5764	-0.2702	-0.7685	-9.4642	1.5859	-0.6822	-0.0469	-0.9069	-0.436	0.8131	-0.3135	0.7875
-0.0757	0.3041	9.7637	-1.2061	-0.889	0.2726	-0.0201	0.2141	-1.0804	0.0195	0.0812	9.5295	-2.6665	2.6329	0.0922	0.5464	-0.2762	-0.7385	-9.4523	1.2452	-0.0529	0.6549	-0.8713	-0.7948	0.8288	-0.3135	0.7701
-0.1935	-0.0474	9.8827	-1.2662	-0.8288	0.3362	-0.0199	0.2336	-1.063	-0.0304	0.2556	9.9392	-2.322	2.4526	0.2756	0.5584	-0.2642	-0.7505	-9.915	1.5297	-0.5189	0.6426	-0.8961	-1.1941	0.8302	-0.2368	0.7726
-0.0817	0.075	9.4162	-1.512	-0.678	0.2196	-0.0188	0.2342	-1.0463	0.2526	0.3694	9.7695	-1.98	2.3645	0.397	0.5584	-0.2702	-0.7505	-9.5197	1.4154	-0.6261	0.8675	-0.9912	-0.925	0.7823	-0.2382	0.7538
0.1065	-0.1638	9.8311	-1.1743	-0.9506	0.4554	-0.0037	0.2511	-1.0782	0.2552	0.0824	9.8853	-1.7313	2.3697	0.6721	0.5464	-0.2642	-0.7505	-9.8019	1.8139	-0.5165	1.4294	-1.298	-0.7599	0.7804	-0.3528	0.7679
-0.0693	0.2413	10.1148	-1.0492	-0.8577	0.4559	-0.0578	0.2535	-1.0813	0.2483	0.3109	9.5349	-1.484	2.3731	0.7628	0.5584	-0.2522	-0.7505	-10.0271	1.2456	-0.4639	1.9427	-1.2757	-0.1912	0.7975	-0.2946	0.7878
-0.0708	-0.2241	10.0039	-1.0841	-1.0409	0.3601	-0.0219	0.2324	-1.0966	0.367	0.4842	9.7722	-1.2698	2.405	0.6384	0.5464	-0.2582	-0.7505	-9.8	1.1315	-0.4598	2.3747	-1.4417	0.7778	0.766	-0.2761	0.7878
-0.7892	0.0657	10.2211	-0.8978	-0.8241	0.1164	-0.023	0.2318	-1.1133	0.254	0.1971	9.8273	-1.1768	2.4065	0.6994	0.5584	-0.2702	-0.7385	-9.9152	0.8473	-0.5766	1.8669	-1.2068	1.3787	0.8295	-0.2751	0.7713
-0.0729	-0.2227	9.8871	-0.8315	-0.6716	0.3034	-0.04	0.2332	-1.0976	0.538	-0.3217	9.6547	-1.3914	2.2153	0.333	0.5524	-0.2702	-0.7445	-10.0842	1.4731	-0.4648	1.7336	-0.9426	2.0608	0.7973	-0.295	0.7701
-0.2569	-0.0451	9.7065	-0.3071	-0.666	0.2354	-0.074	0.236	-1.0661	0.4844	0.082	9.8897	-2.0129	2.4251	0.3047	0.5704	-0.2522	-0.7445	-9.4588	1.4155	-0.3961	1.8609	-0.7308	2.1509	0.7963	-0.334	0.7333
-0.4458	-0.0974	9.2369	-0.3036	-0.4213	0.1792	-0.0387	0.2533	-1.0635	0.4819	0.254	9.7734	-2.2942	2.4809	-0.032	0.5464	-0.2642	-0.7325	-9.8623	1.4157	-0.7468	2.0171	-0.5791	2.1782	0.8289	-0.2762	0.718
-0.0168	-0.3365	9.656	-0.3382	-0.5432	0.0232	-0.0248	0.2501	-1.1295	0.0801	0.0819	9.7063	-2.4149	2.3242	-0.1226	0.5524	-0.2582	-0.7445	-9.5795	1.3585	-0.7989	2.2891	-0.6063	1.9547	0.7974	-0.3135	0.805
-0.1938	0.186	9.8798	-0.6495	-0.7298	0.0846	-0.0217	0.2519	-1.0792	0.3632	0.0806	9.5361	-1.9149	2.0519	-0.0317	0.5704	-0.2642	-0.7385	-9.4618	1.3016	-0.5679	2.5646	-0.6962	1.8536	0.829	-0.2947	0.7529
0.1011	-0.0434	9.5376	-0.4925	-0.637	0.1769	-0.0382	0.2922	-1.0287	0.6525	-0.2644	9.6572	-2.1026	2.1418	-0.1233	0.5524	-0.2642	-0.7385	-9.8581	1.359	-0.5179	2.8835	-0.7309	2.151	0.8141	-0.2744	0.8243
0.1654	0.0119	9.7716	-0.4631	-0.6669	0.0836	-0.0217	0.2519	-1.0792	0.086	-0.2044	9.9979	-2.2616	2.3564	-0.1544	0.5584	-0.2702	-0.7505	-9.4605	1.1311	-0.5108	3.1834	-0.8322	2.848	0.8133	-0.2946	0.7704
-0.1347	0.1867	9.8225	-1.1474	-0.9179	0.0253	-0.0415	0.271	-1.0964	0.1371	0.2543	9.7082	-3.1016	2.5923	-0.4582	0.5644	-0.2702	-0.7505	-9.455	0.9038	-0.2248	3.159	-1.4448	3.1204	0.7972	-0.3138	0.7872
-0.0766	0.1881	9.7067	-1.4236	-0.8907	0.1523	0.0164	0.2515	-1.0436	0.1901	0.1957	9.4747	-2.9479	2.625	-0.4285	0.5524	-0.2702	-0.7505	-9.4033	1.6429	-0.4522	3.3514	-1.7525	3.358	0.814	-0.2748	0.8065
-0.2012	0.1912	9.471	-1.6308	-0.5275	0.4396	-0.0356	0.1777	-1.0658	0.2015	-0.0893	10.0592	-2.6349	2.4436	-0.3371	0.5524	-0.2642	-0.7445	-9.9177	1.1315	-0.6909	3.9393	-2.1484	3.3679	0.8298	-0.256	0.7719
-0.3723	0.1848	9.9934	-1.5275	0.1458	0.3914	-0.0374	0.196	-1.082	0.3125	0.7727	9.9481	-2.5992	2.2596	-0.2133	0.5584	-0.2522	-0.7565	-9.8631	1.2451	-0.8042	4.177	-2.0072	2.0099	0.7973	-0.2765	0.7351
-0.0761	-0.1621	9.7111	-0.746	0.8265	0.2118	-0.0199	0.2336	-1.063	-0.2658	0.0244	9.5823	-1.9057	1.5873	-0.1212	0.5584	-0.2522	-0.7445	-9.2957	1.3581	-0.7937	4.1218	-2.2398	1.2415	0.7972	-0.3138	0.7872
-0.0109	0.0092	10.002	-0.2697	1.4718	0.4351	-0.0209	0.233	-1.0798	0.1947	0.0817	9.7085	-1.4122	1.6244	-0.0014	0.5644	-0.2582	-0.7565	-9.5159	0.8469	-0.4549	4.3313	-2.1449	0.9902	0.8461	-0.2365	0.7729
0.1073	0.0689	9.8866	0.2613	1.9668	0.2239	-0.0588	0.2529	-1.098	0.1378	0.4846	9.7678	-1.4457	1.7159	-0.0939	0.5584	-0.2642	-0.7505	-10.0838	1.1319	-0.4651	4.2092	-1.9019	1.0265	0.8141	-0.256	0.7894
0.3443	-0.337	9.6623	1.042	2.617	0.0129	-0.0732	0.2171	-1.0667	0.1355	-0.1488	9.5892	-1.9712	1.677	-0.3672	0.5524	-0.2822	-0.7625	-9.6351	1.3017	-0.7427	3.7507	-1.5086	1.197	0.7655	-0.2957	0.7694
0.1139	-0.1689	10.2399	1.5129	3.1723	-0.1347	-0.0026	0.2517	-1.0614	0.4261	0.7147	9.8915	-2.4647	1.7035	-0.303	0.5584	-0.2762	-0.7445	-9.5801	1.0172	-0.8564	3.3459	-1.0505	1.0899	0.8133	-0.3131	0.8053
0.3509	0.2998	10.0631	2.1461	4.218	-0.3045	-0.0222	0.2902	-1.0613	0.255	0.2549	9.8861	-2.8026	1.7015	-0.1473	0.5584	-0.2582	-0.7505	-9.9139	1.4729	-0.4617	2.7256	-0.5017	1.0206	0.8449	-0.2943	0.7533
-0.3077	0.0651	10.2296	3.019	4.7463	-0.3655	-0.0026	0.2517	-1.0614	0.5969	0.0238	9.7745	-3.9873	2.2128	-0.3892	0.5524	-0.2642	-0.7505	-9.4618	1.3585	-0.5679	2.2025	0.2281	1.0729	0.7814	-0.2953	0.7697
-0.1341	-0.2219	9.8276	3.7152	5.6691	-0.2312	-0.0389	0.2338	-1.0808	0.3638	0.4259	9.5962	-4.5999	1.9574	-0.5685	0.5584	-0.2702	-0.7505	-9.8629	1.9276	-0.7464	1.8748	1.0448	1.4272	0.8122	-0.3337	0.7336
-0.4343	0.0113	9.8778	4.2834	6.7155	-0.7077	0.0164	0.2515	-1.0436	0.2535	0.4847	9.8286	-5.0275	1.7993	-0.4729	0.5704	-0.2522	-0.7505	-10.0336	1.4159	-0.8072	1.0142	1.834	1.5822	0.7968	-0.3145	0.7517
-0.0711	0.0093	10.0009	4.7812	7.3649	-1.3765	-0.0181	0.2153	-1.0468	-0.0902	0.4278	9.8217	-6.5981	1.6267	-0.6777	0.5524	-0.2582	-0.7565	-9.9231	2.155	-0.919	1.1025	3.0713	2.3269	0.8133	-0.3131	0.8053
0.1122	-0.4593	10.1268	6.9387	9.3442	-1.9757	-0.0188	0.2342	-1.0463	0.0812	0.0821	9.7649	-7.7173	1.9845	-0.8577	0.5404	-0.2642	-0.7445	-9.8651	1.9843	-0.8609	0.5684	4.4927	2.9688	0.7811	-0.3145	0.7691
-0.4929	-0.3979	9.9403	9.9154	12.6476	-3.1101	-0.0235	0.2702	-1.0954	0.5919	-0.2651	9.4803	-9.6363	2.1776	-1.247	0.5584	-0.2642	-0.7445	-9.6281	1.5295	-0.3419	-0.7297	6.076	2.9281	0.7979	-0.2755	0.7885
-0.2468	-0.4603	10.2372	12.6657	14.9071	-3.5877	-0.0199	0.2336	-1.063	-0.0385	0.4839	9.5302	-11.3169	2.7439	-1.6707	0.5644	-0.2582	-0.7505	-9.4538	1.6432	-0.1098	-1.3749	7.0488	3.0167	0.7816	-0.2765	0.7526
1.6155	2.1052	10.2378	9.2923	19.0943	-4.9	0.0136	0.2692	-1.0765	-0.0904	0.5428	9.8222	-11.9799	3.4795	-1.6405	0.5404	-0.2642	-0.7565	-9.2894	1.3015	-0.4503	-1.1831	8.1128	3.1116	0.829	-0.2947	0.7529
-0.1211	0.2939	10.5802	8.0694	23.1411	-4.1817	-0.0188	0.2342	-1.0463	-0.1958	-0.3179	10.2262	-12.4526	3.8746	-1.8552	0.5584	-0.2642	-0.7385	-9.5744	1.4156	-0.5127	-0.5117	8.9405	2.6987	0.8133	-0.2946	0.7704
-0.2483	-0.1094	10.1744	10.8978	26.2557	-4.4572	0.0162	0.1547	-1.1136	0.4235	0.2538	9.7137	-11.9218	3.6026	-1.7645	0.5524	-0.2702	-0.7505	-9.905	1.8714	0.0537	0.5865	9.1314	2.1142	0.8124	-0.3333	0.7514
-1.3757	-1.0519	10.9836	15.8432	27.6445	-3.382	-0.0039	0.2316	-1.0955	0.1486	-0.0307	10.2927	-10.828	2.9338	-1.7362	0.5584	-0.2582	-0.7445	-9.6734	1.5301	0.2866	2.2295	9.2529	2.1275	0.8129	-0.3138	0.7698
-0.3914	-0.4266	12.2189	22.6696	29.4711	-0.3835	-0.0227	0.2513	-1.096	0.4724	0.712	9.3068	-9.7482	2.8506	-1.8957	0.5464	-0.2522	-0.7505	-9.9019	1.8715	0.2254	3.0608	9.5906	1.921	0.7982	-0.2563	0.7891
-0.0933	0.0997	12.1008	28.6784	28.11	3.2943	0.0164	0.2515	-1.0436	0.023	0.5998	9.7661	-10.0153	2.2893	-2.1059	0.5464	-0.2522	-0.7505	-10.0076	1.4739	0.6237	3.7776	9.9239	2.0251	0.7975	-0.2946	0.7878
-0.5296	-1.2887	11.1766	37.1114	33.8149	3.2199	0.0152	0.2314	-1.0777	0.0878	0.0837	10.1164	-10.3173	1.8813	-2.409	0.5644	-0.2582	-0.7445	-9.4519	1.757	0.0048	4.4132	10.3881	1.4874	0.782	-0.2758	0.7881
-0.5739	-0.6	12.1011	25.4521	36.99	11.4313	0.0309	0.21	-1.1276	0.3118	-0.148	9.8268	-9.5131	1.7658	-2.413	0.5764	-0.2462	-0.7445	-9.9678	1.7006	-0.2908	4.6318	10.7066	0.5002	0.8133	-0.2946	0.7704
-1.1141	-0.8918	12.1536	24.0328	46.0439	12.0453	-0.0232	0.2123	-1.1307	0.256	-0.3777	9.8833	-8.8999	1.8313	-2.6935	0.5644	-0.2402	-0.7445	-9.8006	1.6434	-0.4594	4.3889	10.7492	-0.3526	0.8131	-0.3135	0.7875
-0.8731	-0.2509	12.2082	23.7754	49.9605	16.6236	0.0118	0.2102	-1.1454	0.1956	-0.4934	9.7059	-8.245	1.5299	-2.5727	0.5524	-0.2402	-0.7505	-9.9145	1.9278	-0.4613	3.6097	10.8588	0.5012	0.7804	-0.3344	0.733
-0.9453	-0.7673	11.513	26.5636	57.5773	20.106	-0.0013	0.1944	-1.0799	-0.0241	-0.2032	10.23	-7.0337	1.2678	-2.1788	0.5764	-0.2281	-0.7325	-9.9188	1.2452	-0.748	2.3115	10.599	1.6442	0.8293	-0.257	0.7186
