1824_acc_x	1824_acc_y	1824_acc_z	1824_gyro_x	1824_gyro_y	1824_gyro_z	1824_mag_x	1824_mag_y	1824_mag_z	1825_acc_x	1825_acc_y	1825_acc_z	1825_gyro_x	1825_gyro_y	1825_gyro_z	1825_mag_x	1825_mag_y	1825_mag_z	1826_acc_x	1826_acc_y	1826_acc_z	1826_gyro_x	1826_gyro_y	1826_gyro_z	1826_mag_x	1826_mag_y	1826_mag_z
-0.3157	0.5371	9.8149	-0.3235	0.1582	0.315	0.404	-1.0717	-1.2156	0.2583	0.2557	10.0619	0.0689	0.1556	0.0294	0.5644	-0.2882	-0.7565	-9.567	1.359	-0.1121	-0.4497	0.7854	0.4192	0.7866	-0.3711	-0.1738
-0.1959	0.1875	9.763	-0.1991	0.2514	0.254	-0.0207	0.3298	-1.0098	0.2537	0.3697	9.828	0.2834	0.2514	0.1198	0.5644	-0.2822	-0.7625	-9.7987	1.7572	-0.3449	-0.396	0.8806	0.1418	0.7815	-0.3138	0.8047
0.1121	-0.3426	10.1253	-0.0075	0.5891	0.3204	-0.0408	0.3294	-1.0443	0.5402	0.3117	9.8333	0.2206	0.3447	0.2425	0.5644	-0.2882	-0.7565	-9.8585	1.7571	-0.5176	-0.2416	0.759	0.1362	0.7822	-0.2939	0.8408
-0.0747	0.3617	9.8213	-0.2216	0.7091	0.3257	0.0131	0.3075	-1.0586	0.1952	0.427	9.7686	0.3455	0.2526	0.1808	0.5644	-0.2762	-0.7565	-9.6909	1.3587	-0.6865	-0.3536	0.6315	0.538	0.7977	-0.2943	0.8056
-0.3793	-0.0435	9.5876	-0.1319	0.6497	0.1388	-0.0183	0.2731	-1.0115	0.1976	0.3125	9.8853	0.2477	0.499	0.18	0.5704	-0.2942	-0.7505	-9.6297	1.9844	-0.3988	-0.2009	0.5411	0.4713	0.8452	-0.2752	0.7539
-0.4446	-0.2149	9.2967	-0.2586	0.4037	0.2273	-0.023	0.3091	-1.0607	-0.3782	0.658	9.7587	-0.1573	0.6165	-0.0335	0.5524	-0.3002	-0.7505	-9.6822	1.8709	-0.171	-0.2002	0.4798	0.5015	0.7809	-0.3333	0.7863
-0.3797	0.1899	9.5846	-0.3261	0.1593	0.0691	-0.0406	0.3489	-1.027	0.6536	0.3687	9.7772	-0.2549	0.895	0.0884	0.5824	-0.3002	-0.7505	-9.4611	1.6429	-0.5104	-0.2567	0.7211	0.6587	0.7813	-0.2957	0.752
-0.079	0.3646	9.5877	-0.2962	0.0985	0.0674	-0.0217	0.3292	-1.0265	0.7134	0.1966	9.8947	-0.315	0.8328	0.1198	0.5644	-0.2822	-0.7385	-9.4674	1.6426	-0.8538	-0.5969	0.8122	0.6696	0.7967	-0.3518	0.8038
-0.3705	-0.3412	10.0584	-0.3296	0.0685	-0.1174	-0.022	0.3097	-1.0439	0.4791	0.6561	9.658	-0.3809	0.9538	-0.0956	0.5644	-0.2822	-0.7445	-9.6297	1.9844	-0.3988	-0.6275	0.934	0.6715	0.7816	-0.2765	0.7526
-0.0693	0.2413	10.1148	-0.2049	0.0385	0.0342	0.0133	0.327	-1.0412	0.3672	0.3692	9.7717	-0.3157	0.8319	0.0276	0.5524	-0.2942	-0.7505	-9.5137	1.5863	-0.2826	-0.7162	1.0539	0.7981	0.7814	-0.2953	0.7697
-0.0774	-0.0446	9.6513	-0.1404	0.1611	0.0975	-0.0426	0.3477	-1.0605	0.4275	-0.148	9.8876	-0.1617	0.8332	-0.004	0.5704	-0.2822	-0.7445	-9.861	2.0414	-0.6319	-0.7733	1.1126	0.9539	0.765	-0.3152	0.751
-0.1289	-0.1672	10.1189	0.2329	0.2867	0.1571	-0.0086	0.3449	-1.092	0.1967	0.1972	9.8262	-0.2507	0.6144	-0.1558	0.5584	-0.2942	-0.7445	-9.6883	1.7569	-0.5145	-0.6469	1.02	1.0415	0.7657	-0.2768	0.7523
-0.4976	-0.0448	9.7023	0.17	0.3173	0.0047	0.0123	0.3264	-1.058	0.2547	0.4274	9.8869	-0.1567	0.5856	-0.0333	0.5644	-0.2942	-0.7445	-9.4036	1.8704	-0.452	-0.9262	1.1116	1.0199	0.766	-0.2577	0.7529
-0.2545	-0.2217	9.8255	-0.0101	0.5286	0.1654	-0.0398	0.33	-1.0276	0.486	0.4851	10.0087	-0.1271	0.6795	0.0582	0.5584	-0.2702	-0.7445	-9.0068	1.358	-0.5023	-0.8989	1.1438	0.8964	0.7984	-0.2744	0.8418
-0.2666	0.1365	9.1787	0.2384	0.6536	0.1034	-0.0027	0.329	-1.0087	0.3684	0.312	9.83	-0.1564	0.5859	-0.0026	0.5644	-0.2822	-0.7565	-9.518	1.6998	-0.5114	-1.2406	1.0833	0.8754	0.8146	-0.2364	0.8078
-0.4947	0.1864	9.8745	0.0561	0.6197	0.4433	-0.0034	0.2706	-1.0608	0.19	0.2532	9.475	-0.2818	0.6774	-0.0024	0.5704	-0.2822	-0.7445	-9.5787	1.5291	-0.7415	-1.2088	1.022	0.9047	0.8145	-0.2553	0.8249
-0.314	0.0695	9.8792	-0.1014	0.5887	0.1986	-0.023	0.3091	-1.0607	0.0816	0.485	9.8253	-0.3718	0.5525	-0.0318	0.5584	-0.2822	-0.7505	-9.1774	1.6426	-0.5052	-1.214	1.1768	0.7217	0.7816	-0.2765	0.7526
-0.1432	0.2509	9.3545	-0.0098	0.5285	0.1961	-0.0426	0.3477	-1.0605	0.4812	0.7141	9.7754	-0.4313	0.4912	0.0918	0.5524	-0.2942	-0.7505	-9.4106	1.5857	-0.8528	-0.9063	0.873	0.6794	0.7821	-0.2755	0.8059
-0.2582	0.189	9.6452	-0.171	0.2221	0.0377	0.012	0.3069	-1.0754	0.3628	0.3107	9.5371	-0.0926	0.4941	0.0283	0.5644	-0.2822	-0.7325	-9.4521	1.9276	0.0049	-0.846	0.9652	0.6169	0.8446	-0.332	0.7876
-0.2478	0.2984	10.2277	-0.1417	0.0693	0.1263	-0.022	0.3097	-1.0439	0.5512	0.3143	10.4191	-0.0578	0.3089	0.0292	0.5584	-0.2942	-0.7445	-9.5176	1.4155	-0.5116	-0.4991	0.9014	0.8211	0.7975	-0.2762	0.7529
-0.6233	-0.041	9.4081	-0.1411	0.1613	0.036	-0.0212	0.2908	-1.0445	0.1466	0.4867	10.2364	-0.0923	0.4944	0.0591	0.5764	-0.2942	-0.7505	-9.9189	2.1551	-0.6901	-0.3455	0.8106	0.785	0.814	-0.2748	0.8065
-0.0747	0.3617	9.8213	0.0173	0.2843	0.2212	0.0303	0.3256	-1.057	0.5972	0.4841	9.8352	0.0032	0.2769	-0.1553	0.5764	-0.3002	-0.7565	-9.6315	1.7569	-0.5135	-0.285	0.9637	0.723	0.7965	-0.3152	0.7161
-0.0688	-0.1089	10.1192	0.1129	0.4993	0.1632	-0.0073	0.365	-1.0579	0.5329	0.7702	9.4839	0.286	0.096	0.0285	0.5524	-0.3002	-0.7505	-9.7448	1.5864	-0.5157	-0.0948	0.8702	0.8702	0.7818	-0.2762	0.7704
0.1638	-0.3368	9.6592	0.4228	0.5635	0.1607	0.0125	0.3459	-1.0406	0.3134	0.2551	9.9458	0.2847	0.1578	0.0281	0.5584	-0.2882	-0.7325	-9.7978	1.9278	-0.2875	-0.2529	1.0241	0.7532	0.7972	-0.2953	0.7523
-0.3767	0.3628	9.7576	0.2421	0.7751	0.2598	-0.0424	0.3672	-1.0432	0.1391	0.3699	9.8258	0.3723	0.3748	-0.0044	0.5644	-0.2762	-0.7505	-9.511	1.9845	-0.1106	-0.5113	0.9071	0.422	0.8141	-0.2744	0.8243
-0.2646	0.1934	9.2948	0.3325	0.8385	-0.0475	0.0324	0.3268	-1.0234	0.37	0.6575	9.9487	0.0931	0.4651	0.0274	0.5644	-0.2762	-0.7385	-9.287	1.8703	-0.2782	-0.5966	0.9035	0.6704	0.8293	-0.2755	0.7535
0.05	0.2419	10.0585	0.3044	0.9293	0.0778	-0.0408	0.3294	-1.0443	0.7158	0.0821	10.0113	-0.0318	0.5571	0.0891	0.5644	-0.2882	-0.7505	-9.7432	1.9277	-0.401	-0.4726	0.9645	0.6671	0.7821	-0.257	0.771
-0.079	0.3646	9.5877	0.1449	0.6837	-0.0177	0.0112	0.3258	-1.0748	0.5369	0.3109	9.6576	-0.2837	0.7701	-0.0029	0.5584	-0.3002	-0.7565	-9.6787	1.5867	0.0004	-0.1244	1.0219	0.903	0.7977	-0.3128	0.8405
-0.1331	-0.1642	9.8853	-0.1642	0.5884	0.1071	-0.0014	0.3491	-0.9746	0.1932	0.3115	9.6509	-0.3811	0.9853	-0.0344	0.5824	-0.2702	-0.7385	-9.9059	1.7576	-0.0036	0.0645	0.8377	1.0188	0.7657	-0.3138	0.8221
-0.3723	0.2432	9.9927	-0.0435	0.4371	0.0715	-0.0581	0.3113	-1.046	0.8243	0.4257	9.7222	-0.5987	1.0761	-0.0029	0.5524	-0.2942	-0.7565	-9.5718	1.8707	-0.3406	0.2242	0.8964	1.1681	0.8286	-0.3138	0.7523
-0.1343	-0.1051	9.8261	-0.0488	0.1624	0.0041	0.0125	0.3459	-1.0406	0.0819	0.3124	9.8245	-0.8451	1.1057	0.1213	0.5704	-0.2942	-0.7565	-9.2341	1.6426	-0.5063	0.3806	0.8043	1.2242	0.814	-0.2748	0.8065
-0.1942	-0.3385	9.828	-0.1118	0.1623	-0.1181	0.0133	0.327	-1.0412	0.5451	0.7155	10.128	-0.7246	1.1985	-0.0029	0.5704	-0.2882	-0.7385	-9.579	1.7566	-0.7414	0.3455	0.6843	1.1013	0.75	-0.2953	0.8046
-0.3797	0.2483	9.5839	-0.0491	0.1625	-0.0266	0.0303	0.3256	-1.057	0.1324	0.4258	9.4746	-0.5348	1.0161	0.12	0.5644	-0.2942	-0.7505	-9.6869	1.4726	-0.4575	-0.1465	0.835	1.2095	0.8129	-0.2953	0.7348
-0.4381	-0.336	9.6486	0.0198	0.4678	0.1637	-0.038	0.3117	-1.0114	0.0823	0.7153	9.8849	-0.9726	1.1942	-0.1858	0.5524	-0.2882	-0.7505	-9.6883	1.7569	-0.5145	-0.1812	0.8367	1.0876	0.8129	-0.3138	0.7698
-0.1979	0.0722	9.6477	0.0182	0.3147	0.2526	0.0094	0.3441	-1.091	0.1364	0.6569	9.71	-0.5039	1.0164	0.1198	0.5584	-0.2762	-0.7625	-9.5695	1.7001	-0.2263	-0.5888	0.9913	0.9167	0.8141	-0.256	0.7894
0.0477	-0.3396	9.8906	0.1716	0.409	0.0067	-0.0065	0.3461	-1.0584	0.1981	0.6578	9.9454	-0.8109	0.9832	0.214	0.5584	-0.2762	-0.7505	-9.857	1.3022	-0.4608	-0.6186	1.0822	0.949	0.7808	-0.3337	0.7685
-0.1984	-0.3356	9.5944	-0.0772	0.1918	0.1897	-0.0243	0.3664	-1.0421	0.3208	0.4294	10.3566	-0.7848	1.1046	-0.0634	0.5524	-0.2882	-0.7505	-9.3422	1.4724	-0.2223	-0.5253	1.204	0.9472	0.7975	-0.2946	0.7878
-0.3184	0.1891	9.6441	-0.0216	-0.0818	0.0293	-0.0076	0.3455	-1.0752	-0.2027	0.486	9.9369	-0.8145	1.0421	-0.0936	0.5704	-0.2762	-0.7565	-9.7951	1.3592	-0.1735	-0.2824	0.9015	0.8146	0.7818	-0.2946	0.8053
0.4058	0.2451	9.7729	-0.1148	-0.1133	0.0297	-0.0039	0.3089	-1.0429	0.4263	0.5997	9.891	-0.4978	0.7067	0.0602	0.5704	-0.2822	-0.7505	-9.7474	1.9844	-0.6298	-0.0637	0.9311	0.8697	0.7662	-0.2758	0.8056
-0.3769	0.4796	9.7562	-0.179	-0.236	-0.0029	-0.0248	0.3274	-1.0768	0.5972	0.4841	9.8352	-0.3126	0.6771	-0.0022	0.5644	-0.2822	-0.7385	-9.9178	2.0983	-0.6329	0.0588	0.8099	0.8344	0.7818	-0.2762	0.7704
-0.1926	0.0686	9.9397	0.0425	0.0409	0.0619	0.0327	0.269	-1.0587	0.3113	0.8299	9.8898	0.1602	0.1869	-0.0328	0.5704	-0.2942	-0.7565	-9.8483	1.0751	-0.0031	0.2488	0.9603	0.9528	0.8136	-0.2939	0.8059
-0.0761	-0.1621	9.7111	0.2072	0.6534	0.0731	-0.0248	0.3274	-1.0768	0.2047	0.0265	10.2355	0.88	-0.2051	0.2419	0.5644	-0.2942	-0.7565	-9.8619	1.9276	-0.6892	0.3096	0.8999	0.9198	0.7662	-0.2758	0.8056
-0.5542	-0.3388	9.8801	0.3927	0.686	0.0407	-0.0058	0.3272	-1.059	0.2559	0.3702	9.9452	1.1665	-0.5718	0.396	0.5524	-0.2942	-0.7445	-9.5751	2.0411	-0.5122	0.562	0.9283	1.0661	0.7657	-0.2953	0.7872
-0.0743	0.0115	9.8257	0.4881	0.9318	-0.0782	0.0303	0.3256	-1.057	0.365	0.3112	9.6543	1.0126	-0.6367	0.2437	0.5584	-0.2762	-0.7685	-9.7974	1.5866	-0.2878	0.6941	0.8635	1.3382	0.7806	-0.334	0.7507
-0.0775	0.0721	9.6498	0.5535	1.3001	-0.317	-0.0068	0.3266	-1.0758	0.5978	0.139	9.8336	1.2584	-0.5717	0.3033	0.5584	-0.3002	-0.7565	-9.738	1.9279	-0.1148	0.9075	0.7127	1.2384	0.8129	-0.3138	0.7698
-0.3708	-0.1077	10.0555	0.6472	1.2083	-0.0742	-0.0552	0.2936	-1.013	-0.095	0.6568	9.5884	1.07	-0.4509	0.2115	0.5764	-0.2822	-0.7565	-9.4623	1.7566	-0.5676	0.8196	0.497	1.4237	0.8306	-0.2546	0.843
-0.5067	0.4279	9.2292	0.5558	1.1454	0.1409	0.0303	0.3256	-1.057	0.8842	0.829	9.9008	0.7238	-0.1458	0.1503	0.5644	-0.2762	-0.7505	-9.4571	1.7568	-0.2814	0.9841	0.584	1.7267	0.8131	-0.3135	0.7875
-0.187	-0.1685	10.2346	0.2403	0.8681	-0.0457	-0.0032	0.29	-1.0434	0.481	0.8291	9.7759	0.4402	0.1293	0.1196	0.5644	-0.2882	-0.7565	-9.6315	1.7	-0.5135	0.9851	0.9188	1.7294	0.8138	-0.2751	0.7888
-0.2543	-0.3384	9.827	0.4869	0.8401	-0.0494	0.0306	0.3451	-1.0396	0.4239	0.0238	9.7126	0.3428	0.3127	-0.0039	0.5644	-0.3002	-0.7565	-9.1815	1.6424	-0.7341	1.1495	0.9753	2.0322	0.7808	-0.3521	0.8034
-0.314	0.0695	9.8792	0.4189	0.5037	-0.1174	-0.023	0.3091	-1.0607	0.5904	0.5976	9.4842	0.0325	0.4341	0.0894	0.5644	-0.2822	-0.7505	-9.4556	1.4156	-0.2244	1.0527	1.221	1.8834	0.8129	-0.3138	0.7698
-0.319	-0.1603	9.5901	0.482	0.3499	0.2476	0.0277	0.3628	-1.0726	0.2516	0.3116	9.7106	0.0303	0.4948	-0.0339	0.5584	-0.2882	-0.7565	-9.4048	1.984	-0.5091	0.7102	1.1913	1.832	0.7816	-0.3134	0.8224
-0.1393	-0.3349	9.5371	0.1102	0.3159	0.19	0.0283	0.3244	-1.0905	0.3067	0.2535	9.5943	-0.1205	0.3704	0.06	0.5524	-0.2882	-0.7445	-9.6862	1.757	-0.4	0.9608	1.2509	1.9171	0.7975	-0.2946	0.7878
-0.0721	-0.0483	9.9433	-0.0736	0.4057	0.1942	0.0136	0.3465	-1.0239	0.4858	0.6001	10.0092	-0.1881	0.648	0.0587	0.5644	-0.2882	-0.7505	-9.5694	1.6433	-0.2264	0.7127	1.0986	1.9233	0.814	-0.2748	0.8065
-0.6148	-0.0469	9.8753	0.1725	0.3471	0.1899	0.0298	0.364	-1.039	0.3028	0.6553	9.4204	0.06	0.5254	-0.0957	0.5704	-0.2942	-0.7625	-9.5203	1.9272	-0.6257	0.7748	0.8548	1.9502	0.7811	-0.333	0.8041
-0.3183	0.0724	9.6456	-0.0735	0.3749	0.2551	-0.0055	0.3467	-1.0417	0.4254	0.4844	9.8319	-0.0342	0.6493	0.0271	0.5584	-0.3002	-0.7625	-9.7996	1.6434	-0.4022	0.6843	0.7013	2.0439	0.7825	-0.2563	0.8065
-0.9198	-0.1603	9.6379	-0.01	0.4363	0.3171	-0.0021	0.2906	-1.0267	0.5913	0.7704	9.5436	-0.2534	0.7381	-0.1566	0.5644	-0.2882	-0.7625	-9.6328	1.9274	-0.5706	0.3055	0.7655	1.8099	0.7823	-0.2566	0.7887
-0.014	0.7111	9.8764	0.0503	0.4068	0.2235	-0.0001	0.2918	-0.9931	0.1984	0.4853	9.9446	-0.2543	0.8005	-0.0955	0.5644	-0.2882	-0.7565	-9.6263	1.7571	-0.2273	0.2431	0.6133	1.8106	0.7968	-0.3145	0.7517
-0.0825	0.6003	9.4096	0.1156	0.5598	0.3182	-0.007	0.3071	-1.0932	0.4257	0.2544	9.8308	-0.2205	0.7092	0.0278	0.5584	-0.2942	-0.7565	-9.4024	1.6998	-0.3949	-0.1353	0.5249	1.6061	0.7969	-0.333	0.7866
-0.4913	0.0091	10.0519	-0.0714	0.4971	0.2577	-0.0246	0.3469	-1.0595	0.1466	0.4867	10.2364	-0.2816	0.6459	-0.0637	0.5584	-0.2882	-0.7625	-9.1778	1.9838	-0.5049	-0.0438	0.678	1.5431	0.8296	-0.3121	0.8412
-0.4412	-0.3338	9.4734	-0.1633	0.5265	0.2903	-0.0418	0.3288	-1.0611	0.2553	0.7153	9.9468	-0.2516	0.7086	-0.0027	0.5644	-0.2822	-0.7625	-9.7932	1.5299	-0.0589	0.0086	0.652	1.2341	0.7809	-0.3333	0.7863
-0.1961	0.3042	9.7615	-0.139	0.1912	0.1904	0.0141	0.3081	-1.0418	0.0828	0.4277	9.8836	-0.0036	0.6811	0.0882	0.5704	-0.2882	-0.7325	-9.5748	1.7568	-0.5124	-0.0899	0.6546	1.0527	0.8121	-0.3525	0.7508
-0.0155	0.304	9.7647	-0.3572	0.0668	0.1905	0.0319	0.2879	-1.0582	0.1987	0.3128	9.9439	-0.187	0.6177	0.1203	0.5584	-0.2882	-0.7445	-9.2344	1.8701	-0.5061	-0.2765	0.6854	1.0278	0.7498	-0.2956	0.7869
-0.3753	0.1286	9.819	-0.3294	-0.0546	0.0952	-0.0215	0.3487	-1.0092	0.6518	0.8286	9.7207	-0.3758	0.738	-0.0329	0.5644	-0.3002	-0.7625	-9.3949	1.5864	0.0057	-0.1022	0.6298	0.6534	0.7808	-0.3337	0.7685
-0.1336	0.186	9.8809	-0.2372	-0.0843	0.0934	-0.022	0.3097	-1.0439	0.7757	0.4854	10.19	-0.4725	0.8586	-0.2482	0.5704	-0.2822	-0.7505	-9.2305	2.0978	-0.277	-0.2046	0.5733	0.3487	0.8282	-0.3518	0.7689
-0.255	0.1285	9.8211	-0.3564	0.0972	0.2219	-0.0441	0.3081	-1.112	0.5397	0.6567	9.8348	-0.5938	0.8282	-0.0629	0.5644	-0.3002	-0.7445	-9.4583	1.8705	-0.3386	0.0909	0.58	-0.121	0.8122	-0.3522	0.7685
-0.1336	0.186	9.8809	-0.4485	0.1269	0.2237	-0.0078	0.326	-1.0926	0.5997	1.0025	10.0132	-0.1214	0.401	0.0291	0.5704	-0.2762	-0.7505	-10.0235	1.6438	-0.2347	0.0276	0.4283	-0.151	0.7816	-0.295	0.7875
0.1683	0.2432	9.9438	-0.2891	0.4647	0.1675	-0.0233	0.2896	-1.078	0.3124	0.8302	9.9484	0.3153	0.1896	0.0892	0.5704	-0.2822	-0.7565	-10.0261	1.2456	-0.4067	0.0816	0.6148	-0.4277	0.8453	-0.2936	0.7888
-0.2491	0.4743	10.1671	-0.1612	0.7102	0.202	0.012	0.3843	-1.0227	0.4805	0.4263	9.7156	0.5031	0.0363	0.0276	0.5704	-0.3002	-0.7385	-9.6335	1.643	-0.628	0.1475	0.674	-0.3063	0.7818	-0.3131	0.8402
-0.1425	0.4836	9.41	-0.222	0.863	0.0523	0.0494	0.3254	-1.0392	0.3072	-0.0341	9.593	0.5324	0.13	0.0883	0.5584	-0.2822	-0.7505	-9.7476	2.155	-0.6297	-0.3091	0.7616	-0.0461	0.7654	-0.3145	0.7866
-0.0767	0.2464	9.706	-0.0322	1.0168	0.2377	-0.0581	0.3113	-1.046	0.303	0.5403	9.4199	0.5661	0.0069	0.1196	0.5764	-0.2822	-0.7505	-9.8552	1.5867	-0.3461	-0.4293	1.0341	0.0518	0.814	-0.2748	0.8065
-0.1361	0.4792	9.7604	0.0564	0.8349	0.1404	0.0123	0.3264	-1.058	0.4171	0.8277	9.4234	0.3168	0.1281	0.1203	0.5524	-0.2882	-0.7445	-9.4609	1.4723	-0.5106	-0.7633	1.0005	0.2767	0.7659	-0.3134	0.8399
-0.5579	0.0136	9.7005	-0.0034	0.8334	0.3257	-0.0037	0.3284	-1.0255	0.2525	0.4269	9.7697	-0.0289	0.402	0.0285	0.5644	-0.2882	-0.7565	-9.7468	1.5294	-0.6302	-0.8262	1.0009	0.2478	0.7813	-0.2957	0.752
0.0512	0.1828	10.1176	0.1182	0.8355	0.1397	0.0167	0.271	-1.0262	0.3714	0.4853	10.0065	-0.1236	0.5571	0.1818	0.5824	-0.2942	-0.7385	-9.4625	1.9272	-0.5674	-0.8553	1	0.3101	0.798	-0.2751	0.8062
0.224	-0.3369	9.6602	0.2392	0.6225	0.2258	-0.0202	0.2914	-1.0277	0.5951	0.4261	9.7178	-0.2525	0.7392	-0.0336	0.5644	-0.2762	-0.7385	-9.9166	1.9278	-0.5758	-0.7293	1.0905	0.3685	0.7654	-0.3145	0.7866
-0.198	0.1306	9.647	0.1464	0.6524	0.1661	-0.0011	0.2912	-1.0099	0.2545	0.5425	9.8874	-0.2851	0.832	-0.0033	0.5704	-0.2942	-0.7505	-9.6897	2.0981	-0.5715	-0.546	0.9088	0.3002	0.7655	-0.2957	0.7694
-0.1388	0.0729	9.5903	0.2369	0.4081	0.3442	-0.0238	0.328	-1.0601	0.2593	0.3134	10.1207	-0.154	0.5255	0.1514	0.5764	-0.2822	-0.7565	-9.514	1.8706	-0.2824	-0.7032	0.7271	0.2419	0.8457	-0.2372	0.7373
-0.4985	-0.1608	9.6453	0.0761	0.1631	0.1256	-0.0586	0.3497	-1.028	0.2538	0.945	9.8892	0.0303	0.5583	0.1501	0.5704	-0.3002	-0.7565	-9.2898	1.6427	-0.4501	-0.6367	0.9992	0.365	0.8302	-0.2553	0.8075
-0.1384	0.5974	9.6421	0.021	0.5596	0.1349	0.0321	0.3073	-1.0408	0.2535	0.4847	9.8286	-0.0322	0.6201	0.2116	0.5644	-0.3002	-0.7325	-9.7443	1.1883	-0.516	-0.85	0.8756	0.4934	0.8124	-0.3518	0.7863
-0.3206	0.249	9.5266	0.1136	0.4991	0.2247	-0.0068	0.3266	-1.0758	0.9448	0.1967	10.0162	-0.2443	0.4004	0.0912	0.5464	-0.2942	-0.7625	-9.1766	1.8701	-0.4478	-1.3765	1.1194	0.4803	0.798	-0.2751	0.8062
-0.3162	0.1293	9.7616	0.0822	0.4682	0.2244	0.0311	0.3067	-1.0576	0.0693	0.5972	9.1814	-0.3123	0.7092	0.1205	0.5584	-0.3002	-0.7625	-9.7451	1.8139	-0.5155	-1.5255	1.1775	0.6696	0.8134	-0.2943	0.7882
-0.7354	0.1284	9.871	0.1732	0.4083	0.1605	-0.022	0.3097	-1.0439	0.3195	0.5442	10.2986	-0.3177	0.9247	0.0271	0.5764	-0.2942	-0.7445	-9.3524	2.0975	-0.7369	-1.5709	1.0624	0.2091	0.797	-0.3326	0.8044
-0.1355	0.0123	9.7663	0.0447	0.1323	0.1253	0.0303	0.3256	-1.057	0.484	0.312	9.8908	-0.6898	1.0769	0.182	0.5584	-0.2882	-0.7385	-9.859	2.1552	-0.5173	-1.6009	1.0619	0.2408	0.7977	-0.2943	0.8056
-0.0742	-0.0468	9.8265	-0.1718	0.0379	0.249	-0.0058	0.3272	-1.059	0.4236	0.1963	9.7134	-0.6616	1.1691	0.0891	0.5464	-0.2882	-0.7625	-9.6889	2.2687	-0.5141	-1.7316	0.9736	0.0289	0.7963	-0.3525	0.7682
0.224	0.4211	9.7091	-0.1114	-0.084	0.3071	-0.0045	0.3473	-1.0249	0.4871	0.4853	10.0673	-0.5938	0.8918	0.1211	0.5704	-0.2762	-0.7565	-9.7439	1.7002	-0.4584	-1.6092	1.0963	-0.0353	0.7818	-0.2762	0.7704
-0.1362	0.5376	9.7597	-0.1083	0.1608	0.2201	-0.022	0.3097	-1.0439	0.6458	0.4244	9.3674	-0.3429	0.7091	0.1514	0.5764	-0.2882	-0.7385	-9.69	2.2687	-0.5713	-1.5568	1.0703	-0.3443	0.7811	-0.3145	0.7691
-0.437	-0.3367	9.707	-0.1701	0.0987	0.3118	-0.0034	0.3479	-1.0081	0.03	1.0042	10.178	-0.1522	0.4643	0.2132	0.5704	-0.2882	-0.7505	-9.7983	2.3259	-0.2872	-1.5626	1.012	-0.529	0.814	-0.2748	0.8065
0.1053	0.77	9.8194	-0.0748	0.3139	0.223	-0.0202	0.2914	-1.0277	0.3128	0.6001	9.9473	-0.0313	0.5259	0.0585	0.5524	-0.2942	-0.7625	-9.7985	1.5866	-0.345	-1.5875	1.1616	-0.3427	0.8129	-0.3138	0.7698
-0.5531	0.3601	9.9881	0.0183	0.4377	0.0708	-0.0058	0.3272	-1.059	0.4289	0.3701	10.0071	-0.2454	0.4625	0.1216	0.5464	-0.3002	-0.7625	-9.5745	1.5293	-0.5126	-1.7396	1.0993	-0.2464	0.829	-0.3316	0.8228
-0.3171	0.0133	9.7047	0.0807	0.2842	0.3742	-0.0225	0.3481	-1.0259	0.3171	0.6587	10.1819	-0.3128	0.7404	0.1511	0.5464	-0.2942	-0.7685	-9.466	1.3583	-0.7968	-1.6188	1.0398	-0.3427	0.7813	-0.3326	0.8218
-0.4939	0.3608	9.9307	0.0175	0.315	0.1911	0.0143	0.3276	-1.0245	0.3599	0.7702	9.422	-0.4989	0.7688	0.0905	0.5644	-0.3002	-0.7445	-9.5254	1.8133	-0.912	-1.5877	1.0703	-0.3434	0.7818	-0.2946	0.8053
-0.3189	-0.2187	9.5908	0.0461	0.3162	-0.0245	0.0117	0.3648	-1.0401	0.4271	0.7725	9.9503	-0.7482	0.8264	-0.0927	0.5644	-0.2942	-0.7505	-9.6837	2.269	-0.228	-1.5463	1.1263	-0.0062	0.7984	-0.2559	0.8068
-0.2507	0.1256	10.0547	0.1084	0.2859	0.0663	-0.0047	0.3278	-1.0423	0.4298	0.4854	10.0662	-0.7477	0.8587	0.0607	0.5764	-0.2762	-0.7385	-9.7403	2.1553	-0.2291	-1.4913	1.3124	-0.2522	0.83	-0.2741	0.8246
-0.316	-0.0458	9.7638	0.2016	0.2251	0.2176	-0.0034	0.3479	-1.0081	0.1994	0.5431	10.0035	-0.6857	0.7964	-0.0622	0.5584	-0.2942	-0.7625	-9.6894	1.8137	-0.5717	-1.1464	1.2191	-0.1096	0.7973	-0.2765	0.7351
-0.3163	0.1877	9.7609	0.1372	0.164	0.0633	0.0143	0.3276	-1.0245	0.5943	0.2533	9.6584	-0.3172	0.8935	-0.0035	0.5704	-0.2882	-0.7385	-9.5253	1.6995	-0.9121	-0.895	1.187	0.0055	0.7652	-0.3333	0.8037
-0.5571	0.2463	9.7559	0.1717	0.3782	0.0676	0.0301	0.3061	-1.0743	0.5416	0.1394	9.8911	-0.3749	0.6756	-0.094	0.5644	-0.2942	-0.7505	-9.566	2.269	0.0031	-0.9878	1.2174	0.0086	0.7974	-0.3135	0.805
-0.252	0.3014	9.9941	0.2348	0.4397	0.0989	0.0143	0.3276	-1.0245	0.8245	0.3107	9.7216	-0.3436	0.7083	0.0593	0.5704	-0.2822	-0.7505	-9.4618	2.2116	-0.51	-0.7698	1.034	0.062	0.8138	-0.2936	0.8237
-0.1296	0.3581	10.1123	0.0503	0.4683	0.1325	0.0133	0.327	-1.0412	0.1402	0.3701	9.8844	-0.2822	0.7086	0.0282	0.5584	-0.2942	-0.7625	-9.4644	1.7565	-0.682	-0.6192	1.1884	-0.0949	0.7801	-0.3535	0.7324
-0.1357	0.1874	9.7641	0.1702	0.1942	0.2174	-0.0076	0.3455	-1.0752	0.4233	0.4264	9.7144	-0.2815	0.6777	0.0283	0.5584	-0.3002	-0.7565	-9.2932	1.8132	-0.6216	-0.7411	1.2179	-0.0295	0.7818	-0.2762	0.7704
-0.0728	-0.281	9.8878	0.014	0.2241	0.0047	-0.0248	0.3274	-1.0768	0.5409	0.5995	9.8932	-0.4716	0.8916	-0.0333	0.5584	-0.2762	-0.7625	-9.8569	2.0984	-0.4029	-1.0159	1.2465	0.1018	0.7962	-0.3529	0.7504
-0.3128	-0.048	9.939	0.0474	0.3157	0.0985	-0.0053	0.3662	-1.0243	0.3063	0.5411	9.5956	-0.7812	1.0139	0.1522	0.5704	-0.2882	-0.7385	-9.4625	1.9272	-0.5674	-1.0531	1.3408	-0.1114	0.7659	-0.295	0.805
-0.195	0.2451	9.8207	0.016	0.2848	0.0982	0.0303	0.3256	-1.057	0.5988	0.8872	9.9541	-0.9427	1.257	-0.1249	0.5764	-0.2942	-0.7505	-9.688	1.5294	-0.5147	-1.2679	1.3703	-0.0433	0.7962	-0.3713	0.7854
-0.1877	0.3567	10.228	-0.0189	0.1016	0.0024	0.0112	0.3258	-1.0748	0.1927	0.599	9.6522	-1.1312	1.4412	-0.0634	0.5584	-0.2942	-0.7565	-9.5212	1.7566	-0.6831	-1.2647	1.4907	0.0498	0.8136	-0.2939	0.8059
-0.3214	0.0162	9.4711	-0.0212	-0.1743	0.2118	-0.0055	0.3467	-1.0417	0.4318	0.601	10.1839	-0.9766	1.4433	-0.0029	0.5644	-0.2762	-0.7445	-9.7442	1.9276	-0.4582	-1.3025	1.4025	-0.1649	0.8136	-0.2939	0.8059
-0.3767	0.3628	9.7576	-0.0217	-0.1433	0.1202	-0.0392	0.2916	-1.0455	-0.0257	0.0841	10.1727	-0.7854	1.1355	-0.0636	0.5704	-0.2942	-0.7385	-9.3323	1.8709	0.3503	-1.2689	1.3403	-0.0742	0.7802	-0.3532	0.7501
-0.32	0.54	9.5813	-0.111	0.0389	0.156	-0.0395	0.3495	-1.0102	0.5954	0.2535	9.717	-0.687	0.8582	-0.0625	0.5584	-0.2882	-0.7445	-9.3997	2.0411	-0.2229	-1.3994	1.3129	-0.2856	0.7815	-0.3138	0.8047
-0.1896	0.1831	10.1134	-0.017	0.1931	0.0352	0.0128	0.2881	-1.076	0.7164	0.3699	10.0712	-0.4062	0.7382	0.0287	0.5584	-0.2942	-0.7565	-9.9168	2.0984	-0.5756	-1.5831	1.3728	-0.2182	0.8292	-0.3128	0.8056
-0.316	-0.0458	9.7638	-0.1712	0.1299	0.1587	0.0313	0.3262	-1.0402	0.5378	0.4262	9.7167	-0.6845	0.7978	0.0915	0.5704	-0.2942	-0.7505	-9.97	1.7574	-0.4053	-1.4281	1.4338	-0.2224	0.782	-0.2758	0.7881
-0.1367	0.1298	9.7064	-0.2006	0.2213	0.1611	-0.006	0.3077	-1.0764	0.075	0.4834	9.4738	-0.5936	0.7967	-0.1242	0.5704	-0.2942	-0.7565	-9.6247	2.1552	-0.1125	-1.3948	1.2803	-0.1324	0.797	-0.3326	0.8044
-0.5611	0.0742	9.5245	0.0469	0.2851	0.0979	0.0133	0.327	-1.0412	0.3612	0.6555	9.4801	-0.7847	1.1364	0.0286	0.5704	-0.2822	-0.7445	-9.8526	2.0417	-0.174	-0.8711	1.0379	-0.2115	0.8297	-0.2933	0.824
-0.1946	-0.0467	9.8243	-0.0215	-0.1126	0.0901	-0.0076	0.3455	-1.0752	-0.031	0.6007	9.9407	-0.9693	1.1033	-0.0009	0.5584	-0.3002	-0.7445	-9.3404	1.6999	-0.1077	-0.2779	0.8529	-0.0463	0.797	-0.3326	0.8044
-0.6761	0.7703	9.864	-0.2382	-0.1454	0.0921	-0.0052	0.2889	-1.077	0.8284	0.5993	9.9573	-1.0379	1.3161	-0.309	0.5644	-0.2942	-0.7565	-9.4675	2.5526	-0.7959	-0.3103	0.9755	-0.1058	0.7826	-0.2375	0.7894
0.0414	0.3645	9.5899	-0.3306	-0.2079	0.2149	-0.0052	0.2889	-1.077	0.3715	0.4278	10.0062	-0.752	0.9803	-0.1551	0.5704	-0.3002	-0.7565	-9.9143	1.7572	-0.4614	-0.2112	0.8812	0.1055	0.765	-0.3337	0.786
0.1127	-0.0515	10.18	-0.3004	-0.2074	0.153	0.0295	0.3445	-1.0564	0.3162	0.5434	10.1228	-0.5346	0.9528	-0.0333	0.5824	-0.2882	-0.7625	-9.632	2.0981	-0.5132	-0.1785	0.8194	0.1655	0.7975	-0.2946	0.7878
-0.0769	0.4215	9.7038	-0.2026	0.0376	0.2494	0.0112	0.3258	-1.0748	0.0792	0.5995	9.7086	-0.3771	0.768	-0.1253	0.5524	-0.2822	-0.7565	-9.6896	1.9844	-0.5716	-0.548	0.8488	0.2383	0.7818	-0.2946	0.8053
-0.3715	-0.3405	10	-0.1703	0.2219	0.0992	-0.0782	0.3109	-1.0805	-0.0888	0.2555	9.8795	-0.4326	0.553	0.0914	0.5704	-0.2882	-0.7505	-9.802	1.9277	-0.5165	-0.2389	1.0016	0.1995	0.7482	-0.3542	0.7317
-0.0724	0.1851	9.9403	-0.3222	0.373	0.1044	0.0123	0.3264	-1.058	0.3714	0.4853	10.0065	-0.0019	0.5245	-0.126	0.5584	-0.2822	-0.7325	-9.9123	1.8711	-0.3469	-0.3349	0.9115	0.1095	0.7659	-0.2765	0.77
-0.5014	0.4243	9.5212	-0.0734	0.4979	0.0732	-0.0607	0.3485	-1.0616	0.2524	0.4844	9.77	-0.2177	0.5859	0.0592	0.5524	-0.3002	-0.7565	-9.4534	2.0982	-0.0522	-0.4336	0.8533	-0.0724	0.7971	-0.3511	0.8393
-0.1391	0.3063	9.5874	-0.1635	0.6497	0.0777	-0.0243	0.289	-1.0948	0.3659	0.484	9.7136	-0.4071	0.7371	-0.0942	0.5764	-0.2942	-0.7445	-9.577	1.8704	-0.6268	-0.3765	0.8251	-0.228	0.8133	-0.3131	0.8053
-0.0135	0.3609	9.8808	-0.1955	0.6191	0.0159	0.0136	0.2692	-1.0765	0.3641	0.1959	9.5952	-0.5015	0.8607	-0.0022	0.5524	-0.3002	-0.7565	-9.2902	1.9271	-0.4498	-0.1653	0.8582	-0.4184	0.8116	-0.3905	0.7673
0.405	0.1291	9.7159	-0.3877	0.1279	0.1307	-0.024	0.3085	-1.0774	-0.0359	0.2543	9.6463	-0.7855	1.0719	-0.2476	0.5644	-0.2942	-0.7565	-9.4049	2.0409	-0.5091	-0.1339	1.0104	-0.4181	0.7963	-0.3525	0.7682
-0.3229	-0.3908	9.3594	-0.2023	0.0989	0.1892	-0.0199	0.3109	-1.0103	0.3145	0.8882	10.0658	-0.818	1.2282	-0.0332	0.5584	-0.2942	-0.7445	-9.405	2.1547	-0.509	-0.1615	1.1612	-0.3239	0.7972	-0.2953	0.7523
-0.1344	-0.0468	9.8254	-0.3614	-0.0852	0.0334	-0.0202	0.2914	-1.0277	0.2536	0.4272	9.8283	-0.7886	1.2267	-0.2178	0.5584	-0.2882	-0.7505	-9.3989	1.4156	-0.2234	-0.0665	1.2517	-0.2646	0.7987	-0.2368	0.8075
-0.1376	0.0138	9.6495	-0.3952	-0.2382	-0.0002	-0.0058	0.3272	-1.059	0.4296	0.6005	10.0667	-0.787	1.197	-0.0947	0.5644	-0.2882	-0.7505	-9.5773	2.0979	-0.6266	-0.069	1.0395	-0.3276	0.8612	-0.2933	0.7891
-0.3741	0.0112	9.8788	-0.2392	-0.2065	0.0908	-0.0052	0.2889	-1.077	0.0258	0.2553	9.8817	-0.565	0.9531	0.0284	0.5524	-0.2942	-0.7385	-9.7991	2.0984	-0.3446	0.1777	1.0401	-0.3657	0.8292	-0.3128	0.8056
-0.3121	0.1847	9.9945	-0.1408	0.1612	0.0668	-0.0212	0.2908	-1.0445	0.1438	0.1984	10.0594	-0.437	0.7061	-0.0631	0.5584	-0.2882	-0.7625	-9.6295	1.7569	-0.399	0.2061	0.8279	-0.4297	0.8131	-0.3135	0.7875
-0.3742	0.0695	9.8781	0.0768	0.2243	0.0962	0.0295	0.3445	-1.0564	0.1361	0.8294	9.7108	-0.1247	0.6192	0.2122	0.5644	-0.2702	-0.7445	-10.2023	1.8143	-0.6955	0.2761	1.007	-0.1846	0.829	-0.2947	0.7529
-0.3207	0.3073	9.5258	-0.0162	0.162	0.1575	0.0102	0.3252	-1.0916	-0.0286	0.4862	10.0574	-0.1862	0.5553	0.0592	0.5644	-0.2822	-0.7385	-9.7448	1.5864	-0.5157	0.2373	0.8888	-0.4302	0.7661	-0.2946	0.8227
-0.0821	0.3085	9.4133	-0.1359	0.436	0.1034	-0.0217	0.3292	-1.0265	0.0239	0.7151	9.8252	-0.2161	0.4607	-0.0937	0.5644	-0.2882	-0.7445	-9.7998	1.8709	-0.402	0.1547	0.8839	-0.0897	0.7972	-0.3138	0.7872
-0.08	0.307	9.5301	-0.234	0.222	-0.0845	-0.0235	0.3475	-1.0427	0.6563	0.7721	9.9547	-0.3769	0.7683	-0.0945	0.5584	-0.3002	-0.7685	-9.6326	1.7568	-0.5707	-0.1219	0.9134	-0.0198	0.8128	-0.3511	0.8219
-0.3787	0.2476	9.6423	-0.1996	0.2209	0.2533	-0.0588	0.3302	-1.0454	0.6041	0.3131	10.1859	-0.4381	0.7683	-0.0327	0.5704	-0.2762	-0.7505	-9.8029	1.8139	-0.5738	-0.1576	0.9156	-0.1723	0.7659	-0.2765	0.77
-0.3793	-0.1019	9.5883	-0.3598	-0.0859	0.1872	0.0298	0.2867	-1.0917	0.4201	0.3106	9.5382	-0.5949	0.9221	0.0595	0.5584	-0.3062	-0.7505	-9.3963	1.8707	-0.0514	-0.2225	0.856	-0.2631	0.7967	-0.3518	0.8038
-0.5537	0.0691	9.9333	-0.5136	0.0661	0.0079	0.0123	0.3264	-1.058	0.1383	0.1971	9.7665	-0.661	1.1064	-0.0027	0.5764	-0.2822	-0.7565	-9.6284	1.757	-0.3418	-0.1334	0.8578	-0.3886	0.829	-0.2947	0.7529
-0.2626	0.3087	9.4101	-0.3925	-0.1777	0.1548	-0.0204	0.272	-1.0451	0.4244	0.3691	9.7728	-0.5676	1.0449	-0.0643	0.5704	-0.2822	-0.7385	-9.6326	1.8137	-0.5707	-0.1929	1.0395	-0.3239	0.8293	-0.2755	0.7535
-0.3057	0.1803	10.3449	-0.3942	-0.1771	0.0011	-0.0392	0.2916	-1.0455	0.5401	0.3692	9.8336	-0.565	0.9213	-0.0636	0.5464	-0.3062	-0.7625	-9.5747	1.6999	-0.5125	-0.0387	1.1313	-0.3585	0.8137	-0.3124	0.8409
0.0438	0.1879	9.7089	-0.3044	-0.3902	0.0569	-0.0212	0.2908	-1.0445	1.0047	0.6	10.1949	-0.2811	0.6465	-0.0022	0.5644	-0.2882	-0.7745	-9.7464	2.0413	-0.5726	-0.0332	1.0982	-0.1746	0.7811	-0.3145	0.7691
-0.0708	-0.1658	10.0031	-0.2374	-0.1764	0.2144	-0.0037	0.3284	-1.0255	0.6563	0.7721	9.9547	-0.1851	0.4931	0.0289	0.5584	-0.2882	-0.7505	-9.518	1.6998	-0.5114	-0.0676	0.8865	-0.2674	0.7982	-0.2748	0.824
-0.5534	-0.1644	9.9363	-0.1419	-0.0229	0.2473	0.0327	0.269	-1.0587	0.3658	0.5415	9.7139	-0.1232	0.4623	-0.0328	0.5644	-0.2942	-0.7445	-9.9719	1.6435	-0.5198	-0.1932	0.9177	-0.3249	0.7972	-0.2953	0.7523
-0.1904	0.0087	10.0572	-0.3597	-0.0244	0.0962	-0.0372	0.2928	-1.012	0.5389	0.4264	9.7752	-0.3738	0.7088	0.1516	0.5704	-0.3002	-0.7505	-9.9154	1.8709	-0.5186	-0.0817	1.1978	-0.7562	0.765	-0.3337	0.786
-0.0132	0.1274	9.8837	-0.2656	0.1605	-0.0547	-0.006	0.3077	-1.0764	0.2498	0.714	9.6539	-0.3764	0.8007	0.0589	0.5704	-0.2822	-0.7625	-9.9721	1.7573	-0.5197	-0.1136	0.8935	-0.7577	0.7652	-0.3148	0.7688
-0.0703	0.1837	10.0571	-0.3883	0.0973	0.13	-0.0058	0.3272	-1.059	0.198	0.0825	9.8842	-0.6251	0.8591	-0.0322	0.5584	-0.3002	-0.7445	-9.8503	1.8143	-0.0597	-0.2065	0.8934	-0.7549	0.7813	-0.2957	0.752
-0.3827	0.0754	9.4109	-0.3628	-0.1462	0.0014	0.0131	0.3075	-1.0586	0.4776	0.8859	9.6005	-0.629	1.1082	0.1507	0.5524	-0.3002	-0.7625	-9.6336	1.7568	-0.6279	-0.5391	1.0115	-0.4982	0.798	-0.2566	0.7713
0.0456	0.4199	9.8227	-0.3039	-0.2982	-0.0334	0.0494	0.3254	-1.0392	-0.0305	0.3131	9.9394	-0.6328	1.1668	-0.1876	0.5644	-0.2942	-0.7445	-9.6847	1.4158	-0.3431	-0.4779	1.1033	-0.53	0.8293	-0.294	0.7885
-0.4366	0.1295	9.7595	-0.2997	-0.1461	0.1236	0.0123	0.3264	-1.058	0.1904	0.656	9.5353	-0.8497	1.2903	0.028	0.5644	-0.2822	-0.7445	-9.6333	2.3255	-0.5703	-0.5698	1.4076	-0.5248	0.7655	-0.2957	0.7694
-0.0786	0.0728	9.5914	-0.4579	-0.3922	0.151	-0.0426	0.3477	-1.0605	0.3727	0.3705	10.0646	-0.5998	1.1064	-0.0645	0.5584	-0.2762	-0.7505	-9.8544	1.7573	-0.2887	-0.6928	1.3767	-0.4906	0.7979	-0.2755	0.7885
-0.2542	0.3028	9.8773	-0.3948	-0.3306	0.1823	0.0313	0.3262	-1.0402	0.1987	0.9457	10.0053	-0.4745	1.0468	0.0273	0.5704	-0.2702	-0.7385	-9.5171	1.8705	-0.4541	-0.6887	1.1919	-0.3386	0.7823	-0.2566	0.7887
-0.2588	-0.1604	9.5912	-0.3307	-0.1156	0.0632	-0.0622	0.3862	-1.0604	0.4887	0.8309	10.186	-0.4421	0.9855	0.0582	0.5524	-0.2942	-0.7565	-9.6304	1.7	-0.4563	-0.2208	1.099	-0.2304	0.7816	-0.2765	0.7526
-0.2529	0.1854	9.9372	-0.386	0.0964	0.3452	-0.0248	0.3274	-1.0768	0.3104	0.7146	9.8307	-0.4405	0.924	0.0893	0.5584	-0.2822	-0.7445	-9.7398	1.7572	-0.2294	-0.0333	1.0678	-0.1748	0.8302	-0.2737	0.8424
-0.1379	0.1889	9.6473	-0.2684	-0.0844	0.063	0.0151	0.3087	-1.0251	-0.0857	0.3713	10.0558	-0.3776	0.831	-0.0027	0.5584	-0.2762	-0.7685	-9.1767	1.9838	-0.4477	-0.0715	0.8578	-0.3905	0.7815	-0.3138	0.8047
-0.0759	0.4208	9.7622	-0.3041	-0.3904	0.0876	0.0303	0.3256	-1.057	0.0195	0.7141	9.5909	-0.5035	0.9852	0.0893	0.5524	-0.3002	-0.7445	-9.8629	1.8707	-0.7465	-0.0724	0.8582	-0.4212	0.7816	-0.295	0.7875
-0.3728	0.5933	9.9883	-0.5172	-0.3016	0.246	-0.0238	0.328	-1.0601	0.1394	0.1973	9.8251	-0.7227	1.0422	-0.1863	0.5584	-0.3002	-0.7565	-9.859	2.0983	-0.5174	-0.1961	0.9191	-0.417	0.8287	-0.3323	0.7873
-0.0796	0.0735	9.533	-0.4569	-0.3926	0.2433	0.0105	0.3447	-1.0742	0.7142	0.3694	9.954	-0.6621	1.1685	0.0277	0.5584	-0.2942	-0.7505	-9.4559	1.5863	-0.2243	-0.1921	0.9782	-0.2937	0.7813	-0.2957	0.752
-0.1433	0.3093	9.3538	-0.5145	-0.1797	0.3101	0.0318	0.3652	-1.0055	0.2562	0.1976	9.9444	-0.7577	1.2589	-0.126	0.5584	-0.3002	-0.7625	-9.2347	2.0976	-0.5059	-0.2933	1.0125	-0.567	0.7969	-0.333	0.7866
-0.437	0.4213	9.7558	-0.3962	-0.4531	0.2412	-0.0202	0.2914	-1.0277	0.315	0.6006	10.0645	-0.6685	1.4144	-0.1274	0.5764	-0.3002	-0.7685	-9.6263	1.7002	-0.2273	-0.3467	1.039	-0.2886	0.8136	-0.2755	0.771
-0.0735	0.2442	9.8812	-0.5187	-0.2394	0.0013	-0.0217	0.3292	-1.0265	0.2573	0.1979	10.003	-0.574	1.3226	-0.1274	0.5644	-0.3002	-0.7565	-9.6891	1.5294	-0.5719	-0.2875	1.0707	-0.3823	0.8134	-0.2943	0.7882
-0.3741	0.0112	9.8788	-0.5131	-0.0572	0.2512	0.0295	0.3445	-1.0564	0.3711	0.6578	10.0073	-0.38	0.9232	-0.0647	0.5884	-0.2942	-0.7505	-9.5177	1.4724	-0.5116	-0.1698	0.9213	-0.5714	0.8138	-0.2751	0.7888
-0.1366	0.0131	9.7079	-0.3582	0.0672	0.0982	-0.022	0.3097	-1.0439	-0.0329	0.4277	9.8228	-0.3744	0.7397	0.1514	0.5764	-0.2822	-0.7505	-9.6348	1.8705	-0.6851	-0.3788	0.9785	-0.3189	0.765	-0.3152	0.751
0.0379	0.6001	9.4117	-0.2932	0.2203	0.1622	-0.0269	0.3262	-1.1104	0.5406	0.0816	9.8323	-0.1553	0.5556	0.0591	0.5704	-0.2822	-0.7565	-9.5266	1.927	-0.9691	-0.261	0.8595	-0.5077	0.8128	-0.3326	0.7869
-0.3184	0.1891	9.6441	-0.2917	0.2505	0.2551	0.0143	0.3276	-1.0245	0.1998	0.313	10.0024	0.0028	0.3717	0.0592	0.5524	-0.2942	-0.7445	-9.5698	1.9276	-0.2261	-0.1801	0.9261	-0.909	0.798	-0.2751	0.8062
-0.4942	-0.2221	9.8797	-0.2651	0.191	-0.054	-0.023	0.3091	-1.0607	0.4855	0.0822	9.9483	-0.1815	0.3707	0.1525	0.5584	-0.3002	-0.7505	-9.8623	1.4157	-0.7468	-0.1068	0.9513	-0.5423	0.8136	-0.2939	0.8059
-0.0161	-0.0455	9.7107	-0.2289	0.3122	0.2557	0.0321	0.3073	-1.0408	0.2545	0.5425	9.8874	-0.2148	0.4943	0.1827	0.5584	-0.2882	-0.7445	-10.0873	2.3261	-0.5786	-0.4826	0.8007	-0.6552	0.798	-0.2751	0.8062
-0.1994	-0.3348	9.536	-0.608	-0.0572	0.0371	-0.0418	0.3288	-1.0611	0.5421	0.4847	9.9512	-0.4093	0.8613	-0.0335	0.5764	-0.2762	-0.7625	-9.6892	1.6431	-0.5718	-0.3625	1.1073	-0.81	0.8124	-0.3518	0.7863
0.1699	-0.1661	10.0074	-0.3319	-0.1459	0.001	-0.0197	0.3304	-0.993	0.2523	0.5419	9.7702	-0.816	1.199	0.1513	0.5524	-0.2942	-0.7505	-9.4004	1.7567	-0.2804	-0.5736	1.1046	-0.6193	0.7818	-0.2762	0.7704
-0.198	0.189	9.6462	-0.2438	-0.4199	-0.006	-0.0065	0.3461	-1.0584	0.0229	0.6574	9.7664	-0.851	1.3521	0.0277	0.5524	-0.2942	-0.7505	-9.516	1.8137	-0.3969	-0.7031	1.3815	-0.8283	0.7987	-0.2368	0.8075
-0.2591	0.0147	9.589	-0.4538	-0.1478	0.1563	-0.0063	0.3656	-1.0411	0.5942	0.3108	9.6587	-0.8519	1.4145	0.0888	0.5644	-0.2882	-0.7565	-9.4627	2.0978	-0.5673	-0.6059	1.5624	-0.7069	0.7973	-0.295	0.7701
-0.3233	-0.099	9.3558	-0.4553	-0.2395	0.1543	0.0303	0.3256	-1.057	0.7581	0.4812	9.2527	-0.8521	1.4142	0.058	0.5584	-0.3002	-0.7565	-9.6854	1.9845	-0.3426	-0.5999	1.6815	-0.5217	0.7656	-0.3141	0.8044
-0.1386	-0.0438	9.5918	-0.5797	-0.2711	0.1244	-0.0379	0.2344	-1.0641	0.0798	0.2544	9.7071	-0.6284	1.0455	0.0589	0.5464	-0.2822	-0.7625	-9.5718	1.8707	-0.3406	-0.572	1.5915	-0.6154	0.766	-0.2761	0.7878
-0.0723	0.1268	9.9411	-0.5184	-0.3934	0.2748	-0.0246	0.3469	-1.0595	0.1415	0.2553	9.9425	-0.7183	0.8573	-0.1238	0.5644	-0.3002	-0.7445	-9.4615	1.9272	-0.5102	-0.3205	1.3155	-0.4715	0.8138	-0.2751	0.7888
-0.4381	0.422	9.6975	-0.6375	0.0035	0.0696	-0.022	0.3097	-1.0439	0.253	0.0818	9.7682	-0.5616	0.8303	0.1213	0.5584	-0.2882	-0.7625	-9.2284	2.041	-0.1626	-0.1037	1.0413	-0.4495	0.8143	-0.2556	0.8072
-0.5513	-0.1659	10.0531	-0.4812	0.0965	0.1004	-0.0411	0.3099	-1.0617	0.6477	0.5975	9.4853	-0.4445	1.0459	-0.0958	0.5644	-0.2942	-0.7505	-9.679	1.8711	0.0007	0.0157	0.83	-0.5777	0.7969	-0.333	0.7866
-0.376	-0.1624	9.7642	-0.4507	0.0355	0.1602	0.0143	0.3276	-1.0245	0.3052	0.5408	9.537	-0.6603	1.0437	-0.0945	0.5584	-0.3062	-0.7505	-9.456	1.7	-0.2242	0.1779	0.7962	-0.337	0.7813	-0.3141	0.7869
-0.2539	0.1278	9.8795	-0.5463	-0.1181	0.1273	-0.0212	0.2908	-1.0445	0.3709	0.0824	9.9461	-0.8768	1.0724	-0.0934	0.5584	-0.2762	-0.7565	-9.7996	1.7003	-0.4022	-0.0441	0.9204	-0.5137	0.7977	-0.2758	0.7707
-0.1362	0.5376	9.7597	-0.3303	-0.0542	0.003	-0.0047	0.3278	-1.0423	0.8295	0.5995	10.0158	-0.7901	1.2883	-0.2489	0.5584	-0.2942	-0.7565	-9.5164	2.098	-0.3967	-0.1401	1.1047	-0.6323	0.8136	-0.2755	0.771
-0.3741	-0.0472	9.8796	-0.24	-0.1754	-0.0315	0.0159	0.2898	-1.0256	0.5996	0.3696	9.9518	-0.8215	1.3825	-0.0649	0.5764	-0.2822	-0.7565	-9.8556	1.871	-0.3459	-0.2665	1.1973	-0.7199	0.7979	-0.2755	0.7885
-0.3158	-0.1625	9.7653	-0.2723	-0.2981	0.0277	-0.0269	0.3262	-1.1104	0.2615	0.314	10.2379	-0.883	1.3821	-0.0338	0.5584	-0.2882	-0.7445	-9.8037	1.6432	-0.6311	-0.453	1.2585	-0.7446	0.7655	-0.2957	0.7694
-0.5611	0.0742	9.5245	-0.3914	-0.1475	0.217	-0.0199	0.3109	-1.0103	0.4809	0.1962	9.7145	-0.6949	1.1974	-0.1567	0.5764	-0.2942	-0.7625	-9.7423	2.0415	-0.3436	-0.5768	1.2585	-0.7409	0.7811	-0.3145	0.7691
-0.144	0.0182	9.2991	-0.5477	-0.0867	-0.0565	0.0125	0.3459	-1.0406	0.3751	0.1985	10.181	-0.5033	0.9537	0.028	0.5644	-0.2822	-0.7385	-9.2955	1.9837	-0.736	-0.4541	1.1981	-0.7758	0.7662	-0.2758	0.8056
-0.134	-0.3386	9.8291	-0.5119	-0.0269	0.3134	0.0143	0.3276	-1.0245	0.3099	0.3693	9.7706	-0.3476	0.9255	0.1502	0.5764	-0.2702	-0.7565	-9.4602	1.7567	-0.4531	-0.6094	1.0459	-0.7723	0.8131	-0.3135	0.7875
-0.2541	0.2445	9.878	-0.4826	-0.0259	0.1593	0.0476	0.3437	-1.0553	0.5976	0.2541	9.8341	-0.3164	0.8311	-0.0645	0.5644	-0.2942	-0.7505	-9.8617	1.757	-0.6893	-0.9487	1.1366	-0.7307	0.8293	-0.294	0.7885
-0.074	-0.1636	9.8279	-0.4203	-0.0871	0.3109	0.0298	0.364	-1.039	0.3093	0.7144	9.7721	-0.5326	0.8919	0.0593	0.5704	-0.3002	-0.7505	-10.143	2.3262	-0.5224	-1.0123	1.1983	-0.7898	0.7965	-0.3337	0.7511
-0.6772	0.0131	9.7567	-0.4228	-0.2398	0.3076	0.0496	0.3449	-1.0218	0.3111	0.3121	9.8289	-1.2214	1.3796	0.0604	0.5524	-0.3002	-0.7505	-9.4556	2.2687	-0.1665	-1.0459	1.2605	-0.8805	0.7498	-0.2956	0.7869
-0.32	-0.2179	9.5324	-0.521	-0.4538	0.1197	-0.0055	0.3467	-1.0417	0.5992	0.5997	9.9528	-1.3519	1.6233	-0.1861	0.5644	-0.2942	-0.7565	-9.9119	1.5299	-0.3472	-1.197	1.2283	-0.7533	0.75	-0.3138	0.8396
-0.4982	0.4221	9.6964	-0.5221	-0.5764	0.2093	-0.0013	0.2718	-1.0273	0.484	0.312	9.8908	-1.1972	1.7526	0.2424	0.5764	-0.2702	-0.7385	-9.7359	1.9849	-0.0003	-0.8536	1.2575	-0.6712	0.8457	-0.2556	0.7723
-0.1418	-0.0416	9.4166	-0.4315	-0.6977	0.2056	0.0146	0.2698	-1.0598	0.653	0.0809	9.7173	-1.1333	1.5972	0.0893	0.5644	-0.2822	-0.7565	-9.0041	1.6993	-0.3303	-0.6384	1.0754	-0.7098	0.7979	-0.2939	0.8234
-0.3786	0.1892	9.643	-0.2707	-0.3603	0.2724	0.0313	0.3262	-1.0402	0.3645	-0.0341	9.5941	-1.0089	1.5363	0.0582	0.5404	-0.2882	-0.7505	-9.6938	1.9842	-0.8005	-0.881	1.1949	-0.5479	0.8128	-0.3326	0.7869
-0.1318	0.4179	9.9947	-0.3997	-0.6669	0.2366	-0.0071	0.3844	-1.0405	0.4265	0.4847	9.8904	-0.7559	1.2612	0.1198	0.5524	-0.2762	-0.7625	-9.7455	2.0982	-0.5153	-0.9995	1.1009	-0.3608	0.7976	-0.3316	0.8577
-0.257	0.0716	9.705	-0.3912	-0.1168	0.1869	-0.0024	0.2712	-1.044	0.2566	0.6005	10.0048	-0.5661	1.0152	0.0587	0.5704	-0.2882	-0.7565	-9.6929	2.098	-0.7432	-1.0889	1.3126	-0.2642	0.7977	-0.2943	0.8056
-0.6748	-0.1635	9.8757	-0.1718	-0.0236	0.3399	0.0319	0.2879	-1.0582	0.4791	0.6561	9.658	-0.4368	0.7064	-0.0324	0.5524	-0.3002	-0.7505	-9.6915	1.8137	-0.6862	-1.2417	1.3421	-0.1979	0.7975	-0.2946	0.7878
0.1068	0.4191	9.8822	0.0437	0.0712	0.124	-0.0001	0.2918	-0.9931	0.3178	0.2561	10.1801	-0.4993	0.7682	0.0291	0.5644	-0.3002	-0.7565	-9.6879	1.4157	-0.5148	-1.2144	1.3743	-0.3214	0.7977	-0.3128	0.8405
-0.1956	-0.046	9.7659	-0.3309	-0.1463	0.0932	-0.0225	0.3481	-1.0259	0.3761	0.3138	10.2401	-0.689	0.9509	-0.0631	0.5524	-0.2762	-0.7565	-9.518	1.6998	-0.5114	-1.0033	1.377	-0.5121	0.797	-0.3142	0.7694
-0.0778	0.2472	9.6476	-0.4901	-0.392	0.0284	-0.0042	0.2894	-1.0602	0.6501	0.483	9.602	-0.5668	0.9825	-0.1254	0.5584	-0.3002	-0.7565	-9.4577	1.4156	-0.3389	-0.5455	1.3802	-0.7408	0.7977	-0.2943	0.8056
-0.3787	0.2476	9.6423	-0.5853	-0.6072	0.1172	0.0332	0.3079	-1.024	0.1434	0.4284	10.0604	-0.6931	1.1679	-0.0029	0.5644	-0.2822	-0.7625	-9.9713	1.9848	-0.4623	-0.517	1.1985	-0.8046	0.7664	-0.257	0.7884
-0.0804	-0.1592	9.4775	-0.5241	-0.6371	0.1158	0.0125	0.3459	-1.0406	0.5413	0.3119	9.8919	-0.6623	1.1364	-0.0951	0.5644	-0.2882	-0.7385	-9.1788	1.9837	-0.5622	-0.5218	1.1703	-0.9583	0.7967	-0.3333	0.7688
-0.1893	-0.0503	10.1163	-0.3055	-0.5128	0.1465	0.0105	0.3447	-1.0742	0.3108	0.4846	9.8297	-0.659	0.9819	-0.0942	0.5764	-0.2942	-0.7445	-9.462	1.5291	-0.5677	-0.6153	1.262	-0.9855	0.7652	-0.3148	0.7688
-0.1353	-0.1628	9.7685	-0.4252	-0.3619	0.2743	0.0164	0.2515	-1.0436	-0.035	0.3696	9.7054	-0.3795	0.9238	-0.0033	0.5524	-0.2882	-0.7445	-9.5821	1.7565	-0.913	-0.6476	1.4455	-1.0446	0.7647	-0.3528	0.7854
-0.083	0.1925	9.3563	-0.4229	-0.1475	0.1559	-0.0403	0.291	-1.0623	0.4908	0.1985	10.2417	-0.3489	0.9238	-0.0342	0.5764	-0.2882	-0.7445	-9.4591	1.643	-0.396	-0.6494	1.4768	-1.1057	0.7973	-0.295	0.7701
-0.3117	-0.0487	9.9974	-0.2646	0.0678	0.1893	-0.0063	0.2883	-1.0938	0.368	0.542	9.831	-0.4634	0.5209	-0.0004	0.5644	-0.2882	-0.7745	-9.6292	2.3825	-0.3413	-0.8691	1.4171	-1.1918	0.7808	-0.3337	0.7685
-0.1428	-0.0409	9.3582	-0.2004	0.1905	0.2219	-0.0078	0.326	-1.0926	0.5422	0.4272	9.951	-0.5914	0.7043	-0.0929	0.5704	-0.2942	-0.7505	-9.4666	1.8133	-0.7965	-0.6761	1.3224	-0.9525	0.7806	-0.334	0.7507
-0.4986	-0.1024	9.6446	-0.2618	0.2512	0.1625	0.0264	0.3427	-1.1067	0.2053	0.3143	10.2953	-0.6857	0.7964	-0.0622	0.5584	-0.2942	-0.7625	-9.4606	2.041	-0.4529	-0.8646	1.3541	-1.0388	0.7498	-0.2772	0.7519
-0.2565	0.4794	9.7583	-0.4208	-0.1176	0.3103	-0.024	0.3085	-1.0774	0.426	0.0818	9.8301	-0.7498	0.8879	-0.1238	0.5704	-0.2942	-0.7385	-9.2261	1.9273	-0.0482	-0.6306	1.1777	-1.4774	0.7495	-0.3148	0.7863
-0.5534	-0.1644	9.9363	-0.5134	-0.1186	0.3114	-0.04	0.3105	-1.0449	0.3678	0.657	9.8315	-0.7553	1.1031	-0.248	0.5704	-0.3002	-0.7625	-9.4057	1.8703	-0.5664	-0.6003	1.2695	-1.5083	0.8306	-0.2546	0.843
-0.1336	0.186	9.8809	-0.5759	-0.1189	0.2507	0.0094	0.3441	-1.091	0.2526	0.3694	9.7695	-0.5364	0.9822	-0.1871	0.5584	-0.2882	-0.7445	-9.9163	1.7572	-0.5759	-0.4418	1.2373	-1.3904	0.8293	-0.294	0.7885
-0.0727	-0.3394	9.8885	-0.3279	-0.0245	0.1881	0.0141	0.3081	-1.0418	0.2577	0.6007	10.0634	-0.6582	0.8877	-0.2473	0.5764	-0.2882	-0.7505	-9.6275	1.8708	-0.2844	-0.4053	1.2347	-1.2071	0.7818	-0.2762	0.7704
-0.433	-0.1646	9.9384	-0.294	0.0976	0.2826	0.0332	0.3079	-1.024	0.4844	0.082	9.8897	-0.378	0.7986	-0.1562	0.5644	-0.2822	-0.7505	-9.9172	1.6434	-0.6332	-0.2127	1.323	-0.9971	0.7804	-0.3528	0.7679
0.5265	0.0115	9.7779	-0.1395	0.1607	0.1898	-0.022	0.3097	-1.0439	0.6541	0.7716	9.8376	-0.315	0.7692	-0.0642	0.5644	-0.2822	-0.7505	-9.7462	1.8707	-0.5727	0.0109	1.1066	-0.7597	0.814	-0.2932	0.8415
0.1554	0.3687	9.2416	-0.1696	0.1293	0.3125	-0.006	0.3077	-1.0764	0.3096	0.5418	9.7713	-0.504	0.9528	-0.0642	0.5464	-0.2942	-0.7325	-9.9086	1.4162	-0.1755	0.0475	1.1039	-0.5764	0.7977	-0.2758	0.7707
-0.0755	0.129	9.7659	-0.1998	0.1902	0.2834	-0.0011	0.2912	-1.0099	0.3703	0.485	9.9479	-0.7878	1.2594	-0.0336	0.5704	-0.2822	-0.7625	-9.5751	1.9843	-0.5122	0.173	1.0422	-0.5192	0.8128	-0.3326	0.7869
-0.0759	-0.3372	9.7133	-0.4204	0.0976	0.0074	-0.0209	0.3103	-1.0271	0.6575	0.7148	10.013	-1.0675	1.3808	0.0288	0.5644	-0.2882	-0.7385	-9.2354	1.8132	-0.5634	0.3492	0.9858	-0.8322	0.7811	-0.3145	0.7691
-0.5575	0.5382	9.7523	-0.4615	-0.4522	-0.0963	0.0478	0.3632	-1.038	0.0188	0.4838	9.5313	-1.2562	1.5647	0.0595	0.5584	-0.2822	-0.7445	-9.5717	1.8138	-0.3407	0.0714	0.9549	-0.7934	0.7816	-0.295	0.7875
-0.4323	0.0682	9.9938	-0.558	-0.7592	0.0213	0.0133	0.327	-1.0412	0.1991	0.0827	9.9428	-1.4759	1.6529	-0.1856	0.5524	-0.2942	-0.7445	-9.7427	1.5296	-0.4013	0.1696	0.861	-0.6128	0.8299	-0.2744	0.8069
-0.4313	0.1258	10.0515	-0.7729	-0.7619	0.1469	0.0133	0.327	-1.0412	0.2006	0.4858	10.0618	-1.4142	1.6853	-0.0939	0.5704	-0.2822	-0.7445	-10.0877	1.8142	-0.6362	0.0432	0.9231	-0.7007	0.7968	-0.3145	0.7517
-0.0198	0.3653	9.5304	-0.4928	-0.5754	0.0552	-0.0068	0.3266	-1.0758	0.3144	0.3128	10.0046	-1.166	1.6263	-0.0643	0.5584	-0.2882	-0.7565	-9.5153	2.0981	-0.3394	-0.0234	0.9557	-0.852	0.7975	-0.2762	0.7529
-0.199	0.1313	9.5886	-0.6394	-0.3034	0.3705	0.0136	0.3465	-1.0239	0.3709	0.0824	9.9461	-1.012	1.6594	-0.0039	0.5524	-0.3002	-0.7505	-9.4657	1.9271	-0.7391	-0.2272	1.1629	-0.4448	0.8131	-0.295	0.7526
-0.1367	0.1298	9.7064	-0.6458	-0.6083	0.2409	0.036	0.2902	-0.9911	0.4267	0.3121	9.8897	-1.1356	1.6579	-0.0339	0.5584	-0.2942	-0.7445	-9.6834	1.9846	-0.2282	-0.3424	1.2198	-0.1644	0.7818	-0.2762	0.7704
-0.136	0.3625	9.7619	-0.5526	-0.5768	0.2405	-0.0588	0.3302	-1.0454	0.3731	0.0829	10.0633	-0.9202	1.6595	-0.0967	0.5584	-0.2822	-0.7505	-9.685	1.6433	-0.3429	-0.5348	1.1924	-0.3739	0.8292	-0.3313	0.8406
-0.4349	-0.3382	9.8238	-0.6824	-0.8524	0.0823	-0.007	0.3071	-1.0932	0.7213	0.0834	10.3042	-1.0442	1.6891	-0.0961	0.5644	-0.2882	-0.7385	-9.2341	1.5858	-0.5063	-0.7219	1.071	-0.4	0.7488	-0.3532	0.785
-0.2529	0.1854	9.9372	-0.741	-0.7005	0.1479	0.0285	0.3439	-1.0732	0.483	0.9447	9.8936	-0.9748	1.3185	-0.125	0.5524	-0.3002	-0.7625	-9.5209	1.586	-0.6832	-0.6458	1.1094	-0.9551	0.797	-0.3142	0.7694
-0.3107	-0.0495	10.0558	-0.3931	-0.2698	0.2451	-0.0021	0.2906	-1.0267	0.3683	0.3695	9.8303	-0.9147	1.4124	-0.0645	0.5584	-0.2882	-0.7685	-9.5189	1.5861	-0.5687	-0.3727	0.8378	-1.1191	0.829	-0.2947	0.7529
-0.1937	0.0693	9.8813	-0.6408	-0.3643	0.3384	-0.0047	0.3278	-1.0423	0.7117	0.5414	9.8376	-0.7291	1.3516	-0.1574	0.5644	-0.2762	-0.7445	-9.6937	1.9273	-0.8005	-0.2806	0.8991	-1.1521	0.7809	-0.3148	0.7514
-0.5579	0.0136	9.7005	-0.4833	-0.241	0.4314	0.0133	0.327	-1.0412	0.4262	0.6572	9.8912	-0.8191	1.2903	-0.0029	0.5764	-0.2942	-0.7505	-9.4613	1.7566	-0.5103	-0.3125	0.8995	-1.1819	0.7975	-0.2946	0.7878
-0.0731	-0.0476	9.8849	-0.64	-0.2416	0.2181	-0.0387	0.2533	-1.0635	0.4263	0.5997	9.891	-0.9129	1.3512	-0.0027	0.5644	-0.2882	-0.7505	-9.8027	1.6433	-0.5739	-0.4384	1.1443	-1.2683	0.7818	-0.2946	0.8053
-0.1345	0.07	9.8239	-0.4216	-0.148	0.2789	0.0094	0.3441	-1.091	0.3687	0.0819	9.829	-0.5964	1.0473	0.2124	0.5524	-0.2882	-0.7505	-9.4038	1.1879	-0.5097	-0.494	1.0499	-1.0523	0.7486	-0.3535	0.7673
-0.2563	0.3043	9.7605	-0.1773	-0.1751	0.0599	0.036	0.2902	-0.9911	0.2545	0.5425	9.8874	-0.3172	0.8617	-0.0955	0.5524	-0.2882	-0.7565	-9.7473	1.9275	-0.6299	-0.6759	1.0785	-0.9237	0.7659	-0.2765	0.77
-0.1967	0.0131	9.7068	-0.1409	0.0382	0.2486	0.0157	0.2704	-1.043	0.2456	-0.0925	9.3573	-0.531	0.7985	-0.0016	0.5644	-0.3002	-0.7505	-9.1774	1.6426	-0.5052	-0.7967	1.138	-0.8274	0.7973	-0.295	0.7701
-0.2623	0.0753	9.413	-0.0811	-0.0219	0.1543	-0.0212	0.2908	-1.0445	-0.0827	0.5446	10.2323	-0.6595	1.0131	-0.0636	0.5584	-0.2882	-0.7505	-9.6342	1.3586	-0.6855	-0.7034	1.2902	-0.829	0.798	-0.2566	0.7713
0.1051	0.1287	9.769	-0.235	0.0686	0.0659	-0.0586	0.3497	-1.028	0.1992	0.6581	10.004	-0.6595	1.0131	-0.0636	0.5644	-0.2882	-0.7565	-9.5184	1.188	-0.5691	-0.6113	1.3515	-0.862	0.7979	-0.2755	0.7885
0.1051	0.1287	9.769	-0.0827	-0.175	0.2433	0.052	0.2883	-1.0236	0.3137	0.7154	10.0064	-0.5681	1.0761	-0.0338	0.5584	-0.2882	-0.7325	-9.679	1.8711	0.0007	-0.3327	1.0164	-0.8423	0.7657	-0.2953	0.7872
-0.3161	0.0709	9.7624	-0.3625	-0.2693	0.214	-0.0418	0.3288	-1.0611	0.0342	0.4874	10.3514	-0.8475	1.1343	-0.1247	0.5584	-0.3002	-0.7385	-9.5761	1.9842	-0.5695	-0.2982	0.9538	-0.7209	0.7974	-0.3135	0.805
-0.1931	-0.3392	9.8864	-0.4219	-0.0864	0.1572	-0.0209	0.3103	-1.0271	0.2535	0.4847	9.8286	-0.5386	1.0747	-0.2183	0.5704	-0.2822	-0.7385	-9.4603	1.8136	-0.4531	-0.1776	1.1382	-0.846	0.8128	-0.3326	0.7869
-0.0082	0.3572	10.1728	-0.3607	-0.1778	0.2467	-0.0617	0.3479	-1.0783	0.607	0.6015	10.3629	-0.5656	0.984	0.0282	0.5584	-0.2762	-0.7685	-9.4035	1.7566	-0.4521	-0.1403	1.3487	-0.661	0.8292	-0.2943	0.7707
-0.1928	1.0016	9.9863	-0.3282	-0.0859	0.2483	0.0131	0.3075	-1.0586	0.0861	0.4285	10.0593	-0.5956	0.9213	-0.0327	0.5584	-0.2882	-0.7385	-9.6936	1.8136	-0.8006	-0.4525	1.1059	-0.7151	0.7507	-0.257	0.8059
-0.428	0.0652	10.2274	-0.4227	-0.1168	0.1258	-0.006	0.3077	-1.0764	0.023	0.5998	9.7661	-0.7178	0.8579	-0.0624	0.5644	-0.2822	-0.7445	-9.6344	1.5292	-0.6853	-0.6067	1.0141	-0.6805	0.7823	-0.2382	0.7538
-0.5575	-0.2782	9.7041	-0.2339	0.0374	0.219	-0.007	0.3071	-1.0932	0.0805	0.4847	9.7667	-0.5636	0.8912	0.0287	0.5584	-0.2942	-0.7565	-9.6884	1.8707	-0.5144	-0.7038	1.1685	-0.83	0.7818	-0.2946	0.8053
-0.0698	-0.1665	10.0615	-0.3312	-0.1462	0.0625	-0.0065	0.3461	-1.0584	0.2518	0.8295	9.7715	-0.6876	0.9527	0.1213	0.5764	-0.2882	-0.7565	-9.7475	1.245	-0.6876	-0.9749	1.1649	-0.5761	0.7974	-0.3135	0.805
-0.1279	-0.1095	10.1765	-0.3306	-0.1464	0.124	-0.0209	0.3103	-1.0271	0.3723	0.6006	10.0656	-0.9094	1.2287	0.1209	0.5644	-0.2882	-0.7505	-9.7467	2.2688	-0.5724	-0.984	0.9558	-0.854	0.7967	-0.3333	0.7688
-0.5608	-0.1593	9.5275	-0.3354	-0.3597	-0.0036	-0.0212	0.2908	-1.0445	0.4821	0.8294	9.8345	-0.6641	1.2295	-0.0649	0.5644	-0.2882	-0.7565	-9.6386	1.5291	-0.9143	-0.979	1.3496	-0.7281	0.7821	-0.2755	0.8059
-0.0791	0.423	9.587	-0.1495	-0.3581	0.0556	0.0125	0.3459	-1.0406	0.3131	0.4276	9.9466	-0.9763	1.4754	0.1199	0.5644	-0.2942	-0.7445	-9.632	2.0981	-0.5132	-0.9553	1.4445	-0.9739	0.7976	-0.3131	0.8228
-0.6743	0.2443	9.929	-0.3964	-0.3914	0.1195	0.0118	0.2875	-1.0927	0.2518	0.1391	9.7099	-0.9112	1.2582	-0.0329	0.5704	-0.2822	-0.7565	-9.6838	2.3258	-0.2279	-1.2322	1.3826	-0.9046	0.7977	-0.3128	0.8405
-0.2547	-0.105	9.824	-0.3053	-0.3283	-0.1263	0.0136	0.3465	-1.0239	0.3689	0.6573	9.8901	-0.7532	1.1058	0.0286	0.5584	-0.2942	-0.7565	-9.8562	1.5297	-0.4033	-0.8595	1.4736	-0.8843	0.765	-0.3337	0.786
-0.1919	0.3597	9.9944	-0.3589	-0.0555	0.2186	-0.0076	0.3455	-1.0752	0.0878	0.7166	10.1778	-0.5006	0.8618	0.1207	0.5644	-0.3002	-0.7445	-9.6831	1.7571	-0.2283	-0.9867	1.2923	-0.9742	0.7968	-0.3145	0.7517
-0.079	0.3646	9.5877	-0.1427	0.0082	0.125	-0.0588	0.3302	-1.0454	0.541	0.4845	9.8926	-0.5015	0.8607	-0.0022	0.5584	-0.3002	-0.7565	-9.9156	1.9847	-0.5185	-0.6996	1.2885	-0.7062	0.7827	-0.2559	0.8243
-0.3794	0.0149	9.5868	-0.2984	0.0072	0.0039	0.0125	0.3459	-1.0406	0.3062	0.5986	9.5959	-0.5332	0.9546	0.1511	0.5764	-0.2882	-0.7625	-9.6255	1.9277	-0.1699	-0.4561	1.1686	-0.8374	0.8293	-0.294	0.7885
-0.1906	-0.6325	10.0069	-0.4187	0.0661	0.222	-0.005	0.3083	-1.0596	0.3124	0.1398	9.8867	-0.4718	0.9231	0.028	0.5704	-0.2882	-0.7385	-10.1413	1.7575	-0.4656	-0.4805	0.8607	-0.5933	0.798	-0.2751	0.8062
-0.1967	-0.0452	9.7075	-0.5148	-0.0257	0.0367	0.0149	0.2893	-1.0424	0.5369	0.3109	9.6576	-0.5986	1.1079	0.0891	0.5704	-0.2822	-0.7565	-9.6842	1.814	-0.2855	-0.2598	0.9503	-0.4763	0.7655	-0.2957	0.7694
-0.7449	0.0766	9.3462	-0.4871	-0.2702	0.1233	0.0287	0.3634	-1.0558	0.3642	0.1384	9.5949	-0.8185	1.1958	-0.1867	0.5524	-0.3062	-0.7505	-9.6828	1.5297	-0.2285	-0.537	1.102	-0.436	0.797	-0.2957	0.7345
-0.3196	0.2482	9.585	-0.5175	-0.3015	0.2152	-0.0034	0.3479	-1.0081	0.3128	0.6001	9.9473	-0.6306	1.1379	0.0277	0.5764	-0.2882	-0.7445	-9.459	1.5861	-0.396	-0.4154	1.2859	-0.5304	0.765	-0.3337	0.786
-0.1937	0.0693	9.8813	-0.391	-0.1476	0.2477	-0.0248	0.3274	-1.0768	-0.0241	0.4297	10.2914	-0.5978	1.0455	0.028	0.5704	-0.2882	-0.7445	-9.4611	1.6429	-0.5104	-0.3286	1.1364	-0.7186	0.7972	-0.2953	0.7523
-0.1935	-0.0474	9.8827	-0.3609	-0.1162	0.125	-0.0432	0.386	-1.0426	0.1921	0.3112	9.5924	-0.4425	0.985	-0.0033	0.5824	-0.3002	-0.7565	-9.5248	2.1545	-0.8545	-0.5358	0.8881	-0.3763	0.7823	-0.2566	0.7887
-0.6767	-0.3371	9.7611	-0.1707	0.1605	0.1594	-0.023	0.3091	-1.0607	0.4262	-0.0332	9.8295	-0.1562	0.5862	0.0282	0.5644	-0.2882	-0.7565	-9.5732	2.155	-0.3977	-0.5695	0.8894	-0.4675	0.8133	-0.2946	0.7704
-0.3828	0.1921	9.4094	-0.2936	0.0975	0.3133	-0.0029	0.3095	-1.0261	0.1437	0.2559	10.0597	-0.2773	0.4925	0.0602	0.5644	-0.2822	-0.7505	-9.5109	1.8708	-0.1107	-0.7599	0.9219	-0.6152	0.7977	-0.2758	0.7707
-0.2563	0.3043	9.7605	-0.1358	0.3437	0.2552	-0.0058	0.3272	-1.059	0.2529	0.8298	9.8301	-0.0624	0.5571	0.12	0.5644	-0.2762	-0.7505	-9.5742	2.098	-0.4549	-0.9507	1.1071	-0.7924	0.8134	-0.2574	0.7183
-0.3775	0.1885	9.7014	-0.106	0.3752	0.1017	-0.0385	0.2727	-1.0461	0.1883	0.598	9.4179	-0.1234	0.5256	0.1205	0.5644	-0.2942	-0.7505	-9.627	1.4727	-0.2848	-1.2227	1.1039	-0.5692	0.798	-0.2566	0.7713
-0.1995	0.4815	9.5842	-0.0165	0.2237	0.0358	-0.0029	0.3095	-1.0261	0.429	0.2551	10.0066	-0.4339	0.6149	0.0911	0.5584	-0.2822	-0.7685	-9.6832	1.8709	-0.2283	-0.9449	1.1653	-0.6077	0.7821	-0.2755	0.8059
-0.0812	0.4828	9.4695	-0.2367	-0.0537	0.0941	0.0115	0.3453	-1.0574	0.4177	0.4251	9.4215	-0.5958	0.921	-0.0634	0.5704	-0.2882	-0.7445	-9.6274	1.8139	-0.2845	-0.8849	1.1358	-0.6712	0.7822	-0.2939	0.8408
-0.2575	-0.3362	9.6518	-0.2724	-0.3596	0.1186	0.011	0.3063	-1.0921	0.2526	0.3694	9.7695	-0.7513	0.9812	-0.0629	0.5704	-0.2762	-0.7445	-9.5106	1.6433	-0.1108	-0.3557	1.1651	-0.5946	0.7656	-0.3141	0.8044
-0.1348	0.3034	9.821	-0.2102	-0.2977	0.0577	-0.023	0.3091	-1.0607	0.2489	0.5987	9.5948	-0.7552	1.1985	0.028	0.5644	-0.2822	-0.7385	-9.5853	1.8132	-1.0847	-0.1692	1.1039	-0.5699	0.83	-0.2556	0.7897
-0.2569	0.0132	9.7058	-0.3043	-0.2672	-0.125	-0.0047	0.3278	-1.0423	-0.0353	-0.0907	9.6447	-0.8482	1.197	-0.0329	0.5704	-0.2882	-0.7445	-9.8491	1.7007	-0.0026	0.1497	1.0996	-0.2722	0.7972	-0.2953	0.7523
-0.3195	0.1899	9.5857	-0.2384	-0.1145	0.0313	-0.0019	0.3101	-1.0093	0.8243	0.4257	9.7222	-0.6608	1.0749	-0.064	0.5644	-0.2882	-0.7565	-9.6875	1.9276	-0.4571	-0.0573	1.1864	0.0419	0.7975	-0.2946	0.7878
-0.256	0.0709	9.7634	-0.3324	-0.2379	0.0913	0.0486	0.3443	-1.0386	-0.206	0.4852	9.7612	-0.5022	0.8598	-0.0944	0.5524	-0.3002	-0.7505	-9.7482	1.7569	-0.6872	-0.2689	1.0315	0.2314	0.7818	-0.2762	0.7704
-0.1312	-0.049	10.0006	-0.1751	-0.0838	0.1234	0.0086	0.363	-1.0904	0.2589	0.5435	10.1217	-0.4993	0.7682	0.0291	0.5704	-0.2942	-0.7625	-9.8547	1.9848	-0.2885	-0.2361	1.0002	0.2916	0.7977	-0.2758	0.7707
-0.1335	0.1276	9.8816	-0.1391	0.222	0.1296	0.0355	0.3286	-0.9731	0.252	0.7145	9.771	-0.5278	0.6122	-0.0927	0.5644	-0.2822	-0.7565	-9.458	1.643	-0.3387	-0.2707	1.0324	0.17	0.7973	-0.295	0.7701
-0.1885	0.1824	10.1718	-0.3266	0.1288	0.0684	-0.0251	0.3079	-1.0942	0.0251	0.6579	9.8835	-0.4384	0.768	-0.0635	0.5524	-0.3002	-0.7505	-9.7467	1.4157	-0.6303	-0.3448	1.0381	-0.2272	0.8138	-0.2751	0.7888
0.1038	-0.5118	9.6603	-0.2947	0.2517	-0.0216	0.0298	0.364	-1.039	0.1969	0.0822	9.8257	-0.5945	0.8273	-0.1551	0.5644	-0.2882	-0.7685	-9.349	1.8702	-0.5654	-0.0699	0.7656	-0.3298	0.7974	-0.3135	0.805
-0.5524	-0.1068	9.9939	-0.3882	0.1588	0.0391	-0.0045	0.3473	-1.0249	0.2484	0.2533	9.5346	-0.8154	1.041	-0.2165	0.5704	-0.3002	-0.7565	-9.4624	1.8135	-0.5675	-0.2298	0.9204	-0.5081	0.8447	-0.3131	0.7704
-0.3766	0.3045	9.7584	-0.5813	-0.2089	-0.1203	-0.0065	0.3461	-1.0584	0.0266	0.4281	9.9411	-0.7865	1.1658	-0.1252	0.5764	-0.3002	-0.7445	-9.4602	1.7567	-0.4531	-0.2022	1.0439	-0.6309	0.7977	-0.2758	0.7707
-0.3249	-0.4477	9.2434	-0.4575	-0.3308	0.0908	0.012	0.3069	-1.0754	0.4345	0.2564	10.2995	-0.7542	1.1046	-0.0943	0.5584	-0.2942	-0.7385	-9.973	1.7004	-0.577	-0.0163	1.1048	-0.636	0.7818	-0.2762	0.7704
-0.3762	-0.0457	9.7628	-0.334	-0.3911	0.1802	-0.0037	0.3284	-1.0255	0.4827	0.4843	9.833	-0.8143	1.0424	-0.0629	0.5704	-0.2942	-0.7505	-9.6312	1.4725	-0.5137	-0.1725	0.953	-0.6632	0.766	-0.2761	0.7878
-0.1366	0.0714	9.7071	-0.2383	-0.2069	0.183	-0.0047	0.3278	-1.0423	0.1466	0.4867	10.2364	-0.4405	0.924	0.0893	0.5644	-0.2762	-0.7565	-9.6307	1.0744	-0.514	-0.2968	1.1056	-0.689	0.8138	-0.2936	0.8237
-0.3039	-0.3457	10.4099	-0.3292	-0.0855	0.156	0.0136	0.3465	-1.0239	0.5482	0.1409	10.2426	-0.3097	0.6173	0.2132	0.5644	-0.2822	-0.7385	-9.4622	1.6429	-0.5677	-0.0834	0.9548	-0.7888	0.8131	-0.3135	0.7875
-0.0748	-0.3379	9.7717	-0.3876	0.1586	0.1006	-0.0078	0.326	-1.0926	0.2013	0.0832	10.06	-0.2108	0.2452	-0.0002	0.5704	-0.2822	-0.7505	-9.7422	1.9846	-0.3437	-0.2382	0.9547	-0.7842	0.7977	-0.2943	0.8056
-0.0769	0.3632	9.7045	-0.0424	0.4059	0.2246	0.0131	0.3075	-1.0586	0.2576	0.6583	10.0637	-0.0538	0.187	0.2143	0.5644	-0.2942	-0.7625	-9.7384	2.326	-0.1145	-0.2653	0.6786	-0.6319	0.7823	-0.2751	0.8237
-0.3121	0.1847	9.9945	-0.2214	0.8012	0.2047	0.0123	0.3264	-1.058	-0.1508	0.4271	9.6449	0.1951	0.1289	0.3361	0.5584	-0.2822	-0.7565	-9.6315	1.7	-0.5135	-0.2072	0.65	-0.7568	0.7972	-0.3138	0.7872
-0.1401	0.2487	9.5297	-0.1592	0.7094	0.3864	-0.04	0.3105	-1.0449	0.5908	0.3675	9.4832	0.2235	0.1896	0.1819	0.5764	-0.2702	-0.7565	-9.5174	1.2449	-0.5118	-0.3699	0.8365	-1.027	0.7659	-0.295	0.805
-0.381	-0.3922	9.4752	-0.131	0.6493	0.231	-0.0248	0.3274	-1.0768	0.09	0.0842	10.2335	-0.0527	0.0931	0.0919	0.5584	-0.2882	-0.7565	-9.2267	1.5292	-0.1057	-0.3994	0.7138	-0.9656	0.8143	-0.2556	0.8072
-0.0774	-0.0446	9.6513	0.0538	0.7745	-0.0146	-0.005	0.3083	-1.0596	0.3102	0.8297	9.8312	-0.056	0.2477	0.091	0.5464	-0.3002	-0.7505	-9.6333	1.4724	-0.6282	-0.3944	0.803	-0.8114	0.7977	-0.3128	0.8405
-0.3106	-0.1078	10.0566	0.0858	0.682	0.229	-0.0215	0.3487	-1.0092	-0.1557	0.7136	9.4118	-0.4935	0.5533	0.184	0.5644	-0.2882	-0.7445	-9.8593	1.5296	-0.575	-0.4883	1.0777	-0.8679	0.7654	-0.3145	0.7866
-0.1391	0.3063	9.5874	-0.0705	0.6505	0.1073	0.0141	0.3081	-1.0418	0.0755	0.1959	9.4725	-0.4667	0.6755	-0.0013	0.5644	-0.2882	-0.7625	-9.5676	1.8708	-0.1117	-0.4913	1.3229	-0.9888	0.798	-0.2751	0.8062
-0.1274	0.2399	10.2305	-0.041	0.5283	0.1657	-0.0191	0.292	-1.0109	0.4834	0.7146	9.8926	-0.409	0.8616	-0.0027	0.5704	-0.2882	-0.7565	-9.9672	2.0418	-0.2333	-0.4582	1.4133	-0.9276	0.8138	-0.2751	0.7888
-0.1919	0.3597	9.9944	0.0496	0.4071	0.162	0.012	0.3069	-1.0754	0.2567	0.543	10.0046	-0.4703	0.8616	0.0591	0.5764	-0.3062	-0.7445	-9.5162	1.9274	-0.3968	-0.3259	1.4094	-0.655	0.7984	-0.2559	0.8068
-0.5597	-0.2184	9.5866	-0.0188	0.1631	-0.0885	0.0494	0.3254	-1.0392	0.3094	0.6569	9.7719	-0.5096	1.1362	-0.2803	0.5644	-0.3062	-0.7445	-9.7382	2.0985	-0.1147	-0.2897	1.2851	-0.4727	0.7981	-0.2936	0.8412
-0.3171	0.0133	9.7047	-0.0527	-0.0513	-0.0312	-0.0037	0.3284	-1.0255	0.772	0.0818	9.9538	-0.8154	1.1045	-0.0325	0.5764	-0.2882	-0.7505	-9.6357	1.7567	-0.7424	-0.0104	1.1935	-0.4511	0.7977	-0.2943	0.8056
-0.4408	0.1324	9.5259	-0.1804	-0.4199	0.1469	-0.0421	0.3093	-1.0785	0.482	0.1965	9.7731	-0.877	1.1039	-0.0322	0.5644	-0.2822	-0.7565	-9.8576	1.8709	-0.4603	-0.0644	1.0069	-0.1744	0.7806	-0.3525	0.7857
0.0447	0.3039	9.7658	-0.4005	-0.4205	-0.2194	-0.0029	0.3095	-1.0261	-0.0928	0.6573	9.7056	-1.2302	1.8129	0.1193	0.5584	-0.2882	-0.7445	-10.0233	2.3263	-0.1769	0.028	1.1595	-0.2067	0.8145	-0.2553	0.8249
-0.0774	0.0137	9.6505	-0.3092	-0.6959	0.0811	0.0159	0.2898	-1.0256	0.1357	0.4266	9.6504	-1.3967	2.4308	0.2396	0.5584	-0.2582	-0.7505	-9.4044	1.6428	-0.5094	0.1157	1.0096	-0.3641	0.8141	-0.256	0.7894
-0.3131	0.1855	9.9361	-0.6816	-0.6066	-0.2199	-0.0076	0.3455	-1.0752	0.2552	0.0824	9.8853	-1.3657	2.3678	0.0861	0.5704	-0.2942	-0.7565	-9.3501	1.927	-0.6226	0.1389	0.9523	-0.6111	0.8143	-0.2556	0.8072
0.2216	-0.1603	9.5412	-0.7472	-0.9133	-0.1027	-0.0014	0.3491	-0.9746	0.307	0.081	9.5935	-1.3315	2.2772	0.2708	0.5704	-0.2762	-0.7385	-9.6884	1.8138	-0.5145	-0.2051	0.7404	-0.6947	0.7808	-0.3337	0.7685
-0.5005	0.5403	9.5781	-0.7435	-0.7917	0.0537	-0.0235	0.3475	-1.0427	0.7131	0.3692	9.8954	-1.2034	2.0305	0.2101	0.5524	-0.2942	-0.7505	-9.4657	1.9839	-0.7391	-0.6106	0.6503	-0.7755	0.8138	-0.2936	0.8237
-0.1388	0.0729	9.5903	-0.6175	-0.7608	0.2373	-0.0029	0.3095	-1.0261	0.246	0.3679	9.418	-0.8219	1.5091	0.2417	0.5644	-0.2702	-0.7505	-8.9462	1.6425	-0.2721	-0.8667	0.6541	-1.0443	0.783	-0.2368	0.8249
-0.0673	0.2982	10.2309	-0.7676	-0.4872	0.2143	-0.0039	0.3089	-1.0429	0.2559	0.3702	9.9452	-0.9415	1.2902	0.1208	0.5764	-0.2882	-0.7445	-9.3531	1.87	-0.7943	-1.4326	0.9018	-1.3327	0.7984	-0.2559	0.8068
-0.8501	-0.1669	10.1646	-0.6683	-0.0892	0.2217	0.0381	0.2914	-0.9575	0.1946	0.7721	9.7702	-0.5578	0.7081	0.2756	0.5704	-0.2762	-0.7565	-9.9221	1.3588	-0.9196	-1.7859	1.0295	-1.7513	0.7815	-0.3138	0.8047
-0.139	0.248	9.5881	-0.4806	-0.1191	0.4955	0.0136	0.2692	-1.0765	0.5475	-0.0894	10.183	-0.7107	0.6447	0.2769	0.5704	-0.2882	-0.7505	-9.5184	2.0979	-0.5111	-1.9989	0.9972	-1.6223	0.8457	-0.2556	0.7723
-0.0767	0.2464	9.706	-0.3249	0.0973	0.283	-0.0398	0.33	-1.0276	0.0848	0.5433	10.0013	-0.8114	0.9509	0.0606	0.5644	-0.2822	-0.7625	-9.855	1.416	-0.3462	-2.1861	1.1502	-1.6769	0.8129	-0.3138	0.7698
-0.3766	0.3045	9.7584	-0.48	0.0345	0.3143	-0.057	0.3119	-1.0292	0.1464	-0.0312	10.1755	-0.6588	0.9822	-0.0634	0.5644	-0.2882	-0.7565	-9.9667	1.6438	-0.2336	-2.0028	0.9685	-1.7453	0.798	-0.2751	0.8062
-0.0761	-0.2205	9.7119	-0.3521	0.2185	0.4397	-0.0207	0.3298	-1.0098	0.4244	0.3691	9.7728	-0.5313	0.7346	-0.2164	0.5764	-0.2942	-0.7565	-9.8531	1.5299	-0.2317	-1.9398	0.9986	-1.7162	0.8295	-0.2751	0.7713
-0.1367	0.1298	9.7064	-0.11	-0.023	0.3392	-0.0217	0.3292	-1.0265	0.3775	0.084	10.2976	-0.4996	0.6725	-0.2776	0.5584	-0.3002	-0.7445	-9.5744	1.4724	-0.5126	-2.0939	0.9372	-1.6814	0.8288	-0.295	0.7352
-0.3237	0.1928	9.3521	-0.0784	0.1001	0.2184	0.0321	0.3073	-1.0408	0.2543	-0.0329	9.8262	-0.2789	0.4904	-0.1549	0.5704	-0.2882	-0.7505	-9.8614	1.5295	-0.6895	-1.8802	0.8777	-1.7804	0.8133	-0.2946	0.7704
-0.4411	0.3658	9.523	0.139	0.1325	0.2779	-0.0429	0.3282	-1.0779	0.5996	0.3696	9.9518	0.0025	0.276	-0.2475	0.5704	-0.2942	-0.7445	-9.4606	1.188	-0.5108	-1.9045	0.9051	-1.5644	0.8298	-0.256	0.7719
0.0508	0.4162	10.1147	-0.1368	0.2211	0.3448	0.0117	0.3648	-1.0401	0.3669	0.5417	9.7724	-0.1508	0.212	-0.3077	0.5584	-0.2882	-0.7565	-9.7453	1.9845	-0.5154	-1.676	1.0521	-1.2013	0.8134	-0.2758	0.7532
0.2848	-0.0459	9.716	0.2627	0.1644	0.2463	-0.022	0.3097	-1.0439	0.3633	0.7135	9.5975	-0.4315	0.4273	-0.1229	0.5644	-0.2882	-0.7445	-9.5729	1.9275	-0.3978	-1.4431	1.136	-0.6852	0.8288	-0.3135	0.7701
-0.3157	-0.2209	9.766	0.1707	0.3171	0.0662	0.0125	0.3459	-1.0406	0.2516	0.3116	9.7106	-0.4036	0.551	-0.1546	0.5764	-0.3002	-0.7505	-9.6849	1.5296	-0.343	-1.4012	1.0395	-0.3185	0.798	-0.2751	0.8062
-0.2551	0.2452	9.8196	0.1052	0.1334	0.0016	-0.0238	0.328	-1.0601	0.4207	0.6559	9.5983	-0.4379	0.705	-0.186	0.5764	-0.3002	-0.7505	-9.6883	1.7569	-0.5145	-1.2411	1.2199	-0.1682	0.8127	-0.3142	0.752
-0.3837	0.0178	9.3532	0.0152	0.1929	0.1578	0.0138	0.2887	-1.0592	0.1974	0.4275	9.8858	-0.6548	0.7649	-0.1544	0.5644	-0.2882	-0.7565	-10.0845	1.7006	-0.4646	-1.3634	1.402	-0.1324	0.8143	-0.2556	0.8072
-0.2586	0.4809	9.6415	-0.0201	0.0098	0.0312	-0.0063	0.2883	-1.0938	0.2499	0.6564	9.6536	-0.8748	0.9797	-0.0929	0.5824	-0.2942	-0.7505	-9.6234	1.9278	-0.0555	-1.1183	1.4947	-0.2311	0.7979	-0.2755	0.7885
-0.2592	0.1314	9.5875	-0.1739	0.008	0.0946	0.0133	0.327	-1.0412	0.4218	-0.0342	9.5952	-0.9105	1.2273	-0.0327	0.5764	-0.3002	-0.7505	-9.4657	1.9839	-0.7391	-0.9934	1.5552	-0.2037	0.8141	-0.256	0.7894
-0.2519	0.1846	9.9956	-0.0849	-0.1126	-0.0629	-0.0235	0.3475	-1.0427	0.4222	0.3686	9.6556	-0.942	1.2261	-0.1247	0.5584	-0.2942	-0.7505	-9.518	1.6998	-0.5114	-1.0206	1.5534	-0.08	0.7975	-0.2946	0.7878
-0.5584	0.4222	9.6953	0.0046	-0.2641	-0.1288	0.0285	0.3439	-1.0732	0.3109	0.4271	9.8294	-0.7554	1.23	0.0893	0.5764	-0.2942	-0.7625	-9.4045	1.7566	-0.5093	-0.7928	1.4874	0.2814	0.8293	-0.294	0.7885
-0.3131	0.1855	9.9361	0.0347	-0.3865	-0.0088	-0.0024	0.2712	-1.044	0.4355	0.3717	10.3586	-0.6326	1.1671	-0.1569	0.5884	-0.2822	-0.7445	-9.7396	1.5866	-0.2295	-0.6368	1.2736	0.3365	0.8129	-0.3138	0.7698
-0.2618	0.4831	9.4663	-0.147	-0.1746	-0.0019	0.0112	0.3258	-1.0748	0.0191	0.3112	9.5305	-0.9757	1.4127	0.028	0.5764	-0.2822	-0.7445	-9.5681	1.4158	-0.1693	-0.6987	1.2735	0.3384	0.7973	-0.295	0.7701
-0.1325	0.1269	9.94	-0.2387	-0.1759	0.0914	0.0303	0.3256	-1.057	0.425	0.7144	9.8329	-0.7956	1.5989	-0.097	0.5704	-0.3002	-0.7625	-9.3489	1.8133	-0.5654	-0.6464	1.1866	0.0288	0.7814	-0.2953	0.7697
-0.3744	0.1863	9.8766	-0.4601	-0.5451	0.1785	0.0311	0.3067	-1.0576	0.1353	-0.0338	9.5897	-0.8543	1.5067	0.0268	0.5644	-0.2882	-0.7625	-9.5673	1.6434	-0.1119	-0.6793	1.1875	-0.0316	0.7984	-0.2559	0.8068
-0.0716	0.4179	9.9958	-0.4904	-0.4533	0.0886	0.0131	0.3075	-1.0586	0.6023	0.0826	10.0677	-1.1041	1.5955	-0.1259	0.5584	-0.2942	-0.7505	-9.6312	1.4725	-0.5137	-0.7532	1.254	-0.4284	0.7814	-0.2769	0.7348
0.2246	-0.0458	9.715	-0.6145	-0.639	0.3322	-0.023	0.3091	-1.0607	0.0198	0.5416	9.5901	-0.849	1.2594	0.0282	0.5644	-0.2942	-0.7505	-9.4531	1.8707	-0.0524	-0.701	1.1672	-0.7379	0.8131	-0.3135	0.7875
-0.4916	0.1842	10.0497	-0.4889	-0.5155	0.3333	-0.0238	0.328	-1.0601	-0.032	0.5429	9.8819	-0.8087	0.7954	-0.0307	0.5764	-0.2882	-0.7565	-9.7379	1.871	-0.1148	-0.7737	1.2941	-1.1034	0.8141	-0.2744	0.8243
-0.0733	0.0691	9.8834	-0.3639	-0.3303	0.1819	0.0143	0.3276	-1.0245	0.2019	0.3711	10.1198	-0.3161	0.8631	0.0582	0.5584	-0.2882	-0.7625	-9.6301	1.4157	-0.4565	-0.8368	1.2337	-1.1328	0.8141	-0.256	0.7894
-0.1892	-0.1087	10.1171	-0.1097	0.1922	0.0363	-0.0078	0.326	-1.0926	0.0826	0.5427	9.8841	-0.3408	0.5531	-0.0013	0.5764	-0.2822	-0.7445	-9.8484	1.985	0.0549	-0.9642	1.2962	-1.2514	0.8288	-0.3135	0.7701
0.1036	-0.3367	9.6581	-0.0473	0.131	0.188	-0.0421	0.3093	-1.0785	0.371	0.7153	10.0075	-0.3698	0.4597	-0.0313	0.5584	-0.2822	-0.7565	-9.7971	1.3592	-0.288	-0.8659	1.2328	-1.0704	0.7972	-0.2953	0.7523
0.0412	0.4812	9.5884	-0.3225	0.3732	0.0737	-0.0045	0.3473	-1.0249	0.2513	0.4842	9.7114	-0.1833	0.4319	0.0907	0.5584	-0.2942	-0.7505	-9.6359	1.9273	-0.7423	-0.7824	1.2372	-1.3802	0.7975	-0.2946	0.7878
0.2237	0.6546	9.7062	-0.1301	0.6797	0.2624	0.0303	0.3256	-1.057	0.2594	0.2559	10.1204	-0.3392	0.4916	0.0298	0.5824	-0.2942	-0.7445	-9.7932	1.5868	-0.0589	-0.3717	1.1725	-1.1164	0.7974	-0.3135	0.805
0.1096	-0.0493	10.0048	-0.3536	0.3422	0.1041	-0.023	0.3091	-1.0607	0.0298	-0.1465	10.0556	-0.6229	0.7667	-0.0009	0.5644	-0.2882	-0.7565	-9.6898	2.155	-0.5714	-0.3692	1.0495	-1.0253	0.7975	-0.2946	0.7878
-0.199	0.1313	9.5886	-0.3569	0.1282	0.1303	0.0123	0.3264	-1.058	0.3677	0.0241	9.7701	-0.4423	0.9535	-0.0645	0.5704	-0.2942	-0.7565	-9.5727	1.7569	-0.398	0.0281	0.8997	-1.192	0.7818	-0.2946	0.8053
-0.5612	0.1325	9.5238	-0.2946	0.0979	0.2211	0.0128	0.3654	-1.0233	0.4902	0.6011	10.2435	-0.5328	0.8598	-0.0634	0.5584	-0.3062	-0.7625	-9.9186	1.8708	-0.6903	0.1614	0.9258	-0.8885	0.8138	-0.2751	0.7888
-0.2499	-0.4581	10.062	-0.2085	-0.2368	0.1205	-0.0214	0.2714	-1.0618	0.1912	0.8288	9.5947	-0.6277	0.9828	-0.0329	0.5644	-0.2882	-0.7445	-9.8515	1.9849	-0.1168	0.0976	1.2314	-0.9764	0.7823	-0.2751	0.8237
-0.0722	0.0684	9.9418	-0.1757	-0.1758	0.2137	-0.0029	0.3095	-1.0261	0.4836	0.5996	9.8921	-0.5311	0.7667	-0.0936	0.5764	-0.3002	-0.7385	-10.0908	1.7572	-0.808	0.1074	1.3792	-0.6682	0.7972	-0.2953	0.7523
-0.1414	-0.3334	9.4203	-0.1159	-0.2974	0.2103	-0.0055	0.3467	-1.0417	0.1342	0.6564	9.5928	-0.563	0.7967	-0.1551	0.5524	-0.2882	-0.7445	-9.9707	1.5298	-0.4627	-0.1308	1.4051	-0.3536	0.7826	-0.2375	0.7894
-0.4341	-0.1638	9.88	-0.1748	-0.1454	0.2451	-0.022	0.3097	-1.0439	0.2985	-0.0936	9.1241	-0.6839	0.7033	-0.0924	0.5764	-0.2882	-0.7625	-9.6869	1.4726	-0.4575	0.1925	1.2769	0.0966	0.8127	-0.3142	0.752
-0.0739	-0.2803	9.8294	-0.2336	0.1296	0.098	0.0112	0.3258	-1.0748	0.592	0.3103	9.5415	-0.7206	1.0448	0.0902	0.5644	-0.2822	-0.7385	-9.8585	1.7571	-0.5176	0.3237	1.2126	0.338	0.7979	-0.2755	0.7885
-0.3793	-0.1019	9.5883	-0.4239	-0.1471	0.0636	-0.0374	0.2733	-1.0293	0.3064	0.4836	9.5953	-1.4109	1.5308	-0.093	0.5644	-0.3002	-0.7265	-9.342	1.3018	-0.2224	0.4468	0.9996	0.3326	0.829	-0.3131	0.7879
0.043	-0.0448	9.6534	-0.3985	-0.5136	0.1169	-0.0426	0.3477	-1.0605	0.4326	0.0834	10.1815	-1.4139	1.7492	0.1208	0.5584	-0.2762	-0.7505	-9.6308	1.1313	-0.5139	0.4455	0.8783	0.301	0.7975	-0.2946	0.7878
-0.4327	0.36	9.9902	-0.5553	-0.6373	0.0854	-0.0235	0.3475	-1.0427	0.4261	0.7147	9.8915	-1.1092	1.8431	-0.0966	0.5644	-0.2882	-0.7385	-9.4042	1.4722	-0.5095	0.108	0.9378	0.4037	0.8133	-0.2946	0.7704
-0.0187	0.3062	9.5895	-0.743	-0.7612	0.0543	-0.0019	0.3101	-1.0093	0.254	0.1396	9.827	-1.1371	1.7194	-0.065	0.5644	-0.2822	-0.7505	-9.2907	1.529	-0.5074	-0.2329	1.1207	0.3847	0.8449	-0.3128	0.7882
-0.3719	-0.0486	9.9964	-0.6191	-0.7601	0.0835	0.0143	0.3276	-1.0245	0.2548	0.3699	9.8866	-1.0708	1.5354	0.0279	0.5584	-0.3002	-0.7445	-9.515	1.8706	-0.3396	-0.3021	0.9107	0.17	0.7979	-0.2939	0.8234
-0.1401	0.2487	9.5297	-0.7687	-0.3945	-0.0297	-0.0029	0.3868	-0.9734	0.5347	0.3104	9.5404	-0.9453	1.4442	0.0584	0.5704	-0.2762	-0.7505	-9.2948	1.415	-0.7364	-0.34	1.0968	-0.0732	0.8129	-0.3138	0.7698
-0.2532	0.3605	9.935	-0.3973	-0.4834	0.179	-0.0256	0.3463	-1.0763	0.0259	0.1978	9.8815	-0.9105	1.1955	-0.1247	0.5644	-0.2942	-0.7505	-9.4014	1.7567	-0.3376	-0.2508	1.0986	-0.1988	0.8459	-0.2553	0.79
-0.0753	0.0123	9.7673	-0.4914	-0.4529	-0.0037	-0.0047	0.3278	-1.0423	0.0776	0.2539	9.5899	-0.8205	1.2886	-0.1872	0.5704	-0.2822	-0.7445	-9.7463	1.9276	-0.5727	-0.221	1.0381	-0.2309	0.8451	-0.3124	0.806
-0.3806	0.0739	9.5277	-0.2983	-0.0237	0.0647	0.0154	0.3282	-1.0077	0.3121	0.3698	9.8877	-1.16	1.4117	0.1213	0.5584	-0.2822	-0.7565	-9.912	1.6436	-0.3471	-0.3195	0.736	-0.384	0.8613	-0.2745	0.772
-0.2538	0.011	9.881	-0.4232	-0.1474	0.1251	0.051	0.2877	-1.0403	0.0283	0.0833	9.9981	-1.4146	1.7801	0.1206	0.5644	-0.2882	-0.7565	-9.5799	1.6428	-0.7987	-0.2259	0.6747	-0.3566	0.8139	-0.2563	0.7716
-0.076	-0.2788	9.7126	-0.583	-0.3313	-0.0921	0.0115	0.3453	-1.0574	0.4861	0.3701	10.0082	-1.5485	2.2099	-0.0655	0.5584	-0.2882	-0.7445	-9.4087	1.7564	-0.7382	-0.4303	0.7138	-0.9647	0.829	-0.2947	0.7529
-0.3738	0.5357	9.9306	-0.831	-0.5795	0.2131	0.0133	0.327	-1.0412	0.252	0.7145	9.771	-1.5465	2.1808	0.119	0.5644	-0.2822	-0.7385	-9.4062	1.4153	-0.624	-0.5294	0.8386	-1.1759	0.7977	-0.2758	0.7707
-0.0765	0.0713	9.7082	-1.0787	-0.5817	0.1547	-0.0037	0.3284	-1.0255	0.3665	0.0814	9.7118	-1.3825	1.6232	-0.1552	0.5644	-0.2942	-0.7325	-9.4035	1.7566	-0.4521	-0.5662	0.7499	-1.3598	0.7967	-0.3518	0.8038
-0.258	0.014	9.6474	-1.0458	-0.4592	0.1569	-0.0039	0.3089	-1.0429	0.5395	0.0814	9.7737	-0.6936	1.1673	-0.0643	0.5764	-0.2762	-0.7565	-9.9669	1.8144	-0.2335	-0.48	0.7226	-1.5777	0.8138	-0.2751	0.7888
-0.5573	0.3631	9.7545	-0.6775	-0.5775	0.119	-0.0424	0.3672	-1.0432	-0.2067	0.2549	9.7016	-0.5328	0.8916	0.0285	0.5644	-0.2762	-0.7505	-9.5735	1.5293	-0.4554	-0.5809	0.8787	-1.85	0.7972	-0.3138	0.7872
-0.0776	0.1304	9.6491	-0.4534	-0.0864	0.0961	-0.04	0.3105	-1.0449	0.3739	0.3133	10.1229	-0.2751	0.4	0.0914	0.5644	-0.2822	-0.7565	-9.6934	1.643	-0.8008	-0.753	1.0246	-1.4135	0.7979	-0.2939	0.8234
0.1069	-0.3973	9.834	-0.3233	0.2504	0.194	-0.0063	0.3656	-1.0411	0.4932	0.084	10.3584	0.0632	0.4659	0.1505	0.5704	-0.2822	-0.7505	-9.9166	1.9846	-0.5757	-0.6642	1.2399	-1.5681	0.7977	-0.2943	0.8056
-0.015	-0.1046	9.7699	-0.1958	0.4654	0.2278	-0.0228	0.3286	-1.0433	0.4225	0.1961	9.6548	-0.0586	0.4031	0.1823	0.5644	-0.2822	-0.7385	-9.8645	1.5294	-0.8612	-0.7228	1.0859	-1.4446	0.7825	-0.2563	0.8065
-0.5613	0.1909	9.5231	-0.0405	0.5589	0.1664	0.0522	0.3077	-1.0062	0.2569	0.428	10.004	-0.4386	0.7359	-0.1862	0.5644	-0.2822	-0.7505	-9.8035	1.4158	-0.6313	-1.0216	1.2332	-1.0965	0.8288	-0.295	0.7352
-0.4947	0.1281	9.8753	-0.0754	0.3757	0.0706	0.0112	0.3258	-1.0748	0.1966	0.2547	9.8264	-0.6574	1.0157	0.2129	0.5584	-0.2762	-0.7445	-9.8584	1.6434	-0.5177	-1.0156	1.0475	-0.8831	0.7813	-0.2957	0.752
-0.0229	0.3091	9.3559	-0.2017	0.2525	0.008	-0.0392	0.2916	-1.0455	0.6009	0.2548	10.0099	-1.256	1.565	0.0902	0.5644	-0.2942	-0.7625	-9.8058	1.5863	-0.7457	-1.2272	1.167	-0.7222	0.7816	-0.295	0.7875
-0.3133	0.3022	9.9346	-0.3323	-0.1149	-0.0906	0.0327	0.269	-1.0587	0.3129	-0.1478	9.8854	-0.9191	1.6927	0.149	0.5584	-0.2942	-0.7505	-9.5187	1.4155	-0.5689	-1.1268	1.1939	-0.4791	0.783	-0.2368	0.8249
-0.5614	0.2493	9.5223	-0.2123	-0.4199	0.0551	-0.0052	0.2889	-1.077	0.1921	0.3112	9.5924	-1.1313	1.5998	0.3659	0.5704	-0.2762	-0.7445	-9.4062	1.4153	-0.624	-1.2376	1.1269	-0.0461	0.766	-0.2761	0.7878
-0.1978	0.0139	9.6484	-0.025	-0.265	-0.0054	-0.0063	0.3656	-1.0411	0.1368	0.4269	9.7089	-1.2232	1.4408	-0.0014	0.5764	-0.2762	-0.7445	-9.6296	1.8707	-0.3989	-1.2387	1.0969	-0.0771	0.8131	-0.3135	0.7875
0.0447	0.3039	9.7658	-0.1773	-0.2367	0.1509	-0.0019	0.3101	-1.0093	0.2018	-0.2618	10.0584	-0.8477	1.2294	0.1206	0.5704	-0.2942	-0.7505	-9.6814	1.2454	-0.1715	-1.5151	1.1872	-0.0066	0.8143	-0.2556	0.8072
0.0998	0.1324	9.477	0.0381	-0.2649	0.1168	-0.0256	0.3463	-1.0763	-0.0285	0.4287	10.0571	-0.838	0.8289	0.2765	0.5704	-0.2822	-0.7505	-9.7419	1.7571	-0.3439	-1.5165	1.0659	-0.0383	0.7975	-0.2762	0.7529
-0.2602	0.0738	9.5298	0.0136	0.1013	0.1558	-0.0254	0.3658	-1.0589	0.4808	0.2537	9.7148	-0.3461	0.8004	-0.0027	0.5764	-0.2762	-0.7565	-9.7456	1.3589	-0.5731	-1.6361	0.9115	0.1177	0.8143	-0.2556	0.8072
0.1078	-0.3396	9.8917	-0.0468	0.1616	0.1886	-0.005	0.3083	-1.0596	0.0287	0.4861	10.0585	-0.4663	0.6761	0.0602	0.5644	-0.2822	-0.7625	-9.7422	1.9846	-0.3437	-1.7338	1.1575	-0.0618	0.8303	-0.2364	0.7903
0.1004	-0.3345	9.4829	0.081	0.4379	0.1623	0.0303	0.3256	-1.057	0.257	0.3704	10.0038	-0.7428	0.6744	0.1847	0.5704	-0.2882	-0.7445	-9.6388	1.6997	-0.9141	-1.9576	1.0084	-0.2714	0.7814	-0.2769	0.7348
-0.073	-0.1059	9.8856	-0.2278	0.3425	0.3178	-0.0434	0.3666	-1.0599	0.5378	0.4262	9.7167	-0.6865	0.8906	0.0909	0.5704	-0.2942	-0.7385	-9.7488	1.4156	-0.7447	-2.0593	1.1649	-0.5744	0.8148	-0.2361	0.8255
-0.3796	0.1316	9.5854	-0.3516	0.4029	0.1977	-0.024	0.3085	-1.0774	0.8333	0.3127	10.1903	-0.7784	0.7951	-0.0924	0.5704	-0.2822	-0.7505	-9.3966	2.0981	-0.0512	-2.0563	1.2244	-0.4818	0.8286	-0.3138	0.7523
-0.312	0.1264	9.9952	-0.2291	0.343	0.1948	-0.0207	0.3298	-1.0098	-0.0936	0.4845	9.6462	-0.7794	0.889	0.03	0.5584	-0.2942	-0.7505	-10.0804	1.8145	-0.2356	-2.3087	1.2265	-0.6279	0.7659	-0.2765	0.77
-0.372	0.0097	9.9956	-0.2951	0.0673	0.2204	-0.0217	0.3292	-1.0265	0.1965	0.3122	9.8267	-0.6548	0.7967	-0.0624	0.5584	-0.2942	-0.7445	-9.8563	1.6435	-0.4033	-2.3066	1.2865	-0.566	0.7818	-0.2946	0.8053
-0.0747	0.3033	9.8221	-0.0772	0.1918	0.1897	-0.0398	0.33	-1.0276	0.1977	0.255	9.885	-0.4661	0.6764	0.0909	0.5704	-0.2882	-0.7445	-9.8061	1.8706	-0.7454	-2.2389	1.3448	-0.3832	0.7974	-0.3135	0.805
-0.7383	0.7135	9.7469	-0.1113	0.039	0.1253	0.0146	0.3471	-1.0071	0.4244	0.4266	9.773	-0.3394	0.4913	-0.0009	0.5764	-0.2942	-0.7565	-9.4025	1.8135	-0.3948	-1.9348	1.4084	-0.5761	0.7968	-0.3145	0.7517
-0.1984	-0.3356	9.5944	0.0477	0.254	0.2202	-0.0228	0.3286	-1.0433	0.3694	0.3697	9.8888	-0.0265	0.2462	-0.0935	0.5704	-0.2822	-0.7565	-9.9724	2.0416	-0.5195	-1.8259	1.401	-0.0571	0.7972	-0.3138	0.7872
-0.0763	-0.0454	9.7097	0.0805	0.4074	0.1616	0.0107	0.3642	-1.0568	0.4249	0.0816	9.7715	-0.025	0.2165	0.0296	0.5704	-0.2882	-0.7445	-9.7992	1.3022	-0.4025	-1.4881	1.1281	-0.1308	0.7966	-0.3149	0.7339
-0.3191	-0.102	9.5894	0.0807	0.4381	0.1315	-0.0037	0.3284	-1.0255	0.1958	0.7148	9.8285	0.0347	0.2463	-0.1553	0.5644	-0.2822	-0.7505	-9.628	1.4158	-0.342	-1.1765	1.1882	-0.0782	0.7992	-0.1988	0.7909
-0.0712	0.126	9.9995	0.082	0.499	0.1636	-0.0248	0.3274	-1.0768	0.5466	0.4282	10.1853	0.0657	0.2151	-0.2168	0.5584	-0.2882	-0.7505	-9.5725	1.5863	-0.3981	-0.9613	1.0061	-0.1168	0.7821	-0.2755	0.8059
-0.1355	0.0123	9.7663	-0.1673	0.3436	0.1941	-0.0058	0.3272	-1.059	0.2529	0.1969	9.7687	-0.1223	0.4634	0.0901	0.5584	-0.2822	-0.7505	-9.8588	1.9277	-0.5175	-0.7468	1.1901	-0.214	0.782	-0.2943	0.8231
-0.0755	0.129	9.7659	-0.2645	0.1908	0.0075	-0.0078	0.326	-1.0926	0.3662	0.2539	9.7126	-0.9086	1.0073	-0.4001	0.5644	-0.3002	-0.7385	-9.576	1.8705	-0.5696	-0.5202	1.3684	0.088	0.7974	-0.3135	0.805
-0.3175	0.3051	9.701	-0.0819	-0.0523	0.1229	-0.0228	0.3286	-1.0433	0.1975	0.37	9.8855	-0.8442	1.0115	-0.0318	0.5704	-0.2942	-0.7505	-9.8584	1.6434	-0.5177	-0.9232	1.4904	0.0703	0.7977	-0.2758	0.7707
0.0986	0.2499	9.4172	-0.1495	-0.3581	0.0556	0.0138	0.2887	-1.0592	-0.0865	0.1985	9.9964	-0.9072	1.0727	-0.0318	0.5584	-0.2762	-0.7565	-9.5835	2.0976	-0.97	-0.819	1.5156	0.4361	0.8133	-0.3131	0.8053
-0.3737	-0.339	9.8832	-0.086	-0.2352	0.0267	0.0105	0.3447	-1.0742	0.0803	-0.0331	9.7058	-0.6887	0.983	0.0596	0.5644	-0.2762	-0.7625	-9.9668	1.7575	-0.2336	-0.8442	1.2387	0.6497	0.7972	-0.3138	0.7872
0.1578	0.1922	9.3606	-0.1788	-0.2668	0.058	0.0123	0.3264	-1.058	0.3126	0.0248	9.8862	-0.5627	0.9242	0.2436	0.5704	-0.2762	-0.7625	-9.3508	1.6995	-0.68	-0.9681	1.2082	0.6532	0.7972	-0.3138	0.7872
-0.0736	0.3026	9.8805	-0.0499	-0.0217	0.1847	0.0172	0.3099	-0.9915	0.2028	-0.2041	10.1173	-0.4978	0.7067	0.0602	0.5764	-0.2822	-0.7565	-9.7967	1.871	-0.2303	-1.0302	1.1473	0.6546	0.8448	-0.3316	0.8054
-0.4375	0.0135	9.7026	0.0133	0.1629	0.0341	0.0465	0.3431	-1.0721	0.2508	0.7717	9.7127	-0.496	0.5819	-0.062	0.5704	-0.2702	-0.7445	-9.5727	1.7569	-0.398	-0.9337	1.1151	0.7743	0.7657	-0.2953	0.7872
-0.1378	0.1305	9.648	0.235	0.3166	0.3115	-0.0039	0.3089	-1.0429	0.8266	0.3687	9.8391	-0.2159	0.5246	0.1211	0.5644	-0.2822	-0.7445	-9.3999	1.4155	-0.2806	-1.1795	1.1142	0.8431	0.7808	-0.3521	0.8034
0.2296	0.184	10.004	0.2055	0.5311	0.1012	0.0102	0.3252	-1.0916	0.0237	0.1973	9.7643	-0.217	0.5231	-0.0326	0.5644	-0.2822	-0.7385	-9.515	1.8137	-0.3396	-0.8748	1.0556	0.6799	0.798	-0.2751	0.8062
-0.1326	0.1852	9.9393	0.0179	0.4378	0.04	-0.0058	0.3272	-1.059	0.1368	0.4269	9.7089	-0.1627	0.8002	-0.2189	0.5584	-0.2882	-0.7445	-9.5751	2.0411	-0.5122	-0.9479	1.0913	0.3136	0.7813	-0.2957	0.752
0.2866	0.1861	9.8299	-0.2318	0.2211	0.1307	-0.0233	0.2896	-1.078	0.1303	0.3678	9.3572	-0.3833	1.0777	-0.0656	0.5704	-0.2882	-0.7565	-9.5779	1.7566	-0.6841	-0.9539	0.9722	0.1285	0.7973	-0.295	0.7701
-0.3153	0.2453	9.8186	-0.2018	0.068	0.2808	0.0131	0.3075	-1.0586	-0.0847	0.429	10.1146	-0.5016	0.8289	-0.0942	0.5644	-0.2702	-0.7385	-9.4633	1.6997	-0.6248	-0.9525	0.8191	0.1887	0.7816	-0.295	0.7875
0.0429	0.0719	9.6519	-0.0812	0.0089	0.0935	0.0321	0.3073	-1.0408	0.1374	0.0818	9.7074	-0.4396	0.8616	0.0282	0.5584	-0.2822	-0.7505	-9.6339	1.9842	-0.6278	-0.6149	1.0645	0.0576	0.798	-0.2566	0.7713
-0.1344	-0.0468	9.8254	-0.1088	0.1303	0.2195	-0.005	0.3083	-1.0596	0.1992	0.6581	10.004	-0.4115	0.922	-0.1567	0.5704	-0.2822	-0.7445	-9.5749	1.8136	-0.5124	-0.4588	0.8811	0.113	0.798	-0.2751	0.8062
-0.5606	-0.3344	9.5297	-0.0478	0.162	0.0964	0.0131	0.3075	-1.0586	0.1396	0.7152	9.886	-0.5324	0.8286	-0.094	0.5764	-0.3002	-0.7565	-9.6841	1.7571	-0.2856	-0.239	0.9711	0.1993	0.7973	-0.2765	0.7351
-0.557	0.188	9.7567	0.0723	0.0724	-0.0916	0.0301	0.3061	-1.0743	0.1936	0.0239	9.6497	-0.3142	0.7068	-0.1253	0.5644	-0.2942	-0.7565	-9.2343	1.7564	-0.5062	0.099	0.7591	0.126	0.7975	-0.2946	0.7878
-0.0144	0.2449	9.8239	-0.0469	0.2539	0.0368	0.0115	0.3453	-1.0574	0.0276	0.4858	9.9999	-0.3774	0.7995	-0.064	0.5584	-0.2882	-0.7565	-9.5178	1.5292	-0.5116	0.3271	0.51	0.5167	0.7977	-0.2758	0.7707
-0.5631	-0.0411	9.4092	0.0438	0.0403	0.1848	-0.0047	0.3278	-1.0423	0.3696	0.1972	9.8881	-0.5015	0.8607	-0.0022	0.5644	-0.2762	-0.7505	-9.4498	1.7571	0.1192	0.4217	0.4483	0.5748	0.83	-0.2556	0.7897
-0.0743	0.0699	9.825	-0.0755	0.2527	0.2525	-0.006	0.385	-1.0237	0.4829	0.3118	9.8322	-0.6572	0.9206	-0.0324	0.5524	-0.2822	-0.7505	-9.6889	1.4157	-0.572	0.5126	0.7236	0.4821	0.7654	-0.3145	0.7866
-0.1891	-0.1671	10.1178	-0.1993	0.3131	0.1323	-0.0248	0.3274	-1.0768	0.2535	0.4847	9.8286	-0.4432	0.9841	-0.0954	0.5704	-0.2762	-0.7565	-9.4088	1.8701	-0.7381	0.3934	0.6909	0.639	0.766	-0.2761	0.7878
-0.0801	-0.3343	9.4797	-0.202	0.1911	0.0682	-0.0084	0.3644	-1.0746	-0.087	0.486	9.9977	-0.6308	1.1058	-0.0951	0.5584	-0.2942	-0.7445	-9.4621	1.586	-0.5677	0.1643	0.9404	0.2177	0.8129	-0.3138	0.7698
0.1084	0.0098	9.9457	-0.2363	0.0077	0.0339	-0.0207	0.3298	-1.0098	0.3669	0.5417	9.7724	-0.694	1.2303	0.0582	0.5584	-0.2822	-0.7505	-9.7447	1.4726	-0.5158	0.1633	0.9409	0.187	0.8288	-0.295	0.7352
-0.3133	0.3022	9.9346	-0.2379	-0.084	0.0319	-0.0032	0.29	-1.0434	0.7079	0.8282	9.6632	-0.6964	1.3225	-0.0038	0.5584	-0.2822	-0.7445	-9.8017	1.6433	-0.5167	0.2577	0.8183	0.2447	0.8306	-0.2546	0.843
-0.4952	0.5366	9.8701	-0.2685	-0.1459	0.154	0.0309	0.2873	-1.0749	0.0861	0.4285	10.0593	-0.7572	1.2912	0.0275	0.5704	-0.2942	-0.7505	-10.0804	1.7576	-0.2356	0.5097	0.6944	0.3898	0.8144	-0.2368	0.79
-0.4969	0.1879	9.7577	-0.2666	0.0071	0.0958	-0.0032	0.29	-1.0434	0.3129	0.5426	9.9471	-0.7231	1.1688	0.1202	0.5704	-0.2822	-0.7625	-9.2316	1.3015	-0.3921	0.2294	0.4513	0.3655	0.8134	-0.2943	0.7882
-0.1935	-0.0474	9.8827	-0.3307	-0.0541	-0.0278	-0.0032	0.29	-1.0434	0.252	0.7145	9.771	-0.627	1.0154	0.1513	0.5644	-0.2822	-0.7505	-9.4051	1.4153	-0.5668	0.1649	0.2391	0.3043	0.7655	-0.2957	0.7694
-0.3774	0.0717	9.7029	-0.3549	0.1274	0.3148	0.0143	0.3276	-1.0245	0.479	0.7136	9.6583	-0.093	0.4935	-0.0331	0.5704	-0.2822	-0.7385	-9.5203	1.8704	-0.6258	-0.0184	0.116	0.4009	0.8131	-0.295	0.7526
-0.1964	0.5377	9.7586	-0.2625	0.2515	0.101	0.0136	0.3465	-1.0239	-0.0291	0.1409	9.9973	0.0946	0.4035	0.0585	0.5704	-0.2822	-0.7505	-9.9714	1.2454	-0.5201	-0.0561	0.0582	0.1865	0.7972	-0.2953	0.7523
-0.5011	0.1908	9.5241	-0.1989	0.2206	0.3148	-0.0238	0.328	-1.0601	0.0159	0.253	9.3545	0.2809	0.3436	0.0578	0.5704	-0.2942	-0.7385	-9.5784	1.3017	-0.7417	-0.3045	0.1194	0.1637	0.7982	-0.2748	0.824
-0.0708	-0.2241	10.0039	-0.2575	0.4339	0.2894	0.0154	0.3282	-1.0077	0.3606	0.3102	9.4199	0.0345	0.3414	0.09	0.5584	-0.2882	-0.7565	-10.313	2.0989	-0.5257	-0.42	0.3898	0.4151	0.7811	-0.3145	0.7691
-0.4402	0.4235	9.5807	-0.3555	0.1892	0.1623	-0.0418	0.3288	-1.0611	-0.0268	0.7168	10.1756	-0.3424	0.551	-0.2164	0.5704	-0.2942	-0.7505	-9.6356	1.6998	-0.7424	-0.2602	0.1742	0.593	0.8297	-0.2748	0.7891
-0.4953	-0.163	9.8205	-0.0754	0.4372	-0.0203	-0.0068	0.3266	-1.0758	0.2002	0.083	10.0014	-0.2483	0.4905	-0.1858	0.5764	-0.2822	-0.7505	-9.6786	1.5298	0.0004	-0.1649	0.3559	0.6531	0.7827	-0.2559	0.8243
-0.072	-0.1067	9.944	-0.2913	0.3733	0.104	-0.0246	0.3469	-1.0595	0.2566	0.6005	10.0048	0.0336	0.3402	-0.033	0.5704	-0.2882	-0.7385	-9.6312	1.4725	-0.5137	0.2076	0.6908	0.6446	0.7816	-0.295	0.7875
0.2259	-0.1632	9.7748	0.1195	0.835	0.2626	0.0175	0.2521	-1.0268	0.4302	0.1979	10.0649	0.2192	0.2794	-0.1259	0.5704	-0.2762	-0.7565	-9.7967	1.8141	-0.2304	-0.216	0.808	0.9655	0.798	-0.2566	0.7713
-0.317	-0.0451	9.7054	0.27	0.7151	0.0736	-0.024	0.3085	-1.0774	0.2511	0.5992	9.7119	0.6231	0.1922	0.0259	0.5704	-0.2942	-0.7625	-9.5689	1.1883	-0.2267	-0.0603	1.1124	0.9633	0.7342	-0.2768	0.7872
-0.3786	0.1892	9.643	0.7079	1.0864	0.0147	-0.005	0.3083	-1.0596	0.0826	0.5427	9.8841	0.5637	0.1309	0.1496	0.5824	-0.2882	-0.7445	-9.8522	1.7005	-0.1743	-0.042	1.2562	1.5477	0.782	-0.2758	0.7881
0.045	0.0705	9.7687	0.4938	1.2679	-0.071	-0.0063	0.2883	-1.0938	0.8333	0.3127	10.1903	0.3743	0.2821	-0.0039	0.5524	-0.2762	-0.7445	-9.7973	1.4729	-0.2879	0.1222	1.2519	1.85	0.7975	-0.2946	0.7878
-1.0425	0.0165	9.5168	0.5849	1.1157	0.0169	-0.0243	0.3664	-1.0421	0.6568	0.427	9.9532	0.0039	0.3413	0.1209	0.5584	-0.2822	-0.7505	-9.6784	1.3024	0.0002	0.4326	0.9164	1.8995	0.7972	-0.2953	0.7523
-0.1372	0.48	9.702	0.4278	0.8999	0.1064	0.0102	0.3252	-1.0916	0.4807	0.3112	9.715	-0.1833	0.3683	-0.0933	0.5644	-0.2942	-0.7565	-9.6202	1.8711	0.1162	0.4958	0.7329	1.9576	0.7823	-0.2566	0.7887
-0.3224	0.017	9.4127	0.3038	0.9911	-0.0746	0.0128	0.3654	-1.0233	0.3198	0.3716	10.2978	-0.4603	0.3979	0.0618	0.5464	-0.3002	-0.7565	-9.7418	1.6434	-0.3439	0.5254	0.6116	1.925	0.7814	-0.2953	0.7697
-0.2003	0.3072	9.528	0.4471	0.2282	0.0608	-0.0228	0.3286	-1.0433	0.1414	0.3129	9.9427	-0.5573	0.5182	-0.1842	0.5524	-0.2762	-0.7565	-9.178	2.1544	-0.5048	0.7345	0.5544	1.6725	0.7816	-0.2765	0.7526
-0.0679	0.0071	10.1761	0.1417	0.3159	0.2511	-0.005	0.3083	-1.0596	0.2518	0.1966	9.7101	-0.1538	0.4622	-0.0018	0.5524	-0.2882	-0.7565	-9.6875	1.1314	-0.515	0.7929	0.6474	1.5486	0.83	-0.2556	0.7897
-0.137	0.3632	9.7035	0.1123	0.4996	0.1017	-0.0607	0.3485	-1.0616	0.3062	0.5986	9.5959	-0.1186	0.2141	-0.1235	0.5704	-0.3002	-0.7565	-9.4689	1.1307	-0.9687	0.508	0.7417	1.3428	0.8293	-0.2755	0.7535
-0.0694	0.2997	10.1141	0.1752	0.5305	0.1631	-0.0238	0.328	-1.0601	0.3725	0.4855	10.0651	-0.1507	0.3392	0.0603	0.5764	-0.2762	-0.7625	-9.2346	2.0407	-0.5059	-0.021	1.078	1.2384	0.8129	-0.3138	0.7698
-0.1931	-0.3392	9.8864	0.0506	0.4682	0.1633	-0.0032	0.29	-1.0434	0.7114	0.0811	9.777	0.0684	0.1868	0.0599	0.5704	-0.2822	-0.7445	-9.8022	2.0983	-0.5163	-0.3023	1.1401	1.1551	0.7653	-0.296	0.7516
0.1027	0.3053	9.65	-0.0102	0.4671	0.2563	0.0321	0.3073	-1.0408	0.2013	0.0832	10.06	-0.1239	0.4932	-0.0329	0.5644	-0.2882	-0.7445	-9.295	1.5857	-0.7363	-0.6697	1.2295	1.2897	0.782	-0.2758	0.7881
-0.0727	-0.3394	9.8885	-0.0756	0.345	0.1007	-0.0421	0.3093	-1.0785	0.542	0.5997	9.9517	-0.187	0.6177	0.1203	0.5644	-0.3062	-0.7505	-9.8606	1.7002	-0.6321	-0.795	1.3521	1.233	0.7491	-0.3155	0.7507
-0.3193	0.0731	9.5872	-0.2298	0.2818	0.2243	-0.0053	0.3662	-1.0243	0.4217	0.0233	9.5955	-0.2806	0.6471	0.0593	0.5704	-0.2942	-0.7505	-9.7439	1.6433	-0.4584	-0.9765	1.2281	1.3911	0.7821	-0.257	0.771
-0.1429	0.7754	9.4063	-0.1413	0.1307	0.0661	-0.0084	0.3644	-1.0746	0.3098	0.4268	9.7708	-0.5308	0.8306	0.1211	0.5524	-0.3002	-0.7445	-9.7944	1.6436	-0.1161	-0.8608	1.0186	1.1401	0.8285	-0.3327	0.7695
0.1083	0.0682	9.945	-0.0507	0.0094	0.0623	0.011	0.3063	-1.0921	0.6566	0.542	9.9537	-0.5004	0.7985	-0.0325	0.5524	-0.2762	-0.7625	-9.8566	1.871	-0.4031	-0.5483	1.0478	1.2232	0.7818	-0.2946	0.8053
-0.3117	-0.0487	9.9974	0.0107	0.1025	-0.1209	-0.0047	0.3278	-1.0423	0.4293	0.0826	10.0058	-0.4383	0.8316	0.1205	0.5764	-0.2882	-0.7445	-9.7426	1.4727	-0.4013	-0.3725	0.8697	0.9092	0.8292	-0.3128	0.8056
-0.065	0.18	10.3491	-0.0228	-0.1736	0.058	-0.0243	0.3664	-1.0421	0.4343	0.429	10.3003	-0.5634	0.8597	-0.0325	0.5644	-0.2882	-0.7565	-9.6319	2.0412	-0.5132	-0.2102	0.8662	1.1502	0.75	-0.2953	0.8046
-0.1377	0.0722	9.6487	-0.1117	0.07	0.0337	-0.0037	0.3284	-1.0255	0.3136	0.0825	9.945	-0.4064	0.7698	0.09	0.5704	-0.2822	-0.7625	-9.4622	1.6429	-0.5677	0.0699	0.7437	1.2022	0.7975	-0.2946	0.7878
-0.3069	0.2394	10.2858	-0.3883	0.0973	0.13	-0.0068	0.3266	-1.0758	0.3743	0.0257	10.1216	-0.097	0.7108	0.0578	0.5704	-0.2882	-0.7445	-9.5751	1.9843	-0.5122	0.1885	0.5634	1.0436	0.8283	-0.3515	0.7866
-0.3191	-0.102	9.5894	-0.3265	0.0365	0.2202	0.0133	0.327	-1.0412	0.3099	0.3693	9.7706	-0.0893	0.3395	0.0292	0.5764	-0.2822	-0.7325	-9.6827	1.4159	-0.2286	0.2138	0.566	0.8585	0.8451	-0.3124	0.806
-0.6163	0.2457	9.8133	-0.2298	0.2818	0.2243	-0.0426	0.3477	-1.0605	0.1938	0.5993	9.7108	0.0024	0.4029	0.0898	0.5584	-0.2882	-0.7565	-9.3508	1.6995	-0.68	0.2092	0.5986	0.7053	0.7813	-0.3141	0.7869
-0.0765	0.1297	9.7075	-0.226	0.5263	0.1988	0.0499	0.2871	-1.0571	0.4257	0.2544	9.8308	0.1583	0.3114	0.0587	0.5764	-0.2762	-0.7625	-10.0738	1.5304	0.1076	0.2032	0.7843	0.4918	0.8138	-0.2751	0.7888
-0.0759	0.4208	9.7622	-0.1049	0.4978	0.0121	0.0146	0.3471	-1.0071	0.3131	0.4276	9.9466	0.3752	0.2515	0.027	0.5584	-0.2882	-0.7625	-9.2921	1.7564	-0.5644	0.1773	0.9038	0.6472	0.8136	-0.2939	0.8059
-0.3762	0.0127	9.762	0.0546	0.8049	0.0168	-0.0246	0.3469	-1.0595	0.9445	0.3693	10.017	0.0669	0.2801	0.1209	0.5644	-0.2882	-0.7505	-9.9734	1.9847	-0.5768	-0.0063	0.9942	0.7149	0.798	-0.2751	0.8062
-0.7346	0.3027	9.9272	0.4889	0.9007	0.0442	-0.0068	0.3266	-1.0758	-0.1467	0.6006	9.88	0.0671	0.2804	0.1516	0.5584	-0.2942	-0.7565	-9.7944	1.6436	-0.1161	-0.0053	0.9938	0.7456	0.8138	-0.2936	0.8237
-0.673	0.0685	9.9896	0.3037	0.8681	0.1073	-0.024	0.3085	-1.0774	0.3141	0.4854	10.0054	0.0367	0.2489	0.1212	0.5704	-0.2762	-0.7445	-9.7386	1.5866	-0.1723	-0.0053	0.9938	0.7456	0.8136	-0.2939	0.8059
-0.4986	-0.1024	9.6446	0.0222	0.7129	0.0152	0.0126	0.2686	-1.0933	0.08	0.7723	9.768	0.1891	0.3435	0.1505	0.5704	-0.2882	-0.7625	-9.4556	1.3588	-0.2245	-0.0725	0.8133	0.5925	0.7974	-0.3135	0.805
-0.256	0.1292	9.7627	-0.1381	0.4369	-0.1118	0.0102	0.3252	-1.0916	0.3098	0.4268	9.7708	0.0039	0.3413	0.1209	0.5584	-0.2882	-0.7505	-9.7984	1.5297	-0.3451	-0.005	0.8107	0.7748	0.8141	-0.2744	0.8243
-0.0747	0.3617	9.8213	-0.3261	0.1593	0.0691	-0.0029	0.3095	-1.0261	0.5917	0.4828	9.5423	-0.3742	0.7082	0.0902	0.5644	-0.3002	-0.7565	-9.459	1.5861	-0.396	0.0007	0.8081	0.959	0.7503	-0.2577	0.7703
-0.3188	-0.3354	9.5923	-0.271	-0.2372	0.0598	0.0295	0.3445	-1.0564	0.4232	1.1168	9.7761	-0.5002	0.8306	0.0902	0.5584	-0.2762	-0.7625	-9.5648	2.0984	0.0602	0.153	0.6264	0.8915	0.782	-0.2943	0.8231
-0.1349	-0.3962	9.7714	-0.332	-0.2689	0.1829	0.0303	0.3256	-1.057	0.4836	0.5996	9.8921	-0.6257	0.9218	0.0596	0.5824	-0.2942	-0.7685	-9.2869	1.8135	-0.2782	0.1499	0.8412	0.7704	0.7975	-0.2946	0.7878
-0.3765	0.1877	9.7598	-0.3309	-0.2078	0.1842	0.0115	0.3453	-1.0574	0.3721	0.7156	10.0661	-0.439	0.8625	0.1204	0.5824	-0.2762	-0.7565	-9.8008	1.814	-0.4593	0.1477	0.4156	0.7364	0.8138	-0.2936	0.8237
0.1022	-0.1025	9.5968	-0.3949	-0.2998	0.1215	-0.0065	0.3461	-1.0584	0.8251	-0.0344	9.7201	-0.4363	0.7388	0.1211	0.5644	-0.2882	-0.7565	-9.6886	1.9844	-0.5143	0.0225	0.599	0.6801	0.8127	-0.3142	0.752
-0.0754	0.0706	9.7666	-0.5731	0.0645	0.2239	-0.0096	0.3443	-1.1088	0.258	0.4282	10.0626	-0.2842	0.7377	-0.1564	0.5584	-0.2942	-0.7445	-9.7491	1.6999	-0.7445	-0.2261	0.2946	0.6851	0.7496	-0.3145	0.804
-0.4302	0.1251	10.1099	-0.5083	0.2484	0.227	0.0136	0.3465	-1.0239	0.5379	0.3687	9.7164	-0.2222	0.8658	0.242	0.5644	-0.2882	-0.7565	-9.5162	1.9843	-0.3967	-0.4146	0.3263	0.5988	0.8133	-0.3131	0.8053
0.2262	0.3613	9.8266	-0.4148	0.2798	0.2573	0.0491	0.306	-1.0565	0.136	0.2541	9.6496	-0.3762	0.801	0.0896	0.5644	-0.3062	-0.7445	-10.204	1.5299	-0.8102	-0.6014	0.2658	0.5732	0.7814	-0.2953	0.7697
-0.0198	0.3069	9.5311	-0.5095	0.3105	0.0131	0.0141	0.3081	-1.0418	0.4323	0.2559	10.1823	-0.0639	0.6504	0.1809	0.5584	-0.2822	-0.7625	-9.6313	1.5294	-0.5136	-0.5393	0.3267	0.5719	0.8136	-0.2755	0.771
-0.1379	0.2472	9.6465	-0.385	0.2498	0.1948	-0.0222	0.2902	-1.0613	0.0856	0.0832	9.9992	-0.0897	0.4025	0.1518	0.5524	-0.2822	-0.7505	-9.6308	1.9844	-0.4561	-0.7286	0.0844	0.4834	0.8283	-0.3145	0.7168
0.048	0.185	9.9424	-0.3179	0.4943	0.3223	-0.0042	0.2894	-1.0602	0.1407	0.0826	9.8831	0.2834	0.2514	0.1198	0.5524	-0.3002	-0.7505	-9.6264	1.8139	-0.2273	-0.5529	0.1806	0.1409	0.8131	-0.3135	0.7875
-0.1956	-0.046	9.7659	-0.1362	0.4361	0.0727	-0.0021	0.2906	-1.0267	0.0827	0.4852	9.8838	0.469	0.2542	0.2108	0.5644	-0.3062	-0.7565	-9.7482	1.7569	-0.6872	-0.4009	0.2124	0.0444	0.7816	-0.295	0.7875
0.1001	-0.101	9.48	-0.2256	0.5877	0.1386	-0.0021	0.2906	-1.0267	0.3112	0.8874	9.8901	0.4397	0.1288	0.0581	0.5704	-0.2822	-0.7445	-9.7427	1.5865	-0.4012	-0.4575	0.3928	0.2012	0.7982	-0.2563	0.7891
-0.3766	0.3045	9.7584	-0.1308	0.6185	0.2918	-0.0047	0.3278	-1.0423	0.0832	0.8306	9.944	0.3448	0.2518	0.0887	0.5704	-0.2942	-0.7505	-9.6313	1.5862	-0.5136	-0.1975	0.4481	0.5933	0.7818	-0.2946	0.8053
-0.1993	0.3648	9.5856	0.1128	0.5301	0.1023	0.0131	0.3075	-1.0586	0.2563	0.0826	9.9439	0.377	0.2538	0.2728	0.5764	-0.2822	-0.7505	-9.2861	1.9841	-0.2209	0.0207	0.3256	0.6473	0.8143	-0.2556	0.8072
-0.1967	-0.0452	9.7075	0.0189	0.4374	0.1323	-0.0261	0.3073	-1.111	0.4332	0.4287	10.2417	0.2819	0.3765	0.2727	0.5644	-0.2822	-0.7565	-9.7459	1.6432	-0.5729	-0.1934	0.2329	0.7451	0.7816	-0.295	0.7875
-0.378	0.5387	9.697	-0.0763	0.3453	0.0392	0.0133	0.327	-1.0412	0.4826	-0.1486	9.7715	-0.0012	0.5571	0.0581	0.5644	-0.2942	-0.7445	-9.6361	2.0979	-0.7421	-0.3366	0.3493	1.1191	0.7975	-0.2946	0.7878
-0.0756	0.2457	9.7644	-0.1075	0.2836	0.0998	-0.0047	0.3278	-1.0423	0.7788	-0.0317	10.3048	-0.3406	0.4898	-0.1546	0.5584	-0.3062	-0.7625	-9.4578	1.4724	-0.3389	-0.3735	0.2606	0.9351	0.7969	-0.333	0.7866
0.1038	0.3046	9.7084	-0.0134	0.3147	0.1915	-0.0228	0.3286	-1.0433	0.0217	0.0817	9.6466	-0.1514	0.2747	-0.2159	0.5644	-0.2882	-0.7505	-9.5698	1.9845	-0.2261	-0.3724	0.2906	0.966	0.8302	-0.2553	0.8075
-0.1948	0.1284	9.8221	0.1404	0.3165	0.1281	0.011	0.3063	-1.0921	-0.0308	0.4857	9.9402	0.1255	0.4038	0.0583	0.5584	-0.2942	-0.7445	-9.6925	1.7567	-0.7434	-0.2454	0.411	1.0554	0.766	-0.2577	0.7529
-0.137	0.3049	9.7042	-0.0439	0.3142	0.2226	0.0112	0.3258	-1.0748	0.2563	0.773	10.0056	0.1259	0.4362	0.2118	0.5704	-0.2882	-0.7565	-9.8624	2.3257	-0.6889	-0.3994	0.6545	1.0619	0.7809	-0.3333	0.7863
0.1091	0.3009	10.0004	0.1719	0.4088	0.0375	-0.0045	0.3473	-1.0249	0.485	0.3698	9.9496	0.2164	0.4663	0.0267	0.5584	-0.3002	-0.7565	-9.3446	1.6998	-0.3366	-0.3331	0.561	1.2128	0.7649	-0.334	0.7682
-0.3165	0.3627	9.7587	0.2673	0.6547	-0.0814	-0.0228	0.3286	-1.0433	0.3103	0.7722	9.831	0.0301	0.558	0.1194	0.5644	-0.2822	-0.7505	-9.513	1.9275	-0.2251	-0.3082	0.4419	1.0268	0.8449	-0.3128	0.7882
-0.3819	0.3081	9.4664	-0.0153	0.377	-0.0839	-0.006	0.3077	-1.0764	0.1435	0.3709	10.0602	-0.1566	0.6492	0.1507	0.5704	-0.2882	-0.7505	-9.7457	2.3257	-0.5151	-0.1165	0.2259	1.2344	0.797	-0.2957	0.7345
-0.4367	0.1878	9.7588	-0.0801	0.193	-0.0871	-0.0032	0.29	-1.0434	0.3643	0.7713	9.6563	-0.2516	0.7404	0.0893	0.5644	-0.2822	-0.7445	-9.5678	1.9846	-0.1116	0.1976	0.1629	1.3782	0.7818	-0.2946	0.8053
-0.6148	-0.0469	9.8753	-0.2658	-0.024	0.2181	0.0143	0.3276	-1.0245	0.3123	0.2548	9.8872	-0.7178	0.9215	0.1216	0.5644	-0.2882	-0.7385	-9.632	2.1549	-0.5132	0.3189	-0.0492	1.3114	0.782	-0.2943	0.8231
-0.2573	0.2467	9.7028	-0.2935	0.2205	0.1315	-0.0277	0.3451	-1.1098	0.0194	0.1387	9.5297	-0.6194	0.5806	-0.0613	0.5764	-0.2942	-0.7445	-9.6255	1.9277	-0.1699	0.3164	0.0739	1.2202	0.8279	-0.3337	0.7162
-0.2516	0.0096	9.9978	-0.2648	0.1294	0.0676	-0.0413	0.2904	-1.0791	0.4899	0.0833	10.1826	-0.1562	0.618	0.1202	0.5704	-0.2882	-0.7385	-9.452	1.8708	0.0048	0.2463	-0.1357	0.9748	0.7652	-0.3333	0.8037
0.2898	0.1839	10.0051	-0.1073	0.3143	0.0697	-0.0045	0.3473	-1.0249	0.2613	0.429	10.2384	-0.0595	0.4337	0.1514	0.5584	-0.2882	-0.7505	-9.5749	1.8705	-0.5123	0.52	-0.2247	0.8123	0.8446	-0.332	0.7876
-0.7994	-0.1604	9.64	-0.1973	0.4352	0.1349	-0.0246	0.3469	-1.0595	0.2581	0.3707	10.0624	0.1279	0.3117	0.1203	0.5584	-0.2882	-0.7565	-9.5184	2.0411	-0.5112	0.4519	-0.4047	0.6285	0.8129	-0.3323	0.8047
-0.3767	0.3628	9.7576	-0.136	0.4053	0.1335	-0.0413	0.3677	-1.0264	0.2515	0.3691	9.7109	0.3752	0.2515	0.027	0.5644	-0.2882	-0.7385	-10.0294	1.4161	-0.5783	0.3918	-0.436	0.6915	0.782	-0.2758	0.7881
-0.1956	-0.046	9.7659	-0.0342	0.8946	0.2351	-0.0055	0.3467	-1.0417	0.4154	0.4821	9.3046	0.2552	0.1592	0.2127	0.5524	-0.2882	-0.7505	-9.4054	1.6428	-0.5666	0.4235	-0.1925	0.6925	0.766	-0.2577	0.7529
-0.5595	0.4229	9.6369	0.1834	1.0193	0.1736	-0.0207	0.3298	-1.0098	0.3122	0.3123	9.8875	0.1288	0.2811	0.1512	0.5764	-0.2942	-0.7565	-9.1219	1.813	-0.5613	0.5108	-0.1594	0.5058	0.8454	-0.2748	0.7716
-0.2555	-0.2793	9.7678	0.276	1.1125	0.0207	0.0123	0.3264	-1.058	0.0301	0.3138	10.1163	0.4047	0.3454	0.1185	0.5584	-0.2882	-0.7385	-9.973	1.7004	-0.577	0.285	-0.0638	0.2061	0.7968	-0.3145	0.7517
-0.2559	0.0125	9.7642	0.3072	1.1742	-0.0399	0.0125	0.3459	-1.0406	0.1455	-0.204	10.1162	0.6888	0.0709	0.2106	0.5464	-0.2942	-0.7505	-9.9737	2.2122	-0.5766	0.0079	0.1182	0.2465	0.8133	-0.3131	0.8053
-0.0727	-0.3394	9.8885	0.4633	1.1751	0.1119	-0.0426	0.3477	-1.0605	0.658	0.3698	10.0115	0.6611	-0.0843	0.181	0.5824	-0.2882	-0.7505	-9.6856	2.1551	-0.3425	-0.0283	0.2426	0.0642	0.8134	-0.2943	0.7882
-0.497	0.3046	9.7563	0.555	1.1764	0.0185	-0.0065	0.3461	-1.0584	0.1397	0.0248	9.8243	0.5963	0.07	0.2112	0.5644	-0.2822	-0.7565	-9.8531	1.5867	-0.2316	-0.4313	0.6694	0.0183	0.782	-0.2758	0.7881
-0.6215	0.2494	9.5213	0.9611	1.4554	0.0195	-0.0238	0.328	-1.0601	0.2024	0.0835	10.1186	0.6276	0.0391	0.1805	0.5584	-0.2882	-0.7565	-9.6872	1.757	-0.4573	-0.3221	1.0884	0.51	0.765	-0.3152	0.751
0.1615	0.5394	9.5898	0.7665	0.996	-0.1418	-0.0058	0.3272	-1.059	0.0243	0.4851	9.8242	0.5013	0.0976	-0.0343	0.5644	-0.2762	-0.7325	-9.3469	1.8703	-0.4509	-0.3759	1.2979	0.7591	0.8287	-0.3323	0.7873
-0.3224	0.017	9.4127	0.8929	1.0884	-0.0184	0.0133	0.327	-1.0412	0.366	0.4265	9.7133	0.1645	0.0335	0.091	0.5704	-0.2642	-0.7625	-9.6886	1.9844	-0.5143	-0.1283	1.2676	0.7514	0.8127	-0.3142	0.752
-0.256	0.0709	9.7634	0.9247	1.0268	0.1644	0.0522	0.3077	-1.0062	0.4264	0.5422	9.8907	0.378	0.1281	0.0585	0.5584	-0.2882	-0.7565	-9.4561	1.8137	-0.2241	0.3097	1.2351	0.8917	0.7973	-0.2765	0.7351
-0.2604	0.2489	9.5276	1.2067	1.3663	0.0145	-0.0233	0.367	-1.0253	0.4852	0.2548	9.9491	0.5683	-0.1173	0.0588	0.5584	-0.2882	-0.7445	-9.7987	1.8141	-0.3449	0.342	1.0821	0.951	0.7813	-0.3141	0.7869
-0.1356	0.0707	9.7655	1.1761	1.4582	-0.1062	0.0123	0.3264	-1.058	0.1431	-0.032	9.9998	0.4519	-0.3956	0.1841	0.5524	-0.2882	-0.7385	-9.4623	1.7566	-0.5676	0.2733	0.9939	0.7372	0.7649	-0.334	0.7682
-0.3784	0.0141	9.6452	1.0218	1.4873	-0.1343	0.0656	0.3429	-1.0543	0.1983	0.5428	9.9449	0.5126	-0.3644	0.1528	0.5644	-0.2882	-0.7505	-9.6929	2.1548	-0.7431	0.1265	1.4472	0.9604	0.7977	-0.2758	0.7707
-0.0698	-0.1665	10.0615	0.8406	1.7298	-0.1268	-0.0398	0.33	-1.0276	0.1906	0.541	9.5348	1.0397	-0.4506	0.2731	0.5644	-0.3002	-0.7445	-9.7471	1.7	-0.6301	0.0627	1.7529	0.8725	0.8282	-0.3518	0.7689
-0.3256	0.0192	9.2375	1.1187	1.7633	-0.1603	-0.0194	0.2726	-1.0283	0.3147	0.0828	10.0036	0.8773	-0.0815	0.2412	0.5584	-0.2882	-0.7565	-9.4633	1.6997	-0.6248	-0.0546	1.7497	1.0911	0.8133	-0.2946	0.7704
-0.2643	0.0184	9.297	2.4721	1.5333	-0.3361	-0.0228	0.3286	-1.0433	0.4221	0.4261	9.6559	0.3488	0.0663	0.0897	0.5584	-0.2942	-0.7565	-10.1936	1.5303	-0.2379	-0.4245	1.9622	1.1346	0.8136	-0.2939	0.8059
-0.3737	0.4774	9.9314	1.2655	1.3066	-0.1721	0.0112	0.3258	-1.0748	0.4273	0.6575	9.9498	0.0647	0.4044	0.1816	0.5584	-0.3002	-0.7505	-9.74	1.8709	-0.2293	-0.1658	1.561	1.5231	0.7817	-0.2577	0.7354
-0.4376	0.0718	9.7018	0.9847	1.0589	-0.0509	-0.0055	0.3467	-1.0417	0.4205	0.7709	9.5988	-0.0309	0.5265	0.12	0.5644	-0.2882	-0.7565	-9.8017	1.6433	-0.5167	-0.0109	1.3171	1.5473	0.7816	-0.295	0.7875
-0.3828	0.1921	9.4094	0.6963	0.3529	0.0604	-0.0032	0.29	-1.0434	0.1356	0.4841	9.6506	-0.2808	0.6786	0.1205	0.5464	-0.3062	-0.7505	-9.165	1.7568	0.1817	0.1425	0.8607	1.539	0.8134	-0.2943	0.7882
-0.6795	0.1312	9.6385	0.7275	0.3531	0.0908	-0.0212	0.2908	-1.0445	0.8351	0.5433	10.3085	-0.4993	0.8	0.1211	0.5644	-0.3062	-0.7505	-9.2865	1.4723	-0.2785	0.2622	0.7407	1.4116	0.765	-0.3152	0.751
-0.1973	0.4217	9.7017	0.6327	0.1685	0.1802	0.0089	0.3825	-1.073	0.4838	0.4846	9.8915	-0.6884	1.0469	0.2744	0.5524	-0.2942	-0.7565	-9.6886	1.9844	-0.5143	0.5975	0.5605	1.2465	0.7495	-0.3148	0.7863
-0.0834	0.4843	9.3527	0.353	0.0433	0.2118	0.0105	0.3447	-1.0742	0.7072	0.5979	9.6036	-1.0954	1.3843	0.4284	0.5584	-0.3002	-0.7565	-9.7421	1.9277	-0.3437	0.6542	0.6849	1.0614	0.8292	-0.2943	0.7707
-0.2542	0.3612	9.8766	0.1034	-0.0504	0.1206	-0.0055	0.3467	-1.0417	0.711	1.0015	9.8397	-1.3803	1.7213	0.3973	0.5644	-0.2942	-0.7505	-9.6897	2.0981	-0.5715	0.5032	0.4087	1.2173	0.8133	-0.2946	0.7704
-0.0228	0.1924	9.3574	0.0068	-0.3266	0.1774	-0.005	0.3083	-1.0596	0.3735	0.5433	10.1239	-1.3202	1.7834	0.3659	0.5524	-0.3002	-0.7565	-9.6896	1.9844	-0.5716	0.19	0.136	1.1323	0.8288	-0.3135	0.7701
-0.2604	0.2489	9.5276	-0.1488	-0.3584	0.1171	-0.0235	0.3475	-1.0427	0.2561	0.2552	9.9447	-1.1962	1.8174	0.5493	0.5644	-0.3002	-0.7385	-9.5152	2.0412	-0.3395	0.3663	-0.1643	0.8481	0.8142	-0.2929	0.8593
0.1664	0.0696	9.8292	-0.3641	-0.4225	0.3029	0.0313	0.3262	-1.0402	0.5417	0.0819	9.8908	-0.9753	1.6038	0.6108	0.5644	-0.2882	-0.7505	-9.5748	1.7568	-0.5124	0.5175	-0.4368	0.7492	0.7809	-0.3333	0.7863
-0.133	0.5354	9.9349	-0.3341	-0.5141	0.3621	0.0283	0.3244	-1.0905	0.6516	0.2532	9.6595	-0.883	1.6044	0.5795	0.5644	-0.2882	-0.7325	-9.746	1.7001	-0.5728	0.0482	-0.4957	0.6092	0.8293	-0.2755	0.7535
-0.0712	0.126	9.9995	-0.7333	-0.2423	0.1577	0.0112	0.3258	-1.0748	0.4244	0.3691	9.7728	-0.8238	1.729	0.6091	0.5704	-0.2882	-0.7445	-9.4633	1.6997	-0.6248	0.4074	-0.825	0.227	0.7502	-0.2949	0.8224
-0.198	0.189	9.6462	-0.8588	-0.3965	0.2175	0.0133	0.327	-1.0412	0.428	0.1974	9.9477	-0.8031	2.1609	0.4835	0.5524	-0.2882	-0.7685	-9.5719	1.9844	-0.3406	0.7794	-1.2823	0.2737	0.7811	-0.3145	0.7691
-0.5522	0.5345	10.0443	-0.9792	-0.3068	0.3747	0.0117	0.3648	-1.0401	0.5398	0.5992	9.8346	-1.2412	2.4024	0.331	0.5764	-0.2882	-0.7565	-9.2272	1.9841	-0.1054	1.0532	-1.6152	0.1399	0.7969	-0.333	0.7866
-0.4955	-0.0463	9.8191	-0.7324	-0.3657	0.4318	-0.0102	0.3827	-1.0908	0.3726	0.428	10.0648	-1.5238	2.5518	0.0859	0.5524	-0.2882	-0.7565	-9.4556	1.3588	-0.2245	0.8748	-1.6796	0.3906	0.7979	-0.2755	0.7885
-0.1344	-0.0468	9.8254	-0.5761	-0.2111	0.3717	-0.0204	0.272	-1.0451	0.362	0.8283	9.5394	-1.803	2.6738	0.2098	0.5644	-0.2942	-0.7505	-9.2936	1.3013	-0.6793	0.7425	-1.6757	0.118	0.7655	-0.2957	0.7694
-0.0721	0.0101	9.9425	-0.3582	-0.1481	0.4318	-0.0039	0.3089	-1.0429	0.0823	0.0824	9.8235	-1.9882	2.6716	0.1801	0.5584	-0.2942	-0.7565	-9.5115	1.5295	-0.1682	1.2137	-1.5728	-0.6942	0.8126	-0.3145	0.7342
-0.1378	0.1305	9.648	-0.172	-0.0543	0.37	0.012	0.3069	-1.0754	0.3685	0.8873	9.8912	-1.6458	2.5205	0.179	0.5644	-0.2942	-0.7565	-9.284	1.9842	-0.1064	1.1084	-1.3537	-1.1195	0.7973	-0.2765	0.7351
-0.129	-0.1088	10.1181	-0.2045	-0.0539	0.2167	-0.022	0.3097	-1.0439	0.0789	0.772	9.7094	-1.5176	2.3374	0.3023	0.5764	-0.3002	-0.7565	-10.2014	1.1319	-0.6961	0.9835	-1.3837	-1.1467	0.7973	-0.295	0.7701
-0.3127	-0.1064	9.9398	-0.2331	0.0063	0.3414	0.0125	0.3459	-1.0406	0.1394	0.1973	9.8251	-1.524	2.6151	0.2392	0.5524	-0.2882	-0.7505	-9.7505	1.9274	-0.8016	0.8324	-1.7207	-0.9912	0.8129	-0.3323	0.8047
-0.1897	0.2998	10.1119	-0.3255	0.0976	0.2215	-0.0614	0.3673	-1.061	0.1953	0.3695	9.7684	-1.7085	2.6773	0.4858	0.5644	-0.3002	-0.7445	-9.6306	1.8706	-0.4561	1.3715	-2.1227	-0.5497	0.8136	-0.2755	0.771
-0.3207	0.3073	9.5258	-0.3582	-0.0866	0.3409	0.0126	0.2686	-1.0933	0.2029	0.4288	10.1787	-1.9293	2.9545	0.6083	0.5584	-0.2882	-0.7445	-9.571	2.0982	-0.2832	1.6278	-2.3705	-0.252	0.7969	-0.333	0.7866
-0.1408	0.774	9.5231	-0.4824	-0.1491	0.3719	-0.0003	0.2724	-1.0105	0.1951	0.4845	9.7689	-1.5888	2.928	0.6987	0.5524	-0.2882	-0.7385	-9.4497	1.7003	0.1192	2.0381	-2.8616	0.039	0.7818	-0.2946	0.8053
-0.3743	0.1279	9.8774	-0.7626	-0.3048	0.4028	0.0311	0.3067	-1.0576	0.2529	0.1969	9.7687	-1.5964	3.2359	0.574	0.5704	-0.2942	-0.7625	-9.7493	1.8137	-0.7444	2.3276	-3.019	0.3979	0.8124	-0.3333	0.7514
-0.3714	0.3592	10.0496	-0.6046	-0.0279	0.3145	-0.0246	0.3469	-1.0595	0.3118	0.5424	9.8885	-1.5025	3.2068	0.6658	0.5644	-0.2882	-0.7325	-9.8016	1.5865	-0.5167	2.5972	-3.1975	0.1118	0.8772	-0.2557	0.7374
-0.0747	0.3033	9.8221	-0.4171	0.0039	0.4666	-0.0217	0.3292	-1.0265	0.5333	0.4827	9.4826	-1.6979	3.6681	0.6027	0.5644	-0.2942	-0.7505	-9.6893	1.7569	-0.5717	2.5885	-3.2689	0.849	0.8131	-0.295	0.7526
0.3447	0.1875	9.7141	-0.7554	0.1844	0.321	0.0316	0.3457	-1.0228	0.3009	0.4823	9.3024	-2.1364	3.8771	0.2968	0.5584	-0.2822	-0.7565	-9.6353	1.4155	-0.7427	2.1633	-3.3643	1.1375	0.8444	-0.3138	0.7349
-0.3071	-0.3435	10.2347	-0.3816	0.3406	0.3812	0.0131	0.3075	-1.0586	0.4298	0.4854	10.0662	-2.0419	3.8171	0.3887	0.5644	-0.3062	-0.7565	-9.4618	2.1547	-0.51	1.6955	-3.5458	1.0579	0.796	-0.3717	0.7676
-0.0098	-0.0499	10.0611	-0.5618	0.5828	0.481	-0.0047	0.3278	-1.0423	0.198	0.0825	9.8842	-1.8852	3.5997	0.1126	0.5584	-0.3002	-0.7445	-9.2319	1.529	-0.3919	1.6563	-3.481	0.783	0.7979	-0.2755	0.7885
-0.137	0.3632	9.7035	-0.4671	0.7059	0.4825	-0.0065	0.2688	-1.1111	0.1938	0.5993	9.7108	-1.4625	2.679	0.3921	0.5704	-0.2942	-0.7565	-9.5217	1.3585	-0.7406	0.9704	-3.5399	0.6494	0.8134	-0.2943	0.7882
-0.256	0.0709	9.7634	-0.3414	0.9523	0.3017	-0.0209	0.3103	-1.0271	0.0251	0.025	9.8221	-0.5302	2.5073	0.8486	0.5764	-0.2822	-0.7565	-9.2948	1.4719	-0.7364	0.8014	-3.5638	0.1933	0.7967	-0.3333	0.7688
-0.0638	0.0626	10.409	0.1253	1.1402	0.3307	-0.0065	0.3461	-1.0584	0.479	0.0232	9.5966	-0.6243	2.5043	0.6341	0.5824	-0.3002	-0.7265	-9.2355	1.9269	-0.5633	0.3812	-3.5252	-0.3776	0.8127	-0.3142	0.752
-0.1349	-0.3962	9.7714	0.6953	2.0628	0.2205	-0.0078	0.326	-1.0926	0.2508	0.0813	9.651	-0.5534	2.0722	0.6362	0.5644	-0.2822	-0.7505	-9.865	1.9275	-0.8609	0.1174	-3.8835	-0.8642	0.8129	-0.3323	0.8047
-0.318	-0.1027	9.6478	1.2596	2.4649	0.3759	-0.0032	0.29	-1.0434	0.6564	0.0242	9.8928	-0.3921	1.797	0.7906	0.5644	-0.2762	-0.7565	-9.8636	1.6432	-0.8039	-0.0731	-4.2165	-0.9841	0.8134	-0.2574	0.7183
-0.1976	-0.1612	9.6506	1.8815	2.777	0.2826	-0.0055	0.3467	-1.0417	0.2557	0.4852	9.9457	-0.5732	1.5778	0.7007	0.5464	-0.2762	-0.7505	-9.2383	1.6424	-0.7352	-0.3697	-4.2692	-1.5595	0.7965	-0.3152	0.7161
-0.1294	0.183	10.1145	1.7372	3.5402	0.055	0.0143	0.3276	-1.0245	-0.025	0.3144	10.2323	-0.4149	1.2988	0.4556	0.5644	-0.3002	-0.7565	-9.8628	1.8138	-0.7465	-0.5333	-4.0518	-1.8601	0.8295	-0.2936	0.8063
-0.0687	0.5907	10.1688	2.6568	4.9544	0.1049	0.011	0.3063	-1.0921	0.3064	0.4836	9.5953	-1.5885	1.2206	0.0021	0.5584	-0.2882	-0.7565	-9.579	1.7566	-0.7414	-0.3664	-3.1591	-2.5647	0.8442	-0.3511	0.787
-0.5536	-0.0477	9.9348	2.5822	6.1148	0.0079	-0.0029	0.3095	-1.0261	0.1904	0.656	9.5353	-2.4487	1.0888	0.0693	0.5584	-0.2942	-0.7505	-9.2916	1.4152	-0.5647	-0.6875	-2.0262	-3.0377	0.8447	-0.2947	0.7355
-0.0685	-0.3423	10.1221	3.794	8.4179	0.0119	-0.0094	0.3638	-1.0914	0.2557	0.4852	9.9457	-3.0058	1.1756	0.0414	0.5524	-0.2822	-0.7565	-10.0979	1.6431	-1.2087	-1.1654	-0.6486	-3.5963	0.7972	-0.2953	0.7523
-0.3071	-0.3435	10.2347	5.5182	10.3624	-0.6134	0.0661	0.3046	-1.0723	0.2503	0.4264	9.6526	-3.3829	1.4485	-0.1117	0.5644	-0.3062	-0.7445	-9.4751	1.9835	-1.2542	-1.756	0.6933	-3.783	0.8134	-0.2943	0.7882
-0.5445	-0.4621	10.4071	8.0823	12.3129	-0.6955	0.012	0.3069	-1.0754	0.2583	0.2557	10.0619	-4.2116	1.2225	-0.2284	0.5644	-0.2882	-0.7385	-9.9202	1.4726	-0.8051	-2.1356	1.7331	-4.132	0.8131	-0.295	0.7526
0.1804	-0.1151	10.5906	11.0828	14.8197	-1.2631	-0.0019	0.3101	-1.0093	0.4295	0.658	10.067	-4.8824	0.8122	-0.3757	0.5644	-0.3002	-0.7565	-9.4752	2.0973	-1.2541	-2.4473	3.1664	-4.3263	0.7965	-0.3337	0.7511
-0.249	-0.3421	10.1189	13.6693	20.3465	-1.8831	-0.0235	0.3475	-1.0427	0.0784	0.4267	9.6493	-5.5019	0.8657	-0.5874	0.5524	-0.2822	-0.7565	-9.6977	1.7565	-1.0296	-3.541	4.7107	-3.7589	0.8133	-0.2946	0.7704
-0.2998	0.5261	10.6909	11.3814	24.0813	-2.0809	0.0128	0.2881	-1.076	0.1433	0.4859	10.0607	-7.1716	0.9694	-0.8855	0.5644	-0.2822	-0.7265	-9.2907	1.4721	-0.5074	-5.1302	6.1939	-3.1771	0.8449	-0.2943	0.7533
-0.5931	0.3463	11.0966	11.7898	26.0686	-1.6124	0.0141	0.3081	-1.0418	-0.1455	-0.0895	9.8769	-8.1959	1.1725	-1.188	0.5644	-0.2762	-0.7565	-9.5825	2.0977	-0.9128	-7.6014	7.6374	-4.0749	0.8307	-0.2173	0.7909
-0.7711	-0.0051	11.2146	15.6225	29.1865	-0.3934	0.01	0.3057	-1.1089	0.193	0.4265	9.6515	-9.1894	1.3759	-1.4907	0.5464	-0.2762	-0.7565	-9.412	1.9269	-0.9098	-9.0788	9.2017	-4.9093	0.7977	-0.2943	0.8056
-0.4748	0.2892	10.9826	21.9752	31.2896	1.2024	0.0303	0.3256	-1.057	0.2525	0.4269	9.7697	-10.3356	1.5477	-1.7001	0.5704	-0.2762	-0.7385	-9.58	1.7566	-0.7986	-9.2173	10.8239	-5.5375	0.8295	-0.2567	0.7364
-0.022	0.4418	12.7398	24.6237	32.0931	5.0309	-0.0018	0.2328	-1.062	0.8229	-0.0349	9.6029	-11.0137	1.4775	-1.8494	0.5704	-0.2882	-0.7385	-9.854	1.4161	-0.289	-9.9138	12.5072	-6.1792	0.8141	-0.256	0.7894
-1.4041	-1.1322	12.7353	29.1406	44.557	0.9082	-0.0034	0.2706	-1.0608	-0.0857	0.3713	10.0558	-11.0432	1.32	-2.1248	0.5704	-0.2882	-0.7445	-9.6835	2.0984	-0.2281	-9.3607	14.2162	-6.4894	0.8293	-0.2755	0.7535
-0.1922	0.6098	13.3184	22.0066	53.0654	8.1328	0.0497	0.2676	-1.0745	0.1391	0.3699	9.8258	-10.6012	0.9248	-1.8792	0.5644	-0.2942	-0.7625	-9.632	2.1549	-0.5132	-7.6622	15.0257	-7.7629	0.829	-0.2947	0.7529
0.0478	0.3767	13.2672	29.0005	61.0433	8.6178	0.01	0.3057	-1.1089	0.027	0.198	9.94	-8.8714	0.8515	-1.7046	0.5584	-0.2822	-0.7445	-9.5127	1.6432	-0.2253	-6.2649	15.2361	-9.7083	0.7979	-0.2755	0.7885
-1.2742	-0.381	13.3118	30.2293	67.9254	8.9362	-0.0428	0.2509	-1.1306	0.2552	0.0824	9.8853	-8.3823	1.0735	-1.6473	0.5764	-0.2882	-0.7445	-10.2469	2.1561	-0.0095	-5.148	14.8086	-9.6222	0.7818	-0.2762	0.7704
-1.1601	-0.4351	12.9643	33.9138	77.7339	9.072	0.0831	0.3032	-1.088	0.2531	0.7147	9.8296	-8.2379	1.5391	-1.6202	0.5644	-0.2642	-0.7565	-10.3067	1.1892	-0.2403	-4.8299	14.5305	-9.3266	0.7974	-0.3135	0.805
-1.4686	-1.0708	12.4999	34.4375	87.9186	13.469	0.0097	0.2863	-1.1263	0.4257	0.2544	9.8308	-8.6803	2.029	-1.6512	0.5584	-0.2822	-0.7625	-9.9673	1.3025	-0.2911	-5.2801	15.1492	-7.8947	0.8306	-0.2546	0.843
-2.2615	-1.1208	11.9029	30.4089	95.2769	18.2308	0.0497	0.2676	-1.0745	0.3135	0.14	9.9453	-9.7366	2.4208	-1.5859	0.5464	-0.2642	-0.7505	-9.7327	1.075	0.1135	-5.7381	15.9401	-5.7236	0.7664	-0.257	0.7884
-1.8649	-0.796	13.8904	36.3277	97.6568	25.0663	0.051	0.2104	-1.093	0.2516	0.3116	9.7106	-9.9218	2.4504	-1.5235	0.5884	-0.2882	-0.7565	-9.1548	1.0748	0.6962	-5.5604	16.6914	-5.0469	0.7818	-0.2946	0.8053
-2.1392	-1.7637	11.9714	43.8131	103.2718	28.9692	0.1004	0.244	-1.1391	0.5419	-0.0331	9.8903	-9.3401	2.61	-1.6201	0.5704	-0.2942	-0.7385	-9.2637	0.7339	0.9228	-5.8842	16.3322	-5.4703	0.7655	-0.2957	0.7694
-1.3115	-1.6962	11.1679	47.1684	104.857	37.0498	0.0448	0.2068	-1.1937	0.0365	0.4304	10.4683	-8.4083	2.3742	-1.409	0.5644	-0.2762	-0.7505	-9.4413	0.7907	0.5191	-4.297	16.0226	-7.2411	0.797	-0.3142	0.7694
-1.9335	-0.7901	13.4221	53.8777	97.1029	38.089	0.117	0.2036	-1.1895	0.2526	0.3694	9.7695	-7.2574	1.986	-1.1984	0.5764	-0.2702	-0.7505	-9.6675	0.9616	0.5723	-2.5456	15.1295	-8.6527	0.7984	-0.2559	0.8068
-1.9436	-1.2663	9.5171	78.1065	98.8537	42.4052	0.1018	0.1867	-1.1576	0.0364	-0.145	10.4071	-5.8579	1.4758	-1.0806	0.5704	-0.2882	-0.7625	-9.9456	0.5641	0.8529	0.0348	13.8292	-9.2627	0.7656	-0.3141	0.8044
-0.7849	0.8208	10.5036	79.8112	78.5026	42.5881	0.1345	0.1639	-1.2232	-0.081	0.1998	10.2893	-4.5562	1.1802	-1.0558	0.5764	-0.2702	-0.7505	-9.7725	0.7915	1.0279	2.9294	12.466	-9.7289	0.7827	-0.2559	0.8243
-0.6732	-1.4058	6.5642	94.8016	77.5516	36.2899	0.1389	0.1084	-1.1914	0.0848	-0.1471	9.9396	-3.5901	0.7268	-0.9973	0.5764	-0.2762	-0.7445	-10.4	0.849	0.8448	5.8489	11.2581	-10.4098	0.7984	-0.2559	0.8068
3.374	-2.954	4.028	76.4226	60.3244	36.7928	0.1348	0.106	-1.2585	0.254	0.1396	9.827	-3.1456	0.2077	-0.7817	0.5824	-0.2882	-0.7565	-10.4609	0.8489	0.6148	7.4343	10.006	-10.1292	0.7825	-0.2563	0.8065
7.061	-4.4442	1.5431	39.829	38.0042	28.6181	0.1706	0.085	-1.2738	0.4833	0.0817	9.8312	-1.8399	-0.2416	-0.6638	0.5584	-0.2822	-0.7445	-10.4693	0.9054	0.157	8.9474	8.425	-8.1283	0.7984	-0.2559	0.8068
6.6081	-3.7053	3.1603	-5.598	30.6199	0.2116	0.1366	0.0877	-1.2423	0.2035	0.0837	10.1771	-0.664	-0.4146	-0.6082	0.5704	-0.2882	-0.7445	-10.4644	0.3369	0.3855	9.2193	6.8434	-8.2105	0.8295	-0.2751	0.7713
9.0283	-3.0177	3.953	-29.9679	13.3718	-22.3686	0.1186	0.0885	-1.2434	0.2037	0.6016	10.238	-0.4158	-0.5372	-0.7626	0.5524	-0.2762	-0.7625	-10.748	1.0197	0.4381	8.1022	5.6731	-5.1136	0.7989	-0.2549	0.8602
7.7915	-3.4429	5.3959	-30.0935	-3.8112	-39.47	0.1554	0.0681	-1.2419	0.1869	0.0799	9.2984	-0.4752	-0.5985	-0.639	0.5764	-0.2702	-0.7685	-11.0377	0.7354	0.0892	5.9549	5.0854	-2.3192	0.7674	-0.2364	0.8601
7.2952	-3.4904	4.5706	-37.8638	-18.7938	-46.9246	0.1533	0.1442	-1.2228	-0.1469	0.0828	9.8191	-0.2028	-0.348	-0.6113	0.5704	-0.2522	-0.7505	-10.8753	1.2467	-0.3079	1.9987	5.0214	0.0418	0.7666	-0.2751	0.8411
6.5795	-3.6105	4.9097	-51.3792	-36.6482	-47.0191	0.1727	0.0862	-1.2403	0.0239	0.0822	9.7638	-0.204	-0.3495	-0.765	0.5584	-0.2702	-0.7445	-10.2468	1.1893	-0.0675	-2.1537	5.8156	1.9853	0.7512	-0.2374	0.8243
6.0605	-2.401	6.228	-62.6062	-54.3412	-44.2172	0.0987	0.1076	-1.2606	0.0332	-0.2033	10.2311	0.477	-0.4026	-0.5843	0.5704	-0.2762	-0.7505	-9.8046	0.6764	-0.7464	-6.4306	6.6407	3.9021	0.7986	-0.2741	0.8595
5.3631	-2.0091	7.6117	-68.2856	-69.6619	-40.4185	0.1149	0.1251	-1.2757	0.202	0.3135	10.1196	1.0019	-0.301	-0.2192	0.5704	-0.2642	-0.7505	-9.9673	1.2456	-0.2912	-10.5683	7.2598	5.3214	0.7667	-0.2563	0.824
4.463	-0.8436	7.8148	-70.0741	-83.4183	-36.235	0.0608	0.2048	-1.2262	0.0873	0.3712	10.1176	2.1065	-0.0424	-0.2272	0.5584	-0.2702	-0.7445	-9.8004	0.6197	-0.5175	-14.0237	7.3605	6.8083	0.7825	-0.2748	0.8415
3.3945	-0.1528	8.6629	-73.1055	-94.0723	-31.7533	0.0232	0.1668	-1.2797	0.2013	0.0832	10.06	1.9171	0.1724	-0.1967	0.5644	-0.2822	-0.7625	-10.0224	0.7908	-0.2354	-15.9267	7.7339	8.3739	0.7498	-0.3141	0.8218
2.9929	0.1256	9.7614	-73.7653	-101.6489	-26.8656	0.0407	0.2044	-1.2607	0.3646	-0.0917	9.5939	0.9558	0.4097	-0.2232	0.5584	-0.2762	-0.7505	-10.4198	0.905	-0.2426	-17.0995	7.9162	10.5306	0.7662	-0.2758	0.8056
1.9879	0.8142	10.7858	-70.3967	-108.0825	-22.5265	0.0074	0.1883	-1.2299	0.08	0.1394	9.7066	1.1987	0.5344	-0.379	0.5824	-0.2702	-0.7625	-9.9616	0.8478	-0.0053	-16.3013	7.8906	12.3194	0.7823	-0.2751	0.8237
1.0901	0.9868	11.0598	-65.7114	-113.1264	-18.5121	-0.0286	0.1899	-1.2319	0.2555	-0.0902	9.8846	2.6211	0.3637	-0.3556	0.5464	-0.2702	-0.7565	-9.5051	0.5629	0.1172	-14.2641	7.5139	13.1158	0.7666	-0.2751	0.8411
0.8444	0.7573	10.7665	-63.0422	-117.0002	-14.201	-0.0482	0.2284	-1.2318	0.3045	0.253	9.4772	3.3894	0.4637	-0.4221	0.5584	-0.2702	-0.7505	-9.5468	0.1656	0.9171	-11.7304	6.893	13.9568	0.7818	-0.2946	0.8053
0.6101	0.6949	11.1134	-62.5983	-118.9086	-10.1577	-0.049	0.2473	-1.2312	0.0195	0.0812	9.5295	2.8663	0.3008	-0.7254	0.5704	-0.2822	-0.7565	-9.439	0.6201	0.6334	-8.6846	6.2485	14.3214	0.7498	-0.3141	0.8218
-0.7638	0.8645	11.6708	-62.7892	-119.1983	-7.3322	-0.158	0.2709	-1.2368	0.1929	0.484	9.6517	2.7721	0.2024	-1.2159	0.5524	-0.2702	-0.7565	-9.493	0.0516	0.7464	-5.9658	5.7339	14.113	0.7823	-0.2751	0.8237
-1.3592	1.5021	12.0609	-61.1786	-117.2889	-6.9727	-0.1894	0.2366	-1.1897	0.1404	0.2551	9.8839	2.8968	0.2054	-1.0323	0.5704	-0.2762	-0.7565	-9.5584	0.3357	0.2877	-2.7691	5.0448	13.3359	0.7818	-0.2946	0.8053
-2.0844	2.1465	11.9234	-56.6204	-112.678	-9.5441	-0.1727	0.293	-1.1702	0.2541	0.0821	9.8268	4.0149	-0.1221	-0.914	0.5584	-0.2762	-0.7565	-9.3861	0.3356	0.4053	0.2477	4.7027	11.7066	0.782	-0.2943	0.8231
-3.5786	2.2579	12.4794	-52.9506	-104.2588	-11.5296	-0.2135	0.3306	-1.2214	0.489	-0.032	10.1235	5.3831	-0.5063	-0.5202	0.5704	-0.2702	-0.7445	-9.6038	0.3931	0.9163	2.9836	4.514	9.9947	0.798	-0.2751	0.8062
-4.3683	2.9637	12.1065	-53.7723	-94.0114	-8.8368	-0.2671	0.3719	-1.1897	-0.084	0.0265	10.1128	7.2775	-1.0413	-0.2824	0.5764	-0.2762	-0.7385	-9.2721	0.7904	0.465	4.4278	4.0624	9.6406	0.7657	-0.3138	0.8221
-4.8539	2.8506	11.8659	-48.9196	-87.1365	-4.6584	-0.3385	0.3562	-1.1945	0.2627	0.2567	10.2962	10.5119	-2.148	0.1662	0.5704	-0.2822	-0.7625	-9.503	-0.29	0.1738	6.1306	4.3823	8.5475	0.7669	-0.2559	0.8417
-5.3961	3.2598	11.8512	-38.3826	-82.2223	-0.2555	-0.3395	0.4329	-1.1586	0.4896	0.2558	10.1834	11.0858	-3.0709	0.0454	0.5644	-0.2822	-0.7505	-9.2728	0.506	0.4075	7.5886	4.4409	6.5686	0.8138	-0.3121	0.8586
-5.9518	2.6872	11.0315	-30.5449	-77.6382	3.5282	-0.3511	0.3794	-1.0943	0.424	0.6567	9.7741	11.7414	-3.435	0.0744	0.5644	-0.2822	-0.7445	-9.1654	0.3919	0.0661	8.3901	4.8985	4.3666	0.782	-0.2943	0.8231
-6.985	2.2873	10.4346	-27.2169	-71.5436	7.8627	-0.3341	0.378	-1.11	0.263	0.0842	10.2954	11.9104	-4.0497	0.2922	0.5464	-0.2822	-0.7505	-9.7359	0.2218	-0.1161	9.1995	5.4438	2.4109	0.7504	-0.3131	0.8751
-6.8628	1.7028	10.5025	-24.2377	-63.5235	11.2591	-0.3848	0.4017	-1.0454	0.084	0.3705	9.9419	12.6834	-4.1343	0.3189	0.5524	-0.2822	-0.7565	-9.7857	-0.2897	0.2258	10.8342	6.1933	1.0774	0.7498	-0.3141	0.8218
-7.5353	0.8947	9.8587	-21.0865	-53.448	13.1295	-0.4225	0.441	-1.0463	0.0835	0.0251	9.8818	13.5924	-4.7414	0.5323	0.5704	-0.2822	-0.7565	-10.0737	-0.2895	-0.0083	11.9849	6.9982	0.1276	0.7031	-0.2576	0.8227
-7.7143	1.2436	9.9679	-20.1534	-42.2287	13.7609	-0.4217	0.4995	-0.9942	0.026	0.1403	9.8812	14.1058	-5.6317	0.6575	0.5524	-0.2822	-0.7565	-9.334	-0.1197	0.1198	14.3621	7.8397	-1.2581	0.7661	-0.2946	0.8227
-7.5478	0.7284	9.1601	-20.8558	-31.8139	12.8884	-0.3985	0.4243	-0.962	0.0816	0.485	9.8253	14.7525	-6.9209	0.9687	0.5584	-0.2882	-0.7685	-9.4443	-0.1763	0.2894	12.0848	8.9745	-1.8569	0.7509	-0.2751	0.8586
-6.4119	0.9071	8.7692	-22.671	-23.9068	10.0073	-0.4004	0.5199	-0.9255	0.028	0.2558	9.9989	15.0776	-7.7221	0.9101	0.5524	-0.2882	-0.7565	-9.4008	0.3918	-0.3959	10.4699	9.7557	0.9939	0.7972	-0.3323	0.8222
-6.6492	0.7301	8.9424	-23.2961	-18.5834	6.8706	-0.3957	0.4066	-0.9291	0.1435	0.3709	10.0602	14.1673	-8.348	1.1035	0.5584	-0.2762	-0.7565	-9.168	-0.0632	-0.1059	12.735	11.0503	1.9812	0.7812	-0.3514	0.839
-3.1574	-10.5617	24.9639	545.6875	61.1435	20.1859	-0.3813	0.5197	-0.9077	0.4282	0.0823	9.9472	13.6611	-9.0291	1.5715	0.5524	-0.3002	-0.7505	-8.7662	0.5052	0.188	14.2711	12.7153	-1.6466	0.7348	-0.2758	0.8405
-6.6336	18.0284	20.867	44.3451	102.012	-49.7339	-0.4176	0.5018	-0.9271	0.1497	-0.0304	10.3513	15.8218	-10.267	2.3959	0.5704	-0.2702	-0.7565	-9.3386	1.0744	-0.0509	13.1619	12.0693	-5.4289	0.7981	-0.2936	0.8412
-3.4371	5.3168	10.5173	-17.5453	30.3467	-13.2992	-0.3977	0.4055	-0.9626	0.04	0.3162	10.6435	17.1497	-11.4185	3.4397	0.5584	-0.2762	-0.7445	-8.5399	1.9836	0.2505	10.0944	10.7252	-9.3426	0.7664	-0.2939	0.8583
-1.9219	-0.0568	10.7864	-2.5523	6.7734	-1.697	-0.4372	0.4631	-0.9797	0.0327	0.0843	10.2324	18.3335	-14.33	4.9251	0.5584	-0.2882	-0.7745	-9.4113	3.0643	-0.7944	8.1015	6.7645	-13.3402	0.7503	-0.2946	0.8402
-0.0694	0.2997	10.1141	-2.8061	11.9331	18.7158	-0.3972	0.4444	-0.9279	0.979	-0.4856	11.7705	22.3886	-17.6204	5.7506	0.5644	-0.3002	-0.7565	-10.6612	2.3834	-0.9324	8.3436	-0.1237	-16.9365	0.719	-0.2573	0.823
1.5998	-0.3328	9.2174	-2.6847	24.1336	22.8232	-0.4176	0.4245	-0.9798	0.0903	-0.0883	10.2327	30.8749	-21.7588	6.9239	0.5524	-0.2942	-0.7625	-12.1415	1.9869	-1.2459	7.6114	-6.6365	-16.9667	0.75	-0.3138	0.8396
0.3661	-0.7602	10.8355	-1.3598	20.2241	5.3456	-0.4361	0.4637	-0.9629	2.8039	-0.6633	11.3363	27.1167	-27.7738	2.8026	0.5404	-0.3062	-0.7445	-12.5886	1.4759	-0.9113	1.7574	-9.8153	-7.4752	0.735	-0.2754	0.8583
-0.6701	-0.5166	10.1137	8.1715	13.2995	-2.5512	-0.3839	0.4796	-0.976	1.2451	-1.469	10.6	52.5024	-36.4415	7.0381	0.5404	-0.2882	-0.7625	-11.2776	1.0764	-0.6015	-4.5189	-10.7121	4.1978	0.7825	-0.2748	0.8415
0.1545	0.2527	9.1846	7.2639	11.8674	1.4579	-0.4009	0.481	-0.9602	-0.3768	2.4555	13.0461	7.7071	-54.0325	0.6144	0.5524	-0.3002	-0.7625	-9.5744	1.4156	-0.5127	-6.9684	-10.1757	7.133	0.7834	-0.2545	0.8954
-0.0877	0.5456	9.1183	0.5028	12.1404	7.1459	-0.3635	0.4222	-0.9767	-0.2079	-1.0111	9.5201	22.6095	-60.5083	-0.4793	0.5404	-0.3062	-0.7565	-9.1021	0.9608	0.4682	-6.4648	-8.6442	2.1831	0.7667	-0.2563	0.824
0.0413	-0.3352	9.5403	-4.6315	9.0901	8.3129	-0.3786	0.4053	-0.9448	-0.7984	3.5005	15.0922	0.6195	-69.0907	-4.4475	0.5223	-0.3062	-0.7565	-9.1543	0.6767	0.6959	-3.9454	-6.8103	-4.7608	0.7656	-0.3326	0.8393
-0.1376	-0.8026	9.6013	-9.7667	-4.1289	1.9398	-0.3794	0.4241	-0.9442	-0.1065	0.9113	15.0938	48.6003	-84.4146	4.0584	0.5464	-0.3182	-0.7445	-8.9282	1.4157	0.7007	-3.1459	-6.9789	-10.01	0.7669	-0.2559	0.8417
-0.1379	-0.5691	9.5984	-3.7253	-1.5662	2.5961	-0.3831	0.4607	-0.9766	-0.2258	1.083	14.858	26.3692	-99.5286	3.0497	0.5163	-0.3062	-0.7625	-9.6271	2.3826	-0.2268	-3.3611	-7.9434	-14.928	0.7512	-0.2374	0.8243
0.1846	-0.0596	10.8235	-1.204	-1.3513	1.1852	-0.4542	0.4645	-0.9639	-0.0797	1.3778	16.5604	35.6632	-117.6513	6.2374	0.5103	-0.2882	-0.7685	-10.4787	2.6111	-0.2423	-4.321	-7.9033	-21.9976	0.7669	-0.2559	0.8417
0.2331	-0.8096	10.1333	3.8386	1.0518	1.1125	-0.4147	0.4068	-0.9469	0.2523	1.1444	15.9216	27.1883	-136.0061	4.2453	0.5103	-0.3062	-0.7565	-11.004	3.4642	-0.995	-5.8234	-7.7018	-27.5749	0.7666	-0.2566	0.8062
-0.1366	0.0714	9.7071	1.5313	1.3321	1.5474	-0.4001	0.4621	-0.9608	-0.3397	1.327	17.9605	34.2821	-157.2579	9.4314	0.4923	-0.3062	-0.7685	-11.856	3.124	-1.0682	-7.7734	-8.54	-26.4169	0.7513	-0.2186	0.8071
-0.3119	0.068	9.996	-1.7039	1.3883	2.2043	-0.3972	0.4444	-0.9279	0.8826	-0.18	15.8106	40.1048	-181.2335	6.1288	0.4743	-0.3182	-0.7625	-11.8506	3.0105	-0.7821	-8.4941	-9.6128	-19.4895	0.783	-0.2183	0.79
-0.1329	-0.3393	9.8875	-3.9374	1.0314	1.8555	-0.3805	0.4235	-0.961	0.352	0.809	18.1472	23.7514	-206.9304	2.0141	0.4503	-0.3362	-0.7445	-11.9823	3.3511	-1.7568	-7.5588	-10.6601	-10.0918	0.7503	-0.2761	0.8053
0.5296	0.0676	9.9524	-4.8137	0.5967	1.4573	-0.3632	0.4416	-0.9594	-0.0832	0.1248	19.3069	45.2022	-225.781	3.7827	0.4623	-0.3242	-0.7805	-10.388	2.5532	-1.4993	-6.022	-12.217	-1.2388	0.7825	-0.2563	0.8065
0.1634	-0.045	9.6555	-5.7513	-0.1463	1.576	-0.3985	0.4243	-0.962	3.4977	-1.1538	17.7303	56.4628	-247.7678	-0.8541	0.4323	-0.3242	-0.7625	-10.0983	1.9275	-1.2085	-4.4503	-14.6305	5.7929	0.7502	-0.2949	0.8224
-0.0191	-0.16	9.537	-7.8599	-1.087	2.2586	-0.3998	0.4816	-0.9435	-0.227	-1.4928	17.5986	74.7264	-260.6448	-8.2596	0.4143	-0.3182	-0.7625	-8.7875	1.6986	-0.8985	-2.6933	-17.4269	9.8047	0.7991	-0.2361	0.843
-0.2602	0.0738	9.5298	-10.455	-1.882	3.4426	-0.3993	0.4432	-0.9614	4.2562	-4.0421	15.1552	63.6736	-268.2195	-18.5663	0.3843	-0.3362	-0.7505	-8.0525	1.4701	-1.0568	-0.8111	-19.7682	11.7884	0.7673	-0.2367	0.8424
-0.0184	-0.6853	9.5436	-12.0289	-2.4215	4.4041	-0.3601	0.4434	-0.909	4.9774	-2.4379	14.0638	59.8948	-253.5839	-24.1005	0.3903	-0.3362	-0.7505	-7.7643	1.2425	-0.8229	1.3807	-21.7612	10.6929	0.7827	-0.2559	0.8243
0.225	-0.3376	9.7186	-12.74	-2.5822	4.594	-0.3812	0.4424	-0.9604	1.1776	-2.622	9.9494	66.4914	-241.4632	-35.2111	0.3542	-0.3422	-0.7385	-7.2582	0.7867	-1.1	2.692	-22.0881	8.0085	0.7828	-0.2371	0.8071
0.1659	-0.3382	9.776	-11.7994	-1.5635	4.3275	-0.3993	0.4432	-0.9614	-2.1731	-3.8447	5.2534	57.1779	-205.7329	-48.0888	0.3482	-0.3422	-0.7325	-7.3145	1.2986	-1.0434	1.288	-20.9751	2.5285	0.7814	-0.2953	0.7697
0.17	-1.0408	9.96	-7.7432	-0.0194	2.8647	-0.4001	0.4621	-0.9608	-7.972	-6.4539	-1.8383	53.048	-131.8253	-59.0114	0.3242	-0.3482	-0.7445	-7.5556	0.9002	-1.8491	-0.7469	-16.9778	-4.5998	0.7827	-0.2559	0.8243
0.1723	-0.401	10.1271	-5.63	1.1962	2.1879	-0.4534	0.4456	-0.9645	-2.744	-3.7721	8.4049	32.1586	-85.2287	-50.9325	0.3302	-0.3722	-0.7265	-8.0086	0.9008	-1.8002	-4.2086	-11.7606	-11.8909	0.7986	-0.2556	0.8246
0.466	-0.513	9.7251	-5.3354	2.4841	1.7508	-0.3624	0.4228	-0.9599	-8.249	-2.9145	5.0822	2.7784	-38.7091	-44.5851	0.3182	-0.3662	-0.7325	-8.9851	1.0721	-2.4474	-8.5947	-6.3773	-18.0162	0.7662	-0.2573	0.7706
0.2887	-0.5733	9.8978	-3.6219	3.418	1.6881	-0.3439	0.4609	-0.9242	-6.4943	-2.6348	4.0046	17.532	-5.6447	-27.2324	0.3062	-0.3602	-0.7265	-9.9551	1.0162	-2.7513	-14.2277	-1.7651	-21.2833	0.7825	-0.2563	0.8065
