1757_acc_x	1757_acc_y	1757_acc_z	1757_gyro_x	1757_gyro_y	1757_gyro_z	1757_mag_x	1757_mag_y	1757_mag_z	1758_acc_x	1758_acc_y	1758_acc_z	1758_gyro_x	1758_gyro_y	1758_gyro_z	1758_mag_x	1758_mag_y	1758_mag_z	1759_acc_x	1759_acc_y	1759_acc_z	1759_gyro_x	1759_gyro_y	1759_gyro_z	1759_mag_x	1759_mag_y	1759_mag_z
-0.059485	1.587193	9.681505	-0.345259	0.305349	0.036624	0.118168	0.223711	-0.936811	1.454986	1.621248	10.445766	0.005249	0.399582	-0.139887	-0.647703	-0.152824	-0.70131	9.479694	-0.812075	-0.902605	0.674757	0.610621	0.341022	-0.606226	-0.707564	-0.054142
0.05362	1.98896	9.628568	-0.468998	0.182892	-0.057014	0.118196	0.189112	-0.901828	1.272188	1.846514	9.989212	-0.024514	0.490984	-0.108174	0.043096	-0.408536	-0.913105	9.766532	-0.582177	-1.315462	0.673219	0.458303	0.280629	-0.572724	-0.177429	-0.298178
-0.234547	1.529152	9.507364	-0.0696	0.432345	-0.207449	0.146423	0.205662	-0.920018	1.440372	1.677009	9.766138	-0.147819	0.490825	-0.324071	0.028864	-0.428219	-0.854426	9.945221	-0.814639	-1.253243	0.580283	0.551946	0.066578	-0.531555	-0.22622	-0.279928
0.052466	2.04616	9.571957	-0.224063	0.278666	-0.270838	0.147552	0.198948	-0.944754	1.330723	1.339431	9.989994	-0.055565	0.461135	-0.293464	0.029455	-0.426076	-0.883126	9.41174	-0.755842	-1.382713	0.397288	0.485373	0.526003	-0.58712	-0.209192	-0.312102
-0.35842	2.159162	9.052967	-0.438437	0.24589	-0.17875	0.120082	0.172155	-0.937224	1.265258	1.677238	9.649232	-0.147585	0.520685	-0.200462	-0.023115	-0.44384	-0.85232	9.826648	-0.582065	-1.254455	0.244253	0.606862	0.55654	-0.58684	-0.193826	-0.297411
0.121678	2.450863	10.200143	-0.347039	0.122696	-0.119679	0.133074	0.178495	-0.912837	1.266467	1.677285	9.705872	-0.146727	0.582417	-0.261503	-0.009398	-0.41098	-0.883302	9.360426	-0.753977	-0.964465	-0.188963	0.515117	0.405732	-0.614936	-0.2096	-0.312242
-0.230425	1.98965	9.736707	-0.560702	0.181768	0.004568	0.104819	0.196543	-0.92963	1.38611	1.846251	9.93499	-0.149455	0.396415	0.044926	0.016328	-0.456792	-0.880843	9.540351	-1.044267	-0.842586	-0.03537	0.485712	0.34419	-0.559655	-0.223324	-0.34218
-0.045092	1.705213	10.421078	-0.468998	0.182892	-0.057014	0.132688	0.192266	-0.916253	1.444992	1.78986	9.992791	-0.270498	0.579842	-0.107488	0.017069	-0.424007	-0.91155	9.359461	-0.8123	-1.02462	0.056027	0.239752	0.497848	-0.573629	-0.241373	-0.310357
-0.520985	1.759126	9.502762	-0.376944	0.276908	-0.178423	0.119311	0.199697	-0.944055	1.619113	1.676923	10.052963	-0.055213	0.52025	0.046233	0.003578	-0.410905	-0.883578	10.075088	-0.696037	-0.591572	0.17906	0.458105	0.129605	-0.586911	-0.192999	-0.312939
-0.169747	1.875449	9.907897	-0.438873	0.215853	-0.240573	0.11781	0.202883	-0.905243	1.675577	1.620437	9.997485	-0.179569	0.457353	0.045508	0.042211	-0.411752	-0.870055	9.53651	-0.812705	-1.021318	0.360801	0.216576	-0.114404	-0.587675	-0.258595	-0.294063
-0.284297	1.932973	9.905911	-0.191625	0.367528	0.037192	0.146051	0.202134	-0.905942	1.556496	1.789502	9.82529	-0.211047	0.42529	0.199304	0.016629	-0.39551	-0.884857	9.713423	-0.755034	-1.01777	0.332757	0.335356	0.221323	-0.54505	-0.175368	-0.329093
-0.231538	1.989408	9.679854	-0.252408	0.428358	0.069024	0.118553	0.20994	-0.933395	1.204305	2.184225	9.535171	-0.150195	0.335287	0.013489	-0.022594	-0.396807	-0.86968	9.828714	-0.523494	-1.134394	0.490209	0.453855	0.648069	-0.573141	-0.209814	-0.296504
-0.000252	1.932284	9.797773	-0.407046	0.400387	-0.237665	0.120082	0.172155	-0.937224	1.277562	1.565051	10.215533	0.00521	0.399381	-0.109061	-0.010434	-0.444837	-0.838246	9.417647	-0.928834	-1.08392	0.738125	0.421316	0.922394	-0.587399	-0.224558	-0.326792
-0.919539	1.759898	9.608674	-0.253008	0.430096	-0.084286	0.132317	0.188737	-0.902177	1.564288	1.508134	10.164891	-0.148675	0.457745	0.045536	0.003283	-0.411977	-0.869228	9.244305	-1.101915	-0.908243	0.677243	0.605892	0.799481	-0.614794	-0.211253	-0.281187
-0.057631	2.10465	9.797383	-0.376671	0.338719	-0.208087	0.133046	0.213093	-0.94782	1.789176	1.789166	9.943405	-0.057123	0.367127	0.013881	0.002988	-0.413049	-0.854878	9.468825	-0.872624	-1.501921	0.705454	0.486797	0.494317	-0.587187	-0.227037	-0.280209
-0.339242	1.818614	10.018022	-0.438743	0.121572	-0.058098	0.146066	0.184834	-0.88845	1.332926	1.452187	10.103368	-0.2091	0.549962	-0.107736	0.029385	-0.381186	-0.871787	9.708886	-0.697947	-1.25715	0.521103	0.546996	0.52526	-0.587329	-0.225384	-0.311265
0.057867	2.277133	9.857187	-0.43942	0.09223	-0.181244	0.162058	0.184802	-0.941687	1.503204	1.451769	9.993716	-0.180273	0.367773	-0.325321	0.041985	-0.457713	-0.867045	9.769118	-1.220766	-1.258275	0.459271	0.547089	0.494921	-0.587049	-0.210018	-0.296574
-0.231538	1.989408	9.679854	-0.590804	0.305247	-0.054675	0.118596	0.158041	-0.88092	1.435106	1.902141	9.539769	-0.240345	0.519106	-0.138896	0.015888	-0.428294	-0.854151	9.64877	-0.698059	-1.318157	0.396052	0.456675	0.342766	-0.601516	-0.240955	-0.326026
0.000944	1.817642	9.854143	-0.346416	0.277399	-0.209171	0.119711	0.168626	-0.923148	1.28296	1.903271	10.499016	-0.180818	0.336303	-0.202322	0.029084	-0.442468	-0.867772	9.363167	-0.985786	-0.845641	0.149085	0.332169	0.466507	-0.615144	-0.225793	-0.311405
-0.058661	1.989525	9.740047	-0.591831	0.183015	-0.117994	0.132688	0.192266	-0.916253	1.217579	1.565064	10.101045	-0.334899	0.365009	-0.20216	-0.009323	-0.39566	-0.884306	9.544098	-0.288043	-0.539838	-0.096615	0.45364	0.466817	-0.545534	-0.225598	-0.295526
-0.570735	2.162947	9.901309	-0.254188	0.245705	-0.087279	0.076592	0.179993	-0.91144	1.492563	1.958364	9.541026	-0.240267	0.519509	-0.200548	0.028934	-0.473109	-0.865765	9.414886	-1.16188	-1.26463	-0.188285	0.451731	0.619973	-0.559721	-0.241169	-0.310287
-0.058703	2.046967	9.740289	-0.437324	0.305267	0.00622	0.133803	0.202851	-0.958481	1.435537	1.676819	9.53958	-0.243229	0.303647	-0.017728	0.003208	-0.427298	-0.868225	10.237561	-0.583504	-1.366565	-0.097609	0.455531	0.283434	-0.573488	-0.243025	-0.279302
-0.173952	1.529835	9.679037	-0.468298	0.368674	-0.176668	0.132674	0.209565	-0.933745	1.733597	2.01469	10.055665	-0.2428	0.334513	-0.048249	0.004018	-0.439402	-0.91027	9.354945	-0.290357	-1.202115	0.088852	0.577609	0.373865	-0.615282	-0.242811	-0.29504
-0.463855	1.931409	9.504599	-0.499067	0.368879	-0.207245	0.175436	0.177371	-0.913885	1.099276	1.959498	9.98568	-0.210581	0.427705	-0.170609	-0.010064	-0.428445	-0.853599	9.2439	-0.927687	-0.907501	-0.004447	0.454603	0.405353	-0.601237	-0.225588	-0.311335
-0.392042	1.819621	10.24432	-0.499263	0.338147	-0.207743	0.10559	0.169001	-0.922799	1.152976	1.452226	9.759904	-0.212296	0.30424	-0.048525	0.003798	-0.425154	-0.896924	9.647804	-0.756382	-1.378312	-0.06358	0.604807	0.649354	-0.601378	-0.223936	-0.342391
0.003088	1.933007	9.968332	-0.43872	0.278012	-0.300899	0.118954	0.178869	-0.912488	1.733466	1.451338	9.998551	-0.055174	0.520451	0.015407	0.02916	-0.427148	-0.868776	9.417687	0.000877	-0.960151	0.028497	0.63699	0.526615	-0.587608	-0.240751	-0.325955
-0.060681	1.701835	9.625135	-0.346132	0.245276	-0.087022	0.119711	0.168626	-0.923148	1.216933	1.903047	10.10133	-0.211557	0.336717	-0.325655	0.015894	-0.368085	-0.843815	9.65041	-0.930116	-1.259239	-0.096117	0.452694	0.558509	-0.587399	-0.224558	-0.326792
-0.235376	2.677983	9.51219	-0.254265	0.214626	-0.057116	0.13266	0.226864	-0.951236	1.215377	1.452308	9.987671	-0.17883	0.489829	-0.231622	-0.022524	-0.441696	-0.881019	9.533633	-0.522819	-1.139896	-0.281628	0.515099	0.375505	-0.601237	-0.225588	-0.311335
-0.522347	2.103534	9.447357	-0.529945	0.275497	-0.116669	0.132302	0.206037	-0.919669	1.503204	1.451769	9.993716	-0.211985	0.30585	-0.295134	0.003503	-0.426226	-0.882574	9.885259	-0.407972	-1.252613	-0.15742	0.669121	0.313194	-0.615007	-0.208774	-0.32777
-0.520037	1.989133	9.56058	-0.37785	0.154328	-0.21108	0.103676	0.220557	-0.922386	1.04225	1.677953	9.984234	-0.334976	0.364606	-0.140508	0.016039	-0.397654	-0.856158	9.653171	-0.69707	-1.07853	-0.343655	0.639758	0.130631	-0.573074	-0.191969	-0.328396
-0.23492	2.046126	9.509536	-0.592551	0.185101	-0.301966	0.174307	0.184085	-0.889148	1.439187	2.296645	9.76666	-0.210114	0.458772	-0.231956	0.02968	-0.380114	-0.886137	9.826783	-0.640141	-1.254702	-0.408109	0.520645	-0.204759	-0.587396	-0.243229	-0.279372
-0.063033	1.873677	9.512153	-0.315997	0.184303	-0.118767	0.161672	0.198573	-0.945103	1.273397	1.846561	10.045852	-0.30459	0.305077	-0.356872	0.041765	-0.443465	-0.853698	9.949602	-1.278505	-1.0755	-0.190469	0.580079	0.038672	-0.559233	-0.20961	-0.296433
-0.169705	1.818007	9.907656	-0.193798	0.123412	-0.120109	0.133431	0.199322	-0.944405	1.618335	1.451553	9.996134	-0.301588	0.549792	-0.261952	0.02931	-0.396507	-0.870783	9.532648	-1.045998	-1.261935	-0.129225	0.612151	-0.083954	-0.587329	-0.225384	-0.311265
-0.404166	1.644642	9.618213	-0.437781	0.463099	-0.35923	0.105205	0.182772	-0.926214	1.105536	1.847074	10.268783	-0.148597	0.458147	-0.016116	0.003653	-0.395585	-0.884582	9.010326	-0.577949	-0.730699	-0.223338	0.428596	-0.1133	-0.559375	-0.207957	-0.327489
-0.352687	1.930602	9.336267	-0.468365	0.243661	0.005308	0.131902	0.237107	-0.940576	1.099276	1.959498	9.98568	-0.210504	0.428107	-0.232261	0.02953	-0.410755	-0.884129	9.418207	-0.696283	-1.023025	-0.285019	0.490499	-0.20506	-0.587679	-0.239924	-0.341483
-0.117112	2.104209	9.682564	-0.345739	0.30674	-0.086024	0.133088	0.161195	-0.895345	1.496382	1.226162	9.653688	-0.210581	0.427705	-0.170609	0.016479	-0.426151	-0.88285	10.009064	-0.523158	-0.951372	-0.037871	0.552565	-0.206252	-0.587817	-0.256943	-0.325118
-0.345923	1.817167	9.676903	-0.285153	0.215178	-0.118354	0.119697	0.185926	-0.94064	1.045661	1.790756	10.154248	-0.394698	0.546402	0.077048	0.04147	-0.444537	-0.839349	9.765836	-0.756652	-1.376111	0.021925	0.4011	-0.327997	-0.587817	-0.256943	-0.325118
-0.288793	1.98945	9.67874	-0.529235	0.367345	-0.084511	0.133074	0.178495	-0.912837	1.380173	1.789683	9.651745	-0.303458	0.425523	-0.016565	0.04184	-0.428144	-0.854702	9.653576	-0.871298	-1.079271	0.146839	0.367487	0.007903	-0.62919	-0.243015	-0.29511
-0.22696	1.818049	9.906542	-0.49921	0.212786	0.004895	0.132317	0.188737	-0.902177	1.214515	1.902952	9.988051	-0.270694	0.550184	-0.261923	0.002692	-0.414121	-0.840529	9.772034	-0.580941	-1.015928	0.022512	0.368935	-0.175031	-0.572862	-0.194448	-0.281813
-0.171026	2.104974	9.852009	-0.621692	0.3058	-0.115913	0.104447	0.193015	-0.915554	1.273612	1.7339	10.045757	-0.271551	0.488452	-0.200882	0.003283	-0.411977	-0.869228	9.769118	-1.220766	-1.258275	0.083004	0.433488	-0.481186	-0.559442	-0.225802	-0.295596
-0.289657	1.644559	9.620439	-0.591404	0.306986	-0.207985	0.118954	0.178869	-0.912488	1.446416	1.677246	10.049336	-0.395674	0.426762	-0.386564	0.02975	-0.425004	-0.897476	9.704214	-0.582784	-1.496283	-0.069173	0.429151	-0.113861	-0.600815	-0.211875	-0.265588
-0.509027	2.16387	10.129835	-0.49779	0.396481	0.069212	0.13456	0.192608	-0.969141	1.498369	1.451579	9.767157	-0.24093	0.458783	-0.293636	0.02953	-0.410755	-0.884129	9.531277	-0.930093	-1.321347	-0.224001	0.429857	-0.235555	-0.601237	-0.225588	-0.311335
-0.113813	2.162374	9.853364	-0.592791	0.185797	-0.36329	0.10559	0.169001	-0.922799	1.613284	1.564025	9.76967	-0.211634	0.336314	-0.264003	-0.010214	-0.459085	-0.851592	9.949238	-0.174567	-0.950989	-0.256175	0.494393	-0.571937	-0.545534	-0.225598	-0.295526
-0.067569	1.987595	9.285223	-0.253052	0.461523	-0.145111	0.104804	0.213842	-0.947122	1.266814	2.127977	9.762891	-0.364701	0.456209	-0.139621	-0.02282	-0.442768	-0.866669	9.709156	-0.814099	-1.257645	-0.256567	0.401994	-0.510369	-0.586494	-0.160614	-0.314613
-0.285411	1.932732	9.849058	-0.438197	0.245194	-0.117426	0.10559	0.169001	-0.922799	1.328976	1.621036	9.933592	-0.148948	0.427684	-0.047247	0.016479	-0.426151	-0.88285	10.007018	-0.116873	-1.009548	-0.011773	0.251194	-0.632787	-0.601099	-0.20857	-0.3277
-0.452886	2.163588	10.074096	-0.682956	0.36802	-0.206729	0.133846	0.150952	-0.906005	1.625157	1.67716	10.336161	-0.179142	0.459567	-0.293579	0.003358	-0.396657	-0.870232	9.480255	-0.579524	-0.841709	-0.255422	0.461912	-0.388408	-0.559584	-0.22415	-0.326652
-0.239457	2.160044	9.282606	-0.468932	0.307906	-0.23899	0.089941	0.20716	-0.918621	0.977216	1.790437	9.643282	-0.177193	0.612891	-0.292053	-0.009919	-0.458013	-0.865942	9.723037	-1.101512	-0.539998	-0.010461	0.310797	-0.480262	-0.545187	-0.192387	-0.312728
-0.116082	2.219333	9.739899	-0.407286	0.401083	-0.298989	0.132688	0.192266	-0.916253	1.152761	1.564887	9.759999	-0.147858	0.490623	-0.293245	0.029235	-0.411827	-0.86978	9.956921	-0.637691	-0.593525	-0.039107	0.523867	-0.389487	-0.600886	-0.211048	-0.281116
0.055723	2.161767	9.742998	-0.528448	0.490272	-0.082515	0.132703	0.174966	-0.898761	1.204497	1.451881	9.477915	-0.118133	0.399021	-0.294132	0.029304	-0.456716	-0.881119	9.589078	-0.407544	-1.318022	0.239536	0.584783	-0.268536	-0.587116	-0.227863	-0.264681
-0.111628	2.220298	9.967312	-0.37749	0.153285	-0.119094	0.160901	0.226115	-0.951935	1.442012	1.451734	9.822588	-0.116847	0.491619	-0.385694	0.016554	-0.41083	-0.883854	9.715624	-0.754539	-0.897956	0.146691	0.647206	-0.421311	-0.600957	-0.210222	-0.296644
-0.576095	1.874533	9.615837	-0.346536	0.277746	-0.239833	0.105219	0.165473	-0.908723	1.265474	1.564576	9.649137	-0.178167	0.550555	-0.138533	0.003578	-0.410905	-0.883578	10.001921	-0.292337	-1.309824	0.453783	0.278088	-0.115034	-0.559371	-0.226629	-0.280069
-0.112451	1.817966	9.908769	-0.528602	0.428113	-0.022189	0.120068	0.189454	-0.954716	1.272057	1.283161	9.932098	-0.11747	0.459747	-0.201043	0.028864	-0.428219	-0.854426	9.709156	-0.814099	-1.257645	0.26758	0.466004	-0.604261	-0.601583	-0.2588	-0.294133
-0.401199	2.16234	9.790944	-0.407549	0.245337	-0.117512	0.162044	0.202101	-0.959179	1.328198	1.395667	9.876762	-0.025255	0.429855	-0.13961	0.015888	-0.428294	-0.854151	9.655642	-0.812728	-0.95921	0.360894	0.526885	-0.543764	-0.586844	-0.175154	-0.344832
-0.000128	1.759959	9.797049	-0.346296	0.277051	-0.178509	0.131917	0.219808	-0.923084	1.215377	1.452308	9.987671	-0.175905	0.734141	-0.075049	0.015593	-0.429366	-0.839801	9.831435	-1.220159	-1.077454	0.330604	0.680983	-0.666641	-0.572791	-0.195274	-0.266285
0.166974	2.046077	9.574183	-0.377424	0.278298	-0.301071	0.118582	0.175341	-0.898412	1.445423	1.564538	9.992602	-0.085368	0.552335	-0.230925	0.003653	-0.395585	-0.884582	9.712478	-0.348502	-1.016039	0.422545	0.589231	-0.635973	-0.628706	-0.192785	-0.328677
-0.287638	1.93225	9.735352	-0.407342	0.182135	0.0348	0.147209	0.160821	-0.895694	1.73951	1.451575	10.281749	-0.085445	0.551932	-0.169273	-0.009844	-0.442693	-0.866945	9.827594	-0.988597	-1.256185	0.698837	0.437282	-0.636248	-0.601233	-0.24426	-0.263914
-0.399629	1.530724	9.845142	-0.498717	0.461769	-0.267072	0.13266	0.226864	-0.951236	1.388959	1.621023	10.04808	-0.240812	0.488039	-0.077549	0.015668	-0.414046	-0.840804	9.303746	-0.811423	-0.845999	0.699546	0.591175	-0.728674	-0.601934	-0.27334	-0.324351
-0.112658	2.105174	9.909976	-0.562362	-0.001233	-0.121074	0.133446	0.182023	-0.926913	1.050042	1.396585	10.323835	-0.086966	0.429474	-0.20132	0.02938	-0.441396	-0.882122	9.893212	-0.987249	-0.895644	0.636101	0.408046	-0.788695	-0.559584	-0.22415	-0.326652
-0.292175	2.046168	9.508422	-0.681526	0.457782	0.009401	0.14758	0.164349	-0.90977	1.322177	2.015113	9.650726	-0.024359	0.491789	-0.231478	0.002912	-0.428369	-0.853875	9.591529	-0.988057	-1.260587	0.327513	0.438473	-0.879411	-0.615215	-0.224966	-0.326933
-0.39992	1.932815	9.846831	-0.591797	0.245522	-0.208982	0.148724	0.140335	-0.917015	1.326881	1.45195	9.82017	0.039183	0.616238	-0.38433	0.004614	-0.377049	-0.928634	9.944816	-0.640411	-1.252501	0.82012	0.348478	-0.880765	-0.587329	-0.225384	-0.311265
-0.003634	1.989001	9.627455	-0.407635	0.308192	-0.239162	0.090327	0.193389	-0.915205	1.444884	1.84619	9.992839	-0.145323	0.704271	-0.136978	0.02953	-0.410755	-0.884129	9.88636	-0.407725	-1.192706	0.91387	0.315385	-0.605883	-0.587262	-0.207539	-0.343157
-0.694028	1.988775	9.443534	-0.530981	0.247199	-0.331802	0.090327	0.193389	-0.915205	1.212313	1.790196	9.874677	0.007666	0.583974	-0.199707	0.02894	-0.412899	-0.85543	9.772034	-0.580941	-1.015928	0.791261	0.40671	-0.605875	-0.643169	-0.242393	-0.310708
-0.461752	2.104216	9.61903	-0.55914	0.521556	-0.143254	0.118954	0.178869	-0.912488	1.67426	1.67672	9.940893	-0.147974	0.49002	-0.200767	-0.009253	-0.440549	-0.895645	9.832576	-0.290201	-0.893777	0.484136	0.558548	-0.605487	-0.573771	-0.23972	-0.341413
-0.168965	2.335222	9.966681	-0.621846	0.243641	-0.055587	0.104833	0.179244	-0.912139	0.925694	1.790782	9.925272	-0.026151	0.367922	-0.047742	0.016554	-0.41083	-0.883854	9.772169	-0.639017	-1.016175	0.666361	0.378198	-0.849788	-0.587049	-0.210018	-0.296574
-0.40124	2.219781	9.791185	-0.253915	0.307517	-0.116944	0.14718	0.195419	-0.930678	1.049179	1.847229	10.324214	0.006302	0.490973	-0.046493	0.016699	-0.440399	-0.896196	9.711087	-0.697452	-1.137336	0.792512	0.373283	-0.330655	-0.601863	-0.274166	-0.308824
-0.289699	1.702001	9.620681	-0.49875	0.399263	-0.176084	0.160929	0.191516	-0.916951	1.333596	1.733887	10.160245	-0.148753	0.457342	0.107189	0.02975	-0.425004	-0.897476	9.659504	-0.579435	-0.718594	0.887922	0.678565	-0.240769	-0.545676	-0.223946	-0.326582
0.059312	1.817842	9.91211	-0.468452	0.306515	-0.116342	0.118568	0.19264	-0.915904	1.213845	1.621252	9.931174	0.035247	0.338041	-0.04799	-0.009404	-0.47119	-0.893637	9.295503	-0.58085	-1.264359	0.947748	0.402851	-0.178544	-0.545046	-0.194039	-0.281673
-0.237064	1.930761	9.395347	-0.590181	0.459949	-0.144166	0.104433	0.210314	-0.933046	1.673052	1.676673	9.884253	0.130619	0.553669	-0.014941	-0.009473	-0.426301	-0.882299	9.480639	-1.218608	-0.904336	1.072287	0.556242	-0.179727	-0.58684	-0.193826	-0.297411
0.003746	2.565105	10.02784	-0.437214	0.398854	-0.114932	0.134589	0.158009	-0.934157	1.560531	0.944639	9.937858	0.036572	0.43084	-0.170379	0.015964	-0.412974	-0.855154	9.592339	-1.336513	-1.26207	1.194835	0.371887	-0.05704	-0.573137	-0.228485	-0.249083
-0.286524	1.932491	9.792205	-0.314938	0.369042	-0.146436	0.119711	0.168626	-0.923148	1.269208	1.508388	9.819009	-0.117119	0.49021	-0.169912	0.016479	-0.426151	-0.88285	10.181555	-0.931331	-1.249335	1.225578	0.403218	-0.118426	-0.587955	-0.273962	-0.308753
-0.174284	1.989367	9.680967	-0.315571	0.308273	-0.208758	0.104447	0.193015	-0.915554	0.986216	1.509117	10.039523	-0.119536	0.305819	-0.110091	0.016924	-0.394438	-0.899207	9.712458	-0.813357	-1.077924	1.500335	0.44048	-0.669729	-0.586773	-0.175981	-0.329304
-0.57494	1.817332	9.672449	-0.315331	0.307578	-0.147434	0.091841	0.172904	-0.936525	1.381945	2.127761	9.765309	-0.024047	0.522051	-0.16952	-0.009988	-0.413124	-0.854603	9.767767	-0.640006	-1.255802	1.379686	0.652272	-0.486927	-0.57307	-0.21064	-0.280976
-0.228281	2.105015	9.850896	-0.346886	0.184855	-0.180005	0.089955	0.189861	-0.901129	1.16036	2.015863	10.156855	-0.149066	0.398428	-0.263335	0.003578	-0.410905	-0.883578	9.891167	-0.580964	-0.95382	1.408905	0.469161	-0.516721	-0.587049	-0.210018	-0.296574
-0.001324	1.874601	9.740678	-0.314261	0.398383	-0.023289	0.132317	0.188737	-0.902177	1.558136	1.564227	9.88174	0.098283	0.431222	-0.108669	0.029235	-0.411827	-0.86978	10.120784	-0.176208	-1.247222	1.40874	0.469476	-0.547285	-0.57335	-0.226006	-0.295667
-0.343779	1.932532	9.791092	-0.406359	0.335795	0.037295	0.119325	0.182397	-0.926564	1.148703	1.790067	9.59027	-0.057162	0.366926	0.044707	-0.010064	-0.428445	-0.853599	9.418207	-0.696283	-1.023025	1.192049	0.594525	-0.883287	-0.601166	-0.226415	-0.295807
-0.224857	1.990856	10.020972	-0.344943	0.335733	0.067785	0.104076	0.189486	-0.901478	1.497291	2.014884	9.767632	0.069376	0.584355	-0.137998	0.028274	-0.430363	-0.825727	9.830625	-0.871703	-1.07597	1.533113	0.623183	-0.579032	-0.545117	-0.193213	-0.2972
-0.117237	2.276533	9.683287	-0.253402	0.368633	-0.085284	0.146809	0.191891	-0.916602	1.218919	2.128464	10.214799	-0.149143	0.426677	0.106883	0.016849	-0.409758	-0.898203	9.5379	-0.463754	-0.900021	1.252296	0.28696	-0.698661	-0.573559	-0.242199	-0.29483
-0.058869	2.276733	9.741254	-0.560996	0.307824	-0.269394	0.147566	0.181648	-0.927262	1.439618	2.071323	9.76647	-0.11895	0.366142	0.044649	0.015518	-0.444687	-0.838797	9.177741	-0.696732	-1.267054	1.283763	0.41006	-0.760488	-0.587191	-0.208366	-0.32763
0.054568	2.218967	9.686387	-0.313955	0.522701	-0.143941	0.105205	0.182772	-0.926214	1.043135	1.846992	10.041016	-0.210502	0.456759	0.076305	0.028714	-0.45886	-0.852419	9.474752	-0.58076	-1.141244	1.220347	0.102682	-0.63654	-0.587884	-0.274788	-0.293226
-0.286607	2.047374	9.792688	-0.49898	0.306024	-0.085594	0.090355	0.158791	-0.880222	1.437739	1.789575	9.652954	-0.365012	0.454598	0.106987	0.003873	-0.409833	-0.897928	9.766802	-0.698329	-1.315956	1.34297	-0.050767	-0.544564	-0.572999	-0.211466	-0.265448
-0.403177	1.817208	9.67579	-0.49934	0.307067	-0.17758	0.161287	0.212344	-0.948519	1.442035	2.071418	9.879749	-0.211945	0.334704	-0.017394	0.02894	-0.412899	-0.85543	9.767632	-0.58193	-1.255555	1.31241	0.19699	-0.851263	-0.587608	-0.240751	-0.325955
-0.570818	2.27783	9.901792	-0.500443	0.153756	-0.210737	0.103318	0.199729	-0.890818	1.333164	1.959209	10.160435	-0.117352	0.489003	0.015044	0.003873	-0.409833	-0.897928	9.711917	-0.581053	-1.076935	1.345686	0.378746	-0.668874	-0.55993	-0.257361	-0.30945
-0.399179	2.45003	9.905856	-0.286069	0.186532	-0.302825	0.133046	0.213093	-0.94782	1.218704	2.241125	10.214893	0.036184	0.428828	0.137882	-0.009844	-0.442693	-0.866945	9.944546	-0.524259	-1.252007	1.311369	0.043727	-0.819965	-0.573212	-0.208988	-0.312032
-0.107008	1.991497	10.193759	-0.438077	0.244847	-0.086764	0.105233	0.148173	-0.891231	1.213545	2.409927	9.988477	-0.178946	0.489225	-0.139143	0.016624	-0.45572	-0.895193	9.655082	-1.045279	-1.020106	1.344314	0.226114	-0.698704	-0.614727	-0.193408	-0.313079
-0.527873	2.044886	9.16285	-0.407755	0.308539	-0.269824	0.105219	0.165473	-0.908723	1.153323	1.902917	9.816923	-0.270537	0.579641	-0.076662	0.04147	-0.444537	-0.839349	10.238931	-0.699409	-1.307153	1.065654	0.227323	-0.911639	-0.601304	-0.243433	-0.279442
-0.2864	1.760166	9.791481	-0.591317	0.244131	-0.086335	0.131559	0.19898	-0.891517	1.508602	1.789989	10.277198	-0.269212	0.672441	-0.19905	0.016259	-0.411902	-0.869504	9.887865	-0.581705	-1.13354	0.879721	0.321578	-1.217042	-0.587537	-0.241577	-0.310428
-0.287928	2.33434	9.737041	-0.314371	0.304797	0.097862	0.089569	0.203632	-0.904545	1.434998	1.958472	9.539817	-0.0542	0.582788	-0.138113	0.003948	-0.394513	-0.898931	9.765701	-0.698576	-1.375863	0.662804	0.353913	-1.460911	-0.601095	-0.227241	-0.280279
-0.346171	2.161816	9.678351	-0.437377	0.430628	-0.206419	0.091456	0.186675	-0.939941	1.433789	1.958425	9.483177	-0.086108	0.491206	-0.262361	0.016774	-0.425079	-0.8972	10.070531	-1.103806	-0.892837	0.693547	0.385244	-1.522297	-0.615491	-0.259004	-0.294203
-0.23463	1.644035	9.507847	-0.408412	0.091331	-0.089344	0.105176	0.217371	-0.961198	1.440049	1.846001	9.76628	-0.177232	0.61269	-0.261227	0.002692	-0.414121	-0.840529	9.591394	-0.929981	-1.26034	0.445436	0.542348	-2.011147	-0.628706	-0.192785	-0.328677
-0.175563	2.218892	9.62508	-0.37737	0.152937	-0.088432	0.105205	0.182772	-0.926214	1.267915	2.184354	9.819578	0.007237	0.553108	-0.169186	0.003358	-0.396657	-0.870232	9.65014	-0.813964	-1.258745	0.16845	0.47828	-1.826464	-0.57335	-0.226006	-0.295667
-0.006892	1.873394	9.456413	-0.500203	0.15306	-0.149413	0.118182	0.206411	-0.919319	1.438732	1.902284	9.709688	0.006925	0.522846	-0.231144	0.028864	-0.428219	-0.854426	9.888135	-0.697857	-1.134035	0.104402	0.389442	-2.131432	-0.572795	-0.176603	-0.313706
-0.574076	2.162223	9.73075	-0.376464	0.275517	-0.055775	0.119325	0.182397	-0.926564	0.985354	1.959761	10.039902	0.101244	0.647083	-0.291489	-0.009988	-0.413124	-0.854603	9.887035	-0.698105	-1.193942	0.041151	0.081749	-1.976922	-0.587329	-0.225384	-0.311265
-0.056393	1.932566	9.853512	-0.346776	0.278442	-0.301157	0.104461	0.175715	-0.898063	1.451683	1.452114	10.275705	-0.053694	0.614056	-0.230286	0.016629	-0.39551	-0.884857	9.536239	-0.696553	-1.020824	-0.236678	0.081381	-2.037039	-0.587258	-0.226211	-0.295737
-0.290196	2.391299	9.623577	-0.591874	0.214442	-0.178819	0.146423	0.205662	-0.920018	1.089043	1.621088	9.475639	-0.083341	0.706061	-0.291051	0.015744	-0.398725	-0.841808	9.59456	-0.871163	-1.080372	-0.08426	0.116308	-2.404506	-0.600819	-0.193203	-0.313009
-0.177624	1.988643	9.510408	-0.4393	0.091883	-0.150582	0.11781	0.202883	-0.905243	1.330185	1.621084	9.990231	-0.085796	0.521468	-0.200404	0.016108	-0.442543	-0.867497	9.585237	-0.175981	-1.496753	-0.053293	-0.101175	-2.067395	-0.587399	-0.224558	-0.326792
-0.518841	1.874491	9.616951	-0.376747	0.30764	-0.177924	0.132674	0.209565	-0.933745	1.388073	1.451984	9.991298	-0.147819	0.490825	-0.324071	0.003578	-0.410905	-0.883578	9.706841	-0.291662	-1.315326	0.286054	0.179133	-2.436709	-0.58712	-0.209192	-0.312102
-0.290937	1.874084	9.564552	-0.191735	0.273942	0.158343	0.131917	0.219808	-0.923084	1.668001	1.789144	9.657789	-0.179336	0.45856	-0.139449	0.016479	-0.426151	-0.88285	9.772034	-0.580941	-1.015928	0.287078	0.052992	-2.069363	-0.573346	-0.244678	-0.248246
-0.226219	2.335264	9.965567	-0.530348	0.307967	-0.26948	0.091456	0.186675	-0.939941	1.492432	1.395012	9.483912	-0.178634	0.519487	-0.077186	0.042211	-0.411752	-0.870055	9.590293	-0.930228	-1.320247	-0.113436	0.113045	-2.098761	-0.614794	-0.211253	-0.281187
-0.744435	1.760498	9.782573	-0.43693	0.366731	0.007217	0.14758	0.164349	-0.90977	1.331717	1.45214	10.046729	0.007237	0.553108	-0.169186	0.029084	-0.442468	-0.867772	9.999565	-0.699611	-1.491275	-0.358533	0.140225	-1.853504	-0.601378	-0.223936	-0.342391
-0.231372	1.759642	9.678889	-0.437967	0.338433	-0.207915	0.13346	0.164724	-0.909421	1.449265	1.452019	10.162426	-0.023735	0.552313	-0.107563	0.02894	-0.412899	-0.85543	9.481335	-1.044132	-0.843687	-0.357311	0.231048	-1.762255	-0.559304	-0.208784	-0.311961
-0.286897	2.449465	9.794377	-0.316401	0.216773	-0.271578	0.119711	0.168626	-0.923148	1.385571	2.127903	9.935227	-0.054084	0.583391	-0.230591	0.041765	-0.443465	-0.853698	9.237587	-0.580467	-1.205552	-0.455961	-0.037024	-2.494115	-0.587884	-0.274788	-0.293226
-0.235086	2.275892	9.510501	-0.225396	0.032116	-0.213505	0.090312	0.210689	-0.932697	1.274067	2.128261	10.102728	0.071481	0.738484	-0.259776	-0.009103	-0.409908	-0.897652	9.77354	-0.754922	-0.956762	-0.639165	0.083092	-2.341213	-0.573417	-0.243851	-0.263774
-0.181048	2.102802	9.340331	-0.407319	0.338576	-0.208001	0.132331	0.171438	-0.884685	1.218896	1.508781	10.157637	-0.023306	0.583179	-0.138084	0.042726	-0.424929	-0.897751	9.353844	-0.290604	-1.262022	-0.73358	-0.224081	-2.247718	-0.574047	-0.273758	-0.308683
-0.10474	1.934538	10.307224	-0.225057	0.218941	-0.425146	0.13346	0.164724	-0.909421	1.446524	1.620916	10.049289	-0.027086	0.305787	0.074951	0.015744	-0.398725	-0.841808	9.768442	-0.930386	-1.257039	-0.636619	-0.170135	-1.514829	-0.559233	-0.20961	-0.296433
-0.171808	1.6452	9.793226	-0.223834	0.371905	-0.361327	0.090698	0.196918	-0.929281	0.868991	1.340246	9.923683	-0.244358	0.240506	0.259096	0.015593	-0.429366	-0.839801	9.649465	-0.523584	-1.257509	-0.543652	-0.046499	-1.607443	-0.573696	-0.259218	-0.278465
-0.228488	2.392223	9.852102	-0.43789	0.369512	-0.238078	0.133446	0.182023	-0.926913	1.21935	1.903142	10.214609	-0.554119	0.175055	0.289024	0.003948	-0.394513	-0.898931	9.99943	-0.641535	-1.491028	-0.391506	0.082088	-2.158731	-0.601024	-0.228067	-0.264751
0.108399	2.333085	9.517423	-0.376244	0.462689	-0.298077	0.132317	0.188737	-0.902177	1.617904	1.676875	9.996323	-0.494473	0.021508	0.441686	0.016328	-0.456792	-0.880843	9.597186	-0.580041	-0.899415	-0.696791	0.168334	-1.730164	-0.587399	-0.224558	-0.326792
-0.114927	2.162133	9.796511	-0.439703	0.124353	-0.303393	0.091456	0.186675	-0.939941	1.107715	1.340147	10.324996	-0.185299	0.026635	0.257017	0.003578	-0.410905	-0.883578	9.539541	-0.695811	-0.841103	-1.282586	0.383506	-2.034693	-0.587608	-0.240751	-0.325955
-0.280957	1.933697	10.076471	-0.346819	0.309869	-0.361982	0.078107	0.159507	-0.93276	1.380066	1.846014	9.651792	-0.217128	-0.035891	0.379682	0.017295	-0.378046	-0.91456	9.417377	-0.812682	-1.083426	-1.438362	0.541258	-2.554441	-0.573421	-0.22518	-0.311194
0.000903	1.875083	9.854385	-0.500343	0.341276	-0.483701	0.075063	0.217778	-0.907612	1.726667	1.845414	9.715685	-0.339418	0.055139	0.288004	-0.022449	-0.426376	-0.882023	9.661705	-0.57894	-0.59878	-2.05921	0.391767	-3.101599	-0.559371	-0.226629	-0.280069
-0.234879	1.988685	9.509295	-0.470372	0.312078	-0.606934	0.161329	0.160446	-0.896044	1.501564	1.677044	9.937266	-0.46701	-0.253682	0.377315	0.016328	-0.456792	-0.880843	9.707921	-0.75627	-1.317304	-2.215273	0.363775	-3.406521	-0.614936	-0.2096	-0.312242
0.057867	2.277133	9.857187	-0.040371	0.248793	-0.271852	0.11821	0.171813	-0.884336	1.444992	1.78986	9.992791	-0.530513	-0.377931	0.499341	0.016479	-0.426151	-0.88285	9.653016	-1.10385	-1.140167	-2.340866	0.119246	-3.466023	-0.615211	-0.243638	-0.279512
-0.284173	1.760649	9.905188	-0.164874	0.159849	-0.610288	0.118939	0.196168	-0.92998	1.328113	2.071681	9.933971	-0.407404	-0.40743	0.560803	0.02894	-0.412899	-0.85543	9.591124	-0.813829	-1.259845	-2.372964	0.214686	-3.833106	-0.559304	-0.208784	-0.311961
-0.342458	1.645566	9.846738	-0.255825	0.219145	-0.455722	0.160915	0.208816	-0.934443	1.889692	1.844712	9.266195	-0.531409	-0.439865	0.591209	0.004024	-0.379193	-0.899935	10.009739	-0.813538	-0.952608	-2.006181	0.128977	-4.292454	-0.587466	-0.242403	-0.2949
-0.286607	2.047374	9.792688	-0.194855	0.282981	-0.638868	0.119325	0.182397	-0.926564	1.560123	1.789644	9.995209	-0.718335	-0.593529	0.281249	0.016774	-0.425079	-0.8972	9.827188	-0.814369	-1.255444	-1.941093	0.371078	-4.018788	-0.572862	-0.194448	-0.281813
-0.119339	2.103726	9.568857	-0.133735	0.064668	-0.335912	0.117039	0.230425	-0.912075	1.900895	1.676147	9.775809	-0.533243	-0.621238	0.188639	0.004093	-0.424082	-0.911274	9.470911	-0.349198	-1.319975	-2.064288	0.494568	-4.17174	-0.601934	-0.27334	-0.324351
-0.579685	2.218458	9.446726	-0.316804	0.249243	-0.424389	0.160929	0.191516	-0.916951	1.446309	1.733577	10.049384	-0.500634	-0.497381	0.066584	0.02894	-0.412899	-0.85543	9.482996	-0.811334	-0.722884	-2.251003	0.404026	-4.354003	-0.573488	-0.243025	-0.279302
-0.402147	1.932332	9.733125	-0.255028	0.248139	-0.301913	0.118954	0.178869	-0.912488	1.559237	1.620605	9.938427	-0.500167	-0.466314	0.005237	0.015668	-0.414046	-0.840804	9.888696	-0.465306	-1.073139	-2.31312	0.559904	-4.66014	-0.587746	-0.257769	-0.30959
-0.232817	2.218933	9.623966	-0.285949	0.186185	-0.272163	0.119339	0.165098	-0.909072	1.212744	1.564874	9.874487	-0.591914	-0.405354	-0.117543	0.016404	-0.441471	-0.881846	9.593325	-0.813334	-1.140032	-2.899108	0.558112	-4.688571	-0.587258	-0.226211	-0.295737
-0.22898	1.530359	9.79163	-0.132349	0.185857	-0.180607	0.118939	0.196168	-0.92998	1.509572	1.283014	10.276771	-0.558525	-0.191515	0.069579	0.029235	-0.411827	-0.86978	9.712883	-0.52273	-1.016781	-3.024867	0.313898	-4.778635	-0.615007	-0.208774	-0.32777
-0.686275	2.047905	9.841747	-0.223703	0.277623	-0.178852	0.131559	0.19898	-0.891517	1.031586	1.564865	9.474383	-0.807823	-0.377634	-0.086613	-0.009398	-0.41098	-0.883302	9.889526	-0.348907	-1.012738	-2.718529	0.31879	-5.146508	-0.546022	-0.257157	-0.30938
-0.287803	2.162016	9.736317	-0.161654	0.33833	-0.08604	0.119311	0.199697	-0.944055	1.788075	1.732788	9.886718	-1.023421	-0.348304	-0.302291	0.016479	-0.426151	-0.88285	9.887055	-0.233249	-1.132057	-2.16479	0.354212	-5.423737	-0.573559	-0.242199	-0.29483
-0.235702	1.586353	9.450752	-0.100674	0.308232	-0.117373	0.119668	0.220524	-0.975623	1.37918	1.676975	9.59501	-0.871133	-0.529529	-0.427283	-0.009103	-0.409908	-0.897652	9.661009	-0.753416	-0.659429	-1.673334	0.2043	-5.547047	-0.601654	-0.257973	-0.309661
-0.517893	2.104499	9.674769	-0.010323	0.250674	-0.425248	0.132688	0.192266	-0.916253	1.379611	1.451652	9.594821	-0.806772	-0.314895	-0.301785	-0.008952	-0.379268	-0.899659	9.954045	-0.347806	-0.712103	-1.455861	0.264049	-5.334189	-0.601028	-0.209396	-0.312172
-0.175397	1.989126	9.624114	-0.254798	0.341377	-0.392402	0.10519	0.200071	-0.943706	1.214492	1.283269	9.930889	-0.624289	-0.499351	0.128121	0.042361	-0.381111	-0.872063	9.600488	-0.5793	-0.719694	-1.391133	0.63103	-5.305613	-0.587466	-0.242403	-0.2949
-0.458205	1.817732	9.788382	-0.162811	0.31038	-0.331835	0.13346	0.164724	-0.909421	1.56077	1.451661	9.994925	-0.747479	-0.527559	-0.48882	-0.009548	-0.441621	-0.881295	9.412455	-0.116511	-1.26018	-1.424679	0.542933	-5.67181	-0.545396	-0.208579	-0.311891
-0.176221	1.586794	9.565572	-0.315734	0.340048	-0.300245	0.117839	0.168284	-0.87026	1.43586	1.507828	9.539437	-1.269912	-0.290714	-0.209433	0.016334	-0.396582	-0.870508	9.598017	-0.463642	-0.839014	-1.607973	0.69427	-5.580184	-0.587746	-0.257769	-0.30959
-0.17548	2.104009	9.624597	-0.469412	0.309296	-0.361638	0.104433	0.210314	-0.933046	1.386995	2.01529	9.991772	-2.632498	-0.496579	0.49647	-0.035575	-0.457092	-0.87974	9.527436	-0.698531	-1.500079	-1.6074	0.724229	-5.519206	-0.573629	-0.241373	-0.310357
-0.452844	2.106146	10.073854	-0.43966	0.092926	-0.242568	0.118968	0.16157	-0.894996	1.048725	1.452868	10.267242	-1.173763	-0.071059	-0.792904	0.003578	-0.410905	-0.883578	9.479849	-0.405296	-0.840967	-1.545705	0.600201	-5.335468	-0.546231	-0.273349	-0.308543
0.17147	1.989601	9.801355	-0.070626	0.310114	-0.270769	0.105619	0.134402	-0.887815	1.385656	1.45189	9.878019	-2.131721	-0.084417	-0.60884	0.028644	-0.413971	-0.84108	10.118718	-0.234778	-1.367283	-1.761596	0.506395	-5.211992	-0.601583	-0.2588	-0.294133
-0.058869	2.276733	9.741254	-0.562176	0.123433	-0.272388	0.076592	0.179993	-0.91144	1.271195	1.733805	9.932478	-0.713114	-0.222731	-0.146653	0.003358	-0.396657	-0.870232	9.472011	-0.348951	-1.260068	-1.794028	0.260937	-5.14958	-0.587746	-0.257769	-0.30959
-0.058413	1.644876	9.7386	-0.49994	0.308806	-0.33089	0.118954	0.178869	-0.912488	1.093879	1.621278	9.702198	0.184299	-0.089107	-0.082946	0.003208	-0.427298	-0.868225	9.464173	-0.292605	-1.679169	-1.763317	0.07499	-4.904311	-0.573417	-0.243851	-0.263774
0.166684	2.448168	9.575873	-0.529911	0.338004	-0.207658	0.120068	0.189454	-0.954716	1.679527	1.451588	10.167261	-0.49588	-0.157651	-0.299971	0.003798	-0.425154	-0.896924	9.526916	-0.001371	-1.437205	-2.10269	-0.081069	-4.718967	-0.588163	-0.290154	-0.307916
0.115122	2.277091	9.858301	-0.590105	0.491029	-0.174329	0.062086	0.194138	-0.914507	1.325672	1.451903	9.763531	-0.707229	0.208792	-0.481466	0.029455	-0.426076	-0.883126	9.765857	-0.291797	-1.314226	-2.223866	-0.08561	-4.321203	-0.601796	-0.256321	-0.340716
-0.642258	1.872644	9.159899	-0.531025	0.278626	-0.392627	0.10329	0.234328	-0.925802	1.718121	2.521096	9.376417	-1.332832	-0.383291	-0.241232	0.029675	-0.440324	-0.896472	9.715104	-0.05738	-0.835082	-2.190349	0.126735	-4.138967	-0.573279	-0.226833	-0.280139
0.002182	1.645558	9.910272	-0.469052	0.308253	-0.269652	0.090298	0.227988	-0.950189	1.673159	1.620342	9.884206	0.004274	0.308594	-0.294933	0.016259	-0.411902	-0.869504	9.647959	-0.349603	-1.316674	-2.098063	-0.027771	-3.955192	-0.57335	-0.226006	-0.295667
-0.000791	2.679024	9.80091	-0.376627	0.307292	-0.147262	0.088812	0.213875	-0.893885	1.102903	1.95964	10.155599	-0.119966	0.2463	-0.388136	0.016484	-0.365941	-0.872515	9.176931	-0.348275	-1.265571	-2.03718	0.129181	-4.322904	-0.574189	-0.272105	-0.339739
-0.3953	1.704014	10.073279	-0.316827	0.092803	-0.181588	0.120082	0.172155	-0.937224	1.674153	1.733051	9.94094	-0.242334	0.336928	-0.418161	0.003358	-0.396657	-0.870232	9.421508	-0.695541	-0.843304	-2.037136	-0.057193	-4.046958	-0.587191	-0.208366	-0.32763
-0.171109	2.219857	9.852492	-0.499799	0.12059	0.003398	0.118196	0.189112	-0.901828	1.733466	1.451338	9.998551	-0.427465	0.364436	-0.294725	-0.0226	-0.457017	-0.880016	9.534869	-0.580648	-1.080236	-1.542815	-0.05731	-3.865376	-0.573976	-0.274584	-0.293155
-0.34947	2.103651	9.50755	-0.375951	0.336633	-0.024115	0.146437	0.188363	-0.902526	1.501349	1.789705	9.937361	-0.305564	0.242741	-0.203352	0.02938	-0.441396	-0.882122	9.475583	-0.464361	-1.080842	-1.019019	-0.272072	-3.621753	-0.55993	-0.257361	-0.30945
-0.23463	1.644035	9.507847	-0.346526	0.183812	-0.088019	0.118968	0.16157	-0.894996	1.609681	2.183566	9.656912	-0.518354	0.51578	-0.169981	0.016259	-0.411902	-0.869504	9.590989	-0.755753	-1.259598	-0.618371	-0.208191	-3.745756	-0.601374	-0.242607	-0.29497
-0.69382	1.701567	9.442327	-0.49993	0.214872	-0.179077	0.10479	0.231142	-0.964614	0.747601	1.452885	9.638162	-0.391932	0.732605	-0.260207	0.016554	-0.41083	-0.883854	9.539136	-0.521583	-0.840361	-0.277218	-0.210754	-3.380236	-0.6157	-0.275196	-0.293366
-0.571807	2.105264	9.844215	-0.43752	0.274536	0.005721	0.132703	0.174966	-0.898761	0.982698	1.452644	9.869556	-0.175478	0.736355	-0.414136	0.02975	-0.425004	-0.897476	9.414096	-0.348568	-1.201262	-0.028067	-0.214595	-2.922688	-0.601863	-0.274166	-0.308824
-0.681862	2.106312	10.0694	-0.560549	0.243927	-0.055758	0.09147	0.169376	-0.922449	1.331717	1.45214	10.046729	0.104128	0.862542	-0.412656	0.029084	-0.442468	-0.867772	9.718115	-0.405342	-0.716752	0.433932	-0.211986	-3.01606	-0.601374	-0.242607	-0.29497
0.005067	2.278139	10.083486	-0.407025	0.21252	0.065961	0.146795	0.20919	-0.934094	1.675361	1.733098	9.99758	-0.142596	0.890272	-0.443407	-0.008587	-0.423085	-0.925348	9.477919	-0.521942	-0.961276	0.526929	-0.212599	-2.924708	-0.587049	-0.210018	-0.296574
-0.118226	2.103967	9.62571	-0.376497	0.21301	0.035213	0.090684	0.214217	-0.946773	1.90366	2.126933	9.946108	-0.207581	0.643767	-0.384254	0.003352	-0.456867	-0.880567	9.415466	-0.464473	-1.14185	0.250847	-0.247339	-2.61792	-0.587675	-0.258595	-0.294063
-0.062908	1.701353	9.511429	-0.560909	0.24497	-0.147744	0.105605	0.151702	-0.905307	1.331848	2.015492	10.103842	-0.267926	0.765039	-0.290613	0.016554	-0.41083	-0.883854	9.647669	-0.698306	-1.378064	0.533033	-0.100014	-1.977836	-0.587466	-0.242403	-0.2949
-0.404042	1.472318	9.617489	-0.468058	0.367979	-0.115345	0.132317	0.188737	-0.902177	1.556473	1.169819	9.768129	-0.33065	0.70212	-0.167977	0.003873	-0.409833	-0.897928	9.712478	-0.348502	-1.016039	0.781537	-0.164719	-1.550553	-0.559092	-0.211262	-0.265378
-0.451938	2.393595	10.131914	-0.375864	0.273779	0.097535	0.104819	0.196543	-0.92963	1.557597	1.84588	9.881977	-0.268355	0.734173	-0.260092	0.016259	-0.411902	-0.869504	10.003582	-0.059538	-1.189021	0.938145	0.017481	-1.368615	-0.601162	-0.245086	-0.248386
-0.285659	2.277381	9.850506	-0.49887	0.39961	-0.206746	0.13346	0.164724	-0.909421	1.561439	1.733361	10.051801	-0.36057	0.764064	-0.321525	-0.009624	-0.456942	-0.880291	9.587303	-0.117411	-1.376692	0.816095	0.20089	-1.399611	-0.615349	-0.260656	-0.263147
-0.06093	2.046484	9.626583	-0.37773	0.15398	-0.180418	0.13306	0.195794	-0.930329	1.331501	1.564801	10.046823	-0.174815	0.797081	-0.321047	0.003283	-0.411977	-0.869228	9.949352	-0.697498	-1.013121	0.632286	0.073769	-1.001025	-0.573559	-0.242199	-0.29483
-0.391012	1.934745	10.301656	-0.313988	0.460194	-0.052953	0.104833	0.179244	-0.912139	1.492779	1.845703	9.540931	-0.331974	0.609321	-0.045588	0.02916	-0.427148	-0.868776	9.70518	-0.52446	-1.436129	0.634592	0.13148	-0.665119	-0.61605	-0.289736	-0.323585
-0.001573	2.21925	9.742126	-0.252822	0.554762	-0.2356	0.10369	0.203257	-0.904894	1.728091	1.732801	9.77223	-0.115209	0.643333	-0.13756	0.016699	-0.440399	-0.896196	9.296084	0.116557	-1.141578	0.572548	-0.023265	-0.511342	-0.601587	-0.240128	-0.341553
-0.227001	1.87549	9.906784	-0.530151	0.338699	-0.268981	0.133474	0.147424	-0.891929	1.325134	1.733555	9.763768	-0.208086	0.641151	0.016484	0.015668	-0.414046	-0.840804	9.825973	-0.291685	-1.253219	0.359053	0.250949	-0.481315	-0.573346	-0.244678	-0.248246
-0.295805	2.447535	9.339552	-0.468615	0.33829	-0.207829	0.10409	0.172187	-0.883987	0.977539	1.621446	9.64314	-0.273148	0.394243	0.137289	0.003283	-0.411977	-0.869228	9.99972	-0.292831	-1.429638	0.208808	0.491328	-0.115164	-0.531973	-0.258605	-0.278254
0.108648	1.988436	9.515976	-0.560406	0.40002	-0.267898	0.161687	0.181274	-0.927611	1.676247	1.902137	10.054361	-0.273771	0.362371	0.32194	0.016033	-0.457863	-0.866493	9.24336	-0.695383	-0.906512	0.056044	0.519156	0.099196	-0.587955	-0.273962	-0.308753
-0.116123	2.276774	9.740141	-0.528492	0.521699	-0.14334	0.10559	0.169001	-0.922799	1.615055	1.902103	9.883234	-0.614776	0.266065	0.320708	-0.010064	-0.428445	-0.853599	9.76296	-0.466767	-1.494688	-0.004174	0.702472	0.098539	-0.559442	-0.225802	-0.295596
-0.276378	1.762337	10.303159	-0.253335	0.493646	-0.26726	0.119311	0.199697	-0.944055	1.500463	1.620666	9.880579	-0.335325	0.391447	0.445492	0.016039	-0.397654	-0.856158	9.650991	-0.232709	-1.136459	-0.65111	0.792227	0.069891	-0.587813	-0.275614	-0.277698
-0.057589	2.047208	9.797142	-0.101198	0.34105	-0.300846	0.161658	0.215872	-0.962595	1.262625	1.789804	9.536048	-0.210112	0.487424	0.07661	0.003208	-0.427298	-0.868225	9.470371	-0.116894	-1.318986	-0.584997	0.908188	0.710921	-0.573771	-0.23972	-0.341413
-0.455978	1.818215	9.902088	-0.344646	0.553985	-0.204681	0.089569	0.203632	-0.904545	1.839811	1.619782	9.604634	-0.121328	0.181952	0.073644	0.04206	-0.442393	-0.868048	9.823502	-0.176027	-1.372538	-0.798295	1.057838	0.955484	-0.573696	-0.259218	-0.278465
-0.056434	1.990008	9.853754	-0.315374	0.339005	-0.208259	0.133446	0.182023	-0.926913	1.218896	1.508781	10.157637	-0.276656	0.118259	0.134542	0.002988	-0.413049	-0.854878	9.765992	-0.349873	-1.314473	-0.954164	0.905281	0.865087	-0.559859	-0.258187	-0.293922
-0.173295	2.161933	9.738544	-0.467752	0.492297	-0.235997	0.133431	0.199322	-0.944405	1.62317	1.451743	10.222692	-0.152416	0.180553	0.227746	0.016259	-0.411902	-0.869504	9.184904	-0.462697	-0.846717	-0.738453	1.061527	0.619056	-0.574185	-0.290776	-0.292318
0.228683	2.047001	9.802709	-0.407482	0.370351	-0.299488	0.132302	0.206037	-0.919669	1.734459	1.564046	10.055286	-0.402143	-0.036432	0.102075	0.016108	-0.442543	-0.867497	10.118718	-0.234778	-1.367283	-0.862674	0.96963	0.589381	-0.629537	-0.276227	-0.277908
-0.169871	2.047773	9.908621	-0.408312	0.278851	-0.362309	0.118568	0.19264	-0.915904	1.33502	1.621273	10.21679	-0.370819	0.023479	0.380149	0.02953	-0.410755	-0.884129	9.466509	-0.350187	-1.559603	-1.047445	1.061679	0.497922	-0.587884	-0.274788	-0.293226
-0.458246	1.875174	9.788624	-0.100881	0.371434	-0.269685	0.10519	0.200071	-0.943706	1.437847	1.733245	9.652906	-0.556068	0.021731	0.287498	0.016554	-0.41083	-0.883854	9.706996	0.115118	-1.253689	-1.202017	1.03085	0.468066	-0.560206	-0.291398	-0.27672
-0.288627	1.759684	9.677775	-0.162527	0.278257	-0.209686	0.14758	0.164349	-0.90977	1.494742	1.451437	9.597239	-0.67863	0.111352	0.411603	0.041771	-0.383255	-0.843363	9.530487	-0.116781	-1.257979	-1.506592	1.270991	0.804216	-0.615771	-0.27437	-0.308894
-0.514221	1.64569	9.843398	-0.347486	0.186594	-0.333315	0.147566	0.181648	-0.927262	1.33666	1.395999	10.27324	-0.647853	0.111141	0.50411	0.016184	-0.427223	-0.8685	9.770393	-0.348884	-1.074846	-1.875365	1.360484	0.896814	-0.601516	-0.240955	-0.326026
-0.348233	1.931567	9.563679	-0.531374	0.185735	-0.3328	0.104819	0.196543	-0.92963	1.500486	2.240349	9.93774	-0.307783	0.11666	0.31947	0.016774	-0.425079	-0.8972	9.702979	-0.524955	-1.555943	-2.31013	1.178545	0.593626	-0.574051	-0.255086	-0.356104
-0.34873	2.620866	9.566575	-0.225166	0.125355	-0.303995	0.10519	0.200071	-0.943706	1.206915	1.451976	9.591194	-0.184326	0.060319	-0.205069	0.016184	-0.427223	-0.8685	9.708751	-0.639871	-1.256903	-2.154428	1.331418	0.653459	-0.573838	-0.257565	-0.30952
-0.293537	2.390576	9.453017	-0.43777	0.369165	-0.207416	0.119354	0.147799	-0.89158	1.910458	1.732857	10.228974	-0.088642	0.306211	-0.110063	0.003283	-0.411977	-0.869228	9.884564	-0.582447	-1.313261	-2.923182	1.355768	0.992321	-0.559584	-0.22415	-0.326652
-0.402271	2.104657	9.733849	-0.376824	0.27656	-0.147761	0.132688	0.192266	-0.916253	1.326797	2.127964	9.877379	-0.243191	0.275196	-0.35712	-0.009548	-0.441621	-0.881295	9.829254	-0.755798	-1.135383	-2.833293	1.174769	0.778917	-0.57307	-0.21064	-0.280976
-0.167644	2.048256	10.022327	-0.44014	0.094316	-0.365216	0.131545	0.216279	-0.909008	1.272942	1.4522	9.98888	-0.057008	0.339079	-0.387163	-0.023109	-0.38363	-0.841985	9.472822	-0.697407	-1.261552	-3.046196	1.416819	0.961912	-0.601654	-0.257973	-0.309661
0.232106	1.932842	9.972786	-0.500486	0.185183	-0.271562	0.104076	0.189486	-0.901478	1.326235	1.789933	9.820455	0.004546	0.310003	-0.510715	0.003653	-0.395585	-0.884582	9.529252	-0.058953	-1.317639	-3.478532	1.478653	0.749241	-0.574114	-0.291603	-0.27679
-0.978239	2.219231	9.552638	-0.652341	0.305656	-0.115827	0.119711	0.168626	-0.923148	1.379419	2.183997	9.652077	0.28501	0.497922	-0.570277	0.003948	-0.394513	-0.898931	10.17897	-0.292742	-1.306523	-3.327096	1.453346	0.290368	-0.573208	-0.227659	-0.264611
-0.514387	1.875456	9.844363	-0.500639	0.123024	-0.211236	0.07582	0.207535	-0.918272	1.500355	1.676996	9.880626	0.470764	0.530939	-0.569799	0.004168	-0.408762	-0.912277	9.294558	-0.174317	-1.262628	-3.36025	1.457648	-0.137413	-0.573629	-0.241373	-0.310357
-0.119671	2.563258	9.570788	-0.531331	0.154308	-0.271975	0.146423	0.205662	-0.920018	1.440803	1.451687	9.765948	0.379447	0.651416	-0.414534	0.055187	-0.411677	-0.870331	9.709041	-0.291167	-1.195513	-3.636885	1.330824	0.200386	-0.601934	-0.27334	-0.324351
-0.685368	2.335354	9.899806	-0.621889	0.275068	-0.116412	0.091827	0.190203	-0.954017	1.095111	2.241008	9.815998	0.34789	0.590298	-0.507651	0.003873	-0.409833	-0.897928	9.769833	-0.581435	-1.135741	-3.913655	1.421595	0.200955	-0.587466	-0.242403	-0.2949
-0.511295	2.220829	10.01637	-0.408192	0.278503	-0.331647	0.10559	0.169001	-0.922799	1.269424	1.395727	9.818914	0.288206	0.743643	-0.629487	0.054816	-0.428069	-0.854978	9.653057	-0.174139	-1.016398	-4.037061	1.390246	0.232115	-0.573838	-0.257565	-0.30952
-0.103833	2.221987	10.365283	-0.683502	0.244397	-0.147401	0.148681	0.192233	-0.96949	1.10629	1.45276	10.268451	0.347265	0.529774	-0.631566	0.055407	-0.425926	-0.883677	9.530622	-0.174858	-1.258226	-3.881013	1.480363	0.44506	-0.587329	-0.225384	-0.311265
-0.503376	2.050193	10.413618	-0.377631	0.3415	-0.453383	0.118568	0.19264	-0.915904	1.225048	1.452687	10.440788	0.378354	0.531172	-0.785667	0.029455	-0.426076	-0.883126	9.525951	-0.059694	-1.497359	-3.943961	1.296288	0.47673	-0.587466	-0.242403	-0.2949
-0.346006	1.93205	9.677386	-0.621746	0.43116	-0.328551	0.147895	0.237075	-0.993813	1.847519	2.014427	10.001443	0.533644	0.623315	-0.507174	0.003428	-0.441546	-0.881571	10.062578	-0.524529	-1.249806	-4.159323	1.077286	0.875874	-0.601863	-0.274166	-0.308824
-0.40021	2.334906	9.848521	-0.132316	0.248364	-0.271595	0.160529	0.222587	-0.937859	1.619544	1.451601	10.052773	0.565941	0.716909	-0.691185	0.016334	-0.396582	-0.870508	9.888561	-0.40723	-1.072892	-4.25235	0.860619	1.091187	-0.586978	-0.210844	-0.281046
-0.231538	1.989408	9.679854	-0.346263	0.339558	-0.269497	0.120468	0.158384	-0.933808	1.381167	1.902391	9.708479	0.411743	0.74501	-0.598546	0.042211	-0.411752	-0.870055	9.652631	-0.464766	-1.077541	-4.067883	0.644951	1.30549	-0.573629	-0.241373	-0.310357
-0.284422	2.105298	9.906635	-0.43789	0.369512	-0.238078	0.118553	0.20994	-0.933395	1.440803	1.451687	9.765948	0.349722	0.743018	-0.413647	-0.009693	-0.412052	-0.868952	9.77439	-0.173667	-0.834476	-4.003037	0.856463	1.579315	-0.57398	-0.255913	-0.340576
-0.62828	2.565079	9.901885	-0.621223	0.398343	-0.145078	0.119325	0.182397	-0.926564	1.446979	2.015277	10.10626	0.35171	0.896544	-0.442947	-0.009624	-0.456942	-0.880291	10.005493	-0.407747	-1.130598	-4.157185	0.793783	1.671862	-0.573838	-0.257565	-0.30952
-0.117112	2.104209	9.682564	-0.439223	0.122962	-0.180745	0.090341	0.17609	-0.897713	1.151444	1.62117	9.703407	0.413459	0.897126	-0.412063	0.003798	-0.425154	-0.896924	10.002596	-0.582717	-1.31106	-3.787479	0.950899	1.394704	-0.573421	-0.22518	-0.311194
-0.685985	1.645814	9.840057	-0.437444	0.305615	-0.024442	0.104061	0.206786	-0.91897	1.323686	1.226486	9.650062	0.321947	0.987945	-0.411234	0.029825	-0.409683	-0.898479	9.766552	-0.117322	-1.253577	-3.32431	1.230707	1.116623	-0.573626	-0.260044	-0.262937
-0.227783	1.415717	9.848	-0.560549	0.243927	-0.055758	0.104447	0.193015	-0.915554	1.271626	1.508483	9.932288	0.321324	0.956072	-0.226583	0.003503	-0.426226	-0.882574	9.415736	-0.580625	-1.142344	-3.013601	1.320432	1.420701	-0.601445	-0.241781	-0.310498
-0.003593	1.93156	9.627213	-0.468681	0.213276	-0.025853	0.118925	0.213468	-0.947471	1.158243	1.227093	9.986273	0.197123	0.89398	-0.350613	0.042651	-0.440249	-0.896748	9.708076	-0.349491	-1.255667	-2.675436	1.323543	1.236082	-0.573559	-0.242199	-0.29483
-0.291967	1.75896	9.507216	-0.439016	0.05976	-0.028433	0.118182	0.206411	-0.919319	1.679096	1.67691	10.167451	0.350424	0.803945	-0.351385	-0.009768	-0.427373	-0.867949	9.420698	-0.347085	-0.841821	-2.429347	1.294471	1.174204	-0.573767	-0.258391	-0.293992
-0.638135	2.333141	9.389242	-0.500683	0.154451	-0.272061	0.146452	0.171063	-0.885034	1.625157	1.67716	10.336161	0.16467	0.770929	-0.351862	0.016629	-0.39551	-0.884857	9.652901	-0.580918	-1.078035	-2.368012	1.295324	1.112851	-0.587396	-0.243229	-0.279372
0.051518	1.816153	9.514138	-0.437237	0.242413	0.12787	0.105233	0.148173	-0.891231	1.848704	1.394792	10.000922	0.101555	0.648693	-0.538097	0.016184	-0.427223	-0.8685	9.828849	-0.58157	-1.134641	-1.995335	1.508891	1.293861	-0.559721	-0.241169	-0.310287
-0.116739	1.587235	9.680392	-0.437793	0.212724	0.035385	0.133074	0.178495	-0.912837	1.26649	2.296968	9.763033	0.288324	0.772899	-0.413399	0.015668	-0.414046	-0.840804	9.703539	-0.292404	-1.495047	-2.361077	1.747865	1.721931	-0.545955	-0.239312	-0.341273
-0.11604	2.161891	9.739658	-0.407669	0.245685	-0.148174	0.104419	0.227613	-0.950538	1.732365	1.39496	9.941864	0.349177	0.711549	-0.290648	0.029235	-0.411827	-0.86978	9.825973	-0.291685	-1.253219	-2.884239	1.744088	1.907223	-0.587329	-0.225384	-0.311265
-0.063364	2.333209	9.514083	-0.562099	0.154512	-0.302551	0.106348	0.158758	-0.933459	1.735883	1.451433	10.111831	0.688777	0.686	-0.413941	0.003798	-0.425154	-0.896924	10.06644	-0.291236	-1.009189	-2.884285	1.588933	2.121908	-0.601304	-0.243433	-0.279442
0.228351	2.506533	9.80464	-0.500629	0.02909	-0.059423	0.091456	0.186675	-0.939941	1.49783	1.733232	9.767394	0.411471	0.743601	-0.382764	0.016404	-0.441471	-0.881846	9.405852	-0.117995	-1.619621	-2.761874	1.622173	1.907362	-0.559233	-0.20961	-0.296433
-0.459318	1.817491	9.731529	-0.499123	0.149931	0.126545	0.13386	0.133653	-0.888514	1.562756	1.677078	10.108394	0.506921	0.959632	-0.411367	0.002692	-0.414121	-0.840529	9.831205	-0.174296	-0.95319	-2.550508	1.227805	1.663972	-0.601237	-0.225588	-0.311335
-0.227126	2.047815	9.907508	-0.653313	0.058063	0.033492	0.133831	0.168252	-0.923497	1.446309	1.733577	10.049384	0.383696	0.988527	-0.38035	0.003063	-0.397729	-0.855882	10.415304	-0.409434	-1.302615	-2.399525	1.017069	1.389362	-0.601796	-0.256321	-0.340716
-0.518142	2.449148	9.676217	-0.530688	0.121142	-0.05784	0.118196	0.189112	-0.901828	1.674691	1.451398	9.940703	0.320426	0.865487	-0.443281	0.02953	-0.410755	-0.884129	9.589639	-0.174993	-1.257126	-2.431038	0.738814	1.665873	-0.559788	-0.259013	-0.278394
-0.520612	1.242152	9.50059	-0.591111	0.180929	0.065977	0.103661	0.237856	-0.939878	1.094441	1.959308	9.759122	0.321985	0.988146	-0.44206	0.003503	-0.426226	-0.882574	9.763501	-0.699071	-1.495677	-2.464811	0.558003	1.391789	-0.615633	-0.257351	-0.325259
-0.165376	1.991297	10.135792	-0.776626	0.059577	-0.150136	0.134574	0.175308	-0.951649	1.209572	1.959093	9.76154	0.230979	1.110233	-0.533403	0.015888	-0.428294	-0.854151	9.828579	-0.465418	-1.134146	-2.343093	0.375224	1.361657	-0.588026	-0.273135	-0.324281
-0.229436	2.162215	9.794284	-0.622872	0.121408	-0.118906	0.118568	0.19264	-0.915904	1.156603	1.452368	9.929823	0.354245	1.11019	-0.28668	0.003208	-0.427298	-0.868225	10.006998	-0.581728	-1.071433	-2.281126	0.499065	1.238589	-0.601374	-0.242607	-0.29497
0.057002	1.932242	9.798886	-0.682825	0.273739	-0.024254	0.118539	0.227239	-0.950887	1.214623	1.846621	9.988003	0.231446	1.1413	-0.59475	0.016484	-0.365941	-0.872515	10.121189	-0.350436	-1.247964	-2.343047	0.530379	1.146974	-0.587258	-0.226211	-0.295737
-0.054865	1.358392	9.907952	-0.71283	0.24043	0.189966	0.118954	0.178869	-0.912488	1.732927	1.73299	9.998788	0.324753	1.203	-0.470749	-0.022669	-0.412127	-0.868677	9.707536	-0.117187	-1.254678	-1.942581	0.6567	0.900416	-0.573629	-0.241373	-0.310357
-0.285328	1.817849	9.848576	-0.682652	0.14803	0.219046	0.104461	0.175715	-0.898063	0.975445	1.45236	9.529719	0.572101	1.235794	-0.316084	-0.008807	-0.408837	-0.912002	9.41313	-0.406892	-1.261416	-1.727008	0.689012	0.807792	-0.601583	-0.2588	-0.294133
-0.224899	2.048297	10.021214	-0.622229	0.088243	0.095228	0.104447	0.193015	-0.915554	1.330531	2.071775	10.04725	0.634202	1.26684	-0.254069	0.029756	-0.364794	-0.88714	9.825163	0.056771	-1.251735	-2.006056	0.597821	0.656423	-0.615349	-0.260656	-0.263147
-0.06093	2.046484	9.626583	-0.835653	0.146619	0.280799	0.13306	0.195794	-0.930329	1.21376	2.297266	9.988383	0.510158	1.234205	-0.192837	0.029455	-0.426076	-0.883126	9.771204	-0.69734	-1.076329	-2.008799	0.634085	0.106126	-0.559863	-0.239516	-0.341343
-0.234837	1.931243	9.509053	-0.744941	0.088018	0.06491	0.119325	0.182397	-0.926564	1.72863	1.451148	9.771993	0.542493	1.328	-0.407675	0.0299	-0.394363	-0.899483	9.822247	-0.583054	-1.494082	-2.352438	0.299848	-0.227226	-0.573212	-0.208988	-0.312032
-0.521234	2.103775	9.50421	-0.865831	0.239019	0.25172	0.132288	0.223336	-0.93716	1.554856	2.014777	9.76884	0.602839	1.206729	-0.501317	0.002912	-0.428369	-0.853875	9.534039	-0.697047	-1.140638	-2.293741	0.243619	-0.685612	-0.587675	-0.258595	-0.294063
-0.227167	2.105256	9.907749	-0.744122	0.273452	-0.024082	0.105205	0.182772	-0.926214	1.15233	1.790209	9.760188	0.66568	1.298903	-0.407865	0.02975	-0.425004	-0.897476	9.824583	-0.640635	-1.374516	-2.385216	0.117145	-0.317924	-0.587466	-0.242403	-0.2949
0.171428	2.047042	9.801596	-0.865961	0.333301	0.069245	0.12084	0.161912	-0.947884	1.557813	1.733219	9.881883	0.324014	1.170524	-0.19362	0.042656	-0.380039	-0.886412	9.766957	-0.29155	-1.254319	-1.830647	0.150992	-0.442345	-0.560068	-0.27438	-0.293085
-0.295681	2.27521	9.338828	-0.867708	0.213155	-0.178046	0.088812	0.213875	-0.893885	1.388312	1.959007	10.048364	0.291677	1.048077	-0.287348	0.029015	-0.397579	-0.856434	9.532783	-1.104074	-1.262182	-1.337818	0.153712	-0.535831	-0.573838	-0.257565	-0.30952
-0.351573	1.930843	9.39312	-0.590924	0.305595	-0.085337	0.120082	0.172155	-0.937224	1.333141	1.339526	10.103273	0.198682	1.016639	-0.349392	0.02953	-0.410755	-0.884129	9.771069	-0.639264	-1.076082	-1.030408	0.187617	-0.751045	-0.587604	-0.259422	-0.278535
-0.514511	2.047781	9.845087	-0.529661	0.243374	0.005479	0.10559	0.169001	-0.922799	1.37553	1.057149	9.36793	0.387941	1.239682	-1.271863	0.004319	-0.378121	-0.914285	9.422204	-0.521066	-0.782655	-1.123977	0.158271	-0.90338	-0.587675	-0.258595	-0.294063
-0.516365	1.530325	9.729209	-0.745552	0.18369	-0.240213	0.146051	0.202134	-0.905942	1.670634	1.676578	9.770974	0.886143	1.523948	-1.576915	0.01722	-0.393366	-0.913557	9.48039	-0.6376	-0.841956	-1.554099	0.309035	-0.841416	-0.573417	-0.243851	-0.263774
-0.286731	2.219698	9.793412	-0.561139	0.151731	-0.057255	0.120082	0.172155	-0.937224	0.984361	1.847053	9.983167	0.867486	2.417659	-2.307915	0.017069	-0.424007	-0.91155	9.886745	-1.046808	-1.255332	-2.173106	0.43548	-1.45103	-0.559725	-0.222497	-0.357708
-0.23261	1.931726	9.62276	-0.71235	0.239039	0.312614	0.104833	0.179244	-0.912139	1.559561	1.451614	9.938285	2.141852	2.96066	-3.164672	-0.022594	-0.396807	-0.86968	10.069046	-0.464969	-0.890117	-3.133549	0.378744	-2.211341	-0.573696	-0.259218	-0.278465
-0.573211	2.507113	9.789051	-0.744461	0.086628	0.187558	0.119339	0.165098	-0.909072	1.617665	1.169853	9.939257	3.01842	3.91941	-2.722843	0.02894	-0.412899	-0.85543	9.765296	-0.524348	-1.375122	-4.185534	0.506158	-3.063882	-0.587053	-0.191347	-0.343994
-0.350045	1.356669	9.44756	-0.651317	0.08358	0.493919	0.091098	0.165847	-0.908373	1.673614	2.014703	9.941177	4.077734	4.666462	-2.375454	0.042135	-0.427072	-0.869052	10.005763	-0.523899	-1.131092	-4.992501	0.233959	-3.640339	-0.587955	-0.273962	-0.308753
-0.172963	1.7024	9.736614	-0.773473	0.113044	0.556085	0.090712	0.179618	-0.911789	1.159044	2.072146	10.100263	4.765349	5.375124	-1.566327	-0.009398	-0.41098	-0.883302	9.71796	-0.812121	-0.778389	-5.274274	0.116908	-4.249999	-0.573976	-0.274584	-0.293155
-0.330583	2.165193	10.474294	-0.774346	0.052971	0.43244	0.118196	0.189112	-0.901828	1.154208	2.071956	9.873705	5.792205	6.027773	-0.911623	0.028864	-0.428219	-0.854426	9.712458	-0.813357	-1.077924	-5.564744	-0.356184	-5.927579	-0.573696	-0.259218	-0.278465
-0.004623	1.816435	9.569878	-0.681452	0.144553	0.525664	0.134203	0.17178	-0.937573	1.390814	1.283088	10.104435	5.829456	6.605343	-0.073492	0.016184	-0.427223	-0.8685	9.545313	-0.810727	-0.542063	-6.284515	-0.617962	-7.482346	-0.587746	-0.257769	-0.30959
-0.289699	1.702001	9.620681	-0.6516	0.115703	0.37177	0.13346	0.164724	-0.909421	1.675469	1.676768	9.997532	6.11089	6.912891	0.330558	0.003208	-0.427298	-0.868225	9.654677	-0.871051	-1.019365	-6.817437	-1.006791	-8.517632	-0.545534	-0.225598	-0.295526
-0.401116	2.047457	9.790461	-0.682248	0.11556	0.371856	0.091098	0.165847	-0.908373	1.319328	2.24034	9.537636	6.229987	6.690756	1.715712	0.03012	-0.408611	-0.912829	9.479154	-0.579771	-0.901616	-6.027152	-2.03795	-9.096226	-0.573909	-0.256739	-0.325048
-0.120453	2.103485	9.512004	-0.681561	0.050967	0.646815	0.131917	0.219808	-0.923084	1.224055	1.339979	10.384054	5.729419	6.250966	2.358329	-0.009398	-0.41098	-0.883302	9.421914	-0.869769	-0.844046	-4.432253	-3.351292	-8.729006	-0.573838	-0.257565	-0.30952
0.059146	2.047608	9.913075	-0.649014	0.233415	0.833693	0.117496	0.130157	-0.8212	1.674691	1.451398	9.940703	5.086892	6.704703	2.054042	0.042355	-0.441321	-0.882398	9.607901	-0.926272	-0.361736	-0.953301	-4.695068	-7.726684	-0.601583	-0.2588	-0.294133
-0.680624	1.934228	10.125529	-0.433974	0.389467	0.712939	0.13306	0.195794	-0.930329	1.094656	1.846647	9.759027	4.289119	7.181106	2.674702	0.016033	-0.457863	-0.866493	9.540911	-0.811716	-0.781691	2.998106	-5.528199	-5.658853	-0.574118	-0.272931	-0.324211
-0.060806	1.87416	9.625859	-0.159844	0.239181	0.525701	0.14528	0.229676	-0.912773	1.209333	1.452071	9.704473	3.090268	7.626579	2.554854	-0.009624	-0.456942	-0.880291	9.429482	-0.809963	-0.42445	7.1967	-6.175018	-3.776145	-0.559859	-0.258187	-0.293922
-0.741675	2.565403	9.956511	-0.312974	0.332052	0.40498	0.118196	0.189112	-0.901828	1.489476	1.676569	9.37087	1.12273	8.42498	3.239432	0.016479	-0.426151	-0.88285	9.364268	-0.985539	-0.785734	10.754446	-6.371013	-1.343113	-0.573905	-0.27541	-0.277628
-0.340314	1.760931	9.960927	-1.35439	0.481889	0.318409	0.132317	0.188737	-0.902177	1.034458	1.959321	9.644634	1.043927	9.555527	3.682208	0.02953	-0.410755	-0.884129	9.303186	-1.043974	-0.906895	13.515091	-6.205984	1.396761	-0.545743	-0.241791	-0.294689
-0.001656	2.334133	9.742609	-0.435914	0.582897	-0.081276	0.148709	0.157635	-0.934506	0.747601	1.452885	9.638162	-2.564734	9.998872	3.899511	0.02953	-0.410755	-0.884129	9.355059	-0.813289	-1.264247	15.198414	-5.551639	3.771496	-0.601654	-0.257973	-0.309661
0.113185	1.874518	9.742905	-0.464433	0.858297	0.015286	0.091856	0.155605	-0.919034	1.5064	1.677233	10.163824	-4.745992	11.294856	7.795029	0.016108	-0.442543	-0.867497	9.777111	-0.870332	-0.777536	15.960812	-4.442734	6.239134	-0.559859	-0.258187	-0.293922
-0.34382	1.989974	9.791333	-0.280935	1.141999	-0.532655	0.118925	0.213468	-0.947471	1.616503	2.409172	9.99694	-5.895594	13.153606	7.319332	0.003653	-0.395585	-0.884582	9.477338	-1.219349	-1.084056	15.760858	-3.666487	8.008901	-0.616397	-0.322947	-0.306383
-0.116739	1.587235	9.680392	-0.342275	1.17314	-0.593309	0.118939	0.196168	-0.92998	0.967006	2.071711	9.190403	-7.55938	13.127339	3.402522	0.016108	-0.442543	-0.867497	9.535659	-1.39396	-1.143604	15.032111	-3.069665	9.200726	-0.601233	-0.24426	-0.263914
-0.401075	1.990015	9.79022	-0.00474	1.486551	-0.987872	0.119325	0.182397	-0.926564	0.689758	2.861351	9.751418	-9.430649	11.408851	-0.007175	0.003208	-0.427298	-0.868225	9.473632	-1.045863	-1.263035	13.955953	-2.706794	9.233457	-0.587396	-0.243229	-0.279372
-0.174284	1.989367	9.680967	0.272328	1.891174	-1.319443	0.147166	0.212719	-0.94817	1.26582	2.015268	9.706156	-13.353657	11.162347	-2.756475	0.02938	-0.441396	-0.882122	10.005898	-0.581975	-1.13134	13.461392	-2.519991	8.745315	-0.587045	-0.228689	-0.249153
-0.225929	1.933173	9.963878	0.88376	1.961062	-1.810758	0.118968	0.16157	-0.894996	0.291805	1.510268	9.855097	-12.687944	10.095955	-2.489093	0.016699	-0.440399	-0.896196	9.771879	-0.98772	-1.077565	13.092385	-2.585336	9.022049	-0.5737	-0.240546	-0.325885
-0.288876	2.104333	9.679223	1.617934	2.093681	-2.362746	0.133088	0.161195	-0.895345	1.501995	1.451721	9.937076	-11.82713	7.404521	-1.836949	0.016554	-0.41083	-0.883854	9.716049	-0.463912	-0.836813	11.82328	-2.953168	8.66162	-0.573626	-0.260044	-0.262937
-0.227949	1.645483	9.848965	2.413107	2.352641	-3.188874	0.105205	0.182772	-0.926214	0.927658	1.396516	9.981579	-9.399449	6.393927	-1.999185	0.029455	-0.426076	-0.883126	9.536104	-0.638477	-1.020577	11.720344	-3.337286	7.318974	-0.587187	-0.227037	-0.280209
0.059105	2.105049	9.913316	3.870953	0.864087	-4.137322	0.118196	0.189112	-0.901828	0.584575	1.453588	10.087652	-8.643249	5.059547	-2.782544	0.042205	-0.471962	-0.880391	9.369385	-0.345219	-0.423573	13.098238	-3.810684	6.246485	-0.601516	-0.240955	-0.326026
0.114091	2.161967	9.800965	6.07229	1.046127	-5.735479	0.118954	0.178869	-0.912488	0.749911	1.509311	9.751489	-5.212275	3.003991	-0.611436	0.003873	-0.409833	-0.897928	9.538055	-0.056975	-0.838384	14.387298	-4.011952	5.448105	-0.587396	-0.243229	-0.279372
0.120031	1.646199	10.083059	8.672107	0.634998	-6.363026	0.172778	0.22187	-0.88532	0.517339	1.453317	9.633327	-2.976141	1.586944	0.05449	0.015888	-0.428294	-0.854151	9.655953	0.000831	-0.835935	16.107378	-4.148284	4.433911	-0.601304	-0.243433	-0.279442
-0.50494	1.130646	10.296051	9.647774	0.81062	-7.896443	0.119697	0.185926	-0.94064	1.218572	1.677772	10.15778	-2.159413	0.275521	0.566185	0.054891	-0.412749	-0.855981	9.664041	-0.636522	-0.479214	17.89751	-3.586212	3.935723	-0.601516	-0.240955	-0.326026
-0.049588	1.761689	10.193907	10.498668	0.835486	-9.738661	0.132688	0.192266	-0.916253	0.923169	1.847018	9.81204	-0.314874	-0.349755	1.301327	0.054886	-0.472959	-0.866317	9.890336	-0.697363	-1.014221	19.195584	-2.904187	3.499874	-0.559371	-0.226629	-0.280069
-0.396372	1.646331	10.016184	11.862021	-0.239389	-11.968291	0.133831	0.168252	-0.923497	1.092454	1.733891	9.645653	-1.237921	-0.08412	1.087428	0.067943	-0.397353	-0.857261	9.654697	-0.406196	-0.95748	20.741993	-2.1623	3.276787	-0.559371	-0.226629	-0.280069
-1.669735	-0.883562	9.185126	0.954062	-1.110916	-10.049517	0.119325	0.182397	-0.926564	0.871324	2.016354	10.094171	1.33349	-1.835407	1.935272	0.016334	-0.396582	-0.870508	9.479849	-0.405296	-0.840967	21.885676	-1.573536	2.933635	-0.5737	-0.240546	-0.325885
1.107856	7.431027	19.844657	-25.703925	20.139942	-11.222212	0.104819	0.196543	-0.92963	1.322931	1.620799	9.650394	1.52562	-3.705066	2.19429	0.029675	-0.440324	-0.896472	9.783443	-0.752697	-0.4176	24.037438	-1.397698	1.45796	-0.559162	-0.210436	-0.280906
0.401259	1.829697	12.760332	7.027707	60.17954	-13.763242	0.119325	0.182397	-0.926564	0.411902	2.073595	10.141187	3.53238	-6.109244	3.312645	0.028789	-0.44354	-0.853423	10.024065	-0.345468	-0.111933	26.240172	-1.791168	-1.145987	-0.573279	-0.226833	-0.280139
0.25739	0.84676	11.218969	-13.179408	67.445887	-12.452137	0.133074	0.178495	-0.912837	0.928867	1.396564	10.038219	3.82818	-7.147369	3.210076	0.029675	-0.440324	-0.896472	10.016227	-0.289123	-0.531034	28.837617	-2.668207	-4.176867	-0.601166	-0.226415	-0.295807
0.26001	2.755641	14.352739	-19.189439	78.011624	-14.501998	0.147595	0.14705	-0.892279	0.575359	1.84757	9.691507	5.37111	-7.165481	4.290128	0.028714	-0.45886	-0.852419	9.894043	-0.870849	-0.835242	30.649054	-3.112303	-4.975913	-0.573838	-0.257565	-0.30952
0.540922	2.46702	14.072834	-14.759757	96.681472	-17.094248	0.161329	0.160446	-0.896044	1.846525	1.901719	9.944709	4.840271	-2.642437	5.567812	0.016334	-0.396582	-0.870508	9.957076	-0.230912	-0.531888	32.870537	-3.355019	-4.402126	-0.574114	-0.291603	-0.27679
0.206718	1.894783	14.518565	-18.455733	111.503969	-14.388924	0.146437	0.188363	-0.902526	0.808793	1.45292	9.80929	0.283527	-1.703257	3.138043	0.004018	-0.439402	-0.91027	9.598942	-1.33503	-0.902629	36.212068	-2.618997	-3.439757	-0.573488	-0.243025	-0.279302
0.724271	3.388614	14.70542	-16.41103	127.51538	-11.312779	0.161301	0.195045	-0.931027	0.982374	1.621636	9.869699	1.25803	-2.709111	4.115332	0.016479	-0.426151	-0.88285	10.013425	-1.45188	-0.835514	37.284418	-0.890874	-1.587589	-0.587396	-0.243229	-0.279372
-0.338512	1.716318	12.972786	-1.374479	144.660217	-10.862561	0.202919	0.186864	-0.903923	1.328545	1.846358	9.933781	-1.705089	-2.675346	2.571869	0.041915	-0.412824	-0.855706	9.538535	-1.683845	-1.025027	36.903904	0.900799	-0.463945	-0.587466	-0.242403	-0.2949
-1.385587	1.426237	12.09874	-10.138988	146.873381	-6.446269	0.245267	0.20304	-0.922462	1.221098	1.621536	10.271011	-2.60598	-3.113413	2.166021	0.02975	-0.425004	-0.897476	9.123336	-2.206326	-1.214676	34.58101	3.181564	0.022587	-0.573976	-0.274584	-0.293155
2.765942	1.704388	10.759904	-12.66669	145.907222	-0.842351	0.259416	0.168067	-0.887828	1.162	1.790588	10.213305	-2.374181	-4.278388	2.586219	0.029084	-0.442468	-0.867772	9.475367	-2.265707	-1.328134	31.442035	4.43107	-0.613828	-0.587604	-0.259422	-0.278535
5.764423	2.211445	9.001792	1.223765	115.264268	3.403558	0.272393	0.191706	-0.880933	1.214492	1.283269	9.930889	-3.19926	-3.783627	0.340017	0.042431	-0.426001	-0.883402	9.228318	-1.802783	-1.86972	27.692823	6.069739	-0.638634	-0.587884	-0.274788	-0.293226
9.067286	0.768902	8.093839	28.587629	87.214234	9.063439	0.286542	0.156733	-0.846298	0.985115	1.452739	9.982836	-4.208101	-2.967787	0.224005	0.02872	-0.39865	-0.842084	9.698091	-2.211138	-2.042368	23.437373	7.669111	-2.953602	-0.573629	-0.241373	-0.310357
10.619713	0.941555	8.465746	39.395143	64.115007	12.796725	0.286914	0.160261	-0.860374	1.329299	1.452045	9.933449	-3.155035	-2.768857	-0.019794	0.016404	-0.441471	-0.881846	10.343157	-1.864908	-2.2085	19.278683	8.108676	-8.441707	-0.573767	-0.258391	-0.293992
10.871436	-2.111015	6.582372	38.59839	42.659741	23.796178	0.285399	0.180746	-0.839054	1.160122	1.508841	10.099789	-3.268557	-2.002181	-0.258887	-0.009913	-0.397804	-0.855606	10.115356	-1.630086	-1.732658	14.494206	6.979901	-13.339191	-0.560206	-0.291398	-0.27672
10.439513	-0.623759	5.045818	39.224305	19.225507	33.562879	0.315155	0.159512	-0.861073	1.324464	1.451855	9.706891	-2.55046	-1.409922	-0.344904	0.055407	-0.425926	-0.883677	10.885732	-1.573024	-1.538384	11.876899	4.227845	-14.325044	-0.574047	-0.273758	-0.308683
11.180812	-1.084554	4.887804	19.032815	-7.692974	38.30404	0.315169	0.142213	-0.843581	1.101024	1.677893	10.042083	-2.818808	-0.73298	-1.232402	0.028864	-0.428219	-0.854426	10.822159	-1.980657	-1.84075	11.002027	1.076281	-17.484973	-0.559997	-0.275206	-0.277557
11.98703	0.179786	5.192967	-7.808734	-43.685799	35.159656	0.315912	0.149269	-0.871733	1.21965	1.114467	10.157305	-2.074103	-0.420344	-0.704618	0.068678	-0.424779	-0.898303	11.002239	-1.864169	-1.657233	12.933251	-1.6618	-21.206994	-0.573976	-0.274584	-0.293155
11.628188	0.706218	7.347762	-12.270252	-79.106842	25.551682	0.315141	0.176811	-0.878565	0.927227	1.621838	9.981769	-1.297028	-0.042364	-0.731062	-0.009323	-0.39566	-0.884306	10.531365	-1.456062	-1.544492	14.502913	-4.013601	-23.951617	-0.573559	-0.242199	-0.29483
9.923834	0.825239	7.997077	-8.960493	-94.082219	10.794535	0.244552	0.161385	-0.859327	0.751789	1.791058	9.865005	-1.294728	0.141424	-0.698405	0.042801	-0.409608	-0.898755	9.885374	-0.930903	-1.314745	12.966031	-5.584108	-26.413653	-0.588093	-0.29098	-0.292388
8.365183	0.019282	7.281397	-16.34725	-106.943989	0.425445	0.244938	0.147614	-0.855911	0.870092	1.396624	9.98037	-0.123822	-0.002843	0.195117	0.055852	-0.394213	-0.900034	10.007518	-1.278888	-1.134306	13.078302	-6.431943	-27.204478	-0.574114	-0.291603	-0.27679
7.29937	0.369543	8.398751	-27.221516	-121.941902	-4.755167	0.228874	0.234143	-0.890133	1.327659	1.677319	9.876999	0.863386	-0.083503	0.380078	0.041921	-0.352614	-0.84537	9.528111	-0.988911	-1.501315	13.134998	-6.422264	-28.121413	-0.546507	-0.307387	-0.275813
6.232236	1.006771	9.460457	-31.806089	-132.978351	-6.945407	0.2865	0.208631	-0.898774	1.334027	1.508565	10.160055	1.355391	-0.26102	0.347881	0.01722	-0.393366	-0.913557	9.41394	-0.755348	-1.262899	13.994635	-6.039491	-29.348586	-0.588301	-0.307173	-0.291551
4.810731	1.239745	9.945263	-29.612848	-139.541144	-7.67171	0.245667	0.17197	-0.901555	1.32809	1.451997	9.87681	1.967307	-0.685107	0.744922	0.02953	-0.410755	-0.884129	9.231484	-1.743966	-1.689752	14.831901	-4.989871	-29.998294	-0.588439	-0.324192	-0.275186
3.560332	0.840496	10.373902	-28.038452	-143.016014	-7.057962	0.17545	0.160072	-0.896393	1.10057	1.283532	9.985111	2.545404	-1.353903	0.985362	0.016629	-0.39551	-0.884857	8.813855	-1.221078	-1.874951	15.120873	-4.38971	-28.779976	-0.587951	-0.292633	-0.261333
3.737289	1.358552	10.66368	-27.73549	-144.758124	-5.18565	0.159786	0.21553	-0.909707	1.102664	1.452618	10.098533	2.506206	-2.027521	0.762835	0.029235	-0.411827	-0.86978	8.529103	-0.92755	-1.280148	13.566042	-3.404534	-26.97624	-0.630234	-0.323978	-0.290925
2.430666	1.074469	11.148541	-28.802893	-145.687229	-2.345488	0.159801	0.198231	-0.892215	0.978856	1.565163	9.699732	2.244941	-3.192319	0.196136	0.04228	-0.456641	-0.881394	9.180171	-1.7421	-1.271504	13.114738	-2.837618	-25.755054	-0.602418	-0.32357	-0.290785
1.745674	1.305215	11.24985	-30.204957	-146.030186	0.198431	0.148695	0.174934	-0.951998	1.149996	1.1141	9.589701	0.635178	-3.516137	-0.301628	0.015819	-0.383405	-0.842812	8.769819	-1.508109	-1.098498	12.200057	-2.146539	-24.868895	-0.533016	-0.339568	-0.274069
0.893373	1.53705	11.575232	-30.863761	-145.107575	2.638059	0.119311	0.199697	-0.944055	1.383777	1.170142	9.764502	0.6335	-3.696708	-0.827502	0.02916	-0.427148	-0.868776	8.70227	-1.626104	-1.579348	10.948734	-1.306252	-23.737768	-0.560903	-0.33915	-0.289737
-0.009088	1.195959	12.238205	-31.018472	-141.935881	4.928728	0.104804	0.213842	-0.947122	1.260854	1.451726	9.422484	0.230237	-3.882175	-1.384575	0.003428	-0.441546	-0.881571	8.833642	-1.681483	-0.858511	9.732174	0.116609	-22.731764	-0.589136	-0.371943	-0.288203
-0.691604	1.082538	12.451773	-30.600087	-136.286653	8.63795	0.07542	0.238605	-0.939179	1.211858	1.395835	9.817705	-0.080149	-4.036806	-1.787126	0.042801	-0.409608	-0.898755	9.410599	-1.6858	-1.56639	8.516449	1.537906	-21.572961	-0.560556	-0.305938	-0.306939
-1.548359	1.313409	12.549742	-29.951948	-128.644902	12.992105	0.060557	0.231923	-0.910678	0.984445	1.171039	9.925959	-0.459533	-4.716559	-1.732534	0.004313	-0.43833	-0.92462	8.887426	-1.799006	-1.15744	6.953052	2.477383	-21.266206	-0.574531	-0.323988	-0.275116
-1.939368	1.660519	13.055073	-27.117668	-119.925433	18.093317	0.033444	0.225958	-0.934716	1.327636	1.057636	9.819838	0.247528	-4.926229	-1.11749	0.016554	-0.41083	-0.883854	8.645029	-1.916102	-1.521777	6.438649	3.543626	-21.02497	-0.546715	-0.323579	-0.274976
-2.572382	1.487927	12.871542	-23.731087	-110.516509	22.253411	0.019681	0.24716	-0.965934	1.158243	1.227093	9.986273	0.335693	-5.177626	-0.010109	0.003578	-0.410905	-0.883578	8.998296	-2.033311	-1.575576	5.609936	3.937043	-20.901615	-0.547062	-0.35679	-0.257774
-3.2101	1.659018	12.462046	-20.34087	-100.241882	25.967511	0.005175	0.261306	-0.969001	1.213175	1.339552	9.874297	1.253515	-5.756772	1.248824	0.02938	-0.441396	-0.882122	8.939705	-1.742549	-1.515534	4.199398	4.538073	-20.349334	-0.588719	-0.339558	-0.289877
-3.219665	1.02499	11.947713	-18.946083	-90.124783	29.163455	-0.009703	0.271923	-0.957992	1.101371	2.128584	10.099102	1.931588	-5.785054	2.204763	0.042732	-0.364719	-0.887416	9.004493	-1.8576	-1.215393	2.41588	4.80191	-19.855208	-0.588719	-0.339558	-0.289877
-3.399306	1.138309	11.546884	-19.328729	-79.673021	31.909965	-0.024195	0.268769	-0.943567	1.676678	1.676815	10.054172	3.105441	-5.713457	2.915469	0.016259	-0.411902	-0.869504	8.820478	-0.754739	-1.453625	1.282118	5.032757	-18.904902	-0.588924	-0.374422	-0.24162
-4.60528	1.540546	11.354631	-19.407763	-69.368401	34.162587	-0.009303	0.240853	-0.937084	1.319975	1.902357	9.537352	3.536629	-5.772119	3.346829	0.055777	-0.409533	-0.899031	9.30137	-1.683552	-1.089335	1.106358	5.200818	-17.468821	-0.575019	-0.355546	-0.28897
-5.180709	0.90838	11.170282	-20.203451	-60.661763	36.023354	-0.009689	0.254624	-0.9405	0.978424	1.790485	9.699922	3.190645	-6.152072	4.514249	0.042286	-0.396432	-0.871059	9.175925	-1.33631	-1.449494	0.590994	5.120099	-15.755276	-0.561525	-0.406398	-0.239805
-5.007583	0.563848	11.229028	-19.472983	-52.399263	36.983329	-0.023438	0.258527	-0.954227	0.75915	1.735012	10.204795	2.972136	-6.16649	6.301979	0.029605	-0.395435	-0.885133	9.061869	-1.625678	-1.273211	1.183907	4.953492	-14.228667	-0.588927	-0.35575	-0.28904
-5.804484	0.278185	11.439645	-18.901527	-44.21501	36.624062	-0.051665	0.241976	-0.936037	1.38708	1.339276	9.934563	1.829263	-6.065373	7.381063	0.055111	-0.426997	-0.869328	10.011474	-2.033382	-1.017707	0.913069	4.815632	-12.821288	-0.616605	-0.33914	-0.305545
-5.761871	0.504774	10.702633	-17.969275	-36.572478	35.365781	-0.051679	0.259276	-0.953528	1.847411	2.070758	10.001491	0.519748	-7.003229	7.586483	0.017069	-0.424007	-0.91155	9.472781	-1.627118	-1.385321	0.829597	4.829182	-11.201374	-0.575161	-0.353894	-0.320026
-6.446987	0.907844	10.804667	-17.969549	-30.180371	32.832729	-0.052051	0.255747	-0.939452	0.987318	1.565495	10.09621	-1.150369	-7.14847	7.799495	-0.022675	-0.472337	-0.879012	9.712397	-2.207924	-1.263578	0.717132	5.118565	-9.643771	-0.575437	-0.387931	-0.287296
-6.284339	1.192998	10.354389	-17.51684	-23.891836	28.76353	-0.065428	0.263179	-0.967255	1.170008	1.396559	10.552811	-1.433721	-7.609174	7.363087	0.003208	-0.427298	-0.868225	9.475387	-1.800851	-1.266249	0.514686	5.620173	-7.934031	-0.57509	-0.35472	-0.304498
-6.867645	0.674026	9.772551	-16.209982	-17.587631	23.649472	-0.05165	0.224677	-0.918545	1.443652	1.22646	9.879038	-2.767177	-8.167558	5.75338	0.016849	-0.409758	-0.898203	9.354209	-1.394543	-1.386533	-0.425235	6.331679	-6.069791	-0.56097	-0.356995	-0.257844
-7.038792	1.36369	9.82896	-14.432529	-8.401705	16.679522	-0.080277	0.239197	-0.921262	1.395758	1.226947	10.330946	-3.204964	-8.60137	5.594572	-0.022374	-0.411055	-0.883026	9.534268	-1.74291	-1.264902	-3.333189	7.553928	-3.9869	-0.519455	-0.372575	-0.256796
-7.228496	1.532279	8.916694	-12.746605	1.502105	8.678564	-0.066571	0.287192	-0.960011	1.451144	1.733766	10.275942	-7.157079	-8.438488	5.839639	-0.009699	-0.472262	-0.879288	9.709676	-1.511258	-1.320518	-6.65043	8.294115	-2.755937	-0.561742	-0.385248	-0.333809
-7.283565	1.590244	9.029528	-10.47702	7.455595	-0.400696	-0.036787	0.231359	-0.947046	1.917604	1.789472	10.568859	-6.861338	-9.362415	7.033001	-0.009323	-0.39566	-0.884306	9.811202	-1.515237	-2.216921	-9.565188	8.815304	-0.914122	-0.574882	-0.338527	-0.305335
-6.66573	2.736206	8.478071	-6.163119	8.838995	-12.198227	-0.03793	0.255373	-0.939802	3.623931	2.461446	9.699461	-12.757174	-16.134659	8.96478	0.003729	-0.380264	-0.885585	9.809966	-1.457408	-2.27658	-12.175427	8.72389	1.11292	-0.575504	-0.405776	-0.255403
-6.618414	2.619111	7.967024	1.799794	7.787218	-27.297983	-0.022681	0.248284	-0.964887	-0.077975	1.23065	11.375667	-18.535948	-16.271513	9.297885	-0.02282	-0.442768	-0.866669	9.63705	-1.339862	-2.03976	-15.155132	8.692327	3.141047	-0.519179	-0.338537	-0.289526
-11.188381	4.845136	17.264535	200.873805	74.757799	-60.219443	-0.094412	0.256871	-0.938405	0.325245	2.356601	11.498357	-26.486551	-28.940529	13.234927	-0.009103	-0.409908	-0.897652	9.224342	-1.513145	-2.048204	-17.769734	7.677825	5.692167	-0.575157	-0.372565	-0.272605
-8.511529	4.687891	7.82526	42.931218	97.949157	-91.695091	-0.00856	0.247909	-0.965236	1.349826	0.833168	10.839161	-21.540526	-32.966205	19.426361	0.003578	-0.410905	-0.883578	8.922503	-1.920733	-2.474786	-21.478234	8.833496	8.02299	-0.589695	-0.402675	-0.317584
12.255684	1.804487	-4.399299	56.177977	147.09752	-120.945937	-0.034915	0.231701	-0.999934	2.482768	-0.068698	12.6172	-51.458445	-55.39746	24.081174	-0.022964	-0.413199	-0.854327	9.748189	-1.690319	-2.45839	-20.085207	9.04844	14.344	-0.547204	-0.355138	-0.288829
-6.568641	-7.711198	10.084006	41.015244	164.958605	-217.804671	-0.008932	0.244381	-0.95116	-0.898954	7.158547	24.667983	-55.986077	-61.457642	-0.861558	0.003063	-0.397729	-0.855882	10.223525	-0.702871	-2.145849	-22.241151	9.595417	13.951837	-0.561041	-0.356168	-0.273372
0.633642	2.704465	15.894212	8.222284	177.587509	-131.391036	0.018552	0.253875	-0.941198	0.575542	-2.03952	9.348397	46.287192	-97.590388	4.780627	-0.009618	-0.396732	-0.869956	11.82571	1.212959	-1.389096	-14.038958	7.904835	-0.190631	-0.575299	-0.370912	-0.303661
-11.486814	10.620317	11.031727	12.625921	129.228321	-126.052433	0.061685	0.225209	-0.935414	0.682899	5.910256	17.793176	-14.916649	-105.500798	11.805004	-0.035495	-0.381561	-0.870408	15.246952	3.354683	-1.136402	-3.412371	2.950598	-17.350045	-0.616814	-0.355332	-0.304708
-10.114406	5.530752	16.60635	-24.756316	83.802882	-20.771418	0.074663	0.248848	-0.928519	0.962827	0.949584	14.284601	10.959766	-127.632329	16.50771	-0.034904	-0.379418	-0.899108	15.973057	0.858513	-0.474852	-24.376026	-2.154475	-4.139415	-0.561182	-0.354516	-0.304428
1.295858	1.352331	8.740761	92.659888	59.73817	24.899333	0.045307	0.239012	-0.885593	0.816557	2.302978	15.641462	0.651326	-146.105365	19.861231	-0.10045	-0.397257	-0.868026	14.114036	-0.931837	0.860128	-24.745894	-2.304509	7.293301	-0.602977	-0.354302	-0.320166
2.973596	1.986846	9.685356	-5.131129	74.9875	3.196374	0.10289	0.265398	-0.946709	0.009863	2.079117	15.567708	7.084057	-169.492167	23.025304	-0.087398	-0.381862	-0.869305	11.89038	-1.503511	1.774349	4.978563	4.566134	-2.077329	-0.561809	-0.403093	-0.301916
-0.425872	1.767287	11.436881	27.672491	89.59238	-16.748923	0.088026	0.258716	-0.918208	0.825342	2.134318	16.037797	4.806772	-193.011315	24.300497	-0.126326	-0.382087	-0.868478	9.551895	-1.274099	-0.244506	5.476317	15.188747	0.254063	-0.603324	-0.387513	-0.302964
-5.22662	-3.098211	14.505496	69.942519	55.028629	-10.746424	0.102147	0.258342	-0.918558	0.619773	1.234362	17.108355	8.709114	-218.790074	25.804896	-0.153164	-0.385452	-0.824877	9.897459	-1.393039	-0.717653	-2.31882	19.069095	6.896111	-0.589136	-0.371943	-0.288203
-0.351117	1.298987	9.390466	44.304363	58.882312	7.453635	0.160529	0.222587	-0.937859	0.867821	0.783951	17.905766	19.070108	-249.56109	23.164623	-0.16614	-0.385527	-0.824602	10.6427	-0.470028	-1.777716	-0.376215	18.516897	7.716956	-0.561112	-0.355342	-0.2889
2.282457	3.020567	9.505779	23.993113	60.903148	5.214285	0.103304	0.217029	-0.90831	0.789448	-0.73543	19.487977	28.360852	-282.145457	17.761752	-0.218194	-0.416468	-0.821492	11.569757	-0.650372	-2.719361	0.205327	17.778558	2.400218	-0.574882	-0.338527	-0.305335
-1.129053	2.511147	10.630712	-1.037118	1.224654	-13.532886	0.161287	0.212344	-0.948519	0.753572	-2.593518	20.334797	42.993686	-317.360981	10.73409	-0.218709	-0.403292	-0.793796	12.862785	0.217056	-2.871164	-5.893445	14.505574	-8.595002	-0.547066	-0.338119	-0.305194
-0.351081	2.792708	9.453593	5.283878	5.905965	-3.660752	0.119296	0.216996	-0.961547	1.465591	0.450464	24.315428	50.086051	-352.638267	6.751932	-0.271053	-0.375095	-0.766001	12.988001	0.915676	-2.386741	-8.24798	6.370008	-21.351967	-0.588723	-0.320887	-0.337298
-0.522472	2.275858	9.448081	-3.261693	6.575908	4.225711	0.133446	0.182023	-0.926913	0.215218	-0.846966	19.532432	100.146761	-386.471972	5.500852	-0.309767	-0.449778	-0.788855	11.820478	1.095571	-1.689125	-8.698473	-1.085193	-25.256639	-0.603186	-0.370494	-0.319329
-0.626047	1.014399	9.952223	0.710106	1.993158	0.705042	0.132288	0.223336	-0.93716	1.551783	5.854883	20.755312	85.930017	-389.768363	7.244758	-0.363436	-0.3963	-0.691318	10.313029	1.337567	-0.219075	-10.627992	-4.752639	-23.245951	-0.588998	-0.354924	-0.304568
-0.518882	1.931933	9.617192	-1.457991	-1.550672	0.62302	0.147538	0.216247	-0.962246	2.532325	5.623055	15.453969	83.852073	-379.265842	23.255063	-0.33793	-0.427863	-0.675513	8.664283	1.167861	-0.070909	-8.7841	-8.36705	-19.14065	-0.589557	-0.385657	-0.333949
-0.347036	1.816925	9.62005	-5.483687	-0.250034	3.538495	0.090269	0.262587	-0.985172	4.468282	4.097518	14.361	67.00881	-350.976021	25.156176	-0.417042	-0.447921	-0.615456	8.070375	0.412987	-0.384662	-12.508238	-9.320883	-10.993866	-0.561179	-0.373187	-0.257007
-0.058579	1.874642	9.739565	-6.248879	-0.225313	3.75577	0.160172	0.201759	-0.906291	3.448859	5.45215	15.246611	58.257581	-303.741079	19.914465	-0.483033	-0.497473	-0.568017	7.366894	1.229155	-0.034964	-12.567216	-11.220043	-7.775728	-0.561391	-0.370708	-0.30359
-0.231248	1.587318	9.678165	-4.286872	-0.123612	3.721108	0.118153	0.24101	-0.954303	-1.301153	5.013879	19.109455	92.372044	-229.273108	16.735108	-0.496524	-0.484371	-0.540045	7.200579	1.348184	0.561298	-10.625454	-13.046932	-10.860662	-0.603186	-0.370494	-0.319329
-0.279678	1.704172	10.132359	-3.214378	0.727148	2.321148	0.147938	0.185177	-0.941338	3.634831	0.893965	20.851299	152.636056	-179.511081	30.96618	-0.497849	-0.45909	-0.470304	7.425795	1.751951	0.028268	-6.78576	-15.896471	-14.955971	-0.547554	-0.369678	-0.319048
-1.609321	-7.165137	17.854878	0.590269	-29.165491	-2.929133	0.146809	0.191891	-0.916602	-19.246906	-0.033877	5.480385	208.491722	-158.885185	55.140723	-0.537223	-0.491028	-0.45312	8.359589	1.515015	-0.554183	-1.360167	-18.858855	-16.458873	-0.575441	-0.36926	-0.334716
-0.150149	3.13116	8.038167	-2.20834	1.154329	0.301128	0.103676	0.220557	-0.922386	-13.133024	-11.779022	-13.763615	210.370802	-6.502033	-27.413778	-0.512157	-0.494093	-0.410622	8.423142	1.457792	-0.313702	2.178868	-17.929566	-13.420201	-0.575366	-0.388757	-0.271768
-0.576386	2.276623	9.617526	0.892107	2.062086	0.122949	0.132302	0.206037	-0.919669	-10.799429	4.68419	8.096373	20.910548	131.62191	-45.735994	-0.525138	-0.554378	-0.420681	8.717757	0.236779	-0.493112	4.401468	-14.256442	-7.028101	-0.631348	-0.404114	-0.302267
-0.178448	1.586311	9.451866	-0.140626	2.593701	1.606614	0.160143	0.236358	-0.941275	-18.397896	-5.498166	7.021979	70.369966	152.495854	-68.69938	-0.499702	-0.541051	-0.393537	9.597362	0.291594	-0.775893	7.232876	-7.395902	-1.050405	-0.630789	-0.373381	-0.272886
-0.004913	2.218526	9.571567	-0.19726	3.112027	1.952545	0.120068	0.189454	-0.954716	-14.333805	-4.830705	6.088868	93.863995	159.008356	-72.776868	-0.511937	-0.508342	-0.423968	9.777577	0.350006	-0.592624	9.457067	-0.09287	0.404263	-0.575787	-0.402471	-0.317514
-0.580466	1.758685	9.387942	-1.51247	3.254664	2.387994	0.118939	0.196168	-0.92998	-12.95947	-3.821916	3.174685	74.688562	185.032229	-80.08503	-0.511572	-0.552159	-0.449657	10.127157	0.871139	-0.763517	8.649896	4.823737	-2.061292	-0.561253	-0.35369	-0.319955
-0.278398	1.474647	10.188246	-2.492926	3.12403	2.6647	0.161644	0.233172	-0.980087	-11.81533	-4.50037	2.801817	34.12142	216.472835	-91.517381	-0.460039	-0.568252	-0.435406	9.656088	-0.057245	-0.836183	5.828847	5.494503	-5.782831	-0.589695	-0.402675	-0.317584
-0.23232	1.529635	9.62107	-3.041871	3.395256	2.916028	0.118911	0.230767	-0.964963	-11.144374	-3.373381	4.68517	-1.10404	234.164944	-97.965554	-0.459153	-0.565036	-0.478455	9.410835	0.580401	-1.257213	4.065086	5.251655	-6.56988	-0.575783	-0.421142	-0.270094
-0.290688	1.529435	9.563104	-3.961354	3.234525	3.161401	0.160915	0.208816	-0.934443	-9.382201	-2.192203	6.478261	-22.118422	231.280015	-95.514586	-0.459002	-0.534395	-0.480463	9.70551	0.753954	-1.250969	3.417032	4.070502	-4.9727	-0.547137	-0.337293	-0.320722
-0.458536	2.277264	9.790313	-3.684742	3.108367	3.55723	0.146037	0.219433	-0.923434	-8.537879	-0.783836	8.422118	-35.610842	208.538974	-85.796155	-0.419785	-0.593308	-0.505975	9.711127	0.232259	-1.013567	1.868297	2.401747	-3.858903	-0.603461	-0.404532	-0.286599
-0.513108	1.645931	9.900251	-3.557005	3.626159	4.025286	0.145651	0.233204	-0.926849	-6.920819	0.903393	8.853867	-57.739769	182.389556	-73.220966	-0.393173	-0.635903	-0.546565	9.944566	-0.059403	-1.190122	-2.927632	0.957242	-4.843181	-0.561045	-0.337497	-0.320792
-0.227949	1.645483	9.848965	-3.615626	4.025034	4.062604	0.117796	0.220182	-0.922735	-7.332131	0.847485	8.44888	-79.20472	190.843244	-68.037346	-0.367071	-0.605112	-0.549123	9.176931	-0.348275	-1.265571	-6.627541	-0.363434	-8.55195	-0.547208	-0.336467	-0.33625
-0.171601	1.357993	9.792019	-1.624789	4.382462	3.173332	0.174678	0.187614	-0.903224	-5.799788	1.803772	10.236946	-89.022223	218.102884	-68.945194	-0.314652	-0.617989	-0.577922	8.883646	-0.172878	-1.150517	-9.523687	-1.716219	-11.835528	-0.617373	-0.386065	-0.33409
-0.568011	1.474131	10.01212	-0.493477	4.332899	2.58659	0.160929	0.191516	-0.916951	-5.542407	4.057795	11.716308	-96.250238	235.739228	-64.059351	-0.353284	-0.617142	-0.591445	8.825865	-0.230572	-1.091958	-15.411154	-3.57516	-14.525145	-0.575437	-0.387931	-0.287296
-0.505313	1.64762	10.298223	0.115938	4.220832	1.877661	0.1594	0.229301	-0.913123	-4.821162	4.564709	13.203871	-105.985708	241.398849	-54.05453	-0.274248	-0.612404	-0.650498	8.400242	-0.058118	-1.757895	-19.993542	-4.517126	-16.704307	-0.61681	-0.374004	-0.257288
-0.283308	2.105539	9.963489	1.5258	4.79066	0.993502	0.173892	0.232455	-0.927548	-2.89631	5.294492	14.490453	-108.540588	247.517042	-48.817078	-0.260236	-0.578473	-0.69583	8.818432	-0.348454	-1.511801	-21.125972	-4.881889	-20.273793	-0.575925	-0.41949	-0.301149
-0.234796	1.873802	9.508812	2.501877	4.527001	0.250379	0.146023	0.236732	-0.940925	-2.597795	6.026724	15.06351	-106.883207	261.333935	-47.044426	-0.259721	-0.59165	-0.723526	8.651713	-0.055197	-0.914797	-23.739517	-5.497942	-23.714387	-0.617161	-0.388544	-0.287506
0.000654	2.219732	9.855832	4.155335	4.75819	-0.486654	0.160544	0.205287	-0.920367	-1.099947	7.319666	15.265951	-102.41711	277.21246	-46.32785	-0.207742	-0.576029	-0.725633	8.950095	-0.05513	-0.729574	-26.614046	-5.99105	-24.343321	-0.60395	-0.436091	-0.300453
-0.559269	1.705827	10.46791	3.511368	4.505859	-0.182221	0.132674	0.209565	-0.933745	-1.63316	7.885756	17.293362	-96.300923	294.37396	-42.237185	-0.207076	-0.558565	-0.755336	8.308735	-0.574846	-0.384463	-27.761259	-6.479522	-24.825746	-0.603465	-0.385861	-0.33402
-1.036234	1.702057	9.492499	4.33572	5.301297	-2.226432	0.132674	0.209565	-0.933745	-0.573368	7.546734	18.39099	-83.908846	297.230287	-38.438044	-0.154732	-0.586762	-0.783131	8.192384	0.123078	-0.203976	-26.653573	-6.347188	-25.410966	-0.576134	-0.435682	-0.300312
-0.976628	1.530174	9.606595	5.962376	5.677655	-2.224998	0.146809	0.191891	-0.916602	-0.227521	7.940449	18.455216	-76.738496	302.675438	-33.445898	-0.128039	-0.553827	-0.814389	8.552253	0.007352	0.101666	-23.681247	-5.52232	-24.295064	-0.617649	-0.420102	-0.30136
-0.269822	1.93611	10.645002	6.051753	5.716812	-2.929992	0.160915	0.208816	-0.934443	0.949042	7.375936	19.611712	-70.96912	307.249791	-29.080029	-0.075696	-0.582024	-0.842184	8.326497	-0.164111	0.635685	-24.181108	-4.732043	-21.02739	-0.562226	-0.435478	-0.300242
-0.284297	1.932973	9.905911	5.102472	5.929232	-3.077149	0.160529	0.222587	-0.937859	1.829986	7.093331	20.422562	-66.162293	306.552315	-25.414767	-0.023126	-0.56426	-0.87299	8.455959	0.128719	1.298098	-21.093191	-4.074896	-15.480078	-0.617928	-0.435468	-0.316051
-0.179768	1.873278	9.396219	6.938638	6.039398	-3.908696	0.130016	0.254064	-0.90518	3.972618	6.132151	20.976242	-61.490664	300.128136	-21.498365	-0.010445	-0.565256	-0.858916	8.628046	-0.105226	1.000876	-18.141026	-3.953343	-11.426924	-0.561946	-0.420112	-0.285551
-0.341717	2.162781	9.905763	7.549224	5.579554	-3.764584	0.118182	0.206411	-0.919319	6.275127	6.184171	21.024646	-55.643812	286.383029	-19.195253	0.055395	-0.546345	-0.904348	8.51347	0.302565	1.240033	-13.623947	-3.563456	-9.122556	-0.562297	-0.434652	-0.31577
-0.40602	1.127186	9.502335	11.153954	4.690841	-5.230837	0.160172	0.201759	-0.906291	22.156115	-10.908184	27.570666	-131.58654	155.186831	46.921903	0.095504	-0.541833	-0.962574	8.519512	0.071497	1.538579	-8.202349	-2.972622	-5.233187	-0.57648	-0.468894	-0.28311
-0.453792	1.876139	10.016036	11.02425	3.615367	-5.309281	0.175007	0.24304	-0.969776	19.337601	-11.365325	14.093509	-10.083558	83.252791	-33.110433	0.134438	-0.481398	-0.953066	8.630672	0.185896	1.181833	-5.041438	-2.743394	-2.647966	-0.603528	-0.422377	-0.254706
-0.110431	2.105656	10.023682	14.905584	2.443702	-6.106222	0.188385	0.235609	-0.941973	26.459424	13.804669	18.454733	-134.804284	136.40437	-48.310493	0.173585	-0.495421	-0.967239	8.559551	0.183311	0.521756	-5.854817	-2.565363	0.563206	-0.576063	-0.436509	-0.284784
-0.978938	1.644574	9.493371	15.534511	3.652183	-4.002909	0.190299	0.184053	-0.942386	22.519922	-2.643463	10.318274	-23.319026	134.156552	-74.166451	0.199167	-0.511663	-0.952437	8.854632	0.182636	0.527259	-5.828801	-1.869683	4.288535	-0.603808	-0.437743	-0.269397
-0.33788	1.474206	10.073427	2.325871	4.654846	-5.666043	0.133417	0.216622	-0.961896	22.304507	3.498038	11.564679	-40.888403	136.431158	-109.542103	0.198727	-0.483166	-0.925745	8.080279	0.415212	0.1545	-2.854297	-0.800079	5.403527	-0.575504	-0.405776	-0.255403
-0.383087	0.212946	10.635535	5.964565	4.821221	-8.004671	0.162058	0.184802	-0.941687	21.195311	4.626175	10.919622	-41.927979	125.18894	-135.389942	0.23832	-0.465477	-0.956275	8.968958	0.355852	0.350481	-1.65085	-0.33187	4.907907	-0.533922	-0.403511	-0.286248
-0.27918	1.014874	10.129463	12.590753	2.637039	-10.543487	0.175822	0.1636	-0.910469	19.777368	4.683669	9.191468	-26.256388	91.610111	-138.546766	0.251001	-0.466474	-0.942201	9.023842	0.238576	0.111459	-2.340209	-0.965338	3.813126	-0.5899	-0.437539	-0.269327
0.685547	3.035521	12.714114	-7.797454	9.955658	-16.469252	0.175036	0.208441	-0.934792	17.81601	8.743273	9.323698	-34.886134	61.175572	-117.528817	0.277468	-0.4795	-0.970449	9.557438	-0.343152	0.178797	-0.667258	-2.747605	2.226265	-0.5899	-0.437539	-0.269327
1.951768	4.025149	16.039078	-6.859415	52.729639	-18.260986	0.147552	0.198948	-0.944754	16.554407	8.745834	9.523661	-16.100977	33.677706	-75.930706	0.302685	-0.451925	-0.929958	9.680007	-0.400509	0.420379	2.422443	-5.856765	2.260477	-0.575854	-0.420316	-0.285622
-0.647676	2.573323	11.833777	-19.913356	73.145346	-19.210359	0.146037	0.219433	-0.923434	16.782542	4.801887	9.07206	2.149044	-8.268314	-25.687695	0.316031	-0.435458	-0.945587	9.567437	-1.328714	0.593943	6.527535	-8.271708	6.505525	-0.59025	-0.452079	-0.299545
0.393376	3.494054	12.426211	-32.807647	82.25921	-23.411134	0.160158	0.219059	-0.923783	18.607767	3.894055	5.5429	-13.049754	-55.745562	39.369489	0.355029	-0.480122	-0.957753	10.27536	-1.214182	0.607643	9.454728	-9.837314	13.990914	-0.575783	-0.421142	-0.270094
0.80785	3.037127	13.114312	-40.848221	97.626199	-27.064207	0.188785	0.204538	-0.921065	23.073145	1.011606	4.218787	-46.79568	-107.536909	92.62965	0.316622	-0.433314	-0.974287	11.044461	-2.029002	0.618487	12.312626	-9.89498	23.517886	-0.589691	-0.421346	-0.270164
-0.07638	2.12548	14.684522	-47.06071	115.947159	-30.459852	0.201391	0.224649	-0.900094	29.811283	0.945144	7.190953	-73.895666	-164.450567	137.061601	0.303055	-0.435533	-0.945312	11.147667	-1.335326	-0.095228	16.59219	-8.152966	31.044747	-0.60395	-0.436091	-0.300453
-0.067472	2.12741	15.139347	-48.695636	138.206411	-29.93977	0.188785	0.204538	-0.921065	39.099775	8.653553	17.130469	-62.658235	-247.156787	196.784726	0.277254	-0.405042	-0.946767	11.483793	-0.236153	-0.922624	18.309812	-4.241748	34.963505	-0.589412	-0.40598	-0.255473
0.376818	2.021646	17.363929	-47.649803	164.034051	-31.669847	0.217011	0.221089	-0.939256	15.011324	1.442228	28.224101	93.971883	-240.677242	134.774285	0.239212	-0.402051	-0.988989	13.044182	2.135137	-2.380448	27.267236	0.919189	35.88471	-0.575508	-0.387105	-0.302824
1.343245	1.68719	19.938686	-49.886737	199.337753	-33.727078	0.258244	0.226679	-0.915567	3.902099	14.459829	10.338643	130.938206	-181.816536	106.865863	0.174627	-0.401355	-1.00196	15.021113	1.136084	-4.084536	7.391938	9.494985	42.764008	-0.547759	-0.404542	-0.27079
1.531001	0.496516	23.631296	-37.758227	253.901796	-31.003123	0.271979	0.240076	-0.919332	9.600143	7.742922	7.112154	10.574386	-174.444538	22.054032	0.160685	-0.480176	-0.967967	16.646439	0.487039	-5.614023	-41.07456	24.149307	49.595974	-0.603253	-0.388339	-0.287436
1.481132	-0.478501	23.967199	-1.298039	307.333301	-19.687222	0.312855	0.224839	-0.864076	3.018019	0.438018	13.478101	48.412045	-163.16972	-42.325417	0.134438	-0.481398	-0.953066	16.371052	1.015096	-4.479069	-39.919865	37.604154	32.804165	-0.589065	-0.372769	-0.272675
3.358921	1.081227	26.397176	7.085802	361.425298	-16.837341	0.369337	0.22334	-0.865473	-0.793179	-2.82275	12.545968	48.167355	-121.354612	-12.594291	0.095585	-0.466302	-0.953242	12.54821	1.214553	-0.597101	-18.054664	26.397442	-0.172644	-0.617161	-0.388544	-0.287506
4.750062	0.624319	27.274766	41.551986	421.209095	-13.816396	0.355616	0.192645	-0.844216	-0.587002	-0.345397	11.646657	72.875815	-99.890642	32.957106	0.108856	-0.465155	-0.967868	10.782958	1.335992	-0.330086	-10.585647	11.677346	0.023362	-0.616952	-0.372351	-0.288343
3.28791	4.078161	28.738474	50.006981	470.108239	-15.099469	0.481572	0.195988	-0.822623	4.265135	1.446548	9.995104	96.6271	-98.892118	39.028889	0.0425	-0.47089	-0.89474	10.568767	1.399553	0.863898	-12.563376	2.615661	17.832073	-0.603532	-0.403706	-0.302127
1.475035	2.072894	29.604046	63.792818	479.896829	-23.199711	0.507541	0.225967	-0.791341	10.129821	2.169998	12.553323	53.818565	-64.133129	2.344666	0.055991	-0.483992	-0.922712	11.048795	2.736694	1.477457	0.32947	3.463258	23.130704	-0.588998	-0.354924	-0.304568
1.080702	5.209466	24.210707	83.122049	475.757829	-39.886608	0.604899	0.209232	-0.737481	0.231147	1.620558	7.023212	-9.319782	-19.131547	-4.441705	0.030259	-0.49839	-0.935507	9.740535	2.737439	0.914085	21.432904	4.284489	13.085407	-0.57509	-0.35472	-0.304498
-0.004185	3.302579	21.340046	39.002863	443.238827	-58.081781	0.562566	0.175757	-0.70145	2.624404	1.00012	11.262377	17.305471	-13.659048	2.909548	0.042645	-0.500459	-0.907083	9.488059	1.746484	-0.112937	21.250495	10.799319	4.191128	-0.57509	-0.35472	-0.304498
5.925203	7.454166	26.189803	49.010216	384.35497	-59.591055	0.618705	0.136131	-0.653788	2.644541	2.237909	9.622081	-11.60358	-11.821867	-5.943082	0.067856	-0.533094	-0.876928	9.827674	0.870825	-1.008646	17.511491	21.678997	3.908238	-0.602906	-0.355128	-0.304638
5.088284	4.25475	30.081337	88.720714	327.791596	-59.920749	0.673716	0.103221	-0.581389	1.902297	0.94385	9.775193	-11.367679	-5.697339	-8.933932	0.029594	-0.515854	-0.905803	9.63414	1.332377	-1.848666	16.231315	29.695477	6.289187	-0.603044	-0.372147	-0.288273
12.422564	5.31735	24.715926	218.268498	302.776425	-66.837267	0.727554	0.128922	-0.536729	1.910651	1.000513	10.171718	-6.520351	-5.709811	-6.988017	0.017284	-0.498465	-0.935231	9.149906	1.330737	-2.516446	6.248069	34.897547	5.689233	-0.60256	-0.321917	-0.32184
45.59411	0.182959	-14.669103	419.048891	225.837776	-60.998835	0.700471	0.088358	-0.525783	1.791462	1.225908	9.999571	-4.576801	-3.420267	-6.347134	0.029449	-0.486285	-0.893461	9.563154	1.271716	-2.50899	-5.514713	34.353218	-1.936966	-0.588581	-0.322539	-0.306242
27.10691	-17.272097	-30.048673	34.035612	-35.892971	-27.57933	0.755438	0.107345	-0.50586	1.333033	1.395857	10.103321	-5.097451	-3.059548	-6.251483	0.042715	-0.545348	-0.918422	9.877117	2.146879	-1.361548	-15.628092	28.065944	-9.816315	-0.603465	-0.385861	-0.33402
18.706962	6.893568	18.366141	36.122355	-146.567269	-20.181935	0.755838	0.076275	-0.484952	1.284577	1.058313	10.498305	-2.229001	-3.24822	-4.648008	0.029744	-0.485214	-0.907811	10.894367	0.869383	-0.749211	-20.398692	19.514659	-12.844807	-0.575512	-0.368434	-0.350244
15.752196	1.450456	7.544776	86.09853	-86.035542	39.59775	0.743218	0.073463	-0.523415	1.208471	1.902715	9.704853	-1.088595	-3.333564	-3.445653	0.043015	-0.484067	-0.922436	11.660186	0.518677	-0.856202	-18.451918	10.343047	-15.650119	-0.561533	-0.369056	-0.334646
18.391822	-6.400777	-1.188857	101.30827	-124.184393	58.341501	0.743975	0.063221	-0.534075	2.482355	1.168284	10.01403	1.694374	-3.02753	-2.638846	0.056431	-0.512489	-0.949404	12.00631	0.632289	-1.268453	-4.742181	0.683544	-20.420796	-0.616468	-0.322121	-0.32191
17.215415	-5.302727	0.156819	43.8211	-191.863183	76.813132	0.730598	0.070652	-0.561878	1.893642	1.675862	9.435972	1.415356	-3.064742	-2.177021	0.068522	-0.515629	-0.906631	10.865776	1.327811	-2.244905	-2.888224	-7.023966	-19.810129	-0.603048	-0.353476	-0.335694
16.389117	-3.156944	4.809885	25.102838	-237.087906	80.271196	0.745476	0.060035	-0.572887	2.756153	2.18122	9.454532	-0.477647	-3.848649	-3.20366	0.082019	-0.468521	-0.924267	10.04063	0.865093	-2.262289	-7.632772	-11.553091	-18.243424	-0.589349	-0.369464	-0.334786
14.373212	-3.502797	4.144081	27.813382	-260.076019	81.821484	0.690094	0.089417	-0.63121	2.649677	1.449424	9.791336	0.87507	-4.295413	-2.590456	0.029449	-0.486285	-0.893461	8.861002	1.042269	-2.22365	-8.107083	-11.684136	-14.604577	-0.60291	-0.336457	-0.352059
11.98832	-3.152064	5.122118	6.780185	-272.409724	75.520518	0.705729	0.068557	-0.65288	-0.166947	1.849208	9.958989	0.17607	-5.721912	-1.495396	0.029594	-0.515854	-0.905803	8.913686	0.924498	-2.582485	-7.458209	-9.942518	-11.25367	-0.617444	-0.385239	-0.349618
9.71006	-2.68822	5.704893	-18.565234	-284.136659	78.989635	0.678617	0.062592	-0.676917	1.721724	1.901555	9.489174	-2.206182	-6.056137	-1.901399	0.041904	-0.533244	-0.876376	8.577621	1.219891	-1.569434	-5.573508	-8.046028	-7.663399	-0.603324	-0.387513	-0.302964
8.148709	-1.931152	7.83727	-36.425139	-289.019906	81.689908	0.665211	0.104622	-0.739704	1.089282	2.12811	9.532706	-1.872073	-6.48256	-1.689575	0.068597	-0.500309	-0.907634	8.584318	0.233588	-1.33401	-2.214426	-5.57469	-5.914808	-0.604095	-0.415767	-0.378929
6.579357	-0.888565	9.572881	-48.314959	-284.164041	82.783786	0.609486	0.095877	-0.748967	1.608364	2.239849	9.60032	-3.024991	-7.26412	-1.636618	0.042865	-0.514708	-0.920429	8.05775	1.107427	-0.980764	3.435804	-2.992212	-8.209119	-0.617094	-0.370699	-0.319399
5.074065	-0.016897	11.650001	-64.815538	-276.002653	83.546068	0.595708	0.134379	-0.797677	1.207046	2.015328	9.648308	-3.558891	-7.946047	-1.551344	0.016988	-0.499537	-0.920881	7.769698	1.400213	-0.565682	7.147657	0.01031	-10.376132	-0.575441	-0.36926	-0.334716
4.473626	0.966579	13.176888	-77.104218	-280.502096	84.550584	0.567439	0.169727	-0.831962	-0.284065	1.624007	9.843103	-3.70126	-9.448664	-1.813023	0.004823	-0.511717	-0.962651	7.0099	1.054995	-0.222029	9.368169	2.939351	-8.900685	-0.644842	-0.353262	-0.351432
4.034106	1.545427	14.136896	-75.381576	-294.031535	84.356764	0.500223	0.151456	-0.904425	0.993793	1.34041	10.379218	-3.013821	-8.798256	-1.466895	0.016768	-0.485289	-0.907535	6.892523	0.30003	-0.287351	11.564209	5.328434	-5.497193	-0.617653	-0.401431	-0.348781
3.135063	2.641339	15.033315	-81.051162	-303.545874	77.107184	0.471596	0.165977	-0.907142	1.851338	1.282225	10.114106	-3.692761	-8.774402	-1.744656	0.055476	-0.470815	-0.895016	6.655648	0.649026	-0.290269	15.754911	6.376875	-1.91106	-0.603048	-0.353476	-0.335694
2.366574	3.10869	16.725249	-91.237461	-308.005215	67.285288	0.443712	0.187553	-0.938011	1.333249	1.283196	10.103226	-2.413723	-7.662994	-0.406971	0.04316	-0.513636	-0.934779	6.708602	0.415104	-0.649599	18.676681	7.181409	1.161361	-0.603048	-0.353476	-0.335694
1.306867	2.713418	18.123731	-98.520791	-311.164253	60.663899	0.389102	0.189394	-0.989502	1.907479	1.394731	10.05877	-1.075323	-6.821169	0.064898	0.003862	-0.530253	-0.918598	7.404421	0.526916	-1.294875	18.634426	7.765262	3.848315	-0.631139	-0.387921	-0.303104
0.187591	3.98375	19.471244	-98.010003	-311.413337	58.420429	0.373452	0.227553	-0.985325	1.786196	1.45104	9.773202	-1.161965	-6.39	-0.393306	0.029669	-0.500534	-0.906807	7.342913	0.177853	-1.47718	16.090694	8.751059	5.258766	-0.56132	-0.371535	-0.288063
-0.424061	3.528534	20.366715	-97.36399	-307.023613	59.654769	0.303578	0.253782	-1.029222	1.674715	2.071081	9.997864	-0.716655	-5.286977	0.604519	0.03004	-0.484142	-0.92216	7.806239	0.174795	-1.947632	14.697559	8.787693	4.193896	-0.575161	-0.353894	-0.320026
-2.46959	3.475962	21.122331	-93.909118	-295.675453	69.822837	0.259659	0.327289	-1.05933	1.791593	1.789261	10.056684	0.176903	-5.373847	1.560047	0.055691	-0.545273	-0.918697	8.093036	-0.525018	-2.484258	10.912456	8.042174	1.032556	-0.575232	-0.353067	-0.335553
-4.627567	3.653722	21.990392	-92.247426	-279.797869	92.207171	0.218055	0.31817	-1.068942	1.625288	2.240513	10.393275	-1.818101	-6.722806	2.346563	0.017579	-0.497393	-0.949581	7.806084	-0.231985	-2.009269	7.225727	6.882289	-0.476705	-0.616885	-0.354506	-0.320236
-6.211803	3.716425	22.925958	-84.382753	-261.844947	121.223941	0.176064	0.322822	-1.081971	1.623948	1.677113	10.279521	-1.898948	-8.140077	3.226425	0.003347	-0.517076	-0.890902	7.684075	0.057924	-2.189954	2.408963	6.163611	-0.66977	-0.617377	-0.367394	-0.38151
-7.48468	3.599559	22.218741	-71.696602	-244.269893	152.850733	0.105062	0.355765	-1.101132	1.562517	1.170056	10.051327	-1.407408	-8.377325	2.947007	0.017058	-0.544427	-0.93222	8.097884	0.231454	-2.121603	-1.65863	5.896053	0.140872	-0.58914	-0.353272	-0.335624
-8.306326	3.653238	21.180038	-65.505435	-228.721991	181.424532	0.119925	0.362448	-1.129633	1.904175	1.225598	9.888709	0.061906	-9.5176	1.981176	0.003711	-0.560894	-0.916591	7.918209	-0.059263	-2.305861	-4.16546	6.963949	2.498221	-0.617023	-0.371525	-0.303871
-9.543229	3.704071	19.39445	-67.12084	-216.890027	203.462071	0.02031	0.392612	-1.134021	2.195868	1.732223	10.121739	0.082248	-8.065806	0.392563	0.003862	-0.530253	-0.918598	7.867591	0.117078	-1.826965	-7.770599	8.9683	5.619227	-0.616956	-0.35368	-0.335764
-9.736148	3.699611	18.310901	-71.970946	-207.133267	217.264252	-0.037687	0.414595	-1.111303	1.868369	1.226559	10.907013	-6.433228	-12.833922	-0.554103	0.004012	-0.499612	-0.920605	8.051492	-0.462851	-1.526601	-11.246133	11.271784	9.441412	-0.617027	-0.352854	-0.351292
-9.691722	4.501098	17.690009	-78.326469	-199.077288	217.688815	-0.038073	0.428366	-1.114719	1.023845	2.693623	11.909625	-32.489991	-25.421809	7.469279	0.004458	-0.467899	-0.936962	8.053848	-0.055577	-1.34515	-13.892801	14.206211	11.698838	-0.575094	-0.336049	-0.351918
-10.226563	5.358992	16.717105	-86.042687	-188.995436	204.397696	-0.05105	0.404727	-1.121614	0.375019	3.996993	19.370219	-19.266362	-36.008706	-3.415212	-0.008443	-0.452654	-0.93769	7.87898	-0.519533	-1.290522	-14.211346	16.432552	12.239551	-0.589278	-0.37029	-0.319259
-11.216514	6.792358	15.908265	-92.943624	-177.657765	178.349193	-0.110576	0.464496	-1.095069	1.683561	0.606725	10.279829	11.253382	-69.312796	3.461232	-0.008888	-0.484367	-0.921333	8.581827	-0.11561	-1.515214	-13.853539	17.391927	14.25104	-0.547692	-0.386697	-0.302683
-12.156636	9.258182	14.763764	-100.62689	-165.282285	139.109382	-0.083092	0.473989	-1.085107	1.951498	3.030166	12.26909	-18.30731	-69.172782	4.394518	0.029449	-0.486285	-0.893461	9.123667	-0.927912	-1.029516	-13.355119	18.474134	19.226486	-0.603398	-0.368016	-0.365912
-13.312783	10.692878	14.235849	-95.387614	-153.456152	88.473534	-0.112077	0.467682	-1.056257	0.912472	3.257333	12.13424	-12.468648	-80.791066	9.863703	-0.009334	-0.51608	-0.904976	9.772439	-0.755169	-1.016669	-11.735015	18.634139	22.06267	-0.602981	-0.335631	-0.367587
-16.089258	10.64374	15.659227	-69.325638	-140.293925	28.830858	-0.14299	0.53023	-1.044486	1.933689	2.860463	11.419354	-24.777982	-90.851076	18.478413	-0.047891	-0.499912	-0.919502	9.655332	-1.626287	-1.082486	-12.318526	18.410316	22.799493	-0.61668	-0.319642	-0.368494
-20.275589	9.209038	15.173938	-31.689473	-116.983718	-26.161968	-0.14259	0.499159	-1.023578	1.723331	3.199683	12.377676	-35.603202	-101.027957	24.28781	-0.034545	-0.483445	-0.935132	10.373429	-1.625682	-0.530118	-15.212794	17.398855	24.954615	-0.602839	-0.337283	-0.336531
-23.195834	7.130429	12.096362	-15.119942	-83.132402	-67.839862	-0.156739	0.534132	-1.058212	2.242151	2.184717	12.331063	-37.792302	-114.86012	28.618899	-0.074208	-0.456245	-0.893262	10.677003	-2.437938	-0.168636	-15.510472	16.570183	28.077724	-0.58942	-0.368638	-0.350314
-24.210602	5.915693	9.911948	-27.077776	-49.500015	-91.467264	-0.18458	0.503811	-1.036606	1.91476	1.622722	13.11629	-37.524692	-130.231474	28.897989	-0.074434	-0.502206	-0.890251	10.319355	-1.856862	-0.29258	-13.053929	16.259791	32.319572	-0.58942	-0.368638	-0.350314
-21.244193	28.186664	33.704973	-196.796505	48.455664	-109.117159	-0.200201	0.507372	-0.997445	2.609148	1.001888	13.243554	-31.35831	-146.002653	26.464844	-0.099274	-0.453179	-0.93576	10.664068	-2.557057	-0.888013	-13.796605	16.85564	36.568829	-0.631009	-0.33356	-0.41431
-20.640556	4.333794	16.794372	116.341199	134.09948	-114.978091	-0.199458	0.514428	-1.025597	1.700621	0.778764	13.790418	-25.11272	-162.78949	24.391654	-0.099494	-0.438931	-0.922414	10.36333	-2.964397	-1.254687	-17.58218	18.074762	41.621176	-0.588518	-0.286023	-0.385555
-22.187171	4.182511	7.954936	97.543425	157.56591	-165.769807	-0.155567	0.47552	-1.030473	2.357048	1.285502	14.936935	-16.550572	-179.69462	21.17849	-0.152504	-0.428198	-0.864916	10.404179	-3.201039	-2.272993	-21.700217	19.342195	47.805955	-0.589002	-0.336253	-0.351988
-23.104417	9.258676	-0.679732	259.999594	248.374276	-291.161473	-0.196428	0.473458	-1.068237	2.029287	-0.346867	15.607981	-1.245438	-200.664658	18.670317	-0.151543	-0.409662	-0.908969	10.576805	-3.667289	-2.571204	-30.429442	20.536872	56.484784	-0.631076	-0.351405	-0.382418
15.351528	10.638072	-6.688725	-16.863792	350.889928	-326.66698	-0.155939	0.471992	-1.016397	2.49577	0.328521	15.958059	2.9277	-222.401806	17.532919	-0.139898	-0.444515	-0.849838	11.033319	-2.161112	-3.214948	-31.10266	19.652058	53.066906	-0.630171	-0.287462	-0.370238
7.849319	8.724233	28.051156	-179.170502	356.374511	-310.83868	-0.096813	0.443294	-1.06385	1.269786	0.670488	17.857494	11.976177	-249.219885	18.229603	-0.243636	-0.490005	-0.858971	12.926939	1.322096	-2.446017	-13.435256	14.313751	16.251045	-0.616822	-0.31799	-0.399549
-29.17151	13.027434	19.904412	10.940161	236.493616	-219.869398	-0.042217	0.458752	-1.029851	0.847407	0.95452	19.660527	20.128378	-280.448419	24.061168	-0.269363	-0.444194	-0.861431	17.252387	6.197053	-0.787339	-5.311418	-0.201822	-38.534022	-0.616334	-0.286431	-0.385696
-21.471132	6.868357	18.32332	17.095741	203.792669	-68.788946	-0.055966	0.462655	-1.043578	0.976356	-0.338486	22.889103	36.283262	-321.622001	24.497872	-0.309691	-0.434458	-0.789858	18.673136	5.265091	-0.64507	-37.44457	-21.558285	-42.898717	-0.615774	-0.255699	-0.356314
-2.420627	6.699018	9.145651	90.476566	175.772669	45.924639	0.012765	0.46044	-0.992436	1.631827	-1.859837	23.807354	55.773771	-370.358707	21.039459	-0.309396	-0.433386	-0.804208	17.099907	1.786894	-0.03064	-56.910516	-37.454558	-5.809037	-0.602914	-0.317786	-0.399479
2.12218	4.988944	13.091274	-57.181527	158.426783	47.109993	0.000902	0.447386	-1.041559	1.487871	-0.841995	27.938063	54.617157	-418.277956	14.736426	-0.388137	-0.437052	-0.759504	14.10346	-0.455968	3.556816	-13.924608	-43.621619	5.067303	-0.644842	-0.353262	-0.351432
-0.955921	-3.106385	13.395092	31.745916	147.22292	-1.194149	0.013494	0.484796	-1.038079	3.620996	2.534228	28.438754	84.103562	-450.302877	14.50419	-0.441668	-0.473352	-0.684646	10.002599	-0.395004	1.923553	5.818586	-32.192446	18.542994	-0.631009	-0.33356	-0.41431
0.303764	-1.051506	10.586735	117.798973	139.89533	-34.962153	0.098617	0.451478	-1.019267	5.748648	-1.192674	22.648893	80.897465	-463.280588	27.53706	-0.468285	-0.490967	-0.654391	6.486262	-0.278549	0.002008	-0.323463	-22.717758	31.786967	-0.630379	-0.303654	-0.369401
-5.134844	0.26625	22.250398	158.565426	90.814107	-8.641076	0.113895	0.409791	-1.009369	2.546734	4.896001	21.454733	49.505872	-453.200818	18.886999	-0.495933	-0.482228	-0.568745	6.28493	1.169059	-1.133344	-10.011945	-20.069266	26.673656	-0.644079	-0.287666	-0.370308
-2.720424	21.448631	6.133147	29.284717	-0.185282	-23.151204	0.08754	0.393583	-1.044067	3.66859	1.963283	19.833896	13.22385	-418.636194	17.165889	-0.536488	-0.518453	-0.494162	7.51213	3.545857	-1.459539	-12.584914	-14.96728	5.598082	-0.615983	-0.271891	-0.355477
0.661796	1.996266	11.459002	-30.951135	12.468031	7.253182	0.085668	0.39324	-0.991179	-0.355573	4.67984	25.63965	29.524786	-345.674603	-3.368819	-0.523581	-0.473488	-0.483098	11.569095	6.264136	-1.851244	-1.460072	-15.21282	-23.045891	-0.657707	-0.272504	-0.355688
-0.921352	1.185	9.492554	-8.056936	12.36328	6.878924	0.130288	0.378688	-1.041698	2.892962	1.637436	31.989366	111.067464	-283.959776	-8.979543	-0.62894	-0.494769	-0.40814	14.063247	1.49722	-1.585671	-10.952594	-24.10199	-9.584301	-0.657774	-0.290349	-0.323795
-0.537605	1.640624	8.649483	14.499417	6.355624	1.104261	0.08754	0.393583	-1.044067	-23.0825	1.286441	25.385796	181.328746	-270.150014	-16.215275	-0.603654	-0.512083	-0.378989	13.823013	0.638621	1.280649	-1.119246	-30.733444	5.173348	-0.5881	-0.253638	-0.38723
-0.280874	1.818814	10.075988	-17.527409	3.981763	4.899287	0.086797	0.386526	-1.015915	-11.547759	-18.212342	-23.643476	419.670318	-187.606972	-51.794154	-0.630717	-0.56141	-0.332377	12.54298	1.284879	2.337483	24.537197	-30.344876	-11.76112	-0.644146	-0.305511	-0.338416
-0.463606	1.58676	9.503152	-13.86489	2.134743	3.938714	0.087526	0.410882	-1.061558	-8.880676	1.019624	8.69958	82.718439	265.034526	-133.620469	-0.618922	-0.565622	-0.275254	10.922924	2.793309	1.056155	32.048118	-23.24253	-18.759139	-0.615983	-0.271891	-0.355477
-0.913682	1.359014	9.89125	-11.099178	2.314627	5.467031	0.059685	0.380561	-1.039952	-10.196263	-4.155632	13.989117	221.116581	188.80037	-124.220588	-0.58029	-0.566469	-0.261731	9.288867	1.80002	-1.314129	26.26381	-16.46915	7.451241	-0.630096	-0.306959	-0.30729
-0.509892	1.81898	10.071534	-12.332142	1.546523	4.936758	0.101275	0.406979	-1.047832	-7.529873	-5.795942	12.062174	150.50714	168.454992	-171.293927	-0.592976	-0.625682	-0.286141	9.467805	0.986551	-1.314289	19.194056	-13.788639	35.678453	-0.629958	-0.28994	-0.323655
-0.45012	1.41733	10.184665	-7.304888	3.070486	2.708348	0.087154	0.407354	-1.047482	-9.596428	-7.266002	1.374011	146.814712	163.77622	-179.694934	-0.57993	-0.670496	-0.297755	10.468974	-0.004026	-1.539412	29.39564	-7.464056	36.864746	-0.602489	-0.322743	-0.306312
-0.908156	1.417662	10.175757	-3.868693	4.015408	2.100465	0.11581	0.358235	-1.009781	-10.33114	-6.421411	-0.62217	58.427173	212.030617	-166.219266	-0.514755	-0.669049	-0.313483	11.535261	0.168761	-1.279235	32.243119	-0.467099	11.907429	-0.615495	-0.240333	-0.341624
-0.340687	2.277905	9.963099	-0.58928	4.875762	0.755631	0.102047	0.379437	-1.041	-9.938958	-4.727813	4.426221	5.486395	256.476714	-154.509137	-0.50178	-0.668974	-0.313759	11.419855	0.460152	-1.100479	27.126237	4.068105	-5.455847	-0.657565	-0.274156	-0.324632
0.063518	2.163456	10.14097	-0.574084	2.823507	0.139544	0.086383	0.434896	-1.054314	-9.904933	-2.923767	6.183567	-26.772037	282.18171	-131.195496	-0.475463	-0.712642	-0.339999	10.010475	0.290648	-0.76819	25.462256	7.133762	-9.651312	-0.643031	-0.225375	-0.327073
-1.725016	1.012774	9.362535	-2.860339	4.498483	0.572029	0.101289	0.38968	-1.03034	-9.370782	-2.473429	6.987781	-42.173048	291.08783	-99.835904	-0.422008	-0.691662	-0.413855	9.964799	0.235674	-0.050655	21.416716	9.49049	-14.140225	-0.657845	-0.289522	-0.339323
0.333502	1.585214	9.291328	-1.875154	4.928433	1.00553	0.115024	0.403076	-1.034105	-7.347184	-2.026177	7.483589	-54.951112	284.959115	-71.889292	-0.422673	-0.709126	-0.384151	8.897972	0.295192	-0.309843	14.964729	8.950187	-20.317693	-0.643657	-0.273952	-0.324562
-0.173828	1.35751	9.678313	-4.750604	5.587593	1.331197	0.072662	0.4042	-1.033057	-5.138671	-1.015423	8.606533	-69.795283	264.346339	-47.292852	-0.356763	-0.735104	-0.440922	8.776368	0.410872	-0.49127	9.565314	6.72928	-23.3433	-0.643449	-0.257759	-0.325399
-0.977783	1.587374	9.549983	-5.936791	6.244191	2.571985	0.100903	0.403451	-1.033756	-4.311727	-0.002081	9.700464	-87.439711	239.295999	-28.845263	-0.316805	-0.761232	-0.497141	8.360224	0.294924	-0.679188	5.678681	3.144227	-24.076048	-0.615774	-0.255699	-0.356314
-0.917845	0.955958	9.662148	-2.267334	4.814562	2.752861	0.085654	0.41054	-1.00867	-4.19474	-0.340232	9.759237	-102.935175	231.581977	-21.659472	-0.315989	-0.713127	-0.528851	8.069005	0.528892	-0.444074	2.498024	0.344191	-26.526263	-0.643866	-0.290144	-0.323725
-1.467208	-0.302516	10.782767	-3.153065	4.8328	3.491723	0.099389	0.423936	-1.012435	-4.469008	0.787533	10.490456	-109.676575	245.392358	-25.627321	-0.32919	-0.759164	-0.525564	7.36025	0.297961	-0.518175	0.112407	-2.316059	-30.385534	-0.643728	-0.273126	-0.34009
-2.664771	0.79095	11.048234	0.858445	3.515495	4.746789	0.143637	0.405855	-1.048879	-4.113251	1.688649	11.064864	-111.907874	265.616626	-37.511567	-0.301982	-0.739406	-0.584518	7.354613	0.354801	-0.817462	-4.51194	-4.35524	-32.956247	-0.616747	-0.337487	-0.336601
0.419666	1.648887	10.770863	1.835643	3.999819	3.095818	0.086397	0.417596	-1.036822	-3.116914	2.532534	11.99236	-116.881315	281.383429	-52.185527	-0.262684	-0.722788	-0.600699	6.888817	0.473516	-0.46633	-7.832557	-5.692196	-34.954447	-0.657916	-0.288696	-0.354851
0.5838	1.417308	10.375267	8.320588	3.377008	1.042971	0.129516	0.40623	-1.04853	-2.682395	3.096365	13.530566	-122.668499	289.031045	-67.433745	-0.274034	-0.686863	-0.674179	6.938334	0.296928	-1.005133	-9.685688	-5.785886	-35.405604	-0.671682	-0.290553	-0.323865
-1.190554	2.223015	10.40098	7.924472	4.745755	-0.559042	0.115781	0.392834	-1.044765	-1.562681	4.053026	14.857052	-124.983147	292.827525	-81.51496	-0.170151	-0.670942	-0.677389	6.470762	0.705777	-0.712672	-9.053387	-5.099362	-33.547348	-0.630379	-0.303654	-0.369401
-0.900651	1.821441	10.575418	8.502523	4.698136	-1.542859	0.129516	0.40623	-1.04853	-1.718754	4.842688	15.703684	-127.080221	297.061901	-91.923385	-0.156289	-0.667651	-0.720714	7.071388	0.939203	-0.10161	-6.831552	-3.818732	-29.436555	-0.616188	-0.306755	-0.30722
-0.637679	1.701285	9.386587	8.347307	4.922274	-2.397482	0.115796	0.375534	-1.027273	-1.067701	5.630889	16.623879	-127.616932	302.908091	-97.721818	-0.130192	-0.69707	-0.733608	6.89625	0.591399	-0.046487	-4.179729	-2.409141	-25.816704	-0.630234	-0.323978	-0.290925
-0.526351	3.021874	9.280658	9.235752	5.490711	-3.372192	0.100532	0.399923	-1.01968	-0.810198	5.293518	17.874502	-127.1194	310.29866	-99.003977	-0.064277	-0.662839	-0.780043	6.970247	0.304098	0.732167	-2.44313	-1.117872	-25.85971	-0.658258	-0.340578	-0.290228
-0.400826	1.645366	9.788772	8.099431	5.148068	-3.435827	0.117296	0.372348	-1.066085	-0.715721	4.95685	19.574614	-126.081245	314.510291	-95.170074	-0.012153	-0.676787	-0.794492	7.437819	-0.104751	0.439705	1.068443	-0.788305	-26.943472	-0.630305	-0.323151	-0.306453
-0.915127	1.818305	9.836327	9.50846	5.407106	-4.018376	0.11541	0.389305	-1.030689	0.641677	4.561338	21.131356	-126.311616	309.284439	-87.362581	0.053983	-0.656804	-0.854273	7.685178	0.245885	1.104566	5.009244	-1.135509	-27.506096	-0.630375	-0.322325	-0.321981
0.184298	1.188073	10.42336	8.379482	6.670827	-4.791974	0.115395	0.406605	-1.048181	2.803459	4.333261	22.648526	-128.473309	290.807507	-78.917916	0.041007	-0.656879	-0.853997	7.794137	0.359789	0.628006	7.507594	-2.090552	-25.982769	-0.6584	-0.338926	-0.321284
-0.116698	1.529793	9.68015	10.213956	6.942296	-6.295622	0.129545	0.371631	-1.013546	5.016461	4.893514	23.94101	-130.197526	260.722294	-69.01632	0.119013	-0.625788	-0.857659	7.976262	0.069993	0.869699	11.446106	-3.892452	-24.888392	-0.629816	-0.291593	-0.292599
-0.286483	1.875049	9.791964	9.961781	6.648442	-7.587778	0.115796	0.375534	-1.027273	6.448151	5.622879	23.688651	-132.221234	224.277661	-57.297734	0.197755	-0.622122	-0.902363	8.081379	0.415459	0.214407	13.753654	-6.358326	-22.257069	-0.672032	-0.305093	-0.354084
-0.569782	0.841791	9.895759	10.038281	4.846858	-8.598702	0.129902	0.392459	-1.045114	10.120272	6.23519	23.256787	-135.761731	191.804789	-52.969317	0.223707	-0.621972	-0.902914	8.089758	0.12681	0.632519	15.54779	-8.442905	-18.219971	-0.616259	-0.305929	-0.322747
-0.514221	1.64569	9.843398	15.185713	4.247927	-7.887188	0.157786	0.370882	-1.014245	14.108515	-0.799257	39.639225	-180.921339	142.941785	-55.218121	0.237134	-0.529974	-0.909212	8.626135	0.242983	0.942452	16.263375	-10.191093	-14.547155	-0.630793	-0.35471	-0.320306
-0.385113	1.476419	10.583991	10.789609	3.297042	-9.852839	0.114638	0.416847	-1.037521	16.997701	-6.796996	15.407135	-5.656364	154.683684	-82.331914	0.289402	-0.573492	-0.936003	7.84597	-0.339236	0.146885	17.268812	-11.18556	-9.717584	-0.658258	-0.340578	-0.290228
-0.398765	1.875615	9.903443	9.035403	3.779756	-12.477562	0.116553	0.365291	-1.037933	24.169113	8.398962	15.797611	-103.278982	209.260082	-102.518256	0.288962	-0.544995	-0.909311	8.141206	0.066868	0.214024	14.834729	-11.163503	-3.810559	-0.658191	-0.322733	-0.322121
-0.250318	2.687192	11.671494	-18.041838	13.778445	-24.382933	0.101661	0.393208	-1.044416	24.402504	10.311668	13.426405	-97.498131	217.645123	-118.642133	0.354583	-0.511835	-0.941396	8.959688	-0.866464	-0.313687	16.986853	-11.078262	0.521112	-0.658262	-0.321907	-0.337649
0.384892	4.723569	17.886948	-21.672725	48.2115	-13.415133	0.08754	0.393583	-1.044067	21.784697	7.94702	9.179891	-85.269297	200.097363	-118.283012	0.419017	-0.543172	-0.926418	9.478999	-0.986551	-0.963253	15.125476	-11.463724	4.625203	-0.616605	-0.33914	-0.305545
-1.299863	1.190116	10.621822	-34.91126	71.593124	-26.645758	0.115024	0.403076	-1.034105	24.122717	8.394775	10.927815	-79.011871	157.93458	-89.324518	0.431924	-0.498208	-0.915355	10.063638	-1.453993	-1.313668	9.314857	-12.045011	8.561276	-0.671749	-0.308398	-0.291973
0.118239	3.496674	12.989175	-47.89773	77.856336	-26.077125	0.144022	0.392084	-1.045463	25.459568	11.54518	9.147017	-49.556285	101.998278	-47.412912	0.458692	-0.449953	-0.947617	10.460919	-1.749026	-2.205805	6.895304	-11.774375	11.136231	-0.644212	-0.323356	-0.306523
-0.4543	1.945925	12.914671	-44.18758	94.720844	-29.617037	0.170734	0.42912	-1.042333	23.309084	10.144725	13.403294	18.123746	61.07462	10.682344	0.432224	-0.436926	-0.919369	10.349915	-1.456646	-1.787421	7.961644	-11.090736	13.421547	-0.672028	-0.323764	-0.306663
-0.388594	2.579671	13.373264	-59.303336	113.979683	-29.935164	0.17152	0.384279	-1.01801	24.423785	9.298478	14.331785	19.662337	4.546993	60.467201	0.496514	-0.438695	-0.892049	9.822476	-1.628917	-1.618346	11.457782	-10.448793	14.659038	-0.65868	-0.354292	-0.335975
-0.071102	2.528777	14.970477	-62.171684	133.719391	-27.152029	0.184098	0.438988	-1.032022	24.877594	7.656546	5.791128	20.933688	-68.023715	111.670066	0.45721	-0.515522	-0.886203	9.834716	-1.684273	-0.959618	15.216854	-9.308979	18.124607	-0.657912	-0.307367	-0.30743
-0.278549	1.959112	16.043818	-62.59478	159.188898	-27.656757	0.213139	0.376098	-0.990906	25.622893	9.396671	0.42997	-46.187921	-136.822858	152.314396	0.418872	-0.513603	-0.914076	10.146283	-2.146095	-0.117397	18.366423	-7.564028	22.017547	-0.67182	-0.307571	-0.3075
0.330373	0.93247	17.869908	-56.792038	187.749128	-24.847095	0.212353	0.42094	-1.015229	30.81413	14.182928	9.544872	-55.1076	-218.71287	205.061039	0.393586	-0.496289	-0.943227	10.513876	-1.795235	0.669479	27.800454	-5.03962	23.68316	-0.6584	-0.338926	-0.321284
0.556164	0.139744	20.598819	-49.088433	222.44871	-24.028727	0.254343	0.416288	-1.002201	3.755061	14.8039	16.959716	26.27838	-305.261929	251.918054	0.381125	-0.509541	-0.970647	12.096564	0.929703	0.471183	48.733216	-2.34137	24.328116	-0.672237	-0.339956	-0.305826
