1818_acc_x	1818_acc_y	1818_acc_z	1818_gyro_x	1818_gyro_y	1818_gyro_z	1818_mag_x	1818_mag_y	1818_mag_z	1819_acc_x	1819_acc_y	1819_acc_z	1819_gyro_x	1819_gyro_y	1819_gyro_z	1819_mag_x	1819_mag_y	1819_mag_z	1820_acc_x	1820_acc_y	1820_acc_z	1820_gyro_x	1820_gyro_y	1820_gyro_z	1820_mag_x	1820_mag_y	1820_mag_z
-3.962184	2.474619	8.557776	-0.314239	0.776502	-0.29295	0.576375	-0.174113	-0.222145	0.30273	1.696329	9.553179	-0.271475	0.311233	0.097735	0.300394	-0.833934	-0.822388	9.490817	2.281548	-0.067613	0.742366	1.716537	-0.643987	-1.273687	0.029667	0.71971
-3.855905	2.473302	8.087186	-0.37028	0.71869	-0.047871	0.588383	-0.168109	-0.222145	0.648632	1.695498	9.560304	-0.514732	0.498916	0.255086	0.269315	-0.718722	-0.809365	9.377179	2.740845	-0.00988	0.773081	1.839459	-0.548617	-1.337325	-0.085867	0.006432
-4.245946	1.900615	8.728084	-0.222275	0.589525	-0.204744	0.594387	-0.156102	-0.216141	0.466537	2.03848	9.141495	-0.30189	0.342186	0.160005	0.314091	-0.797504	-0.788092	9.556904	2.340486	0.400584	0.926726	1.715877	-0.586042	-1.302483	-0.068512	0.005148
-4.07479	2.245128	8.673183	-0.11906	0.769843	0.068338	0.600391	-0.150098	-0.222145	0.186876	1.925524	9.551267	-0.425682	0.313461	0.190162	0.342197	-0.778408	-0.806491	9.547671	2.396186	-0.066054	0.862318	1.716555	-0.73886	-1.372167	-0.103222	0.007716
-4.303887	2.073199	8.727378	-0.030249	0.643535	0.004439	0.600391	-0.162106	-0.228148	0.185827	1.868179	9.491731	-0.301509	0.402652	0.37728	0.285536	-0.813562	-0.84113	8.974344	2.855575	-0.192533	0.58986	1.809185	-0.576643	-1.371658	-0.140255	0.029768
-4.254632	2.359591	8.315464	-0.091359	0.829221	-0.084524	0.582379	-0.168109	-0.222145	0.643386	1.40877	9.262624	-0.241284	0.280018	0.097231	0.299033	-0.759465	-0.771882	9.603471	2.453252	-0.123059	0.644266	1.840816	-0.854254	-1.37145	-0.124635	0.046226
-4.304805	1.958073	8.667995	-0.003386	0.702822	-0.178909	0.594387	-0.156102	-0.24616	0.363943	1.696538	9.732627	-0.424382	0.40501	0.315338	0.328612	-0.815597	-0.822928	9.212245	2.455335	0.27743	0.924223	1.747023	-0.677578	-1.302999	-0.082202	-0.029633
-4.361828	2.245782	8.726671	-0.164957	0.525451	-0.328531	0.606395	-0.150098	-0.228148	0.59112	1.638407	9.559001	-0.2394	0.402257	0.222955	0.285336	-0.795894	-0.806179	9.148175	2.568904	-0.073432	0.775825	1.654488	-0.553952	-1.319546	-0.087896	0.025045
-4.076428	2.532457	8.614773	0.022561	0.609478	-0.302102	0.582379	-0.168109	-0.216141	0.194278	1.81176	9.907557	-0.455627	0.374974	0.283863	0.328413	-0.79793	-0.787978	9.262757	2.970479	-0.011334	0.895095	1.654612	-0.679634	-1.336809	-0.072178	0.041213
-4.021342	2.07199	8.437471	0.111131	0.66618	-0.486966	0.588383	-0.162106	-0.216141	0.420049	1.352789	9.614279	-0.48759	0.28408	0.12776	0.328725	-0.816357	-0.805069	9.611024	2.741527	0.286471	0.776507	1.654382	-0.523144	-1.338049	-0.115177	-0.044808
-4.24442	2.303347	8.847266	-0.156896	0.556833	-0.053992	0.594387	-0.156102	-0.222145	0.530541	1.867232	9.439436	-0.45612	0.314377	0.09747	0.299545	-0.79556	-0.823924	9.549151	2.912876	0.052529	0.594658	1.531622	-0.553838	-1.319854	-0.085965	0.006722
-4.132525	2.302725	8.672199	-0.219363	0.711866	-0.173605	0.588383	-0.150098	-0.216141	0.071714	1.868571	9.548776	-0.210734	0.279232	0.15904	0.314066	-0.813653	-0.858761	9.317344	2.338765	-0.187546	0.472435	1.501199	-0.583088	-1.284812	-0.103712	0.009167
-4.546369	2.474676	8.132811	-0.219682	0.742337	-0.203928	0.582379	-0.162106	-0.234152	0.532639	1.981923	9.558508	-0.148961	0.278445	0.097363	0.300707	-0.852361	-0.83948	9.887937	2.165778	-0.17674	0.567342	1.500445	-0.430882	-1.354796	-0.08577	0.006142
-4.192713	2.47503	8.553283	-0.098461	0.706424	-0.268095	0.600391	-0.168109	-0.222145	0.07387	1.46808	9.607385	-0.364605	0.281853	0.158819	0.327537	-0.775704	-0.860183	9.72332	3.142686	0.231857	0.59351	1.654831	-0.519473	-1.28512	-0.101781	-0.009156
-3.90618	2.129277	8.439857	-0.345691	0.594692	-0.201713	0.594387	-0.150098	-0.222145	0.303502	1.868133	9.612947	-0.240813	0.310578	0.128662	0.3283	-0.79717	-0.805837	9.429998	2.510469	-0.242992	0.534573	1.470115	-0.554393	-1.354488	-0.0877	0.024465
-4.476887	2.131001	8.724147	-0.124727	0.83024	-0.175225	0.600391	-0.174113	-0.222145	-0.042974	1.124747	9.485475	-0.207259	0.43334	0.00737	0.327988	-0.778743	-0.788746	9.142102	2.797319	-0.364379	0.537076	1.438969	-0.462857	-1.319553	-0.138617	0.012316
-4.362746	2.130656	8.667289	-0.188629	0.802079	-0.234845	0.582379	-0.168109	-0.228148	-0.045408	1.639698	9.427097	-0.241956	0.279233	0.282526	0.328924	-0.834025	-0.84002	9.266544	2.741648	0.162901	0.38595	1.346857	-0.462465	-1.337218	-0.052697	0.021026
-3.834049	2.188473	9.209478	-0.160767	0.525907	-0.1761	0.588383	-0.156102	-0.222145	0.6536	2.096684	9.858216	-0.085754	0.399375	0.284941	0.32745	-0.758796	-0.807373	9.382984	2.684521	0.281691	0.476534	1.40829	-0.462522	-1.355721	-0.079977	-0.048827
-4.532685	2.361356	8.841788	-0.1915	0.435693	-0.11486	0.600391	-0.150098	-0.222145	0.414825	2.039198	9.437409	-0.238391	0.403435	-0.054988	0.299432	-0.7948	-0.841784	9.26874	2.799428	0.279821	0.265773	1.316116	-0.39929	-1.337024	-0.13852	0.012025
-4.130279	2.303003	8.790408	-0.184199	0.619524	0.038551	0.588383	-0.150098	-0.228148	0.365546	1.524964	9.791699	-0.29994	0.404483	-0.055076	0.3285	-0.814838	-0.840788	9.379734	2.56917	0.106208	0.539362	1.284826	-0.467303	-1.320162	-0.084035	-0.011601
-4.075193	1.842535	8.613106	0.028505	0.762655	-0.179341	0.594387	-0.168109	-0.234152	0.073178	1.754228	9.607965	-0.274479	0.187685	0.280837	0.313329	-0.776039	-0.842438	9.434391	2.626028	-0.009153	0.634045	1.25335	-0.346794	-1.319238	-0.089827	0.043368
-4.247678	1.612871	8.609181	-0.280432	0.653507	-0.111443	0.582379	-0.174113	-0.234152	0.186876	1.925524	9.551267	-0.206877	0.493806	0.224645	0.299657	-0.79632	-0.806065	9.83485	2.568246	0.056996	0.387306	1.438919	-0.336564	-1.319345	-0.122997	0.028774
-4.252994	2.072263	8.373874	-0.100656	0.67568	-0.32923	0.576375	-0.132086	-0.210137	0.417754	1.810511	9.555786	-0.239311	0.372351	0.037111	0.327763	-0.777223	-0.824464	9.143603	2.568072	-0.306855	0.53799	1.377312	-0.464635	-1.319854	-0.085965	0.006722
-4.021342	2.07199	8.437471	-0.129954	0.768659	-0.327983	0.588383	-0.156102	-0.234152	0.184777	1.810833	9.432195	-0.179601	0.309137	0.221398	0.299969	-0.814747	-0.823156	9.555493	2.512369	0.342852	0.418936	1.500184	-0.242972	-1.371758	-0.122704	0.027903
-3.906489	2.301757	8.440273	-0.282108	0.653325	-0.172416	0.588383	-0.144094	-0.222145	0.245911	1.353089	9.551296	-0.241956	0.279233	0.282526	0.343471	-0.835969	-0.804187	9.151425	2.684255	0.102052	0.628799	1.469467	-0.432995	-1.35418	-0.089631	0.042788
-4.131093	2.130383	8.730886	-0.104726	0.583719	-0.421179	0.600391	-0.162106	-0.210137	0.30469	1.868249	9.672367	-0.333113	0.342187	0.283491	0.285024	-0.777467	-0.789087	8.9291	2.628289	0.38905	0.416209	1.500607	-0.366205	-1.371959	-0.087602	0.024174
-3.898421	2.187743	8.853727	-0.221118	0.559144	-0.143935	0.582379	-0.144094	-0.234152	0.367921	1.525196	9.91054	-0.365165	0.281199	0.313232	0.284799	-0.775948	-0.824806	9.320236	2.683571	-0.011231	0.441013	1.655204	-0.516413	-1.371966	-0.138324	0.011445
-4.076728	2.07237	8.554557	0.020167	0.517699	-0.333078	0.582379	-0.150098	-0.204133	0.468279	1.809677	9.200452	0.038845	0.459053	0.193567	0.342821	-0.815263	-0.840674	9.326558	3.029001	0.340152	0.50952	1.561617	-0.243029	-1.337633	-0.083937	-0.011891
-4.305216	2.188047	8.668551	-0.038828	0.58159	-0.270263	0.600391	-0.162106	-0.222145	0.533272	2.210957	9.618392	-0.425234	0.313984	0.066632	0.314403	-0.815932	-0.805183	9.379734	2.56917	0.106208	0.382292	1.593485	-0.455351	-1.337533	-0.101487	-0.010027
-4.542185	2.647712	8.369646	-0.250017	0.774191	-0.203007	0.588383	-0.156102	-0.222145	0.475542	1.753143	9.556857	-0.335467	0.189387	0.126335	0.314316	-0.799024	-0.752373	9.556367	2.684669	0.401832	0.441246	1.593653	-0.549	-1.372267	-0.085672	0.005851
-4.367238	2.130101	8.430871	-0.219284	0.864405	-0.264247	0.588383	-0.150098	-0.234152	0.132926	1.86878	9.728224	-0.301644	0.372484	0.253201	0.328612	-0.815597	-0.822928	9.602059	2.625136	-0.180791	0.47266	1.531922	-0.551391	-1.37135	-0.142185	0.048091
-4.247687	2.245437	8.669813	-0.152627	0.709828	0.007797	0.588383	-0.180117	-0.228148	0.132847	1.410827	9.667877	-0.303079	0.250768	0.003947	0.285448	-0.796654	-0.788319	9.556367	2.684669	0.401832	0.5373	1.469691	-0.431159	-1.337942	-0.082006	-0.030214
-4.134978	2.417434	8.554267	-0.227502	0.527944	-0.357502	0.582379	-0.156102	-0.222145	0.246129	1.753813	9.611527	-0.213872	0.125517	0.218063	0.342734	-0.798355	-0.787864	9.485529	2.739626	-0.299373	0.416225	1.31606	-0.494775	-1.371658	-0.140255	0.029768
-4.301032	2.361083	8.905386	-0.225308	0.558689	-0.296366	0.588383	-0.162106	-0.222145	0.659181	1.75377	10.095202	-0.365053	0.281329	0.28235	0.286186	-0.834268	-0.804643	9.778265	2.281517	0.054813	0.594658	1.531622	-0.553838	-1.320772	-0.029452	-0.035517
-4.07714	2.302344	8.555113	-0.343616	0.716942	-0.20106	0.576375	-0.156102	-0.216141	0.823265	1.981462	9.683286	-0.457062	0.253257	0.034608	0.27059	-0.776282	-0.807061	9.599504	2.796811	-0.296879	0.687985	1.408084	-0.559231	-1.3364	-0.09166	0.061401
-4.130073	2.188016	8.79013	-0.134302	0.463125	-0.299129	0.582379	-0.174113	-0.228148	0.192872	1.410921	9.787905	-0.29864	0.496032	0.0701	0.342934	-0.816023	-0.822815	9.500031	2.971785	0.460084	0.534357	1.347118	-0.650376	-1.371966	-0.138324	0.011445
-4.42722	2.187419	8.311677	-0.441604	0.598204	-0.321384	0.582379	-0.162106	-0.234152	0.072049	1.238929	9.488081	-0.451345	0.560034	0.070976	0.300394	-0.833934	-0.822388	9.561208	2.513409	0.634631	0.65613	1.316096	-0.684521	-1.389437	-0.138226	0.011155
-4.072038	2.590506	8.85133	-0.190782	0.52729	-0.144856	0.588383	-0.162106	-0.222145	0.482667	1.753838	9.913378	-0.207819	0.432686	0.161783	0.29932	-0.794041	-0.859643	9.668931	2.913736	0.346594	0.749907	1.254003	-0.626518	-1.353979	-0.124732	0.046517
-4.075399	1.957522	8.613384	-0.223512	0.467366	-0.174911	0.594387	-0.174113	-0.228148	-0.102425	1.868871	9.485794	-0.235096	0.617354	0.16503	0.284911	-0.776708	-0.806947	9.555562	3.200942	0.403704	0.264875	1.193225	-0.526081	-1.354495	-0.138422	0.011735
-4.072235	2.072926	8.790975	-0.255203	0.468567	-0.20464	0.588383	-0.144094	-0.222145	0.185885	1.352996	9.431268	-0.240589	0.310839	0.066897	0.285648	-0.814322	-0.82327	9.259506	2.855127	-0.186817	0.297645	1.223555	-0.40257	-1.319653	-0.121067	0.010451
-4.536972	2.245813	8.605092	-0.158692	0.648157	-0.175447	0.582379	-0.156102	-0.222145	0.475542	1.753143	9.556857	-0.1458	0.462197	0.193302	0.313866	-0.795985	-0.82381	9.482279	2.624275	-0.474856	0.38526	1.439237	-0.428989	-1.336709	-0.089729	0.043078
-3.904954	2.071923	8.498822	-0.006538	0.763491	-0.331014	0.582379	-0.168109	-0.228148	0.533746	1.524086	9.557581	-0.520068	0.252605	0.435993	0.286073	-0.833509	-0.822502	8.927599	2.857536	0.331527	0.504772	1.285536	-0.651542	-1.301666	-0.107475	0.045523
-3.960752	2.302277	8.616464	-0.123329	0.616849	0.006549	0.576375	-0.156102	-0.234152	-0.040381	1.525702	9.664546	-0.426871	0.222042	0.034104	0.299545	-0.79556	-0.823924	9.208995	2.339983	0.101947	0.598989	1.377162	-0.465859	-1.353979	-0.124732	0.046517
-3.962484	2.014532	8.49756	-0.092915	0.737533	-0.085014	0.588383	-0.144094	-0.234152	0.017685	1.353875	9.665386	-0.086583	0.338386	0.191196	0.270452	-0.791671	-0.89559	9.493441	2.798446	0.109326	0.44512	1.470022	-0.460132	-1.319546	-0.087896	0.025045
-4.078057	2.187218	8.49573	-0.156817	0.709373	-0.144634	0.582379	-0.186121	-0.204133	0.30461	1.410296	9.61202	-0.426489	0.282508	0.251379	0.300082	-0.815507	-0.805297	9.324988	2.569675	0.221776	0.385028	1.500788	-0.396402	-1.336099	-0.144312	0.066994
-4.247172	1.95797	8.669119	-0.096984	0.645573	-0.176963	0.600391	-0.162106	-0.234152	0.36521	2.154606	9.852394	-0.271609	0.281065	-0.026343	0.313779	-0.779077	-0.771	9.156176	2.57036	0.335059	0.56711	1.561996	-0.398295	-1.337841	-0.099557	-0.028349
-4.130588	2.475483	8.790824	-0.555404	0.726442	-0.043324	0.582379	-0.168109	-0.228148	0.30657	1.582217	9.731208	-0.331633	0.373924	0.036979	0.342934	-0.816023	-0.822815	9.543367	2.223263	-0.300101	0.572805	1.407324	-0.248699	-1.337433	-0.119038	-0.008162
-3.844673	2.47469	8.678231	-0.190703	0.679829	-0.235498	0.594387	-0.174113	-0.228148	0.301484	2.211395	9.554222	-0.269255	0.433865	0.130812	0.286186	-0.834268	-0.804643	9.371127	2.223324	-0.361886	0.626961	1.685055	-0.365153	-1.389022	-0.106986	0.044072
-3.902708	2.0722	8.617031	-0.034559	0.734585	-0.208475	0.594387	-0.174113	-0.228148	0.30748	1.696792	9.79086	-0.362251	0.434652	0.315975	0.314204	-0.798264	-0.770232	9.153532	2.799399	0.219179	0.846393	1.376034	-0.316712	-1.354079	-0.107182	0.044652
-3.843241	2.302349	8.736919	-0.099698	0.584265	-0.238262	0.588383	-0.156102	-0.222145	0.299029	1.753211	9.375034	-0.268448	0.464817	0.069595	0.314291	-0.815172	-0.823042	9.608738	2.741111	0.16976	0.870973	1.499909	-0.498617	-1.319653	-0.121067	0.010451
-4.072132	2.015432	8.790836	0.085745	0.546042	-0.212486	0.594387	-0.156102	-0.222145	0.367644	1.639655	9.910772	-0.178794	0.340089	0.160181	0.300394	-0.833934	-0.822388	8.981471	2.684732	0.156978	1.028251	1.40652	-0.350302	-1.372776	-0.04864	-0.016201
-4.02737	2.301269	8.142504	0.181339	0.573002	-0.123137	0.582379	-0.156102	-0.210137	0.18646	2.097213	9.551615	-0.178435	0.370518	0.222495	0.314291	-0.815172	-0.823042	9.202832	2.625762	-0.188792	0.753291	1.530296	-0.279621	-1.389846	-0.118745	-0.009033
-4.073264	2.64786	8.792364	-0.097503	0.61501	-0.177126	0.600391	-0.174113	-0.222145	0.186242	1.69649	9.491384	-0.394236	0.313721	0.004911	0.343584	-0.836729	-0.786328	9.0965	2.799488	0.218036	0.90193	1.469006	-0.500118	-1.336716	-0.14045	0.030348
-4.363766	2.073024	8.608045	0.022121	0.731455	-0.392907	0.588383	-0.156102	-0.228148	0.309083	1.525219	9.849932	-0.302608	0.281327	0.035378	0.300082	-0.815507	-0.805297	9.371196	2.911896	-0.301035	0.931515	1.530588	-0.498952	-1.302491	-0.119234	-0.007581
-3.842623	1.957388	8.736086	-0.241638	0.775102	0.101856	0.600391	-0.168109	-0.222145	0.420762	2.039777	9.73451	-0.272259	0.310317	0.313913	0.285761	-0.815081	-0.805411	9.607327	2.912994	0.112028	0.934233	1.622438	-0.311433	-1.337225	-0.103418	0.008296
-4.198114	1.726782	8.19685	-0.007455	0.610861	-0.270858	0.576375	-0.150098	-0.228148	0.421455	1.753629	9.73393	-0.083579	0.461934	0.008095	0.313329	-0.776039	-0.842438	9.387198	2.914808	0.515946	0.746914	1.685073	-0.460026	-1.302383	-0.086063	0.007012
-4.362034	2.360769	8.726949	-0.035596	0.67346	-0.208801	0.600391	-0.168109	-0.216141	0.25262	1.525473	9.908165	-0.299917	0.43452	0.099885	0.329887	-0.873158	-0.820625	9.553117	2.569317	0.226348	0.749657	1.500102	-0.465361	-1.336816	-0.1229	0.028484
-4.081932	1.841702	8.258479	0.026431	0.640405	-0.179994	0.588383	-0.168109	-0.228148	0.252839	1.926196	9.968396	-0.052872	0.521352	0.348944	0.299857	-0.813987	-0.841016	9.49362	2.683718	0.10891	0.843883	1.499454	-0.343963	-1.336716	-0.14045	0.030348
-3.890661	2.246208	9.267598	-0.219243	0.62036	-0.113122	0.582379	-0.13809	-0.228148	0.421732	1.639169	9.733699	-0.210106	0.369996	0.469511	0.329574	-0.854731	-0.803533	9.264168	2.798596	0.046398	0.875064	1.499274	-0.313766	-1.371859	-0.105153	0.026039
-3.902914	2.187187	8.617309	-0.005141	0.5501	-0.14924	0.594387	-0.150098	-0.222145	0.358639	1.924993	9.49541	-0.332911	0.312412	0.066764	0.285448	-0.796654	-0.788319	9.381573	2.856404	0.223959	0.944252	1.40558	-0.009574	-1.284611	-0.138813	0.012896
-3.954621	2.015504	8.911292	0.003916	0.886652	-0.025499	0.582379	-0.156102	-0.234152	0.354661	2.096334	9.317497	-0.273067	0.279365	0.37513	0.328413	-0.79793	-0.787978	8.978916	2.856407	0.040891	0.907376	1.560433	-0.189366	-1.268165	-0.115568	-0.043647
-4.313491	2.417048	8.255375	0.030302	0.671331	-0.057886	0.600391	-0.162106	-0.234152	0.131877	1.811435	9.668688	-0.362632	0.374186	0.0987	0.314403	-0.815932	-0.805183	9.206957	2.913413	0.045671	0.932413	1.653479	-0.372161	-1.355004	-0.10139	-0.010317
-4.195465	2.129653	8.375136	-0.126681	0.616484	-0.115396	0.600391	-0.186121	-0.222145	0.305382	1.582101	9.671787	-0.273537	0.248805	0.343699	0.299345	-0.777892	-0.788973	9.495747	2.052925	0.164978	0.962014	1.530513	-0.499564	-1.337533	-0.101487	-0.010027
-4.013994	2.360429	8.851898	-0.067686	0.552593	-0.17821	0.582379	-0.162106	-0.228148	-0.099219	1.525725	9.603939	-0.30198	0.372092	0.345849	0.29847	-0.755667	-0.861179	9.092375	2.511838	-0.016427	0.866425	1.531373	-0.682579	-1.337225	-0.103418	0.008296
-4.423645	2.072849	8.488713	-0.103369	0.614373	-0.390529	0.588383	-0.156102	-0.222145	-0.15483	2.155737	9.782286	-0.457376	0.282902	0.282217	0.328387	-0.814078	-0.858647	9.210565	2.799309	0.220322	0.956551	1.623634	-0.681747	-1.354803	-0.136491	-0.006588
-3.845375	1.612011	8.557939	-0.158452	0.465146	-0.054482	0.600391	-0.156102	-0.228148	0.131105	1.63963	9.608921	-0.269838	0.403174	0.130263	0.343584	-0.836729	-0.786328	9.668752	3.028464	0.34701	0.780389	1.438476	-0.49856	-1.371959	-0.087602	0.024174
-4.256467	2.129339	8.196699	-0.065732	0.766348	-0.23804	0.612399	-0.150098	-0.234152	0.537666	1.867927	9.795957	-0.393518	0.37458	0.129538	0.314716	-0.834359	-0.822274	9.266633	2.684284	0.162693	0.776266	1.808207	-0.426272	-1.353979	-0.124732	0.046517
-4.310935	2.244846	8.373167	-0.188787	0.497	-0.053561	0.594387	-0.156102	-0.216141	0.478551	1.982409	9.735581	-0.30189	0.342186	0.160005	0.285223	-0.795135	-0.824038	9.092286	2.569201	-0.016219	0.868911	1.684774	-0.462473	-1.319453	-0.156168	0.01418
-4.136503	2.014702	8.435086	-0.100656	0.67568	-0.32923	0.594387	-0.150098	-0.222145	0.185331	1.581915	9.431732	-0.301532	0.372615	0.222318	0.313866	-0.795985	-0.82381	9.208189	2.856257	0.103819	0.689099	1.653971	-0.336457	-1.319861	-0.136687	-0.006007
-4.362643	2.073163	8.66715	-0.157215	0.587305	-0.084315	0.588383	-0.150098	-0.228148	0.299029	1.753211	9.375034	-0.393406	0.37471	0.098656	0.286073	-0.833509	-0.822502	9.553544	3.028435	0.286368	0.689806	1.377044	-0.498503	-1.372683	-0.116912	-0.027065
-3.968614	2.301305	8.202732	-0.099577	0.49276	-0.177779	0.594387	-0.156102	-0.222145	0.238093	1.638542	9.195354	-0.177022	0.462198	0.316788	0.343046	-0.816782	-0.804955	9.669289	2.684282	0.345762	0.74693	1.500526	-0.588595	-1.353671	-0.126663	0.06484
-4.128033	2.30328	8.908617	0.026829	0.762472	-0.240313	0.582379	-0.180117	-0.222145	0.188122	1.410457	9.550224	-0.394303	0.373664	0.345716	0.329375	-0.837063	-0.768582	9.555314	2.627097	0.343268	0.965207	1.406987	-0.441504	-1.320162	-0.084035	-0.011601
-3.906077	2.071784	8.439718	-0.099179	0.614828	-0.238098	0.582379	-0.162106	-0.228148	0.420544	1.639054	9.674278	-0.205129	0.585878	0.22629	0.313979	-0.796745	-0.805951	9.211549	2.168308	0.218034	0.811795	1.469018	-0.436666	-1.406493	-0.106888	0.043781
-3.67055	2.417027	8.740567	-0.099777	0.431726	-0.147619	0.594387	-0.174113	-0.228148	0.420821	1.524594	9.674047	-0.177538	0.371565	-0.024565	0.329262	-0.836303	-0.786442	9.379734	2.56917	0.106208	0.78108	1.346096	-0.532037	-1.319653	-0.121067	0.010451
-4.070915	2.590645	8.910434	-0.096785	0.706607	-0.207122	0.588383	-0.168109	-0.234152	0.425235	2.1547	9.972422	-0.204882	0.616176	0.319487	0.300932	-0.85388	-0.803761	9.436408	2.798535	0.108183	0.935389	1.406956	-0.410083	-1.336917	-0.105349	0.026619
-4.075193	1.842535	8.613106	-0.03755	0.459705	-0.148972	0.606395	-0.168109	-0.222145	0.417061	2.096659	9.556365	-0.453677	0.437271	0.068782	0.356631	-0.779593	-0.788518	9.263025	2.798388	-0.011958	0.664536	1.345549	-0.283121	-1.372475	-0.101292	-0.010607
-4.020631	2.302102	8.497131	0.001244	0.5813	0.064327	0.588383	-0.162106	-0.210137	0.24508	1.696467	9.551991	-0.331476	0.434128	0.316019	0.285336	-0.795894	-0.806179	9.258721	2.625465	-0.246005	0.603313	1.314976	-0.313595	-1.337325	-0.085867	0.006432
-4.081529	2.244295	8.318556	0.03094	0.610389	0.00276	0.576375	-0.156102	-0.222145	0.065419	1.524499	9.19156	-0.148445	0.369079	0.438717	0.300195	-0.816266	-0.787437	9.488889	2.051678	-0.185157	0.663622	1.407206	-0.281343	-1.301867	-0.072374	0.041794
-4.024	2.301686	8.319818	-0.065492	0.583338	-0.117075	0.600391	-0.180117	-0.234152	0.069754	1.696651	9.429588	-0.391769	0.466652	0.131184	0.314603	-0.8336	-0.840134	9.2031	2.453671	-0.189416	0.573262	1.376496	-0.249588	-1.337325	-0.085867	0.006432
-4.017663	1.899926	8.614368	-0.154063	0.526635	0.06779	0.600391	-0.174113	-0.216141	0.535924	2.09673	9.737001	-0.301173	0.403044	0.284632	0.299657	-0.79632	-0.806065	9.492566	2.626147	0.050346	0.539811	1.346271	-0.403908	-1.354187	-0.140352	0.030058
-4.194856	2.417259	8.434935	-0.002747	0.641879	-0.118264	0.588383	-0.156102	-0.216141	0.13732	1.52575	9.90579	-0.180766	0.247755	0.220301	0.272402	-0.85379	-0.786129	9.72343	2.339386	0.17059	0.447623	1.438876	-0.368596	-1.319962	-0.119136	-0.007872
-3.965656	2.531695	8.380601	-0.003664	0.489248	-0.058108	0.606395	-0.168109	-0.228148	0.246544	1.582124	9.61118	-0.118971	0.277006	0.313585	0.270677	-0.793191	-0.859871	9.722445	2.970387	0.172878	0.327679	1.346583	-0.338008	-1.354395	-0.155972	0.0136
-4.366012	2.072746	8.489836	-0.18368	0.650086	0.038714	0.576375	-0.174113	-0.234152	0.118815	1.810161	9.015066	-0.178211	0.37078	0.16073	0.328387	-0.814078	-0.858647	9.604345	2.625552	-0.064079	0.573046	1.253499	-0.34557	-1.319754	-0.103516	0.008587
-4.016952	2.130039	8.674028	-0.122611	0.708445	-0.023447	0.588383	-0.162106	-0.228148	0.36135	1.295582	9.553555	-0.177717	0.431377	0.347122	0.313354	-0.75989	-0.771768	9.491602	2.511211	-0.008426	0.206371	1.254503	-0.369036	-1.337332	-0.136589	-0.006297
-4.135081	2.474927	8.554406	0.024996	0.457212	-0.120001	0.594387	-0.156102	-0.228148	0.473306	1.695681	9.437901	-0.023286	0.42941	0.19293	0.271552	-0.815416	-0.787665	9.495011	3.257771	0.227701	0.233461	1.254957	-0.523691	-1.354596	-0.120871	0.009871
-4.024412	2.531659	8.320373	-0.005182	0.794145	-0.300364	0.606395	-0.162106	-0.228148	0.527889	1.98146	9.320828	-0.236508	0.525674	0.070737	0.342084	-0.777649	-0.82435	9.382378	2.340131	0.222087	0.200226	1.347729	-0.582028	-1.35428	-0.07208	0.040923
-3.963607	2.014393	8.438456	-0.224271	0.619814	-0.296039	0.588383	-0.156102	-0.222145	0.07779	1.811921	9.845761	-0.329391	0.526593	0.225017	0.314204	-0.798264	-0.770232	9.714106	2.45245	-0.295841	0.353638	1.285698	-0.586866	-1.319954	-0.068415	0.004858
-4.191281	2.302689	8.611971	-0.032244	0.673824	-0.086856	0.582379	-0.150098	-0.228148	0.241735	2.096843	9.433962	-0.052424	0.521876	0.225414	0.314516	-0.816691	-0.787324	8.925403	2.799757	0.214607	0.409865	1.28629	-0.803749	-1.371758	-0.122704	0.027903
-4.18822	2.475586	8.789701	-0.067886	0.491559	-0.148051	0.594387	-0.150098	-0.228148	0.072704	2.4411	9.668776	-0.329055	0.526985	0.132369	0.313666	-0.778317	-0.788859	9.557152	2.914331	0.461019	0.467438	1.471217	-0.830446	-1.337533	-0.101487	-0.010027
-4.307669	2.302756	8.55062	-0.097702	0.553976	-0.146966	0.588383	-0.162106	-0.216141	0.249771	2.212113	9.850135	0.041535	0.612245	0.258075	0.301044	-0.85464	-0.785902	9.264347	2.683868	0.045982	0.68594	1.408401	-0.651656	-1.355004	-0.10139	-0.010317
-4.13641	2.589775	8.495579	-0.090281	0.646301	0.066927	0.606395	-0.162106	-0.228148	0.648355	1.809957	9.560536	0.167546	0.763602	0.260994	0.298045	-0.73648	-0.861947	9.259685	2.7404	-0.187233	0.676611	1.53288	-0.986993	-1.354904	-0.11894	-0.008452
-3.959732	2.359909	8.675707	0.18102	0.603473	-0.15346	0.594387	-0.168109	-0.234152	0.589299	1.409256	9.439697	-0.049038	0.705889	0.259588	0.329262	-0.836303	-0.786442	9.265669	2.569349	0.103922	0.617666	1.440438	-0.957629	-1.389946	-0.101194	-0.010897
-4.599097	2.245361	8.367551	-0.128237	0.524797	-0.115886	0.594387	-0.168109	-0.210137	0.075553	1.75446	9.726805	-0.016986	0.766877	0.229846	0.300932	-0.85388	-0.803761	9.268045	2.512401	0.220425	0.649753	1.470874	-0.864926	-1.408034	-0.097234	-0.047833
-4.306452	2.877968	8.670217	-0.030967	0.551939	0.034435	0.588383	-0.180117	-0.234152	0.418664	1.925086	9.615438	0.138431	0.886104	0.448439	0.299345	-0.777892	-0.788973	9.489296	3.256731	-0.064078	0.770387	1.470787	-0.92899	-1.3362	-0.126761	0.06513
-3.967894	1.898851	8.20176	-0.274325	0.471134	0.222925	0.588383	-0.150098	-0.216141	0.300216	1.753327	9.434454	0.416092	0.912209	0.418503	0.32915	-0.835544	-0.804301	9.719463	2.682944	-0.00323	0.804761	1.34708	-0.840734	-1.354803	-0.136491	-0.006588
-4.140585	1.784173	8.198112	-0.13063	0.433018	-0.146862	0.594387	-0.144094	-0.216141	0.418664	1.925086	9.615438	0.297996	1.160223	0.330066	0.299969	-0.814747	-0.823156	9.49855	2.455095	0.341501	0.89581	1.285411	-0.905965	-1.372067	-0.120773	0.00958
-4.305319	2.24554	8.66869	-0.034397	0.399035	0.003133	0.576375	-0.168109	-0.228148	0.421396	2.268811	9.794393	0.353267	0.851745	0.4482	0.300195	-0.816266	-0.787437	9.48712	2.453016	-0.242057	0.898321	1.16199	-0.878714	-1.319962	-0.119136	-0.007872
-4.245749	2.418195	8.788439	0.031978	0.671514	0.003087	0.588383	-0.150098	-0.216141	0.716059	1.581827	10.036621	0.356428	1.035497	0.544139	0.343896	-0.855156	-0.803419	9.441697	2.340457	0.339942	1.01918	1.192626	-0.91108	-1.301974	-0.105545	0.0272
-4.075399	1.957522	8.613384	-0.064492	0.247879	0.125019	0.594387	-0.144094	-0.216141	0.246267	1.696583	9.611411	0.080717	1.071689	0.358994	0.357255	-0.816448	-0.822701	9.607685	2.683539	0.111196	0.954298	1.408681	-0.93444	-1.354495	-0.138422	0.011735
-3.959938	2.474896	8.675985	0.094324	0.607987	0.062217	0.600391	-0.150098	-0.228148	0.192813	1.926103	9.848368	0.115235	1.285608	0.455526	0.300394	-0.833934	-0.822388	9.320863	2.282025	-0.012687	1.049671	1.284825	-0.847407	-1.353872	-0.091562	0.06111
-4.651216	2.303651	8.662089	0.188242	0.634764	0.090593	0.582379	-0.156102	-0.222145	0.296792	1.695749	9.256078	0.671677	1.339125	0.086827	0.315053	-0.836638	-0.768696	9.662252	2.797761	-0.003957	0.985712	1.346949	-0.936831	-1.337225	-0.103418	0.008296
-4.241556	1.958664	8.964642	-0.067367	0.522122	-0.147887	0.588383	-0.162106	-0.222145	0.422839	1.181332	9.732771	-0.315289	1.263301	0.207298	0.286186	-0.834268	-0.804643	9.495906	2.684134	0.225621	0.986627	1.285292	-0.938609	-1.354079	-0.107182	0.044652
-4.13436	2.072473	8.553434	-0.178772	0.742138	0.161149	0.594387	-0.162106	-0.222145	0.308252	1.868597	9.850627	-0.06858	1.349742	0.549005	0.327537	-0.775704	-0.860183	9.262598	2.33927	-0.071978	1.021233	1.100034	-0.88294	-1.372475	-0.101292	-0.010607
-3.897195	2.130388	8.912693	-0.03392	0.673642	-0.147829	0.576375	-0.156102	-0.234152	0.650453	1.924648	9.679608	0.639177	1.277613	0.240099	0.300082	-0.815507	-0.805297	9.092644	2.339747	-0.017051	0.995049	1.130196	-0.665779	-1.355212	-0.117009	-0.026775
-4.411392	2.13187	9.139002	0.029024	0.793217	-0.179177	0.606395	-0.156102	-0.210137	0.128315	1.811087	9.490428	-0.223998	1.230515	0.330413	0.342821	-0.815263	-0.840674	9.663395	2.797969	0.054399	1.142998	1.161286	-0.8528	-1.319345	-0.122997	0.028774
-4.077243	2.359838	8.555252	-0.092035	0.49358	0.096597	0.594387	-0.156102	-0.216141	-0.104661	1.81141	9.366837	0.42385	1.251376	0.053946	0.300307	-0.817026	-0.769578	9.379307	2.110052	0.046188	1.078582	1.254239	-0.941334	-1.301874	-0.123095	0.029064
-4.363766	2.073024	8.608045	0.097037	0.669294	0.123516	0.582379	-0.168109	-0.228148	0.360519	1.63896	9.55425	0.207311	1.40379	1.168152	0.285873	-0.815841	-0.787551	9.493978	2.454263	0.108078	1.078798	1.377236	-0.845351	-1.353979	-0.124732	0.046517
-4.068566	2.533429	9.028505	0.058961	0.639295	-0.119779	0.594387	-0.186121	-0.210137	0.301761	2.096936	9.55399	-1.70124	1.315616	0.669098	0.328725	-0.816357	-0.805069	9.61006	2.626591	0.227699	1.175085	1.191722	-0.760097	-1.37135	-0.142185	0.048091
-3.959732	2.359909	8.675707	0.124618	0.820177	-0.089829	0.594387	-0.156102	-0.216141	0.308945	1.582448	9.850048	0.947342	1.242859	-0.037951	0.299545	-0.79556	-0.823924	9.491244	2.740666	-0.007594	1.081542	1.192264	-0.850687	-1.319137	-0.107377	0.045233
-4.304917	2.648133	8.728767	0.313014	0.66025	0.118211	0.582379	-0.180117	-0.216141	0.012381	1.58233	9.428169	-0.836211	1.42488	0.394586	0.312817	-0.739944	-0.790395	9.273044	2.972351	0.513868	1.171668	1.284526	-0.849855	-1.319754	-0.103516	0.008587
-3.673714	2.301623	8.562975	0.118594	0.514461	-0.121948	0.582379	-0.156102	-0.234152	0.53822	1.639008	9.795494	0.302076	1.375059	0.333906	0.328612	-0.815597	-0.822928	9.269725	2.168427	0.277533	1.107718	1.254376	-1.003563	-1.354596	-0.120871	0.009871
-4.257496	2.704274	8.198088	0.153398	0.696635	-0.09124	0.588383	-0.156102	-0.210137	0.538853	1.868043	9.855377	-0.07062	1.167298	0.144241	0.328837	-0.817117	-0.78721	9.71191	2.39467	-0.41276	1.163021	1.408899	-1.154383	-1.284711	-0.121262	0.011032
-3.848351	2.646754	8.501334	0.122743	0.758961	-0.120642	0.594387	-0.168109	-0.210137	0.533965	1.924809	9.617813	-0.344068	1.386196	0.302096	0.255844	-0.75667	-0.807943	9.615686	2.684995	0.519686	1.319858	1.16179	-1.133748	-1.3363	-0.10921	0.063265
-4.366827	1.900127	8.430315	0.188641	0.756832	0.030274	0.582379	-0.162106	-0.210137	-0.452384	1.58309	9.240408	0.301583	1.314462	0.147514	0.299007	-0.775614	-0.842552	9.830726	2.280595	-0.177467	1.22313	1.193584	-1.346684	-1.354079	-0.107182	0.044652
-4.024309	2.474166	8.320234	0.374681	0.90171	-0.034429	0.600391	-0.162106	-0.210137	-0.153445	1.58344	9.781128	-0.164781	1.106704	0.328307	0.328612	-0.815597	-0.822928	9.776138	2.91231	-0.001255	1.317123	1.254488	-1.192698	-1.302182	-0.121165	0.010741
-4.536869	2.18832	8.604953	0.217499	0.785829	-0.061779	0.600391	-0.174113	-0.228148	0.120497	2.096541	9.134486	-0.130397	1.290455	0.30076	0.313866	-0.795985	-0.82381	9.550563	2.740992	0.110261	1.343298	1.316599	-1.345574	-1.355621	-0.097528	-0.046963
-4.192404	2.30255	8.552866	0.376477	0.810387	0.087026	0.588383	-0.150098	-0.216141	0.417338	1.9822	9.556133	-0.318787	1.079157	0.204007	0.313666	-0.778317	-0.788859	9.265222	2.856167	0.104962	1.371985	1.255291	-1.471199	-1.337332	-0.136589	-0.006297
-4.192807	1.899957	8.492789	0.192789	1.001332	0.03158	0.588383	-0.180117	-0.240156	0.418723	1.409903	9.554974	-0.106013	0.982369	0.449731	0.357368	-0.817207	-0.804841	9.37877	2.454234	0.047436	1.556336	1.346904	-1.348968	-1.354703	-0.154042	-0.004723
-4.024206	2.416673	8.320095	0.403021	0.900145	-0.126645	0.594387	-0.162106	-0.222145	0.479105	1.75349	9.735118	-0.104264	1.074442	0.451377	0.313441	-0.776798	-0.824578	9.493372	2.109873	0.048474	1.608455	1.532679	-1.622134	-1.441234	-0.141794	0.04693
-4.254735	2.417084	8.315602	0.092686	1.004388	-0.240522	0.594387	-0.156102	-0.222145	0.073455	1.639769	9.607733	-0.289044	1.047419	0.327033	0.314716	-0.834359	-0.822274	9.101182	1.99702	0.390192	1.460739	1.440038	-1.467699	-1.319037	-0.124928	0.047097
-4.024309	2.474166	8.320234	0.061633	0.944646	-0.209605	0.582379	-0.156102	-0.234152	0.185688	1.925408	9.491847	-0.07071	1.197204	0.330085	0.314403	-0.815932	-0.805183	9.322006	2.282233	0.045669	1.459384	1.347976	-1.593602	-1.354388	-0.105251	0.026329
-4.254838	2.474578	8.315741	0.154713	0.971333	-0.211715	0.588383	-0.150098	-0.210137	0.023702	1.812407	10.022834	-0.252889	1.353279	0.456093	0.299995	-0.798598	-0.752487	9.495121	2.454471	0.166434	1.219705	1.378661	-1.372157	-1.285227	-0.134952	-0.02375
-4.025329	2.416534	8.260991	0.066341	0.975664	-0.057011	0.600391	-0.168109	-0.222145	0.417338	1.9822	9.556133	-0.067795	1.350657	0.332828	0.313979	-0.796745	-0.805951	9.72175	2.68336	0.113482	1.22131	1.224624	-1.407412	-1.301466	-0.142577	0.049252
-4.190364	2.417815	8.671353	0.125535	0.972807	-0.149985	0.594387	-0.162106	-0.216141	0.354304	1.752841	9.257381	-0.008803	1.226585	0.392487	0.313016	-0.757611	-0.825346	9.721392	2.912815	0.114314	1.098398	1.286581	-1.403186	-1.354897	-0.068219	0.004277
-4.076934	2.187357	8.554835	0.310658	0.965055	-0.154532	0.588383	-0.156102	-0.228148	0.362835	2.154375	9.733554	-0.254772	1.231039	0.330369	0.32915	-0.835544	-0.804301	9.496532	2.282588	0.224166	0.827104	1.071454	-1.403904	-1.355011	-0.152111	-0.023046
-4.538703	1.958068	8.486189	0.214425	0.999038	-0.304526	0.588383	-0.150098	-0.228148	0.244031	1.639122	9.492455	-0.377645	1.233397	0.268427	0.299232	-0.777133	-0.806833	9.550921	2.511538	0.109429	0.492292	1.072171	-1.366365	-1.389953	-0.151915	-0.023627
-3.961463	2.072164	8.556804	0.216222	0.907715	-0.183071	0.600391	-0.156102	-0.204133	-0.042953	2.097883	9.606285	-0.139007	0.860261	0.416611	0.32915	-0.835544	-0.804301	9.550652	2.683629	0.110053	0.46067	0.918632	-1.524243	-1.35428	-0.07208	0.040923
-3.666057	2.417582	8.976985	0.250585	1.211866	-0.243168	0.576375	-0.156102	-0.240156	0.358698	1.40981	9.434946	-0.382555	0.957573	0.170842	0.3298	-0.85625	-0.767814	9.490549	2.453639	-0.066989	0.300441	0.981721	-1.827492	-1.337533	-0.101487	-0.010027
-4.079901	2.589534	8.437598	0.429005	1.203385	-0.491604	0.582379	-0.162106	-0.222145	0.532836	1.409511	9.497929	-0.63339	0.746277	0.321062	0.32915	-0.835544	-0.804301	9.377627	2.454026	-0.01092	0.208036	0.951329	-1.888163	-1.372683	-0.116912	-0.027065
-3.846611	2.301932	8.559606	-0.092719	1.439195	-0.508065	0.576375	-0.180117	-0.222145	0.656944	1.696308	9.976245	-0.389998	0.588761	0.287791	0.314403	-0.815932	-0.805183	9.435713	2.511509	0.048787	0.178451	0.889746	-1.889329	-1.319653	-0.121067	0.010451
-4.189137	2.36046	8.730319	0.276051	1.484543	-0.60829	0.606395	-0.156102	-0.228148	0.067874	1.982683	9.370748	-0.453295	0.497737	0.286057	0.342734	-0.798355	-0.787864	9.492566	2.626147	0.050346	0.082172	0.982986	-2.03887	-1.353979	-0.124732	0.046517
-4.308689	2.245124	8.491376	0.27613	1.637082	-0.698932	0.594387	-0.150098	-0.222145	0.247039	1.868388	9.671179	-0.574151	0.652502	0.473918	0.328525	-0.798689	-0.770118	9.383074	2.627157	0.281483	-0.162956	0.922245	-2.12818	-1.354087	-0.157903	0.031923
-3.960649	2.244784	8.616325	0.306743	1.8188	-0.820655	0.594387	-0.162106	-0.234152	0.24124	1.810579	9.373962	-0.514777	0.588895	0.750852	0.299857	-0.813987	-0.841016	9.551795	2.683837	0.168409	-0.035262	0.767273	-1.98103	-1.372683	-0.116912	-0.027065
-4.245235	2.130728	8.787744	-0.032168	1.466991	-0.57039	0.582379	-0.162106	-0.222145	0.304828	1.81102	9.672251	-0.205891	0.614999	0.59743	0.329574	-0.854731	-0.803533	9.271543	3.201597	0.456344	-0.344124	0.799379	-2.128066	-1.337741	-0.117107	-0.026485
-4.473414	2.073924	8.901322	0.330017	1.420105	-0.854021	0.594387	-0.156102	-0.234152	-0.040243	1.468472	9.66443	-0.177672	0.49145	0.657045	0.329462	-0.853971	-0.821393	9.441518	2.455185	0.340358	-0.335036	0.828725	-1.695854	-1.319954	-0.068415	0.004858
-4.129671	2.590609	8.850207	0.365899	1.41936	-0.671863	0.588383	-0.150098	-0.228148	0.421455	1.753629	9.73393	-0.050047	0.704712	0.537531	0.344633	-0.89277	-0.819743	9.379555	2.683897	0.106624	-0.19003	0.737242	-2.102095	-1.354803	-0.136491	-0.006588
-4.423345	2.532936	8.548929	0.246354	1.455454	-0.546724	0.600391	-0.168109	-0.210137	0.011609	1.410525	9.368401	-0.327261	0.679131	0.443937	0.328187	-0.79641	-0.823696	9.327343	3.258664	0.399339	-0.375522	0.676562	-2.254246	-1.371766	-0.173425	0.015174
-3.957897	2.590161	8.794472	0.460336	1.4767	-0.643323	0.582379	-0.168109	-0.228148	0.418526	1.982316	9.615553	-0.233773	0.73894	0.445167	0.3283	-0.79717	-0.805837	9.259596	2.797764	-0.187025	-0.195708	0.707366	-2.380263	-1.336917	-0.105349	0.026619
-4.129455	1.843055	8.789297	0.490791	1.35334	-0.583762	0.606395	-0.162106	-0.216141	-0.043587	1.868848	9.546401	-0.295658	0.739596	0.537726	0.271864	-0.833843	-0.804757	9.487636	2.854769	-0.182245	-0.317474	0.646113	-2.410403	-1.32027	-0.117205	-0.026195
-4.017158	2.245025	8.674306	0.706129	1.405239	-0.649712	0.594387	-0.162106	-0.222145	-0.214381	1.468772	9.601448	-0.356175	0.771858	0.414656	0.328612	-0.815597	-0.822928	9.377358	2.626118	-0.010296	-0.173398	0.800836	-2.686296	-1.337124	-0.120969	0.010161
-4.361725	2.188289	8.726532	0.366339	1.297383	-0.581057	0.582379	-0.174113	-0.234152	0.131462	1.983124	9.669036	-0.262709	0.80163	0.260924	0.343159	-0.817542	-0.787096	9.268492	2.225582	0.219385	-0.509343	0.740213	-2.742962	-1.319345	-0.122997	0.028774
-4.30838	2.072643	8.49096	0.528868	1.383339	-0.340467	0.600391	-0.162106	-0.222145	0.3585	1.982223	9.495526	-0.264323	0.739726	0.383357	0.314291	-0.815172	-0.823042	9.264079	2.855959	0.046606	-0.391435	0.740549	-2.930263	-1.302082	-0.138715	0.012606
-4.306545	2.302895	8.609724	0.461294	1.385286	-0.552355	0.588383	-0.156102	-0.222145	0.357036	2.096566	9.436337	-0.079072	0.797308	0.539132	0.285223	-0.795135	-0.824038	9.371802	3.256286	-0.241431	-0.421012	0.586692	-2.995715	-1.355212	-0.117009	-0.026775
-4.075305	2.532596	8.673877	0.466521	1.446866	-0.399598	0.582379	-0.162106	-0.216141	0.596642	1.810675	9.856449	-0.200689	0.831142	0.292444	0.300082	-0.815507	-0.805297	9.263025	2.798388	-0.011958	-0.208895	0.770929	-2.933045	-1.371042	-0.144116	0.066414
-4.598179	2.360486	8.426933	0.557407	1.442808	-0.462843	0.588383	-0.150098	-0.198129	0.368554	1.754231	9.970424	-0.289313	0.987084	0.078876	0.328612	-0.815597	-0.822928	9.60197	2.682499	-0.180583	-0.26602	0.647446	-2.842951	-1.301666	-0.107475	0.045523
-4.363972	2.188011	8.608323	0.498811	1.628766	-0.460348	0.612399	-0.156102	-0.216141	0.301404	1.753442	9.493874	-0.505517	0.989837	0.294745	0.313866	-0.795985	-0.82381	9.380698	2.684105	0.16498	-0.179767	0.86334	-2.930989	-1.388713	-0.108917	0.062394
-4.309915	2.302478	8.43241	1.149014	1.784918	-0.505768	0.588383	-0.156102	-0.216141	-0.03848	2.212805	9.844198	-0.689468	1.023803	0.264146	0.313666	-0.778317	-0.788859	8.980934	3.028914	0.158226	-0.454488	0.83329	-2.95718	-1.354388	-0.105251	0.026329
-4.366321	2.245227	8.490253	0.867659	1.826653	-0.651215	0.588383	-0.150098	-0.216141	0.414883	1.524015	9.376946	-0.290568	0.955608	0.263623	0.328075	-0.795651	-0.841556	8.928315	2.398627	0.329863	-0.490932	1.234137	-2.945007	-1.353979	-0.124732	0.046517
-4.305525	2.360527	8.668968	0.583909	1.77661	-0.827638	0.582379	-0.168109	-0.210137	0.12406	2.096888	9.312747	-0.319392	1.018429	0.048498	0.330112	-0.874677	-0.784906	9.325256	2.397584	0.221152	-0.584709	1.29623	-3.003011	-1.319446	-0.105447	0.02691
-4.139779	2.589359	8.318266	0.895679	1.855559	-0.773754	0.600391	-0.144094	-0.222145	0.070941	1.696767	9.489008	-0.163055	1.168739	0.174991	0.299969	-0.814747	-0.823156	9.389574	2.85786	0.63245	-0.951396	1.389507	-2.962192	-1.4067	-0.122508	0.027323
-4.123643	2.361329	9.145174	1.305797	1.778731	-0.418099	0.582379	-0.162106	-0.216141	0.53921	2.211537	9.915493	-0.318338	1.07968	0.080477	0.314204	-0.798264	-0.770232	9.491513	2.568575	-0.008218	-0.827593	1.542716	-2.775339	-1.353979	-0.124732	0.046517
-4.763214	2.361767	8.837295	0.972271	1.793581	-0.19636	0.606395	-0.168109	-0.228148	0.180661	2.039404	9.254398	-0.163167	1.168608	0.205874	0.314403	-0.815932	-0.805183	9.487815	2.740042	-0.182661	-1.099338	1.266144	-2.839454	-1.284711	-0.121262	0.011032
-4.361519	2.073302	8.726255	2.166828	2.016798	-0.712223	0.588383	-0.168109	-0.240156	0.180581	1.581451	9.194051	-0.559735	1.359566	0.208591	0.343671	-0.853637	-0.839138	9.780194	2.511388	0.172357	-1.337425	1.235067	-2.588977	-1.355212	-0.117009	-0.026775
-4.18954	1.957867	8.670242	1.591978	2.317136	-0.452466	0.594387	-0.180117	-0.222145	0.406789	1.923928	9.021236	-0.558098	1.451508	0.241119	0.328187	-0.79641	-0.823696	9.315843	2.568011	-0.24507	-1.270298	1.326238	-2.248635	-1.318729	-0.126859	0.06542
-4.311235	1.784759	8.312951	1.402944	2.538004	-0.721151	0.594387	-0.162106	-0.228148	0.365269	1.639424	9.791931	-0.153728	1.659791	0.183767	0.342821	-0.815263	-0.840674	9.489475	3.142004	-0.064494	-1.695931	1.327074	-2.178451	-1.335999	-0.161862	0.068859
-3.904552	2.474516	8.558899	1.515826	2.257138	-0.939054	0.594387	-0.156102	-0.228148	0.52767	1.580736	9.260596	-0.739807	1.638143	0.398558	0.342422	-0.779927	-0.770772	9.379465	2.741261	0.106832	-2.093145	1.697247	-1.944164	-1.337024	-0.13852	0.012025
-4.024618	2.646646	8.320651	1.409287	2.813248	-0.658709	0.606395	-0.13809	-0.216141	0.132293	1.639746	9.668341	-1.170471	1.585669	0.026252	0.341859	-0.776129	-0.860069	9.145352	2.91267	-0.188896	-2.173944	1.480508	-1.609658	-1.284095	-0.125124	0.047678
-4.130682	1.90041	8.730331	2.108988	2.690934	-0.981489	0.594387	-0.162106	-0.228148	-0.05002	1.582005	9.189301	-1.199474	1.708302	0.182814	0.327563	-0.759556	-0.789514	9.210923	2.569854	0.21949	-2.478719	1.511978	-1.571841	-1.319037	-0.124928	0.047097
-4.31145	2.532313	8.373861	1.949654	2.300266	-0.918851	0.582379	-0.150098	-0.222145	0.246129	1.753813	9.611527	-1.108294	1.675385	0.336811	0.3283	-0.79717	-0.805837	9.381125	3.143223	0.224999	-2.663998	1.574296	-1.628008	-1.319037	-0.124928	0.047097
-4.024412	2.531659	8.320373	1.93049	2.546876	-0.642412	0.582379	-0.162106	-0.222145	0.245932	2.326225	9.672106	-0.92006	1.826479	0.154523	0.314828	-0.835119	-0.804415	9.375499	3.084819	-0.066988	-2.810811	1.512272	-1.411067	-1.318937	-0.142479	0.048962
-4.301444	2.591056	8.905941	2.26653	2.5323	-0.772692	0.582379	-0.156102	-0.222145	0.248088	1.925733	9.730715	-1.103047	1.951601	0.341748	0.299969	-0.814747	-0.823156	9.208637	2.569438	0.102779	-3.115346	1.389917	-1.470123	-1.336716	-0.14045	0.030348
-4.192704	1.842464	8.492651	1.986013	2.574126	-0.887653	0.588383	-0.162106	-0.210137	0.359965	1.867879	9.554714	-1.289242	1.832899	0.123111	0.343046	-0.816782	-0.804955	9.147569	2.224514	-0.133035	-3.087108	1.267163	-1.659144	-1.355004	-0.10139	-0.010317
-4.017261	2.302519	8.674445	2.394811	2.863227	-0.804413	0.606395	-0.162106	-0.228148	0.29889	1.81044	9.37515	-1.442756	1.865949	0.185204	0.327988	-0.778743	-0.788746	9.034716	2.913473	-0.016114	-3.054113	1.328216	-1.503934	-1.372067	-0.120773	0.00958
-4.596448	2.648231	8.545837	2.608991	2.945506	-0.931172	0.594387	-0.162106	-0.222145	0.305739	1.925595	9.731903	-1.379234	1.957234	0.125172	0.328725	-0.816357	-0.805069	9.445642	2.742835	0.574821	-3.083474	1.297357	-1.473402	-1.336616	-0.158001	0.032213
-3.673817	2.359117	8.563114	2.824088	3.180414	-1.118087	0.588383	-0.162106	-0.228148	0.128453	1.753858	9.490312	-1.779933	2.023336	0.619816	0.314403	-0.815932	-0.805183	9.263383	2.568933	-0.01279	-2.992423	1.235687	-1.538634	-1.319037	-0.124928	0.047097
-4.305319	2.24554	8.66869	2.585198	3.313637	-0.897969	0.600391	-0.162106	-0.210137	0.021327	1.812175	9.903994	-1.347338	2.108071	0.62208	0.328924	-0.834025	-0.84002	9.323914	3.25804	0.224272	-2.688328	1.204322	-1.607259	-1.337024	-0.13852	0.012025
-4.257693	2.186694	8.137733	2.701669	3.49075	-1.265853	0.588383	-0.168109	-0.210137	0.180166	1.75314	9.194398	-1.71872	2.021896	0.712552	0.342734	-0.798355	-0.787864	9.381145	2.397287	0.16394	-2.39378	1.174439	-2.107207	-1.283378	-0.146536	0.086188
-4.25627	2.646919	8.257053	3.108952	3.444121	-1.03198	0.582379	-0.168109	-0.222145	0.069477	1.81111	9.42982	-2.084161	2.242759	0.777627	0.313866	-0.795985	-0.82381	9.379376	2.798625	0.10704	-2.086269	1.050271	-2.086074	-1.336207	-0.177482	0.0524
-3.617813	2.013776	8.445195	2.485971	3.713366	-1.381349	0.600391	-0.150098	-0.210137	-0.277532	2.269778	9.423622	-1.841774	2.084066	1.022298	0.28661	-0.853455	-0.803875	9.95463	2.569107	0.351061	-1.842486	0.926676	-2.186953	-1.28512	-0.101781	-0.009156
-4.294087	2.246929	9.259735	3.203986	3.684561	-1.093919	0.594387	-0.156102	-0.210137	0.077433	1.468427	9.785646	-2.154029	1.903986	1.296509	0.314941	-0.835878	-0.786556	9.37877	2.454234	0.047436	-1.448723	1.018401	-2.253857	-1.354287	-0.122802	0.028194
-4.480565	2.303065	8.54725	3.390344	3.798967	-1.128298	0.600391	-0.168109	-0.222145	0.416566	1.810395	9.496365	-2.434994	1.663961	1.106428	0.328413	-0.79793	-0.787978	9.09484	2.397526	0.099869	-1.481726	1.049622	-2.344782	-1.319446	-0.105447	0.02691
-4.309194	1.900024	8.431438	3.297464	3.833314	-1.156348	0.594387	-0.162106	-0.222145	0.421811	2.097123	9.794046	-1.174147	1.611389	1.200338	0.314516	-0.816691	-0.787324	9.32454	2.856494	0.222816	-1.208583	0.956887	-2.476192	-1.37145	-0.124635	0.046226
-4.13334	2.130106	8.612677	2.832663	3.882983	-1.236275	0.594387	-0.180117	-0.222145	-0.157226	1.182369	9.542636	-2.041848	1.378969	1.565305	0.299545	-0.79556	-0.823924	9.141227	2.62502	-0.423359	-1.397028	0.865908	-2.783278	-1.336823	-0.173621	0.015755
-3.851412	2.473857	8.323604	3.173091	3.929896	-1.244285	0.606395	-0.174113	-0.240156	-0.036542	1.41159	9.842575	-2.471509	1.477725	1.720745	0.313753	-0.795226	-0.84167	9.37384	2.682857	-0.185155	-1.21925	0.804755	-3.066008	-1.354696	-0.10332	0.008006
-4.026452	2.416395	8.201886	2.793512	3.395278	-1.23813	0.606395	-0.168109	-0.228148	0.125445	1.524592	9.311588	-2.442169	1.355485	1.471534	0.299632	-0.812468	-0.876735	9.382626	2.913976	0.282523	-1.006201	0.742786	-3.133688	-1.302075	-0.087994	0.025335
-4.31145	2.532313	8.373861	2.979074	3.26555	-1.151872	0.594387	-0.156102	-0.228148	0.476512	1.352535	9.556046	-1.948268	1.408872	1.38069	0.327763	-0.777223	-0.824464	9.496422	3.085888	0.285433	-0.998444	0.403246	-3.020234	-1.283994	-0.142675	0.049542
-4.191075	2.187702	8.611693	2.470163	3.319716	-0.590077	0.600391	-0.162106	-0.210137	-0.150357	2.27066	10.020199	-0.93869	1.024465	1.097622	0.314828	-0.835119	-0.804415	8.975308	2.97051	-0.133761	-0.609905	0.434267	-3.366198	-1.337332	-0.136589	-0.006297
-4.190981	2.762775	8.672186	2.429934	3.014929	-0.743383	0.600391	-0.162106	-0.198129	0.188835	2.097445	9.670455	-1.402304	0.909956	1.002117	0.298808	-0.757946	-0.807601	9.495369	3.028316	0.226869	0.007146	0.277887	-3.167219	-1.319962	-0.119136	-0.007872
-4.315231	2.76187	8.197103	3.156607	3.200607	-0.271891	0.600391	-0.162106	-0.222145	0.424602	1.925665	9.912539	-1.219271	0.844907	1.124816	0.32915	-0.835544	-0.804301	9.488084	2.567951	-0.183285	0.435727	0.307351	-3.082469	-1.318628	-0.14441	0.067285
-3.904552	2.474516	8.558899	3.722145	3.727564	-0.252106	0.606395	-0.168109	-0.234152	0.709349	1.409443	9.679752	-1.686069	0.516609	0.778411	0.327875	-0.777983	-0.806605	9.435871	3.142717	0.109431	1.347982	0.30553	-3.224062	-1.336099	-0.144312	0.066994
-4.35683	2.591437	9.023027	3.96622	3.899965	-0.470592	0.594387	-0.168109	-0.210137	0.079888	1.926612	9.964834	-1.656707	0.424405	0.684162	0.342084	-0.777649	-0.82435	9.658733	2.854501	-0.178816	1.713932	0.766005	-2.909975	-1.354596	-0.120871	0.009871
-4.019208	2.762328	8.616451	4.780544	3.989715	-0.123807	0.600391	-0.168109	-0.222145	0.016715	1.754482	9.666197	-1.071967	0.444484	0.839963	0.342621	-0.797595	-0.805723	9.606542	2.683331	0.05284	2.022557	0.795451	-2.730351	-1.301874	-0.123095	0.029064
-4.423139	2.417949	8.548651	4.599609	4.638546	-0.359721	0.594387	-0.156102	-0.234152	0.359054	1.753304	9.495062	-1.962684	0.551755	0.840327	0.285761	-0.815081	-0.805411	9.718926	3.027126	-0.001982	1.899878	0.795856	-2.758713	-1.354079	-0.107182	0.044652
-4.539433	2.993089	8.547793	3.962975	4.788928	-0.007806	0.600391	-0.156102	-0.210137	0.073455	1.639769	9.607733	-1.871413	0.488932	0.80848	0.358018	-0.837913	-0.768354	9.713211	3.026087	-0.293761	1.954267	1.012036	-2.907756	-1.318628	-0.14441	0.067285
-4.249222	2.475272	8.611264	3.746083	4.645343	0.057655	0.600391	-0.156102	-0.216141	0.526978	1.866884	9.261176	-1.471117	0.48238	0.747289	0.327763	-0.777223	-0.824464	9.610219	3.2578	0.288343	1.773999	1.012061	-2.780849	-1.302082	-0.138715	0.012606
-4.474753	2.821339	8.903127	3.331808	4.817881	0.617834	0.612399	-0.168109	-0.210137	0.016992	1.640023	9.665966	-1.222589	0.60095	0.749837	0.341347	-0.740034	-0.808027	9.488869	2.797614	-0.124097	1.731436	1.229312	-3.174528	-1.336508	-0.12483	0.046807
-4.077954	2.129725	8.495591	4.073374	4.603956	0.751098	0.594387	-0.162106	-0.216141	-0.041569	1.525586	9.605126	-0.69875	0.592825	0.565292	0.313441	-0.776798	-0.824578	8.974613	2.683484	-0.193156	1.328136	1.139069	-3.53895	-1.37135	-0.142185	0.048091
-4.369588	2.187316	8.3128	2.60832	4.667701	1.366715	0.594387	-0.162106	-0.222145	-0.099219	1.525725	9.603939	-0.726543	0.68686	0.227185	0.356518	-0.778833	-0.806377	9.544937	2.682589	-0.181726	1.244861	0.676652	-3.488836	-1.354388	-0.105251	0.026329
-4.371226	2.474645	8.25439	3.500521	4.874003	1.102153	0.594387	-0.162106	-0.222145	0.180443	1.638681	9.194167	-0.488038	0.283557	0.25129	0.342509	-0.796836	-0.823583	9.492656	2.568783	0.050138	0.902118	0.432539	-3.982165	-1.35418	-0.089631	0.042788
-4.305525	2.360527	8.668968	2.12144	5.482262	1.139194	0.588383	-0.174113	-0.210137	0.418031	1.696052	9.555554	-0.053724	0.430327	0.100239	0.284711	-0.75904	-0.771996	9.145621	2.740579	-0.189519	1.028472	0.000955	-4.08949	-1.266832	-0.140842	0.031509
-4.472909	2.419024	8.961259	2.558495	6.25788	0.827966	0.594387	-0.156102	-0.204133	-0.211867	1.411774	9.720172	0.002466	0.152931	0.126273	0.284686	-0.775188	-0.842666	9.153085	3.086217	0.220219	0.722355	-0.151912	-4.241863	-1.354495	-0.138422	0.011735
-3.900471	2.705045	8.795873	2.614375	6.651238	0.371278	0.606395	-0.162106	-0.210137	0.13061	1.353366	9.548921	-0.67589	0.042876	-0.154836	0.314716	-0.834359	-0.822274	9.152031	3.028645	0.161655	0.695498	-0.213918	-4.119793	-1.319761	-0.154237	-0.004143
-4.130588	2.475483	8.790824	1.01093	7.908247	-0.284131	0.588383	-0.174113	-0.216141	0.014479	1.697021	9.547241	-0.499472	-0.329997	0.178555	0.342509	-0.796836	-0.823583	9.548098	2.855304	-0.006035	0.717325	0.187205	-4.232081	-1.319144	-0.158099	0.032503
-4.594913	2.418396	8.604386	0.797262	9.137768	-0.942989	0.588383	-0.180117	-0.222145	0.371483	1.525544	10.0888	-0.693781	-0.818296	0.262161	0.29892	-0.758705	-0.789741	9.265311	2.798804	0.104754	0.413711	0.003192	-4.292916	-1.336917	-0.105349	0.026619
-4.768521	2.188593	8.541356	0.164806	10.569837	-1.224425	0.606395	-0.162106	-0.210137	0.136707	2.269851	9.966716	-0.604955	-1.004013	0.259003	0.285111	-0.794375	-0.841898	9.258542	2.740192	-0.245589	0.388208	0.033248	-4.044942	-1.319962	-0.119136	-0.007872
-4.757092	2.707561	9.192756	-0.038728	11.95298	-1.60809	0.606395	-0.168109	-0.234152	0.416289	1.924854	9.496597	-0.605875	-1.035096	0.351102	0.32895	-0.817876	-0.76935	9.66418	3.027632	0.113587	0.242795	-0.398087	-4.023523	-1.319653	-0.121067	0.010451
-4.474135	2.476378	8.902294	0.475317	13.429288	-1.795129	0.594387	-0.168109	-0.24616	0.014835	2.040515	9.607357	-0.793458	-1.215442	0.193133	0.343046	-0.816782	-0.804955	9.547471	3.25685	-0.004579	0.316564	-0.892347	-3.792503	-1.3362	-0.126761	0.06513
-4.183222	2.821241	9.086057	0.158743	14.788213	-1.779608	0.594387	-0.168109	-0.222145	0.249335	1.410666	9.729672	-0.982723	-1.397749	0.498403	0.314291	-0.815172	-0.823042	9.377875	3.027871	0.049516	0.320231	-1.231254	-3.863903	-1.336508	-0.12483	0.046807
-4.410587	2.937056	9.259155	2.995598	16.290591	-1.778942	0.606395	-0.168109	-0.210137	0.189448	1.353343	9.609529	-1.04147	-1.243378	0.531939	0.327875	-0.777983	-0.806605	9.721054	2.396334	0.054086	0.69192	-1.386826	-3.721647	-1.284711	-0.121262	0.011032
-4.649185	3.051483	8.841208	4.823174	18.167478	-2.758262	0.612399	-0.162106	-0.216141	-0.045903	1.353434	9.367098	-0.953899	-1.46057	0.713528	0.285648	-0.814322	-0.82327	9.601612	2.911954	-0.179751	1.235222	-1.325773	-3.946546	-1.302082	-0.138715	0.012606
-4.475165	3.051313	8.903683	3.035769	20.042435	-3.741187	0.600391	-0.162106	-0.216141	0.025028	1.755293	10.082139	-1.196329	-1.211898	0.964623	0.328612	-0.815597	-0.822928	9.612684	3.143489	0.404639	1.782155	-1.234526	-3.985701	-1.336415	-0.193102	0.035942
-4.543926	2.992534	8.311375	2.19381	21.967652	-5.204389	0.618402	-0.168109	-0.216141	-0.049802	1.982729	9.249532	-0.826138	-1.217141	0.718093	0.329574	-0.854731	-0.803533	9.613131	2.85667	0.403599	2.502279	-0.803869	-4.23441	-1.300949	-0.128887	0.084033
-4.418646	2.418504	8.785069	1.629816	23.454199	-6.402318	0.618402	-0.156102	-0.228148	0.073812	1.983262	9.667848	-1.285244	-0.996275	1.153626	0.299232	-0.777133	-0.806833	9.386413	2.685145	0.456758	3.233116	-0.774729	-4.279015	-1.337024	-0.13852	0.012025
-4.64969	2.706383	8.78127	1.726879	24.701506	-7.007597	0.606395	-0.174113	-0.216141	0.531313	2.039037	9.499204	-1.649675	-0.774235	0.940757	0.32765	-0.776464	-0.842324	9.501263	2.914629	0.518232	4.144665	-0.684168	-4.387131	-1.301566	-0.125026	0.047387
-5.000997	2.648813	8.478869	1.222669	26.067878	-7.078985	0.606395	-0.174113	-0.222145	0.418307	1.581592	9.555322	-1.579696	-0.285278	1.196683	0.343246	-0.83445	-0.839906	9.78553	3.487818	0.526027	5.053225	-0.254807	-4.393037	-1.302182	-0.121165	0.010741
-4.824113	2.30396	8.658719	1.868868	27.265387	-6.78276	0.594387	-0.168109	-0.204133	0.200492	1.69788	10.204426	-1.853732	-0.09707	1.353989	0.330224	-0.875437	-0.767046	9.217602	2.685829	0.570041	6.268825	-0.011063	-4.441207	-1.301974	-0.105545	0.0272
-4.600735	2.532689	8.309141	1.262924	27.750003	-6.643215	0.612399	-0.162106	-0.204133	0.477779	1.810604	9.675814	-2.433993	0.188189	1.574265	0.299857	-0.813987	-0.841016	9.157836	2.972322	0.453226	7.298942	0.079728	-4.705817	-1.354294	-0.173523	0.015464
-4.767295	2.131238	8.600321	2.482379	28.158941	-6.365468	0.63041	-0.162106	-0.210137	-0.153168	1.468981	9.780896	-1.756318	0.267423	1.885709	0.328612	-0.815597	-0.822928	9.32945	3.373807	0.516467	8.409381	0.510363	-5.239765	-1.337024	-0.13852	0.012025
-4.765254	2.246503	8.718808	3.288755	28.465999	-5.315636	0.606395	-0.162106	-0.222145	0.067933	1.467501	9.310284	-2.680463	0.2821	2.131445	0.314403	-0.815932	-0.805183	9.493868	3.257563	0.169345	9.505701	0.661708	-5.226537	-1.354596	-0.120871	0.009871
-5.576496	2.189895	8.466526	3.932084	28.656545	-4.506545	0.612399	-0.168109	-0.186121	0.371206	1.640003	10.089032	-1.905147	0.576035	2.107152	0.343046	-0.816782	-0.804955	9.37375	2.740221	-0.184947	10.30769	1.647262	-5.522694	-1.319137	-0.107377	0.045233
-5.40329	2.017106	8.469479	3.815971	28.845533	-4.350107	0.618402	-0.174113	-0.198129	0.305244	1.639331	9.671903	-2.951251	0.624154	2.198847	0.313979	-0.796745	-0.805951	9.208885	3.143283	0.163214	11.270377	2.262073	-5.709345	-1.336508	-0.12483	0.046807
-5.182261	2.30305	8.00183	5.004168	29.133701	-4.011281	0.612399	-0.168109	-0.204133	0.242705	1.696235	9.433151	-2.884544	0.929228	2.389716	0.343133	-0.83369	-0.857765	9.03745	2.62707	0.099558	11.815	2.415186	-5.808341	-1.371249	-0.159736	0.049955
-4.833819	2.705303	8.186855	4.987278	29.563572	-3.764353	0.624406	-0.162106	-0.192125	0.187211	1.295882	9.490572	-2.942843	1.084122	2.299722	0.329687	-0.85549	-0.785674	8.977236	3.200381	-0.016217	12.102199	2.97083	-6.229786	-1.336823	-0.173621	0.015755
-5.350057	2.591521	8.294677	4.766462	30.613882	-3.447883	0.636414	-0.162106	-0.210137	0.192515	1.067427	9.72779	-2.755479	1.264207	2.519457	0.370727	-0.778499	-0.824123	9.383411	3.143639	0.341711	12.366881	3.217735	-6.505464	-1.336006	-0.212584	0.056129
-5.170018	2.994638	8.712751	5.174056	31.817964	-3.969457	0.624406	-0.168109	-0.186121	0.255411	1.354016	10.026657	-3.273771	1.518904	2.461329	0.299657	-0.79632	-0.806065	9.605199	3.543787	0.05596	12.5749	3.310331	-6.691937	-1.301473	-0.193298	0.036523
-4.991094	2.76505	9.011088	5.853058	33.227909	-3.733812	0.63041	-0.174113	-0.204133	0.418446	1.524363	9.555206	-3.736792	1.465123	2.521335	0.314091	-0.797504	-0.788092	8.874154	3.489458	0.566094	12.38169	3.312368	-7.150411	-1.371558	-0.157805	0.031632
-5.458479	2.535066	8.646919	6.54163	35.645522	-3.767149	0.648422	-0.156102	-0.204133	-0.038144	1.583163	9.783503	-4.130395	1.749592	2.185988	0.285648	-0.814322	-0.82327	9.148671	3.716594	0.047439	12.581745	3.52923	-7.610615	-1.301164	-0.195229	0.054845
-5.748176	2.765416	8.582754	6.811152	37.711921	-4.21939	0.63041	-0.174113	-0.198129	0.123565	1.810624	9.252747	-2.960368	1.730329	2.033253	0.313554	-0.777558	-0.806719	9.030661	3.314395	-0.189726	12.724919	3.468787	-8.077601	-1.335999	-0.161862	0.068859
-5.399518	2.420115	8.706869	7.593959	40.12582	-4.194028	0.63041	-0.162106	-0.192125	0.194001	1.926219	9.907788	-2.713135	1.75735	1.910624	0.299545	-0.79556	-0.823924	9.20308	3.199607	-0.128357	12.625895	3.839267	-8.157523	-1.301573	-0.175747	0.034658
-5.399621	2.477609	8.707008	8.698387	42.558714	-3.718799	0.624406	-0.162106	-0.204133	0.136132	1.525634	9.84637	-3.081788	1.734388	1.569837	0.299432	-0.7948	-0.841784	8.865905	2.914158	0.097168	12.436535	3.994491	-8.334265	-1.301157	-0.144507	0.067575
-5.510701	2.650851	8.941596	10.227026	44.57148	-4.415508	0.63041	-0.162106	-0.192125	0.023287	1.984096	10.023182	-3.265184	1.769008	1.384825	0.284486	-0.757521	-0.807715	9.02591	3.428291	-0.422733	12.197537	4.209615	-7.953426	-1.371249	-0.159736	0.049955
-5.226415	2.30482	8.709961	11.231309	46.610861	-3.970614	0.618402	-0.180117	-0.180117	0.360577	1.123778	9.493787	-2.122917	1.903854	1.203905	0.299232	-0.777133	-0.806833	8.917222	2.913028	-0.193468	11.622393	4.333396	-7.660954	-1.301157	-0.144507	0.067575
-5.689008	2.535478	8.642426	11.669868	48.362684	-4.825344	0.63041	-0.150098	-0.174113	-0.042756	1.52547	9.545706	-1.509058	1.80143	1.172261	0.341971	-0.776889	-0.84221	8.288613	3.717105	-0.203129	11.131906	4.642555	-7.549841	-1.283693	-0.195327	0.055136
-6.162936	2.822241	7.983984	12.018385	49.478085	-5.193462	0.648422	-0.186121	-0.174113	0.418723	1.409903	9.554974	-2.649142	1.729143	1.076333	0.312254	-0.736146	-0.879693	8.914757	3.02734	-0.309763	10.488714	4.829093	-7.531655	-1.318937	-0.142479	0.048962
-5.752257	2.534887	8.34578	13.31349	50.613369	-5.981051	0.642418	-0.150098	-0.174113	-0.046596	1.639582	9.367677	-2.647415	1.791178	0.923017	0.299657	-0.79632	-0.806065	8.973449	3.429212	-0.190453	9.820708	4.953309	-7.298968	-1.353986	-0.175454	0.033787
-5.920558	2.478258	8.578689	11.122782	52.417892	-5.856377	0.636414	-0.174113	-0.174113	0.192734	1.46815	9.788021	-2.705064	1.91682	0.492767	0.312592	-0.738424	-0.826114	8.915721	3.142275	-0.250992	9.279246	4.95349	-6.949047	-1.318636	-0.195131	0.054555
-6.442318	2.938854	8.451482	13.191522	53.800295	-5.624186	0.642418	-0.168109	-0.192125	-0.040578	2.098114	9.725125	-2.922239	1.828417	0.490812	0.313641	-0.794466	-0.859529	8.864404	3.143404	0.039644	8.788295	5.293476	-6.837045	-1.336408	-0.142381	0.048671
-6.448131	2.42058	8.095605	14.13629	55.232406	-4.723765	0.648422	-0.174113	-0.156102	0.366179	1.753999	9.851583	-2.333253	1.973482	0.123803	0.29912	-0.776373	-0.824692	8.520529	3.487916	-0.024322	8.728189	5.508785	-6.644738	-1.353269	-0.196866	0.072298
-6.152612	2.075938	8.455015	15.561565	57.196108	-3.526912	0.66043	-0.168109	-0.180117	-0.031376	1.240365	10.079908	-2.979911	1.924023	-0.094399	0.341234	-0.739275	-0.825886	8.516584	3.085538	-0.259201	8.839905	6.063703	-6.723607	-1.318829	-0.109308	0.063555
-6.198816	2.595009	9.105292	18.219396	58.375899	-1.967965	0.648422	-0.156102	-0.162106	0.307262	1.296068	9.730628	-4.058351	2.000871	0.584568	0.314291	-0.815172	-0.823042	8.858599	3.199728	-0.251927	9.614359	6.987327	-6.928505	-1.319761	-0.154237	-0.004143
-6.433735	2.537372	8.864242	22.989236	59.708744	-1.222137	0.66043	-0.180117	-0.162106	0.418446	1.524363	9.555206	-4.187933	1.575259	0.113474	0.313554	-0.777558	-0.806719	8.635042	3.200918	-0.023076	10.18192	7.87969	-6.852721	-1.318836	-0.16003	0.050826
-6.614494	2.536709	8.44714	25.223869	61.670128	0.199091	0.648422	-0.162106	-0.168109	-0.214104	1.354313	9.601216	-6.780416	1.310677	0.505753	0.300082	-0.815507	-0.805297	8.917222	2.913028	-0.193468	11.334168	8.646789	-6.638073	-1.336314	-0.210653	0.037807
-6.902244	2.30725	8.440968	27.926303	63.612674	1.791884	0.672438	-0.168109	-0.162106	0.075058	1.468195	9.666806	-6.135275	1.238289	0.505583	0.313441	-0.776798	-0.824578	9.144905	3.199489	-0.187856	12.33162	9.752932	-6.287344	-1.265914	-0.197355	0.073749
-6.781054	2.135258	8.738321	32.898591	64.974796	4.271853	0.66043	-0.186121	-0.156102	-0.089362	1.870145	10.139416	-6.472426	1.305698	0.444429	0.327338	-0.758037	-0.825232	8.634525	2.799164	-0.082887	13.228022	10.953043	-6.301828	-1.318636	-0.195131	0.054555
-7.081674	2.191739	8.082693	37.760044	65.759267	6.446156	0.678442	-0.180117	-0.144094	0.192318	1.639839	9.788369	-5.955169	0.989749	0.470577	0.299545	-0.79556	-0.823924	8.805622	2.798896	-0.079458	14.001051	12.338192	-6.246908	-1.301573	-0.175747	0.034658
-6.971211	2.363457	7.848938	40.50313	66.659862	7.90999	0.678442	-0.162106	-0.156102	-0.046377	2.040306	9.427909	-5.243684	1.192007	0.598963	0.284911	-0.776708	-0.806947	8.97495	3.199965	-0.132929	14.393563	13.291252	-5.765152	-1.301265	-0.177678	0.052981
-7.024247	2.306622	8.084094	40.978536	66.193615	10.885507	0.666434	-0.168109	-0.144094	0.010639	1.811133	9.369212	-5.210397	1.254434	0.229513	0.313866	-0.795985	-0.82381	8.916954	3.085119	-0.192844	14.574	13.783283	-5.538928	-1.300856	-0.19716	0.073168
-6.695714	2.533895	7.204821	45.213929	65.198675	12.729285	0.678442	-0.192125	-0.144094	0.194198	1.353807	9.847209	-5.271254	1.286303	0.199091	0.327338	-0.758037	-0.825232	8.569313	2.912525	-0.492105	13.927155	14.308687	-5.449341	-1.284511	-0.156364	0.014761
-7.220114	1.959054	6.838696	46.374535	64.207386	13.976706	0.678442	-0.180117	-0.126082	0.478887	1.352767	9.674886	-5.086195	1.223608	-0.234096	0.327763	-0.777223	-0.824464	8.973201	2.855367	-0.250888	12.979467	14.37287	-5.490213	-1.336107	-0.195033	0.054265
-6.876061	2.303258	6.787164	43.667629	62.27828	15.587392	0.678442	-0.168109	-0.13809	0.245495	1.524778	9.551644	-5.916388	1.208638	-0.606427	0.299545	-0.79556	-0.823924	9.304502	2.508568	-0.828836	11.938694	14.406768	-5.622567	-1.301673	-0.158197	0.032793
-6.826806	2.58965	6.37525	47.558665	60.072257	16.883461	0.66043	-0.192125	-0.132086	0.079313	1.182395	9.844487	-5.087652	1.071855	-0.638312	0.32765	-0.776464	-0.842324	9.424262	3.255365	-0.473711	10.415215	14.041228	-5.7875	-1.301473	-0.193298	0.036523
-7.005824	2.244165	6.016419	46.164986	58.182285	19.042137	0.678442	-0.186121	-0.120078	-0.213609	1.640577	9.661216	-3.151634	0.825439	-0.979076	0.328187	-0.79641	-0.823696	9.358085	3.253791	-0.941701	9.133877	13.798395	-5.953772	-1.301989	-0.206987	0.001741
-6.611693	2.414814	5.551862	47.17694	55.36324	20.496268	0.672438	-0.198129	-0.132086	0.365961	1.353275	9.791352	-4.170252	0.68915	-0.952394	0.285648	-0.814322	-0.82327	9.645534	3.253759	-0.819274	7.756054	13.341271	-6.494149	-1.301164	-0.195229	0.054845
-6.773264	2.991585	6.200031	44.183496	51.792956	21.677398	0.678442	-0.198129	-0.126082	0.074919	1.525425	9.666921	-2.942171	0.484695	-1.10833	0.299857	-0.813987	-0.841016	9.593879	2.738407	-0.588866	5.708402	12.762591	-7.055432	-1.301265	-0.177678	0.052981
-6.266517	2.759157	5.559435	48.115309	46.039007	23.257201	0.684445	-0.198129	-0.114074	0.074643	1.639884	9.667153	-1.624094	0.185941	-1.111368	0.29847	-0.755667	-0.861179	9.239269	3.367865	-1.176994	3.81962	11.751964	-7.632227	-1.302297	-0.205057	-0.016582
-5.528024	3.101529	5.04293	50.526912	36.459449	23.570535	0.678442	-0.204133	-0.120078	0.297128	1.066107	9.195383	-1.471544	0.061735	-1.391283	0.356206	-0.760406	-0.789286	9.699674	2.908864	-0.994446	2.30498	10.831431	-7.782361	-1.301057	-0.162058	0.069439
-4.852153	2.465783	4.168313	52.491044	24.699774	24.675478	0.696453	-0.204133	-0.10807	0.358975	1.295351	9.434715	-0.703952	-0.073477	-1.546785	0.326575	-0.736571	-0.879579	10.170008	2.681188	-0.285864	0.258658	9.883454	-8.53918	-1.266638	-0.226664	0.022509
-2.10356	1.711066	3.215647	47.660202	8.689812	23.938069	0.702457	-0.204133	-0.120078	0.64681	1.466347	9.441	-0.460851	-0.321365	-1.983174	0.341772	-0.759221	-0.807259	9.877003	3.311389	-0.639427	-1.232798	9.086992	-8.93285	-1.336931	-0.206792	0.001161
0.435226	1.304359	3.382307	24.314042	-9.119769	14.945455	0.678442	-0.198129	-0.114074	0.303007	1.581869	9.552947	-0.214904	-0.355856	-2.076017	0.32745	-0.758796	-0.807373	9.943001	3.427691	-0.171021	-2.297284	8.474018	-9.20651	-1.28441	-0.173914	0.016625
3.34433	-0.250056	4.735021	1.618916	-27.132427	0.567125	0.690449	-0.222145	-0.114074	0.134588	1.182025	9.726834	-0.062446	-0.450157	-2.170088	0.312704	-0.739184	-0.808255	9.762422	2.909814	-0.701524	-3.265703	7.552544	-9.4909	-1.302598	-0.152404	-0.022175
1.724549	0.449378	7.482027	-14.874428	-46.613773	-17.690641	0.690449	-0.222145	-0.102066	0.076187	1.983494	9.786689	-0.622077	-0.717462	-2.05229	0.342621	-0.797595	-0.805723	10.282124	3.197075	-0.340062	-4.025174	6.662005	-9.963546	-1.336214	-0.228204	0.039671
3.409588	-0.932061	8.102314	-11.816827	-63.940837	-27.381305	0.690449	-0.204133	-0.120078	0.076661	1.296622	9.725878	-0.132872	-0.939637	-2.302483	0.283862	-0.720666	-0.773532	10.051192	2.795263	-0.521158	-3.902441	6.107973	-10.320914	-1.319044	-0.175649	0.034368
2.028969	-1.101793	8.193148	-16.378287	-78.564597	-37.145095	0.678442	-0.210137	-0.114074	0.069813	1.181468	9.369125	-0.196035	-1.000494	-2.180138	0.299232	-0.777133	-0.806833	10.058498	2.509692	-0.172063	-3.678879	5.429239	-10.344763	-1.266129	-0.263697	0.044561
0.762191	-1.731956	8.166909	-15.89895	-88.253622	-45.264111	0.690449	-0.204133	-0.114074	0.194613	1.182118	9.846862	-0.841959	-0.989095	-2.273713	0.285423	-0.812803	-0.858989	9.776654	3.314063	0.058557	-2.759518	4.995723	-10.468002	-1.283693	-0.195327	0.055136
-0.236549	-1.79006	7.142897	-26.998329	-99.264599	-38.774925	0.684445	-0.198129	-0.10807	0.077295	1.525657	9.785762	-0.719893	-1.022405	-2.150555	0.342934	-0.816023	-0.822815	9.486583	2.797198	-0.240809	-2.297004	4.840038	-10.358386	-1.301989	-0.206987	0.001741
-1.198017	-1.958568	8.069058	-45.793459	-112.032884	-24.513765	0.678442	-0.198129	-0.126082	0.248563	1.238861	9.669905	-0.507454	-1.269638	-2.61787	0.284174	-0.739093	-0.790623	9.43614	2.970626	0.108807	-1.92284	5.022414	-9.867429	-1.302505	-0.220676	-0.03304
-2.053627	-1.265853	8.585816	-58.476855	-122.409678	-6.298642	0.672438	-0.204133	-0.126082	0.022296	1.411568	9.903183	0.01369	-1.280902	-2.061236	0.298158	-0.73724	-0.844088	9.941968	2.624183	-0.290644	-1.553208	5.05171	-9.689021	-1.318944	-0.1932	0.036232
-1.990089	-0.172608	9.00331	-69.193423	-129.687478	11.888463	0.666434	-0.186121	-0.144094	0.367505	1.696885	9.910887	0.568945	-1.318804	-2.58599	0.327338	-0.758037	-0.825232	9.31302	2.911778	-0.360534	-1.004911	5.235013	-9.602269	-1.301473	-0.193298	0.036523
-1.580654	0.862525	9.427405	-70.14548	-134.792515	25.367432	0.648422	-0.192125	-0.144094	0.071634	1.410618	9.488429	0.412183	-1.4396	-2.433993	0.32765	-0.776464	-0.842324	9.484297	2.796782	-0.357521	-1.146276	5.264415	-9.074548	-1.284819	-0.154433	-0.003562
-1.467757	2.184669	9.432845	-68.350932	-138.449071	32.198306	0.666434	-0.186121	-0.150098	0.360934	1.467271	9.553903	0.195375	-1.497574	-2.373635	0.3283	-0.79717	-0.805837	9.374287	2.396039	-0.186195	-0.949185	5.231021	-8.462908	-1.28421	-0.209016	0.020354
-1.473981	1.896368	9.077524	-68.201372	-140.505174	32.152324	0.642418	-0.198129	-0.180117	0.188399	1.295998	9.549993	0.932402	-1.481948	-1.785261	0.29912	-0.776373	-0.824692	9.594843	2.853343	-0.530094	-0.837673	5.073905	-7.668134	-1.283486	-0.179707	0.071594
-2.09896	2.531178	9.598637	-70.984364	-141.25784	29.16451	0.642418	-0.192125	-0.156102	0.534796	1.581431	9.617117	1.116551	-1.545689	-1.971387	0.299007	-0.775614	-0.842552	9.259417	2.912491	-0.186609	-1.125402	5.102729	-6.860072	-1.337132	-0.17169	-0.002568
-2.736284	2.531894	9.408967	-71.066771	-141.1799	24.986952	0.642418	-0.192125	-0.168109	0.192515	1.067427	9.72779	0.744172	-1.633041	-1.602974	0.341547	-0.757702	-0.842978	8.916706	2.511274	-0.253279	-1.436787	4.853753	-5.936169	-1.30158	-0.226469	0.021929
-3.372271	1.785195	9.217492	-69.017152	-139.899917	22.320576	0.63041	-0.198129	-0.180117	0.186519	1.58203	9.491152	1.416643	-1.889967	-1.637272	0.32745	-0.758796	-0.807373	9.088946	2.511214	-0.191494	-2.16907	4.973959	-4.469275	-1.300856	-0.19716	0.073168
-4.059571	1.901973	9.440709	-68.735378	-137.556838	22.144146	0.63041	-0.186121	-0.186121	0.250879	1.754276	9.849208	2.27182	-2.182298	-1.301266	0.312929	-0.740703	-0.772536	9.255988	2.911867	-0.361677	-2.808699	4.878463	-3.102881	-1.284217	-0.259737	0.007625
-5.090615	1.502067	9.715041	-70.133623	-133.941471	24.151617	0.612399	-0.162106	-0.198129	0.30552	1.524871	9.671672	2.420418	-2.491172	-1.460942	0.327338	-0.758037	-0.825232	9.201172	2.2238	-0.30696	-3.806859	5.059515	-1.197405	-1.284926	-0.187604	-0.018156
-5.443466	2.306898	9.414723	-73.816838	-129.432644	26.799532	0.618402	-0.168109	-0.192125	-0.042064	1.239322	9.545127	3.220361	-2.565003	-1.738833	0.299432	-0.7948	-0.841784	8.851583	2.567272	-0.662705	-4.865128	5.363605	0.836063	-1.267763	-0.185771	-0.036189
-5.912901	2.594217	8.992699	-74.820816	-124.518146	28.865969	0.600391	-0.168109	-0.216141	0.30273	1.696329	9.553179	3.465378	-2.630578	-1.739576	0.299007	-0.775614	-0.842552	8.856602	2.281285	-0.430322	-6.130081	5.574888	3.117584	-1.319868	-0.187408	-0.018737
-6.949468	2.768689	9.032002	-71.694096	-121.403842	29.418076	0.600391	-0.168109	-0.204133	0.307816	1.06715	9.730165	2.8089	-3.141706	-1.657181	0.313016	-0.757611	-0.825346	8.68629	2.511216	-0.374563	-7.845748	5.878506	5.780608	-1.30158	-0.226469	0.021929
-7.254289	3.917267	8.260804	-66.321161	-118.551097	26.405257	0.588383	-0.168109	-0.222145	-0.205376	1.183435	10.01681	4.375399	-3.32189	-1.657672	0.328525	-0.798689	-0.770118	8.34172	2.568701	-0.497925	-9.719594	5.875807	7.975653	-1.301989	-0.206987	0.001741
-7.946382	3.573403	8.187387	-61.669981	-114.545606	21.158928	0.570371	-0.174113	-0.222145	-0.040599	1.124979	9.604315	5.516036	-3.278855	-1.902	0.299545	-0.79556	-0.823924	8.911975	1.879234	-0.547346	-11.165307	5.9334	10.256302	-1.301573	-0.175747	0.034658
-9.043539	3.517588	8.047697	-57.822945	-107.852132	14.239293	0.570371	-0.174113	-0.222145	0.247455	1.696699	9.670832	5.852824	-3.316619	-1.593238	0.328725	-0.816357	-0.805069	8.615025	2.107056	-1.135787	-12.89532	5.962426	12.079445	-1.266638	-0.226664	0.022509
-9.973517	3.518263	7.615993	-54.748481	-97.699902	7.450158	0.570371	-0.180117	-0.222145	0.202016	1.068353	10.203151	4.931297	-3.208954	-1.562035	0.327537	-0.775704	-0.860183	8.800196	1.879829	-0.43292	-14.772166	5.837157	14.05521	-1.267455	-0.187702	-0.017866
-10.556167	3.288486	7.249577	-50.616635	-84.800439	2.603804	0.570371	-0.150098	-0.234152	0.656369	0.952091	9.855898	4.281153	-3.352578	-1.287763	0.313866	-0.795985	-0.82381	8.681738	1.764448	-0.669046	-16.503787	5.65113	15.656449	-1.283901	-0.210947	0.038677
-31.382254	43.577719	33.883847	-139.138902	159.361139	-158.953156	0.55236	-0.162106	-0.252164	0.659735	1.524851	10.094738	5.998188	-3.599249	-0.702363	0.313329	-0.776039	-0.842438	8.680575	2.510176	-0.666342	-17.183512	5.464919	16.527737	-1.249784	-0.222901	-0.013846
-17.834412	11.680851	0.983695	157.565101	137.83444	-120.596587	0.570371	-0.162106	-0.234152	0.417535	1.409787	9.495554	5.375305	-3.957579	-0.586298	0.313979	-0.796745	-0.805951	8.793139	2.739244	-0.72158	-15.537908	5.870278	13.948172	-1.319252	-0.191269	0.017909
-19.975515	12.531718	-5.495933	305.111961	82.681107	-99.472521	0.564367	-0.174113	-0.252164	-0.031158	1.641088	10.14014	5.000142	-4.048201	0.55418	0.3283	-0.79717	-0.805837	8.969235	3.198925	-0.424708	-14.781875	5.658785	12.108486	-1.26643	-0.211044	0.038968
-36.320272	0.264684	-2.772345	30.291548	50.952869	-11.211714	0.576375	-0.186121	-0.234152	0.134311	1.296484	9.727066	3.058149	-3.959031	1.787799	0.313129	-0.758371	-0.807487	9.382695	3.602548	0.343374	-13.259436	5.506337	10.470908	-1.319761	-0.154237	-0.004143
-2.196146	9.685747	-3.915578	62.889287	-50.864183	58.16278	0.576375	-0.198129	-0.240156	0.018734	1.41122	9.724922	1.525987	-3.47508	2.411472	0.356943	-0.79802	-0.805609	10.017964	3.660383	0.764646	-8.837051	5.817095	6.445973	-1.302806	-0.168024	-0.038634
2.749576	7.346738	7.518911	-135.87858	19.376023	7.320587	0.576375	-0.192125	-0.222145	0.370019	1.639887	10.029612	2.947275	-3.04236	3.255564	0.343046	-0.816782	-0.804955	9.794516	2.858273	0.93223	-10.94558	6.095016	7.883124	-1.303215	-0.148543	-0.058821
3.804953	2.753845	11.07317	-52.945078	-17.79233	-67.013002	0.570371	-0.174113	-0.234152	0.645426	2.038644	9.442159	4.863768	-2.674699	2.987488	0.313866	-0.795985	-0.82381	9.975116	2.630214	1.401674	-9.253721	5.960998	9.787354	-1.319553	-0.138617	0.012316
-5.226325	0.184331	11.540718	-103.835368	5.116086	-48.261697	0.564367	-0.168109	-0.234152	0.484766	1.868529	10.032451	7.601204	-2.902874	2.370474	0.284911	-0.776708	-0.806947	9.797339	2.514507	1.047694	-7.40203	5.553315	10.447635	-1.302605	-0.203126	-0.034905
-5.691501	2.484893	11.537287	-36.359022	32.020094	-12.231687	0.582379	-0.162106	-0.228148	0.423968	1.696631	9.852655	9.200019	-3.141694	1.596864	0.284799	-0.775948	-0.824806	9.50021	2.857057	0.459668	-7.819492	4.963839	11.857009	-1.284518	-0.207085	0.002031
-5.085268	1.840536	6.998188	-41.57231	13.884626	-13.185415	0.588383	-0.150098	-0.228148	0.076522	1.353852	9.725994	8.337045	-3.338715	0.850606	0.313554	-0.777558	-0.806719	9.951718	2.970237	0.235806	-6.881393	3.635461	11.954449	-1.266946	-0.224734	0.004186
-5.141705	0.985423	10.00819	-67.492566	6.949536	-14.394775	0.576375	-0.168109	-0.210137	0.35555	1.237774	9.256338	5.096629	-3.714791	1.177998	0.314091	-0.797504	-0.788092	9.998215	2.39443	-0.348689	-6.589483	2.186494	11.722312	-1.302706	-0.185575	-0.036769
-5.085607	1.215155	9.950765	-13.028412	5.246466	-9.231612	0.576375	-0.162106	-0.228148	0.012104	1.696789	9.428401	5.307282	-3.93408	1.359763	0.313979	-0.796745	-0.805951	9.714175	3.141022	-0.234989	-6.249585	1.385296	11.353593	-1.266731	-0.158392	0.033374
-4.586723	0.981755	8.896436	-9.155253	10.917352	3.458157	0.570371	-0.144094	-0.228148	0.136548	1.353945	9.846022	4.531451	-4.108652	2.189199	0.299657	-0.79632	-0.806065	10.286359	2.681425	-0.166867	-6.186661	0.743599	9.607922	-1.303207	-0.097822	-0.046092
-4.641603	1.327235	9.07346	8.583848	6.173378	4.280712	0.594387	-0.162106	-0.240156	0.877688	1.351334	9.445518	3.641489	-3.820506	2.964922	0.328187	-0.79641	-0.823696	10.226772	2.85319	-0.284097	-5.956247	0.780529	7.631669	-1.285127	-0.152502	-0.021885
-4.0802	2.129447	8.377382	13.646661	5.823215	7.724901	0.576375	-0.162106	-0.234152	0.193229	1.754414	9.848021	5.364231	-3.640384	4.237428	0.284911	-0.776708	-0.806947	10.122099	3.428878	0.240898	-5.333185	0.755572	5.430008	-1.267455	-0.187702	-0.017866
-3.55375	2.186986	8.801362	12.25165	7.149952	11.244358	0.576375	-0.144094	-0.234152	0.473167	1.752911	9.438017	4.718305	-3.539006	4.639623	0.285336	-0.795894	-0.806179	10.060226	3.600227	0.006956	-2.959929	-0.29047	3.010058	-1.302498	-0.169955	-0.020311
-4.25188	2.704968	8.49361	8.900273	6.402729	11.16903	0.582379	-0.156102	-0.222145	0.765535	1.523648	9.621752	3.056962	-3.300184	5.660211	0.286298	-0.835028	-0.786783	9.784029	3.717065	0.468503	0.280991	-2.17121	0.610547	-1.302397	-0.187506	-0.018446
-4.13539	2.647408	8.554823	6.170881	4.70109	8.449403	0.588383	-0.174113	-0.216141	0.364497	1.467619	9.732163	5.24881	-2.669002	7.281327	0.314603	-0.8336	-0.840134	10.069618	4.175735	0.534238	4.212846	-3.805996	-2.104045	-1.267556	-0.170151	-0.01973
-3.673217	3.27929	8.683546	4.162592	4.435263	5.232432	0.582379	-0.162106	-0.228148	0.0276	1.183112	10.1404	6.79215	-3.806484	8.653568	0.299969	-0.814747	-0.823156	9.854847	4.408044	1.230767	8.462692	-4.582337	-3.629151	-1.285543	-0.183742	-0.054802
-3.848248	2.589261	8.501196	-7.996451	3.470449	4.088769	0.570371	-0.156102	-0.216141	-0.037788	1.926657	9.843618	3.656173	-6.703653	9.368571	0.313979	-0.796745	-0.805951	9.5198	3.491801	1.51236	11.48453	-4.770031	-5.082089	-1.30229	-0.154335	-0.003852
-3.914043	2.128305	8.026125	-9.614186	2.367668	2.108326	0.576375	-0.156102	-0.216141	0.097344	1.584856	10.796021	8.923	-9.381373	11.461075	0.313866	-0.795985	-0.82381	9.22769	3.548365	1.156718	13.710134	-4.094032	-6.062897	-1.268065	-0.133119	-0.041782
-3.847631	2.2443	8.500362	-7.753097	2.134041	1.390579	0.582379	-0.168109	-0.228148	0.041851	1.184502	10.853442	13.138092	-14.094545	12.681528	0.284686	-0.775188	-0.842666	8.824338	3.261341	0.914254	14.898145	-3.507664	-7.118002	-1.319868	-0.187408	-0.018737
-4.015417	1.900204	8.732577	-7.785665	1.738568	1.572133	0.582379	-0.162106	-0.228148	-0.136048	1.756867	10.672778	13.491353	-21.107613	14.255755	0.300619	-0.835453	-0.78667	9.214937	3.660804	0.515221	15.366083	-3.351961	-7.9244	-1.320377	-0.150376	-0.040789
-4.131496	1.72779	8.67081	-5.227641	1.60516	2.546374	0.582379	-0.174113	-0.216141	-0.069392	1.471391	11.089328	17.767129	-28.536353	18.423828	0.299232	-0.777133	-0.806833	8.982146	3.717694	0.277433	14.402956	-3.34689	-8.706489	-1.302498	-0.169955	-0.020311
-4.127415	1.95832	8.907783	-0.752006	1.326498	2.557948	0.576375	-0.174113	-0.222145	1.227925	1.522656	9.690672	27.108274	-32.863611	16.695027	0.300282	-0.833174	-0.840248	8.972396	3.37164	-0.249017	12.620483	-3.248158	-9.222912	-1.319259	-0.241991	0.00518
-3.83946	2.072792	8.913678	2.438387	1.286295	2.87671	0.582379	-0.168109	-0.228148	-0.010613	1.986551	11.210398	-11.636616	-40.246767	9.237755	0.256581	-0.794285	-0.824266	8.572453	3.831176	-0.255354	10.089883	-3.334332	-9.205602	-1.337547	-0.20293	-0.035485
-4.189849	2.130347	8.670659	4.760993	0.610712	3.487481	0.588383	-0.162106	-0.240156	-0.296383	4.626432	14.536135	-32.913099	-39.254826	5.573971	0.271439	-0.814656	-0.805525	8.565684	3.772565	-0.605697	6.728933	-2.956046	-9.158431	-1.284611	-0.138813	0.012896
-4.306751	2.417882	8.610002	5.743807	0.259172	2.363316	0.582379	-0.162106	-0.216141	0.540361	1.473249	12.764968	44.809615	-52.036088	6.901856	0.271639	-0.832324	-0.840476	8.562861	4.116331	-0.721161	3.330565	-2.207524	-9.161596	-1.319761	-0.154237	-0.004143
-3.903934	2.129555	8.558066	3.709397	-0.178597	1.67812	0.594387	-0.174113	-0.228148	0.158141	1.756753	10.975817	39.949518	-58.161442	8.328403	0.25743	-0.832658	-0.82273	8.511544	4.117461	-0.430525	-0.367679	-1.02845	-8.622421	-1.267971	-0.201391	-0.052647
-4.24809	1.842844	8.609736	2.408561	-0.068507	0.368114	0.594387	-0.156102	-0.222145	-0.051063	2.732528	12.16144	-9.363157	-64.785277	8.95838	0.214691	-0.832902	-0.787353	8.963768	3.77173	-0.656051	-3.144863	0.147419	-7.824316	-1.232513	-0.187897	-0.017285
-4.078057	2.187218	8.49573	3.072272	-1.079413	-0.721557	0.576375	-0.156102	-0.222145	0.649271	3.132401	12.651864	13.244203	-73.558499	10.447238	0.242484	-0.795379	-0.788661	8.860507	4.175535	-0.073324	-5.614086	0.799186	-7.263121	-1.267964	-0.150669	-0.039918
-3.90618	2.129277	8.439857	-1.204986	-1.208292	-1.136877	0.588383	-0.156102	-0.234152	0.342988	2.730632	11.694392	19.734283	-83.163258	12.078555	0.2291	-0.850235	-0.840049	8.920452	3.774316	0.043075	-7.022833	0.645065	-6.22209	-1.302096	-0.240158	-0.012853
-3.960958	2.417264	8.616741	-1.85735	-0.998604	-1.394357	0.582379	-0.162106	-0.222145	0.012168	2.389475	12.399613	-3.205829	-91.28616	14.117531	0.213842	-0.794528	-0.788889	8.982057	3.775058	0.277641	-7.541309	-0.311822	-5.499217	-1.302297	-0.205057	-0.016582
-3.896886	1.957908	8.912277	-0.422387	-0.873294	-0.970946	0.588383	-0.180117	-0.234152	0.599635	2.274673	12.946039	1.111186	-100.211162	16.220496	0.185399	-0.811346	-0.824068	8.820461	3.547535	0.740227	-7.404707	-1.426335	-4.239077	-1.267455	-0.187702	-0.017866
-3.896268	1.612947	8.911443	1.438567	0.061593	-0.156656	0.570371	-0.162106	-0.234152	0.804526	2.099882	11.643197	15.460953	-107.737875	17.562824	0.199833	-0.81253	-0.806094	8.880476	3.834888	0.917477	-6.35492	-2.327507	-2.929461	-1.302197	-0.222607	-0.014717
-4.134463	2.129967	8.553573	4.343153	0.585891	0.660399	0.594387	-0.174113	-0.216141	1.194579	1.296192	10.877425	14.978824	-113.625385	17.734928	0.157293	-0.830442	-0.805668	9.159744	3.948128	0.631829	-4.862481	-2.366266	-1.696558	-1.302813	-0.218746	-0.051363
-4.135895	2.302308	8.494885	3.670836	0.798054	0.799996	0.582379	-0.162106	-0.222145	1.469016	2.095557	10.290783	19.65483	-117.109894	17.001403	0.142235	-0.792402	-0.789459	9.226815	3.376066	1.097739	-2.808837	-1.265557	-0.504004	-1.302297	-0.205057	-0.016582
-3.785309	2.762332	8.798258	3.230825	0.78476	0.536065	0.582379	-0.156102	-0.234152	1.681724	1.635312	9.343883	26.245934	-118.570487	16.399976	0.129613	-0.868725	-0.786501	9.116269	3.319505	1.270312	-0.570422	0.577264	-0.095416	-1.267663	-0.203322	-0.034324
-3.958711	2.417542	8.734951	1.303407	1.046326	-0.056183	0.588383	-0.174113	-0.228148	2.08492	1.290849	9.29208	20.138065	-117.969119	14.979323	0.100008	-0.828741	-0.806124	9.51478	3.777788	1.279977	1.601735	2.451784	0.099626	-1.2505	-0.201489	-0.052357
-3.671056	2.071927	8.680629	-1.242251	0.723483	-0.301192	0.576375	-0.174113	-0.234152	1.681666	2.150495	9.404346	17.117324	-116.687378	14.471873	0.071877	-0.863986	-0.858394	9.73632	3.604091	0.933791	3.219005	3.990215	-0.197035	-1.337339	-0.18731	-0.019027
-3.841912	2.187501	8.795746	-2.736808	0.478963	-0.571311	0.582379	-0.156102	-0.216141	2.20701	1.920909	9.711671	25.404503	-116.125226	15.144922	0.100233	-0.83026	-0.770405	9.403628	3.376837	1.392947	4.743932	4.667792	-1.132932	-1.267147	-0.189632	0.000457
-4.183316	2.246168	9.025564	-5.187413	0.793146	-1.120024	0.570371	-0.180117	-0.234152	2.788342	2.377941	10.021574	20.774474	-115.127585	15.679728	0.072128	-0.849356	-0.752006	8.872674	2.972769	0.447511	5.168263	4.333491	-2.877183	-1.302605	-0.203126	-0.034905
-4.421604	2.188114	8.6072	-4.944371	0.904423	-1.338835	0.582379	-0.162106	-0.216141	2.285146	2.781416	10.843581	22.436228	-114.795316	17.510825	0.057919	-0.849691	-0.73426	9.108447	3.203322	0.861406	5.30451	3.04384	-4.519665	-1.249984	-0.187799	-0.017576
-4.019198	2.129761	8.555819	-5.593584	0.412812	-1.051323	0.576375	-0.168109	-0.222145	3.172878	2.609851	11.990029	35.074048	-114.927682	19.661597	0.056957	-0.810557	-0.753655	9.389911	3.374341	0.692677	4.419353	1.205334	-7.205506	-1.250085	-0.170249	-0.01944
-3.612506	2.18695	8.741135	-4.732816	-0.203323	-0.831755	0.582379	-0.162106	-0.234152	3.069511	2.096103	12.521393	42.834327	-115.806149	21.852356	0.04456	-0.888399	-0.714979	9.327859	3.660418	0.459151	1.825845	-1.244102	-10.306253	-1.303215	-0.148543	-0.058821
-3.837419	2.188056	9.032164	-4.321207	-0.681215	-1.302104	0.576375	-0.162106	-0.228148	2.911168	2.441402	13.290988	48.897776	-115.424235	23.25961	0.014417	-0.828469	-0.753229	8.91913	3.888835	-0.014865	-1.44757	-3.598276	-13.729847	-1.355018	-0.202832	-0.035775
-4.19597	1.784553	8.315198	-4.525602	-1.316189	-1.605846	0.582379	-0.168109	-0.222145	4.122931	1.980657	13.314999	49.721083	-115.656753	24.090831	-0.013376	-0.865992	-0.751921	8.972017	4.347031	-0.187125	-4.840049	-6.475552	-17.381864	-1.28421	-0.209016	0.020354
-4.195156	1.957173	8.374719	-7.521136	-1.496218	-1.442515	0.588383	-0.156102	-0.222145	3.275356	1.755437	14.128606	51.329856	-108.654778	24.465638	-0.071286	-0.827437	-0.718194	8.799508	4.519183	-0.248286	-8.410597	-9.414725	-20.847194	-1.284933	-0.238325	-0.030885
-4.023588	2.071712	8.319262	-8.215256	-1.286422	-2.095554	0.576375	-0.150098	-0.216141	2.403318	0.840913	13.633577	64.237836	-99.812764	23.410382	-0.041681	-0.867421	-0.698571	8.903017	4.689223	-0.770578	-11.472724	-12.542886	-23.526591	-1.266939	-0.174012	0.016916
-3.90414	2.244542	8.558344	-7.350417	-1.169967	-2.176927	0.582379	-0.162106	-0.228148	-0.282638	-0.300901	11.734607	91.953957	-86.981906	21.371045	-0.055465	-0.886942	-0.680057	8.569272	4.404398	-0.369986	-13.846174	-15.214088	-25.096881	-1.302397	-0.187506	-0.018446
-4.299086	1.901274	8.963379	-5.784549	-1.541758	-2.308665	0.582379	-0.162106	-0.222145	-9.531888	-5.043909	3.931575	121.167811	-56.554919	26.875695	-0.069561	-0.888036	-0.644452	8.456529	4.290057	-0.314332	-15.678007	-17.059644	-25.05129	-1.318851	-0.261472	0.025367
-4.013068	1.842988	8.850648	-7.332022	-0.923918	-1.657361	0.594387	-0.162106	-0.234152	-12.317466	-7.036803	5.592516	-3.053048	-15.700213	64.67007	-0.112525	-0.886761	-0.644794	8.458099	4.749383	-0.195957	-16.734686	-17.05872	-24.536864	-1.302297	-0.205057	-0.016582
-4.243494	1.785906	8.846016	-4.149369	-0.78193	-1.733944	0.570371	-0.174113	-0.210137	-4.725657	-6.249674	7.829411	-46.288514	-7.137213	93.75334	-0.096929	-0.944747	-0.642376	8.354858	4.407251	0.325711	-17.621236	-15.861233	-22.388553	-1.284417	-0.224636	0.003896
-3.787144	2.532081	8.679494	-2.876861	-0.249825	-0.72463	0.576375	-0.156102	-0.222145	-3.007316	-9.002589	6.968171	-12.901372	25.322788	67.083761	-0.084108	-0.886092	-0.680285	9.264733	4.634858	0.22812	-16.878254	-13.434644	-20.206928	-1.285134	-0.203224	-0.034614
-4.005411	1.958947	9.264657	-3.472746	-0.104302	-1.136383	0.55236	-0.174113	-0.234152	-1.159419	-8.319801	7.245244	-67.648082	38.001274	27.091325	-0.126534	-0.904763	-0.662	9.274662	4.866185	0.754154	-15.48891	-9.933972	-17.021082	-1.284317	-0.242187	0.00576
-4.066001	1.72866	9.085665	-2.539304	0.071332	-1.005544	0.576375	-0.168109	-0.234152	-2.125874	-6.083637	8.180298	-77.711222	56.562067	-15.433121	-0.141081	-0.902818	-0.697832	9.164295	4.694896	0.926312	-13.736015	-6.864516	-14.255634	-1.320076	-0.203028	-0.035195
-3.661967	2.015545	9.153327	-2.308441	0.002893	-0.431939	0.570371	-0.168109	-0.234152	-5.293507	-3.44253	8.595676	-82.988224	79.437714	-37.85707	-0.113712	-0.846108	-0.699908	9.278808	4.407899	0.927558	-11.427431	-4.751015	-11.867731	-1.319668	-0.222509	-0.015007
-4.249419	1.957692	8.55091	-0.671116	0.39688	0.445691	0.576375	-0.168109	-0.234152	-6.1525	-1.894326	9.056354	-74.952433	103.191144	-38.592943	-0.112863	-0.884482	-0.698372	8.942349	3.66354	1.151419	-9.678082	-3.685061	-9.282802	-1.266846	-0.242284	0.006051
-4.12895	2.188155	8.849234	1.00409	0.419619	0.679636	0.570371	-0.162106	-0.222145	-5.365089	-1.611969	8.122836	-55.137852	119.911216	-28.254172	-0.056115	-0.866236	-0.716544	8.544444	3.549647	1.201358	-7.973123	-3.052162	-6.246996	-1.284726	-0.222705	-0.014427
-4.412207	1.959251	9.079481	2.227777	0.584991	1.260953	0.576375	-0.156102	-0.234152	-4.869295	-1.90168	6.94454	-58.985529	128.887551	-15.592833	-0.099504	-0.845774	-0.717654	7.978333	3.780828	1.424183	-6.268814	-2.972817	-3.627769	-1.284109	-0.226567	0.022219
-3.957382	2.302694	8.793777	3.763388	1.13439	1.71487	0.576375	-0.162106	-0.228148	-3.431819	-2.306213	6.735736	-63.796064	133.446456	-7.150205	-0.028859	-0.808766	-0.73648	8.660457	3.033402	1.260128	-4.50195	-2.678558	-0.787923	-1.2835	-0.281149	0.046135
-3.897494	1.670302	8.852478	4.806304	1.272835	1.354733	0.588383	-0.156102	-0.216141	-3.04705	-1.908312	5.853557	-75.377868	135.749416	-4.226083	-0.042244	-0.863623	-0.787868	8.378207	2.63272	1.369669	-3.0387	-2.845143	1.79819	-1.284425	-0.275357	-0.008833
-3.561613	2.186014	8.387631	4.194858	1.482323	1.462328	0.576375	-0.162106	-0.234152	-2.343569	-1.336403	6.522589	-80.44554	138.200392	-4.376473	0.000408	-0.846471	-0.770435	8.768986	2.917456	0.970219	-1.11637	-3.074615	4.404115	-1.301989	-0.206987	0.001741
-3.893722	2.073311	9.089868	2.578138	1.36513	1.165403	0.576375	-0.168109	-0.222145	-1.928951	-0.019701	7.246609	-81.061265	141.315218	-5.155866	-0.015413	-0.786966	-0.808571	8.711526	2.458428	0.909057	0.328647	-3.519862	7.352442	-1.267054	-0.257904	-0.010408
-4.023588	2.071712	8.319262	1.454593	1.593285	0.614423	0.564367	-0.150098	-0.222145	-1.872963	0.666917	7.249187	-75.838938	143.623267	-5.63066	0.01323	-0.787816	-0.808343	8.594638	2.802373	0.791307	2.044528	-4.180531	9.980921	-1.250092	-0.22097	-0.032169
-3.787546	2.129488	8.619417	-0.031618	1.593721	0.498039	0.570371	-0.168109	-0.228148	-1.286029	1.75417	7.916886	-68.844467	143.657483	-5.556128	0.042297	-0.807853	-0.807348	8.593337	2.170957	0.672307	3.544172	-4.840255	12.490416	-1.301888	-0.224538	0.003606
-3.902811	2.129694	8.61717	-0.533863	2.193075	-0.157431	0.582379	-0.156102	-0.228148	-0.603784	2.266764	7.516238	-47.032483	141.729679	-7.683656	0.040373	-0.729587	-0.846138	8.306495	2.515378	0.609484	4.734518	-5.713879	14.660906	-1.30148	-0.244019	0.023793
-3.958814	2.475035	8.735089	-0.624948	2.136099	-0.064026	0.594387	-0.180117	-0.234152	-0.030983	2.322262	7.349969	-44.061361	143.834255	-9.061638	0.083537	-0.74853	-0.880747	8.071507	2.514488	0.254777	5.984014	-6.372058	16.897978	-1.301172	-0.24595	0.042116
-4.36386	1.497951	8.547552	-1.089316	2.704418	-0.44604	0.588383	-0.156102	-0.222145	0.030805	3.066688	7.649764	-43.737553	149.568839	-8.742585	0.154519	-0.713801	-0.845995	8.247265	2.457688	0.491422	7.430126	-7.032807	19.747446	-1.28431	-0.191465	0.01849
-4.074275	1.957661	8.672489	-1.419973	3.085651	-0.344286	0.576375	-0.174113	-0.222145	0.668184	3.695154	7.901782	-38.057497	153.974131	-6.090705	0.126726	-0.751325	-0.844687	7.796363	2.688899	0.774888	9.133197	-7.568475	21.886417	-1.28421	-0.209016	0.020354
-3.786114	1.957146	8.678105	-0.350992	4.020082	-0.242881	0.570371	-0.168109	-0.228148	2.250888	4.667099	9.3619	-32.709666	152.935529	0.077037	0.155456	-0.769083	-0.897269	7.79206	2.515976	0.540841	10.406067	-7.702728	24.168701	-1.266738	-0.209114	0.020645
-3.847013	1.899339	8.499529	0.314613	4.788024	-0.102119	0.582379	-0.162106	-0.234152	3.189086	5.009883	10.213478	-20.491647	145.909219	7.756028	0.184237	-0.754544	-0.808512	8.255446	2.344417	0.899496	12.776215	-8.577801	25.88393	-1.319252	-0.191269	0.017909
-3.842324	2.417475	8.796302	0.913763	5.130952	0.129332	0.576375	-0.150098	-0.228148	4.298356	5.638284	11.009779	-6.738396	137.197571	15.716603	0.197483	-0.715076	-0.845653	8.41722	2.457212	0.436495	14.932594	-9.113961	27.828826	-1.354094	-0.208624	0.019193
-4.306134	2.072921	8.609169	0.045614	5.750923	0.764137	0.582379	-0.156102	-0.228148	5.568483	5.864388	11.155208	7.799105	127.436136	21.930303	0.225276	-0.677553	-0.846961	8.136988	2.229036	0.663371	17.481308	-9.65046	29.58093	-1.266738	-0.209114	0.020645
-4.244926	1.958248	8.787328	2.746362	6.407601	1.952993	0.576375	-0.156102	-0.24616	6.673971	6.091718	11.713016	16.973576	116.857339	25.247709	0.239373	-0.676459	-0.882566	8.710294	2.515584	0.850909	20.377445	-9.262198	31.136729	-1.319969	-0.169857	-0.020601
-4.125674	1.613498	8.966055	4.271068	7.296017	2.927741	0.576375	-0.144094	-0.234152	7.137192	5.747348	11.781241	18.223075	102.148927	27.829058	0.225589	-0.69598	-0.864053	8.255535	2.287053	0.899288	23.870427	-8.227467	32.544938	-1.231796	-0.209309	0.021225
-3.783259	2.24503	8.856113	4.694189	7.739201	3.438614	0.588383	-0.150098	-0.228148	8.016691	6.032925	12.572096	24.251902	84.537819	29.625663	0.255081	-0.735205	-0.862289	8.367135	2.401185	0.785279	27.294141	-6.914485	33.777547	-1.354911	-0.169662	-0.021182
-3.898309	1.497683	8.792956	6.437266	8.370142	3.521879	0.576375	-0.150098	-0.216141	8.365383	5.860637	12.697714	35.723836	67.012462	32.761418	0.255081	-0.735205	-0.862289	8.712311	2.688091	0.968244	30.940789	-5.106719	34.403439	-1.283593	-0.212877	0.057
-4.240742	2.131284	9.024163	6.614911	9.494931	3.676567	0.582379	-0.162106	-0.222145	9.344644	4.713342	12.537324	44.041749	51.9065	35.533335	0.296658	-0.67816	-0.88211	8.822162	2.457625	0.736275	33.437471	-3.297506	35.452999	-1.337132	-0.17169	-0.002568
-4.183316	2.246168	9.025564	8.672978	10.296685	3.875181	0.588383	-0.168109	-0.228148	9.622048	3.795701	11.887785	42.168847	40.763505	35.300393	0.240872	-0.735539	-0.844543	8.602391	2.229984	1.139362	35.184543	-1.299214	35.844931	-1.336207	-0.177482	0.0524
-4.363766	2.073024	8.608045	12.850488	10.947259	3.71631	0.576375	-0.174113	-0.222145	10.024274	3.851846	11.836794	35.782411	33.021182	33.23615	0.298782	-0.774094	-0.878271	8.944497	2.286811	1.146428	35.120933	0.612992	35.685054	-1.337124	-0.120969	0.010161
-3.894331	1.785705	9.030069	12.406411	11.482621	2.967525	0.588383	-0.168109	-0.216141	10.07177	2.64861	11.181925	29.153294	32.46225	25.245835	0.254881	-0.717537	-0.827338	8.874264	2.686158	0.504827	34.24039	2.280145	35.657788	-1.336823	-0.173621	0.015755
-3.835884	1.958222	9.090713	12.178426	11.917435	2.273921	0.588383	-0.180117	-0.216141	9.672968	2.650043	11.411294	12.162379	38.32652	13.985637	0.268978	-0.716443	-0.862943	8.641294	2.857776	0.267456	32.467832	3.643074	35.084937	-1.319352	-0.173719	0.016045
-4.193527	2.302411	8.493762	13.885685	12.361448	1.167231	0.588383	-0.168109	-0.228148	9.908516	2.07754	11.593145	10.558791	38.782622	-0.061912	0.283949	-0.737574	-0.826342	8.972148	2.797795	-0.309452	29.602732	4.608028	34.491747	-1.319144	-0.158099	0.032503
-4.413227	1.901619	9.020237	16.18956	12.507497	0.593433	0.576375	-0.174113	-0.222145	8.977304	1.792681	11.098204	10.386897	32.088997	-13.585552	0.270365	-0.774763	-0.84278	8.964504	2.566885	-0.718775	26.274966	5.23658	33.435919	-1.318944	-0.1932	0.036232
-4.420996	2.47572	8.666999	18.334493	12.384949	0.021957	0.570371	-0.162106	-0.240156	7.697459	1.164927	10.417182	14.326696	20.460828	-23.977817	0.284599	-0.75828	-0.789855	9.596254	2.681459	-0.472362	21.953547	5.962547	31.663067	-1.371658	-0.140255	0.029768
-4.195568	2.187146	8.375275	19.056764	12.168932	-0.545962	0.588383	-0.156102	-0.234152	5.528338	0.365129	8.470175	11.862519	12.611225	-30.916466	0.270052	-0.756336	-0.825688	9.882222	2.164739	-0.468519	17.167804	6.137064	29.205703	-1.319453	-0.156168	0.01418
-4.130391	2.993063	8.851179	18.419598	12.192586	-1.262471	0.576375	-0.180117	-0.210137	4.020187	-0.719793	7.842895	-3.401277	11.910143	-35.927677	0.299232	-0.777133	-0.806833	10.039761	2.793183	-1.104716	12.851686	5.939468	27.036492	-1.284611	-0.138813	0.012896
-4.078263	2.302205	8.496008	16.531395	13.242251	-3.162871	0.588383	-0.150098	-0.216141	3.096931	-1.347335	7.70378	-19.398306	13.608587	-39.136997	0.256268	-0.775857	-0.807175	10.046819	1.933767	-0.816056	8.13742	5.435519	24.589079	-1.319144	-0.158099	0.032503
-4.185365	2.76347	8.967709	16.172307	13.67675	-5.256504	0.600391	-0.168109	-0.210137	2.579207	-0.83079	7.812975	-31.114669	12.525543	-40.782577	0.327763	-0.777223	-0.824464	10.450618	1.933973	-0.574632	3.297408	4.717132	21.82981	-1.354395	-0.155972	0.0136
-4.303999	2.763259	8.788149	14.384591	15.48603	-7.337959	0.606395	-0.180117	-0.204133	-1.042829	-3.030535	19.494089	-39.884203	8.129678	-40.536523	0.3268	-0.73809	-0.84386	10.109298	2.106809	-0.52251	-1.173113	4.028036	19.248873	-1.336616	-0.158001	0.032213
-4.595324	2.64837	8.604941	14.426894	17.494678	-9.27972	0.588383	-0.174113	-0.216141	8.074306	45.582048	14.555994	12.876565	-144.205382	211.837015	0.297845	-0.718812	-0.826996	10.22368	3.369047	-0.398937	-4.379097	3.338337	15.90287	-1.32027	-0.117205	-0.026195
-4.536569	2.648406	8.665169	11.849354	20.559076	-11.639733	0.600391	-0.174113	-0.216141	3.848742	11.227306	0.736692	575.856715	-118.415957	117.134118	0.268865	-0.715683	-0.880802	10.231771	3.31314	0.009345	-11.171532	3.341461	10.922186	-1.372167	-0.103222	0.007716
-3.852442	3.048792	8.324993	4.226934	23.797179	-15.553718	0.594387	-0.186121	-0.222145	11.845508	-3.78551	1.10789	128.072104	-56.413894	30.967299	0.272714	-0.872217	-0.803221	10.556193	3.711029	-0.857678	-15.168558	4.41584	6.162645	-1.337232	-0.154139	-0.004433
-5.158983	2.478447	9.243442	-11.883503	26.571241	-17.738747	0.606395	-0.180117	-0.228148	-0.380893	2.963899	12.986662	-433.851279	0.006654	-44.761574	0.199095	-0.774916	-0.789771	11.175708	4.339797	-1.192951	-16.703599	5.608524	1.048883	-1.371758	-0.122704	0.027903
-4.097912	2.422017	10.504718	-18.858044	41.077981	-26.331263	0.594387	-0.168109	-0.216141	-2.067193	4.746806	15.331436	-126.740512	-24.794489	-72.990025	0.211892	-0.73241	-0.898349	11.292258	3.479371	-1.135429	-18.069102	6.89045	-3.233582	-1.354495	-0.138422	0.011735
-5.260751	1.215186	9.829186	-30.755649	53.600952	-31.826056	0.582379	-0.162106	-0.210137	-0.704907	0.791625	13.807015	95.050935	-18.98457	-10.056407	0.269515	-0.736389	-0.844315	11.288223	3.134357	-1.3701	-16.642576	9.085719	-6.189534	-1.338049	-0.115177	-0.044808
-5.684583	4.268439	12.073533	-25.607244	58.607354	-26.310282	0.606395	-0.168109	-0.204133	2.367586	-1.801519	8.638138	44.888166	-9.235257	6.399232	0.256268	-0.775857	-0.807175	11.242352	3.308617	-0.787061	-16.115718	11.711389	-8.128812	-1.33835	-0.062525	-0.050401
-4.06503	2.253564	12.218333	18.133826	60.300184	-10.77073	0.612399	-0.156102	-0.210137	0.345933	2.267213	8.901903	-10.167276	-22.815238	-16.206688	0.212342	-0.735448	-0.826912	10.969763	3.311352	-0.150863	-16.994666	13.382802	-9.450717	-1.319446	-0.105447	0.02691
-5.060885	3.281205	8.420169	6.883786	65.996112	-18.913796	0.600391	-0.156102	-0.222145	0.744596	2.32301	8.672651	-14.1217	-10.055957	-4.620487	0.184012	-0.753025	-0.844231	11.268911	3.141309	0.554498	-16.065459	13.475292	-10.144843	-1.354803	-0.136491	-0.006588
-4.286664	4.375575	9.855919	-7.77177	69.829012	-23.903741	0.606395	-0.180117	-0.222145	0.766148	0.779546	9.560825	-24.120101	-8.732402	-8.660148	0.256581	-0.794285	-0.824266	10.885259	2.68573	1.303458	-15.260123	10.949487	-11.373662	-1.302082	-0.138715	0.012606
-4.250457	3.165193	8.612931	-4.676776	72.753688	-32.258426	0.606395	-0.180117	-0.204133	1.184168	1.18069	10.342411	-22.963167	-6.923775	-12.579076	0.198108	-0.751931	-0.879836	10.998628	2.398524	1.246349	-14.221338	6.57464	-12.999052	-1.302698	-0.134854	-0.02404
-4.422437	3.280628	8.668943	-22.168713	77.254696	-37.419166	0.612399	-0.156102	-0.198129	0.436456	0.953688	10.38593	1.043097	-3.389178	-8.52108	0.241297	-0.754726	-0.843775	10.536027	2.799746	0.946881	-14.4764	2.512373	-14.959598	-1.301982	-0.156266	0.014471
-4.929689	3.167957	9.249602	-25.068314	80.142548	-41.266406	0.618402	-0.156102	-0.186121	0.59678	1.753445	9.856333	18.116544	-1.877943	-6.302507	0.242147	-0.7931	-0.842239	10.524686	2.740303	0.363116	-15.601826	0.238591	-16.389277	-1.354395	-0.155972	0.0136
-5.625039	2.133616	8.9381	-28.818212	83.621704	-43.808567	0.624406	-0.156102	-0.186121	-0.504948	0.95405	9.416207	6.944213	-1.661182	-5.32976	0.213616	-0.793009	-0.824608	10.799114	3.024802	-0.155332	-16.767906	-0.434155	-17.155877	-1.319761	-0.154237	-0.004143
-6.188398	2.423779	9.636816	-32.983025	88.807612	-44.500914	0.642418	-0.162106	-0.192125	0.079808	1.468659	9.904486	-4.31925	-0.839497	-1.875587	0.242571	-0.812287	-0.841471	10.957548	3.07961	-0.793608	-17.437534	-1.170922	-17.595122	-1.337942	-0.082006	-0.030214
-5.663259	1.331032	9.880705	-32.876074	94.710493	-43.097129	0.624406	-0.150098	-0.198129	0.363448	1.410273	9.672627	1.100171	-0.417978	0.025342	0.227288	-0.772728	-0.860981	10.955173	3.136557	-0.910112	-16.812605	-2.312778	-17.732702	-1.302498	-0.169955	-0.020311
-6.123391	0.814415	9.870469	-30.719612	98.786314	-41.326697	0.63041	-0.156102	-0.174113	0.473444	1.638452	9.437785	1.968848	-0.034328	0.188122	0.227288	-0.772728	-0.860981	10.151788	3.366433	-1.158706	-15.918594	-3.639022	-18.250867	-1.337748	-0.167829	-0.039214
-6.240096	1.619529	9.870167	-26.263151	104.333111	-37.71276	0.66043	-0.13809	-0.192125	-0.20201	1.756194	10.255649	-2.14832	0.433707	0.467277	0.227713	-0.791915	-0.860213	9.935378	2.450844	-0.641403	-14.509916	-4.935188	-18.932606	-1.338149	-0.097626	-0.046672
-6.070363	1.503817	9.695945	-22.622684	109.602301	-35.513991	0.636414	-0.13809	-0.174113	0.312923	1.411107	10.027961	2.352566	0.846536	0.883975	0.22805	-0.794194	-0.806635	9.430962	2.625404	-0.18422	-12.712766	-5.277564	-19.317425	-1.354703	-0.154042	-0.004723
-5.903391	1.675294	9.404209	-19.622369	114.772771	-34.062695	0.648422	-0.144094	-0.168109	0.07575	1.182047	9.666226	4.387297	1.146403	1.634106	0.198758	-0.772637	-0.843349	9.386861	2.398326	0.455719	-10.957336	-4.910674	-19.711989	-1.303107	-0.115372	-0.044227
-6.202794	2.306987	8.868179	-18.595531	118.827246	-34.033825	0.672438	-0.150098	-0.174113	0.583995	1.637712	9.202479	4.638656	1.628423	2.785894	0.213729	-0.793769	-0.806748	9.389505	2.169288	0.571598	-8.843478	-3.805303	-19.938491	-1.320377	-0.150376	-0.040789
-5.755823	2.01689	8.108112	-18.095483	122.04015	-35.796474	0.654426	-0.126082	-0.156102	0.13249	1.067334	9.607762	5.847312	2.248171	3.818266	0.22825	-0.811862	-0.841585	8.710204	2.572947	0.851117	-7.255288	-2.302364	-18.817502	-1.302598	-0.152404	-0.022175
-5.531219	2.188264	7.817499	-17.561896	124.57642	-38.173798	0.66043	-0.132086	-0.156102	0.132075	1.239023	9.608109	3.419251	2.503104	4.127444	0.199833	-0.81253	-0.806094	9.215137	2.800141	0.453745	-5.591993	-1.10936	-17.275274	-1.337232	-0.154139	-0.004433
-5.710546	2.01526	7.459085	-16.561478	125.411675	-40.511231	0.666434	-0.132086	-0.13809	0.079036	1.296854	9.844718	3.691319	2.2526	4.185219	0.242372	-0.794619	-0.806521	8.031172	2.804516	1.130011	-3.836533	0.083305	-15.704086	-1.320277	-0.167927	-0.038924
-6.232091	1.728302	7.270968	-15.313506	126.32817	-42.88468	0.654426	-0.13809	-0.132086	0.019011	1.296761	9.724691	6.448649	1.500981	3.836868	0.213079	-0.773062	-0.843235	8.426096	2.630967	0.903965	-2.08904	1.21568	-14.535235	-1.320069	-0.152307	-0.022466
-5.834478	1.209308	6.922953	-17.495494	127.631474	-45.507954	0.666434	-0.120078	-0.13809	-0.09825	1.125117	9.603127	9.668657	0.712902	2.994506	0.199183	-0.791824	-0.842581	8.189627	2.113387	0.430675	-0.063386	1.823927	-13.571883	-1.355728	-0.130699	-0.061557
-6.518315	1.901575	7.383977	-14.419343	126.952322	-45.586652	0.678442	-0.126082	-0.132086	-0.032979	1.411938	10.020836	9.275714	-0.568904	2.75476	0.242147	-0.7931	-0.842239	8.012009	2.628889	0.137339	1.382783	2.156772	-12.789779	-1.30239	-0.136784	-0.005717
-6.4714	1.612616	6.79336	-6.821698	126.386747	-46.476074	0.684445	-0.114074	-0.120078	0.078067	1.697462	9.84553	11.248729	-2.045045	2.639202	0.270677	-0.793191	-0.859871	8.182838	2.800712	0.141392	2.130878	2.398534	-11.90384	-1.336831	-0.224342	0.003025
-7.096463	1.039786	7.193348	-0.767178	125.27575	-46.965146	0.684445	-0.120078	-0.096063	0.187706	1.582146	9.550572	11.611736	-2.448744	2.262009	0.19907	-0.791065	-0.860441	8.521087	2.397797	-0.086629	2.413111	2.242872	-11.66731	-1.337949	-0.132727	-0.042943
-7.153187	1.787582	7.312239	8.112821	122.341225	-45.825546	0.696453	-0.096063	-0.10807	0.353947	1.409347	9.197266	8.681354	-3.037572	0.856577	0.213304	-0.774582	-0.807516	8.460873	2.971108	-0.202404	2.144064	2.334972	-11.351029	-1.302598	-0.152404	-0.022175
-7.078697	1.156995	8.139298	24.11442	119.142883	-43.945679	0.696453	-0.114074	-0.096063	0.242071	1.467201	9.373267	4.369077	-3.389288	-0.238175	0.22825	-0.811862	-0.841585	8.278614	2.797206	-0.790015	1.859096	2.583331	-11.646513	-1.284109	-0.226567	0.022219
-7.776312	1.38751	7.830852	41.998156	116.597782	-42.534787	0.702457	-0.102066	-0.078051	0.409579	1.75247	9.139728	4.34216	-3.474296	-1.783988	0.270902	-0.79471	-0.824152	8.33668	3.600624	-0.669249	1.626495	2.771365	-12.376348	-1.320277	-0.167927	-0.038924
-7.8362	2.019902	7.772152	55.121921	113.309848	-39.609485	0.714465	-0.10807	-0.090059	0.297208	1.52406	9.25573	5.178484	-3.362023	-2.645309	0.242147	-0.7931	-0.842239	7.769089	3.315116	-0.565007	1.107536	3.484786	-13.270425	-1.337031	-0.189241	-0.000704
-7.650434	1.733654	8.424977	72.680501	110.501449	-38.588679	0.702457	-0.090059	-0.084055	0.300355	1.696097	9.434338	3.210743	-3.29648	-2.95641	0.212654	-0.753876	-0.844003	8.065075	2.972358	-0.035338	0.631324	4.969813	-14.451607	-1.33744	-0.169759	-0.020891
-7.998979	1.388894	8.240091	86.464247	107.950248	-35.675137	0.714465	-0.114074	-0.066043	-0.037175	1.182556	9.782691	3.769451	-3.030221	-2.827149	0.242684	-0.813046	-0.823612	8.463497	3.488005	-0.025465	0.519042	6.638789	-15.603993	-1.338056	-0.165898	-0.057537
-7.873812	1.504925	8.774556	99.550714	105.99103	-37.133146	0.720469	-0.096063	-0.084055	0.357728	1.810418	9.435758	3.673771	-3.032572	-1.90081	0.242259	-0.793859	-0.82438	8.412627	3.202316	0.264131	-0.084466	8.893815	-16.483207	-1.319969	-0.169857	-0.020601
-8.179635	1.330737	7.82285	119.551498	103.522223	-32.814827	0.708461	-0.126082	-0.048031	0.468833	1.580759	9.199988	3.117281	-3.026146	-1.191309	0.227063	-0.771209	-0.8967	8.35145	3.660691	0.089585	-0.188624	11.207361	-16.81583	-1.285743	-0.148641	-0.058531
-7.74446	1.793992	9.545856	128.647864	101.411598	-29.845674	0.714465	-0.114074	-0.048031	0.420821	1.524594	9.674047	0.324539	-2.489361	-0.723315	0.214466	-0.831383	-0.823072	8.752267	3.373454	0.154902	-0.817399	12.841819	-16.509963	-1.285743	-0.148641	-0.058531
-7.407755	1.849756	9.079898	152.289506	96.428147	-27.460302	0.702457	-0.10807	-0.048031	0.422562	1.295791	9.733003	-2.3296	-2.783193	-0.424321	0.183162	-0.714651	-0.845767	8.921326	3.946615	0.102055	-1.151216	14.380146	-15.349556	-1.320786	-0.130894	-0.060976
-7.708674	1.446151	8.364055	173.503794	93.739217	-27.107262	0.702457	-0.114074	-0.054035	0.361152	1.867995	9.614134	0.780364	-2.744057	-0.418215	0.256668	-0.811193	-0.877076	9.153064	3.832153	0.281278	-1.601737	15.149061	-14.486242	-1.302806	-0.168024	-0.038634
-7.448481	0.752104	6.831286	184.629876	90.67481	-27.212532	0.732477	-0.144094	-0.03002	0.189309	1.410573	9.609644	-0.728868	-2.809924	-0.545555	0.242909	-0.814565	-0.787893	9.154297	3.774997	0.339426	-2.388599	15.150053	-14.193033	-1.303121	-0.216815	-0.069686
-7.850381	1.155556	6.942605	189.900234	80.207821	-27.949996	0.714465	-0.13809	-0.036023	0.247732	1.582239	9.6706	-3.871771	-2.971037	-0.615664	0.228163	-0.794953	-0.788775	9.142688	3.887645	-0.243716	-3.256231	14.565256	-13.822453	-1.320277	-0.167927	-0.038924
-7.699733	0.404916	5.702973	198.411891	69.61923	-25.289871	0.720469	-0.132086	-0.03002	-0.092094	1.52642	9.96046	-3.592707	-2.88329	-0.706269	0.227088	-0.75506	-0.82603	9.317661	3.601182	-0.066259	-4.671917	13.458816	-13.764088	-1.302906	-0.150474	-0.040498
-3.66039	-2.254174	2.762004	194.234274	55.109163	-26.827324	0.714465	-0.10807	-0.03002	0.196791	1.754762	10.026281	-2.265584	-2.781364	-1.103648	0.212879	-0.755395	-0.808284	9.711779	3.943906	-0.290433	-5.885694	12.261376	-14.298082	-1.319969	-0.169857	-0.020601
-0.945026	-7.038432	-0.328148	140.494725	26.175098	-23.643056	0.726473	-0.132086	-0.018012	0.248147	1.41055	9.670252	-2.317381	-2.318777	-1.373451	0.228562	-0.830289	-0.858677	9.593142	3.943253	-0.526142	-7.297775	11.774132	-15.02363	-1.319668	-0.222509	-0.015007
0.511636	-8.994256	0.345362	47.864819	-13.01322	-8.224718	0.720469	-0.13809	-0.024016	0.708993	1.065949	9.619637	-2.558358	-2.068404	-1.523828	0.242571	-0.812287	-0.841471	9.876803	4.172052	-0.577951	-8.711215	11.10256	-15.939385	-1.320377	-0.150376	-0.040789
0.262504	-6.508921	5.664004	-28.248142	-49.105885	21.180349	0.732477	-0.132086	-0.018012	0.53339	1.180592	9.497466	-1.726762	-2.081771	-1.70793	0.242684	-0.813046	-0.823612	9.427671	4.001925	-0.237585	-9.556324	10.954151	-17.00571	-1.319661	-0.171788	-0.002278
0.746866	-4.026869	10.169785	-46.745217	-77.788144	58.325289	0.714465	-0.144094	-0.024016	0.419218	1.696167	9.614974	-2.030946	-1.952328	-2.045884	0.227938	-0.793434	-0.824494	9.772578	4.460922	-0.053995	-9.755213	10.649507	-17.93528	-1.286159	-0.179881	-0.091448
2.166873	-2.012069	12.329368	-35.903318	-96.75026	94.606916	0.732477	-0.150098	-0.03002	-0.21543	1.411427	9.541912	-1.972131	-2.016589	-1.614539	0.228675	-0.831049	-0.840817	9.880054	4.287404	-0.402468	-8.977372	10.250094	-18.917918	-1.249576	-0.207281	0.002612
2.782529	-0.57781	11.517732	-20.29238	-110.795309	118.139207	0.720469	-0.13809	-0.03002	0.243754	1.753581	9.492687	-2.242447	-1.643975	-1.515707	0.213279	-0.79073	-0.878186	9.721798	4.117869	0.235393	-7.140202	9.537116	-19.129149	-1.267348	-0.154531	-0.003272
5.414818	-0.12482	10.624841	-6.754447	-121.254342	122.481356	0.732477	-0.144094	-0.03002	0.300632	1.581638	9.434107	-2.520834	-1.580885	-0.804711	0.214241	-0.829864	-0.858791	9.784456	4.176183	0.528523	-4.484537	8.792135	-19.604289	-1.320793	-0.181616	-0.073705
4.058528	0.736338	9.06437	-8.850509	-136.218306	114.936378	0.708461	-0.168109	-0.048031	0.598383	1.581872	9.915406	-2.795097	-1.392939	-0.58564	0.213504	-0.792249	-0.842467	9.904684	3.890225	0.821548	-1.504383	8.693912	-20.129108	-1.302713	-0.236296	-0.049499
5.2493	0.961789	8.083737	-21.322848	-152.758203	95.028525	0.714465	-0.168109	-0.048031	0.881469	1.752405	9.68401	-2.145301	-1.189764	-0.42646	0.228025	-0.810342	-0.877304	9.225225	3.662676	1.040423	1.650447	9.022449	-19.35043	-1.285951	-0.164261	-0.074989
2.404586	1.251801	6.965509	-41.834595	-172.391549	74.568347	0.708461	-0.162106	-0.060039	0.823542	1.867003	9.683055	-1.064397	-0.933592	-0.018505	0.199095	-0.774916	-0.789771	9.331984	3.948068	0.693614	5.223734	9.966374	-18.531723	-1.303121	-0.216815	-0.069686
1.285562	-0.58218	8.534423	-57.935979	-188.577023	59.607729	0.696453	-0.198129	-0.066043	0.297069	1.58129	9.255846	-2.016507	-0.765068	0.260811	0.241609	-0.773153	-0.860867	8.999829	3.376632	1.151522	8.56367	10.60167	-17.439714	-1.320592	-0.216717	-0.069976
1.075756	-0.234169	9.65375	-80.068174	-202.752218	55.639608	0.726473	-0.174113	-0.084055	-0.10571	1.754064	9.307301	-1.682513	-0.836139	1.186677	0.213616	-0.793009	-0.824608	8.702003	3.432155	0.504101	11.272413	11.206332	-15.935203	-1.285851	-0.181811	-0.073125
-1.610814	0.578494	10.844096	-81.704125	-211.290043	60.940176	0.702457	-0.186121	-0.102066	0.479718	1.009389	9.674191	-2.176883	-0.920087	1.24609	0.200457	-0.849385	-0.840277	8.767733	3.720548	0.973131	12.988167	11.227012	-14.211733	-1.26848	-0.164359	-0.074699
-2.018227	0.923759	10.659753	-80.638217	-215.795248	69.891135	0.690449	-0.180117	-0.102066	0.303779	1.753674	9.612715	-0.703646	-1.129912	1.368449	0.213504	-0.792249	-0.842467	8.125447	3.030256	0.141081	14.460203	10.725399	-12.837421	-1.303322	-0.181714	-0.073415
-2.134512	0.866332	10.598263	-82.376839	-219.32793	78.519633	0.690449	-0.186121	-0.10807	0.304551	1.925479	9.672483	1.513381	-1.0761	1.496805	0.242797	-0.813806	-0.805753	8.529247	3.030462	0.382505	15.23717	10.163004	-11.204343	-1.284417	-0.224636	0.003896
-2.882103	1.212909	10.702703	-87.205901	-220.778616	85.862262	0.708461	-0.198129	-0.120078	0.593495	1.638638	9.677841	-1.289953	-1.151822	1.645005	0.227713	-0.791915	-0.860213	7.953565	2.800862	0.078464	15.432427	9.571625	-9.683783	-1.251117	-0.197627	-0.089003
-2.766838	1.212703	10.70495	-94.372246	-218.838727	90.412444	0.666434	-0.180117	-0.144094	0.195939	1.125004	9.906166	-0.923685	-1.311695	1.673675	0.198358	-0.737302	-0.773447	8.744644	2.396607	-0.31548	15.132462	9.013326	-8.460658	-1.284833	-0.255876	-0.029021
-3.286249	1.616084	10.695813	-99.609158	-215.521591	92.359788	0.678442	-0.198129	-0.144094	0.537171	1.581663	9.735958	0.766562	-1.463285	1.67391	0.242372	-0.794619	-0.806521	8.406932	2.45534	-0.088707	14.067072	8.980216	-6.991457	-1.267971	-0.201391	-0.052647
-3.801271	2.077514	10.923232	-102.661313	-210.836662	92.003167	0.678442	-0.192125	-0.162106	0.250799	1.296323	9.788861	2.080859	-1.946445	1.729347	0.213816	-0.810677	-0.859559	8.173425	2.971139	-0.324831	13.144858	8.794395	-6.053536	-1.268695	-0.2307	-0.103887
-4.9385	2.253997	11.728648	-104.198823	-204.933056	90.914689	0.648422	-0.216141	-0.168109	0.188399	1.295998	9.549993	3.609558	-2.554467	1.412307	0.226976	-0.754301	-0.843889	8.567474	2.625291	-0.609856	11.791558	8.390307	-4.065154	-1.304046	-0.211023	-0.124655
-6.791915	1.738601	11.159512	-105.223273	-197.029253	90.405178	0.642418	-0.204133	-0.168109	-0.097121	1.640416	9.723011	4.462314	-3.059671	1.281237	0.185936	-0.831292	-0.80544	8.110856	2.855462	-0.618169	10.499889	7.858282	-0.756191	-1.285242	-0.236394	-0.049208
-8.264695	2.65732	9.53783	-100.532798	-183.187596	81.672037	0.642418	-0.192125	-0.180117	0.132847	1.410827	9.667877	4.356501	-3.73408	1.454333	0.213279	-0.79073	-0.878186	8.231174	2.51214	-0.325351	8.634369	8.003443	3.292476	-1.268287	-0.250181	-0.083699
-10.654006	2.780519	11.145858	-129.516221	-174.732696	80.014617	0.648422	-0.210137	-0.204133	0.416071	1.524131	9.436366	5.111978	-4.423556	1.721313	0.2287	-0.8149	-0.770148	7.70506	1.936813	-1.037988	6.926101	8.05522	7.489353	-1.302512	-0.271398	-0.04577
-12.376553	3.589488	11.527837	-112.893631	-156.229222	76.420575	0.636414	-0.210137	-0.216141	0.308311	1.353414	9.790164	5.897256	-5.204713	1.770514	0.214778	-0.84981	-0.840163	7.710238	2.282035	-0.744961	5.223077	7.706347	11.643758	-1.268595	-0.248251	-0.102022
-16.311281	4.227111	10.684623	-96.439698	-133.562216	72.030649	0.636414	-0.192125	-0.222145	0.025443	1.583604	10.081791	6.866574	-5.869653	2.625123	0.199607	-0.811011	-0.841813	7.875889	2.108636	-1.033935	4.617104	7.139623	15.584978	-1.267871	-0.218941	-0.050783
-17.56761	4.223579	8.237748	-88.137071	-106.088716	60.450963	0.624406	-0.204133	-0.228148	0.530679	1.810002	9.43932	8.548458	-6.360933	3.113448	0.199183	-0.791824	-0.842581	7.250123	1.82301	-0.989192	4.071469	6.296041	19.301245	-1.250608	-0.234659	-0.066951
-25.519134	12.93589	15.075799	-85.656789	-84.2574	46.234896	0.636414	-0.198129	-0.240156	0.370296	1.525428	10.02938	8.520011	-7.714596	3.861382	0.213929	-0.811436	-0.841699	7.65408	2.454424	-0.687125	3.548833	5.453544	22.677972	-1.302913	-0.201195	-0.053228
-22.052044	-13.766477	6.983678	316.299865	-52.610862	281.344973	0.612399	-0.180117	-0.234152	0.438139	1.240068	10.50535	10.214855	-9.067441	4.73587	0.199408	-0.793343	-0.806862	7.763016	3.543531	-0.855954	7.865068	5.009927	23.010521	-1.285858	-0.232533	-0.085854
-52.241195	27.290301	-13.355897	281.619353	56.451696	-39.284911	0.63041	-0.198129	-0.240156	0.66211	1.525083	10.213578	15.410437	-10.728179	6.228664	0.226976	-0.754301	-0.843889	7.661435	3.603362	-0.216119	8.487076	4.975803	23.521066	-1.28545	-0.252014	-0.065667
-30.901774	7.687568	-20.077809	-14.245411	24.333432	23.672798	0.642418	-0.222145	-0.234152	0.029363	1.927445	10.320167	16.938212	-12.513829	8.454108	0.185511	-0.812105	-0.806208	8.188374	2.916479	0.433587	11.928775	4.906543	23.203723	-1.2505	-0.201489	-0.052357
-29.703896	18.31561	1.536633	31.1473	26.340417	28.316243	0.642418	-0.216141	-0.24616	0.553578	1.182561	10.507609	12.600755	-15.332707	10.00233	0.185936	-0.831292	-0.80544	8.322228	2.690381	1.427089	10.038568	5.372434	23.593836	-1.32151	-0.160204	-0.112216
2.92645	7.066295	-13.511634	117.413901	-2.237993	38.562983	0.618402	-0.216141	-0.228148	1.297173	1.638135	10.286293	17.497036	-19.902124	10.794129	0.186586	-0.851998	-0.768954	9.18195	2.173389	1.61743	10.032468	8.023106	23.792907	-1.285442	-0.201293	-0.052937
4.213009	13.090351	6.261703	-115.064599	-30.768787	-8.666052	0.63041	-0.204133	-0.222145	0.610259	1.58303	10.509608	30.89695	-24.330958	9.472116	0.214041	-0.812196	-0.82384	9.620706	2.399008	0.75207	8.732021	12.072292	21.62293	-1.251325	-0.213247	-0.105461
-2.615949	2.021989	12.659591	-179.334534	-16.815593	-20.109283	0.642418	-0.222145	-0.234152	0.953626	0.666061	10.277198	25.591293	-30.248872	7.257094	0.184974	-0.792159	-0.824836	10.4026	3.484962	0.013398	5.67607	13.570965	18.305631	-1.268072	-0.18384	-0.054512
-5.594089	-1.535724	13.242721	-152.534439	5.545527	0.110777	0.636414	-0.186121	-0.252164	1.074033	1.009742	10.577369	6.494674	-36.509218	3.62215	0.171077	-0.81092	-0.824182	10.901528	4.629143	-0.614069	2.861458	10.574476	13.098229	-1.286059	-0.197431	-0.089583
-6.855746	-3.142859	13.391434	-58.67805	9.917288	0.965448	0.642418	-0.204133	-0.240156	0.581029	1.127995	11.874158	-16.416552	-49.841702	3.220927	0.157518	-0.831961	-0.769949	11.694446	4.512123	-0.890261	1.481685	2.915933	8.807709	-1.286776	-0.176019	-0.128094
-5.978277	-1.424841	11.226704	20.201822	7.794989	-11.306239	0.624406	-0.204133	-0.234152	0.649415	4.283039	15.683423	-26.802197	-54.373661	-1.325432	0.158342	-0.886483	-0.839083	12.039891	4.626937	-0.707919	-0.059425	-6.196204	5.865902	-1.286059	-0.197431	-0.089583
-4.58969	1.383931	8.779199	38.883053	12.186446	-3.102451	0.636414	-0.192125	-0.228148	-0.015773	3.365645	14.004741	17.26555	-71.067877	0.800646	0.17119	-0.81168	-0.806322	11.929951	4.914767	-0.475743	-0.488479	-12.140742	4.379346	-1.321001	-0.197236	-0.090164
-3.988626	2.183818	7.138572	27.872374	8.395855	4.404007	0.642418	-0.210137	-0.240156	-0.117718	3.018004	11.744891	57.310718	-77.633668	5.3242	0.156868	-0.811255	-0.806436	11.756836	4.742528	-0.596507	-2.254247	-12.039962	3.246197	-1.250801	-0.148837	-0.05795
-3.984854	2.586828	7.375962	24.781275	3.943901	5.948409	0.63041	-0.198129	-0.24616	-0.360254	3.532582	11.206402	-4.653416	-85.715216	9.519757	0.143397	-0.849204	-0.805014	11.197136	5.261776	-0.022508	-2.892926	-7.964417	2.049853	-1.320994	-0.146514	-0.077434
-4.089607	2.990877	7.965734	7.84543	2.386727	5.588677	0.642418	-0.216141	-0.222145	0.530903	3.418594	12.531227	-20.182408	-95.532406	12.066452	0.143284	-0.848444	-0.822874	11.023395	5.491083	-0.141817	-1.169386	-3.826022	-1.288032	-1.251325	-0.213247	-0.105461
-3.617111	2.876455	8.565488	-5.009258	1.347683	1.654893	0.642418	-0.198129	-0.234152	0.009734	2.904426	12.341236	-10.986944	-105.069942	15.927463	0.11328	-0.773125	-0.772595	11.149586	5.780011	0.503423	0.395616	-1.475041	-4.76632	-1.303222	-0.199264	-0.071551
-4.131299	2.24537	8.731164	-17.917246	3.376712	-0.460007	0.648422	-0.204133	-0.234152	0.524311	2.215845	12.053432	-18.202086	-114.604075	19.698258	0.113904	-0.809979	-0.806778	11.659021	5.319464	0.278623	1.130201	-1.529433	-7.464436	-1.303322	-0.181714	-0.073415
-4.523278	1.499926	9.253437	-14.504177	5.00136	-2.058952	0.636414	-0.198129	-0.234152	1.160897	1.69937	12.124872	-20.288656	-122.125555	20.641469	0.084949	-0.790702	-0.789914	10.867784	5.09251	0.611924	1.803139	-3.038535	-8.445771	-1.28565	-0.216913	-0.069396
-4.461761	1.212772	9.43118	-8.413986	5.637442	-1.196709	0.648422	-0.198129	-0.228148	1.674563	0.896214	11.777417	-11.200224	-128.508302	19.555041	0.054607	-0.713104	-0.793214	10.078405	4.406854	1.001916	2.639411	-3.811502	-8.422905	-1.268789	-0.162428	-0.093022
-4.13538	2.014841	8.49419	-5.023164	4.915371	-1.039281	0.63041	-0.204133	-0.24616	1.257969	1.869045	11.236292	-1.740314	-132.786477	20.236439	0.057356	-0.845893	-0.823557	9.732602	4.521494	0.820407	2.842243	-4.553237	-8.047391	-1.232613	-0.170347	-0.01915
-3.905357	1.66933	8.438746	-7.769348	4.084658	-0.397663	0.648422	-0.198129	-0.240156	2.049832	1.293188	10.419876	9.864879	-134.456443	19.917966	0.013767	-0.807763	-0.789716	9.563006	4.292516	0.874501	3.939739	-4.432823	-8.004243	-1.267563	-0.220872	-0.03246
-4.586114	1.269361	8.956235	-7.649795	2.767314	0.262981	0.642418	-0.192125	-0.240156	2.023845	1.23341	9.112516	13.018787	-134.011788	18.263527	-0.028885	-0.824915	-0.807149	9.447371	3.833369	0.75384	4.82688	-3.881754	-7.513023	-1.250809	-0.199558	-0.07068
-4.180442	1.268918	9.082307	-2.964589	1.751411	1.60749	0.642418	-0.204133	-0.240156	2.01672	1.232715	8.755995	10.457423	-131.29322	17.380987	-0.014875	-0.806912	-0.789944	8.650149	3.777467	0.795985	5.61478	-3.175468	-7.262	-1.303014	-0.183644	-0.055092
-4.241547	1.326098	8.904009	5.755902	0.926977	1.268635	0.636414	-0.210137	-0.234152	2.708821	2.08973	8.890824	13.182543	-128.491643	19.10356	-0.05784	-0.805637	-0.790286	8.188175	3.777143	0.495062	6.196208	-1.665377	-7.507949	-1.285235	-0.185673	-0.036479
-3.850692	2.071403	8.322632	3.809177	0.489447	1.527006	0.636414	-0.198129	-0.228148	2.704822	1.287936	8.5921	20.139514	-123.244967	20.938894	-0.086057	-0.823973	-0.789746	8.480036	3.146734	0.790268	6.875521	-0.494854	-7.703897	-1.267979	-0.252112	-0.065376
-4.077645	1.957245	8.495175	-0.811459	0.435359	0.937425	0.642418	-0.198129	-0.234152	3.496152	1.914134	7.896958	16.716632	-118.764966	20.827545	-0.086057	-0.823973	-0.789746	7.68351	3.377858	0.891809	7.464976	0.152749	-8.190417	-1.26828	-0.19946	-0.07097
-4.133237	2.072612	8.612538	-3.662358	0.369846	0.670814	0.642418	-0.210137	-0.240156	2.853271	2.086535	7.468302	12.490529	-111.411081	19.59239	-0.100578	-0.805881	-0.754909	7.783411	3.662002	0.194866	7.078994	0.218269	-9.043975	-1.285959	-0.214982	-0.087719
-4.186882	1.728171	8.787896	-4.885791	0.758259	0.88584	0.642418	-0.210137	-0.240156	3.495242	1.799558	7.837306	16.26793	-105.005946	21.659066	-0.114787	-0.806215	-0.737163	7.50141	3.835165	0.364842	6.188689	-0.39381	-9.721839	-1.268287	-0.250181	-0.083699
-4.127621	2.073307	8.908061	-2.363338	0.895541	0.398198	0.642418	-0.210137	-0.234152	3.954979	1.912794	7.787618	12.907541	-102.302741	20.373333	-0.129421	-0.787362	-0.720186	7.614511	3.72005	0.308356	4.656785	-1.157936	-10.545354	-1.285643	-0.166192	-0.056666
-3.619751	1.841017	8.326569	-0.385013	0.782746	0.501966	0.648422	-0.198129	-0.234152	3.571892	1.801273	8.789217	7.915981	-94.360869	21.093175	-0.143942	-0.769269	-0.685349	7.904582	4.236916	0.607722	3.093421	-1.49123	-11.109327	-1.269097	-0.160497	-0.111345
-3.831382	1.32621	9.266499	0.924308	0.145683	0.191901	0.636414	-0.204133	-0.252164	3.804176	2.087099	8.913387	12.579265	-90.235901	21.545511	-0.157726	-0.788791	-0.666835	7.960313	3.60541	0.489866	1.782699	-2.134049	-11.502227	-1.285134	-0.203224	-0.034614
