1812_acc_x	1812_acc_y	1812_acc_z	1812_gyro_x	1812_gyro_y	1812_gyro_z	1812_mag_x	1812_mag_y	1812_mag_z	1813_acc_x	1813_acc_y	1813_acc_z	1813_gyro_x	1813_gyro_y	1813_gyro_z	1813_mag_x	1813_mag_y	1813_mag_z	1814_acc_x	1814_acc_y	1814_acc_z	1814_gyro_x	1814_gyro_y	1814_gyro_z	1814_mag_x	1814_mag_y	1814_mag_z
-2.175116	1.858253	9.588899	1.740263	3.829064	0.340002	0.656905	0.028699	-0.939372	3.662219	1.959742	8.332862	-2.207943	-7.044726	2.440647	-0.198129	-0.072047	0.03002	9.902013	0.505911	0.092448	-0.116044	1.434818	0.261756	-0.777885	0.302051	1.005614
-2.580207	1.800181	9.407314	0.755227	4.103999	0.160794	0.652414	0.013692	-0.992748	3.895839	1.614696	8.691818	-2.401802	-6.567084	2.385619	-0.204133	-0.066043	0.042027	9.90595	0.796444	0.322131	-0.146858	1.438064	0.016835	-0.678911	0.520766	-0.307903
-2.469669	1.451254	9.177502	0.657324	4.078232	-0.021293	0.681361	-0.000775	-1.007807	3.883886	1.615813	8.042817	-2.445675	-5.853826	1.876701	-0.186121	-0.078051	0.036023	9.783508	0.562983	-0.13791	-0.208289	1.380536	-0.28801	-0.676684	0.516517	-0.320369
-2.302466	1.856827	8.950651	0.680909	3.987721	-0.208927	0.671307	0.071372	-1.013224	3.777708	1.50096	8.394847	-1.96768	-5.288847	1.401107	-0.204133	-0.066043	0.024016	9.446922	0.275235	0.082387	-0.60783	1.260712	-0.807325	-0.661115	0.510456	-0.304142
-2.404502	1.684347	9.583908	0.353495	3.567896	-0.401742	0.670925	0.05186	-0.993959	4.060199	1.901053	8.45857	-1.915173	-4.584411	0.980826	-0.216141	-0.078051	0.036023	9.620448	0.623061	0.258619	-0.546389	1.237162	-1.23464	-0.628604	0.521596	-0.327581
-2.127095	2.08925	9.128083	0.044732	2.715499	-0.52109	0.65036	0.015944	-1.029068	4.001677	1.844134	8.339585	-1.258357	-4.150605	0.490314	-0.210137	-0.054035	0.036023	9.850474	0.623131	0.377309	-0.730863	1.208316	-1.510229	-0.623725	0.499342	-0.3308
-2.521453	1.568094	9.465713	0.004626	2.439568	-0.53147	0.653823	0.032077	-0.993852	4.061051	1.614591	8.459078	-0.874136	-3.815271	0.312433	-0.216141	-0.066043	0.024016	9.680327	0.276094	0.372353	-0.792379	1.208918	-1.602329	-0.643747	0.513901	-0.322095
-2.296695	1.799483	9.239585	-0.439345	2.081517	-0.505063	0.671187	0.011709	-0.93727	3.836699	2.1306	8.630818	-1.038168	-3.337183	0.225444	-0.204133	-0.066043	0.018012	9.676379	0.564788	0.20239	-0.853848	1.180228	-1.785505	-0.658935	0.473943	-0.256091
-2.342597	1.742893	9.81645	-0.542754	1.933603	-0.753153	0.70539	0.051274	-0.937483	3.899099	1.614392	8.868819	-0.567909	-3.498207	0.537964	-0.216141	-0.066043	0.042027	10.300173	0.157473	0.041663	-1.192301	1.270279	-1.942339	-0.646399	0.531906	-0.331342
-2.065246	2.205839	9.360764	-0.454715	1.620281	-0.523642	0.689698	0.049877	-0.938481	3.717928	1.501435	8.21676	-0.528044	-3.277921	0.457933	-0.204133	-0.060039	0.036023	10.011168	0.620424	-0.133142	-1.407347	1.231993	-1.60617	-0.676684	0.516517	-0.320369
-2.641136	1.915902	9.233006	-0.796874	1.599308	-0.577488	0.686879	0.013106	-0.936272	3.657808	1.616495	8.03847	-0.615769	-3.248336	0.555731	-0.222145	-0.078051	0.036023	10.18954	0.795612	0.27067	-1.62258	1.257273	-1.424402	-0.676258	0.502762	-0.298655
-2.463311	1.974477	9.525649	-0.514949	1.495511	-0.282861	0.698845	0.03852	-1.027178	3.721636	0.9856	8.335674	-0.378851	-2.817386	0.451144	-0.210137	-0.060039	0.03002	10.187526	0.100067	0.096239	-1.376614	1.259851	-1.392555	-0.624198	0.480833	-0.291996
-2.116585	1.858337	9.647857	-0.429406	1.215062	-0.204735	0.69808	-0.000504	-0.988649	3.325147	1.273255	8.32756	-0.177048	-2.479648	0.372759	-0.216141	-0.066043	0.036023	9.559899	0.738179	0.086742	-1.469091	1.352026	-1.486945	-0.609482	0.502283	-0.319197
-2.41044	1.915819	9.295393	-0.615288	1.094812	-0.052459	0.68418	0.035997	-1.010016	4.002529	1.557672	8.340092	-0.022155	-1.983109	-0.311814	-0.204133	-0.054035	0.036023	9.84507	0.506024	0.091322	-1.468993	1.320016	-1.394447	-0.641993	0.491143	-0.295757
-2.297085	2.205782	9.240563	-0.409219	0.656098	0.107979	0.702954	0.034014	-0.954538	3.547518	1.788408	8.212993	0.759011	-1.264144	-0.417712	-0.210137	-0.066043	0.042027	9.673342	0.39031	0.030325	-1.31487	1.139818	-1.51178	-0.627751	0.494085	-0.284154
-2.57477	2.091093	9.697087	-0.604898	0.479022	-0.077998	0.684825	0.015358	-0.972592	3.554038	1.787799	8.566994	3.182927	-0.422372	-0.050078	-0.204133	-0.060039	0.048031	9.501943	0.680133	0.028261	-1.560923	1.141771	-1.849585	-0.659789	0.501454	-0.299518
-2.580318	1.916266	9.407594	-0.651472	-0.012574	-0.066523	0.654468	0.011439	-0.956428	3.554826	1.157684	8.50911	14.284804	-0.571129	3.245267	-0.198129	-0.072047	0.036023	9.955123	0.736594	-0.076651	-1.499731	1.265585	-1.882712	-0.677111	0.530273	-0.342082
-2.350654	1.799958	9.411886	-0.853298	-0.374144	-0.259931	0.702571	0.014502	-0.935274	3.604889	1.501776	8.214587	20.142706	-0.832284	4.653457	-0.210137	-0.060039	0.018012	9.617411	0.448583	0.086554	-1.776297	1.201327	-1.913294	-0.647299	0.527153	-0.314252
-2.466574	1.799929	9.351785	-1.015275	-0.553731	-0.324575	0.684825	0.015358	-0.972592	4.058303	1.443018	8.282382	15.251234	0.543589	2.570866	-0.210137	-0.060039	0.036023	9.790493	0.448767	0.204117	-1.960846	1.230158	-1.94554	-0.592587	0.48722	-0.298346
-2.463033	1.684263	9.52495	-0.985289	-0.710834	-0.148385	0.67157	0.031221	-0.956534	3.953317	0.927118	8.635123	10.727599	1.374182	1.088871	-0.216141	-0.066043	0.036023	9.782826	0.910361	-0.136333	-2.329412	1.071906	-1.913266	-0.675358	0.507515	-0.315745
-2.532884	1.566696	8.887565	-0.872767	-0.958373	-0.283464	0.65485	0.030951	-0.975692	3.950185	1.614729	8.574905	8.518088	0.571536	-0.180259	-0.210137	-0.066043	0.048031	9.443657	0.21655	-0.089153	-2.451336	0.639015	-1.750957	-0.657563	0.497204	-0.311984
-1.834049	1.683372	9.421893	-1.068508	-1.072678	-0.558539	0.673362	0.069119	-0.976903	3.723021	1.615512	8.511558	5.49387	0.486236	-0.261227	-0.216141	-0.066043	0.03002	9.501158	0.506181	-0.02962	-2.267178	0.791823	-1.569999	-0.644219	0.495393	-0.283291
-2.987584	1.741829	9.1101	-1.271312	-0.730033	-0.447967	0.670542	0.032348	-0.974694	3.660152	1.558999	8.156572	3.739749	0.282869	-0.303221	-0.222145	-0.066043	0.054035	10.129787	0.505456	0.096953	-2.390276	0.930875	-0.717503	-0.656236	0.488202	-0.30736
-2.289893	1.858364	9.586613	-0.930581	0.089524	-0.23905	0.639421	-0.010596	-0.920001	4.118146	1.786196	8.51886	2.426113	-0.473349	-0.242166	-0.204133	-0.060039	0.048031	9.617968	0.738328	0.144961	-1.774641	0.684636	-0.127368	-0.64332	0.500146	-0.300381
-2.513563	1.685157	9.870696	0.345707	1.00476	0.165473	0.670925	0.05186	-0.993959	3.671999	1.958828	8.863863	1.680924	-1.759872	-0.019459	-0.198129	-0.066043	0.048031	10.068452	0.446621	-0.132805	-1.22015	0.28529	0.404818	-0.660688	0.496701	-0.282428
-2.581684	2.148297	9.350338	0.272523	1.591425	0.191308	0.701544	0.015629	-0.953434	3.731032	1.84387	8.983153	0.766979	-3.589539	0.607198	-0.204133	-0.078051	0.042027	9.57016	0.103421	0.540588	-0.358868	0.166044	0.901571	-0.643274	0.53241	-0.360898
-2.463145	1.800349	9.52523	0.764669	2.25191	0.481771	0.687644	0.05213	-0.974801	3.893666	1.614899	8.573818	-0.601391	-4.588502	1.180036	-0.210137	-0.072047	0.042027	9.953667	0.330793	-0.192675	0.040483	0.376462	1.510535	-0.659789	0.501454	-0.299518
-2.581573	2.032212	9.350058	0.554947	2.473258	0.465288	0.669133	0.013962	-0.97359	3.614733	1.844515	8.803979	-1.291534	-5.475979	1.457237	-0.210137	-0.048031	0.036023	10.068111	0.620311	-0.132016	0.346805	0.842278	1.348455	-0.612181	0.488024	-0.267927
-2.696015	1.684067	9.346934	1.646981	2.626377	0.659534	0.687262	0.032618	-0.955536	3.603803	1.501877	8.155587	-2.309554	-5.664814	1.142192	-0.222145	-0.060039	0.036023	9.901786	0.621703	0.092974	0.838066	1.124648	1.313963	-0.625478	0.5221	-0.357137
-2.581127	1.56787	9.34894	1.526391	2.847414	0.488123	0.670542	0.032348	-0.974694	3.775194	1.615748	8.276644	-2.573412	-5.172825	0.874302	-0.210137	-0.072047	0.036023	10.304905	0.042732	0.269506	1.02228	1.194113	0.91574	-0.629504	0.516843	-0.310491
-2.51939	1.800544	9.581901	1.663954	3.243482	0.53168	0.699107	-0.001631	-0.970489	4.053509	1.958955	8.104468	-3.403288	-4.478374	0.176415	-0.210137	-0.060039	0.036023	9.971016	0.103151	0.662656	0.990495	1.570604	0.29514	-0.645073	0.522904	-0.326718
-2.802037	2.091595	9.808144	1.719832	3.15131	0.404329	0.686879	0.013106	-0.936272	3.612325	1.558357	8.627486	-3.794423	-3.909391	-0.267336	-0.210137	-0.060039	0.03002	10.076211	1.085585	0.326824	0.651974	1.637254	-0.350509	-0.659835	0.469189	-0.239001
-2.517215	1.916909	9.69781	0.700833	2.989774	0.69695	0.672597	0.030095	-0.938374	3.837722	1.786845	8.631427	-4.448189	-3.285964	-0.358104	-0.204133	-0.072047	0.042027	9.55809	1.085294	0.031227	0.068022	1.511985	-0.656594	-0.625951	0.503591	-0.318334
-2.634277	1.916741	9.579895	0.241368	2.641064	0.051804	0.669515	0.033474	-0.992854	3.941897	1.844609	8.161497	-3.060243	-2.751638	0.181985	-0.222145	-0.078051	0.03002	9.668154	0.736637	-0.196466	-0.885819	1.754509	-1.279047	-0.597466	0.509474	-0.295127
-2.357735	2.03129	9.065556	-0.15588	2.19636	-0.445966	0.652031	-0.00582	-0.973483	4.049673	1.787483	7.868771	-0.083299	-1.858622	0.316472	-0.210137	-0.072047	0.042027	9.953769	0.852124	-0.133217	-1.716086	1.779463	-1.589941	-0.627278	0.512594	-0.322957
-2.247475	1.972577	8.836443	-0.860434	1.633379	-0.696814	0.65485	0.030951	-0.975692	3.675535	1.500285	8.982676	4.465892	-0.402762	0.893467	-0.204133	-0.054035	0.036023	9.679974	1.02901	0.432862	-2.514721	1.436082	-1.830952	-0.663341	0.514705	-0.291676
-2.648161	2.089192	8.886537	-1.512503	0.854807	-1.049443	0.702954	0.034014	-0.954538	4.395651	1.671267	8.229495	5.802637	1.000684	-0.239454	-0.210137	-0.054035	0.024016	9.669838	1.026645	-0.080967	-3.190084	0.944587	-2.312548	-0.678011	0.52552	-0.324993
-2.811125	2.032434	9.345486	-2.345583	0.015785	-1.125218	0.685852	0.014232	-0.954432	4.05745	1.72948	8.281874	5.725564	2.288276	-1.575661	-0.204133	-0.048031	0.042027	9.845855	0.679976	0.149203	-3.127889	0.639743	-2.366315	-0.657563	0.497204	-0.311984
-2.582215	1.509688	9.290986	-2.273809	-0.570029	-1.212103	0.671187	0.011709	-0.93727	3.77873	1.157205	8.395456	4.458907	2.445732	-2.353942	-0.228148	-0.054035	0.036023	9.609186	0.620432	-0.312302	-2.911461	0.14881	-2.13967	-0.639767	0.486894	-0.308223
-2.752149	1.568177	9.403326	-2.96952	-1.1697	-1.036841	0.704363	0.0524	-0.955643	3.949845	1.729314	8.574702	3.495835	1.694862	-2.088953	-0.210137	-0.072047	0.03002	9.61707	0.622272	0.087343	-2.726801	0.114088	-1.709679	-0.623725	0.499342	-0.3308
-2.751284	1.85853	9.46184	-2.508958	-1.650749	-0.517482	0.651387	0.014818	-1.010908	3.610046	1.959506	8.567776	2.365819	0.890077	-1.265075	-0.192125	-0.072047	0.024016	9.681328	0.91348	0.489428	-2.296449	0.230667	-0.945441	-0.67763	0.4795	-0.242762
-2.922139	1.684708	9.515806	-1.884817	-1.796343	-0.07991	0.642622	0.045688	-0.941475	4.0638	1.786164	8.635774	1.281039	0.465268	-0.603901	-0.210137	-0.072047	0.03002	9.672329	0.332151	-0.02703	-1.189953	0.421866	-0.515736	-0.642847	0.518655	-0.339184
-2.630793	1.859117	9.753199	-1.243254	-1.419209	0.378719	0.687906	0.01198	-0.918112	4.173579	1.786127	8.460946	0.829185	-0.294957	0.012749	-0.210137	-0.060039	0.048031	9.788923	0.100863	0.088356	-0.268366	0.822175	0.12222	-0.645546	0.504395	-0.287915
-2.403804	2.148829	9.64284	-1.050777	-1.208836	0.382784	0.683798	0.016485	-0.990752	3.718227	2.131448	8.333644	0.653121	-0.268403	0.237179	-0.222145	-0.066043	0.036023	9.786784	0.042441	-0.026092	0.869223	0.834831	0.219797	-0.625478	0.5221	-0.357137
-2.689046	1.56882	9.693543	-0.78795	-0.785693	0.455035	0.69949	0.017881	-0.989754	4.282847	1.957968	8.285815	0.423481	-0.374894	0.084177	-0.222145	-0.072047	0.036023	10.077018	0.101083	0.265263	1.791367	0.937695	0.252953	-0.610382	0.49753	-0.302107
-2.122133	1.68351	9.358364	-0.842352	-0.412112	0.257757	0.700517	0.016755	-0.971594	3.940576	1.55835	8.044005	0.122206	0.02727	-0.219021	-0.204133	-0.072047	0.036023	9.680327	0.276094	0.372353	2.652083	0.98303	-0.018735	-0.673605	0.484757	-0.289407
-2.409408	2.032045	9.353487	-0.431956	-0.177095	0.288213	0.668106	0.015088	-0.99175	4.113288	1.95848	8.282555	-0.293911	0.398424	-1.014501	-0.204133	-0.054035	0.048031	9.845286	0.969458	0.150517	2.928368	1.142864	-0.235051	-0.643747	0.513901	-0.322095
-2.695429	2.264633	9.406146	-0.676339	-0.046758	0.238257	0.703336	0.053526	-0.973803	3.722445	1.443736	8.452862	0.203088	0.968926	-1.02688	-0.210137	-0.072047	0.03002	10.016139	-0.189337	0.034454	2.95986	0.781777	-0.654698	-0.674931	0.493759	-0.294031
-2.531796	1.624879	8.94552	-0.565929	-0.293023	0.011603	0.702309	0.054653	-0.991963	4.109389	1.443355	7.988467	0.663597	1.749913	-1.457092	-0.210137	-0.072047	0.054035	9.959412	0.274211	0.092523	2.744574	0.782751	-0.900559	-0.610382	0.49753	-0.302107
-2.465709	2.090283	9.410299	-0.772003	-0.199342	0.325942	0.68418	0.035997	-1.010016	3.946585	1.729618	8.397701	0.933873	2.745929	-2.268359	-0.210137	-0.066043	0.042027	9.788354	0.390345	0.08967	2.560883	0.417199	-1.19892	-0.613934	0.510782	-0.294264
-2.23125	1.742363	9.645291	-0.723618	-0.537929	0.219207	0.665669	-0.002171	-1.008805	3.841323	1.671956	8.808631	1.045656	3.619413	-2.989015	-0.198129	-0.072047	0.03002	9.790596	0.970098	0.263575	2.408169	-0.013807	-1.189746	-0.611282	0.492777	-0.285017
-2.117617	1.742112	9.589762	-1.169763	-0.831933	0.064941	0.687644	0.05213	-0.974801	3.778582	2.302749	8.570427	1.531218	4.665153	-3.155925	-0.210137	-0.054035	0.024016	9.387271	0.506409	-0.031872	2.10087	-0.07935	-1.159292	-0.610382	0.49753	-0.302107
-2.349567	1.85814	9.46984	-1.259581	-1.62893	-0.026777	0.656905	0.028699	-0.939372	4.17718	1.671238	8.63815	1.432818	5.336438	-3.41834	-0.210137	-0.066043	0.03002	9.440722	0.563403	-0.20176	1.73257	-0.359301	-1.185365	-0.606829	0.484278	-0.309949
-2.357791	2.089333	9.065696	-1.296211	-2.641942	-0.189751	0.68418	0.035997	-1.010016	3.556722	1.615719	8.685299	2.304884	5.361662	-3.417518	-0.216141	-0.066043	0.042027	9.272372	0.448477	-0.09148	1.332794	-0.332669	-1.249302	-0.626424	0.485082	-0.27953
-2.188079	2.263015	8.953915	-1.443103	-3.986931	-0.638771	0.671952	0.050733	-0.975799	3.670848	1.615276	8.746472	3.230276	6.213316	-3.211101	-0.204133	-0.072047	0.036023	9.956374	0.099733	-0.079542	1.056623	-0.57902	-1.398	-0.630403	0.51209	-0.293402
-2.299315	2.14746	9.124794	1.001012	-5.649045	-0.948491	0.688289	0.031492	-0.937376	3.6629	1.730572	8.333268	3.758419	6.916418	-3.401536	-0.210137	-0.060039	0.036023	9.620221	0.738854	0.259145	0.902208	-0.329816	-1.802216	-0.630403	0.51209	-0.293402
-2.693618	1.568261	9.462284	11.853249	-9.907285	-5.781813	0.667723	-0.004424	-0.972485	4.114311	1.614725	8.283164	5.664516	8.325387	-2.762352	-0.228148	-0.072047	0.03002	9.792643	-0.072037	0.258844	0.594406	-0.261428	-2.539502	-0.656663	0.501958	-0.329074
-2.218955	2.034114	10.281952	83.244549	-15.47119	-28.882853	0.685207	0.03487	-0.991856	3.601289	1.616665	8.037383	6.348085	11.972855	-2.306009	-0.216141	-0.066043	0.024016	9.39437	0.334297	0.309892	0.285415	0.218563	-4.173319	-0.644646	0.509148	-0.305005
-2.619738	2.491942	7.443289	69.536244	-17.98508	-25.452049	0.667079	0.016214	-1.00991	3.948694	1.385762	8.45731	3.366855	15.367224	-2.937969	-0.210137	-0.054035	0.042027	9.847778	0.274964	0.204455	-0.392023	0.533956	-5.346525	-0.59434	0.509978	-0.324683
-2.53829	2.436778	8.658402	31.551616	-25.048067	-18.055993	0.699107	-0.001631	-0.970489	3.722169	1.901974	8.51105	2.790592	17.351222	-2.94429	-0.204133	-0.060039	0.042027	9.463259	-0.010567	0.880363	-0.300416	0.621768	-7.060869	-0.622826	0.504095	-0.34789
-2.779385	2.551688	8.075962	15.423331	-31.809425	-14.527979	0.651004	-0.004694	-0.991643	4.174559	2.186971	8.578236	-2.814758	19.440701	-4.429902	-0.216141	-0.066043	0.036023	9.679769	-0.01365	0.313946	-1.501616	1.257164	-9.590113	-0.608156	0.493281	-0.314573
-2.373459	1.73912	8.255451	6.767633	-41.121778	-5.445654	0.669133	0.013962	-0.97359	3.791088	1.385157	9.103052	-3.601712	19.010189	-3.316323	-0.210137	-0.048031	0.042027	9.807171	-0.010724	1.001304	-3.195984	2.462967	-11.737638	-0.62865	0.489332	-0.267064
-1.557532	3.016957	8.968304	8.789763	-41.922486	-2.531847	0.669253	0.073624	-1.049544	3.555571	1.272167	8.567907	-1.4983	17.018448	-3.21149	-0.204133	-0.066043	0.042027	9.284204	0.161624	0.478127	-5.2593	3.611976	-14.497583	-0.662015	0.505703	-0.287052
-1.953312	2.785875	9.248818	4.334422	-37.467597	-2.151283	0.664642	-0.001045	-1.026965	4.177244	2.014891	8.696541	-1.90365	16.156186	-1.305069	-0.204133	-0.060039	0.042027	10.0159	0.505683	0.094701	-2.984292	3.644085	-14.761377	-0.623725	0.499342	-0.3308
-1.436651	2.611246	9.258686	3.973447	-29.531876	-0.808295	0.618593	-0.006361	-1.011799	3.715542	2.303529	8.215339	-5.329402	16.187078	0.830206	-0.210137	-0.060039	0.03002	10.247052	0.506017	0.270482	2.275461	2.885671	-12.941485	-0.643747	0.513901	-0.322095
-2.34374	1.742754	9.758635	-1.800041	-25.872649	-2.782126	0.609184	0.045147	-0.979791	3.664051	2.074123	8.450659	-10.344822	15.390375	1.672208	-0.204133	-0.054035	0.018012	10.312448	0.218261	0.669939	5.291375	1.966578	-10.426458	-0.657563	0.497204	-0.311984
-2.180831	1.857554	9.299825	0.270429	-25.241984	-1.094133	0.620385	0.031537	-1.032169	3.896926	1.614595	8.750819	-13.088762	12.307244	1.017945	-0.210137	-0.060039	0.036023	10.03607	-0.010916	1.062902	4.124939	1.396234	-8.064373	-0.589034	0.473968	-0.306188
-1.715146	2.148161	9.656556	-0.722285	-25.370177	-1.045242	0.621795	0.049923	-1.033273	3.6717	1.328814	8.74698	-16.243642	8.357587	-1.716635	-0.198129	-0.054035	0.036023	9.574904	-0.590547	0.70871	-0.27148	1.549664	-5.552946	-0.607729	0.479525	-0.292859
-2.057189	2.148774	9.765328	-3.041929	-24.697802	-0.656893	0.619358	0.032663	-1.050329	3.6168	2.245257	8.980269	-17.273697	4.474335	-5.04967	-0.198129	-0.054035	0.036023	8.929382	-0.593764	-0.274245	-7.680181	1.501843	-2.319025	-0.674505	0.480004	-0.272318
-2.352465	2.49633	9.355748	-3.927063	-23.667606	2.370721	0.601874	-0.006631	-1.030957	3.217328	2.074979	8.736967	-14.943986	1.27388	-6.946758	-0.198129	-0.060039	0.03002	8.921942	-0.247963	-0.615221	-13.488306	0.712437	0.604222	-0.629077	0.503087	-0.288778
-2.288274	2.555156	9.703919	-8.969292	-21.970579	5.249545	0.648568	-0.021953	-1.008699	2.991186	1.732008	8.674229	-9.188097	-1.409346	-7.853536	-0.204133	-0.054035	0.024016	9.436137	-1.117433	-0.609028	-14.221228	-1.112471	3.211718	-0.626851	0.498838	-0.301244
-1.664783	2.321395	9.31123	-11.459155	-19.052544	8.454044	0.645869	0.000937	-1.082444	3.441616	1.215317	8.506835	-2.581085	-2.000747	-6.679074	-0.186121	-0.060039	0.048031	9.436695	-0.827688	-0.550621	-12.861398	-3.833452	6.004138	-0.644219	0.495393	-0.283291
-1.488966	2.089476	9.487544	-12.854271	-16.180545	8.299575	0.60713	0.0474	-1.016111	3.547347	1.845701	8.212891	-1.698745	0.37998	-4.209616	-0.186121	-0.048031	0.036023	9.898771	-0.711228	-0.198533	-12.673432	-5.116447	7.961698	-0.59434	0.509978	-0.324683
-1.764421	2.033109	10.059837	-13.123054	-14.000963	7.020282	0.602639	0.032393	-1.069487	3.550266	1.959981	8.389689	-3.006814	3.751898	-3.420396	-0.210137	-0.060039	0.012008	9.676299	-1.114996	0.023491	-12.210514	-5.767596	8.86622	-0.591687	0.491973	-0.315436
-1.127269	1.859068	10.361065	-11.749216	-10.631095	5.567476	0.603284	0.011755	-1.032062	2.371879	2.02004	8.838769	-2.608934	3.541684	-3.293819	-0.192125	-0.060039	0.024016	10.135213	-0.535891	0.263498	-11.995504	-5.64732	9.201009	-0.640667	0.482141	-0.291133
-0.675244	2.089955	10.023879	-8.504202	-6.958037	3.043619	0.63505	0.03406	-1.049331	2.878658	1.560472	8.67236	0.709828	0.753281	-2.048074	-0.204133	-0.048031	0.018012	9.680679	-0.476822	0.311843	-11.750347	-5.199917	10.231801	-0.678484	0.507011	-0.286189
-1.125039	1.91739	10.476834	-5.863507	-2.913889	-0.703535	0.601492	-0.026143	-1.011693	3.219949	1.559246	8.79688	3.812786	-1.926415	1.40665	-0.198129	-0.060039	0.036023	9.959309	-0.247119	0.033065	-11.290637	-4.527598	10.738604	-0.627751	0.494085	-0.284154
-1.062633	1.453552	10.708118	0.025304	3.058694	-3.13461	0.554153	0.009818	-1.071376	3.443001	1.845229	8.682719	6.984534	-4.138442	3.621744	-0.204133	-0.048031	0.03002	10.420828	-0.420404	0.326747	-11.044834	-4.382637	11.501154	-0.658462	0.492451	-0.294894
-1.177744	1.801919	10.70667	5.127861	9.463796	-4.092949	0.604693	0.03014	-1.033167	3.105418	1.33062	8.677113	10.051451	-6.228563	5.384887	-0.192125	-0.048031	0.03002	9.683387	-0.707881	0.424976	-10.950963	-4.977931	12.463551	-0.644646	0.509148	-0.305005
-1.235299	1.976103	10.705947	11.977498	16.126785	-4.776632	0.585537	0.012611	-1.06938	3.44592	1.95951	8.859517	12.910224	-7.283639	5.98587	-0.192125	-0.048031	0.024016	9.274079	-0.419969	-0.095423	-10.457568	-5.668254	11.901125	-0.644219	0.495393	-0.283291
-1.70762	1.452487	10.001768	14.672671	19.511106	-5.31287	0.589384	0.048256	-1.053429	3.658895	1.616393	8.09747	12.262139	-6.668678	6.048866	-0.192125	-0.054035	0.036023	9.898544	-0.595435	-0.198007	-9.195449	-6.490136	10.520124	-0.656663	0.501958	-0.329074
-1.926521	2.266705	10.5773	18.306528	23.253835	-4.573235	0.58592	0.032123	-1.088645	3.658447	2.131923	8.155557	9.162506	-3.803015	5.510957	-0.186121	-0.042027	0.03002	9.673353	-0.188917	-0.029395	-7.258119	-6.839827	8.85654	-0.660262	0.482945	-0.260714
-2.339502	2.091569	9.990732	19.499856	27.155082	-3.921876	0.598793	-0.003252	-1.085438	3.143763	1.962189	7.79208	5.156652	-0.252703	3.937404	-0.198129	-0.036023	0.042027	10.291845	-0.192008	-0.416652	-5.382133	-7.331303	6.370132	-0.628604	0.521596	-0.327581
-1.93207	2.091878	10.287807	16.153759	32.739209	-2.635127	0.618593	-0.006361	-1.011799	3.712964	2.074664	8.038744	-0.174375	3.665544	2.930048	-0.192125	-0.060039	0.036023	10.193726	-0.188101	0.380386	-2.122569	-7.862507	3.586213	-0.625098	0.47608	-0.274906
-1.803465	1.977358	10.983591	21.914166	40.511946	-1.1999	0.587592	0.010358	-1.03306	3.598774	1.731453	7.91918	-3.820521	7.398268	2.313093	-0.192125	-0.072047	0.03002	10.011179	0.041198	-0.192863	3.50517	-8.780085	-0.093594	-0.663387	0.482441	-0.231159
-2.370464	0.759717	11.2583	28.970474	50.488274	0.997899	0.63505	0.03406	-1.049331	3.939213	2.016689	8.043193	-8.504794	10.871404	0.975539	-0.192125	-0.066043	0.03002	10.135077	0.680459	0.383203	8.793973	-9.415085	-4.515882	-0.642893	0.48639	-0.278667
-2.066989	1.400004	12.132774	35.115043	65.612321	4.681739	0.60572	0.029014	-1.015006	3.485735	1.731794	7.917007	-10.715629	13.112124	0.952396	-0.192125	-0.072047	0.036023	10.588131	1.374043	0.338275	14.45142	-9.915681	-9.428761	-0.693153	0.517825	-0.319506
-2.126021	1.922304	12.075074	42.367586	82.323756	7.24319	0.633903	-0.024476	-0.991537	3.21377	1.44527	8.443082	-10.597142	14.232983	0.834557	-0.198129	-0.054035	0.03002	9.284067	1.377974	0.597832	21.366382	-9.101551	-15.160721	-0.645546	0.504395	-0.287915
-2.579215	2.910314	12.415194	34.590722	93.029856	5.147831	0.655878	0.029825	-0.957532	3.108167	1.502193	8.853809	-10.538482	14.369416	0.563042	-0.210137	-0.036023	0.018012	9.221936	1.724414	0.369914	28.80142	-7.05761	-20.735014	-0.675831	0.489006	-0.276941
-2.971317	1.228443	12.807844	37.554962	79.950285	12.39425	0.666696	-0.003298	-0.990645	3.228642	1.558434	9.268882	-8.991868	13.483201	0.789919	-0.192125	-0.03002	0.03002	8.98843	1.202225	0.02049	34.5412	-2.903574	-23.308685	-0.675831	0.489006	-0.276941
-3.340911	4.207427	20.378419	14.2169	90.574806	31.355717	0.662085	-0.077967	-0.968067	3.236014	1.271363	9.62339	-5.736565	10.498214	2.272535	-0.204133	-0.042027	0.03002	9.605341	1.430456	-0.422807	37.39138	1.283436	-22.258724	-0.64114	0.463632	-0.25233
-6.019511	1.934249	15.349465	42.370926	107.06439	8.839752	0.700779	-0.023395	-0.914904	3.350545	1.499988	9.743158	-2.766732	5.924617	3.447298	-0.186121	-0.054035	0.024016	9.89785	0.33117	-0.136709	36.984231	4.836352	-18.366947	-0.64332	0.500146	-0.300381
-5.10193	-0.03333	18.136967	52.57765	126.082424	12.800942	0.746828	-0.018079	-0.93007	3.062279	1.214988	9.384231	-0.366091	1.759333	3.834555	-0.192125	-0.066043	0.018012	10.768563	-0.072131	0.677635	36.093328	4.620624	-16.959725	-0.638441	0.477892	-0.303599
-5.040531	-1.832429	18.249408	75.494933	134.626462	30.883232	0.71198	-0.037006	-0.967282	3.631587	0.926516	9.572606	2.557463	-2.186997	3.784209	-0.198129	-0.066043	0.012008	10.595492	-0.651542	0.500351	35.269151	2.170899	-15.683863	-0.639341	0.473139	-0.286509
-5.04304	-1.600538	18.134337	88.145404	140.335345	46.465817	0.745681	-0.076615	-0.872276	3.396645	0.985303	9.096156	5.389768	-6.623891	3.674815	-0.186121	-0.060039	0.042027	10.984425	-1.465517	-0.066367	33.522991	-0.772326	-17.03199	-0.690973	0.481311	-0.271455
0.039676	-5.272716	13.892294	84.970498	134.698883	48.174244	0.762782	-0.056833	-0.872383	2.94662	1.731062	9.322144	6.933395	-11.227793	4.219607	-0.198129	-0.066043	0.012008	10.979465	-1.234983	-0.293684	31.834042	-2.11945	-20.588536	-0.624671	0.462324	-0.253193
5.214956	-5.334508	14.515355	58.887152	115.031557	43.707301	0.74697	-0.117892	-0.797427	3.450033	1.672743	9.037025	7.52226	-14.191498	5.089711	-0.198129	-0.042027	0.03002	11.079836	-1.238365	-0.976538	29.498941	-3.424404	-25.464868	-0.656709	0.469693	-0.268557
11.865947	-7.148307	11.34931	53.640627	89.350651	28.32068	0.808711	-0.11118	-0.811595	3.561474	1.844381	8.979893	3.975832	-14.507607	6.249017	-0.204133	-0.054035	0.024016	11.423066	-0.891143	-0.854019	26.853361	-3.446693	-30.311535	-0.646019	0.485886	-0.249111
16.577477	-8.088036	8.782462	11.845826	74.587865	-5.36738	0.806536	-0.168589	-0.771961	3.735784	2.072532	9.277748	1.79896	-13.781978	6.034757	-0.198129	-0.060039	0.03002	12.105703	-0.54513	-0.838926	25.964909	-5.132035	-33.121986	-0.656709	0.469693	-0.268557
18.67143	-7.222948	7.381479	-8.295911	49.833238	-46.544777	0.824665	-0.149933	-0.753908	3.613306	1.959201	8.744776	0.168659	-12.771719	5.880689	-0.204133	-0.054035	0.042027	12.232649	-0.310617	-0.150516	26.155037	-7.547652	-33.309651	-0.655856	0.442182	-0.225129
18.747313	-8.388804	5.357453	-46.518639	24.738412	-79.11248	0.781173	-0.078327	-0.79764	3.501396	1.214842	8.684922	-1.358629	-11.936743	5.433515	-0.192125	-0.054035	0.042027	11.599732	0.152491	-0.446263	26.284727	-10.341864	-32.815904	-0.657609	0.46494	-0.251467
18.33014	-6.815897	7.549044	-58.40587	-21.091591	-91.587029	0.782845	-0.100092	-0.742055	3.840236	1.672057	8.74963	-1.338143	-11.553823	4.653866	-0.198129	-0.042027	0.024016	10.636429	0.039683	-0.237566	25.365601	-11.628578	-31.53686	-0.656282	0.455938	-0.246843
16.592912	-6.061489	6.764979	-70.959165	-48.561391	-98.526072	0.797127	-0.117081	-0.739953	3.670166	1.844446	8.746066	-0.260915	-10.760089	4.078467	-0.192125	-0.060039	0.012008	10.746811	0.67579	-0.346607	23.554149	-12.731493	-31.001011	-0.623344	0.453322	-0.248569
15.059018	-4.432695	7.605253	-88.922908	-72.435638	-98.65167	0.845995	-0.074994	-0.757328	3.783929	0.870337	8.631965	-0.016354	-10.519746	2.879779	-0.198129	-0.048031	0.03002	10.398189	-0.367765	-0.814833	21.160495	-14.617468	-29.807772	-0.658082	0.446431	-0.212663
12.731223	-3.208304	8.891065	-91.948022	-96.895879	-84.52396	0.788101	-0.046061	-0.727209	3.332753	1.272544	8.740561	1.790352	-10.674693	0.857253	-0.204133	-0.066043	0.03002	9.938923	-0.193954	-0.994331	18.39913	-17.13679	-29.611249	-0.65273	0.442686	-0.254685
9.075388	-1.867525	9.746165	-91.653721	-113.47557	-58.388461	0.771764	-0.026819	-0.765632	3.661579	1.444313	8.215775	2.953164	-10.12022	-1.127308	-0.204133	-0.066043	0.036023	9.297337	0.093362	-1.747603	15.542463	-18.393659	-29.903345	-0.67545	0.442986	-0.194711
7.386111	-1.049205	11.39046	-86.465577	-122.755098	-26.108408	0.737943	-0.046872	-0.784683	3.559513	1.042693	8.745314	1.442459	-9.187394	-2.83593	-0.192125	-0.054035	0.024016	9.022086	-0.135552	-1.297549	12.715373	-19.211025	-30.878427	-0.640286	0.436121	-0.208902
6.008769	0.171166	11.423778	-81.320017	-127.842227	1.215005	0.711815	0.004366	-0.771833	3.719825	1.95947	8.392949	0.913976	-9.10817	-4.480512	-0.192125	-0.066043	0.042027	8.848446	-0.425482	-1.473518	9.580529	-19.746484	-30.454621	-0.682115	0.43205	-0.260802
4.820095	0.870943	12.268674	-86.500415	-132.663154	17.612204	0.708734	0.007745	-0.826313	3.441063	2.131793	8.623211	0.576107	-9.914907	-4.829029	-0.198129	-0.048031	0.03002	8.671302	-0.079076	-1.760781	6.350829	-19.284009	-31.278018	-0.669718	0.393221	-0.154502
3.119833	1.223523	13.333703	-86.336814	-136.892621	25.136125	0.687524	-0.007532	-0.898847	3.159424	1.445238	8.559996	-0.53527	-12.289857	-3.735658	-0.204133	-0.054035	0.03002	8.795211	-0.019042	-1.244436	3.273591	-18.213804	-31.625269	-0.655002	0.414671	-0.181702
2.144542	2.095249	13.374183	-88.319385	-136.599156	23.239358	0.66345	0.041453	-0.849676	3.452653	1.15701	9.096939	1.054647	-17.129645	-1.724214	-0.216141	-0.042027	0.024016	8.679186	-0.077236	-1.361136	1.148816	-16.693803	-30.50957	-0.618466	0.431068	-0.251787
0.671491	2.505371	14.328295	-93.081632	-131.196535	13.09202	0.681961	0.079621	-0.850888	3.497071	2.3035	8.623994	1.32385	-21.563801	0.144888	-0.222145	-0.054035	0.018012	8.459194	-0.596271	-1.025454	-1.470378	-14.107454	-29.390677	-0.634081	0.404865	-0.207497
-0.867283	3.262825	14.877399	-90.002216	-123.115701	-1.165223	0.600037	0.056505	-0.891093	3.496772	1.673486	8.50711	2.259671	-25.81234	4.412064	-0.210137	-0.048031	0.036023	8.348345	-0.421566	-0.855641	-1.228098	-12.460923	-28.632258	-0.621165	0.416808	-0.200518
-0.800276	3.960539	15.400552	-88.627917	-114.761861	-18.639517	0.599775	0.096655	-0.947783	3.618398	2.073279	9.039574	0.197043	-28.843261	7.475569	-0.210137	-0.048031	0.03002	8.301208	-0.824624	-0.40187	-0.896271	-9.70524	-28.204967	-0.618039	0.417312	-0.230074
-1.60017	3.845652	15.557715	-80.206999	-104.483321	-37.514964	0.552961	0.052315	-0.894087	3.327512	2.304011	8.620734	-1.516651	-31.218662	9.054192	-0.198129	-0.048031	0.042027	8.355444	-0.593678	-0.513877	1.558559	-7.598266	-27.720631	-0.634981	0.400111	-0.190407
-2.297805	3.671074	15.081062	-66.335135	-93.811015	-55.219214	0.594212	0.183808	-0.899823	3.718845	1.558626	8.275659	-3.414563	-32.839817	11.213171	-0.198129	-0.066043	0.036023	8.693156	-0.305667	-0.677081	4.47399	-5.158435	-26.568598	-0.664839	0.370967	-0.15772
-3.647316	2.333599	13.490561	-55.867018	-84.517961	-71.187102	0.506005	0.107788	-0.973035	3.782225	1.443261	8.630949	-6.451444	-34.112815	12.416128	-0.216141	-0.060039	0.03002	8.694635	-1.05832	-0.680498	5.667422	-2.618153	-25.366983	-0.666638	0.36146	-0.12354
-5.761268	3.490727	11.081803	-64.953241	-78.507375	-76.681571	0.539826	0.12784	-0.953984	3.617013	1.443366	8.86369	-9.934878	-34.611867	12.294437	-0.216141	-0.054035	0.024016	8.807725	-0.653273	-0.676406	6.860847	-0.184655	-25.233477	-0.63678	0.390605	-0.156227
-6.795524	3.382546	13.89273	-87.423539	-76.582031	-60.731712	0.485778	0.192418	-0.907914	3.94944	1.500245	8.516108	-11.854409	-34.514207	10.825449	-0.222145	-0.054035	0.03002	8.692257	-0.421723	-0.734699	7.195332	1.303891	-26.153257	-0.654102	0.419424	-0.198792
-8.059541	3.731886	13.810609	-62.066182	-86.820353	-38.442998	0.448493	0.156233	-0.962181	4.11968	1.270564	8.519774	-13.063731	-33.983545	9.420197	-0.228148	-0.042027	0.03002	8.685056	-0.770941	-1.135921	4.946884	2.937258	-26.600875	-0.649696	0.378661	-0.163207
-8.456369	2.448713	11.083382	-53.427581	-97.459233	-12.745989	0.467004	0.194401	-0.963392	4.063267	0.869789	8.460397	-13.399523	-35.341351	8.325579	-0.204133	-0.054035	0.03002	8.908438	-0.830344	-1.360048	1.62397	3.909621	-26.763645	-0.684007	0.358015	-0.105588
-8.125559	3.433568	10.456653	-60.195368	-102.854006	10.601613	0.463158	0.158755	-0.979343	4.188089	0.925624	9.111471	-13.463377	-38.488538	7.909746	-0.222145	-0.060039	0.024016	8.967964	-0.424395	-1.185805	-2.374013	4.296729	-27.283531	-0.631901	0.368351	-0.159446
-8.403578	3.667135	10.914015	-66.766368	-109.815628	28.686609	0.407318	0.185436	-0.912904	4.582703	1.268186	9.118468	-16.073338	-45.111763	9.959244	-0.228148	-0.054035	0.042027	9.06664	-0.138557	-1.924436	-8.154198	4.346758	-27.224005	-0.64927	0.364906	-0.141493
-9.620995	4.537546	10.313961	-55.158154	-110.980147	37.470548	0.422103	0.247621	-1.00602	4.590927	0.694652	9.473485	-18.369217	-53.262998	11.837489	-0.222145	-0.054035	0.024016	9.349434	0.265886	-1.974057	-14.918749	4.798361	-26.139086	-0.638106	0.399607	-0.160851
-10.120218	4.649186	8.28158	-47.052905	-103.142062	36.071652	0.359597	0.201884	-0.953323	4.977317	1.610747	9.125466	-20.121495	-63.405453	14.464335	-0.240156	-0.03002	0.042027	9.304094	0.094939	-1.40505	-21.004432	4.275229	-24.874976	-0.619457	0.361786	-0.113663
-10.991131	5.635628	7.804293	-46.085457	-91.842923	24.837825	0.33065	0.216351	-0.938263	4.245183	1.09723	9.171253	-14.173428	-75.271554	15.310222	-0.234152	-0.054035	0.036023	9.581826	0.208586	-1.741446	-26.843879	3.827593	-22.296025	-0.615432	0.367043	-0.160309
-13.115638	5.637547	7.704188	-37.829301	-84.155323	9.004327	0.372852	0.186021	-0.96938	5.31897	2.583188	9.425261	-10.336141	-85.302217	16.072444	-0.234152	-0.048031	0.036023	9.527806	0.441074	-1.570245	-31.145812	3.166833	-20.590928	-0.632801	0.363598	-0.142356
-14.335594	5.578856	6.928454	-21.585357	-78.284486	-6.573204	0.325776	0.181832	-0.972374	4.604074	3.21359	10.590021	7.391934	-94.001332	9.431788	-0.234152	-0.048031	0.054035	9.922803	0.555281	-1.733112	-32.897377	3.056302	-18.731954	-0.652822	0.378157	-0.133651
-16.191199	4.127055	5.847719	-9.526717	-62.502422	-20.512558	0.348134	0.255645	-0.957635	5.15902	2.640078	9.952901	-1.462669	-104.078362	19.366032	-0.258168	-0.060039	0.048031	9.592633	0.4428	-1.169473	-32.097853	3.18678	-16.528409	-0.631474	0.354595	-0.137732
-17.280321	4.012166	5.883538	-1.598109	-36.41652	-32.279816	0.375551	0.16313	-0.895635	5.352613	3.32464	11.370947	-1.314565	-108.892135	20.287875	-0.258168	-0.048031	0.042027	10.505762	-0.021929	-1.096464	-29.884512	3.510428	-13.771201	-0.6355	0.349338	-0.091086
-18.318077	3.025743	5.571515	6.914158	-8.787004	-38.466732	0.298621	0.234196	-0.977684	4.99937	3.326982	10.597425	8.267936	-107.326616	15.992309	-0.27618	-0.048031	0.054035	10.621799	-0.542961	-1.039485	-25.888679	4.018811	-11.651037	-0.638579	0.381099	-0.122048
-18.045217	2.211051	4.823681	10.927917	15.505715	-39.336687	0.331415	0.255375	-0.976793	6.038326	2.634578	11.680205	8.196432	-115.199555	22.534811	-0.27618	-0.054035	0.048031	11.024793	-0.484809	-0.80297	-19.8319	4.009025	-10.058345	-0.631474	0.354595	-0.137732
-17.525016	1.920756	5.006714	9.811786	37.758002	-38.518615	0.335261	0.29102	-0.960842	6.033234	2.520501	11.385408	15.391373	-126.588189	25.096187	-0.270176	-0.03002	0.048031	10.963572	-0.60154	-1.032991	-14.819026	3.573408	-7.48265	-0.631901	0.368351	-0.159446
-21.426522	6.952262	19.735875	5.707674	4.355979	-17.120299	0.331415	0.255375	-0.976793	6.940806	2.517469	11.579794	16.854225	-138.526693	29.68425	-0.282184	-0.042027	0.060039	11.125278	-0.546087	-1.486086	-12.020453	3.451295	-5.170842	-0.620357	0.357033	-0.096573
-19.451383	11.794097	6.726051	258.665692	100.195092	-46.020012	0.332442	0.254248	-0.958633	6.610041	2.632265	12.045073	16.687803	-150.430441	30.8425	-0.294191	-0.042027	0.066043	11.800373	-0.375603	-1.871428	-12.451269	3.709158	-4.322743	-0.636826	0.358341	-0.09571
-5.770301	10.288484	13.872118	87.607991	138.662774	-49.026175	0.340441	0.184355	-0.989536	7.021913	2.285896	12.879291	17.588245	-166.308165	34.518512	-0.288188	-0.036023	0.084055	12.651098	1.938809	-1.786927	-12.847468	2.045194	-6.090834	-0.634173	0.340336	-0.086463
4.339861	2.160037	17.058944	120.785336	168.504213	-75.566303	0.370033	0.14925	-0.967171	8.049045	2.281914	13.429852	20.591958	-179.707283	33.797398	-0.324211	-0.042027	0.060039	13.680229	2.690729	-1.477777	-15.297169	-2.042359	-5.24457	-0.634127	0.3726	-0.14698
-6.460608	15.346327	16.9336	127.40799	189.787558	-56.244238	0.372087	0.146997	-0.930851	8.242509	2.27917	14.731116	27.276908	-193.8288	29.714077	-0.318207	-0.024016	0.090059	13.92567	3.447395	-0.499288	-17.778006	-5.732529	-2.297303	-0.602516	0.378987	-0.153329
-8.065129	5.509523	4.914895	81.003812	175.706835	-7.198062	0.433184	0.174348	-0.982444	8.545391	1.302722	15.682277	32.275086	-215.363243	25.432821	-0.330215	-0.018012	0.102066	12.784097	3.68073	-0.634946	-21.337972	-8.222012	-0.6377	-0.665692	0.398478	-0.201147
-7.923242	4.416857	9.133861	-1.338158	89.11102	15.070166	0.433828	0.15371	-0.945019	8.90656	0.096833	16.693932	34.779293	-236.296	17.109342	-0.336219	-0.012008	0.126082	11.937842	3.10505	-0.311915	-24.197642	-7.739484	1.629603	-0.664839	0.370967	-0.15772
-3.342492	1.80599	11.472644	-2.250501	43.408833	7.622324	0.452602	0.151727	-0.889541	8.001054	0.500607	16.675835	34.283427	-257.842229	9.256579	-0.342223	-0.024016	0.120078	11.066481	2.118049	-1.303844	-27.027536	-6.37161	8.280641	-0.632801	0.363598	-0.142356
1.268762	2.435481	9.71669	30.955484	33.644892	-21.620521	0.480139	0.118875	-0.903496	8.815574	1.813409	18.163717	30.257981	-279.093343	2.168484	-0.366238	-0.024016	0.144094	10.267273	0.84487	-1.553763	-25.764711	-6.77844	14.046579	-0.614106	0.358041	-0.155685
2.784478	0.688366	7.9511	78.546901	51.094362	-16.381731	0.450427	0.094318	-0.849907	7.339994	1.302919	17.723377	29.650016	-299.534134	-5.332297	-0.378246	-0.012008	0.162106	10.143727	-0.547308	-2.190338	-24.441761	-6.736803	18.548422	-0.621683	0.366035	-0.101197
-8.507149	-4.683439	13.954647	30.597626	54.407381	-16.756434	0.462011	0.100219	-0.921549	8.31476	0.267742	18.333679	27.05911	-321.327207	-16.21731	-0.378246	-0.012008	0.180117	10.24105	-0.145941	-2.985536	-27.389961	-7.817319	20.75957	-0.632282	0.414371	-0.241677
-4.938838	1.801763	9.071378	97.749434	16.306557	-4.607171	0.495187	0.14091	-0.939922	9.066218	0.493072	19.291402	26.60088	-341.030043	-27.17056	-0.390254	-0.018012	0.192125	11.114096	1.131068	-1.878108	-29.600174	-9.112221	21.51169	-0.582967	0.345919	-0.123231
-1.374874	1.850012	6.541861	74.123985	6.473323	1.723203	0.462393	0.119731	-0.940814	7.961502	0.264976	20.627079	35.635995	-347.809786	-43.05128	-0.390254	-0.012008	0.222145	12.038112	2.580338	-1.054226	-27.695803	-8.790044	17.905717	-0.671944	0.39747	-0.142036
-0.708548	0.815866	11.175957	40.409477	2.627268	8.72285	0.463038	0.099093	-0.903389	10.793459	1.17743	18.084866	51.539147	-350.384574	-47.04104	-0.38425	-0.012008	0.240156	11.914118	3.402532	1.401038	-25.153772	-5.223309	13.004554	-0.649696	0.378661	-0.163207
-1.537656	2.554992	9.950037	62.284453	10.207613	6.252908	0.491985	0.084627	-0.918449	9.304285	1.584634	17.0529	63.851135	-354.848167	-39.612929	-0.402262	-0.03002	0.252164	10.974671	4.337905	2.927586	-22.863915	1.166845	9.657409	-0.672417	0.378961	-0.103232
-1.646339	3.593667	7.40756	48.721421	6.601723	-1.12111	0.476938	0.062592	-0.882022	8.157211	-0.472353	15.795818	66.236204	-349.946508	-41.858417	-0.402262	-0.03002	0.27618	9.83684	3.239886	2.842974	-14.263814	4.50434	8.739317	-0.671044	0.402223	-0.159125
-1.794808	2.725988	8.55833	16.988278	-5.148511	-5.738969	0.41417	0.057006	-0.886014	1.720258	2.1761	19.501195	38.833611	-315.325931	-66.252232	-0.390254	-0.024016	0.306199	9.7259	2.314034	2.893608	-2.551641	5.036396	7.444248	-0.640805	0.385348	-0.109582
-1.787616	2.378571	8.90438	11.392986	-10.192792	-6.546563	0.488784	0.028343	-0.896975	0.476167	0.576169	19.185131	63.145582	-293.999054	-76.065677	-0.378246	-0.042027	0.324211	10.105232	2.945892	1.990909	2.673338	5.268407	2.359368	-0.622491	0.425811	-0.205142
-1.26482	2.959335	9.262953	-5.438418	-11.86184	-7.131792	0.458809	0.043936	-0.900075	-0.80328	-5.196534	13.213547	131.267398	-352.68198	-26.466957	-0.366238	-0.048031	0.330215	9.854365	3.230572	0.845875	2.218963	1.790209	-3.159468	-0.655002	0.414671	-0.181702
-1.489467	2.611861	9.488802	-20.925522	-10.751737	-10.996187	0.4574	0.02555	-0.898971	-38.971795	-18.409921	0.175939	20.908372	-248.201232	-63.920761	-0.378246	-0.042027	0.366238	11.130387	3.162173	-0.841249	1.216947	-3.770434	-5.085126	-0.670617	0.388468	-0.137412
-1.771978	1.56779	9.654016	-27.909705	-9.283349	-10.189241	0.478347	0.080978	-0.883126	-3.489814	5.290781	16.26982	-91.400909	-64.253063	0.12932	-0.38425	-0.054035	0.390254	11.125199	3.5085	-1.068041	-0.129599	-6.370467	-4.450945	-0.67327	0.406472	-0.146659
-1.743624	1.803454	11.099944	-23.004351	-1.952181	-6.307207	0.457137	0.065701	-0.95566	-16.342724	-4.129226	19.400737	56.736723	109.356066	3.530343	-0.366238	-0.042027	0.372242	10.598068	3.506107	-1.820375	-0.90074	-5.092715	-2.404916	-0.671944	0.39747	-0.142036
-1.927386	1.976352	10.518787	-17.027405	6.987445	-5.104261	0.460601	0.081834	-0.920445	-7.388755	-5.24664	20.695359	112.379555	230.181809	-19.669534	-0.354231	-0.042027	0.38425	10.489028	3.333697	-1.595047	-1.251044	0.31964	0.128591	-0.674597	0.415475	-0.151283
-1.828223	1.567985	9.710688	-12.138339	10.649561	-0.822391	0.47732	0.082104	-0.901286	-7.524702	-11.758352	9.202986	100.384609	238.497195	-24.356877	-0.38425	-0.042027	0.378246	10.152442	3.045949	-1.374751	-2.808464	9.06827	1.874759	-0.652349	0.396666	-0.172454
-2.057609	1.39408	9.705697	-5.06012	13.646769	2.769012	0.456755	0.046189	-0.936395	-3.88844	-11.932646	4.141994	5.793863	218.388094	-9.59805	-0.366238	-0.042027	0.366238	10.055461	2.470892	-0.580341	-5.288061	17.555979	1.817505	-0.689739	0.40778	-0.145796
-2.2172	1.395784	10.33823	0.557039	17.315397	5.108702	0.486085	0.051234	-0.97072	-4.46004	-8.327033	7.427655	-88.76406	216.261282	5.045687	-0.372242	-0.036023	0.360234	9.896917	1.952795	-0.015164	-7.606284	22.744396	1.225936	-0.675923	0.424477	-0.155907
-1.765929	1.220232	9.942251	2.138998	18.753469	7.269362	0.491603	0.065115	-0.899184	-5.101192	-3.636888	13.246221	-90.87727	242.277087	-4.643264	-0.372242	-0.048031	0.342223	8.990898	1.666184	0.19387	-10.747436	24.889823	0.608762	-0.671944	0.39747	-0.142036
-1.599869	1.625665	9.657585	5.39707	19.080459	8.580555	0.476938	0.062592	-0.882022	-5.175225	-1.401298	12.651174	-50.993662	293.29194	-22.509794	-0.366238	-0.036023	0.342223	8.602545	1.61145	0.699553	-15.175007	24.916963	-0.791995	-0.655002	0.414671	-0.181702
-1.313095	1.799515	9.663719	4.204213	17.930907	9.417386	0.461246	0.061195	-0.88302	-4.850938	-2.260083	11.715214	-32.086121	337.544393	-28.148127	-0.38425	-0.042027	0.312203	7.572163	1.496391	0.393294	-20.028414	23.172922	-0.869393	-0.642558	0.408106	-0.135919
-1.889263	1.799792	9.536659	7.921376	17.558183	11.483515	0.445292	0.099949	-0.940707	-3.064792	-2.37799	10.511186	-47.22947	359.706121	-23.486263	-0.360234	-0.036023	0.288188	7.453657	1.553463	0.162935	-25.126876	21.169784	-0.208059	-0.63986	0.422365	-0.187189
-1.657201	1.567678	9.656302	1.664586	17.226824	14.185745	0.475266	0.084357	-0.937607	-1.701611	-1.35173	11.06644	-66.861168	358.249514	-17.332787	-0.342223	-0.054035	0.27618	6.943079	1.728702	0.267772	-30.503702	19.848328	-0.298074	-0.653722	0.373404	-0.116561
-2.465876	2.264411	9.410718	3.006885	19.433309	16.933845	0.493395	0.103013	-0.919553	-0.850643	0.134606	11.493101	-77.267114	347.057701	-14.395926	-0.342223	-0.048031	0.234152	6.984027	1.840701	-0.529866	-33.267193	18.518441	0.299026	-0.658508	0.460187	-0.234377
-1.492563	2.263185	9.314519	6.425922	18.116131	14.200771	0.491985	0.084627	-0.918449	-0.293608	1.050088	11.207343	-83.484932	331.952275	-12.542475	-0.336219	-0.042027	0.204133	6.300275	0.915198	-0.661771	-33.481338	18.058341	0.155621	-0.654148	0.38716	-0.138275
-1.611744	2.08861	9.080555	3.364442	16.181953	12.941106	0.478992	0.060339	-0.845702	-0.460631	2.024063	11.497358	-97.518906	321.352852	-7.921325	-0.336219	-0.03002	0.204133	5.728693	1.43714	-0.72776	-31.511271	16.869359	-0.66259	-0.624717	0.43006	-0.192675
-1.776216	1.218975	9.421918	2.273819	14.885178	13.066573	0.478347	0.080978	-0.883126	0.004757	3.05244	12.389226	-100.228614	314.299646	-2.403124	-0.330215	-0.03002	0.180117	5.383324	1.031496	-0.964726	-29.968786	14.589242	-0.57083	-0.640332	0.403857	-0.148385
-1.606727	1.624827	9.310696	12.32806	15.956081	14.307924	0.475528	0.044206	-0.880917	0.066838	3.739069	12.802096	-100.14014	312.380952	0.839151	-0.300195	-0.042027	0.150098	5.157224	1.901186	-0.794012	-30.025702	12.603133	-0.98385	-0.688367	0.431042	-0.20169
-1.824849	1.626447	9.884272	16.206615	16.968954	16.060438	0.507939	0.045873	-0.860761	1.38217	3.676435	13.653193	-99.302035	312.668345	1.197945	-0.300195	-0.024016	0.144094	5.742435	1.324502	-0.04318	-29.778008	11.976426	0.163662	-0.640286	0.436121	-0.208902
-1.772534	2.148217	9.655413	18.435828	18.516379	17.96581	0.508322	0.065385	-0.880026	2.349991	4.24565	14.142652	-99.395354	313.543353	-2.296513	-0.282184	-0.018012	0.126082	6.040223	0.979446	0.588888	-29.868844	11.553296	1.763398	-0.656328	0.423673	-0.186326
-1.95008	1.799429	9.362072	23.278956	20.270589	17.61713	0.49122	0.045603	-0.879919	3.266768	4.069929	14.809344	-99.459115	310.539301	-8.29713	-0.264172	-0.03002	0.102066	6.549106	1.093426	0.428273	-28.610484	12.454467	1.963357	-0.69012	0.4538	-0.228027
-2.572762	2.381586	9.813415	19.664265	22.606697	15.9042	0.557452	0.067322	-0.840712	3.677	4.640137	15.700938	-98.686069	300.368202	-14.695572	-0.252164	-0.03002	0.096063	7.080526	0.633437	1.349781	-28.274445	13.590204	4.171499	-0.639387	0.440874	-0.225992
-2.286408	1.800741	9.759918	15.750906	25.729036	13.558333	0.540733	0.067052	-0.85987	4.425475	4.407534	16.423473	-102.329085	286.335903	-17.503198	-0.228148	-0.018012	0.072047	7.478901	0.748434	1.358191	-28.580585	13.331554	6.897852	-0.612227	0.455759	-0.20741
-2.052283	1.801077	9.995749	15.191814	28.9273	10.371864	0.506912	0.046999	-0.878921	4.786283	5.149079	17.726677	-107.475296	270.266381	-17.079572	-0.234152	-0.018012	0.066043	8.452227	0.921503	1.663586	-26.670768	11.971613	9.294624	-0.671898	0.429734	-0.202553
-2.396556	1.743368	9.988751	12.583642	32.338102	9.198726	0.536887	0.031407	-0.875821	6.7823	4.62596	18.650626	-105.757313	247.582447	-19.370006	-0.210137	-0.018012	0.036023	8.337897	0.57409	1.602664	-25.066442	9.67497	10.549277	-0.642939	0.454126	-0.21815
-2.674297	1.686722	10.445414	17.634906	39.631006	8.76698	0.552579	0.032803	-0.874823	8.765234	4.848657	18.983253	-106.710189	211.279516	-22.498849	-0.186121	-0.024016	0.066043	8.56972	0.806272	1.836589	-23.954402	7.689896	13.109138	-0.64114	0.463632	-0.25233
-2.379689	2.035678	10.856671	21.995777	49.373278	8.482798	0.543477	-0.056873	-0.90562	11.089459	5.070128	19.4404	-113.102975	168.979804	-23.743524	-0.174113	0	0.036023	8.274196	0.572626	1.258985	-21.735946	5.922563	16.37328	-0.657609	0.46494	-0.251467
-2.503777	2.208799	10.392286	19.835497	59.387642	5.431013	0.551169	0.014418	-0.873718	12.436958	5.525087	19.052667	-119.599543	137.466705	-21.324971	-0.150098	0.012008	0.024016	8.214898	0.050884	1.084217	-18.659408	5.195394	18.394566	-0.675404	0.47525	-0.255228
-3.068793	2.500687	10.844073	16.578605	72.133674	0.653377	0.536504	0.011895	-0.856556	14.102288	5.465524	17.433363	-130.012536	135.973872	-10.162006	-0.144094	0.006004	0.006004	8.158864	-0.412174	1.080987	-16.074412	4.258031	19.71467	-0.646065	0.453622	-0.188594
-3.468446	2.733527	10.952261	11.693892	86.553164	-8.569986	0.566861	0.015814	-0.87272	16.447109	5.346522	15.8862	-142.535286	176.675254	8.04727	-0.126082	0.024016	0.024016	8.382019	-0.355784	0.857387	-14.135102	3.398768	21.427055	-0.655856	0.442182	-0.225129
-1.623715	3.603504	11.453451	7.272108	99.975069	-17.783875	0.556042	0.048936	-0.839607	21.939517	5.615437	16.581099	-144.926881	249.693841	18.131848	-0.102066	0.048031	0.024016	8.389345	-0.643689	1.198625	-12.503222	2.348346	21.307273	-0.64204	0.458879	-0.23524
-2.440057	3.951002	10.802325	8.631991	114.738571	-32.885337	0.599655	0.036993	-0.871829	26.252827	4.002186	14.307606	-91.554381	307.227081	4.924503	-0.090059	0.024016	0.006004	9.466535	-0.531109	0.992181	-11.671334	1.377009	19.315826	-0.694999	0.476054	-0.224809
-2.739181	3.543445	10.159669	-15.850839	136.8157	-57.490009	0.603381	0.012976	-0.779924	32.022213	2.161762	8.228848	-74.185636	338.547487	-18.206644	-0.066043	0.048031	0.024016	9.919704	0.104579	0.946991	-13.485346	1.201567	17.230518	-0.663387	0.482441	-0.231159
-1.359001	6.277857	13.372338	-37.473212	155.748001	-75.934973	0.618428	0.035011	-0.81635	36.971073	4.679471	1.242159	-97.187683	304.855273	-32.916189	-0.048031	0.048031	0.018012	11.282963	0.10106	0.802744	-15.790399	0.707666	15.547517	-0.674977	0.461495	-0.233514
-1.633434	8.492616	17.013121	0.3802	136.221281	-66.118578	0.651484	0.016039	-0.75877	40.423566	8.917307	-3.888909	-124.036367	213.667148	-40.046891	-0.036023	0.048031	0.024016	11.687095	-0.419752	1.036631	-18.155099	-0.634347	13.149851	-0.663387	0.482441	-0.231159
-2.327019	5.525086	13.697979	42.677938	145.668744	-66.735808	0.689151	0.071737	-0.723767	41.676365	13.442635	-5.700941	-136.701184	100.833828	-39.220544	-0.03002	0.060039	0.03002	12.027617	0.158529	1.046017	-16.676202	-2.290492	10.351939	-0.629504	0.516843	-0.310491
-2.718393	5.468691	14.210172	50.027296	155.925698	-81.42846	0.686976	0.014327	-0.684133	40.058479	17.283125	-3.96925	-115.88974	11.237516	-32.464107	-0.018012	0.060039	0.018012	12.423865	-0.364123	0.880258	-11.970066	-3.434578	8.782829	-0.681183	0.492751	-0.234919
-3.523365	3.495599	14.015974	64.60435	164.981629	-89.742867	0.69056	0.090122	-0.724872	34.353828	17.466702	-0.776383	-48.25418	-39.499299	-17.746977	-0.036023	0.084055	0.018012	12.148842	-0.70883	1.329787	-3.66582	-4.986877	6.753172	-0.662061	0.473439	-0.226535
-4.601506	1.46642	14.5097	66.229852	178.345608	-90.332711	0.678977	0.084221	-0.65323	27.994309	15.650573	0.284078	30.379236	-55.363593	11.352429	0	0.078051	0.024016	11.646375	-0.647544	1.833743	7.587691	-5.372778	4.987562	-0.662961	0.468685	-0.209445
-5.062007	0.537903	14.382691	67.892913	195.278845	-83.720229	0.745208	0.10594	-0.614022	23.536468	12.513157	0.085816	84.142229	-63.384184	64.090237	-0.018012	0.072047	0.03002	11.428965	-0.760516	2.342542	21.821818	-4.736996	2.939007	-0.659362	0.487698	-0.277804
-5.385347	-1.084583	15.354771	67.116743	209.178515	-68.772801	0.730926	0.122929	-0.616125	37.947922	24.056046	26.706686	252.980865	-88.962189	84.302695	-0.018012	0.060039	0.048031	12.344893	-0.355747	2.647863	40.394427	-4.796133	1.786238	-0.675877	0.456742	-0.216424
-6.39029	-1.718697	16.720215	65.951493	229.703706	-53.17668	0.775183	0.090347	-0.610921	7.583624	-9.681163	7.720445	252.754249	-123.006157	69.189967	-0.03002	0.066043	0.03002	13.039349	0.28264	3.292283	52.630182	-3.091355	4.503913	-0.710568	0.482115	-0.241036
-6.110803	-0.145479	19.330224	71.908448	252.225902	-37.452979	0.7695	0.117838	-0.487008	-7.135267	-1.719177	35.026107	327.938647	-270.968148	25.315189	-0.042027	0.054035	0.060039	14.769848	3.051306	1.855418	51.451992	1.482529	9.162637	-0.644692	0.476884	-0.244487
-5.105858	1.199372	23.803463	76.914593	281.948613	-26.024203	0.831623	0.144063	-0.520441	2.889457	11.817067	7.829274	261.770383	-327.362232	31.885131	-0.048031	0.03002	0.066043	17.451523	4.076414	-0.597845	38.488331	9.477721	14.993665	-0.679902	0.451484	-0.169778
-5.761008	-0.3632	25.404788	95.371527	311.673301	-13.722699	0.81863	0.119775	-0.447694	11.401889	17.010659	4.563196	162.033263	-290.924876	-12.309731	-0.066043	0.024016	0.078051	16.699873	4.712388	-1.123424	22.827685	14.755129	28.273908	-0.649098	0.517647	-0.280073
-5.88297	-3.839865	27.76338	105.788714	351.947503	0.059018	0.833939	0.10166	-0.427431	12.706534	-1.389677	8.040611	68.338508	-157.867587	-49.520536	-0.084055	0	0.090059	13.906171	4.195843	-1.409345	28.312283	11.133503	39.488203	-0.66604	0.500446	-0.240406
-10.508611	-12.358773	31.291445	123.695874	380.33644	35.424931	0.91689	0.123649	-0.369066	8.11074	-2.014478	13.025551	67.147724	-93.285033	-8.238536	-0.090059	0.006004	0.078051	12.129462	3.15408	-2.134096	26.243724	2.120719	44.273043	-0.694999	0.476054	-0.224809
-8.367917	-3.012746	32.685973	123.244581	415.770833	62.198131	0.935926	0.081517	-0.256898	3.623917	3.504676	9.568038	103.33574	-67.513583	53.430366	-0.090059	-0.006004	0.084055	11.282195	2.52024	-1.868421	18.102251	-1.256265	39.965255	-0.646019	0.485886	-0.249111
-6.308772	4.34963	29.855272	142.368688	432.551096	69.157375	0.888467	0.057815	-0.240627	2.804191	1.395599	4.601653	96.339013	-77.697468	20.285127	-0.090059	-0.012008	0.078051	9.500123	1.606475	0.032467	25.431602	-6.277971	37.582924	-0.678103	0.460991	-0.203958
-9.979685	2.344387	15.271578	128.569527	413.968608	89.72324	0.968861	0.002883	-0.123363	5.032721	2.360385	6.117311	56.525205	-49.926456	2.963778	-0.102066	-0.018012	0.090059	10.311287	1.955679	0.79201	35.768842	-9.430303	29.424159	-0.613554	0.464762	-0.212034
-0.067277	9.218033	29.529076	88.585338	425.515643	87.051064	0.926659	0.033212	-0.092246	3.146618	1.732816	7.910487	19.7805	-8.824079	4.926618	-0.102066	-0.006004	0.096063	12.653999	3.329637	-1.495158	37.917687	-8.569341	22.748921	-0.664714	0.491443	-0.235782
-4.00267	1.903547	27.410229	146.326515	369.262743	92.907448	1.012308	0.032311	0.039864	2.817814	2.6493	8.610345	34.458764	-20.381607	3.559192	-0.114074	-0.006004	0.10807	13.019526	3.797908	-0.23027	45.065552	-1.84681	17.585347	-0.679383	0.502258	-0.269099
-0.273879	-1.125891	24.356402	158.988967	263.693659	84.328321	1.01398	0.010546	0.095449	2.690436	3.452851	7.957748	8.24696	-18.315648	12.431499	-0.090059	-0.03002	0.114074	12.192873	2.995111	1.062276	45.561176	8.849515	9.541226	-0.650471	0.494385	-0.224179
6.644034	-3.52291	20.154008	310.022171	173.907568	84.880412	0.995731	-0.067772	0.153349	3.678049	1.385498	9.100879	-3.366193	-14.676569	18.71061	-0.096063	-0.012008	0.10807	11.172638	2.303191	1.210126	38.68316	17.292747	6.739395	-0.680756	0.478996	-0.213206
56.760193	-9.082722	-1.515553	146.525217	136.502882	-62.337873	0.984913	-0.03465	0.186462	3.320587	2.075552	8.208138	-2.245181	-14.239895	14.310216	-0.114074	0	0.102066	10.770212	1.955557	0.972296	34.307891	20.711344	3.945173	-0.697652	0.494059	-0.234056
9.099136	-3.50415	5.061541	16.7534	13.994418	-124.891868	0.986705	0.003248	0.166093	3.367221	2.477241	7.736513	-13.389545	-9.463191	17.555332	-0.10807	-0.012008	0.096063	10.036935	1.84282	1.299682	33.544538	18.217788	2.041489	-0.658935	0.473943	-0.256091
21.679397	-7.949292	20.211589	23.340613	-175.675891	-132.072244	0.998933	-0.011489	0.131876	3.520785	1.270307	9.746824	-22.138849	-8.732348	17.796625	-0.084055	-0.03002	0.084055	10.61672	2.307483	1.883969	31.713146	12.140031	-0.794131	-0.681656	0.474242	-0.196116
9.341691	-12.776558	11.054205	54.073802	-241.261559	-89.830039	0.976651	0.075394	0.160677	3.291553	0.870348	9.507187	-20.174165	-13.147046	13.888692	-0.120078	-0.018012	0.090059	10.265163	1.61078	1.303136	27.117243	5.073576	-1.266654	-0.649145	0.485382	-0.219555
6.056173	-15.169318	4.336914	-3.960528	-242.52653	-29.079308	1.003926	0.082693	0.090033	3.568888	0.812711	9.217721	-22.067076	-17.594297	10.736767	-0.120078	-0.006004	0.10807	9.974247	1.899516	1.013358	21.535075	-1.018572	-2.16469	-0.714594	0.476858	-0.19439
3.990592	-13.193584	4.416147	-116.323097	-228.360061	56.261482	1.000463	0.066559	0.054817	3.747822	0.582218	9.693389	-25.718531	-19.622595	6.196917	-0.10807	-0.006004	0.096063	10.077337	1.085848	0.383916	16.013487	-6.599066	-2.401397	-0.695898	0.471301	-0.207719
8.689856	-8.018402	10.243684	-146.117335	-256.421815	140.866118	0.997119	0.110089	-0.056353	3.798162	0.468072	9.340677	-23.759832	-24.118204	1.480078	-0.120078	-0.012008	0.10807	9.607821	1.315189	-0.309148	12.548739	-10.773166	-2.782007	-0.696798	0.466548	-0.190629
11.88088	-4.599375	9.333085	-130.821702	-298.454201	200.055709	0.979253	0.051282	-0.017717	3.796969	0.869119	9.339967	-24.863436	-26.372033	-2.023805	-0.114074	-0.006004	0.090059	9.088232	1.488325	-0.661049	9.817809	-13.190122	-3.260592	-0.696325	0.485057	-0.229433
13.538855	-2.577097	6.250267	-140.415025	-312.974124	214.245074	0.890401	-0.0041	-0.128353	3.296752	0.58348	9.743696	-21.339386	-29.635562	-6.595281	-0.114074	-0.006004	0.090059	7.771893	1.431467	-1.029768	8.837051	-14.520797	-3.204422	-0.680329	0.46524	-0.191492
14.531215	0.210382	7.259256	-180.661105	-307.751238	186.639093	0.914475	-0.053085	-0.177524	3.225659	1.1005	9.033693	-13.356976	-33.67977	-12.893609	-0.126082	-0.012008	0.102066	7.549421	1.027699	-0.807745	7.916542	-15.328705	-3.221222	-0.673651	0.452492	-0.22889
14.405277	2.073784	9.688519	-191.407288	-303.216941	133.232407	0.928113	-0.049436	-0.212846	3.220141	2.590205	8.972054	1.634809	-36.50941	-21.285667	-0.114074	-0.018012	0.102066	7.148338	1.143763	-0.929287	8.130771	-15.059072	-4.694424	-0.712367	0.472609	-0.206856
11.487123	2.600124	10.094003	-191.010967	-306.978345	75.042855	0.885004	0.041682	-0.275843	3.383563	1.731119	8.504835	16.012346	-39.474171	-23.17319	-0.132086	0	0.084055	6.575868	0.970422	-1.112615	9.327782	-14.263456	-5.685177	-0.728836	0.473917	-0.205993
8.241921	1.793772	11.298822	-194.364593	-311.369183	27.74906	0.850156	0.022756	-0.313055	3.730734	1.213856	8.86627	20.170724	-41.239457	-24.859537	-0.132086	0.012008	0.096063	6.01499	1.205248	-0.666088	10.430661	-12.64406	-6.512028	-0.694145	0.448543	-0.181382
4.9383	0.871251	12.444404	-201.823692	-310.252067	-2.007668	0.78046	-0.015097	-0.387478	3.444642	0.928652	8.625343	23.712487	-44.929928	-28.439917	-0.120078	0.006004	0.10807	6.130799	0.800009	-0.608584	12.239067	-10.311856	-7.290448	-0.713267	0.467856	-0.189766
2.722101	0.643905	13.497749	-212.813615	-307.451066	-14.771049	0.764506	0.023657	-0.445165	3.558895	1.615516	8.803299	29.677187	-46.189391	-32.292586	-0.126082	-0.012008	0.090059	5.570035	0.976939	-0.16232	11.277765	-6.940495	-8.138445	-0.72841	0.460161	-0.184279
1.224365	1.522476	16.128464	-218.993418	-307.358521	-16.300823	0.737351	0.076021	-0.450475	3.601054	1.330304	7.978891	33.483192	-46.514799	-33.873877	-0.120078	-0.012008	0.10807	5.275524	0.801452	-0.68257	11.948408	-4.587658	-9.198741	-0.698125	0.47555	-0.195253
0.167779	2.05011	17.842449	-215.963721	-308.261495	-12.31533	0.687838	0.054572	-0.470524	4.060945	2.015536	8.517367	32.783673	-44.515213	-32.329022	-0.126082	-0.012008	0.096063	5.733436	0.743172	-0.559638	12.002223	-1.256312	-8.572229	-0.716393	0.467352	-0.16021
-0.717896	2.693522	19.502326	-206.663319	-313.454577	-3.735402	0.692449	0.129241	-0.493103	3.562965	2.073348	9.097488	34.793687	-45.371408	-28.376489	-0.120078	-0.012008	0.120078	6.304109	0.684401	-0.491546	13.105483	0.20925	-9.364938	-0.679003	0.456238	-0.186868
-2.123104	2.930717	20.977495	-192.044615	-322.784587	6.779112	0.643319	0.127304	-0.532417	3.542553	2.361637	8.034977	35.905401	-45.990657	-24.654456	-0.13809	-0.024016	0.102066	6.409111	0.044947	-1.006015	14.797228	-0.369634	-12.309287	-0.744925	0.429205	-0.122899
-2.850276	3.514243	21.946885	-179.516349	-327.477167	15.24235	0.613727	0.162409	-0.554782	3.492554	2.361198	8.387891	33.676422	-47.008886	-20.713077	-0.114074	-0.006004	0.120078	6.801286	0.448111	-1.281752	15.258694	-0.780673	-15.203005	-0.730636	0.46441	-0.171813
-2.663474	3.748063	22.702465	-174.030601	-320.725223	17.192432	0.550959	0.156823	-0.558774	3.99569	2.761117	8.16096	30.096892	-48.773619	-16.863373	-0.13809	-0.024016	0.120078	7.362267	0.734615	-1.66882	13.169777	-1.629028	-15.531015	-0.710187	0.436095	-0.158805
-4.030139	4.563394	23.255137	-188.098238	-303.099487	13.514661	0.54967	0.198099	-0.633624	4.166122	3.562396	8.339799	20.999042	-53.394818	-8.731254	-0.126082	-0.03002	0.132086	7.347739	0.673302	-2.411281	9.882135	-2.699018	-16.380308	-0.715493	0.472105	-0.1773
-6.076136	6.142247	27.205839	-199.958803	-288.035364	6.011917	0.57759	0.184759	-0.666843	4.915791	2.928745	9.063044	15.956321	-59.482771	-3.71537	-0.120078	-0.03002	0.120078	8.48582	0.497075	-2.446637	4.071979	-2.758699	-13.076203	-0.747531	0.479474	-0.192664
-7.862234	7.311169	29.773723	-182.866826	-282.664073	-6.306117	0.516876	0.17692	-0.634515	4.465168	2.414477	9.055265	11.191392	-67.93827	2.899815	-0.132086	-0.024016	0.126082	7.569892	0.092306	-2.751958	-5.521131	-2.060042	-8.280765	-0.695045	0.44379	-0.164292
-13.416439	1.963393	24.217696	-154.540483	-280.0883	-20.655736	0.486257	0.213151	-0.67504	4.695252	2.527974	9.295409	8.199189	-79.246877	10.286899	-0.13809	-0.03002	0.120078	7.575853	0.499158	-2.407565	-15.793089	-0.386462	-5.744422	-0.695472	0.457545	-0.186005
-15.903324	10.540621	17.831891	-216.27402	-229.990619	-30.756388	0.473002	0.229014	-0.658983	4.781985	3.326852	11.065079	-1.352045	-89.220695	13.609743	-0.126082	-0.018012	0.126082	7.905124	0.495584	-3.028821	-20.374129	0.436431	1.06296	-0.700351	0.4798	-0.182787
-27.287727	14.176359	28.305405	-230.287859	-235.548965	-8.253033	0.456665	0.248256	-0.697406	5.13574	3.152632	11.838906	-3.760868	-97.99848	15.081047	-0.150098	-0.006004	0.120078	7.456336	0.498071	-2.695278	-25.971045	1.646797	5.684236	-0.697271	0.448039	-0.151826
-34.155481	12.668979	26.142241	-131.331159	-303.47945	41.885651	0.410999	0.262452	-0.701504	5.165157	3.498653	10.42338	-5.903632	-102.721204	18.440335	-0.13809	-0.018012	0.126082	7.764043	-0.308053	-1.608576	-34.490425	3.66232	9.353528	-0.731062	0.478166	-0.193527
-39.311087	9.860467	14.763357	-66.929261	-330.34285	79.566584	0.453201	0.232123	-0.732621	5.450802	4.299387	10.722392	-14.308476	-110.345411	29.256146	-0.150098	-0.024016	0.120078	9.081953	0.096708	-1.124095	-36.24213	3.050085	5.779976	-0.71502	0.490614	-0.216104
-42.777729	9.897786	4.812022	-78.091695	-251.380323	83.811894	0.358022	0.22487	-0.756769	5.807582	3.838502	11.614727	-21.600801	-124.000847	42.640183	-0.150098	-0.018012	0.132086	10.296908	0.098788	-0.129877	-30.029045	1.361719	2.91643	-0.697698	0.461795	-0.173539
-43.874494	14.41885	1.79598	-127.300447	-123.077412	45.169197	0.344505	0.280883	-0.797401	6.093568	4.524652	11.913943	-24.936349	-135.433351	57.843517	-0.168109	0.006004	0.144094	10.639455	0.793388	-0.00578	-21.474994	-1.97977	1.908277	-0.683882	0.478492	-0.18365
-43.371313	21.150463	1.475588	-125.228118	-29.583916	-4.583353	0.372425	0.267543	-0.830621	6.891936	4.693432	12.341853	-24.060041	-146.689459	69.320514	-0.186121	-0.012008	0.126082	11.08689	0.906431	-0.39589	-14.427768	-5.222557	-0.82303	-0.748431	0.474721	-0.175574
-42.346726	23.709683	4.102831	-67.189454	2.114734	-50.037355	0.309275	0.242445	-0.815348	6.506527	4.178181	12.807161	-24.087873	-159.622755	79.146706	-0.162106	0.006004	0.132086	11.669508	0.50291	0.241546	-12.277231	-4.473084	0.027532	-0.699451	0.484553	-0.199877
-39.583737	19.760669	4.379451	13.204985	17.579863	-88.707384	0.376271	0.303188	-0.81467	7.146629	2.742676	13.588654	-18.536044	-179.260386	86.0547	-0.192125	0	0.132086	11.567703	-1.057962	0.688934	-18.393217	-4.620221	6.910168	-0.699451	0.484553	-0.199877
-35.453693	14.590025	4.10242	45.289325	65.622747	-132.216494	0.307985	0.283721	-0.890198	6.824238	4.059496	14.700803	-7.323214	-201.399239	81.75832	-0.204133	0.006004	0.126082	10.425344	-0.998579	0.495395	-27.493907	-3.791982	11.643694	-0.699024	0.470797	-0.178163
-28.813098	13.601791	6.255004	49.952024	116.09404	-175.730792	0.340014	0.265876	-0.850777	6.446562	1.309739	15.22907	21.974116	-226.528089	62.654256	-0.210137	0.018012	0.132086	10.058702	-2.046341	-0.886306	-37.548374	-3.049	10.991321	-0.750184	0.497479	-0.201912
-20.303473	33.918448	34.38718	219.586836	-69.397149	-177.719964	0.359935	0.32243	-0.853093	9.264044	0.49503	17.761744	21.825843	-253.54323	51.538322	-0.240156	0.012008	0.13809	9.910892	-0.837649	-2.481619	-51.048232	-0.899392	11.786397	-0.735515	0.486664	-0.168595
5.380979	-19.930017	51.18095	230.270462	96.580997	-88.052283	0.376271	0.303188	-0.81467	10.064912	0.543914	21.374779	23.71006	-287.676662	38.747942	-0.222145	0.018012	0.162106	12.625251	4.771001	-2.801706	-52.8864	-4.199073	5.460995	-0.75331	0.496975	-0.172356
16.0671	11.766137	10.091891	454.15767	309.298319	-118.904917	0.382981	0.274571	-0.920423	9.419435	3.401615	26.665593	18.899543	-331.405616	30.990622	-0.258168	0.012008	0.150098	16.754962	7.376297	-0.93893	-46.505887	-11.275049	8.564873	-0.737741	0.490914	-0.156129
-12.442246	25.139641	7.9383	191.010945	350.008208	-70.884602	0.404881	0.168176	-0.92996	9.413867	3.792852	32.562726	22.224601	-386.09811	20.009417	-0.258168	0.03002	0.180117	18.353487	6.6924	2.114209	-41.660025	-18.323647	20.926457	-0.798265	0.4924	-0.194699
-20.793685	4.130109	5.178133	88.207625	265.982812	-4.121454	0.468676	0.172636	-0.907807	10.772317	2.757599	32.531632	16.414761	-442.345283	-1.773001	-0.294191	0.018012	0.162106	16.274082	5.892106	3.381977	-50.550638	-27.229774	33.378961	-0.784968	0.458324	-0.105489
-3.1597	-2.365369	14.702496	42.053928	181.871602	-3.696999	0.419808	0.130549	-0.890432	14.855319	-11.694731	34.10937	31.507549	-482.970735	-41.464145	-0.282184	0.042027	0.198129	11.675958	4.674867	1.002671	-47.692958	-27.140159	29.722516	-0.769733	0.530547	-0.23201
-3.80276	-0.798862	14.173363	3.745119	101.297485	-40.684757	0.451454	0.093191	-0.831747	14.029034	-1.374194	30.772961	21.74226	-505.981048	-51.242648	-0.294191	0.03002	0.210137	9.155557	2.778343	2.884448	-42.96418	-12.495273	23.567292	-0.750184	0.497479	-0.201912
-5.129681	2.205993	8.143891	67.817874	95.395314	-67.808189	0.483986	0.154521	-0.887545	13.693504	-0.733246	24.926481	69.247273	-501.632797	-39.890812	-0.294191	0.024016	0.252164	9.454061	0.348229	3.335776	-33.752606	-7.34554	29.093868	-0.726105	0.544124	-0.214291
-17.767942	-0.583856	1.297131	14.434397	66.955073	19.194671	0.517041	0.135549	-0.829964	2.452555	3.71036	25.764425	12.209655	-493.619568	-59.100607	-0.300195	0.03002	0.258168	10.677099	-0.587977	1.757768	-15.180453	-9.934149	18.733514	-0.757716	0.537738	-0.207941
7.886848	3.701354	7.944462	14.235529	20.248666	-36.745599	0.545989	0.121083	-0.845023	1.610245	1.129852	28.701616	32.037274	-446.466721	-76.092211	-0.294191	0.006004	0.294191	12.370483	1.837893	1.288766	-13.79604	-11.525951	7.370273	-0.743473	0.540679	-0.196338
-3.531024	0.991463	10.600037	7.802495	8.917393	3.858116	0.50584	0.149159	-0.777586	6.121186	17.852169	24.749067	80.328377	-427.348507	-89.178392	-0.306199	-0.012008	0.324211	14.972855	2.465841	0.544175	-14.533682	-12.0824	2.944483	-0.776457	0.51103	-0.134095
-1.397658	5.10507	8.456431	30.455886	17.711629	-10.406751	0.534788	0.134693	-0.792646	-38.821603	-14.456544	-0.240807	88.790983	-346.329014	-17.437494	-0.312203	-0.006004	0.342223	15.673449	3.729408	-1.319442	-13.082323	-15.195456	-0.829215	-0.775558	0.515783	-0.151185
-2.940052	1.051046	11.478828	-26.44169	13.653454	-17.471559	0.483221	0.115497	-0.849015	-15.262991	6.707576	12.266437	42.070184	-79.907574	2.80226	-0.312203	0	0.354231	14.074998	2.920729	-1.640118	-8.563887	-14.664262	0.192064	-0.743946	0.52217	-0.157534
-1.812696	0.873289	10.460603	2.098694	22.428442	-16.597882	0.498913	0.116893	-0.848017	-19.362243	-4.466721	21.053673	142.444453	147.217941	59.289486	-0.306199	0.012008	0.372242	12.656376	2.693039	-1.440957	-8.84682	-11.976519	0.556407	-0.761741	0.53248	-0.161295
-2.224614	1.975372	9.992739	-2.160549	26.119789	-14.725508	0.489504	0.168401	-0.816009	-10.345115	-8.901853	19.111346	182.929777	205.963394	42.991123	-0.324211	-0.006004	0.360234	12.083565	2.693388	-1.623496	-10.277204	-5.450749	-2.630534	-0.798659	0.562103	-0.173441
-1.645214	0.988649	10.233052	-6.472467	31.375803	-14.621065	0.49994	0.115767	-0.829857	-7.266629	-14.10525	7.501576	143.376733	161.875462	54.882736	-0.312203	-0.006004	0.372242	12.072086	2.227325	-2.253613	-11.378834	4.958096	-7.068066	-0.778164	0.566053	-0.220949
-2.334262	1.395615	10.220315	1.226209	36.201892	-10.847266	0.501612	0.094002	-0.774273	-6.507408	-13.183108	2.855238	15.649888	147.395162	56.89391	-0.318207	0	0.366238	11.293242	2.059435	-1.356694	-10.200178	13.130876	-11.747433	-0.780436	0.538038	-0.147966
-2.078294	1.50765	8.66531	-4.96249	33.785583	-8.965911	0.518451	0.153935	-0.831069	-7.447066	-8.266628	10.908885	-61.993392	188.816779	23.076834	-0.312203	0.012008	0.354231	10.741044	1.890826	-0.512363	-7.534812	16.689143	-16.006004	-0.758616	0.532984	-0.190851
-2.558408	0.525757	10.444906	-13.926982	32.27875	-2.764103	0.535552	0.173717	-0.831175	-8.256761	-5.00287	13.482806	-46.377348	251.767922	-44.663245	-0.336219	0.006004	0.348227	9.453088	1.724748	0.545696	-4.246705	17.266087	-17.041665	-0.764821	0.564241	-0.192256
-2.527978	1.218999	9.117986	2.132482	31.628509	2.419776	0.536197	0.153079	-0.79375	-7.916181	-4.025219	10.656679	-31.270623	315.849244	-103.509229	-0.336219	0.006004	0.330215	8.652174	1.320014	0.299719	-3.168651	16.422564	-17.108065	-0.826764	0.510201	-0.114416
-2.23167	0.987668	9.58566	-4.807009	27.888615	5.76215	0.536197	0.153079	-0.79375	-6.926954	-3.338341	9.259016	-59.293391	365.652216	-135.676663	-0.330215	0.006004	0.324211	8.712951	1.089103	0.471071	-2.152197	15.745404	-16.046937	-0.79288	0.544603	-0.193749
-2.51153	0.756614	9.926275	8.434469	27.711427	8.801724	0.566554	0.156998	-0.809914	-6.448888	-0.363747	11.150436	-85.193538	398.947758	-151.596608	-0.312203	-0.018012	0.312203	7.908532	1.320704	0.113802	-2.335476	15.412185	-14.388505	-0.773758	0.52529	-0.185364
-2.229551	1.162076	9.701709	18.720242	26.164079	14.269646	0.565144	0.138612	-0.80881	-6.379094	2.842327	12.384842	-87.142842	419.569114	-155.338741	-0.324211	-0.012008	0.282184	6.941293	0.917364	0.092815	-2.552176	16.158971	-13.275285	-0.724351	0.521366	-0.187953
-2.64281	1.277153	9.11584	26.242986	24.684155	17.880766	0.578017	0.103238	-0.805603	-6.653999	4.274373	13.025872	-78.11861	430.044133	-143.760008	-0.288188	-0.018012	0.270176	6.371962	1.439832	0.141011	-4.308237	17.697249	-13.106299	-0.778637	0.547544	-0.182146
-2.760681	0.928589	8.939271	27.559806	22.518845	22.925463	0.566554	0.156998	-0.809914	-5.653693	4.158345	12.101632	-77.306136	432.001389	-114.670247	-0.27618	-0.03002	0.252164	5.858586	0.745573	0.013536	-8.029863	18.486445	-11.584702	-0.759942	0.541987	-0.195475
-2.750227	0.755719	9.459185	30.361115	22.91282	27.062096	0.580454	0.120497	-0.788547	-4.22366	4.267044	13.072598	-85.183971	423.220128	-73.868876	-0.282184	-0.042027	0.234152	5.738499	1.033968	-0.272863	-11.659906	19.555319	-10.252627	-0.743473	0.540679	-0.196338
-2.233956	0.987389	9.47003	34.32821	24.65253	34.190998	0.530941	0.099048	-0.808597	-1.661936	3.570343	14.007718	-91.465731	409.308495	-34.367517	-0.288188	-0.024016	0.186121	5.132623	0.924158	0.741881	-12.800018	20.618036	-10.558682	-0.772859	0.530043	-0.202454
-2.975486	1.046714	9.68657	40.884088	26.892446	40.209372	0.5784	0.12275	-0.824867	0.84429	2.530057	14.94236	-99.637229	395.003172	-1.142225	-0.270176	-0.042027	0.186121	4.894702	1.501474	0.283268	-13.233881	22.056314	-10.808478	-0.808495	0.518399	-0.149459
-2.414653	0.347968	9.002546	41.163721	29.246903	50.171854	0.614275	0.140549	-0.769496	3.08147	1.317529	16.579876	-108.191079	384.526162	21.270927	-0.270176	-0.024016	0.150098	4.327203	0.518373	0.267536	-14.187971	22.502463	-10.701611	-0.794679	0.535096	-0.159569
-2.565181	1.627869	10.158487	46.976978	33.708057	59.692372	0.563735	0.120227	-0.807705	5.304268	1.652809	17.683649	-112.827434	380.815189	29.203717	-0.270176	-0.024016	0.132086	4.332835	0.519687	0.552997	-14.743009	23.20052	-10.720786	-0.745699	0.544928	-0.183872
-1.380821	4.236386	9.263741	40.047278	39.371805	50.583734	0.572762	0.049207	-0.820449	7.423403	1.758448	19.257656	-114.477201	375.450251	27.900156	-0.24616	-0.03002	0.114074	4.853879	0.752352	1.020922	-15.170673	22.084685	-10.207824	-0.775511	0.548048	-0.211702
-1.784015	4.584892	9.198764	15.333528	44.668579	32.866783	0.561943	0.082329	-0.787336	9.313177	0.776822	20.475244	-112.570564	362.344236	21.985192	-0.252164	-0.024016	0.066043	5.029885	0.984911	1.310813	-14.765228	19.745027	-9.11145	-0.795106	0.548852	-0.181283
-2.69381	2.961425	9.523452	5.470752	51.735757	16.735065	0.589098	0.029965	-0.782026	11.136205	0.311811	21.218831	-114.572722	340.207266	15.323899	-0.222145	-0.018012	0.048031	5.482963	0.520041	1.146444	-10.818831	15.416458	-5.22778	-0.792407	0.563111	-0.232553
-2.278822	3.427054	10.226348	-3.352802	59.858213	2.548269	0.606844	0.029109	-0.744708	12.946534	-0.266567	21.254619	-122.052648	315.225258	6.886659	-0.210137	-0.012008	0.036023	5.985998	0.169273	0.641174	-7.793259	10.490912	-1.121184	-0.779064	0.5613	-0.20386
-2.734472	2.208882	10.3299	-7.876675	66.838085	-6.103028	0.594999	0.063357	-0.729755	15.041868	-0.55964	21.472333	-137.398259	293.909277	1.844081	-0.186121	-0.006004	0.018012	6.234499	-0.058036	1.672286	-2.404021	7.104381	2.411834	-0.696292	0.541005	-0.186461
-2.747268	2.439516	9.694496	-4.598598	73.638243	-7.582412	0.638611	0.051414	-0.761977	17.452449	0.241858	17.506713	-166.842236	284.68873	-7.101998	-0.186121	0.018012	-0.018012	6.847258	-0.583772	0.940111	3.720462	4.784835	4.853557	-0.779964	0.556546	-0.18677
-4.060814	1.744982	9.955605	-6.768112	84.403283	-6.813752	0.64002	0.0698	-0.763081	20.15876	0.635231	17.26316	-243.859353	268.252817	-0.995481	-0.144094	0.024016	-0.036023	6.792339	-0.46734	1.053695	9.378848	4.578069	6.999082	-0.763495	0.555238	-0.187633
-3.126545	1.688005	10.783159	-12.633184	95.205517	-10.692251	0.608636	0.067007	-0.765077	25.499317	5.5424	19.657581	-257.140634	269.746338	-23.627801	-0.132086	0.048031	-0.054035	7.761729	-0.584804	1.129407	13.902017	3.055798	5.988253	-0.763068	0.541483	-0.165919
-3.353139	3.372025	11.013899	-18.718096	107.014909	-22.682833	0.633048	0.138567	-0.714018	25.283183	10.243936	17.875992	-214.028859	283.14529	-65.303615	-0.102066	0.066043	-0.066043	8.328124	-0.760419	0.968605	17.591312	3.037848	4.081687	-0.764348	0.58275	-0.23106
-3.600519	3.841535	13.032819	-40.182729	116.733195	-38.854101	0.654948	0.032172	-0.723554	27.234045	13.224011	13.838821	-169.649656	284.289689	-87.010812	-0.078051	0.102066	-0.072047	9.577828	-0.358173	0.881038	17.280563	4.065615	0.630699	-0.779491	0.575055	-0.225573
-2.437365	4.480848	13.866622	-14.667704	105.474388	-37.692382	0.645921	0.103192	-0.71081	29.275431	14.997932	11.456873	-128.179506	268.853434	-84.77949	-0.048031	0.102066	-0.096063	10.668077	-0.010853	1.360751	16.850673	3.681342	-0.677853	-0.731883	0.561625	-0.193982
-5.047417	-1.324969	12.124586	-34.356358	124.759039	-70.376737	0.650029	0.098687	-0.63817	34.737937	12.181819	6.966325	-68.052093	240.80884	-77.881497	-0.036023	0.120078	-0.084055	11.344855	0.449639	1.090908	16.947172	2.062379	1.134136	-0.798659	0.562103	-0.173441
-3.13947	6.344527	16.168826	16.332587	136.546981	-57.685391	0.695696	0.084491	-0.634071	39.265726	10.459526	0.981458	-29.021238	200.761263	-68.821348	-0.006004	0.120078	-0.090059	11.904937	0.620088	0.646222	12.648006	-0.072345	3.056782	-0.779064	0.5613	-0.20386
-3.303038	4.771338	13.618917	62.584839	149.694573	-57.236375	0.697105	0.102877	-0.635176	40.797123	13.791789	-7.369854	-50.399916	124.00113	-5.790056	0.018012	0.13809	-0.078051	11.672431	0.735284	0.413874	9.889348	-3.722382	3.065427	-0.762168	0.546236	-0.183009
-2.960575	5.525419	13.569777	62.091842	167.582947	-76.50137	0.718053	0.158304	-0.619332	40.052493	21.12121	-3.681051	-61.284063	37.287039	75.670746	0.036023	0.132086	-0.066043	11.889283	0.558511	-0.153331	4.083378	-6.016154	2.047529	-0.783089	0.556042	-0.157214
-3.863122	3.496492	14.240376	69.726866	187.57561	-87.226487	0.716261	0.120406	-0.598963	35.767031	22.502754	0.067852	10.700878	-26.632106	122.89716	0.024016	0.150098	-0.078051	11.943758	0.094438	-0.325584	2.944727	-5.302387	4.624543	-0.765294	0.545732	-0.153453
-4.508431	2.399519	16.363151	66.485519	208.591409	-88.211531	0.732718	0.160827	-0.636494	32.946401	15.23666	-0.85859	82.205488	-72.918423	158.321441	0.03002	0.156102	-0.066043	11.270939	-1.233974	0.0545	9.551079	-2.998189	9.744749	-0.768374	0.577492	-0.184414
-6.075132	-0.14819	18.232887	66.634913	229.632042	-79.256046	0.720752	0.135413	-0.545587	33.811455	23.308478	1.385403	108.927128	-91.398544	171.59582	0.024016	0.162106	-0.060039	11.102373	-1.812334	0.105585	16.371124	-0.225556	12.377888	-0.795106	0.548852	-0.181283
-6.428508	-0.490187	20.652268	64.093243	262.718043	-67.114629	0.802676	0.158529	-0.505381	26.701308	15.451357	19.014924	408.944215	-195.375178	158.509046	0.018012	0.150098	-0.054035	12.145474	-1.288845	1.09879	23.713147	2.870396	14.302893	-0.816927	0.553905	-0.138398
-5.908458	0.329511	23.785366	67.973269	302.05717	-53.646541	0.772701	0.174122	-0.508482	-0.172902	29.078751	37.584243	208.014899	-256.925356	129.042533	0.006004	0.132086	-0.072047	14.416391	1.601161	1.099891	25.366408	5.84323	13.570009	-0.796905	0.539345	-0.147103
-4.711163	2.08301	29.303677	68.383669	347.406196	-44.676349	0.81345	0.226441	-0.418999	-12.026452	18.833977	18.146785	307.173538	-402.493951	149.918098	-0.006004	0.102066	-0.03002	17.332119	4.017431	-0.885821	11.880555	13.446964	12.28135	-0.780863	0.551793	-0.16968
-3.601648	2.149413	33.19798	75.294326	402.852547	-33.704459	0.858351	0.17322	-0.376371	15.398307	22.899577	4.688892	218.124297	-441.415114	163.61228	-0.042027	0.102066	-0.048031	17.984449	4.877677	-2.352759	-10.397539	22.345389	23.760171	-0.750151	0.553427	-0.15894
-0.994111	-2.777161	37.167798	96.004982	459.695064	-18.144353	0.894608	0.210532	-0.340264	21.538245	-2.339168	11.927676	86.8981	-268.703843	42.766234	-0.060039	0.066043	-0.048031	12.659596	5.068631	-1.030534	-12.394718	22.743748	32.425349	-0.799985	0.571106	-0.178065
-3.65991	-2.900943	32.895606	132.221114	481.517195	2.028707	0.883407	0.224143	-0.287887	6.748099	-3.962321	15.420843	116.75213	-185.346565	-20.026442	-0.084055	0.048031	-0.048031	10.331133	4.205901	-0.852285	-14.190629	15.495541	36.25347	-0.7706	0.581742	-0.171948
-4.97055	6.730616	30.927955	148.754105	493.986551	4.745259	0.931773	0.187056	-0.210043	13.508195	-8.891146	4.353199	98.660703	-109.874355	35.686201	-0.096063	0.060039	-0.024016	9.745023	4.66653	-1.660735	-13.843846	10.912136	27.43195	-0.802684	0.556846	-0.126795
-10.268755	4.325159	18.160209	143.803351	477.104977	7.012206	0.930243	0.109008	-0.132985	-1.646304	7.484123	3.208131	66.802476	-59.382457	22.192653	-0.084055	0.042027	-0.03002	9.540252	3.282203	-0.64389	-10.023228	7.428099	27.961421	-0.75593	0.570927	-0.138631
1.008979	9.396469	31.74703	104.297776	446.779492	14.040705	0.968554	0.144067	-0.060558	1.365536	2.714507	6.459071	-23.092476	-48.020627	11.75828	-0.10807	0.024016	-0.036023	8.809022	2.127331	-0.321235	13.786504	2.366431	29.674686	-0.784416	0.565045	-0.161838
2.997616	2.063704	24.602682	153.706901	335.602498	18.755946	0.989764	0.159344	0.011976	5.636267	-1.76881	7.55149	24.503391	-7.292995	26.637106	-0.10807	0.042027	-0.018012	10.641446	2.647387	0.288092	46.221658	3.223766	15.486088	-0.748825	0.544424	-0.154316
-1.957007	0.67295	23.460366	171.259663	294.925082	14.193841	0.990026	0.119194	0.068665	2.923992	2.764153	8.258314	16.64577	0.427253	-7.407694	-0.084055	0.036023	-0.018012	13.736428	2.761768	1.377094	56.777026	11.896282	3.536355	-0.81958	0.57191	-0.147646
12.893492	-9.82025	10.958752	233.432824	213.71124	-42.655436	0.951332	0.064622	0.015503	3.38889	2.131557	8.858125	2.335855	1.182347	3.761142	-0.10807	0.024016	-0.024016	16.826905	2.875098	2.237728	41.406917	21.740473	-3.747943	-0.752804	0.571431	-0.168187
7.632422	-5.886701	3.292795	97.479578	155.490185	-78.75476	0.998026	0.0493	0.037762	3.217583	0.52849	8.503707	-8.895869	4.153284	4.205445	-0.114074	0.036023	-0.018012	16.450725	2.359822	3.312229	29.725478	20.242186	-3.378373	-0.747925	0.549177	-0.171406
8.606792	-7.949293	14.749947	-20.040968	-55.052342	-68.873363	0.988999	0.12032	0.050505	3.013707	1.099862	9.796349	-0.480195	-2.789499	1.754569	-0.114074	0.036023	-0.018012	14.446117	1.955637	2.642957	18.636929	15.369405	-2.223894	-0.747925	0.549177	-0.171406
15.701398	-11.732042	13.610668	85.266747	-164.311451	-54.934953	1.002255	0.104457	0.034448	2.852394	1.615092	10.323177	2.36435	-14.208101	3.669188	-0.126082	0.036023	-0.024016	13.183775	2.824745	2.222477	14.807712	9.181159	-3.416126	-0.720766	0.564063	-0.152823
6.207547	-11.849063	9.260277	-12.482897	-215.836416	-0.8284	0.984891	0.124825	-0.022135	4.095525	0.981329	10.230199	8.362576	-27.846385	5.048662	-0.120078	0.048031	-0.03002	12.594297	2.705359	1.18303	12.431983	-0.650834	-5.647721	-0.749252	0.55818	-0.17603
7.530903	-12.560661	3.621327	-47.105108	-211.276808	47.308914	0.959452	0.054391	-0.091355	3.500032	1.673182	8.68411	9.236471	-32.754511	2.508004	-0.114074	0.036023	-0.018012	11.676914	1.894789	0.761685	14.879233	-8.831644	-9.849219	-0.765767	0.527223	-0.114649
6.6972	-8.892321	8.06358	-118.650457	-248.268874	116.1794	0.992628	0.095082	-0.109728	4.1412	2.070425	9.816356	6.29986	-38.12338	1.714135	-0.102066	0.054035	-0.012008	11.330419	1.488883	0.467626	17.289338	-14.446763	-15.609246	-0.755503	0.557172	-0.116918
9.056033	-5.527009	8.581066	-115.486934	-291.794132	175.315439	1.001393	0.064212	-0.179161	2.888949	1.387681	9.203666	7.333813	-44.128845	1.538598	-0.114074	0.03002	-0.006004	11.659792	2.006639	-0.094172	19.07829	-17.298228	-20.213337	-0.790194	0.582546	-0.141529
9.581341	-2.798106	9.176068	-103.585139	-330.25061	217.887683	0.980827	0.028297	-0.21427	3.691089	1.384279	9.808881	5.691417	-45.660875	0.665636	-0.132086	0.03002	-0.03002	10.925286	1.372309	0.116664	22.893744	-18.712525	-22.912911	-0.783089	0.556042	-0.157214
11.721616	-1.121734	7.257851	-95.398774	-338.597554	225.240668	0.940844	0.015002	-0.342282	3.800058	0.926107	9.516866	17.776925	-51.712295	-11.473278	-0.132086	0.024016	-0.03002	9.624828	1.261235	0.546972	24.831251	-18.950952	-23.814601	-0.750624	0.534918	-0.120136
13.184329	0.90496	5.904905	-119.723885	-327.223047	202.981683	0.936998	-0.020643	-0.358233	3.727197	1.672398	8.747457	30.20153	-57.112406	-19.194864	-0.126082	0.042027	0.006004	8.364647	1.030312	0.121497	25.56915	-18.858507	-23.231609	-0.770646	0.549477	-0.111431
13.486746	2.648058	6.782034	-151.545231	-312.822127	153.261453	0.897277	-0.074088	-0.429555	3.954873	1.499738	8.811108	26.700211	-54.738	-25.932007	-0.144094	0.012008	-0.012008	7.569239	1.264016	0.220966	25.200799	-19.003344	-22.037309	-0.800031	0.538841	-0.117547
11.683224	4.105098	8.483395	-167.428379	-306.765899	97.509233	0.782297	-0.078233	-0.527342	4.118551	2.015264	8.577454	26.902558	-55.866686	-29.412134	-0.126082	0.036023	-0.006004	7.114148	1.033341	0.210904	24.95339	-18.20635	-20.191282	-0.766713	0.490206	-0.037042
9.24787	3.763148	10.052222	-168.939347	-308.902891	50.596219	0.784734	-0.060973	-0.510286	3.43499	1.616872	8.211124	26.086942	-57.48621	-32.794121	-0.13809	0.03002	0	5.743686	0.687641	-0.046072	24.736207	-17.193495	-18.411285	-0.801404	0.515579	-0.061654
5.714165	2.20224	11.13388	-174.713127	-310.578424	21.507046	0.731113	-0.077917	-0.602976	3.997607	1.386302	8.045396	19.767625	-58.73248	-35.890335	-0.132086	0.03002	0.012008	5.172911	0.225082	-0.173621	24.545315	-14.415333	-17.864993	-0.749298	0.525915	-0.115512
2.537727	1.455272	12.918129	-180.633504	-311.992742	14.744039	0.710285	-0.073682	-0.694774	4.90976	1.669225	8.534276	23.287024	-67.508347	-36.241311	-0.132086	0.018012	-0.012008	5.050003	0.802433	-0.57289	23.24913	-12.354064	-17.430368	-0.801404	0.515579	-0.061654
0.871295	1.340521	12.769074	-184.891587	-311.315356	23.247085	0.648544	-0.080395	-0.680606	5.066429	3.44549	8.121388	18.817869	-70.069273	-41.807973	-0.144094	0.03002	0.006004	4.417097	0.686315	-0.928358	21.08963	-9.18423	-16.016724	-0.764913	0.499712	-0.071222
0.088854	2.09851	13.853369	-198.870428	-309.560258	37.283	0.558741	0.026046	-0.765862	4.051932	3.219185	8.220235	16.591919	-73.562863	-39.848892	-0.150098	0.012008	0	4.808499	0.3363	-1.321696	17.853604	-5.89967	-14.978578	-0.833488	0.490684	-0.016501
0.5844	3.437658	15.773614	-207.768524	-310.696599	47.992828	0.551814	-0.006221	-0.836293	4.235213	2.988286	8.931903	17.856962	-69.458338	-37.931161	-0.168109	0.018012	-0.006004	4.516343	0.68267	-1.668303	15.171774	-2.968017	-14.479835	-0.798751	0.497575	-0.052406
0.842503	4.659965	17.284305	-208.745946	-317.17037	50.806509	0.442352	0.003515	-0.862544	3.823745	3.563723	8.156279	6.219096	-57.971369	-35.905337	-0.144094	0.012008	0	4.746266	0.16141	-1.609072	12.556462	-2.231666	-14.663906	-0.80055	0.488068	-0.018227
0.120627	4.489495	18.483137	-203.937502	-324.931365	43.954368	0.458427	0.024424	-0.880811	4.439323	2.703274	7.697753	1.517257	-58.52678	-27.608823	-0.13809	0.03002	0.012008	4.683566	0.797333	-1.835675	9.790914	-2.753622	-12.770297	-0.761361	0.48646	-0.079064
0.274798	5.132744	20.510477	-202.999343	-339.927097	33.535155	0.351019	0.031908	-0.870741	4.620536	2.071632	8.233131	7.204752	-60.210813	-21.555899	-0.156102	0	0.018012	5.139112	0.796423	-1.826665	6.964468	-3.386417	-9.651012	-0.798751	0.497575	-0.052406
-0.933296	4.385981	23.200809	-196.272615	-356.027264	15.934572	0.280896	0.075577	-0.806405	4.745869	1.95559	8.884509	6.070514	-60.909724	-23.290501	-0.162106	0.006004	-0.006004	4.792402	-0.072918	-2.179919	3.460255	-3.578035	-7.922003	-0.833015	0.509193	-0.055304
-3.657877	4.044029	24.648292	-180.059857	-376.974439	3.747082	0.294917	0.098738	-0.860992	5.428855	2.182207	9.192144	10.932653	-65.02828	-27.471815	-0.156102	0.012008	0.018012	5.479782	-0.420873	-1.996704	-0.476661	-2.981481	-8.04876	-0.767612	0.485453	-0.019952
-7.687385	4.750082	26.881408	-176.929158	-378.861858	-6.367262	0.200382	0.070847	-0.847715	5.084433	2.871043	9.007405	12.933787	-67.114565	-29.007661	-0.162106	0.012008	0	6.500825	-0.713454	-2.206115	-2.876515	-2.219982	-7.681705	-0.80145	0.483315	-0.001137
-11.896755	3.946073	28.644944	-165.073937	-376.916973	-12.069872	0.126151	0.119021	-0.856019	5.14336	3.15703	9.184985	14.304045	-71.236557	-25.7052	-0.162106	0.024016	0.018012	6.667924	0.038332	-2.313503	-7.092286	-0.595126	-7.130334	-0.815693	0.480374	-0.01274
-17.003885	-2.209241	25.349737	-145.191714	-369.797352	-13.41147	0.112131	0.09586	-0.801432	4.570303	4.705934	8.994377	13.300678	-78.117333	-16.620659	-0.162106	-0.006004	0.012008	6.329756	-0.018093	-2.149247	-13.247451	2.352505	-4.417904	-0.783654	0.473005	0.002624
-19.364519	7.755395	16.715939	-208.982116	-291.763167	-12.65911	0.059154	0.058278	-0.856697	4.362784	6.136795	10.226496	8.127224	-84.085026	-0.373114	-0.168109	0.018012	0.012008	7.011051	-0.135777	-2.250442	-17.277492	4.32471	3.864395	-0.817919	0.484623	-0.000274
-30.2273	17.725725	30.682715	-189.810033	-247.694721	2.416384	0.036872	0.145161	-0.827896	5.38103	5.102667	10.129883	1.092863	-95.77572	16.777534	-0.180117	0.012008	0.03002	7.746467	0.035382	-2.463381	-21.368523	5.360514	4.980587	-0.781428	0.468756	-0.009842
-35.258832	14.518963	22.657253	-68.182343	-267.101158	49.611559	0.026316	0.138133	-0.738094	4.884307	5.103084	10.769105	-3.799339	-106.687552	32.785226	-0.174113	0.018012	0.03002	8.439923	0.036383	-1.936037	-26.105041	6.414023	6.42932	-0.785881	0.477254	0.01509
-39.879133	7.590735	12.030326	-25.393949	-248.058967	75.786396	0.051417	0.088021	-0.769104	5.159405	4.701997	10.303247	-10.281973	-119.901434	47.156146	-0.192125	0.024016	0.018012	9.20395	-0.017472	-0.722723	-23.492638	6.695496	6.161579	-0.782328	0.464002	0.007248
-46.893159	3.402269	5.234409	-50.607858	-175.522866	92.390158	0.033671	0.088877	-0.806422	6.134704	4.583195	11.088926	-13.639802	-133.749156	62.760723	-0.186121	0.024016	0.018012	9.049775	0.681832	0.190527	-17.006933	6.878856	3.347849	-0.762733	0.463199	-0.023171
-45.457993	11.745917	-0.091381	-99.825835	-70.522035	68.713206	-0.015842	0.067428	-0.826472	5.631824	5.557888	11.549421	-19.726183	-150.466068	82.416017	-0.216141	0.018012	0.024016	9.629447	1.20439	0.775077	-7.476727	6.875201	1.227658	-0.785454	0.463498	0.036804
-39.225086	22.947736	2.371621	-92.402693	2.210087	18.739614	0.016569	0.069095	-0.806316	6.501903	4.636825	12.629348	-18.996341	-171.843506	97.754743	-0.216141	0.018012	0.03002	10.60176	1.319301	1.023118	-1.326414	6.257795	0.479834	-0.784981	0.482007	-0.002
-37.442966	25.449588	5.591731	-19.607484	21.904617	-47.239399	0.033671	0.088877	-0.806422	7.312438	4.002598	13.589681	-17.033493	-192.884156	106.986445	-0.222145	0.03002	0.024016	10.540562	0.044117	0.673656	-5.072931	4.615361	2.73047	-0.797897	0.470063	-0.008979
-36.835496	15.693752	3.904199	50.513259	43.927409	-109.131436	0.031879	0.05098	-0.786053	8.395555	3.082072	13.965952	-13.706737	-215.203878	104.756358	-0.234152	0.036023	0.024016	10.426596	-1.63544	0.492504	-13.15749	4.406411	5.933802	-0.768085	0.466944	0.018851
-53.506334	1.293062	42.026436	400.322543	157.82365	-115.902996	0.047188	0.032864	-0.76579	8.549268	0.729595	15.801293	-5.038609	-240.960756	86.983097	-0.264172	0.036023	0.036023	10.867467	0.097913	-0.061522	-21.512879	1.617766	7.238085	-0.802822	0.460053	0.054757
-5.347234	12.095833	41.162596	321.155821	265.299641	-33.91132	0.058007	-0.000258	-0.798903	9.405016	1.694886	19.472791	-2.808769	-271.282651	70.692169	-0.282184	0.03002	0.042027	13.641989	8.082042	0.02994	-15.073386	-5.552117	-3.938554	-0.767658	0.453188	0.040565
10.671718	17.945719	18.957124	360.949888	370.198802	-100.573606	0.041932	-0.021167	-0.780637	8.941924	5.352748	25.591445	8.073616	-312.807383	60.47007	-0.294191	0.048031	0.066043	19.481329	11.726849	2.102511	4.167683	-17.04364	-10.572786	-0.78768	0.467748	0.04927
-22.580414	18.12082	5.465452	192.573915	333.05354	-36.420689	0.142674	-0.101067	-0.804448	10.354692	4.307312	31.577282	33.519469	-369.485426	49.33336	-0.312203	0.048031	0.072047	22.693242	8.263895	5.859674	-13.026787	-37.532692	11.372205	-0.822371	0.493121	0.024658
-6.025474	11.258273	6.818806	35.128637	284.230354	-35.204388	0.160421	-0.101923	-0.76713	10.263627	2.754025	35.588774	36.436415	-432.42688	34.750781	-0.330215	0.066043	0.090059	18.091142	5.321444	5.98341	-18.997216	-47.164578	19.331507	-0.802822	0.460053	0.054757
-4.070279	-12.471228	11.654669	-5.876221	182.184952	-10.092889	0.235679	-0.151224	-0.740666	5.771761	5.576544	34.494952	29.037175	-492.033388	2.02911	-0.336219	0.048031	0.102066	11.143942	3.410433	2.755482	-4.207471	-46.98659	27.969864	-0.78678	0.472501	0.03218
0.346872	2.217867	15.30359	3.25749	120.599776	-85.341545	0.206732	-0.136757	-0.725606	15.37668	-7.906982	29.276609	89.64582	-491.038326	-43.631539	-0.348227	0.054035	0.13809	7.118862	-0.48496	-2.59232	-12.855243	-29.894772	31.747371	-0.82597	0.474109	0.093018
-2.250564	-9.115253	8.115976	20.821037	141.002637	-82.08031	0.206852	-0.077095	-0.80156	11.835583	0.130851	25.420101	89.56482	-502.725872	-22.151358	-0.360234	0.054035	0.156102	6.108177	-2.288592	-4.960394	-32.507876	-13.49494	31.536734	-0.807275	0.468552	0.079689
-23.700966	-1.676688	2.910049	13.931091	68.438692	12.849713	0.236324	-0.171862	-0.703241	5.59783	-2.754249	14.511976	40.715753	-469.834772	-41.419804	-0.366238	0.042027	0.210137	9.409943	-0.094338	-4.713806	-48.658897	-9.596231	19.616083	-0.790806	0.467244	0.078826
7.540537	2.192159	7.760527	111.094888	21.038914	-30.550604	0.240935	-0.097193	-0.725819	3.147971	4.831802	39.164127	135.895794	-461.165543	-139.964295	-0.38425	0.042027	0.222145	15.782148	4.075507	-1.543981	-38.529673	-5.039699	1.826372	-0.786826	0.440236	0.092697
-3.009473	6.448233	11.143792	16.554436	17.399362	22.365537	0.252398	-0.150953	-0.721508	2.987875	-5.968282	22.606439	247.401112	-421.347895	-116.675807	-0.366238	0.03002	0.258168	19.760539	5.353471	1.165753	-29.128404	-3.18975	-3.487781	-0.823317	0.456104	0.102265
-2.013907	2.553341	9.073672	18.29537	25.352936	-11.881861	0.270909	-0.112785	-0.722719	-18.621996	-15.050275	10.469809	126.894295	-436.22414	50.436344	-0.366238	0.024016	0.282184	19.441768	4.027268	2.180608	-21.826285	-10.563831	-8.446497	-0.773483	0.438425	0.12139
-1.336025	1.629635	11.3966	-7.435258	31.328726	-6.838391	0.271292	-0.093273	-0.741983	-13.628416	0.928345	4.994355	-132.664851	-204.160641	-2.800487	-0.38425	0.012008	0.324211	14.882154	3.282401	1.80163	-17.976753	-13.045145	-5.279094	-0.775236	0.461183	0.095053
-1.987295	3.652463	7.574286	34.139942	33.429903	-18.771572	0.314139	-0.144241	-0.735676	-23.260909	0.981087	24.979975	-33.785866	85.255187	69.93294	-0.378246	0.03002	0.330215	11.96295	3.516371	1.003045	-13.335012	-12.588249	-3.276677	-0.840685	0.452659	0.120218
-2.490009	-0.227596	10.964565	-41.686036	27.883605	-17.319227	0.235679	-0.151224	-0.740666	-12.508289	-7.014029	24.669547	149.500289	271.85851	19.512669	-0.366238	0.018012	0.324211	11.662034	2.586391	0.079733	-9.543092	-4.090553	-4.890865	-0.792605	0.457737	0.113006
-1.829046	0.994461	12.541071	16.672243	45.041254	-0.155877	0.270909	-0.112785	-0.722719	-10.28808	-15.994139	11.870173	165.771788	295.557246	8.946964	-0.366238	0.03002	0.312203	11.98961	2.872036	-0.597301	-7.782564	5.014808	-9.955716	-0.804241	0.404527	0.171167
-1.995715	2.89679	7.109951	24.038049	45.950868	0.073122	0.257271	-0.116435	-0.687397	-6.486231	-18.110866	3.217969	10.915338	262.88712	34.105162	-0.360234	0.018012	0.306199	11.755534	2.639329	-0.94541	-4.19881	10.431104	-12.692491	-0.826915	0.437091	0.170625
-2.340508	0.756308	9.871889	-19.170982	35.54585	-4.063764	0.270527	-0.132297	-0.703454	-5.334461	-12.164625	8.420073	-148.212952	244.400696	47.014221	-0.366238	0.042027	0.294191	10.637521	1.777627	-0.001312	-4.329135	13.366591	-14.474126	-0.790852	0.434979	0.139343
-2.277961	1.337377	10.163503	3.009932	37.594652	1.26877	0.287366	-0.072365	-0.76025	-6.235794	-4.783726	15.88044	-187.827741	267.941073	10.418754	-0.360234	0.036023	0.27618	9.84482	1.780271	0.211289	-6.366783	16.823862	-15.849914	-0.839832	0.425147	0.163645
-2.230193	0.639552	9.642636	2.518478	38.987041	8.702565	0.274756	-0.07714	-0.706768	-5.504619	-0.661699	16.359258	-133.566788	333.101929	-57.760282	-0.348227	0.054035	0.252164	8.926629	1.954203	-0.148495	-9.140062	19.323717	-17.329809	-0.790852	0.434979	0.139343
-2.652863	-0.400439	11.423235	5.790925	43.330749	18.246493	0.320039	-0.110848	-0.683405	-5.502644	0.145097	13.526916	-90.216028	401.39836	-113.721125	-0.324211	0.054035	0.252164	7.851134	1.552404	0.113727	-12.307828	19.9372	-15.892894	-0.755261	0.414359	0.146865
-2.464232	1.742166	9.467275	35.28126	48.279706	22.455289	0.270909	-0.112785	-0.722719	-4.567934	0.889235	12.246065	-98.752557	439.481442	-138.719726	-0.324211	0.066043	0.228148	7.224872	1.495759	0.101075	-17.346932	18.924402	-13.786009	-0.77263	0.410913	0.164818
-2.066864	1.509047	9.243458	16.145507	47.540877	21.351686	0.302293	-0.109992	-0.720723	-4.22562	3.465356	12.838019	-123.454958	442.97717	-140.318709	-0.324211	0.054035	0.222145	6.818283	0.973385	-0.365911	-23.526786	19.176785	-13.243944	-0.738792	0.413051	0.146002
-2.282255	1.046605	9.931545	17.597603	49.456726	22.587772	0.300884	-0.128378	-0.719618	-4.222018	6.271569	13.482046	-134.085995	423.699254	-129.039241	-0.300195	0.048031	0.198129	5.913276	0.744933	-0.099522	-29.307487	19.736035	-12.400988	-0.837606	0.420898	0.151179
-2.409185	1.799874	9.352928	34.135434	52.882965	21.326862	0.287246	-0.132027	-0.684296	-3.781112	7.130404	13.017216	-134.210369	398.383274	-105.6303	-0.282184	0.060039	0.192125	5.509713	0.976264	-0.334723	-33.394175	19.077083	-10.633668	-0.75706	0.404852	0.181045
-2.58489	1.915707	9.176334	26.375636	54.058786	22.537574	0.333939	-0.14735	-0.662037	-3.431788	8.445787	13.788403	-137.008718	377.802142	-70.939091	-0.270176	0.060039	0.186121	4.376377	0.458523	-0.131245	-34.036525	17.853488	-9.232365	-0.82161	0.401081	0.18912
-3.088254	1.337318	9.800613	31.377116	54.153528	28.565621	0.333295	-0.126711	-0.699462	-2.059255	8.153814	14.640992	-138.546669	368.506324	-37.189008	-0.258168	0.042027	0.174113	4.201155	0.399916	-0.363256	-31.449714	16.03375	-8.319841	-0.821563	0.433346	0.128603
-3.382863	0.988362	9.389356	37.078716	58.444612	34.902349	0.312992	-0.202777	-0.677882	-0.115411	7.630458	15.799855	-136.144872	366.570013	-12.764141	-0.258168	0.072047	0.162106	3.595951	0.521955	0.709632	-28.3402	14.189783	-7.403949	-0.741918	0.412547	0.175558
-3.353575	1.681465	8.004621	33.922655	65.0386	36.317927	0.33253	-0.165735	-0.660933	2.559181	6.990708	16.737046	-129.184636	364.992015	-2.146875	-0.252164	0.078051	0.162106	3.82609	0.464129	0.828059	-24.832419	12.935308	-6.65252	-0.753035	0.41011	0.134399
-1.840513	3.656264	9.195385	17.213987	64.292747	33.200226	0.37576	-0.197191	-0.67389	4.732171	5.435407	17.902083	-122.063391	359.682393	-5.620686	-0.258168	0.060039	0.162106	4.405215	0.117716	1.294482	-19.297351	12.308537	-7.281112	-0.787299	0.421728	0.131501
-2.48511	3.248901	8.488057	6.471956	68.429137	19.230555	0.377169	-0.178805	-0.674994	6.544439	4.570466	17.997379	-116.852808	347.068495	-15.798823	-0.252164	0.078051	0.144094	4.747546	0.348882	1.359383	-12.440323	11.892657	-6.561712	-0.820283	0.392079	0.193744
-2.977266	2.90408	9.691042	-7.165342	67.636024	11.209548	0.379606	-0.161546	-0.657939	7.011339	3.99496	18.715089	-117.192098	328.353108	-24.374613	-0.258168	0.084055	0.156102	5.778486	0.753686	1.724048	-5.305074	11.060909	-4.424239	-0.756633	0.391097	0.202758
-2.970353	2.846876	10.037791	-4.028019	64.987731	4.914159	0.380633	-0.162672	-0.639779	7.965481	4.049964	18.379459	-124.490024	310.089104	-28.89753	-0.264172	0.102066	0.150098	5.565013	0.931248	2.46253	1.429107	10.871485	-2.548519	-0.771303	0.401911	0.169441
-3.320119	2.556297	9.741161	-2.152439	59.358477	2.988166	0.392479	-0.196921	-0.654732	9.063535	3.586254	19.639921	-135.495627	292.648285	-30.17245	-0.27618	0.084055	0.144094	5.857727	0.874623	2.867543	5.858142	10.380077	-0.831129	-0.774429	0.401407	0.198997
-4.115107	2.093713	10.128744	3.012591	58.944684	-1.704945	0.405352	-0.232295	-0.651524	11.023863	3.009192	18.616966	-148.952412	274.333071	-29.43581	-0.294191	0.096063	0.126082	5.840947	0.812783	2.010898	9.457592	9.799473	2.076665	-0.80694	0.390267	0.222437
-3.647666	1.74599	10.541753	7.374062	61.228204	-6.145862	0.378841	-0.20057	-0.619409	13.721587	3.002432	17.843123	-180.412503	261.856806	-20.09601	-0.312203	0.084055	0.10807	5.84907	0.119604	2.350297	13.488144	9.085262	6.090875	-0.821656	0.368817	0.249637
-3.643595	2.268933	10.77427	12.351779	65.325273	-9.243433	0.408553	-0.176012	-0.672998	16.009896	3.966744	19.536867	-208.604166	267.259837	-10.965218	-0.330215	0.090059	0.066043	5.890359	0.057914	1.55187	17.611058	8.34244	10.045012	-0.806986	0.358003	0.282954
-4.842475	1.690373	11.037944	19.804103	71.098594	-15.967289	0.409843	-0.217289	-0.598149	20.938963	5.439996	20.513769	-200.833331	290.154182	-20.133827	-0.348227	0.096063	0.024016	6.566375	-0.814	1.104705	21.982077	6.689048	13.623953	-0.789145	0.379957	0.226198
-3.246141	3.138765	10.610922	15.389375	81.973783	-30.5718	0.414071	-0.162131	-0.601463	25.303338	5.659933	18.238114	-169.509636	309.061377	-39.134268	-0.360234	0.13809	-0.018012	7.690929	-0.414155	0.443964	24.938045	5.190041	15.937756	-0.788245	0.38471	0.209108
-2.994477	5.114928	11.834356	22.574236	93.480972	-39.467124	0.411252	-0.198903	-0.599253	29.383062	5.485087	12.713814	-148.521596	295.483038	-51.930855	-0.342223	0.150098	-0.072047	8.77747	-0.473161	0.693468	25.986054	3.966656	14.59552	-0.80604	0.39502	0.205347
-2.80065	5.175459	12.936405	27.303487	108.356194	-53.5123	0.430146	-0.141223	-0.619729	32.115993	8.635465	8.21955	-155.286729	243.986134	-36.160389	-0.330215	0.162106	-0.120078	10.141402	-0.244832	0.607365	22.943715	2.926465	11.942539	-0.787345	0.389463	0.192018
-2.666913	6.861101	13.983409	52.594987	123.026572	-58.521547	0.429763	-0.160735	-0.600464	31.325395	13.167742	5.896398	-148.326478	194.39005	-9.241012	-0.336219	0.192125	-0.156102	10.767209	0.043399	0.621068	16.333805	2.321408	10.024856	-0.789617	0.361448	0.265001
-3.086837	5.582175	12.989483	68.461223	138.301779	-69.269939	0.425272	-0.175742	-0.65384	33.219908	16.090695	1.858242	-104.996662	146.859701	29.890238	-0.294191	0.24616	-0.192125	11.331568	0.330692	0.405277	7.240732	-1.210923	9.201544	-0.804287	0.372262	0.231684
-3.127778	5.119846	13.796629	72.440403	155.234683	-81.256045	0.473638	-0.212829	-0.575997	38.074315	16.368116	-1.410738	-52.768566	111.120189	60.729926	-0.294191	0.270176	-0.204133	11.326176	-0.365642	0.059569	5.842107	-7.503663	12.918227	-0.787818	0.370955	0.230822
-4.388315	3.031533	13.766453	72.015633	168.5103	-87.330192	0.474665	-0.213955	-0.557837	39.826498	16.711593	-4.385583	-22.670408	60.087087	101.974616	-0.264172	0.294191	-0.204133	10.917425	0.212015	-0.402423	8.129982	-12.546637	16.014029	-0.80784	0.385514	0.239527
-5.171959	1.467396	14.671714	74.069028	186.447887	-85.237494	0.525969	-0.154608	-0.558156	36.568395	17.292373	-3.26962	13.239893	-1.128573	135.951257	-0.252164	0.294191	-0.222145	10.249668	-0.8256	0.264436	15.45286	-14.423891	18.543547	-0.822082	0.382573	0.227924
-6.68417	-0.442179	16.4285	71.917384	206.677852	-75.649479	0.512332	-0.158257	-0.522834	42.371856	27.67528	12.866442	77.671002	14.392165	128.52683	-0.258168	0.318207	-0.222145	10.257882	-0.418223	0.723014	24.891398	-13.695585	20.718172	-0.802961	0.36326	0.236308
-7.20394	-0.841353	19.133387	64.684057	236.01367	-61.80885	0.543333	-0.174976	-0.501574	50.15117	16.589079	16.278827	298.360076	-136.441429	138.330858	-0.264172	0.330215	-0.234152	11.072869	0.27941	1.712502	35.37535	-12.932652	21.429644	-0.822129	0.350308	0.288441
-6.283619	1.487065	22.278118	65.616667	271.022885	-50.617361	0.531105	-0.16024	-0.467356	-3.567114	9.364634	12.722602	478.532336	-347.711177	82.334125	-0.240156	0.330215	-0.234152	12.784728	2.4779	2.155924	40.503354	-9.941037	20.286873	-0.822982	0.37782	0.245013
-4.999592	3.875569	26.412699	73.33436	310.728141	-46.818567	0.5949	-0.15578	-0.445204	-9.915125	13.145199	24.507886	297.035799	-419.91522	42.990998	-0.27618	0.300195	-0.234152	17.526225	5.93398	0.496444	23.780648	-0.237225	9.023202	-0.859046	0.379931	0.276295
-3.917665	2.668582	31.748154	84.512357	361.634109	-41.573004	0.623465	-0.189758	-0.440999	26.874837	18.15269	13.52857	252.150272	-413.483081	61.124239	-0.300195	0.258168	-0.240156	20.916377	8.224495	-3.420791	-12.904364	16.120548	22.025543	-0.84305	0.360115	0.314236
-3.223725	1.68879	34.880349	89.033519	420.040014	-25.778335	0.647756	-0.17786	-0.313985	10.358434	6.404684	10.636174	82.421117	-300.672845	49.77558	-0.342223	0.24616	-0.210137	18.165773	7.299145	-4.449624	-24.52433	30.469167	38.480595	-0.821229	0.355062	0.271351
-4.44705	-3.921849	42.355282	119.059788	466.078126	-11.218522	0.708732	-0.210171	-0.289624	18.550431	-1.648648	15.46679	61.270786	-175.056588	58.256613	-0.372242	0.234152	-0.186121	11.5707	4.605782	-1.453681	-21.777793	26.783397	45.553032	-0.824781	0.368313	0.279193
-7.016748	-1.972387	31.443995	172.801079	459.230085	11.457622	0.709377	-0.23081	-0.252199	0.261479	-1.752111	7.153258	171.184763	-122.192474	69.63821	-0.372242	0.222145	-0.186121	8.986598	2.707794	0.084417	-10.094716	13.618808	46.410373	-0.814091	0.384506	0.298639
-13.715872	0.685055	23.515129	184.577452	460.056953	6.841777	0.762616	-0.233378	-0.140244	1.609782	3.920045	4.574367	89.489654	-122.76714	38.621722	-0.38425	0.228148	-0.192125	8.004234	0.518716	1.995289	14.994152	0.483206	46.115895	-0.774948	0.350634	0.298318
-6.801357	6.363571	22.453014	102.5443	433.547034	48.472858	0.783061	-0.257125	-0.029181	6.801167	-1.312121	6.452495	114.633503	-105.340831	12.131555	-0.408266	0.216141	-0.180117	10.436448	1.378853	1.305463	45.047893	-6.267721	28.483257	-0.828334	0.381565	0.287035
0.784559	4.281893	28.840566	134.62091	356.533552	56.286656	0.781531	-0.335173	0.047877	1.92821	1.744448	3.10974	65.442714	-29.846783	-14.368478	-0.408266	0.216141	-0.168109	14.895844	3.503884	-0.365694	51.984439	-2.53719	9.992724	-0.774948	0.350634	0.298318
-3.11926	-2.339211	25.452614	167.665448	264.959582	73.719647	0.815996	-0.335759	0.104353	2.460999	4.937926	11.076685	28.261854	-24.339538	-8.244132	-0.402262	0.186121	-0.162106	19.520855	3.960995	0.412741	41.52942	9.707166	4.116861	-0.845703	0.378119	0.304988
10.816785	-17.228679	18.701283	362.343546	208.026198	104.085611	0.784874	-0.378702	0.159047	3.008125	2.245914	9.676318	9.301818	-32.825567	11.926116	-0.402262	0.192125	-0.180117	19.593236	3.559024	1.154225	23.728869	21.011178	1.740432	-0.846129	0.391875	0.283275
42.252324	-17.085159	-4.540162	123.125393	212.464874	-64.255098	0.818957	-0.3988	0.234788	2.4569	2.308699	7.36543	13.025418	-42.771531	25.149938	-0.408266	0.192125	-0.168109	15.256753	4.029	0.671088	11.179168	23.100957	3.214904	-0.794923	0.397458	0.246506
1.954281	1.658572	0.828543	53.28899	133.736874	-47.710387	0.801211	-0.397944	0.197469	3.41624	2.076835	7.266309	-39.316123	-21.268136	27.380634	-0.408266	0.198129	-0.150098	12.619808	3.219215	-0.354966	2.570582	22.956105	3.722508	-0.830087	0.404323	0.260698
25.910974	-6.220848	16.716989	-21.660093	-133.717289	-58.347987	0.785781	-0.439491	0.253161	4.17953	-0.224216	11.531422	-25.347785	-27.447765	12.078131	-0.420274	0.204133	-0.162106	12.390909	3.219407	-0.416564	-3.936626	17.749149	-1.819319	-0.843476	0.37387	0.292522
10.133126	-5.508475	16.635606	108.397277	-268.306203	-43.960633	0.88237	-0.413852	0.276204	3.200752	2.53474	7.910152	-2.521501	-39.947573	2.103205	-0.41427	0.222145	-0.156102	12.346138	2.758978	0.151129	-7.979273	10.408953	-8.154954	-0.860799	0.402689	0.249958
6.911499	-10.868091	7.19618	106.656784	-318.316429	-5.640079	0.841239	-0.485683	0.205986	3.792303	2.072361	9.278835	-28.961442	-29.433712	1.482774	-0.432281	0.204133	-0.162106	11.791574	2.64774	0.881539	-7.594657	3.03692	-14.863843	-0.843903	0.387626	0.270808
4.965521	-13.208755	-1.401428	6.113314	-292.072327	36.151507	0.885616	-0.458602	0.135236	4.123303	2.243927	8.872049	-19.524667	-43.300651	6.739897	-0.420274	0.198129	-0.162106	11.522739	2.594093	1.674935	-4.505961	-3.47603	-19.406595	-0.862171	0.379427	0.305851
3.586234	-9.246152	4.475463	-113.124673	-280.922082	91.165179	0.88177	-0.494247	0.119285	3.921663	0.237648	9.874258	-18.125552	-39.620465	4.854619	-0.438285	0.204133	-0.168109	11.582617	2.247127	1.788668	-3.388799	-8.08887	-21.495907	-0.860799	0.402689	0.249958
7.129035	-4.535317	9.816505	-116.566846	-304.300624	141.312834	0.895025	-0.51011	0.103227	4.651857	1.037729	9.768963	-1.201378	-51.74648	-6.273202	-0.444289	0.216141	-0.144094	10.600839	2.361699	1.084942	0.215118	-11.006076	-22.204156	-0.814945	0.412017	0.255211
8.444897	-2.67951	9.731635	-73.876103	-347.787599	178.994613	0.805792	-0.585004	0.011855	4.312676	0.695099	9.704052	11.019013	-56.267026	-20.977909	-0.420274	0.204133	-0.156102	9.510703	1.956483	0.604966	4.153534	-12.083753	-20.628611	-0.809639	0.376008	0.273706
9.338951	-2.284079	5.647196	-71.455867	-362.439336	183.777842	0.843121	-0.649852	-0.053373	4.290666	1.155367	8.582237	26.112673	-61.962068	-32.278468	-0.432281	0.228148	-0.156102	7.962757	2.130877	0.061516	8.861843	-13.563147	-18.183179	-0.847456	0.400877	0.278651
10.12962	-0.893231	5.088403	-121.19726	-343.871234	152.668746	0.835811	-0.701631	-0.104539	3.948459	1.099401	8.398818	27.684526	-59.465208	-33.6902	-0.444289	0.210137	-0.150098	7.333923	1.088942	-0.183973	11.385004	-14.065587	-15.252198	-0.897808	0.367783	0.358847
9.174445	0.220224	9.059704	-150.517143	-318.766346	105.234488	0.78219	-0.718575	-0.197229	4.165908	1.443185	7.989554	30.739678	-62.185181	-30.606191	-0.432281	0.180117	-0.144094	6.649933	0.858459	-0.255632	9.572975	-14.730011	-13.288983	-0.845749	0.345855	0.365505
6.206428	0.050946	9.809257	-150.894384	-306.829289	62.20336	0.789162	-0.787342	-0.246293	4.062202	1.958142	8.576469	32.36139	-59.741682	-36.876695	-0.456297	0.204133	-0.13809	6.417416	1.552882	-0.428259	6.55884	-14.202391	-12.124548	-0.82838	0.3493	0.347553
2.59649	-0.931716	9.966132	-158.664803	-300.467672	34.407594	0.766925	-0.801493	-0.336986	3.771316	2.188875	8.157628	37.140441	-64.862864	-35.616877	-0.456297	0.198129	-0.144094	5.568682	1.092469	-0.218887	3.852502	-13.875137	-11.657304	-0.860845	0.370425	0.310475
1.004505	-2.147377	10.624972	-180.98172	-293.229296	25.364377	0.731815	-0.780269	-0.430887	4.50754	1.327374	8.114277	33.057961	-62.041197	-45.025992	-0.462301	0.192125	-0.126082	4.83248	0.747358	-0.063829	1.300208	-13.749234	-11.949222	-0.86487	0.365168	0.357121
-0.563248	-1.212245	12.618721	-201.31904	-286.069696	32.194106	0.647193	-0.780494	-0.544838	4.46747	3.10158	9.290047	25.333192	-47.178908	-61.539472	-0.474309	0.180117	-0.120078	4.836428	0.458664	0.106133	-0.420701	-14.081515	-11.644905	-0.813238	0.356995	0.342066
-0.884656	1.11287	13.889378	-210.943408	-279.222254	45.694338	0.635009	-0.866791	-0.630115	3.989511	2.647142	7.807162	26.083903	-44.268839	-63.049841	-0.462301	0.186121	-0.120078	4.482368	1.035682	-0.468917	-2.54405	-13.333162	-12.22423	-0.831886	0.394816	0.294878
-1.757338	2.512514	16.244849	-213.208368	-276.210871	62.163612	0.599255	-0.824929	-0.761441	4.661843	2.072883	7.408216	22.175985	-38.707341	-65.674048	-0.456297	0.168109	-0.126082	4.595026	0.513861	-0.583215	-3.067175	-13.15387	-12.353546	-0.828807	0.363056	0.325839
-1.285766	5.009721	17.011594	-199.265922	-281.529847	77.844525	0.566199	-0.805957	-0.819022	4.382399	2.474376	7.638072	23.108289	-37.776906	-66.947049	-0.456297	0.156102	-0.096063	4.992958	0.281217	-0.633475	-3.836034	-13.042993	-12.207319	-0.811438	0.366501	0.307886
0.125775	6.514785	15.945321	-191.07057	-290.696659	84.272912	0.467938	-0.809831	-0.89765	4.720088	2.58804	7.585389	22.650605	-40.383902	-65.520598	-0.468305	0.162106	-0.102066	4.99397	0.339376	-0.57612	-4.205085	-12.987592	-12.118828	-0.879586	0.343718	0.384321
1.519766	8.198923	16.901841	-191.200847	-294.958488	74.074223	0.353724	-0.774952	-1.033966	3.991173	2.818816	7.924858	20.339908	-38.13813	-57.994686	-0.474309	0.168109	-0.114074	5.379616	0.62517	-1.194935	-3.989755	-12.910652	-10.926586	-0.82838	0.3493	0.347553
2.522495	9.710581	18.370274	-184.35681	-297.789196	51.053211	0.242973	-0.723939	-1.135066	4.272066	3.390888	7.929276	21.491655	-41.900219	-49.032864	-0.474309	0.162106	-0.120078	6.002613	0.62313	-1.353823	-4.176846	-11.754448	-10.526196	-0.847929	0.382369	0.317454
2.021584	8.958343	19.109763	-178.889563	-298.566099	24.453433	0.17956	-0.708887	-1.176482	4.318188	3.964454	7.457346	17.454723	-44.604316	-38.300407	-0.468305	0.150098	-0.096063	6.290936	0.507557	-1.177441	-5.041354	-10.149059	-9.986935	-0.831933	0.362552	0.355395
0.211618	8.78921	20.402508	-181.382165	-298.06268	3.140786	0.029688	-0.630923	-1.191986	3.929029	4.709636	7.920421	12.863718	-47.602768	-23.951137	-0.480313	0.13809	-0.084055	6.745356	0.506384	-1.225523	-6.336609	-8.424113	-9.605694	-0.86487	0.365168	0.357121
-1.960003	8.567314	23.71063	-176.331773	-303.76314	-13.379178	-0.100218	-0.59744	-1.329299	4.10287	4.365066	8.101291	11.724382	-52.132782	-7.540507	-0.468305	0.13809	-0.096063	6.622004	0.736094	-1.683461	-8.739775	-5.874209	-5.854508	-0.831033	0.367305	0.338305
-5.310194	8.284715	25.434753	-161.551557	-321.163733	-25.75196	-0.181422	-0.480498	-1.288539	4.338281	4.879001	8.694725	8.09451	-56.881131	6.780891	-0.480313	0.13809	-0.090059	7.082749	-0.190369	-1.507381	-12.801866	-3.622637	0.096745	-0.82838	0.3493	0.347553
-9.692426	7.016393	27.135927	-147.582875	-342.889042	-35.196508	-0.277246	-0.467113	-1.350112	5.137714	3.959429	9.006563	5.502219	-61.460143	16.531387	-0.480313	0.144094	-0.078051	6.626759	-0.537101	-1.57506	-17.878797	-1.524004	3.109844	-0.830606	0.35355	0.360019
-15.792477	3.188958	25.964883	-135.508143	-353.539303	-40.596264	-0.392008	-0.410374	-1.271714	5.999527	4.356498	9.848155	2.44806	-68.686852	21.493445	-0.480313	0.144094	-0.072047	7.479555	-0.423277	-1.614733	-22.463494	0.513472	6.524564	-0.834159	0.366801	0.367861
-21.466533	4.567342	17.590999	-149.828702	-306.346883	-36.452506	-0.452984	-0.378063	-1.296075	5.724025	4.528517	10.255418	0.743375	-74.964592	26.250801	-0.49232	0.150098	-0.066043	7.481125	-0.075373	-1.498971	-22.370759	0.783348	11.13697	-0.849728	0.372862	0.351634
-33.067341	10.22957	25.926829	-177.211225	-251.559255	-12.252	-0.563518	-0.266166	-1.220991	5.509154	4.413598	10.841276	0.621484	-85.614092	30.670101	-0.486317	0.156102	-0.072047	8.005787	-0.536939	-0.920016	-25.936936	1.309217	16.09068	-0.832405	0.344043	0.394198
-39.404579	8.88341	18.688957	-106.889629	-226.16208	36.413035	-0.622822	-0.255619	-1.189768	6.011011	3.78266	10.380171	-0.15372	-96.400037	37.575637	-0.49232	0.162106	-0.060039	8.808294	-0.942755	-0.67772	-28.670912	0.417283	16.096664	-0.86885	0.392175	0.343249
-42.796451	8.915727	6.71639	-99.001653	-178.264941	66.711453	-0.660916	-0.229795	-1.086011	5.676198	4.527875	10.726333	-2.437979	-108.523048	47.415263	-0.49232	0.150098	-0.072047	9.203143	0.96703	-0.661162	-22.086903	-2.302656	10.781887	-0.851054	0.381865	0.34701
-45.668235	14.019502	3.897573	-126.115191	-100.307455	76.093065	-0.716254	-0.123941	-1.11479	5.743606	5.614941	11.492493	-3.541135	-123.358118	61.670076	-0.49232	0.168109	-0.060039	9.658803	0.908223	-0.652415	-9.784726	-4.696251	6.835874	-0.901788	0.394791	0.344975
-44.481331	19.937151	3.299866	-87.903546	-39.481874	67.656923	-0.699917	-0.143183	-1.076368	6.542315	5.669137	11.920606	-8.964331	-141.182163	82.311296	-0.510332	0.168109	-0.036023	10.761225	0.795001	0.396117	-0.966156	-2.738761	4.115888	-0.863544	0.356165	0.361745
-40.534004	22.195718	2.863848	-19.842003	-3.598396	37.069035	-0.690553	-0.093657	-0.988881	6.669481	5.667476	12.689781	-13.657698	-161.230704	98.611385	-0.528344	0.168109	-0.036023	11.050902	0.563898	0.629066	3.552371	-2.066584	5.959651	-0.822569	0.387747	0.370216
-36.967413	18.071797	3.156051	36.402085	31.057843	-23.231236	-0.689788	-0.054633	-1.02741	7.529546	4.460967	13.180214	-14.52118	-184.605237	109.524893	-0.528344	0.174113	-0.018012	10.549367	-0.996441	1.011477	1.490289	-0.877857	8.795901	-0.855507	0.390363	0.371942
-30.405403	12.959514	4.025645	59.344775	67.238006	-101.175323	-0.710736	-0.11006	-1.043255	7.335087	4.057759	14.828583	-14.999059	-207.413617	115.366239	-0.534348	0.204133	0	10.440213	-1.110955	1.237067	-2.905829	-0.630367	13.231737	-0.854607	0.395116	0.354852
-23.492534	10.576021	5.371183	49.787861	110.688247	-185.781725	-0.69299	-0.110916	-1.005937	7.936248	3.651759	16.728165	-12.417943	-236.328478	114.346089	-0.564367	0.198129	0	9.959673	-1.579262	-0.087165	-8.710075	-3.025887	17.017806	-0.875955	0.418678	0.358934
-23.800541	12.980562	39.236797	183.341592	10.377715	-227.662873	-0.701327	-0.161568	-1.075263	9.237184	2.210725	19.645618	-9.014051	-270.593341	101.65433	-0.558363	0.210137	0.024016	9.640475	-0.659974	-1.744263	-17.431433	-6.733647	22.133602	-0.858159	0.408368	0.362695
1.428919	-18.924249	57.346169	196.253793	197.91173	-139.961852	-0.688071	-0.177431	-1.09132	8.387225	3.296628	22.753311	-3.531003	-309.118642	83.826385	-0.570371	0.216141	0.054035	10.888382	5.244533	-1.35012	-16.809058	-10.961665	12.264975	-0.855034	0.408872	0.333139
17.145884	14.31784	9.657238	483.363443	408.484744	-146.621006	-0.65048	-0.28243	-1.099859	8.926804	4.948116	27.774075	-0.626455	-358.636656	77.02705	-0.570371	0.228148	0.054035	15.645709	7.790944	0.581874	-7.295338	-17.273821	7.783173	-0.887972	0.411488	0.334865
-15.33301	25.952506	6.842442	141.385407	428.443287	-78.739047	-0.625379	-0.332541	-1.130869	8.541132	4.136288	34.314735	31.372789	-419.485802	56.707893	-0.600391	0.24616	0.102066	18.485621	6.580586	3.02941	-0.373953	-30.450233	21.765968	-0.857306	0.380857	0.406122
-14.648767	-0.686346	8.178429	63.472237	296.89831	21.205689	-0.551792	-0.360077	-1.15999	4.78293	1.114489	32.242391	38.597704	-470.682299	22.054677	-0.606395	0.24616	0.120078	16.637254	5.838521	4.473223	-14.613803	-40.178061	33.444197	-0.871503	0.41018	0.334002
-17.615712	-2.691862	17.592296	-106.688479	188.210939	28.154607	-0.537892	-0.396578	-1.138623	13.256481	-6.924268	27.818673	60.374172	-486.92409	-22.95146	-0.600391	0.270176	0.162106	11.811892	6.069936	2.26726	-4.276846	-43.698648	27.342803	-0.839464	0.402811	0.349366
-18.394587	-2.31002	7.233001	-32.62556	19.589169	-62.423559	-0.473594	-0.312944	-1.21169	14.581717	4.300754	27.942856	63.356817	-505.945689	-19.705412	-0.612399	0.258168	0.210137	9.622594	2.664269	3.463854	-8.032975	-28.847755	23.033262	-0.907993	0.426047	0.34357
5.211492	-1.002435	5.857049	145.460616	68.851419	-95.975455	-0.52208	-0.33552	-1.213579	10.209464	0.54063	23.087958	85.476021	-472.091596	-20.686613	-0.594387	0.228148	0.24616	9.097874	0.287597	2.586558	4.404605	-21.430821	35.466529	-0.84169	0.40706	0.361832
-4.776643	0.516217	5.60399	-19.621252	47.816921	46.694622	-0.479615	-0.405999	-1.188007	5.989023	0.890231	27.134775	132.524906	-439.302773	-118.077169	-0.606395	0.24616	0.27618	9.63683	-1.979648	0.817712	16.606354	-19.96994	29.810184	-0.859486	0.41737	0.358071
-2.492432	1.107246	10.909964	26.621409	1.568365	-18.373533	-0.463541	-0.385091	-1.206273	2.423299	-3.618299	23.004411	255.886324	-405.374907	-103.954826	-0.600391	0.216141	0.288188	12.587028	0.097129	0.543187	10.405361	-12.58127	16.118812	-0.831	0.423253	0.381277
0.140049	0.690367	7.667264	14.403593	7.799363	9.889548	-0.510234	-0.369768	-1.228532	-15.344034	-15.002868	10.532732	117.419592	-418.486063	-3.912865	-0.612399	0.222145	0.312203	16.877949	2.744358	-0.957707	4.153953	-9.205078	8.452809	-0.875055	0.423431	0.341844
-1.731855	3.836625	11.798612	-1.564048	0.513741	-5.401585	-0.430747	-0.363912	-1.205382	-4.38001	-0.873235	3.759708	-120.796957	-254.434454	-32.823075	-0.582379	0.204133	0.354231	18.272909	3.545754	-2.296082	7.59504	-8.390739	6.005698	-0.831	0.423253	0.381277
-1.274136	0.752316	8.679495	1.400815	10.895447	-9.354405	-0.479233	-0.386487	-1.207271	-16.438062	2.346816	18.326177	-28.256105	-46.845607	31.672061	-0.576375	0.222145	0.378246	15.769224	2.624417	-2.349843	11.380924	-9.849453	8.35368	-0.865264	0.434871	0.378379
-1.84605	2.037273	11.73418	-13.616724	13.002286	-10.377689	-0.478206	-0.387613	-1.189111	-11.634579	-2.197562	20.726481	112.209334	167.771882	-7.440086	-0.582379	0.210137	0.366238	13.330015	2.457723	-1.942323	8.927913	-12.835882	7.247551	-0.877281	0.427681	0.35431
-1.889404	0.754884	9.476329	0.530453	22.076506	-7.835536	-0.460722	-0.348319	-1.208482	-7.285619	-9.93251	13.274009	167.164686	230.863576	-9.468915	-0.564367	0.210137	0.324211	12.998389	1.939441	-1.494709	6.550218	-8.861434	3.808922	-0.84567	0.434067	0.34796
-1.329308	0.585565	11.683158	-15.990973	30.303868	-7.593849	-0.463923	-0.404603	-1.187009	-5.580639	-14.161633	3.936353	101.293415	210.134056	13.319122	-0.576375	0.216141	0.294191	12.444166	1.654514	-0.765088	4.71949	-2.284232	-1.124668	-0.831854	0.450764	0.33785
-2.037256	1.628766	10.746921	8.84907	41.697088	-8.602598	-0.447849	-0.383694	-1.205275	-3.625126	-12.389909	3.027236	-33.487613	192.114258	37.112512	-0.55236	0.198129	0.264172	11.755102	1.712461	-1.063801	3.721119	3.300089	-6.61199	-0.880834	0.440932	0.362152
-2.281977	0.756392	9.930847	-14.403692	43.61985	-7.084719	-0.483079	-0.422132	-1.223222	-3.926222	-6.555344	9.086293	-101.617294	198.281686	25.77329	-0.558363	0.216141	0.252164	11.322433	0.965712	0.008523	3.19198	5.835501	-8.600546	-0.897303	0.44224	0.363015
-3.013973	0.410536	10.608927	-8.463163	47.016408	-1.127488	-0.448493	-0.363056	-1.2427	-4.96941	-2.259234	11.41804	-76.212263	239.538642	-22.62997	-0.564367	0.204133	0.204133	10.305781	1.317241	0.446565	1.653327	6.346217	-9.201798	-0.829201	0.432759	0.347097
-1.884969	2.090565	9.768617	-6.03216	48.871912	5.002825	-0.429338	-0.345526	-1.206486	-5.341275	-1.109622	9.816485	-41.155089	304.146288	-76.866894	-0.55236	0.198129	0.168109	9.328167	1.606554	-0.028004	-0.928457	5.923654	-9.725841	-0.864792	0.45338	0.339576
-2.280834	0.756531	9.988661	10.882845	46.520309	15.994914	-0.433828	-0.360533	-1.259862	-5.607836	-0.646947	7.68732	-36.354796	356.681049	-110.509332	-0.540352	0.186121	0.144094	8.705624	1.377008	0.129832	-2.77488	6.690571	-9.264177	-0.845197	0.452576	0.309157
-2.166392	1.104676	9.991786	7.146218	47.1565	21.947126	-0.430747	-0.363912	-1.205382	-5.2282	-0.016603	6.926808	-68.232371	382.748963	-119.122365	-0.516336	0.180117	0.10807	7.623031	1.147321	0.05029	-4.962369	8.706321	-8.588622	-0.815812	0.463212	0.315273
-2.347058	1.626249	9.584911	12.685698	49.47437	24.141675	-0.430747	-0.363912	-1.205382	-4.957292	2.441417	9.758797	-97.095444	389.800858	-115.29818	-0.480313	0.174113	0.060039	7.046272	1.436364	-0.302211	-5.98017	10.126177	-8.076476	-0.83318	0.459767	0.333226
-2.986861	0.987274	9.108283	5.561343	49.216463	25.370119	-0.385725	-0.35747	-1.238708	-4.718536	4.386952	10.762695	-102.984359	386.484556	-107.345717	-0.474309	0.174113	0.018012	6.240613	1.725598	-0.71631	-6.32238	11.7298	-9.063674	-0.862612	0.416866	0.387627
-3.309082	0.583964	10.198928	14.164531	49.00353	31.116584	-0.40039	-0.359992	-1.221546	-4.440391	4.787451	10.590418	-104.270814	375.633885	-92.992393	-0.41427	0.180117	-0.006004	6.020724	1.727893	-0.32117	-5.868604	14.781914	-9.957848	-0.81941	0.444199	0.383633
