1757_acc_x	1757_acc_y	1757_acc_z	1757_gyro_x	1757_gyro_y	1757_gyro_z	1757_mag_x	1757_mag_y	1757_mag_z	1758_acc_x	1758_acc_y	1758_acc_z	1758_gyro_x	1758_gyro_y	1758_gyro_z	1758_mag_x	1758_mag_y	1758_mag_z	1759_acc_x	1759_acc_y	1759_acc_z	1759_gyro_x	1759_gyro_y	1759_gyro_z	1759_mag_x	1759_mag_y	1759_mag_z
-1.728813	1.643907	9.194631	-0.100861	0.183566	0.033941	0.078633	0.107193	-1.288964	1.050126	0.720571	10.266626	-0.550886	0.363674	-0.418144	-0.328078	-0.015911	-1.088046	9.32165	2.8533	0.607342	-1.951143	0.424593	-0.320963	-0.492627	-0.37927	-0.426625
-1.843695	2.160963	9.194575	-0.285546	0.153714	-0.119352	0.086337	-0.285379	-0.703602	0.760336	1.115377	10.204274	-0.735863	0.363335	-0.726577	-0.262903	-0.014464	-1.103775	9.43337	3.20025	0.311492	-1.953766	0.305387	-0.626012	-0.449329	-0.47152	0.10488
-1.660838	2.220693	9.766688	-0.316467	0.09176	-0.089602	0.086709	-0.28185	-0.717678	0.756686	0.495551	9.977194	-0.584158	0.179091	-0.389178	-0.314141	0.0027	-1.132375	9.369682	3.315548	0.071258	-1.829967	0.429134	-0.718739	-0.491888	-0.536903	0.108018
-1.730175	1.988315	9.139225	-0.530098	0.213338	-0.056343	0.072245	-0.319603	-0.668269	1.212936	0.83253	9.817231	-0.304279	0.306687	-0.60348	-0.274698	-0.010251	-1.160898	9.135683	3.374659	0.186917	-1.457393	0.736045	-0.690991	-0.463583	-0.504936	0.122012
-1.83792	1.874962	9.477634	-0.71415	0.244254	-0.147315	0.114593	-0.303427	-0.686809	1.099684	1.114493	9.928329	-0.273812	0.304865	-0.264365	-0.28819	0.00285	-1.132926	9.663797	3.25655	0.016606	-1.241834	0.830482	-0.875598	-0.505725	-0.537933	0.123475
-1.956184	2.448736	9.307261	-0.71355	0.242516	0.005995	0.086737	-0.316449	-0.682695	0.762646	1.171802	10.3176	0.397051	-0.333695	0.223074	-0.262533	0.001928	-1.119128	9.192364	3.432105	0.068451	-0.959588	1.070838	-0.358201	-0.518936	-0.490386	0.136422
-1.377948	2.277204	9.601938	-0.469075	0.151813	-0.026851	0.08598	-0.306206	-0.672034	1.549112	1.225865	9.428339	-0.150158	0.306836	-0.325902	-0.274988	0.048886	-1.136213	9.487579	3.373354	0.073706	-0.64553	1.371539	0.250484	-0.477145	-0.471928	0.10474
-1.435036	2.047479	9.599859	-0.43894	0.09084	-0.058597	0.058111	-0.301929	-0.685412	0.813281	1.002418	9.978829	0.093644	0.063445	-0.143158	-0.300945	-0.011473	-1.145997	9.317248	2.852311	0.367714	-0.43297	1.192245	-0.085622	-0.464005	-0.518649	0.076265
-1.436523	2.564212	9.545178	-0.346155	0.088835	0.155779	0.087466	-0.292093	-0.728338	1.617796	1.733206	9.996371	-4.113843	-0.478489	-0.460213	-0.288635	-0.028863	-1.116569	9.481922	2.965339	-0.287466	-0.559076	1.010785	-0.328802	-0.491053	-0.472133	0.104669
-1.846046	2.332805	9.081593	-0.37914	-0.123649	-0.092923	0.085594	-0.292435	-0.67545	0.751851	0.495361	9.750635	3.770959	0.286832	0.971834	-0.300795	0.019167	-1.148004	9.42221	2.790998	-0.349215	-0.588659	0.977247	-0.05347	-0.476794	-0.457389	0.134958
-2.009932	2.219736	9.475742	-0.010369	-0.062207	0.060354	0.058882	-0.329471	-0.67858	1.267976	0.888658	9.705208	0.090601	-0.210125	-0.515817	-0.3005	0.020239	-1.162354	9.240915	3.197194	-0.530506	-0.834915	1.006635	-0.022155	-0.519144	-0.506578	0.137259
-1.268882	2.10359	9.319175	-0.283373	0.397831	0.037949	0.030627	-0.311422	-0.695374	1.039008	0.213123	9.699803	0.7423	0.013768	-0.667207	-0.288554	0.046668	-1.107238	9.314372	3.142197	0.249137	-1.174395	0.943921	0.009937	-0.505516	-0.52174	0.122638
-1.665043	1.875079	9.537828	-0.49851	0.398567	-0.11476	0.099329	-0.279039	-0.679215	1.106398	1.39643	10.268404	-0.773462	-0.158763	-0.670142	-0.28819	0.00285	-1.132926	9.068539	3.082436	-0.294675	-1.079619	1.126215	0.161538	-0.449676	-0.504731	0.122082
-1.668549	2.104121	9.368234	-0.683305	0.275129	-0.146902	0.044004	-0.318853	-0.667571	0.860745	1.227253	9.527111	2.195214	0.122776	-0.449158	-0.274473	0.03571	-1.163909	9.011028	2.90859	-0.23661	-1.296793	0.848556	0.316464	-0.491191	-0.489151	0.121034
-1.891917	1.99061	9.647563	-0.83578	0.585209	-0.448103	0.085966	-0.288907	-0.689526	0.582481	1.284502	9.974231	0.740233	-0.168813	-0.884821	-0.275289	-0.012395	-1.132198	9.607252	3.141027	0.134825	-1.631764	0.99461	0.867115	-0.50524	-0.487703	0.089908
-1.437263	2.046996	9.486153	-0.375545	0.648471	-0.417732	0.044376	-0.315325	-0.681647	0.810648	1.114984	9.865645	1.694555	-0.432043	-0.979154	-0.262608	-0.013392	-1.118124	9.434876	3.026269	0.370657	-1.69548	0.905141	0.623268	-0.476936	-0.455736	0.103903
-1.385618	2.10319	9.203242	-0.589722	0.646426	-0.325145	0.100101	-0.306581	-0.672384	1.278963	0.832754	10.214917	1.878672	-0.522089	-0.918245	-0.301536	-0.013617	-1.117297	9.545745	2.791964	-0.04748	-1.910903	0.934639	0.65447	-0.476794	-0.457389	0.134958
-1.611088	1.816872	9.368141	-0.559663	0.554374	-0.326727	0.114578	-0.286128	-0.704301	0.812396	0.833379	9.922048	2.05916	-0.946029	-1.384736	-0.313846	0.003772	-1.146724	9.304468	3.139972	-0.290026	-2.220574	0.656648	0.809734	-0.463513	-0.505762	0.13754
-1.895216	1.932445	9.476762	-0.560417	0.493953	-0.419711	0.085223	-0.295963	-0.661374	1.161546	1.396227	10.156334	2.334008	-1.216877	-1.633832	-0.287894	0.003922	-1.147276	9.299952	3.661914	-0.467521	-1.791343	0.41443	0.717646	-0.491474	-0.485846	0.058923
-1.951232	1.760403	9.531778	-0.62132	0.555131	-0.418542	0.086352	-0.302678	-0.68611	1.039701	1.114506	9.813841	3.352175	-1.354048	-2.127624	-0.314732	0.000556	-1.103675	9.185086	3.721002	-0.289754	-2.070362	0.19899	0.750248	-0.477212	-0.489773	0.136632
-1.847076	2.217681	9.024257	-0.193239	0.497409	-0.574052	0.059254	-0.325942	-0.692656	1.097051	1.227059	9.815145	2.697286	-1.852319	-2.22559	-0.288485	0.001778	-1.118576	9.133888	3.199936	0.066362	-2.039755	0.106387	0.842268	-0.504961	-0.472337	0.104599
-1.778687	2.220052	9.593902	-0.407416	0.495364	-0.481465	0.086352	-0.302678	-0.68611	0.808446	1.002228	9.752271	3.098124	-1.937207	-2.534391	-0.262979	-0.029784	-1.102771	9.371458	3.025415	0.129929	-2.348023	0.198307	0.720694	-0.463583	-0.504936	0.122012
-1.549587	2.105003	9.597873	-0.224707	0.311832	-0.484973	0.072603	-0.298775	-0.699837	0.934349	1.05877	10.264493	3.526462	-2.325739	-3.246952	-0.275439	-0.043036	-1.130191	9.316978	2.968463	0.368209	-1.975618	0.164005	1.208519	-0.490982	-0.472959	0.120197
-1.609151	2.219445	9.483536	-0.163084	0.248568	-0.302171	0.029884	-0.318479	-0.667222	0.761521	0.495741	10.203752	3.868787	-2.13663	-3.368107	-0.327633	0.015802	-1.104403	9.373389	3.142062	0.250237	-1.944951	0.164431	1.177842	-0.491328	-0.50617	0.137399
-2.181446	1.875211	9.470953	-0.069753	0.370187	-0.147123	0.100458	-0.285753	-0.703951	0.697373	0.777264	9.919582	3.962751	-2.100159	-4.07671	-0.301241	-0.012545	-1.131647	9.255491	3.084256	0.247789	-1.731547	0.262965	0.5959	-0.449467	-0.488539	0.121245
-1.60218	1.818802	9.822966	-0.285546	0.153714	-0.119352	0.072231	-0.302303	-0.685761	1.277216	1.114359	10.158514	3.778281	-2.126535	-5.094438	-0.314066	0.018021	-1.133378	9.017516	3.433005	0.184964	-1.856597	0.172644	0.413406	-0.519286	-0.504926	0.106203
-1.896246	1.817321	9.419426	-0.224173	0.18508	-0.149687	0.070745	-0.316417	-0.629457	1.492517	0.718998	9.426703	4.828816	-2.169708	-5.833889	-0.288635	-0.028863	-1.116569	9.426632	3.256843	-0.047703	-1.455845	0.143181	0.442658	-0.449467	-0.488539	0.121245
-2.067968	1.760003	9.415845	0.296811	0.125006	-0.060159	0.058111	-0.301929	-0.685412	0.923577	1.002013	9.754689	4.700756	-2.595559	-6.608919	-0.30065	-0.010402	-1.160346	9.483292	2.849434	-0.228053	-1.613086	-0.162007	0.322433	-0.50524	-0.487703	0.089908
-1.946737	1.703927	9.758949	-0.01062	0.032422	-0.152783	0.071831	-0.271233	-0.706669	1.380797	0.832017	9.594299	5.441185	-2.705995	-7.041009	-0.314657	0.015877	-1.104679	9.309545	2.850581	-0.051634	-1.800223	-0.220699	0.017761	-0.4777	-0.521332	0.122779
-1.668715	2.333887	9.369199	-0.071829	-0.030718	-0.030961	0.071445	-0.257462	-0.710085	0.87415	1.171444	10.150099	4.24401	-2.223189	-8.177793	-0.315102	-0.015836	-1.088322	9.428563	3.373489	0.072606	-2.234657	-0.403266	-0.224297	-0.505236	-0.506374	0.137329
-1.668466	1.989238	9.367751	0.051626	0.123861	-0.059472	0.059254	-0.325942	-0.692656	1.439594	1.45164	9.709309	3.661671	-1.834201	-7.83529	-0.301611	-0.028938	-1.116293	9.429664	3.373736	0.132513	-2.79646	-0.67174	-1.076737	-0.463934	-0.519476	0.091793
-1.383225	1.873907	9.315983	-0.225026	-0.062861	0.030294	0.114621	-0.338026	-0.651825	0.694786	2.129197	9.92072	3.048136	-1.24665	-5.086277	-0.327413	0.001553	-1.117749	9.199601	2.213498	0.302887	-2.801178	-0.693818	-1.901802	-0.505307	-0.505548	0.121801
-1.833632	2.105693	9.706012	-0.317494	-0.030472	-0.152922	0.030255	-0.314951	-0.681298	1.138709	1.958679	9.137295	0.007463	0.411055	-1.896969	-0.301165	0.002775	-1.13265	9.60148	3.255943	-0.164215	-3.050085	-0.659388	-2.359501	-0.477491	-0.50514	0.121942
-1.662733	1.760678	9.651051	-0.378243	0.092864	-0.212078	0.11535	-0.31367	-0.697469	1.439702	1.395309	9.709261	-3.615377	2.315669	-0.092919	-0.301241	-0.012545	-1.131647	9.365415	3.256483	-0.168617	-3.236061	-0.720286	-2.450223	-0.463308	-0.470898	0.089282
-1.720112	1.933044	9.650662	-0.593557	-0.124999	-0.061659	0.085966	-0.288907	-0.689526	0.975876	1.227037	9.529529	-4.717292	3.128291	0.099244	-0.313921	-0.011548	-1.145721	9.433215	2.793471	0.249854	-2.524224	-0.505501	-2.270453	-0.532847	-0.471919	0.088931
-1.835569	1.70312	9.590617	-0.562405	0.030194	-0.181899	0.072231	-0.302303	-0.685761	0.919196	1.396184	9.585102	-4.926303	3.736015	0.536712	-0.301241	-0.012545	-1.131647	9.718817	3.081198	-0.222663	-1.812507	-0.476775	-1.845294	-0.505866	-0.53628	0.09242
-1.780956	2.277011	9.480437	-0.561959	-0.033703	0.031737	0.086737	-0.316449	-0.682695	0.874042	1.227775	10.150147	-5.32782	3.702872	0.135294	-0.313626	-0.010477	-1.160071	9.548101	3.199238	0.133972	-1.626757	-0.50859	-1.66244	-0.490986	-0.454288	0.072777
-1.833756	2.278018	9.706736	-0.348262	-0.030268	-0.183498	0.115722	-0.310141	-0.711545	1.103311	1.114635	10.098248	-5.821592	3.72807	0.011835	-0.327413	0.001553	-1.117749	9.437212	2.968688	0.490223	-1.504223	-0.289293	-2.122367	-0.50524	-0.487703	0.089908
-1.890886	2.105735	9.704898	-0.563302	-0.186319	-0.062743	0.087852	-0.305864	-0.724922	0.989627	1.62192	10.209536	-5.7039	3.240821	-0.270368	-0.287599	0.004994	-1.161626	9.314642	3.026045	0.248642	-1.687231	-0.293741	-1.754934	-0.505587	-0.520914	0.10711
-1.491011	1.817996	9.654633	-0.470047	-0.09578	0.122468	0.072603	-0.298775	-0.699837	0.813389	0.946088	9.978782	-5.15411	2.728192	-0.521648	-0.301605	0.031272	-1.105958	9.552503	3.200227	0.373599	-2.27334	-0.140063	-2.028606	-0.449955	-0.520098	0.107391
-1.550783	2.219645	9.541503	-0.195864	-0.371427	0.147866	0.115336	-0.29637	-0.714961	0.93381	1.340423	10.26473	-4.389614	2.15295	-0.156816	-0.287674	-0.010326	-1.160622	9.251765	2.792887	0.006925	-2.178097	0.165533	-1.969285	-0.464213	-0.534842	0.077103
-1.43718	1.932113	9.48567	-0.25632	-0.374147	0.362671	0.086352	-0.302678	-0.68611	0.768043	1.510022	10.601083	-3.284384	1.643952	0.116465	-0.28834	-0.027791	-1.130919	9.249584	3.257248	-0.051004	-2.362581	0.101798	-1.784938	-0.519495	-0.521118	0.10704
-1.617028	2.33264	9.086047	0.020103	-0.280664	0.363395	0.100086	-0.289281	-0.689875	0.290357	1.003198	9.741391	-2.674056	1.068357	0.234545	-0.301096	-0.042114	-1.143989	9.611519	3.200092	0.3747	-2.17258	0.310285	-1.175371	-0.450306	-0.534638	0.077173
-1.438667	2.448846	9.430989	0.111327	-0.278148	0.179166	0.044376	-0.315325	-0.681647	1.04389	1.452679	10.040684	-2.121387	0.799832	0.170663	-0.275729	0.016102	-1.105506	9.604781	3.256685	0.015506	-1.585446	0.030467	-0.534346	-0.46421	-0.553513	0.124523
-1.893978	1.760362	9.532891	0.296394	-0.092899	0.181644	0.070702	-0.264518	-0.681933	1.379611	1.451652	9.594821	-1.538214	0.501034	0.106505	-0.301466	-0.058507	-1.128636	9.140895	3.027192	0.425061	-1.428795	0.026293	-0.076451	-0.450026	-0.519271	0.091864
-2.124358	2.104935	9.473032	0.143634	-0.095005	0.304721	0.072231	-0.302303	-0.685761	1.04091	1.114553	9.870481	-0.83205	0.172131	0.196287	-0.301241	-0.012545	-1.131647	9.19551	3.026068	0.186534	-0.841207	-0.068097	0.380315	-0.47805	-0.535872	0.09256
-2.003044	1.933975	9.815654	0.174622	0.091963	0.092995	0.072617	-0.316074	-0.682345	1.158889	0.88911	9.985988	-0.188224	-0.24633	-0.208121	-0.327268	-0.028016	-1.130092	9.011028	2.90859	-0.23661	-0.810072	0.055632	0.25736	-0.491399	-0.505344	0.121871
-1.662034	2.335335	9.710318	-0.252626	0.585494	-0.235101	0.072231	-0.302303	-0.685761	0.928628	0.889541	9.981152	0.211295	-0.395364	-0.085969	-0.288114	0.018171	-1.13393	9.843047	3.256639	0.139721	-0.715313	-0.041477	0.807614	-0.505032	-0.47151	0.089071
-1.89505	1.702679	9.475797	0.113635	0.560303	-0.573913	0.08598	-0.306206	-0.672034	0.927766	1.340186	9.981532	0.703962	-0.540808	-0.333644	-0.262909	-0.074674	-1.11411	9.783605	2.966147	0.077478	-0.501486	0.025206	0.348076	-0.463583	-0.504936	0.122012
-1.835734	1.932886	9.591582	-0.07069	0.529408	-0.635221	0.058082	-0.26733	-0.720396	0.975552	1.396029	9.529671	0.550194	-0.48184	-0.271525	-0.314437	0.001628	-1.118025	9.311476	2.967227	0.068674	-0.595628	-0.034099	0.13476	-0.449813	-0.52175	0.138447
-1.48866	1.646153	9.767615	0.085323	0.772501	-0.325039	0.07186	-0.305832	-0.671685	1.156818	1.339707	9.929728	0.487861	-0.514094	-0.148584	-0.27625	-0.030931	-1.088145	9.244602	2.558852	-0.413412	-0.256148	0.028615	0.102668	-0.491399	-0.505344	0.121871
-2.06933	2.104411	9.360439	-0.252866	0.586189	-0.296425	0.058896	-0.34677	-0.661089	0.976738	0.776393	9.52915	0.181571	-0.303761	-0.085082	-0.314072	-0.042189	-1.143714	9.36553	2.733552	-0.230749	-0.252996	0.364154	0.192744	-0.505866	-0.53628	0.09242
-1.777118	1.588437	9.648101	-0.313692	0.678446	-0.325419	0.086737	-0.316449	-0.682695	0.986085	0.945764	9.982409	-0.21865	-0.187002	0.039069	-0.301015	0.033416	-1.134658	9.369682	3.315548	0.071258	0.146749	0.398707	-0.053372	-0.492025	-0.553921	0.124383
-1.774399	2.450783	9.822279	-0.039486	0.55924	-0.542822	0.086723	-0.29915	-0.700186	0.867112	1.058499	9.810167	-0.524902	0.023531	0.071744	-0.302057	-0.06065	-1.099936	9.253	2.735058	0.066585	0.023885	0.521567	-0.145202	-0.491194	-0.47048	0.073614
-1.898639	2.046604	9.306686	-0.099712	0.649759	-0.418505	0.058125	-0.319228	-0.66792	0.872618	1.340388	10.093602	-0.738783	0.204978	0.042548	-0.327413	0.001553	-1.117749	9.546731	3.315143	0.074559	-0.040963	0.310056	-0.419023	-0.505378	-0.504722	0.106273
-1.835817	2.047769	9.592064	0.114168	0.433552	-0.238627	0.085609	-0.309734	-0.657959	1.103203	1.170966	10.098295	-0.646959	0.11577	-0.20489	-0.275364	-0.027716	-1.131195	9.614955	3.142758	0.554173	-0.162108	0.522793	-0.327911	-0.505795	-0.537107	0.107948
-1.609109	2.162004	9.483295	-0.129663	0.491089	0.008354	0.085594	-0.292435	-0.67545	1.389906	0.494366	9.990492	-0.616182	0.115558	-0.112383	-0.301611	-0.028938	-1.116293	9.6587	3.081086	-0.28367	-0.069504	0.429781	-0.174988	-0.505236	-0.506374	0.137329
-1.551772	2.047079	9.483926	0.083301	0.246236	0.003762	0.043633	-0.322382	-0.653495	0.922368	1.001965	9.698049	-0.219314	-0.276381	-0.362585	-0.288635	-0.028863	-1.116569	9.19661	3.026315	0.246441	-0.192987	0.367528	-0.113118	-0.490915	-0.455114	0.088305
-1.307373	2.337499	10.285529	0.205959	0.371822	-0.178558	0.071474	-0.292061	-0.675101	1.26843	1.283019	9.762179	0.209422	-0.576939	-0.457713	-0.301686	-0.044258	-1.11529	9.727756	3.0251	0.256345	-0.441536	0.277079	-0.325726	-0.491888	-0.536903	0.108018
-1.671765	1.931073	9.196951	0.052413	0.246789	-0.057476	0.058511	-0.332999	-0.664504	0.987294	0.945812	10.039048	0.302572	-0.544696	-0.518974	-0.300795	0.019167	-1.148004	9.312172	3.141702	0.129323	-0.629006	0.219017	-0.691523	-0.505378	-0.504722	0.106273
-1.43644	2.449328	9.544695	0.080911	0.159256	-0.457665	0.072974	-0.295247	-0.713913	1.157034	1.227046	9.929633	0.454081	-0.758599	-0.33601	-0.340169	-0.01277	-1.13082	9.54559	2.385185	-0.109117	-1.061106	-0.030088	-0.413705	-0.477283	-0.488947	0.121105
-1.662117	2.450218	9.7108	-0.345989	0.401369	-0.299161	0.085609	-0.309734	-0.657959	0.930722	1.058628	10.094574	0.455912	-0.63453	-0.550572	-0.301906	-0.030009	-1.101944	9.189737	3.140984	-0.112506	-1.277722	-0.215662	-0.289784	-0.44912	-0.455328	0.104043
-1.833507	1.933369	9.705288	-0.347628	0.030501	-0.121176	0.056953	-0.260616	-0.695659	1.218226	1.227081	10.100761	0.208253	-0.668934	-0.458629	-0.27581	-0.059428	-1.114838	9.010778	3.489598	-0.174231	-1.401836	-0.059375	-0.656833	-0.505236	-0.506374	0.137329
-1.55532	2.333563	9.314573	-0.194092	0.249468	-0.394071	0.141319	-0.283691	-0.666187	1.388481	0.606979	9.933947	0.396034	-0.48219	-0.518277	-0.301686	-0.044258	-1.11529	9.365145	3.372635	-0.168122	-1.434268	-0.304832	-0.594419	-0.449676	-0.504731	0.122082
-1.382402	2.276239	9.374525	-0.317907	0.095932	-0.457546	0.058482	-0.2984	-0.699488	0.583797	1.228219	10.030823	0.240745	-0.545681	-0.488205	-0.288415	-0.043111	-1.129915	9.011319	3.257293	-0.175219	-1.342086	-0.365993	-0.563898	-0.505032	-0.47151	0.089071
-1.779759	2.162369	9.536807	-0.408542	0.185612	-0.271819	0.086709	-0.28185	-0.717678	0.976522	0.889054	9.529244	0.056822	-0.454629	-0.703244	-0.314066	0.018021	-1.133378	9.485493	2.849928	-0.10824	-1.033048	-0.210992	-0.657445	-0.491821	-0.519058	0.076125
-1.49662	1.874231	9.370609	-0.408225	0.215996	-0.240659	0.057367	-0.308985	-0.65726	0.985654	1.171086	9.982598	-0.52701	-0.216555	-0.732175	-0.301316	-0.027866	-1.130643	9.18271	2.848873	-0.53309	-1.249317	-0.45932	-0.380412	-0.477283	-0.488947	0.121105
-1.611378	2.218963	9.36983	-0.223453	0.182994	0.034285	0.100458	-0.285753	-0.703951	1.15494	1.05796	9.816211	-0.617627	-0.063802	-0.823213	-0.276174	-0.015611	-1.089149	9.309971	3.141208	0.009509	-1.249422	-0.365976	-0.533671	-0.491958	-0.536076	0.09249
-1.669663	2.10388	9.311381	-0.37714	0.246176	-0.178922	0.073774	-0.357387	-0.672098	1.332795	0.888834	10.046254	-0.925594	0.023266	-0.668455	-0.275289	-0.012395	-1.132198	9.665168	3.140645	0.076018	-1.061228	-0.216146	-0.168314	-0.491537	-0.522363	0.138236
-1.671558	1.643865	9.195744	-0.438764	0.309439	-0.361724	0.044747	-0.311797	-0.695723	1.206353	1.113945	9.53427	-0.678324	0.027006	-0.760703	-0.313991	0.033341	-1.134382	9.251225	3.025191	0.007914	-1.369226	-0.217886	-0.106065	-0.491328	-0.50617	0.137399
-1.778604	2.105169	9.593419	-0.470078	0.186021	-0.332972	0.085966	-0.288907	-0.689526	1.153838	1.001582	9.759524	-0.369966	-0.000746	-0.60659	-0.288925	0.030275	-1.091884	9.366786	3.140578	-0.109204	-1.428239	-0.223151	0.383181	-0.505516	-0.52174	0.122638
-1.894185	2.047569	9.534098	-0.562273	0.280221	-0.545851	0.073003	-0.329845	-0.67893	0.98192	1.227275	9.812727	-0.215378	0.001818	-0.698925	-0.30109	0.018096	-1.133654	9.782795	3.314603	0.078961	-1.858739	-0.22691	0.598699	-0.477141	-0.4906	0.15216
-1.840561	2.448895	9.366341	-0.653727	0.184467	-0.271132	0.101587	-0.292467	-0.728687	1.100462	1.339862	9.985159	0.304052	-0.451091	-0.764666	-0.28856	-0.013542	-1.117573	9.192613	2.851098	0.006072	-1.582194	-0.410394	0.690262	-0.505307	-0.505548	0.121801
-1.20837	2.219155	9.491331	-0.71463	0.245645	-0.269963	0.113835	-0.293184	-0.676149	0.750988	0.946006	9.751015	0.396774	-0.449713	-0.795406	-0.288039	0.033491	-1.134933	9.250529	2.850716	-0.052735	-1.242052	-0.348941	0.780426	-0.491194	-0.47048	0.073614
-1.664095	2.105086	9.595646	-0.286223	0.124373	-0.242499	0.087123	-0.33022	-0.679279	1.272357	0.494486	9.874795	0.764188	-0.719989	-0.951938	-0.275214	0.002925	-1.133202	9.539433	3.139184	-0.345531	-1.457566	-0.288224	0.750354	-0.463583	-0.504936	0.122012
-1.606924	2.219928	9.597242	-0.256504	-0.154504	-0.032441	0.113107	-0.31754	-0.630505	0.992022	1.002332	10.265654	1.135032	-0.743334	-1.352636	-0.340093	0.00255	-1.131823	9.487559	2.908499	0.011821	-1.335336	-0.534071	0.9039	-0.491888	-0.536903	0.108018
-1.666281	2.047162	9.481699	-0.132568	-0.001316	0.061696	0.071474	-0.292061	-0.675101	0.727271	0.947441	11.335715	7.618032	1.45104	-0.801523	-0.301906	-0.030009	-1.101944	9.37696	3.026651	0.429463	-1.211507	-0.534573	0.995143	-0.491888	-0.536903	0.108018
-1.491384	2.334969	9.656805	-0.101844	0.029907	0.031447	0.086723	-0.29915	-0.700186	0.930876	2.241664	10.208849	-0.781038	-1.028727	-3.638283	-0.327413	0.001553	-1.117749	9.666809	2.908588	0.134936	-1.489968	-0.657929	0.99674	-0.463513	-0.505762	0.13754
-1.60247	2.220893	9.824655	-0.10168	-0.001868	0.122934	0.058482	-0.2984	-0.699488	0.98721	1.621825	10.096257	1.344775	-1.34725	-2.375796	-0.314657	0.015877	-1.104679	9.666403	3.082816	0.135678	-1.213089	-0.500516	0.658792	-0.518869	-0.472541	0.104529
-1.665375	2.334611	9.539758	-0.163074	0.154634	-0.150358	0.043976	-0.284255	-0.702555	0.644212	1.002884	10.145121	0.947559	-0.985773	-2.156725	-0.275804	0.000781	-1.104502	9.369122	3.082997	0.010362	-1.462073	-0.49699	0.231796	-0.477771	-0.520506	0.107251
-1.555237	2.21868	9.31409	-0.16208	0.21436	0.00395	0.086323	-0.268079	-0.721094	0.86327	1.171017	9.640343	0.739137	-0.346362	-1.873083	-0.314882	-0.030085	-1.101668	8.954098	3.432151	-0.055764	-1.588267	-0.305702	-0.563294	-0.463658	-0.485438	0.059063
-1.895009	1.645237	9.475556	-0.255214	0.123473	-0.150599	0.08598	-0.306206	-0.672034	0.747924	1.283894	9.63802	-0.057441	0.222256	-1.282338	-0.314512	-0.013692	-1.117021	9.435841	3.084592	0.430811	-1.58982	-0.395894	-0.715672	-0.477562	-0.504313	0.106414
-1.546288	2.163169	9.768674	-0.317067	0.093498	-0.242912	0.072217	-0.285004	-0.703253	1.205252	1.057567	9.477583	-1.131719	0.817809	-0.66072	-0.314141	0.0027	-1.132375	9.126049	3.256282	-0.352739	-1.621889	-0.424703	-0.898794	-0.491612	-0.502865	0.075288
-1.894102	1.932686	9.533615	-0.131552	0.21485	-0.026798	0.099358	-0.313637	-0.644232	0.981165	1.621588	9.813059	-1.837181	1.236289	-0.379674	-0.275729	0.016102	-1.105506	9.309005	3.082885	-0.050645	-1.220941	-0.57873	-0.65501	-0.463863	-0.520302	0.107321
-1.777284	1.818203	9.649066	-0.22426	0.247934	-0.271337	0.085208	-0.278664	-0.678866	1.216024	1.114325	9.987387	-2.331959	1.19895	-0.318787	-0.288855	-0.014614	-1.103223	9.487424	2.966575	0.012069	-1.097232	-0.423763	-0.809011	-0.491399	-0.505344	0.121871
-1.377367	1.473022	9.598559	-0.224446	0.123269	-0.120023	0.029469	-0.270109	-0.705621	1.795304	1.113389	10.169395	-2.239665	1.169461	-0.319006	-0.301906	-0.030009	-1.101944	9.715806	3.42916	-0.340993	-1.250626	-0.177396	-1.023569	-0.477633	-0.503487	0.090886
-1.378895	2.047196	9.544119	-0.590924	0.305595	-0.085337	0.058096	-0.284629	-0.702904	1.218549	1.058089	10.100618	-2.085738	1.139951	-0.195863	-0.301982	-0.04533	-1.10094	9.191668	3.25763	0.007803	-1.655825	-0.263671	-1.694066	-0.449605	-0.505558	0.13761
-1.550368	1.64523	9.53909	-0.439703	0.124353	-0.303393	0.08558	-0.275136	-0.692942	1.443868	1.113799	9.878943	-2.210992	1.015121	-0.104721	-0.275584	-0.013467	-1.117849	9.310376	2.96698	0.008767	-2.243019	-0.076882	-2.212392	-0.491537	-0.522363	0.138236
-1.214269	2.677481	9.208996	-0.070637	0.404047	-0.422582	0.100872	-0.334123	-0.665552	0.981681	0.720252	9.755661	-2.334647	1.01315	-0.043184	-0.262162	0.018321	-1.134481	9.665863	3.31512	0.136667	-1.871987	-0.263817	-1.754408	-0.477629	-0.522158	0.138307
-1.837878	1.81752	9.477393	-0.224653	0.186471	-0.272335	0.087095	-0.295621	-0.714262	0.87646	1.227869	10.263426	-2.457952	1.041643	0.049485	-0.327048	-0.042264	-1.143438	9.314913	2.909893	0.248148	-1.318292	-0.383548	-1.816966	-0.505516	-0.52174	0.122638
-1.901648	1.586348	9.134196	-0.0708	0.435822	-0.514069	0.044362	-0.298026	-0.699139	1.208555	1.226701	9.647644	-2.395422	1.103555	0.080979	-0.288114	0.018171	-1.13393	9.775517	3.6035	-0.279244	-1.071448	-0.4451	-1.695317	-0.477141	-0.4906	0.15216
-1.604697	2.22041	9.710949	0.111702	0.315492	-0.66989	0.071488	-0.30936	-0.657609	1.041018	1.058223	9.870433	-2.333827	1.103333	0.235166	-0.314512	-0.013692	-1.117021	9.776172	2.848264	-0.342365	-0.546307	-0.382982	-1.605828	-0.491537	-0.522363	0.138236
-1.847118	2.275123	9.024499	-0.072176	0.220699	-0.517561	0.07186	-0.305832	-0.671685	1.328845	1.057684	9.876478	-2.365112	1.072276	0.234832	-0.289	0.014955	-1.090881	9.554278	2.910094	0.43227	-0.083253	-0.289235	-1.638515	-0.505169	-0.488529	0.105436
-1.835942	2.220094	9.592788	-0.254755	0.30995	-0.331577	0.100472	-0.303052	-0.68646	0.98058	0.663875	9.698974	-2.332464	1.196334	0.081952	-0.289075	-0.000365	-1.089877	9.193174	3.083649	0.066968	0.197033	-0.169347	-1.303914	-0.463654	-0.504109	0.106484
-1.897443	1.931962	9.363056	-0.163847	0.282081	-0.546968	0.071845	-0.288532	-0.689177	0.86722	1.002168	9.81012	-2.578838	1.283179	0.390898	-0.275289	-0.012395	-1.132198	9.542329	3.314154	-0.165068	0.505696	-0.168869	-1.243909	-0.449813	-0.52175	0.138447
-1.836972	2.104969	9.535453	-0.316924	0.249591	-0.455051	0.072617	-0.316074	-0.682345	0.814598	0.946135	10.035422	-2.887159	1.339784	0.514525	-0.28878	0.000706	-1.104227	8.9585	3.43314	0.183863	0.874594	-0.072302	-1.581894	-0.491541	-0.503691	0.090816
-1.66727	1.874596	9.424122	-0.436974	0.398158	-0.053608	0.114578	-0.286128	-0.704301	0.926664	1.283808	9.924845	-2.948441	1.370269	0.422295	-0.28937	-0.001437	-1.075527	9.312847	2.851322	0.128087	1.030267	-0.136709	-1.2154	-0.477212	-0.489773	0.136632
-1.608286	2.564336	9.541837	-0.222284	0.461319	-0.114535	0.07336	-0.309018	-0.710497	1.20767	1.057662	9.590862	-1.841427	0.956482	0.203274	-0.30065	-0.010402	-1.160346	9.192478	2.909174	0.006319	1.061583	-0.07542	-1.215806	-0.491399	-0.505344	0.121871
-1.661827	2.048127	9.709111	-0.407242	0.369655	-0.238164	0.115736	-0.327441	-0.694053	0.585653	0.890283	10.087178	-2.090884	0.740907	-0.138179	-0.275069	-0.026644	-1.145544	9.133192	3.025461	0.005713	1.339638	-0.323865	-0.757188	-0.463721	-0.521954	0.138377
-1.782851	1.816996	9.3648	-0.28512	0.277685	-0.209342	0.100472	-0.303052	-0.68646	1.217017	1.227033	10.044121	-1.537474	0.562162	0.137942	-0.274994	-0.011323	-1.146548	9.19717	3.258866	0.307337	1.741994	-0.107983	-0.790238	-0.478326	-0.56991	0.12529
-1.731578	2.390164	9.084061	-0.221684	0.459581	0.038775	0.085223	-0.295963	-0.661374	1.152737	0.945204	9.702837	-1.566576	0.685637	-0.045823	-0.28819	0.00285	-1.132926	9.72623	2.734225	0.135295	1.866473	-0.047621	-0.668726	-0.477771	-0.520506	0.107251
-2.130133	2.390937	9.189973	-0.682989	0.305513	-0.115741	0.072217	-0.285004	-0.703253	1.094741	1.170634	9.701818	-1.502369	0.899464	0.20298	-0.301021	-0.026794	-1.144993	9.302153	3.662409	-0.347707	1.743215	-0.01716	-0.698987	-0.477562	-0.504313	0.106414
-1.556516	2.448205	9.258203	-0.314381	0.398731	-0.053951	0.086337	-0.285379	-0.703602	0.975983	1.170707	9.529482	-1.409102	0.932311	0.049241	-0.276325	-0.046252	-1.087142	9.189602	3.19906	-0.112259	1.526071	-0.077539	-0.850726	-0.519912	-0.553503	0.108714
-1.329601	2.275232	9.148226	-0.683032	0.336941	-0.176566	0.043218	-0.274012	-0.691894	1.268299	0.719666	9.705066	-1.71598	1.082319	-0.041998	-0.288855	-0.014614	-1.103223	9.197441	3.142714	0.306843	1.99258	0.133837	-0.425547	-0.463513	-0.505762	0.13754
-1.551855	2.161962	9.484408	-0.43882	0.090492	-0.027935	0.099343	-0.296338	-0.661724	1.034758	1.170647	9.58733	-1.990443	1.355176	-0.101162	-0.314361	0.016949	-1.119029	9.184775	2.907443	-0.413029	2.237875	-0.017908	-0.456273	-0.4777	-0.521332	0.122779
-1.900908	2.103563	9.193221	-0.529061	0.241636	0.158789	0.099329	-0.279039	-0.679215	1.105274	0.720369	10.154556	-1.989235	1.447371	-0.131072	-0.2879	-0.056288	-1.157611	9.430879	2.851052	0.130287	2.177851	0.040843	-0.242397	-0.46365	-0.522781	0.153905
-1.265541	2.104314	9.489734	-0.468704	0.056836	0.216948	0.072617	-0.316074	-0.682345	0.985223	1.396408	9.982788	-1.868502	1.233683	-0.040616	-0.314587	-0.029013	-1.116018	9.367346	3.37313	-0.048309	2.393112	0.01166	-0.304163	-0.491187	-0.507823	0.168455
-1.838992	1.817279	9.42054	-0.222733	0.180908	0.218256	0.072588	-0.281476	-0.717329	1.329946	1.114062	9.933165	-1.501279	0.962404	-0.043018	-0.288265	-0.01247	-1.131923	9.369257	3.024921	0.010115	2.456965	0.225063	-0.213724	-0.477838	-0.538351	0.139144
-1.894351	2.277335	9.535063	-0.467492	0.303734	0.128953	0.029884	-0.318479	-0.667222	1.268192	0.775997	9.705113	-1.132145	0.844247	-0.013068	-0.313771	0.019092	-1.147728	9.075702	3.316471	0.125663	2.488583	0.409971	-0.336972	-0.505098	-0.489355	0.120964
-1.603045	1.473912	9.764665	-0.438907	0.153347	-0.149585	0.072217	-0.285004	-0.703253	0.870069	0.776941	9.923209	-1.041138	0.72216	0.078276	-0.353145	-0.012845	-1.130544	9.188907	3.024584	-0.172907	2.490046	0.531384	-0.245869	-0.505445	-0.522567	0.138166
-1.898846	2.333812	9.307892	-0.745192	0.182647	-0.148227	0.11385	-0.310484	-0.658657	1.849459	1.000478	10.00059	-1.069771	0.905354	0.141731	-0.301165	0.002775	-1.13265	9.547966	3.257314	0.134219	2.460931	0.62115	-0.062815	-0.477562	-0.504313	0.106414
-1.663971	1.932762	9.594922	-0.745148	0.15122	-0.087402	0.044362	-0.298026	-0.699139	1.276007	1.114312	10.101875	-0.794139	0.72449	0.20181	-0.328449	-0.032303	-1.072693	9.478351	3.080749	-0.466692	2.341125	0.769241	0.364793	-0.505098	-0.489355	0.120964
-1.783183	2.276529	9.366731	-0.744362	0.274148	-0.085406	0.073746	-0.322789	-0.707081	0.874928	1.396814	10.206929	-0.82406	0.786434	0.048261	-0.327783	-0.014839	-1.102396	9.307209	2.908162	-0.171201	1.9391	0.552727	0.458972	-0.505725	-0.537933	0.123475
-1.261087	2.105279	9.717147	-0.83682	0.212602	-0.116808	0.085223	-0.295963	-0.661374	0.98058	0.663875	9.698974	-0.917483	0.72413	0.016739	-0.28878	0.000706	-1.104227	9.190008	3.024831	-0.113	2.091126	0.495255	0.153066	-0.477771	-0.520506	0.107251
-1.547277	1.990603	9.711097	-0.622555	0.151793	-0.087745	0.071831	-0.271233	-0.706669	0.975983	1.170707	9.529482	-0.949118	0.66261	-0.014727	-0.301385	0.017024	-1.119304	9.360858	2.848715	-0.469882	1.969526	0.522564	0.428442	-0.477421	-0.505966	0.137469
-1.795472	2.331317	8.741588	-0.621572	0.305452	-0.085251	0.087095	-0.295621	-0.714262	1.210411	0.888765	9.703999	-1.011335	0.63096	0.015737	-0.28915	-0.015686	-1.088873	9.78266	3.372679	0.079208	1.875639	0.431723	0.306964	-0.477283	-0.488947	0.121105
-1.609317	2.449212	9.484501	-0.621092	0.304061	0.037397	0.072588	-0.281476	-0.717329	0.983991	0.776678	9.868987	-0.85815	0.540322	0.107443	-0.262012	0.048962	-1.136489	9.539952	2.442025	-0.408404	1.876724	0.398612	0.551622	-0.492025	-0.553921	0.124383
-2.066938	1.875128	9.47318	-0.621999	0.181481	0.004739	0.043233	-0.291311	-0.674403	0.745052	0.889438	9.467769	-0.733209	0.63489	-0.045657	-0.301976	0.01488	-1.090605	9.248058	2.966373	-0.172054	1.909622	0.425845	0.887566	-0.477491	-0.50514	0.121942
-1.893978	1.760362	9.532891	-0.531594	-0.001437	-0.090497	0.030241	-0.297651	-0.69879	1.101108	1.001879	9.984874	-0.640994	0.604999	0.015776	-0.289295	0.013883	-1.076531	9.596923	2.848175	-0.46548	2.063382	0.396125	0.856588	-0.463237	-0.471724	0.10481
-1.838293	2.391936	9.479806	-0.620929	0.272286	0.128884	0.057725	-0.288158	-0.688828	1.037845	1.452441	9.757486	-0.639747	0.697396	-0.04496	-0.274843	0.019318	-1.148555	9.540803	3.02328	-0.286118	1.973956	0.358898	1.468353	-0.477491	-0.50514	0.121942
-1.719905	1.645837	9.649455	-0.347945	0.000117	-0.152337	0.086352	-0.302678	-0.68611	0.928066	0.551511	9.924228	-0.731689	0.757348	-0.01361	-0.28819	0.00285	-1.132926	9.310241	3.025056	0.009014	1.850323	0.576364	1.101005	-0.463859	-0.538973	0.154742
-1.611171	1.931755	9.368623	-0.224796	0.030378	-0.060196	0.058896	-0.34677	-0.661089	1.042334	1.00194	9.927025	-0.822969	0.849374	-0.197737	-0.288705	0.016027	-1.10523	9.480261	2.73254	-0.408269	1.910844	0.516668	0.978818	-0.491817	-0.537729	0.123546
-1.435202	2.277245	9.600824	-0.624368	-0.093367	-0.15306	0.057725	-0.288158	-0.688828	1.152737	0.945204	9.702837	-0.733132	0.635293	-0.107309	-0.327413	0.001553	-1.117749	9.549897	3.373961	0.254527	1.540678	0.515652	0.9496	-0.491746	-0.538555	0.139073
-1.832518	2.105934	9.762865	-0.285656	0.060128	0.001799	0.085966	-0.288907	-0.689526	1.26709	0.719619	9.648426	-0.761609	0.819292	-0.167158	-0.288855	-0.014614	-1.103223	9.189602	3.19906	-0.112259	1.724291	0.42581	0.827112	-0.477491	-0.50514	0.121942
-1.836024	2.334977	9.593271	-0.499123	0.149931	0.126545	0.072245	-0.319603	-0.668269	1.452653	0.945139	10.275278	-0.60784	0.760325	-0.229277	-0.313921	-0.011548	-1.145721	9.724704	2.44335	0.014245	1.662775	0.487398	0.765914	-0.463446	-0.487917	0.105647
-1.490147	2.162886	9.712934	-0.560942	0.182463	-0.056756	0.072988	-0.312546	-0.696421	1.151767	1.452178	9.703264	-1.225648	0.752888	-0.291504	-0.275729	0.016102	-1.105506	9.359893	2.790392	-0.530036	1.6627	0.456493	0.796625	-0.505933	-0.554125	0.124312
-1.496004	2.56377	9.430358	-0.44002	0.093969	-0.334554	0.071445	-0.257462	-0.710085	0.927203	1.002155	9.924608	-1.656727	0.840804	-0.506773	-0.301976	0.01488	-1.090605	9.243927	2.849232	-0.412176	1.879784	0.423843	1.071063	-0.505374	-0.523393	0.153694
-1.844767	2.103281	9.137481	-0.378407	0.124639	-0.303565	0.058868	-0.312171	-0.696072	1.438386	1.451592	9.652669	-1.380899	0.689599	-0.292258	-0.287674	-0.010326	-1.160622	9.541363	3.255831	-0.225222	1.944541	0.666574	1.283612	-0.505236	-0.506374	0.137329
-1.091385	1.874906	9.605816	-0.377097	0.214749	-0.118097	0.045119	-0.308269	-0.709799	1.158651	0.382088	9.928922	-1.596418	0.747983	-0.261023	-0.314066	0.018021	-1.133378	9.368312	3.431453	0.011846	2.376464	0.636592	1.37388	-0.449605	-0.505558	0.13761
-1.596612	1.820008	10.107231	-0.500246	0.184488	-0.210238	0.058868	-0.312171	-0.696072	1.213367	0.607208	9.817041	-1.809093	1.021625	-0.32013	-0.301461	0.001703	-1.118301	9.244082	3.256012	-0.350538	2.559792	0.702534	0.975581	-0.464072	-0.536494	0.108158
-1.611378	2.218963	9.36983	-0.192695	0.276723	-0.086952	0.07186	-0.305832	-0.671685	1.380905	0.775686	9.594252	-1.564238	0.840973	-0.352557	-0.314732	0.000556	-1.103675	9.369392	2.966845	0.009868	2.621549	0.671536	1.036631	-0.450164	-0.53629	0.108228
-1.840437	2.27657	9.365617	-0.316807	-0.095065	0.122038	0.086337	-0.285379	-0.703602	0.977408	1.058093	9.586026	-1.748357	0.931019	-0.413466	-0.274994	-0.011323	-1.146548	9.542329	3.314154	-0.165068	2.560531	0.732178	1.067126	-0.491466	-0.523189	0.153764
-1.83128	1.933851	9.818994	-0.347115	0.091617	-0.089516	0.058882	-0.329471	-0.67858	0.870523	1.171302	9.980181	-1.467463	1.149803	-0.503548	-0.326967	0.033266	-1.134106	9.661462	3.314131	-0.102961	2.926687	0.52348	0.669476	-0.533123	-0.505956	0.121661
-1.609109	2.162004	9.483295	-0.439956	-0.125326	0.029897	0.058839	-0.277573	-0.731056	0.925563	1.22743	9.868158	-1.530071	1.058836	-0.781956	-0.262382	0.032569	-1.121135	9.07128	2.850626	-0.17585	3.107995	0.375926	0.211078	-0.491328	-0.50617	0.137399
-2.005519	2.278142	9.703395	-0.375494	0.178802	0.341333	0.071845	-0.288532	-0.689177	1.440888	0.775673	9.70874	-1.713255	1.211016	-0.965558	-0.275358	0.032494	-1.120859	9.717852	3.022875	-0.282817	3.045301	0.160316	0.334586	-0.476865	-0.456562	0.11943
-2.001972	1.991658	9.872748	-0.559525	0.02185	0.553987	0.058496	-0.3157	-0.681996	1.215916	1.170655	9.987434	-1.066773	1.064112	-0.689047	-0.287744	0.034563	-1.149283	9.250259	2.966868	-0.05224	3.26195	0.221641	0.394635	-0.477838	-0.538351	0.139144
-2.187055	1.931446	9.186929	-0.652506	-0.006877	0.339113	0.098943	-0.265268	-0.682631	0.64037	1.115402	9.975298	-0.973232	1.155672	-0.441436	-0.275509	0.001853	-1.118852	9.603411	3.37259	-0.043907	3.291035	0.256124	0.02761	-0.477074	-0.472755	0.120267
-1.668508	2.04668	9.367993	-0.467428	0.084439	0.493403	0.100472	-0.303052	-0.68646	1.500332	1.057313	9.823465	-1.039347	0.817375	-0.414025	-0.301316	-0.027866	-1.130643	9.778954	3.546165	-0.099771	3.384048	0.193387	0.21095	-0.463442	-0.506588	0.153068
-1.608819	1.759913	9.481606	-0.835512	-0.041597	0.615086	0.072988	-0.312546	-0.696421	0.699922	1.340712	10.089975	-0.728962	0.943349	-0.320039	-0.313771	0.019092	-1.147728	9.187537	3.140489	-0.23232	3.386069	0.406883	0.271049	-0.449676	-0.504731	0.122082
-1.262159	2.047596	9.660052	-0.774019	-0.010578	0.615413	0.08598	-0.306206	-0.672034	0.634002	1.284157	9.692242	-0.793322	0.757369	-0.136971	-0.28819	0.00285	-1.132926	9.073906	3.141748	0.005107	3.598995	0.444238	-0.310595	-0.505516	-0.52174	0.122638
-1.551855	2.161962	9.484408	-0.745347	-0.22382	0.458526	0.058896	-0.34677	-0.661089	1.393532	0.494508	10.160411	-0.916548	0.786265	-0.105955	-0.288485	0.001778	-1.118576	9.246283	3.256506	-0.230725	3.353368	0.596614	-0.340995	-0.505169	-0.488529	0.105436
-1.662485	1.416029	9.649604	-0.928396	-0.227112	0.673674	0.087481	-0.309392	-0.710846	1.157919	1.396085	9.986415	-1.348913	0.781583	-0.229662	-0.28893	-0.029934	-1.102219	9.249024	3.024696	-0.1119	2.924413	0.683047	0.0269	-0.477491	-0.50514	0.121942
-1.611212	1.989197	9.368865	-0.744987	-0.224863	0.550511	0.071102	-0.295589	-0.661025	0.984638	0.438695	9.868703	-1.134057	0.662472	-0.353986	-0.314958	-0.045405	-1.100664	9.245452	3.140107	-0.291126	2.555226	0.742265	0.08908	-0.491399	-0.505344	0.121871
-1.668549	2.104121	9.368234	-0.622188	-0.287493	0.702479	0.044004	-0.318853	-0.667571	0.75483	0.833487	9.920839	-1.28923	0.599585	-0.416392	-0.340684	0.000406	-1.103124	9.253425	3.025685	0.127728	2.094278	0.830794	0.243142	-0.463024	-0.474203	0.151393
-1.724815	2.276729	9.424697	-0.46888	-0.161764	0.520074	0.085994	-0.323506	-0.654543	1.329168	0.888692	9.876336	-1.597161	0.658203	-0.601025	-0.314437	0.001628	-1.118025	9.124929	2.791179	-0.474531	1.541497	1.25926	0.029159	-0.505028	-0.490182	0.136492
-1.493653	2.391928	9.54334	-0.561611	-0.285121	0.518336	0.127942	-0.276259	-0.69399	1.044991	1.509056	10.097371	-1.137605	0.357635	-0.634472	-0.275138	0.018246	-1.134206	9.134293	3.025708	0.06562	1.170971	1.383125	-0.245156	-0.491675	-0.539381	0.154601
-1.547442	2.220369	9.712062	-0.163633	-0.219363	0.303584	0.057739	-0.305457	-0.671336	0.924355	1.227382	9.811518	-1.446432	0.354319	-0.727238	-0.314437	0.001628	-1.118025	9.136224	3.142355	0.185928	0.924969	1.380977	-0.122004	-0.491261	-0.488325	0.105507
-1.833632	2.105693	9.706012	-0.59418	-0.279701	0.027832	0.059239	-0.308643	-0.710148	0.696272	0.720886	9.862895	-1.568527	0.475008	-0.66448	-0.289075	-0.000365	-1.089877	9.542039	2.965451	-0.226459	0.464807	1.312776	0.399558	-0.463237	-0.471724	0.10481
-2.174434	1.417126	9.810141	-0.348241	-0.218136	0.120128	0.071831	-0.271233	-0.706669	0.689042	1.340285	9.580219	-1.629419	0.56481	-0.44784	-0.301015	0.033416	-1.134658	9.364045	3.372388	-0.228029	-0.120554	1.433973	0.30941	-0.519495	-0.521118	0.10704
-1.72366	2.219528	9.481309	-0.166132	-0.39993	-0.03669	0.084808	-0.247594	-0.699774	1.103311	1.114635	10.098248	-1.69382	0.349976	-0.542512	-0.28819	0.00285	-1.132926	9.660611	2.732877	-0.225247	-1.199589	1.274622	0.558583	-0.49084	-0.474611	0.151253
-1.595872	2.337224	10.166256	-0.042067	-0.341023	0.239922	0.072245	-0.319603	-0.668269	0.931261	0.776975	10.094337	-1.689962	0.627771	-0.817199	-0.250223	-0.015461	-1.089701	8.826007	3.023417	-0.658765	-1.571349	1.028259	0.591668	-0.533682	-0.536689	0.092279
-1.664178	2.219969	9.596129	0.204318	-0.343355	0.545853	0.060368	-0.315358	-0.734884	1.160637	0.607505	10.042391	-0.827726	0.452342	-0.448313	-0.314361	0.016949	-1.119029	9.603526	2.849658	-0.106039	-1.66513	0.844073	0.62345	-0.505516	-0.52174	0.122638
-2.010755	1.817404	9.417199	0.202385	-0.588167	0.449876	0.073003	-0.329845	-0.67893	1.506268	1.113881	10.10671	-0.672787	0.485369	-0.509516	-0.314141	0.0027	-1.132375	9.594607	3.370612	-0.523162	-1.882378	0.535509	0.809087	-0.477976	-0.55537	0.155509
-1.561876	2.159791	8.972731	0.204634	-0.312971	0.577014	0.128685	-0.269203	-0.722142	1.49813	0.944557	9.710091	-0.857218	0.545152	-0.632382	-0.301681	0.015952	-1.104955	9.65841	2.732382	-0.34506	-2.220618	0.843023	0.533777	-0.491817	-0.537729	0.123546
-1.897567	2.104287	9.36378	0.234813	-0.405371	0.606093	0.071874	-0.323131	-0.654193	1.44376	1.170129	9.87899	-0.792311	0.791254	-0.629883	-0.275509	0.001853	-1.118852	9.073346	2.909197	-0.055789	-2.406912	0.720629	0.47391	-0.449396	-0.489365	0.136773
-1.841385	2.046563	9.307799	-0.134493	-0.684371	0.663957	0.057367	-0.308985	-0.65726	1.10154	0.776557	9.984684	-0.576363	0.763736	-0.691639	-0.288265	-0.01247	-1.131923	9.540513	2.674576	-0.347509	-2.034446	0.779356	0.839037	-0.463725	-0.503283	0.090956
-1.319331	1.932754	9.658456	-0.101912	-0.439415	0.759848	0.057339	-0.274387	-0.692244	1.09826	1.227106	9.871784	-0.978768	0.697311	-0.692623	-0.339873	-0.011699	-1.145169	9.538737	2.964709	-0.406179	-1.972027	0.747097	1.022344	-0.47735	-0.506792	0.152997
-1.729144	2.103439	9.196561	-0.348113	-0.656727	0.849028	0.072245	-0.319603	-0.668269	0.759989	0.664685	10.147255	-0.387334	1.042876	-0.812023	-0.301831	-0.014689	-1.102947	9.549181	2.73463	0.131994	-1.914386	0.59973	0.503266	-0.463725	-0.503283	0.090956
-1.888701	2.163659	9.818846	-0.102349	-0.469452	0.698026	0.100101	-0.306581	-0.672384	1.102748	0.776605	10.041324	-1.131019	0.850084	-0.907023	-0.313846	0.003772	-1.146724	9.658815	2.558154	-0.345802	-1.818782	0.780448	0.807688	-0.492305	-0.569287	0.109692
-1.72135	2.105128	9.594533	-0.010372	-0.406516	0.60678	0.087123	-0.33022	-0.679279	0.695386	0.551847	9.806113	-1.131369	0.81962	-0.938154	-0.287669	0.049883	-1.150287	9.543004	3.023774	-0.166304	-1.447403	0.530757	1.418798	-0.491261	-0.488325	0.105507
-1.440645	2.103714	9.315835	-0.009716	-0.189306	0.426301	0.057753	-0.322756	-0.653844	0.93247	0.777023	10.150976	0.962264	0.350806	-0.201258	-0.30087	0.003847	-1.147	9.191358	2.444071	-0.115473	-1.449665	0.286672	1.358844	-0.4777	-0.521332	0.122779
-1.778894	2.50726	9.595108	0.051757	0.02958	0.123003	0.099715	-0.29281	-0.675799	1.165041	0.833017	10.269139	2.312322	-0.310199	0.348161	-0.301241	-0.012545	-1.131647	9.601885	3.081715	-0.164957	-1.604646	-0.115959	1.789213	-0.47735	-0.506792	0.152997
-1.439242	1.701865	9.370999	-0.072265	-0.060755	-0.092784	0.071845	-0.288532	-0.689177	0.985654	1.171086	9.982598	2.125751	-0.404747	0.377899	-0.340464	-0.013842	-1.11647	9.656094	3.254819	-0.402742	-1.448884	-0.211586	2.216992	-0.449534	-0.506384	0.153138
-1.661537	1.646037	9.707422	-0.0105	0.032075	-0.122121	0.114993	-0.334497	-0.665901	1.326535	1.001258	9.763151	1.758377	-0.134271	0.503606	-0.327042	0.017945	-1.133103	9.959128	2.674867	-0.040271	-1.82313	-0.453219	1.791614	-0.435488	-0.489161	0.136843
-1.720319	2.220252	9.651868	-0.133648	0.001813	-0.214262	0.05661	-0.298743	-0.6466	0.69541	1.17153	9.863275	1.48224	-0.013327	0.227133	-0.30131	0.032344	-1.120308	8.955604	3.25817	0.003401	-1.733723	-0.695394	1.578503	-0.435905	-0.521546	0.138517
-1.893196	2.220135	9.591675	0.204616	0.219206	-0.273038	0.072231	-0.302303	-0.685761	0.761437	1.171755	10.260961	1.325081	-0.22974	0.194027	-0.30153	0.046593	-1.106962	9.130566	2.734339	-0.175244	-1.5172	-0.820128	1.883947	-0.477212	-0.489773	0.136632
-1.834745	2.105452	9.649159	0.020345	0.06295	-0.121708	0.04399	-0.301554	-0.685063	0.986624	0.664112	9.982172	1.57227	-0.255056	-0.145135	-0.327557	0.031122	-1.105407	9.548216	2.676307	0.07184	-1.238198	-0.884091	2.250002	-0.477074	-0.472755	0.120267
-1.895713	2.621743	9.479658	-0.008786	0.089714	0.216158	0.072203	-0.267705	-0.720745	0.872702	0.664375	10.036393	1.943893	-0.188418	-0.236658	-0.327343	-0.043336	-1.129088	9.360453	3.022943	-0.46914	-1.513797	-1.199177	3.047156	-0.449254	-0.491018	0.167828
-1.554165	2.276363	9.371185	-0.00884	0.215075	0.00352	0.114979	-0.317198	-0.683393	0.877753	0.551903	10.262857	2.842194	0.035792	0.043747	-0.262979	-0.029784	-1.102771	9.840846	3.256145	0.019907	-1.916916	-1.320454	2.804686	-0.519215	-0.505752	0.121731
-1.488044	2.335693	9.827364	0.020902	0.092639	-0.029223	0.101615	-0.327066	-0.693704	0.815807	0.946182	10.092061	3.983625	-0.072768	0.105242	-0.301611	-0.028938	-1.116293	10.010056	3.312085	-0.395892	-2.352359	-1.439005	2.287249	-0.46365	-0.522781	0.153905
-1.845963	2.217922	9.081111	-0.162027	0.088999	0.216588	0.100115	-0.32388	-0.654892	0.636181	0.77723	9.748455	4.447068	-0.066687	0.074848	-0.275729	0.016102	-1.105506	9.421535	3.081378	-0.347979	-2.722713	-1.315457	2.043493	-0.476932	-0.474407	0.151323
-1.208121	1.874506	9.489883	0.114636	0.181787	0.278635	0.099701	-0.27551	-0.693291	1.158997	0.83278	9.985941	4.505931	-0.310217	-0.081667	-0.249186	0.018396	-1.134757	9.365125	2.90778	-0.230007	-2.511193	-1.306485	1.248039	-0.5197	-0.555982	0.155298
-1.66958	1.988997	9.310898	0.296887	0.156085	-0.090322	0.071845	-0.288532	-0.689177	0.929298	1.171242	10.038029	5.179781	-0.761367	-0.116439	-0.28841	0.017099	-1.11958	9.30858	2.792257	-0.111788	-2.884382	-1.456979	0.883352	-0.505307	-0.505548	0.121801
-1.725597	1.816955	9.365914	0.509797	0.036593	-0.307553	0.057753	-0.322756	-0.653844	1.208424	0.663349	9.59053	5.29704	-1.250844	-0.059556	-0.289226	-0.031006	-1.08787	9.654164	3.138173	-0.52305	-3.479577	-1.410213	-0.887363	-0.504539	-0.458623	0.150346
-2.12081	1.818451	9.642385	0.202553	0.068676	-0.551491	0.071102	-0.295589	-0.661025	1.147902	0.945014	9.476279	3.691078	-1.26861	-0.46179	-0.275289	-0.012395	-1.132198	9.720748	3.197844	-0.102355	-3.916719	-1.339239	-1.986369	-0.505449	-0.503895	0.090746
-1.668632	2.219004	9.368716	0.69206	0.261266	-1.071127	0.070731	-0.299117	-0.646949	1.024332	1.564581	9.134545	1.872555	-0.926169	-0.089911	-0.314141	0.0027	-1.132375	9.131376	2.385883	-0.176727	-3.762931	-1.151682	-2.324007	-0.505307	-0.505548	0.121801
-1.499054	2.160956	9.258109	0.23185	0.354445	-1.344302	0.071831	-0.271233	-0.706669	0.809547	1.058606	9.808958	0.456811	-0.515291	-0.025308	-0.300945	-0.011473	-1.145997	8.952552	2.676421	-0.238699	-3.267695	-1.184595	-1.928333	-0.491884	-0.555574	0.155438
-1.550576	1.932438	9.540296	-0.104132	0.474755	-1.249375	0.057353	-0.291686	-0.674752	0.811857	1.115032	9.922285	-0.559461	-0.282302	-0.116293	-0.289446	-0.016758	-1.074524	9.194679	2.909668	0.126133	-1.530131	-0.79554	-0.500041	-0.491817	-0.537729	0.123546
-2.012076	2.10437	9.361553	-0.286907	0.533274	-1.063889	0.058468	-0.281101	-0.71698	1.2157	1.283316	9.987529	-0.316715	-0.67439	-0.644074	-0.301385	0.017024	-1.119304	9.840961	2.733213	-0.042225	-0.662179	-0.397611	-0.230019	-0.491746	-0.538555	0.139073
-2.00989	2.162294	9.4755	-0.377748	0.686156	-1.030474	0.015763	-0.318104	-0.666873	0.875336	0.551808	10.149578	0.20404	-1.063153	-1.140769	-0.314657	0.015877	-1.104679	9.899862	3.25601	0.021008	-1.309908	0.252526	-1.208782	-0.477354	-0.488121	0.105577
-2.012982	1.816921	9.303493	-0.407513	0.652152	-0.754929	0.059254	-0.325942	-0.692656	1.0386	1.058128	9.757154	0.387921	-1.211711	-1.512035	-0.314437	0.001628	-1.118025	9.246823	3.024202	-0.231714	-2.18099	0.139988	-2.45815	-0.477562	-0.504313	0.106414
-1.843695	2.160963	9.194575	-0.529212	0.523785	-0.327312	0.071474	-0.292061	-0.675101	1.094286	0.776273	9.644847	0.200099	-1.455963	-2.03869	-0.326822	0.003697	-1.146449	9.0168	2.793674	0.06243	-2.588013	-0.284347	-2.974208	-0.49147	-0.504518	0.106344
-1.658569	2.163734	9.880153	-0.252855	0.492255	-0.144612	0.087452	-0.274794	-0.74583	1.105513	1.227391	10.211622	0.141078	-1.241889	-2.067437	-0.328078	-0.015911	-1.088046	9.414933	3.079895	-0.70742	-2.803242	-0.72094	-2.237852	-0.491049	-0.490804	0.15209
-1.258286	2.852742	9.890843	-0.404916	0.675931	-0.141189	0.073003	-0.329845	-0.67893	0.817016	0.94623	10.148701	0.476392	-1.576102	-1.885523	-0.28775	-0.025647	-1.159618	9.599954	2.965069	-0.285265	-2.557456	-0.87363	-2.176888	-0.491261	-0.488325	0.105507
-1.720278	2.162811	9.651627	-0.346109	0.401716	-0.329823	0.085994	-0.323506	-0.654543	0.982782	0.77663	9.812348	0.257599	-1.792496	-2.04199	-0.314361	0.016949	-1.119029	9.492791	3.025887	0.31185	-2.590685	-0.900232	-2.573951	-0.491049	-0.490804	0.15209
-2.176045	2.106183	9.756184	-0.254775	0.497818	-0.635204	0.05661	-0.298743	-0.6466	0.98654	1.340125	10.03938	0.690428	-1.756746	-1.979631	-0.314367	-0.043261	-1.129364	9.784436	3.082546	0.137879	-2.467232	-0.713731	-2.819786	-0.46365	-0.522781	0.153905
-1.952429	1.875045	9.475407	-0.256185	0.220188	-0.547708	0.072617	-0.316074	-0.682345	1.273027	0.776186	9.931671	-0.167088	-1.270436	-2.992807	-0.301681	0.015952	-1.104955	9.373544	3.548841	0.311874	-2.190595	-0.586908	-3.157577	-0.449676	-0.504731	0.122082
-1.558329	1.873307	9.142083	-0.042085	0.191154	-0.610132	0.086337	-0.285379	-0.703602	0.873696	0.777083	10.093128	1.437531	-1.431629	-3.363053	-0.301316	-0.027866	-1.130643	9.659801	3.081333	-0.223763	-2.1855	-0.410307	-2.48607	-0.463863	-0.520302	0.107321
-1.665085	1.93252	9.538069	0.051146	0.125252	-0.18212	0.086352	-0.302678	-0.68611	1.444407	0.832146	9.878706	1.533328	-1.242437	-3.977652	-0.275434	0.017174	-1.119856	9.724299	2.617579	0.014987	-2.922546	-0.232269	-2.209189	-0.504886	-0.491834	0.167548
-1.83792	1.874962	9.477634	0.267582	0.308559	0.004244	0.114193	-0.272357	-0.707716	0.935989	0.833496	10.320943	4.164644	-0.723107	-3.26133	-0.301756	0.000631	-1.103951	9.597774	3.42943	-0.343194	-2.184157	-0.133426	-2.640207	-0.505378	-0.504722	0.106273
-1.439159	1.586982	9.370516	0.144531	0.121509	0.185566	0.070716	-0.281818	-0.664441	0.862169	1.114639	9.583656	5.15612	-0.552409	-3.998704	-0.314286	0.032269	-1.120032	8.954773	3.141771	-0.057001	-1.512979	-0.396835	-3.558244	-0.491955	-0.554747	0.139911
-1.612367	2.046397	9.312253	0.084631	0.148478	0.492855	0.085208	-0.278664	-0.678866	1.22196	1.170892	10.270632	5.588121	-0.606842	-4.214693	-0.314587	-0.029013	-1.116018	9.009388	3.140647	-0.295528	-0.892133	-0.588871	-2.520464	-0.478188	-0.552891	0.108925
-1.37976	1.702306	9.485818	-0.345435	0.086749	0.339751	0.100844	-0.299524	-0.700536	0.749672	1.002289	9.694422	5.062704	-0.500104	-2.795972	-0.27625	-0.030931	-1.088145	9.309971	3.141208	0.009509	-0.583217	-0.961453	-1.877995	-0.463375	-0.488743	0.121175
-1.898473	1.816838	9.30572	-0.466728	0.27022	0.373749	0.058111	-0.301929	-0.685412	1.094286	0.776273	9.644847	5.070427	0.198749	-1.802522	-0.275734	-0.044108	-1.115841	9.369257	3.024921	0.010115	0.127464	-1.085988	-1.421538	-0.477491	-0.50514	0.121942
-1.725928	2.276487	9.367844	-0.49825	0.210004	0.25019	0.11385	-0.310484	-0.658657	0.648185	1.453718	10.372059	3.493092	-0.088168	-3.193901	-0.313701	-0.025797	-1.159067	9.489355	3.083221	0.132377	0.993206	-0.776991	-1.426148	-0.477909	-0.537525	0.123616
-1.610347	2.334087	9.427166	-0.497463	0.332932	0.252186	0.07186	-0.305832	-0.671685	0.581942	1.566154	9.974468	5.533326	0.230664	-1.092788	-0.327638	-0.044408	-1.114738	9.434471	3.200497	0.371398	2.107591	-0.408763	-1.156878	-0.463516	-0.487091	0.090119
-1.438252	1.874431	9.428576	-0.314111	0.116234	0.462811	0.10123	-0.313295	-0.69712	1.50342	1.339108	9.993621	3.562298	0.753118	-0.410962	-0.301762	-0.059578	-1.114286	9.426767	3.198767	-0.04795	2.225951	-0.398863	-2.074228	-0.477629	-0.522158	0.138307
-1.497035	2.448646	9.373022	-0.438646	-0.035217	0.215365	0.058111	-0.301929	-0.685412	1.66623	1.451066	9.544226	1.932219	1.371674	0.302923	-0.288855	-0.014614	-1.103223	9.129601	2.676016	-0.235398	1.325545	-0.638598	-2.864442	-0.491395	-0.524015	0.169292
-1.668301	1.759472	9.366786	-0.192162	0.149972	0.248333	0.072617	-0.316074	-0.682345	0.805382	1.340117	9.639276	0.706131	2.179512	0.988189	-0.314732	0.000556	-1.103675	9.480686	3.023167	-0.347126	0.645345	-0.792723	-2.983492	-0.436185	-0.536912	0.123826
-2.181405	1.817769	9.470712	-0.071076	0.029703	0.062023	0.07336	-0.309018	-0.710497	0.750234	1.340319	9.751347	-0.521719	2.83503	1.517798	-0.263349	-0.046177	-1.087418	9.192499	3.374029	0.068204	0.609477	-0.876406	-3.777576	-0.491466	-0.523189	0.153764
-1.842788	2.448412	9.252635	-0.284542	0.119506	0.186768	0.057739	-0.305457	-0.671336	1.217771	0.832719	10.043789	-1.04587	2.891105	1.302137	-0.275654	0.031422	-1.10651	8.956009	3.083942	0.002659	2.251114	-0.946838	-2.316203	-0.478188	-0.552891	0.108925
-2.125223	1.760045	9.414731	-0.314481	0.211211	0.219013	0.085208	-0.278664	-0.678866	1.152414	1.114195	9.70298	-0.924633	2.680034	0.991854	-0.314066	0.018021	-1.133378	9.610263	2.793066	0.253155	3.522852	-0.708295	-1.282824	-0.491328	-0.50617	0.137399
-1.269705	1.701258	9.260633	-0.406229	0.241513	0.219769	0.101244	-0.330594	-0.679628	0.98654	1.340125	10.03938	-1.325793	2.677354	0.621567	-0.314882	-0.030085	-1.101668	9.60092	3.023392	-0.225111	3.708775	-0.398899	-1.560037	-0.505307	-0.505548	0.121801
-1.83256	2.163376	9.763106	-0.530437	0.026513	0.155297	0.085952	-0.271607	-0.707018	1.212505	1.057852	9.81742	-2.220835	2.699268	0.220299	-0.340464	-0.013842	-1.11647	9.138019	3.317077	0.306484	2.72126	-0.338747	-1.801247	-0.46393	-0.538147	0.139214
-1.613522	2.103597	9.255641	-0.620809	0.271939	0.159546	0.072217	-0.285004	-0.703253	1.103418	1.058305	10.098201	-2.928329	2.906716	-0.055661	-0.301241	-0.012545	-1.131647	9.420975	2.848827	-0.408875	1.916155	-0.521384	-2.164209	-0.491537	-0.522363	0.138236
-1.442872	2.103232	9.202129	-0.346242	0.15169	0.034129	0.071474	-0.292061	-0.675101	1.153731	1.057912	9.759572	-3.542673	3.175057	-0.084315	-0.301686	-0.044258	-1.11529	9.306669	3.140466	-0.170212	1.419173	-0.857749	-2.344178	-0.491466	-0.523189	0.153764
-1.671848	2.045956	9.197433	-0.3763	0.243742	0.035712	0.113435	-0.262114	-0.697056	1.045853	1.058412	10.096992	-3.761738	3.014564	0.592132	-0.314367	-0.043261	-1.129364	9.482057	2.907263	-0.287713	1.607155	-1.204284	-1.304082	-0.463375	-0.488743	0.121175
-1.671973	2.218281	9.198157	-0.407635	0.308192	-0.239162	0.073017	-0.347145	-0.661438	1.324333	0.888502	9.649777	-3.421041	3.080606	0.531406	-0.301976	0.01488	-1.090605	9.47669	2.84795	-0.587495	1.638724	-1.516054	-0.722018	-0.477283	-0.488947	0.121105
-1.774109	2.048693	9.82059	-0.377687	0.122553	-0.119593	0.058125	-0.319228	-0.66792	0.756039	0.833534	9.977478	-3.94656	3.072333	0.777526	-0.275289	-0.012395	-1.132198	9.780844	2.733101	-0.103232	2.040854	-1.392886	-0.662937	-0.477491	-0.50514	0.121942
-1.609068	2.104562	9.483054	0.022158	0.308109	-0.056393	0.07186	-0.305832	-0.671685	1.163509	1.001961	10.212641	-3.61214	2.590241	0.125611	-0.28819	0.00285	-1.132926	9.482212	3.314042	-0.226076	1.79333	-1.267949	-0.998826	-0.477558	-0.522985	0.153834
-1.840271	2.046804	9.364652	0.236028	0.185836	-0.028328	0.100486	-0.320352	-0.668968	1.223816	0.832957	10.326987	-3.800783	2.313116	-0.062265	-0.289226	-0.031006	-1.08787	9.488099	2.676195	0.010832	1.731634	-1.143922	-1.18257	-0.463091	-0.492048	0.183286
-1.723577	2.104645	9.480827	0.021382	0.091248	0.093425	0.057339	-0.274387	-0.692244	0.926318	0.833116	9.867826	-3.491058	2.378365	-0.061367	-0.301461	0.001703	-1.118301	9.433485	2.677319	0.24936	1.203775	-1.294025	-1.63838	-0.491608	-0.521536	0.122709
-2.069123	1.817204	9.359233	0.420166	0.092065	0.184294	0.086352	-0.302678	-0.68611	1.267676	1.677332	9.762511	-2.965889	2.384827	-0.030052	-0.314292	-0.027941	-1.130367	9.72542	3.082681	0.136779	1.384976	-1.348234	-2.250026	-0.4777	-0.521332	0.122779
-1.881895	1.992782	10.159241	0.052346	0.121775	0.1245	0.087109	-0.312921	-0.696771	1.215916	1.170655	9.987434	-3.582806	2.439323	-0.184147	-0.288265	-0.01247	-1.131923	9.30775	2.675858	-0.17219	1.689645	-1.619591	-2.524895	-0.463513	-0.505762	0.13754
-1.66756	2.276687	9.425811	0.112703	-0.063025	0.182658	0.086366	-0.319977	-0.668619	1.157919	1.396085	9.986415	-4.324121	2.459373	0.000424	-0.301316	-0.027866	-1.130643	9.777968	3.022987	-0.22181	1.291465	-1.626076	-2.034425	-0.463583	-0.504936	0.122012
-1.895506	2.334536	9.478451	-0.101844	0.029907	0.031447	0.057753	-0.322756	-0.653844	1.150104	1.05777	9.589653	-4.571592	2.397323	-0.370329	-0.28841	0.017099	-1.11958	9.607657	2.966799	0.134083	1.597821	-2.024832	-1.819694	-0.463509	-0.524433	0.18496
-1.328653	2.50524	9.206045	-0.134075	-0.122157	-0.124272	0.05661	-0.298743	-0.6466	0.815699	1.002513	10.092109	-4.724817	2.516411	-0.122643	-0.30087	0.003847	-1.147	9.717156	2.848399	-0.343466	1.318347	-2.084171	-2.093461	-0.47735	-0.506792	0.152997
-1.549504	1.99012	9.597391	-0.041661	-0.029184	-0.153695	0.043633	-0.322382	-0.653495	1.041018	1.058223	9.870433	-4.078521	2.368502	0.307999	-0.301611	-0.028938	-1.116293	9.36553	2.733552	-0.230749	1.378112	-2.452909	-1.908543	-0.491675	-0.539381	0.154601
-1.433923	2.04772	9.656712	-0.285339	0.090512	0.03296	0.057739	-0.305457	-0.671336	1.509895	1.114023	10.276629	-3.587443	2.128854	0.398496	-0.301756	0.000631	-1.103951	9.657424	2.209204	-0.467099	1.347744	-2.671241	-1.510079	-0.491679	-0.52071	0.107181
-1.839158	2.047045	9.421505	0.203753	0.065199	-0.244871	0.086352	-0.302678	-0.68611	0.870978	1.565663	10.037152	-2.449646	1.743509	0.580548	-0.302717	-0.017905	-1.059898	9.370762	2.85094	0.06928	1.442957	-2.582924	-1.144095	-0.463442	-0.506588	0.153068
-1.439573	2.161397	9.372929	0.20336	0.003735	-0.245869	0.071845	-0.288532	-0.689177	1.094849	1.114303	9.701771	-1.864327	1.656346	0.980918	-0.327563	-0.029088	-1.115742	8.897398	2.909849	0.000817	1.380686	-2.830379	-0.898187	-0.449538	-0.487713	0.105717
-1.663888	1.817879	9.59444	0.478209	-0.148636	-0.249136	0.073389	-0.343616	-0.675514	0.983213	0.551308	9.812158	-1.001702	1.482931	1.041544	-0.28915	-0.015686	-1.088873	9.243521	3.02346	-0.411434	1.317633	-2.921107	-1.019777	-0.462607	-0.441818	0.149719
-1.552844	1.989397	9.426831	0.264689	0.066528	-0.337029	0.044747	-0.311797	-0.695723	1.103526	1.001974	10.098153	0.139981	1.404231	1.226649	-0.288114	0.018171	-1.13393	9.362904	2.44243	-0.411706	1.013401	-2.743726	-0.530518	-0.491258	-0.506996	0.152927
-1.720236	2.105369	9.651386	0.600791	-0.05413	-0.401293	0.087495	-0.326692	-0.693355	0.81382	0.720765	9.978592	-0.141847	1.123313	1.439426	-0.314732	0.000556	-1.103675	9.365125	2.90778	-0.230007	1.048335	-2.565124	-0.042492	-0.478117	-0.553717	0.124453
-1.897816	2.448936	9.365228	0.446678	-0.114919	-0.52451	0.100844	-0.299524	-0.700536	1.626797	1.451885	10.392611	-0.051075	0.971366	1.40716	-0.301241	-0.012545	-1.131647	9.364295	2.791381	-0.290408	1.268855	-2.418023	0.597829	-0.477767	-0.539177	0.154671
-1.665126	1.989962	9.538311	0.600224	0.010115	-0.645592	0.058496	-0.3157	-0.681996	0.976846	0.720063	9.529102	0.131795	0.760272	1.220239	-0.275214	0.002925	-1.133202	9.423581	2.675094	-0.289803	0.903515	-2.148781	1.056313	-0.449672	-0.523403	0.169503
-1.659683	2.163493	9.8233	0.812947	-0.234043	-0.711508	0.071845	-0.288532	-0.689177	1.042765	0.776617	9.926836	0.283965	0.578444	1.187726	-0.288705	0.016027	-1.10523	9.772601	2.963675	-0.521591	0.323143	-1.757642	1.484433	-0.505028	-0.490182	0.136492
-1.785327	2.161163	9.252542	0.781655	-0.201021	-0.925558	0.057367	-0.308985	-0.65726	0.985739	0.495073	9.92539	-0.058404	0.389137	1.339709	-0.28819	0.00285	-1.132926	9.591826	2.672711	-0.765756	-0.909257	-1.453349	1.212375	-0.449254	-0.491018	0.167828
-1.88841	1.761568	9.817157	1.05657	-0.228379	-1.110803	0.114221	-0.306955	-0.672733	0.867651	0.776846	9.80993	-0.464822	0.015459	1.42815	-0.301756	0.000631	-1.103951	9.416573	2.847838	-0.648502	-2.485863	-1.513248	0.545983	-0.463792	-0.521128	0.122849
-1.491918	1.530547	9.596574	1.209285	-0.194845	-1.294706	0.087109	-0.312921	-0.696771	1.103873	1.452666	10.155172	-0.588009	0.044557	1.428341	-0.301316	-0.027866	-1.130643	9.361284	3.139342	-0.408739	-3.476249	-1.820166	0.306531	-0.463788	-0.539799	0.17027
-1.665416	2.392053	9.54	1.330054	-0.345499	-1.51218	0.086337	-0.285379	-0.703602	0.808769	0.833237	9.752129	-1.208547	-0.206187	1.05541	-0.301756	0.000631	-1.103951	9.478216	3.138825	-0.466445	-4.400324	-2.135688	0.922644	-0.463024	-0.474203	0.151393
-1.840313	2.104246	9.364893	1.57349	-0.4645	-1.76016	0.073746	-0.322789	-0.707081	1.212505	1.057852	9.81742	-1.766594	-0.366567	1.053366	-0.288114	0.018171	-1.13393	9.58949	2.730292	-0.885323	-5.543056	-2.384503	0.92797	-0.463934	-0.519476	0.091793
-1.611502	2.391288	9.370554	1.665389	-0.432644	-1.821243	0.072631	-0.333374	-0.664854	0.92293	1.339996	9.754973	-2.201182	-0.554636	0.835349	-0.301686	-0.044258	-1.11529	9.413697	3.137724	-0.76708	-7.30339	-2.416369	0.445489	-0.464072	-0.536494	0.108158
-1.964843	2.102157	8.850989	2.031459	-0.5825	-2.008742	0.085952	-0.271607	-0.707018	0.756709	1.115234	10.034355	-2.667836	-0.835092	0.616388	-0.314512	-0.013692	-1.117021	9.301977	2.790774	-0.47123	-8.939072	-2.38819	0.115086	-0.477558	-0.522985	0.153834
-1.846828	1.873032	9.02281	2.427849	-0.668664	-2.379304	0.058868	-0.312171	-0.696072	1.104627	1.058352	10.15484	-3.596114	-0.968907	0.521826	-0.301536	-0.013617	-1.117297	9.246377	2.268719	-0.354741	-9.929026	-2.664832	-0.093948	-0.45016	-0.554961	0.155649
-1.831239	1.876409	9.818753	2.794266	-0.725629	-2.626631	0.072617	-0.316074	-0.682345	1.041988	0.551248	9.870006	-4.028055	-0.942724	0.367599	-0.275874	0.045671	-1.093164	9.657465	3.138914	-0.34333	-10.696654	-2.394195	0.090918	-0.463371	-0.507414	0.168595
-1.610389	2.391529	9.427407	3.711497	-0.777586	-3.090143	0.072974	-0.295247	-0.713913	0.874127	0.551761	10.092938	-4.369263	-1.097342	-0.096635	-0.289075	-0.000365	-1.089877	9.184235	3.139747	-0.41204	-11.405815	-2.614021	0.400165	-0.477629	-0.522158	0.138307
-1.664877	1.645313	9.536863	4.628319	-0.797071	-3.70647	0.100115	-0.32388	-0.654892	1.447363	0.550588	9.991748	-4.465845	-1.405169	-0.099773	-0.28878	0.000706	-1.104227	9.354121	2.905308	-0.829076	-12.76094	-2.155967	0.005569	-0.463513	-0.505762	0.13754
-1.434296	2.564694	9.658884	6.130954	-0.511039	-3.920827	0.101244	-0.330594	-0.679628	0.872487	0.777036	10.036488	-4.960435	-1.470154	-0.501583	-0.314512	-0.013692	-1.117021	9.25109	3.083267	0.008161	-13.746416	-2.037474	0.039135	-0.435555	-0.507006	0.168736
-1.491302	2.220086	9.656322	7.296156	-0.350898	-4.013585	0.100115	-0.32388	-0.654892	1.216563	0.832672	9.98715	-4.128656	-1.643764	-0.471812	-0.301611	-0.028938	-1.116293	9.25244	2.502507	0.005689	-13.958194	-1.611263	0.16012	-0.463583	-0.504936	0.122012
-1.657456	2.163975	9.937006	10.247365	0.825781	-3.573596	0.059254	-0.325942	-0.692656	0.868106	1.171207	9.866901	-4.159318	-1.642948	-0.656796	-0.30109	0.018096	-1.133654	9.010603	2.617963	-0.297753	-14.695147	-1.681723	0.804948	-0.422273	-0.555379	0.171317
-1.940843	2.796763	10.104652	10.780698	2.357496	-2.906198	0.045133	-0.325568	-0.692307	0.926988	1.114816	9.924702	-4.317806	-1.952164	-0.567514	-0.287744	0.034563	-1.149283	9.430474	3.02528	0.131029	-15.053197	-0.960575	1.933642	-0.421438	-0.490609	0.167969
-1.774849	1.531478	9.761565	17.046387	4.098958	-2.129222	0.08598	-0.306206	-0.672034	1.157573	0.945393	9.929396	-4.102946	-2.042624	-0.383273	-0.287744	0.034563	-1.149283	9.011048	3.373445	-0.174725	-15.043939	-0.170926	2.479981	-0.46365	-0.522781	0.153905
-1.695615	1.938352	10.90143	23.42685	8.340614	0.466799	0.072631	-0.333374	-0.664854	0.926533	0.720455	9.867731	-4.011782	-2.163908	-0.415233	-0.314732	0.000556	-1.103675	9.074061	3.548527	0.066745	-15.008632	-0.179327	3.30511	-0.464418	-0.569705	0.12536
-1.640878	2.339919	10.790526	30.404033	10.50269	2.383247	0.042847	-0.27754	-0.677818	1.393232	1.283183	10.217714	-3.946874	-1.917802	-0.412734	-0.30109	0.018096	-1.133654	9.550842	2.967429	0.252797	-13.400491	-0.276046	4.338917	-0.421927	-0.522168	0.154115
-1.990008	0.84524	10.436453	30.854511	14.417529	1.556217	0.073017	-0.347145	-0.661438	0.926426	0.776786	9.867778	-3.547114	-2.036978	-0.166973	-0.289	0.014955	-1.090881	9.602715	3.198114	-0.104555	-11.520568	-0.733481	4.853879	-0.463859	-0.538973	0.154742
-0.33468	2.578906	13.203818	20.01695	36.860636	-0.838574	0.115764	-0.362039	-0.65907	1.210087	1.057757	9.704141	-3.484313	-1.973656	-0.351261	-0.275804	0.000781	-1.104502	9.359643	3.371399	-0.467657	-10.250649	-0.460566	5.520388	-0.477488	-0.523811	0.169362
-2.294899	2.864628	12.484929	10.962317	42.372996	-5.537861	0.087523	-0.36129	-0.658371	1.560531	0.944639	9.937858	-3.327734	-1.788912	-0.16433	-0.301536	-0.013617	-1.117297	9.430649	3.896915	0.254551	-8.061748	-0.793904	5.972515	-0.491608	-0.521536	0.122709
-1.209173	4.242196	12.455024	20.882206	52.15735	-7.952907	0.07226	-0.336902	-0.650778	1.219758	1.058136	10.157258	-2.61408	-1.534776	-0.1304	-0.275804	0.000781	-1.104502	9.962875	3.431092	0.262478	-4.887579	-1.2142	6.299233	-0.449813	-0.52175	0.138447
-1.673019	3.034807	12.09993	18.973749	62.72921	-11.517254	0.10203	-0.375436	-0.655305	1.098691	1.001784	9.871595	-2.213933	-1.623286	0.115666	-0.262683	-0.028712	-1.117121	9.484838	3.605164	-0.045119	-2.666919	-0.710798	5.708065	-0.4777	-0.521332	0.122779
-1.087403	3.439379	12.794991	17.823534	72.7637	-16.196739	0.129485	-0.331344	-0.680326	0.926102	0.945777	9.867921	-1.561175	-1.308	0.05767	-0.327633	0.015802	-1.104403	9.846483	3.199305	0.319195	-0.63704	-0.197027	4.047801	-0.435626	-0.50618	0.153208
-1.429899	3.554752	12.845646	17.413525	83.006541	-20.016284	0.100115	-0.32388	-0.654892	1.393448	1.170522	10.217619	-0.660485	-0.928249	0.000515	-0.30153	0.046593	-1.106962	9.492251	3.258191	0.312839	1.370903	0.951765	3.08757	-0.450093	-0.537116	0.123756
-1.764352	3.327164	13.292824	17.076445	95.03033	-23.745816	0.11575	-0.34474	-0.676561	1.102748	0.776605	10.041324	-0.412395	-0.834326	0.186617	-0.301756	0.000631	-1.103951	9.255336	2.677476	0.186151	3.498876	1.424251	2.4969	-0.477488	-0.523811	0.169362
-1.30945	3.038901	13.129966	19.669045	104.662166	-26.725259	0.129128	-0.352171	-0.648759	0.975098	1.001668	9.4727	-0.842693	-0.685079	-0.028042	-0.327042	0.017945	-1.133103	9.251225	3.025191	0.007914	5.628165	2.018467	1.966775	-0.505583	-0.539585	0.154531
-2.12685	3.380753	12.319882	20.989071	115.716066	-28.328335	0.15544	-0.284065	-0.666536	0.933117	0.43904	10.150692	-1.151598	-0.71745	-0.367721	-0.301241	-0.012545	-1.131647	9.253831	2.851457	0.126986	6.580983	1.872423	1.627824	-0.477208	-0.508445	0.184053
-1.852701	3.205568	11.699342	16.857633	126.546866	-28.784438	0.142862	-0.338775	-0.652524	1.28028	0.776471	10.271509	-0.2229	-0.552768	-0.30368	-0.301605	0.031272	-1.105958	8.951857	2.501946	-0.299348	7.44201	1.53841	1.687427	-0.491395	-0.524015	0.169292
-1.999927	3.153558	12.946528	18.259146	136.441743	-31.173442	0.184524	-0.398853	-0.572944	1.33368	1.057873	10.103036	0.890535	-0.44626	-0.363382	-0.327708	0.000481	-1.1034	8.942763	2.151264	-0.839993	7.386027	2.024157	2.021508	-0.477208	-0.508445	0.184053
-2.079451	3.148774	11.808352	26.544358	143.710319	-32.152662	0.169232	-0.339866	-0.600334	0.873049	1.115066	10.093412	1.045901	-0.382366	-0.455105	-0.327193	-0.012695	-1.131095	8.888034	2.67532	-0.539334	6.622643	2.690264	2.418418	-0.436185	-0.536912	0.123826
-2.534928	2.690056	11.91122	31.658828	148.189664	-32.278577	0.253983	-0.376712	-0.567446	0.98058	0.663875	9.698974	1.078979	-0.198789	-0.329941	-0.327633	0.015802	-1.104403	8.829558	2.443151	-0.541423	6.202608	3.225462	3.762185	-0.463721	-0.521954	0.138377
-2.82916	2.918341	11.508646	46.28209	149.70628	-32.725454	0.255127	-0.400726	-0.57469	1.209525	0.719726	9.647217	1.419825	-0.13194	-0.513971	-0.288485	0.001778	-1.118576	8.641775	2.324931	-1.144288	4.42361	3.232282	5.449616	-0.435488	-0.489161	0.136843
-3.714493	2.625965	10.126263	52.644053	148.141005	-32.953279	0.253983	-0.376712	-0.567446	1.214899	0.438264	9.873538	1.699352	-0.006155	-0.450839	-0.302271	0.013808	-1.076255	8.761313	2.150681	-1.082922	1.481043	4.088891	7.381745	-0.46358	-0.523607	0.169432
-2.628104	3.084468	10.092497	58.264212	140.422634	-32.665567	0.281853	-0.38099	-0.554068	1.509572	1.283014	10.276771	2.25626	0.033779	-0.789102	-0.327193	-0.012695	-1.131095	8.640094	1.627277	-1.326976	-1.553357	4.726625	9.743194	-0.449463	-0.50721	0.168666
-3.657653	3.200339	10.12979	69.568618	131.143836	-33.339821	0.31008	-0.36444	-0.572258	1.385309	1.001198	9.821	2.409948	-0.054243	-1.098134	-0.314361	0.016949	-1.119029	8.999963	1.511551	-1.021333	-4.308707	5.23827	12.562768	-0.491049	-0.490804	0.15209
-3.07763	2.729494	7.581719	77.120924	124.020347	-33.293383	0.324243	-0.416712	-0.520132	1.275337	0.832612	10.044998	3.029969	0.136579	-0.941598	-0.313771	0.019092	-1.147728	9.351744	2.033178	-1.072412	-7.074169	5.55186	13.824498	-0.46365	-0.522781	0.153905
2.237607	0.987636	4.211109	62.337949	105.552112	-38.980554	0.352856	-0.413933	-0.534907	0.980149	0.889197	9.699163	4.142103	0.150488	-0.909737	-0.274988	0.048886	-1.136213	9.412691	2.14969	-0.951003	-9.625375	5.962411	14.657071	-0.463371	-0.507414	0.168595
6.112626	0.993303	6.275571	44.727105	75.587946	-59.11173	0.366233	-0.421364	-0.507104	0.757464	0.720921	10.034023	5.41069	0.348535	-0.598466	-0.301241	-0.012545	-1.131647	9.594682	1.917969	-0.709063	-10.791026	6.692057	14.688377	-0.519495	-0.521118	0.10704
9.384835	-0.271085	6.731703	44.233233	48.47748	-93.853683	0.380368	-0.439038	-0.489961	1.269639	1.283066	9.818819	6.248049	0.633693	-0.37916	-0.339943	0.033191	-1.133831	10.010306	2.731078	-0.458272	-10.014847	7.398732	14.651626	-0.421789	-0.505149	0.13775
7.314375	-2.179921	3.216729	40.426455	23.112214	-132.339987	0.365862	-0.424893	-0.493028	1.21503	1.001616	9.930652	7.640626	0.864173	-0.098295	-0.314877	0.030125	-1.091333	9.607077	2.269392	0.011303	-8.202229	7.076026	13.943574	-0.450022	-0.537943	0.139284
7.58641	-3.147426	5.377498	7.156452	-17.878055	-149.700406	0.421229	-0.436976	-0.452197	1.159428	0.607458	9.985751	8.753715	0.969071	0.088612	-0.340904	0.014655	-1.089778	9.839165	2.558491	-0.16278	-5.749686	6.521643	12.195071	-0.463513	-0.505762	0.13754
6.13961	-2.447882	7.51186	-3.397602	-47.038636	-152.385072	0.43455	-0.37521	-0.494361	0.985654	1.171086	9.982598	9.098217	1.370011	0.401157	-0.314361	0.016949	-1.119029	10.433708	2.093274	0.025967	-3.728052	6.057481	10.447722	-0.449743	-0.522576	0.153975
4.949681	-2.674124	8.112896	-0.891819	-62.199933	-145.517551	0.420815	-0.388606	-0.490596	1.446716	0.888571	9.992033	9.098335	1.399267	0.617245	-0.288334	0.032419	-1.120584	10.259171	2.907732	0.265755	-2.198625	5.837846	8.548188	-0.449538	-0.487713	0.105717
4.131126	-2.275072	7.2462	-4.229401	-70.177204	-132.071159	0.43645	-0.409466	-0.512266	0.990382	1.227607	10.209204	8.94469	1.487489	0.895452	-0.301686	-0.044258	-1.11529	9.965035	2.501875	0.258522	-0.576263	6.269772	5.789434	-0.491328	-0.50617	0.137399
3.685174	-2.04232	7.863641	-13.790524	-76.85934	-113.400379	0.422344	-0.426391	-0.494425	1.038277	1.227119	9.757296	8.203802	1.538204	1.080329	-0.314367	-0.043261	-1.129364	10.371411	2.557523	-0.092969	0.830589	6.079338	3.981968	-0.463583	-0.504936	0.122012
2.662098	-1.637795	8.243259	-20.868908	-85.598001	-91.335541	0.449799	-0.382299	-0.519447	0.984984	0.889386	9.925722	7.679982	1.624541	0.926625	-0.288855	-0.014614	-1.103223	9.772851	2.382667	-0.58397	1.809596	5.880101	2.879079	-0.449396	-0.489365	0.136773
2.503158	-0.888035	8.925293	-21.42869	-96.688342	-68.04202	0.463548	-0.386201	-0.50572	1.271818	0.776139	9.875032	6.565486	1.426442	0.923759	-0.366786	-0.030385	-1.100565	10.079341	2.210236	0.019859	3.46231	4.946927	1.991206	-0.463442	-0.506588	0.153068
1.414909	-0.312833	8.906549	-20.151145	-107.514886	-45.611678	0.422701	-0.405563	-0.525993	1.388289	1.339323	9.991203	5.145128	1.440888	0.645306	-0.301021	-0.026794	-1.144993	9.427308	2.966463	-0.048939	3.546474	4.466326	1.167987	-0.435976	-0.52072	0.122989
1.140512	0.207002	9.528538	-18.314721	-116.167951	-24.837618	0.449442	-0.403126	-0.487879	1.27141	1.621144	9.932383	4.428963	1.001762	0.763676	-0.315247	0.013733	-1.075979	9.777253	2.383656	-0.344343	3.599411	3.893215	0.406453	-0.505165	-0.5072	0.152857
0.624808	0.781791	9.520929	-18.308834	-122.63121	-5.405394	0.451285	-0.368185	-0.57575	1.620298	1.057287	10.052441	2.974542	0.770297	0.513579	-0.315253	-0.046477	-1.086315	9.660726	2.209945	-0.287379	4.142101	3.763381	-1.642595	-0.505165	-0.5072	0.152857
0.008454	0.670259	10.190436	-19.184512	-126.614633	11.920798	0.478783	-0.375991	-0.548297	1.385871	1.339229	9.877924	2.075931	0.544478	0.479782	-0.301756	0.000631	-1.103951	9.595127	2.673452	-0.586036	3.609369	3.529384	-2.862042	-0.435768	-0.504527	0.122152
0.016207	0.729389	10.588648	-20.861282	-129.68163	26.748032	0.409681	-0.377304	-0.585363	1.68447	1.395447	10.393772	1.270193	0.32084	0.291942	-0.314292	-0.027941	-1.130367	9.653428	2.033987	-0.707469	3.508667	3.172058	-3.837958	-0.491817	-0.537729	0.123546
-0.383709	1.074569	10.639155	-24.471373	-131.248036	38.629806	0.42343	-0.381207	-0.571636	1.04322	1.170979	9.983807	0.741992	0.069462	0.196533	-0.28878	0.000706	-1.104227	9.712869	2.324479	-0.645225	2.823773	2.871599	-4.59809	-0.505028	-0.490182	0.136492
-0.903826	1.590951	10.403893	-29.310074	-130.996786	47.018004	0.452443	-0.409498	-0.565503	1.151852	0.776165	9.646056	0.280647	0.217511	0.105149	-0.301391	-0.043186	-1.12964	9.536651	2.441283	-0.588125	1.677707	2.566955	-5.112034	-0.450231	-0.554135	0.140121
-0.906011	1.533027	10.289946	-33.609455	-130.394087	51.761623	0.454701	-0.422927	-0.614975	1.501541	1.05736	9.880105	0.094035	0.122762	0.165713	-0.288114	0.018171	-1.13393	9.42219	2.326143	-0.4111	0.807924	2.172486	-5.718233	-0.477279	-0.507618	0.168525
-1.458679	1.76755	11.303132	-36.721695	-129.323335	53.688775	0.469207	-0.437073	-0.611909	1.442874	1.00109	9.822209	0.588067	0.098972	0.07339	-0.327783	-0.014839	-1.102396	9.600474	2.267909	-0.348139	-0.18748	1.657738	-6.56789	-0.491537	-0.522363	0.138236
-1.684273	1.653557	11.468754	-39.539727	-128.184233	52.427736	0.441352	-0.450095	-0.607794	1.22129	0.889192	10.213755	0.58787	0.040661	-0.389611	-0.30065	-0.010402	-1.160346	9.24101	2.209407	-0.654523	-1.581777	1.386266	-7.417258	-0.463442	-0.506588	0.153068
-1.965351	2.171944	11.749624	-39.677158	-128.455062	49.143264	0.414968	-0.431704	-0.677476	0.980711	1.227227	9.756087	0.862487	-0.202741	-0.145186	-0.327337	0.016874	-1.118753	9.125719	1.977867	-0.537899	-2.26548	1.363009	-8.36206	-0.463371	-0.507414	0.168595
-2.071159	2.461165	12.203428	-40.266947	-130.727684	43.221443	0.402362	-0.451815	-0.698447	1.2157	1.283316	9.987529	0.395723	-0.4838	-0.271669	-0.314958	-0.045405	-1.100664	9.179928	2.150972	-0.775685	-3.312389	1.729153	-8.635064	-0.435972	-0.539391	0.17041
-2.071366	2.748372	12.204635	-40.224969	-133.745504	35.476479	0.446224	-0.456125	-0.738306	0.854916	1.114355	9.243818	0.614439	-0.26781	-0.053548	-0.314292	-0.027941	-1.130367	9.486979	2.211092	-0.110959	-3.805289	1.695528	-8.510875	-0.450302	-0.553309	0.124593
-2.471857	2.346572	12.195151	-39.425952	-137.265115	26.18768	0.403434	-0.389332	-0.79315	1.094202	1.452286	9.702055	0.336663	-0.298581	-0.578155	-0.314361	0.016949	-1.119029	9.363984	1.977822	-0.413684	-4.666339	1.936511	-8.447785	-0.46365	-0.522781	0.153905
-3.097285	2.462876	12.410798	-37.829976	-139.778645	15.287167	0.406435	-0.395704	-0.870774	1.213929	0.945238	9.873965	1.013956	-0.445497	-0.239962	-0.340464	-0.013842	-1.11647	9.660706	1.74509	-0.349263	-5.342812	2.21001	-8.507762	-0.450373	-0.552483	0.109066
-4.141309	2.57561	11.709001	-35.765257	-140.624724	3.982337	0.393057	-0.388273	-0.898577	1.389713	1.22671	10.047748	0.827343	-0.568899	-0.487964	-0.339949	-0.027019	-1.144166	9.251319	2.037404	-0.116103	-5.525362	2.732526	-8.815202	-0.477909	-0.537525	0.123616
-4.997816	2.461831	11.805522	-34.438038	-141.750986	-7.325688	0.336932	-0.365947	-0.928748	1.330723	1.339431	9.989994	0.113347	-0.882149	-0.86159	-0.275364	-0.027716	-1.131195	9.307284	1.45552	-0.357102	-6.386359	3.128667	-8.966778	-0.46456	-0.568053	0.094305
-6.010321	2.741299	9.797941	-34.821851	-143.058149	-16.945577	0.281565	-0.353864	-0.969579	1.208447	1.283032	9.647691	0.701232	-0.784116	-0.644346	-0.275879	-0.014539	-1.103499	9.474854	1.743517	-0.83182	-6.753709	3.184418	-8.568424	-0.476861	-0.475233	0.166851
-8.020456	3.660608	9.478564	-51.31795	-139.962712	-22.736758	0.252938	-0.339344	-0.972296	0.989389	1.114898	10.15247	0.082336	-0.883145	-0.769141	-0.301605	0.031272	-1.105958	9.533735	1.801458	-0.830472	-7.124419	3.091317	-8.566637	-0.449672	-0.523403	0.169503
-10.00205	3.609442	10.576413	-55.324871	-132.956661	-23.86897	0.153708	-0.322951	-0.973267	1.387296	1.226615	9.934469	-0.659515	-0.95187	-1.078701	-0.28893	-0.029934	-1.102219	9.476474	1.046605	-0.834787	-8.658609	3.257965	-7.461683	-0.491746	-0.538555	0.139073
-11.87825	3.843471	11.22287	-44.019149	-122.910328	-18.401401	0.141017	-0.239265	-1.099189	0.925456	1.28376	9.868205	-0.257813	-0.946372	-1.13998	-0.301901	0.0302	-1.091609	9.423385	1.338603	-0.47521	-9.974706	3.327944	-5.806943	-0.463859	-0.538973	0.154742
-13.728001	3.55373	10.276382	-27.634333	-111.90248	-8.915241	0.113147	-0.234988	-1.112567	1.100785	1.170871	9.985016	1.686563	-1.075003	-1.139694	-0.288265	-0.01247	-1.131923	9.182649	1.454306	-0.718744	-11.693992	2.96633	-3.96529	-0.491328	-0.50617	0.137399
-15.861133	2.345613	9.434172	-11.917658	-98.254141	6.012649	0.058165	-0.236676	-1.149982	1.50275	1.057408	9.936744	1.531662	-1.165134	-1.726447	-0.302126	-0.015761	-1.088598	8.647237	1.396457	-0.968523	-14.095386	2.33012	-2.425452	-0.464143	-0.535668	0.09263
-18.04558	0.621771	8.872943	-2.381099	-80.470204	25.102452	0.013517	-0.187524	-1.134446	1.26612	1.226593	9.648853	2.790948	-1.645544	-0.836198	-0.326602	-0.010552	-1.159795	9.065022	1.280348	-0.721687	-16.247351	1.596411	-0.244215	-0.464072	-0.536494	0.108158
-19.560173	-0.416889	7.475174	-0.786454	-58.889281	44.887816	-0.01511	-0.173004	-1.137163	1.507262	1.226589	10.163445	4.058487	-1.567539	-0.926887	-0.28819	0.00285	-1.132926	8.94782	1.397018	-0.663487	-18.400415	0.678536	1.999069	-0.492025	-0.553921	0.124383
-22.936068	-18.758913	56.433676	-17.566513	-27.573546	60.589964	-0.055585	-0.188838	-1.171512	1.152198	1.226856	9.703075	3.039465	-1.492101	-0.372052	-0.327563	-0.029088	-1.115742	9.302031	0.873276	-0.719016	-19.715315	0.808433	3.7759	-0.463721	-0.521954	0.138377
-22.191219	-1.920567	4.576138	135.697901	70.082738	48.859216	-0.070106	-0.157393	-1.19207	0.527656	1.115713	10.086159	3.318445	-1.397785	-0.185921	-0.340313	0.016799	-1.118477	9.652307	1.568884	-0.82926	-19.102019	0.475426	3.653013	-0.463446	-0.487917	0.105647
-14.785756	13.794891	0.524143	157.957412	123.372911	-5.472372	-0.069691	-0.205763	-1.153671	0.923361	1.114674	9.754784	2.723979	-1.988275	-0.130615	-0.327708	0.000481	-1.1034	10.011211	1.394835	-0.583772	-18.365045	1.104695	2.210851	-0.477976	-0.55537	0.155509
6.995581	5.491498	10.630817	18.899037	114.186307	-35.156771	-0.070063	-0.209291	-1.139595	1.155047	1.001629	9.816164	2.745241	-2.811218	-0.847826	-0.314807	-0.014764	-1.102672	9.841886	1.861826	-0.10584	-19.266272	2.143009	5.021026	-0.505587	-0.520914	0.10711
1.780886	3.438513	13.134931	-23.759974	91.310136	-67.279757	-0.02693	-0.237957	-1.133811	0.709569	0.721408	10.485931	1.004732	-3.718041	-1.53646	-0.301536	-0.013617	-1.117297	10.741494	3.257581	0.875111	-19.430758	2.69329	7.953184	-0.464068	-0.555165	0.155579
-3.066174	5.3747	8.275056	65.096279	91.264274	-62.136754	0.000554	-0.228463	-1.123849	1.177477	1.284183	10.892554	8.110015	-3.801012	-3.196277	-0.327638	-0.044408	-1.114738	11.384339	3.13846	0.52728	-14.731787	-1.043112	10.032422	-0.478255	-0.570736	0.140818
-1.966175	5.491449	8.922079	65.837674	109.49484	-35.736335	-0.000575	-0.221749	-1.099113	0.789484	1.28789	14.281258	-5.804091	-21.51405	0.963162	-0.340464	-0.013842	-1.11647	11.628647	2.907346	0.950041	-8.823461	-4.794792	2.173885	-0.478535	-0.586102	0.126127
-4.719292	4.573168	8.580505	21.830019	101.189422	-9.520029	0.014317	-0.249665	-1.09263	1.113759	1.340384	10.608194	-2.572059	-39.556301	-0.662531	-0.314512	-0.013692	-1.117021	10.213839	1.283964	0.796894	-6.097917	-6.305433	-4.613669	-0.464001	-0.537321	0.123686
-2.691915	2.910738	9.749541	0.690016	83.354133	4.787659	0.028438	-0.25004	-1.09298	0.767402	1.456028	13.261888	-4.622543	-47.828203	-1.332144	-0.327708	0.000481	-1.1034	9.492596	1.689397	0.126443	-6.499568	-4.594335	-1.625294	-0.477767	-0.539177	0.154671
-4.570751	-1.5543	12.990339	-6.497164	30.293101	-7.064071	0.057436	-0.261032	-1.104338	0.688724	1.117299	12.240882	-6.524521	-61.234307	0.043639	-0.340979	-0.000666	-1.088774	9.64725	2.32313	-1.005767	-0.390733	-3.893525	3.697785	-0.491888	-0.536903	0.108018
-1.7831	2.161646	9.366248	18.401115	1.702987	-4.410865	0.056708	-0.285388	-1.058694	0.774332	1.625304	13.601868	-11.340891	-75.476399	1.47044	-0.314958	-0.045405	-1.100664	10.652206	3.018489	-0.804372	-0.560611	-3.422823	11.367898	-0.477629	-0.522158	0.138307
-0.465051	2.046051	9.448229	16.471985	10.401162	-2.485165	0.071971	-0.309776	-1.066288	0.352894	1.174656	12.686792	-17.791905	-91.805233	4.324133	-0.315693	-0.01798	-1.059622	11.488606	2.902672	-0.250298	0.342581	-4.833925	15.039295	-0.464627	-0.585898	0.126197
-1.94785	1.703685	9.702096	1.637065	14.474452	-1.854895	0.08492	-0.251538	-1.094376	0.314563	1.231853	13.591864	-25.327498	-108.566292	5.230498	-0.379536	0.015502	-1.1033	11.826561	1.794214	-1.26681	-4.546952	-7.083765	15.006611	-0.478117	-0.553717	0.124453
-1.541005	1.015303	9.99126	6.541473	10.984362	-3.765845	0.085706	-0.29638	-1.070053	0.376663	2.02061	13.876935	-32.282057	-125.695679	7.027715	-0.405934	-0.016361	-1.086392	11.708144	2.433568	-1.206385	-9.581647	-7.336372	8.118204	-0.519979	-0.571348	0.140607
-1.723903	1.013015	9.419389	8.373833	8.820595	-1.935512	0.099398	-0.231085	-1.126293	0.784302	0.837009	13.997681	-35.348639	-143.233734	8.207451	-0.432175	0.042627	-1.061155	11.244589	3.482489	-0.611669	-8.260586	-4.559435	3.27101	-0.4777	-0.521332	0.122779
-1.314297	1.129538	9.88249	15.562229	6.51415	-1.595004	0.057422	-0.243732	-1.12183	0.621085	1.570056	14.504427	-40.026134	-161.044826	10.184746	-0.420311	-0.006475	-1.015371	10.789412	4.24276	0.401159	-0.484902	-3.487062	2.80984	-0.492305	-0.569287	0.109692
-1.496413	1.587023	9.369403	20.030718	5.174179	-0.862942	0.099069	-0.286511	-1.059742	1.207187	1.794727	15.026462	-36.382794	-180.786476	8.758424	-0.446187	0.008695	-1.015823	10.730645	3.661888	0.337679	2.171252	-4.293323	4.790715	-0.464206	-0.572184	0.171944
-1.0892	1.93283	9.719763	19.052385	5.069063	-0.125801	0.084549	-0.255066	-1.080301	1.04226	0.893999	15.305275	-37.451602	-199.162837	9.684873	-0.459904	-0.024165	-0.984841	10.442572	3.489818	0.690877	-1.292461	-4.81377	3.644315	-0.4777	-0.521332	0.122779
-1.612657	2.448488	9.313942	16.597262	4.16015	0.418517	0.070843	-0.303062	-1.041552	0.47362	0.388339	15.575957	-28.190491	-216.613017	10.813825	-0.498086	0.068605	-1.004385	10.496376	3.83715	0.453833	-3.74256	-3.863892	-0.324571	-0.492301	-0.587959	0.157113
-1.608985	1.989679	9.482571	13.132222	3.774509	0.48356	0.072343	-0.306248	-1.080364	1.794537	0.104066	15.433606	-18.898339	-231.578701	12.121638	-0.525375	-0.026684	-0.954763	9.617311	3.550032	0.735624	-0.479813	-3.934763	-1.222367	-0.477625	-0.54083	0.185727
-1.442996	2.275556	9.202852	8.927908	3.114412	0.055584	0.098298	-0.258969	-1.066574	2.763586	0.045524	15.000993	-5.88316	-242.870809	12.790704	-0.564592	0.032229	-0.92925	9.495532	2.794077	0.430675	-0.52919	-2.995873	-0.340352	-0.492305	-0.569287	0.109692
-1.668715	2.333887	9.369199	8.308047	2.505611	-0.719226	0.08532	-0.282608	-1.073469	2.811804	-0.123955	14.548943	9.469391	-250.078123	13.101441	-0.565628	-0.001627	-0.884194	9.192748	2.793022	0.005825	-1.972552	-3.291515	1.13331	-0.463926	-0.556818	0.186634
-1.496786	2.103997	9.371574	6.287087	2.459873	-0.223463	0.085335	-0.299908	-1.055977	4.448131	0.096961	13.054922	21.523663	-251.744852	14.358578	-0.617532	-0.001927	-0.883091	8.536003	2.7347	-0.425876	-2.24859	-3.854144	2.206709	-0.519908	-0.572174	0.156135
-1.264179	1.759906	9.54514	5.338821	2.544155	0.087316	0.072714	-0.302719	-1.09444	4.444073	0.322141	12.885193	24.875347	-243.712535	8.768529	-0.618267	0.025498	-0.842049	9.001799	2.615985	-0.777008	-3.673064	-4.747892	2.368951	-0.52005	-0.570522	0.125079
-1.432768	1.99052	9.713324	5.675172	2.234937	0.388001	0.086121	-0.344749	-1.031654	4.20377	-0.748182	12.31306	28.020045	-239.512001	6.438968	-0.645405	-0.03915	-0.794434	8.540135	2.851841	-0.185754	-5.774829	-5.025055	1.827745	-0.477767	-0.539177	0.154671
-1.148474	1.645181	9.603737	5.031757	2.106224	0.633104	0.08532	-0.282608	-1.073469	3.063529	-1.085967	10.080862	27.591795	-241.835682	4.072591	-0.710945	0.003221	-0.753017	8.490773	3.435209	0.414687	-4.410608	-5.251948	3.535445	-0.45016	-0.554961	0.155649
-1.601108	1.876485	9.88006	5.396706	1.896992	0.260639	0.086078	-0.292851	-1.084129	4.877926	-1.146837	8.816789	7.291796	-235.122649	3.937944	-0.711611	-0.014243	-0.723314	8.619654	3.030632	0.954319	-1.315322	-4.891134	5.203529	-0.50628	-0.587337	0.141514
-1.725638	1.874397	9.366155	3.923415	1.771369	-0.105177	0.113919	-0.26253	-1.105735	7.972276	-1.322218	8.202252	-17.750373	-234.768495	-0.302152	-0.764921	-0.064792	-0.661801	8.750621	3.149481	1.675898	0.813292	-4.419926	4.73511	-0.464068	-0.555165	0.155579
-1.834828	2.220335	9.649641	2.727181	1.61213	-0.104322	0.0712	-0.282234	-1.07312	3.262253	-1.031301	8.613115	-6.206641	-197.903776	-14.230805	-0.778117	-0.050619	-0.648179	9.281362	3.322494	1.686543	2.198938	-3.945703	3.719219	-0.46421	-0.553513	0.124523
-1.5507	2.104762	9.54102	1.930877	1.481659	0.233197	0.099441	-0.282983	-1.073818	-8.523316	-1.686987	6.326903	13.637023	-141.27807	-17.444101	-0.753641	-0.055828	-0.576982	9.331979	3.146153	1.207647	4.813555	-4.917952	3.989464	-0.478393	-0.587755	0.157183
-1.145465	2.105437	9.776227	1.685018	1.451173	0.110738	0.084934	-0.268837	-1.076885	-6.455178	-0.897614	11.636153	28.705184	-45.669107	-4.150861	-0.767653	-0.08976	-0.53165	9.510533	2.971767	1.270113	7.90309	-4.980649	5.201134	-0.492301	-0.587959	0.157113
-1.672056	2.333164	9.19864	0.6734	1.447146	0.052248	0.071228	-0.316833	-1.038136	-9.91965	-3.203652	8.164507	35.48767	27.260545	7.307952	-0.741406	-0.088538	-0.546551	9.435706	3.142669	0.431058	8.648107	-5.794723	7.280701	-0.505862	-0.554952	0.13984
-1.381288	2.27648	9.431378	-0.214236	1.470947	0.300533	0.100212	-0.310525	-1.066986	-6.271705	-2.592289	6.59985	34.425677	50.691255	8.341684	-0.740741	-0.071074	-0.576254	9.30889	3.605816	0.011487	8.343537	-5.275197	7.218195	-0.491884	-0.555574	0.155438
-1.450335	1.642011	8.802226	-1.287873	1.374787	0.210057	0.056322	-0.271617	-1.06211	-4.816021	-3.272717	4.648327	22.4318	37.04014	0.643304	-0.792199	-0.039661	-0.591508	9.539183	3.720192	-0.283151	8.612874	-5.413903	5.934173	-0.491537	-0.522363	0.138236
-1.266572	1.989189	9.432399	-1.500588	1.52501	0.427786	0.070057	-0.25822	-1.065875	-5.453491	-2.314008	4.522556	-0.401376	25.55485	-12.560249	-0.780259	-0.073442	-0.546727	9.943762	3.601117	-0.755198	7.525809	-4.005678	2.477667	-0.492092	-0.571766	0.156275
-1.666281	2.047162	9.481699	-1.16456	1.373273	0.393685	0.099055	-0.269212	-1.077234	-5.991085	-1.353746	6.380379	-16.778684	36.154609	-24.521348	-0.819036	-0.043027	-0.547907	9.536287	3.545222	-0.463614	5.94379	-3.123955	-0.515997	-0.492301	-0.587959	0.157113
-1.660258	1.416512	9.76331	-0.550459	1.591952	0.334136	0.10057	-0.289697	-1.098554	-6.467811	-0.224459	8.409473	-13.615296	65.491433	-32.827562	-0.778563	-0.082332	-0.631822	9.53175	3.602309	-0.702994	3.991955	-2.989041	-2.404448	-0.51942	-0.540616	0.169989
-1.440396	1.759065	9.314387	0.2742	1.228426	0.203182	0.084934	-0.268837	-1.076885	-6.308065	0.225388	7.847084	-5.712968	96.147687	-37.664174	-0.766253	-0.099721	-0.602395	9.409856	3.369286	-0.945812	1.154061	-3.090064	-2.485375	-0.491466	-0.523189	0.153764
-1.721101	1.760479	9.593085	0.855931	1.045016	0.351866	0.0712	-0.282234	-1.07312	-5.113698	0.222555	7.192795	-6.158933	114.153368	-41.369425	-0.765512	-0.066936	-0.633101	8.762184	3.196791	-0.898751	-0.572115	-3.718137	-1.49813	-0.477554	-0.541656	0.201255
-1.321807	2.276921	9.546198	1.557022	0.777631	-0.175852	0.070471	-0.30659	-1.027476	-3.675317	0.614175	7.22335	-16.861659	120.069102	-43.723562	-0.764111	-0.076897	-0.703847	9.004466	3.836818	-0.472282	-2.914491	-3.41784	-1.766142	-0.505721	-0.556604	0.170896
-1.321558	1.932272	9.54475	1.466115	0.8055	0.039538	0.072314	-0.271649	-1.115348	-3.318136	1.402677	7.854303	-25.295356	122.617833	-42.19454	-0.724957	-0.030711	-0.707685	8.702492	3.487306	-0.898616	-6.0974	-3.63298	-2.762145	-0.505512	-0.540412	0.170059
-1.84023	1.989363	9.364411	2.017535	0.808771	-0.023332	0.070828	-0.285762	-1.059044	-3.413579	1.854343	8.815138	-28.782733	128.266213	-36.530871	-0.736903	-0.057139	-0.762801	8.826932	2.152029	-0.72238	-9.836433	-3.723664	-4.154024	-0.492022	-0.572592	0.171803
-1.889731	2.048534	9.76151	2.291924	0.814231	-0.392048	0.071971	-0.309776	-1.066288	-3.402029	2.13647	9.381771	-28.609401	137.774527	-28.421331	-0.684704	-0.055767	-0.778253	8.760813	3.312696	-0.958164	-11.666739	-4.578179	-4.968485	-0.519979	-0.571348	0.140607
-1.602263	1.933685	9.823448	2.660405	0.907796	-0.36092	0.086478	-0.323922	-1.063221	-2.537986	2.472883	9.456829	-30.439944	147.53761	-21.081402	-0.683523	-0.051479	-0.835652	9.124794	2.849255	-0.474284	-12.00907	-5.132199	-4.750669	-0.478184	-0.571562	0.156346
-1.378937	2.104638	9.544361	3.272798	0.880969	-0.455123	0.057079	-0.281859	-1.07277	-1.431962	1.738966	9.988938	-33.312574	155.225053	-16.999706	-0.657201	-0.034937	-0.851557	9.124659	2.907331	-0.474036	-12.873458	-5.723104	-4.102921	-0.519908	-0.572174	0.156135
-1.6035	2.105769	9.767319	3.456356	0.945377	-0.638613	0.084563	-0.272366	-1.062809	-0.679423	2.075737	10.231497	-36.656825	159.442389	-17.268693	-0.642598	0.001138	-0.925589	8.419381	3.548777	-0.244895	-14.606438	-6.244903	-4.522019	-0.492092	-0.571766	0.156275
-1.490064	2.048003	9.712452	3.08766	1.008948	-0.973867	0.086106	-0.32745	-1.049145	0.019824	2.074776	10.642481	-38.540439	161.64477	-20.454289	-0.589809	0.004654	-0.969741	9.006761	2.849525	-0.476485	-15.350412	-6.395147	-5.038157	-0.477488	-0.523811	0.169362
-1.660672	1.990927	9.765723	3.209879	1.104497	-1.218011	0.084934	-0.268837	-1.076885	0.606381	2.693808	11.221488	-38.305243	165.081369	-25.598777	-0.562601	0.024412	-1.028695	9.018711	2.445465	0.120854	-15.848864	-6.325027	-6.075778	-0.492092	-0.571766	0.156275
-1.840437	2.27657	9.365617	3.090008	1.471662	-1.119695	0.086078	-0.292851	-1.084129	0.84234	2.242922	11.452502	-37.929378	169.809703	-31.285113	-0.49713	0.026931	-1.058773	9.08543	2.447061	0.541302	-16.159523	-5.855963	-7.177097	-0.505929	-0.572797	0.171733
-1.553833	1.816831	9.369254	2.507958	1.718621	-1.451355	0.044502	-0.336569	-1.058758	1.537637	2.41081	11.69371	-37.828092	174.838695	-36.660353	-0.445522	0.026159	-1.045526	9.559085	2.736855	0.671156	-14.831384	-5.483189	-7.275369	-0.505792	-0.555778	0.155368
-1.199296	1.991319	9.94519	2.385324	1.749475	-1.511837	0.057479	-0.31293	-1.051863	1.251258	2.918419	11.801371	-35.91594	179.083752	-40.438951	-0.341199	0.013583	-1.075428	9.144311	2.505002	0.54265	-13.104845	-5.756373	-6.883023	-0.561561	-0.573613	0.171452
-1.551689	1.932196	9.483443	2.537569	1.690466	-1.666576	0.084206	-0.293193	-1.031241	1.493716	2.862131	12.372556	-33.802201	182.397023	-41.853073	-0.314952	0.014805	-1.090329	9.202923	2.679095	0.544492	-10.508568	-5.572984	-5.976462	-0.478322	-0.588581	0.172711
-1.492581	2.449611	9.600435	2.506288	1.629555	-1.728812	0.058237	-0.323172	-1.062523	1.028812	3.257165	12.193298	-31.797151	184.62491	-41.428552	-0.314211	0.04759	-1.121036	8.792145	2.622458	0.656356	-9.419566	-5.339526	-4.514564	-0.520326	-0.604559	0.157809
-1.845756	1.930715	9.079904	2.906519	1.876573	-1.664613	0.082662	-0.238109	-1.044904	1.14569	2.975344	12.252118	-30.327894	186.276667	-38.235888	-0.23606	0.049112	-1.13704	8.856779	2.100628	0.894859	-8.058061	-5.375007	-3.571907	-0.506138	-0.588989	0.17257
-1.25985	1.933195	9.773276	2.630341	1.782395	-1.604012	0.084963	-0.303436	-1.041901	1.548194	2.580229	12.203609	-30.224026	187.651863	-32.858409	-0.196756	0.125939	-1.142885	9.497173	2.56202	0.489593	-7.721501	-5.617234	-3.694218	-0.491813	-0.5564	0.170966
-1.776709	2.565184	9.709056	3.21342	2.001973	-1.755463	0.0712	-0.282234	-1.07312	2.522617	2.240224	11.997317	-32.637715	187.774146	-28.111896	-0.107481	0.045574	-1.082398	8.911953	2.332056	0.717227	-6.766564	-5.829492	-3.543853	-0.478181	-0.590233	0.203766
-1.721391	2.162569	9.594774	3.488908	1.816438	-1.544594	0.100212	-0.310525	-1.066986	3.340082	2.520842	12.580875	-36.617903	185.676608	-28.875809	-0.068548	0.106009	-1.07289	8.971935	2.390244	0.778482	-5.254424	-5.950825	-3.120882	-0.478322	-0.588581	0.172711
-1.945996	2.221142	9.817974	3.30309	1.570769	-1.640056	0.11549	-0.352213	-1.057088	4.213665	2.294282	13.051936	-37.408996	183.624729	-35.154572	-0.002933	0.078959	-1.115311	9.147748	2.447667	0.722124	-4.022796	-5.881115	-3.522982	-0.492089	-0.590437	0.203696
-1.662899	1.990444	9.652017	3.702523	1.788794	-1.729667	0.085706	-0.29638	-1.070053	5.478896	2.291864	13.021892	-37.367225	183.595552	-44.710775	-0.002858	0.09428	-1.116315	9.146762	1.924489	0.600085	-3.375672	-5.753911	-3.770428	-0.519975	-0.590019	0.188028
-1.438128	1.702106	9.427852	3.70188	1.821959	-1.943804	0.085692	-0.27908	-1.087545	7.02604	2.852022	12.771809	-36.519446	183.561607	-56.670519	0.048971	0.07926	-1.116414	9.145912	1.343234	0.477799	-2.350486	-5.050815	-3.380191	-0.478389	-0.606426	0.204603
-1.952595	2.104811	9.476373	4.3144	1.700851	-1.855531	0.112833	-0.307714	-1.028524	8.64303	2.680202	13.032075	-34.232956	179.940183	-69.928303	0.087899	0.079485	-1.117241	9.152804	1.693421	0.89863	-0.949482	-4.078022	-2.320231	-0.506067	-0.589815	0.188098
-1.377041	2.564653	9.659997	4.465976	1.518567	-1.981603	0.11359	-0.317956	-1.039184	10.657927	2.620099	13.074339	-31.789337	171.808937	-81.78181	0.139363	0.108282	-1.091652	9.445549	1.750327	0.784566	-0.421631	-4.269441	-1.373794	-0.46469	-0.622414	0.205511
-1.835983	2.277535	9.59303	4.866213	1.671652	-1.765589	0.112433	-0.276643	-1.049431	10.878218	3.407963	12.683361	-29.949464	162.810941	-88.774193	0.125501	0.104991	-1.048327	9.385973	1.517911	0.72257	0.321886	-4.801286	0.031937	-0.492577	-0.621996	0.189842
-1.208411	2.276597	9.491572	5.018575	1.612295	-1.889666	0.072371	-0.340846	-1.04538	12.204856	3.292918	12.824351	-25.159078	155.58857	-89.921002	0.152043	0.107285	-1.077578	9.382847	2.388804	0.666371	0.636034	-4.873333	1.192538	-0.506485	-0.6222	0.189772
-1.436564	2.621653	9.545419	4.896206	1.798894	-2.131627	0.100598	-0.324296	-1.063571	13.341227	3.515516	12.169043	-18.774073	147.838061	-86.879904	0.1777	0.106363	-1.06378	9.139869	1.574302	0.179253	1.009541	-5.344384	2.507656	-0.492022	-0.572592	0.171803
-1.544226	2.393417	9.883345	5.353043	1.715451	-2.716997	0.072729	-0.320019	-1.076948	14.639822	2.892358	10.950255	-17.052788	135.625057	-80.465581	0.216257	0.090196	-1.049254	9.032862	2.0419	0.838006	1.320148	-5.502837	3.149123	-0.534234	-0.604764	0.157739
-1.614635	2.103356	9.198788	4.313312	2.142219	-2.829742	0.099098	-0.32111	-1.024759	16.297069	4.184455	10.533288	-21.154169	117.764213	-69.858378	0.228938	0.089199	-1.03518	9.090912	1.983442	0.778952	1.820562	-5.669766	4.676299	-0.492163	-0.57094	0.140748
-1.892947	1.875486	9.590227	4.464901	2.210308	-3.350436	0.084963	-0.303436	-1.041901	17.725194	3.617981	9.99664	-19.728872	95.080778	-56.427781	0.242655	0.122059	-1.066162	8.854422	1.693354	0.713407	3.096889	-6.278235	7.761584	-0.492022	-0.572592	0.171803
-1.608037	2.219687	9.540389	4.433644	2.305837	-3.65548	0.070843	-0.303062	-1.041552	19.322889	4.684769	9.464995	-15.660123	69.076819	-41.424769	0.269348	0.154994	-1.09742	8.61216	1.518183	0.348823	1.619825	-6.444379	8.531849	-0.519908	-0.572174	0.156135
-1.719123	2.10561	9.708239	3.665801	2.11926	-3.778976	0.099841	-0.314053	-1.05291	25.091448	-1.951744	33.811159	-12.681962	40.012759	-25.281172	0.281583	0.122284	-1.066989	9.260237	1.51645	0.30102	-2.192943	-7.133493	5.828695	-0.478393	-0.587755	0.157183
-1.839282	2.21937	9.422229	3.330076	2.144941	-3.470906	0.100227	-0.327824	-1.049495	29.157489	-1.033292	-2.052633	97.865427	-98.455086	-11.494407	0.242215	0.150556	-1.03947	9.029	1.808607	0.597389	-4.096201	-8.494653	3.702602	-0.520184	-0.606212	0.188865
-1.787637	2.275564	9.139318	2.470746	2.144411	-3.775127	0.11399	-0.349027	-1.018276	29.409392	6.46438	5.036042	77.775019	-140.897637	-7.277343	0.268682	0.137529	-1.067717	8.895426	1.863492	-0.243261	-7.536352	-9.43564	1.824612	-0.49223	-0.588785	0.17264
-1.667146	1.702272	9.423398	1.890702	2.667258	-4.040978	0.070828	-0.285762	-1.059044	0.432317	1.903025	8.386426	66.540776	-150.411392	-10.309519	0.230044	0.078166	-1.091575	9.018131	1.748058	-0.001927	-5.528553	-10.366866	3.838981	-0.450018	-0.556614	0.186705
-1.599994	1.876726	9.936913	1.469822	3.486662	-3.290402	0.113947	-0.297129	-1.070751	-6.277721	-2.36482	9.034334	16.7514	-122.776886	3.150132	0.203131	0.05948	-1.046971	9.127204	1.339031	-0.540619	-5.610544	-9.952526	5.151551	-0.533883	-0.590224	0.187958
-1.653908	1.877491	10.106359	4.29243	3.897944	-3.169169	0.071243	-0.334132	-1.020644	1.873187	0.215088	13.736931	-14.152846	-107.81644	20.229775	0.17829	0.108507	-1.092479	9.537887	2.383454	-0.528465	-8.516626	-8.330232	6.988195	-0.46469	-0.622414	0.205511
-1.588077	2.338912	10.564227	4.681794	6.435056	-1.779646	0.112075	-0.297471	-1.017863	1.205645	2.747625	9.648924	53.543084	-136.502874	5.694597	0.163543	0.102001	-1.006105	10.420449	4.007805	-0.445129	-6.755362	-3.605306	12.094219	-0.464481	-0.606222	0.204674
-1.553601	2.403833	12.326915	6.889709	11.673616	-2.068879	0.100613	-0.341596	-1.046079	2.606187	1.675423	10.469992	46.21945	-140.212427	-4.428952	0.138326	0.074425	-1.046596	11.135785	3.775364	-0.073472	-7.964883	3.054855	12.433602	-0.492297	-0.60663	0.204533
-1.869688	2.052877	10.784866	10.294759	21.173612	-0.942892	0.099484	-0.334881	-1.021343	-3.408941	-9.804402	10.673219	68.52802	-48.70805	3.249712	0.113335	0.092811	-1.090097	11.492427	2.206254	-0.133451	-9.36326	7.858978	14.738769	-0.519625	-0.575479	0.218246
-1.867047	1.478944	10.896159	26.238981	44.62096	-5.115934	0.142203	-0.315177	-1.053958	2.950609	2.181751	10.477672	45.316122	4.307579	15.411374	0.111709	0.056811	-1.016341	11.443335	2.673469	0.466495	-11.339192	8.043307	13.980887	-0.533399	-0.539994	0.154391
-1.014643	3.557598	13.59253	4.20434	50.439945	-6.951396	0.128096	-0.332102	-1.036117	-1.029571	1.792158	7.279956	34.637361	-10.260748	9.27712	0.12513	0.088599	-1.032974	11.549708	3.425963	-0.067252	-13.733146	7.513765	11.118887	-0.492718	-0.620344	0.158787
-1.272943	4.011023	12.111826	10.526229	64.536646	-11.770251	0.113604	-0.335256	-1.021692	1.399122	0.100384	10.386637	6.813436	-20.485921	-0.465385	0.124905	0.042638	-1.029963	11.967493	3.309854	0.179584	-11.362428	8.15295	15.203105	-0.505508	-0.559083	0.217479
-1.355611	3.098797	13.697625	6.547044	77.969695	-16.539696	0.140716	-0.32929	-0.997654	1.170392	-0.068129	10.438299	21.426879	-10.143732	3.225271	0.138176	0.043784	-1.044588	11.794576	3.4274	0.416405	-13.250369	8.532507	13.343584	-0.477976	-0.55537	0.155509
-1.289656	3.387893	14.15477	7.339991	93.550996	-19.202401	0.127753	-0.370229	-0.987058	0.503264	1.227425	8.953462	6.081388	-9.981691	0.2242	0.098142	0.054592	-0.987366	11.866393	3.60446	1.13713	-11.311108	9.507994	11.375687	-0.520393	-0.622404	0.189702
-1.115914	3.732901	14.273264	4.18781	111.216318	-23.108113	0.168586	-0.333568	-0.984277	1.45032	0.269031	10.10479	0.900071	-11.851671	-0.538437	0.086567	0.044556	-1.057835	12.50115	4.122692	0.432577	-9.957513	11.350549	8.183202	-0.505717	-0.575275	0.218317
-1.321466	3.62325	15.462243	0.953489	130.478233	-27.079712	0.209819	-0.327977	-0.960588	0.811726	0.551679	9.865171	4.132891	-7.795565	-0.248881	0.11267	0.075347	-1.060394	12.147613	4.356054	0.48687	-12.337077	10.631643	-2.990994	-0.478184	-0.571562	0.156346
-1.086057	4.026622	15.809504	-3.318982	150.410539	-31.12951	0.211348	-0.365762	-0.964417	1.219866	1.001806	10.157211	-0.192851	-8.111343	-2.567602	0.099028	0.057808	-1.030415	11.06704	4.644909	-0.490212	-12.330979	8.067225	-9.396665	-0.506347	-0.605182	0.173407
-0.793063	3.970421	16.155949	-3.12301	170.442662	-36.877723	0.25218	-0.329101	-0.961636	0.988156	0.495167	10.038669	-6.273587	-7.902301	-4.142638	0.12564	0.015212	-1.071005	10.347707	4.702133	-1.102239	-12.18251	6.898708	-8.749852	-0.49223	-0.588785	0.17264
-1.079376	4.02807	16.150623	-3.837868	190.53774	-40.567197	0.293399	-0.306211	-0.955439	0.75811	0.382938	10.033738	-3.261198	-6.494362	-2.584821	0.112079	0.073203	-1.031694	10.168282	3.830409	-1.348876	-13.236266	6.967468	-9.846546	-0.519625	-0.575479	0.218246
-0.843388	3.627261	16.494506	1.339072	211.763369	-44.193943	0.292299	-0.334095	-0.89572	1.153276	0.663551	9.7026	-3.228196	-6.282527	-2.089441	0.086347	0.058805	-1.044489	9.86797	3.713695	-1.654407	-16.800177	7.703698	-14.237783	-0.505859	-0.573623	0.187261
-0.639773	3.334338	15.190132	5.553276	233.962133	-44.826518	0.363259	-0.31514	-0.929033	0.74583	1.114808	9.524599	-4.797897	-5.842125	-2.14798	0.12557	0.060102	-1.059666	9.107612	3.135927	-1.371651	-19.27107	8.541588	-16.249736	-0.505579	-0.558257	0.201952
-0.812442	3.047014	15.128732	4.358237	252.769687	-43.934189	0.361744	-0.294655	-0.907713	1.331131	0.494426	9.932643	-5.315585	-5.265532	-2.235148	0.098802	0.011847	-1.027404	8.457179	2.730385	-1.5053	-20.875955	7.638597	-15.261727	-0.506626	-0.620548	0.158716
-1.331114	3.104104	14.948393	19.86237	268.655333	-46.726592	0.418641	-0.344523	-0.870711	1.052998	1.115027	10.436877	-7.224914	-4.856889	-2.787524	0.086122	0.012843	-1.041478	8.340517	2.614751	-1.448089	-22.065232	7.54724	-12.751109	-0.534163	-0.60559	0.173267
-2.111302	3.441572	13.116067	45.456474	278.391769	-44.709235	0.458359	-0.318447	-0.825702	0.995756	0.946144	10.435526	-5.463314	-4.716915	-2.014016	0.073516	0.029161	-1.056556	8.113411	3.024048	-0.911598	-21.824792	8.153227	-9.148768	-0.506556	-0.621374	0.174244
-3.282592	3.621522	14.685294	55.153662	276.980605	-46.263268	0.499606	-0.330155	-0.784522	0.926318	0.833116	9.867826	-3.939301	-3.957504	-2.652625	0.087679	0.093733	-1.103895	7.941824	2.095978	-0.739134	-21.649102	8.858018	-6.249473	-0.520393	-0.622404	0.189702
-3.99612	3.27158	13.30601	94.764192	264.611036	-49.370258	0.541253	-0.372934	-0.722434	0.87281	0.608044	10.036346	-2.646444	-4.251925	-2.007126	0.100134	0.046775	-1.08681	7.883888	1.631505	-0.742212	-22.90091	8.612853	-3.676589	-0.506626	-0.620548	0.158716
-6.018623	2.809397	12.298605	114.325355	248.703502	-57.416289	0.5829	-0.415713	-0.660346	0.875012	0.7208	10.14972	-1.623029	-3.90368	-1.69456	0.099393	0.01399	-1.056104	8.113101	2.210489	-1.034873	-24.61687	7.872472	-0.702294	-0.492368	-0.605804	0.189005
-4.424225	1.64489	8.914884	123.669633	237.652728	-62.040815	0.609626	-0.395977	-0.639724	0.639915	0.721041	9.918326	-0.600435	-3.588316	-1.043213	0.099103	0.073128	-1.031419	7.75074	1.977017	-1.52172	-25.963072	6.978581	2.454846	-0.492022	-0.572592	0.171803
-3.726487	0.727499	9.436063	124.557221	224.415285	-64.191601	0.607383	-0.399848	-0.57276	0.700437	0.439376	10.032577	1.103188	-3.171326	-0.544447	0.073736	0.014912	-1.069902	8.230883	2.791227	-0.970293	-27.487628	6.133545	6.743362	-0.506485	-0.6222	0.189772
-2.848441	0.948399	7.521839	142.947234	206.796239	-62.843923	0.691392	-0.44375	-0.51172	0.985654	1.171086	9.982598	2.591086	-2.754263	-0.477447	0.112155	0.088524	-1.032698	8.405575	2.383548	-1.148443	-28.710223	5.487982	9.593405	-0.520188	-0.587541	0.141444
0.97426	0.011076	3.955097	154.640254	184.792592	-59.584818	0.674242	-0.402405	-0.46873	1.333226	0.663512	10.046065	3.833113	-2.219084	-0.193674	0.086423	0.074125	-1.045493	8.525674	2.441848	-1.026181	-29.574353	5.455548	9.474429	-0.479712	-0.702754	0.194098
9.131767	-2.713944	-0.444149	112.552287	112.25476	-70.338417	0.674642	-0.433475	-0.447823	1.163378	0.438608	10.155527	3.958132	-2.066806	0.208706	0.099323	0.05888	-1.044765	8.87896	2.789494	-1.018095	-29.801028	4.823406	8.40849	-0.547653	-0.573409	0.171522
12.662426	-3.729872	4.45083	75.325765	22.471737	-99.552102	0.631537	-0.439408	-0.418623	1.0465	0.720429	10.096707	4.672507	-1.722888	0.582638	0.086342	-0.001405	-1.054824	9.181049	2.616074	-0.653893	-28.3141	4.8773	9.62545	-0.506343	-0.623853	0.220828
12.121706	-3.710116	8.986828	57.986831	-49.009834	-124.264037	0.617045	-0.442562	-0.404198	0.755154	0.664495	9.920696	5.354975	-1.413248	1.449455	0.099098	0.012919	-1.041754	8.830429	3.489261	-0.357253	-27.00824	4.550521	12.098087	-0.535001	-0.651688	0.129195
7.665639	-4.911225	9.349733	69.828695	-92.384825	-128.133925	0.686876	-0.416893	-0.412776	1.338169	0.607372	10.272576	5.572673	-1.259795	1.851922	0.085456	-0.004621	-1.011775	9.664068	3.140398	0.016112	-23.985629	4.062172	13.037013	-0.520463	-0.621578	0.174174
5.647855	-6.648744	5.609185	68.919071	-93.288268	-116.637084	0.672741	-0.399219	-0.429918	1.509441	0.719662	10.219658	6.443927	-0.729526	2.166178	0.098287	0.025023	-0.999708	10.079422	4.069658	0.267398	-19.125327	5.000856	9.713837	-0.506067	-0.589815	0.188098
4.08623	-6.421236	4.784142	21.580165	-78.291691	-94.65301	0.645229	-0.374114	-0.474863	0.928843	0.77688	9.981058	6.168694	-0.489344	2.414971	0.098432	-0.004546	-1.012051	9.857778	3.550481	0.979654	-17.439457	7.323304	4.592354	-0.520676	-0.619099	0.127591
3.612383	-5.205423	6.939606	-16.268843	-74.250071	-62.59932	0.6445	-0.39847	-0.42922	0.864133	0.720373	9.639964	5.368506	-0.254617	2.478318	0.098362	0.040344	-1.000712	9.92021	3.028156	1.098343	-14.88521	9.483953	0.630098	-0.506693	-0.638393	0.190609
3.723079	-3.642722	9.733036	-22.378068	-90.022021	-24.585142	0.697939	-0.341698	-0.405468	0.983775	0.889339	9.869082	4.842926	-0.291946	2.477524	0.073221	0.028089	-1.042206	9.38812	3.435903	1.09017	-10.819786	10.655689	-1.835237	-0.506902	-0.654585	0.191446
3.370147	-2.955105	9.274426	-15.426602	-115.366759	14.085942	0.630337	-0.346197	-0.481346	0.809763	0.945945	9.808863	3.732977	-0.151322	2.262231	0.100134	0.046775	-1.08681	9.092634	3.610806	1.085409	-4.075742	10.664515	-3.326691	-0.520046	-0.589193	0.1725
3.196856	-2.380806	9.216646	-17.664025	-137.26826	48.875497	0.631466	-0.352911	-0.506082	1.555803	0.888119	9.711252	2.805386	-0.195759	2.569325	0.085607	0.02602	-1.013782	9.201167	3.434083	0.547706	1.499483	10.260407	-3.74226	-0.534092	-0.606416	0.188795
2.0964	-1.865699	8.572277	-28.486566	-150.680618	77.229911	0.63108	-0.33914	-0.509498	1.153838	1.001582	9.759524	2.189108	-0.080737	2.539145	0.112959	0.016209	-1.085079	9.025354	3.37666	0.604065	6.331292	10.046642	-5.072896	-0.562608	-0.635904	0.128217
2.066812	-0.078697	10.056825	-36.426462	-158.353531	96.929329	0.605468	-0.348292	-0.572347	0.813066	1.115079	9.978924	1.815654	-0.271443	2.845231	0.111634	0.041491	-1.015337	9.554434	3.316874	0.493908	9.835769	10.421009	-7.53228	-0.547933	-0.588775	0.156832
2.691701	0.551739	9.844315	-37.931972	-163.6753	104.509629	0.562363	-0.354225	-0.543148	1.331262	1.057779	9.989757	1.788579	0.00576	2.601339	0.150782	0.027467	-1.029511	9.200047	2.968981	0.425915	11.182747	10.599651	-9.555022	-0.49251	-0.604151	0.15795
2.856079	1.526673	9.51064	-40.964334	-168.243448	104.689394	0.506239	-0.331899	-0.573319	1.153946	0.945251	9.759477	1.664613	-0.026473	2.600919	0.099839	0.045703	-1.072461	9.248504	3.721856	-0.049026	11.646093	10.599738	-9.403898	-0.506209	-0.588163	0.157042
2.563659	2.329856	9.224185	-47.691215	-175.200263	97.025425	0.506639	-0.362969	-0.552411	1.328175	0.775984	9.819601	1.78667	-0.118712	2.877554	0.111929	0.042563	-1.029687	9.019001	2.794169	0.182244	11.95759	10.936407	-9.31495	-0.506626	-0.620548	0.158716
2.931967	3.483986	10.543313	-55.729456	-184.31936	86.908294	0.492875	-0.341767	-0.58363	0.984445	1.171039	9.925959	1.910207	-0.117345	2.908496	0.085682	0.041341	-1.014786	8.714577	3.02517	-0.301524	13.31312	10.384652	-8.736574	-0.548279	-0.621986	0.174034
2.598296	3.716172	11.049275	-62.776044	-194.473282	73.490914	0.480255	-0.344578	-0.622093	0.460505	0.439428	9.574625	1.634382	0.033861	2.693979	0.086787	0.030308	-1.071181	9.302133	3.197553	-0.409592	14.179973	10.039588	-7.607313	-0.520255	-0.605386	0.173337
1.702718	4.640484	12.115529	-66.169916	-203.21364	58.950591	0.382897	-0.327843	-0.675952	0.9928	1.227701	10.322483	2.900641	0.019266	2.694853	0.060245	0.028014	-1.04193	8.471484	2.733599	-0.726511	13.435019	9.114777	-7.172348	-0.520322	-0.623231	0.20523
0.212989	4.64132	12.029725	-65.278892	-208.618132	44.941389	0.369506	-0.303113	-0.721246	1.448464	0.606966	10.048435	3.612443	0.092027	2.32621	0.086267	-0.016725	-1.053821	9.116821	2.963676	-0.893138	12.040324	8.098706	-7.009643	-0.520117	-0.588367	0.156972
-0.178884	4.64354	12.476756	-66.323598	-211.069956	32.885565	0.340079	-0.226452	-0.765779	1.503073	0.888416	9.936602	3.983633	0.099145	1.956641	0.086272	0.043484	-1.043485	9.301957	2.325919	-0.533114	10.898243	8.283193	-7.495365	-0.506138	-0.588989	0.17257
-1.20604	4.530127	12.626789	-65.86764	-210.685413	23.599687	0.282853	-0.23201	-0.73623	0.464047	1.115584	9.801752	4.14118	0.317571	1.681486	0.06032	0.043334	-1.042934	8.885408	2.384198	-0.720291	9.658719	8.011004	-8.22304	-0.520255	-0.605386	0.173337
-2.00393	4.071899	12.779829	-70.349375	-207.30761	16.890635	0.241992	-0.234072	-0.773995	1.276115	1.057981	10.101827	4.693834	0.049045	1.617604	0.100064	0.091664	-1.075471	9.650957	2.149644	-0.826788	7.810961	8.124192	-7.972402	-0.506418	-0.604355	0.157879
-2.326715	4.651147	13.85577	-70.896023	-204.098709	13.111165	0.241621	-0.237601	-0.759919	1.272596	1.001508	9.931861	3.736598	0.039309	1.246799	0.098802	0.011847	-1.027404	9.11595	1.917566	-1.077308	6.516159	7.870709	-7.569211	-0.533954	-0.589397	0.17243
-3.009314	4.652609	14.069821	-68.409559	-202.748559	11.715315	0.171361	-0.197601	-0.807232	1.269293	0.832375	9.7618	3.672313	-0.203574	0.751082	0.085387	0.040269	-1.000436	9.18543	2.152208	-0.47615	5.059265	7.166006	-7.957865	-0.520467	-0.602907	0.126754
-4.031069	4.770168	14.505085	-62.38916	-202.564481	14.215557	0.156497	-0.204283	-0.778731	0.754399	1.058809	9.921028	3.732889	-0.352291	0.163917	0.098362	0.040344	-1.000712	8.998208	2.26654	-1.018119	4.898656	6.370409	-7.984048	-0.492718	-0.620344	0.158787
-4.725005	3.505263	14.088443	-58.470447	-203.245285	21.583406	0.116007	-0.202817	-0.830571	0.98982	0.889576	10.15228	3.884938	-0.592028	-0.39325	0.099248	0.043559	-1.043761	9.471863	2.556334	-0.888265	2.544857	5.357222	-8.429102	-0.520463	-0.621578	0.174174
-5.876443	3.045112	13.723124	-59.980812	-202.49843	33.742364	0.115622	-0.189046	-0.833987	0.987833	0.664159	10.038811	4.319788	-0.402551	-0.391016	0.125495	0.044781	-1.058662	9.296725	2.20853	-0.833143	-0.393001	4.307561	-8.505136	-0.534446	-0.602285	0.111156
-7.571682	2.878856	14.826057	-59.320391	-199.682816	48.809743	0.08658	-0.126156	-0.875104	1.319497	0.888313	9.423219	5.859165	-0.754153	0.099976	0.099468	0.029311	-1.057107	8.76668	2.209993	-0.78314	-2.496095	3.225583	-8.125627	-0.492648	-0.62117	0.174315
-8.150078	1.728992	14.468978	-54.882674	-195.959435	64.032913	0.044247	-0.159631	-0.839073	1.268084	0.832327	9.70516	6.664224	-0.619893	-0.113838	0.099468	0.029311	-1.057107	8.940137	1.860143	-1.02095	-4.629748	2.111965	-7.654171	-0.520322	-0.623231	0.20523
-10.163507	1.038973	13.915432	-55.479104	-191.61526	76.704347	-0.013378	-0.134119	-0.830432	0.933894	0.664409	10.207521	6.512056	-0.466716	-0.38989	0.073071	-0.002552	-1.040199	9.1718	1.858614	-1.256176	-6.194729	1.688467	-5.690563	-0.520255	-0.605386	0.173337
-13.079226	1.948771	11.191523	-59.359445	-186.274146	86.917657	-0.069832	-0.167219	-0.794051	1.330831	1.283101	9.989947	6.547972	-0.18249	-1.589328	0.073151	0.072978	-1.030867	8.712045	1.746261	-0.606498	-7.074493	0.819611	-1.832424	-0.548279	-0.621986	0.174034
-16.613329	1.839835	11.917948	-87.133457	-176.255384	95.282706	-0.055754	-0.115696	-0.846876	0.936635	0.495512	10.320658	9.669893	-0.048089	-2.017071	0.098953	0.042487	-1.029411	8.772412	1.165366	-0.60787	-8.512731	-0.665546	2.275306	-0.506556	-0.621374	0.174244
-19.382165	2.641663	10.844523	-85.752538	-161.823683	103.389947	-0.113008	-0.086656	-0.852311	1.221852	1.227223	10.270679	5.100386	-4.765647	-2.190969	0.086567	0.044556	-1.057835	8.715732	1.107919	-0.489404	-9.445614	-0.495207	6.190052	-0.519766	-0.573827	0.187191
-22.484879	3.962885	10.278267	-81.620779	-138.105163	109.923377	-0.100402	-0.066545	-0.83134	1.227096	0.382407	10.439887	4.05944	-8.888063	-2.140312	0.060766	0.075047	-1.059291	8.769806	1.3391	-0.726942	-11.731663	0.595188	9.402431	-0.520467	-0.602907	0.126754
-23.885217	4.819954	8.947542	-77.852747	-109.643185	110.006805	-0.169104	-0.098928	-0.847498	1.299322	1.565904	11.235046	2.401056	-10.650602	-3.114837	0.073591	0.044481	-1.057559	8.469493	1.222387	-1.032473	-14.346977	2.038208	13.898178	-0.520255	-0.605386	0.173337
-25.149683	5.394316	8.698046	-67.573942	-77.740871	107.338459	-0.171033	-0.030073	-0.864577	0.539558	1.456554	13.370331	7.43592	-32.397409	-2.001397	0.099688	0.015062	-1.070453	8.477581	0.585034	-0.675751	-15.462798	3.445984	16.40196	-0.520046	-0.589193	0.1725
-25.693763	6.709813	7.272247	-53.584398	-46.085729	97.820654	-0.16989	-0.054087	-0.871822	1.24305	0.890046	11.233268	-3.600991	-35.774434	-4.140148	0.098947	-0.017722	-1.039747	8.653394	0.642457	-0.73211	-15.189591	6.408146	16.967604	-0.520259	-0.586714	0.125916
-22.908738	7.532553	12.160472	208.080994	31.072499	74.197584	-0.183625	-0.067483	-0.868057	1.014667	1.172224	11.341949	-0.496939	-46.572337	-2.456975	0.034218	0.012543	-1.040375	9.201491	1.400433	0.299426	-12.698525	10.127352	16.084956	-0.520396	-0.603733	0.142281
-28.072267	16.094107	11.868801	126.859947	72.619246	24.826228	-0.154641	-0.061176	-0.896907	0.853497	0.834991	11.847794	-5.588153	-53.329657	-1.480092	0.033772	-0.019169	-1.024018	9.323115	1.749608	0.542737	-8.67278	12.37495	16.059647	-0.534096	-0.587745	0.141374
-19.573162	22.2158	7.74081	113.775802	128.871639	-58.689447	-0.171419	-0.016302	-0.867993	0.737527	1.905534	11.902917	-8.39583	-65.176791	-1.106864	0.087158	0.0467	-1.086535	9.800882	1.691688	0.850828	-5.178893	13.145025	16.746354	-0.520463	-0.621578	0.174174
2.254217	-0.699723	-0.853587	103.038769	133.544279	-101.262026	-0.126357	-0.113823	-0.84513	0.393536	1.173884	11.895047	-13.050875	-76.384634	0.997614	0.060465	0.013765	-1.055276	10.10135	2.215181	1.217997	-0.263501	12.606744	14.285785	-0.506489	-0.603529	0.142352
0.856466	5.115878	15.681389	-6.252887	142.893848	-117.090327	-0.126757	-0.082753	-0.866038	0.124427	2.132848	12.852682	-22.164463	-88.128042	5.867753	0.034073	0.042112	-1.028033	10.460159	3.028918	1.587502	1.418119	9.255361	16.527054	-0.534371	-0.621782	0.174104
-6.786972	5.894609	8.261704	114.618298	130.030651	-87.390768	-0.112236	-0.114198	-0.845479	0.601181	1.231267	13.541269	-31.075665	-105.877343	9.846049	0.007901	0.056211	-1.014135	11.215034	4.070306	1.067096	5.592783	-0.691838	27.44171	-0.547795	-0.571756	0.140467
-4.244021	9.102715	6.733438	77.397393	165.180348	-13.945347	-0.11185	-0.127969	-0.842063	1.379275	0.217007	14.858842	-33.431208	-125.998874	8.93515	-0.00508	-0.004074	-1.024195	12.676673	3.831413	0.314828	11.220664	-10.278218	21.750703	-0.520538	-0.602081	0.111226
-4.653715	3.208563	11.872193	21.521734	144.114862	14.056785	-0.041991	-0.136898	-0.815657	1.554735	0.66747	15.032767	-32.829462	-146.90559	6.754884	-0.030951	0.071306	-1.014311	12.44769	2.206566	0.483225	12.210577	-12.581547	20.046305	-0.520326	-0.604559	0.157809
-6.466728	-6.322752	12.421888	10.051915	18.422842	-26.750105	-0.026341	-0.175058	-0.819835	0.730823	0.839643	16.883883	-34.338093	-170.945746	5.189225	-0.044813	0.068015	-0.970987	11.674708	2.323237	0.169879	15.031449	-7.691106	21.327165	-0.533674	-0.574031	0.18712
0.389104	2.331672	9.238725	41.183516	-5.19794	-12.654697	-0.042377	-0.123127	-0.819073	0.226763	-0.172862	17.438545	-34.439644	-198.359724	5.379275	-0.057274	0.054764	-0.998407	11.538684	2.958635	-0.728206	15.439144	-7.830213	17.169161	-0.520188	-0.587541	0.141444
-1.810279	2.787713	8.004428	13.016371	20.420894	-1.208306	-0.014507	-0.127405	-0.805696	0.081978	-0.227778	18.737582	-35.14901	-227.499585	4.688546	-0.083671	0.022901	-0.981498	12.002144	2.897501	-1.198905	6.509664	-8.538129	20.445035	-0.533745	-0.573205	0.171593
-2.156452	1.19122	10.718826	-3.295058	20.026141	5.241751	-0.012592	-0.17896	-0.806108	-0.726871	0.674971	18.664776	-22.775587	-255.177208	6.982442	-0.110353	0.110386	-0.92957	11.456173	3.592662	-1.924724	1.325937	-8.021947	19.024665	-0.533466	-0.557839	0.186283
-1.374441	2.048161	9.771532	14.593576	9.072753	-2.65469	-0.013007	-0.130591	-0.844508	0.080577	0.504518	18.738198	-4.424847	-281.241477	13.027501	-0.148696	0.052095	-0.967777	11.930544	4.521787	-1.672338	6.782157	-9.31048	9.443784	-0.547374	-0.558043	0.186213
-1.612077	1.644306	9.310564	11.894199	11.138365	1.097489	0.015234	-0.13134	-0.845206	0.822367	1.404216	18.528114	6.834551	-301.146158	21.008698	-0.175753	0.062978	-0.91083	11.348916	4.641267	-1.203592	6.597335	-8.973333	3.391084	-0.519282	-0.523597	0.153624
-1.71904	1.990727	9.707756	7.257903	9.545675	1.422295	-0.040862	-0.143613	-0.840394	1.988805	0.444963	19.174522	37.349348	-315.12208	28.540277	-0.253754	0.092096	-0.896833	10.837714	4.588856	-0.13542	3.750498	-9.867971	-2.768053	-0.547374	-0.558043	0.186213
-1.665209	2.104845	9.538793	14.984605	6.529299	-0.458374	0.013377	-0.148981	-0.774826	5.523122	0.659891	14.946263	62.034185	-316.834826	28.419825	-0.293492	0.103976	-0.853961	10.150678	4.014166	0.927227	5.334032	-9.451969	-6.962724	-0.533048	-0.525454	0.184609
-1.895506	2.334536	9.478451	8.764255	6.12244	0.350286	-0.028985	-0.147858	-0.773779	5.176605	-0.015523	14.825162	55.830899	-304.149489	30.698837	-0.280667	0.07341	-0.852229	10.047086	3.959574	1.703569	7.203619	-8.054351	-5.417535	-0.546814	-0.52731	0.215595
-1.660796	2.163252	9.766447	7.895983	4.395051	0.539386	0.000342	-0.103423	-0.851689	4.433381	1.340479	17.867914	81.097715	-291.222227	33.560543	-0.360224	0.021639	-0.775815	9.296633	3.384031	2.525487	14.724546	-8.984661	-4.554043	-0.519487	-0.558461	0.201881
-1.602553	2.335776	9.825137	6.718844	3.361782	-0.976749	-0.028613	-0.144329	-0.787855	3.257235	-1.0831	13.764854	108.281567	-292.03177	41.158666	-0.37327	0.066454	-0.7642	9.168406	3.033372	1.922734	21.07602	-9.954181	-3.258254	-0.533395	-0.558665	0.201811
-1.722215	1.760237	9.536232	3.956308	3.173554	-1.769229	-1e-06	-0.14155	-0.802629	4.584088	-2.669938	5.695495	103.321627	-259.855382	37.805286	-0.386911	0.048914	-0.734222	9.213232	2.507092	1.082913	21.150396	-10.071253	-0.782411	-0.561352	-0.557421	0.170615
-1.838169	2.219611	9.479082	1.997311	3.126016	-1.089662	-0.013764	-0.120348	-0.833848	-7.449622	-5.353946	2.383227	87.613572	-204.830314	20.950994	-0.439926	-0.000563	-0.687059	9.027805	2.796146	0.661499	22.191605	-8.373907	1.070055	-0.561282	-0.558247	0.186143
-1.440438	1.816507	9.314628	1.939353	2.959557	0.011849	-0.013364	-0.151418	-0.81294	-14.811538	-6.576895	5.114853	69.104181	-95.522564	5.00451	-0.466909	0.02564	-0.631115	8.781566	2.910614	0.11843	26.085263	-4.67778	2.872115	-0.532493	-0.47605	0.16657
-1.835734	1.932886	9.591582	0.960401	2.793324	0.717326	0.0011	-0.113666	-0.862349	-8.449613	-5.066547	6.778383	61.37318	-25.342353	-14.804609	-0.467059	-0.005	-0.629108	9.904129	3.315075	0.260883	30.255814	-3.93215	3.189654	-0.519278	-0.542268	0.201044
-1.609151	2.219445	9.483536	0.928443	2.703072	0.531944	0.014134	-0.159224	-0.785487	-11.480114	-4.384015	7.734393	61.549665	53.15144	-24.751675	-0.454378	-0.005997	-0.615034	9.721308	3.430396	-0.041459	30.37319	-4.261878	2.579531	-0.547161	-0.560521	0.232797
-1.161877	1.699727	8.921741	-0.758465	2.573667	0.412025	0.013748	-0.145453	-0.788902	-10.628937	-4.273444	7.186225	66.653461	75.652024	-24.739541	-0.453863	-0.019174	-0.64273	10.542977	3.020737	-0.327318	27.172591	-5.748181	0.275409	-0.504949	-0.52835	0.246861
-1.665002	1.817637	9.537587	-2.108562	2.665823	-0.134613	-0.027885	-0.119973	-0.833498	-9.327578	-4.445816	6.137736	62.594974	72.427712	-22.277923	-0.4153	0.024869	-0.617869	9.834108	3.312737	-0.339287	21.303383	-5.78061	-1.567508	-0.533044	-0.544125	0.23203
-1.318466	2.277645	9.716757	-2.541166	2.361024	-0.537006	-0.012607	-0.161661	-0.8236	-9.537163	-3.489249	4.492367	42.239588	77.382726	-18.052561	-0.415381	-0.050662	-0.6272	9.892699	3.021975	-0.399329	15.931811	-4.732471	-4.211967	-0.518999	-0.526902	0.215735
-1.715948	2.3361	9.879763	-2.789457	1.836747	-0.483476	0.014491	-0.138396	-0.817054	-9.037155	-2.643541	6.428496	16.975285	97.456649	-10.937065	-0.415231	-0.020021	-0.629207	9.35192	2.904813	-0.94889	13.571598	-4.988456	-6.891612	-0.53228	-0.478529	0.213154
-1.204573	1.588022	9.659235	-1.99145	1.962351	-0.391727	-0.027499	-0.133744	-0.830083	-8.492687	-2.530807	7.685542	7.000591	125.211198	-1.112335	-0.402185	-0.064835	-0.640822	9.233617	3.021235	-0.950596	10.964802	-5.897457	-8.61981	-0.518443	-0.477498	0.197696
