1757_acc_x	1757_acc_y	1757_acc_z	1757_gyro_x	1757_gyro_y	1757_gyro_z	1757_mag_x	1757_mag_y	1757_mag_z	1758_acc_x	1758_acc_y	1758_acc_z	1758_gyro_x	1758_gyro_y	1758_gyro_z	1758_mag_x	1758_mag_y	1758_mag_z	1759_acc_x	1759_acc_y	1759_acc_z	1759_gyro_x	1759_gyro_y	1759_gyro_z	1759_mag_x	1759_mag_y	1759_mag_z
-3.84747	0.438927	9.091511	-0.876514	3.436358	0.181043	0.083305	-0.109957	-1.195499	2.2056	0.436906	10.460486	-25.016293	91.348353	12.336104	0.315082	-1.307855	-2.330127	9.564277	1.924533	0.847415	-16.429533	-2.511315	0.570685	-0.483716	-0.823699	-0.264203
-3.104441	0.667913	9.050098	-1.272268	3.489355	0.765732	-0.10462	0.184788	-1.368467	2.844086	0.210588	10.700153	-26.21409	89.550234	13.180459	0.693532	-1.222646	-2.42924	9.510763	1.925904	1.145849	-15.665798	-3.209252	0.296183	-0.521412	-0.480138	-0.359631
-3.968743	0.552445	8.748648	-1.207098	3.541022	1.655748	-0.092	0.1876	-1.330004	3.192782	0.379075	10.877467	-27.313256	85.763491	13.696821	0.719484	-1.222495	-2.429791	9.33414	2.216936	1.203691	-14.066554	-3.537441	0.047453	-0.507575	-0.479108	-0.375089
-3.611688	0.325325	9.436601	-0.591284	3.817337	1.934474	-0.063016	0.193907	-1.358855	3.82095	0.490361	10.664302	-28.014232	81.591555	12.945686	0.719334	-1.253136	-2.427784	9.169581	1.580977	1.796739	-12.251988	-3.460264	-0.87637	-0.54909	-0.463528	-0.376137
-3.854234	0.552362	8.750875	0.270856	3.872377	2.852912	-0.091643	0.208428	-1.361572	4.402972	0.320528	10.959446	-25.584629	78.083161	10.508089	0.706583	-1.20725	-2.430519	9.750689	2.158657	1.390868	-10.652057	-3.448194	-1.493474	-0.535461	-0.47869	-0.390757
-3.67146	0.726975	9.32347	0.608157	3.748244	3.095263	-0.105763	0.208802	-1.361223	4.68631	0.770491	10.795952	-21.140089	75.064151	7.429595	0.71993	-1.190783	-2.446148	9.574316	1.868682	1.38633	-9.140585	-2.947349	-2.082025	-0.535111	-0.46415	-0.360539
-3.735437	0.78301	8.98148	1.160332	3.811935	3.125376	-0.092386	0.201371	-1.33342	4.56261	0.826705	10.397104	-20.494214	72.120107	4.256325	0.759002	-1.220127	-2.459318	9.397517	1.288079	1.32065	-7.845534	-3.036035	-1.93348	-0.507366	-0.462915	-0.375926
-3.391413	0.093463	8.985265	1.585429	3.57504	2.506954	-0.077136	0.194282	-1.358505	4.843746	1.163913	10.120235	-22.779594	69.531433	1.978269	0.745957	-1.175312	-2.447703	9.803353	1.576031	0.970148	-6.673097	-2.971274	-1.876911	-0.507921	-0.512319	-0.357887
-3.963175	0.553651	9.032913	1.400102	3.578353	2.139531	-0.076379	0.184039	-1.369166	4.483177	0.88229	9.37643	-28.057539	69.779205	0.712533	0.771538	-1.191554	-2.432901	9.100256	1.753115	1.257218	-5.658619	-3.644982	-1.449495	-0.534973	-0.447131	-0.376904
-3.675624	0.323919	9.094369	3.484977	3.241346	2.894739	-0.077122	0.176983	-1.341014	4.986005	1.275065	8.707967	-38.820298	76.167841	1.168194	0.746912	-1.216986	-2.502091	9.458059	1.578819	1.4428	-4.428763	-4.503335	-0.838601	-0.535461	-0.47869	-0.390757
-3.842892	0.267567	9.318199	4.189922	3.463581	2.55898	-0.091257	0.194657	-1.358156	4.527899	1.276022	8.811574	-50.404164	86.039899	1.565369	0.773014	-1.186195	-2.50465	9.446494	1.343795	0.782835	-3.539629	-5.732486	0.019803	-0.54881	-0.448162	-0.361446
-3.507408	0.610279	8.928356	5.568345	3.284241	2.674768	-0.092014	0.204899	-1.347496	5.002606	1.44472	9.501063	-55.544836	89.872308	0.705345	0.785695	-1.187192	-2.490576	9.561786	1.575335	0.666211	-2.901784	-7.357324	0.605944	-0.53532	-0.480342	-0.359702
-3.900643	0.956907	9.319982	4.399564	3.197039	1.756689	-0.091271	0.211956	-1.375648	5.938505	1.894256	10.2571	-53.971003	84.666397	-1.533974	0.799042	-1.170725	-2.506205	9.514469	1.752417	1.324828	-2.5036	-8.095985	1.188726	-0.535111	-0.46415	-0.360539
-4.309094	0.783184	8.913492	4.120608	3.298723	0.808446	-0.120269	0.222948	-1.364289	6.910318	2.286501	9.994785	-46.800876	74.905973	-4.153195	0.825659	-1.15311	-2.53646	9.569219	1.693217	1.086054	-1.917674	-8.528728	1.830498	-0.521758	-0.513349	-0.342429
-3.902829	0.898983	9.206034	3.014835	3.175513	0.380277	-0.092371	0.184072	-1.315928	6.894819	2.173223	9.258376	-40.183985	65.268785	-8.035549	0.837969	-1.170499	-2.507032	9.272072	1.635322	0.960491	-1.265303	-8.846148	3.174443	-0.549858	-0.510453	-0.404681
-3.906827	0.266161	8.975967	2.032685	3.425478	-0.379531	-0.090528	0.219013	-1.4038	7.119814	2.397924	9.036843	-37.121829	57.915529	-11.928836	0.851385	-1.198921	-2.534	9.454333	1.28745	1.201936	-0.551579	-8.883326	4.058385	-0.507783	-0.4953	-0.374252
-3.962062	0.553893	9.089767	0.259425	4.187202	-0.515387	-0.120641	0.219419	-1.350214	7.120807	2.510633	9.093577	-31.971134	51.886195	-17.41025	0.864147	-1.124388	-2.510595	9.571015	1.86794	1.206609	0.290668	-8.433177	5.184054	-0.549228	-0.480546	-0.359772
-3.960907	0.496692	9.146378	0.809699	3.724287	-0.125811	-0.064159	0.217921	-1.35161	7.634084	3.129156	8.93506	-25.403847	47.957899	-22.71543	0.838855	-1.167284	-2.550081	9.33603	1.403872	1.20023	1.285576	-7.917514	5.942096	-0.548952	-0.446509	-0.392502
-3.674759	0.66881	9.15267	1.026208	3.594367	0.576816	-0.106921	0.250115	-1.37147	7.871383	3.241671	9.279828	-18.388449	42.868614	-27.754303	0.876903	-1.110064	-2.497524	9.569894	1.402837	1.084818	2.345759	-7.222196	7.096387	-0.577043	-0.480955	-0.359912
-3.790588	0.955859	9.094796	0.111608	4.32728	0.622028	-0.106135	0.205274	-1.347147	8.221072	3.522866	9.513877	-4.611988	35.074482	-32.660453	0.851536	-1.168281	-2.536007	9.695764	1.346222	1.50612	3.524516	-6.703658	7.639807	-0.563344	-0.496943	-0.359005
-3.960824	0.381809	9.145896	1.059912	3.804763	1.009487	-0.0928	0.249741	-1.37182	8.556124	3.24014	9.011137	14.363371	25.603825	-38.38051	0.90337	-1.123091	-2.525772	9.5725	1.229104	1.20389	4.578165	-6.36846	8.123428	-0.549436	-0.496739	-0.358935
-3.856461	0.55188	8.637169	0.933054	3.691347	0.118642	-0.078279	0.218296	-1.351261	8.244335	3.12707	7.872206	27.326024	17.180028	-42.461175	0.890909	-1.136343	-2.553192	9.33493	1.403625	1.140323	5.230104	-6.188276	8.670375	-0.507642	-0.496953	-0.343196
-4.024184	1.127384	8.863654	-2.692678	3.356928	-1.685773	-0.063416	0.224978	-1.379762	8.037768	2.506382	6.225509	27.039274	11.541662	-43.47306	0.890244	-1.153807	-2.523489	9.867176	1.402657	1.210134	6.745813	-6.37835	9.827268	-0.549645	-0.512931	-0.358098
-3.562518	0.725686	9.041432	0.632858	1.600872	-2.674604	-0.064559	0.248992	-1.372518	7.514281	2.169132	5.931146	17.223923	7.358796	-41.765498	0.90278	-1.125235	-2.497072	9.625744	1.343884	0.90595	7.860597	-6.538648	10.924351	-0.534973	-0.447131	-0.376904
-3.960125	0.956466	9.205162	3.244032	3.066459	-3.455682	-0.092428	0.253269	-1.385895	7.396625	2.225583	5.815497	5.406261	6.148997	-39.105208	0.916491	-1.152585	-2.53839	9.332459	1.519282	1.021004	9.338808	-7.212885	11.564093	-0.535249	-0.481169	-0.344174
-3.849904	0.725652	8.979011	0.712784	4.207774	-2.141771	-0.106163	0.239873	-1.38213	9.470873	-0.031613	5.743841	100.194539	-51.631772	-41.761148	0.902849	-1.170124	-2.508411	9.331743	0.879951	0.89847	10.63294	-7.920579	12.418627	-0.52162	-0.496331	-0.358794
-3.839184	1.30248	9.549955	-3.936867	5.099272	-1.347192	-0.106535	0.236344	-1.368054	9.674123	2.955004	7.449169	76.005561	-65.31457	-22.588644	0.890093	-1.184448	-2.521481	9.62837	1.635006	1.086907	10.378179	-9.116916	12.669787	-0.507433	-0.48076	-0.344033
-3.904351	-0.078006	9.088226	5.192647	4.526244	-1.29078	-0.093172	0.246212	-1.357744	1.626815	2.463545	7.789252	51.775408	-65.914266	-38.982814	0.903069	-1.184373	-2.521757	9.575936	1.171769	1.383363	12.712835	-10.582054	13.187947	-0.534898	-0.466629	-0.313955
-4.088037	1.011095	8.520939	-0.728471	9.15382	-2.517261	-0.120655	0.236719	-1.367705	0.457918	1.79136	9.575763	31.286721	-56.184292	-28.144309	0.876747	-1.200915	-2.505852	9.810381	1.868141	1.390732	13.179602	-13.075514	11.944955	-0.549157	-0.481373	-0.344244
-3.852722	0.909839	11.764423	-19.114051	9.900478	-2.697553	-0.048152	0.200589	-1.387356	0.696033	0.213864	9.805829	11.500645	-48.328504	-6.102463	0.889572	-1.231481	-2.504121	10.278938	1.982472	1.220309	13.10421	-14.260432	11.156176	-0.548251	-0.417429	-0.332065
-3.802314	1.138116	11.425383	5.107647	33.455841	0.621064	-0.106149	0.222573	-1.364639	2.164134	-1.027058	11.08108	12.414442	-58.421588	0.703399	0.850424	-1.217458	-2.489947	10.154999	2.155734	0.919316	11.982481	-14.614759	9.541963	-0.535107	-0.482821	-0.313118
-3.779702	1.302921	9.664775	-10.910346	41.834899	-2.263439	-0.077536	0.225352	-1.379413	1.869208	0.156232	10.849472	25.443459	-68.590149	0.242871	0.823662	-1.205503	-2.44735	10.856185	2.326858	0.573821	11.361466	-14.546663	8.657499	-0.576831	-0.483433	-0.313329
-4.0284	0.162259	11.530533	-15.434093	44.68798	-3.676127	-0.077536	0.225352	-1.379413	2.532213	0.773531	9.61843	25.311588	-71.402335	3.174321	0.85072	-1.216386	-2.504297	11.024275	1.917696	0.03623	10.467253	-14.487759	8.568762	-0.576413	-0.451049	-0.315003
-3.802148	0.90835	11.424418	-13.506054	58.146013	-2.726862	-0.106892	0.215517	-1.336487	2.569598	1.842991	8.770946	19.007988	-68.752525	7.912337	0.836563	-1.220748	-2.446622	10.849042	2.557679	0.215369	10.109313	-14.387861	10.617451	-0.563273	-0.497769	-0.343477
-3.983477	0.274446	10.906745	-13.411863	67.00598	-0.86568	-0.120284	0.240247	-1.381781	4.673645	2.96705	10.401324	19.344618	-61.694501	8.106078	0.849984	-1.18896	-2.463255	10.665911	1.859441	-0.210248	9.752338	-14.507113	13.156273	-0.590601	-0.466619	-0.329764
-3.909852	0.737556	11.762586	-20.942052	77.559856	0.216938	-0.064559	0.248992	-1.372518	4.614801	1.108061	10.171992	13.287963	-52.172729	8.380826	0.824177	-1.218679	-2.475046	10.606915	2.324431	-0.149463	8.652387	-14.747591	15.331617	-0.520853	-0.449406	-0.33025
-4.811655	1.028563	12.485067	-25.004666	92.284047	3.412098	-0.067188	0.258892	-1.30897	4.314454	1.333447	9.599741	15.103844	-46.261311	-0.961587	0.837524	-1.202212	-2.490675	10.192681	1.860274	-0.278958	7.619175	-14.687023	17.994395	-0.576693	-0.466415	-0.329694
-4.86041	0.053787	12.877822	-28.593564	109.065231	6.853957	-0.037047	0.223886	-1.327573	3.911342	0.151166	9.477003	13.756645	-38.74566	-8.533253	0.810756	-1.250467	-2.458413	10.554616	1.803118	0.146746	7.474472	-14.426165	19.338641	-0.548806	-0.466833	-0.314026
-4.961599	0.114207	13.558074	-38.760951	126.154293	12.864961	-0.024069	0.247526	-1.320678	3.456132	1.166262	9.808023	15.07942	-34.742338	-13.17816	0.811051	-1.249395	-2.472763	10.559464	2.55959	0.509401	7.811142	-14.699596	19.277591	-0.54818	-0.418255	-0.316537
-4.257967	0.289653	14.424956	-46.209912	146.478011	19.073861	-0.037418	0.220358	-1.313497	3.456886	0.771948	9.807691	16.909382	-31.369947	-9.443873	0.824247	-1.263569	-2.486385	10.207142	2.270267	0.561469	7.676682	-14.9583	17.628674	-0.521266	-0.500462	-0.281155
-4.471521	0.465521	15.217169	-56.673324	171.542179	23.007223	0.018664	0.24993	-1.335801	3.978578	0.151438	9.931329	22.021444	-27.372331	-5.85484	0.822996	-1.222967	-2.417647	10.509366	2.038771	0.925424	9.240499	-14.501421	15.389445	-0.548527	-0.451467	-0.299335
-3.907102	0.92295	14.832263	-68.288741	199.623716	25.582412	0.047319	0.200811	-1.2981	3.510178	1.109682	9.639266	29.370866	-24.984223	-5.05449	0.836337	-1.26671	-2.443612	10.798559	2.675944	0.694018	10.986919	-14.349744	13.151051	-0.548665	-0.468485	-0.28297
-3.559163	0.981108	15.066598	-82.247458	227.538616	25.371308	0.101158	0.226513	-1.253441	5.411669	0.148506	9.678354	20.054565	-4.765231	-6.06324	0.822916	-1.298497	-2.426979	10.50676	2.212505	0.806352	11.628057	-13.621223	10.944512	-0.520711	-0.451058	-0.299194
-3.393175	1.266985	14.786879	-89.543343	254.322788	21.71903	0.058039	0.237879	-1.241733	3.278815	1.053735	9.577743	32.926696	-1.409067	-16.069247	0.797485	-1.251614	-2.443788	10.033955	2.503965	0.798784	10.892219	-11.365489	8.460625	-0.54846	-0.433622	-0.331228
-3.17669	0.115093	14.10427	-90.090476	277.996058	16.034148	0.085537	0.230074	-1.214279	3.511171	1.22239	9.696	31.263333	-0.460553	-9.587421	0.797409	-1.266935	-2.442784	10.098744	2.388914	1.098925	10.811124	-9.152169	7.350021	-0.548527	-0.451467	-0.299335
-2.966311	-0.291265	13.140532	-86.879832	293.336247	4.744068	0.141262	0.238818	-1.205016	3.334633	1.335232	9.52255	30.335373	-0.622014	-10.144668	0.797705	-1.265863	-2.457134	8.67975	2.565889	0.953442	10.671966	-6.418096	6.145459	-0.548665	-0.468485	-0.28297
-4.132064	0.566845	12.098526	-68.795534	301.104059	-1.468434	0.138633	0.248719	-1.141468	3.274542	1.391576	9.408109	26.932612	-1.033715	-10.059017	0.823506	-1.296354	-2.455678	8.082291	2.39128	0.522348	9.924037	-3.173436	5.643652	-0.563202	-0.498596	-0.327949
-5.687712	1.772306	11.618705	-47.738651	296.831817	-11.381992	0.152396	0.227516	-1.110249	3.62015	1.278268	9.415268	28.111806	-0.475504	-8.726935	0.797705	-1.265863	-2.457134	7.603829	2.274725	0.153608	8.819961	1.72022	5.288089	-0.562293	-0.453323	-0.268349
-8.403681	3.389896	13.277607	-14.088135	277.621766	-36.329309	0.152025	0.223988	-1.096174	3.560275	1.22195	9.300732	29.562881	-0.575716	-9.343314	0.811341	-1.308533	-2.497448	7.543287	1.983985	0.031458	7.3201	6.975569	5.329568	-0.575996	-0.418664	-0.316677
-12.044151	1.891548	11.438737	60.324876	256.710817	-46.393298	0.208149	0.201662	-1.066003	3.263901	1.898171	8.955419	24.156909	-0.644712	-9.286695	0.810304	-1.34239	-2.452392	6.945267	1.576826	-0.460532	5.844042	12.213527	4.117919	-0.562368	-0.433826	-0.331298
-10.170576	1.299801	7.721879	106.268053	234.908003	-43.751458	0.220041	0.180118	-0.981896	3.619504	1.616251	9.415552	19.616186	-0.528807	-7.686163	0.797108	-1.328216	-2.43877	7.589638	1.74858	-0.687313	3.442487	17.107706	3.308602	-0.562431	-0.470342	-0.251984
-7.618198	-2.384112	6.392068	111.605922	211.642001	-50.710199	0.190271	0.218652	-0.977369	3.381773	1.729059	9.070974	16.280331	-0.425462	-6.516368	0.811491	-1.277892	-2.499455	8.056981	2.385594	-0.855511	0.520663	21.744361	3.572132	-0.562576	-0.450018	-0.330461
-2.973311	-4.121855	3.860892	116.310596	173.067482	-46.166952	0.217769	0.210846	-0.949916	3.102863	2.12429	9.518378	12.136234	-0.730552	-5.412938	0.784353	-1.34254	-2.45184	8.888149	2.152388	-0.601466	-1.855907	25.656447	3.103616	-0.562785	-0.466211	-0.329624
4.547197	-3.675754	2.133651	106.363054	104.545926	-43.326281	0.261274	0.185708	-0.958208	3.505258	1.785505	9.469916	7.833473	-1.316808	-3.819184	0.836552	-1.341168	-2.467293	9.067668	2.036326	-0.478845	-4.970574	28.351327	4.72192	-0.548598	-0.45064	-0.314863
8.467943	-5.58094	0.610632	123.570941	31.177756	-50.796255	0.219312	0.155762	-0.936252	3.216869	1.448014	9.406947	5.913495	-1.565427	-2.343461	0.810235	-1.2975	-2.441053	9.710803	2.265908	-0.765286	-7.518076	29.127496	5.705496	-0.521128	-0.483443	-0.29752
4.32513	-6.501604	-0.553609	95.584753	-14.875202	-45.022204	0.232275	0.1967	-0.946849	2.933877	1.448742	9.627461	3.876048	-1.354228	-1.079053	0.810901	-1.280036	-2.470756	9.892969	2.905823	-0.399824	-10.325855	28.407104	6.360955	-0.52092	-0.467251	-0.298357
3.50454	-5.458591	1.423891	60.032156	-66.972914	-36.011789	0.203634	0.22852	-0.967058	3.322329	1.447419	8.956248	3.717685	-1.576882	-0.156553	0.783768	-1.284474	-2.412805	10.779852	2.671741	-0.324399	-12.899424	26.127603	6.992444	-0.54846	-0.433622	-0.331228
1.68189	-2.902493	7.821049	32.238559	-78.921508	-56.49508	0.218912	0.186832	-0.95716	3.449009	1.72933	9.525299	0.745878	-1.932032	1.502244	0.783988	-1.298722	-2.426152	10.720681	2.265096	-0.387137	-15.018852	23.089366	7.198007	-0.52092	-0.467251	-0.298357
1.573197	-3.245853	8.10164	47.870338	-65.859291	-60.53078	0.217769	0.210846	-0.949916	3.503403	2.123441	9.413561	-4.170448	-2.130301	3.530981	0.784503	-1.311899	-2.453847	11.196806	2.439233	-0.137964	-17.14723	19.788773	6.151709	-0.521136	-0.446101	-0.392361
3.593282	-3.428596	6.037437	70.634587	-80.9296	-67.038591	0.205549	0.176964	-0.967471	3.499861	1.447285	9.186434	-5.810677	-2.366135	3.588973	0.796964	-1.298647	-2.426427	10.889351	2.553341	-0.801948	-18.497507	17.439703	5.067497	-0.563415	-0.496117	-0.374533
2.964265	-2.968366	6.083972	90.418545	-113.710025	-77.691809	0.177265	0.229611	-1.019248	3.27465	1.335245	9.408061	-7.722541	-2.113845	3.497459	0.797554	-1.296504	-2.455127	10.602378	2.381518	-0.388844	-19.290467	15.988666	3.121205	-0.562789	-0.447539	-0.377044
2.289792	-3.424748	6.694064	100.399921	-142.936594	-86.111763	0.192157	0.201694	-1.012765	3.620581	1.052946	9.415078	-9.377042	-1.03207	3.661026	0.797774	-1.310752	-2.468473	10.482975	2.497693	-0.450457	-20.071376	15.787825	1.566256	-0.562785	-0.466211	-0.329624
1.037083	-3.709596	7.009479	101.966219	-158.464893	-91.155365	0.221098	0.2599	-1.094091	3.271239	1.222442	9.238048	-8.379937	-0.402804	3.144004	0.796888	-1.313968	-2.425424	10.427666	2.324342	-0.272578	-20.481639	15.524923	0.22422	-0.562856	-0.465384	-0.345151
-1.033642	-4.342132	6.455061	96.557394	-161.820652	-90.365827	0.192857	0.260649	-1.093393	3.729907	1.559515	9.191364	-7.721904	0.254825	2.31871	0.823136	-1.312746	-2.440325	11.080705	2.55615	-0.019857	-20.772562	14.586916	-0.87051	-0.563762	-0.529328	-0.357331
-1.890066	-4.570794	6.5511	84.173829	-162.099544	-84.412665	0.151624	0.255058	-1.117081	3.743527	1.391045	9.814257	-6.572863	0.729703	2.2627	0.810015	-1.283252	-2.427707	10.623287	2.386216	0.749387	-20.643862	12.213911	-2.082153	-0.548881	-0.447335	-0.376974
-2.631981	-4.799539	6.649365	67.991959	-159.450998	-75.087546	0.109248	0.273481	-1.133525	3.502255	0.827697	9.242552	-6.081078	0.522327	2.106892	0.771602	-1.296654	-2.454575	10.615854	2.268333	0.329545	-19.904086	9.077432	-3.200668	-0.535182	-0.463324	-0.376067
-3.488778	-4.511227	6.747576	55.706185	-156.646891	-64.329692	0.15161	0.272358	-1.134573	3.16062	1.391839	9.462331	-5.497818	0.252583	2.289649	0.771162	-1.268157	-2.427883	10.325175	2.269997	0.56367	-18.821011	5.872225	-3.464353	-0.562301	-0.415981	-0.36319
-3.369981	-4.280579	6.97818	47.899864	-157.448993	-53.766738	0.110735	0.287595	-1.189829	3.728806	1.503137	9.134677	-4.81677	0.325555	1.828499	0.784433	-1.26701	-2.442509	10.205502	2.502324	0.502551	-17.945484	3.45786	-3.364316	-0.53504	-0.464976	-0.345011
-4.273554	-4.621911	7.584301	46.658257	-161.631643	-43.462335	0.138604	0.283317	-1.176452	3.215337	1.616958	9.35045	-4.416387	0.209601	1.581042	0.79734	-1.222045	-2.431445	9.912061	2.270942	0.555967	-16.693976	2.275387	-3.943884	-0.50709	-0.428878	-0.408656
-4.040124	-4.56367	7.816408	45.496558	-166.468218	-35.132568	0.043147	0.265796	-1.248215	3.207198	1.447634	8.953831	-4.536381	0.455767	1.213456	0.796304	-1.255902	-2.386389	9.922236	2.157015	1.094635	-15.189326	2.043983	-4.712274	-0.534902	-0.447957	-0.361376
-4.273969	-4.047496	7.586714	41.046838	-171.355273	-29.125721	0.041647	0.268982	-1.209403	3.621359	1.278315	9.471907	-4.288523	0.491178	0.967382	0.783698	-1.239584	-2.401467	9.328503	2.273776	0.904404	-13.279774	2.054641	-5.085981	-0.535044	-0.446305	-0.392431
-5.651457	-3.989783	7.389672	31.936664	-173.9332	-19.816944	0.029012	0.28347	-1.265358	3.448771	1.222308	9.468233	-3.922973	0.067982	0.747671	0.823512	-1.236144	-2.445343	9.268926	2.04136	0.842408	-11.800175	2.34	-5.551125	-0.520856	-0.430735	-0.377671
-6.141385	-3.639212	8.68872	15.505059	-173.171482	-15.064579	0.002643	0.284561	-1.317547	3.269037	1.109686	9.124674	-3.708036	-0.022074	0.870261	0.823587	-1.220823	-2.446347	9.338116	1.927298	1.382176	-8.878321	3.233534	-8.133112	-0.54944	-0.478068	-0.406355
-6.770071	-3.638515	8.733324	9.050357	-170.097951	-9.383433	0.017521	0.273944	-1.328557	3.104264	1.391994	9.517761	-3.462711	-0.171659	0.776486	0.823882	-1.219751	-2.460696	9.336321	1.752575	1.26162	-7.518134	3.883642	-8.416188	-0.549019	-0.464354	-0.360609
-7.271383	-2.945707	9.465289	5.273728	-171.342973	-1.510867	-0.053839	0.28606	-1.316151	3.559605	0.94025	9.243855	-3.032099	-0.347947	0.43597	0.861189	-1.195317	-2.377432	8.912203	1.751048	0.654848	-6.097465	4.660434	-9.097376	-0.577185	-0.479302	-0.390968
-7.615857	-3.175466	9.40079	7.61374	-171.609157	9.334267	-0.078694	0.266665	-1.38966	3.742211	1.447328	9.757665	-2.601488	-0.524236	0.095455	0.849464	-1.235994	-2.445895	8.919366	1.985083	1.075185	-4.855893	5.052772	-8.156361	-0.53539	-0.479516	-0.375229
-8.587162	-2.887071	9.496773	6.441736	-170.549465	21.160923	-0.123313	0.281218	-1.339141	3.609055	1.390502	8.905606	-2.456449	-1.258641	0.149925	0.86244	-1.235919	-2.44617	9.091452	1.751137	0.777963	-3.47129	5.249501	-8.956895	-0.563277	-0.479098	-0.390898
-8.534362	-2.888078	9.270474	0.157138	-169.122604	33.773962	-0.122556	0.270975	-1.349801	3.268845	1.84203	9.18193	-4.047854	-2.420291	1.216078	0.863175	-1.263344	-2.487212	9.26603	1.86639	0.661945	-2.875357	5.232378	-7.094755	-0.54909	-0.463528	-0.376137
-9.410088	-2.603867	8.402182	-11.228773	-169.215958	45.456257	-0.177552	0.286587	-1.404708	3.391983	1.447785	9.523853	-6.74755	-3.317855	1.944858	0.914853	-1.309005	-2.485304	9.219389	1.753092	1.319326	-2.286265	5.073022	-6.270975	-0.507157	-0.446723	-0.376763
-9.180371	-2.029376	8.465902	-23.718299	-169.003114	56.808646	-0.192444	0.314503	-1.41119	3.504242	1.053114	9.35602	-9.663036	-4.186899	2.581264	0.902172	-1.308008	-2.499378	8.974811	2.100358	0.89706	-1.977776	4.390741	-5.260307	-0.548952	-0.446509	-0.392502
-9.622202	-1.336128	9.312686	-30.971342	-164.018244	67.180381	-0.233677	0.308913	-1.434879	3.552591	1.446988	8.961084	-13.418161	-5.495652	3.181795	0.914627	-1.354966	-2.482293	9.263248	1.168489	0.419351	-1.796264	3.714954	-4.921562	-0.520923	-0.44858	-0.345778
-10.302574	-1.334183	9.640443	-34.40623	-154.649544	74.944767	-0.289773	0.29664	-1.430066	2.869059	1.448566	9.286415	-18.928742	-6.338918	4.217139	0.875404	-1.356263	-2.467116	9.318423	1.399916	0.24172	-2.260326	3.343688	-4.673616	-0.493458	-0.462711	-0.375856
-10.370471	-0.47469	9.131271	-35.399419	-141.25645	81.357079	-0.33445	0.38039	-1.449513	3.217755	1.617053	9.463729	-23.176638	-7.444529	5.620835	0.87673	-1.381545	-2.536858	9.555608	1.864479	0.367913	-2.913121	3.009913	-5.158646	-0.520927	-0.429908	-0.393198
-10.087747	-0.188413	8.967486	-44.101607	-126.85591	82.504842	-0.306223	0.39694	-1.467704	3.161698	0.828533	9.461856	-25.788212	-8.621371	7.025142	0.837582	-1.367521	-2.522685	9.603195	1.571244	-0.291199	-3.834032	2.9678	-4.360505	-0.521483	-0.479312	-0.375159
-10.029918	0.558527	9.02859	-50.515488	-111.381465	79.310745	-0.392047	0.371303	-1.405889	3.680218	0.602241	9.472547	-26.064885	-8.531692	6.84084	0.862498	-1.401228	-2.47818	9.670319	1.398611	0.128508	-4.842011	3.101329	-2.829392	-0.53539	-0.479516	-0.375229
-9.568956	1.133335	9.21047	-48.918468	-97.061615	72.67219	-0.363848	0.422452	-1.459062	3.679032	1.221877	9.473069	-26.182434	-8.10091	6.382601	0.823865	-1.400381	-2.491702	9.37879	0.819021	0.240348	-5.54692	3.401211	-2.492086	-0.522113	-0.509218	-0.420069
-9.578605	0.614189	8.69662	-49.042942	-86.154983	62.580076	-0.36612	0.45318	-1.427082	3.451943	0.828089	9.58118	-25.750963	-8.187019	6.320435	0.81178	-1.33703	-2.52414	9.265584	1.110907	0.538917	-6.772178	3.754085	-1.541898	-0.577536	-0.493842	-0.421187
-10.31473	-3.367696	17.701554	-51.254099	-75.378047	52.184672	-0.393204	0.412616	-1.416136	3.739554	0.940211	9.58732	-22.40363	-7.403056	5.467727	0.810895	-1.340246	-2.481091	9.19817	0.934836	0.05782	-7.842892	4.262041	-0.745817	-0.535178	-0.481995	-0.328646
-13.53845	8.777791	23.088932	143.308356	-0.281281	72.464667	-0.381756	0.47404	-1.405413	3.741625	0.489615	9.64358	-18.717766	-6.707388	4.706899	0.785018	-1.325076	-2.481543	9.208074	0.937061	0.596982	-9.010694	4.592113	-0.529224	-0.53567	-0.494882	-0.38992
-11.811562	-2.064265	-0.223648	135.231755	50.922138	85.274615	-0.351628	0.456334	-1.441507	3.737352	0.827456	9.473946	-14.873616	-5.674651	4.288664	0.785169	-1.294435	-2.483551	9.265989	0.936679	0.538176	-10.759593	5.004285	0.422592	-0.563344	-0.496943	-0.359005
-16.400564	10.19903	5.592314	43.274948	40.476366	47.47914	-0.337122	0.442189	-1.438441	3.557403	0.827494	9.130481	-11.338015	-4.672077	3.191657	0.785313	-1.324004	-2.495893	9.14232	0.993789	0.236688	-12.326686	5.267953	1.007708	-0.549157	-0.481373	-0.344244
-15.12823	3.983776	3.090326	31.752628	41.360099	38.022045	-0.339394	0.472917	-1.40646	3.678147	1.052838	9.416287	-7.560489	-4.094284	1.874827	0.758991	-1.340546	-2.479988	9.263809	1.40104	0.480247	-13.585262	5.066624	2.296885	-0.534835	-0.430112	-0.393269
-16.852607	6.523827	5.738521	25.593844	38.039041	35.686215	-0.268777	0.453744	-1.390714	3.676484	0.65843	9.302676	-6.100707	-3.491604	1.635369	0.771672	-1.341543	-2.465914	9.562596	1.226879	0.664728	-14.468791	5.167486	4.072295	-0.57663	-0.429899	-0.409007
-17.45535	6.070541	7.088817	63.506853	21.507481	26.569691	-0.254285	0.456898	-1.40514	3.391398	0.490072	9.409768	-4.341344	-3.649633	1.080306	0.759066	-1.325226	-2.480992	9.679953	1.516989	0.668165	-15.630719	4.958609	6.125297	-0.534627	-0.41392	-0.394106
-16.696769	8.53102	5.011217	87.762323	22.668315	15.448987	-0.254256	0.4223	-1.370156	3.62112	0.771293	9.414841	-4.996333	-4.176966	0.735426	0.759512	-1.293513	-2.497349	9.55997	0.935757	0.483771	-16.089134	4.638749	7.3205	-0.507925	-0.493648	-0.405308
-1.588833	5.288836	1.881593	87.37282	7.72772	18.304449	-0.25197	0.374272	-1.384645	3.966189	0.939638	9.422236	-6.579067	-4.777996	0.481551	0.746241	-1.29466	-2.482723	9.319524	1.400163	0.301626	-17.261863	3.891542	8.184128	-0.562789	-0.447539	-0.377044
-3.72294	4.162852	6.836413	-5.401213	-13.342784	14.273356	-0.252356	0.388043	-1.388061	2.930335	0.772587	9.400334	-7.20079	-5.149397	-0.20086	0.758771	-1.326298	-2.466642	9.679123	1.400589	0.607764	-17.579114	3.16226	7.608026	-0.549161	-0.462702	-0.391665
-0.815472	3.883222	9.165004	-24.200749	-4.885469	-1.911166	-0.224872	0.397537	-1.378099	3.908193	1.165068	9.421217	-7.080722	-5.509782	-1.129189	0.785313	-1.324004	-2.495893	9.729761	1.689104	0.190752	-18.508112	2.514653	7.797871	-0.521766	-0.476007	-0.437271
-1.838992	1.817279	9.42054	-27.550336	4.920699	-19.622701	-0.281754	0.430105	-1.39761	3.334179	0.940871	9.465578	-7.83055	-6.24994	-1.93868	0.74587	-1.311052	-2.46737	10.324634	2.502301	0.564659	-18.491378	1.516963	6.67168	-0.549094	-0.444857	-0.423557
-3.252484	-1.337592	10.175374	-27.234425	19.307828	-17.058733	-0.239764	0.425453	-1.384581	3.335603	0.828257	9.522123	-7.934973	-7.257263	-2.84279	0.771747	-1.326223	-2.466918	10.615854	2.268333	0.329545	-17.186881	-0.487092	5.698459	-0.521274	-0.46312	-0.375996
-5.017635	-2.483208	10.590854	-27.983861	21.008063	-15.526063	-0.225629	0.407779	-1.367439	3.915423	0.545669	9.703894	-5.77194	-7.313772	-4.074727	0.811121	-1.294285	-2.484102	10.260811	2.675675	0.324673	-14.802309	-2.768531	5.303376	-0.548672	-0.431143	-0.377811
-5.192324	-3.058222	10.414541	-11.259629	15.016378	-8.832145	-0.253113	0.398286	-1.3774	3.277691	0.377674	9.463895	-4.492169	-8.592744	-2.945783	0.759437	-1.308833	-2.496345	10.382935	1.862836	0.443226	-12.140171	-5.297432	5.275239	-0.563277	-0.479098	-0.390898
-3.826841	-1.912075	10.04812	8.683272	9.783717	-2.718126	-0.253856	0.391229	-1.349248	3.339253	1.448083	9.749203	-6.321917	-13.583467	1.750644	0.772488	-1.293438	-2.497625	9.914262	2.271437	0.675781	-9.166321	-7.334832	5.151936	-0.535253	-0.462497	-0.391594
-3.375409	-0.477575	9.778795	20.238925	8.923177	-0.710606	-0.267991	0.408903	-1.366391	3.96468	1.728265	9.4229	-7.639752	-19.553292	7.085191	0.772413	-1.308758	-2.496621	10.034631	2.213585	0.797548	-6.18506	-8.330644	4.870814	-0.534902	-0.447957	-0.361376
-3.512975	0.609073	8.644091	24.08513	10.460562	0.806037	-0.282483	0.405749	-1.351966	4.311151	1.164313	9.42968	-10.117621	-17.480605	8.891864	0.746021	-1.280411	-2.469377	10.039707	1.924194	1.03594	-2.646871	-8.614	3.911869	-0.521345	-0.462293	-0.391524
-3.577035	0.779991	8.302583	17.418872	9.193891	-1.342118	-0.182896	0.410184	-1.382562	4.08259	-0.356227	9.366924	-8.050478	-15.504535	6.138604	0.772783	-1.292366	-2.511974	10.403303	2.099837	1.582446	1.177462	-8.105485	3.376007	-0.54909	-0.463528	-0.376137
-3.969939	0.667087	8.692278	9.862434	6.95615	-2.246114	-0.252341	0.370744	-1.370569	4.271943	-1.090615	7.388757	-28.70593	-17.055854	6.322361	0.720439	-1.264169	-2.484179	10.457918	2.098713	1.343919	4.60215	-7.13486	2.380937	-0.520998	-0.429082	-0.408726
-3.562518	0.725686	9.041432	5.741559	5.037556	-2.786797	-0.253113	0.398286	-1.3774	4.264311	-0.018188	9.823952	-26.954469	-13.555827	-0.331167	0.772708	-1.307687	-2.510971	10.042489	2.622095	1.278534	7.625469	-6.195629	1.326351	-0.534906	-0.429286	-0.408796
-3.556412	-0.019848	9.32256	4.132798	3.508845	-4.156428	-0.241265	0.428639	-1.345769	4.031655	0.601832	9.762998	-25.942231	-19.200377	-2.729402	0.746461	-1.308909	-2.496069	10.51983	2.273548	1.525482	10.335429	-5.620466	-0.12267	-0.534835	-0.430112	-0.393269
-4.009621	-0.535525	9.538893	9.922761	2.759953	-3.510557	-0.240136	0.421925	-1.370505	4.943688	0.836923	22.860234	-16.143455	-28.830683	-7.009843	0.773229	-1.260653	-2.528331	10.279073	1.924396	1.220062	11.870596	-5.571409	-1.381534	-0.535599	-0.495709	-0.374392
-3.891398	-1.051858	9.709507	16.98483	3.254322	-0.854708	-0.266848	0.384889	-1.373635	3.27398	1.053545	9.351185	29.471954	-78.340147	-11.472854	0.694117	-1.280712	-2.468274	10.275367	2.097882	1.041083	13.310103	-5.454574	-3.31273	-0.576906	-0.463936	-0.376277
-3.389434	0.438595	9.100419	20.346076	4.08555	3.105262	-0.239736	0.390855	-1.349598	4.201877	1.505133	12.428236	-8.59976	-72.41519	-11.043843	0.707608	-1.293813	-2.496246	10.567997	2.67772	0.989151	13.676448	-4.639028	-5.151659	-0.535111	-0.46415	-0.360539
-3.11265	1.240639	8.65454	16.881499	4.199607	2.473073	-0.253856	0.391229	-1.349248	4.491344	1.27932	12.490731	11.100666	-87.676479	-12.721037	0.719994	-1.295882	-2.467822	10.60815	2.266603	-0.089804	14.326294	-3.212911	-6.780573	-0.548881	-0.447335	-0.376974
-3.629178	1.413096	8.588389	9.632233	3.68269	-0.97992	-0.238993	0.397911	-1.37775	4.291791	0.151895	11.126805	6.273058	-95.855077	-14.655834	0.681291	-1.250146	-2.470006	10.858501	1.804421	0.631503	14.185245	-1.251354	-7.21728	-0.493875	-0.495096	-0.374182
-3.403542	1.469648	8.422525	1.921406	2.886346	-4.374861	-0.253885	0.425828	-1.384232	4.699392	0.883674	11.419082	1.596571	-101.854154	-16.538012	0.707903	-1.292741	-2.510596	10.737592	2.094577	0.510725	13.89305	0.517624	-6.827369	-0.534764	-0.430939	-0.377741
-3.45135	0.724879	8.8731	-3.513901	2.296937	-6.116922	-0.267619	0.412431	-1.380467	4.534619	1.165982	11.81217	0.409757	-110.182756	-16.714209	0.654523	-1.298401	-2.437744	10.678866	2.443415	0.571014	13.00295	1.717492	-7.807826	-0.507787	-0.476629	-0.421673
-3.786751	0.267284	9.26246	-2.7148	2.325478	-5.597385	-0.280583	0.371493	-1.36987	4.520328	1.052752	11.1324	-8.400608	-117.939392	-15.996867	0.655554	-1.324754	-2.493136	10.442802	2.443955	0.566613	11.649865	2.450867	-8.203718	-0.549231	-0.461875	-0.407192
-3.789842	-0.078089	9.090453	-2.367259	2.234299	-2.839684	-0.238592	0.366841	-1.356842	4.12892	1.335633	11.69057	-14.823376	-127.471158	-16.096742	0.628647	-1.283231	-2.438196	10.317471	2.268267	0.144322	10.068189	2.121017	-9.388285	-0.549507	-0.495913	-0.374463
-3.723887	0.211008	9.547597	-1.688523	1.942784	-1.251623	-0.253513	0.429356	-1.398308	4.841764	0.546519	12.667286	-17.387611	-139.597238	-15.633566	0.628572	-1.298551	-2.437193	10.609251	2.26685	-0.029897	8.423573	1.607092	-10.541173	-0.521483	-0.479312	-0.375159
-3.901508	0.612016	9.261681	-0.155871	1.949244	-1.194594	-0.265705	0.360876	-1.38088	4.430452	0.490611	12.262299	-20.748621	-153.781172	-16.609512	0.616707	-1.249449	-2.482977	9.787156	2.385881	0.194819	6.408898	0.657279	-11.07943	-0.520715	-0.432387	-0.346615
-4.059619	0.212945	9.938888	1.929776	1.672654	-0.346387	-0.267262	0.433259	-1.412035	5.026765	0.434008	13.237214	-22.741399	-167.301213	-18.070981	0.602845	-1.25274	-2.439652	9.838895	2.674643	-0.162286	4.642703	-0.17086	-11.466363	-0.549161	-0.462702	-0.391665
-3.443799	-0.479946	9.209151	4.996076	1.338137	0.590056	-0.267219	0.381361	-1.359559	5.012043	0.5461	12.557634	-19.028759	-181.52104	-18.949085	0.551312	-1.236648	-2.453902	9.834358	2.73173	-0.401666	2.233784	-0.482566	-11.731193	-0.53567	-0.494882	-0.38992
-4.077642	0.496293	9.030445	6.340319	0.855855	0.302337	-0.282855	0.402221	-1.33789	5.356765	0.263754	12.508011	-15.189802	-193.042467	-19.307043	0.564137	-1.267213	-2.452171	8.773553	2.095324	-0.424193	0.35243	-0.364136	-11.999985	-0.53539	-0.479516	-0.375229
-3.852131	0.725169	8.865305	5.635201	1.197566	-0.303438	-0.279825	0.36125	-1.38053	5.474314	0.263633	12.623708	-8.164544	-204.072595	-18.301166	0.498968	-1.208451	-2.426107	9.140605	2.678488	0.363671	-1.771684	-0.222938	-11.595687	-0.54944	-0.478068	-0.406355
-3.736592	0.840211	8.924868	4.798268	0.688994	-1.873369	-0.25387	0.408528	-1.36674	6.110467	-0.638793	12.692887	4.299924	-212.683916	-19.918001	0.524034	-1.211516	-2.383609	9.259738	2.678465	0.425779	-3.683738	-0.53949	-11.220531	-0.50785	-0.513145	-0.342359
-3.785513	0.095201	9.318589	4.945948	0.298887	-2.646843	-0.282483	0.405749	-1.351966	6.547136	-0.809596	11.569624	19.549172	-215.464261	-15.802525	0.510908	-1.242232	-2.381326	8.678225	2.275014	0.832392	-5.227946	-1.192138	-10.753421	-0.522042	-0.510044	-0.404541
-3.507983	-0.136702	8.868366	6.390335	-0.238037	-0.788964	-0.238978	0.380612	-1.360258	7.180702	-0.36009	11.639941	35.850615	-216.192152	-18.35528	0.471685	-1.243529	-2.36615	8.265517	2.101731	0.823947	-6.836673	-1.994798	-10.590964	-0.549228	-0.480546	-0.359772
-3.561156	0.381278	9.096837	5.86743	0.015468	-1.672715	-0.309195	0.368714	-1.355096	8.289663	1.551475	9.853264	60.088181	-209.288111	-17.619848	0.457974	-1.216179	-2.324832	8.271424	1.928739	1.12274	-8.072194	-2.709086	-9.971873	-0.535603	-0.477037	-0.421813
-3.449905	0.265588	8.928022	6.640356	0.062083	-0.048774	-0.26609	0.374647	-1.384295	9.407184	0.252295	8.177163	84.080345	-199.109368	-11.149048	0.419636	-1.21426	-2.352704	8.263701	1.462153	0.641507	-8.720408	-3.082579	-9.570457	-0.549507	-0.495913	-0.374463
-3.271709	0.611561	9.273929	4.985181	0.399359	-0.651888	-0.283198	0.364094	-1.28883	9.184879	-0.988693	5.73699	77.950564	-185.456452	-7.843148	0.41823	-1.264509	-2.292294	8.330035	2.102832	1.124582	-8.872127	-3.243013	-8.896809	-0.535532	-0.477864	-0.406285
-3.446523	0.20887	9.09834	1.80117	1.094785	-0.938101	-0.267205	0.364062	-1.342068	6.959118	-1.83112	3.821234	50.445577	-167.577988	-7.163628	0.404148	-1.253551	-2.235623	8.090824	2.50941	1.002097	-8.321678	-4.070697	-8.528123	-0.507992	-0.511493	-0.373415
-3.561405	0.725927	9.098285	1.684643	2.328694	-1.377734	-0.267605	0.395132	-1.362975	2.66452	-2.613194	2.031922	36.843194	-123.000448	-12.835548	0.391612	-1.282123	-2.26204	8.324823	2.4503	0.886438	-7.928722	-5.513538	-7.880882	-0.522321	-0.525411	-0.419231
-3.610285	-0.076524	9.491765	0.615211	2.658604	-1.09328	-0.296232	0.409652	-1.365693	-1.013185	-3.223358	4.898081	26.292288	-64.085592	-16.235267	0.3776	-1.316055	-2.216708	8.274185	2.161785	1.30345	-7.466515	-6.10125	-7.085164	-0.493529	-0.461885	-0.391384
-3.784648	0.440091	9.37689	0.984992	2.591905	-0.482067	-0.281711	0.378207	-1.345134	-5.307431	-3.946718	5.826309	27.269152	-25.029014	-30.519727	0.377305	-1.317127	-2.202358	8.507104	2.567283	1.189768	-6.346726	-5.619192	-5.991314	-0.535737	-0.512727	-0.358027
-3.841446	-0.191724	9.373122	3.348472	2.49856	0.58299	-0.269134	0.432917	-1.359147	-4.260781	-3.103226	6.415177	23.746382	4.955434	-46.068875	0.390877	-1.254698	-2.220998	8.984019	1.928108	1.375573	-6.052168	-4.563987	-4.408213	-0.507854	-0.494474	-0.38978
-3.499033	-0.192214	9.32295	6.630803	2.442326	1.461992	-0.281354	0.399035	-1.376702	-4.864108	-2.539886	5.157491	14.914605	35.634826	-57.11448	0.390721	-1.345549	-2.229326	9.386553	2.215318	0.84535	-5.871741	-2.471087	-2.646258	-0.549161	-0.462702	-0.391665
-3.960244	-0.422372	9.142517	12.612333	1.859558	3.796696	-0.296989	0.419895	-1.355033	-4.47716	-2.144559	7.147462	13.940516	67.079577	-44.164287	0.377675	-1.300734	-2.217711	9.280761	2.160231	1.501878	-6.182865	-0.134905	-0.914221	-0.521833	-0.493852	-0.405378
-4.06803	-0.478283	9.481168	17.944775	1.070134	5.117869	-0.311081	0.385671	-1.3197	-4.590736	-1.693605	7.258703	10.691209	79.890498	-31.647514	0.416378	-1.346471	-2.215527	9.38999	2.157983	1.024824	-6.804423	2.017923	0.697587	-0.521341	-0.480964	-0.344104
-3.72294	0.441015	9.605416	22.581856	1.5329	6.86005	-0.351971	0.418207	-1.392448	-4.014435	-2.032666	7.270507	8.337762	90.66266	-15.049983	0.416898	-1.299437	-2.232888	9.329583	1.809168	0.902426	-7.834259	3.841987	1.426127	-0.521971	-0.510871	-0.389013
-3.84718	0.036836	9.089822	24.781959	0.872667	6.352319	-0.393133	0.32612	-1.328677	-4.06671	-1.638007	7.552828	6.843997	103.724248	4.469434	0.443661	-1.311392	-2.275485	8.793361	2.099774	0.654131	-9.028082	4.845879	1.547912	-0.535953	-0.491577	-0.452032
-3.674179	-0.135372	9.149291	27.510724	0.91231	6.682442	-0.407639	0.340265	-1.331744	-3.269364	-1.583518	7.173323	6.056088	121.182029	22.954905	0.404287	-1.34333	-2.258301	8.437603	1.867786	0.526725	-10.238034	4.359045	0.882228	-0.549507	-0.495913	-0.374463
-3.903735	0.611534	9.147974	28.769908	1.035194	7.202147	-0.404581	0.264696	-1.339401	-2.91715	-1.358558	7.520604	5.815773	140.277568	40.070441	0.41889	-1.307255	-2.332333	8.853592	1.576955	0.653006	-11.355743	3.562545	0.61501	-0.52225	-0.526237	-0.403704
-3.855471	0.724446	8.694746	27.536912	0.330635	6.488913	-0.433179	0.244617	-1.307135	-1.808039	-1.81068	8.222869	6.658255	156.829098	54.479788	0.482884	-1.310095	-2.290662	9.021722	2.097504	0.239184	-12.160517	3.224117	0.527851	-0.508413	-0.525207	-0.419161
-3.344351	1.872179	8.539034	27.940879	2.069117	5.135995	-0.374396	0.177792	-1.305528	-0.826901	-1.868748	8.356653	5.197381	171.686897	65.540971	0.470869	-1.291634	-2.334439	9.198501	2.213251	0.24298	-12.933128	3.224812	0.194453	-0.521971	-0.510871	-0.389013
-3.622207	1.012452	8.927819	12.604018	1.476734	2.318465	-0.374382	0.160493	-1.288037	0.051995	-1.081074	9.168405	2.412352	183.95708	71.395697	0.510613	-1.243304	-2.366977	9.085275	2.040281	0.479665	-13.519199	2.974833	0.503398	-0.549716	-0.512105	-0.373626
-3.449164	0.782803	8.987047	10.17639	1.828858	0.092433	-0.357947	0.077492	-1.267891	1.440448	-2.153751	9.423076	-2.560709	193.807203	72.938895	0.497116	-1.290412	-2.34934	9.742581	2.331154	0.972261	-14.1266	3.544999	1.358644	-0.549995	-0.527471	-0.388316
-3.283383	1.355888	8.708535	7.168073	1.860516	-1.217118	-0.342311	0.056632	-1.28956	1.860892	-1.815811	10.281417	-9.147509	200.293054	70.562405	0.549465	-1.258399	-2.3668	9.57171	2.042415	1.267258	-14.091939	3.817269	1.662852	-0.521695	-0.476833	-0.421743
-3.738901	0.954611	8.811644	1.214261	1.481012	-2.708894	-0.327434	0.046015	-1.30057	2.494674	-1.478966	10.351639	-13.940934	206.609282	64.763309	0.60211	-1.225315	-2.39861	9.50337	2.737732	0.849776	-13.998029	3.783859	1.968304	-0.521833	-0.493852	-0.405378
-3.68404	1.183853	8.700017	-2.192723	1.479731	-3.987187	-0.271337	0.058287	-1.305382	3.431866	-1.705396	11.107106	-18.102278	211.50272	57.624861	0.589285	-1.194749	-2.400342	9.860188	2.040257	0.913319	-12.856951	3.507923	2.423939	-0.536091	-0.508596	-0.435667
-3.733458	1.128142	9.096634	-3.756795	1.412708	-4.137117	-0.227832	0.03315	-1.313674	4.53066	-1.819915	11.356539	-22.352039	214.198049	49.262143	0.615607	-1.178206	-2.416246	9.334275	2.15886	1.203444	-11.565947	2.930108	2.544275	-0.535812	-0.49323	-0.420976
-3.783161	-0.076641	9.431571	-1.970708	1.86599	-2.724137	-0.143509	0.061973	-1.336677	5.456673	-1.258097	11.659554	-24.906226	211.656103	39.615557	0.60145	-1.182569	-2.358572	9.925807	2.041605	1.273861	-9.845582	2.234011	2.419112	-0.549161	-0.462702	-0.391665
-3.841162	0.957348	9.434801	-1.841565	2.317106	-1.797127	-0.144267	0.072215	-1.326017	6.670382	-1.260171	11.9115	-28.017434	201.700706	29.24747	0.653944	-1.180125	-2.388374	9.746578	2.506371	1.21263	-7.358488	1.300068	1.894984	-0.480042	-0.475395	-0.43706
-3.850111	1.012859	8.980218	-0.124373	1.85302	-0.828231	-0.131289	0.095855	-1.319122	7.422359	-1.26143	12.097134	-35.744971	188.45816	20.754582	0.666625	-1.181122	-2.3743	9.108789	1.871245	1.736968	-4.724203	-0.178881	0.883915	-0.577606	-0.493016	-0.436714
-4.077891	0.840942	9.031893	0.827505	1.946174	-0.522776	-0.160288	0.106847	-1.307763	7.133239	-0.584925	12.091659	-47.680169	175.077927	15.648279	0.666996	-1.16473	-2.389653	9.408117	1.46478	1.92046	-2.494185	-2.056287	-0.184905	-0.549649	-0.49426	-0.405518
-4.079005	0.840701	8.97504	0.369458	2.377399	-0.790462	-0.203064	0.15634	-1.345115	7.082064	-0.133888	12.430667	-62.460998	164.327521	14.943627	0.667291	-1.163658	-2.404003	9.174408	1.872594	2.09751	-0.079603	-4.11843	-1.070127	-0.508342	-0.526033	-0.403633
-3.27072	0.784126	9.331506	-0.861823	2.355893	-2.106	-0.132832	0.150939	-1.332785	6.694175	0.205466	13.158804	-73.653603	158.999957	16.299732	0.680267	-1.163583	-2.404279	8.999135	1.582866	2.152879	3.569713	-6.023485	-1.930002	-0.550137	-0.525819	-0.419372
-3.722116	0.843347	9.663958	-0.619829	1.552453	-1.629062	-0.160702	0.155216	-1.346163	7.054875	1.050441	13.959723	-74.205077	157.083824	17.821674	0.667291	-1.163658	-2.404003	8.80369	2.392627	1.254436	6.33016	-7.755457	-2.084545	-0.521904	-0.493026	-0.420906
-3.856461	0.55188	8.637169	1.813543	2.780506	-0.512055	-0.189729	0.200807	-1.369788	8.058118	1.443918	15.170038	-63.775328	151.29426	19.283072	0.71993	-1.190783	-2.446148	9.575551	1.810853	1.44599	9.378974	-8.327227	-1.940045	-0.56349	-0.476619	-0.437481
-3.444752	0.84121	9.214701	4.110092	1.826738	0.508543	-0.146996	0.203211	-1.384911	8.334226	2.51328	14.723867	-45.12197	138.656852	20.374645	0.733056	-1.160067	-2.448431	8.933652	1.523441	1.79209	11.998511	-8.408305	-2.071394	-0.576976	-0.46311	-0.391805
-3.732055	0.726293	9.151798	3.967826	2.795874	1.720745	-0.148511	0.223697	-1.363591	8.774307	2.455281	13.770618	-33.444554	124.124898	21.071813	0.746918	-1.156776	-2.491756	9.166975	1.754711	1.677667	14.221291	-8.529607	-1.406491	-0.507925	-0.493648	-0.405308
-3.621094	1.012694	8.984672	2.496539	2.507902	2.118978	-0.160745	0.207114	-1.398638	9.197787	2.227626	12.024272	-28.712493	112.505105	21.977361	0.759523	-1.173093	-2.476678	9.572365	1.28718	1.204137	15.825926	-8.774533	-0.830444	-0.536509	-0.540981	-0.433992
-3.964371	0.668293	8.976543	3.843608	2.330504	2.050882	-0.161459	0.165459	-1.335503	9.532777	3.240597	11.635901	-27.704975	104.247474	21.526051	0.799342	-1.109443	-2.51022	8.863806	2.392739	1.315443	17.517224	-9.846256	-0.12851	-0.550413	-0.559856	-0.386642
-3.449082	0.66792	8.986564	3.384555	2.889869	1.325272	-0.203107	0.208238	-1.39759	13.405479	-0.369061	14.827832	-31.869275	97.109939	17.752166	0.798382	-1.127979	-2.466167	9.277709	1.578482	1.259778	18.130156	-10.706164	0.423507	-0.508413	-0.525207	-0.419161
-3.909758	1.242185	8.866363	-1.560003	2.2392	-0.23513	-0.190458	0.176451	-1.324144	9.441185	5.375358	4.84216	-3.21988	75.152013	5.317722	0.812098	-1.095119	-2.497149	9.679143	1.865445	0.669648	18.715209	-11.447611	1.34182	-0.535953	-0.491577	-0.452032
-3.623735	1.586627	8.873379	-0.582172	2.189617	-0.882779	-0.204221	0.197653	-1.355363	12.267752	5.318705	10.562892	3.254781	78.864175	3.232704	0.83834	-1.154107	-2.522386	9.435085	1.515551	0.184508	18.842622	-11.144446	1.645544	-0.549787	-0.511279	-0.389153
-4.305257	0.094609	9.081155	-2.205238	1.677463	0.248285	-0.163003	0.220543	-1.349166	12.626442	5.318579	11.193181	2.943789	94.911784	-5.11643	0.825734	-1.13779	-2.537463	9.61775	0.99345	0.425212	18.817262	-10.471948	1.672989	-0.494714	-0.541195	-0.418254
-3.846191	0.209402	9.147399	1.292508	1.150477	2.069715	-0.16226	0.2276	-1.377318	13.541477	3.793215	8.097274	39.548021	97.270428	-8.947795	0.863921	-1.170349	-2.507584	9.425181	1.513326	-0.354654	18.183321	-9.475602	2.709685	-0.549298	-0.47972	-0.3753
-3.904931	0.726176	9.091604	5.894772	0.468376	4.468101	-0.190486	0.21105	-1.359128	14.506377	-2.45758	12.301474	64.243592	95.647269	-17.4524	0.876752	-1.140705	-2.495517	9.844201	1.339389	-0.048158	17.02214	-8.226975	2.830185	-0.521691	-0.495504	-0.374322
-3.943873	0.040779	9.997244	6.160743	2.287348	6.796914	-0.162645	0.241371	-1.380734	14.719975	2.60673	6.592396	66.550134	70.09385	-23.28441	0.85087	-1.185745	-2.506304	9.536881	1.39542	-0.712389	14.056195	-5.894736	4.02178	-0.536363	-0.561305	-0.355516
-3.239708	1.020648	10.924358	4.406902	6.154328	6.588807	-0.162245	0.2103	-1.359826	15.20059	2.60429	4.847448	65.359067	36.872249	-26.421018	0.889503	-1.186592	-2.492782	9.369466	1.514202	-0.176034	13.758961	-4.892414	4.598788	-0.507783	-0.4953	-0.374252
-3.76387	2.512812	10.522639	7.725975	23.623183	4.22581	-0.160745	0.207114	-1.398638	14.116227	1.252306	2.445687	49.199593	5.463207	-17.929923	0.903584	-1.197549	-2.549453	9.561745	0.645624	0.542442	11.962511	-5.939169	4.640854	-0.536296	-0.54346	-0.387409
-3.707133	0.776696	7.504413	7.208384	21.540216	0.697353	-0.189729	0.200807	-1.369788	13.54784	4.016437	5.719809	7.574187	-22.255058	-9.854006	0.903364	-1.183301	-2.536107	9.855476	1.225709	0.550416	10.85189	-6.997662	6.05588	-0.522668	-0.558622	-0.402029
-4.057765	0.730401	10.054766	-10.687804	19.191033	-2.724145	-0.149296	0.268538	-1.387914	13.333555	5.14419	6.565516	1.472023	-39.348892	3.627903	0.890018	-1.199768	-2.520478	10.212449	0.935013	0.675597	10.201377	-8.018853	6.980044	-0.550066	-0.526645	-0.403844
-3.812253	1.021062	10.913223	-7.264911	27.664893	-3.270971	-0.161874	0.213829	-1.373902	13.164617	5.708009	6.788922	9.820629	-54.506244	16.123709	0.876376	-1.217307	-2.490499	9.916828	1.167992	0.671083	10.192374	-8.839998	6.525528	-0.480385	-0.527277	-0.372437
-3.648201	0.904366	10.518109	-9.651786	33.782038	-4.360746	-0.177152	0.255516	-1.3838	14.57698	3.901552	5.401637	17.822574	-70.62037	23.923936	0.902253	-1.232478	-2.490047	9.912696	1.050851	0.430961	9.970608	-9.3573	6.192592	-0.494714	-0.541195	-0.418254
-4.279155	0.962022	10.449249	-8.02146	39.004098	-3.48317	-0.163003	0.220543	-1.349166	4.320414	2.009698	9.940147	21.507505	-70.053005	-4.183236	0.850644	-1.231706	-2.503293	9.976674	1.284257	0.732585	10.211943	-9.9051	6.010946	-0.577811	-0.52788	-0.388457
-4.170337	1.133058	10.167934	-12.759428	45.615959	-3.116707	-0.148896	0.237468	-1.367007	3.962568	0.547519	11.912838	29.705002	-50.903025	-17.981938	0.902404	-1.201837	-2.492054	10.211233	1.457697	0.677822	10.113048	-10.203743	5.279188	-0.521553	-0.478486	-0.390687
-4.342059	1.07574	10.164353	-14.798057	52.390387	-2.448685	-0.176352	0.193376	-1.341985	2.596597	-2.547694	12.334333	30.711914	-37.933566	-24.819055	0.863325	-1.232703	-2.489219	10.69008	0.935169	0.983935	10.327531	-10.417711	5.34056	-0.508063	-0.510667	-0.388943
-4.376961	0.965724	11.299818	-21.370738	59.82496	-2.247575	-0.134361	0.188724	-1.328957	1.762516	-0.462904	11.186371	48.689438	-47.799672	-28.9101	0.86347	-1.262272	-2.501562	10.623516	1.340353	0.625123	9.18835	-10.549207	5.834342	-0.550688	-0.593894	-0.353912
-4.305563	1.428351	12.041952	-18.501955	72.218957	-1.993011	-0.135519	0.230037	-1.339204	1.193379	0.944432	8.911092	53.44578	-59.54323	-24.923086	0.824102	-1.234	-2.474043	10.510966	0.877004	0.860572	9.156745	-10.796224	6.049585	-0.522247	-0.544908	-0.356283
-4.090482	0.678309	11.304179	-19.187265	84.028163	-0.449654	-0.106163	0.239873	-1.38213	1.586928	2.070003	8.580665	42.867994	-64.740419	-15.241969	0.810681	-1.265788	-2.45741	11.094815	1.222873	0.573526	8.953747	-10.790368	8.373205	-0.549649	-0.49426	-0.405518
-4.36768	0.45068	11.752471	-24.926755	95.146192	3.029063	-0.16376	0.230786	-1.338506	3.780266	2.798489	8.967058	37.132783	-60.187833	-0.157455	0.850494	-1.262347	-2.501286	10.435173	0.989582	-0.038637	8.573944	-10.428214	11.673908	-0.536158	-0.526441	-0.403774
-4.521959	0.914197	12.660711	-29.167441	106.123049	5.979771	-0.078651	0.214767	-1.337185	4.55307	1.389679	10.001101	22.772961	-46.855672	11.061753	0.849533	-1.280883	-2.457233	10.665735	0.987806	-0.33377	7.03931	-10.540336	13.116599	-0.563832	-0.528502	-0.372859
-4.303786	0.509528	12.094945	-28.015125	120.826993	10.232825	-0.079408	0.22501	-1.326525	4.252569	0.43203	9.314575	23.045477	-40.527715	5.359931	0.796888	-1.313968	-2.425424	10.895083	1.508714	-0.626677	4.632278	-11.569717	14.230614	-0.562927	-0.464558	-0.360679
-4.002257	0.97223	12.898386	-40.403179	137.56869	13.392599	-0.037432	0.237657	-1.330988	4.13867	1.051976	9.425958	22.498549	-35.813024	-3.842081	0.810901	-1.280036	-2.470756	10.900855	1.393798	-0.327637	2.900049	-12.279434	14.240276	-0.535324	-0.461671	-0.407122
-5.126023	0.747877	13.955359	-48.840269	158.564177	16.763454	-0.03819	0.2479	-1.320328	3.505558	0.996831	9.412613	20.99728	-33.23014	-12.510991	0.784873	-1.295507	-2.469201	10.903596	1.161988	-0.208813	2.086443	-12.601124	12.533054	-0.549574	-0.513758	-0.34257
-4.499109	0.11484	13.794394	-62.543993	181.795957	18.345924	-0.079794	0.238781	-1.329941	3.210825	1.447777	9.123749	15.269727	-32.233876	-16.544059	0.784428	-1.327219	-2.452844	10.731104	1.570162	0.089151	1.886625	-13.00826	10.426689	-0.521829	-0.512523	-0.357957
-4.250753	1.095523	14.826306	-74.350766	207.831505	22.421675	0.0023	0.246434	-1.268488	2.645273	1.223912	9.564587	11.180658	-28.09945	-14.225038	0.795708	-1.318255	-2.368025	10.843634	1.568656	-0.208182	1.451149	-12.661061	9.234563	-0.52162	-0.496331	-0.358794
-4.237101	0.696327	15.506854	-85.500399	238.329885	22.919124	0.03207	0.2079	-1.273015	4.209617	0.376376	9.992994	4.214252	-19.607048	-13.344704	0.784578	-1.296579	-2.454851	10.205461	1.572613	0.378782	1.429942	-10.971937	8.554147	-0.535528	-0.496535	-0.358865
-4.117149	0.869775	15.79407	-91.854524	270.217863	24.345347	-0.012564	0.239752	-1.239987	4.619158	0.094206	10.284417	13.894926	-11.470366	-14.920687	0.771157	-1.328366	-2.438218	10.147566	2.037851	0.499473	1.014377	-7.93049	7.10459	-0.535111	-0.46415	-0.360539
-3.033355	0.293608	15.585401	-97.699215	300.668486	25.133508	0.071774	0.251276	-1.245498	4.503034	-0.018287	10.225265	28.296826	-3.613646	-16.156547	0.770421	-1.300941	-2.397176	9.563041	1.982361	0.787756	-0.012601	-4.311283	5.776764	-0.535461	-0.47869	-0.390757
-3.206723	-0.568374	15.464735	-100.962618	325.255954	21.250025	0.111506	0.260053	-1.182997	3.515337	0.94088	9.865682	41.105618	0.337369	-18.758078	0.797184	-1.312896	-2.439773	9.256396	1.748013	0.122289	-1.629247	-1.245656	4.545422	-0.548952	-0.446509	-0.392502
-4.813193	0.983226	15.326366	-90.93463	341.598012	10.754355	0.110406	0.232168	-1.123278	3.732409	0.883596	9.247435	44.373877	2.025895	-22.129611	0.809124	-1.346677	-2.394993	8.551909	1.576147	0.288062	-4.678683	3.180958	4.321392	-0.562998	-0.463732	-0.376207
-7.531585	3.507052	13.977029	-57.824902	345.356373	-4.00005	0.166502	0.244441	-1.12809	3.615985	1.559778	9.245586	43.985221	2.946973	-23.076393	0.796368	-1.361001	-2.408063	8.192715	1.401493	-0.018816	-8.638497	8.446093	5.53317	-0.521203	-0.463946	-0.360469
-10.912528	4.485521	13.801729	-15.566383	335.442563	-30.108069	0.164259	0.240571	-1.061127	3.404179	1.391929	10.090202	42.699552	3.993496	-21.494858	0.835226	-1.315886	-2.397551	7.523209	2.095687	-1.046372	-12.32608	14.126166	5.183213	-0.577536	-0.493842	-0.421187
-14.054529	1.604344	11.05744	37.138921	300.991787	-45.75924	0.149038	0.213061	-1.001058	2.92751	1.617497	9.344406	41.123937	3.857491	-22.514761	0.796512	-1.39057	-2.420406	7.80495	2.150121	-1.759505	-17.302526	20.411431	5.048987	-0.563624	-0.512309	-0.373696
-12.164683	2.522282	11.154899	79.418598	275.80263	-51.598088	0.163144	0.229986	-1.018899	3.099667	1.898826	9.348269	34.350067	3.209029	-20.892842	0.810154	-1.373031	-2.450384	7.625295	2.32426	-1.881878	-22.234548	25.736424	3.14648	-0.535812	-0.49323	-0.420976
-9.060792	-1.338955	8.75529	97.108108	245.221206	-60.644623	0.162044	0.202101	-0.959179	3.202517	2.630481	8.841547	27.351366	2.055918	-17.549806	0.835735	-1.389273	-2.435582	8.339801	1.97542	-1.570622	-27.818349	29.918729	2.077025	-0.549995	-0.527471	-0.388316
-6.590886	-3.119977	9.136808	109.348561	216.426346	-48.355749	0.202162	0.197107	-0.893263	2.797488	3.081832	8.776825	19.106945	0.234504	-12.888823	0.810669	-1.386207	-2.47808	9.22904	2.148611	-1.313746	-33.572444	33.855405	4.004591	-0.550066	-0.526645	-0.403844
6.448215	-4.98352	5.631771	150.056229	154.393403	-24.39034	0.21554	0.189676	-0.86546	2.631722	3.251431	9.113178	10.45021	-2.190365	-5.829571	0.809413	-1.405815	-2.419678	10.237277	2.379856	-0.994515	-37.365621	36.611377	5.411126	-0.53567	-0.494882	-0.38992
7.802818	-6.921946	-4.181712	216.066507	42.842704	-14.524567	0.200662	0.200293	-0.854451	2.51184	2.575443	8.826993	1.265729	-2.497343	-0.13685	0.835735	-1.389273	-2.435582	10.110866	2.668776	-1.414828	-40.037756	38.415109	4.617532	-0.577047	-0.462284	-0.407333
4.234902	-8.014867	-5.221836	85.302102	-47.508385	9.16386	0.188027	0.214781	-0.910405	2.637935	1.899641	9.281958	-6.114871	-2.030321	3.222128	0.823055	-1.388276	-2.449656	10.779157	2.497265	-0.385048	-41.823656	38.528855	4.837407	-0.549791	-0.492608	-0.436574
3.755206	-4.592309	2.569026	26.871294	-117.010057	2.774935	0.202548	0.183336	-0.889847	3.157017	2.011379	9.349573	-10.072402	-2.095789	5.561249	0.82313	-1.372956	-2.45066	10.904217	2.789106	0.037737	-41.988436	35.877787	6.715075	-0.56412	-0.506526	-0.48239
-0.163008	-2.834033	10.058669	-17.334088	-99.227857	-13.339468	0.231532	0.189644	-0.918697	3.285553	1.955355	9.974979	-11.613508	-1.752637	6.364961	0.809934	-1.358782	-2.437038	11.445962	2.964591	0.647452	-40.610838	31.239608	6.029235	-0.535324	-0.461671	-0.407122
2.012205	-2.203751	10.103636	7.81338	-69.848402	-9.898171	0.175436	0.177371	-0.913885	2.981341	1.673577	9.175743	-11.983473	-1.638706	6.982366	0.836106	-1.372881	-2.450936	11.284299	2.503602	1.420963	-37.939475	25.366052	6.933956	-0.57726	-0.459805	-0.453916
4.989363	-1.471512	7.26628	44.742092	-87.527408	-19.186226	0.189556	0.176996	-0.914234	3.622245	1.447354	9.528689	-7.593841	-1.455555	6.247835	0.796223	-1.331432	-2.395721	11.111112	2.7373	1.658278	-33.813101	19.579606	8.811075	-0.549164	-0.44403	-0.439085
5.728103	-1.473257	6.99649	87.878844	-126.366739	-33.836294	0.219283	0.19036	-0.971236	3.045813	1.223063	9.459771	-4.49726	-0.921288	5.577413	0.796443	-1.345681	-2.409067	10.650528	2.508549	2.247554	-28.458462	14.552497	8.693409	-0.577469	-0.475997	-0.453079
5.149085	-1.761498	6.64303	110.639151	-160.199517	-48.623625	0.203634	0.22852	-0.967058	3.396818	1.447975	9.750412	-2.024334	-0.825581	5.117928	0.797548	-1.356713	-2.465462	10.118417	2.451441	2.177496	-22.395921	9.810032	7.929959	-0.54868	-0.3938	-0.472652
3.647315	-2.050523	5.930636	113.415931	-176.594404	-63.623546	0.205163	0.190735	-0.970887	3.151188	1.898481	9.06628	-0.261334	-0.678164	4.750872	0.810229	-1.35771	-2.451388	10.233148	2.450429	1.999976	-17.393362	7.232285	7.496235	-0.535607	-0.458366	-0.469234
2.651269	-2.973949	4.713931	97.762855	-185.698484	-72.777093	0.192514	0.222522	-1.044333	3.274781	1.898598	9.465175	0.904689	-1.306029	4.560596	0.771301	-1.357935	-2.450561	9.700072	2.334998	1.869764	-11.642549	6.44252	5.981512	-0.562797	-0.410197	-0.471885
1.389818	-3.490494	4.573556	78.398891	-195.433679	-73.953317	0.192914	0.191452	-1.023426	3.500854	1.559994	9.243168	0.283223	-1.561605	4.927496	0.77056	-1.39072	-2.419854	9.524954	2.452049	1.986771	-5.983497	5.899671	4.221451	-0.507374	-0.425573	-0.470767
-0.078672	-3.599957	5.567478	66.320921	-200.949334	-67.227649	0.181023	0.212996	-1.107532	3.209508	1.50406	9.067157	-1.575884	-1.928479	5.847204	0.797108	-1.328216	-2.43877	9.342808	2.27699	1.683194	-0.502652	5.560835	3.377995	-0.53554	-0.440521	-0.501126
-1.682743	-3.828804	5.478482	57.655789	-198.394442	-54.674777	0.139019	0.234948	-1.138052	3.678601	1.447199	9.473258	-2.723107	-2.22219	6.336616	0.796518	-1.33036	-2.41007	9.692233	2.391343	1.450663	5.281282	4.798627	2.168707	-0.549027	-0.427012	-0.45545
-2.655328	-3.310884	5.518578	46.71847	-192.762429	-40.440519	0.10962	0.27701	-1.147601	3.094054	1.673267	9.064882	-3.844587	-2.943215	6.575172	0.809569	-1.314965	-2.41135	10.401798	2.273818	1.523281	10.201338	3.972452	0.932301	-0.548956	-0.427838	-0.439922
-2.839008	-3.772946	4.887923	30.68184	-195.11236	-24.267375	0.138976	0.286846	-1.190527	3.213936	2.349255	9.351067	-6.11144	-3.805032	7.366321	0.783617	-1.315115	-2.410798	9.747253	2.215991	1.211394	14.723745	3.666762	-0.488513	-0.577193	-0.44196	-0.485809
-3.509691	-3.309297	5.729288	16.171749	-204.089235	-6.306322	0.084766	0.257616	-1.221111	3.099321	1.448135	9.29125	-7.510954	-4.558044	7.265221	0.783617	-1.315115	-2.410798	9.339912	2.10202	1.502731	19.249387	3.696618	-1.819236	-0.563143	-0.443408	-0.454683
-4.394791	-3.014671	7.304565	7.502883	-211.247469	13.689444	0.071802	0.216677	-1.210514	2.982658	1.617294	9.232335	-7.70268	-5.080306	7.044074	0.783837	-1.329363	-2.424144	9.333715	1.926309	1.142548	22.552863	4.756432	-2.600315	-0.535536	-0.459192	-0.453706
-5.409575	-3.297756	8.079259	1.107162	-216.939217	32.780228	0.030927	0.231914	-1.265771	3.505019	1.278483	9.41285	-9.876648	-5.93975	7.65035	0.823581	-1.281033	-2.456682	9.270837	1.693151	0.900831	25.326511	5.204134	-3.529359	-0.521144	-0.408758	-0.487202
-5.821449	-3.35732	7.502692	-9.469015	-222.522104	48.69412	0.031656	0.25627	-1.311414	3.391421	1.109755	9.466929	-10.734976	-5.4288	7.562255	0.82284	-1.313818	-2.425975	8.970389	1.634514	0.595547	27.582939	6.661334	-4.644712	-0.549724	-0.474763	-0.468467
-6.026592	-2.490223	8.752626	-26.99741	-227.472315	57.52441	-0.010306	0.226323	-1.289459	3.619288	1.728912	9.415647	-9.004959	-5.550719	6.113494	0.836112	-1.312671	-2.440601	9.216648	1.984902	1.200501	29.03341	7.751093	-5.999874	-0.549373	-0.460223	-0.438248
-6.629092	-1.736996	10.164842	-33.259135	-232.333378	63.104381	-0.079794	0.238781	-1.329941	3.619049	1.22189	9.35858	-7.887906	-5.311077	4.452041	0.82306	-1.328066	-2.439321	9.271242	1.518923	0.900089	29.449156	8.997308	-5.090481	-0.535465	-0.460019	-0.438178
-6.531286	-1.740698	9.314273	-26.359303	-234.753022	67.674302	-0.080208	0.287151	-1.36834	3.682551	1.27835	9.643035	-6.247708	-5.190052	3.190603	0.849012	-1.327916	-2.439873	9.445529	1.285472	0.722681	29.421325	9.954036	-5.920107	-0.521632	-0.440317	-0.501056
-7.211166	-0.876888	9.702502	-33.425601	-235.679555	65.104511	-0.093929	0.256455	-1.347083	3.280479	1.448143	9.691354	-5.477172	-5.390285	2.480181	0.862133	-1.35741	-2.452491	8.968458	1.517867	0.475239	27.969171	10.016312	-6.526372	-0.535331	-0.424329	-0.501963
-6.909388	-0.758835	10.504495	-38.585902	-233.16725	58.507658	-0.147796	0.265352	-1.426726	3.672772	1.334301	9.189965	-5.290208	-5.322374	1.833614	0.836326	-1.387129	-2.464282	9.087861	1.401692	0.536852	26.61996	9.438092	-4.318296	-0.535816	-0.474559	-0.468396
-10.401152	-1.170743	7.536489	-40.96963	-225.477718	71.208286	-0.220285	0.284182	-1.389584	2.924122	2.124377	9.231553	-6.964109	-5.830775	1.303133	0.875404	-1.356263	-2.467116	9.140389	0.877142	0.116379	24.779924	8.604861	-1.282	-0.535331	-0.424329	-0.501963
-12.234548	-0.065682	10.403836	-70.608285	-212.81576	68.341577	-0.262304	0.323433	-1.437596	3.385939	1.447548	9.240655	-10.935534	-7.028073	3.199383	0.861763	-1.373802	-2.437138	9.543909	1.687531	-0.291805	25.201978	7.724319	-1.768326	-0.549724	-0.474763	-0.468467
-13.830582	0.913673	10.774733	-82.297531	-193.621862	74.511161	-0.248955	0.3506	-1.444777	3.148232	2.180039	8.953238	-14.41998	-8.887129	4.072116	0.822314	-1.421061	-2.41895	9.424776	1.687554	-0.353912	22.824415	6.479856	-0.561836	-0.508	-0.47415	-0.468256
-14.204189	1.839059	12.192127	-83.70973	-182.644904	79.720619	-0.291688	0.348196	-1.429653	2.809422	1.89927	9.228946	-19.786077	-10.439022	5.902072	0.809564	-1.375174	-2.421685	8.831738	1.97879	-0.483494	22.607538	6.263684	-0.437768	-0.535607	-0.458366	-0.469234
-14.045047	2.353255	11.572255	-75.615035	-170.062041	82.782977	-0.251241	0.398628	-1.430288	3.220496	1.448156	9.576866	-24.127765	-11.522817	8.4774	0.797323	-1.402675	-2.462451	9.609082	0.933397	-0.054291	21.90223	5.818995	0.911677	-0.522605	-0.522106	-0.481343
-14.587925	2.002947	10.139458	-73.293466	-150.46139	80.24377	-0.293974	0.396223	-1.415165	3.732217	1.615941	9.304691	-26.819062	-11.745553	9.182079	0.784202	-1.373181	-2.449833	9.313731	1.050224	-0.059298	21.632953	5.988616	2.164936	-0.535607	-0.458366	-0.469234
-14.961879	0.59768	17.286893	-77.717211	-127.387064	72.231947	-0.263861	0.395816	-1.468751	3.565626	0.320804	9.469892	-26.943003	-11.777586	9.150832	0.784717	-1.386357	-2.477529	8.969268	1.169411	0.473756	20.866883	5.914575	3.146097	-0.549586	-0.457744	-0.484832
-23.824992	29.311704	27.635492	56.430645	22.461829	56.008835	-0.294374	0.427294	-1.436072	3.915769	0.996361	9.760913	-23.964861	-10.904297	7.990423	0.797103	-1.388426	-2.449105	9.437131	1.109266	0.242684	20.921919	5.244328	2.904587	-0.535469	-0.441347	-0.485598
-19.891971	-6.693434	-9.720521	180.319986	79.031775	98.904019	-0.266491	0.405717	-1.405203	4.033749	0.770918	9.87642	-19.352745	-10.3722	5.903085	0.771377	-1.342615	-2.451564	9.674026	1.225125	0.307487	19.741746	3.703665	3.588615	-0.535749	-0.456714	-0.500289
-24.960917	9.337068	3.887751	-63.40431	14.7635	21.919196	-0.280225	0.39232	-1.401438	3.335819	0.715596	9.522028	-14.892776	-9.629008	4.064359	0.758325	-1.35801	-2.450285	10.207527	1.631184	0.498843	19.567029	1.910281	2.436389	-0.549306	-0.442378	-0.470141
-22.276374	4.335536	3.407413	23.183648	28.426381	15.176529	-0.208094	0.352663	-1.407013	3.389111	1.053329	9.353603	-13.093571	-9.167681	2.652292	0.74609	-1.325301	-2.480716	10.147816	1.456843	0.437094	18.35357	0.250017	2.846033	-0.521912	-0.455683	-0.515747
-18.698105	4.971096	4.957284	27.462497	28.464031	-10.749235	-0.249326	0.347072	-1.430701	3.684861	1.334775	9.756361	-12.092866	-8.290637	1.767799	0.745425	-1.342765	-2.451013	9.912831	0.992775	0.430714	16.3468	-1.180693	4.449445	-0.549094	-0.444857	-0.423557
-21.000801	7.797563	7.311285	36.980454	33.550162	-21.735491	-0.278296	0.323465	-1.384359	3.74834	0.771552	9.983655	-9.072069	-6.323861	2.283037	0.758621	-1.356939	-2.464635	9.786941	0.584535	-0.052473	12.824128	-2.079474	4.3748	-0.521632	-0.440317	-0.501056
-12.624169	8.254904	8.385434	93.732429	16.687078	-37.295044	-0.208094	0.352663	-1.407013	3.224207	0.772285	9.689576	-6.240002	-6.88535	4.561027	0.758846	-1.310977	-2.467646	9.727094	0.468271	-0.113974	7.909764	-3.068388	3.663785	-0.57726	-0.459805	-0.453916
-5.790008	2.816809	0.596017	122.181603	2.820273	-0.858014	-0.206565	0.314878	-1.410841	4.023431	1.108522	9.423588	-7.750995	-11.248294	7.660934	0.758401	-1.34269	-2.451289	9.657789	1.105265	-0.59161	2.419134	-2.77341	2.82648	-0.522046	-0.491373	-0.451961
-1.370574	8.126308	7.296688	-35.73907	-11.430131	28.343866	-0.221828	0.339266	-1.403248	4.025826	0.488934	9.479706	-6.716425	-10.326695	4.711396	0.771452	-1.327295	-2.452568	9.819337	2.089185	-1.302989	-3.49617	-1.716834	2.139901	-0.549724	-0.474763	-0.468467
-0.475783	4.571548	9.004022	-83.585833	0.139061	5.057587	-0.219956	0.339609	-1.456136	4.906456	-1.767766	7.401486	-11.60835	-13.753773	3.471079	0.745575	-1.312124	-2.45302	9.699799	2.263436	-1.364355	-10.216809	-1.214687	1.550578	-0.52149	-0.44197	-0.47
-1.055375	-0.185511	11.359574	-71.94426	18.726152	-19.270533	-0.278696	0.354536	-1.405267	4.39973	-1.144302	10.675015	-33.752447	-6.948888	-6.344037	0.732813	-1.386658	-2.476426	9.809142	1.738257	-1.903541	-16.203444	-1.101863	0.410324	-0.549861	-0.491781	-0.452102
-4.64408	-3.970664	12.069441	-47.359134	34.160517	-36.850095	-0.237864	0.391197	-1.402486	4.168845	-0.186205	10.727626	-15.088698	-16.565635	-9.445744	0.771897	-1.295582	-2.468925	10.106849	2.028703	-1.717082	-21.028773	-2.579559	-0.329219	-0.521912	-0.455683	-0.515747
-5.823065	-4.838937	10.281106	-17.787367	26.47006	-26.845871	-0.208451	0.331835	-1.375445	2.848594	3.49001	24.68684	7.474652	-38.979085	-27.314264	0.719548	-1.327595	-2.451465	10.584386	3.016646	-1.284728	-24.096357	-4.796711	0.059228	-0.535119	-0.426807	-0.45538
-4.790513	-2.943388	10.479672	-4.077022	15.832848	-7.428756	-0.208851	0.362906	-1.396352	3.635041	-0.185851	9.980431	25.443219	-92.010616	-16.421005	0.745575	-1.312124	-2.45302	10.604154	2.091386	-0.330173	-25.955067	-7.76695	2.708572	-0.521912	-0.455683	-0.515747
-3.206987	-0.478423	9.611576	15.441927	12.959786	-3.575348	-0.221843	0.356566	-1.420739	4.385668	1.392576	12.941525	-0.841168	-94.483258	-17.761461	0.7455	-1.327445	-2.452017	10.899234	2.09071	-0.324671	-26.206148	-9.653239	4.613439	-0.507862	-0.457132	-0.484621
-3.170852	1.010673	8.595608	10.773077	11.435378	-3.862702	-0.209623	0.390448	-1.403184	4.04699	1.67516	13.274346	8.705936	-109.245791	-21.907971	0.719918	-1.311202	-2.466818	11.144238	2.034072	0.158739	-24.94567	-10.759617	5.561641	-0.507374	-0.425573	-0.470767
-3.006019	1.353751	8.259278	1.349007	9.777331	-5.15061	-0.222214	0.353037	-1.406663	4.443988	0.998154	12.942402	1.355132	-121.393811	-22.496992	0.706572	-1.32767	-2.451189	11.378371	1.916885	0.042833	-22.82242	-11.582555	6.016343	-0.53519	-0.425981	-0.470908
-3.383577	0.037711	9.382995	-2.235206	6.808696	-7.734079	-0.210008	0.404219	-1.4066	4.09413	2.068986	12.82277	-10.997319	-133.24363	-22.223917	0.693967	-1.311352	-2.466267	10.570178	2.213359	1.04708	-20.449414	-11.820607	6.19227	-0.535886	-0.473732	-0.483924
-3.827214	-1.395101	10.050291	1.498383	6.122119	-8.00134	-0.179481	0.355442	-1.421787	4.043148	1.787678	13.104522	-17.892618	-145.827066	-21.30637	0.66809	-1.296182	-2.466719	10.227625	1.984337	1.638557	-18.449701	-11.929444	5.57426	-0.550074	-0.489303	-0.498685
-3.718439	-1.166624	9.769218	6.491195	5.245548	-7.263227	-0.208094	0.352663	-1.407013	4.198358	1.448661	12.25827	-22.554691	-162.269858	-17.373486	0.654668	-1.32797	-2.450086	10.051407	2.101142	1.695657	-16.423406	-12.216336	4.437418	-0.535745	-0.475385	-0.452869
-4.176433	-1.223734	9.760069	14.695654	3.274538	-6.276129	-0.223715	0.356224	-1.367851	4.352598	1.616617	11.412445	-33.576896	-176.143614	-15.238959	0.628201	-1.314943	-2.421839	9.757292	2.16014	1.750309	-13.230432	-12.675917	2.65535	-0.507791	-0.457958	-0.469093
-4.235174	-0.70696	9.704274	26.643536	2.401096	-5.680672	-0.237464	0.360126	-1.381578	4.278545	0.998762	13.278612	-38.651723	-188.831944	-14.012671	0.628201	-1.314943	-2.421839	9.288599	2.103886	1.920979	-9.666227	-12.981232	0.871226	-0.576842	-0.42742	-0.455591
-3.898535	-0.421449	9.371043	30.057214	1.974358	-1.894526	-0.267234	0.39866	-1.377051	4.966997	0.32136	13.122631	-36.571293	-202.818105	-16.523594	0.602249	-1.315093	-2.421288	9.583255	1.812583	1.865338	-6.182798	-12.191416	-0.367677	-0.535469	-0.441347	-0.485598
-2.988695	0.495746	9.108455	26.744521	1.123239	-1.377461	-0.19433	0.331461	-1.375794	5.423308	-0.637358	12.848299	-35.28635	-213.832658	-19.776295	0.601884	-1.271276	-2.395599	9.516556	2.275843	1.506774	-3.396995	-10.184114	-1.273664	-0.520935	-0.392566	-0.488039
-3.513017	0.666514	8.644332	25.172901	1.266681	-3.824078	-0.208094	0.352663	-1.407013	5.876016	-0.976535	12.461208	-20.916233	-223.368	-22.017299	0.550722	-1.238791	-2.425203	9.354353	2.047158	2.281274	-1.104787	-7.619153	-3.036262	-0.576984	-0.425767	-0.486646
-3.272947	0.783644	9.2178	18.923161	1.26405	-3.438105	-0.249698	0.343544	-1.416625	5.939949	-1.145397	12.745473	-0.602591	-231.845274	-24.335478	0.522408	-1.247516	-2.309854	9.227652	1.987374	1.79957	0.141136	-4.844432	-4.734922	-0.563423	-0.458774	-0.469374
-3.61404	0.497167	9.323619	15.760449	0.265895	-3.445223	-0.238235	0.387668	-1.38841	6.420132	-0.922515	11.000715	19.430233	-237.820266	-24.871912	0.484586	-1.258774	-2.365422	9.173443	1.81427	2.037356	0.514309	-3.203617	-6.516671	-0.535327	-0.443	-0.454543
-3.793556	0.438161	8.922065	16.254731	0.256711	-2.434736	-0.250427	0.319188	-1.370981	6.609753	-0.922175	11.797296	37.281475	-235.874179	-29.523841	0.431356	-1.233793	-2.294577	8.808092	2.393616	1.494063	0.052874	-2.089577	-7.926128	-0.549586	-0.457744	-0.484832
-3.678881	0.208312	8.923327	16.568754	0.486614	-0.898491	-0.207693	0.321592	-1.386105	7.060975	0.146958	11.468031	64.747463	-230.208137	-30.277789	0.444483	-1.203077	-2.29686	8.925273	1.812091	1.373978	-0.906412	-1.465471	-9.45367	-0.521557	-0.459815	-0.438108
-3.334365	0.38063	8.987585	17.649434	0.937649	0.424451	-0.249269	0.277875	-1.360734	8.561105	1.268619	9.066117	87.881669	-222.111984	-26.078873	0.43039	-1.312539	-2.26086	8.0809	2.04233	0.401051	-3.824776	-0.689196	-8.621667	-0.521419	-0.442796	-0.454473
-3.453909	1.183929	8.761324	12.53593	1.464838	0.631746	-0.207679	0.304293	-1.368613	11.653383	1.543835	8.39532	104.38398	-200.631715	-15.864396	0.403928	-1.239303	-2.222277	8.851837	2.331943	0.65622	-3.321438	0.752805	-8.874857	-0.577681	-0.473518	-0.499663
-3.902705	0.726658	9.20531	2.9026	1.512313	-2.069209	-0.279425	0.33018	-1.359623	10.15419	0.07947	5.418605	105.538812	-180.146706	-15.166776	0.42995	-1.284042	-2.234167	8.022849	2.100788	0.460104	-4.733315	0.921785	-7.953726	-0.535607	-0.458366	-0.469234
-3.44541	0.209112	9.155193	0.421975	2.935235	-3.879051	-0.222543	0.297611	-1.340112	4.343096	-1.094921	2.634657	96.927441	-146.167329	-18.350457	0.403182	-1.332297	-2.201906	8.677529	2.100539	0.771744	-5.25204	1.095872	-7.219214	-0.549097	-0.426185	-0.470978
-3.271751	0.669002	9.27417	-4.605196	3.164574	-4.474227	-0.250069	0.340016	-1.402549	0.952495	-2.834714	2.675141	73.507491	-86.310295	-15.986579	0.363368	-1.335738	-2.158029	9.036183	2.507497	1.079611	-6.391514	0.747718	-6.479957	-0.535678	-0.45754	-0.484761
-3.552041	0.096	9.550455	-4.539195	3.30774	-3.521362	-0.251184	0.329431	-1.360321	-2.282628	-4.178795	4.64412	53.902032	-37.735105	-19.496224	0.362998	-1.35213	-2.142676	9.270722	2.216082	0.962963	-6.784693	0.669651	-4.980648	-0.535607	-0.458366	-0.469234
-3.500188	-0.135014	9.266338	-5.116189	3.508668	-2.504375	-0.250798	0.31566	-1.356905	-4.300851	-4.90751	4.374634	40.714246	-3.011533	-37.318337	0.402076	-1.321264	-2.14551	9.395762	2.043068	1.323864	-6.38195	-0.108776	-3.511424	-0.549377	-0.441552	-0.485669
-3.562104	0.15127	9.039019	-5.482613	3.4717	-2.105233	-0.265319	0.347104	-1.377464	-4.371129	-3.95021	3.864474	20.482046	17.193517	-53.162874	0.414537	-1.308013	-2.11809	9.568274	2.09975	1.087785	-5.401818	-1.33479	-2.928443	-0.535607	-0.458366	-0.469234
-3.898867	0.038084	9.372974	-5.17393	3.529379	-1.64516	-0.236692	0.332584	-1.374746	-3.761988	-1.865588	5.634146	2.690324	58.986776	-47.089759	0.362772	-1.398092	-2.139665	9.0407	1.985554	1.257107	-4.881108	-2.195705	-2.314975	-0.563494	-0.457948	-0.484902
-3.845859	-0.250131	9.145468	-3.820982	3.554238	-0.575265	-0.264933	0.333333	-1.374048	-3.310329	-1.413754	7.965211	-4.484835	74.331014	-31.098504	0.401555	-1.368297	-2.12815	9.038364	2.043136	1.13754	-3.70979	-2.594507	-1.797754	-0.563214	-0.442582	-0.470211
-3.616018	0.152036	9.208464	-1.887057	3.335269	0.550323	-0.251598	0.3778	-1.398721	-3.425245	-1.5262	7.962699	-1.525892	82.542092	-15.539459	0.40207	-1.381474	-2.155846	9.867891	2.041987	1.332667	-3.373949	-2.928505	-1.919626	-0.52149	-0.44197	-0.47
-4.015478	-0.134641	9.256317	-0.569707	3.029936	0.909582	-0.278282	0.306166	-1.366867	-3.26429	-1.076306	7.456948	4.673931	98.157057	3.42579	0.402441	-1.365082	-2.171199	9.757407	1.637209	1.688177	-3.034443	-2.990039	-1.767749	-0.563285	-0.441756	-0.485739
-3.728258	0.09516	9.319702	1.788632	2.607236	1.202601	-0.279054	0.333708	-1.373699	-2.980544	-1.471348	7.236102	12.006431	120.193575	21.655019	0.440257	-1.414034	-2.125966	9.68397	2.157061	0.970419	-2.138016	-2.804866	-1.619067	-0.535749	-0.456714	-0.500289
-3.906537	-0.13593	8.974278	5.435102	2.344203	1.494507	-0.306937	0.355285	-1.404568	-2.122568	-1.754854	6.970801	14.785278	143.438874	37.827666	0.402366	-1.380402	-2.170195	9.333424	1.577605	1.081158	-1.607932	-2.286436	-1.287274	-0.508212	-0.471672	-0.514839
-3.559628	-0.192896	9.151277	8.925169	1.463387	1.991495	-0.276782	0.30298	-1.405679	-1.823515	-1.304275	7.543621	14.762215	162.28221	51.364961	0.429203	-1.377036	-2.213796	9.212361	1.460982	0.898742	-0.465421	-1.726686	-1.783083	-0.535749	-0.456714	-0.500289
-3.844994	0.09476	9.203769	13.956745	1.470514	3.418496	-0.348885	0.308039	-1.365121	-1.009615	-2.319496	7.84289	12.132047	174.957162	61.324291	0.429348	-1.406605	-2.226138	9.803778	1.866658	1.031291	0.713703	-0.712082	-1.883882	-0.563285	-0.441756	-0.485739
-3.955215	0.325574	9.42992	18.219092	0.762714	5.234751	-0.3195	0.283276	-1.373064	-0.098108	-1.758247	7.46623	7.29979	184.137172	67.362382	0.468727	-1.314458	-2.232987	9.799511	1.807593	0.791416	1.836083	0.882878	-1.926121	-0.535816	-0.474559	-0.468396
-3.32682	0.726968	9.387004	20.127686	1.529101	6.192385	-0.333235	0.269879	-1.369299	0.607614	-1.984294	8.160222	2.324669	191.499051	70.052423	0.456336	-1.372599	-2.271746	9.396977	1.520383	1.321639	3.048299	2.203823	-2.059065	-0.563494	-0.457948	-0.484902
-3.62505	0.32243	8.754364	17.146697	0.631997	5.48105	-0.331706	0.232095	-1.373127	0.912257	-1.927838	8.959268	-2.907267	197.89244	70.420194	0.470128	-1.324419	-2.303732	9.692193	1.461632	1.326894	4.412909	3.342422	-2.252815	-0.50772	-0.458784	-0.453565
-3.727145	0.095401	9.376555	17.664295	-0.044452	5.713901	-0.331292	0.183725	-1.334728	1.669609	-2.21056	9.371224	-9.494248	201.986159	68.544047	0.509056	-1.324194	-2.30456	9.45943	1.462914	1.502212	5.37524	4.296046	-2.444225	-0.562797	-0.410197	-0.471885
-3.50415	0.725886	9.099398	18.717688	1.085322	6.802567	-0.273309	0.179041	-1.374937	2.939135	-1.931136	9.567976	-15.138763	204.668921	64.126383	0.522547	-1.337295	-2.332531	9.695515	1.927229	1.568499	7.009692	4.611924	-2.84896	-0.549515	-0.45857	-0.469304
-3.383168	1.014458	9.44395	16.510258	1.109228	6.502643	-0.271766	0.123956	-1.361274	3.128086	-2.212496	10.307681	-20.803833	205.72962	59.507601	0.561255	-1.322822	-2.320012	9.694664	1.345975	1.446213	8.609853	4.872185	-3.803421	-0.549865	-0.47311	-0.499522
-3.78601	0.784499	9.321485	17.181577	1.026786	5.916701	-0.29925	0.114463	-1.371235	4.009376	-2.044409	11.175551	-26.695922	205.874392	54.016278	0.588318	-1.273495	-2.366624	9.577887	1.753271	1.565556	10.513856	4.241708	-4.296298	-0.52177	-0.457336	-0.484691
-3.677359	1.185301	9.041135	14.113996	1.240463	4.794328	-0.258388	0.116525	-1.333471	4.993386	-1.708021	11.479585	-30.69551	204.264848	48.848213	0.627321	-1.257949	-2.368455	9.813007	2.159263	1.571689	11.892616	3.580334	-4.939931	-0.549377	-0.441552	-0.485669
-3.049497	0.782272	8.937988	7.98091	1.598703	3.22311	-0.200392	0.094541	-1.356188	5.527667	-0.694331	12.340912	-33.881798	201.127234	44.775551	0.613975	-1.274416	-2.352826	9.456709	2.159579	1.445272	13.45882	3.163403	-5.493722	-0.549582	-0.476415	-0.437411
-3.390672	0.610678	9.04429	4.758614	1.721555	1.915682	-0.200777	0.108312	-1.359604	5.950074	-0.750657	13.255561	-36.764143	195.261678	41.631757	0.628357	-1.224093	-2.413511	9.630706	1.577425	1.206474	14.809625	2.65172	-5.832348	-0.507933	-0.456305	-0.500149
-3.617007	-0.02053	9.150887	3.528673	1.445852	1.332056	-0.200406	0.111841	-1.37368	6.067323	0.037897	13.428562	-37.689611	187.883631	39.368586	0.614866	-1.210991	-2.38554	9.457654	1.753047	1.443542	16.470057	2.387127	-6.295519	-0.507653	-0.440939	-0.485458
-3.562228	0.323595	9.039743	2.148834	1.253632	1.455575	-0.201949	0.166925	-1.387343	6.41511	-0.582338	13.491933	-37.114838	179.508768	37.836642	0.627917	-1.195595	-2.386819	9.682309	1.924262	0.849616	17.700539	2.148735	-6.482205	-0.494021	-0.474772	-0.452658
-3.79137	0.496085	9.036013	5.339967	1.194882	2.518799	-0.158444	0.141787	-1.395635	6.641768	0.036772	13.384011	-36.846946	171.340784	36.799804	0.654755	-1.19223	-2.43042	9.212921	1.693533	0.959638	18.841536	2.121618	-6.425085	-0.535745	-0.475385	-0.452869
-3.735395	0.725569	8.981238	5.314394	1.242643	3.715676	-0.160359	0.193343	-1.395222	7.398449	-0.52765	13.73909	-39.415275	163.656362	35.888826	0.694348	-1.17454	-2.46095	9.328752	1.692769	0.842025	19.961458	2.541574	-5.239248	-0.522467	-0.505087	-0.497708
-3.897795	0.095766	9.430068	7.126478	1.27104	4.661603	-0.173308	0.135105	-1.367134	7.514466	-0.358827	13.79829	-45.661183	155.922371	35.375194	0.706068	-1.194073	-2.402823	8.976856	1.694073	0.955236	20.736175	2.47497	-4.447132	-0.53519	-0.425981	-0.470908
-3.672532	0.669292	9.266376	7.189832	1.077548	5.486285	-0.160745	0.207114	-1.398638	8.090035	0.316109	13.867588	-51.43898	148.619202	35.421175	0.719779	-1.221424	-2.444141	8.733224	1.634807	0.531239	20.891602	2.100566	-3.681861	-0.536166	-0.489099	-0.498615
-3.510666	0.494672	8.757315	6.455021	1.510268	4.974094	-0.119141	0.216233	-1.389026	8.026903	1.330024	13.697314	-54.940778	142.966548	35.732061	0.72052	-1.188639	-2.474848	8.978362	1.520092	1.014401	21.262862	1.447532	-2.518728	-0.549657	-0.456918	-0.500359
-3.966598	0.667811	8.862837	5.900964	1.264273	4.757022	-0.21797	0.201556	-1.369089	9.101651	1.777909	12.871068	-56.523108	139.949181	34.96083	0.72052	-1.188639	-2.474848	8.733069	1.228027	0.469601	21.136452	0.397269	-1.565825	-0.535465	-0.460019	-0.438178
-3.445824	0.783527	9.157606	7.036894	1.295084	5.214258	-0.189743	0.218106	-1.38728	9.277651	1.94672	13.044756	-55.214433	140.651354	33.18072	0.707324	-1.174465	-2.461226	9.029675	1.518227	0.596153	20.821185	-0.86368	-1.008539	-0.563564	-0.457122	-0.50043
-3.619814	0.783169	9.04056	8.693305	1.173278	5.790182	-0.161174	0.272783	-1.454529	9.845967	2.621371	12.774216	-49.313937	142.680948	29.382744	0.758638	-1.176309	-2.433629	9.093633	1.286776	0.835892	19.98221	-2.12745	-0.357653	-0.522187	-0.489721	-0.483017
-3.56025	0.668727	9.154897	9.210844	0.903993	5.354979	-0.17488	0.224788	-1.415781	9.76116	2.958419	11.527221	-43.264336	141.663689	23.304032	0.773755	-1.15341	-2.535357	9.211665	1.286506	0.838093	18.895111	-2.892588	-0.686254	-0.508071	-0.473324	-0.483784
-3.900643	0.956907	9.319982	8.534813	0.999993	4.745145	-0.203478	0.20471	-1.383514	10.495135	3.519801	10.920375	-44.377443	136.260792	18.100861	0.77302	-1.125985	-2.494315	9.263539	1.517192	0.480741	17.441099	-3.478673	-0.708754	-0.563978	-0.508178	-0.451335
-3.499489	0.439643	9.325604	8.007122	0.829163	3.333198	-0.189386	0.238934	-1.418847	10.950716	3.57508	10.703535	-42.377436	127.863997	12.901284	0.798526	-1.157548	-2.478509	9.371937	1.398545	-0.056714	16.202367	-4.435457	-0.302386	-0.563423	-0.458774	-0.469374
-3.851924	0.437962	8.864099	10.210463	0.473118	3.106397	-0.175251	0.22126	-1.401705	11.126499	3.856551	10.877318	-30.93019	116.496083	7.06323	0.83871	-1.137715	-2.537739	9.429022	1.281763	-0.175922	14.598434	-4.719673	0.010407	-0.52177	-0.457336	-0.484691
-3.671211	0.382326	9.322022	13.98025	0.583609	3.036006	-0.217627	0.239683	-1.418149	11.808152	3.573226	10.438471	-6.592443	103.194677	-1.558141	0.82581	-1.122469	-2.538467	9.777928	2.093276	-0.345579	13.024712	-5.126762	0.384804	-0.494301	-0.490139	-0.467349
-3.456959	0.781114	8.589075	11.596885	1.64771	3.090828	-0.175637	0.235031	-1.40512	12.976094	2.217323	8.423694	20.958329	87.324918	-14.394836	0.83834	-1.154107	-2.522386	9.6036	1.397016	-0.29194	11.72649	-5.74634	0.698093	-0.563773	-0.473314	-0.499592
-4.08812	1.125978	8.521422	5.090667	1.236985	1.416168	-0.189358	0.204335	-1.383864	13.22543	1.482922	6.560016	32.16439	68.646183	-28.012111	0.864217	-1.169277	-2.521933	9.606746	0.990978	-0.173857	9.502748	-6.368297	0.923056	-0.522046	-0.491373	-0.451961
-3.734696	1.300226	9.040504	4.203902	2.29127	0.239812	-0.20425	0.232252	-1.390346	13.342496	0.860734	3.901059	16.866744	47.640797	-37.573648	0.865253	-1.135421	-2.56699	10.144629	0.93317	0.195241	7.947047	-5.412461	2.60511	-0.521699	-0.458162	-0.469163
-3.391869	0.72532	8.987919	-1.212667	0.860288	-3.172023	-0.201206	0.173982	-1.415495	12.114065	0.9749	2.969534	-19.054345	28.169716	-40.878757	0.890759	-1.166984	-2.551184	9.738524	0.761371	0.546238	7.295795	-5.376636	1.873775	-0.535953	-0.491577	-0.452032
-3.919738	1.182572	8.354444	-1.8852	1.853766	-4.319348	-0.174508	0.228317	-1.429857	11.143076	2.047391	3.403	-54.983422	13.784475	-39.26282	0.864807	-1.167134	-2.550633	9.912986	1.399555	0.492352	6.822535	-6.165087	1.054045	-0.549515	-0.45857	-0.469304
-4.371466	1.701325	8.688827	-4.258832	0.849461	-6.168972	-0.203121	0.225537	-1.415082	10.086208	3.628259	5.250465	-72.760845	3.508607	-35.526072	0.90337	-1.123091	-2.525772	10.033334	0.876848	0.552234	6.847516	-6.99212	1.180154	-0.563911	-0.490333	-0.483228
-3.78646	-0.134806	9.260771	-15.972634	-1.25506	-4.267988	-0.204621	0.228724	-1.37627	9.792604	4.363289	7.735971	-68.956449	-5.48634	-31.142672	0.877638	-1.13749	-2.538566	9.621032	0.529337	0.543048	7.214851	-7.606649	1.579079	-0.577606	-0.493016	-0.436714
-3.714896	0.098055	10.001939	-4.766713	1.278453	-3.553688	-0.189386	0.238934	-1.418847	8.885979	5.041596	8.453512	-50.556167	-13.35411	-25.503222	0.903515	-1.15266	-2.538114	10.212584	0.876937	0.675349	8.385277	-7.848401	1.698247	-0.55007	-0.507974	-0.451265
-3.494419	1.130148	9.612765	-12.813018	3.421024	-3.342362	-0.159988	0.196872	-1.409298	9.075144	4.647575	9.193122	-24.025066	-23.166739	-20.924611	0.877638	-1.13749	-2.538566	9.564756	0.297662	0.660772	9.461217	-8.086702	1.450982	-0.563911	-0.490333	-0.483228
-2.921051	1.532065	9.682443	-8.497016	8.533249	-5.173157	-0.161145	0.238185	-1.419546	8.781465	3.915533	8.846623	1.990394	-34.600716	-18.05797	0.903515	-1.15266	-2.538114	9.917483	0.412757	0.607962	10.477345	-8.452935	1.724119	-0.563423	-0.458774	-0.469374
-3.076206	1.03118	13.428121	-23.829904	15.629386	-2.989557	-0.159988	0.196872	-1.409298	8.317616	3.127578	8.609729	18.982061	-43.845636	-15.824173	0.865108	-1.105852	-2.554647	9.330758	0.356773	0.776431	11.927303	-8.418081	1.810391	-0.521695	-0.476833	-0.421743
-3.531258	0.617558	10.632836	-8.43107	36.875108	-2.903227	-0.176366	0.210675	-1.359477	9.363302	26.244552	35.430584	-3.333033	-78.450782	-63.133553	0.877858	-1.151738	-2.551912	9.926826	0.182431	1.086229	13.752411	-8.329547	2.750826	-0.535886	-0.473732	-0.483924
-3.896847	0.325774	9.487886	-8.483578	38.038634	-2.54681	-0.175994	0.214203	-1.373553	4.044261	8.545526	11.072396	51.213583	-76.637189	-18.590336	0.864737	-1.122244	-2.539294	9.918583	0.413004	0.667869	14.611367	-8.907927	2.781039	-0.550283	-0.505495	-0.497848
-3.97589	0.563343	11.305924	-16.629898	42.993623	-1.093416	-0.160359	0.193343	-1.395222	1.641467	0.492404	8.297348	72.258424	-81.675908	-32.865324	0.864217	-1.169277	-2.521933	9.443423	0.29719	0.478851	15.118597	-8.001124	3.997422	-0.54972	-0.493434	-0.421046
-3.698034	1.42307	10.917139	-9.59034	54.774987	0.76457	-0.203878	0.23578	-1.404422	-1.187325	1.175751	10.616335	48.326751	-62.275082	-34.602978	0.850801	-1.140855	-2.494966	10.030303	0.759954	0.372019	16.017139	-7.726714	4.390189	-0.563285	-0.441756	-0.485739
-4.051784	0.157192	10.336618	-9.637819	60.998475	2.031245	-0.175266	0.238559	-1.419196	-1.865421	-0.399831	11.053617	20.612301	-44.462951	-16.75381	0.85087	-1.185745	-2.506304	10.03594	0.703114	0.671306	16.021874	-7.425247	4.816629	-0.550141	-0.507148	-0.466792
-4.024319	0.680197	11.760117	-15.058115	65.845975	3.199007	-0.104277	0.222915	-1.417527	0.485413	-0.573621	10.649923	27.297068	-60.807899	5.223411	0.851241	-1.169352	-2.521658	9.745147	1.22771	0.967564	16.119915	-6.659264	4.720926	-0.535812	-0.49323	-0.420976
-4.407658	1.201321	12.664144	-13.22201	79.458831	3.905697	-0.133275	0.233907	-1.406168	2.331887	-0.971241	10.858195	40.133457	-74.52544	-1.777295	0.837674	-1.171571	-2.492683	10.624171	0.585117	0.562003	15.015832	-5.308542	3.862688	-0.563978	-0.508178	-0.451335
-4.419657	0.854018	12.037312	-6.41794	92.585563	6.092873	-0.119898	0.226476	-1.378365	4.619936	0.319576	10.341246	51.891443	-73.812276	-12.982006	0.837819	-1.20114	-2.505025	10.434073	0.989335	-0.098544	14.003615	-3.335299	1.992557	-0.521904	-0.493026	-0.420906
-4.531649	0.452493	12.147102	-16.969619	104.276581	8.521306	-0.093157	0.228913	-1.340252	4.850329	0.882497	10.403196	53.356572	-61.606157	-23.895558	0.824403	-1.172718	-2.478057	10.720215	1.044758	-0.57205	11.369076	-1.266357	2.145041	-0.550696	-0.556551	-0.448753
-4.508224	0.400118	13.340776	-20.715224	119.783987	13.077443	-0.063401	0.207678	-1.36227	3.726758	2.573417	9.135578	47.92019	-54.663174	-26.759443	0.824548	-1.202287	-2.4904	11.008443	1.623607	-0.86361	7.754642	0.910388	3.370284	-0.536162	-0.50777	-0.451194
-4.725325	0.86247	13.963637	-27.967371	137.973088	18.024475	-0.092014	0.204899	-1.347496	2.984344	2.631386	9.403108	40.84499	-57.357147	-27.223484	0.798005	-1.204581	-2.461149	10.592319	1.972514	-0.989643	3.917732	3.005963	3.496434	-0.522183	-0.508392	-0.435596
-4.486576	1.266566	14.481457	-36.017063	162.325176	20.804759	-0.064545	0.231692	-1.355026	2.640676	1.730744	9.395095	25.275995	-59.149364	-17.882508	0.810761	-1.190257	-2.448078	10.075034	1.22146	-0.343785	2.475721	3.546013	4.018663	-0.549653	-0.475589	-0.452939
-3.911758	-0.34197	14.542689	-48.243407	189.933492	24.324602	-0.035575	0.255299	-1.401368	2.981425	0.997564	9.118534	16.58953	-54.271447	-11.428955	0.772864	-1.216836	-2.502643	9.903217	1.339254	-0.047058	2.353454	2.891515	5.153098	-0.536024	-0.490751	-0.467559
-3.63935	1.895389	13.932283	-64.894126	216.005356	20.442256	-0.065673	0.238407	-1.33029	3.338213	0.096008	9.578146	16.177803	-48.004453	-13.771522	0.772129	-1.189411	-2.461601	10.085498	1.456237	0.256273	1.442638	3.171707	7.325132	-0.521557	-0.459815	-0.438108
-3.600337	1.846391	15.9219	-90.605983	246.021822	22.200339	0.018693	0.215332	-1.300818	3.573765	0.490128	9.866511	21.127182	-42.917191	-17.632014	0.759593	-1.217983	-2.488017	10.085363	1.514313	0.25652	0.526464	4.052026	7.66046	-0.549791	-0.492608	-0.436574
-2.654186	0.92059	14.515641	-88.116635	276.221535	21.703191	0.045819	0.203997	-1.259288	4.154685	0.263918	10.104969	25.464464	-37.120122	-18.680667	0.771753	-1.266013	-2.456583	10.024821	1.223573	0.134369	1.155029	5.584076	7.620307	-0.549511	-0.477241	-0.421883
-2.645278	0.922521	14.970466	-117.254628	306.01761	19.205339	0.029784	0.255928	-1.258526	3.584105	0.772207	10.376505	33.268326	-33.379944	-22.089812	0.785099	-1.249545	-2.472212	9.855071	1.399937	0.551158	1.128439	6.911025	6.48318	-0.549653	-0.475589	-0.452939
-2.349186	-0.33947	15.425549	-113.320501	332.921072	16.994618	0.058068	0.203281	-1.206749	3.745899	0.151774	9.813214	38.386381	-29.406782	-24.142409	0.771608	-1.236444	-2.44424	8.790039	1.634177	0.412525	-0.435161	8.906703	5.226183	-0.522254	-0.507566	-0.451124
-3.635388	1.034489	14.099223	-104.448801	354.614368	7.754437	0.083251	0.278101	-1.199791	4.272557	0.094805	10.220524	47.596122	-24.074856	-24.390257	0.772198	-1.2343	-2.47294	8.566619	1.405133	1.06611	-2.481176	11.407761	5.221657	-0.535953	-0.491577	-0.452032
-5.611094	3.627323	15.606143	-103.600613	366.999884	-6.889662	0.140548	0.197163	-1.141881	3.281318	0.377816	9.633814	53.649739	-21.577162	-24.113941	0.771973	-1.280261	-2.469929	8.085842	1.811014	0.639689	-4.924888	14.429372	5.032703	-0.521699	-0.458162	-0.469163
-9.498544	4.780419	15.876371	-56.532606	370.364183	-27.243906	0.165016	0.230328	-1.071787	4.479789	1.38917	9.263577	50.907928	-17.748063	-14.706702	0.758181	-1.328441	-2.437943	7.773559	1.633506	-0.325065	-8.38047	18.430443	4.445408	-0.53519	-0.425981	-0.470908
-12.977374	0.969287	10.507411	13.791108	353.640505	-36.736686	0.207021	0.208376	-1.041267	3.434072	1.954083	8.845814	40.610917	-11.727728	-17.491225	0.75803	-1.359082	-2.435935	7.943775	2.67748	-0.556941	-12.662057	23.751712	3.121279	-0.535883	-0.492404	-0.436504
-11.11101	2.928693	12.370546	10.719897	318.532715	-44.078579	0.162773	0.226457	-1.004823	3.563363	1.503745	9.470888	33.228684	-9.19613	-15.684024	0.758551	-1.312049	-2.453296	8.587275	1.803124	-0.967893	-17.445224	27.627752	2.356019	-0.535607	-0.458366	-0.469234
-10.256725	1.490826	12.09695	40.419329	306.374125	-61.541497	0.203634	0.22852	-0.967058	3.494486	1.728748	8.960112	22.94161	-6.734498	-13.509922	0.758181	-1.328441	-2.437943	8.993131	2.555931	-1.25651	-21.338609	30.801203	1.804837	-0.522116	-0.490547	-0.467489
-7.800341	-1.614487	11.733828	51.939033	282.242725	-54.052395	0.202905	0.204164	-0.921415	3.662239	1.784566	8.737228	14.635173	-3.826347	-10.127507	0.75781	-1.344834	-2.422589	10.107545	2.203179	-1.656434	-24.392879	33.561363	3.055832	-0.507929	-0.474977	-0.452728
-4.8127	-3.063096	9.342127	126.915376	232.863401	-39.150856	0.201033	0.203822	-0.868527	3.14603	2.067283	8.839864	8.088618	-3.351153	-6.397912	0.771452	-1.327295	-2.452568	10.357375	2.438157	-0.872253	-26.142963	36.588035	5.6151	-0.563982	-0.489507	-0.498755
10.925946	-3.847613	3.45044	190.967452	155.277727	-31.456644	0.172049	0.197514	-0.839676	2.861506	2.236956	9.003881	-0.067278	-2.881579	-0.234227	0.745349	-1.358085	-2.450009	10.603749	2.265614	-0.329431	-27.504267	38.241563	7.96561	-0.535749	-0.456714	-0.500289
3.744721	-10.67667	-9.902684	288.137045	38.234246	9.420787	0.186555	0.183368	-0.83661	3.322137	2.179763	9.013505	-7.211472	-3.154435	4.196574	0.771452	-1.327295	-2.452568	10.962403	2.672572	-0.021563	-28.554504	36.657831	9.872005	-0.535402	-0.423502	-0.517491
2.464267	-9.276572	-5.091104	48.604232	-92.035841	65.269222	0.214039	0.192862	-0.826648	2.925439	2.068094	9.288145	-12.987104	-2.817336	7.093153	0.784057	-1.343612	-2.43749	11.319261	2.904807	0.165749	-28.422153	33.190648	10.896729	-0.507862	-0.457132	-0.484621
2.092719	-3.212751	2.485674	18.827361	-147.71637	63.040591	0.186555	0.183368	-0.83661	3.21566	1.447966	9.350308	-17.153498	-2.388261	8.419696	0.758256	-1.313121	-2.438946	10.859216	2.443752	0.754036	-27.017555	28.249545	9.937126	-0.521912	-0.455683	-0.515747
-0.78091	-4.796764	7.6515	-42.268144	-126.97042	58.15764	0.159443	0.177403	-0.860647	3.277822	0.941026	9.521009	-17.242914	-2.171961	7.990174	0.744759	-1.360229	-2.42131	11.87419	2.618404	1.432461	-25.344726	21.774547	9.503487	-0.507519	-0.405249	-0.549243
0.679888	-2.3785	9.281359	-50.687495	-103.838711	70.329429	0.160958	0.156918	-0.881968	3.337028	0.715644	9.578668	-14.951534	-1.772959	7.6877	0.771822	-1.310902	-2.467921	11.646369	2.388371	1.846419	-22.378282	15.400019	8.697905	-0.549932	-0.490955	-0.46763
3.578827	-1.00636	8.320582	-0.1237	-113.532367	67.267581	0.205206	0.138837	-0.918411	3.734265	0.545661	9.30379	-11.705332	-1.57747	7.538113	0.745355	-1.297876	-2.439674	11.289646	2.098059	1.658859	-19.658894	9.864049	6.605507	-0.54931	-0.423707	-0.517561
4.700781	-1.356904	7.147489	50.376543	-146.6315	50.82705	0.189599	0.125098	-0.861758	3.680564	1.052933	9.529566	-6.7135	-0.276891	5.890322	0.719178	-1.343987	-2.436112	10.755739	1.866228	1.468246	-16.316115	5.249137	4.4148	-0.53554	-0.440521	-0.501126
4.698139	-0.782971	7.036196	78.36305	-184.187374	29.931396	0.177322	0.160414	-0.949281	3.626841	0.940522	9.698181	-2.474497	0.182496	4.819306	0.745425	-1.342765	-2.451013	10.525737	2.100556	1.824274	-13.850438	2.12026	3.167686	-0.521774	-0.438665	-0.532112
4.4617	-1.301468	6.631599	93.249991	-209.468014	8.534252	0.236076	0.128187	-0.982658	3.681019	1.447294	9.586537	0.364226	-0.114933	4.232893	0.719403	-1.298026	-2.439123	10.104631	1.751067	1.335833	-11.339728	0.7033	2.034505	-0.521285	-0.407106	-0.518258
2.833297	-1.765389	5.29087	96.046646	-220.753609	-9.659196	0.1941	0.11554	-0.978195	3.393731	1.16618	9.580256	0.97829	-0.356036	4.785901	0.74528	-1.313196	-2.43867	9.867756	2.100063	1.332914	-9.467475	0.508861	0.77556	-0.521423	-0.424125	-0.501893
1.740517	-2.627431	4.981828	86.579091	-226.413506	-24.415278	0.151367	0.113135	-0.963071	3.449633	0.771664	9.467854	1.216752	-0.970831	5.489033	0.732674	-1.296879	-2.453748	9.504856	2.098896	0.847057	-6.760805	0.903662	-0.97821	-0.535544	-0.42185	-0.548547
0.701687	-1.996516	4.566468	66.727763	-228.739168	-36.327866	0.196701	0.140238	-1.076726	3.453498	1.278828	9.694839	0.996911	-1.192659	6.164876	0.705466	-1.316637	-2.394794	10.084708	2.269548	0.319641	-4.455053	0.769434	-1.994483	-0.535052	-0.408962	-0.487273
-0.316105	-2.739857	5.168672	41.414398	-224.735036	-44.380246	0.155468	0.134647	-1.100415	3.218617	1.166409	9.46335	1.271138	-1.466728	6.408999	0.719554	-1.267385	-2.44113	9.810921	1.635837	1.389743	-1.290165	0.553161	-3.655271	-0.54931	-0.423707	-0.517561
-0.832633	-2.5674	5.102522	14.433654	-219.674673	-48.607093	0.169603	0.116973	-1.083272	3.102947	1.448277	9.461169	1.520666	-1.308052	6.071664	0.719478	-1.282705	-2.440126	9.913277	1.748258	0.553742	1.351287	-0.132035	-4.5173	-0.521841	-0.45651	-0.500219
-2.133156	-2.045854	5.93188	-6.518513	-216.5452	-51.011453	0.15624	0.107105	-1.093583	3.4557	1.391584	9.808213	1.517116	-1.641545	5.482605	0.719334	-1.253136	-2.427784	9.454373	2.217161	1.325706	3.935143	-0.390459	-5.258904	-0.54994	-0.453613	-0.562471
-2.334911	-2.786639	7.288763	-18.685546	-217.012704	-50.033023	0.100101	0.146731	-1.141246	3.555655	1.1091	9.074079	2.493831	-2.57862	5.319931	0.719704	-1.236744	-2.443137	9.393561	2.042573	1.20405	6.334143	-0.463491	-6.24521	-0.549381	-0.42288	-0.533089
-2.818573	-1.860205	8.931342	-18.93998	-216.950809	-44.754903	0.058825	0.193038	-1.217409	3.381103	1.447359	9.014097	1.823979	-4.071075	7.185089	0.745361	-1.237666	-2.429339	9.402365	2.044551	1.683305	8.426244	-0.229846	-7.415228	-0.522191	-0.471049	-0.530438
-4.754829	-2.373598	9.402989	-15.16154	-215.479972	-37.287751	0.073346	0.161593	-1.196851	3.497096	0.996499	9.016135	1.497691	-5.482603	6.708363	0.745726	-1.281483	-2.455027	9.039174	1.69468	1.136057	10.093481	0.33085	-7.821234	-0.535473	-0.422676	-0.533019
-6.460788	-3.116682	9.934979	-11.065388	-213.445229	-27.880277	0.046576	0.193755	-1.269948	3.445791	0.884183	9.29803	0.638969	-5.088481	5.72508	0.731864	-1.284774	-2.411703	8.793631	1.983622	0.653636	11.450006	1.484883	-9.512495	-0.508563	-0.486212	-0.545058
-7.101023	-2.543982	9.413465	-14.129586	-213.237712	-20.322685	0.063383	0.114282	-1.263878	3.383844	1.278462	9.127234	0.437387	-6.377999	5.588782	0.770792	-1.284549	-2.41253	9.149928	1.983307	0.780053	12.103267	2.811401	-10.376883	-0.549172	-0.406688	-0.533926
-7.501436	-1.509503	9.466868	-24.078093	-213.792603	-16.162437	0.018707	0.198032	-1.283326	3.049655	1.110544	9.629595	0.178969	-7.270253	5.548873	0.836337	-1.26671	-2.443612	8.675463	2.041968	0.651683	12.968888	3.803791	-11.393241	-0.507519	-0.405249	-0.549243
-7.994291	-1.734071	10.592943	-32.292996	-210.349083	-13.935922	-0.064888	0.193565	-1.305967	3.683437	1.447389	9.699817	0.439667	-8.67436	5.072695	0.888976	-1.293835	-2.485756	8.91676	2.158816	0.956113	13.803315	4.579422	-12.163963	-0.549727	-0.456091	-0.515887
-8.916344	-1.160199	10.293275	-39.608724	-202.04012	-9.087413	-0.06493	0.245463	-1.358442	3.098974	0.997443	9.234231	-0.544791	-10.744402	5.544575	0.835886	-1.358632	-2.43759	9.56001	1.865468	0.607541	13.747433	4.630293	-11.186083	-0.550007	-0.471458	-0.530578
-9.01877	-0.927696	10.917397	-36.248407	-192.420967	-4.21782	-0.119884	0.209177	-1.360874	3.50107	1.447333	9.243073	-3.041593	-12.596793	7.3122	0.848341	-1.40559	-2.420505	9.208654	1.634468	0.719763	15.835437	4.933952	-13.212046	-0.563706	-0.455469	-0.531485
-9.080561	-0.813737	10.689354	-33.751186	-185.455117	3.677785	-0.148939	0.289366	-1.419482	3.498652	1.447238	9.129794	-6.940761	-13.051904	8.383538	0.797398	-1.387354	-2.463455	9.683234	1.052875	0.786001	14.902511	5.600994	-10.003047	-0.521979	-0.473528	-0.483854
-9.710028	-1.272813	10.675175	-33.993193	-180.506427	12.008131	-0.136691	0.288649	-1.366943	3.442511	1.334732	9.18513	-12.465255	-12.605155	9.061765	0.797473	-1.372034	-2.464458	9.689297	1.286662	1.146431	15.142118	5.025392	-10.459573	-0.507866	-0.43846	-0.532041
-11.094938	-1.733763	10.07799	-36.162132	-176.519034	22.934433	-0.178709	0.3279	-1.414955	3.846031	1.672008	9.250516	-15.123477	-12.931449	6.898381	0.745199	-1.388726	-2.448002	9.686961	1.344244	1.026865	15.107251	3.853078	-9.506479	-0.494442	-0.488486	-0.498404
-12.320664	-1.737959	8.860692	-45.892894	-176.704922	35.31643	-0.137091	0.31972	-1.387851	3.334741	1.278902	9.522502	-19.006979	-12.387695	5.297583	0.732518	-1.387729	-2.462076	10.033199	0.934924	0.552481	14.241551	3.512852	-9.4406	-0.550074	-0.489303	-0.498685
-13.290608	-1.793972	9.01208	-60.031451	-176.025143	48.214787	-0.164975	0.341296	-1.41872	3.391636	0.997094	9.466834	-21.216256	-11.248153	4.937195	0.732964	-1.356017	-2.478433	9.90899	1.224338	0.251982	11.7421	2.886394	-8.878468	-0.522191	-0.471049	-0.530438
-14.592327	-1.157785	9.785068	-69.86051	-167.698735	61.223891	-0.16536	0.355067	-1.422136	3.5541	0.658361	8.96042	-21.670712	-10.749071	2.75298	0.706196	-1.404272	-2.446171	9.658775	1.628443	-0.469572	9.417461	2.37318	-10.334506	-0.507791	-0.457958	-0.469093
-14.879345	-0.12363	9.783844	-73.458842	-151.904167	71.82164	-0.151997	0.364936	-1.411825	3.454145	0.940845	9.694554	-21.319902	-10.086464	0.571049	0.667789	-1.357464	-2.462705	10.491313	1.279333	-0.156114	7.469889	1.878963	-10.539017	-0.521845	-0.437838	-0.54764
-14.648473	0.393661	9.904176	-76.236599	-134.425925	77.937687	-0.193973	0.352288	-1.407362	4.247757	1.051523	9.145178	-19.268261	-9.337143	-2.194374	0.693891	-1.326673	-2.465263	9.613234	1.515393	0.247716	5.217194	1.874335	-10.867001	-0.521565	-0.422472	-0.532949
-15.043811	0.567482	10.181371	-70.529249	-120.742463	80.381137	-0.194745	0.37983	-1.414193	3.733402	0.996305	9.304169	-17.866742	-8.631353	-4.251698	0.706722	-1.297029	-2.453197	9.555588	1.399623	0.306028	4.085484	2.132301	-9.580597	-0.522191	-0.471049	-0.530438
-15.681446	0.62369	9.771392	-54.837021	-108.331293	82.438007	-0.151254	0.371992	-1.439977	4.310804	0.713622	9.372661	-17.177051	-7.998129	-5.971202	0.693891	-1.326673	-2.465263	9.435065	1.050695	0.122623	1.663497	2.749222	-7.955052	-0.508004	-0.455479	-0.515677
-30.338469	-1.506674	32.777787	-266.839831	-78.448345	174.882858	-0.150883	0.375521	-1.454053	3.844021	0.826908	9.079886	-14.067127	-6.249471	-4.74903	0.693967	-1.311352	-2.466267	9.308209	0.584132	-0.420718	-0.919223	2.508755	-6.29425	-0.508563	-0.486212	-0.545058
-16.174859	-1.27951	7.878369	235.678825	15.371837	112.145878	-0.135262	0.37196	-1.493214	3.513589	1.222485	9.809279	-10.681026	-6.929589	-2.009387	0.719918	-1.311202	-2.466818	9.551571	0.759551	0.003774	-4.476163	1.399497	-6.734494	-0.494167	-0.454449	-0.531134
-19.753019	1.379744	-2.295836	16.148226	14.463243	94.343102	-0.177609	0.355784	-1.474675	3.456324	0.433918	9.750767	-12.684656	-11.060716	2.202203	0.706427	-1.298101	-2.438847	9.658329	0.87296	-0.592599	-8.772335	-0.862505	-5.394	-0.53589	-0.455061	-0.531345
-19.315862	5.261413	5.571626	0.844451	24.247136	68.24582	-0.123027	0.388542	-1.458167	4.374283	0.150399	9.599954	-8.177376	-13.787972	1.284695	0.7455	-1.327445	-2.452017	9.670745	1.689239	0.189651	-11.542143	-3.990246	-5.582973	-0.494584	-0.486834	-0.52946
-19.317106	6.984659	5.578865	3.73142	41.738126	42.002729	-0.12147	0.316159	-1.427012	3.507414	0.658895	9.468968	-2.584264	-13.997528	-2.720535	0.693301	-1.328817	-2.436564	9.190757	1.281809	-0.300138	-14.580343	-6.887776	-4.457922	-0.521982	-0.454857	-0.531275
-16.770991	9.803743	7.117864	48.82325	63.058563	12.261758	-0.093257	0.350008	-1.462694	4.022523	0.3198	9.309644	-1.254447	-14.002282	-4.106767	0.732674	-1.296879	-2.453748	9.131471	1.398096	-0.300744	-17.229541	-8.82655	-1.260608	-0.522053	-0.454031	-0.546802
-13.118185	13.360536	6.749263	92.546704	74.966604	-20.025985	-0.10662	0.34014	-1.473005	4.413045	-0.132121	8.694692	-5.163278	-12.858251	-3.759431	0.680325	-1.328892	-2.436288	9.126914	0.990328	-0.602009	-19.137291	-9.678838	0.645263	-0.480814	-0.503648	-0.513025
-3.797963	2.550429	5.86204	70.128857	41.904441	3.055264	-0.078737	0.318564	-1.442136	4.115416	-0.695314	8.178417	-26.016559	-10.749189	-5.69739	0.693527	-1.282855	-2.439575	9.074791	1.34065	-0.182278	-20.326133	-8.839628	1.898654	-0.494167	-0.454449	-0.531134
-2.502922	5.269818	10.729278	21.1673	32.202511	-12.357194	-0.077994	0.32562	-1.470288	4.446116	-0.356162	10.223771	-12.112967	-13.223936	-8.238678	0.719258	-1.268457	-2.42678	9.362749	2.035651	-0.473343	-22.072589	-6.507073	0.518505	-0.549727	-0.456091	-0.515887
-3.134262	-1.853925	10.345988	25.8749	23.171614	-16.259356	-0.092071	0.274097	-1.417463	3.87867	1.673289	10.779786	-18.637792	-16.389598	-10.433329	0.694042	-1.296032	-2.467271	9.658255	2.325603	-0.406698	-23.172052	-4.357579	-0.679723	-0.494793	-0.503026	-0.528623
-4.805657	-0.476297	9.807811	-1.575445	46.172739	-12.401995	-0.063459	0.276876	-1.432238	2.782726	2.921713	18.853696	22.158926	-54.412718	-21.259719	0.694187	-1.325601	-2.479613	10.490834	2.906203	0.030529	-23.262937	-3.088011	-2.213579	-0.53617	-0.470427	-0.546036
-5.250402	-3.460513	10.354886	-10.100874	33.144428	-16.055014	-0.091314	0.263854	-1.428123	4.193078	-1.088976	9.085527	8.807728	-83.380512	-12.64936	0.706942	-1.311277	-2.466543	11.449222	2.035622	0.703403	-22.902727	-3.53385	-3.343557	-0.53589	-0.455061	-0.531345
-4.845416	-3.115189	10.59154	7.977512	21.238614	-21.146668	-0.091714	0.294924	-1.449031	4.43883	1.166956	12.715985	-1.426705	-87.153942	-18.45977	0.667349	-1.328967	-2.436012	12.050368	1.571889	1.251592	-22.347036	-4.588892	-1.690173	-0.564191	-0.505699	-0.497918
-4.007104	-0.937133	9.65091	35.39682	18.570431	-18.569887	-0.106949	0.284714	-1.406454	4.516922	0.547971	13.622906	10.038833	-106.494749	-22.434443	0.693451	-1.298176	-2.438571	11.747044	1.803137	0.82773	-20.894897	-6.173007	1.154469	-0.480747	-0.485803	-0.544918
-3.414097	0.663054	7.850616	31.459165	17.099609	-12.448301	-0.050481	0.300515	-1.425342	4.658558	1.61679	12.268084	1.529745	-120.026107	-24.856913	0.641987	-1.326973	-2.46416	11.272579	1.861799	0.69936	-19.688609	-7.231693	3.386284	-0.522191	-0.471049	-0.530438
-3.407913	1.3538	8.19463	11.590632	14.097069	-10.56903	-0.078708	0.283965	-1.407152	3.862852	1.337026	12.704039	-5.467228	-130.864259	-23.398069	0.61515	-1.330339	-2.42056	11.076418	2.032229	-0.321617	-18.469361	-7.011033	6.131578	-0.550357	-0.485998	-0.560796
-4.023894	0.725294	8.861965	4.634171	11.02264	-13.328617	-0.063059	0.245805	-1.41133	4.126957	1.729899	11.634263	-10.459725	-141.810652	-20.366511	0.641183	-1.254658	-2.41178	10.313765	2.441753	-0.034657	-17.166325	-6.742429	7.225898	-0.536729	-0.50116	-0.575417
-3.788812	0.037036	9.147788	7.793199	8.870725	-9.293576	-0.078351	0.304792	-1.43872	4.191297	0.716032	11.861176	-19.218551	-150.507958	-21.415591	0.61493	-1.31609	-2.407214	10.090075	2.328861	0.619422	-15.59055	-6.712175	7.800776	-0.507866	-0.43846	-0.532041
-3.678715	-0.021454	8.922362	6.1731	7.567716	-6.181817	-0.048981	0.297329	-1.464154	4.584046	0.996551	11.416759	-22.167808	-161.407382	-21.803679	0.602475	-1.269132	-2.424299	9.923066	2.273415	1.155036	-12.885594	-7.059389	6.814566	-0.522262	-0.470223	-0.545965
-3.83258	-0.132352	9.828188	9.506723	6.664164	-6.451452	-0.078322	0.270194	-1.403736	5.173082	0.319981	11.994675	-27.995732	-175.312146	-23.611126	0.60218	-1.270204	-2.409949	9.871733	1.810425	1.511399	-9.624658	-7.685887	6.408407	-0.521632	-0.440317	-0.501056
-4.126647	-0.133834	9.424649	13.98323	5.520538	-4.060083	-0.105434	0.264229	-1.427774	4.494493	0.265418	12.546517	-31.652298	-188.428952	-24.515013	0.575788	-1.241857	-2.382705	9.588352	1.988048	2.165614	-6.183113	-7.80655	4.470973	-0.521774	-0.438665	-0.532112
-3.556205	-0.307056	9.321354	14.597995	4.265989	-1.598098	-0.0932	0.280811	-1.392727	5.018949	0.095693	12.840453	-29.343486	-203.68504	-24.84963	0.536565	-1.243154	-2.367528	9.645882	2.626749	2.169434	-2.499168	-7.918131	1.737999	-0.535611	-0.439695	-0.516654
-3.214248	0.324311	9.273836	14.53939	4.57093	-1.408964	-0.05161	0.307229	-1.400606	5.319643	0.320998	13.469722	-27.124656	-218.642693	-24.256544	0.549911	-1.226687	-2.383157	9.586151	1.987553	2.0458	1.372921	-7.786548	-0.782818	-0.535406	-0.404831	-0.564912
-3.571302	0.551431	8.585883	11.105949	4.589459	-1.73613	-0.106192	0.274471	-1.417114	5.665789	-0.073962	13.476644	-20.189081	-231.915724	-23.457963	0.471534	-1.27417	-2.364142	9.170567	2.104156	1.918778	4.389073	-6.833766	-3.151592	-0.535264	-0.406484	-0.533856
-3.500769	0.669168	9.269716	6.680528	3.289956	-2.787234	-0.050481	0.300515	-1.425342	5.771273	0.545126	13.083106	-6.367474	-242.693929	-19.977957	0.445148	-1.185613	-2.326563	9.409798	2.162434	2.103148	6.388616	-5.731066	-5.578479	-0.550007	-0.471458	-0.530578
-3.448874	0.380712	8.985358	3.030875	3.280577	-3.451588	-0.07908	0.280437	-1.393076	6.724883	-0.92239	11.799714	10.684704	-252.332107	-20.306545	0.418455	-1.218548	-2.295305	8.748265	2.742207	1.494446	7.962754	-4.455521	-7.118333	-0.521774	-0.438665	-0.532112
-2.871669	0.094055	9.222699	2.663802	3.120335	-3.023776	-0.092071	0.274097	-1.417463	7.723615	-0.698094	12.783328	23.572438	-249.884364	-26.776295	0.431651	-1.232721	-2.308927	8.87207	2.627021	1.795687	8.554384	-2.97412	-8.197181	-0.54931	-0.423707	-0.517561
-3.733619	-0.193254	9.03423	3.736047	2.907442	-2.784975	-0.064202	0.269819	-1.404086	7.803951	0.42702	11.257425	49.572555	-252.801161	-27.955736	0.404374	-1.20759	-2.238634	8.629673	2.509926	1.43135	8.987273	-2.136578	-9.180689	-0.549519	-0.439899	-0.516724
-3.217381	0.03638	9.10207	4.941986	3.476756	-1.000434	-0.093186	0.263512	-1.375235	9.964195	0.759864	10.057577	75.246769	-241.497064	-20.856033	0.351579	-1.271316	-2.204817	8.449208	3.03252	1.31046	8.397896	-2.287217	-9.605684	-0.535753	-0.438042	-0.54771
-3.382422	-0.01949	9.439607	5.616724	3.634952	-1.122477	-0.092457	0.287868	-1.420879	11.100327	0.47544	9.345203	90.568744	-223.125663	-11.351499	0.350768	-1.259211	-2.162772	8.269108	2.451176	1.065058	8.054329	-3.335711	-8.896542	-0.508492	-0.487038	-0.52953
-3.442401	0.669368	9.327683	3.13503	3.871646	-1.326164	-0.090528	0.219013	-1.4038	9.987969	-0.145291	5.697987	92.984065	-210.043395	-7.150408	0.324446	-1.275753	-2.146867	8.380558	2.914278	0.769703	7.987544	-4.474966	-8.187965	-0.535398	-0.442174	-0.470071
-3.734856	-0.021171	8.978101	2.209041	3.166441	-1.856319	-0.077979	0.308321	-1.452796	9.230941	-0.031561	5.285889	71.181027	-192.33214	2.441296	0.309994	-1.281188	-2.074842	8.848711	3.202837	0.600022	7.304803	-5.524666	-7.477581	-0.535816	-0.474559	-0.468396
-3.387125	0.324194	9.213642	2.668646	3.075002	-1.736456	-0.092457	0.287868	-1.420879	3.750261	-2.61319	4.375906	55.588294	-163.029575	1.949105	0.297088	-1.326152	-2.085905	8.44326	2.275801	0.887897	6.587459	-7.0951	-6.70346	-0.564194	-0.487028	-0.545339
-3.498743	-0.594305	9.321261	2.729872	2.605972	-1.008218	-0.077565	0.259951	-1.414397	-2.157639	-4.518999	2.381878	55.825973	-92.260903	-12.946398	0.297458	-1.30976	-2.101259	8.681141	2.914839	1.074739	6.268829	-9.125732	-5.653529	-0.563635	-0.456296	-0.515957
-3.95711	-0.134441	9.314283	2.699105	2.606176	-1.038795	-0.077551	0.242652	-1.396905	-6.043144	-6.369581	3.487539	43.754414	-15.95256	-31.248533	0.257204	-1.284703	-2.03069	8.501041	2.333495	0.829338	5.952388	-10.601667	-5.003546	-0.536583	-0.521484	-0.496941
-3.437408	-0.076407	9.551958	3.434445	2.234574	-0.494925	-0.079094	0.297736	-1.410568	-5.347149	-5.692287	6.503305	10.627936	27.435646	-72.734805	0.28278	-1.361156	-2.026224	8.554845	2.680827	0.592294	4.876761	-10.92277	-3.897894	-0.550007	-0.471458	-0.530578
-3.150105	0.03851	9.614861	5.308074	2.356494	0.360365	-0.051624	0.324529	-1.418098	-4.121587	-2.654185	4.889914	-6.021519	64.212755	-94.667445	0.296051	-1.360009	-2.040849	9.616981	2.271618	0.550465	4.205598	-10.442113	-3.286517	-0.563356	-0.440929	-0.501267
-3.508231	0.207947	8.869814	6.50289	2.144172	0.598818	-0.093957	0.291054	-1.382067	-4.037914	-1.524208	8.912274	-14.945944	85.470194	-77.202424	0.270169	-1.405048	-2.051636	9.735168	2.678127	0.614303	3.513542	-8.893833	-2.405097	-0.536028	-0.47208	-0.51498
-3.74117	1.01157	8.698179	7.606453	3.244049	-1.073222	-0.079494	0.328806	-1.431476	-3.845445	-1.749095	9.821944	-16.937404	88.051112	-63.276835	0.296567	-1.373185	-2.068545	9.85154	2.445058	0.495701	2.763863	-6.918787	-1.403249	-0.550287	-0.486824	-0.545269
-3.62736	0.436831	8.64114	4.371065	1.245029	-2.292459	-0.107321	0.281186	-1.392378	-4.726042	-1.015798	9.068112	1.961606	98.932586	-45.675756	0.321407	-1.422212	-2.023036	9.798026	2.446429	0.794135	2.619756	-5.665536	-1.378145	-0.536725	-0.519831	-0.527996
-3.441986	0.094952	9.32527	7.095396	1.016778	-2.733368	-0.093229	0.31541	-1.427711	-5.250283	-0.958734	8.774082	25.583158	119.945544	-22.050744	0.335934	-1.401457	-2.096064	9.562636	2.156589	0.788497	1.542942	-5.456559	-1.252993	-0.522046	-0.491373	-0.451961
-3.839551	0.268291	9.488759	4.92142	1.752175	-3.420533	-0.134819	0.288991	-1.419831	-4.856372	-1.917534	8.271981	43.63406	144.938323	0.161614	0.322883	-1.416853	-2.094785	9.568564	2.448453	1.149175	0.865952	-5.523643	-0.914032	-0.508279	-0.489517	-0.482947
-3.840665	0.26805	9.431905	3.481059	1.18185	-2.505602	-0.121841	0.312631	-1.412936	-3.82436	-1.637964	8.12406	48.811268	167.984278	22.869359	0.33645	-1.414634	-2.12376	9.450802	2.332571	1.14648	1.300664	-5.093221	-0.978786	-0.550562	-0.520861	-0.512539
-3.913964	0.89657	8.637503	4.219874	1.927016	-2.863639	-0.108092	0.308728	-1.39921	-2.862349	-1.809452	7.351515	43.619311	186.619106	43.830208	0.348905	-1.461592	-2.106675	9.500339	2.620838	0.669561	0.506273	-3.961173	-1.286938	-0.563915	-0.471662	-0.530648
-4.128216	0.497782	9.37045	3.304541	1.472663	-1.120296	-0.179109	0.35897	-1.435863	-1.936921	-2.205348	7.540444	32.596977	200.550988	60.485627	0.350456	-1.440912	-2.179428	9.3919	1.809774	1.083247	0.635597	-2.668117	-2.057639	-0.536304	-0.506117	-0.48225
-3.730237	-0.249972	9.204548	4.748651	1.406105	-0.082821	-0.219156	0.277468	-1.41432	-0.722027	-2.827057	7.791868	21.144849	209.367431	71.632944	0.363432	-1.440837	-2.179703	9.684935	2.215384	1.030573	1.376929	-1.301884	-3.778325	-0.521841	-0.45651	-0.500219
-3.73222	0.956059	9.152763	0.764812	1.918633	-0.829724	-0.219156	0.277468	-1.41432	0.09028	-2.377637	8.14901	13.504262	213.942333	78.424716	0.378104	-1.449651	-2.265074	9.856482	2.213743	0.73434	2.767873	-0.092562	-4.889359	-0.577819	-0.490537	-0.483298
-3.903942	0.898742	9.149181	0.457707	1.418194	-0.192945	-0.247383	0.260918	-1.39613	1.374636	-2.266636	9.025295	7.459193	217.280569	80.703903	0.39049	-1.45172	-2.23665	9.329738	2.215947	0.964064	3.36226	0.886834	-4.743377	-0.521699	-0.458162	-0.469163
-3.677519	-0.136096	8.978732	2.145147	1.326916	0.414073	-0.25886	0.234092	-1.441837	1.970733	-2.210577	10.000305	2.348493	220.841966	78.73111	0.416598	-1.360719	-2.228874	9.272227	2.042101	1.022128	4.261876	1.345427	-4.412644	-0.52212	-0.471876	-0.51491
-4.017006	0.439533	9.201877	1.378791	1.355113	0.324733	-0.245082	0.195591	-1.393127	3.643325	-1.988238	10.205471	1.06972	221.952519	74.979535	0.456336	-1.372599	-2.271746	9.867621	2.158139	1.333162	5.190959	1.99303	-4.60247	-0.563494	-0.457948	-0.484902
-3.785554	0.152642	9.31883	1.663636	1.925006	1.682556	-0.271409	0.144784	-1.392841	3.603331	-2.32545	10.996932	-3.243363	219.855658	68.81951	0.470568	-1.352916	-2.330425	9.145932	1.80809	0.539683	5.590925	2.182424	-5.032686	-0.549727	-0.456091	-0.515887
-3.273563	0.094104	9.158051	1.789268	1.541153	3.055993	-0.214898	0.108687	-1.359255	4.529428	-2.439646	11.242738	-10.359132	215.721384	59.707992	0.49674	-1.367014	-2.344322	9.565087	1.576076	0.845932	5.992656	2.616853	-5.494638	-0.535745	-0.475385	-0.452869
-3.722815	0.26869	9.604692	4.944895	1.371154	3.074815	-0.213012	0.09173	-1.394651	6.145233	-1.99183	11.503526	-19.442226	207.405189	49.381833	0.522917	-1.320903	-2.347885	9.040004	1.811079	1.196458	6.69751	2.689725	-6.383819	-0.577055	-0.424941	-0.502174
-3.503902	0.381236	9.097951	4.453853	1.433457	2.801234	-0.156129	0.059161	-1.37514	6.776705	-1.71141	11.460421	-27.345752	197.085584	38.543607	0.549755	-1.317537	-2.391485	9.575821	1.694701	1.445495	8.019242	2.640248	-7.060717	-0.521908	-0.474354	-0.468326
-3.731557	0.036994	9.148902	5.499545	1.709344	3.293386	-0.099647	0.057663	-1.376537	7.426979	-1.148579	12.323788	-36.16263	188.141482	30.95572	0.562511	-1.303214	-2.378415	8.926934	2.044889	1.494781	9.396844	2.260494	-8.316894	-0.563777	-0.454643	-0.547013
-4.303977	-0.134916	9.137043	8.627281	1.656218	3.83553	-0.071806	0.087984	-1.398143	8.103042	-1.03778	11.658714	-49.607344	182.312212	25.121696	0.53767	-1.254187	-2.423924	9.170682	1.581224	1.856646	11.513196	1.358017	-9.053709	-0.535607	-0.458366	-0.469234
-3.67711	0.840652	9.039687	7.373063	1.894119	4.02701	-0.04508	0.107721	-1.377521	7.726271	-0.190977	12.953674	-64.077432	178.692911	21.251165	0.576598	-1.253962	-2.424751	9.339062	1.520766	1.380445	13.507252	0.328961	-9.422747	-0.550074	-0.489303	-0.498685
-3.669849	0.037918	9.377428	5.710819	1.125053	3.405951	-0.058843	0.128923	-1.408739	7.75496	-0.020848	14.313167	-71.083299	174.268275	19.166748	0.564213	-1.251893	-2.453174	8.693435	0.941985	1.485682	15.377244	-0.730176	-9.882872	-0.549586	-0.457744	-0.484832
-3.270181	0.037386	9.328369	5.566693	2.663005	3.247356	-0.072192	0.101755	-1.401559	7.728202	0.938159	15.842033	-61.514805	168.575529	18.285388	0.577999	-1.263923	-2.495496	9.347305	1.290192	1.798804	17.0691	-1.368343	-9.70259	-0.49423	-0.490965	-0.451821
-3.442235	0.439602	9.326718	4.703121	1.328847	3.994841	-0.0585	0.16705	-1.457799	8.598397	1.21848	16.200241	-39.565803	162.186858	16.636337	0.616927	-1.263698	-2.496323	9.453232	1.287202	1.142029	18.675155	-1.584897	-8.912797	-0.550145	-0.488476	-0.514213
-3.494952	0.325725	9.552534	5.936201	2.440562	4.040027	-0.074121	0.17061	-1.418638	8.859414	1.329559	14.96031	-20.577775	156.3118	14.990024	0.630789	-1.260407	-2.539648	9.75422	1.113535	1.446324	19.480614	-1.620168	-8.182086	-0.536513	-0.52231	-0.481413
-4.012096	-0.191358	9.426635	9.239869	1.472256	4.045447	-0.018396	0.179355	-1.409374	9.175686	1.384104	13.60826	-18.102153	151.751441	14.484192	0.629608	-1.264694	-2.482249	9.154175	1.577516	0.958043	19.980675	-1.537975	-7.084093	-0.592286	-0.521474	-0.512749
-4.022408	0.208561	8.916646	9.699064	1.66366	3.617895	-0.031774	0.186786	-1.437177	10.051897	1.436956	11.531985	-31.802311	148.23325	15.301366	0.630198	-1.262551	-2.510948	9.26628	1.285382	0.599566	20.329106	-1.368035	-5.649784	-0.535886	-0.473732	-0.483924
-3.618908	1.070618	9.098619	8.169595	2.274267	3.356216	-0.046623	0.162805	-1.391184	10.315355	2.167813	10.462493	-53.037077	144.878411	13.986904	0.721765	-1.289451	-2.553921	9.380315	1.109895	0.361398	19.298006	-0.628509	-3.57138	-0.522187	-0.489721	-0.483017
-3.498376	0.439884	9.382457	3.045902	2.266711	1.929471	-0.060029	0.204835	-1.45397	11.513157	2.897467	10.03538	-76.27583	141.789484	10.268837	0.72228	-1.302627	-2.581616	9.26711	1.401782	0.659967	18.227344	-0.462409	-2.254122	-0.522329	-0.488068	-0.514073
-3.734157	0.553486	9.037367	6.535566	2.232338	0.96817	-0.074135	0.18791	-1.436129	11.817523	4.36228	10.948891	-86.533546	141.529195	6.743533	0.734886	-1.318945	-2.566539	9.255971	1.457385	0.061146	16.839405	-1.429221	-0.930295	-0.57761	-0.474345	-0.484135
-3.44673	0.496078	9.099547	3.923328	1.834223	-0.226827	-0.075279	0.211924	-1.428885	11.433607	5.152468	11.903966	-76.21942	143.095333	2.728897	0.787756	-1.239899	-2.601359	9.146161	0.762227	0.415419	15.293908	-2.421182	-0.186458	-0.549861	-0.491781	-0.452102
-4.091786	0.033624	8.289424	1.502265	2.792981	-1.737682	-0.046652	0.197403	-1.426168	11.930044	5.094314	10.895286	-48.880629	142.477574	0.278485	0.749123	-1.239052	-2.614882	9.210565	1.286259	0.778186	14.645522	-3.725896	1.533647	-0.550212	-0.506321	-0.48232
-3.771908	1.30461	10.062747	-9.90184	0.744417	0.776628	-0.047037	0.211174	-1.429584	13.190069	4.021331	10.524504	-10.215726	138.673722	-3.64342	0.800506	-1.285785	-2.598624	9.141625	0.819314	0.176039	14.117449	-4.838115	2.427205	-0.536583	-0.521484	-0.496941
-3.565859	0.724962	8.870873	-1.389729	5.571074	-1.254851	-0.061558	0.242619	-1.450142	14.801587	2.044218	7.669283	22.927072	125.786902	-11.451901	0.84025	-1.237455	-2.631162	9.667943	0.526482	-0.114828	13.067091	-5.241742	2.64688	-0.536583	-0.521484	-0.496941
-3.772156	1.649259	10.064194	-12.348725	9.706419	-4.498958	-0.08827	0.205584	-1.453272	16.002809	0.74359	4.52297	24.559721	100.428857	-19.656302	0.813928	-1.253997	-2.615257	9.607016	0.874826	-0.174352	11.866213	-5.311342	3.048887	-0.536237	-0.488272	-0.514143
-3.824667	1.248174	10.288804	-14.074258	13.830046	-5.653723	-0.102391	0.205958	-1.452923	16.280913	-0.104718	1.301055	-10.292011	65.406854	-22.77633	0.891633	-1.284188	-2.614904	9.720512	0.931643	-0.411531	10.390411	-5.076369	3.481002	-0.550003	-0.490129	-0.483157
-3.976077	3.275923	14.329365	-13.074501	33.548971	-1.471847	-0.074121	0.17061	-1.418638	15.689806	1.022449	0.666879	-67.833725	27.906225	-20.143748	0.879172	-1.297439	-2.642324	9.733292	0.643983	0.246209	8.98509	-4.578486	5.134168	-0.55007	-0.507974	-0.451265
-3.660444	-0.649451	9.829357	-1.33355	45.405995	-4.318416	-0.075293	0.229223	-1.446377	15.050317	3.279144	3.259691	-104.576828	1.294341	-16.461252	0.91766	-1.268717	-2.616459	9.671514	0.411072	0.064399	8.343329	-4.746997	6.420996	-0.522254	-0.507566	-0.451124
-3.71428	0.787594	10.061688	-13.0682	45.871462	-4.09306	-0.088627	0.184756	-1.421704	13.64875	5.762041	5.213941	-112.902638	-8.934753	-11.020753	0.878217	-1.255766	-2.587936	9.444658	0.239362	0.53851	8.932743	-5.807279	8.594017	-0.549791	-0.492608	-0.436574
-4.016649	0.854211	12.158813	-14.927207	55.793567	-1.810294	-0.047795	0.221417	-1.418923	23.134208	29.263736	39.289161	-165.072082	-45.507338	-39.324308	0.865907	-1.238376	-2.617363	9.501899	0.52936	0.48094	9.052572	-7.445664	10.313053	-0.521979	-0.473528	-0.483854
-4.534989	0.451769	11.976543	-3.959415	67.796581	1.021376	-0.033646	0.186444	-1.384289	12.984342	16.472703	12.795733	38.26067	-59.690294	-8.41346	0.90528	-1.206439	-2.634548	9.144075	0.238801	0.233474	8.883014	-7.599888	13.340415	-0.522046	-0.491373	-0.451961
-4.266901	-0.586487	11.011264	-3.157012	76.868993	3.374615	-0.032517	0.179729	-1.409025	16.140386	7.33542	6.173485	123.078208	-85.138486	-14.424504	0.879398	-1.251478	-2.645335	9.740299	0.471238	0.604908	10.643913	-7.724115	14.129352	-0.536233	-0.506944	-0.466722
-4.188081	0.394803	12.153542	-10.928872	87.537588	5.042448	-0.033288	0.207271	-1.415857	3.010652	4.824741	5.442603	112.174665	-84.301791	-27.557182	0.866492	-1.296442	-2.656398	9.198285	0.411905	-0.004312	11.57116	-7.973373	14.891344	-0.550212	-0.506321	-0.48232
-4.025474	0.737398	11.703506	-6.076021	100.906194	9.447145	0.023951	0.19553	-1.427914	2.518784	0.209656	8.93828	78.939496	-72.217071	-45.003743	0.852335	-1.300805	-2.598723	9.492015	0.99199	0.003663	12.629787	-7.523391	16.108028	-0.550354	-0.504669	-0.513376
-4.803156	0.053746	12.878936	-14.597757	112.586108	13.648118	-0.034775	0.193158	-1.359553	0.667369	-3.275283	13.538685	44.104195	-59.542569	-38.524924	0.851444	-1.364231	-2.566009	9.675956	1.341772	0.427796	12.607249	-6.514722	16.164429	-0.549727	-0.456091	-0.515887
-4.496183	0.689979	13.967367	-20.752522	130.017155	18.211667	-0.005376	0.151096	-1.350004	-0.723132	-1.132326	13.284914	93.93341	-86.7354	-33.329725	0.813777	-1.284638	-2.61325	10.039012	1.749719	0.975291	12.734531	-4.969413	14.658826	-0.550141	-0.507148	-0.466792
-4.089793	0.633454	14.259185	-29.280187	150.730174	22.130036	0.022436	0.216016	-1.406594	0.600978	2.747565	8.277485	106.342153	-115.369379	1.661942	0.826597	-1.375413	-2.621853	10.856975	1.513546	0.510453	13.082617	-3.029126	13.486784	-0.577748	-0.491363	-0.46777
-4.764722	0.80893	14.871931	-40.119303	174.879575	25.282961	0.036214	0.177514	-1.357883	3.481375	6.685692	8.794367	64.905081	-114.016241	14.559217	0.80013	-1.362387	-2.593606	10.8446	1.626979	-0.148028	12.780318	-2.327634	13.57623	-0.563281	-0.460427	-0.438318
-4.00928	0.810803	15.454937	-52.706073	203.525697	29.096609	0.021365	0.153533	-1.31189	6.660499	2.398834	9.083811	37.239882	-86.731874	15.671315	0.838988	-1.317272	-2.583094	11.208871	1.512242	0.397242	11.806067	-1.392377	14.492283	-0.563702	-0.474141	-0.484065
-3.692612	0.357578	16.993608	-76.369077	237.394785	30.574064	0.104931	0.192599	-1.324233	5.831297	2.176456	10.651396	36.121431	-76.838207	-3.036628	0.786784	-1.378854	-2.577977	11.024815	1.685392	0.035241	11.016391	-0.020947	14.702563	-0.563564	-0.457122	-0.50043
-3.338862	1.623455	17.574129	-83.680979	273.151186	31.636632	0.090067	0.185917	-1.295732	4.441327	0.883014	10.111536	26.483629	-70.721251	-14.328129	0.786709	-1.394175	-2.576973	10.677611	2.036388	0.44947	10.571488	1.527372	15.674915	-0.563352	-0.459601	-0.453846
