1757_acc_x	1757_acc_y	1757_acc_z	1757_gyro_x	1757_gyro_y	1757_gyro_z	1757_mag_x	1757_mag_y	1757_mag_z	1758_acc_x	1758_acc_y	1758_acc_z	1758_gyro_x	1758_gyro_y	1758_gyro_z	1758_mag_x	1758_mag_y	1758_mag_z	1759_acc_x	1759_acc_y	1759_acc_z	1759_gyro_x	1759_gyro_y	1759_gyro_z	1759_mag_x	1759_mag_y	1759_mag_z
-1.890928	2.163176	9.70514	-1.886568	-0.270761	-1.287029	-0.031502	-0.141902	-1.104833	6.199306	2.117996	9.017263	-11.21861	-5.44912	-27.92075	0.149723	-0.247229	-1.025795	9.304813	1.571177	-0.476421	-9.353452	-2.888295	3.969959	-0.612404	-0.145989	0.009657
-1.950036	1.645761	9.588148	-2.56233	-0.488685	-1.319293	0.631206	-0.360384	-0.886609	7.126828	1.891187	9.319614	-8.961597	-5.841648	-33.872292	-0.469182	0.079474	-1.148434	9.125138	1.280461	-0.66068	-8.367058	-3.31898	4.549157	-0.434996	-0.476274	0.198117
-1.723618	2.162087	9.481068	-2.899114	-0.397368	-1.378176	0.670938	-0.351607	-0.824108	6.132956	2.286764	8.619719	-7.300603	-6.71792	-37.332168	-0.44367	0.108121	-1.122293	9.599333	1.337951	-0.531815	-6.886996	-3.469123	4.789025	-0.477066	-0.510097	0.215109
-1.723743	2.334411	9.481792	-3.389819	-0.336108	-1.559777	0.67281	-0.351265	-0.876996	5.852012	1.217212	8.839332	-4.086158	-7.013749	-42.141324	-0.430103	0.11034	-1.151268	9.838024	1.628533	-0.346456	-5.866366	-3.533576	5.458047	-0.504047	-0.445736	0.21162
-1.548307	1.875479	9.653761	-3.451367	-0.241765	-1.772744	0.673182	-0.347737	-0.891072	5.796672	1.949759	9.008658	-0.995867	-7.170697	-44.976336	-0.469477	0.078402	-1.134084	9.42188	1.512584	-0.534375	-4.848506	-3.779041	5.883431	-0.462465	-0.443471	0.180775
-1.836806	1.875203	9.534487	-3.69779	-0.301939	-1.987691	0.672067	-0.358322	-0.848844	5.395462	1.668908	9.056598	2.294472	-8.468615	-46.435381	-0.443745	0.0928	-1.121289	9.717521	1.74446	-0.467977	-3.921406	-3.997085	6.584095	-0.476578	-0.478539	0.228962
-1.609068	2.104562	9.483054	-3.451924	-0.271453	-1.86523	0.686545	-0.337869	-0.880761	4.297984	1.727144	8.863758	4.123791	-7.92436	-46.397673	-0.457016	0.091654	-1.106664	9.908315	1.514718	0.253218	-2.813361	-4.237803	6.581231	-0.490277	-0.46255	0.228055
-1.89839	1.701955	9.305238	-2.991014	-0.084916	-1.863525	0.685402	-0.313855	-0.873517	3.903381	1.784561	9.25182	5.998554	-8.609803	-45.786474	-0.50929	0.074961	-1.090208	9.830591	1.51065	-0.766299	-1.733099	-4.391278	7.005955	-0.490419	-0.460898	0.196999
-1.780665	1.874921	9.478748	-2.713071	0.035475	-1.525018	0.671281	-0.31348	-0.873168	3.158765	1.729774	9.405976	8.339239	-8.961094	-43.784437	-0.483414	0.059791	-1.089756	9.778468	1.860972	-0.346568	-0.993126	-4.668012	7.401936	-0.490277	-0.46255	0.228055
-1.431779	2.163086	9.770901	-2.314586	-0.088026	-1.313495	0.687674	-0.344583	-0.905497	2.4037	1.449238	9.050185	10.93157	-8.884748	-41.038125	-0.469992	0.091578	-1.106388	9.605666	1.455586	-0.171879	-0.309946	-4.519565	8.071178	-0.462532	-0.461316	0.212668
-1.945007	2.393707	9.875551	-2.067029	0.187967	-1.156381	0.66019	-0.354077	-0.915459	-0.07962	1.847902	8.658696	13.507543	-5.164738	-37.515765	-0.535757	0.087988	-1.06196	9.656034	1.860253	-0.588396	0.303834	-4.946533	8.162687	-0.490557	-0.477916	0.213364
-1.836024	2.334977	9.593271	-1.762511	-0.11792	-1.162229	0.659047	-0.330063	-0.908215	0.973781	1.057951	9.416108	12.888182	-0.191805	-34.877447	-0.457462	0.059941	-1.090307	9.299851	1.337637	-0.776945	1.076606	-5.102692	8.741367	-0.448416	-0.444919	0.211901
-2.005478	2.220701	9.703154	-1.792286	-0.05799	-1.038497	0.671653	-0.309952	-0.887244	0.630052	1.453006	9.522465	11.324886	3.391346	-32.561952	-0.497055	0.042251	-1.059777	9.598388	1.744483	-0.530084	1.84843	-5.443328	9.41263	-0.490001	-0.428513	0.195325
-1.839158	2.047045	9.421505	-1.272291	-0.17779	-1.103277	0.673553	-0.344209	-0.905148	0.821659	1.678764	10.432515	9.575933	9.450381	-29.45132	-0.536058	0.026706	-1.057946	9.359967	1.337749	-0.715938	2.43901	-5.543389	10.419623	-0.504536	-0.477294	0.197766
-1.609109	2.162004	9.483295	-0.719106	-0.148307	-0.767041	0.687288	-0.330812	-0.908913	-0.297709	1.172794	9.163048	10.731153	12.895714	-28.953737	-0.510326	0.041105	-1.045151	9.840785	1.861578	-0.165747	3.176416	-6.12569	10.786517	-0.503976	-0.446562	0.227148
-1.608985	1.989679	9.482571	-0.258871	-0.085044	-0.736669	0.672024	-0.306424	-0.90132	-1.343988	1.399676	8.68836	4.152973	18.126123	-25.762725	-0.510697	0.024712	-1.029798	10.011231	1.85969	-0.521887	3.363253	-6.532129	11.70475	-0.476019	-0.447806	0.258344
-1.833673	2.163135	9.706253	0.078978	-0.085556	-0.553642	0.685788	-0.327626	-0.870101	-1.150872	0.836806	9.597747	6.974582	21.296294	-26.869509	-0.549329	0.025559	-1.04332	9.47858	2.034886	-0.590956	3.361939	-6.933243	12.042892	-0.476298	-0.463172	0.243653
-1.833632	2.105693	9.706012	-0.076369	-0.205375	-0.892491	0.65869	-0.350891	-0.876647	-1.42849	0.556072	10.044582	4.891116	25.041722	-27.018898	-0.509886	0.012607	-1.071843	9.183459	1.10585	-0.720228	3.179664	-7.249561	12.992607	-0.476298	-0.463172	0.243653
-1.902927	1.815873	9.078308	-0.015226	-0.267248	-0.832336	0.685774	-0.310327	-0.887593	-0.900861	-0.007871	10.451465	3.295747	28.560808	-24.426585	-0.536504	-0.005007	-1.041589	9.244156	1.803369	-0.53644	2.906532	-7.507242	14.156341	-0.476231	-0.445327	0.21176
-1.665458	2.449494	9.540241	0.076642	-0.297898	-0.802431	0.65829	-0.31982	-0.897555	-1.534943	0.443959	10.438546	2.583212	30.648724	-26.317639	-0.523308	-0.01918	-1.055211	9.414177	1.510853	-0.953723	2.381879	-7.911815	14.649235	-0.448412	-0.46359	0.259321
-1.895589	2.449419	9.478934	0.015596	-0.392814	-0.589121	0.644584	-0.367815	-0.858806	-0.889658	-0.176436	10.961079	2.656257	31.366542	-28.1292	-0.523308	-0.01918	-1.055211	9.358597	1.453654	-0.77535	1.575581	-8.651015	14.869649	-0.476369	-0.462346	0.228125
-2.007498	1.93301	9.588241	-0.166753	-0.210324	-0.493626	0.671296	-0.33078	-0.855676	1.835759	1.452985	12.095426	10.060357	28.268986	-27.629999	-0.510552	-0.004857	-1.04214	9.880669	1.566613	-1.244207	1.079309	-8.833479	14.597219	-0.489931	-0.429339	0.210853
-2.00119	2.451432	9.931532	-0.565298	-0.211836	-0.523172	0.686545	-0.337869	-0.880761	3.238043	0.491154	10.312375	14.564292	22.216995	-35.763008	-0.523378	0.025709	-1.043872	10.115518	2.088757	-1.23758	-0.032507	-8.834004	14.265018	-0.504532	-0.495965	0.245187
-1.722256	1.817679	9.536473	-0.996599	-0.332595	-0.89191	0.643798	-0.322974	-0.883129	2.55505	0.211079	10.637468	12.184383	18.899079	-44.059186	-0.510257	-0.003785	-1.05649	9.941501	2.206056	-1.060666	-1.081912	-8.463154	13.533459	-0.476023	-0.429135	0.210923
-1.432809	2.047961	9.713565	-0.750071	-0.178834	-0.798116	0.658676	-0.333591	-0.894139	-0.322758	3.765575	10.919848	-6.647573	-6.331816	-10.601128	-0.484305	-0.003635	-1.057042	9.818797	2.321489	-1.302	-1.544704	-7.905409	12.676623	-0.476228	-0.463999	0.259181
-1.779511	1.81772	9.53536	-1.611792	-0.454213	-1.260133	0.701052	-0.352014	-0.877695	0.407576	6.861878	10.371776	19.315411	-2.827267	-13.165718	-0.536654	-0.035648	-1.039582	10.288435	1.971211	-1.474401	-1.387612	-7.320529	12.367602	-0.476369	-0.462346	0.228125
-1.659641	2.106051	9.823059	-0.81355	-0.329303	-1.10706	0.643026	-0.295432	-0.889961	0.615021	4.496859	11.789401	15.376946	-5.693531	-4.47319	-0.498022	-0.036494	-1.026059	10.581625	2.7836	-1.465437	-2.369144	-5.843548	11.172043	-0.462111	-0.447602	0.258414
-2.067844	1.587679	9.415121	-0.412711	-0.084021	-0.88955	0.64344	-0.343802	-0.851562	1.06874	5.28205	8.855686	17.330129	-4.286315	4.544178	-0.523163	-0.048749	-1.067553	10.108625	1.73857	-1.658412	-2.640769	-4.738002	10.648136	-0.47609	-0.44698	0.242816
-2.003085	1.991417	9.815895	0.110152	0.226078	-0.916684	0.699908	-0.328001	-0.87045	1.891379	2.858803	9.436968	3.658727	-0.904169	4.72095	-0.54926	-0.01933	-1.054659	10.111812	2.262244	-1.416559	-3.649334	-3.547756	10.554412	-0.504114	-0.463581	0.243513
-1.895299	2.047328	9.477245	0.724248	0.444758	-0.976234	0.686145	-0.306798	-0.901669	1.67493	1.95842	9.997769	-0.133703	-0.369141	4.630734	-0.498242	-0.022246	-1.012713	9.53441	1.511078	-0.831708	-4.667408	-3.115607	9.822468	-0.475531	-0.416247	0.272197
-1.891751	1.760844	9.646597	0.109945	0.28928	-1.068997	0.672439	-0.354793	-0.86292	1.435237	2.465494	9.596883	1.160225	-0.600615	5.030242	-0.523163	-0.048749	-1.067553	9.705841	2.032368	-1.065809	-5.592638	-3.087399	9.733989	-0.461764	-0.414391	0.241212
-1.666571	2.449253	9.483388	0.108503	-0.050857	-0.890512	0.672053	-0.341022	-0.866336	2.30323	2.633059	9.841718	1.839112	-0.653322	5.030264	-0.523458	-0.049821	-1.053203	8.94948	1.629816	-0.542684	-5.535088	-3.203543	9.153596	-0.503768	-0.430369	0.226311
-1.664054	2.047645	9.595405	-0.044311	0.072398	-0.980073	0.715544	-0.348861	-0.89212	2.063143	1.450075	9.26949	1.470485	-0.589852	3.982434	-0.498317	-0.037566	-1.011709	9.54665	1.455721	-0.17298	-4.861569	-3.595606	8.847377	-0.461694	-0.415217	0.25674
-1.952595	2.104811	9.476373	0.20191	0.101841	-0.765627	0.644155	-0.302146	-0.914697	2.409637	1.505806	9.33343	0.270208	-0.438127	1.886654	-0.484386	-0.079165	-1.066373	9.487228	1.630084	-0.173338	-3.570251	-3.925534	8.660884	-0.462182	-0.446776	0.242886
-1.781945	2.104445	9.42286	0.264669	0.254396	-0.640656	0.714386	-0.307547	-0.902367	2.530273	1.78748	9.619283	-0.755386	-1.026855	0.831817	-0.536209	-0.003935	-1.055939	9.360663	1.512225	-0.655289	-1.847674	-4.284182	8.442402	-0.434224	-0.44802	0.274082
-1.554206	2.333805	9.371426	0.539942	-0.118314	-0.187485	0.701037	-0.334715	-0.895186	2.35395	1.787661	9.445738	-0.88481	-1.4884	0.827124	-0.511073	-0.05189	-1.02478	9.833332	1.27884	-0.647474	-0.248295	-4.45722	7.978962	-0.489718	-0.431818	0.257436
-1.432726	1.933078	9.713082	1.246449	0.193339	-0.276458	0.714772	-0.321318	-0.898951	1.898632	2.859088	9.776805	-0.982489	-2.002432	-0.472847	-0.511293	-0.037641	-1.011434	10.129223	0.929709	-0.643456	1.421641	-3.994924	8.215226	-0.503209	-0.399637	0.255692
-1.436481	2.50677	9.544936	1.339199	0.128828	0.028906	0.671667	-0.327251	-0.869752	2.2963	2.463783	9.501738	1.254636	-0.962862	-0.368225	-0.523088	-0.033429	-1.068557	9.77144	1.568861	-0.767152	3.084848	-4.109715	8.056926	-0.48923	-0.400259	0.27129
-1.661786	1.990686	9.70887	1.646157	0.128868	0.150695	0.67201	-0.289124	-0.918811	2.407804	2.463425	9.334237	0.70778	-0.291865	-0.88607	-0.484235	-0.048524	-1.06838	10.297353	1.450258	-1.057277	4.477394	-3.679635	8.355478	-0.489789	-0.430991	0.241909
-1.893113	2.105252	9.591192	1.309675	0.094129	0.365774	0.686174	-0.341397	-0.866685	2.233684	2.576362	9.274065	-1.136244	0.393332	-1.404817	-0.523678	-0.035573	-1.039857	10.12017	1.508739	-1.060331	5.222485	-3.096731	8.441693	-0.489718	-0.431818	0.257436
-1.78079	2.047245	9.479472	1.251458	0.460539	0.555904	0.646441	-0.350174	-0.929186	2.18622	2.351527	9.725783	-3.604685	0.521337	-2.33037	-0.497431	-0.034351	-1.054759	10.117408	1.275693	-1.241041	5.354884	-2.182086	8.773062	-0.489438	-0.416451	0.272127
-1.607913	2.047362	9.539665	0.974721	0.336671	0.524019	0.70028	-0.324472	-0.884526	2.13051	2.013699	9.78093	-5.453692	0.808493	-2.945561	-0.54963	-0.035723	-1.039306	9.997465	1.624172	-1.301665	5.235276	-1.475512	8.433908	-0.475881	-0.430787	0.241979
-2.066938	1.875128	9.47318	0.699153	0.491128	0.343316	0.672439	-0.354793	-0.86292	2.473593	1.956627	9.674856	-6.815137	0.580015	-3.473002	-0.536359	-0.034576	-1.053931	10.127042	1.39407	-0.701385	4.653723	-0.336989	7.574765	-0.461623	-0.416043	0.272268
-2.015375	2.046205	9.190752	1.006199	0.428314	0.586754	0.643812	-0.340273	-0.865638	2.193558	1.675798	10.008412	-7.623555	0.142126	-3.72463	-0.523453	0.010389	-1.042868	9.649006	1.568142	-1.008981	4.1353	0.581647	7.297176	-0.461623	-0.416043	0.272268
-1.839365	2.334253	9.422712	0.823458	0.54934	0.68125	0.686545	-0.337869	-0.880761	2.25311	1.901107	10.12309	-7.067402	0.206687	-3.13781	-0.510407	-0.034426	-1.054483	9.706226	1.393285	-1.128436	3.336558	1.504649	6.500985	-0.476369	-0.462346	0.228125
-1.948058	1.990893	9.703302	1.191822	0.643253	0.681716	0.699523	-0.31423	-0.873866	2.185335	2.182488	9.669002	-5.620211	-0.115224	-2.677428	-0.522787	0.027853	-1.072571	9.764972	1.509302	-1.126841	3.000966	2.148652	6.224047	-0.503071	-0.382618	0.239327
-1.604573	2.048086	9.710225	1.775167	0.674269	0.895216	0.685788	-0.327626	-0.870101	1.891463	2.18279	9.379759	-3.738475	-0.249268	-1.968204	-0.536654	-0.035648	-1.039582	9.59053	1.335973	-1.01107	3.00439	2.732067	6.0073	-0.475948	-0.448632	0.273872
-1.895174	1.875003	9.476521	2.233473	0.398787	0.981423	0.630835	-0.363912	-0.872533	2.358354	2.013173	9.672486	-1.670376	-0.347076	-1.751717	-0.536504	-0.005007	-1.041589	9.584757	1.450889	-1.31011	3.225458	3.374918	6.033996	-0.447577	-0.39882	0.255973
-1.893072	2.047811	9.590951	2.81891	0.64284	1.382384	0.685774	-0.310327	-0.887593	2.017235	1.675979	9.834867	-0.438229	-0.579334	-1.352271	-0.510407	-0.034426	-1.054483	9.5219	1.682586	-1.489942	3.385174	3.73751	6.520717	-0.502858	-0.385097	0.285911
-1.722298	1.87512	9.536714	3.033802	0.642799	1.473768	0.644184	-0.336745	-0.879714	2.303769	2.351406	9.84148	0.087284	-0.542408	-1.289825	-0.496395	-0.000494	-1.099815	9.231201	1.219395	-1.317702	3.633366	3.952844	6.488226	-0.503279	-0.398811	0.240164
-1.66525	2.162287	9.539034	2.94032	0.459022	1.379047	0.67241	-0.320195	-0.897904	1.949676	1.844699	9.380683	-0.376596	-0.579355	-1.22891	-0.510257	-0.003785	-1.05649	9.823853	1.567243	-1.125493	3.387105	3.982232	6.519542	-0.489372	-0.398607	0.240234
-1.550741	2.162204	9.541261	3.216727	0.646439	1.227959	0.643412	-0.309203	-0.886545	1.891895	1.957467	9.379569	-1.021593	-0.28154	-1.133983	-0.523603	-0.020252	-1.040861	9.585433	1.160509	-1.311346	3.320477	3.587806	6.185457	-0.503417	-0.415829	0.256529
-1.317187	2.04812	9.772645	3.001299	0.428924	1.347715	0.658733	-0.402789	-0.824172	2.412724	1.787601	9.503586	-1.669477	-0.227837	-1.226455	-0.575657	-0.051193	-1.037751	9.225003	1.043684	-1.677885	2.885613	3.437085	5.820979	-0.46232	-0.463794	0.259251
-1.726876	2.04648	9.310026	2.631879	0.150272	1.374917	0.686531	-0.320569	-0.898253	1.897053	1.788666	9.605985	-2.530466	0.097294	-1.038946	-0.549706	-0.051043	-1.038302	10.048488	1.273603	-1.781304	2.667773	3.160683	5.853652	-0.489301	-0.399433	0.255762
-1.437263	2.046996	9.486153	2.080145	0.116617	1.406626	0.715158	-0.33509	-0.895536	2.533037	2.238266	9.789582	-2.530621	0.096489	-0.915642	-0.509666	-0.001641	-1.08519	9.636881	1.100567	-1.729841	2.476817	2.767707	5.336627	-0.489234	-0.381588	0.223869
-1.320154	1.530422	9.599914	1.833031	-0.129339	1.311337	0.658676	-0.333591	-0.894139	2.420216	2.294907	9.90049	-2.471833	-0.11879	-0.701939	-0.548745	-0.032507	-1.082355	9.522845	1.276054	-1.491673	2.318428	2.402595	5.09443	-0.475739	-0.43244	0.273034
-1.664261	2.334852	9.596611	1.405132	0.146982	1.163721	0.686531	-0.320569	-0.898253	2.013285	1.844828	9.66509	-2.192691	-0.02367	-0.639113	-0.510778	-0.050818	-1.039129	10.055091	1.275086	-1.421862	2.217393	1.704371	4.547975	-0.475255	-0.38221	0.239468
-1.667394	2.046921	9.424846	0.914296	0.05215	1.19426	0.670924	-0.334308	-0.8416	1.896083	2.29564	9.606412	-1.821373	0.041357	-0.484027	-0.511293	-0.037641	-1.011434	9.819161	1.21755	-1.426511	2.490371	1.558724	3.936403	-0.489509	-0.415625	0.256599
-1.834787	2.162893	9.6494	0.331025	0.052212	0.950598	0.687302	-0.348111	-0.891421	2.128308	1.900943	9.667556	-1.32827	-0.015916	-0.145091	-0.523974	-0.036645	-1.025508	9.581746	1.798851	-1.428441	2.7012	1.351677	3.325352	-0.489301	-0.399433	0.255762
-2.063721	2.048176	9.644464	-0.097664	0.205607	0.800986	0.6167	-0.346239	-0.889675	2.473377	2.069288	9.674951	-0.957812	-0.041273	-0.237529	-0.497356	-0.01903	-1.055762	9.760705	1.450237	-1.366716	2.636427	1.171069	3.020812	-0.503279	-0.398811	0.240164
-1.778273	1.645637	9.591489	-0.64992	0.110835	0.801036	0.644569	-0.350516	-0.876298	1.896622	2.013988	9.606175	-0.494203	-0.005735	-0.082663	-0.522642	-0.001716	-1.084914	9.698813	1.740257	-1.486394	3.093231	1.090421	2.102638	-0.461485	-0.399025	0.255903
-2.127698	2.104212	9.302473	-1.511334	-0.040225	0.218371	0.685416	-0.331154	-0.856025	2.180176	2.35129	9.442585	-0.244982	0.179981	0.135181	-0.523904	-0.081534	-1.036846	9.822598	1.160216	-1.247038	3.123355	0.936638	2.194953	-0.475255	-0.38221	0.239468
-1.904704	2.734696	9.025316	-1.299722	-0.343761	-0.032514	0.656775	-0.299335	-0.876234	2.525568	2.350643	9.449839	-0.336418	0.271202	0.074359	-0.523678	-0.035573	-1.039857	9.991808	1.216156	-1.662837	3.181058	0.8823	1.553173	-0.489651	-0.413973	0.225544
-1.78413	2.046521	9.308912	-2.095203	-0.132358	-0.026789	0.615571	-0.339524	-0.864939	2.243678	2.407749	9.72704	-0.428788	0.300289	0.13623	-0.53673	-0.050968	-1.038578	10.168991	1.157675	-1.659783	3.394194	0.732965	1.278045	-0.489372	-0.398607	0.240234
-1.780914	2.21957	9.480196	-2.920387	0.170054	0.072505	0.644941	-0.346988	-0.890374	1.909488	2.239831	10.2294	-0.395049	0.515939	0.045917	-0.549335	-0.034651	-1.053656	9.762886	0.985876	-1.308787	3.207626	0.704232	1.034353	-0.489438	-0.416451	0.272127
-1.670486	1.701548	9.252839	-3.197055	0.077266	0.010458	0.684259	-0.289841	-0.866273	2.466902	2.294373	9.391943	-0.39349	0.638598	0.047138	-0.523678	-0.035573	-1.039857	9.819566	1.043322	-1.427253	3.482594	0.554804	0.789565	-0.503835	-0.448214	0.258203
-1.665333	2.27717	9.539517	-3.320653	0.110902	-0.295319	0.671653	-0.309952	-0.887244	1.845317	1.901672	9.888069	-0.518315	0.515981	-0.200807	-0.523163	-0.048749	-1.067553	9.525566	0.579389	-1.434733	3.387305	0.435581	0.454286	-0.516908	-0.383649	0.254785
-1.720153	1.990486	9.650903	-3.504425	0.109696	-0.264142	0.656775	-0.299335	-0.876234	2.129409	1.957321	9.724243	-0.548819	0.546254	-0.20053	-0.53673	-0.050968	-1.038578	9.404948	1.218248	-1.494121	3.509915	0.344256	0.454278	-0.503071	-0.382618	0.239327
-1.661786	1.990686	9.70887	-3.165913	0.326393	-0.261595	0.659047	-0.330063	-0.908215	2.073053	1.957476	9.779673	-0.423606	0.670883	-0.260846	-0.510627	-0.020177	-1.041137	9.819992	1.33395	-1.36611	3.509025	0.252802	0.424154	-0.489789	-0.430991	0.241909
-1.947975	1.87601	9.70282	-3.073837	0.232541	-0.079377	0.686531	-0.320569	-0.898253	1.830271	2.182755	9.208631	-0.425944	0.486895	-0.262678	-0.536064	-0.033504	-1.068281	9.766343	1.393397	-1.067429	3.231463	0.158775	0.54786	-0.503559	-0.414177	0.225473
-1.895382	2.162211	9.477727	-2.552538	0.296785	-0.110502	0.629706	-0.357198	-0.847797	2.189392	1.957308	9.838731	-0.394348	0.548214	-0.200386	-0.522938	-0.002788	-1.070564	9.759855	0.868982	-1.489002	2.985897	0.40418	0.394763	-0.489372	-0.398607	0.240234
-1.666032	1.702513	9.480251	-2.493371	0.021527	-0.207149	0.645327	-0.360759	-0.886958	2.355398	2.294731	9.559444	-0.425204	0.548023	-0.231241	-0.549625	0.024487	-1.028971	10.059182	0.462516	-1.30551	2.489288	-0.119191	0.551875	-0.503417	-0.415829	0.256529
-1.832394	1.93361	9.762141	-2.094394	0.14701	-0.267594	0.658304	-0.33712	-0.880063	2.303746	1.731723	9.784319	-0.579324	0.576527	-0.200254	-0.549405	0.010239	-1.042317	9.934567	0.926158	-1.605267	1.780619	-0.122687	0.646147	-0.474834	-0.368496	0.285214
-1.890762	1.93341	9.704175	-1.817882	0.177639	-0.14522	0.728907	-0.338992	-0.881809	1.78501	2.070676	9.773724	-0.548742	0.546656	-0.262182	-0.523013	-0.018108	-1.06956	9.639757	0.810682	-1.611264	1.348032	-0.432971	0.924262	-0.461347	-0.382006	0.239538
-1.722339	1.932562	9.536956	-1.5409	0.300811	-0.052012	0.702152	-0.32413	-0.937414	2.065153	2.295175	9.44012	-0.581624	0.392739	-0.232911	-0.524564	-0.038788	-0.996808	9.990552	0.80913	-1.784382	1.006604	-0.678275	0.865543	-0.488954	-0.366222	0.23856
-1.608203	2.449453	9.541354	-0.929494	0.308193	-0.452336	0.644541	-0.315917	-0.911281	2.371975	1.844703	10.295379	-0.364662	0.45641	-0.170447	-0.53695	-0.03672	-1.025232	9.524506	1.508853	-1.37087	0.606451	-0.743102	1.081244	-0.461623	-0.416043	0.272268
-2.186025	2.04657	9.244265	-0.9587	0.648186	-0.630734	0.673182	-0.347737	-0.891072	2.126106	1.788187	9.554181	-0.367079	0.272018	-0.110627	-0.54985	-0.021474	-1.02596	9.413616	1.278302	-1.014619	0.113467	-0.807631	1.236153	-0.48958	-0.414799	0.241071
-1.898805	2.27637	9.307651	-0.959007	0.523868	-0.510082	0.657547	-0.326877	-0.869403	2.183779	1.731749	9.555343	-0.429959	0.179642	-0.173252	-0.536209	-0.003935	-1.055939	9.994954	0.810119	-1.544754	-0.039343	-0.934956	1.665199	-0.489442	-0.39778	0.224707
-1.724856	2.33417	9.424939	-0.838117	0.372867	-0.696892	0.65869	-0.350891	-0.876647	2.010198	1.563033	9.494934	-0.120354	0.244288	-0.079876	-0.550221	-0.037866	-1.010606	9.525431	0.637465	-1.434486	-0.039448	-0.841612	1.511938	-0.517258	-0.398189	0.224566
-1.211544	1.988665	9.319806	-0.500234	0.434862	-0.604853	0.672796	-0.333966	-0.894488	2.302668	2.295028	9.784793	-0.118678	0.367551	-0.171133	-0.54904	-0.033579	-1.068005	9.642383	1.101803	-1.430307	-0.161122	-0.845207	1.818028	-0.48923	-0.400259	0.27129
-1.896454	2.104528	9.420633	-0.22308	0.432325	-0.268344	0.686545	-0.337869	-0.880761	2.300142	2.351264	9.671562	0.124617	0.092891	0.103785	-0.550076	-0.067435	-1.022949	10.235846	1.101195	-1.239582	-0.375476	-0.786696	2.001906	-0.516628	-0.368282	0.269475
-1.840105	1.817038	9.363687	-0.375261	0.616348	-0.295583	0.7144	-0.324847	-0.884875	2.077218	1.675966	9.949355	0.527876	0.192397	-0.264839	-0.484751	-0.035348	-1.040685	9.757944	1.217191	-1.547425	-0.377678	-0.937752	1.819254	-0.489789	-0.430991	0.241909
-1.948058	1.990893	9.703302	-0.527422	0.612504	-0.019196	0.68806	-0.358354	-0.902081	2.305709	1.337457	9.840627	0.465699	0.1896	0.043364	-0.510702	-0.035498	-1.040133	9.76001	1.275761	-1.427364	-0.439751	-0.968247	1.789061	-0.475464	-0.398402	0.240305
-2.005022	1.588844	9.7005	-0.68123	0.676033	-0.263064	0.644927	-0.329688	-0.907866	2.417213	1.337099	9.673126	0.219247	0.218739	-0.203169	-0.535913	-0.002863	-1.070288	9.761111	1.276009	-1.367458	-0.223271	-0.906608	1.818547	-0.503071	-0.382618	0.239327
-1.549379	1.817796	9.596667	-0.772944	0.768842	-0.353296	0.68806	-0.358354	-0.902081	1.896514	2.070318	9.606223	0.526941	0.130262	-0.142145	-0.509886	0.012607	-1.071843	9.345371	0.985832	-1.556117	-0.251813	-0.786883	2.062585	-0.531513	-0.431604	0.241698
-1.954863	2.16177	9.362908	-0.956801	0.83049	-0.443769	0.686917	-0.33434	-0.894837	1.784902	2.127007	9.773771	0.373405	0.190437	-0.264982	-0.549335	-0.034651	-1.053656	9.525991	0.870017	-1.37359	-0.160669	-0.65978	1.633762	-0.516979	-0.382822	0.239257
-1.66294	2.047886	9.652258	-0.895374	0.736495	-0.261465	0.644569	-0.350516	-0.876298	2.361765	2.125976	9.8425	0.465114	0.129277	-0.111376	-0.523308	-0.01918	-1.055211	9.817906	0.810524	-1.548056	0.119242	-0.352889	1.631284	-0.475046	-0.366017	0.23863
-1.546205	2.048286	9.768191	-0.9588	0.460666	-0.357769	0.672053	-0.341022	-0.866336	1.89606	1.675957	9.549251	0.650595	0.132232	-0.203682	-0.524269	-0.037716	-1.011158	9.588754	1.626106	-1.069741	0.334652	-0.320262	1.508095	-0.503	-0.383444	0.254855
-1.659849	2.393259	9.824265	-0.622739	0.371435	-0.482859	0.67281	-0.351265	-0.876996	2.072622	2.182798	9.779863	0.683438	0.285949	-0.202127	-0.53695	-0.03672	-1.025232	9.646089	0.928317	-1.251328	0.521808	0.017833	1.414114	-0.475601	-0.415421	0.25667
-1.491177	2.047762	9.655598	-0.49886	0.305677	-0.054932	0.686159	-0.324098	-0.884177	2.361095	1.844276	9.785623	0.527487	0.190384	0.043422	-0.523163	-0.048749	-1.067553	9.171219	1.161207	-1.378956	0.76772	0.051201	1.229685	-0.475881	-0.430787	0.241979
-1.433016	2.335169	9.714772	0.604983	0.371944	-0.026365	0.714415	-0.342146	-0.867384	1.901026	2.239499	9.832923	0.250882	0.28026	-0.171704	-0.510477	0.010464	-1.043144	10.004608	1.393351	-0.943213	0.553638	0.35758	1.106745	-0.48923	-0.400259	0.27129
-1.720444	2.392577	9.652592	0.45194	0.40196	-0.025437	0.674682	-0.350923	-0.929884	2.192911	2.013781	10.008697	0.280684	0.18906	-0.234243	-0.510778	-0.050818	-1.039129	9.93982	1.508402	-1.243353	0.246092	0.541269	0.98473	-0.503276	-0.417482	0.287585
-1.722546	2.21977	9.538162	0.051146	0.125252	-0.18212	0.643812	-0.340273	-0.865638	2.187645	2.238913	9.782328	0.126877	0.247826	-0.141298	-0.510622	0.040033	-1.030801	9.940495	1.218022	-1.24459	-0.032476	0.511258	0.833066	-0.475464	-0.398402	0.240305
-1.439242	1.701865	9.370999	-0.254078	0.339291	-0.208431	0.686931	-0.35164	-0.877345	2.183672	1.788079	9.55539	0.037001	0.461707	-0.200899	-0.524194	-0.022396	-1.012161	9.286105	1.566974	-1.494839	-0.249724	0.544224	0.528065	-0.461556	-0.398198	0.240375
-1.845057	2.505371	9.13917	-0.531877	0.030685	-0.212646	0.658304	-0.33712	-0.880063	2.069988	2.295364	9.666679	0.00521	0.399381	-0.109061	-0.510187	-0.048674	-1.067829	9.645279	1.276773	-1.249845	-0.526951	0.449566	0.712899	-0.461556	-0.398198	0.240375
-1.608203	2.449453	9.541354	-0.6565	-0.057911	-0.581744	0.672425	-0.337494	-0.880412	2.068325	1.900956	9.553067	0.15894	0.340212	-0.140353	-0.523383	-0.034501	-1.054207	9.291182	1.277583	-1.256447	-0.77467	0.35754	0.65311	-0.517116	-0.399841	0.255622
-1.954904	2.219212	9.363149	-0.228539	-0.115285	-0.767916	0.630449	-0.350141	-0.875949	1.895198	2.126601	9.54963	-0.120199	0.245093	-0.20318	-0.524639	-0.054109	-0.995804	9.878312	1.159339	-1.425658	-0.866928	0.387797	0.653299	-0.489092	-0.38324	0.254925
-1.667602	2.334129	9.426052	-0.692379	-0.856736	-0.625291	0.700637	-0.303645	-0.916094	2.24916	2.069956	9.953314	0.004704	0.368112	-0.016888	-0.549706	-0.051043	-1.038302	9.585027	1.334737	-1.310605	-0.991359	0.48259	0.317105	-0.475393	-0.399229	0.255832
-1.898805	2.27637	9.307651	0.466286	-1.553963	-1.007975	0.700666	-0.338243	-0.88111	2.295415	2.294744	9.444956	-0.2689	0.702703	-0.137093	-0.536799	-0.006079	-1.027239	9.410855	1.045256	-1.195328	-1.022931	0.452835	0.225672	-0.475601	-0.415421	0.25667
-1.375472	1.933037	9.714196	-0.515895	-1.898681	-0.826741	0.672425	-0.337494	-0.880412	2.009898	2.351708	9.552238	-0.177424	0.640335	0.201469	-0.510847	-0.005929	-1.027791	9.645954	0.986393	-1.251081	-0.806949	0.515421	0.163465	-0.475393	-0.399229	0.255832
-1.27144	2.56264	9.207399	-0.577801	-1.803294	-1.131694	0.686545	-0.337869	-0.880761	1.897723	2.070366	9.662862	0.16206	0.614183	0.170654	-0.549926	-0.036795	-1.024956	9.583097	1.21809	-1.430913	-0.806254	0.731439	-0.020945	-0.517676	-0.430573	0.22624
-2.002381	1.014911	9.811793	-0.48852	-1.951658	-1.563717	0.687331	-0.38271	-0.856438	2.653435	2.012918	10.018368	0.133348	0.768323	-0.012805	-0.549335	-0.034651	-1.053656	9.585568	1.102433	-1.311594	-0.621678	0.763955	-0.144021	-0.48923	-0.400259	0.27129
-1.551979	2.334287	9.485132	-1.037805	-1.429007	-1.798987	0.685802	-0.344925	-0.852609	2.068756	1.675634	9.552878	0.164048	0.767709	0.141355	-0.549185	-0.00401	-1.055663	10.115748	1.042894	-1.361844	-0.65334	0.76542	-0.296727	-0.502653	-0.350233	0.237653
-1.838127	2.16217	9.478841	-1.31495	-1.520405	-1.983684	0.671639	-0.292653	-0.904735	2.302991	2.126037	9.784651	-0.147349	0.579196	0.231714	-0.498537	-0.023318	-0.998363	9.75999	0.810906	-1.489249	-0.835744	1.008211	-0.174974	-0.475464	-0.398402	0.240305
-1.834538	1.818244	9.647952	-1.253293	-1.521162	-1.891869	0.658318	-0.354419	-0.862571	2.127877	2.126265	9.667745	0.131478	0.644054	0.232583	-0.535769	-0.032432	-1.082631	9.57937	0.926721	-1.671777	-0.990211	0.884037	-0.05157	-0.489021	-0.384067	0.270453
-1.959234	2.045922	9.135013	-1.987314	-1.341247	-1.794828	0.672024	-0.306424	-0.90132	2.18227	2.520376	9.556007	0.162138	0.614586	0.109002	-0.497431	-0.034351	-1.054759	10.176134	0.926854	-1.301331	-1.145627	0.916909	-0.32623	-0.474904	-0.36767	0.269686
-1.888659	2.106217	9.818605	-2.231005	-1.127615	-1.759986	0.644184	-0.336745	-0.879714	2.527208	2.125368	9.506289	0.257978	0.861281	0.080704	-0.523898	-0.021324	-1.026511	9.941015	0.520862	-1.307463	-1.420544	1.221493	-0.296125	-0.475046	-0.366017	0.23863
-1.676427	2.217316	8.970745	-2.658785	-0.945574	-1.725128	0.658676	-0.333591	-0.894139	2.648037	1.674698	9.734886	0.351713	0.953848	0.174185	-0.523383	-0.034501	-1.054207	9.760125	0.75283	-1.489496	-1.670539	0.947505	-0.507851	-0.461623	-0.416043	0.272268
-1.670735	2.046197	9.254286	-2.933802	-0.761427	-1.813348	0.729278	-0.335464	-0.895885	2.579831	2.181401	9.280987	0.348555	0.708328	0.202569	-0.535994	-0.078393	-1.07962	9.701264	1.159744	-1.428959	-1.640867	0.949823	-0.721909	-0.475255	-0.38221	0.239468
-1.777657	2.335177	9.651238	-2.99331	-0.672994	-1.505057	0.673153	-0.313138	-0.926056	1.787882	2.465132	9.943974	0.568906	1.018726	0.051692	-0.575437	-0.065442	-1.051097	9.763446	1.218427	-1.247891	-1.522813	0.494575	-1.025791	-0.475464	-0.398402	0.240305
-1.889483	1.703885	9.760062	-2.685754	-0.580758	-1.381771	0.631206	-0.360384	-0.886609	2.185874	1.900835	9.668764	0.663148	1.142561	0.052999	-0.536434	-0.049896	-1.052928	9.99677	1.449697	-1.362314	-1.677082	0.587365	-1.178488	-0.503071	-0.382618	0.239327
-1.663888	1.817879	9.59444	-2.44003	-0.362056	-1.593601	0.643426	-0.326502	-0.869053	2.010868	1.844733	9.551811	0.754154	1.020474	0.144343	-0.498242	-0.022246	-1.012713	9.641417	1.04348	-1.490461	-1.618764	0.376612	-1.483319	-0.475255	-0.38221	0.239468
-1.720236	2.105369	9.651386	-2.347364	-0.363713	-1.409886	0.659047	-0.330063	-0.908215	2.476465	2.351083	9.845107	1.002086	1.084939	0.145183	-0.498317	-0.037566	-1.011709	9.999511	1.217887	-1.243489	-1.6521	0.101826	-1.543012	-0.489722	-0.413146	0.210016
-2.126253	1.644921	9.357395	-2.040366	-0.301166	-1.379085	0.644169	-0.319446	-0.897205	2.1282	1.957273	9.667603	1.005439	1.360116	0.271235	-0.510182	0.011536	-1.057494	9.881053	0.92753	-1.306833	-1.839494	0.074669	-1.939515	-0.489092	-0.38324	0.254925
-1.673992	1.93059	9.083244	-2.469488	-0.271742	-1.438707	0.615957	-0.353295	-0.861523	2.0124	1.675789	9.608308	1.378351	1.548003	0.396715	-0.484531	-0.049596	-1.054031	9.651186	1.103781	-0.951052	-1.998136	-0.258901	-2.273535	-0.47609	-0.44698	0.242816
-1.833756	2.278018	9.706736	-2.598634	-1.067173	-1.819282	0.70178	-0.327658	-0.923338	2.354728	2.013031	9.502567	0.91689	1.695447	0.39781	-0.523458	-0.049821	-1.053203	9.757944	1.217191	-1.547425	-2.063134	-0.532221	-2.485931	-0.489301	-0.399433	0.255762
-1.66958	1.988997	9.310898	-2.937624	-1.28248	-1.944479	0.656789	-0.316634	-0.858743	2.015918	1.732262	9.778275	1.598077	1.797875	0.121924	-0.523158	0.011461	-1.057218	9.878177	1.217415	-1.425411	-2.036282	-0.866071	-2.728933	-0.475605	-0.39675	0.209249
-1.835817	2.047769	9.592064	-3.03159	-1.464868	-2.16185	0.687288	-0.330812	-0.908913	2.185658	2.013496	9.668859	1.318044	1.669475	0.459531	-0.497211	-0.048599	-1.068105	9.525026	0.811693	-1.433744	-2.00827	-1.202127	-2.757993	-0.517116	-0.399841	0.255622
-2.006177	1.646044	9.643888	-3.185499	-1.58886	-2.132754	0.673182	-0.347737	-0.891072	2.073268	1.844815	9.779578	1.382404	1.855454	0.276463	-0.53673	-0.050968	-1.038578	9.639487	0.926834	-1.610769	-1.889765	-1.813467	-2.755504	-0.489301	-0.399433	0.255762
-1.897526	2.046846	9.363539	-3.061255	-1.311351	-2.15927	0.699894	-0.310701	-0.887942	2.070635	1.957381	9.666394	1.659554	1.797049	0.36859	-0.523678	-0.035573	-1.039857	9.527922	0.986663	-1.253282	-2.048317	-2.178253	-3.028249	-0.474975	-0.366844	0.254158
-1.484455	1.991768	9.996476	-3.581583	-1.128001	-2.277466	0.673539	-0.326909	-0.92264	2.247066	1.90087	9.839892	2.024707	1.371843	0.45714	-0.548889	-0.002938	-1.070013	9.822733	1.10214	-1.247285	-1.682742	-2.758429	-2.996242	-0.516699	-0.367456	0.253948
-1.657373	2.049092	9.936523	-3.180781	-0.851291	-2.120781	0.700666	-0.338243	-0.88111	1.900572	1.845138	9.775952	2.854826	1.075176	0.547342	-0.522868	-0.047677	-1.081903	9.761921	0.927552	-1.368941	-1.593654	-3.403615	-2.687864	-0.475322	-0.400055	0.27136
-1.724607	1.989521	9.423491	-3.518516	-0.851127	-2.273148	0.657918	-0.323349	-0.883479	2.300897	1.95695	9.67123	2.978677	1.164108	1.257374	-0.549185	-0.00401	-1.055663	9.764797	0.637667	-1.250363	-1.444767	-3.85874	-2.991853	-0.474904	-0.36767	0.269686
-1.780748	1.989804	9.47923	-4.07228	-1.160675	-2.307253	0.67241	-0.320195	-0.897904	2.299688	1.956903	9.61459	2.976104	0.95026	1.131933	-0.523163	-0.048749	-1.067553	9.698077	0.636071	-1.670812	-1.017828	-4.562304	-2.83723	-0.503417	-0.415829	0.256529
-1.835527	1.645678	9.590375	-4.072106	-1.286384	-2.06395	0.684602	-0.251714	-0.915332	2.350323	1.787519	9.275819	2.453678	1.187103	1.411321	-0.497356	-0.01903	-1.055762	9.938834	0.985223	-1.365392	-0.744297	-4.957381	-2.989146	-0.503488	-0.415003	0.241001
-1.895382	2.162211	9.477727	-4.621843	-1.138081	-1.814611	0.658661	-0.316292	-0.911631	2.125136	2.295162	9.554608	2.424109	1.279511	1.288903	-0.549926	-0.036795	-1.024956	9.585142	0.811805	-1.372737	-0.283523	-5.387109	-2.683142	-0.504256	-0.461928	0.212457
-1.553958	1.989155	9.369978	-4.529023	-1.077578	-1.691222	0.70178	-0.327658	-0.923338	2.305409	2.126131	9.89793	2.735621	1.497278	1.414632	-0.549185	-0.00401	-1.055663	9.413576	0.348591	-1.138388	0.146602	-5.537869	-2.745105	-0.475113	-0.383862	0.270523
-1.607996	2.162245	9.540148	-4.436223	-0.829207	-1.871462	0.672796	-0.333966	-0.894488	1.958807	2.126731	9.834037	2.271396	1.45852	1.752983	-0.523383	-0.034501	-1.054207	9.410835	0.580401	-1.257213	0.854436	-5.874312	-2.501565	-0.516766	-0.385301	0.28584
-1.888618	2.048776	9.818363	-4.373309	-0.614493	-1.806817	0.672768	-0.299367	-0.929472	2.063082	2.745771	9.38386	2.178362	1.398229	1.413199	-0.536064	-0.033504	-1.068281	9.646359	0.812165	-1.251822	1.471144	-6.058462	-2.227859	-0.474834	-0.368496	0.285214
-1.667643	2.39157	9.426294	-3.759177	-0.58368	-1.562738	0.685416	-0.331154	-0.856025	2.126237	2.35154	9.611295	2.212064	1.642328	1.662279	-0.497211	-0.048599	-1.068105	9.410004	0.464002	-1.317615	2.307532	-6.031814	-1.558642	-0.502858	-0.385097	0.285911
-1.601274	2.106251	9.881025	-3.142141	-0.060462	-1.372001	0.657918	-0.323349	-0.883479	2.588077	2.294394	9.677559	2.36735	1.677166	1.32364	-0.523603	-0.020252	-1.040861	9.648115	0.057177	-1.255036	2.710506	-5.972348	-1.25476	-0.503626	-0.432022	0.257366
-1.772539	1.417077	9.874789	-2.403256	0.308973	-1.122779	0.657147	-0.295806	-0.89031	2.010329	2.126386	9.552048	2.368558	1.769361	1.293729	-0.510477	0.010464	-1.043144	9.657364	0.814637	-0.652754	3.178705	-5.888376	-0.339975	-0.503622	-0.450693	0.304787
-1.549462	1.932679	9.597149	-1.662038	0.890749	-0.624767	0.657875	-0.27145	-0.935954	1.838495	1.676065	9.548042	2.340316	1.983219	1.35749	-0.523898	-0.021324	-1.026511	9.532574	0.406644	-1.076033	3.521218	-6.017706	0.454036	-0.461067	-0.36664	0.254228
-1.555237	2.21868	9.31409	-0.800861	1.386811	-0.649852	0.67241	-0.320195	-0.897904	2.529064	1.787433	9.562644	2.158031	2.19733	1.082019	-0.522793	-0.032357	-1.082907	9.351798	0.11568	-1.320198	3.552503	-6.173689	0.760298	-0.531024	-0.400045	0.255552
-1.786606	2.390688	9.196654	-0.553109	1.693534	-0.49224	0.685016	-0.300084	-0.876933	2.30189	2.069659	9.727964	2.035702	2.288158	1.021167	-0.523528	-0.004932	-1.041865	10.053005	0.75166	-1.603808	3.615435	-6.269014	1.127282	-0.503138	-0.400463	0.27122
-2.064835	2.047935	9.58761	0.156252	2.27864	-0.300765	0.657918	-0.323349	-0.883479	2.358354	2.013173	9.672486	2.16185	2.474921	0.838157	-0.522573	-0.046606	-1.096253	9.586783	0.579749	-1.313819	3.403233	-6.214603	1.708492	-0.474834	-0.368496	0.285214
-1.890845	2.048293	9.704657	1.140152	2.587058	0.008095	0.672039	-0.323723	-0.883828	1.898932	2.070413	9.719502	2.929519	2.145397	1.143779	-0.536579	-0.020327	-1.040585	9.712944	0.871837	-0.831127	3.189795	-6.188889	2.106466	-0.461485	-0.399025	0.255903
-1.718791	1.646078	9.706308	0.595401	3.378287	0.482541	0.643783	-0.305675	-0.900621	2.197077	1.73227	10.178379	4.313852	1.760169	1.788454	-0.536799	-0.006079	-1.027239	9.470121	0.464114	-1.256607	2.822778	-6.195893	2.657971	-0.502858	-0.385097	0.285911
-1.720195	2.047927	9.651145	0.659633	3.589173	0.884465	0.686931	-0.35164	-0.877345	1.899148	1.957752	9.719407	4.775268	1.612525	1.818186	-0.523974	-0.036645	-1.025508	9.707131	0.057042	-1.253936	2.364287	-5.987851	3.086529	-0.489301	-0.399433	0.255762
-1.830125	1.876651	9.875606	2.38293	4.484572	1.231402	0.685788	-0.327626	-0.870101	1.890709	2.577103	9.380091	5.051129	1.490173	2.310442	-0.523163	-0.048749	-1.067553	9.645954	0.986393	-1.251081	1.840603	-5.928559	3.088142	-0.475042	-0.384689	0.286051
-1.951564	2.219935	9.533708	4.072526	4.981709	1.449291	0.687288	-0.330812	-0.908913	1.896407	2.126649	9.60627	5.974818	1.313919	2.925998	-0.510037	-0.018033	-1.069836	9.594776	0.930183	-0.83308	1.290324	-5.566962	3.42461	-0.461556	-0.398198	0.240375
-1.48532	1.646877	9.938175	6.098774	5.544315	1.452602	0.686159	-0.324098	-0.884177	2.126322	1.675526	9.554087	6.526224	1.010301	3.539989	-0.54963	-0.035723	-1.039306	9.759159	0.694507	-1.549651	0.922844	-5.355749	3.577751	-0.503764	-0.449041	0.273731
-1.951232	1.760403	9.531778	6.744107	6.011764	1.151665	0.657561	-0.344176	-0.851911	2.301136	2.463972	9.728296	7.976453	0.905058	3.694251	-0.523823	-0.006004	-1.027515	9.711013	0.75519	-0.951435	0.403655	-5.025574	4.005949	-0.503484	-0.433674	0.288422
-2.00857	1.875328	9.531147	3.79951	5.973901	0.576838	0.714015	-0.311076	-0.888291	1.723279	2.352294	9.602833	7.760083	0.873059	3.47796	-0.510633	-0.080387	-1.051472	9.289947	1.335412	-1.316107	-0.206356	-4.419487	4.341469	-0.502996	-0.402116	0.302275
-1.8359	2.162652	9.592547	4.196376	5.886349	0.32893	0.685373	-0.279256	-0.9085	2.309143	2.069943	10.067802	7.975204	0.784009	3.446419	-0.53673	-0.050968	-1.038578	9.473017	0.639084	-1.076145	-0.752484	-3.724247	4.951409	-0.503209	-0.399637	0.255692
-1.841053	1.587031	9.305869	3.643238	5.575071	0.448135	0.673153	-0.313138	-0.926056	2.360772	2.013268	9.785765	7.78844	0.631151	3.013153	-0.510262	-0.063995	-1.066825	9.411375	0.348097	-1.258202	-1.517321	-3.117449	5.165231	-0.475531	-0.416247	0.272197
-1.547069	1.703395	9.70989	3.918954	5.482775	0.568512	0.699894	-0.310701	-0.887942	2.359671	1.95689	9.729078	7.357533	0.748524	2.983145	-0.5371	-0.06736	-1.023225	9.295854	1.16242	-1.017314	-2.342192	-2.389776	5.500952	-0.502716	-0.386749	0.316966
-1.83256	2.163376	9.763106	5.115986	5.577073	0.873277	0.670538	-0.320537	-0.845016	2.063944	2.295127	9.383481	7.354101	0.444291	2.610178	-0.563272	-0.053262	-1.009327	8.993205	1.103289	-1.442412	-3.074353	-1.848454	6.14287	-0.489368	-0.417278	0.287655
-2.069455	2.276736	9.361163	5.881069	5.33341	0.989786	0.699923	-0.3453	-0.852959	2.186651	2.126205	9.725594	6.612386	0.347519	1.89957	-0.523458	-0.049821	-1.053203	9.999356	0.811108	-1.305127	-3.994764	-1.549987	6.542117	-0.503209	-0.399637	0.255692
-1.271192	2.21799	9.205952	6.000984	5.279125	0.40587	0.673182	-0.347737	-0.891072	2.184257	2.745793	9.669476	4.69664	0.264102	1.558088	-0.523088	-0.033429	-1.068557	9.706321	0.405498	-1.252453	-4.950528	-1.739796	6.821565	-0.489092	-0.38324	0.254925
-1.894061	1.875245	9.533374	6.152306	4.847169	0.613089	0.671653	-0.309952	-0.887244	2.113802	1.900374	8.98788	4.601501	0.021028	1.031516	-0.54904	-0.033579	-1.068005	9.763291	0.811648	-1.309528	-6.032828	-2.017088	6.643422	-0.434019	-0.413156	0.225825
-1.659559	1.991168	9.822576	5.814427	4.879108	0.369238	0.713672	-0.349203	-0.839232	2.021986	2.352182	10.118634	3.884866	-0.477822	0.902666	-0.497727	-0.035423	-1.040409	10.057427	1.217505	-1.302296	-7.239282	-2.293247	6.3129	-0.447715	-0.415839	0.272338
-1.843239	1.529106	9.191921	5.568091	4.505711	0.670557	0.70028	-0.324472	-0.884526	2.182509	3.027398	9.613073	3.018086	-0.669768	0.437638	-0.510187	-0.048674	-1.067829	9.937194	1.21728	-1.42431	-8.20037	-2.690243	5.920939	-0.488742	-0.3687	0.285144
-1.552062	2.44917	9.485615	4.494554	3.845958	1.490953	0.672053	-0.341022	-0.866336	2.136124	2.239258	10.064317	3.100984	-1.406769	0.769486	-0.510702	-0.035498	-1.040133	9.822442	0.753437	-1.308675	-9.008772	-3.145971	5.345321	-0.447156	-0.385107	0.301719
-1.658445	1.991409	9.879429	5.87915	3.867831	2.836695	0.67241	-0.320195	-0.897904	2.182378	2.464045	9.555959	3.438202	-1.645162	0.366621	-0.498097	-0.051815	-1.025055	9.639082	1.101062	-1.610028	-9.353425	-3.354063	4.644589	-0.447297	-0.383454	0.270664
-2.291336	1.646492	9.695174	7.173717	4.228015	4.126848	0.657147	-0.295806	-0.89031	2.473616	2.57631	9.732018	2.512246	-1.595188	0.304717	-0.524049	-0.051965	-1.024504	10.167621	1.27358	-1.719196	-9.690329	-3.049079	4.613789	-0.489643	-0.451315	0.320385
-1.884081	1.934857	10.045293	8.254151	4.554728	5.570399	0.643798	-0.322974	-0.883129	1.840828	2.352173	9.71853	1.462903	-1.574428	-0.219999	-0.523678	-0.035573	-1.039857	9.99731	1.217392	-1.363303	-9.937447	-2.490223	3.725664	-0.489088	-0.401912	0.302346
-2.114005	1.647574	9.982779	7.401237	4.253975	7.346637	0.686174	-0.341397	-0.866685	2.068672	2.351647	9.610086	1.185518	-1.574534	-0.7443	-0.523458	-0.049821	-1.053203	9.881074	1.392385	-1.244948	-10.088224	-1.379483	2.742872	-0.475042	-0.384689	0.286051
-1.999579	1.762375	9.985489	9.533237	6.122809	8.750862	0.686545	-0.337869	-0.880761	2.190732	2.520708	9.952484	-0.170978	-1.405173	-1.144472	-0.562016	-0.033654	-1.06773	10.003913	1.218876	-1.003862	-9.809029	-0.543433	1.851531	-0.488671	-0.369527	0.300672
-2.120608	3.082406	9.704547	7.217162	9.548444	6.574546	0.670924	-0.334308	-0.8416	2.019892	2.183096	10.005212	-0.417431	-1.376033	-1.391004	-0.523163	-0.048749	-1.067553	10.000922	2.031693	-1.060307	-9.624425	0.047888	0.931143	-0.474904	-0.36767	0.269686
-1.301722	2.223822	10.569312	3.939551	15.417782	5.33003	0.65829	-0.31982	-0.897555	2.410869	2.125536	9.447231	-1.004149	-1.382072	-1.607333	-0.510037	-0.018033	-1.069836	9.943256	1.451068	-1.06388	-9.162215	0.484739	0.254998	-0.475739	-0.43244	0.273034
-1.26868	3.367545	9.381337	6.102381	21.511637	0.056047	0.673196	-0.365036	-0.87358	2.072406	2.295459	9.779958	-1.774442	-1.237941	-1.699003	-0.523383	-0.034501	-1.054207	9.711168	1.161969	-0.889797	-8.854495	0.921668	-0.48171	-0.474692	-0.370149	0.31627
-2.384605	1.536276	10.772673	-1.193085	25.299872	-6.332434	0.687302	-0.348111	-0.891421	2.648299	2.801403	9.849113	-2.085182	-1.451686	-2.44125	-0.54941	-0.049971	-1.052652	10.229533	1.448415	-1.537633	-8.427323	0.931732	-1.308497	-0.545417	-0.450479	0.289048
-1.84219	5.255953	21.085207	-15.342793	39.155846	12.64059	0.670881	-0.28241	-0.894075	2.240267	2.294946	9.557026	-3.320572	-1.4367	-2.442095	-0.536579	-0.020327	-1.040585	10.461912	2.086216	-1.650325	-7.574848	0.458643	-2.592947	-0.447506	-0.399647	0.271501
-1.960745	-2.033392	8.890467	3.497393	70.897364	-9.223688	0.686159	-0.324098	-0.884177	1.903768	2.070603	9.94606	-3.661269	-1.502745	-2.38137	-0.521907	-0.029141	-1.125956	10.462587	1.795836	-1.651562	-6.174658	-0.805881	-4.058963	-0.489438	-0.416451	0.272127
-2.016277	5.115779	15.114036	6.278949	82.336758	-6.162797	0.701437	-0.365785	-0.874279	2.125028	2.351492	9.554656	-3.195588	-1.284624	-2.008891	-0.523238	-0.06407	-1.06655	10.636915	2.492096	-1.7052	-4.588181	-1.544357	-6.047691	-0.489576	-0.43347	0.288492
-1.993862	2.465466	13.227897	4.782876	99.162399	-8.430476	0.698808	-0.355885	-0.810731	2.419223	2.182199	9.843756	-2.574073	-1.000195	-2.098046	-0.498022	-0.036494	-1.026059	9.880128	1.798917	-1.243218	-3.02259	-1.556682	-7.275752	-0.502858	-0.385097	0.285911
-1.388161	2.816938	14.946073	2.968123	115.207321	-12.51948	0.684702	-0.37281	-0.79289	2.35924	2.182212	9.729268	-1.767777	-0.745085	-2.033205	-0.54963	-0.035723	-1.039306	10.105168	1.331049	-1.89977	-1.271058	-1.663261	-8.198416	-0.475113	-0.383862	0.270523
-1.44814	3.505796	14.834149	5.729446	133.903848	-18.388216	0.698808	-0.355885	-0.810731	1.956282	2.182966	9.720805	-2.073057	-0.472215	-2.154049	-0.536805	-0.066289	-1.037574	9.34238	1.798649	-1.612563	0.7607	-1.339333	-9.246385	-0.475531	-0.416247	0.272197
-1.339199	3.504506	14.552111	9.530081	152.42373	-24.631071	0.727049	-0.356634	-0.811429	2.066362	2.295222	9.49676	-2.035382	0.021635	-2.580699	-0.497431	-0.034351	-1.054759	8.995021	1.742867	-1.259972	2.763706	-0.988393	-9.958205	-0.475109	-0.402534	0.317944
-1.268624	3.564802	15.235702	13.780806	170.127349	-31.962291	0.754133	-0.31607	-0.822375	2.186675	2.745888	9.782755	-2.18502	0.417111	-2.39192	-0.510187	-0.048674	-1.067829	8.581348	1.51126	-1.328571	5.201522	-0.176114	-10.765478	-0.447849	-0.451529	0.336123
-1.116613	3.158244	14.213998	17.007116	185.923474	-39.53662	0.782788	-0.365189	-0.784674	2.124143	2.182453	9.497874	-1.62592	0.640229	-2.605047	-0.536654	-0.035648	-1.039582	8.818918	1.336739	-1.265004	7.523037	1.11917	-10.993988	-0.47546	-0.417074	0.287725
-1.52725	2.926597	13.693561	20.773539	198.65788	-45.107326	0.752289	-0.351011	-0.734503	2.530512	2.294502	9.67635	-3.569465	0.830591	-2.666374	-0.510998	-0.036569	-1.025783	8.582428	1.046652	-1.330548	9.146603	2.980513	-10.000259	-0.488812	-0.367874	0.269616
-2.01073	2.691613	12.376066	21.265568	206.541715	-49.520614	0.809515	-0.345453	-0.764052	2.351556	2.407249	9.38962	-2.33158	1.000399	-2.787001	-0.562016	-0.033654	-1.06773	8.40727	0.233993	-1.337311	9.79046	5.1045	-8.117965	-0.474834	-0.368496	0.285214
-3.401663	2.861314	11.49727	23.777523	203.829933	-53.099867	0.793136	-0.331649	-0.714231	2.525653	1.674629	9.39263	-2.759582	1.333431	-2.969001	-0.498317	-0.037566	-1.011709	8.583778	0.465892	-1.333021	9.478985	7.441419	-6.447129	-0.461552	-0.416869	0.287795
-3.708351	3.374152	10.470519	31.440615	192.334182	-57.266447	0.808414	-0.373337	-0.704333	2.479422	2.069525	9.958149	-1.802361	1.314313	-2.875937	-0.561796	-0.047903	-1.081076	8.997296	0.290719	-1.326059	9.529031	9.236941	-5.539036	-0.461694	-0.415217	0.25674
-5.942594	3.662735	10.371446	43.741541	175.097202	-57.091459	0.822535	-0.373711	-0.704682	2.300573	2.125942	9.671372	-2.793515	1.116776	-2.724559	-0.537615	-0.054184	-0.995529	9.582651	0.462608	-1.553941	9.66193	10.150708	-5.116016	-0.461481	-0.417696	0.303323
-4.706562	4.818174	12.162102	75.633227	149.767767	-47.809229	0.835155	-0.3709	-0.666219	1.906162	1.451014	10.002178	-2.233591	1.516031	-1.733644	-0.524344	-0.053037	-1.010154	10.281636	0.633238	-2.019249	9.200652	10.177744	-4.931104	-0.489017	-0.402738	0.317874
-2.781435	3.777992	11.058555	129.392398	132.934975	-50.32395	0.792422	-0.373304	-0.651095	1.903683	2.746616	10.003269	-3.131477	1.408645	-1.118874	-0.535769	-0.032432	-1.082631	10.161518	0.110082	-2.203396	8.879843	9.64144	-6.424896	-0.489438	-0.416451	0.272127
-1.826567	2.209678	7.149219	157.011282	115.560817	-53.815244	0.820663	-0.374054	-0.651794	1.837956	1.957717	9.548279	-2.296582	1.53766	-0.469531	-0.537175	-0.082681	-1.022221	10.454418	0.573767	-2.255822	8.46787	8.698608	-7.091252	-0.489226	-0.41893	0.318711
3.216624	0.815813	4.51358	152.490277	95.521928	-57.74816	0.819177	-0.388167	-0.59549	1.790839	2.183574	10.057016	-2.331685	1.229011	-0.226004	-0.510407	-0.034426	-1.054483	10.101131	0.226121	-2.263908	8.372216	8.36272	-7.180986	-0.516557	-0.369109	0.285003
6.695147	-2.304523	0.817281	118.647514	53.113328	-68.464568	0.834083	-0.433383	-0.571516	1.89673	1.957657	9.606128	-2.45503	1.228651	-0.411075	-0.523603	-0.020252	-1.040861	10.168546	0.402192	-1.782811	7.906026	8.150702	-7.545019	-0.516975	-0.401494	0.286677
10.003355	-2.527001	3.153909	80.806897	17.255732	-76.424853	0.847432	-0.406215	-0.578697	1.72371	2.126972	9.602643	-1.959746	1.297258	-0.564134	-0.510778	-0.050818	-1.039129	10.231559	0.577274	-1.541341	7.464973	7.856481	-8.825575	-0.503	-0.383444	0.254855
9.854933	-2.464369	4.344724	48.49106	-18.049295	-96.052504	0.87453	-0.382951	-0.572151	1.832905	2.070189	9.321816	-2.145388	1.207541	-1.274221	-0.5371	-0.06736	-1.023225	9.878677	0.0554	-1.550169	7.610067	7.346448	-9.740485	-0.475739	-0.43244	0.273034
11.949006	-3.320487	6.02993	40.47628	-54.645246	-111.630409	0.86081	-0.413647	-0.550894	2.13252	2.858799	9.95156	-2.050405	1.392504	-1.241477	-0.562461	-0.065367	-1.051373	10.103082	0.807623	-2.081715	7.511687	7.326243	-10.779084	-0.475948	-0.448632	0.273872
8.196213	-4.760828	4.302781	30.340199	-87.156723	-119.986241	0.861939	-0.420361	-0.57563	2.479314	2.125855	9.958197	-2.423323	1.175965	-1.675522	-0.523609	-0.080462	-1.051196	10.343569	1.272928	-1.775801	8.004008	7.454163	-11.1482	-0.489509	-0.415625	0.256599
6.216266	-4.00733	5.517714	4.548416	-121.937044	-100.499323	0.890508	-0.365684	-0.64288	2.068672	2.351647	9.610086	-2.79203	1.324988	-1.735993	-0.523458	-0.049821	-1.053203	9.929605	0.692618	-1.905791	8.187144	7.644678	-11.760974	-0.51753	-0.450897	0.304717
3.844404	-3.19417	7.179918	-16.286642	-128.525502	-73.145688	0.83364	-0.350414	-0.644899	2.473616	2.57631	9.732018	-2.266435	1.333664	-2.043764	-0.497136	-0.033279	-1.069108	9.516918	0.984191	-1.852351	8.582381	7.532583	-12.617547	-0.489226	-0.41893	0.318711
3.343004	-0.835317	7.975734	-20.352912	-134.604029	-37.83019	0.82142	-0.384296	-0.662454	2.011776	2.633455	9.665754	-1.929523	1.065012	-2.508583	-0.497356	-0.01903	-1.055762	9.809527	1.099173	-1.966168	9.443283	7.757705	-13.385731	-0.489159	-0.401085	0.286818
2.489915	0.487908	8.3057	-14.559047	-148.976087	0.596238	0.807271	-0.349323	-0.697088	1.84236	2.183229	9.775027	-3.01161	0.961312	-2.818765	-0.523163	-0.048749	-1.067553	9.220892	1.391398	-1.856122	10.341353	8.188249	-13.299359	-0.475601	-0.415421	0.25667
1.461189	1.00611	8.401535	-14.19739	-163.291589	37.160063	0.808786	-0.369809	-0.718408	2.075039	2.182893	9.893142	-3.104877	0.928465	-2.665027	-0.484826	-0.050668	-1.039681	8.864574	0.926858	-2.044423	11.204856	8.656839	-13.946472	-0.475739	-0.43244	0.273034
0.610783	1.69796	8.842553	-18.842108	-172.1463	70.140373	0.751161	-0.344296	-0.709767	1.891248	2.295451	9.379854	-3.074255	0.927448	-2.449216	-0.53651	-0.065217	-1.051924	9.168593	0.870085	-1.559913	11.35707	8.878466	-14.620387	-0.517254	-0.41686	0.271987
-0.24156	1.987237	9.168176	-23.683257	-178.178454	95.528774	0.740798	-0.360537	-0.797702	2.060533	2.182324	9.213467	-4.001249	0.886232	-2.63534	-0.510853	-0.066138	-1.038126	9.046564	0.695138	-1.802483	11.93978	9.569656	-16.18431	-0.531162	-0.417064	0.271917
-0.46225	2.793514	9.621925	-27.711139	-184.290937	117.477313	0.641554	-0.326844	-0.816166	1.830595	2.013763	9.208489	-4.001482	0.885024	-2.450384	-0.511293	-0.037641	-1.011434	8.696464	0.871165	-1.568717	12.154391	10.224828	-17.349447	-0.489576	-0.43347	0.288492
-1.251895	3.256281	10.233651	-32.862112	-188.096935	130.883559	0.683944	-0.362567	-0.78223	1.661872	2.464921	9.4318	-4.095646	0.790244	-2.204779	-0.498022	-0.036494	-1.026059	9.464909	0.811581	-1.494751	12.76949	11.006332	-18.761092	-0.461552	-0.416869	0.287795
-2.048594	4.234573	10.50643	-33.387942	-188.707243	138.352101	0.614056	-0.319039	-0.843619	1.892241	2.408159	9.436588	-3.541061	0.732146	-1.619179	-0.523528	-0.004932	-1.041865	8.811465	0.754001	-1.746731	13.323208	11.631823	-19.896733	-0.503973	-0.465233	0.274568
-2.951759	4.869988	11.173505	-31.403145	-186.697131	140.922318	0.531605	-0.347519	-0.873504	1.953757	2.239202	9.607574	-3.787475	0.81879	-1.279408	-0.523458	-0.049821	-1.053203	9.515817	0.983943	-1.912258	13.261133	11.942877	-20.417478	-0.503626	-0.432022	0.257366
-3.115029	5.446458	11.627403	-29.027981	-182.625598	138.193109	0.475523	-0.377092	-0.8512	1.898824	2.126744	9.719549	-3.171142	0.732623	-0.971488	-0.510853	-0.066138	-1.038126	9.404097	0.636994	-1.616407	13.230315	12.222189	-20.815951	-0.475601	-0.415421	0.25667
-3.046681	5.506271	12.197288	-24.844504	-174.441819	128.906366	0.474737	-0.33225	-0.875523	2.068217	1.957286	9.553115	-2.214113	0.712498	-0.724294	-0.510702	-0.035498	-1.040133	9.699178	0.636318	-1.610905	13.28903	12.103827	-21.182292	-0.489021	-0.384067	0.270453
-3.051958	5.102974	11.911334	-19.314829	-162.455168	112.996013	0.389271	-0.337059	-0.845276	1.435344	2.409164	9.596836	-1.941091	0.346237	-0.450264	-0.562757	-0.066439	-1.037023	9.752132	0.402396	-1.970235	13.159538	11.494073	-21.423375	-0.447853	-0.432858	0.288703
-3.16193	4.989139	12.136037	-19.240378	-151.94276	91.926618	0.318668	-0.335186	-0.84353	2.130403	2.070029	9.780977	-1.725298	0.317913	-0.388716	-0.510847	-0.005929	-1.027791	9.628887	0.750133	-2.21058	12.996601	10.361319	-21.386822	-0.47581	-0.431614	0.257507
-3.39433	5.046022	11.961265	-24.804532	-142.593603	65.333926	0.305676	-0.341526	-0.867917	2.592913	2.294584	9.904117	-1.142123	0.076418	0.164258	-0.511513	-0.023393	-0.998087	10.213391	0.340767	-2.560748	12.991241	8.850055	-20.187838	-0.517813	-0.447592	0.242605
-4.9256	4.877953	12.669567	-32.472518	-135.203293	37.024885	0.291541	-0.323852	-0.885059	2.302429	1.788006	9.727727	-0.930347	-0.287811	0.006666	-0.524419	-0.068357	-1.009151	9.923813	0.342679	-2.266715	12.36881	7.182057	-18.833069	-0.489927	-0.44801	0.258273
-6.877196	4.016533	12.343823	-34.102249	-127.75251	8.541315	0.247308	-0.323071	-0.831124	1.656259	2.239361	9.148412	-0.345969	-0.494415	-0.087403	-0.510627	-0.020177	-1.041137	9.91719	-0.12366	-2.688041	11.777834	5.699305	-17.632076	-0.517605	-0.4314	0.241768
-9.238772	3.555563	11.557149	-35.277058	-118.965394	-15.602077	0.2637	-0.354174	-0.863453	2.23992	1.844255	9.500007	0.050626	-0.887764	-0.121823	-0.510407	-0.034426	-1.054483	9.80549	-0.005755	-2.330306	10.910615	4.120015	-16.062903	-0.503488	-0.415003	0.241001
-11.707844	2.636592	11.107437	-39.234435	-108.578677	-32.843846	0.206461	-0.342433	-0.851396	2.126668	2.126218	9.611106	-0.048917	-1.440107	-0.250707	-0.497281	-0.00371	-1.056766	9.635294	-0.584874	-2.036546	10.380393	2.670308	-15.076175	-0.503835	-0.448214	0.258203
-13.315132	2.234697	10.847157	-42.909846	-97.577694	-41.826275	0.177834	-0.327912	-0.854114	2.07547	1.957571	9.892952	0.411843	-1.648482	-0.314065	-0.562461	-0.065367	-1.051373	9.341739	-0.293324	-1.920998	9.448545	1.717435	-14.946017	-0.489301	-0.399433	0.255762
-15.392911	2.117687	9.953793	-44.046286	-88.298109	-41.73356	0.219024	-0.270424	-0.882901	2.076464	2.070279	9.949687	0.621046	-2.197914	-0.288532	-0.536579	-0.020327	-1.040585	9.27612	-0.294672	-2.28154	8.865782	1.274778	-13.749979	-0.489718	-0.431818	0.257436
-16.317273	2.80596	9.540901	-41.482119	-82.039708	-31.33256	0.176705	-0.321198	-0.829378	2.414819	1.956687	9.617008	0.494546	-2.443798	-0.445219	-0.536139	-0.048824	-1.067277	9.389346	-0.121703	-2.518225	8.620899	0.711614	-12.615698	-0.503835	-0.448214	0.258203
-17.083146	1.825167	8.385262	-38.049036	-81.037181	-9.917289	0.176333	-0.324726	-0.815302	2.298933	2.351216	9.614922	-0.374503	-2.733379	-0.048032	-0.523603	-0.020252	-1.040861	9.39871	0.112826	-1.978074	8.004756	0.180548	-11.755255	-0.476019	-0.447806	0.258344
-22.056755	-3.972099	8.434575	6.714171	4.632329	3.521397	0.164071	-0.30671	-0.885332	1.722286	2.239586	9.546098	-0.843023	-3.138111	-0.021606	-0.54904	-0.033579	-1.068005	9.508384	0.866061	-2.3321	8.263864	-1.55322	-12.603597	-0.47581	-0.431614	0.257507
-22.392988	9.070998	9.335468	-57.956872	27.503585	14.597751	0.148835	-0.316921	-0.842755	2.187991	2.689605	9.839347	-0.35	-3.195787	0.378983	-0.536139	-0.048824	-1.067277	9.740141	-0.123255	-2.691343	8.960032	-3.2646	-12.506272	-0.462111	-0.447602	0.258414
-18.109692	7.674293	5.88941	7.015696	59.061422	-7.310043	0.219009	-0.253124	-0.900393	2.594229	2.238301	9.960709	0.603663	-3.519749	0.19156	-0.549335	-0.034651	-1.053656	9.101199	1.15887	-1.979126	8.576375	-4.419792	-13.324483	-0.448203	-0.447398	0.258484
-3.536163	7.140961	4.806704	82.107323	63.150364	-22.825813	0.19004	-0.276731	-0.85405	2.244671	2.520458	9.783774	0.665685	-3.489105	0.315227	-0.523603	-0.020252	-1.040861	10.450772	2.14182	-2.249147	9.108075	-6.73306	-14.232154	-0.462253	-0.445949	0.227358
2.288729	2.045268	9.785942	-48.089471	48.676252	10.650966	0.192297	-0.29016	-0.903523	2.06416	2.182466	9.383386	2.24104	-3.55628	-0.424047	-0.54926	-0.01933	-1.054659	10.872419	2.259005	-1.761694	9.628042	-10.234803	-15.561932	-0.489789	-0.430991	0.241909
-2.115021	5.508985	13.011048	-44.650669	33.025383	-16.969648	0.191154	-0.266146	-0.896278	2.367032	1.900844	10.068868	3.388475	-3.232706	-0.789843	-0.536654	-0.035648	-1.039582	10.510599	1.793229	-2.24953	11.052267	-12.821005	-16.37984	-0.490273	-0.481221	0.275475
-3.809363	3.824317	8.254065	-40.024866	47.795445	4.909474	0.19154	-0.279917	-0.892862	2.01702	1.78864	9.834962	5.242127	-3.294945	-1.744639	-0.523308	-0.01918	-1.055211	9.626997	1.563198	-2.207119	11.973699	-12.997104	-16.779601	-0.46239	-0.462968	0.243723
-1.489359	1.071497	9.708349	-42.636711	51.096929	13.495868	0.191154	-0.266146	-0.896278	2.521056	2.181462	9.223138	6.471195	-3.858088	-2.334981	-0.484455	-0.034276	-1.055034	8.972742	1.854074	-2.457615	12.090928	-11.739847	-14.096824	-0.462387	-0.481639	0.291144
0.203808	0.387993	11.386484	-55.438013	38.147289	6.606347	0.206032	-0.276764	-0.907288	2.190386	2.070016	9.895465	8.826238	-3.533388	-5.227677	-0.549335	-0.034651	-1.053656	9.158189	2.029875	-1.974317	10.93999	-10.945309	-11.46831	-0.476019	-0.447806	0.258344
-0.159679	0.269016	10.355965	-32.188332	40.119122	-8.701233	0.204903	-0.270049	-0.882552	1.795028	2.521747	10.283859	6.345859	-4.183895	-4.342134	-0.510998	-0.036569	-1.025783	9.507999	1.505144	-2.269474	8.56236	-10.978446	-12.040182	-0.490065	-0.465029	0.274638
-0.451026	1.129881	10.126605	-20.886052	44.479573	-25.439953	0.218266	-0.260181	-0.872241	2.011884	2.577125	9.665707	1.286071	-5.919645	-1.92806	-0.523678	-0.035573	-1.039857	9.14813	1.62087	-2.575116	4.582608	-10.181399	-13.588121	-0.476365	-0.481017	0.275546
-1.592775	1.131434	10.274895	-7.017518	41.769685	-32.824175	0.22091	-0.287381	-0.918297	2.94709	2.125278	10.307706	-1.79616	-10.022327	0.525738	-0.537025	-0.05204	-1.024228	9.275256	1.971282	-2.03227	1.195514	-9.953938	-13.087987	-0.462666	-0.497006	0.276453
-1.830825	1.301994	9.81634	4.765087	42.223165	-30.059417	0.21941	-0.284195	-0.879485	1.878082	2.858282	8.813932	-12.559688	-20.342409	5.655277	-0.536434	-0.049896	-1.052928	10.451468	2.316296	-2.188499	-0.842883	-10.948253	-12.281306	-0.504461	-0.496792	0.260715
-2.046729	1.649704	10.495571	10.762082	42.346994	-24.982954	0.246865	-0.240102	-0.904507	3.326359	2.353665	14.618549	-26.201584	-23.682787	11.684329	-0.524194	-0.022396	-1.012161	10.787127	2.19513	-3.200808	-2.424875	-11.711973	-12.913689	-0.476712	-0.514228	0.292748
-1.652339	1.245876	10.160557	14.977131	38.526707	-22.419379	0.232744	-0.239728	-0.904158	2.300142	2.351264	9.671562	4.598366	-46.776862	-3.503058	-0.575507	-0.020552	-1.039758	10.974485	2.022722	-2.659086	-4.586232	-11.341339	-14.007775	-0.462249	-0.464621	0.274779
-2.528868	-0.16871	15.024961	23.217702	34.061616	-23.681235	0.246879	-0.257402	-0.887015	2.697708	1.620312	12.057062	-8.573349	-50.310975	-4.566106	-0.523678	-0.035573	-1.039857	11.388853	2.428804	-2.529838	-8.153395	-10.037048	-14.184439	-0.489714	-0.450489	0.304857
-3.709935	0.029233	7.330716	66.831373	12.517016	-16.673165	0.288098	-0.234512	-0.880818	2.672237	2.29533	10.924839	-4.021645	-59.75124	-10.852633	-0.497576	-0.004782	-1.042416	11.758086	2.547607	-1.684045	-10.401062	-9.336898	-14.63803	-0.476436	-0.480191	0.260018
-1.264257	0.323626	9.482254	42.436313	6.63346	-9.245662	0.288883	-0.279353	-0.856495	2.294103	1.95905	12.048884	-3.298027	-66.028317	-11.130234	-0.589444	-0.039163	-0.995429	10.983693	1.850472	-2.180572	-12.941969	-8.542295	-12.493452	-0.476086	-0.465651	0.290236
-1.371758	1.416787	9.882583	36.168298	3.80599	-9.120222	0.27512	-0.258151	-0.887713	2.172928	1.959028	11.763268	-3.95593	-76.466319	-11.111198	-0.563272	-0.053262	-1.009327	10.936917	1.795251	-1.522944	-15.720505	-5.840758	-11.457243	-0.46204	-0.448428	0.273942
-1.616039	2.505206	9.143624	31.977848	4.17164	-7.844765	0.262128	-0.264491	-0.9121	2.114177	2.578772	11.762581	-2.595196	-85.965301	-10.125549	-0.562751	-0.006229	-1.026688	10.76481	1.564341	-1.287607	-18.338798	-3.181191	-9.260108	-0.504248	-0.49927	0.307298
-1.724773	2.219287	9.424456	26.580125	2.813879	-6.869875	0.246536	-0.295529	-0.837955	2.878027	2.690648	12.514706	-4.213458	-94.092283	-9.005345	-0.550736	-0.02469	-0.982911	10.580194	1.504939	-1.710504	-19.84917	-0.793208	-7.035089	-0.518365	-0.515667	0.308065
-1.608944	1.932238	9.48233	21.865917	2.527217	-5.204833	0.276278	-0.299464	-0.877466	2.57075	2.746759	11.602476	-0.885934	-101.627159	-4.422567	-0.615321	-0.023993	-0.995882	10.115072	1.333274	-1.360608	-20.944701	0.448455	-6.211893	-0.462804	-0.514024	0.292818
-1.55375	1.701948	9.368772	21.247384	2.290323	-6.249648	0.260657	-0.295903	-0.838305	2.969543	3.027515	11.441256	-1.890957	-109.771227	0.397342	-0.577354	-0.042304	-0.952656	9.988237	1.331567	-1.842064	-20.584534	1.900011	-4.478115	-0.448967	-0.512994	0.27736
-1.610306	2.276646	9.426924	15.67861	2.646408	-4.694382	0.261771	-0.285318	-0.880533	3.031081	3.478241	11.669403	-2.632723	-116.510444	6.68041	-0.59048	-0.07302	-0.950373	9.701689	1.450372	-1.367816	-20.134139	2.766289	-2.313975	-0.448408	-0.482262	0.306742
-1.95045	2.220177	9.590561	12.406637	2.860957	-3.270718	0.288898	-0.296653	-0.839003	2.571205	3.14112	11.659447	1.18004	-124.774952	11.009852	-0.615616	-0.025065	-0.981532	9.280178	1.275111	-1.855516	-20.331653	3.506936	-0.055163	-0.463084	-0.529391	0.278127
-1.786399	2.10348	9.195448	12.747434	3.822159	-3.869448	0.262157	-0.299089	-0.877117	2.632374	2.521471	11.773414	-1.474078	-131.293783	17.32454	-0.616947	-0.059993	-0.922126	9.341955	1.508022	-1.673706	-20.405621	3.99921	2.601753	-0.47657	-0.515881	0.323803
-1.208163	1.931948	9.490124	7.676654	5.534793	-2.477602	0.274777	-0.296278	-0.838654	3.079145	2.125726	11.103078	-0.278947	-139.004211	20.886746	-0.642529	-0.043751	-0.936928	8.817412	1.51072	-1.324169	-21.249026	4.486192	5.506051	-0.490762	-0.51278	0.261622
-1.493487	2.162162	9.542375	6.151787	7.039721	-3.000785	0.290041	-0.320666	-0.846247	3.370299	2.914004	11.336345	-1.219831	-144.712371	23.788904	-0.631023	0.011174	-0.855119	8.585075	1.802629	-1.087707	-21.574659	4.490344	7.952373	-0.490344	-0.480395	0.259948
-1.721101	1.760479	9.593085	6.189598	8.083325	-2.861258	0.274406	-0.299806	-0.824578	4.129505	2.293347	11.804656	5.204809	-151.79719	26.220884	-0.669661	-0.048189	-0.878977	8.408721	1.97751	-1.03036	-22.369905	4.289103	9.392769	-0.490411	-0.49824	0.29184
-1.787968	2.735096	9.141249	3.402518	8.315456	-2.788125	0.289269	-0.293124	-0.853079	4.037582	2.801485	12.935457	3.978926	-158.061608	29.086492	-0.670101	-0.019692	-0.852285	8.523432	1.511643	-1.269764	-22.610838	3.966867	10.892882	-0.504043	-0.464407	0.25904
-1.839116	1.989604	9.421264	1.713605	8.098032	-3.277493	0.261428	-0.323445	-0.831473	4.895773	2.405318	12.67006	6.786014	-165.494815	30.741382	-0.696788	0.007583	-0.810692	8.701601	1.97634	-1.144671	-22.424384	3.343751	12.056676	-0.490273	-0.481221	0.275475
-1.894434	2.392219	9.535546	0.667386	7.667107	-3.649508	0.246179	-0.316356	-0.806388	6.017989	2.686061	14.052617	3.207428	-170.134845	29.30506	-0.71043	-0.009956	-0.780713	8.002076	2.038014	-0.678374	-21.622679	2.508095	13.2804	-0.490762	-0.51278	0.261622
-2.078114	1.930157	8.904891	-2.189044	6.826496	-3.869629	0.260257	-0.264833	-0.859212	6.997464	2.233584	14.072789	8.81212	-178.750917	29.439789	-0.697234	-0.024129	-0.794335	8.58525	2.674264	-0.964185	-20.670376	1.648713	13.892376	-0.462595	-0.497832	0.291981
-2.063929	2.335384	9.64567	-4.1279	6.026818	-4.613094	0.303761	-0.28997	-0.867504	6.228137	2.067525	15.75491	13.820541	-183.804984	23.443479	-0.723852	-0.041744	-0.76408	8.639034	2.556741	-1.263113	-19.16262	0.790385	14.594037	-0.462879	-0.494527	0.22987
-1.663764	1.645554	9.593716	-5.572664	4.780414	-3.709132	0.290412	-0.317138	-0.860323	4.991005	1.674336	14.369841	22.406011	-196.265966	21.045235	-0.763439	0.000777	-0.723214	8.642605	2.441331	-1.083887	-17.130051	-0.129438	15.508062	-0.476574	-0.49721	0.276383
-2.126419	1.874687	9.358361	-2.940645	3.895949	-3.240386	0.317896	-0.307644	-0.850362	5.427572	1.167887	15.907146	34.409678	-202.149244	19.239189	-0.724512	0.001002	-0.724042	8.756391	2.846851	-1.259676	-16.243644	-1.22933	15.693501	-0.462457	-0.480813	0.275616
-1.786357	2.046039	9.195206	-1.466817	3.331573	-1.659045	0.331288	-0.332375	-0.805067	5.24542	1.05517	15.450307	47.506662	-209.517824	16.617723	-0.738223	0.028352	-0.682724	8.871527	2.671611	-1.437937	-15.07802	-2.300464	16.152893	-0.490832	-0.511954	0.246094
-2.29377	1.933218	9.582674	-1.588662	2.702812	-0.472856	0.277421	-0.323478	-0.88471	4.956947	1.393692	15.444547	64.512162	-213.058605	13.667487	-0.778117	-0.050619	-0.648179	8.647432	2.732947	-0.783116	-14.221502	-3.15385	16.153864	-0.476854	-0.512576	0.261692
-1.95911	1.873597	9.134289	-0.306068	1.90841	-0.366787	0.304905	-0.313984	-0.874749	4.471361	1.224567	14.245302	67.095653	-218.450223	16.8839	-0.752009	0.040382	-0.640403	9.174716	2.498439	-1.013829	-12.845455	-3.779247	14.99033	-0.476365	-0.481017	0.275546
-1.89332	2.39246	9.592399	-1.412388	1.03547	0.266237	0.261414	-0.306146	-0.848965	4.351741	1.675285	14.073345	69.31899	-222.702268	23.533429	-0.792494	-0.040733	-0.577158	9.473659	2.731057	-0.76771	-11.772711	-3.856415	13.947555	-0.462249	-0.464621	0.274779
-2.066197	2.392343	9.532205	-1.781305	0.817935	0.325099	0.275149	-0.29275	-0.85273	3.655081	0.324314	13.661223	74.390897	-226.594317	27.599207	-0.780328	-0.028553	-0.535388	9.236919	3.021977	-0.770876	-10.390798	-3.654653	12.657809	-0.476507	-0.479365	0.24449
-1.835651	1.818003	9.591099	-1.749982	0.503112	0.994584	0.274777	-0.296278	-0.838654	2.150092	-2.776353	7.569163	84.994518	-225.586552	2.029673	-0.780253	-0.013233	-0.536392	9.654278	2.615241	-0.585182	-9.591594	-3.212494	11.582999	-0.477058	-0.54744	0.30995
-1.83792	1.874962	9.477634	-1.777487	0.65037	1.549075	0.275506	-0.271922	-0.884298	-10.632579	-3.097656	-0.965255	53.117551	-180.592666	-30.133516	-0.756148	-0.034834	-0.449842	9.295375	2.789291	-0.830671	-7.954719	-2.342561	10.839343	-0.504599	-0.51381	0.277079
-1.8894	1.589002	9.75958	-1.099078	0.76671	2.407705	0.289655	-0.306895	-0.849663	-12.572255	-2.691861	7.939405	-38.631481	-89.229603	-31.365003	-0.834374	-0.051677	-0.432834	9.716191	2.790076	-0.40362	-6.781237	-1.441491	9.883264	-0.504669	-0.512984	0.261552
-1.77543	2.335659	9.764944	-0.882127	1.011132	2.625725	0.290041	-0.320666	-0.846247	-9.798938	-1.454905	11.282364	-56.243073	-28.55516	-56.823556	-0.794636	-0.063556	-0.475707	9.892119	2.324568	-0.52211	-5.755535	-0.180518	9.567878	-0.435063	-0.494119	0.23001
-1.542906	2.106451	9.938992	-0.050129	1.565385	2.877677	0.274763	-0.278979	-0.856146	-13.823289	0.242887	11.59564	-20.349979	32.795496	-71.134421	-0.807536	-0.048311	-0.476434	9.650842	2.672576	-0.764656	-5.622294	1.353502	9.162727	-0.490482	-0.497414	0.276313
-1.61319	1.644065	9.253711	2.004994	1.976918	2.663778	0.275134	-0.27545	-0.870222	-11.736071	-1.452819	9.486642	0.394945	73.656995	-63.991731	-0.780925	-0.090907	-0.517024	9.712464	2.498707	-0.644483	-6.821264	2.708684	7.846309	-0.462595	-0.497832	0.291981
-1.774067	1.991251	9.820349	0.871835	2.250989	2.426154	0.290427	-0.334437	-0.842832	-11.019975	-2.920188	7.858576	-0.319152	98.187243	-58.014965	-0.807392	-0.07788	-0.488777	9.062051	2.558021	-0.716248	-7.862559	3.592025	7.845864	-0.490411	-0.49824	0.29184
-1.897816	2.448936	9.365228	1.484215	2.412028	2.028331	0.276278	-0.299464	-0.877466	-9.672792	-2.64245	6.301919	-21.538291	115.67013	-54.868113	-0.793976	-0.106302	-0.515745	9.060235	1.918443	-0.898688	-9.092718	4.047387	7.756452	-0.490486	-0.478743	0.228892
-1.552927	2.10428	9.427314	1.393081	2.690964	1.787786	0.275935	-0.337591	-0.828406	-8.734906	-1.967497	7.171424	-44.804686	135.457288	-47.569384	-0.780189	-0.118332	-0.558066	8.941818	2.557797	-0.838263	-9.737412	4.567615	7.511786	-0.503973	-0.465233	0.274568
-1.604573	2.048086	9.710225	1.118433	3.21837	1.24513	0.317139	-0.297402	-0.839702	-7.895143	-1.967678	8.774258	-56.489281	157.587115	-39.12817	-0.740665	-0.055753	-0.577258	8.885657	1.803191	-0.78267	-10.605347	4.2318	7.149757	-0.50439	-0.497618	0.276242
-2.066239	2.449784	9.532447	0.748301	3.19218	0.693751	0.275149	-0.29275	-0.85273	-6.677329	-0.955566	9.310255	-60.611101	181.789533	-28.964627	-0.73912	-0.095283	-0.660345	9.122147	2.093278	-0.717125	-10.761526	4.017744	7.090215	-0.489785	-0.449663	0.289329
-1.834745	2.105452	9.649159	-0.044257	3.457741	1.344371	0.276335	-0.368661	-0.807499	-4.995282	-0.620186	9.968633	-64.024485	203.308658	-19.751793	-0.712502	-0.077669	-0.6906	8.832704	2.037113	-0.42334	-10.671537	3.401861	7.520734	-0.490202	-0.482048	0.291003
-1.604324	1.703437	9.708777	1.211086	3.310646	1.277031	0.302632	-0.283256	-0.842768	-3.791244	-0.622639	9.767462	-68.968913	218.507076	-11.990159	-0.646882	-0.044509	-0.722685	8.945639	1.861379	-0.721416	-10.989008	2.51774	7.128762	-0.504599	-0.51381	0.277079
-1.613522	2.103597	9.255641	1.797476	3.645848	1.771473	0.27442	-0.317106	-0.807086	-1.946063	-0.344294	9.976303	-77.194828	228.222859	-5.857839	-0.659713	-0.074153	-0.734752	9.06037	1.860367	-0.898935	-10.713004	1.776386	7.925984	-0.490273	-0.481221	0.275475
-1.84023	1.989363	9.364411	1.953924	3.918974	2.143473	0.275892	-0.285693	-0.880882	-0.955686	-0.17666	10.563393	-85.992639	236.421471	-3.039603	-0.607438	-0.057461	-0.751208	8.6544	1.630491	-0.548186	-10.124218	1.431288	8.964706	-0.489647	-0.432644	0.272964
-1.377865	2.162321	9.601455	2.198822	3.952241	2.020638	0.274763	-0.278979	-0.856146	0.69235	1.117442	12.4108	-89.118193	243.417713	-2.078439	-0.567399	-0.008058	-0.798095	9.00477	1.338312	-0.782447	-9.474957	1.212868	9.605265	-0.462457	-0.480813	0.275616
-1.72164	2.507218	9.596222	1.281195	4.631339	1.390297	0.261786	-0.302618	-0.863041	1.569691	1.454377	13.108894	-84.115471	248.013255	-2.213619	-0.553538	-0.004768	-0.84142	8.948765	0.990486	-0.665217	-8.609268	0.900935	10.490013	-0.490344	-0.480395	0.259948
-1.490437	2.564977	9.714623	0.76204	5.186936	0.971473	0.317525	-0.311173	-0.836286	2.737708	1.565547	13.926121	-74.403428	251.169647	-2.575138	-0.500673	0.014068	-0.886576	9.543618	1.338828	-0.353195	-7.157884	0.746579	11.127368	-0.504185	-0.462754	0.227985
-1.895547	2.391977	9.478693	-0.679157	5.714462	-0.058512	0.317896	-0.307644	-0.850362	3.037192	1.790804	14.498752	-65.015722	253.072145	-3.781757	-0.512833	0.062098	-0.918011	9.302322	1.22198	-0.657626	-5.926327	0.723262	10.847929	-0.462107	-0.466273	0.305834
-1.835651	1.818003	9.591099	-2.12146	5.650446	-0.423417	0.290055	-0.337966	-0.828756	3.833329	1.845246	14.062607	-63.38796	254.601831	-5.152466	-0.447067	0.065689	-0.962439	9.485838	1.281134	-0.294636	-4.017956	0.425818	10.689609	-0.504394	-0.478947	0.228822
-2.182027	2.679392	9.474332	-3.226011	5.304471	-0.180516	0.275177	-0.327348	-0.817746	4.182934	2.802455	14.353865	-66.584246	255.824503	-6.37597	-0.395314	0.035349	-0.961534	9.548425	1.165588	-0.114309	-1.922012	0.155216	10.958399	-0.490065	-0.465029	0.274638
-1.830084	1.819209	9.875365	-1.354671	4.369011	1.761632	0.289655	-0.306895	-0.849663	4.487685	2.80258	15.152863	-72.181303	255.477302	-6.260619	-0.368772	0.037642	-0.990785	9.068593	1.164938	-0.542461	0.480338	0.044659	10.64457	-0.517884	-0.446766	0.227077
-1.726834	1.989038	9.309785	-1.07599	4.299449	2.587723	0.290798	-0.330909	-0.856908	5.428504	2.576293	16.07825	-73.637242	252.707283	-6.844274	-0.341929	0.101218	-1.024051	9.129675	1.223374	-0.421299	2.733354	0.265935	10.72705	-0.504811	-0.511332	0.230496
-1.887753	2.393666	9.876664	-1.16606	3.980581	3.564155	0.290427	-0.334437	-0.842832	6.820222	3.58813	16.674513	-74.542133	247.126484	-7.270509	-0.289579	0.133231	-1.041511	9.188016	1.513619	-0.418963	4.744818	1.004456	10.991329	-0.504461	-0.496792	0.260715
-1.66191	2.16301	9.709594	0.86781	4.176984	6.045524	0.317896	-0.307644	-0.850362	7.522103	3.474602	17.198682	-70.520689	240.226979	-7.21267	-0.250281	0.149848	-1.057691	9.356666	1.337008	-0.895658	6.442786	1.192831	11.106543	-0.517605	-0.4314	0.241768
-2.349911	1.9335	9.638414	2.029816	3.908273	5.823144	0.304933	-0.348583	-0.839765	9.362795	4.20345	17.237984	-60.516956	232.422413	-7.035716	-0.224925	0.087645	-1.039879	9.365179	0.990282	-0.477793	8.172458	1.255492	11.558464	-0.518089	-0.48163	0.275335
-2.287871	1.474892	9.865009	0.849885	4.484291	8.749228	0.288898	-0.296653	-0.839003	10.726555	4.03116	16.417261	-51.363235	221.021289	-6.432838	-0.146328	0.12088	-1.07224	9.244966	1.454913	-0.537923	9.747337	1.194609	12.072668	-0.504532	-0.495965	0.245187
-1.845714	1.873273	9.079663	-0.70319	5.04281	10.357416	0.304519	-0.300213	-0.878164	12.549976	4.308652	15.606589	-45.291589	203.050433	-4.757209	-0.120226	0.151671	-1.074798	8.945889	1.280371	-0.783795	11.07243	1.014579	12.190992	-0.490206	-0.463376	0.243583
-1.896904	1.185222	9.359919	8.146286	5.231424	8.188373	0.290412	-0.317138	-0.860323	13.458588	3.855762	15.002517	-41.31852	182.816741	-3.321564	-0.080783	0.138719	-1.103321	8.950561	1.165208	-0.544662	12.581255	0.651361	12.34009	-0.489576	-0.43347	0.288492
-1.6042	1.531112	9.708053	3.821354	4.783792	7.948216	0.303018	-0.297027	-0.839352	14.526598	3.402027	13.779036	-36.30149	164.522498	-1.711607	-0.042226	0.122552	-1.088795	9.357746	0.872399	-0.897636	13.80448	-0.163185	11.6671	-0.504043	-0.464407	0.25904
-1.723535	2.047204	9.480585	1.919621	5.749839	6.006724	0.332031	-0.325318	-0.833219	14.682478	3.344709	12.98966	-32.474299	147.492131	0.773183	-0.054461	0.155261	-1.119226	9.418423	1.105063	-0.775733	14.657377	-0.699026	10.535641	-0.503839	-0.429543	0.210783
-2.117677	2.106383	9.814151	2.554303	5.027462	4.919815	0.261828	-0.354516	-0.810565	14.830412	2.385724	11.74641	-29.369775	129.673525	5.006794	-0.041855	0.138944	-1.104149	9.248268	1.455655	-0.358203	15.203282	-1.362743	9.833829	-0.476019	-0.447806	0.258344
-2.060464	2.163783	9.815505	1.309117	6.741497	5.043257	0.345737	-0.277323	-0.871968	15.032762	2.440532	10.448582	-27.752125	109.221967	10.415384	-0.029024	0.168588	-1.092082	9.365179	0.990282	-0.477793	16.266647	-2.260144	8.244876	-0.517813	-0.447592	0.242605
-2.065001	2.277701	9.588576	-0.3725	7.629693	4.633194	0.290398	-0.299839	-0.877815	14.964533	2.327552	9.937522	-28.523566	88.14213	17.850607	0.009533	0.152421	-1.077556	9.653678	1.452979	-0.769848	16.813551	-2.925747	7.72647	-0.517672	-0.449245	0.273661
-1.829468	2.508749	9.935113	0.977101	9.010049	2.719706	0.274006	-0.268736	-0.845486	14.199174	3.004303	9.18606	-26.856255	69.501058	26.946165	0.060552	0.149505	-1.03561	9.831651	0.581186	-0.830162	18.402931	-3.762599	6.379866	-0.489785	-0.449663	0.289329
-1.895589	2.449419	9.478934	2.846859	10.050968	1.136528	0.290041	-0.320666	-0.846247	13.956716	3.060591	8.614876	-23.33557	53.386909	37.270921	0.035341	0.18214	-1.065765	10.127987	0.987538	-0.703115	19.74582	-4.321253	4.666072	-0.46239	-0.462968	0.243723
-2.046113	2.339244	10.55532	0.450377	15.007411	-0.554755	0.289298	-0.327723	-0.818096	13.371499	3.004958	8.149623	-17.854467	38.284792	46.40514	0.035786	0.213853	-1.082122	9.772925	0.930025	-0.769872	21.551701	-5.375854	3.747648	-0.489927	-0.44801	0.258273
-1.837878	1.81752	9.477393	-0.720649	20.721933	-3.556002	0.303033	-0.314326	-0.821861	12.555589	3.17508	7.679723	-12.195432	24.794719	52.935044	0.035121	0.196388	-1.052419	9.835378	0.872555	-0.589298	24.253044	-6.615806	3.315891	-0.503835	-0.448214	0.258203
-2.444512	1.490739	13.556006	-6.628699	23.871022	0.897737	0.304533	-0.317513	-0.860673	11.338469	3.06435	7.257764	-8.161986	14.48337	57.645449	0.02325	0.185281	-1.108538	10.538069	0.869699	-0.875627	27.292651	-7.976881	2.883489	-0.461761	-0.433062	0.288632
-2.109634	1.763422	10.210674	19.682973	45.211128	-5.639507	0.274792	-0.313577	-0.821162	10.004686	3.12278	6.77689	-4.70176	7.402974	59.366054	0.061368	0.19761	-1.06732	10.243819	0.986773	-0.820728	31.341622	-9.318525	0.919176	-0.503555	-0.432848	0.272894
-2.313005	3.262858	11.576969	-12.164915	46.214352	6.674274	0.33316	-0.332033	-0.857955	8.628059	3.069226	6.974387	1.403561	3.965896	57.61021	0.061513	0.168041	-1.079662	10.600252	0.928382	-0.694559	35.154498	-10.370615	0.451944	-0.475598	-0.434092	0.30409
-1.866182	1.823834	10.95446	-3.508946	56.236963	1.690862	0.317139	-0.297402	-0.839702	7.874311	2.732407	6.675189	6.740573	2.905897	51.86931	0.087094	0.151799	-1.06486	10.779886	0.289387	-0.63407	39.128708	-10.907832	0.531806	-0.503973	-0.465233	0.274568
-0.237241	1.541015	12.292052	-7.249655	58.101582	-1.6722	0.30379	-0.324569	-0.832521	6.75924	2.508279	5.632517	8.083751	3.199795	42.315705	0.048461	0.152646	-1.078383	10.781121	0.231559	-0.574411	41.838267	-11.045338	-0.027482	-0.475806	-0.450285	0.304927
-2.316672	2.170504	11.344971	-13.271789	67.201328	-4.481781	0.30229	-0.321383	-0.793709	6.364505	2.002343	5.963465	9.16318	4.394924	30.397119	0.061733	0.153793	-1.093008	11.134368	-0.350506	-0.690094	44.024746	-11.124815	-0.462899	-0.503	-0.383444	0.254855
-0.980192	2.748309	12.39635	-13.683772	76.135633	-6.696857	0.33166	-0.328847	-0.819143	5.678125	2.229148	6.175706	12.951193	7.078825	16.430247	0.049052	0.15479	-1.107082	10.599786	-0.291957	-0.879471	45.485534	-11.858645	-2.940246	-0.489159	-0.401085	0.286818
-1.70139	2.224353	10.618371	-4.089805	84.694846	-12.412555	0.374407	-0.343741	-0.816775	16.736083	-1.392025	11.726487	102.169907	-83.913896	29.933151	0.060702	0.180146	-1.037617	10.773128	-0.118875	-1.055149	46.106326	-12.674618	-6.636566	-0.489159	-0.401085	0.286818
-2.580716	2.232978	12.476707	-13.760691	93.468008	-15.094425	0.358743	-0.288283	-0.830089	13.88775	4.353584	5.500789	59.941697	-102.712458	-1.794861	0.049052	0.15479	-1.107082	11.177728	0.226905	-1.465311	44.134647	-14.054879	-9.892851	-0.474692	-0.370149	0.31627
-1.849563	1.942336	11.807739	-7.129934	104.299875	-21.99179	0.359515	-0.315825	-0.823257	5.722478	14.335761	1.261884	42.078934	-148.394564	13.95263	0.035115	0.136179	-1.062754	10.648284	1.39063	-1.230643	44.413668	-14.277359	-14.904614	-0.475322	-0.400055	0.27136
-2.071532	2.978139	12.2056	-17.722085	116.143653	-22.259455	0.388127	-0.313046	-0.838032	2.885129	5.05462	10.365602	-66.427086	-173.336742	22.218892	0.022434	0.137176	-1.076828	11.808184	3.068425	-2.100068	40.706933	-12.16788	-19.057247	-0.517392	-0.433878	0.288352
-1.417527	3.385081	13.470306	-17.186065	128.90378	-31.10197	0.414854	-0.293309	-0.81741	0.885582	3.652988	13.605993	-66.449973	-173.213853	69.237235	-0.029765	0.135803	-1.061375	12.793892	3.991885	-2.916101	32.429742	-9.624263	-19.436673	-0.502996	-0.402116	0.302275
-2.296023	2.244875	15.323816	-16.954946	148.205299	-34.561607	0.457616	-0.325503	-0.79755	14.093111	2.394656	20.336287	-21.0136	-156.3632	49.400564	-0.03021	0.104091	-1.045018	13.424187	3.114562	-4.045936	25.516504	-4.725881	-16.348609	-0.462457	-0.480813	0.275616
-2.514688	1.787679	15.829109	-12.845088	169.852179	-37.534183	0.487371	-0.346738	-0.819569	7.123567	4.712528	14.813609	7.149341	-127.157816	-21.347357	-0.043476	0.163154	-1.020058	12.004363	3.175137	-4.25182	19.542262	-2.523651	-12.487007	-0.503063	-0.419961	0.334168
-2.803685	2.476703	15.712731	-12.312944	195.02661	-36.328645	0.485828	-0.291654	-0.833232	2.403743	-0.858119	11.539174	3.236816	-85.10839	-21.980776	-0.121106	0.208665	-1.021414	10.776798	1.902278	-3.801113	18.465723	-4.488671	-9.173227	-0.489017	-0.402738	0.317874
-1.997917	2.821737	15.95718	-11.158241	218.51121	-37.729029	0.498491	-0.34074	-0.742294	0.190787	-0.179005	10.361013	22.971061	-71.853317	-7.498519	-0.121332	0.162703	-1.018403	8.668143	1.213441	-3.064906	19.925947	-8.730058	-6.682837	-0.503134	-0.419134	0.31864
-1.884854	3.280945	15.904485	-7.487646	243.217292	-40.405117	0.485114	-0.333309	-0.770096	0.857596	2.241155	9.471325	47.352813	-74.220397	7.84997	-0.120371	0.18124	-1.062456	7.739965	0.928682	-2.245052	21.521239	-12.06179	-3.372055	-0.516624	-0.386954	0.316896
-1.778512	3.796147	15.510912	-10.396999	266.324899	-45.81845	0.569065	-0.308014	-0.779023	2.102491	2.125269	8.478314	62.071068	-83.921092	18.771321	-0.108136	0.14853	-1.032025	8.702641	0.582021	-1.270418	23.150704	-13.692158	-1.903188	-0.489647	-0.432644	0.272964
-1.338831	4.538695	14.613307	-7.291002	285.986078	-59.097568	0.597306	-0.308764	-0.779722	6.522915	-4.629478	23.56795	41.158995	-82.255402	14.269996	-0.120376	0.12103	-1.072791	9.24236	1.628647	-0.656995	23.168806	-13.450516	-4.563308	-0.489084	-0.420583	0.349766
-3.715089	4.361797	13.08875	-14.410607	297.11364	-71.351986	0.637439	-0.331057	-0.696314	4.340213	5.951541	8.528686	42.746707	-35.436967	10.852227	-0.134829	0.115595	-1.000767	9.760051	2.205472	-1.303595	17.109967	-8.659114	-8.598322	-0.474968	-0.404186	0.348999
-5.850988	3.899938	12.135971	-25.386974	298.441967	-81.976099	0.693535	-0.318784	-0.701126	1.950834	-2.941343	11.697667	75.397611	-33.142085	28.227386	-0.134533	0.116667	-1.015116	9.877523	1.972651	-1.36229	16.229782	-1.882928	-4.593387	-0.503343	-0.435327	0.319477
-8.371188	4.660847	14.988508	-21.62934	283.103709	-76.100116	0.706155	-0.315973	-0.662663	3.196951	3.644288	8.672482	48.130177	-19.581225	16.501752	-0.133868	0.134131	-1.04482	9.738602	2.433079	-2.440837	9.829653	4.095144	-5.148849	-0.46141	-0.418522	0.318851
-6.704786	4.028995	15.302411	20.164246	276.007875	-74.955293	0.760737	-0.283215	-0.646156	2.759649	1.61801	9.567337	33.46672	-17.38449	8.46546	-0.134759	0.070706	-1.012106	10.497569	2.661897	-2.844891	4.848738	9.490591	0.864225	-0.475109	-0.402534	0.317944
-5.217138	1.372537	12.251308	39.210649	273.696426	-74.526187	0.803127	-0.318937	-0.61222	2.186413	1.619183	9.668527	31.0349	-11.723541	10.277023	-0.134169	0.07285	-1.040805	10.525347	2.364212	-4.582326	1.841485	12.52963	4.711622	-0.475176	-0.420379	0.349836
-4.228763	2.12195	13.069317	44.927552	255.891236	-72.46999	0.802384	-0.325994	-0.584068	2.934655	1.674112	9.684291	25.562579	-10.081875	6.497024	-0.146849	0.073846	-1.054879	10.468397	2.422918	-4.463366	-5.021474	11.794139	2.47827	-0.503413	-0.434501	0.30395
-4.076752	1.715393	12.047613	75.229255	253.020832	-75.027838	0.842102	-0.299918	-0.539059	2.874695	2.293808	9.626964	13.941362	-6.016066	4.585909	-0.160491	0.056307	-1.0249	9.825262	2.193335	-4.176925	-9.463189	7.866067	2.176905	-0.530324	-0.370965	0.315989
-4.087721	1.483214	11.478117	79.663939	246.459495	-74.073548	0.884121	-0.339168	-0.491047	2.870399	2.011966	9.400168	6.246705	-3.960808	3.582818	-0.14825	0.083807	-0.984134	9.60831	2.02385	-3.163651	-11.538681	3.592384	6.544898	-0.489293	-0.436775	0.350603
-2.812187	0.094496	9.337518	94.441761	250.30522	-76.814897	0.897113	-0.332828	-0.46666	2.523905	1.956234	9.336228	-1.293797	-1.932671	2.332958	-0.120967	0.118886	-1.044092	9.491223	1.617588	-3.167583	-14.950247	0.668792	7.090805	-0.502925	-0.402942	0.317803
-1.024486	-0.963014	4.139435	92.728618	228.167061	-64.130874	0.895241	-0.333171	-0.413772	2.481601	1.562598	10.014362	-6.303348	0.001501	1.608283	-0.16034	0.086948	-1.026907	9.676804	1.735313	-2.684532	-18.917509	-0.671794	5.216582	-0.475251	-0.400881	0.286888
0.304982	0.072875	4.851626	77.350146	171.000295	-50.444443	0.922725	-0.323677	-0.403811	2.305062	1.67544	9.840911	-10.622245	0.409618	1.146444	-0.133723	0.104562	-1.057162	10.091713	1.90909	-2.556273	-22.7404	-0.375237	4.801116	-0.474968	-0.404186	0.348999
19.208749	-1.457283	-0.186013	73.902478	98.435401	-62.321603	0.937245	-0.355122	-0.383252	2.356368	1.787756	9.559017	-12.811156	0.721115	0.839499	-0.185482	0.074693	-1.068402	9.676109	1.560837	-2.74518	-25.399414	1.682282	6.05406	-0.47483	-0.387167	0.332634
4.393999	-1.348694	9.01696	42.650102	-27.506876	-39.768157	0.936102	-0.331108	-0.376008	2.416651	0.999068	9.616202	-14.142445	0.460753	0.558385	-0.173762	0.05516	-1.010275	9.50966	1.737943	-2.148671	-27.807271	4.011612	7.732715	-0.489301	-0.399433	0.255762
9.825558	-2.515737	5.764697	62.584055	-112.654552	-30.381244	0.937631	-0.368893	-0.379837	2.540028	1.111846	10.015192	-13.378312	-0.145161	0.922913	-0.16056	0.101197	-1.013561	8.863223	1.507619	-2.041951	-28.742696	5.428897	9.379848	-0.489435	-0.435123	0.319548
5.195376	-3.544881	6.011279	44.882029	-127.709994	-27.906296	0.921624	-0.351561	-0.344091	2.368649	1.055886	10.068157	-11.842878	-0.775566	1.842725	-0.134093	0.08817	-1.041809	8.867105	2.205767	-1.73945	-29.007377	6.366118	10.354423	-0.502992	-0.420787	0.349696
1.502705	-3.421031	7.417565	21.724191	-115.449896	-14.850268	0.906318	-0.275275	-0.388973	2.19837	1.056304	10.177809	-10.15337	-1.491984	2.145243	-0.121413	0.087173	-1.027735	8.917298	1.738799	-2.279489	-27.343437	6.497936	10.011547	-0.461343	-0.400677	0.286958
2.113243	-2.966056	6.465242	14.817791	-105.716633	5.262463	0.937602	-0.334294	-0.41482	1.907694	1.28207	10.058675	-8.363779	-1.595936	2.762214	-0.134018	0.10349	-1.042812	8.802047	2.43697	-2.039096	-24.845991	6.599636	9.910319	-0.544858	-0.419747	0.31843
2.187485	-1.813407	7.380831	16.391892	-112.469554	26.491088	0.866228	-0.304879	-0.419906	2.704262	1.11119	9.622341	-6.262831	-1.425618	4.245357	-0.160045	0.08802	-1.041257	8.103872	1.917884	-1.575271	-22.808126	6.911601	10.02371	-0.516766	-0.385301	0.28584
2.478868	-1.180551	7.673318	26.817335	-128.572562	46.037394	0.895241	-0.333171	-0.413772	2.314925	0.943475	10.236772	-5.952442	-1.356946	3.722207	-0.121042	0.103565	-1.043088	7.51344	2.035386	-1.585781	-20.28116	7.140189	9.493856	-0.474834	-0.368496	0.285214
2.300258	-0.952108	7.329824	30.164374	-147.472285	62.429457	0.881863	-0.325739	-0.441575	2.593859	1.167926	9.846529	-5.953456	-1.448136	3.597987	-0.173311	0.147083	-1.016297	7.868658	2.499679	-1.457387	-17.931605	7.322704	10.401434	-0.503276	-0.417482	0.287585
1.049527	-0.891824	7.760394	30.44342	-161.485804	77.804555	0.881863	-0.325739	-0.441575	2.539143	0.942807	9.95841	-5.274125	-1.555934	2.641784	-0.147729	0.130841	-1.001495	7.763811	2.03806	-0.80259	-16.045126	7.722106	10.881742	-0.460784	-0.369945	0.31634
0.427316	-0.602472	8.147323	32.579324	-172.318367	92.734124	0.868886	-0.349379	-0.44847	2.416435	1.111729	9.616297	-4.470669	-1.573389	2.179834	-0.173612	0.085801	-1.012282	8.347545	2.906861	-1.027504	-14.781133	8.440962	9.834509	-0.516975	-0.401494	0.286677
0.596313	0.143661	8.040095	33.395873	-181.210434	104.142432	0.78642	-0.36056	-0.495847	1.897677	0.830999	9.54854	-3.759151	-1.387629	3.292071	-0.173386	0.131762	-1.015293	7.992867	2.210265	-1.156887	-13.64183	9.348284	8.267233	-0.502787	-0.385923	0.301438
-0.554053	-0.258807	7.73187	28.763654	-189.048048	115.245639	0.828796	-0.378983	-0.479403	2.194636	1.112492	10.007938	-3.423562	-1.777738	2.641068	-0.095976	0.1005	-1.00059	8.048967	1.570304	-1.398134	-13.08784	9.973139	7.192477	-0.475042	-0.384689	0.286051
-1.063982	0.02998	8.007321	17.491194	-194.063087	124.267872	0.815776	-0.350724	-0.538773	2.422156	1.280958	9.899637	-1.845765	-1.660519	1.841969	-0.122073	0.129919	-0.987696	8.115166	2.26906	-0.914812	-12.65208	10.774165	6.789736	-0.47483	-0.387167	0.332634
-0.537972	0.606435	8.588286	4.966025	-195.996096	129.543403	0.787921	-0.363746	-0.534659	2.929042	1.448553	9.400903	-2.406972	-2.095077	1.559742	-0.148175	0.099128	-0.985138	8.403354	1.918198	-1.330141	-12.191457	11.245103	5.777195	-0.475318	-0.418726	0.318781
-0.984588	1.758251	9.209589	-0.121938	-196.206492	129.738488	0.732196	-0.372491	-0.543923	2.13543	1.337875	9.950279	-1.817094	-1.872167	1.439121	-0.146849	0.073846	-1.054879	8.515479	2.09092	-1.626733	-11.171734	11.772287	5.434779	-0.516837	-0.384475	0.270313
-0.636856	2.103617	9.44513	2.311503	-198.459853	128.714311	0.718847	-0.399658	-0.536742	2.47588	1.393369	9.731022	-1.785151	-1.866341	0.606844	-0.173235	0.162403	-1.0173	8.689631	1.915545	-1.803894	-10.74078	12.240911	4.636315	-0.502787	-0.385923	0.301438
-1.206391	2.564287	9.606485	-0.268666	-203.1905	127.082105	0.677986	-0.40172	-0.574506	2.243739	1.112053	9.61267	-2.374252	-2.085225	0.110944	-0.134533	0.116667	-1.015116	9.102724	1.449744	-1.858076	-10.373315	12.371229	3.992519	-0.489438	-0.416451	0.272127
-1.149878	2.047031	9.548573	-10.792269	-209.196282	126.126225	0.663479	-0.387575	-0.577573	2.596731	1.562382	10.01678	-2.341607	-2.018471	-0.659068	-0.161371	0.113301	-0.971516	8.987318	1.741136	-1.67932	-10.162029	12.287481	3.289187	-0.516766	-0.385301	0.28584
-1.480167	2.222499	10.224853	-23.622968	-215.222482	123.307295	0.650116	-0.397443	-0.587884	2.124658	1.281118	9.440475	-2.678096	-1.804905	-1.150464	-0.134163	0.133059	-1.03047	9.579816	1.682204	-1.548749	-10.478788	11.898768	2.314155	-0.517046	-0.400667	0.27115
-1.503607	3.206525	11.990288	-30.016548	-219.49778	117.92395	0.63711	-0.386484	-0.629762	2.308558	1.112229	9.953716	-2.989693	-2.051731	-1.523105	-0.172946	0.103265	-1.041985	9.748466	1.505593	-2.025444	-10.795804	11.541594	1.247292	-0.474904	-0.36767	0.269686
-1.269437	3.781981	12.28142	-30.952883	-221.118997	108.614264	0.567236	-0.360255	-0.67366	2.249245	1.393942	9.896105	-2.403363	-2.133663	-1.924212	-0.147139	0.132984	-1.030194	9.630143	1.15716	-2.089036	-10.901762	10.666402	0.059894	-0.489159	-0.401085	0.286818
-1.21111	3.839622	12.339628	-30.949842	-222.296942	95.875752	0.568779	-0.415339	-0.659997	2.424358	1.393714	10.013011	-2.804289	-2.077831	-1.862323	-0.134684	0.086026	-1.013109	9.515952	0.925867	-1.912505	-11.782869	9.641477	-1.704659	-0.517046	-0.400667	0.27115
-1.15138	3.495414	12.453	-33.86007	-224.049127	83.748378	0.498548	-0.409938	-0.672327	2.369103	1.450247	10.125129	-2.834599	-2.046551	-2.016176	-0.16041	0.131837	-1.015569	9.155543	1.273898	-2.217158	-12.692785	8.488408	-2.918353	-0.503067	-0.401289	0.286748
-1.35846	3.959937	13.587538	-38.285179	-226.022056	68.769979	0.472193	-0.426146	-0.707024	2.187059	1.281199	9.668243	-3.175495	-2.19956	-2.727015	-0.135124	0.114523	-0.986417	9.687363	0.982302	-2.208491	-13.880436	7.365886	-4.222861	-0.503555	-0.432848	0.272894
-1.349842	4.363958	14.044052	-41.749606	-226.047129	53.328559	0.471793	-0.395075	-0.727932	2.015572	1.28157	9.721256	-3.672419	-2.391233	-2.513525	-0.15997	0.10334	-1.042261	9.631804	1.389958	-1.968233	-15.216673	6.884275	-5.438192	-0.503343	-0.435327	0.319477
-1.751819	4.47889	13.979887	-47.575002	-226.270224	38.103912	0.400447	-0.400259	-0.698034	2.070504	1.394029	9.60928	-3.365304	-2.511383	-2.298677	-0.15997	0.10334	-1.042261	9.688369	1.970336	-2.024567	-16.336318	6.308832	-6.378795	-0.502929	-0.384271	0.270383
-2.081901	4.367151	14.654961	-57.839274	-226.314427	24.273413	0.442023	-0.356541	-0.723405	2.538927	1.055468	9.958505	-2.905863	-2.841213	-2.548211	-0.108807	0.070856	-1.012657	9.80391	1.620868	-2.20357	-17.733872	5.826372	-7.532756	-0.516766	-0.385301	0.28584
-2.225827	4.373306	16.072948	-66.396633	-229.29959	12.750369	0.372535	-0.344084	-0.763887	2.426776	1.393809	10.12629	-1.574988	-2.668616	-2.915359	-0.121557	0.116742	-1.015392	9.876807	1.33332	-1.484823	-19.012029	5.165543	-9.144698	-0.489438	-0.416451	0.272127
-3.017865	5.065356	16.571932	-66.297518	-232.055524	3.536074	0.31491	-0.318572	-0.755246	2.075447	1.337888	9.835791	1.351617	-3.247506	-2.487169	-0.160115	0.132909	-1.029918	9.565375	1.737066	-2.327291	-19.639798	4.68775	-10.484805	-0.489159	-0.401085	0.286818
-3.342918	5.701563	17.534408	-62.588723	-233.230675	-2.535242	0.316081	-0.377184	-0.727507	2.185612	0.77413	9.554537	5.140833	-3.942313	-1.41205	-0.185621	0.164472	-1.045724	9.272495	1.738236	-2.21298	-20.047772	4.203168	-11.09222	-0.502579	-0.369731	0.300601
-4.154129	5.182998	17.00497	-59.3712	-226.219111	-6.386918	0.274792	-0.313577	-0.821162	2.026428	0.662314	10.173851	8.84327	-4.29232	-1.659175	-0.172575	0.119658	-1.057338	9.275351	0.983495	-2.156287	-20.390831	3.619474	-10.965951	-0.489718	-0.431818	0.257436
-5.417274	5.470394	16.811121	-61.298203	-210.561952	-7.047198	0.20496	-0.339247	-0.812584	2.356152	1.900417	9.559112	13.199038	-4.209002	-1.254078	-0.15982	0.133981	-1.044268	9.686148	1.504986	-2.206266	-20.615888	2.766905	-11.41947	-0.53158	-0.449449	0.273591
-7.145959	5.354342	16.208702	-69.206536	-187.868111	-4.171714	0.203431	-0.301462	-0.808756	2.194312	1.281484	10.00808	15.692664	-4.880955	-1.505377	-0.134313	0.102419	-1.028463	9.459137	0.926497	-1.793791	-20.378684	1.699039	-11.598594	-0.503417	-0.415829	0.256529
-9.30637	5.818827	16.964263	-77.356368	-162.522232	3.225012	0.175162	-0.266114	-0.843041	2.533768	1.22427	9.732088	18.747775	-5.145185	-2.06045	-0.160485	0.116517	-1.014565	9.514987	0.867544	-1.972659	-20.233381	0.940209	-12.115018	-0.489785	-0.449663	0.289329
-11.347688	4.560706	17.885372	-62.896391	-142.56419	14.731412	0.160655	-0.251968	-0.846108	2.590148	1.843798	9.733819	20.643783	-4.259009	-2.605016	-0.198603	0.104187	-1.055783	8.876948	0.813426	-1.385942	-19.09476	0.420507	-11.749943	-0.503279	-0.398811	0.240164
-13.589685	4.790159	17.388086	-32.507816	-131.494441	29.971688	0.132772	-0.230391	-0.876977	2.423042	1.449997	9.956419	21.723466	-4.367752	-2.636056	-0.173461	0.116442	-1.014289	8.940501	0.756204	-1.145461	-17.919921	0.263262	-10.928324	-0.48958	-0.414799	0.241071
-14.951284	5.068669	15.089559	-4.639115	-131.999596	47.911826	0.133915	-0.254405	-0.884221	2.016888	1.225287	9.777848	22.86726	-4.406328	-3.899463	-0.134904	0.100275	-0.999763	8.760827	0.465487	-1.329719	-15.823837	-0.038875	-10.567751	-0.490206	-0.463376	0.243583
-16.241628	3.556759	10.511654	3.918374	-138.206338	67.161865	0.090438	-0.263866	-0.840946	2.365692	1.337444	9.955115	22.898229	-4.405533	-3.961086	-0.185847	0.118511	-1.042713	9.107646	0.753573	-1.681322	-13.112872	-0.583824	-10.177683	-0.503835	-0.448214	0.258203
-18.431673	2.508664	6.77066	-20.226337	-140.27167	87.490554	0.089653	-0.219025	-0.865269	2.425483	2.069775	10.126859	22.159913	-4.227122	-4.545635	-0.16019	0.117589	-1.028915	9.04863	0.753709	-1.682422	-10.679379	-1.067645	-9.878583	-0.531721	-0.447796	0.242535
-20.860234	1.643474	5.469506	-51.661995	-130.266652	106.225411	0.060654	-0.208033	-0.853911	2.13744	2.182975	10.120909	20.366026	-4.347087	-3.746747	-0.173392	0.071553	-1.025628	9.166507	0.346659	-1.741859	-9.179219	-2.128734	-10.276238	-0.503209	-0.399637	0.255692
-23.036856	2.966204	5.432744	-64.234315	-106.358427	121.452172	0.005701	-0.24432	-0.856342	3.047106	0.547096	9.459202	23.736302	-4.202301	-5.283986	-0.173241	0.102193	-1.027635	9.404097	0.636994	-1.616407	-7.675431	-2.730983	-10.676094	-0.503555	-0.432848	0.272894
-24.638706	4.289002	5.520822	-56.02981	-69.041035	128.377908	0.004558	-0.220306	-0.849098	1.910135	1.901848	10.229116	20.705355	-4.603067	-6.153587	-0.172871	0.118586	-1.042989	9.170098	0.696104	-1.500748	-5.98272	-3.091636	-10.711063	-0.531438	-0.451101	0.304646
-25.274736	5.207317	5.22817	-31.231165	-22.978044	123.998136	0.005315	-0.230549	-0.859758	2.477927	0.323089	9.730121	24.231688	-4.190192	-6.177472	-0.147364	0.087023	-1.027183	9.051101	0.638051	-1.563103	-5.20504	-3.412405	-9.000963	-0.46232	-0.463794	0.259251
-23.675822	6.411705	5.093856	-5.768948	16.642439	112.70829	-0.024455	-0.192015	-0.855231	2.192241	1.732081	9.95182	21.782968	-4.951702	-7.019361	-0.161087	-0.006046	-1.006536	9.117239	-0.05776	-1.265435	-5.400126	-2.831665	-6.069168	-0.531442	-0.43243	0.257226
-21.731435	4.916092	4.954881	15.006578	45.093112	97.541185	-0.02334	-0.18143	-0.897459	2.59101	1.393153	9.73344	21.727452	-4.63355	-8.896727	-0.174057	0.054088	-0.995925	9.292242	0.34812	-1.32031	-6.225409	-2.413663	-5.36526	-0.517534	-0.432226	0.257296
-18.110546	4.227077	5.704372	28.184069	62.464014	77.831169	-0.036732	-0.156699	-0.942754	2.768434	1.44935	9.963672	20.05459	-5.051561	-9.179677	-0.14781	0.05531	-1.010826	9.05025	0.056796	-1.685389	-7.085784	-1.832424	-5.670533	-0.489998	-0.447184	0.242746
-15.99003	4.398351	5.860001	29.07042	72.984257	52.861724	0.019407	-0.196324	-0.895091	2.652657	1.787549	9.961539	19.273836	-5.792713	-9.896707	-0.186593	0.025516	-1.022341	8.814746	0.289888	-1.628895	-7.508432	-1.012796	-5.214491	-0.503835	-0.448214	0.258203
-13.499553	4.977257	7.388475	28.788249	82.347749	21.004496	-0.009206	-0.199104	-0.880317	2.476465	2.351083	9.845107	16.181054	-6.108307	-9.840678	-0.173172	0.057304	-1.038974	9.227704	-0.117837	-1.68283	-8.856687	0.084173	-5.275966	-0.517046	-0.400667	0.27115
-1.621784	22.731324	24.288826	-122.271168	167.876788	26.907904	-0.051224	-0.159853	-0.928329	2.647259	1.449329	9.678056	11.980328	-8.609696	-10.608789	-0.161232	0.023523	-0.994193	9.980669	1.27176	-2.261659	-10.832354	-0.166694	-5.359299	-0.545003	-0.399423	0.239954
22.903146	-11.69205	-1.919035	127.430508	165.959508	-64.874902	0.00603	-0.188893	-0.922894	2.890903	0.773406	10.248719	0.007172	-12.649458	-11.614238	-0.174132	0.038768	-0.994921	10.911627	2.25442	-2.838918	-11.452298	-3.64335	-6.562919	-0.51788	-0.465437	0.274498
35.727481	8.283639	10.803641	-27.338058	83.698588	-99.273144	0.048034	-0.210845	-0.892374	2.428201	1.281195	10.182835	-20.207231	-17.797242	-4.529681	-0.160711	0.070556	-1.011554	12.037761	2.543471	-2.517239	-11.710919	-8.344016	-7.578628	-0.518089	-0.48163	0.275335
-5.383237	5.23552	15.617354	50.966299	110.186569	-224.682656	0.075889	-0.197823	-0.896488	3.136495	2.238279	11.104382	-19.88492	-24.248164	-6.905639	-0.186663	0.070406	-1.011003	11.514278	1.616705	-2.231564	-10.772552	-12.126176	-5.30244	-0.517534	-0.432226	0.257296
-5.339131	5.929701	3.288938	-8.451882	127.289313	-174.982726	0.103759	-0.2021	-0.88311	2.187396	10.531941	23.999795	-16.979044	-45.020713	-23.232413	-0.173392	0.071553	-1.025628	10.866201	1.618438	-2.183762	-11.992083	-11.008021	-4.41707	-0.517951	-0.464611	0.25897
-4.837643	3.091151	11.242986	-24.871018	138.652718	-113.699223	0.14612	-0.203224	-0.884158	2.166439	-0.578656	8.533886	-4.164208	-73.917955	-16.573287	-0.187479	0.022301	-0.979292	12.15925	2.950722	-2.27368	-11.855527	-11.250057	-1.665818	-0.517463	-0.433052	0.272824
-4.053024	8.959299	13.556198	4.515177	115.601505	-70.985225	0.132772	-0.230391	-0.876977	1.88861	4.159126	14.816403	-5.059814	-85.989295	-15.954129	-0.198898	0.103115	-1.041434	13.156928	3.934977	-2.43049	-12.376704	-12.50277	-4.928093	-0.517676	-0.430573	0.22624
-5.27402	4.577442	9.47902	0.379286	113.152261	-43.647962	0.160241	-0.203599	-0.884507	2.151089	2.242211	13.461484	-7.679185	-104.462991	-10.930013	-0.21284	0.024294	-1.00744	13.290481	3.415237	-1.651725	-11.173884	-13.030319	-9.697461	-0.47581	-0.431614	0.257507
-4.780513	3.263434	11.244823	-29.011423	110.965413	-1.026133	0.17549	-0.210688	-0.909592	2.40445	2.806034	14.599586	-12.17937	-123.028739	-9.885016	-0.226256	0.052716	-0.980472	12.40744	3.417756	-1.548418	-11.22651	-11.309145	-10.530616	-0.503697	-0.431196	0.241838
-1.087848	0.96891	12.670908	-39.464949	84.484854	2.468229	0.231587	-0.198415	-0.914405	1.931969	3.369774	14.080633	-16.773926	-143.858742	-5.656493	-0.264524	0.009746	-1.019683	12.770725	2.779841	-1.125186	-8.523796	-9.382254	-9.602227	-0.517601	-0.450071	0.289189
-0.691184	-1.04304	12.385991	-11.770899	62.538527	-12.689325	0.203003	-0.235793	-0.864647	1.951897	4.328247	15.100952	-19.517413	-166.848525	3.515461	-0.239082	0.083282	-0.982204	11.885732	2.200859	-1.204072	-5.133305	-7.408746	-7.026252	-0.434362	-0.465039	0.290447
-0.30319	-0.299244	11.771539	15.343629	47.957099	-30.027326	0.202603	-0.204722	-0.885555	2.354639	4.440153	15.109509	-26.089561	-191.699759	17.16708	-0.277714	0.084129	-0.995726	10.117388	0.810837	-1.302926	-2.597446	-4.492282	-4.237696	-0.503555	-0.432848	0.272894
-1.649164	1.476366	10.332082	39.580294	39.298143	-39.716268	0.244564	-0.174776	-0.90751	1.785999	3.934494	15.380191	-32.808152	-216.02641	29.560173	-0.343706	0.034577	-0.948288	10.347255	0.634586	-1.658707	-2.438185	-1.9211	-1.40826	-0.503346	-0.416656	0.272057
-1.427159	1.934285	9.997348	51.227221	39.341386	-38.767502	0.230844	-0.205471	-0.886253	1.384358	3.878965	15.428321	-42.717514	-238.49992	42.956027	-0.356676	0.094712	-0.937677	9.404637	0.404689	-1.617396	-4.354893	-0.455692	1.158967	-0.475739	-0.43244	0.273034
-0.634013	2.793639	9.618585	44.182023	42.317541	-27.686847	0.258327	-0.195978	-0.876291	1.221225	3.935998	15.877858	-51.281956	-257.242132	56.143747	-0.344145	0.063074	-0.921595	8.582813	0.407569	-1.393175	-6.127555	0.408579	2.750557	-0.490695	-0.494935	0.229729
-1.111138	1.468472	8.580771	39.921196	50.861542	-18.671411	0.258699	-0.192449	-0.890367	0.648166	5.73989	16.150485	-59.137123	-273.929822	66.177082	-0.384029	0.104523	-0.86638	7.811762	0.640886	-1.586212	-6.835105	-0.373208	4.162782	-0.476645	-0.496383	0.260855
-2.534337	2.505386	9.012102	36.002082	59.106399	-15.673676	0.245379	-0.254216	-0.848203	2.371642	4.156781	13.184734	-56.027018	-283.108459	80.949781	-0.436228	0.103151	-0.850927	7.758248	0.642258	-1.287778	-5.485939	-2.123894	5.327684	-0.503768	-0.430369	0.226311
0.72555	-0.562748	17.53031	22.354864	54.881809	-11.838585	0.315567	-0.207719	-0.888348	4.643152	3.982245	11.760319	-73.276327	-284.063399	104.26761	-0.462104	0.118321	-0.85138	7.292876	1.051601	-0.875503	-4.478187	-4.11986	6.433876	-0.504114	-0.463581	0.243513
-5.286429	3.253392	8.791232	28.569412	20.743955	-20.600561	0.315939	-0.204191	-0.902424	6.983505	5.106109	13.678731	-72.523986	-272.971996	109.836084	-0.515409	0.127982	-0.779532	8.295921	2.095168	-0.732531	-0.882056	-8.124892	4.544985	-0.504185	-0.462754	0.227985
-1.488986	0.554523	9.706177	34.554258	18.834785	-15.128009	0.27362	-0.254965	-0.848901	3.824684	5.732005	14.009239	-33.024913	-270.030738	103.14428	-0.553816	0.17479	-0.796065	9.530724	2.14942	-0.948803	2.858063	-14.065714	3.58175	-0.476228	-0.463999	0.259181
-1.617774	3.366587	9.090391	22.364219	14.316513	-6.548104	0.259885	-0.268361	-0.845136	2.516619	3.479353	11.828442	-14.699925	-267.327066	101.027465	-0.555442	0.13879	-0.722309	9.767504	2.78821	-0.821867	6.13912	-15.819999	2.814149	-0.476436	-0.480191	0.260018
-3.962482	2.679471	9.155548	15.694336	10.086665	-4.880189	0.273248	-0.258493	-0.834825	4.066303	1.448212	11.462898	-10.094725	-259.578437	103.821542	-0.568193	0.184676	-0.725044	9.302382	2.616546	-0.471971	9.401118	-14.333564	5.118093	-0.475948	-0.448632	0.273872
-3.441293	2.220772	9.447904	16.444537	10.423058	-1.718022	0.259871	-0.251062	-0.862628	3.685367	2.576525	12.588176	4.773945	-256.51783	101.427981	-0.58213	0.166065	-0.680716	9.605706	2.385297	-0.04811	11.127434	-10.252835	10.380068	-0.448203	-0.447398	0.258484
-2.465865	2.392874	9.581264	15.954221	9.638249	-0.471973	0.301847	-0.238415	-0.867092	4.704967	3.024613	11.874001	13.145896	-255.321595	113.256292	-0.608892	0.178019	-0.638119	9.247613	2.21089	-0.295082	12.887092	-4.810557	14.137887	-0.517605	-0.4314	0.241768
-3.667094	2.393986	9.614734	16.075024	9.800471	-1.17505	0.316367	-0.26986	-0.846533	3.774865	-1.086454	11.058242	16.075869	-264.78539	119.763419	-0.661085	0.236857	-0.612331	10.010441	2.673002	-0.458519	12.869838	-0.269096	15.675165	-0.503488	-0.415003	0.241001
-1.314504	1.416745	9.883697	14.978086	8.963294	1.72795	0.259113	-0.240819	-0.851968	2.910188	-4.97908	2.544523	33.453752	-254.094026	87.044866	-0.636465	0.202079	-0.553476	9.548061	2.269527	0.010202	10.83341	2.927512	16.431453	-0.489505	-0.434296	0.30402
-3.732599	3.024195	9.218303	10.905783	8.088804	3.994848	0.272477	-0.230951	-0.841657	-1.951194	-1.306918	4.257315	16.700826	-210.415512	70.692042	-0.624224	0.229579	-0.51271	9.649607	2.730404	-0.824316	9.538242	6.55921	16.785614	-0.489923	-0.466681	0.305694
-1.771923	2.106617	9.934538	16.35225	8.514333	1.226015	0.28774	-0.255339	-0.849251	-3.816615	-3.158698	8.349338	-0.473503	-169.160676	70.440553	-0.663748	0.167	-0.493518	9.484258	2.907757	-0.167899	8.230734	9.500312	15.889873	-0.503626	-0.432022	0.257366
-2.875678	2.563559	9.119369	12.916669	6.129031	4.171879	0.274006	-0.268736	-0.845486	-5.440999	-1.40743	10.581334	11.461285	-103.304436	36.912516	-0.690285	0.224916	-0.453932	9.644125	3.194024	-1.061965	7.944282	12.593672	15.417646	-0.476019	-0.447806	0.258344
-1.550286	1.530347	9.538607	17.322639	6.075868	2.532964	0.315624	-0.276916	-0.818381	-5.846955	-2.756461	13.006027	53.185373	-31.956063	-4.118149	-0.676869	0.196494	-0.4809	9.639858	3.134959	-1.30184	7.332162	13.980069	14.251719	-0.503417	-0.415829	0.256529
-1.489157	2.335452	9.770511	13.12162	4.404912	4.511274	0.272491	-0.24825	-0.824165	-2.763588	-3.267915	14.542302	79.905316	36.136933	-35.787782	-0.664703	0.208674	-0.43913	8.926432	3.019191	-1.615074	6.027932	14.365529	12.023279	-0.475601	-0.415421	0.25667
-2.294018	2.277867	9.584122	14.46459	5.835485	0.881234	0.286626	-0.265924	-0.807023	-6.387557	-2.362031	11.975966	101.868658	62.226682	-50.091061	-0.664408	0.209746	-0.45348	8.983672	3.309189	-1.672645	3.880493	13.433169	9.743091	-0.531166	-0.398393	0.224496
-0.28871	1.874567	9.678258	12.901195	3.920205	3.798687	0.302247	-0.269485	-0.846184	-5.787562	-3.32221	10.34591	99.744094	77.36324	-48.89416	-0.650697	0.182396	-0.494798	8.811161	3.252507	-1.436566	1.674099	11.967608	8.718862	-0.503768	-0.430369	0.226311
-1.726011	2.39137	9.368327	7.070464	2.726613	3.673404	0.259113	-0.240819	-0.851968	-4.994883	-4.619938	9.625429	78.968501	93.419729	-37.28409	-0.651727	0.208749	-0.439406	8.160208	3.544125	-1.507341	-0.260193	9.581851	8.034261	-0.48958	-0.414799	0.241071
-3.328353	2.852304	9.395933	6.725366	1.496122	3.623732	0.330102	-0.256463	-0.850298	-4.248865	-5.297447	9.470657	57.329897	113.980643	-32.31892	-0.650697	0.182396	-0.494798	8.509882	3.07747	-1.802251	-1.17296	7.688926	7.374176	-0.531375	-0.414585	0.225333
0.284948	1.874394	9.746246	6.574777	2.17637	3.205879	0.274377	-0.265208	-0.859561	-2.70226	-4.455637	9.220811	36.887096	135.965483	-32.36322	-0.676284	0.138428	-0.519935	8.51633	2.672174	-1.504447	-1.998365	5.464589	6.256893	-0.518093	-0.462958	0.227915
-2.016903	2.620379	9.136312	6.515331	2.828052	2.63396	0.289641	-0.289596	-0.867155	-1.246309	-4.401337	10.044035	20.641253	154.707976	-39.526334	-0.636986	0.155046	-0.536115	8.696254	2.381884	-1.382568	-1.891988	3.230683	6.389427	-0.517258	-0.398189	0.224566
-2.541758	1.986724	8.611959	4.748675	5.073226	1.786176	0.287383	-0.276167	-0.817683	-0.147492	-3.896173	10.350629	6.551073	167.804049	-50.627749	-0.623494	0.141944	-0.564087	8.57299	2.264765	-1.684798	-1.658054	1.703335	6.273611	-0.517467	-0.414381	0.225403
-1.836149	2.507301	9.593995	6.586996	3.799925	3.692239	0.302275	-0.304084	-0.8112	0.304269	-3.108692	10.021127	-4.864254	174.885252	-64.314205	-0.584196	0.158561	-0.580268	8.583029	2.208914	-1.145883	-1.448272	1.001494	6.184508	-0.503346	-0.416656	0.272057
-1.830374	2.2213	9.877054	5.510901	3.178897	3.807912	0.28814	-0.28641	-0.828343	1.215561	-2.434783	9.644561	-17.866665	178.726023	-77.386523	-0.622389	0.130911	-0.620482	8.702297	2.150816	-1.084023	-1.079652	0.508663	6.643992	-0.503697	-0.431196	0.241838
-1.722961	2.794185	9.540575	4.254684	3.203414	3.842594	0.302247	-0.269485	-0.846184	1.397759	-1.082699	10.215722	-28.207507	183.112866	-89.187196	-0.570786	0.06993	-0.617571	8.766795	1.687061	-0.845272	-0.429297	0.319258	7.43722	-0.517538	-0.413555	0.209875
-1.376668	2.047679	9.657825	4.493387	2.44079	3.430838	0.373621	-0.2989	-0.841098	0.87542	-0.124205	10.092369	-34.550786	188.814255	-97.550051	-0.582946	0.11796	-0.649005	8.769826	1.803955	-0.665057	0.19154	0.530874	7.892432	-0.489722	-0.413146	0.210016
-1.893362	2.449901	9.59264	2.572326	3.092224	4.826978	0.275149	-0.29275	-0.85273	0.999683	0.157611	10.548141	-35.127549	194.014618	-102.430265	-0.530307	0.090835	-0.69115	8.829922	1.339212	-0.665935	0.595854	0.867225	8.042187	-0.503768	-0.430369	0.226311
-1.894517	2.507102	9.536028	3.428929	3.163257	4.334993	0.287383	-0.276167	-0.817683	0.866358	1.452812	9.810499	-35.149374	199.415759	-104.164183	-0.556704	0.058972	-0.674242	9.178112	1.511394	-0.958125	0.973497	1.474991	8.557522	-0.489163	-0.382414	0.239397
-2.302844	2.161054	9.128814	1.834839	2.937914	4.581256	0.301904	-0.307612	-0.797124	0.91667	1.45242	9.47187	-41.925498	205.883161	-104.105259	-0.517406	0.075589	-0.690422	9.35595	0.697677	-1.018192	1.468504	1.753018	8.462707	-0.530887	-0.383026	0.239187
-1.442214	2.73533	9.261636	0.728362	2.534991	4.424557	0.330488	-0.270234	-0.846882	1.150797	1.959153	9.703691	-51.468358	213.705973	-101.291928	-0.51615	0.095197	-0.748825	9.061025	1.105131	-0.962056	1.566418	2.332982	8.612409	-0.517116	-0.399841	0.255622
-3.279758	2.505684	8.940774	-0.873232	1.580085	3.953641	0.300746	-0.266299	-0.807372	1.332433	2.973206	10.217928	-57.925752	221.402179	-96.59721	-0.490424	0.049386	-0.746365	9.350873	0.987068	-1.256583	1.260603	2.544426	8.765333	-0.489442	-0.39778	0.224707
-1.832518	2.105934	9.762865	2.446348	2.256338	5.304428	0.272862	-0.244722	-0.838241	1.345993	4.100433	10.955191	-58.484012	226.766903	-89.208529	-0.476857	0.051605	-0.775341	9.764797	0.637667	-1.250363	0.340252	2.873806	9.133875	-0.50335	-0.397984	0.224636
-1.718916	1.818403	9.707032	3.112306	1.250556	4.82616	0.301889	-0.290313	-0.814616	1.016231	4.77771	11.741461	-52.588159	232.01988	-80.33615	-0.449939	0.130501	-0.80961	9.121256	0.582312	-0.963181	-0.983126	3.050686	9.321215	-0.517258	-0.398189	0.224566
-1.549711	2.277328	9.598597	-1.197127	3.418233	4.352453	0.287397	-0.293466	-0.800191	1.347571	5.170855	11.126011	-45.603896	237.780549	-72.104979	-0.397821	0.056342	-0.834394	9.17369	1.045549	-1.259637	-2.094165	2.955554	9.264562	-0.531162	-0.417064	0.271917
-1.494683	2.276804	9.486004	2.35851	4.21598	3.220495	0.303018	-0.297027	-0.839352	1.291669	5.565371	11.238413	-41.507851	244.790871	-63.956023	-0.345326	0.058786	-0.864196	9.651456	0.987629	-0.951546	-2.191218	2.591295	8.961001	-0.488812	-0.367874	0.269616
-0.570445	1.760856	9.89962	5.879112	1.645563	6.357961	0.287354	-0.241568	-0.852666	1.366505	6.016619	12.089595	-38.54929	252.10265	-57.346075	-0.371504	0.012675	-0.860634	8.891274	1.281495	-0.545268	-2.411118	2.287772	8.657596	-0.475255	-0.38221	0.239468
-0.910673	1.81927	10.06374	7.602515	3.63604	5.005339	0.303018	-0.297027	-0.839352	1.846562	5.284171	12.948244	-32.88867	258.045174	-51.518121	-0.332206	0.029292	-0.876815	9.060059	1.046808	-1.02221	-2.104087	2.167151	8.59593	-0.503279	-0.398811	0.240164
-1.99859	1.93494	10.043066	9.274256	2.744911	2.962009	0.316382	-0.287159	-0.829041	1.752437	5.679554	13.965671	-23.447297	262.676441	-43.850594	-0.33191	0.030364	-0.891164	9.064596	0.989721	-0.78283	-1.427663	2.142154	8.28795	-0.503492	-0.396332	0.193581
-0.401033	1.932574	9.789978	5.095235	4.296225	5.391289	0.317125	-0.280102	-0.857193	2.688336	6.12909	14.721708	-6.653258	265.124478	-34.503349	-0.265844	0.095237	-0.939607	8.832933	0.99125	-0.547604	-0.477663	1.535687	8.104014	-0.531587	-0.412106	0.17875
-2.504309	1.018179	10.484008	19.605075	5.198656	7.633526	0.273663	-0.306863	-0.796426	3.035453	5.227155	14.728203	2.64623	266.101672	-25.423219	-0.278971	0.064521	-0.937324	8.650093	0.641716	-0.91183	1.029752	1.237114	7.916591	-0.517049	-0.381996	0.223729
-3.78136	3.600582	9.674427	13.182181	8.235933	13.619908	0.287383	-0.276167	-0.817683	3.277218	4.269485	15.185349	8.43707	268.104993	-16.212219	-0.188214	0.049726	-0.93825	9.072144	0.584672	-0.425119	3.489904	0.420066	7.91158	-0.531308	-0.39674	0.19344
-3.086264	3.257124	10.084313	1.223027	11.429092	14.442193	0.301161	-0.314669	-0.768973	5.594294	3.026376	15.799058	11.6816	261.951888	-5.20384	-0.173467	0.056232	-1.024624	8.657526	0.759598	-0.491988	6.225867	-0.485857	7.722606	-0.517116	-0.399841	0.255622
-3.046711	2.461387	12.070793	-6.208393	16.042439	11.134677	0.301518	-0.293841	-0.80054	7.49667	2.23424	15.894928	11.588998	250.857542	5.845375	-0.12319	0.020532	-0.951971	8.825365	0.931443	-0.9672	8.99675	-1.0268	7.745717	-0.544727	-0.365386	0.207224
-2.132442	2.505337	9.07675	31.999168	32.345178	6.56705	0.301889	-0.290313	-0.814616	10.471892	0.988558	14.993875	2.308797	236.391115	18.333669	-0.08256	0.072078	-1.027558	9.058804	0.639782	-1.143755	11.678429	-1.72953	8.595175	-0.544586	-0.367038	0.238279
-2.035848	3.547929	11.128918	2.453201	32.944507	12.089763	0.27362	-0.254965	-0.848901	13.580401	0.363054	15.001994	-14.160165	224.905269	29.150536	-0.08293	0.055686	-1.012205	9.541647	0.29247	-0.597273	14.322338	-2.760652	8.651651	-0.531446	-0.413759	0.209805
-3.968754	3.654771	8.875385	-8.319656	46.259196	17.826243	0.28814	-0.28641	-0.828343	16.806482	0.357114	15.182973	-25.825288	211.885275	35.547486	-0.031177	0.025345	-1.011301	9.889702	0.522728	-0.889215	15.415356	-3.935125	7.247316	-0.516979	-0.382822	0.239257
-2.385605	4.466036	10.841833	-2.994169	39.937684	2.95781	0.303033	-0.314326	-0.821861	19.879849	0.406249	13.605753	-35.906743	186.856992	35.875963	-0.003228	0.077887	-1.100961	9.843216	0.81621	-0.170197	15.64117	-5.043321	5.051152	-0.488958	-0.34755	0.19114
-2.05181	4.061525	10.335147	-6.939973	46.562358	-5.602241	0.317539	-0.328472	-0.818794	22.553932	1.695647	12.304312	-45.19221	153.879616	34.800294	0.020582	0.055214	-1.000061	10.420462	1.160596	-0.816685	14.915804	-5.729233	3.100965	-0.502724	-0.349407	0.222125
-0.894888	4.637765	10.985213	-13.289279	51.804176	-15.159751	0.316739	-0.266331	-0.860609	24.614414	1.578632	11.781342	-41.161621	118.063239	28.805179	0.034444	0.058505	-1.043386	10.834946	1.043746	-0.74957	14.841803	-6.14067	1.452771	-0.53089	-0.364355	0.191766
-0.937449	4.973247	8.826244	-18.789528	60.804756	-25.241918	0.330145	-0.308361	-0.797823	25.213331	1.181757	10.151759	-33.983595	86.527863	19.803226	0.073516	0.029161	-1.056556	10.770677	0.461638	-1.112584	15.302111	-6.227935	1.176452	-0.516841	-0.365804	0.222892
-2.930763	3.553176	12.191311	-22.282295	64.257573	-30.359469	0.373264	-0.319728	-0.809531	26.099167	-0.004378	8.414278	-26.488777	57.511089	5.000201	0.060546	0.089296	-1.045945	10.703128	0.343643	-1.593434	16.832089	-6.883039	-0.01792	-0.517258	-0.398189	0.224566
-1.913296	3.204885	11.527669	-22.551014	72.971246	-34.726078	0.387399	-0.337402	-0.792388	26.375398	-1.52641	7.739367	-21.142347	29.224825	-13.958493	0.087013	0.076269	-1.074192	11.063942	-0.178615	-1.289522	18.669071	-7.751778	-1.151247	-0.516561	-0.350437	0.237583
-3.87017	1.940168	10.91597	-28.493821	82.298574	-33.238315	0.358757	-0.305582	-0.812597	25.0959	-1.017539	7.146802	-20.489215	3.713713	-31.073862	0.0601	0.057583	-1.029588	11.117321	-0.121911	-1.587709	20.046216	-8.751462	-1.609902	-0.529772	-0.30289	0.250529
-2.250805	4.125646	11.865967	-24.569011	92.112207	-40.820064	0.386641	-0.327159	-0.781728	21.521039	-0.504071	6.845718	-15.006362	-20.199119	-39.938455	0.100134	0.046775	-1.08681	11.063652	-0.527319	-1.350912	21.789869	-9.898335	-2.497051	-0.516282	-0.335071	0.252273
-1.962668	1.54057	11.860676	-14.760592	101.336018	-40.084792	0.39959	-0.268921	-0.809816	17.374043	0.066946	6.702511	-7.798045	-38.496899	-36.939506	0.087013	0.076269	-1.074192	11.598618	-1.224952	-1.224161	22.610885	-10.804773	-3.290314	-0.488745	-0.350029	0.237723
-1.437398	1.59981	12.382616	-14.45462	111.079546	-40.325994	0.413754	-0.321194	-0.75769	13.03872	-0.038342	5.762154	-2.590965	-50.391175	-22.965955	0.04757	0.089221	-1.045669	11.136528	-1.279723	-0.69405	24.82476	-11.064196	-4.061143	-0.502929	-0.384271	0.270383
-4.081248	1.771869	11.820442	-11.792266	119.186239	-38.882782	0.386227	-0.278789	-0.820127	8.885956	-0.87592	5.221284	0.2142	-53.715864	-1.510091	0.073007	0.102547	-1.018525	11.083439	-0.987724	-0.334473	28.066108	-10.221017	-4.627017	-0.54431	-0.333001	0.20555
-3.980391	2.170982	11.142121	-22.486239	129.872721	-32.02184	0.39959	-0.268921	-0.809816	15.693373	5.036552	17.371675	46.095423	-141.78538	57.738898	0.04816	0.091364	-1.074368	11.08454	-0.987477	-0.274566	29.942991	-9.119729	-6.96174	-0.489025	-0.365395	0.223032
-2.697659	2.519786	12.361981	-10.640922	140.091139	-37.012349	0.454572	-0.267233	-0.772401	8.405909	-2.286558	1.473423	68.189688	-150.865399	53.13423	0.034745	0.119786	-1.047401	10.737066	-0.520328	0.140158	31.087432	-7.35257	-8.869096	-0.516632	-0.349611	0.222055
-2.856511	1.603499	12.980163	-8.689277	154.758099	-32.055569	0.470579	-0.284565	-0.808147	-11.506609	5.187121	1.967633	31.887661	-167.12536	47.301361	0.009082	0.060498	-1.071534	10.79008	0.640316	-0.033518	34.715933	-5.208732	-13.812642	-0.531028	-0.381374	0.208131
-2.599205	2.528671	14.466658	-4.779589	169.787499	-28.540298	0.482441	-0.271511	-0.759024	-5.746553	8.343057	16.018477	-113.542681	-180.855202	118.488474	0.008272	0.072603	-1.029488	12.235508	4.058481	-1.189558	29.357648	-2.295844	-22.271836	-0.475184	-0.383036	0.254995
-2.9693	1.673852	15.990278	0.236932	188.532828	-30.028869	0.525575	-0.300176	-0.75324	11.863344	2.624798	21.025644	-3.969013	-224.248955	188.486001	-0.055647	0.090764	-1.072163	14.027229	5.149829	-3.067768	22.582291	4.562856	-19.377042	-0.544377	-0.350846	0.237442
-2.873115	1.739696	17.981491	9.171696	211.816349	-32.129705	0.554202	-0.314697	-0.750522	17.957029	11.736913	18.897095	38.768601	-204.804719	39.5024	-0.043331	0.133585	-1.0324	14.695423	5.778391	-5.148584	16.306782	13.747141	-7.479902	-0.489025	-0.365395	0.223032
-3.305665	1.917901	19.280928	21.35659	239.895728	-33.579049	0.553073	-0.307982	-0.725786	9.162674	3.129971	13.156613	78.197475	-129.11946	-29.139616	-0.095021	0.058826	-1.054978	12.66968	4.093586	-6.451214	11.345819	15.961787	-4.446924	-0.51642	-0.35209	0.268638
-3.182953	2.896254	19.742082	27.772635	267.090367	-35.455584	0.566064	-0.301642	-0.701399	2.26362	0.831159	10.518666	51.462366	-100.9507	-20.311453	-0.121268	0.057604	-1.040077	9.711766	2.136518	-3.939746	8.124046	7.681582	-6.473929	-0.530119	-0.336101	0.267731
-3.704556	3.929368	19.452139	38.461523	298.826154	-41.043531	0.622932	-0.316912	-0.69938	2.087049	-2.830428	10.002201	76.5202	-105.794186	-5.049071	-0.133873	0.073921	-1.055155	8.25669	1.447184	-2.951806	12.855117	-1.275764	-2.353035	-0.503071	-0.382618	0.239327
-5.889298	4.158779	18.955966	52.092502	323.023698	-49.6464	0.677929	-0.332523	-0.644473	4.284853	-3.172128	10.500972	186.398795	-50.944592	34.984031	-0.134539	0.056457	-1.025452	8.970001	2.085884	-2.57644	13.674321	-5.159435	0.81049	-0.516841	-0.365804	0.222892
-7.760221	4.796105	19.888378	50.302427	319.515653	-55.036242	0.661908	-0.297892	-0.62622	2.514942	0.322175	8.768456	85.787399	-41.863684	26.730869	-0.147816	-0.004899	-1.021161	9.400411	1.275335	-1.733502	11.848098	-5.490873	5.61718	-0.516353	-0.334245	0.236746
-5.353391	4.90973	20.049334	80.576587	323.172653	-59.266864	0.719561	-0.358003	-0.599877	2.985206	2.180742	9.402728	40.269773	-24.156605	6.831346	-0.134174	0.01264	-1.05114	10.229419	1.971346	-1.475501	4.912106	-3.414504	-8.273572	-0.531166	-0.398393	0.224496
-2.439215	4.319408	16.864196	92.592117	329.989815	-68.118276	0.801655	-0.35035	-0.538424	3.247128	-0.46618	10.651406	57.957741	-19.629578	10.127595	-0.134325	-0.018001	-1.049133	11.755595	2.198409	-1.865249	1.978816	1.988519	-11.19198	-0.517116	-0.399841	0.255622
-0.195903	5.354152	17.480496	106.249454	317.169415	-71.618506	0.773043	-0.353129	-0.52365	2.505927	3.138559	8.600909	54.123923	-13.46055	1.831333	-0.147816	-0.004899	-1.021161	12.229115	2.546279	-1.735148	-0.913958	7.932375	-13.135142	-0.488675	-0.350855	0.253251
-1.700474	4.317663	16.594406	139.34097	309.254417	-85.61912	0.800555	-0.378234	-0.478705	2.757039	2.350259	9.511314	23.699017	-8.852148	2.376751	-0.187114	-0.021517	-1.004981	11.205587	1.788642	-2.955208	-2.917245	12.649907	-8.566364	-0.517329	-0.397362	0.209038
-0.071191	4.194823	15.034328	152.227584	310.891982	-89.403738	0.812404	-0.34788	-0.447073	0.979526	1.846863	9.756609	23.353776	-6.83428	2.612334	-0.161828	-0.038831	-0.975829	11.016724	2.135031	-3.556094	-4.00959	14.416694	-2.305722	-0.558773	-0.382608	0.223518
2.043765	1.627378	6.028608	152.089984	314.869278	-107.22852	0.838444	-0.404398	-0.328333	2.924815	3.02576	9.345591	13.394869	-5.629768	0.70495	-0.160717	0.010346	-1.021889	10.194339	1.905359	-3.392769	-7.769773	13.189585	-0.299682	-0.531166	-0.398393	0.224496
7.553471	0.554829	-1.995492	149.520616	258.829471	-101.996065	0.88042	-0.391751	-0.332796	2.407673	1.900072	9.277123	4.698077	-4.631101	-0.093649	-0.135656	-0.05293	-0.989727	9.844894	1.32615	-3.222123	-11.910527	10.739385	1.530227	-0.53054	-0.349815	0.221985
24.935569	2.170699	3.066345	112.210812	164.520823	-139.238972	0.892669	-0.392468	-0.280257	2.422287	1.844311	9.956751	-3.44825	-3.96814	-0.062783	-0.134325	-0.018001	-1.049133	9.443461	1.039188	-2.631993	-16.904192	7.921645	0.155858	-0.572405	-0.348775	0.190718
7.669269	-1.590755	6.749601	96.819253	52.799959	-204.161778	0.919381	-0.355432	-0.277127	1.901565	1.957847	9.832686	-8.688497	-3.171107	-0.829776	-0.147891	-0.02022	-1.020158	9.267648	0.981764	-2.575635	-21.576768	7.16125	-1.871288	-0.53054	-0.349815	0.221985
6.930214	-5.782966	6.831216	123.933013	-76.439802	-188.872164	0.918638	-0.362488	-0.248975	1.258698	2.578336	9.423433	-10.692682	-2.946632	-1.538201	-0.161093	-0.066256	-1.016871	8.681483	1.158331	-2.34627	-24.375341	7.417334	-0.976061	-0.503559	-0.414177	0.225473
