1757_acc_x	1757_acc_y	1757_acc_z	1757_gyro_x	1757_gyro_y	1757_gyro_z	1757_mag_x	1757_mag_y	1757_mag_z	1758_acc_x	1758_acc_y	1758_acc_z	1758_gyro_x	1758_gyro_y	1758_gyro_z	1758_mag_x	1758_mag_y	1758_mag_z	1759_acc_x	1759_acc_y	1759_acc_z	1759_gyro_x	1759_gyro_y	1759_gyro_z	1759_mag_x	1759_mag_y	1759_mag_z
-2.061489	0.497496	9.694801	-2.3329	0.846439	0.296482	0.204875	-0.23545	-0.917535	1.549051	2.521562	9.542709	0.04207	0.889001	0.111634	-0.079006	0.20536	-1.179085	9.857981	-1.272302	0.360065	3.186725	-0.904943	-6.048337	-0.570669	-0.20139	0.152129
-2.40716	0.382379	9.573932	-1.78431	0.138011	0.651404	0.126987	0.295035	-0.862539	1.718552	2.295774	9.376227	-0.327686	0.946633	-0.042231	0.158913	-0.486607	-0.881869	9.571008	-1.444124	0.773169	3.345115	-0.539839	-5.806162	-0.487681	-0.027167	-0.367402
-2.517339	0.555751	9.799841	-1.846886	-0.234187	0.921545	0.113609	0.302466	-0.890342	1.896214	2.858993	9.663526	-0.296013	1.008355	-0.041591	0.145422	-0.473505	-0.853897	9.747651	-1.270301	0.777212	3.445502	0.097513	-5.290021	-0.460074	-0.042951	-0.366424
-2.345741	0.785393	9.804147	-1.602048	-0.325933	0.980685	0.14185	0.301717	-0.891041	1.614193	2.352747	9.883613	-0.636785	0.913257	-0.22778	0.171229	-0.443786	-0.842106	9.571703	-1.269649	0.833818	3.328937	0.549922	-4.711087	-0.487331	-0.012627	-0.337183
-2.006213	0.152323	9.580761	-1.448751	-0.10627	0.646468	0.115124	0.281981	-0.911662	1.667893	1.845475	9.657837	-0.639203	0.700213	-0.476525	0.184205	-0.443711	-0.842382	9.449134	-1.212292	0.592236	3.368832	1.122725	-3.888795	-0.460421	-0.076162	-0.349222
-2.294961	0.496697	9.462935	-1.359339	-0.348914	0.396924	0.114009	0.271396	-0.869435	1.896299	2.182979	9.606317	-0.357571	0.951475	-0.843736	0.157292	-0.462397	-0.797777	9.447494	-0.980235	0.533318	3.280403	1.425137	-3.584299	-0.488307	-0.075744	-0.36489
-2.40081	0.843359	9.916981	-1.085087	-0.499548	0.240347	0.142222	0.305245	-0.905116	2.011106	2.351755	9.608877	-0.543403	0.918055	-0.782562	0.132301	-0.444011	-0.841279	9.693037	-1.269177	1.015739	3.341333	1.737245	-4.166686	-0.502215	-0.075949	-0.364961
-2.295209	0.841346	9.464383	-0.934021	-1.087259	0.629043	0.142236	0.287946	-0.887625	1.725458	1.845367	9.659046	-0.790208	0.916731	-1.060226	0.157738	-0.430685	-0.814134	9.627283	-1.21245	0.655445	2.872096	1.841537	-5.54076	-0.446162	-0.061418	-0.318933
-1.947104	0.669738	9.697752	-0.630771	-1.514686	0.498552	0.142579	0.326073	-0.936684	1.269901	2.409771	9.933047	-0.945732	0.823381	-1.153763	0.157958	-0.444933	-0.827481	9.50703	-1.677529	0.471545	2.257809	1.927936	-5.233332	-0.474258	-0.077193	-0.333765
-2.24245	0.897781	9.238325	-0.540147	-1.510433	0.161014	0.142265	0.253347	-0.852641	1.495651	2.240159	9.711182	-1.225262	0.697597	-1.216895	0.184645	-0.472208	-0.869074	9.565776	-1.561512	0.47314	1.736069	1.828292	-4.650295	-0.473561	-0.029442	-0.320748
-2.184823	0.380766	9.237267	-0.172883	-1.569832	0.128324	0.126958	0.329634	-0.897523	1.603852	2.070667	9.37362	-1.353441	0.299801	-1.59089	0.157813	-0.415364	-0.815138	9.570873	-1.386048	0.773416	1.002807	1.719676	-3.271836	-0.432467	-0.058735	-0.365447
-2.461074	0.383144	9.743377	-0.266704	-1.596126	-0.301185	0.142994	0.277703	-0.898285	1.263403	2.015173	9.592877	-1.230448	0.269698	-1.43695	0.144982	-0.445008	-0.827205	9.567551	-1.851645	0.531811	-0.196521	1.647237	-2.594779	-0.516052	-0.076979	-0.349503
-2.522989	0.669428	9.516058	-0.082728	-1.658122	-0.18005	0.127716	0.319391	-0.908183	1.090706	2.015497	9.58925	-0.953607	0.18103	-1.406781	0.158699	-0.412149	-0.858187	9.268359	-1.503256	0.348071	-0.746103	1.883339	-1.952107	-0.488237	-0.076571	-0.349363
-2.751924	0.554711	9.511121	0.285574	-1.344912	-0.544036	0.12813	0.271021	-0.869784	1.662087	2.35226	9.431705	-0.578668	0.493992	-1.649992	0.145497	-0.458185	-0.854901	9.150887	-1.270434	0.406766	-0.926186	2.121718	-1.402468	-0.487748	-0.045012	-0.335509
-2.118702	0.440096	9.693446	0.03814	-1.621255	-0.670487	0.142979	0.295003	-0.915777	0.97767	2.184799	9.700254	-0.302218	0.374659	-1.620128	0.17204	-0.455891	-0.884152	9.740218	-1.388184	0.357369	-0.426255	2.576667	-0.856323	-0.487957	-0.061204	-0.334672
-2.346938	0.900035	9.747776	0.591038	-1.559649	-0.456401	0.100246	0.292598	-0.900653	1.379873	2.578358	9.709048	-0.333657	0.342797	-1.497158	0.158253	-0.443861	-0.84183	9.45062	-1.851128	0.589517	-0.23438	3.27838	-0.615865	-0.48817	-0.058726	-0.381255
-2.071676	0.725091	9.184089	0.744801	-1.591751	-0.273357	0.100632	0.278827	-0.897237	1.499277	2.240301	9.8811	-0.426456	0.341017	-1.404766	0.17116	-0.398897	-0.830767	9.626163	-1.677552	0.533653	0.93921	3.527314	-0.621303	-0.487819	-0.044186	-0.351037
-2.407574	0.956794	9.576345	0.776748	-1.407564	-0.239788	0.171606	0.280483	-0.913059	1.548273	2.296192	9.48588	-0.367201	0.156806	-1.25241	0.171229	-0.443786	-0.842106	9.561934	-1.32995	0.294408	0.78773	4.080535	-0.929021	-0.473703	-0.027789	-0.351804
-2.118702	0.440096	9.693446	0.564125	-0.975883	-0.446836	0.128844	0.312677	-0.932919	1.434675	2.127464	9.539959	-0.152149	0.096006	-0.913733	0.158769	-0.457038	-0.869526	9.516799	-1.617228	1.010954	0.386928	3.954841	-0.743594	-0.502007	-0.059756	-0.365798
-1.78095	0.725849	9.417069	0.50686	-0.17401	-0.709651	0.128116	0.288321	-0.887276	1.502796	2.296774	10.051067	0.093055	-0.054183	-0.91503	0.145127	-0.474577	-0.839547	9.396275	-1.966156	0.82755	0.021378	4.069251	-0.100998	-0.474537	-0.092559	-0.348455
-2.12097	0.497055	9.579982	-0.503126	0.192832	-0.946127	0.128116	0.288321	-0.887276	1.267484	2.409677	9.819767	0.526587	0.042494	-0.790407	0.146308	-0.47029	-0.896946	9.567167	-1.212562	0.594437	-0.222183	3.907217	0.695294	-0.4607	-0.091529	-0.363913
-1.835978	0.726372	9.529661	-0.811168	0.19592	-1.343876	0.169734	0.28014	-0.860171	1.782808	1.95792	9.660349	0.806233	0.197535	-0.511188	0.158769	-0.457038	-0.869526	9.513767	-1.734122	0.830739	-0.220045	3.62371	1.491281	-0.502495	-0.091315	-0.379651
-2.464456	0.439862	9.573059	-0.596391	0.196227	-1.283153	0.127744	0.284792	-0.8732	1.31527	2.46552	9.367907	1.088216	0.507912	-0.538703	0.171525	-0.442714	-0.856456	9.637187	-1.210225	1.194607	0.118921	3.407962	1.766153	-0.446446	-0.058113	-0.381045
-2.068336	0.725815	9.354648	-0.932944	0.036474	-0.886095	0.141479	0.298189	-0.876965	1.605623	2.408745	9.487183	0.716553	0.441074	-0.416354	0.158178	-0.459182	-0.840827	9.744755	-1.445271	0.59675	-0.00907	3.136936	1.309461	-0.502424	-0.092141	-0.364124
-2.059221	0.440537	9.808266	-0.688698	-0.147468	-0.828451	0.113595	0.319766	-0.907834	1.262864	2.296826	9.593114	0.532749	0.590034	-0.10674	0.144907	-0.460329	-0.826201	9.804467	-1.270931	0.658499	0.015537	2.838397	0.607845	-0.501936	-0.060582	-0.35027
-2.115569	0.728027	9.865212	-0.595893	-0.337341	-0.310447	0.112838	0.330008	-0.897174	1.610566	2.352605	9.713694	0.282049	0.310713	-0.078891	0.158693	-0.472358	-0.868523	9.568807	-1.444619	0.653355	0.015613	2.869303	0.577134	-0.46035	-0.076989	-0.333694
-2.352049	0.266972	9.460856	-0.87188	-0.400788	-0.249348	0.142979	0.295003	-0.915777	2.069557	2.520686	9.666868	0.405547	0.283226	-0.32569	0.146383	-0.454969	-0.89795	10.216884	-1.446351	0.605553	-0.446566	2.929135	0.547959	-0.460704	-0.072857	-0.411333
-2.063923	0.784221	9.582302	-0.901992	-0.183374	-0.460404	0.142236	0.287946	-0.887625	1.322847	2.296813	9.707602	0.438116	0.406881	-0.416918	0.17182	-0.441643	-0.870806	9.68902	-1.90925	0.713485	-1.213607	3.043363	1.069765	-0.446446	-0.058113	-0.381045
-2.350237	0.84187	9.576976	-1.453211	0.094462	-0.79165	0.128501	0.27455	-0.88386	1.439294	2.240314	9.766612	0.530799	0.408057	-0.416832	0.159139	-0.440646	-0.88488	10.039141	-1.620421	0.541603	-1.393012	3.218357	1.83366	-0.48789	-0.043359	-0.366565
-2.293806	0.439496	9.519547	-1.697022	0.30844	-0.787471	0.128501	0.27455	-0.88386	1.611236	2.634305	9.770571	0.71632	0.439866	-0.231398	0.144832	-0.475649	-0.825198	9.861147	-1.213484	0.540033	-1.608932	3.248802	1.77317	-0.47412	-0.060174	-0.35013
-2.233169	0.382737	9.690978	-1.728794	0.342853	-1.124169	0.112838	0.330008	-0.897174	1.554556	2.803451	9.826144	1.121098	0.661829	-0.567974	0.17204	-0.455891	-0.884152	9.734871	-0.982641	0.119472	-1.458761	3.319047	0.947084	-0.474608	-0.091733	-0.363983
-2.640631	0.38158	9.342065	-1.758919	0.309892	-0.94061	0.130016	0.254064	-0.90518	1.266144	1.846277	9.706014	1.215807	0.816732	-0.628014	0.133332	-0.470365	-0.896671	9.692207	-1.385577	0.955338	-1.377011	2.874085	-0.365295	-0.488233	-0.095242	-0.301942
-2.468992	0.55378	9.34613	-1.730236	0.002717	-0.945684	0.113967	0.323294	-0.92191	1.440827	2.07137	9.82311	1.27857	0.908504	-0.47291	0.132602	-0.38273	-0.845293	9.921804	-1.445676	0.600051	-1.379602	2.972159	-0.977008	-0.487886	-0.062031	-0.319144
-2.294961	0.496697	9.462935	-1.759891	0.062299	-0.79129	0.156743	0.2738	-0.884558	1.897616	2.126696	9.66291	1.279856	1.001102	-0.564473	0.171895	-0.426322	-0.871809	9.751088	-1.327636	0.956686	-0.952419	2.64069	-1.313162	-0.459933	-0.044604	-0.335369
-2.300528	0.49549	9.17867	-1.486109	-0.180878	-0.918703	0.126972	0.312334	-0.880031	1.491031	2.127308	9.484528	1.838132	1.219992	-0.130254	0.145353	-0.428616	-0.842558	9.983851	-1.328917	0.781367	-0.890405	2.919689	-1.650905	-0.488028	-0.060378	-0.3502
-2.29364	0.20973	9.518581	-1.333567	-0.365944	-0.799477	0.141893	0.249819	-0.838565	1.49984	2.578332	9.938025	1.994475	1.403525	0.241634	0.171079	-0.474427	-0.840099	9.921804	-1.445676	0.600051	-0.889847	3.011774	-1.681909	-0.487819	-0.044186	-0.351037
-2.064995	0.726538	9.525207	-0.966531	-0.518582	-0.741678	0.157085	0.311927	-0.933618	1.210026	2.353454	9.818511	1.688539	1.672971	0.644833	0.158253	-0.443861	-0.84183	9.630294	-1.560411	0.773775	-1.411549	3.129412	-1.405519	-0.474049	-0.061	-0.334602
-2.354691	0.840905	9.349563	-1.151207	-0.642368	-0.743159	0.184598	0.286822	-0.888672	1.609357	2.352557	9.657055	1.192637	1.54384	0.673978	0.157958	-0.444933	-0.827481	9.743655	-1.445518	0.536843	-1.531866	3.340577	-1.16159	-0.446237	-0.041921	-0.381882
-2.122042	0.439372	9.522887	-0.751656	-0.675064	-0.407492	0.142979	0.295003	-0.915777	1.675061	2.521773	10.054883	1.008753	1.635092	0.428112	0.197847	-0.426172	-0.872361	9.516124	-1.326848	1.012191	-1.808125	3.368277	-0.977346	-0.487957	-0.061204	-0.334672
-2.010998	0.61089	9.355279	-1.181091	-0.676025	-0.498275	0.11511	0.29928	-0.929154	1.322631	2.409474	9.707697	0.511796	1.385919	0.055297	0.145272	-0.504146	-0.85189	9.335099	-1.036805	0.830405	-2.796342	3.336661	-1.218117	-0.488028	-0.060378	-0.3502
-2.350195	0.784428	9.576734	-1.27165	-0.555265	-0.342712	0.114752	0.278452	-0.897586	1.78337	2.295951	9.717274	0.262148	1.169338	-0.132026	0.159434	-0.439574	-0.899229	9.694678	-1.501234	1.074657	-3.108	3.403982	-1.920247	-0.515147	-0.013035	-0.337324
-2.413224	1.070471	9.292562	-1.268065	0.310791	-0.819336	0.128116	0.288321	-0.887276	1.204113	2.916569	9.592427	-0.019369	0.890029	-0.165858	0.133702	-0.453972	-0.912024	9.866379	-1.096096	0.840062	-3.078222	3.312953	-1.981046	-0.47412	-0.060174	-0.35013
-2.241212	0.725698	9.294454	-1.819003	0.556503	-1.028433	0.156342	0.304871	-0.905466	1.437762	2.409258	9.710115	0.042846	0.893027	-0.504887	0.145422	-0.473505	-0.853897	9.274557	-1.327544	0.708254	-3.26248	3.341932	-1.888829	-0.487819	-0.044186	-0.351037
-2.18936	0.494684	9.010337	-1.913141	0.499826	-1.489106	0.070848	0.33466	-0.910202	1.732519	2.577996	10.056139	0.381317	0.775685	-0.659921	0.145277	-0.443936	-0.841555	9.747516	-1.212225	0.777459	-3.110971	3.005996	-1.887775	-0.487752	-0.026341	-0.38293
-2.521503	0.152696	9.570739	-1.66909	0.285152	-1.431961	0.115124	0.281981	-0.911662	1.431933	2.29636	9.426822	0.78407	0.872574	-0.627806	0.210377	-0.45781	-0.856279	9.402473	-1.790445	1.187733	-2.866903	2.763425	-2.009751	-0.487752	-0.026341	-0.38293
-2.403902	0.497986	9.744973	-1.454225	0.222604	-1.249587	0.098746	0.295784	-0.861841	1.554749	2.071107	9.768888	0.630574	0.93295	-0.781469	0.171154	-0.459107	-0.841102	9.392879	-0.979111	0.771846	-2.869902	2.831224	-2.651872	-0.446442	-0.076785	-0.333624
-2.464621	0.669628	9.574025	-0.872028	0.225671	-1.281881	0.128116	0.288321	-0.887276	1.210134	2.297123	9.818464	0.571281	1.145612	-0.594434	0.145717	-0.472433	-0.868247	9.574309	-1.443383	0.95289	-2.99364	2.800506	-2.681839	-0.474608	-0.091733	-0.363983
-2.463591	0.784752	9.63136	-0.411085	0.036473	-0.67292	0.128101	0.30562	-0.904767	1.609034	2.521549	9.657197	0.447627	1.143641	-0.532897	0.184055	-0.474352	-0.840375	9.451045	-1.560501	0.65066	-2.560955	3.017449	-2.806691	-0.473632	-0.028615	-0.336276
-2.177111	0.497338	9.635721	-0.626452	-0.056029	-0.73514	0.156371	0.270272	-0.870482	1.888076	2.689669	9.266907	0.28922	0.834833	-0.505267	0.170934	-0.444858	-0.827756	9.629599	-1.734887	0.713126	-2.586768	3.163038	-2.10436	-0.473982	-0.043155	-0.366494
-1.723571	0.553482	9.417458	-0.658519	-0.239868	-0.799371	0.08574	0.306744	-0.90372	1.545317	2.57775	9.372837	0.102529	0.711029	-0.691617	0.144687	-0.44608	-0.812855	9.572264	-1.037098	0.894713	-2.984535	3.186828	-1.583471	-0.473844	-0.026137	-0.382859
-2.351143	0.554421	9.518916	-0.750977	-0.301414	-0.830774	0.099117	0.299313	-0.875917	1.381082	2.578405	9.765688	-0.086032	0.462957	-0.632579	0.171305	-0.428466	-0.84311	9.509926	-1.50256	0.652008	-2.952376	3.184417	-1.339076	-0.488099	-0.059552	-0.365728
-2.350154	0.726987	9.576493	-0.841272	-0.024909	-0.856688	0.142979	0.295003	-0.915777	1.320106	2.46571	9.594465	-0.119422	0.249118	-0.8197	0.145272	-0.504146	-0.85189	9.457513	-1.500941	1.010349	-3.323016	3.122221	-1.367999	-0.47447	-0.074714	-0.380348
-2.409345	0.324455	9.459984	-1.118199	-0.273442	-0.737258	0.12773	0.302092	-0.890691	1.669556	2.239883	9.771448	0.064227	0.099353	-1.00601	0.158473	-0.45811	-0.855176	9.750102	-1.850814	0.834647	-3.05217	2.856421	-2.192898	-0.502215	-0.075949	-0.364961
-2.752747	0.152379	9.452579	-0.965831	-0.3328	-0.861333	0.11248	0.309181	-0.865606	1.328568	2.466042	9.990943	-0.026974	0.220434	-0.943223	0.171299	-0.488676	-0.853445	9.455312	-1.501436	0.890535	-2.717291	2.741585	-2.804808	-0.488099	-0.059552	-0.365728
-2.352091	0.324413	9.461098	-1.272587	-0.396042	-0.83081	0.128859	0.295377	-0.915427	1.611344	2.577974	9.770524	0.036645	0.345287	-1.157727	0.170934	-0.444858	-0.827756	9.274692	-1.38562	0.708007	-1.792185	2.930974	-3.053559	-0.474191	-0.059348	-0.365657
-2.463342	0.440103	9.629912	-1.088457	-0.395879	-0.770001	0.141865	0.284418	-0.873549	1.376678	2.352893	9.53894	-0.057127	0.281171	-0.911816	0.145868	-0.441793	-0.870254	9.52066	-1.383935	1.251571	-1.88384	2.866939	-2.808425	-0.530169	-0.093376	-0.348736
-2.239809	0.323848	9.349618	-1.145299	0.185655	-0.576378	0.157114	0.277329	-0.898634	1.66934	2.352544	9.771543	0.067386	0.373526	-0.725829	0.171154	-0.459107	-0.841102	10.107946	-1.0954	1.143998	-1.814878	3.194825	-1.954495	-0.459933	-0.044604	-0.335369
-1.657699	0.957462	9.875085	-1.328346	0.52667	-0.907658	0.128501	0.27455	-0.88386	1.501911	2.127735	9.994285	-0.272137	0.428128	-0.355622	0.209492	-0.461025	-0.81323	10.164741	-1.560885	0.9634	-1.810929	3.311511	-1.404942	-0.473911	-0.043982	-0.350967
-2.521627	0.32502	9.571463	-1.480867	0.523869	-0.723256	0.113595	0.319766	-0.907834	1.500941	2.63471	9.994712	-0.086654	0.459736	-0.139362	0.145648	-0.427544	-0.856908	9.579271	-1.209842	1.253413	-2.303742	3.246665	-1.219472	-0.488103	-0.040881	-0.413148
-2.518204	0.210861	9.74154	-1.113261	0.651295	-0.967588	0.130002	0.271364	-0.922672	1.44413	2.240504	9.993171	0.00478	0.339863	-0.387105	0.170784	-0.475499	-0.825749	9.455872	-1.268884	0.951431	-2.678694	3.192665	-2.043043	-0.488307	-0.075744	-0.36489
-2.234573	0.784587	9.635814	-1.360523	0.249246	-0.850738	0.113995	0.288695	-0.886926	1.735368	2.352768	10.169229	0.254858	0.587311	-0.230303	0.131931	-0.460404	-0.825925	9.567167	-1.212562	0.594437	-3.087944	3.083049	-3.416337	-0.474053	-0.042329	-0.382022
-2.289683	0.899994	9.74889	-1.268425	0.311834	-0.911322	0.126987	0.295035	-0.862539	1.788444	2.803162	10.000898	0.439559	0.528937	-0.323219	0.131931	-0.460404	-0.825925	9.801726	-1.039121	0.539674	-3.184287	2.872684	-3.81229	-0.474608	-0.091733	-0.363983
-2.121219	0.841704	9.581429	-1.084186	0.405583	-0.971665	0.113223	0.316237	-0.893758	1.794681	2.071055	10.22684	0.531345	0.468179	-0.231265	0.170934	-0.444858	-0.827756	9.272086	-1.211887	0.588935	-3.183565	2.622921	-3.322109	-0.474262	-0.058522	-0.381185
-2.520679	0.555028	9.629282	-1.054181	0.438892	-1.185887	0.14225	0.270647	-0.870133	1.671327	2.577961	9.885012	0.532162	0.501058	-0.570047	0.171299	-0.488676	-0.853445	9.754949	-1.094343	1.197302	-2.283448	2.614788	-2.225091	-0.473632	-0.028615	-0.336276
-2.178142	0.382213	9.578385	-1.115478	0.438606	-1.185715	0.115124	0.281981	-0.911662	1.675061	2.521773	10.054883	0.285438	0.528788	-0.600797	0.158329	-0.428541	-0.842834	9.925665	-1.212383	0.840668	-2.125939	2.484787	-1.430418	-0.501798	-0.043564	-0.366635
-2.00209	0.61282	9.810104	-0.961013	0.592285	-1.122326	0.128116	0.288321	-0.887276	1.604091	2.577689	9.430686	0.284075	0.435788	-0.447583	0.170859	-0.460179	-0.826753	9.563325	-0.980999	0.415706	-1.904622	2.754568	-0.821255	-0.473982	-0.043155	-0.366494
-2.229829	0.383461	9.861537	-0.623916	0.531352	-1.032282	0.155214	0.311585	-0.88073	1.495435	2.35282	9.711276	0.038169	0.525049	-0.508549	0.145943	-0.426472	-0.871258	10.165436	-1.38641	1.024048	-2.086905	2.84189	-0.454259	-0.488028	-0.060378	-0.3502
-2.634075	0.555352	9.683908	-1.203927	1.022776	-1.237302	0.099846	0.323668	-0.921561	1.890925	2.464442	9.379996	-0.025646	0.370538	-0.448481	0.171305	-0.428466	-0.84311	9.929662	-1.037166	1.081037	-2.549743	2.902983	-0.605688	-0.474191	-0.059348	-0.365657
-2.289186	0.210695	9.745994	-1.326257	1.177948	-1.418437	0.141865	0.284418	-0.873549	1.492348	2.071025	9.541121	0.00517	0.370528	-0.3868	0.145057	-0.429688	-0.828208	9.638558	-1.326129	1.254019	-2.768542	2.845755	-1.063062	-0.516537	-0.127209	-0.315936
-2.527236	0.381256	9.287439	-1.481028	0.899951	-1.361174	0.127344	0.315863	-0.894107	1.382483	1.846108	9.765071	0.345083	0.375242	-0.448136	0.171889	-0.486532	-0.882144	9.635931	-1.617251	1.073062	-2.342868	2.579248	-1.76627	-0.446233	-0.060592	-0.334461
-2.583004	-0.135436	9.341007	-0.624547	0.814892	-1.641035	0.114009	0.271396	-0.869435	1.902905	2.521247	9.94644	1.553423	0.723615	0.20369	0.184205	-0.443711	-0.842382	9.455312	-1.501436	0.890535	-2.191432	2.553941	-2.225134	-0.488307	-0.075744	-0.36489
-2.235272	0.20993	9.576548	3.690939	0.570302	-2.700156	0.142236	0.287946	-0.887625	1.489522	2.915936	9.485192	3.634544	1.810662	2.12752	0.158329	-0.428541	-0.842834	9.703211	-1.383104	1.554407	-1.852649	2.400635	-2.072817	-0.47412	-0.060174	-0.35013
-2.527236	0.381256	9.287439	5.251525	0.428113	-3.074981	0.112852	0.312709	-0.879682	1.443136	2.127795	9.936436	2.310753	2.218885	2.777907	0.145277	-0.443936	-0.841555	9.508961	-1.560883	0.591853	-1.385468	2.548628	-1.433404	-0.460909	-0.107721	-0.363076
-2.122001	0.38193	9.522646	4.271707	-0.048569	-2.098518	0.127358	0.298563	-0.876615	1.493819	3.197778	9.711988	2.534538	2.890812	3.617133	0.158989	-0.471287	-0.882872	9.635256	-1.326871	1.074298	-1.042115	2.697124	-0.88523	-0.515706	-0.043768	-0.366705
-2.34875	0.325137	9.631657	3.259065	-0.425203	-1.82571	0.114367	0.292224	-0.901002	1.895544	2.577293	9.606649	0.98598	2.536119	3.273249	0.131931	-0.460404	-0.825925	9.576105	-1.26866	1.073445	-1.071802	2.756932	-0.763157	-0.4744	-0.07554	-0.36482
-2.070273	0.323241	9.239253	2.342738	-0.250667	-1.329544	0.085754	0.289444	-0.886228	1.610351	2.465266	9.713789	0.67688	2.445439	2.470563	0.157808	-0.475574	-0.825473	9.572534	-1.15325	0.894219	-1.106899	2.920173	-1.772374	-0.501798	-0.043564	-0.366635
-2.349781	0.210013	9.574321	1.760726	-0.379442	-1.053948	0.141079	0.329259	-0.897872	1.376786	2.296563	9.538892	-0.092549	2.651298	2.31785	0.170934	-0.444858	-0.827756	9.401548	-0.919057	1.251348	-1.729013	2.866233	-2.686733	-0.502007	-0.059756	-0.365798
-2.069491	0.783015	9.298036	1.209045	-0.19415	-1.35603	0.114738	0.295752	-0.915078	1.844885	2.126994	9.888259	0.06387	2.80658	2.31952	0.184645	-0.472208	-0.869074	9.762072	-1.790019	1.49387	-1.452767	2.900658	-2.962957	-0.502078	-0.05893	-0.381326
-2.580036	0.382262	9.513738	2.948007	-0.569864	-2.747216	0.128144	0.253722	-0.852292	1.432496	2.634391	9.483746	-0.576095	3.531475	2.757809	0.131711	-0.446155	-0.812579	10.046439	-1.444463	0.961693	-0.958899	2.715109	-2.597114	-0.529614	-0.043972	-0.366775
-2.29958	0.725498	9.236488	6.803756	-0.597653	-4.138852	0.098717	0.330383	-0.896825	1.437978	2.296597	9.71002	-0.969845	4.168719	3.010455	0.158769	-0.457038	-0.869526	9.626993	-1.561153	0.594054	0.211262	2.380627	-2.38582	-0.446863	-0.090498	-0.379371
-2.349822	0.267454	9.574562	6.309832	-1.559935	-3.509029	0.156728	0.2911	-0.90205	1.89807	2.521057	9.719881	-2.111768	4.217557	2.701739	0.171449	-0.458035	-0.855452	9.512687	-1.269514	0.832717	0.578153	2.201571	-2.691917	-0.460425	-0.057491	-0.396643
-2.477983	0.666733	8.891788	6.182886	-2.299121	-3.428671	0.156743	0.2738	-0.884558	1.852246	2.070948	10.228049	-2.731492	3.999698	1.990024	0.184576	-0.427319	-0.857735	9.330542	-1.444573	0.52914	0.668166	2.206632	-3.150699	-0.529823	-0.060164	-0.365938
-2.295209	0.841346	9.464383	5.260091	-2.794434	-3.495402	0.142622	0.274175	-0.884209	1.319544	2.127679	9.537541	-2.98672	3.295914	1.273772	0.184205	-0.443711	-0.842382	9.392589	-1.327814	0.710455	0.54779	2.666298	-3.274705	-0.473494	-0.011597	-0.352641
-2.063757	0.554455	9.581336	4.030718	-3.478701	-3.288304	0.084611	0.313458	-0.878984	1.502257	2.578427	10.051304	-3.366191	2.529833	0.464317	0.171154	-0.459107	-0.841102	9.336739	-1.268862	0.889323	0.341398	3.392747	-2.605057	-0.4744	-0.07554	-0.36482
-2.294054	0.784146	9.520995	3.04289	-4.652153	-3.212526	0.14225	0.270647	-0.870133	1.549913	2.070917	9.542329	-3.526826	1.98034	-0.219494	0.171669	-0.472283	-0.868798	9.21552	-1.792265	0.645269	-0.110485	4.053979	-1.628581	-0.460283	-0.059144	-0.365587
-2.122291	0.784021	9.524335	1.901686	-6.076359	-2.77236	0.12963	0.267835	-0.908596	1.781491	2.014203	9.603757	-3.686641	1.521028	-0.624955	0.145573	-0.442865	-0.855904	9.569327	-2.141778	0.590482	-0.409393	4.500691	-0.559939	-0.47447	-0.074714	-0.380348
-2.578224	0.95716	9.629857	0.854264	-7.192468	-2.358126	0.143008	0.260404	-0.880793	1.447433	2.409638	10.163232	-3.503497	1.311344	-1.027657	0.158178	-0.459182	-0.840827	9.276758	-1.32705	0.828068	-0.131455	5.090786	-1.327828	-0.460283	-0.059144	-0.365587
-2.527485	0.725905	9.288887	0.360815	-7.905784	-2.000278	0.113638	0.267868	-0.855359	1.61728	2.634542	10.053769	-3.136701	0.980547	-1.308104	0.184205	-0.443711	-0.842382	9.519695	-1.442259	1.191417	-0.10656	4.977993	-2.244253	-0.474959	-0.106273	-0.394202
-2.118702	0.440096	9.693446	0.023871	-8.127008	-1.604216	0.086126	0.292973	-0.900304	1.838841	2.126756	9.605061	-2.341788	0.317319	-1.499027	0.158473	-0.45811	-0.855176	9.218822	-1.791523	0.82499	-0.515032	4.711641	-3.250055	-0.502215	-0.075949	-0.364961
-2.349082	0.78467	9.633587	-1.383009	-7.92298	-1.198165	0.114009	0.271396	-0.869435	1.775986	1.732314	9.320322	-1.608039	-0.257517	-1.257528	0.159284	-0.470215	-0.897222	9.041098	-1.500738	0.822925	-0.33421	4.502902	-3.708144	-0.474262	-0.058522	-0.381185
-2.07279	0.72485	9.127236	-2.048659	-6.980713	-0.536905	0.113624	0.285167	-0.87285	1.44182	2.184079	9.879844	-0.592543	-0.551836	-1.167154	0.159434	-0.439574	-0.899229	9.282415	-0.919034	1.18924	-0.732872	4.0937	-2.726761	-0.502495	-0.091315	-0.379651
-2.295002	0.554138	9.463176	-1.827819	-6.090203	-0.369728	0.113638	0.267868	-0.855359	1.213653	2.353596	9.98843	0.272259	-0.570721	-1.289958	0.145277	-0.443936	-0.841555	9.280194	-1.384384	1.007542	-0.783882	4.228461	-0.985161	-0.488378	-0.074918	-0.380418
-2.126455	0.380965	9.295234	-2.679664	-5.298639	-0.047732	0.112852	0.312709	-0.879682	1.265497	2.18426	9.706299	1.287202	-0.925163	-1.38515	0.158919	-0.426397	-0.871533	9.399752	-1.09378	1.130792	-0.367077	4.292672	1.824817	-0.474191	-0.059348	-0.365657
-2.003121	0.497696	9.752768	-2.488818	-4.535379	0.485477	0.128116	0.288321	-0.887276	1.327143	2.578655	9.934398	1.837018	-1.380299	-1.050125	0.172265	-0.40993	-0.887163	9.517494	-1.442753	1.071603	0.72144	4.309805	3.501787	-0.488449	-0.074092	-0.395946
-2.29624	0.726222	9.407047	-1.841463	-3.604145	-0.053274	0.101775	0.254813	-0.904482	1.327443	1.78998	9.877094	2.236145	-1.56	-0.928278	0.18472	-0.456888	-0.870078	10.044217	-1.909813	0.779995	1.586277	4.247947	3.865716	-0.502007	-0.059756	-0.365798
-2.234573	0.784587	9.635814	-2.820769	-2.92427	-0.775438	0.128844	0.312677	-0.932919	1.557274	2.014871	9.88212	2.939647	-2.10316	-0.902285	0.210377	-0.45781	-0.856279	9.514037	-1.850274	0.830245	2.138171	4.069554	3.55893	-0.488099	-0.059552	-0.365728
-2.118785	0.554979	9.693929	-2.78744	-1.836333	-1.831239	0.072019	0.276048	-0.882463	1.838087	2.52107	9.605393	3.645956	-2.40261	-0.627242	0.145422	-0.473505	-0.853897	9.574984	-1.733763	0.951654	2.561035	3.808404	2.336101	-0.474679	-0.090907	-0.379511
-1.608814	0.20875	9.418237	-1.281766	-0.932877	-2.280915	0.072405	0.262277	-0.879047	1.378965	1.789636	9.595105	3.859366	-2.615128	-0.536699	0.1845	-0.442639	-0.856732	9.574289	-1.908238	0.891005	2.991135	3.781889	2.090163	-0.487681	-0.027167	-0.367402
-2.052374	0.212218	10.148419	-1.403626	-0.68516	-2.491216	0.099875	0.28907	-0.886577	1.668347	2.239836	9.714808	3.674628	-2.556954	-0.412957	0.145573	-0.442865	-0.855904	9.515253	-2.372958	0.82802	4.043016	3.87207	2.605501	-0.488032	-0.041707	-0.39762
-2.286219	0.728393	9.918725	-0.051044	-0.158507	-2.30254	0.142979	0.295003	-0.915777	1.552785	2.465373	9.71258	3.39717	-2.500157	-0.258475	0.144977	-0.505218	-0.83754	9.6329	-1.734145	0.892847	4.635684	4.078536	3.549842	-0.48789	-0.043359	-0.366565
-2.008398	0.094399	9.466813	-0.233319	-0.289247	-1.690774	0.156342	0.304871	-0.905466	1.327382	3.085677	9.991464	2.464668	-2.913787	0.229911	0.171449	-0.458035	-0.855452	9.760681	-2.138969	1.372573	5.104113	4.25523	4.372526	-0.474053	-0.042329	-0.382022
-2.465693	0.611945	9.51693	0.165933	-0.540195	-1.082638	0.141479	0.298189	-0.876965	2.068348	2.520639	9.610229	1.407455	-3.420781	0.686441	0.184645	-0.472208	-0.869074	10.118484	-2.313266	1.558154	5.161833	4.480301	3.332073	-0.487819	-0.044186	-0.351037
-2.007409	0.266965	9.52439	-0.139237	-0.451516	-0.89631	0.072777	0.265805	-0.893123	1.325611	2.747599	9.877901	-0.177885	-4.150107	1.294476	0.131335	-0.522757	-0.807561	9.6318	-1.734392	0.83294	5.334582	4.442168	1.161626	-0.474679	-0.090907	-0.379511
-1.890922	0.612013	9.641771	-0.322066	-0.267636	-0.923464	0.099489	0.302841	-0.889993	1.380197	2.409366	9.708906	-1.981016	-5.004641	1.870264	0.158549	-0.442789	-0.85618	9.517899	-1.616981	1.070861	5.102802	4.595907	-1.955672	-0.488307	-0.075744	-0.36489
-2.003121	0.497696	9.752768	-1.059436	-0.51623	-0.986717	0.099875	0.28907	-0.886577	1.378665	2.57831	9.652409	-4.250348	-6.079923	2.474311	0.183464	-0.476496	-0.811675	9.75603	-1.558951	1.195324	4.318352	4.68111	-4.551014	-0.516123	-0.076153	-0.365031
-2.173812	0.555503	9.806522	-1.548412	-0.491264	-0.678223	0.115124	0.281981	-0.911662	1.556951	2.183863	9.882262	-6.523364	-7.432014	3.198917	0.210007	-0.474202	-0.840926	10.106535	-1.909206	0.960816	4.216538	4.822683	-6.446136	-0.460354	-0.058317	-0.381115
-1.89521	0.381282	9.413394	-2.224642	-0.801732	-0.681323	0.115124	0.281981	-0.911662	1.563342	2.634792	10.222479	-9.088372	-9.833731	4.436934	0.132817	-0.457188	-0.868975	9.875297	-1.61705	1.257185	4.98266	4.461839	-6.783362	-0.473982	-0.043155	-0.366494
-2.241254	0.783139	9.294696	-2.101099	-0.710006	-0.588183	0.142236	0.287946	-0.887625	1.336599	2.691696	10.38761	-11.317803	-12.511	6.258225	0.17182	-0.441643	-0.870806	9.753694	-1.501369	1.075758	4.581925	4.025515	-6.138042	-0.48817	-0.058726	-0.381255
-2.0044	0.727221	9.69688	-1.792388	-0.58982	-0.219103	0.100632	0.278827	-0.897237	1.570679	1.959063	10.505108	-13.927162	-15.870726	8.534862	0.158624	-0.427469	-0.857184	9.158725	-1.32678	0.825867	3.41926	3.755774	-4.115477	-0.460283	-0.059144	-0.365587
-2.284033	0.786317	10.032672	-1.637094	-0.34464	-0.092893	0.101389	0.268584	-0.907897	1.922463	2.409345	10.852578	-15.215661	-19.912196	9.757617	0.171229	-0.443786	-0.842106	9.28253	-1.441966	1.127108	2.319128	3.701962	-2.246948	-0.473982	-0.043155	-0.366494
-2.06384	0.669338	9.581819	-1.452244	-0.346562	0.151887	0.12813	0.271021	-0.869784	1.58102	2.241142	11.015101	-16.659623	-24.018069	11.133754	0.18391	-0.444783	-0.828032	9.157355	-1.210875	0.766455	-0.820897	3.74332	-1.410588	-0.502215	-0.075949	-0.364961
-1.6103	0.725483	9.363556	-2.21866	-0.286937	0.001722	0.114352	0.309523	-0.918494	2.103944	2.240362	11.25254	-16.443492	-28.661579	13.523241	0.158989	-0.471287	-0.882872	9.216391	-0.746155	0.82944	-2.517229	4.203955	-2.170704	-0.460216	-0.041299	-0.39748
-2.233128	0.325296	9.690737	-1.97311	0.057473	-0.453406	0.113995	0.288695	-0.886926	2.050005	2.240612	11.42125	-14.843087	-33.89194	14.520712	0.10731	-0.425625	-0.88478	9.044555	-1.093217	1.064283	-2.828356	4.829153	-3.57842	-0.501865	-0.061409	-0.334742
-2.006503	0.554413	9.58245	-1.174984	0.527038	-0.877425	0.098731	0.313084	-0.879333	2.807464	1.901559	11.833158	-14.092024	-42.75221	15.512247	0.145347	-0.488826	-0.852893	9.44929	-0.805512	0.653874	-4.258469	5.374351	-6.509761	-0.4744	-0.07554	-0.36482
-2.573065	-0.018381	9.853167	0.17645	0.931804	-0.782733	0.112866	0.29541	-0.86219	2.80537	1.732473	11.719737	-15.289672	-53.958192	19.592652	0.119401	-0.428766	-0.842007	9.693712	-1.559557	1.014503	-5.436606	6.593431	-9.44516	-0.488796	-0.107303	-0.378744
-1.940258	0.441419	10.037905	1.188038	0.873325	-0.633255	0.086897	0.265431	-0.893472	2.211911	1.171871	13.518432	-8.93425	-55.32855	11.630247	0.118735	-0.44623	-0.812304	9.690411	-1.560299	0.834782	-6.791924	7.734912	-10.851477	-0.502212	-0.09462	-0.31754
-1.890881	0.554572	9.64153	2.104775	0.666319	-0.976607	0.114738	0.295752	-0.915078	2.572503	2.073176	14.319399	9.781197	-58.86558	2.51573	0.144837	-0.415439	-0.814862	9.810644	-1.560075	0.956797	-7.892488	8.64455	-10.454549	-0.502775	-0.106681	-0.394342
-2.23651	0.382013	9.520419	2.407202	0.39777	-1.564537	0.084625	0.296159	-0.861492	2.614546	1.340108	13.527037	27.217194	-70.121899	-1.312329	0.106645	-0.44309	-0.855077	9.629464	-1.676811	0.713374	-10.348204	9.391314	-9.562966	-0.502145	-0.076775	-0.349433
-1.89187	0.382006	9.583953	2.220336	0.217735	-2.026949	0.08574	0.306744	-0.90372	1.992337	1.905073	14.080609	22.425596	-79.723729	3.520887	0.080919	-0.397278	-0.857537	9.98136	-1.678115	0.600163	-13.150971	9.686189	-9.462542	-0.488099	-0.059552	-0.365728
-2.235562	0.612021	9.578237	2.12881	0.43521	-2.268497	0.12963	0.267835	-0.908596	1.18204	2.300753	13.894097	33.733755	-86.611237	4.44804	0.068012	-0.442243	-0.8686	9.746126	-1.561176	0.656162	-15.662794	8.928505	-11.008408	-0.474403	-0.056869	-0.412241
-2.352174	0.439297	9.46158	0.472934	0.555278	-2.691137	0.086526	0.261902	-0.879396	1.054906	1.624481	13.268075	34.484735	-92.906654	6.883182	0.079512	-0.447527	-0.797127	9.626723	-1.445001	0.594549	-16.913882	8.368059	-13.445994	-0.502566	-0.090489	-0.395179
-2.471468	0.897947	9.233871	-0.505741	0.701229	-2.409932	0.100275	0.257999	-0.86567	0.985575	1.455123	12.700327	44.74426	-97.229648	7.61919	0.067202	-0.430138	-0.826554	9.927421	-1.967371	0.837454	-17.088026	7.411923	-15.70219	-0.460771	-0.090702	-0.379441
-2.17505	0.727586	9.750393	-1.667612	1.032102	-2.247868	0.071605	0.324418	-0.920862	-0.303317	0.555257	11.540181	46.437308	-95.072167	9.399225	0.041615	-0.474106	-0.851691	9.581992	-1.906507	1.310353	-16.422802	6.228261	-16.371248	-0.474746	-0.108752	-0.347618
-2.064048	0.956546	9.583026	-1.879674	1.055227	-1.664185	0.113595	0.319766	-0.907834	-2.701643	0.276506	9.677911	53.618416	-88.535894	13.724339	0.040955	-0.43136	-0.811653	9.465891	-1.789591	1.428461	-14.114947	4.878933	-15.242484	-0.461118	-0.123914	-0.362239
-2.344379	0.440985	9.859552	-2.182632	1.356593	-1.259728	0.155957	0.318642	-0.908882	-8.59884	-3.431595	8.022203	46.555454	-64.264795	31.933496	0.027608	-0.447827	-0.796024	9.64377	-1.673597	1.492163	-11.578195	4.033402	-12.466723	-0.488445	-0.092763	-0.348526
-1.837215	0.898456	9.473532	-2.824188	1.504118	-0.979471	0.072019	0.276048	-0.882463	-10.39428	-7.20311	7.131955	9.305932	-33.443377	77.470529	-0.0111	-0.462301	-0.808543	9.946533	-2.137397	1.855129	-10.263117	3.62716	-8.221658	-0.488587	-0.091111	-0.379581
-2.283909	0.613992	10.031948	-2.883846	1.874698	-1.157285	0.114009	0.271396	-0.869435	-7.101109	-5.237069	7.938838	-28.594302	-2.972691	89.983838	0.001801	-0.477546	-0.807815	9.878713	-2.139239	1.374773	-9.774762	3.859057	-3.854253	-0.474608	-0.091733	-0.363983
-2.235272	0.20993	9.576548	-2.574312	2.524621	-1.423627	0.071633	0.289819	-0.885879	-6.350078	-4.11167	8.182061	-24.682866	14.416206	78.134952	0.014262	-0.464295	-0.780395	10.891757	-2.081234	1.93289	-8.798519	4.258288	-0.711775	-0.488099	-0.059552	-0.365728
-1.829089	0.440612	9.869573	-2.48085	2.551958	-1.086102	0.113638	0.267868	-0.855359	-7.172487	-4.336147	7.371992	-36.509121	20.45589	59.80943	0.001952	-0.446906	-0.809822	10.367079	-2.020459	2.282675	-7.939138	4.703527	-2.061764	-0.4744	-0.07554	-0.36482
-2.234532	0.727145	9.635573	-1.405853	2.706799	-0.74933	0.087612	0.307086	-0.956608	-5.996932	-2.478305	8.700446	-38.589435	36.117939	28.053654	0.002096	-0.476475	-0.822164	10.363353	-2.311828	2.041811	-8.621513	4.798619	-8.538802	-0.503192	-0.139066	-0.392668
-2.115113	0.09617	9.862558	-0.793293	2.397826	-0.357431	0.072005	0.293347	-0.899955	-6.799783	-2.814684	8.796516	-34.193713	60.337009	-6.230128	-0.023705	-0.445984	-0.82362	9.828251	-1.556119	1.915307	-9.969381	4.739363	-18.068241	-0.488725	-0.108129	-0.363216
-2.121095	0.669379	9.580706	0.312165	2.334213	0.28238	0.084239	0.30993	-0.864908	-7.089119	-2.025518	8.791135	-36.194019	77.894098	-32.90731	0.015373	-0.415118	-0.826455	9.537822	-2.135462	2.087054	-10.602763	4.486191	-26.345807	-0.489142	-0.140514	-0.361542
-2.23218	0.555303	9.748555	0.743169	2.581026	0.377154	0.114738	0.295752	-0.915078	-6.909147	-1.405873	9.191761	-35.63274	94.218871	-44.45823	0.040955	-0.43136	-0.811653	9.585874	-1.208359	1.612855	-9.713974	4.623747	-27.510821	-0.474817	-0.107925	-0.363146
-2.115444	0.555703	9.864488	1.327488	2.859633	0.441336	0.099875	0.28907	-0.886577	-7.312297	-0.672775	9.240554	-40.342522	105.395606	-42.963682	0.054671	-0.3985	-0.842635	9.463595	-0.802298	1.432664	-9.128741	4.195613	-21.399518	-0.488934	-0.124322	-0.362379
-2.469034	0.611222	9.346371	0.775107	2.859143	0.258911	0.100618	0.296126	-0.914729	-6.615421	0.565535	9.652582	-51.113146	114.709776	-30.857606	0.015888	-0.428294	-0.854151	9.579967	-1.035367	1.314062	-6.795914	3.98216	-11.780919	-0.475305	-0.139484	-0.377
-2.577975	0.612511	9.628409	0.990398	3.264869	-0.195133	0.098746	0.295784	-0.861841	-4.939549	0.337325	9.970649	-54.54282	120.940959	-15.724127	0.068313	-0.380961	-0.872614	9.35201	-1.207324	1.728267	-1.003724	4.076711	-7.096018	-0.488863	-0.125148	-0.346851
-2.234614	0.842028	9.636056	1.177691	3.568871	0.177283	0.128844	0.312677	-0.932919	-4.24302	1.124943	10.325657	-58.215794	125.054686	-0.580627	0.055117	-0.366788	-0.858992	9.460409	-1.325971	1.190811	0.149091	3.868357	-10.216396	-0.488934	-0.124322	-0.362379
-2.123239	0.554014	9.466517	1.053833	3.446763	0.052984	0.126987	0.295035	-0.862539	-3.597042	1.405932	10.962228	-58.026253	129.016256	12.499387	0.067352	-0.399497	-0.828561	9.287742	-1.789433	1.365252	-2.507413	3.49214	-16.164113	-0.474746	-0.108752	-0.347618
-2.187133	0.495166	9.124043	0.749723	3.720177	0.211642	0.141093	0.31196	-0.88038	-2.269734	1.572587	11.160094	-56.038468	130.839632	23.37101	0.107391	-0.350095	-0.875449	9.345793	-1.847891	1.306199	-2.134594	2.460129	-19.76644	-0.502633	-0.108334	-0.363286
-2.066067	0.668855	9.468113	0.167588	3.936054	-0.089853	0.085411	0.251317	-0.837168	-1.342835	2.303443	11.51989	-56.570067	131.058061	31.141859	0.119777	-0.352164	-0.847025	9.104361	-1.906663	1.002015	-2.62892	1.435651	-18.476317	-0.475443	-0.156503	-0.360635
-2.111115	0.728992	10.092625	0.386066	4.457751	0.071337	0.113981	0.305995	-0.904418	-0.118031	2.189136	12.281497	-53.787618	129.108947	34.762654	0.120217	-0.380661	-0.873717	9.348264	-1.963549	1.425518	-3.601017	0.162496	-14.005121	-0.475585	-0.15485	-0.39169
-2.12559	0.725856	9.353534	-0.899439	4.853682	-0.133204	0.113624	0.285167	-0.87285	1.310117	2.242345	11.802011	-48.785619	126.416669	34.493243	0.133494	-0.319304	-0.878007	8.991986	-1.498378	1.360986	-3.958538	-1.07343	-9.964016	-0.460838	-0.108547	-0.347548
-2.354442	0.496256	9.348115	-1.232395	5.810338	-0.607385	0.070862	0.317361	-0.89271	2.296975	2.353506	12.219135	-45.096337	122.199918	30.507995	0.120298	-0.305131	-0.864386	9.644445	-1.963977	1.490927	-4.388316	-2.009995	-8.277155	-0.475026	-0.124118	-0.362309
-2.342235	0.556351	9.973741	-1.626848	6.391674	-0.535466	0.142994	0.277703	-0.898285	2.691902	2.127097	11.83093	-38.089631	116.320797	24.751615	0.159521	-0.303834	-0.879562	8.998724	-1.55497	1.72018	-4.274529	-2.64341	-9.099684	-0.50305	-0.140718	-0.361612
-2.175832	0.267813	9.691609	-2.078613	7.461984	-0.240758	0.113624	0.285167	-0.87285	3.957109	1.504995	11.743725	-32.038819	110.526288	18.224645	0.159226	-0.304906	-0.865213	9.111119	-1.4984	1.423094	-2.845551	-3.593401	-11.392353	-0.474955	-0.124944	-0.346781
-2.00048	-0.076237	9.864061	-1.672465	8.192695	0.536647	0.113981	0.305995	-0.904418	4.643921	1.052868	11.531295	-31.658101	103.548198	12.976236	0.224036	-0.259641	-0.855253	9.119902	-1.961278	1.840465	-1.326672	-4.382861	-14.388939	-0.489347	-0.175378	-0.313284
-2.120846	0.32473	9.579258	-2.341259	8.987505	0.643493	0.126244	0.287978	-0.834388	5.907188	1.444716	11.444943	-32.950147	93.847656	8.377681	0.22359	-0.291354	-0.838896	8.823876	-1.554071	1.836693	0.442105	-5.488032	-16.345854	-0.517029	-0.140096	-0.37721
-2.061655	0.727262	9.695767	-2.948036	10.124808	0.387713	0.114724	0.313051	-0.93257	6.250917	1.049661	11.338586	-33.564594	81.665291	4.926507	0.185473	-0.303684	-0.880114	9.065848	-1.727603	2.139888	2.654743	-5.900721	-17.085308	-0.516749	-0.12473	-0.36252
-2.512761	0.384392	10.026529	-4.320935	11.44604	-0.138884	0.099117	0.299313	-0.875917	7.682068	2.060678	11.086464	-33.018861	68.451125	2.020942	0.224105	-0.30453	-0.866591	9.122933	-1.844384	2.02068	5.5883	-6.488387	-15.442946	-0.503401	-0.155258	-0.391831
-2.401799	0.670793	9.859404	-5.66304	13.173855	-1.272325	0.128473	0.309148	-0.918843	9.116822	2.452155	10.9471	-33.40414	52.666702	1.154572	0.211425	-0.303534	-0.880665	9.23944	-2.135529	1.901831	8.747048	-6.534143	-12.887175	-0.503188	-0.157737	-0.345247
-2.345866	0.957718	9.80487	-7.895223	14.838482	-2.618917	0.115524	0.25091	-0.890755	9.464417	2.564264	11.067727	-30.72669	41.983952	-0.675903	0.250132	-0.28906	-0.868147	8.940092	-2.193919	1.656454	10.797	-6.772463	-9.837451	-0.475026	-0.124118	-0.362309
-2.290548	0.555103	9.690589	-9.423365	16.102034	-3.544705	0.113252	0.281639	-0.858774	10.308125	2.787211	10.179817	-31.528238	27.536147	-0.851069	0.250648	-0.302237	-0.895842	9.414557	-2.252581	1.784824	11.611373	-6.421119	-8.038996	-0.475719	-0.19054	-0.327905
-2.407077	0.267496	9.573449	-10.362369	18.068475	-3.878064	0.171606	0.280483	-0.913059	11.514689	2.728522	10.091878	-28.139773	16.862811	-2.989135	0.237157	-0.289135	-0.867871	8.824801	-2.425458	1.773078	13.042249	-5.601481	-6.947892	-0.489418	-0.174552	-0.328812
-2.635188	0.555111	9.627055	-10.961671	20.435957	-4.205882	0.14145	0.332788	-0.911948	12.425287	2.501049	9.601274	-24.934593	6.369417	-4.971403	0.237081	-0.304455	-0.866867	8.874339	-2.137191	1.296159	12.992325	-4.816803	-5.942933	-0.503326	-0.174756	-0.328882
-2.630651	0.441193	9.853984	-13.342573	22.055186	-4.326054	0.128873	0.278078	-0.897936	12.596559	2.613339	9.548356	-23.219161	-2.35679	-8.232045	0.250949	-0.240955	-0.899857	8.643756	-2.60027	1.529407	11.926864	-4.101688	-4.47553	-0.517305	-0.174134	-0.344481
-2.569932	0.26955	10.024933	-13.668721	23.430163	-3.75073	0.101003	0.282355	-0.911313	12.92328	2.893634	8.706253	-18.473441	-8.523715	-12.543733	0.22322	-0.307746	-0.823542	9.346177	-2.486975	1.243572	12.251658	-3.231472	-2.738826	-0.489698	-0.189918	-0.343503
-2.340997	0.384268	10.02987	-13.155463	26.965566	-3.633406	0.141493	0.280889	-0.859473	13.142746	2.216762	8.144123	-16.784633	-17.142785	-18.300264	0.224331	-0.258569	-0.869602	9.287452	-2.138136	1.303862	12.905653	-2.899915	-2.039844	-0.476069	-0.20508	-0.358124
-2.118826	0.61242	9.69417	-14.946276	29.723027	-3.614099	0.141093	0.31196	-0.88038	13.074193	2.272774	7.633205	-13.386133	-22.461523	-23.714272	0.238488	-0.254207	-0.927277	9.411101	-2.660102	1.543465	13.17611	-3.19598	-2.895154	-0.489209	-0.158359	-0.329649
-2.790374	0.731178	10.477234	-18.420776	32.904517	-3.736397	0.113609	0.302466	-0.890342	12.249929	2.386232	6.766781	-10.710833	-28.914579	-30.619738	0.275494	-0.291054	-0.839999	9.472338	-2.194887	1.726264	13.863177	-4.20697	-5.460013	-0.47579	-0.189714	-0.343433
-2.570963	0.154426	9.967597	-20.94345	37.118309	-5.071404	0.143008	0.260404	-0.880793	11.141657	1.768028	6.006976	-18.743693	-31.582372	-32.194029	0.237457	-0.227853	-0.871885	10.111186	-2.489225	1.138064	15.08291	-5.294267	-6.376084	-0.46209	-0.205702	-0.342525
-2.563583	0.73053	10.367982	-25.110838	42.420386	-5.494594	0.155985	0.284043	-0.873898	9.589485	1.940024	6.087756	-21.459265	-33.850828	-32.927765	0.224111	-0.244321	-0.856256	9.653633	-2.601082	1.907556	17.641148	-5.997108	-5.556835	-0.517167	-0.157115	-0.360845
-2.848617	0.558654	10.418544	-28.998801	48.370274	-6.030734	0.197204	0.306933	-0.867701	4.393234	7.305655	11.135246	-20.133185	-46.839023	-13.91246	0.211135	-0.244396	-0.85598	10.067982	-2.659856	1.974919	19.406841	-6.161381	-3.850989	-0.517234	-0.17496	-0.328953
-3.243582	0.215501	10.693567	-33.780094	54.203051	-7.455613	0.154828	0.325356	-0.884145	-1.801462	28.335765	19.345976	94.351865	-31.397337	51.567888	0.237533	-0.212533	-0.872889	9.879254	-2.371543	1.373784	19.04164	-5.89246	-3.361958	-0.517305	-0.174134	-0.344481
-2.72417	0.675625	10.932931	-38.040044	60.56913	-9.640075	0.195689	0.327419	-0.846381	-5.502375	7.777458	13.928382	207.532233	-23.524285	24.051573	0.211726	-0.242252	-0.88468	10.5371	-2.312975	1.865392	17.02258	-3.073961	-4.498888	-0.489977	-0.205284	-0.358194
-2.771776	1.194812	11.445667	-41.712466	65.822542	-16.444922	0.168977	0.290383	-0.849511	-14.830658	-5.72316	15.079299	9.173156	-56.288724	48.353733	0.210689	-0.276108	-0.839623	13.474783	-0.463271	1.44907	8.752977	9.09216	-0.676158	-0.517372	-0.191979	-0.312588
-2.79649	0.857201	13.091846	-36.18409	74.298378	-27.272912	0.183469	0.293537	-0.863936	-5.901048	-3.939247	13.060462	50.028118	-105.133449	77.31479	0.197563	-0.306824	-0.83734	15.647592	1.330606	1.138009	-17.4729	23.22217	26.066066	-0.503881	-0.22416	-0.310843
-3.630214	-0.872703	11.363425	-20.819799	83.68462	-24.986755	0.18194	0.331322	-0.860108	0.839567	-1.36261	10.99635	31.530356	-103.349204	68.777007	0.171466	-0.277405	-0.824447	11.629032	2.268263	0.887414	4.299082	9.233376	7.805457	-0.503885	-0.205488	-0.358264
-3.51513	-0.125805	11.425642	-9.946611	86.333987	-15.742802	0.182697	0.321079	-0.870768	9.567748	7.856686	8.300471	35.269266	-85.766239	47.24928	0.184512	-0.32222	-0.836061	11.216317	-1.217084	0.445529	29.779278	1.430537	-63.048101	-0.503676	-0.189296	-0.359101
-4.092253	0.045969	11.187819	-10.297659	93.772044	-7.983998	0.22543	0.323483	-0.885891	4.933147	4.258733	6.501535	73.68416	-76.170239	-4.078736	0.184512	-0.32222	-0.836061	11.740334	-3.834687	-0.274575	-0.777666	-1.836143	-91.908116	-0.517931	-0.222711	-0.341969
-3.403837	-0.298936	11.256586	-13.879816	101.826488	-4.438462	0.210195	0.313273	-0.843314	2.505553	-1.478539	10.861395	35.148738	-47.886887	-18.379154	0.158705	-0.351939	-0.847852	10.872098	-4.990969	0.482763	-5.324784	-7.375259	-75.433423	-0.490328	-0.219824	-0.388412
-3.665903	0.10867	12.503475	-22.420439	112.87157	-3.866269	0.223916	0.343969	-0.864571	1.730876	-0.743453	12.374356	49.68443	-32.010302	-21.446451	0.132307	-0.383802	-0.830944	10.40354	-5.105299	0.653186	-5.30913	-9.433978	-36.045681	-0.50444	-0.254892	-0.340225
-3.368211	1.259947	13.139253	-23.437621	128.697716	-7.378282	0.251414	0.336163	-0.837118	0.231737	2.186295	9.797817	39.674501	-29.20897	-14.336449	0.09375	-0.367634	-0.84547	11.825956	-2.492399	1.349698	-28.598545	-8.564281	10.882685	-0.476136	-0.222925	-0.326231
-3.243391	0.859945	13.651469	-26.160774	146.455044	-11.314087	0.265149	0.34956	-0.840883	0.748594	1.565594	9.694897	41.895878	-30.4142	0.820573	0.133048	-0.351017	-0.86165	12.477611	0.702523	1.914562	-29.537062	-9.390854	43.20198	-0.532536	-0.270666	-0.355056
-3.749939	1.092014	14.097237	-27.10168	165.270201	-15.820634	0.293047	0.310683	-0.792522	2.510069	2.237365	8.713429	24.741629	-19.429497	-0.594596	0.132753	-0.352089	-0.847301	11.594226	2.273837	2.204265	-23.193442	-11.223583	33.312916	-0.490257	-0.22065	-0.372884
-3.455665	0.806288	14.49957	-28.193514	187.365615	-17.267692	0.307525	0.331137	-0.824439	1.873677	2.63277	8.587184	17.497225	-11.716337	-7.799106	0.145654	-0.367334	-0.846573	11.364764	2.27586	2.559305	-16.69632	-11.3391	-18.394974	-0.51849	-0.253444	-0.371351
-3.664184	0.178939	15.515817	-28.810029	210.510919	-16.490697	0.363635	0.32611	-0.811759	1.339832	1.00178	10.386187	14.12543	-6.908408	-3.993031	0.132753	-0.352089	-0.847301	11.228638	0.586981	1.351797	-6.809519	-11.09037	-59.770599	-0.504023	-0.222507	-0.341899
-3.608949	-0.108793	15.402018	-25.418234	232.599236	-15.834415	0.348786	0.302129	-0.765767	1.277431	1.001698	10.15842	18.254284	-5.118778	-2.368864	0.132307	-0.383802	-0.830944	11.296242	-1.212522	1.58486	-7.18817	-11.347931	-49.778319	-0.518766	-0.287481	-0.338621
-2.349476	0.06262	15.427239	-22.7067	255.105873	-17.316305	0.333536	0.309218	-0.740681	1.517148	1.114307	10.616467	18.780021	-5.25236	-4.373581	0.119186	-0.354308	-0.818325	10.509919	-1.040741	0.552879	-10.48431	-12.307571	-14.2874	-0.532256	-0.2553	-0.340365
-1.957686	0.175283	14.980691	-19.102631	274.816259	-21.115943	0.402239	0.341601	-0.724523	1.500247	1.733327	9.880674	18.221737	-5.614727	-6.319783	0.119777	-0.352164	-0.847025	9.44987	-0.108106	0.776654	-13.217291	-12.945916	11.031278	-0.504582	-0.25324	-0.371281
-2.155349	0.571949	13.671418	-17.830572	290.702038	-27.148932	0.417531	0.282614	-0.697133	1.204174	1.620873	9.478057	16.473672	-4.74011	-7.483944	0.106355	-0.383952	-0.830392	8.552584	1.285767	0.286826	-12.213802	-12.450039	7.785367	-0.476975	-0.269024	-0.370303
-1.531823	1.546793	13.403504	-14.456277	301.532428	-36.000465	0.444629	0.305879	-0.690587	1.554294	1.676746	9.711916	13.153087	-3.583462	-7.93753	0.132602	-0.38273	-0.845293	8.073042	1.63382	-0.079935	-4.035342	-10.834815	-15.479033	-0.476345	-0.239118	-0.325394
-1.872796	2.639155	13.571967	4.031418	304.502803	-46.741785	0.427107	0.343696	-0.633521	1.095434	2.072017	9.815856	10.82464	-4.474518	-7.485849	0.09375	-0.367634	-0.84547	8.075492	1.053307	-0.022501	4.739052	-9.481168	-30.979205	-0.518699	-0.269636	-0.370514
-2.118724	2.92291	12.715923	21.380839	294.480475	-68.184397	0.484361	0.314656	-0.628086	1.146416	2.353324	9.534104	8.184947	-5.410027	-5.524302	0.132452	-0.413371	-0.843286	8.367751	-0.574981	-0.383362	4.197794	-9.105697	-29.023483	-0.50472	-0.270258	-0.354916
-1.239807	1.937538	10.796632	45.22552	265.360243	-89.65252	0.483633	0.2903	-0.582443	1.385356	2.240564	9.935322	5.110687	-6.590722	-4.428715	0.118741	-0.38602	-0.801968	7.541255	-0.456938	-0.398274	-3.906261	-9.5724	-16.249499	-0.50472	-0.270258	-0.354916
1.780089	-0.997796	9.990543	30.326322	222.21455	-130.697593	0.497367	0.303696	-0.586208	1.270201	1.621097	9.875743	4.979512	-7.175954	-4.280501	0.145578	-0.382655	-0.845569	7.312759	-0.396592	0.01692	-12.614845	-8.604641	-3.38718	-0.491158	-0.303265	-0.337643
3.198591	-3.242188	9.269879	40.982624	180.235719	-134.849176	0.495124	0.299826	-0.519244	1.328521	1.226675	9.87662	5.107064	-6.838668	-4.030422	0.092714	-0.401491	-0.800413	7.312124	0.823499	0.141925	-17.737644	-6.216557	3.496627	-0.504724	-0.251587	-0.402336
14.349104	-7.492217	11.514751	32.321522	105.500752	-144.20502	0.493981	0.323839	-0.512	1.324464	1.451855	9.706891	5.693576	-6.776329	-3.042838	0.144397	-0.386942	-0.78817	8.08142	1.34517	0.338177	-16.646996	-2.912585	0.848455	-0.505066	-0.303469	-0.337714
8.79604	-6.798657	11.466491	36.657478	11.283769	-82.80743	0.522993	0.295548	-0.505866	1.389629	1.902723	10.104956	5.843175	-7.086063	-2.275099	0.132012	-0.384873	-0.816594	8.081845	1.635797	0.39932	-14.06971	0.008036	-5.623462	-0.504649	-0.271084	-0.339388
7.281068	-5.769181	10.134263	47.645386	-51.862715	-31.558868	0.480975	0.334799	-0.553878	1.325588	2.127916	9.820739	5.132979	-7.007306	-1.6275	0.092789	-0.38617	-0.801417	9.440412	0.645152	0.36052	-9.709659	0.275421	-9.277294	-0.505346	-0.318836	-0.352404
7.225999	-5.711215	10.247097	52.104111	-109.975002	10.973901	0.535556	0.367557	-0.537371	1.669772	2.127222	9.771353	3.588456	-6.968793	-1.135112	0.118741	-0.38602	-0.801968	9.150968	0.588987	0.654305	-11.288598	-0.897675	-8.777007	-0.490812	-0.270054	-0.354845
7.450066	-5.023048	10.027034	34.551281	-154.627483	44.334996	0.479846	0.341513	-0.529142	1.270871	1.902797	9.93262	2.721134	-7.106258	-0.551444	0.106355	-0.383952	-0.830392	9.270817	1.228295	0.838946	-10.669643	-3.352657	-4.825136	-0.449013	-0.288939	-0.291686
7.873194	-3.582233	11.234776	40.473202	-190.732551	65.284236	0.493952	0.358438	-0.546983	1.208147	2.071706	9.704995	1.848312	-7.673252	0.058778	0.132898	-0.381658	-0.859643	9.736073	1.341884	0.488803	-4.727825	-5.084268	-3.921537	-0.491229	-0.302439	-0.353171
7.234114	-3.066733	10.769875	49.554325	-218.504842	73.911873	0.523694	0.354503	-0.586494	1.502342	1.902413	9.994095	0.488589	-7.663859	0.67434	0.119406	-0.368556	-0.831672	9.451031	1.286708	1.022216	0.978067	-6.033029	-7.818976	-0.448738	-0.254902	-0.324416
6.377898	-3.582603	10.864707	46.600837	-235.949072	75.476503	0.483975	0.328427	-0.631502	1.739079	1.676897	10.281939	1.469757	-8.148217	1.625986	0.158774	-0.396828	-0.859191	9.273963	0.822258	0.95703	5.924523	-5.981449	-11.107115	-0.533162	-0.319244	-0.352545
5.283466	-3.698146	10.501949	50.992381	-239.096138	75.351482	0.470612	0.318558	-0.641813	1.557921	1.676888	9.881835	2.152936	-7.777635	2.555067	0.118446	-0.387092	-0.787619	8.922316	0.242555	1.007861	9.656346	-5.938704	-10.998592	-0.490741	-0.27088	-0.339318
4.408936	-3.528577	9.690028	39.668693	-236.711699	74.779032	0.456492	0.318933	-0.641464	1.260877	2.071409	9.479645	2.838253	-7.310023	2.714409	0.10606	-0.385024	-0.816042	9.457593	0.35848	1.257887	11.798651	-4.810312	-9.942124	-0.518903	-0.3045	-0.322256
3.915419	-2.834081	10.819964	28.212444	-233.016562	69.813957	0.415673	0.264973	-0.626753	1.500786	1.451674	9.880437	4.756388	-7.09971	2.409761	0.118666	-0.401341	-0.800965	9.404485	0.185624	1.55558	14.287453	-3.694563	-7.542162	-0.491229	-0.302439	-0.353171
3.22082	-3.179922	10.407182	18.309447	-227.753348	60.148624	0.457635	0.294919	-0.648708	1.563318	2.015109	10.165318	6.384465	-7.78587	2.650875	0.132527	-0.39805	-0.84429	8.982993	0.475218	1.129765	16.25272	-1.774658	-6.183187	-0.491088	-0.304092	-0.322116
2.439502	-1.911044	11.477111	4.596794	-222.325674	47.982334	0.388147	0.307377	-0.68919	1.851145	2.01457	10.171362	6.840617	-8.30454	3.139337	0.09397	-0.381883	-0.858816	9.154384	0.066798	0.771894	17.658736	0.523902	-6.138125	-0.477597	-0.336272	-0.320371
1.639054	-1.910222	11.518375	-4.383568	-217.734512	32.844442	0.375541	0.287266	-0.710161	1.777757	2.070391	9.433886	6.060335	-8.871168	3.872955	0.092714	-0.401491	-0.800413	8.856407	-0.107497	0.585929	18.604351	2.599451	-5.387418	-0.463555	-0.300378	-0.384086
0.224436	-1.963009	12.343093	-7.212027	-215.189713	18.911491	0.388918	0.279835	-0.682358	1.620884	2.015001	10.166527	5.988457	-9.554467	5.068409	0.066831	-0.44653	-0.811201	8.984499	0.301237	1.18893	18.717334	3.958053	-3.621728	-0.491021	-0.286247	-0.354008
-0.222298	-2.190031	12.901751	-7.196909	-214.898884	6.864605	0.40301	0.314059	-0.717691	1.796213	1.902111	10.283338	5.550184	-9.933592	5.927483	0.105614	-0.416736	-0.799685	9.384251	-0.109454	0.416113	18.756446	4.346064	-2.676296	-0.505204	-0.320488	-0.321349
-1.589889	-1.957823	13.217111	-10.480106	-214.375929	-2.593723	0.361034	0.301412	-0.713228	1.443699	2.465826	9.99336	5.324891	-10.556113	6.907623	0.080849	-0.352389	-0.846198	9.20006	0.121772	0.054359	19.464425	4.319916	-2.862108	-0.504999	-0.285624	-0.369606
-2.966016	-2.244518	13.075474	-11.33669	-210.875891	-7.748131	0.319387	0.344191	-0.775316	1.841259	2.126851	9.71834	4.635453	-11.245649	7.855897	0.118961	-0.400269	-0.815315	9.138978	0.063336	-0.066803	18.4091	3.801471	-3.375368	-0.53337	-0.335436	-0.351708
-3.432627	-2.705649	12.609811	-15.313791	-207.470118	-11.300397	0.306424	0.303252	-0.764719	1.549805	2.127248	9.542377	2.677654	-12.103388	8.616509	0.105915	-0.355455	-0.8037	9.200195	0.063696	0.054112	17.950593	3.605864	-2.364222	-0.504791	-0.269432	-0.370443
-3.87495	-2.874264	13.396123	-19.932709	-205.921384	-11.415301	0.292675	0.307155	-0.778446	1.730401	1.789226	9.885557	0.601096	-12.62254	8.948791	0.119482	-0.353236	-0.832675	9.613848	-0.169553	0.060826	17.523164	3.440958	-1.353327	-0.491229	-0.302439	-0.353171
-4.401783	-3.853051	12.756615	-24.767094	-206.846271	-7.797383	0.278526	0.342128	-0.81308	1.84795	1.789105	10.001254	-0.709905	-13.654046	9.39991	0.079813	-0.386246	-0.801141	9.438575	-0.459281	0.116195	17.859791	3.757536	-2.27293	-0.505834	-0.350394	-0.366258
-5.262661	-4.082678	12.625241	-28.569372	-206.729945	-0.638742	0.236536	0.34678	-0.826108	1.61186	1.676638	9.713125	-1.399362	-14.400904	9.731044	0.119181	-0.414517	-0.828661	9.488768	-0.92625	-0.423844	18.071712	4.945646	-4.693768	-0.491229	-0.302439	-0.353171
-5.71183	-4.022975	13.071399	-31.424659	-202.773048	7.31523	0.192674	0.35109	-0.786249	1.791678	1.113247	9.999476	-2.269121	-14.780093	9.757403	0.092789	-0.38617	-0.801417	9.845491	-0.635938	-0.236285	13.662173	5.830466	-5.996169	-0.519187	-0.301195	-0.384367
-6.528158	-3.62344	12.31841	-39.938055	-196.029982	14.103737	0.207523	0.375072	-0.832242	1.899925	2.183121	9.776236	-1.835977	-14.742729	9.573151	0.067132	-0.385249	-0.815215	9.485737	-1.043143	-0.604059	9.977256	6.595492	-4.336149	-0.491718	-0.333998	-0.367025
-8.199138	-2.820228	11.777819	-43.884556	-182.832817	25.920473	0.209409	0.358115	-0.867638	1.84862	2.070805	10.05813	-2.673167	-14.998252	9.508279	0.080328	-0.399422	-0.828837	9.314325	-1.099578	-0.308073	8.605604	7.026034	-2.071641	-0.50535	-0.300164	-0.399825
-9.622958	-0.921691	12.21277	-74.431556	-170.296168	41.63476	0.196818	0.320704	-0.871117	2.18786	2.126252	9.782233	-1.752066	-15.445904	9.412084	0.10591	-0.415664	-0.814035	9.719465	-0.986102	-0.719224	7.057182	7.405863	-3.840451	-0.505838	-0.331723	-0.413679
-12.52805	0.060306	12.956027	-78.187788	-164.54828	59.36761	0.15217	0.369856	-0.855581	1.448834	1.677341	10.162615	-2.080878	-14.705536	8.093549	0.079807	-0.446455	-0.811476	8.833663	-1.216628	-0.796627	2.724674	7.606668	-7.004121	-0.519396	-0.317387	-0.38353
-14.354257	1.097027	13.265858	-68.167563	-168.044603	78.809409	0.136549	0.373416	-0.81642	2.318036	1.844953	10.464089	-3.181556	-16.194731	8.601943	0.080108	-0.385174	-0.815491	8.542018	-1.273287	-0.622655	1.437271	7.711764	-5.777508	-0.519466	-0.316561	-0.399058
-16.790458	3.102708	11.692504	-56.859045	-173.516856	94.014079	0.109794	0.388279	-0.872025	1.788313	2.23981	9.943785	-2.492503	-17.930171	8.030327	0.067207	-0.369928	-0.816219	8.957352	-0.808882	-0.433254	2.137905	7.299197	-1.132647	-0.519951	-0.366791	-0.365491
-19.39504	5.051795	10.286127	-60.634864	-169.626632	101.995757	0.082325	0.361486	-0.864495	2.242446	1.788019	9.613239	-2.369364	-20.210558	9.980787	0.080108	-0.385174	-0.815491	8.843702	-1.272479	-0.257712	0.117514	6.860468	2.147005	-0.477743	-0.315949	-0.398847
-20.599983	5.569157	10.151209	-61.14997	-152.807157	107.572461	0.095688	0.371354	-0.854184	2.490732	1.84463	10.467716	-5.459966	-22.564025	12.174573	0.080328	-0.399422	-0.828837	8.490415	-1.620125	-0.265798	-0.058501	7.060067	3.491487	-0.505767	-0.332549	-0.398151
-23.944787	6.485559	8.896573	-43.717646	-125.53925	107.505238	0.068561	0.382688	-0.895713	2.368133	1.957222	10.125555	-7.505826	-25.39189	13.902058	0.04162	-0.413896	-0.841356	8.960613	-1.737851	-0.377303	-0.654662	7.608811	6.425179	-0.49193	-0.331519	-0.413608
-25.069247	7.857223	7.061909	-12.370138	-92.706551	91.274713	0.067447	0.372103	-0.853486	1.909789	1.451157	10.172097	-7.378723	-29.731119	16.479486	0.053936	-0.371075	-0.801593	8.26495	-1.442884	0.329611	0.074295	9.033061	7.974539	-0.450206	-0.330907	-0.413398
-23.897756	8.941228	5.554844	-4.805256	-60.823141	70.037665	0.055584	0.359049	-0.902609	2.312076	1.168702	10.123683	-14.044689	-33.93577	18.097095	0.053861	-0.386396	-0.80059	8.025989	-1.617314	0.144747	-0.712083	11.329886	7.446824	-0.50598	-0.330071	-0.444734
-23.164625	8.995718	5.00103	1.832454	-29.526417	40.175723	0.04032	0.383437	-0.895015	2.545988	1.788097	10.355598	-19.117314	-39.276821	18.348206	0.066617	-0.372072	-0.787519	8.384622	-1.675211	0.39073	-3.784807	14.28295	10.714326	-0.464252	-0.348129	-0.397103
-22.838049	9.3365	4.156362	9.451767	0.260117	5.313155	0.041835	0.362952	-0.916335	2.210051	1.901784	10.801556	-19.570999	-45.928859	16.956055	0.04118	-0.385399	-0.814664	8.026684	-1.442839	0.205396	-3.234529	17.281539	16.750136	-0.492001	-0.330693	-0.429136
-26.325687	12.742113	7.399042	20.331391	68.232599	-41.000222	0.06929	0.407044	-0.941357	2.501504	1.901387	10.97752	-18.185968	-51.415824	14.467128	0.054602	-0.353611	-0.831296	7.726506	-1.617628	-0.100383	-4.431811	20.158522	19.155556	-0.520026	-0.347293	-0.428439
-38.41151	16.151771	9.963021	176.596932	180.308778	-112.926757	0.053683	0.393305	-0.884704	2.459307	1.45142	11.655607	-18.808041	-56.893754	11.360113	0.028424	-0.399722	-0.827734	8.845207	-1.44646	-0.198547	-13.435516	22.273565	21.562369	-0.450348	-0.329254	-0.444453
-22.311999	-12.110695	12.600757	38.337962	228.742572	0.971439	0.06969	0.375973	-0.92045	3.055751	1.95817	12.687635	-12.695437	-64.713471	8.851833	0.015969	-0.352764	-0.844819	9.56294	-0.341916	0.478332	-27.449878	23.01143	34.143189	-0.478022	-0.331315	-0.413538
-7.354416	3.373087	23.015946	-9.596907	177.872613	87.938438	0.112823	0.347308	-0.914666	2.121543	2.130749	14.762891	-12.171647	-76.574711	13.050386	0.041111	-0.340509	-0.803325	11.221631	0.759726	0.993097	-21.793704	20.99623	56.451298	-0.491721	-0.315327	-0.414445
18.378251	-7.465602	18.526545	7.51199	53.736384	18.024867	0.12773	0.302092	-0.890691	2.447107	3.258385	16.638991	6.462567	-90.741738	10.797386	-0.009983	-0.352914	-0.844268	13.831162	1.395835	1.823025	-7.919112	17.039431	62.260194	-0.519754	-0.294585	-0.50859
-0.851937	-0.868178	12.951906	177.319922	89.742901	-25.70432	0.112838	0.330008	-0.897174	2.466795	3.709835	17.602244	32.945417	-105.249132	0.562794	-0.010573	-0.355058	-0.815568	16.023313	1.973824	2.405376	-5.250176	6.997525	46.245992	-0.519053	-0.265505	-0.448153
-4.952612	4.087904	2.493067	103.696719	139.022567	9.106837	0.155228	0.294286	-0.863238	2.223921	1.456382	16.802557	31.462665	-128.708937	9.79281	-0.03616	-0.399026	-0.840705	14.497251	1.22383	2.732992	19.956338	-2.309862	23.209444	-0.491796	-0.295829	-0.477394
-3.130739	-6.736455	10.325477	-55.00521	28.604661	-8.086671	0.155985	0.284043	-0.873898	2.942425	2.132193	18.176983	30.474596	-157.500662	13.513706	-0.02444	-0.418559	-0.782578	12.429924	-1.32852	2.26425	25.314643	-2.383568	-0.375741	-0.505358	-0.262822	-0.494666
-2.646007	-2.69702	14.784704	137.270933	26.231884	6.041858	0.210567	0.316801	-0.85739	2.112946	3.318173	19.859034	45.057328	-181.379487	13.627353	-0.062697	-0.34111	-0.801119	11.825436	-1.795239	1.412571	2.318528	1.626186	6.229013	-0.506121	-0.328418	-0.47579
-1.605215	4.206174	3.922606	101.874838	36.038218	7.591201	0.18384	0.297065	-0.878012	0.6949	3.040021	20.791447	58.061312	-209.917453	18.44117	-0.088724	-0.35658	-0.799564	12.096233	-0.348711	0.286023	-9.211113	1.536029	34.668763	-0.533449	-0.297268	-0.462077
-3.700001	-2.024387	10.675248	44.1542	10.714542	0.169696	0.16972	0.29744	-0.877663	-1.272103	3.099637	20.297275	72.018442	-233.786887	24.165436	-0.128393	-0.38959	-0.76803	12.138439	2.145951	-0.301314	-12.681683	-0.150937	33.925108	-0.491446	-0.281289	-0.447175
-1.693704	1.466716	8.057958	51.588507	14.301771	14.803871	0.21171	0.292788	-0.864635	-2.434937	3.439349	19.763625	84.297084	-253.08091	35.54496	-0.154565	-0.375491	-0.754132	11.789263	1.45059	-0.131163	4.237075	-0.801782	10.971224	-0.505633	-0.296859	-0.461936
-1.599077	-0.93815	9.868236	29.269392	7.959614	-1.488299	0.198347	0.282919	-0.874946	-2.42046	3.212212	17.725618	101.482593	-270.218055	45.65523	-0.142625	-0.409273	-0.709352	11.570029	-0.578811	0.514758	4.02795	2.010093	8.146561	-0.505216	-0.264474	-0.46361
-2.302962	0.782216	9.06617	34.584916	10.827159	5.28987	0.199476	0.276205	-0.899682	-1.484696	3.490372	15.764021	107.902587	-281.971181	51.956581	-0.181553	-0.409498	-0.708524	11.293096	-0.806484	1.466777	-15.74647	3.705153	14.903982	-0.477542	-0.262414	-0.494526
-2.02898	0.836796	8.446595	22.108102	7.805431	1.044585	0.198733	0.269148	-0.87153	-0.774144	3.656493	14.024051	113.640912	-286.923424	54.841018	-0.20839	-0.412864	-0.664924	11.481594	-0.048934	2.192175	-28.013347	0.98395	19.454767	-0.532894	-0.247864	-0.480116
-2.587789	0.323132	9.115525	6.955543	1.885031	-0.756086	0.214354	0.265588	-0.910691	0.301813	4.104425	13.254445	113.409602	-265.451836	63.286081	-0.273866	-0.475592	-0.645181	11.178466	1.518805	1.953721	-22.505722	-3.139207	17.803855	-0.490891	-0.231885	-0.465214
-1.944587	0.268129	9.809769	1.805722	1.519814	-0.471185	0.19949	0.258906	-0.88219	-2.477627	3.151268	12.346018	123.965998	-221.095367	71.998107	-0.287948	-0.464635	-0.58851	10.641684	1.57686	1.64453	-7.627695	-6.357813	8.80945	-0.519057	-0.246834	-0.495573
-1.945659	0.210447	9.752675	1.165103	2.384596	-1.099316	0.171235	0.276954	-0.898983	-9.528213	-3.258827	10.324017	146.958036	-181.968114	81.315959	-0.327246	-0.481252	-0.572329	10.525116	0.473438	1.577724	1.26413	-7.969877	2.12194	-0.519332	-0.280871	-0.462843
-2.116516	0.49802	9.807394	2.681891	4.820781	-1.186761	0.21321	0.289602	-0.903447	-17.898014	-10.90562	8.386448	140.094836	-111.396553	117.008513	-0.340592	-0.497719	-0.5567	10.585327	-0.514236	1.514715	1.795697	-7.733689	3.127484	-0.463283	-0.24767	-0.464237
-1.998584	0.383778	9.979698	-0.634513	5.136976	-3.31886	0.171992	0.266711	-0.909643	-22.717329	-12.644675	6.188973	73.769855	-24.778327	111.094198	-0.340442	-0.467079	-0.558707	10.520559	0.06567	1.276459	-4.956255	-6.203118	6.598373	-0.518568	-0.215275	-0.48172
-1.432845	0.55424	9.650438	-1.978074	6.556133	-4.33466	0.212853	0.268774	-0.871879	-21.778024	-11.690358	4.454503	27.646569	55.101805	42.724351	-0.354599	-0.471441	-0.501033	10.233026	-0.338704	1.628668	-7.816574	-3.988132	10.296519	-0.491032	-0.230233	-0.49627
-2.177727	-0.192202	9.575972	-2.334933	8.338202	-4.427344	0.184984	0.273051	-0.885257	-16.509814	-9.950255	8.812746	-21.923738	121.261362	-34.344763	-0.393237	-0.530804	-0.52489	10.814695	0.471527	1.283692	-4.191652	-2.114594	10.79406	-0.518781	-0.212796	-0.528303
-2.133343	0.666726	8.955322	-1.101357	9.041695	-3.622076	0.213611	0.258531	-0.882539	-13.131589	-4.659494	11.209544	-1.165474	159.050249	-71.435027	-0.340812	-0.483471	-0.543354	9.814857	0.416488	1.444458	1.256616	-0.866684	7.34508	-0.491032	-0.230233	-0.49627
-1.947063	0.612296	9.697511	-3.649361	7.383005	-2.04694	0.184226	0.283294	-0.874596	-12.657042	-5.281854	9.124237	7.82738	176.320352	-71.841567	-0.353864	-0.498866	-0.542075	9.934509	-0.280694	1.443692	1.680736	-0.136673	4.925474	-0.519128	-0.246007	-0.511101
-2.22958	0.038812	9.86009	-4.292296	7.659708	-2.316608	0.214768	0.217218	-0.872292	-10.86781	-5.848358	9.331158	-20.150413	198.899452	-70.899567	-0.301445	-0.511743	-0.570873	10.04706	0.182655	1.208243	-1.211442	-0.15876	6.06693	-0.518777	-0.231467	-0.480883
-2.237665	0.439214	9.463807	-3.369394	8.029643	-2.037237	0.199104	0.272677	-0.885606	-8.594562	-4.161413	10.852358	-49.483082	220.538462	-60.350868	-0.340002	-0.495576	-0.5854	8.931795	-0.045848	1.48588	-2.164748	-0.632702	7.203531	-0.518986	-0.24766	-0.480045
-2.235272	0.20993	9.576548	-3.548213	8.076687	-0.839898	0.17052	0.235299	-0.835848	-5.58024	-3.095836	11.992274	-59.075017	230.83	-41.853629	-0.300634	-0.523848	-0.612919	8.996043	0.071406	1.78701	-3.281257	-1.40048	7.119546	-0.504869	-0.231263	-0.480812
-2.466434	0.09473	9.457905	-4.37095	8.246779	0.085275	0.170877	0.256127	-0.867416	-4.021331	-2.366213	12.30873	-70.300139	228.77256	-29.861048	-0.222037	-0.490613	-0.64528	8.811852	0.302631	1.425256	-1.281091	-1.789355	6.961334	-0.532339	-0.19846	-0.498155
-2.177153	0.554779	9.635963	-4.671663	8.823324	0.616865	0.170134	0.24907	-0.839264	-2.047676	-0.848194	13.257347	-90.907174	219.952033	-22.659569	-0.234423	-0.488544	-0.673704	9.053284	0.361404	1.72944	1.249873	-1.785306	7.441182	-0.518848	-0.230641	-0.49641
-2.119567	0.095205	9.635146	-5.249081	9.244578	1.177393	0.198361	0.26562	-0.857454	-0.465583	-0.230331	14.649859	-94.090728	215.643454	-16.138897	-0.195721	-0.53428	-0.67152	8.4704	0.073857	2.07664	3.564975	-0.850487	6.572527	-0.546593	-0.231876	-0.481023
-2.232346	0.785069	9.74952	-5.33392	10.068663	1.651046	0.197975	0.279391	-0.86087	0.166475	1.007803	14.72084	-85.72225	216.817667	-24.998602	-0.182224	-0.487172	-0.689157	7.881049	-0.273249	2.064153	5.235331	0.045746	6.256556	-0.50431	-0.200531	-0.451431
-2.293433	-0.077477	9.517375	-6.180411	11.470613	2.350954	0.226588	0.28217	-0.875644	1.439389	0.780347	15.030444	-76.78928	218.786718	-32.555088	-0.129875	-0.455159	-0.706617	8.057267	-0.390053	2.007053	6.42624	1.441635	7.743245	-0.518919	-0.229815	-0.511938
-2.005058	0.095122	9.637373	-4.114057	12.63231	3.743918	0.197975	0.279391	-0.86087	1.950918	1.680475	14.815525	-70.386864	214.114135	-36.141445	-0.103263	-0.497755	-0.747206	8.235571	0.016568	2.131898	9.273316	2.208385	8.523961	-0.504869	-0.231263	-0.480812
-2.288155	0.32582	9.80333	-1.506028	12.44827	4.776104	0.199504	0.241606	-0.864698	1.997173	1.905263	14.307167	-69.816192	210.243534	-37.87494	-0.115938	-0.436548	-0.750945	7.755874	-0.042158	1.703499	12.757655	2.717605	7.805919	-0.49145	-0.262618	-0.494596
-2.343432	0.670993	9.91737	0.640179	12.111561	5.531128	0.199118	0.255377	-0.868114	1.942695	2.187165	14.476114	-67.409067	207.866098	-34.906565	-0.089991	-0.496608	-0.761832	7.939505	-0.505935	2.004357	15.220746	2.578255	7.339193	-0.491032	-0.230233	-0.49627
-2.293681	0.267172	9.518823	1.497451	12.74408	4.31226	0.213982	0.262059	-0.896615	2.22668	2.299145	14.312335	-65.995821	205.221435	-30.461975	-0.075829	-0.432035	-0.809171	7.636431	-0.855694	1.518116	17.52508	1.236207	7.765159	-0.518151	-0.18289	-0.483394
-2.123197	0.496572	9.466275	1.19527	14.044791	3.322251	0.212482	0.265246	-0.857803	2.867991	1.227917	14.60793	-68.781845	200.608068	-23.45089	-0.010284	-0.414196	-0.840253	8.531172	-0.681266	2.074527	19.947548	-0.064395	7.181863	-0.519198	-0.245181	-0.526629
-2.350071	0.612104	9.57601	-2.236815	14.872384	2.118883	0.211724	0.275488	-0.847143	3.563719	1.170483	14.848948	-70.848312	194.00135	-19.356707	-0.009919	-0.458013	-0.865942	8.28918	-0.97259	1.709448	23.271062	-1.312571	7.756514	-0.476916	-0.213836	-0.497037
-2.182845	0.725897	9.352421	-5.237311	15.569324	1.770836	0.197632	0.241264	-0.81181	3.842761	1.338603	14.458657	-69.755453	187.757898	-17.907459	0.002397	-0.415193	-0.826179	8.530186	-1.204445	1.952488	26.197415	-1.948191	8.115727	-0.477053	-0.230855	-0.480672
-2.349615	-0.019753	9.573356	-8.757363	16.447165	1.519227	0.241494	0.236954	-0.85167	3.893481	0.493206	14.062678	-70.532358	182.370728	-19.934632	0.054747	-0.38318	-0.843639	8.874514	-1.265556	1.419681	26.252605	-2.215076	7.322117	-0.505011	-0.229611	-0.511868
-2.241829	0.036158	9.234706	-9.452883	17.668546	1.939759	0.198733	0.269148	-0.87153	4.757094	1.054942	14.137925	-73.555571	177.49103	-24.332205	0.068603	-0.440099	-0.897299	9.117337	-0.857834	1.845162	28.73861	-3.332526	6.79885	-0.532827	-0.230019	-0.512008
-2.630486	0.211426	9.853019	-12.449831	18.386126	2.481396	0.183112	0.272709	-0.832369	5.369439	1.221942	13.188492	-73.031476	169.429572	-31.841176	0.081879	-0.378742	-0.901589	8.991311	-1.207998	1.362223	30.697558	-5.346802	7.045886	-0.560505	-0.213409	-0.528514
-2.806827	0.38291	9.62299	-13.298432	19.731438	2.751043	0.226617	0.247572	-0.84066	6.178743	0.713553	13.318269	-72.090382	159.975842	-41.182262	0.107536	-0.379664	-0.887791	8.873008	-1.091575	1.360516	31.116027	-7.493364	7.727039	-0.547152	-0.262608	-0.510404
-2.568653	0.040025	10.080821	-13.561599	21.101847	3.755429	0.240723	0.264496	-0.858501	6.345395	0.712992	13.038698	-75.096289	153.85225	-47.50317	0.146834	-0.363047	-0.903972	9.051002	-1.498513	1.362087	31.492576	-8.373714	10.175082	-0.504873	-0.212592	-0.528233
-2.807816	0.210344	9.565413	-14.334232	23.594276	5.883521	0.254843	0.264122	-0.858851	7.383474	1.612483	13.231136	-80.728774	150.231635	-52.876456	0.173822	-0.32904	-0.94958	9.047971	-1.615406	1.181872	32.358885	-9.307473	12.040903	-0.491241	-0.246425	-0.495433
-2.572817	-0.36303	9.851719	-13.758316	25.717626	8.584369	0.183126	0.25541	-0.814877	8.468432	1.779095	12.85777	-84.228936	144.30342	-57.284547	0.173232	-0.331184	-0.92088	8.760458	-1.554925	1.595965	31.933735	-9.756165	13.878547	-0.51899	-0.228989	-0.527466
-2.3405	-0.305031	10.026974	-16.676666	28.482111	10.232341	0.225445	0.306184	-0.8684	10.020172	1.83242	12.777179	-87.5219	137.643793	-61.915479	0.160551	-0.330187	-0.934954	9.001755	-1.438077	1.900396	29.757222	-9.322874	15.596084	-0.532894	-0.247864	-0.480116
-2.855132	0.32744	10.07646	-20.579623	32.5359	8.898817	0.212482	0.265246	-0.857803	12.030735	3.405855	12.764179	-87.39647	127.51389	-68.088518	0.212455	-0.329887	-0.936057	8.820284	-1.903516	1.595582	28.873164	-9.035027	17.034555	-0.476916	-0.213836	-0.497037
-2.501211	-0.187611	10.592647	-24.359007	37.557343	6.292656	0.224702	0.299127	-0.840248	14.215611	4.134009	12.754095	-85.537044	113.009955	-72.145946	0.225732	-0.26853	-0.940347	8.520397	-1.729602	1.351194	29.19504	-8.345527	18.497324	-0.505082	-0.228785	-0.527396
-3.01213	-0.07139	10.810521	-27.547144	43.650924	4.223523	0.226574	0.29947	-0.893136	15.987881	5.482221	12.339592	-84.155389	97.480694	-75.165917	0.264955	-0.267233	-0.955524	9.049611	-1.847463	1.24079	29.206677	-8.150324	20.330408	-0.50494	-0.230437	-0.49634
-3.018977	0.156929	10.470367	-28.966213	49.183463	0.852114	0.254843	0.264122	-0.858851	17.809624	7.900368	11.644002	-84.639726	79.415718	-69.150454	0.290982	-0.251763	-0.957079	9.352105	-2.195111	1.60425	28.197388	-8.293987	22.04656	-0.504314	-0.18186	-0.498851
-3.014191	-0.301639	10.695849	-31.430247	53.654887	-1.521549	0.253343	0.267308	-0.820039	17.344659	9.591098	11.579114	-75.838082	62.917173	-59.967773	0.303518	-0.223191	-0.930663	9.403013	-2.022749	1.186744	27.641719	-9.567735	23.766488	-0.476569	-0.180625	-0.514239
-3.243333	-0.129148	10.692119	-33.966355	56.029009	-3.254422	0.269335	0.267276	-0.873276	17.772397	11.560666	10.231094	-64.61974	40.819548	-38.539336	0.291503	-0.204729	-0.97444	8.75478	-2.427796	1.172908	27.419357	-11.139509	24.844705	-0.504172	-0.183512	-0.467796
-3.880227	0.444276	10.341165	-33.705118	60.020756	-5.582444	0.32356	0.279206	-0.8252	21.467102	13.638566	10.989894	-52.134718	18.421331	-20.718672	0.316784	-0.282253	-0.955624	8.824126	-2.135078	1.774314	26.918337	-12.834299	25.893959	-0.519057	-0.246834	-0.495573
-3.409778	0.216832	10.974492	-31.4468	63.5704	-6.052611	0.310968	0.241796	-0.82868	19.196188	12.62773	9.639182	-8.045709	-3.795581	-2.561835	0.291578	-0.189409	-0.975444	9.470677	-2.427685	1.605462	26.552543	-13.961347	28.285085	-0.519061	-0.228162	-0.542994
-2.9022	0.099887	10.586059	-31.8003	69.759431	-4.601547	0.309425	0.29688	-0.842343	18.937452	12.34537	8.274759	4.86445	-21.400542	18.452743	0.291578	-0.189409	-0.975444	9.049726	-2.370395	1.178658	27.213089	-15.59807	32.998343	-0.532547	-0.214653	-0.497318
-3.342088	-0.355454	11.48487	-23.21579	75.374715	2.304029	0.30831	0.286295	-0.800115	18.392052	10.82423	6.846609	19.612695	-33.681788	30.581858	0.304699	-0.218903	-0.988062	9.465445	-2.545074	1.305433	26.010546	-15.971725	39.149394	-0.490824	-0.21404	-0.497107
-3.910219	-0.296633	11.701389	-10.705009	83.344986	6.353654	0.281212	0.263031	-0.806661	17.101151	9.079265	5.515832	23.920801	-41.412804	39.356744	0.291208	-0.205801	-0.96009	9.640002	-2.894677	1.12753	23.580914	-15.865158	45.76151	-0.518568	-0.215275	-0.48172
-3.514881	-0.470454	11.424194	-8.099555	90.907451	9.781074	0.29459	0.255599	-0.778858	15.815539	7.72885	4.468585	25.671238	-41.931218	42.312737	0.290762	-0.237514	-0.943733	10.174584	-2.953226	1.316907	21.241205	-15.939572	52.160484	-0.51871	-0.213622	-0.512775
-3.632814	-0.356212	11.25189	-9.916084	99.005384	10.224614	0.335408	0.30956	-0.793569	14.366363	6.66079	3.871065	25.227901	-38.435885	36.890126	0.290467	-0.238586	-0.929384	10.239778	-3.242505	1.616306	20.434711	-16.861395	58.221928	-0.573574	-0.167514	-0.484512
-3.858408	-0.470205	11.417513	-9.419413	109.011732	11.275179	0.337695	0.261532	-0.808058	11.945618	5.315531	6.253446	26.773902	-30.635757	14.771546	0.265621	-0.249769	-0.985227	9.650987	-3.35706	1.664714	19.584207	-18.472306	62.880509	-0.546109	-0.181646	-0.51459
-4.549092	-0.068341	11.235281	-12.136649	119.146518	13.195718	0.350686	0.267872	-0.783671	4.957686	26.913362	17.788253	103.009865	-36.363037	39.809741	0.264665	-0.208095	-0.930839	10.000256	-3.649486	1.370546	20.090372	-20.730078	68.454823	-0.517805	-0.149679	-0.500596
-3.786968	-0.06502	12.159406	-17.363271	129.977021	15.012114	0.364421	0.281269	-0.787436	-22.066621	-16.935629	60.548459	146.729837	-208.426301	-89.116752	0.26525	-0.266161	-0.969874	10.948127	-2.837346	1.691149	25.110419	-21.535065	74.097833	-0.531433	-0.134517	-0.485975
-1.888589	6.280009	18.758574	-26.560943	140.456596	5.487844	0.37777	0.308436	-0.794617	-31.62944	-11.327125	12.004063	343.992555	-115.627664	62.339361	0.237377	-0.303383	-0.881217	15.945042	-1.110004	0.953407	57.512622	-3.975104	64.111055	-0.54555	-0.150913	-0.485208
-3.338804	-3.087474	17.383782	-7.222221	184.345135	-18.604038	0.378556	0.263595	-0.770293	-11.057946	5.117628	-12.063319	44.6232	-193.127707	124.475924	0.21194	-0.31671	-0.908361	22.187704	-0.720504	0.412808	108.190935	34.094288	26.751258	-0.531224	-0.118324	-0.486812
-5.579304	-2.755243	14.045438	8.774231	205.321405	1.503605	0.390805	0.262878	-0.717755	19.901101	3.104052	6.758264	-177.397151	-75.533224	49.183935	0.186654	-0.299396	-0.937513	21.394469	-1.363765	-1.101889	18.677309	9.834572	-80.916988	-0.518155	-0.164219	-0.530814
-5.619701	-3.60086	17.791895	-15.790367	234.343461	12.994348	0.433166	0.261754	-0.718802	23.179381	11.832045	10.17505	85.629115	-134.322395	2.073513	0.147431	-0.300693	-0.922336	14.023107	-0.938872	-0.878272	-35.524846	-19.447021	-184.293176	-0.490127	-0.166289	-0.48409
-5.151881	-6.356697	18.187192	-18.856828	269.592568	33.477258	0.432423	0.254697	-0.69065	-3.982629	-6.650867	8.342771	52.987617	-90.040109	-43.845435	0.133934	-0.347801	-0.9047	9.600812	-2.612949	-0.967975	25.433545	-33.984298	-224.355158	-0.504523	-0.198052	-0.498014
-3.331476	-3.07344	20.680148	-24.386856	304.321595	44.237488	0.502283	0.245768	-0.664245	0.789423	2.583587	14.395628	18.884707	-110.086528	-19.010413	0.173307	-0.315863	-0.921884	9.020723	-5.049803	-0.749736	8.013148	-39.971914	-204.340341	-0.50431	-0.200531	-0.451431
0.280742	-1.006708	21.100103	-13.165571	343.856594	43.621998	0.502697	0.197398	-0.625845	0.825816	-1.757493	10.316343	39.699402	-102.205613	-10.746149	0.120883	-0.363197	-0.90342	9.873441	-3.186338	0.950975	-64.250284	-41.680339	-129.078033	-0.518915	-0.248486	-0.464518
1.544343	1.795876	18.522295	14.140213	372.608009	28.373987	0.542801	0.209703	-0.577421	1.954338	-0.349808	12.096326	44.347797	-87.340432	5.220044	0.095012	-0.287817	-0.893537	9.278655	1.17195	1.258047	-94.939247	-36.49864	-22.636314	-0.533382	-0.279423	-0.493969
-0.618539	4.775202	16.333227	16.625706	393.054979	4.351668	0.555035	0.226286	-0.542374	3.862824	1.109319	9.986357	40.383895	-50.744454	16.154869	0.107907	-0.363272	-0.903144	7.787723	7.854069	1.258968	-57.081488	-24.917985	68.326371	-0.574688	-0.24765	-0.495854
1.058823	2.569667	11.29865	10.549899	418.925276	-38.854642	0.555078	0.174388	-0.489898	1.083884	1.78989	9.249223	19.473734	-40.856506	-7.624809	0.081955	-0.363422	-0.902593	7.141516	6.577881	1.241424	36.996488	-10.656209	55.380389	-0.547219	-0.280453	-0.478512
0.339296	3.724585	12.596622	-16.311564	370.713512	-57.876373	0.609674	0.189847	-0.455899	1.170524	0.495224	10.495412	24.826725	-42.822617	-10.815282	0.081955	-0.363422	-0.902593	7.737808	2.045612	0.993517	-1.427583	-2.842505	-12.53179	-0.532756	-0.230845	-0.496481
3.236116	5.85557	14.480524	35.115304	300.377164	-68.189328	0.636801	0.178513	-0.414369	2.203852	0.718511	10.404083	39.669763	-28.43133	-1.905202	0.081729	-0.409383	-0.899582	8.393487	-0.278667	1.055639	-6.081911	4.020786	-38.948572	-0.519191	-0.282524	-0.431788
6.650413	3.13592	10.443683	88.179715	241.351214	-96.703009	0.636058	0.171456	-0.386218	1.377971	1.676927	9.538371	39.49408	-15.294767	0.691508	0.069199	-0.377745	-0.915663	9.150752	-1.212358	0.407014	16.69701	13.948384	-20.897855	-0.56043	-0.232906	-0.465565
15.91788	-5.559948	6.950146	75.181908	176.635088	-150.046457	0.649078	0.143197	-0.326847	1.046415	1.396443	10.153916	32.590117	-14.758826	-5.597619	0.056373	-0.34718	-0.917395	9.658883	-2.206552	-0.965144	10.66045	19.122319	12.136628	-0.505287	-0.263648	-0.479138
19.79243	-12.620796	8.700661	30.985661	29.576052	-112.688524	0.606302	0.192691	-0.364199	0.63873	1.340677	9.918848	30.062331	-16.556557	-2.87385	0.081584	-0.379814	-0.88724	9.418261	-2.613781	-1.270811	-19.0875	19.85673	34.433663	-0.560434	-0.214235	-0.512986
8.290771	-6.796113	11.968147	42.197375	-99.715485	-0.239016	0.661655	0.197907	-0.34086	1.892565	2.239167	9.436446	28.134836	-14.765944	0.934251	0.042141	-0.366863	-0.858717	8.573928	-1.453831	-2.119969	-36.790214	18.221798	35.575605	-0.519124	-0.264679	-0.463681
8.927582	-3.532817	9.550581	43.543905	-167.261116	52.780479	0.619279	0.21633	-0.357304	1.206592	1.620967	9.591336	22.532948	-11.020239	-1.283464	0.09441	-0.41038	-0.885508	8.168444	0.001487	-1.522422	-48.257024	14.25247	19.067396	-0.54729	-0.279627	-0.49404
8.365308	-3.87488	10.049676	50.885142	-211.791859	81.986934	0.649049	0.177796	-0.361831	0.813628	1.45311	10.035848	21.600085	-11.522067	-1.381688	0.093599	-0.398275	-0.843463	8.459879	1.568865	-1.510245	-38.352082	11.210744	-2.86897	-0.50459	-0.215897	-0.466122
6.910191	-3.361936	8.830096	51.215365	-241.281702	80.955625	0.593282	0.22095	-0.423569	1.839357	1.225421	9.547663	25.628833	-12.795846	-0.404614	0.081659	-0.364494	-0.888243	8.815097	2.033157	-1.381851	-2.084499	9.199101	-14.756599	-0.53213	-0.182268	-0.498992
6.367669	-3.297567	10.354236	44.363634	-258.672538	65.273906	0.60816	0.210332	-0.434579	1.548812	2.014539	9.485642	24.475555	-11.157132	-0.019312	0.042656	-0.380039	-0.886412	9.067472	0.699835	-0.664252	8.698242	7.60934	-14.085194	-0.533173	-0.26323	-0.494806
4.322181	-3.40758	11.109611	50.35252	-266.737266	35.540167	0.609689	0.172547	-0.438407	1.556843	2.240194	9.882309	21.910119	-8.803083	0.772733	0.081879	-0.378742	-0.901589	9.207183	-0.573904	0.350927	-3.339218	5.478362	-13.298007	-0.532823	-0.24869	-0.464588
0.875662	-4.786344	10.411626	62.609453	-259.645106	9.433123	0.584448	0.166924	-0.515333	1.905946	1.563675	10.002273	22.16477	-8.273987	0.069152	0.067642	-0.458635	-0.853246	9.510372	-0.747077	0.775035	-16.418929	3.86115	-12.265011	-0.546739	-0.211552	-0.559499
-0.693177	-5.364707	9.185234	46.961722	-249.089011	-5.316204	0.569585	0.160242	-0.486832	1.321961	2.127774	9.65082	20.66488	-7.305027	-0.970575	0.067867	-0.412674	-0.856257	10.054992	-0.861477	1.503328	-16.372838	3.087064	-8.380319	-0.505011	-0.229611	-0.511868
-2.283887	-5.590659	9.778475	24.557789	-236.887155	-10.666075	0.569913	0.215669	-0.553383	1.667007	1.676436	9.601055	18.024286	-6.109474	-1.361576	0.080768	-0.427919	-0.855529	9.813871	-0.106691	1.322419	-10.844563	3.71327	-1.954829	-0.560013	-0.200521	-0.46724
-2.609805	-5.299342	10.68265	5.526283	-226.436868	-12.159113	0.53021	0.172293	-0.5809	1.554964	1.958446	9.768793	16.240145	-5.605855	-2.128704	0.107536	-0.379664	-0.887791	9.351761	-0.626317	1.790646	-9.454559	5.051839	2.190304	-0.519057	-0.246834	-0.495573
-3.629747	-4.606885	11.234033	1.056239	-218.001943	-9.064964	0.545045	0.213574	-0.644385	1.156734	2.015721	9.986936	15.291805	-4.853573	-1.782879	0.068828	-0.394138	-0.90031	8.989306	0.127998	1.427816	-9.77406	7.093568	2.823551	-0.574968	-0.263016	-0.510545
-4.197837	-4.605506	11.450311	-1.135798	-214.008312	-4.056072	0.489291	0.239428	-0.688631	1.857513	1.845815	10.454418	15.429459	-6.313716	-3.307856	0.067202	-0.430138	-0.826554	9.056275	-0.451414	1.785885	-7.024766	9.111709	0.878472	-0.546664	-0.231049	-0.496551
-4.477843	-4.029436	11.788275	-2.621165	-212.99774	-1.551242	0.461836	0.195336	-0.66361	1.394118	1.452222	10.274496	15.544955	-7.041494	-4.332318	0.069488	-0.436883	-0.940348	9.397457	-0.106487	1.134995	-4.180627	10.442694	0.342248	-0.491658	-0.27881	-0.493759
-5.228997	-3.800578	11.433646	-3.704708	-210.554096	-0.465726	0.462208	0.198864	-0.677686	1.159152	2.015816	10.100216	15.502639	-7.98912	-4.865848	0.042506	-0.41068	-0.884405	9.331838	-0.107836	0.774454	-2.104806	11.828318	0.175303	-0.532965	-0.247038	-0.495643
-5.11816	-3.341853	11.267245	-11.971997	-207.264129	-3.700682	0.419832	0.217287	-0.69413	1.558591	1.958588	9.938712	15.178674	-9.102267	-4.075653	0.054521	-0.429141	-0.840628	9.21174	-0.166136	0.652192	-0.495159	12.722505	0.042955	-0.533036	-0.246211	-0.511171
-4.651341	-3.16793	11.731701	-24.046221	-203.787588	-8.669869	0.436238	0.168885	-0.708968	1.907502	2.014414	10.115932	13.941811	-9.209946	-4.077719	0.042286	-0.396432	-0.871059	9.616434	-0.808143	0.118013	-0.701656	13.54235	0.559361	-0.532618	-0.213827	-0.512845
-4.536832	-3.168013	11.733928	-26.235644	-197.301593	-14.569566	0.379342	0.218753	-0.74597	1.896622	2.013988	9.606175	13.57613	-8.816186	-4.04327	0.080178	-0.430063	-0.82683	9.61823	-0.63342	0.238569	-1.066888	13.718266	1.171106	-0.505082	-0.228785	-0.527396
-4.770719	-2.594396	11.504475	-28.658836	-189.785151	-19.225197	0.350715	0.233273	-0.748687	1.673937	1.845712	9.941035	12.560262	-8.55272	-4.103124	0.055036	-0.442318	-0.868324	9.372781	-1.332264	-0.367869	-2.113863	13.991399	1.020778	-0.546735	-0.230223	-0.512079
-4.478672	-2.880605	11.793101	-33.546762	-184.656482	-23.207182	0.353373	0.188774	-0.777252	1.439749	2.634675	9.823584	10.778581	-7.778329	-4.06603	0.067497	-0.429066	-0.840904	9.541971	-1.74118	-0.845553	-4.157141	13.782546	-0.193344	-0.505153	-0.227958	-0.542924
-4.883699	-3.168488	11.556688	-38.569747	-181.967455	-26.400331	0.381614	0.188025	-0.77795	1.492779	1.845703	9.540931	8.275905	-7.72593	-2.865235	0.068307	-0.441171	-0.882949	9.553401	-1.44808	-0.185341	-6.450539	13.920982	-2.539014	-0.532827	-0.230019	-0.512008
-5.291534	-2.652671	11.209947	-44.815346	-181.331209	-25.390495	0.367836	0.226527	-0.826661	1.732065	2.183635	9.999168	7.349464	-7.649918	-2.217838	0.054967	-0.397428	-0.856985	10.13723	-1.567066	-0.534273	-11.532966	13.424345	-6.552391	-0.533106	-0.245385	-0.526699
-6.222288	-2.367937	10.454247	-50.991269	-179.336363	-16.690872	0.366693	0.25054	-0.819416	1.378641	1.958627	9.595247	6.083384	-7.605864	-2.033451	0.04147	-0.444537	-0.839349	9.783538	-1.740484	-0.541617	-18.822285	11.618893	-11.957166	-0.51899	-0.228989	-0.527466
-6.155758	-1.331859	10.971382	-59.709069	-175.603118	-2.313082	0.311368	0.210726	-0.807772	1.667354	2.127127	9.658074	5.951626	-8.222772	-1.731411	0.041615	-0.474106	-0.851691	9.845741	-1.216945	-0.298664	-20.108827	9.35603	-18.389694	-0.519057	-0.246834	-0.495573
-6.895819	-1.043148	11.185526	-61.298546	-171.662839	15.695502	0.312097	0.235081	-0.853416	1.727445	2.070784	9.772515	5.172312	-8.784367	-1.76845	0.093814	-0.472734	-0.867144	8.914127	-1.44437	0.341716	-18.634013	8.032468	-23.002949	-0.490894	-0.213214	-0.512635
-6.786676	0.219518	10.965649	-58.06295	-170.087916	32.699336	0.255601	0.253879	-0.869511	1.898393	2.352066	9.719739	5.111185	-8.781729	-2.292548	0.054596	-0.413821	-0.841632	8.973819	-1.734885	0.34158	-19.6667	6.753767	-23.94038	-0.546668	-0.212378	-0.543971
-7.021675	0.792893	10.679343	-60.203338	-173.335851	46.97126	0.284956	0.263715	-0.912437	1.619113	1.676923	10.052963	4.58291	-9.14814	-3.560561	0.106425	-0.428841	-0.841731	8.855381	-1.560387	0.340121	-21.750836	6.412263	-21.211598	-0.518986	-0.24766	-0.480045
-7.664469	1.824643	10.046054	-62.946923	-178.092918	58.460074	0.270436	0.29516	-0.932995	1.671412	1.901947	9.827803	4.47058	-10.740766	-4.069733	0.028859	-0.488429	-0.864762	8.738875	-1.269242	0.45897	-21.774063	7.487786	-15.777259	-0.533177	-0.244559	-0.542227
-8.688414	3.435441	10.43074	-66.655449	-182.969319	66.515532	0.284585	0.260187	-0.898361	1.723603	2.183303	9.602691	2.652396	-12.79075	-3.598332	0.054666	-0.45871	-0.852971	8.505126	-1.791139	0.51225	-21.082744	9.362811	-10.501888	-0.518781	-0.212796	-0.528303
-10.392235	4.358885	11.140286	-67.336837	-185.364572	68.593838	0.285685	0.288071	-0.958081	1.615163	1.845772	9.883186	1.547685	-14.587409	-2.969699	0.04125	-0.430288	-0.826003	8.440898	-1.443537	0.273006	-20.385406	12.064775	-5.321947	-0.519549	-0.259721	-0.556847
-13.066988	5.05375	11.943644	-59.985438	-180.512492	66.873444	0.242552	0.316737	-0.963865	2.025158	1.957963	10.231581	-1.180521	-17.667095	-1.5536	0.054816	-0.428069	-0.854978	8.271957	-1.615629	0.688311	-16.682669	13.876598	-1.768248	-0.491245	-0.227754	-0.542853
-16.40016	5.283266	11.254643	-43.237065	-165.635659	61.058179	0.22916	0.341467	-1.009159	2.071197	2.295412	9.723318	-2.82121	-20.242419	-0.131608	0.054886	-0.472959	-0.866317	8.280471	-1.962354	1.106176	-11.918485	14.918675	-0.32347	-0.532969	-0.228367	-0.543064
-19.289232	4.762574	9.832323	-29.789006	-142.473681	52.750156	0.22916	0.341467	-1.009159	1.918274	2.071172	10.625735	-4.715968	-23.37236	1.192187	0.016404	-0.441471	-0.881846	8.048112	-2.135301	1.280753	-8.621665	15.0589	-0.916771	-0.506196	-0.308921	-0.538738
-22.187585	4.756927	7.957349	-21.037752	-113.958228	42.089409	0.186784	0.35989	-1.025603	1.682291	1.902374	10.337559	-6.768837	-26.723638	3.222707	0.015888	-0.428294	-0.854151	8.039599	-1.788575	0.862888	-4.689603	15.286913	-3.86608	-0.518714	-0.194951	-0.560196
-25.930363	4.86992	6.805246	-19.997153	-76.687428	28.648851	0.215754	0.383497	-1.071945	1.862348	1.846005	10.680976	-7.221766	-30.604453	4.910147	0.016033	-0.457863	-0.866493	7.685887	-2.426849	0.793659	2.490513	15.941308	-5.514977	-0.504664	-0.1964	-0.52907
-30.307243	5.684289	8.371626	-14.277751	-21.040505	6.384644	0.202048	0.335502	-1.033197	2.090323	2.408832	10.629647	-8.633913	-34.333212	9.619536	0.029084	-0.442468	-0.867772	7.972704	-2.661806	0.318917	4.672066	15.563375	-0.753385	-0.519545	-0.278392	-0.509427
-35.44444	8.621397	9.193368	37.281959	60.191879	-26.854935	0.160072	0.322855	-1.028733	1.577178	2.353661	10.845277	-15.259907	-40.14	12.423552	0.003208	-0.427298	-0.868225	8.205218	-2.08208	0.205977	1.69657	14.346838	9.379858	-0.546947	-0.227744	-0.558662
-42.16624	10.58702	10.88948	134.061601	141.048951	-59.592898	0.23066	0.338281	-1.047971	1.641219	2.128468	11.129495	-16.323167	-48.234468	14.685226	0.002617	-0.429441	-0.839525	7.974811	-1.673524	0.562748	2.101165	13.102447	17.453797	-0.477616	-0.242916	-0.557474
-53.915812	7.100792	12.805798	218.173567	250.322269	-76.465589	0.21654	0.338656	-1.047622	2.239625	2.240952	12.217831	-22.381982	-57.849101	19.209145	0.003132	-0.442618	-0.867221	8.445455	-1.035768	0.574271	0.447948	11.987287	21.194355	-0.505153	-0.227958	-0.542924
-7.860699	12.308018	3.380436	154.306815	194.994658	48.076877	0.245953	0.279294	-1.020581	2.844184	2.297343	13.589318	-29.28915	-70.859293	25.270987	-0.010284	-0.414196	-0.840253	10.169858	-0.920565	1.325561	-8.513992	9.917077	26.035978	-0.491178	-0.209909	-0.574746
8.519256	-11.322539	14.681373	-39.02346	56.735906	65.025789	0.287143	0.336783	-1.049368	3.258261	2.804038	14.164603	-24.947962	-83.862227	28.44402	0.002322	-0.430513	-0.825175	12.173862	0.643144	1.429558	-20.26225	6.182806	31.109821	-0.533039	-0.22754	-0.558592
4.086823	-4.598021	28.2628	-33.440997	-13.42833	-30.240632	0.301663	0.305338	-1.02881	2.905297	2.581414	16.478175	-10.885227	-95.60623	26.704634	-0.036386	-0.444987	-0.837694	14.900521	2.615226	2.387187	-25.240631	1.842692	29.069798	-0.505294	-0.226306	-0.573979
-0.775216	9.554653	5.609376	378.728129	116.513292	-47.045973	0.302063	0.274267	-1.007902	3.011024	3.315548	18.802224	13.031608	-112.590497	19.525961	-0.048986	-0.36846	-0.842437	15.622095	3.488207	3.242798	11.614247	-3.770774	16.674565	-0.491316	-0.226928	-0.558381
-2.480038	-2.301028	-0.099967	-39.081039	99.87596	-2.588199	0.360075	0.234984	-1.013127	2.760812	1.737823	17.719908	32.879557	-138.094929	16.637196	-0.075308	-0.385002	-0.826532	13.478975	1.048436	1.874846	41.896752	0.610431	-6.165182	-0.491245	-0.227754	-0.542853
-3.863494	-3.950896	16.858463	-75.919436	-4.698891	-17.799574	0.316598	0.225523	-0.969852	1.989461	3.261726	19.460091	12.732334	-171.528	30.871212	-0.062483	-0.415568	-0.8248	12.04598	-1.276309	0.640409	43.607309	8.969	-21.154875	-0.490481	-0.162158	-0.56173
-1.862204	0.031284	8.162291	141.851408	51.889777	8.193702	0.330333	0.23892	-0.973617	0.839544	4.674671	22.324509	24.1628	-202.709361	33.37622	-0.063368	-0.418784	-0.781751	12.395749	-2.73075	0.221482	23.497367	11.674638	-14.616571	-0.532413	-0.178963	-0.561103
-4.048753	-1.865366	7.486631	62.996383	13.500202	3.44215	0.345968	0.21806	-0.995286	-0.711119	4.05804	22.404626	60.443689	-230.493938	28.689959	-0.140859	-0.463051	-0.805785	12.668146	-2.44599	-0.969917	-7.739229	10.550947	3.441518	-0.491036	-0.211562	-0.543691
-1.593148	1.648408	10.277066	48.01041	8.256146	26.06167	0.331105	0.211378	-0.966785	-1.72191	4.060976	23.572298	77.104361	-262.430532	37.789445	-0.167326	-0.450025	-0.777538	12.71844	-0.588681	-1.200533	-38.257481	7.053058	14.69445	-0.51899	-0.228989	-0.527466
-1.372623	1.071896	9.824282	46.191568	13.564659	7.140952	0.345983	0.20076	-0.977795	-2.491181	2.991196	22.479528	99.402112	-290.549437	46.16082	-0.21908	-0.419684	-0.778442	12.665182	2.143747	-0.531038	-44.917809	2.926724	9.144732	-0.491383	-0.244773	-0.526489
-2.208129	1.811979	8.106238	38.755072	12.872603	2.796398	0.317356	0.21528	-0.980512	-3.201246	1.696034	21.444418	112.125936	-316.076561	56.955262	-0.207435	-0.454537	-0.719312	12.272687	1.800686	0.5381	-26.531583	-1.387507	0.815852	-0.505015	-0.21094	-0.559289
-1.925239	1.86849	7.941487	10.935994	2.853046	-3.174607	0.360861	0.190143	-0.988804	-3.496501	3.440293	18.552433	123.624797	-329.601616	57.015265	-0.259784	-0.48655	-0.701852	12.292029	0.584798	1.431511	-14.077109	-4.448798	-0.559415	-0.560784	-0.228775	-0.543204
-1.992069	0.614991	10.321781	0.362578	-0.393457	-5.803778	0.331462	0.232205	-0.998353	0.068445	2.811401	15.682813	132.223085	-308.565907	60.869127	-0.325845	-0.491213	-0.643074	11.297788	-0.456792	1.767795	-15.557968	-8.057126	-1.148084	-0.47727	-0.209705	-0.574676
-1.604567	0.496923	9.646856	2.267426	3.456869	-3.047834	0.360475	0.203914	-0.99222	-3.213336	0.336428	12.667768	143.125442	-250.446909	80.694385	-0.352978	-0.495651	-0.585124	10.191732	-0.857545	2.523946	-21.450062	-11.117735	-2.976441	-0.518435	-0.179585	-0.545505
-1.839194	0.553324	9.358378	-4.688135	4.17098	-3.813589	0.362361	0.186957	-1.027616	-10.996833	-4.663292	11.480832	164.816688	-186.082273	102.163915	-0.37893	-0.495801	-0.584572	10.013448	-0.799311	2.460985	-25.296274	-13.633014	-3.59231	-0.54625	-0.179993	-0.545646
-2.060541	0.727503	9.75262	-9.341972	5.387174	-4.547144	0.345597	0.214531	-0.98121	-22.893231	-10.72673	8.904451	169.478073	-100.644068	106.254303	-0.406213	-0.530879	-0.524615	9.652114	0.420107	2.219946	-22.268238	-14.907728	-0.540956	-0.477758	-0.241264	-0.58853
-2.066932	0.323965	9.409812	-12.988834	6.652025	-6.448233	0.346711	0.225116	-1.023438	-24.796881	-13.544799	3.030725	102.551144	-45.109505	72.743014	-0.43187	-0.529957	-0.538413	10.05905	0.708306	1.929351	-10.703617	-15.554815	0.948393	-0.53311	-0.226714	-0.57412
-1.89389	0.094316	9.46904	-15.098772	7.034702	-5.822559	0.30435	0.22624	-1.022391	-21.233509	-15.63609	2.650806	3.450687	24.076529	5.400798	-0.432014	-0.500388	-0.526071	10.698863	0.472291	1.401305	-1.064812	-15.001095	-1.962058	-0.518505	-0.178759	-0.561033
-2.218611	0.27099	10.429586	-13.153614	7.69129	-3.302647	0.303635	0.184585	-0.959255	-10.952265	-5.452596	10.801702	-33.800491	94.203951	-52.718031	-0.49712	-0.546725	-0.521681	10.877242	-0.573729	1.340249	0.280682	-13.702127	-5.854494	-0.518576	-0.177932	-0.576561
-2.06124	0.152847	9.693353	-7.14137	6.797543	-0.635668	0.345597	0.214531	-0.98121	-13.750523	-4.153101	9.215495	16.596537	106.972568	-84.82304	-0.418599	-0.52881	-0.553038	9.815336	-1.210382	1.257815	-5.964299	-11.174553	-6.944148	-0.518785	-0.194125	-0.575724
-2.344586	0.728193	9.860758	-5.576927	7.051384	-0.697382	0.388344	0.199637	-0.978842	-11.810021	-7.03286	5.517175	-11.536467	142.082933	-78.146792	-0.43246	-0.532101	-0.509714	9.528363	-1.382205	1.670919	-11.34047	-8.278128	-1.987492	-0.546179	-0.180819	-0.530118
-2.109463	-0.017506	10.146341	-6.067604	7.519446	-1.516402	0.347097	0.211345	-1.020022	-9.795672	-4.668224	8.448889	-39.531325	177.307763	-85.216304	-0.392728	-0.604191	-0.562922	9.174962	-1.206919	1.724965	-14.587347	-6.805652	5.35243	-0.505015	-0.21094	-0.559289
-2.053529	0.269419	10.091808	-5.639153	8.587506	-3.371047	0.302878	0.194827	-0.948595	-7.54416	-2.362449	9.007738	-51.124671	197.57686	-69.180691	-0.340963	-0.514112	-0.541347	8.767662	-0.391179	2.140072	-14.094552	-6.116522	9.870937	-0.504038	-0.147822	-0.531581
-2.070397	0.495566	9.239977	-4.781872	9.063599	-4.347173	0.373852	0.196483	-0.964417	-6.149509	-2.251853	9.659882	-56.727348	206.088601	-46.845165	-0.3782	-0.583436	-0.63595	8.573566	-0.162178	1.239156	-10.887873	-5.546518	9.092471	-0.532902	-0.210522	-0.574957
-2.120888	0.382172	9.579499	-3.73978	8.786673	-3.894644	0.373452	0.227553	-0.985325	-4.756713	-1.803321	10.255671	-74.769644	210.44924	-27.365182	-0.339192	-0.50768	-0.627445	8.695865	-0.103383	1.481231	-6.651852	-5.930139	6.236438	-0.560091	-0.162352	-0.577608
-2.119401	-0.134561	9.63418	-1.28773	7.983821	-2.565335	0.344825	0.242073	-0.988042	-2.655407	-0.510366	11.772912	-80.547451	205.555113	-1.831983	-0.339272	-0.583211	-0.636777	8.819245	-0.509197	1.721329	-4.323002	-6.63944	4.642049	-0.518435	-0.179585	-0.545505
-2.580901	0.037372	9.455437	0.764769	6.931868	-1.116264	0.359374	0.17603	-0.9325	-2.203692	-0.962252	11.329087	-81.096924	209.261695	6.343132	-0.286998	-0.566518	-0.653233	8.398564	-0.568058	1.294031	-1.88247	-6.391332	5.151615	-0.517879	-0.130181	-0.563544
-2.234283	0.382496	9.634125	1.869594	6.713558	-0.386958	0.374595	0.203539	-0.992569	-0.108908	-0.683579	12.448998	-94.513517	209.529756	14.31965	-0.298348	-0.530593	-0.726713	8.286999	-0.508229	1.651518	-1.749492	-6.191901	6.617269	-0.532693	-0.194329	-0.575794
-2.001717	0.095846	9.807932	2.02956	7.727701	-0.3096	0.347126	0.176747	-0.985039	0.25518	-0.345483	13.362769	-97.756897	214.479891	14.366328	-0.271956	-0.55894	-0.753957	8.408312	-0.972613	1.771555	-0.351215	-5.586491	7.709642	-0.504456	-0.180207	-0.529907
-1.542486	-0.019127	9.87321	0.56375	8.394131	-0.049206	0.345983	0.20076	-0.977795	1.882857	0.215468	14.190047	-95.131121	218.687771	8.121264	-0.258459	-0.511832	-0.771593	8.290861	-0.274936	1.892135	1.627296	-4.750983	7.45397	-0.532413	-0.178963	-0.561103
-2.23346	0.784828	9.692667	-1.052289	9.551883	0.188938	0.358217	0.217343	-0.942748	2.921068	1.678311	14.439599	-82.837647	214.930047	-2.233734	-0.270775	-0.554652	-0.811356	8.285628	-0.392324	1.592106	5.118557	-3.478958	6.915656	-0.504456	-0.180207	-0.529907
-2.227809	0.671151	9.97645	-1.746909	11.615883	-0.511548	0.374581	0.220839	-1.010061	2.969933	1.170849	13.987265	-66.692909	210.306206	-13.179761	-0.283155	-0.492374	-0.829444	8.749224	-0.511534	1.12116	9.163829	-1.95454	5.823974	-0.518852	-0.21197	-0.543831
-2.287948	0.038612	9.802123	-3.026414	12.589074	-0.124032	0.34674	0.190518	-0.988455	3.190069	0.775678	13.482012	-65.511939	210.355657	-18.480583	-0.178241	-0.502806	-0.888046	7.931397	-0.333438	1.585751	12.80096	-0.510709	3.511609	-0.546042	-0.163801	-0.546483
-2.124311	0.496331	9.409422	-1.385028	13.86195	2.130677	0.344096	0.217717	-0.942398	2.220697	1.003211	13.914767	-67.028575	210.066467	-19.347836	-0.16497	-0.50166	-0.902671	7.807862	-0.334404	1.284015	16.306629	0.109926	0.898061	-0.559599	-0.149465	-0.516334
-2.118205	-0.249203	9.690551	0.099489	14.894173	3.860553	0.359717	0.214157	-0.98156	2.51215	1.002815	14.09073	-66.68868	210.213653	-17.773923	-0.126708	-0.518899	-0.873795	8.401035	-0.683716	1.41335	17.265142	0.232569	1.199636	-0.560296	-0.197216	-0.529351
-2.294671	0.094606	9.461246	3.79079	15.810993	5.827519	0.32959	0.231863	-0.945465	2.903235	0.888925	13.532702	-67.431368	207.750713	-17.213328	-0.086229	-0.497994	-0.947375	7.992323	-0.681782	1.645275	18.756073	0.310431	3.058232	-0.518643	-0.195777	-0.544668
-2.288979	-0.076512	9.744787	1.286443	16.556383	6.828179	0.373095	0.206726	-0.953757	3.644525	0.154895	13.151324	-76.233337	203.399917	-15.198306	-0.073403	-0.52856	-0.945643	7.688169	-0.566932	1.161012	20.462017	0.111242	5.161913	-0.546672	-0.193707	-0.591392
-2.398252	0.384309	10.028756	-0.842456	19.597294	6.117061	0.373838	0.213782	-0.981909	3.945434	0.267539	13.780499	-77.456745	199.211537	-18.693617	-0.04634	-0.479233	-0.992255	7.464884	-0.854053	1.81435	24.128628	-0.429009	5.42629	-0.504597	-0.178555	-0.560963
-2.455589	0.499234	10.028125	-4.562742	23.594104	4.47538	0.4162	0.212658	-0.982956	4.627649	0.322244	13.398576	-79.382398	193.067638	-24.274319	-0.006602	-0.491112	-1.035128	7.995199	-0.971667	1.763852	27.257656	-1.349259	3.799458	-0.531716	-0.131212	-0.548087
-2.052788	0.786634	10.150833	-10.059354	27.92265	2.660183	0.374238	0.182712	-0.961001	5.315716	1.109531	13.357107	-85.117508	186.060391	-31.716186	0.058058	-0.476488	-1.02316	8.293021	-1.204152	1.888179	29.27404	-1.958149	1.258292	-0.532141	-0.126254	-0.641254
-2.396931	0.097343	10.084403	-14.513692	32.192445	1.02502	0.39023	0.182679	-1.014238	6.183601	1.333426	13.601989	-87.781582	177.389472	-41.144869	0.058868	-0.488593	-1.065206	7.999041	-1.20323	1.942584	31.627293	-2.778679	-1.405282	-0.518785	-0.194125	-0.575724
-2.173647	0.325737	9.805557	-16.607639	36.127882	0.02164	0.40095	0.219747	-0.957871	6.98054	2.232921	13.279835	-91.345253	168.489292	-50.113999	0.136875	-0.457502	-1.068867	8.703353	-1.902999	1.653288	32.45056	-3.254705	-2.414551	-0.504109	-0.146996	-0.547109
-2.849316	-0.016003	10.359278	-19.71297	39.087922	0.600045	0.374209	0.21731	-0.995985	8.200447	3.41412	13.929253	-91.607059	159.2613	-58.836976	0.149405	-0.48914	-1.052786	8.703508	-1.496219	1.714926	34.095539	-3.610523	0.026197	-0.517667	-0.13266	-0.516961
-3.089303	-0.248016	9.785328	-19.200155	42.092408	1.444768	0.359746	0.179558	-0.946576	10.795642	4.085473	14.267422	-92.541012	146.024771	-64.94936	0.176763	-0.438741	-1.113747	8.993917	-1.381731	1.481295	33.154486	-4.604765	4.160408	-0.559603	-0.130794	-0.563755
-2.747221	0.211027	9.737086	-20.143907	43.821871	0.310221	0.402079	0.213033	-0.982607	11.878359	6.054709	13.952213	-92.212626	130.55809	-65.04135	0.215622	-0.393626	-1.103236	8.627425	-1.732344	0.754326	32.891315	-4.726213	6.943286	-0.53276	-0.212174	-0.543901
-3.137981	0.213488	10.240969	-22.58447	46.405689	-0.898142	0.401336	0.205976	-0.954455	13.895697	6.614384	14.164918	-87.732145	113.750602	-63.108933	0.242453	-0.450471	-1.157172	9.094187	-1.792736	0.463348	31.083641	-4.848163	9.242778	-0.56002	-0.163179	-0.562081
-3.128949	0.043094	10.69507	-25.973006	49.917247	-3.008756	0.414685	0.233144	-0.961636	17.050962	7.847396	13.835974	-85.911645	94.675966	-57.28648	0.306523	-0.437991	-1.116505	9.336294	-2.024344	0.766295	26.797526	-5.267531	9.871606	-0.559879	-0.164831	-0.531025
-3.183976	0.043618	10.807663	-29.544961	54.052136	-5.967467	0.400964	0.202448	-0.940379	18.989561	9.364039	13.142043	-82.396836	73.14243	-47.418129	0.306673	-0.40735	-1.118512	9.217411	-2.605329	0.641808	23.650696	-5.431153	9.822653	-0.5459	-0.165453	-0.515427
-2.942835	0.21843	11.438225	-33.505224	58.624763	-7.047161	0.427719	0.187586	-0.884774	22.014949	10.089675	12.073939	-68.917516	52.375973	-42.219407	0.293848	-0.376784	-1.120244	9.576605	-2.430675	0.948687	21.484043	-6.044379	9.222123	-0.531854	-0.14823	-0.531722
-3.847646	0.049181	11.988216	-34.803154	67.921824	-9.069811	0.427705	0.204885	-0.902266	22.058116	10.032667	11.395426	-59.541429	29.886718	-35.068182	0.359167	-0.404906	-1.148314	9.74539	-2.665362	0.471744	17.460153	-7.67524	8.786004	-0.532551	-0.195982	-0.544738
-3.451112	-0.239282	11.767391	-34.730165	80.070877	-10.068622	0.440682	0.228524	-0.895371	23.790649	12.56235	9.226091	-40.789291	14.966565	-37.760013	0.346857	-0.387517	-1.177742	9.870025	-2.664149	0.833386	16.196766	-10.541058	7.459404	-0.559737	-0.166484	-0.499969
-3.328607	1.026279	12.229752	-23.777465	88.021191	-4.91045	0.470453	0.18999	-0.899898	21.078383	12.905162	8.886359	-10.190625	-1.950706	-49.894686	0.346932	-0.372196	-1.178745	10.0391	-2.550132	0.417834	13.902916	-13.789519	4.335091	-0.531295	-0.117498	-0.50234
-3.220903	1.197074	11.891584	-11.145701	95.808701	-0.986636	0.483801	0.217158	-0.907078	19.099508	12.851642	7.825696	20.206706	-14.977788	-62.021357	0.372074	-0.359941	-1.137251	10.398004	-2.724182	0.663322	11.939088	-17.112381	-0.348695	-0.531992	-0.165249	-0.515357
-2.941804	0.333554	11.49556	-9.922561	105.594752	-1.873766	0.485316	0.196672	-0.928399	17.210593	12.68425	5.577924	25.42035	-22.703556	-61.569954	0.411887	-0.356501	-1.181128	10.471191	-2.663027	1.44346	11.917407	-20.334229	-5.253752	-0.518505	-0.178759	-0.561033
-3.861215	0.333494	11.307185	-15.269067	112.814616	-1.3423	0.5113	0.209352	-0.879625	13.824659	12.296675	5.959383	36.147167	-19.187036	-57.950733	0.372659	-0.418007	-1.176286	10.228908	-3.303053	1.01699	14.959312	-22.882879	-9.133865	-0.574133	-0.198246	-0.513893
-3.740725	-0.239798	11.591265	-15.448207	122.352342	0.070688	0.524648	0.23652	-0.886806	10.24136	14.788625	13.529237	-4.576065	-49.982001	-37.852549	0.398836	-0.371896	-1.179848	9.767783	-3.299501	1.607255	21.175384	-25.040532	-8.320936	-0.573857	-0.164209	-0.546623
-4.022377	-0.468392	11.812144	-17.859294	131.988227	2.71839	0.523505	0.260533	-0.879561	22.850262	15.28158	24.721022	212.126186	-132.576293	4.412339	0.347083	-0.341555	-1.180753	9.713574	-3.472605	1.845041	23.755485	-24.72925	-5.000589	-0.531783	-0.149057	-0.516194
-3.934981	0.97436	13.411177	-20.823014	142.593467	3.604718	0.509785	0.229837	-0.858305	-9.22899	-7.568302	42.823035	190.480562	-225.431882	-150.21375	0.334321	-0.416089	-1.204158	11.828157	-2.491904	1.469511	28.450307	-19.84975	-5.010317	-0.560017	-0.18185	-0.51466
-2.78271	3.642704	19.753013	-26.364923	161.548053	-9.626556	0.594151	0.206762	-0.828832	-23.753616	-7.288572	9.342327	232.599996	-80.848614	53.993249	0.307779	-0.418383	-1.174907	17.369849	-0.472183	1.521699	3.822819	9.716918	-6.590311	-0.587273	-0.151526	-0.485419
-3.913534	-3.144984	17.258699	-2.566661	204.136473	-12.376048	0.551032	0.218129	-0.817124	-16.736847	1.535493	1.91118	-7.98638	-143.056887	95.607107	0.294132	-0.496132	-1.155264	22.857072	7.927001	-0.555566	-102.862995	25.894247	60.757921	-0.587832	-0.182258	-0.514801
-4.920813	-3.024289	18.433054	0.160289	232.494141	3.871775	0.634255	0.219068	-0.780408	17.242863	6.317323	3.817947	-0.551198	-129.111594	70.375936	0.269511	-0.461353	-1.214118	16.156607	8.006651	0.816903	9.358694	-4.111562	16.317559	-0.532063	-0.164423	-0.530885
-5.745847	-5.084566	20.056404	-9.654943	273.050567	22.008467	0.619806	0.164016	-0.713507	8.272232	5.606893	9.403562	58.600057	-161.562362	4.031599	0.242598	-0.48004	-1.169514	12.241517	-3.26157	-1.819778	83.471924	-17.74228	-74.575172	-0.531992	-0.165249	-0.515357
-3.800718	-6.062964	19.976454	-7.67653	312.204156	40.853046	0.617919	0.180973	-0.678111	1.090624	-1.24719	14.681646	77.307347	-126.047009	-26.767002	0.255354	-0.465716	-1.156444	10.603749	-7.205723	-1.567868	-13.178356	-25.928668	-108.788732	-0.532268	-0.199287	-0.482627
-1.031153	-3.245251	21.235641	-4.15596	350.789285	47.663949	0.631654	0.194369	-0.681876	3.262473	-1.535939	11.273541	53.362744	-118.144062	-10.153673	0.177863	-0.509984	-1.180478	9.454994	-5.627059	0.333819	-37.560165	-26.16035	-74.066437	-0.559946	-0.182676	-0.499132
1.737185	0.364056	19.542959	15.043797	382.83538	38.901491	0.744676	0.122175	-0.614703	4.372409	-0.523326	12.146958	26.495411	-61.813236	-6.810165	0.164077	-0.497954	-1.138157	8.045878	0.246558	1.47061	-56.21175	-20.867382	52.495234	-0.560922	-0.245793	-0.52684
3.621836	4.485651	16.584978	33.953593	404.672076	12.617468	0.743947	0.097819	-0.569059	1.625175	2.68882	7.732802	47.95543	-34.639965	2.232363	0.138935	-0.510209	-1.179651	8.282867	8.845967	2.649833	3.551497	-13.269699	134.058994	-0.546313	-0.216509	-0.466332
2.653478	6.588208	11.062454	35.226039	414.580192	-29.85552	0.784437	0.096353	-0.517219	0.420294	0.214877	10.36618	29.384274	-25.991227	-1.087691	0.13849	-0.541922	-1.163294	9.219085	4.251598	1.629492	5.810217	0.531054	-2.030522	-0.587273	-0.151526	-0.485419
2.468665	3.700532	7.352711	-26.883111	386.90149	-90.534333	0.810048	0.105505	-0.454369	0.546305	0.215088	10.878355	35.169229	-37.932139	-6.935728	0.13783	-0.499176	-1.123255	8.637659	-0.451705	1.478648	3.27114	5.559687	-83.986744	-0.573574	-0.167514	-0.484512
2.658894	7.073878	17.202292	-28.54998	294.515975	-107.960058	0.808176	0.105163	-0.401481	1.897916	1.338021	9.605606	34.739997	-35.039312	-4.595234	0.138119	-0.558314	-1.14794	8.383657	-1.733534	0.330576	2.188365	10.333424	-57.919716	-0.587832	-0.182258	-0.514801
4.423793	1.485283	13.575918	87.55062	223.926211	-103.889255	0.834174	0.100543	-0.335215	2.184295	0.830413	9.497945	41.338994	-20.389969	5.019948	0.112613	-0.526751	-1.163746	8.958703	-1.389643	-0.435726	0.623015	14.456498	10.239051	-0.602158	-0.214847	-0.513197
18.251359	-5.379873	9.21268	88.174735	109.092078	-118.372751	0.833088	0.055359	-0.258004	1.54363	1.563658	9.202065	34.844837	-12.194064	-4.213881	0.149764	-0.593167	-1.08881	9.246236	-0.985269	-0.787935	-12.929071	16.981574	48.366362	-0.601461	-0.167096	-0.50018
15.196802	-12.14874	10.772817	64.649928	-46.45777	-32.225497	0.817767	0.148945	-0.320377	1.165735	1.7344	10.383177	29.201351	-11.815927	-7.359092	0.162149	-0.595236	-1.060386	9.818446	0.57822	-1.549045	-35.906	17.802247	23.19353	-0.58797	-0.199277	-0.498436
6.096179	-4.627965	8.126961	53.048563	-110.411379	79.518984	0.833088	0.055359	-0.258004	0.92658	1.959821	9.982053	27.617725	-12.050316	-2.707701	0.137674	-0.590027	-1.131583	9.702675	1.97355	-1.245777	-20.406484	17.076389	-10.755066	-0.559666	-0.16731	-0.484442
13.477105	-0.025884	11.131447	-2.964825	-172.61765	101.84264	0.833031	0.124557	-0.327971	1.781923	1.788881	9.603568	23.646829	-10.824944	-0.849034	0.163406	-0.575628	-1.118789	8.703991	0.001261	-1.272891	3.078686	14.62475	-19.996151	-0.587899	-0.200103	-0.482908
11.473164	-1.518155	11.029348	54.150928	-203.553817	81.161003	0.834517	0.13867	-0.384275	1.608449	1.563835	9.543112	17.610553	-9.430975	-0.655062	0.111426	-0.591249	-1.116682	8.419469	-0.751074	-0.802352	-0.667406	11.566344	-18.378967	-0.60202	-0.197828	-0.529561
11.557816	-1.811959	9.495335	48.058557	-224.479001	38.654958	0.863887	0.131206	-0.409709	1.216131	1.057994	9.987339	16.688196	-9.104798	-0.745045	0.111502	-0.575928	-1.117686	8.959513	-1.738099	-0.437209	-15.988034	7.997044	-12.744704	-0.58797	-0.199277	-0.498436
7.904092	-2.553876	9.932612	57.127466	-226.346081	-4.485494	0.837932	0.083928	-0.423499	1.563965	1.677125	10.165033	18.816933	-9.321474	-0.992111	0.123592	-0.579069	-1.074912	9.604079	-0.229855	-0.478583	-20.287202	3.41569	-3.050013	-0.573716	-0.165861	-0.515567
3.710588	-4.851889	9.045732	45.516345	-222.971694	-32.737589	0.837889	0.135826	-0.475975	1.4451	1.733529	9.992744	20.421544	-9.539379	-2.071967	0.149839	-0.577847	-1.089814	9.201721	0.35457	0.175162	-12.958506	0.882319	-1.047349	-0.560225	-0.198042	-0.513823
1.422347	-4.447658	9.116587	14.478609	-223.511827	-46.614209	0.853139	0.128737	-0.50106	1.793126	1.620316	10.113182	20.257341	-10.308008	-2.079741	0.110911	-0.578072	-1.088986	9.330643	0.879704	0.838563	-5.496706	-0.278293	-10.481766	-0.559595	-0.168136	-0.468914
-2.081236	-5.181937	11.375391	-2.372949	-226.20828	-49.032944	0.81112	0.167988	-0.549072	1.617557	1.226184	9.939304	19.767401	-9.976744	-2.10767	0.111351	-0.606569	-1.115679	9.045561	-0.105183	1.248207	-1.496103	-0.12851	-17.678436	-0.573716	-0.165861	-0.515567
-3.802914	-4.204912	11.175529	11.998545	-225.436022	-35.319075	0.784365	0.18285	-0.604677	1.555095	2.521799	9.825907	19.43001	-9.767999	-1.859242	0.110981	-0.622961	-1.100325	8.983668	0.184838	1.128528	-1.047464	1.300034	-16.647882	-0.587411	-0.168544	-0.469054
-3.973481	-4.319429	11.228559	15.569586	-223.952509	-18.220486	0.825927	0.243867	-0.64754	1.789822	1.451183	9.943121	19.987305	-9.725848	-2.53659	0.124182	-0.576925	-1.103612	8.749109	0.011397	1.183292	0.296275	3.261208	-10.611316	-0.573854	-0.18288	-0.499202
-4.777601	-3.859799	11.101195	15.066859	-222.870037	0.016283	0.799186	0.24143	-0.685654	1.497614	1.845893	9.767489	20.542808	-9.778918	-2.721638	0.098231	-0.577075	-1.10306	8.565708	-0.570688	0.75817	0.962223	6.119383	-5.768188	-0.587832	-0.182258	-0.514801
-4.601467	-3.744075	11.33243	12.082101	-223.340047	13.081269	0.799129	0.310628	-0.755621	1.496405	1.845845	9.71085	20.48601	-9.467399	-3.581767	0.149764	-0.593167	-1.08881	8.73934	-0.048904	0.643883	0.865837	8.489575	-4.281629	-0.559599	-0.149465	-0.516334
-4.420179	-3.05273	11.850344	9.423502	-223.620236	23.111697	0.742632	0.329425	-0.771716	1.608903	1.958196	9.600083	18.884512	-9.118776	-3.733729	0.136637	-0.623883	-1.086527	9.204847	-0.516323	0.23136	2.518477	10.602778	-3.961518	-0.601461	-0.167096	-0.50018
-4.318126	-2.768259	11.228394	6.821913	-222.039409	29.12416	0.715491	0.358059	-0.830737	1.498608	1.958601	9.824224	17.887322	-9.749081	-3.062585	0.11061	-0.639354	-1.084972	9.262762	-0.516705	0.172554	3.006058	11.1123	-5.738293	-0.573574	-0.167514	-0.484512
-4.600152	-2.479879	11.451445	-1.105723	-219.850024	28.13999	0.730384	0.330142	-0.824255	1.376008	2.071193	9.482063	16.946963	-10.748016	-2.179264	0.11039	-0.625105	-1.071626	9.380099	-0.69145	0.114106	2.774611	11.265414	-8.794296	-0.601319	-0.168748	-0.469124
-4.592523	-2.248424	11.850382	-3.242246	-215.374441	23.251363	0.676145	0.335511	-0.889822	2.186782	2.689557	9.782708	13.88641	-10.941566	-1.967855	0.083918	-0.672288	-1.053714	9.141004	-0.807804	-0.070511	0.840877	10.337946	-11.472182	-0.601319	-0.168748	-0.469124
-3.91879	-2.309258	11.181265	-6.562856	-209.621398	19.153355	0.67573	0.383881	-0.928221	1.679096	1.67691	10.167451	12.442139	-10.37591	-2.179189	0.110089	-0.686387	-1.067611	9.612728	-0.634656	-0.060966	0.417172	8.610145	-13.143196	-0.573716	-0.165861	-0.515567
-4.134731	-3.455269	11.797369	-14.660921	-202.242277	13.47014	0.649333	0.419571	-1.015394	1.500486	2.240349	9.93774	10.930773	-10.239569	-2.518157	0.097339	-0.640501	-1.070346	9.141004	-0.807804	-0.070511	2.229864	7.945893	-13.360508	-0.601599	-0.184115	-0.483815
-4.206543	-3.343481	11.057648	-22.383694	-194.320576	8.898455	0.579845	0.432028	-1.055876	1.835646	1.901292	9.434953	11.524439	-9.739038	-2.882637	0.111131	-0.59232	-1.102332	9.133145	-1.216314	-0.551497	-0.803446	8.488401	-10.662838	-0.58825	-0.214643	-0.513126
-4.157373	-2.94312	10.662479	-29.420025	-190.853784	6.828348	0.593965	0.431654	-1.056225	1.433681	2.014755	9.483225	9.465533	-8.877981	-2.567453	0.124177	-0.637135	-1.113947	9.372801	-0.867409	-0.305984	-4.3216	9.075188	-6.496631	-0.587624	-0.166066	-0.515638
-4.540131	-3.226178	11.563128	-37.674344	-190.39827	3.976807	0.593937	0.466253	-1.091209	1.501587	2.296727	9.994427	9.871235	-8.53656	-2.409592	0.110315	-0.640425	-1.070622	9.25614	-0.983044	-0.248773	-3.714394	9.378175	-3.046803	-0.574062	-0.199073	-0.498365
-4.41919	-2.880164	11.907921	-42.172398	-187.937341	2.128339	0.482444	0.500662	-1.162211	1.670873	2.1836	9.82804	9.865859	-8.908181	-1.858388	0.110315	-0.640425	-1.070622	9.494675	-1.099242	-0.125051	-5.435969	9.051867	-1.663707	-0.545758	-0.167106	-0.484371
-5.4567	-2.536216	11.548208	-45.71706	-181.216068	2.002352	0.480915	0.538447	-1.158382	1.843353	2.295938	9.831762	7.700774	-9.092174	-1.368712	0.123216	-0.655671	-1.069894	9.495215	-1.331546	-0.12604	-7.915271	8.53934	-3.24152	-0.602299	-0.213195	-0.544252
-6.385102	-2.423324	10.90549	-56.009578	-169.339324	8.266246	0.423647	0.584786	-1.181309	1.781491	2.014203	9.603757	8.0522	-10.533838	-0.612063	0.11002	-0.641497	-1.056272	9.255579	-1.215595	-0.309668	-7.668201	7.542489	-7.332911	-0.574409	-0.232284	-0.481163
-7.346552	-1.902992	11.514117	-68.813189	-158.76978	17.521076	0.3824	0.596495	-1.222489	1.559261	2.240288	9.995589	5.813623	-11.552663	0.794098	0.11024	-0.655746	-1.069618	9.193957	-1.041727	-0.429841	-8.072239	6.146582	-11.511585	-0.574271	-0.215265	-0.497528
-8.544488	-0.292552	11.781756	-67.273941	-155.200095	28.797522	0.339667	0.59409	-1.207366	1.681645	2.240357	10.337844	3.870047	-13.64234	2.405651	0.110315	-0.640425	-1.070622	9.078126	-1.040962	-0.312228	-9.820086	4.93882	-13.638678	-0.615506	-0.184319	-0.483885
-9.283145	-0.40569	12.051063	-62.412856	-161.114569	42.423796	0.282784	0.626659	-1.226876	1.556735	2.296524	9.882357	2.887477	-15.502198	3.557843	0.123291	-0.64035	-1.070898	9.086369	-1.271535	0.106131	-10.071613	4.170969	-13.420186	-0.60174	-0.182462	-0.514871
-11.762203	0.166889	11.1528	-59.470765	-169.930192	56.130007	0.283485	0.685614	-1.307503	2.015487	1.957584	9.778464	1.00044	-18.047943	4.671662	0.097264	-0.655821	-1.069343	8.316263	-1.44475	-0.088637	-11.258258	4.291855	-10.727192	-0.560643	-0.230427	-0.512149
-14.235651	0.683232	10.538561	-64.226896	-174.509205	70.079289	0.241137	0.669438	-1.288964	1.902774	1.957894	9.889326	-0.269546	-20.676081	5.507705	0.09793	-0.638357	-1.099046	8.081704	-1.618191	-0.033873	-12.25151	4.987372	-7.33468	-0.588391	-0.212991	-0.544182
-17.402958	1.37095	9.570565	-73.848028	-172.119397	83.204289	0.239994	0.693452	-1.28172	1.681106	2.52201	10.338081	-3.706513	-23.583497	7.325743	0.11083	-0.653602	-1.098318	8.263019	-1.559531	0.209303	-10.527008	5.994457	-3.5561	-0.601807	-0.200307	-0.482978
-20.10052	2.80773	9.239998	-75.374785	-156.683269	91.030275	0.154128	0.719713	-1.27238	2.198178	1.788648	10.235066	-5.402235	-27.888696	10.549411	0.045951	-0.653977	-1.096939	7.902745	-1.269577	-0.095598	-7.008788	7.463375	0.550087	-0.616207	-0.213399	-0.544322
-22.007447	3.95431	8.355283	-69.768419	-127.956609	90.407709	0.138492	0.740573	-1.250711	2.135346	2.013888	10.007488	-9.547952	-32.674097	16.787602	0.09749	-0.60986	-1.072354	8.149658	-1.674424	0.446235	-3.426819	9.083906	4.808275	-0.588391	-0.212991	-0.544182
-23.123005	6.879067	7.038813	-61.888512	-90.750989	77.56336	0.125501	0.734233	-1.275098	2.092394	1.958235	10.685907	-11.003151	-37.755541	17.198349	0.097264	-0.655821	-1.069343	8.261358	-1.792329	0.0885	-2.600508	9.909297	8.102304	-0.616066	-0.215051	-0.513267
-24.778112	8.834728	7.355844	-50.247902	-53.452185	46.743402	0.153756	0.716185	-1.258304	2.439773	2.183005	10.806629	-10.093	-43.737001	19.112686	0.059002	-0.638582	-1.098219	8.43551	-1.967704	-0.088661	-3.794545	9.609475	10.064226	-0.573787	-0.165035	-0.531095
-25.431714	10.955696	6.215463	-29.659738	-11.346293	15.326234	0.111766	0.720837	-1.271333	1.826781	2.353988	11.756347	-16.6839	-51.515341	23.253685	0.04536	-0.656121	-1.06824	8.077032	-1.503028	-0.273006	-3.819627	10.87149	9.294163	-0.573924	-0.182054	-0.51473
-27.61235	12.577255	8.907742	-7.216841	43.72754	-32.116945	0.10988	0.737794	-1.235936	2.122077	2.241073	12.102134	-20.074574	-60.38022	26.153306	0.058342	-0.595836	-1.05818	7.488396	-1.210803	-0.162961	-4.157731	13.072856	6.320097	-0.559178	-0.135751	-0.470588
-34.209507	17.474968	11.243771	111.459982	132.873598	-92.858622	0.109494	0.751565	-1.239352	2.577334	2.465343	11.885437	-19.654475	-68.684348	25.670313	0.019339	-0.611382	-1.056349	7.908247	-1.26834	0.203936	-6.707606	16.492799	3.073225	-0.573787	-0.165035	-0.531095
-50.08203	14.233835	15.979278	293.245544	233.793401	-147.903148	0.096517	0.727926	-1.246247	2.312798	2.297792	12.955402	-13.813558	-75.988015	23.382684	-0.006393	-0.62578	-1.069144	8.388754	-1.55807	0.630852	-13.495227	19.834128	3.020737	-0.574554	-0.21196	-0.55964
-22.753241	4.471581	8.286126	129.705332	227.569385	46.960522	0.127801	0.668906	-1.272095	3.276956	3.142779	15.071121	-4.614269	-83.869305	22.078572	-0.006468	-0.641101	-1.06814	9.686745	-0.457102	0.779573	-31.455096	20.332456	4.856114	-0.560017	-0.18185	-0.51466
4.939083	-2.236927	16.354943	32.156557	107.90458	79.75363	0.199561	0.62572	-1.263593	2.749632	2.526071	17.267455	18.603224	-102.020667	18.618117	-0.006544	-0.656421	-1.067137	11.466208	0.41246	1.415364	-45.932975	16.097669	12.997945	-0.601878	-0.199481	-0.498506
1.575438	-5.52616	25.65267	-17.416867	-1.193637	-12.972975	0.255658	0.637993	-1.268406	1.871327	2.304133	19.230309	31.666544	-123.921293	19.490022	-0.045761	-0.597508	-1.041625	14.71743	2.846699	2.08534	-53.29071	8.134414	26.237276	-0.573507	-0.149669	-0.516404
0.047632	11.557006	3.872079	319.353425	112.122863	-20.167576	0.211796	0.642303	-1.228546	2.702197	2.528942	20.436855	41.224706	-154.047863	22.682105	-0.058737	-0.597583	-1.041349	16.140731	3.658501	2.594467	-25.248515	-2.958149	28.939894	-0.601811	-0.181636	-0.530399
-1.825037	-3.272682	1.158947	-80.98969	91.497211	-4.259937	0.256429	0.610451	-1.261574	2.12488	2.135612	20.311155	55.565477	-184.515715	25.504767	-0.08543	-0.630518	-1.010091	13.584403	2.207462	1.34283	29.120663	-5.375481	6.318185	-0.629277	-0.167504	-0.50032
-4.608641	-3.421038	19.744553	-49.860321	-3.549722	-35.278044	0.26905	0.613263	-1.223111	1.617216	1.742647	20.753059	60.438647	-216.452362	27.10293	-0.098701	-0.631665	-0.995465	10.859074	-0.810236	0.320843	44.110104	0.535243	-12.926718	-0.573857	-0.164209	-0.546623
-0.621774	0.990432	4.325994	159.574794	54.310163	10.665947	0.255672	0.620694	-1.250914	-0.058065	2.536595	23.209598	61.39215	-252.536126	34.483705	-0.163951	-0.648433	-0.978733	11.266584	-3.136695	-0.280412	20.082506	2.080647	-4.992994	-0.587415	-0.149873	-0.516475
-3.443301	-1.169244	9.206255	26.251523	14.70176	7.124839	0.257201	0.582909	-1.254742	-0.988914	1.974587	22.680025	86.708355	-280.016693	31.179062	-0.242837	-0.622529	-0.921687	11.484907	-3.083115	-1.234273	-8.165063	1.006162	18.221197	-0.615231	-0.150281	-0.516615
-2.787193	-0.589494	10.58539	76.909836	18.604563	19.737916	0.257544	0.621036	-1.303802	-2.616591	1.413636	21.852747	101.379312	-306.201343	33.79814	-0.255819	-0.682814	-0.931747	11.126624	-1.281948	-1.233212	-34.102	-1.392822	31.287836	-0.601461	-0.167096	-0.50018
-1.802811	1.697771	8.340962	51.906035	11.981056	13.599959	0.257201	0.582909	-1.254742	-2.299518	2.313234	20.614688	106.730778	-329.153868	40.203165	-0.308979	-0.702722	-0.872241	11.269757	0.234187	0.332996	-48.803367	-3.135808	23.217922	-0.615581	-0.164821	-0.546834
-1.88812	1.359477	9.815468	37.321269	11.313852	6.853909	0.300692	0.575071	-1.280526	-0.901892	3.153932	18.776515	116.11523	-347.421661	28.252289	-0.375109	-0.662496	-0.802125	11.102653	1.166528	0.992627	-43.515272	-3.500034	9.965021	-0.587765	-0.164413	-0.546693
