1757_acc_x	1757_acc_y	1757_acc_z	1757_gyro_x	1757_gyro_y	1757_gyro_z	1757_mag_x	1757_mag_y	1757_mag_z	1758_acc_x	1758_acc_y	1758_acc_z	1758_gyro_x	1758_gyro_y	1758_gyro_z	1758_mag_x	1758_mag_y	1758_mag_z	1759_acc_x	1759_acc_y	1759_acc_z	1759_gyro_x	1759_gyro_y	1759_gyro_z	1759_mag_x	1759_mag_y	1759_mag_z
5.413641	-2.258572	11.363005	16.489441	-178.695634	-13.040871	-0.232557	0.503908	-0.876895	2.304369	0.774057	9.726873	1.45267	0.050429	-0.20385	0.185253	-0.289435	-0.866768	9.119467	3.719654	-0.650296	28.07415	3.475874	10.742214	-0.435373	-0.360115	-0.164045
4.001209	-2.253434	12.301671	13.437302	-187.182071	-11.851096	0.188527	0.062615	-0.767055	2.127268	0.548868	9.496499	1.452047	0.018556	-0.019199	-0.140287	0.12587	-0.730129	8.46023	3.312135	-1.2632	28.70828	4.19019	12.876111	-0.409405	-0.654809	0.222993
2.761323	-1.788648	13.30246	7.916438	-191.74172	-13.473439	0.21524	0.099651	-0.763925	2.598564	0.604763	10.015974	1.761572	0.082799	0.135829	-0.140432	0.155439	-0.717787	8.75176	3.891725	-1.37504	27.613302	4.995743	14.465676	-0.437776	-0.704621	0.240892
1.911746	-2.245628	13.738652	1.148985	-192.577664	-18.466885	0.18847	0.131813	-0.837022	2.601975	0.717567	10.185987	1.942686	-0.251962	0.101818	-0.166164	0.141041	-0.730581	8.563977	3.773506	-1.977904	25.985385	5.909156	14.31438	-0.395706	-0.670797	0.223901
0.541389	-1.267163	13.943443	-3.953289	-189.864969	-26.474889	0.203348	0.121195	-0.848032	2.132212	0.492727	9.72301	2.280143	-0.40319	0.439695	-0.165724	0.112544	-0.757273	8.805098	3.018719	-1.796996	23.098135	7.336493	14.318024	-0.409334	-0.655635	0.238521
-16.329098	10.950823	47.253567	-120.320984	-138.994868	-11.572918	0.163944	0.167845	-0.977083	2.363143	0.773996	9.784722	1.969489	-0.530574	0.561491	-0.114775	0.154517	-0.703988	8.682819	3.42478	-1.977187	19.988677	8.464722	13.59031	-0.382215	-0.702978	0.225645
-11.878905	14.012071	11.6067	-97.542654	-111.688383	-18.402453	0.136818	0.179179	-1.018613	2.312592	0.267366	10.066284	1.870805	-0.992531	0.680131	-0.140137	0.156511	-0.732136	9.210663	3.422823	-2.147004	16.130892	9.047222	12.134333	-0.409192	-0.657288	0.269577
-0.586242	9.48836	3.566878	-12.298048	-126.395374	-37.045164	0.136789	0.213778	-1.053596	2.549221	0.098181	10.354176	1.220278	-1.124429	0.832437	-0.179505	0.184783	-0.704617	8.797956	3.24954	-2.155448	13.375552	8.747835	10.556327	-0.395426	-0.655431	0.238591
-13.528824	15.501587	23.856256	-174.281062	-129.394033	-58.469569	0.095156	0.239257	-1.098193	2.358416	0.717476	9.558116	1.994029	-1.021427	0.649114	-0.166824	0.183786	-0.690543	8.505636	3.483261	-1.980241	10.57987	8.839072	6.684264	-0.422683	-0.625107	0.267833
-22.259917	24.936061	25.544765	-238.384346	-70.887591	-59.481917	0.01079	0.262332	-1.127665	2.589671	0.829753	9.619686	1.406265	-1.090205	0.647958	-0.153333	0.170685	-0.718514	9.08962	3.771055	-2.267535	6.595111	9.304124	4.709799	-0.437288	-0.673062	0.254746
-4.225915	4.982647	10.410401	-62.276241	-99.53613	-74.935308	-0.003373	0.314605	-1.179791	2.370612	0.66162	10.124465	1.250433	-1.156514	1.109595	-0.153188	0.141116	-0.730857	9.514838	3.772829	-1.600856	3.79239	8.946497	5.791402	-0.423522	-0.671205	0.22376
-0.248679	-5.757679	11.408609	23.363387	-98.131148	-77.030663	-0.130486	0.352575	-1.211632	2.424982	0.436048	9.955565	2.542872	-1.510248	1.446228	-0.166534	0.124648	-0.715228	9.280954	3.309008	-1.547329	4.141069	9.081528	1.72451	-0.43687	-0.640677	0.253072
-4.761982	-0.811537	12.023633	-6.490938	-85.591816	-75.176098	-0.157927	0.291183	-1.169118	2.533314	0.829909	9.675117	4.054637	-1.673422	1.199196	-0.154218	0.167469	-0.675465	9.344507	3.251786	-1.306848	-0.122164	10.603341	-1.965417	-0.381727	-0.671419	0.239499
-6.659333	-2.133255	11.526513	-2.434315	-62.404981	-63.090896	-0.200332	0.344205	-1.220546	2.70765	0.604311	9.735193	2.816667	-1.843836	1.412303	-0.140067	0.111622	-0.743475	9.041453	3.366882	-1.731204	-1.346273	10.891895	-0.709297	-0.395706	-0.670797	0.223901
-6.215115	-1.504625	10.855839	2.416892	-51.77442	-46.979494	-0.243036	0.307202	-1.170439	2.017859	0.718312	9.777421	3.151431	-2.238173	1.408651	-0.154224	0.107259	-0.6858	8.931124	3.368883	-1.314056	-1.464224	10.91227	0.238481	-0.423663	-0.669553	0.192705
-5.128027	-0.471465	10.881339	7.960412	-51.634203	-32.698509	-0.241936	0.335086	-1.230158	2.254703	0.436466	10.065218	3.397061	-2.357498	1.376834	-0.127601	0.185083	-0.70572	9.402558	3.193328	-1.365902	-3.066621	11.618935	-0.614848	-0.423451	-0.672032	0.239288
-5.159961	-0.063784	12.189535	20.077416	-48.252698	-19.611855	-0.27012	0.266638	-1.159493	2.535493	0.322981	9.73133	3.332194	-2.603404	1.343508	-0.16683	0.123576	-0.700878	8.991646	3.194767	-1.253791	-3.36949	12.011104	-0.187743	-0.409472	-0.672654	0.254886
-5.792194	0.223397	12.064787	44.178551	-38.843402	-7.260181	-0.326617	0.285435	-1.175588	1.673352	0.887998	9.826949	3.487793	-2.509649	1.375394	-0.180176	0.107109	-0.685249	9.521805	2.670373	-1.365926	-2.955233	12.670116	1.305199	-0.43715	-0.656043	0.238381
-5.072259	0.045226	10.827771	63.616205	-30.761362	6.339777	-0.340723	0.268511	-1.157747	2.469034	0.548079	9.333833	3.36496	-2.421435	1.715282	-0.152818	0.157508	-0.74621	9.402423	3.251404	-1.365654	-3.348174	12.964189	2.313809	-0.395773	-0.688642	0.255793
-4.914722	-0.302683	10.090573	69.308891	-25.851391	20.233302	-0.381584	0.266448	-1.195511	2.596685	0.323016	9.902457	3.303563	-2.391553	1.71553	-0.153558	0.124723	-0.715504	9.523601	2.845096	-1.24537	-3.592365	12.679149	3.171833	-0.423592	-0.670379	0.208232
-4.170166	-0.647871	10.103601	73.607162	-21.278176	30.720736	-0.425803	0.24993	-1.124084	2.191094	0.436336	9.780811	2.532386	-2.338009	1.40716	-0.128197	0.12273	-0.687356	9.347248	3.019976	-1.188023	-3.6191	12.515991	4.150749	-0.465174	-0.672644	0.239078
-3.705698	-0.302106	10.455075	80.826058	-13.435204	38.676738	-0.423546	0.236502	-1.173556	2.07102	0.492693	9.551882	2.441576	-2.186261	1.470252	-0.166164	0.141041	-0.730581	9.462269	3.367668	-1.304153	-3.003563	12.334028	4.210516	-0.423522	-0.671205	0.22376
-3.377388	-0.822706	9.663641	89.499428	-1.81068	44.420809	-0.438381	0.195221	-1.110071	2.76992	0.04104	9.905847	2.473678	-2.093671	1.440371	-0.154294	0.152149	-0.674462	9.353716	3.079536	-0.828334	-2.73472	12.134125	2.926818	-0.409822	-0.687194	0.224668
-2.768947	-2.091701	8.533519	95.530781	9.16504	49.333967	-0.394876	0.170083	-1.118363	2.422456	0.492283	9.842333	1.667826	-2.289264	1.653575	-0.153998	0.15322	-0.688811	9.885151	3.427024	-0.75704	-2.344038	11.937502	1.367608	-0.451129	-0.655421	0.222783
-1.711503	-3.190633	6.958203	86.468217	10.899284	55.305291	-0.465479	0.171956	-1.116617	2.3048	0.548735	9.726684	1.139589	-2.512195	1.897559	-0.192851	0.168316	-0.688988	9.646886	3.427069	-0.881256	-1.856683	11.609074	0.756148	-0.410102	-0.70256	0.209977
-1.426919	-3.938062	6.846928	66.336574	6.281515	61.266377	-0.438352	0.160622	-1.075088	2.247235	0.548842	9.725475	0.550813	-2.586206	2.697883	-0.180321	0.136678	-0.672907	9.71374	3.370589	-0.461054	-1.49477	11.097914	0.023765	-0.409476	-0.653983	0.207466
-1.084464	-3.995994	6.796514	50.942717	6.755884	64.62928	-0.452115	0.181824	-1.106306	2.768711	0.040992	9.849207	0.886556	-2.860902	3.157846	-0.205607	0.153992	-0.702058	9.411496	3.137229	-0.886894	-1.094775	10.417833	0.850762	-0.437012	-0.639025	0.222016
-1.034549	-4.629581	6.397002	38.679854	10.041562	65.300418	-0.477699	0.138074	-1.134173	2.071366	0.943384	9.608901	1.625285	-3.037501	3.464967	-0.141688	0.135831	-0.659384	9.650862	3.137431	-0.702771	-1.1787	10.245944	2.655122	-0.423313	-0.655013	0.222923
-0.987642	-5.723424	5.824999	20.803831	12.374932	66.340102	-0.450972	0.157811	-1.113551	2.47618	0.604694	9.673718	1.559444	-3.345745	3.585162	-0.154149	0.12258	-0.686804	9.300897	3.255382	-0.469252	-0.159614	10.153416	3.079762	-0.423455	-0.65336	0.191868
-0.934551	-6.126521	5.597011	-1.312913	13.182061	67.428491	-0.478084	0.151845	-1.137588	2.421032	0.604897	9.785789	1.462984	-3.567014	4.41525	-0.166314	0.1104	-0.728574	9.120952	3.080817	-0.653015	2.33584	10.011018	2.918586	-0.423801	-0.686572	0.20907
-0.974979	-6.295186	6.44797	-14.348119	15.656757	68.824383	-0.450586	0.14404	-1.110135	2.490817	1.168616	10.410507	-0.432194	-4.362195	5.114871	-0.166534	0.124648	-0.715228	9.234448	3.137635	-0.890195	4.830247	9.498058	3.095382	-0.409196	-0.638616	0.222156
26.818942	-10.24227	69.485413	-88.39198	46.008684	80.259456	-0.479228	0.175859	-1.130344	3.007889	0.435254	10.307492	-0.684257	-4.705875	5.604506	-0.166309	0.17061	-0.718239	9.177113	3.835424	-0.708608	7.111689	8.854708	3.976538	-0.395568	-0.653778	0.207536
13.892858	-10.163896	-8.964335	149.786129	138.812153	24.824369	-0.479613	0.18963	-1.13376	2.591418	0.548148	9.676089	-0.691468	-5.258866	5.753143	-0.166459	0.139969	-0.716231	9.762872	3.833084	-0.937231	7.036616	7.731132	3.156951	-0.409547	-0.653156	0.191938
6.843003	-1.308275	5.484451	5.635784	141.071009	15.923594	-0.42196	0.129519	-1.107418	1.741342	0.493956	10.280943	-1.54467	-6.657271	6.940863	-0.205682	0.138672	-0.701055	9.402193	4.297267	-1.24139	8.519753	5.522676	1.29775	-0.451475	-0.688632	0.239985
2.128971	0.841532	10.346065	-21.672185	113.861052	-17.653792	-0.409011	0.187757	-1.135506	3.292628	0.152921	10.14338	-1.167779	-6.162312	7.007745	-0.166459	0.139969	-0.716231	10.409309	4.063409	-1.043951	11.592579	4.184409	-4.299931	-0.437221	-0.655217	0.222853
1.41697	-0.082584	9.021221	-19.25322	120.767723	-21.566412	-0.408625	0.173986	-1.13209	2.659301	0.210437	10.13013	-2.63474	-7.260693	8.012985	-0.128052	0.093161	-0.699698	10.178612	4.123261	-0.748571	13.591332	2.615216	-8.639384	-0.437433	-0.652738	0.17627
0.806018	0.036856	9.975958	-6.581719	113.833924	-22.635805	-0.365506	0.16262	-1.143798	2.301281	0.492262	9.556717	-3.489801	-11.263384	8.866528	-0.193221	0.151923	-0.673634	9.774012	3.777481	-0.338409	15.274716	1.310051	-9.036541	-0.422758	-0.605609	0.204884
0.187479	-0.1326	10.531516	-6.470406	108.767311	-17.412326	-0.349871	0.14176	-1.165467	2.527031	0.322649	9.334852	-3.626636	-12.364941	8.238892	-0.166164	0.141041	-0.730581	9.247829	4.012236	-0.04779	16.474984	0.169952	-7.813014	-0.437083	-0.638198	0.206488
0.014312	0.269374	10.473012	-6.661381	99.395465	-11.98211	-0.336522	0.168927	-1.172648	2.87769	0.09687	9.568475	-8.288896	-14.602938	8.490346	-0.153558	0.124723	-0.715504	9.072306	4.303516	0.069959	19.92187	-1.046878	-7.26959	-0.437571	-0.669757	0.192634
-0.166152	-0.019639	10.01364	-4.579728	93.59257	-3.372359	-0.309381	0.140294	-1.113627	2.94227	-0.409975	9.852455	-16.080585	-17.64263	8.022254	-0.153037	0.171757	-0.732864	9.178368	4.24245	-0.587064	21.249472	-1.448911	-6.386204	-0.424219	-0.718957	0.210744
0.113356	0.093589	9.678572	-7.608612	93.192308	6.290165	-0.310167	0.185135	-1.13795	2.908234	-0.070936	10.984322	-11.525284	-31.107056	7.768737	-0.180616	0.135606	-0.658557	9.00134	4.707711	-0.52848	20.417749	-2.198653	-5.157156	-0.409334	-0.655635	0.238521
0.179684	-0.134289	10.133545	-17.761276	88.629293	11.642469	-0.309395	0.157593	-1.131119	2.48667	3.820919	15.84772	-22.373064	-34.400631	2.609749	-0.192261	0.17046	-0.717687	9.350921	5.228843	-0.699373	21.951827	-2.892557	-5.5567	-0.409334	-0.655635	0.238521
-0.036671	-0.705884	10.752062	-19.769206	87.230728	17.635899	-0.266691	0.194596	-1.181226	3.655399	0.547299	11.00056	4.815467	-44.088548	-1.441515	-0.179065	0.156286	-0.731309	9.636212	4.703011	-1.295165	22.217208	-4.110383	-6.010271	-0.451621	-0.668309	0.161509
0.029575	-0.818879	11.207517	-19.437075	83.179088	22.812661	-0.294917	0.178046	-1.163036	2.877418	1.113251	12.34346	5.421381	-52.558863	-4.176429	-0.192631	0.154067	-0.702334	9.931718	4.992964	-1.22852	20.213759	-4.647055	-5.083609	-0.465316	-0.670992	0.208022
-0.611442	-0.705952	10.62722	-22.169443	77.009582	23.82413	-0.239564	0.183262	-1.139696	2.297922	1.226848	12.161547	-0.141702	-60.025838	-3.515259	-0.154444	0.121508	-0.672454	10.041777	5.107115	-1.645173	19.325729	-3.885869	-5.053464	-0.436803	-0.622832	0.221179
-0.261892	-1.336852	10.915512	-11.210282	70.837766	22.496388	-0.254471	0.228478	-1.163671	2.232541	0.88864	11.763576	-1.749477	-69.689877	-1.670451	-0.217622	0.172453	-0.745835	10.334212	4.350463	-1.882512	18.036267	-3.4976	-4.592223	-0.409614	-0.671001	0.223831
0.234676	-1.628534	9.957825	-9.161641	63.309994	17.860491	-0.23845	0.193847	-1.181924	2.417326	0.888791	12.333599	-7.306812	-79.092238	-0.689393	-0.231929	0.13745	-0.686153	10.031583	4.756187	-2.245725	18.343554	-2.842462	-5.727242	-0.423104	-0.63882	0.222086
0.748479	-1.112174	9.913165	-5.696914	57.929796	11.384696	-0.197217	0.199438	-1.158236	2.825574	1.282588	12.625591	-9.813643	-89.128472	-0.143766	-0.206273	0.136528	-0.672355	9.680362	4.467111	-2.13375	16.374957	-2.362026	-5.539037	-0.451062	-0.637576	0.19089
-0.333622	-1.339947	10.175309	-5.398365	54.632055	6.944959	-0.19686	0.220266	-1.189804	3.34705	0.774738	12.749324	-12.301346	-100.257633	-1.427834	-0.23245	0.090417	-0.668793	9.157325	4.295829	-1.725047	13.130128	-1.207914	-2.904475	-0.409614	-0.671001	0.223831
-0.049411	-1.570402	10.066205	-3.030879	52.519555	4.51179	-0.181582	0.178578	-1.179905	3.003944	0.212127	12.798236	-13.358435	-110.747328	-3.999157	-0.232445	0.150626	-0.658457	9.03431	3.597703	-2.089656	12.672082	0.492928	1.062211	-0.42401	-0.702764	0.209907
-0.161817	-1.397512	10.178408	-1.417106	50.68013	4.783916	-0.195702	0.178953	-1.179556	3.506641	0.041549	12.072659	-12.40407	-121.052103	-7.584318	-0.232965	0.103593	-0.641097	8.795775	3.713901	-2.213377	11.740786	2.026238	3.319959	-0.409893	-0.686368	0.20914
0.286772	-0.653034	9.735628	0.671113	50.803028	5.638578	-0.196831	0.185667	-1.15482	3.179489	-0.013424	12.914952	-11.133059	-128.401815	-12.064653	-0.232369	0.165947	-0.659461	8.032717	4.297653	-1.925676	8.700793	3.0159	4.182031	-0.451267	-0.67244	0.239148
-0.232516	-1.285483	9.49554	0.94711	51.116786	5.18288	-0.181967	0.192349	-1.183321	3.969236	-0.40991	12.13859	-4.931936	-136.559685	-14.822688	-0.285234	0.147111	-0.614305	7.970804	4.122818	-2.107239	4.152624	4.057218	5.44666	-0.464966	-0.656452	0.23824
-0.218331	-0.880256	10.236319	3.040033	52.571655	5.108503	-0.167089	0.181732	-1.19433	3.852334	-0.747773	12.022609	-4.219942	-143.960725	-17.330985	-0.297619	0.149179	-0.642729	8.161463	3.951151	-1.385797	-1.006723	5.738092	6.771592	-0.43778	-0.68595	0.193472
-0.232682	-1.055717	9.496505	1.145959	53.26495	5.523895	-0.139606	0.191225	-1.184369	4.026262	-0.128366	12.140036	-2.46377	-151.753804	-18.917513	-0.311336	0.11632	-0.611747	8.037949	4.415041	-1.625647	-4.425623	6.898945	5.739245	-0.409476	-0.653983	0.207466
-0.284369	-1.054469	9.779657	-0.257483	53.928417	6.060056	-0.154083	0.170772	-1.152452	3.589223	-1.027938	13.149119	-0.243338	-159.422212	-19.947538	-0.336993	0.117242	-0.625545	8.22214	4.183815	-1.263894	-7.082565	7.83109	3.421556	-0.395497	-0.654605	0.223064
-1.920328	-2.484239	10.935248	7.254338	32.152265	10.744436	-0.083495	0.186199	-1.17169	3.403252	-0.408453	12.579618	2.675002	-173.029978	-21.991622	-0.325198	0.113029	-0.568422	7.929011	4.765992	-1.087203	-9.984854	8.60467	1.564003	-0.437359	-0.672236	0.239218
-0.909998	-2.20212	9.933142	22.862301	21.505014	-0.636336	-0.11135	0.173177	-1.167575	3.471374	-0.239143	13.090726	5.391127	-185.507545	-23.747184	-0.363831	0.113876	-0.581944	7.757059	4.941861	-0.790228	-9.901359	8.12532	0.61853	-0.465454	-0.68801	0.224387
-0.625669	-1.053738	9.886682	13.385809	18.852765	1.70926	-0.110579	0.145635	-1.160744	4.693091	-0.635245	13.682177	9.894692	-198.301199	-25.473605	-0.377102	0.112729	-0.567319	8.419827	4.304259	-0.121867	-6.803289	6.986993	-0.640336	-0.437642	-0.668931	0.177107
-0.745911	-0.825095	9.601155	15.860619	18.385196	0.590499	-0.125099	0.17708	-1.181302	5.733972	-1.200348	13.873382	16.278036	-211.554488	-28.528596	-0.41618	0.081863	-0.564484	8.535274	4.942578	-0.176853	-7.410612	6.156403	-3.354225	-0.43743	-0.67141	0.22369
-0.916519	-0.882171	9.654427	11.835965	16.674232	0.758283	-0.083881	0.19997	-1.175105	5.977963	-1.42558	14.501063	21.74297	-224.20285	-32.133161	-0.41669	0.155249	-0.526453	8.183762	4.3048	-0.126269	-9.714315	4.451526	-4.926963	-0.423175	-0.637994	0.206558
-0.170684	-1.456884	9.723342	10.694551	15.532628	0.681678	-0.110993	0.194004	-1.199143	7.774687	-1.484777	15.104888	29.059851	-232.213121	-37.231441	-0.468819	0.108988	-0.522339	7.774801	4.887741	0.168035	-8.865971	2.154387	-4.3384	-0.409405	-0.654809	0.222993
-0.620883	-1.512305	10.112164	9.436504	15.093065	0.984833	-0.112479	0.179891	-1.142839	8.128194	-1.935784	15.4516	48.693022	-238.228443	-41.775914	-0.456949	0.120096	-0.46622	8.248166	4.828832	0.236498	-8.019537	-0.108033	-4.147297	-0.409897	-0.667696	0.161719
-0.734361	-1.397098	10.167273	8.817176	14.01326	1.091737	-0.111708	0.152349	-1.136008	7.089468	-2.497291	15.259446	60.879733	-240.066996	-51.555955	-0.496623	0.026876	-0.445021	8.078976	5.237747	0.714183	-7.68843	-2.171739	-2.641107	-0.409267	-0.63779	0.206629
-0.905752	-1.913948	10.161761	9.660216	12.026404	0.47433	-0.083481	0.168899	-1.154198	7.34401	-2.161127	13.736506	81.425573	-246.474017	-50.801582	-0.496768	0.056445	-0.432679	8.37062	5.294406	0.540211	-6.08908	-3.431468	-1.540642	-0.423246	-0.637168	0.19103
-0.396444	-1.341111	9.88993	8.331446	10.361847	0.359098	-0.084224	0.161843	-1.126046	7.502354	-0.978984	13.174733	84.341039	-242.856546	-48.91382	-0.57566	0.022139	-0.385968	8.004844	5.583124	-0.064224	-4.701144	-4.04834	-0.564721	-0.437225	-0.636546	0.175432
-0.798919	-0.536881	9.828661	9.70133	9.330744	-0.30563	-0.084224	0.161843	-1.126046	8.662879	-1.375121	13.595056	98.873582	-228.557025	-42.718396	-0.550738	0.048642	-0.331127	8.310618	4.771363	0.417072	-2.630808	-4.360037	0.71291	-0.437083	-0.638198	0.206488
-0.457412	-0.82482	9.720429	8.040219	8.27678	-0.195307	-0.08158	0.134643	-1.172102	7.1491	-2.556019	12.656395	113.143015	-213.98022	-46.785242	-0.590482	0.000312	-0.29859	8.489983	4.248521	0.478055	-0.17879	-3.916403	3.024725	-0.395918	-0.668318	0.177317
-0.569403	-1.226345	9.830219	5.489523	7.283601	-0.388114	-0.068989	0.172053	-1.168623	2.903996	-5.195198	13.017824	122.207935	-195.419975	-45.946303	-0.603088	0.016629	-0.313668	8.781647	4.770035	0.365969	2.25756	-4.032835	3.29153	-0.409893	-0.686368	0.20914
-0.738033	-0.938289	9.998644	1.929	6.437612	-0.422282	-0.069374	0.185824	-1.172039	-8.44517	-12.054247	3.658534	113.803294	-181.244046	-70.841773	-0.616509	-0.015159	-0.297035	9.004507	4.766528	-0.348512	3.82351	-3.983667	2.032519	-0.423455	-0.65336	0.191868
-0.965896	-0.995324	10.050802	-1.936783	5.77423	-0.421936	-0.039233	0.150819	-1.190642	-2.197404	-8.863066	-5.265702	40.478905	-84.0637	-109.69646	-0.656473	-0.04924	-0.251151	9.25088	4.593985	0.19431	5.573195	-3.434641	-0.176981	-0.423313	-0.655013	0.222923
-0.974721	-1.112137	9.595495	-4.242878	4.752149	-0.677254	-0.068974	0.154754	-1.151131	-7.11524	-4.55924	10.033863	-0.11128	45.21911	-98.88928	-0.645199	-0.100486	-0.176667	9.901449	4.941451	0.327712	7.264903	-2.675496	-2.020487	-0.423525	-0.652534	0.17634
-0.745621	-1.227186	9.599466	-6.912713	4.060829	-0.435461	-0.055997	0.178393	-1.144236	-6.979422	-4.387274	13.716789	30.419366	90.388499	-94.655177	-0.670561	-0.098492	-0.204815	9.66743	4.535706	0.381486	8.908173	-1.755415	-1.694643	-0.423313	-0.655013	0.222923
-0.973691	-0.997013	9.65283	-9.153438	3.590456	-0.52866	-0.068589	0.140983	-1.147715	-6.254476	-3.772277	9.996021	82.077864	103.354619	-79.258198	-0.643723	-0.095127	-0.248416	9.066108	4.127804	-0.290224	9.150727	-0.501413	1.354778	-0.423522	-0.671205	0.22376
-1.032183	-0.824888	9.595588	-10.104535	3.150565	-0.073052	-0.040733	0.154005	-1.15183	-6.231912	-4.67748	5.579791	76.443074	103.698302	-63.015219	-0.669009	-0.077812	-0.277568	8.838982	4.072246	0.184382	9.573222	0.793941	3.425381	-0.464899	-0.638607	0.206348
-0.964783	-0.995083	10.107655	-8.911159	2.84883	-0.081391	-0.054096	0.144136	-1.162141	-6.864213	-6.030658	2.791224	32.201485	104.083443	-43.658184	-0.643213	-0.168513	-0.286447	8.650119	4.418635	-0.416505	8.761021	1.74586	5.746643	-0.437016	-0.620353	0.174595
-0.734527	-1.167332	10.168238	-7.042567	2.391023	0.396477	-0.096087	0.148789	-1.175169	-7.718993	-5.521687	3.226634	-16.254836	109.145436	-21.328717	-0.629867	-0.152046	-0.302076	8.648324	4.243913	-0.537061	7.514311	2.422183	7.948578	-0.451826	-0.703172	0.209766
-0.916229	-1.284262	9.652737	-5.329837	1.908721	0.261037	-0.054511	0.192506	-1.20054	-8.365866	-3.828629	5.422494	-49.839903	120.671745	1.848747	-0.66872	-0.13695	-0.302253	8.232584	3.953736	-0.725721	7.15127	3.090679	8.252351	-0.450987	-0.657074	0.253838
-0.915897	-1.743794	9.650807	-2.908877	1.701775	0.526716	-0.012506	0.170555	-1.17002	-8.34048	-3.827633	6.611926	-55.377292	136.92619	26.237611	-0.667244	-0.131591	-0.374001	8.404691	4.184646	-0.961058	4.528774	3.643223	7.158881	-0.4375	-0.670583	0.208162
-0.851346	-1.052848	10.052788	2.270161	1.476975	0.784165	-0.041119	0.167776	-1.155245	-7.359882	-3.604048	6.745946	-52.173168	155.234864	48.311994	-0.667313	-0.086702	-0.362662	8.235886	3.954478	-0.546	3.16571	4.023079	5.450397	-0.451062	-0.637576	0.19089
-0.630987	-1.399593	9.600969	6.130146	1.249151	0.769352	-0.040376	0.174832	-1.183397	-6.332728	-3.944351	6.314305	-57.310936	173.070749	65.288627	-0.653527	-0.098731	-0.404984	8.584075	4.126659	-0.83819	2.757339	4.004917	4.107145	-0.422966	-0.621802	0.205721
-0.790544	-1.339374	10.223254	9.927352	0.993785	0.447593	-0.055225	0.150851	-1.137404	-5.179241	-4.453434	6.394696	-75.467385	191.856577	75.35826	-0.678963	-0.112058	-0.432128	8.060228	4.303833	-0.428004	2.345591	3.558494	2.765963	-0.39543	-0.63676	0.191171
-0.560205	-1.626506	10.283354	15.962694	0.808243	0.304532	-0.082709	0.141357	-1.147366	-3.714805	-3.779119	7.671559	-91.572685	208.512473	77.576946	-0.664587	-0.121944	-0.503149	8.067236	4.131089	-0.069304	3.450151	3.107102	2.427918	-0.423384	-0.654187	0.207395
-1.198006	-1.340531	9.874341	21.535724	0.565	-0.359492	-0.069746	0.182296	-1.157963	-2.957754	-3.273166	8.140818	-96.341999	219.526351	74.568674	-0.663846	-0.089159	-0.533856	8.302065	4.188377	-0.124562	2.493844	2.638826	3.014324	-0.437709	-0.686776	0.208999
-1.031069	-0.824647	9.652441	29.22704	0.726625	-0.624352	-0.070489	0.175239	-1.129811	-1.616755	-1.415931	9.133062	-103.225667	224.493386	69.586896	-0.636933	-0.070473	-0.57846	7.708332	4.305138	-0.314793	3.078241	1.712204	4.086361	-0.450991	-0.638402	0.206418
-0.917099	-0.07799	9.657805	28.712718	1.393685	-0.029338	-0.082352	0.162185	-1.178934	-1.411805	0.049714	10.78047	-105.23427	226.603079	66.153075	-0.622111	-0.048646	-0.665838	7.708197	4.363214	-0.314546	3.940169	0.320807	5.832033	-0.45155	-0.669135	0.177036
-1.027936	-0.536715	9.824207	20.141328	1.985425	1.201	-0.055611	0.164622	-1.14082	-0.638907	1.119636	12.043158	-97.99004	229.920138	64.588665	-0.646951	0.00038	-0.711346	8.116638	4.477432	-0.545976	3.622948	-0.998483	6.114557	-0.43778	-0.68595	0.193472
-0.919036	-0.480563	9.54241	18.489103	2.533648	0.969325	-0.027356	0.146573	-1.124027	-0.115444	0.837203	12.280359	-88.916273	236.227125	63.517988	-0.581186	0.003971	-0.755774	8.772938	3.780271	-0.237303	4.158533	-2.263579	4.407062	-0.451341	-0.652942	0.176199
-0.63858	-0.137327	9.265159	13.528144	2.969702	1.144031	-0.068203	0.127212	-1.1443	0.996586	2.018902	13.267198	-86.931674	243.944643	62.393998	-0.52743	0.086233	-0.833644	9.248794	4.070559	0.012364	3.49143	-3.129031	2.09077	-0.451546	-0.687806	0.224457
-0.921388	-0.308721	9.429427	8.446832	3.930399	1.082269	-0.026198	0.10526	-1.113779	1.597495	1.455468	14.411605	-86.7397	249.2194	61.429234	-0.513423	0.059955	-0.889311	9.427753	3.721945	0.074089	2.435253	-3.614657	1.363394	-0.465525	-0.687184	0.208859
-0.737169	-0.593399	10.056945	6.240512	4.263704	0.603353	-0.054854	0.154379	-1.15148	1.848307	1.455843	15.379313	-81.57131	249.866119	61.501496	-0.447652	0.123755	-0.923404	9.250455	4.303358	0.133167	3.57544	-4.012936	1.819614	-0.43715	-0.656043	0.238381
-1.02443	-0.765758	9.993801	4.953416	4.633075	0.030371	-0.055583	0.130023	-1.105837	2.318501	1.45536	15.842102	-75.619747	246.597918	62.491187	-0.381881	0.187556	-0.957497	9.007477	3.488856	-0.353951	4.131661	-4.603158	2.890137	-0.409405	-0.654809	0.222993
-0.792072	-0.7652	10.168814	5.750952	5.072944	-0.486131	-0.039962	0.126463	-1.144998	3.308616	0.496288	16.314964	-73.431417	241.299812	62.255189	-0.354233	0.178817	-1.043143	9.125665	3.895365	-0.290113	6.143295	-4.88953	4.656919	-0.450924	-0.620558	0.174525
-0.796319	-1.053372	9.940195	6.180436	5.198915	-0.577324	-0.096458	0.14526	-1.161093	4.073112	0.270182	17.066805	-76.128056	235.499063	59.142898	-0.290164	0.191297	-1.002476	9.178193	3.370815	-0.710586	7.696221	-4.719052	6.453771	-0.451617	-0.68698	0.208929
-0.922087	-0.883377	9.370161	6.489417	5.631278	-0.632523	-0.068217	0.144511	-1.161791	4.594697	-0.293999	17.19049	-78.662734	229.967561	52.580319	-0.211417	0.255173	-1.036844	9.178598	3.196587	-0.711327	8.84866	-4.27125	7.914562	-0.43778	-0.68595	0.193472
-1.140917	-1.110807	9.87642	6.766438	5.629089	-0.326676	-0.025455	0.112317	-1.141931	5.957708	-0.463952	19.03062	-77.694067	220.300077	43.728808	-0.184874	0.257466	-1.066095	9.523101	4.007111	-1.120612	9.197156	-3.38737	8.33699	-0.409125	-0.639443	0.237684
-1.199451	-0.88124	9.819418	5.630756	5.503651	-0.570789	-0.025069	0.098546	-1.138516	7.333688	-0.072414	18.833407	-71.858281	204.45787	33.124234	-0.133932	0.239231	-1.023146	9.289218	3.54329	-1.067085	8.405375	-2.539752	8.916546	-0.409196	-0.638616	0.222156
-0.808898	-0.596494	9.316742	3.823359	5.618134	-0.563726	-0.012092	0.122185	-1.13162	7.886566	-0.806737	17.712088	-78.726802	188.237421	22.721722	-0.068456	0.301959	-1.042888	9.167189	3.368343	-1.309655	7.731766	-1.216143	7.873461	-0.422892	-0.641299	0.26867
-1.034659	-0.480721	9.483329	2.443359	5.457691	-0.531693	-0.025455	0.112317	-1.141931	7.999148	-1.3704	17.544112	-97.410795	175.999268	12.534552	-0.068826	0.285567	-1.027535	9.05852	3.603142	-0.771705	6.22474	0.075155	6.711299	-0.450849	-0.640055	0.237474
-0.572294	-0.307763	9.720374	0.820011	5.603764	-0.524646	-0.066302	0.092955	-1.162204	9.149941	-0.47122	17.625689	-110.438185	169.13954	5.765973	-0.042579	0.286789	-1.042436	9.299277	3.952294	-0.466285	5.490087	1.242148	6.005408	-0.422962	-0.640473	0.253142
-0.972702	-0.824447	9.710407	-0.190783	5.691235	-0.520315	-0.012807	0.08053	-1.068485	9.261576	0.091775	17.515302	-122.341692	168.311352	1.586333	0.010511	0.351586	-1.090603	9.361034	3.72035	-0.34636	5.49178	2.139339	5.023065	-0.43687	-0.640677	0.253072
-0.920357	-0.193596	9.486763	-1.75406	5.84107	-0.820061	-0.026241	0.157158	-1.166255	10.934407	0.821135	17.777535	-126.697923	170.944278	2.718854	0.049584	0.322243	-1.103773	8.650119	4.418635	-0.416505	5.315179	3.054165	5.233287	-0.422687	-0.606436	0.220412
-0.518297	-0.423411	9.550445	-2.212135	6.460151	-1.391375	-0.038818	0.102449	-1.152242	13.582786	1.886552	17.947325	-122.217044	171.167563	5.375917	0.101858	0.338935	-1.120229	8.885219	4.359772	-0.472257	6.212208	3.269304	5.442961	-0.4375	-0.670583	0.208162
-0.913469	-0.479357	9.826675	-3.925628	6.913452	-1.409744	-0.05484	0.13708	-1.133989	16.821273	2.104071	16.034037	-112.233678	166.309946	4.040803	0.127735	0.323765	-1.119777	9.001185	4.300931	-0.590118	6.06636	3.470271	6.665104	-0.423033	-0.639647	0.237614
-2.176075	-0.938701	9.629688	-8.145046	8.272774	-1.038156	-0.067431	0.09967	-1.137468	20.270681	2.3204	13.21935	-107.387665	157.617447	-6.430861	0.167253	0.326134	-1.149303	9.175337	4.125556	-0.767279	5.36463	3.857196	7.460479	-0.450853	-0.621384	0.190053
-0.63264	-0.653095	9.547253	-7.022922	9.851241	1.161691	-0.026956	0.115503	-1.103119	22.822957	1.412697	11.403886	-104.080568	150.901235	-27.087521	0.167248	0.265924	-1.159639	9.413177	3.834883	-0.704206	4.442426	4.252172	7.400805	-0.395426	-0.655431	0.238591
-0.686222	-1.111862	9.714768	-10.784134	10.371843	2.499684	-0.011335	0.111942	-1.142281	24.463341	1.408433	10.079594	-94.653349	141.330353	-53.839328	0.20522	0.307823	-1.106078	9.6443	4.065659	-0.938443	3.13334	4.212183	4.899457	-0.464269	-0.6087	0.251257
-1.266768	-0.825928	9.306868	-16.021117	10.554146	3.253738	-0.011335	0.111942	-1.142281	24.600727	3.434775	8.612298	-90.168933	117.38376	-79.966125	0.192389	0.278179	-1.118145	9.706347	4.182417	-0.757127	2.315045	3.74413	2.551243	-0.437012	-0.639025	0.222016
-0.973732	-0.939571	9.653072	-26.597161	10.445406	3.098405	-0.025098	0.133145	-1.173499	23.991965	5.575275	7.24266	-98.23632	79.211864	-97.273959	0.218642	0.33961	-1.122711	9.657661	4.475405	-0.157923	-0.771185	3.086551	2.962885	-0.409263	-0.656461	0.254049
-0.945978	-0.818657	11.074882	-39.387064	15.513244	0.886844	-0.027356	0.146573	-1.124027	22.858367	8.95821	8.35412	-97.409976	41.937556	-99.924826	0.179714	0.339385	-1.121883	9.362715	4.418004	-0.163672	-0.44749	2.278865	1.315144	-0.45092	-0.639229	0.221946
-1.353393	-2.428419	10.662359	-34.211131	44.213356	-7.43275	-0.026213	0.12256	-1.131271	20.633983	12.061635	9.555652	-73.965351	15.928961	-85.400668	0.20478	0.33632	-1.079386	9.360224	4.068806	-0.344876	0.698298	0.966131	-1.494524	-0.450436	-0.588999	0.188379
-0.931254	-1.16017	11.812524	-59.900591	49.108209	0.265218	-0.026984	0.150102	-1.138103	18.469404	13.362329	10.700235	-31.82587	-5.689378	-54.727117	0.205301	0.383353	-1.096746	10.016274	3.952652	0.026175	3.884654	-1.063949	-2.260435	-0.437079	-0.65687	0.253909
-1.174996	-0.818491	11.070428	-57.607965	61.014129	2.721565	-0.000244	0.152539	-1.099989	17.198884	12.970196	10.446749	17.252887	-29.23856	-15.834489	0.178984	0.42702	-1.070506	9.843607	3.489191	0.200617	5.511308	-2.503011	-1.556523	-0.422478	-0.590243	0.219575
-0.924863	-0.756631	12.155332	-61.943739	70.872121	6.881008	0.000499	0.159595	-1.128141	15.829197	10.942832	8.095013	51.039155	-52.466098	23.422048	0.178909	0.4117	-1.069503	10.140869	3.024154	0.264048	7.278107	-4.504724	-2.592489	-0.437292	-0.654391	0.207325
-1.503223	-0.412774	11.861379	-73.504522	81.628961	4.666456	0.029112	0.162375	-1.142915	15.468882	8.633169	7.179582	60.806002	-72.962217	57.540609	0.178834	0.396379	-1.068499	9.55866	2.446228	0.610013	8.659923	-5.202956	-2.624723	-0.450711	-0.623036	0.221109
-1.057597	-1.737156	11.1825	-54.79692	90.290015	15.333233	0.002014	0.13911	-1.149461	4.30211	-15.548533	29.059865	61.694363	-90.45949	84.561639	0.191955	0.366886	-1.081117	9.61426	2.968283	0.493525	11.804402	-6.059784	-1.501214	-0.408779	-0.606231	0.220482
-1.157423	-2.021145	11.918156	-64.617634	95.28899	20.257105	0.069959	0.181736	-1.122643	-31.649311	-25.972572	12.443641	161.635734	-234.379144	54.322279	0.178689	0.425948	-1.056156	10.147761	3.374341	0.68488	24.089458	-8.837211	-0.798944	-0.43743	-0.67141	0.22369
-1.033473	-1.214875	12.43544	-67.680572	107.983878	23.906646	0.056239	0.15104	-1.101386	-10.360035	-12.029992	27.169834	-186.486522	-107.487078	20.001951	0.127156	0.442041	-1.070407	11.321327	2.963378	0.28581	15.940066	-10.271168	10.851773	-0.437363	-0.653565	0.191797
-1.418251	-1.785622	13.221175	-74.46143	120.965069	25.11842	0.084837	0.171119	-1.133652	5.413325	-6.550532	14.541298	327.940841	-195.532213	-4.042593	0.126565	0.439897	-1.041707	11.794711	3.369324	0.416158	6.830217	-5.176113	17.829584	-0.4368	-0.641503	0.268599
-1.994296	-3.107328	12.977078	-70.059844	134.341346	31.210474	0.124927	0.200723	-1.102719	7.592509	5.660223	4.520514	142.030029	-143.641896	-91.836795	0.139981	0.411475	-1.068675	10.598503	4.995434	-0.257904	12.596736	3.5682	5.357284	-0.464478	-0.624893	0.252094
-1.61261	-2.881954	12.019335	-76.9598	146.376516	42.525322	0.096314	0.197944	-1.087945	4.872627	0.601698	11.422472	89.592043	-99.227473	-73.868652	0.074656	0.379387	-1.05094	10.118131	5.227088	-0.685067	17.869668	4.79107	-7.565068	-0.464548	-0.624067	0.236566
-1.53148	-2.015064	13.274836	-90.140573	161.337324	50.563281	0.153168	0.199974	-1.103418	3.704823	-3.168856	12.979816	79.279872	-58.854878	-84.911163	0.087412	0.39371	-1.037869	10.880243	5.049868	-0.971038	14.835039	0.58859	7.350086	-0.464899	-0.638607	0.206348
-1.38237	-2.122551	15.039026	-94.531706	182.09776	54.469796	0.166159	0.206314	-1.079031	-0.196638	-1.588376	8.256908	104.908342	-57.605729	-71.315881	0.048779	0.394557	-1.051392	10.456801	4.757961	-1.579046	19.720775	2.228856	13.101419	-0.46469	-0.622414	0.205511
-1.562876	-2.354123	14.579896	-94.946023	205.566341	59.359215	0.207392	0.211905	-1.055342	1.153314	-1.251829	9.531069	82.657832	-54.900142	-26.24062	0.036243	0.365985	-1.077808	10.336858	5.10644	-1.63967	21.820312	5.236281	-1.927581	-0.450778	-0.640881	0.253001
-1.325033	-2.237476	15.039657	-98.817141	226.923148	62.016872	0.234104	0.24894	-1.052212	1.171124	-1.082126	10.380805	78.927648	-53.696671	7.740272	0.010291	0.365835	-1.077257	9.39478	4.644239	-1.599348	14.150003	4.321333	-4.829395	-0.477901	-0.574867	0.218457
-1.542626	-2.636988	15.602045	-93.247752	248.017655	56.304451	0.246724	0.251752	-1.01375	3.165494	-0.523352	9.517358	80.392889	-46.898079	16.903547	0.036023	0.380234	-1.064462	8.278145	4.531642	-1.381124	16.957474	3.245236	2.592286	-0.436803	-0.622832	0.221179
-1.723836	-1.892054	15.147017	-82.978465	268.66982	53.453037	0.347097	0.211345	-1.020022	1.411036	1.844862	8.40693	66.616308	-41.273906	2.397228	0.022526	0.333125	-1.046826	8.034378	4.530451	-1.804874	19.508228	2.684177	7.445418	-0.436524	-0.607466	0.23587
-2.940281	-2.411294	14.382372	-71.147855	285.544605	48.481525	0.373838	0.213782	-0.981909	0.734149	0.269328	8.900852	39.262725	-46.086133	-4.300651	-0.00313	0.334047	-1.060624	7.029017	4.009321	-2.005527	15.383638	1.102946	11.044024	-0.436453	-0.608292	0.251397
-3.669119	-3.786216	15.101195	-62.203882	295.876761	45.251341	0.372709	0.220497	-0.957173	1.268145	-0.46337	9.59079	26.665831	-55.964538	-9.680513	-0.029233	0.303256	-1.058065	6.083118	4.243538	-2.082052	11.579929	0.39953	15.646079	-0.450711	-0.623036	0.221109
-5.04409	-4.130112	15.01617	-38.273053	302.7513	38.978328	0.442226	0.17344	-0.881707	1.445438	-0.970525	9.763909	21.924037	-62.413044	-13.108611	-0.016552	0.302259	-1.043991	5.844562	3.89488	-2.267658	10.540412	-0.956151	19.202103	-0.423033	-0.639647	0.237614
-7.912782	-6.657156	14.551907	-38.005996	301.277502	39.106887	0.482701	0.189274	-0.847359	2.951809	-0.972948	10.248458	26.543945	-61.49213	-18.336351	-0.029377	0.332825	-1.045723	5.65709	4.59022	-2.747247	11.150711	-3.022	21.013253	-0.450152	-0.592304	0.25049
-5.920136	-6.488694	14.023072	-16.452631	301.370604	47.81513	0.511357	0.140155	-0.809658	2.094349	-1.590778	10.456361	37.355776	-56.649799	-20.190788	-0.041908	0.364463	-1.061804	6.189336	4.589252	-2.677437	11.138308	-5.233843	21.9409	-0.436315	-0.591273	0.235032
-6.025696	-6.544123	14.475428	-6.365616	290.992624	57.458594	0.523963	0.160266	-0.788687	2.948159	-1.592774	10.021378	42.082536	-51.538702	-18.687317	-0.068896	0.330456	-1.016196	7.002917	4.816946	-3.320017	9.686556	-6.072507	22.683801	-0.422825	-0.623454	0.236777
-4.608846	-8.042016	13.701048	-0.828127	292.803022	59.802051	0.564838	0.145029	-0.733431	5.115831	-3.003649	11.70747	37.081473	-28.201789	-4.525374	-0.082537	0.312917	-0.986217	7.649489	4.989194	-3.426985	6.753129	-5.888794	21.654228	-0.463781	-0.577142	0.265111
-2.20416	-8.043757	13.747815	10.072313	289.479823	70.3236	0.592708	0.140751	-0.720053	2.377772	-1.816828	10.235657	64.022103	-16.931709	3.222886	-0.068676	0.316208	-1.029542	8.540078	4.581626	-3.172581	-2.280745	-4.027958	19.018665	-0.422616	-0.607262	0.23594
-1.238712	-7.931267	13.369255	15.880549	287.208836	78.025488	0.591622	0.095567	-0.642842	2.469658	-0.409587	9.276387	67.325047	-14.79166	1.242987	-0.081576	0.331453	-1.03027	8.419824	4.116546	-3.35648	-6.63717	-1.20105	13.304955	-0.477688	-0.577346	0.26504
0.011604	-7.417135	12.941099	28.330961	285.114897	83.65708	0.619148	0.053163	-0.580405	2.016388	-0.40844	9.606554	49.479678	-14.694046	-1.452448	-0.082097	0.28442	-1.01291	8.596758	4.639072	-3.291047	-13.364576	0.245576	10.113015	-0.463922	-0.575489	0.234055
0.959444	-7.595713	11.651683	41.354081	281.328714	89.841689	0.604285	0.046481	-0.551904	2.430764	-0.69042	10.124535	52.424403	-13.600351	1.150355	-0.069046	0.299816	-1.014189	7.898853	4.003834	-2.827717	-17.131322	1.394354	13.08605	-0.450432	-0.60767	0.235799
2.553635	-8.473013	8.269169	80.423495	280.895406	92.572761	0.647447	-0.016784	-0.511136	2.760034	0.153322	9.452825	47.715225	-12.370689	0.912167	-0.107829	0.270021	-1.025704	8.437702	4.004349	-2.398465	-20.35973	2.207603	19.115525	-0.436177	-0.574255	0.218668
3.264025	-8.04619	0.726341	76.384863	171.293919	191.124418	0.687936	-0.018249	-0.459296	2.130872	-0.070673	9.609256	40.537022	-10.989198	0.796814	-0.095368	0.283273	-0.998284	8.557935	4.004574	-2.27645	-22.232289	2.933965	25.140794	-0.422407	-0.591069	0.235103
9.575193	-3.164599	1.722132	82.328128	46.285526	182.337675	0.674244	-0.083544	-0.403055	2.58194	-0.184575	9.165716	32.812648	-8.846498	0.441965	-0.094778	0.285417	-1.026984	8.671565	4.003315	-2.513877	-26.791	3.937658	30.043658	-0.450223	-0.591478	0.234962
9.746732	-1.945864	4.685788	73.539043	-60.132836	152.173292	0.63304	-0.123733	-0.39176	2.420146	0.435858	9.729007	25.123979	-8.641664	1.085206	-0.120215	0.27209	-1.054128	8.791373	3.712912	-2.453005	-31.840749	5.680689	34.272395	-0.449943	-0.576111	0.249653
8.803922	-1.01934	6.262606	80.969541	-131.364946	108.185931	0.604428	-0.126512	-0.376986	2.534153	-0.240419	9.617576	20.246423	-8.400152	1.576933	-0.095368	0.283273	-0.998284	9.754339	3.714954	-1.416981	-35.499746	7.919127	38.402154	-0.46469	-0.622414	0.205511
6.916551	-2.281445	6.277405	90.857903	-171.707012	70.874071	0.62122	-0.188686	-0.388408	1.627397	-0.125464	10.278004	14.618874	-6.476764	1.314076	-0.121176	0.253554	-1.010075	9.398041	3.71527	-1.543397	-37.224005	10.365153	40.873103	-0.464273	-0.590029	0.203836
5.118487	-2.572434	5.047765	90.35155	-191.713116	44.737287	0.578844	-0.170263	-0.404852	2.133505	-0.183239	9.72244	12.060683	-6.049106	1.285441	-0.146832	0.254476	-1.023873	9.227595	3.717159	-1.187257	-37.294204	12.806472	41.412016	-0.505579	-0.558257	0.201952
3.404568	-3.087441	5.182748	78.98096	-196.96401	28.464998	0.636813	-0.157648	-0.462553	2.251939	-0.014321	9.894919	7.842579	-5.026479	0.829793	-0.107609	0.255773	-1.03905	9.415628	3.25437	-0.646772	-36.691744	13.925663	42.84143	-0.463993	-0.574663	0.218527
2.637374	-3.781267	3.971462	59.337188	-197.574403	20.017864	0.594079	-0.160052	-0.447429	2.074384	-0.63387	9.607573	7.905227	-4.878002	1.694509	-0.134296	0.283048	-0.997457	9.297731	3.196564	-0.64922	-37.151137	14.756606	42.197089	-0.478114	-0.572388	0.171873
2.747222	-3.495107	3.747483	35.567661	-203.94858	16.303046	0.55399	-0.189657	-0.478362	2.419022	-0.240203	9.615158	9.57467	-2.51376	-0.25364	-0.12088	0.254626	-1.024425	9.895481	3.719876	-0.156735	-35.926586	14.311618	41.277584	-0.435618	-0.543522	0.248049
2.459463	-2.978167	3.687235	16.669806	-216.013904	14.566957	0.52572	-0.154309	-0.512647	2.41846	-0.578234	9.558234	11.99604	-1.620331	-0.890197	-0.120655	0.300587	-1.027436	9.488255	3.082974	0.07247	-35.827592	12.060558	40.095631	-0.491254	-0.525668	0.200348
3.277562	-2.745363	4.556585	1.880216	-233.464738	14.60218	0.498608	-0.160274	-0.536685	2.255566	-0.014178	10.064838	14.882446	-0.597763	-1.617579	-0.159883	0.23908	-1.022594	9.129911	3.489575	-0.112123	-35.66205	8.744746	41.333773	-0.463717	-0.540626	0.185797
3.291374	-1.823162	5.299536	-7.368309	-255.705888	13.255759	0.484859	-0.156371	-0.550411	2.483409	-0.014704	9.956395	16.246422	-0.183683	-1.334912	-0.134296	0.283048	-0.997457	9.015855	3.200206	0.064161	-32.174359	4.740865	42.226869	-0.477767	-0.539177	0.154671
3.880414	-1.53275	6.164674	-7.332158	-285.681717	8.383813	0.472239	-0.159183	-0.588874	2.481985	0.097909	9.89985	18.382727	0.240396	-1.082352	-0.120805	0.269946	-1.025429	9.197711	3.026562	0.306348	-28.9579	1.904165	42.565063	-0.478255	-0.570736	0.140818
3.846294	-1.182993	7.358923	-2.628701	-317.549918	1.014232	0.4165	-0.150628	-0.615629	2.591287	-0.015204	9.618975	20.021475	0.440731	-0.400825	-0.147573	0.221691	-0.993167	8.903865	2.969408	0.360506	-23.888855	-0.962097	43.447008	-0.47735	-0.506792	0.152997
3.407105	-1.063677	8.317001	-1.117834	-340.291151	-6.75033	0.402736	-0.129426	-0.646848	3.052026	-0.128728	9.628551	20.419872	0.228758	-0.032675	-0.147417	0.312542	-0.984839	9.413252	2.382241	-0.890108	-19.303828	-2.326185	43.834364	-0.477625	-0.54083	0.185727
2.269852	-1.118601	8.692461	-12.361212	-350.121091	-13.042132	0.332877	-0.120496	-0.673254	2.654681	0.097586	9.903477	18.901386	-0.130379	0.363298	-0.146832	0.254476	-1.023873	9.307999	2.094851	-0.234569	-15.642047	-2.423682	42.690345	-0.463371	-0.507414	0.168595
1.727739	-0.077484	10.277556	-28.548617	-346.457279	-19.74502	0.334377	-0.123682	-0.712066	2.473092	0.322899	9.503562	18.060876	-0.603956	0.820334	-0.146537	0.255548	-1.038223	9.533505	2.847321	-0.706208	-11.21273	-1.887798	45.637385	-0.463438	-0.525259	0.200488
1.454373	0.557476	10.95688	-47.127331	-331.640689	-28.407364	0.263403	-0.125338	-0.696244	2.181854	0.210635	9.327504	18.246462	-0.571745	0.944116	-0.134007	0.22391	-1.022142	9.062591	2.325717	-0.717237	-8.454992	-1.314073	47.306237	-0.533186	-0.542472	0.200974
0.566466	1.655801	12.42183	-63.352294	-311.153163	-39.622902	0.23589	-0.100233	-0.741189	2.016519	0.154912	9.663668	15.926792	-0.815999	0.970649	-0.1862	0.282748	-0.996354	9.003285	1.977149	-0.779728	-9.723529	-0.81343	45.77973	-0.463162	-0.491222	0.167758
0.65106	2.351089	13.847166	-72.273829	-293.480199	-52.163667	0.164902	-0.084589	-0.742859	2.485612	0.098052	10.069769	16.945492	-0.83554	1.248728	-0.146983	0.223835	-1.021866	9.125699	1.513012	-0.599784	-11.840667	-2.085857	43.867324	-0.504882	-0.510505	0.214968
0.092494	3.043938	14.578017	-72.712297	-281.824358	-65.28769	0.165988	-0.039405	-0.82007	2.537133	0.097707	9.78778	16.607782	-0.714374	0.818067	-0.173305	0.207293	-1.005961	8.994886	1.800943	-1.259724	-9.17774	-3.964211	43.041159	-0.476861	-0.475233	0.166851
0.123464	3.337901	16.17111	-69.062655	-273.850745	-77.686572	0.094613	-0.00999	-0.825156	2.766509	-0.071763	9.735833	17.285654	-0.829417	0.971609	-0.146687	0.224907	-1.036216	9.578425	1.333254	-1.670046	-8.331201	-1.814633	42.508083	-0.490907	-0.492456	0.183146
-0.444502	3.166956	16.386664	-60.672052	-268.392156	-88.882813	0.052609	0.011961	-0.855676	2.427268	-0.12721	10.01173	17.418652	-0.148791	0.300265	-0.134447	0.252407	-0.99545	9.349523	1.567828	-1.254111	-7.483726	-1.812487	39.631148	-0.491116	-0.508649	0.183983
-0.249728	3.688871	17.586091	-46.552464	-264.024852	-99.19344	0.067844	0.022172	-0.898253	2.646243	0.716937	9.564161	18.496515	-0.438904	-0.133346	-0.17338	0.191972	-1.004958	9.645144	1.334849	-1.249597	-4.470525	-2.099544	32.92639	-0.504465	-0.47812	0.213294
-0.473795	3.000704	17.806154	-30.860629	-260.901617	-104.987673	-0.0321	-0.003091	-0.836089	2.076394	0.21123	9.778203	15.960756	-0.713749	-0.538884	-0.146537	0.255548	-1.038223	9.876402	1.507548	-1.484082	-2.859323	-2.888363	29.897834	-0.448904	-0.476478	0.198047
-1.041429	2.370226	18.019777	-18.283853	-259.208926	-105.303266	-0.046606	0.011055	-0.839156	2.475856	0.773686	9.673861	13.611848	-0.835131	-0.603637	-0.160254	0.222688	-1.007241	9.29763	0.872287	-0.958643	-7.26491	-2.44507	29.881107	-0.518723	-0.492865	0.183005
-1.883212	1.914935	18.85394	-7.625526	-257.971484	-101.539367	-0.06037	0.032257	-0.870374	2.937565	0.153188	9.68301	12.495467	-1.215009	-0.947421	-0.147133	0.193194	-1.019859	9.526011	1.334872	-1.311705	-6.223868	-3.296844	29.789691	-0.518514	-0.476672	0.182168
-2.034518	1.344986	19.871542	8.083882	-257.071918	-98.470682	-0.074876	0.046403	-0.873441	1.842398	0.267849	9.603496	11.562449	-1.746064	-1.261733	-0.146612	0.240227	-1.03722	9.707462	1.335456	-1.068776	-4.650189	-2.517325	28.893738	-0.49021	-0.444705	0.196162
-2.701197	0.890294	20.879606	30.163343	-255.133428	-97.582212	-0.143964	0.02779	-0.893015	2.189885	0.436289	9.724171	10.139741	-1.915811	-1.511189	-0.146838	0.194266	-1.034209	10.342583	0.749749	-1.89784	-5.889081	-3.038935	28.625587	-0.504256	-0.461928	0.212457
-4.125213	-0.026287	21.189026	62.424309	-252.844772	-101.68856	-0.158799	-0.013491	-0.82953	2.368733	0.379872	10.010948	10.970457	-2.180611	-1.605638	-0.160844	0.220544	-0.978541	10.353318	0.868373	-1.298277	-12.541324	-1.307332	27.479769	-0.490072	-0.427686	0.179797
-6.561564	-2.444329	19.426532	75.074139	-254.506387	-107.337063	-0.200789	-0.008839	-0.842559	2.260078	0.155003	10.291539	9.636839	-2.625573	-1.796103	-0.173531	0.161331	-1.00295	9.694256	1.332489	-1.787659	-18.309489	-0.267227	25.478123	-0.504327	-0.461102	0.196929
-9.2104	-3.077657	18.576713	62.881269	-252.056767	-111.282262	-0.229045	0.00921	-0.859352	2.301389	0.435931	9.55667	9.506993	-3.089337	-1.461711	-0.147208	0.177874	-1.018855	9.936248	1.623812	-1.42258	-20.381655	-0.017246	18.33147	-0.504327	-0.461102	0.196929
-13.882331	-3.988498	19.618608	49.276295	-238.094729	-110.893466	-0.284769	0.000466	-0.868615	2.311406	0.887002	10.066806	9.246443	-4.078602	-0.731885	-0.173085	0.193044	-1.019307	9.818932	2.263413	-1.302247	-17.521152	-0.463167	12.148783	-0.517609	-0.412728	0.194348
-18.687451	-5.248006	19.690325	47.726194	-211.697618	-103.524696	-0.325974	-0.039724	-0.85732	1.900741	0.493111	9.661534	9.213525	-4.204072	-0.363222	-0.186061	0.192969	-1.019032	10.169592	2.319937	-1.475118	-8.148344	-1.923188	8.667909	-0.518097	-0.444287	0.180494
-21.892735	-5.947329	16.72668	48.58067	-178.715459	-87.525754	-0.341223	-0.032635	-0.832235	2.82332	0.322442	9.737374	7.970671	-4.715033	0.339743	-0.1607	0.190975	-0.990884	11.103407	2.547856	-1.995684	-4.625926	-3.604819	6.859856	-0.490907	-0.492456	0.183146
-25.008557	-6.524814	15.413371	35.755542	-148.637184	-62.822859	-0.312596	-0.047155	-0.829517	2.711492	0.491792	9.905017	9.87965	-5.124883	1.077079	-0.161215	0.204152	-0.963188	10.511469	2.839339	-2.065359	-3.588113	-4.419379	6.126437	-0.504469	-0.459449	0.165873
-25.896863	-5.783725	13.921625	28.199881	-121.073936	-34.161231	-0.326717	-0.046781	-0.829168	2.198347	0.436621	10.120648	10.58485	-5.458627	1.906689	-0.148314	0.188907	-0.96246	10.646258	2.26177	-1.226934	-1.111394	-6.761608	5.73131	-0.489722	-0.413146	0.210016
-27.304167	-6.077176	12.188102	25.96296	-92.381714	-2.83327	-0.327445	-0.071136	-0.783525	2.884835	0.153485	9.90836	12.326328	-6.883225	2.757116	-0.17382	0.220469	-0.978265	10.413205	1.914349	-1.113006	-1.56566	-8.924508	4.734661	-0.503701	-0.412524	0.194418
-27.845316	-5.737702	10.871907	17.592409	-61.010074	30.696419	-0.356487	-0.008247	-0.824641	2.605901	-0.070966	10.298603	14.261372	-7.661287	3.5833	-0.186576	0.206146	-0.991336	9.644334	1.683305	-1.248114	-2.108371	-11.405879	4.931855	-0.490143	-0.42686	0.164269
-26.890055	-5.397618	9.982635	2.075907	-29.160994	62.224432	-0.398448	-0.038193	-0.802686	2.829819	0.717041	10.077544	14.969911	-7.748498	4.230398	-0.187688	0.156969	-0.945276	9.704295	1.276638	-1.248744	-2.820233	-12.924539	6.622717	-0.50398	-0.427891	0.179727
-24.071195	-2.35187	10.845929	-12.611208	-0.21123	83.796595	-0.412569	-0.037819	-0.802337	2.589994	0.660762	9.619544	15.673421	-8.205516	5.151271	-0.147133	0.193194	-1.019859	9.412786	1.161903	-1.07502	-3.206004	-13.171925	9.712348	-0.517959	-0.427268	0.164129
-19.873237	-0.052891	11.960222	-7.342514	25.361517	88.549451	-0.370579	-0.042471	-0.789309	2.487814	0.210807	10.183143	13.660704	-8.570541	5.485135	-0.173675	0.1909	-0.990608	9.404657	0.869545	-1.555511	-5.036368	-13.340011	13.509928	-0.489931	-0.429339	0.210853
-15.876401	1.263192	11.532038	12.075555	48.730591	79.125747	-0.38397	-0.01774	-0.834603	2.714126	0.379226	10.018202	13.129181	-9.011165	6.189381	-0.186651	0.190825	-0.990332	9.049305	0.463328	-1.683659	-8.332939	-12.328718	18.102053	-0.490001	-0.428513	0.195325
-12.366256	0.62008	9.551709	22.266046	67.762424	60.736735	-0.398105	-6.6e-05	-0.851746	2.593967	1.111596	9.846482	11.392291	-9.64182	5.472658	-0.147284	0.162553	-1.017852	8.816542	0.46461	-1.50834	-10.078817	-10.397718	23.020592	-0.504536	-0.477294	0.197766
-8.001956	0.26259	7.361876	21.367278	81.462147	36.434775	-0.371007	0.023198	-0.8452	2.824529	0.32249	9.794014	10.775683	-9.557257	5.411346	-0.199407	0.176502	-1.003403	8.461999	-0.290062	-1.63797	-10.226423	-8.730862	27.415112	-0.517955	-0.44594	0.21155
24.527275	-7.482325	2.27892	150.012465	171.033663	30.437655	-0.370207	-0.038942	-0.803385	3.462345	-0.185528	9.976804	8.122873	-11.907171	3.227861	-0.199483	0.161181	-1.002399	8.450455	-0.060231	-2.23605	-13.001834	-7.463495	31.087519	-0.504189	-0.444083	0.180564
25.034705	3.685892	8.189397	-70.713778	159.211148	-3.157763	-0.3546	-0.025204	-0.860038	3.404063	-1.706487	9.804396	-1.807037	-13.733331	-4.104538	-0.185991	0.14808	-1.030371	8.925885	-0.060569	-2.047526	-15.592739	-8.184845	31.925755	-0.503701	-0.412524	0.194418
21.453067	-8.625299	3.066762	-82.986586	131.999736	-46.537183	-0.326359	-0.025953	-0.860736	2.374829	1.227499	13.068989	-7.024528	-23.156882	-3.431732	-0.212603	0.190675	-0.989781	10.515075	0.341576	-2.195804	-15.603318	-10.341347	27.503418	-0.489722	-0.413146	0.210016
-3.491582	3.371333	9.849589	-102.690698	193.296633	-56.097688	-0.312639	0.004743	-0.881993	3.564328	2.74788	15.020194	-5.007162	-37.163845	-5.449859	-0.186727	0.175505	-0.989329	11.51891	0.571831	-2.116201	-13.884111	-12.811581	18.521842	-0.490068	-0.446358	0.227218
-2.679091	-0.061464	13.203918	-57.196978	213.417273	-59.582668	-0.312625	-0.012556	-0.864501	2.980114	0.66187	11.722463	20.845584	-51.973574	-7.456768	-0.199407	0.176502	-1.003403	11.513968	0.803147	-2.354839	-5.88114	-15.189075	2.732418	-0.489513	-0.396954	0.209179
-3.990734	0.712367	19.319351	-80.218918	174.21408	-73.19334	-0.2573	0.027258	-0.876145	3.065806	0.493861	13.02624	3.386104	-58.042858	-13.819943	-0.186576	0.206146	-0.991336	10.992747	1.271442	-1.763697	-8.160611	-14.21455	-9.488799	-0.476373	-0.443675	0.180705
-6.139647	-1.14357	14.723297	24.859741	131.000318	-57.907825	-0.242794	0.013113	-0.873079	2.765075	2.183936	12.568501	14.032374	-68.43693	-12.558289	-0.212899	0.189603	-0.975431	11.285532	2.25806	-1.753991	-15.266097	-16.510398	-8.779774	-0.490072	-0.427686	0.179797
0.372272	0.329703	11.219024	38.346247	109.584482	-30.502469	-0.214167	-0.001407	-0.870361	2.546124	1.959472	13.073232	3.449572	-79.502305	-10.95045	-0.225359	0.176352	-1.002851	12.566901	3.878251	-2.441742	-7.092597	-21.488481	-6.646347	-0.503772	-0.411698	0.17889
-1.012555	-0.24613	10.621356	11.107282	85.554763	-22.410441	-0.156956	0.02145	-0.917402	2.435698	1.396525	13.240259	0.051295	-93.945309	-9.123763	-0.252643	0.141273	-0.942893	13.451448	3.70175	-2.485884	-2.355463	-26.706837	-17.945749	-0.489726	-0.394475	0.162595
-1.639505	-1.106815	10.719195	-0.756551	70.823549	-15.285338	-0.184797	-0.008871	-0.895796	2.837231	1.508384	13.192177	-0.882054	-106.598675	-8.941981	-0.240107	0.169845	-0.916477	13.155361	2.714391	-2.67531	-11.159765	-27.488693	-31.141264	-0.517538	-0.413555	0.209875
-0.342038	-0.480012	9.780957	-10.733149	60.454354	-18.154921	-0.200832	0.04306	-0.895034	3.015409	1.170267	13.422077	-7.995304	-119.651684	-11.420295	-0.291269	0.20233	-0.946081	11.821754	1.967453	-1.505696	-10.443309	-26.882562	-36.279929	-0.531654	-0.429951	0.210642
1.372213	-0.424538	9.644043	-18.049827	57.260187	-18.584517	-0.156941	0.004151	-0.89991	3.072759	1.28282	13.423381	-5.443004	-132.749671	-11.856654	-0.278074	0.188156	-0.959703	10.415095	1.101284	-1.116467	-7.509114	-26.260968	-36.232411	-0.462465	-0.443471	0.180775
0.633431	-0.365351	9.914075	-29.901426	57.705246	-16.610884	-0.130229	0.041187	-0.89678	3.126675	0.662887	13.19751	-7.07234	-144.278407	-11.818368	-0.29179	0.155297	-0.92872	8.704977	0.52444	-1.150852	-13.817789	-23.5366	-26.811576	-0.47672	-0.476886	0.197907
-0.215156	-0.649766	10.407844	-33.610643	58.412948	-10.086582	-0.172577	0.025011	-0.878241	2.827406	0.324969	12.624785	-7.293405	-154.578734	-13.986303	-0.304321	0.186934	-0.944801	8.353236	0.932524	-0.976003	-17.826036	-18.352786	-11.909426	-0.46239	-0.462968	0.243723
0.688542	-0.480758	9.801	-28.096392	61.619225	-0.634972	-0.144321	0.006963	-0.861447	3.926846	-0.127533	12.873933	-3.205757	-165.971575	-14.466114	-0.318923	0.150859	-0.87077	8.530015	1.048271	-0.972207	-19.145477	-12.550575	3.287448	-0.475605	-0.39675	0.209249
1.277167	0.384069	10.66855	-23.232023	64.271591	0.498191	-0.116852	0.033755	-0.868977	3.980546	-0.634806	12.648157	-1.009388	-175.916118	-19.618762	-0.370381	0.182272	-0.886024	7.993502	0.990174	-1.281893	-21.418788	-6.541178	12.925495	-0.475952	-0.429961	0.226451
-0.299999	-1.000405	8.983955	-19.516	68.555399	-4.503133	-0.115351	0.030569	-0.907789	4.445104	-1.480531	12.770396	2.374503	-184.657543	-23.463729	-0.384023	0.164732	-0.856045	8.270861	1.508474	-2.172769	-24.058949	-1.942652	13.952359	-0.518022	-0.463785	0.243442
-1.191056	0.74164	13.236247	-8.913775	71.054142	-9.154743	-0.103503	0.060923	-0.876158	4.513549	-1.480212	13.281361	10.015628	-199.001603	-30.813423	-0.422731	0.150259	-0.868564	8.343373	1.860009	-1.391396	-27.26495	1.646832	8.842374	-0.461973	-0.430583	0.242049
2.744756	-1.34508	9.5532	35.386389	39.104212	0.012351	-0.087096	0.012521	-0.890996	4.586914	-2.155717	13.961676	12.533864	-212.838741	-36.620796	-0.436888	0.145896	-0.810889	8.510267	2.438387	-1.864877	-30.072782	4.901341	3.732755	-0.448136	-0.429553	0.226591
-0.688325	-1.284669	9.600338	34.069146	25.718164	-1.704174	-0.060341	-0.002342	-0.83539	5.871032	-2.551738	14.780895	21.479534	-226.527926	-43.346213	-0.411451	0.159223	-0.783745	8.047792	3.0227	-1.27214	-32.002145	6.884716	-2.38233	-0.462253	-0.445949	0.227358
-0.049742	-1.11087	10.068135	26.772989	22.501094	2.558042	-0.059612	0.022014	-0.881034	7.013377	-4.187952	14.237302	29.22728	-241.876863	-47.622964	-0.489683	0.082171	-0.777072	8.586101	3.255519	-0.841898	-35.090579	7.936498	-10.50547	-0.476791	-0.47606	0.182379
-1.074755	-1.108918	10.332358	25.444384	20.210548	3.44466	-0.088639	0.067605	-0.904659	8.113557	-2.499705	14.714811	31.543749	-252.471982	-57.066221	-0.490788	0.093203	-0.720677	8.532722	3.198814	-0.543712	-39.003234	8.690427	-16.729044	-0.49049	-0.460071	0.181471
-0.916561	-0.82473	9.654668	23.766967	17.232482	2.481065	-0.07299	0.029446	-0.908837	9.932364	-2.727041	16.338006	41.645353	-256.028635	-71.180034	-0.530156	0.121475	-0.693158	9.009253	3.198723	-0.295281	-39.789053	8.840598	-19.691082	-0.476369	-0.462346	0.228125
-0.851512	-0.823082	10.053753	18.573527	15.216074	2.00323	-0.059998	0.035785	-0.88445	6.184329	-3.227294	15.919162	55.867751	-257.858206	-78.399447	-0.569605	0.074217	-0.67497	9.369412	3.4317	0.071752	-37.932519	8.365144	-23.36245	-0.504882	-0.510505	0.214968
-2.409132	-1.513915	9.395409	12.853712	14.652174	-2.098973	-0.08671	-0.00125	-0.88758	7.008026	-3.286806	14.068142	68.067711	-265.643404	-85.186334	-0.570491	0.071001	-0.63192	9.199756	2.620277	0.364524	-41.010988	8.218221	-27.964647	-0.462674	-0.459663	0.181612
-1.60192	-1.628173	9.694781	9.012703	13.318107	-2.569624	-0.074104	0.018861	-0.866609	7.412647	-2.893152	14.190215	74.740663	-263.209248	-87.530156	-0.585024	-0.009963	-0.569228	9.860613	2.330884	0.974462	-41.25545	9.237872	-29.038084	-0.476928	-0.493078	0.198744
-2.115806	-2.029649	9.739923	3.909561	11.900228	-4.295419	-0.086324	-0.015021	-0.884164	9.521291	-2.275927	15.990085	98.186969	-240.90118	-91.019374	-0.624536	0.047878	-0.529366	9.750439	2.739664	1.453247	-34.33111	9.440999	-31.508566	-0.448837	-0.458633	0.166154
-0.337087	-1.168346	10.005473	2.175796	11.066528	-7.370879	-0.129058	-0.017426	-0.869041	6.781822	-3.511555	14.233035	128.762603	-221.541108	-99.802647	-0.638033	0.00077	-0.511729	9.751965	3.030539	1.574297	-26.57448	9.181947	-33.368715	-0.504047	-0.445736	0.21162
-4.095287	-1.288496	8.056462	-11.779764	10.629312	-1.633425	-0.045092	-0.009431	-0.860476	4.925823	-5.086025	13.400068	144.047675	-197.573269	-106.240684	-0.678813	-0.081417	-0.434135	9.985134	2.855029	1.398236	-18.854055	9.495723	-31.473206	-0.462532	-0.461316	0.212668
-2.243227	-1.113155	9.116173	-10.592095	9.968553	-2.506296	-0.088239	0.036535	-0.883752	-25.586028	-9.42783	6.867546	145.480955	-157.578089	-131.700969	-0.652566	-0.080195	-0.449037	9.583855	2.974846	2.050003	-6.500304	9.81037	-28.066657	-0.46302	-0.492874	0.198814
-1.934063	-1.970161	10.255183	-10.67371	8.493402	-5.259546	-0.029099	-0.009463	-0.913713	-8.103342	-7.224442	-12.238609	94.015332	-56.137345	-87.245652	-0.691939	-0.112133	-0.431852	9.341593	2.799674	1.685419	4.752635	10.570439	-23.741444	-0.449046	-0.474825	0.166991
-2.072701	-0.941196	9.063385	-11.650443	7.099811	-2.028513	-0.032128	0.031508	-0.871072	-13.614372	-6.293212	10.009066	4.507391	82.881773	-46.542364	-0.679259	-0.11313	-0.417778	9.506827	3.145253	1.091134	14.58036	10.718309	-19.866369	-0.463091	-0.492048	0.183286
-1.08836	-2.318326	9.5882	-6.270565	6.697405	-4.994722	-0.059984	0.018486	-0.866958	-10.04736	-5.621592	12.745439	24.580378	109.774457	-14.846765	-0.653162	-0.142549	-0.430672	9.551092	2.386421	0.190417	21.885179	10.008737	-13.80824	-0.435417	-0.489987	0.152371
-0.633753	-0.653336	9.4904	-9.112917	4.751437	0.103452	-0.045492	0.02164	-0.881383	-9.033617	-5.514108	9.03029	65.176683	118.124521	10.085487	-0.666433	-0.143696	-0.416047	9.606672	2.443621	0.012044	29.528545	7.718494	-5.634774	-0.463162	-0.491222	0.167758
-0.180462	-0.252542	9.273585	-6.88152	3.84029	0.051553	-0.088582	-0.001592	-0.834692	-8.434212	-7.040025	4.625628	45.437885	131.686457	29.812012	-0.614309	-0.157644	-0.430496	10.131349	2.382846	-0.33774	37.470969	5.882246	0.152048	-0.476582	-0.459867	0.181542
-1.204107	-2.14616	9.529844	-8.237891	3.074052	-0.693028	-0.073347	0.008618	-0.877269	-7.304987	-6.874042	3.630435	-5.396787	150.457572	45.064826	-0.626475	-0.169824	-0.472266	10.534248	1.566117	-0.992474	37.242495	4.539275	-0.20747	-0.435835	-0.522372	0.154045
-0.676651	-2.028996	10.165732	-8.642836	1.807678	-0.31376	-0.059612	0.022014	-0.881034	-6.960775	-6.64703	6.298731	-43.201293	166.516756	54.967745	-0.613349	-0.139108	-0.474549	10.127197	1.800849	-0.639747	30.98391	4.324482	-5.257109	-0.47707	-0.491426	0.167688
-0.408117	-0.596784	9.324536	-7.386591	1.313841	0.379961	-0.10236	0.036909	-0.883402	-5.842377	-5.634085	7.568625	-57.754963	181.484698	61.11722	-0.624623	-0.087862	-0.549033	10.245095	1.858655	-0.637299	26.914343	3.839098	-10.007574	-0.449116	-0.473999	0.151464
-1.360079	-0.878703	10.384609	-4.812522	0.795078	1.100148	-0.045849	0.000812	-0.849816	-5.210821	-6.02968	7.468312	-63.834752	196.740053	62.929137	-0.586141	-0.11935	-0.533503	10.0649	2.265098	-0.758683	25.178356	2.949874	-10.39433	-0.449672	-0.523403	0.169503
-0.963379	-1.396932	10.162819	4.721753	0.769076	1.86964	-0.046235	0.014583	-0.853231	-3.952389	-5.638022	7.155402	-79.134665	210.73447	61.514575	-0.5854	-0.086565	-0.564209	9.642423	2.031514	-1.306538	21.773687	2.030381	-11.386101	-0.44981	-0.540421	0.185868
-0.919901	-0.825453	9.484109	2.180677	0.561684	2.854944	-0.017251	0.020891	-0.882082	-3.691991	-4.961253	8.633436	-102.681018	222.494797	57.789601	-0.583478	-0.049493	-0.652315	9.531939	1.626735	-0.951028	20.221255	0.803139	-11.557983	-0.462883	-0.475856	0.182449
-0.972702	-0.824447	9.710407	2.181494	0.40281	3.31237	-0.060355	0.014958	-0.852882	-2.515035	-3.835708	9.961274	-109.96836	229.695551	52.244116	-0.54514	-0.051412	-0.624443	9.709953	1.684654	-0.887572	18.218615	-2.687983	-11.839672	-0.505095	-0.508027	0.168385
-0.516028	-0.480371	9.66391	0.775702	0.697635	3.842552	-0.059226	0.008243	-0.877618	-1.949675	-2.879499	9.577692	-111.810555	237.42239	46.985793	-0.466318	0.027784	-0.659815	9.530319	2.323648	-0.948061	17.081639	-5.590336	-12.555142	-0.476791	-0.47606	0.182379
-0.693566	-0.194245	9.377511	-2.594009	0.739882	4.15961	-0.059612	0.022014	-0.881034	-1.189859	-1.92276	10.21725	-124.884184	244.260866	43.405338	-0.504071	-0.028363	-0.726722	9.540452	1.28001	-0.533163	17.159473	-6.617713	-13.742348	-0.435555	-0.507006	0.168736
-0.631733	-0.365646	9.605313	-4.58434	1.13218	3.987711	-0.059984	0.018486	-0.866958	-0.716554	-1.021764	10.907355	-141.130855	247.224111	41.016989	-0.50355	0.01867	-0.744082	9.139714	1.167523	0.117616	16.533379	-6.850452	-15.114141	-0.476724	-0.458215	0.150486
-0.921263	-0.481045	9.428703	-7.71119	1.056816	3.934152	-0.032886	0.041751	-0.860412	0.067869	-0.289399	12.679515	-152.836095	247.759452	39.471378	-0.425544	0.049761	-0.747744	8.898417	1.050674	-0.186815	15.298936	-7.008144	-15.07836	-0.463513	-0.505762	0.13754
-1.029997	-0.766964	9.709535	-9.429597	1.305087	3.023114	-0.046249	0.031883	-0.870723	0.551515	0.893676	13.879614	-150.913122	245.740842	38.188771	-0.423553	0.041944	-0.847189	9.019771	1.516002	0.056991	14.069807	-6.834409	-14.555231	-0.448904	-0.476478	0.198047
-0.970682	-0.536757	9.82532	-10.87178	1.271802	2.658715	-0.088239	0.036535	-0.883752	0.77718	1.400077	13.714957	-154.876209	242.810448	38.526366	-0.371649	0.042244	-0.848292	9.01784	1.399355	-0.063317	13.587609	-6.019125	-13.701711	-0.421368	-0.491436	0.183497
-0.747972	-1.055344	9.486484	-12.617399	1.60378	2.48513	-0.045477	0.004341	-0.863892	0.749536	2.190045	15.187042	-168.532493	241.116543	41.704894	-0.333086	0.086287	-0.82343	8.663358	2.039249	-0.007293	13.944113	-5.336752	-11.536514	-0.449116	-0.473999	0.151464
-0.001562	-0.883076	9.615389	-11.888198	1.312761	1.343601	-0.103074	-0.004746	-0.820267	0.787057	3.430882	17.057192	-168.924391	240.059762	48.076043	-0.292826	0.12144	-0.883664	8.243933	2.387414	-0.313047	15.514455	-4.329969	-7.788061	-0.420671	-0.443685	0.196513
-0.800814	-0.996896	9.713024	-12.675128	2.21917	2.403295	-0.045878	0.035411	-0.884799	2.043985	4.21919	19.405467	-149.288961	239.002791	55.819962	-0.266724	0.152231	-0.886222	8.715752	1.572775	-0.427519	17.705402	-2.955786	-3.860126	-0.476858	-0.493905	0.214271
-0.96165	-0.707151	10.279421	-5.805105	2.989475	2.334705	-0.045477	0.004341	-0.863892	2.736171	3.4856	19.419357	-118.758072	236.752724	61.094328	-0.240477	0.153453	-0.901124	8.833244	1.804809	-0.424329	18.778529	-1.695016	-1.18055	-0.462603	-0.460489	0.19714
-1.64833	-1.223628	10.263887	-1.019784	3.312854	2.878201	-0.016493	0.010648	-0.892742	3.110955	2.41338	18.010928	-101.553181	233.981138	64.102096	-0.201399	0.184319	-0.903958	8.709169	2.036147	-0.725076	17.867282	-0.544777	-0.326984	-0.449534	-0.506384	0.153138
-1.87062	-2.830619	10.536942	12.462359	3.915283	1.346473	-0.060341	-0.002342	-0.83539	3.629021	1.792727	17.964647	-104.34068	233.629442	65.668788	-0.200513	0.187535	-0.947007	8.705173	1.86093	-0.965445	16.822293	-0.244545	-0.141256	-0.44953	-0.525055	0.200558
-0.894575	-1.968977	10.73005	20.040649	4.300281	3.017629	-0.045863	0.018112	-0.867307	4.136797	1.737383	20.183216	-105.525036	235.296163	66.023588	-0.109016	0.205524	-0.978641	8.286152	2.034867	-1.271941	18.381972	-0.617953	-1.948316	-0.477208	-0.508445	0.184053
-1.316062	-1.053964	9.702761	27.798089	4.73008	3.523626	-0.045477	0.004341	-0.863892	5.582516	1.453273	20.496399	-90.309962	236.165625	65.551171	-0.055856	0.225432	-1.038146	8.050783	2.209882	-1.215694	18.290541	-1.958754	-5.425652	-0.463087	-0.510719	0.230707
-0.626948	-0.824213	9.830795	33.592729	5.624204	2.938796	-0.030971	-0.009805	-0.860825	6.940016	1.393408	19.392574	-83.76541	235.781845	66.693404	-0.003657	0.226804	-1.053599	8.469668	2.094021	-0.908951	17.650601	-3.220807	-7.831651	-0.477275	-0.52629	0.215946
-1.192521	-1.224442	10.159089	31.176184	6.132896	3.168692	-0.045477	0.004341	-0.863892	8.78097	3.248961	19.546103	-82.872905	231.021245	70.685746	0.073828	0.210862	-1.0399	9.239525	2.848243	-0.651804	19.175286	-4.207355	-9.513305	-0.477413	-0.543308	0.232311
-0.687543	-0.824895	9.659122	31.574562	6.979792	1.83194	-0.045063	-0.044029	-0.825492	11.825569	3.412003	19.32712	-80.813121	218.351171	73.644483	0.0871	0.212009	-1.054525	9.708508	3.253201	-0.761083	19.050173	-5.077117	-14.184379	-0.435342	-0.509485	0.215319
-1.030945	-0.996971	9.651717	26.740672	8.249621	1.713157	-0.04622	-0.002716	-0.83574	15.377424	4.813015	18.723582	-76.367078	196.065975	71.514537	0.15301	0.186031	-1.111296	10.125888	3.311321	-0.513505	16.614149	-5.92744	-18.571978	-0.505229	-0.543717	0.23217
-0.631526	-0.652853	9.604106	22.940677	8.983672	0.47865	-0.044706	-0.023202	-0.85706	20.583153	5.47794	17.361533	-68.061722	170.186854	59.177379	0.178667	0.185109	-1.097497	10.072894	2.615532	-0.277945	15.108947	-5.571171	-18.048735	-0.47672	-0.476886	0.197907
-0.230745	-0.653144	9.611901	19.690581	9.505876	-0.822229	-0.060355	0.014958	-0.852882	24.520086	4.849445	15.745238	-52.521416	146.094391	35.271854	0.217965	0.201727	-1.113678	9.833143	3.254414	-0.399441	17.090137	-3.681549	-13.756109	-0.434996	-0.476274	0.198117
-1.203247	-0.250107	9.651513	15.468815	10.748519	-1.004556	-0.059212	-0.009056	-0.860127	26.232575	3.322239	12.269778	-27.096183	128.577031	3.733749	0.243911	0.141667	-1.124565	9.58839	2.730045	-0.94523	19.705707	-2.820147	-10.377539	-0.434996	-0.476274	0.198117
-1.729258	-0.826562	9.070548	11.185477	12.116573	-1.430012	-0.01685	-0.01018	-0.861174	28.699698	2.300892	9.150299	-11.511327	109.519517	-31.894653	0.205724	0.174226	-1.154444	9.346823	2.729349	-1.249166	19.791437	-2.244711	-6.835546	-0.434921	-0.495771	0.261066
-0.964741	-1.052524	10.107414	8.092582	12.283027	-1.111722	-0.015336	-0.030665	-0.882494	28.351798	3.369434	6.426455	-20.118103	78.276207	-64.979482	0.244061	0.172308	-1.126572	9.531824	2.149667	-0.888896	20.443982	-1.006609	-2.106741	-0.449321	-0.508863	0.199721
-0.630703	-0.250521	9.662648	1.422327	13.409852	-0.215502	-0.017579	-0.034536	-0.815531	27.204879	6.132165	6.857717	-32.744191	38.13528	-86.749491	0.230489	0.109879	-1.107932	9.528232	1.800222	-1.130007	21.289671	0.89978	3.137935	-0.449109	-0.511341	0.246305
-0.977321	-0.595646	9.48396	-5.348788	13.872694	-0.433833	-0.030199	-0.037347	-0.853993	23.609374	9.463926	8.540181	-29.016936	5.516345	-89.074302	0.218625	0.158981	-1.153716	9.350198	1.277448	-1.255347	22.742464	2.826692	6.607781	-0.462532	-0.461316	0.212668
-1.441701	-2.607457	9.068635	-14.918907	10.40634	3.186828	-0.04472	-0.005902	-0.874552	20.207069	11.556803	11.074823	5.803563	-16.687554	-72.40679	0.192453	0.173079	-1.139819	9.228885	1.741832	-1.375384	24.581753	4.254577	8.183669	-0.463434	-0.543931	0.247909
-1.131559	-0.189571	10.391958	-29.519473	12.281893	5.283363	-0.044706	-0.023202	-0.85706	18.064737	11.729308	10.463839	55.286702	-35.648907	-45.152514	0.192158	0.172007	-1.125469	9.239464	1.453677	-0.837458	25.121646	4.878684	10.134903	-0.449109	-0.511341	0.246305
0.654069	2.811345	14.019656	-62.889368	40.995374	1.736667	-0.015336	-0.030665	-0.882494	16.126409	9.196284	8.382786	76.396208	-55.98685	-17.594146	0.204694	0.20058	-1.099052	9.583272	2.089725	-1.307391	24.118493	4.785472	12.889893	-0.434858	-0.459255	0.181752
-0.879608	-1.103976	11.529613	-50.778416	53.394783	5.368772	-0.002344	-0.024325	-0.858108	14.797261	6.832502	7.899872	76.007962	-74.927297	2.717659	0.165835	0.155465	-1.109564	9.815745	1.73974	-1.5441	23.013823	4.615919	14.11735	-0.40718	-0.475865	0.198258
-1.336737	-0.816195	11.578765	-36.921273	66.772589	7.386363	-0.030571	-0.040875	-0.839917	-1.932705	-21.079689	3.334436	216.47108	-154.304078	-67.070103	0.204323	0.184187	-1.083699	9.874241	2.436765	-1.480126	28.055526	4.042475	12.145598	-0.490206	-0.463376	0.243583
-1.301106	-0.808475	13.398064	-44.749285	77.672163	10.376705	0.011391	-0.010929	-0.861873	-9.511354	-5.509189	13.606009	-108.539595	-119.117924	-25.583784	0.204173	0.153546	-1.081692	11.408756	1.445467	-1.575531	28.049591	2.560053	7.598466	-0.434713	-0.479579	0.260229
-0.957123	-1.440581	13.40209	-28.337687	89.621458	17.362109	0.052223	0.025732	-0.859092	-0.512262	-5.919605	14.643861	112.478737	-175.881503	-15.550405	0.178227	0.213606	-1.070805	11.925035	1.208486	-2.405313	17.344064	1.507381	8.100733	-0.463229	-0.509067	0.199651
-1.35011	-1.438602	13.792268	-39.607932	102.507027	22.540959	0.038489	0.012336	-0.855327	3.453948	2.065166	7.09129	174.353332	-181.617914	-31.957339	0.139368	0.168492	-1.081317	12.70435	1.209451	-1.732031	8.655801	3.918795	11.513436	-0.476787	-0.494731	0.229799
-2.045988	-1.554918	13.323598	-37.784939	119.326523	30.168284	0.009519	-0.011271	-0.808985	0.036058	4.72078	8.946731	98.638752	-166.4987	-12.848031	0.113272	0.197911	-1.068423	13.481639	2.081555	-1.055041	15.1262	5.907418	7.782117	-0.476578	-0.478539	0.228962
-0.830822	-0.806153	14.032356	-49.251327	135.00119	35.699281	0.052252	-0.008866	-0.824108	3.225814	2.070413	12.578078	85.439537	-132.884876	21.263165	0.061217	0.16697	-1.065313	13.521718	3.12308	-1.948094	23.929694	3.474512	-8.314192	-0.462674	-0.459663	0.181612
-0.824307	-0.574939	14.37444	-65.952295	152.34486	40.812395	0.051837	0.039503	-0.862508	3.75905	2.124006	10.607828	102.33053	-107.546855	31.733184	0.087244	0.18244	-1.066868	13.979677	3.06071	-2.718327	5.505695	1.723514	-19.851707	-0.434858	-0.459255	0.181752
-1.156859	-1.893675	14.873886	-85.235833	171.38435	49.608805	0.094985	-0.006462	-0.839232	3.856348	1.334404	9.703349	70.521192	-81.168684	31.846422	0.009313	0.166669	-1.06421	13.214553	3.585891	-2.550687	-1.665702	1.673404	-17.47251	-0.462879	-0.494527	0.22987
-0.784956	-2.634632	16.298757	-87.936103	195.741522	56.542782	0.093828	0.034851	-0.849479	3.108645	0.997822	9.687348	54.239279	-63.042122	24.028571	0.034825	0.195317	-1.038069	12.62217	3.121892	-2.74339	8.176843	2.254982	-17.083105	-0.449459	-0.525881	0.216086
-0.571734	-2.350968	15.508475	-86.705931	225.389049	64.133697	0.121283	0.078944	-0.874501	3.094785	0.65927	9.007388	37.436615	-56.869705	13.717774	0.008353	0.148133	-1.020157	11.50461	3.880682	-2.46155	2.428663	1.352153	-29.372534	-0.490907	-0.492456	0.183146
-0.386982	-1.831223	16.196224	-91.743807	251.256455	74.562399	0.15031	0.033353	-0.850876	2.30182	0.210609	9.55648	22.315393	-51.420318	9.351257	0.021629	0.20949	-1.024447	9.799704	2.95637	-2.257791	-6.685634	0.916804	-37.739991	-0.463158	-0.509893	0.215179
0.366974	-1.312617	16.724549	-96.46155	278.891697	77.906835	0.219026	0.048437	-0.817226	1.395064	0.325564	10.216908	19.452496	-45.755851	9.96018	-0.042886	0.165297	-1.048757	9.049811	2.613378	-1.374976	-5.111445	1.574529	-32.768485	-0.462883	-0.475856	0.182449
0.104209	-1.479668	17.912173	-95.26295	304.895575	75.659424	0.259902	0.0332	-0.76197	2.421309	-0.803461	9.671324	18.646177	-43.444942	11.462284	-0.030425	0.178549	-1.021337	7.877576	1.978725	-1.040263	-0.086888	2.284637	-22.798227	-0.449321	-0.508863	0.199721
-0.123612	-1.594144	17.964089	-78.34311	332.528775	68.549849	0.260631	0.057556	-0.807613	2.246565	0.267142	9.668598	14.456744	-45.315507	7.956675	-0.03072	0.177477	-1.006987	6.995925	2.330196	-0.815659	3.403395	2.630419	-16.578671	-0.449601	-0.524229	0.18503
-3.257882	-1.933378	18.640489	-59.289216	356.380643	57.172344	0.316027	0.010874	-0.731799	2.586452	-0.015394	9.392416	12.026041	-45.725446	-4.473121	-0.017223	0.224585	-1.024624	6.348658	1.983472	-0.76934	4.930416	3.257122	-14.539733	-0.449392	-0.508036	0.184193
-6.494225	-4.982454	16.916605	-59.864868	371.558332	50.12433	0.385115	0.029487	-0.712225	2.598517	-0.634603	9.901651	12.334536	-46.612003	-13.729945	-0.030054	0.194941	-1.03669	5.695909	2.100368	-0.960672	6.526799	3.621044	-10.727277	-0.463717	-0.540626	0.185797
-5.935219	-5.375509	19.142208	-55.47471	373.535513	56.18353	0.37098	0.047161	-0.729367	0.885283	-0.85617	10.48823	13.150253	-28.886954	-16.604972	-0.043621	0.192723	-1.007715	5.804213	2.969507	-1.37411	8.231292	3.893542	-3.95019	-0.4489	-0.495149	0.245468
-4.20975	-5.432505	19.573343	-46.314101	374.131752	61.47056	0.398507	0.004756	-0.66693	2.314317	-0.633922	10.065525	40.19472	-13.80182	-1.173597	-0.057187	0.190504	-0.97874	6.203446	3.255975	-2.084054	6.130985	4.330886	0.364633	-0.449739	-0.541248	0.201395
-4.391161	-5.951526	19.056153	-35.391652	370.999662	68.776267	0.496636	-0.039521	-0.606239	2.537217	-0.578307	9.730571	36.589214	-15.65326	-1.718982	-0.044211	0.190579	-0.979016	7.02444	3.136697	-2.368677	0.221712	5.43797	0.716944	-0.477208	-0.508445	0.184053
-1.239878	-8.493579	16.208383	-21.483302	377.947994	78.781315	0.522634	-0.044141	-0.539974	2.586128	0.153597	9.392559	21.169515	-14.198309	-5.632063	-0.043916	0.191651	-0.993365	7.671417	3.134717	-2.476386	-3.307197	7.004351	-4.076058	-0.448833	-0.477304	0.213575
1.435616	-8.671229	15.46405	-24.419401	374.482409	93.599641	0.520333	0.021186	-0.542977	2.549845	-0.859485	10.29673	26.360249	-11.274679	-1.837818	-0.082624	0.177177	-1.005884	8.668608	2.433779	-2.879993	-10.614425	8.402988	-11.696506	-0.463229	-0.509067	0.199651
2.798013	-9.421617	14.862252	-28.95512	372.119466	105.251766	0.591007	-0.067183	-0.457264	2.427807	-0.408863	10.011493	29.721662	-9.210952	-1.41383	-0.096705	0.188135	-0.949213	9.194657	2.257099	-3.170365	-18.514089	8.694781	-18.972921	-0.435626	-0.50618	0.153208
4.283282	-7.872256	14.784012	-25.162655	366.415809	119.889404	0.575743	-0.042795	-0.44967	1.785934	0.324335	9.658974	26.490928	-8.211864	-1.036559	-0.083214	0.175033	-0.977185	9.368309	3.243739	-3.222768	-22.212693	8.086145	-23.509718	-0.421368	-0.491436	0.183497
2.184651	-13.870964	-4.945417	68.840674	287.658223	165.526652	0.616648	-0.092631	-0.359431	2.940953	-0.353692	9.795863	24.036484	-6.924168	-1.087387	-0.109317	0.144242	-0.974626	9.488562	3.708819	-3.038869	-26.457455	7.365774	-26.302134	-0.449254	-0.491018	0.167828
21.646072	2.064975	4.593167	-28.36179	49.423022	228.835838	0.617076	-0.1583	-0.303539	1.907216	0.268026	9.944543	19.708565	-7.195721	-0.785289	-0.083434	0.189282	-0.963839	9.731074	3.302983	-2.736663	-29.8272	6.470969	-26.713452	-0.44988	-0.539595	0.17034
20.493375	0.537884	9.963198	-3.860164	-120.695546	179.170507	0.632697	-0.16186	-0.342701	2.804002	0.941367	8.888302	13.222814	-7.269785	-2.055192	-0.109757	0.172739	-0.947934	9.260221	4.175945	-2.562037	-31.686089	6.143494	-22.304966	-0.449739	-0.541248	0.201395
18.965963	2.106613	13.861399	48.303739	-224.57998	123.377594	0.603713	-0.168168	-0.31385	4.591701	0.543807	9.038725	9.39988	-6.504694	0.138129	-0.122437	0.173736	-0.962008	9.616634	3.652698	-2.497753	-32.997278	5.58338	-18.875067	-0.491675	-0.539381	0.154601
14.808225	0.263506	11.897354	109.417212	-272.535535	68.969516	0.634984	-0.209888	-0.357189	2.429925	0.379907	10.182076	7.385008	-7.02385	0.593768	-0.122293	0.144167	-0.97435	10.041312	3.886777	-1.830085	-38.5143	5.281597	-18.211921	-0.449597	-0.5429	0.232451
11.768396	-0.954362	8.593759	127.023942	-299.040615	25.688382	0.549117	-0.183627	-0.34785	1.567976	0.212579	10.22044	8.022356	-7.676317	3.146534	-0.148464	0.158266	-0.960453	10.109827	4.063095	-1.289081	-42.660492	3.463803	-18.371581	-0.477279	-0.507618	0.168525
10.171104	-2.228296	5.88629	114.932385	-317.706644	-4.847117	0.566624	-0.204144	-0.422407	3.271	0.71542	9.180981	4.903107	-5.488611	0.144614	-0.135043	0.190054	-0.977085	10.112142	3.540658	-1.231399	-43.520961	2.865618	-17.021034	-0.436043	-0.538565	0.154882
9.18306	-3.437241	5.06635	79.246602	-335.638496	-23.100327	0.552504	-0.20377	-0.422058	2.369272	0.09822	10.010711	8.145358	-5.369546	2.306379	-0.121997	0.145239	-0.9887	10.187395	3.660383	-0.331201	-40.026395	2.205182	-14.066309	-0.450369	-0.571154	0.156486
8.122115	-3.66043	6.408703	40.922616	-352.212865	-34.700119	0.525749	-0.188908	-0.477663	1.685586	-1.083238	10.221767	11.113468	-4.975801	4.131551	-0.135118	0.174733	-0.976082	9.664513	3.895881	0.139139	-35.546498	1.861131	-11.788914	-0.478117	-0.553717	0.124453
8.08841	-3.885088	7.600539	15.961338	-374.088158	-43.081548	0.470381	-0.176824	-0.518494	2.365276	-0.972297	9.726612	11.52031	-2.234412	3.01849	-0.135413	0.173661	-0.961732	10.077741	3.372004	0.08471	-30.543975	1.428773	-9.665751	-0.491604	-0.540208	0.170129
7.32986	-3.300684	9.804634	12.030513	-399.568591	-50.876869	0.471496	-0.166239	-0.560722	1.442312	0.66306	9.765284	10.400573	-0.69593	0.011725	-0.122362	0.189057	-0.963011	9.309701	3.25736	0.010003	-24.121908	0.564435	-6.68992	-0.463859	-0.538973	0.154742
6.320643	-3.582562	10.863593	15.974673	-417.759398	-55.048864	0.417243	-0.143571	-0.643781	2.312569	-0.352317	10.009123	14.657758	-0.930706	1.985818	-0.16122	0.143942	-0.973523	8.951627	3.547809	-0.175084	-17.790843	-0.302752	-3.469178	-0.436669	-0.587142	0.157393
3.641235	-4.152617	11.377377	19.796847	-420.821071	-52.287205	0.331376	-0.11731	-0.634442	2.766078	0.153559	9.736023	14.170373	-0.528872	0.540497	-0.122437	0.173736	-0.962008	8.883092	2.906635	-0.777973	-12.155167	-1.136209	2.168491	-0.46365	-0.522781	0.153905
3.249154	-3.863189	11.825614	15.459454	-413.943445	-44.279154	0.332477	-0.089426	-0.694161	2.139488	1.112695	10.120008	10.871253	-0.165324	-0.506698	-0.135193	0.159413	-0.975078	8.755446	3.253383	-1.257945	-5.435527	-1.540055	8.044956	-0.43639	-0.571776	0.172084
1.552926	-4.202011	12.87097	8.298927	-403.144864	-35.708928	0.277495	-0.091114	-0.731576	1.668839	0.718817	9.600249	9.774611	-1.261377	0.868786	-0.161365	0.173511	-0.961181	9.175276	2.73099	-0.952933	-0.397594	-2.662905	11.883298	-0.46393	-0.538147	0.139214
1.456523	-4.600159	13.776703	1.425861	-390.342326	-27.322151	0.164873	-0.04999	-0.777842	2.530981	0.1538	9.504629	6.923094	-1.947446	1.784515	-0.148835	0.141873	-0.945099	9.110758	2.729889	-1.253568	0.970984	-2.618599	13.987186	-0.478047	-0.554543	0.139981
0.691375	-4.132085	15.639197	-8.53865	-380.550861	-20.754707	0.135503	-0.042526	-0.752408	2.249652	0.548937	9.838754	5.795814	-3.042494	2.944192	-0.187612	0.172289	-0.946279	9.04869	2.148275	-1.496768	1.814152	-2.542751	15.817761	-0.435905	-0.521546	0.138517
-0.005575	-4.306083	15.113433	-5.765926	-370.600656	-17.564726	0.122883	-0.045338	-0.790871	3.50823	-1.031115	9.354266	4.233492	-2.134471	1.718835	-0.147944	0.205299	-0.977813	8.581233	2.034192	-1.266439	2.969487	-2.193645	17.951601	-0.449743	-0.522576	0.153975
-0.385117	-4.416092	16.185365	-24.346855	-359.650794	-13.591689	0.05228	-0.043465	-0.789125	2.47715	0.09772	9.673291	3.168187	-3.113119	3.95871	-0.175152	0.185541	-0.918859	8.333759	2.206488	-1.869168	3.079774	-1.730366	20.516666	-0.449813	-0.52175	0.138447
-0.832225	-4.126141	16.746195	-50.97692	-344.740992	-12.015571	0.010676	-0.052584	-0.798737	2.022802	0.662172	10.003932	3.045777	-3.108649	3.033807	-0.148389	0.173586	-0.961456	8.579167	1.975621	-1.3865	4.964674	-2.041787	21.703479	-0.435626	-0.50618	0.153208
-0.384926	-3.771649	19.143267	-67.416456	-328.893287	-15.759533	-0.073704	-0.01221	-0.845701	2.360163	0.435871	9.614519	2.60734	-3.545869	3.399046	-0.173901	0.144939	-0.987597	8.81137	1.741788	-1.622714	5.941496	-2.392067	20.417756	-0.505445	-0.522567	0.138166
0.093235	-3.882521	20.175048	-76.784887	-317.407407	-22.845936	-0.116423	-0.031914	-0.813086	2.247319	-0.127171	9.668266	5.204278	-3.388671	3.156072	-0.135489	0.158341	-0.960728	7.992287	1.512858	-1.279668	6.561527	-3.206827	16.598474	-0.463788	-0.539799	0.17027
-0.849239	-4.966692	21.686567	-93.7163	-313.491601	-30.401853	-0.130544	-0.031539	-0.812737	1.903398	1.000228	9.83188	4.464307	-3.419083	1.675419	-0.122142	0.174808	-0.976358	7.570796	1.802453	-1.705483	5.987656	-4.383817	14.863867	-0.46365	-0.522781	0.153905
-2.914371	-4.723812	24.375281	-102.934718	-315.460164	-39.670948	-0.144336	0.024262	-0.878939	3.403463	-0.129137	9.919003	8.570432	-3.581408	1.64628	-0.162257	0.110086	-0.928467	7.628576	1.860146	-1.764042	5.183585	-6.182897	17.015041	-0.463863	-0.520302	0.107321
-6.632853	-5.869466	24.411785	-106.35874	-321.915823	-49.827687	-0.245066	0.043841	-0.841098	2.474732	0.097625	9.560012	8.217388	-4.742764	0.370494	-0.136745	0.138733	-0.902326	7.034128	1.337576	-2.076806	3.411792	-7.183269	21.458533	-0.463792	-0.521128	0.122849
-10.624614	-0.602533	19.525755	-125.626916	-325.843199	-53.333236	-0.215324	0.039906	-0.880609	3.409053	-0.523261	10.145229	12.407743	-5.663518	-0.745101	-0.174121	0.159188	-0.974251	7.153841	2.03496	-1.891918	-0.175556	-7.948626	26.21333	-0.449884	-0.520924	0.122919
-20.519088	4.499906	28.845482	-214.397827	-299.501592	-37.956255	-0.328317	0.077501	-0.912799	2.65425	0.322908	9.903666	14.842632	-6.119987	-1.240929	-0.175377	0.13958	-0.915848	7.496258	2.322058	-2.483148	-1.012973	-9.898195	28.12098	-0.491537	-0.522363	0.138236
-25.155146	13.433322	35.044306	-149.417902	-260.714938	-15.490262	-0.345467	0.118847	-0.869809	2.720924	-0.014851	10.301068	14.498649	-6.375062	-0.411385	-0.175452	0.124259	-0.914845	8.204432	1.855582	-2.531828	-0.405301	-10.779235	27.756148	-0.477696	-0.540003	0.170199
-22.642763	18.875375	32.047271	-26.723023	-229.369897	-24.413098	-0.387457	0.123499	-0.882837	2.71458	0.773587	10.075173	16.273564	-7.61407	0.255942	-0.187763	0.141648	-0.944272	8.962278	1.619298	-3.057673	-6.562171	-10.60581	23.650787	-0.477562	-0.504313	0.106414
-25.041667	12.131765	26.175482	72.39507	-194.670046	-59.687996	-0.457645	0.077002	-0.842692	2.559	0.04223	10.807245	19.448039	-7.927129	2.721638	-0.188799	0.107792	-0.899216	8.901331	1.502786	-3.179082	-12.207192	-9.378956	21.37275	-0.435484	-0.507832	0.184264
-31.989041	-0.486467	15.757687	150.592851	-148.961815	-76.658542	-0.459189	0.132086	-0.856355	2.553579	-0.915674	10.466601	18.751663	-9.168451	3.633584	-0.174862	0.126403	-0.943544	9.320642	1.677552	-2.811195	-20.167506	-7.59564	17.724955	-0.435346	-0.490814	0.167899
-38.523429	-9.323056	3.204309	107.791244	-94.821578	-52.369432	-0.47098	0.032535	-0.818019	1.912591	-0.013437	10.170864	18.961984	-9.568801	4.307996	-0.162257	0.110086	-0.928467	9.438579	2.665069	-2.684978	-29.49463	-5.583121	6.225827	-0.449746	-0.503905	0.106554
-38.979088	-4.89852	3.498248	-44.465	-43.993909	-9.511596	-0.471766	0.077376	-0.842343	2.138279	1.112648	10.063369	19.934892	-10.725823	4.94467	-0.188208	0.109936	-0.927915	10.209226	2.60598	-2.491199	-27.025615	-3.750839	-1.524414	-0.49112	-0.489978	0.136562
-35.06323	4.517769	16.798762	-95.787146	11.382412	3.312717	-0.472881	0.066791	-0.800115	2.764415	-0.24085	9.622412	17.383638	-12.141002	5.390972	-0.175302	0.1549	-0.916852	10.562067	2.198143	-2.60614	-21.78252	-2.307562	-3.231219	-0.449467	-0.488539	0.121245
-30.233102	9.069822	21.06052	-23.39971	66.873726	-14.946998	-0.513742	0.064729	-0.837879	2.760118	-0.522692	9.395616	4.921241	-15.761193	4.913352	-0.175452	0.124259	-0.914845	10.331599	1.212132	-2.435024	-18.99074	-2.143679	-0.369243	-0.449676	-0.504731	0.122082
-26.218775	4.389948	15.435836	47.298449	109.480864	-36.664755	-0.42979	0.090024	-0.846806	2.029947	0.718787	10.343817	-7.206085	-17.29089	4.271817	-0.174712	0.157044	-0.945551	9.755494	1.797704	-1.60486	-20.183356	-2.166602	1.438403	-0.449049	-0.456154	0.119571
-17.721478	26.467163	35.243837	-172.304206	265.419567	-21.25746	-0.430162	0.086495	-0.83273	1.927013	0.663146	10.907748	-11.456252	-30.753596	5.429341	-0.213715	0.141498	-0.943721	9.571458	2.435709	-1.904976	-19.816566	-4.146285	3.708222	-0.462816	-0.458011	0.150556
27.618591	-8.716009	-3.576513	70.458058	222.908982	-48.260939	-0.442382	0.052613	-0.850285	2.750728	2.974426	14.663622	-16.537123	-39.477592	2.409831	-0.175678	0.078298	-0.911834	10.93213	2.433345	-1.699945	-20.650972	-7.343384	7.944377	-0.448979	-0.45698	0.135099
15.020019	-4.833376	2.048328	-8.207139	187.534447	-86.254703	-0.386285	0.064886	-0.855098	2.206275	0.326629	13.177883	15.684032	-57.042716	-6.833101	-0.187022	0.174433	-0.974979	12.348113	2.604333	-1.672793	-19.227441	-11.232589	8.905298	-0.463721	-0.521954	0.138377
0.343995	3.745715	4.07224	-60.693069	220.613259	-94.371702	-0.370636	0.026727	-0.859276	2.464579	0.83431	14.542496	-5.682332	-68.424225	-5.853624	-0.214305	0.139355	-0.915021	13.006614	1.907666	-1.244307	-27.761763	-12.926176	1.150446	-0.477003	-0.473581	0.135795
-3.953822	3.02605	9.611821	-74.850732	248.450001	-90.686629	-0.384428	0.082528	-0.925478	2.916964	0.664125	14.155548	5.925002	-85.976895	-5.8646	-0.187983	0.155897	-0.930926	11.527909	1.9103	-1.451539	-30.901322	-8.293483	-10.198709	-0.421576	-0.507628	0.184334
-3.959488	0.349541	15.056149	-86.330912	224.525457	-78.830937	-0.314182	0.059827	-0.895656	3.035937	0.55139	14.327789	-0.968185	-101.115648	-7.746944	-0.201775	0.107717	-0.89894	10.116733	1.566073	-1.239805	-23.867232	-3.241183	-5.358541	-0.477558	-0.522985	0.153834
-4.210062	1.174236	19.828506	-34.846217	190.887719	-46.177951	-0.285598	0.097205	-0.945414	2.211026	1.002832	13.46165	-5.482495	-116.253437	-10.058927	-0.240257	0.139204	-0.91447	10.567475	3.187166	-2.182589	-13.335786	-3.441793	20.645434	-0.449743	-0.522576	0.153975
-4.094537	1.03458	14.033462	11.259743	173.850002	-9.166745	-0.2581	0.089399	-0.91796	2.45614	1.453661	14.20318	-16.346147	-132.586086	-11.123944	-0.214305	0.139355	-0.915021	13.390677	4.456874	-2.48377	-7.179858	-4.54518	25.947333	-0.449325	-0.490191	0.152301
-3.67118	-0.294627	12.217521	21.93397	142.841618	-3.506607	-0.217253	0.108761	-0.897688	2.814615	1.566197	14.833564	-24.902073	-152.079726	-12.650071	-0.280736	0.1183	-0.84089	14.032806	3.698422	-2.954135	-16.250178	-5.921886	-6.748597	-0.477558	-0.522985	0.153834
-0.921103	-2.881486	12.260109	19.456771	112.496515	-7.857207	-0.215338	0.057205	-0.8981	3.001555	0.439738	15.402638	-29.700864	-172.68034	-16.311217	-0.279995	0.151084	-0.871597	13.049879	3.472864	-1.895507	-21.36021	-8.145338	-30.127192	-0.462745	-0.458837	0.166084
-0.475813	-2.195173	11.646529	35.968625	92.287367	-15.287459	-0.145121	0.069103	-0.903262	2.733285	0.328375	16.302732	-33.403387	-194.442035	-19.058154	-0.319218	0.149787	-0.85642	11.527139	3.188467	-1.326286	-18.170172	-10.120751	-30.251539	-0.464001	-0.537321	0.123686
0.41241	0.900458	10.369754	34.589407	79.062356	-17.430786	-0.21611	0.084747	-0.904932	3.315391	-0.517471	16.540668	-26.925914	-217.108242	-19.062252	-0.371718	0.087133	-0.836953	9.935479	2.901979	-1.297327	-16.500316	-10.527847	-28.758416	-0.435559	-0.488335	0.121315
-0.003794	0.667605	9.565052	22.7056	70.75587	-10.569416	-0.186726	0.059984	-0.912875	2.610485	-1.981435	15.731974	-15.670067	-238.233778	-20.465214	-0.372008	0.146271	-0.812268	9.415858	2.208507	-0.771036	-17.726974	-9.330624	-23.687314	-0.436047	-0.519894	0.107462
-1.491332	-0.824798	9.529827	4.525129	67.787968	-0.168564	-0.14625	0.075818	-0.878526	3.566134	-2.376146	17.336894	-11.455986	-262.408346	-29.949795	-0.398405	0.114409	-0.795359	8.060187	3.374123	-0.551773	-16.311846	-6.546396	-11.451734	-0.435768	-0.504527	0.122152
0.271757	0.09057	8.999675	-6.075937	68.579049	7.020291	-0.130629	0.072257	-0.917687	3.429436	-3.109128	16.257707	3.67898	-285.192224	-38.825884	-0.438068	0.141609	-0.75349	7.654082	3.202323	-0.200777	-12.958861	-2.473567	-1.887083	-0.449884	-0.520924	0.122919
-0.929467	-1.459482	8.969776	-5.776796	70.922396	9.142841	-0.131029	0.103327	-0.938595	3.603795	-2.715043	16.374945	12.642671	-307.154852	-44.831852	-0.46402	0.141459	-0.752939	7.408134	3.665493	-0.682456	-17.409332	1.294508	1.931413	-0.436185	-0.536912	0.123826
0.403726	-4.042168	9.723618	33.051611	49.176594	13.246812	-0.117623	0.061298	-0.875809	5.488385	-3.057199	15.678239	32.264497	-324.09555	-51.519108	-0.504135	0.076736	-0.705048	6.652063	3.611645	-0.09794	-19.955711	4.462781	5.256965	-0.477003	-0.473581	0.135795
-1.805281	-3.231062	10.934338	39.253766	23.684908	-4.573652	-0.116123	0.058111	-0.914621	8.928343	-3.345887	15.070862	33.973499	-336.101565	-58.603249	-0.50531	0.132658	-0.637314	6.929307	4.652877	-0.926684	-21.168016	6.747273	5.770045	-0.450022	-0.537943	0.139284
0.474248	-0.822105	10.534188	37.955184	23.780256	0.031889	-0.131372	0.0652	-0.889536	9.048661	-3.287199	18.017377	44.876822	-336.941886	-68.651494	-0.583611	0.100495	-0.619302	7.580261	4.361259	-0.855909	-21.312052	7.810862	0.477981	-0.449743	-0.522576	0.153975
-0.914126	-1.111455	9.767167	40.245405	22.029697	0.855542	-0.114966	0.016798	-0.904373	6.122772	-4.68968	18.294375	64.968342	-334.15384	-80.07401	-0.584647	0.066639	-0.574246	7.94067	4.013229	-0.551255	-22.120912	9.125902	-2.734438	-0.43563	-0.487509	0.105787
0.52391	0.440119	10.199492	38.020943	21.008322	-2.129455	-0.088611	0.033006	-0.869676	6.061937	-6.382109	15.291053	92.204315	-339.171734	-81.951266	-0.59925	0.030564	-0.500214	7.825649	3.665537	-0.435125	-22.70871	11.021704	-5.8281	-0.436394	-0.553105	0.124664
-0.964451	-1.454615	10.105725	37.440291	17.772408	-4.296507	-0.102746	0.05068	-0.886818	11.025644	-6.278196	16.01815	91.784675	-321.057126	-80.970464	-0.625347	0.059982	-0.48732	8.483475	3.25925	-0.005403	-20.972759	11.410242	-10.267573	-0.435555	-0.507006	0.168736
-2.172735	-0.937977	9.800248	30.999019	16.133635	-3.35387	-0.088982	0.029478	-0.8556	9.394124	-6.726628	15.021048	103.139348	-295.930318	-91.623242	-0.653371	-0.007881	-0.396656	8.596045	4.187455	-0.178967	-18.694747	11.018008	-15.927492	-0.435417	-0.489987	0.152371
-0.629507	-0.365163	9.719019	25.07648	13.751764	-1.719439	-0.114565	-0.014272	-0.883466	6.563139	-8.299123	14.337448	107.43882	-256.410354	-91.535757	-0.667232	-0.011171	-0.353331	9.076823	3.781573	0.247454	-15.881772	7.685031	-20.994463	-0.46358	-0.523607	0.169432
-0.970066	0.152783	9.885069	21.729386	12.347743	-1.241931	-0.10196	0.005839	-0.862495	-33.268887	-18.322529	-3.435594	89.601163	-177.682353	-141.715426	-0.680214	-0.071456	-0.36339	9.259258	4.305336	0.612422	-9.915294	3.198182	-22.828112	-0.47798	-0.536698	0.108088
-1.314457	-0.191859	9.820087	15.254071	10.998577	-1.459896	-0.101202	-0.004404	-0.873155	-9.751774	-12.396192	-3.672438	-3.364878	-9.375603	-181.815038	-0.694591	-0.06157	-0.29237	9.259258	4.305336	0.612422	-2.06847	-1.932665	-23.84043	-0.463304	-0.489569	0.136703
-0.33573	0.038409	10.124247	7.892649	9.887275	-1.334093	-0.116094	0.023513	-0.879637	-12.493393	-4.881091	16.827555	-18.443217	117.091292	-149.474397	-0.655518	-0.090914	-0.305539	10.019461	4.476325	0.268028	5.388072	-6.86707	-23.263299	-0.450164	-0.53629	0.108228
-1.373773	-0.422066	9.704302	-0.912723	8.809708	-2.062298	-0.072575	-0.018924	-0.870437	-10.933021	-6.17946	17.029023	26.641729	105.741923	-130.38132	-0.667834	-0.133735	-0.345302	9.836039	3.429384	-0.218979	11.26093	-9.139761	-17.376043	-0.478188	-0.552891	0.108925
-1.089769	-0.365314	9.596405	-8.975584	8.621899	-2.348826	-0.11458	0.003027	-0.900958	-11.664753	-6.355876	6.992792	76.869623	102.315908	-99.307405	-0.642918	-0.167441	-0.300797	9.836579	3.19708	-0.219967	15.541781	-10.415105	-10.876301	-0.42186	-0.504323	0.122222
-0.897756	-0.648304	10.621894	-15.745849	8.423759	-1.197834	-0.074076	-0.015738	-0.831625	-12.074107	-6.414073	3.983592	37.086637	127.290823	-59.575606	-0.628686	-0.147758	-0.359475	10.359191	3.077735	-0.689813	18.750235	-10.841254	-9.969075	-0.449951	-0.538769	0.154812
-0.581657	0.322164	9.268203	-23.229968	8.028071	-1.888093	-0.102731	0.033381	-0.869326	-11.683402	-5.455252	6.200596	-7.956215	159.592328	-17.336592	-0.681186	-0.210412	-0.340008	10.061774	3.135991	-0.814882	19.371844	-10.53789	-9.514367	-0.450302	-0.553309	0.124593
-0.623898	-0.421399	10.003043	-29.125589	7.560842	-3.749494	-0.07369	-0.029509	-0.82821	-11.045942	-4.270875	9.21558	-17.39968	183.467201	23.34016	-0.639897	-0.201612	-0.455633	9.46283	3.600219	-1.243257	20.162119	-9.826863	-7.014631	-0.463721	-0.521954	0.138377
-0.568207	-1.340987	9.886589	-32.660889	6.822488	-5.131414	-0.087067	-0.022078	-0.856012	-9.912659	-4.330072	8.390117	-9.623418	200.467931	56.874346	-0.640701	-0.129297	-0.403252	9.696383	2.785626	-1.481944	20.803306	-7.853142	-5.406621	-0.450026	-0.519271	0.091864
-1.407928	-1.56603	10.835424	-31.227734	5.912147	-5.579699	-0.072232	0.019203	-0.919497	-8.208149	-5.235543	7.292833	-19.966413	217.637936	80.592893	-0.639746	-0.170971	-0.45764	9.986657	2.95819	-1.715327	20.735746	-5.075616	-4.869523	-0.408436	-0.554349	0.15586
-1.886214	-1.282834	9.804367	-25.007772	5.604542	-5.725276	-0.11608	0.006213	-0.862146	-6.47756	-5.238634	7.499019	-46.040543	230.969794	93.870573	-0.625294	-0.165536	-0.529665	9.631594	2.900677	-1.782084	18.000005	-3.673679	-5.324731	-0.408161	-0.520312	0.12313
-0.907487	-1.052566	10.108527	-19.369115	5.040024	-5.137302	-0.088997	0.046777	-0.873091	-4.62424	-4.790964	8.10448	-70.224186	241.632741	97.349053	-0.611948	-0.149069	-0.545294	8.740134	2.262135	-2.220659	13.253221	-3.973619	-4.57263	-0.436811	-0.58549	0.126338
-0.387085	-0.419876	10.405469	-16.364862	4.489411	-4.142828	-0.059969	0.001187	-0.849466	-4.327389	-4.453141	8.563926	-86.948891	253.086241	97.264674	-0.559228	-0.100664	-0.578107	8.265014	3.076033	-2.285908	8.263287	-4.777734	-2.472505	-0.408231	-0.519485	0.107602
0.050167	-0.941765	9.331996	-13.944786	4.692404	-4.790538	-0.114951	-0.000501	-0.886882	-3.173987	-4.28621	8.701525	-101.864494	265.882563	96.516786	-0.531429	-0.078762	-0.665761	8.157831	2.671996	-1.750677	4.854739	-5.189257	0.659194	-0.436114	-0.537739	0.139354
-2.067424	-0.537899	9.349339	-15.097564	5.121861	-2.480095	-0.087853	0.022764	-0.880336	-2.84184	-3.439989	10.860586	-119.102074	281.080555	98.350196	-0.54477	-0.03502	-0.639796	8.036342	2.264744	-1.994236	1.595087	-5.186498	2.229711	-0.435768	-0.504527	0.122152
-1.095005	-0.826053	9.310209	-14.878417	6.298991	-3.197637	-0.087468	0.008993	-0.87692	-2.045759	-2.481827	13.199332	-116.058136	294.717952	101.756943	-0.517857	-0.016333	-0.684401	8.335825	2.265058	-1.749107	0.681987	-4.343116	3.176463	-0.436323	-0.553931	0.140191
0.174448	-0.595027	9.847349	-13.344256	6.770936	-3.531737	-0.088982	0.029478	-0.8556	-1.666819	-1.692471	14.849797	-101.787364	306.860137	107.347116	-0.465288	0.001431	-0.715207	8.462391	2.382918	-1.267156	0.561011	-3.44766	2.316848	-0.450089	-0.555788	0.171177
-0.453781	-1.226187	9.889299	-11.845265	7.13059	-4.818291	-0.073361	0.025917	-0.894761	-0.290623	-1.413595	14.65249	-88.559814	317.156563	112.239759	-0.425104	0.021264	-0.774436	9.174851	2.440363	-1.014076	-1.109078	-2.885081	0.578107	-0.478114	-0.572388	0.171873
-0.34311	-0.537695	9.723862	-13.157312	7.858503	-4.495996	-0.074133	0.053459	-0.901593	1.025482	-1.078375	14.340742	-98.191602	325.287653	113.73145	-0.384034	0.044313	-0.876715	9.115565	2.55665	-1.014682	-6.32259	-2.277541	-0.811802	-0.435972	-0.539391	0.17041
-0.561899	-0.822566	10.22988	-13.831317	7.979669	-4.614762	-0.088225	0.019235	-0.86626	2.56065	-0.966999	16.184736	-109.830225	325.723604	108.73117	-0.357486	0.106816	-0.895631	9.170314	2.49745	-1.253456	-10.271226	-1.325188	-2.574669	-0.422344	-0.554553	0.155789
-0.850191	-1.110049	10.109399	-13.125742	8.231589	-4.858048	-0.059998	0.035785	-0.88445	3.628712	-0.573345	17.736097	-115.883569	322.395315	95.804357	-0.279555	0.122587	-0.898289	8.646602	2.616548	-0.843518	-14.495471	0.026356	-4.582912	-0.449534	-0.506384	0.153138
-1.019935	-0.822234	10.220972	-13.398768	8.691611	-4.880455	-0.074504	0.049931	-0.887517	3.019908	-0.064189	18.912658	-114.793762	321.82146	82.633571	-0.265688	0.186088	-0.931279	8.997803	2.440768	-1.017377	-17.379136	1.230373	-3.69192	-0.450022	-0.537943	0.139284
-0.509922	-1.225904	9.945039	-13.025273	9.334155	-4.472392	-0.073747	0.039688	-0.898177	3.395091	0.161672	20.336091	-113.823122	324.144533	70.817696	-0.16166	0.172439	-0.946831	8.356058	2.560136	-0.609639	-16.13792	1.840614	-3.118649	-0.463721	-0.521954	0.138377
-1.146526	-1.054571	9.592396	-13.783651	10.371943	-4.146654	-0.033657	0.069293	-0.867244	4.000189	-0.063589	21.707341	-117.532013	325.458345	59.204102	-0.148314	0.188907	-0.96246	8.419496	3.025845	-0.307027	-15.408601	1.242514	-4.188105	-0.436248	-0.573428	0.20314
-1.077929	-1.339408	10.160833	-13.957727	11.563318	-3.574754	-0.046249	0.031883	-0.870723	5.57479	0.046968	22.702949	-121.516167	319.472979	44.773875	-0.082774	0.146536	-1.003877	8.075823	2.331721	0.162659	-15.265875	0.178107	-4.733655	-0.436256	-0.536086	0.108299
-0.905959	-1.62674	10.162967	-15.169768	13.11337	-2.534012	-0.047764	0.052368	-0.849403	6.453663	0.214959	23.45754	-129.860293	308.187377	27.389747	-0.043546	0.208043	-1.008719	8.086963	2.276117	0.761481	-11.57339	-0.881422	-4.528039	-0.450022	-0.537943	0.139284
-0.49874	-2.832096	10.44996	-12.85308	11.162983	5.063877	-0.047392	0.055896	-0.863479	9.171349	0.830051	24.137916	-145.782073	296.612847	11.322896	0.02178	0.240131	-1.026454	8.563089	2.450254	1.010654	-7.201341	-2.468605	-3.344384	-0.436532	-0.570123	0.141028
0.586348	0.338746	13.382782	-34.938586	24.766913	2.465822	-0.061141	0.059799	-0.877206	13.722666	1.441362	24.4605	-160.322095	286.972852	-3.120002	0.074494	0.228326	-1.069603	8.735465	2.565012	0.774822	-0.542371	-4.367955	-0.761634	-0.408298	-0.53733	0.139495
-0.900024	-0.591345	10.508429	-32.364771	33.837228	3.157855	-0.045892	0.05271	-0.902291	19.151971	2.051625	25.480893	-157.685901	273.813449	-21.991962	0.126328	0.273516	-1.059367	8.210673	3.148718	1.186738	7.274016	-5.828626	4.168283	-0.449743	-0.522576	0.153975
-1.310619	-0.880434	9.987751	-30.36044	41.078069	2.319092	-0.045906	0.07001	-0.919783	23.5817	3.899896	22.914692	-142.186735	248.538448	-45.443191	0.165991	0.246316	-1.101236	8.210943	3.032566	1.186244	15.717812	-6.344507	9.641786	-0.436043	-0.538565	0.154882
-1.228536	-1.3347	11.237702	-36.477903	47.337456	3.389131	-0.017651	0.051961	-0.902989	26.780103	4.848194	19.189552	-124.778767	213.571643	-63.409086	0.20507	0.277182	-1.104071	8.62118	3.321507	1.075369	23.332659	-5.907263	14.349821	-0.422135	-0.538361	0.154952
-1.344573	-0.760443	11.181035	-42.01064	53.873847	4.645988	-0.047392	0.055896	-0.863479	28.825235	6.192914	15.383927	-104.097608	177.096854	-70.321029	0.217745	0.215975	-1.100332	8.735485	3.029867	0.836707	29.438065	-4.794938	18.326659	-0.435835	-0.522372	0.154045
-1.56258	-0.58554	11.745836	-46.792622	61.715184	7.639224	-0.004302	0.079129	-0.91017	30.592172	9.453932	12.196906	-90.218357	132.299109	-60.33714	0.231757	0.249907	-1.145664	9.37613	2.910252	0.369062	35.507838	-3.797507	21.570665	-0.407739	-0.506598	0.168876
-1.321604	-0.180961	12.377363	-53.885702	68.358803	9.60761	-0.018408	0.062204	-0.892329	30.720126	11.986917	10.33356	-76.562534	81.306099	-33.090796	0.244362	0.233589	-1.130586	9.306089	2.443059	-0.292992	39.867238	-2.778744	22.161377	-0.450302	-0.553309	0.124593
-1.287195	-0.932809	11.181424	-47.55457	79.524021	11.212196	0.009447	0.075226	-0.896443	30.477546	14.634598	9.991115	-53.263597	36.222869	2.17734	0.231902	0.220338	-1.158006	10.068492	2.614543	-0.517572	43.568476	-2.363052	21.687465	-0.435067	-0.475447	0.182589
-1.564434	-1.102996	11.629958	-58.008073	87.305632	14.374001	-0.005416	0.068544	-0.867942	29.391834	14.8623	10.364813	-20.852335	-4.055733	35.961677	0.269799	0.246916	-1.103442	10.172799	3.308466	-1.171381	46.218653	-2.194582	21.096269	-0.463583	-0.504936	0.122012
-1.73207	-2.193537	11.792591	-61.847258	98.93085	17.241891	0.008704	0.068169	-0.868292	28.986496	12.94758	10.07154	17.083655	-37.953857	60.011675	0.218706	0.234511	-1.144385	10.171273	3.017591	-1.292431	50.639891	-2.762339	18.362442	-0.435976	-0.52072	0.122989
-1.834455	-2.018476	12.416472	-67.792252	110.173005	23.175966	0.022782	0.119693	-0.921116	26.501096	10.642094	9.337937	56.862112	-63.628274	72.028806	0.219447	0.267296	-1.175091	10.517492	2.143416	-1.828698	53.484347	-4.507894	16.587578	-0.449392	-0.508036	0.184193
-2.006544	-3.109982	12.351694	-70.969302	121.496396	31.157575	0.051037	0.101644	-0.904323	23.367301	8.055525	7.854485	78.211942	-81.847077	75.626465	0.218926	0.220263	-1.157731	11.345513	2.316248	-1.692737	59.729355	-6.473949	16.604915	-0.449672	-0.523403	0.169503
-1.98386	-3.679572	13.486343	-72.879238	137.368558	42.121859	0.092642	0.110763	-0.89471	3.372821	-5.986787	10.649177	246.287514	-234.127987	11.446586	0.192314	0.262858	-1.117141	11.110664	1.794104	-1.699364	73.458478	-10.290149	11.774499	-0.463024	-0.474203	0.151393
-1.761155	-2.646997	13.210875	-73.180029	158.965262	55.381247	0.106019	0.103332	-0.866908	-2.812313	0.957646	15.337605	-132.356929	-182.457723	16.89594	0.179112	0.216822	-1.113854	11.687776	2.196566	-2.345604	78.395885	-15.282496	8.234874	-0.449042	-0.493496	0.214412
-1.573265	-3.390483	14.007021	-83.941514	178.20554	63.450558	0.104519	0.106518	-0.828095	1.50031	-3.50107	14.801491	213.573405	-235.673011	-3.793468	0.153455	0.217744	-1.127653	11.288523	1.445243	-1.697546	73.17045	-17.228898	14.253948	-0.491116	-0.508649	0.183983
-1.101826	-3.445362	14.697925	-92.943289	201.706209	75.568778	0.148366	0.119508	-0.885447	3.875988	4.485189	5.517092	176.587234	-216.710697	-26.940279	0.140184	0.216597	-1.113027	11.51839	1.268991	-2.053327	67.697097	-14.851711	25.022243	-0.476928	-0.493078	0.198744
-1.09762	-3.099747	14.926785	-103.248022	228.873133	85.910388	0.190014	0.076729	-0.823359	0.522961	4.833622	10.202568	100.017372	-200.091337	1.031001	0.114892	0.173701	-1.152514	11.035607	3.010869	-2.414155	71.00371	-10.378333	25.386311	-0.462536	-0.442644	0.165247
-0.250908	-0.849975	17.339615	-112.634759	258.323224	84.577089	0.189613	0.107799	-0.844267	4.744382	2.012134	13.628975	108.39253	-174.465318	8.783574	0.050308	0.174398	-1.165485	11.72938	3.528966	-3.117607	62.062778	-8.435997	11.929176	-0.462532	-0.461316	0.212668
-0.114829	-1.419889	18.419638	-120.423651	290.768568	79.36437	0.202962	0.134966	-0.851448	4.014716	3.136231	9.198736	105.907622	-152.271172	-1.356267	0.022805	0.153568	-1.092181	11.360573	3.70079	-3.902258	43.655974	-7.924089	6.369406	-0.476578	-0.478539	0.228962
-0.429529	-1.241044	19.891861	-111.842064	323.24372	72.418979	0.259059	0.147239	-0.85626	4.147479	1.502999	9.879454	70.09947	-127.763399	-8.170338	-0.002852	0.15449	-1.10598	10.063858	3.471704	-3.86755	31.983966	-5.912063	11.873225	-0.462883	-0.475856	0.182449
-1.846906	-2.098735	20.542641	-93.928861	355.037891	61.296855	0.301077	0.107988	-0.808248	1.682891	0.325025	10.222952	53.711003	-114.610738	-5.494142	-0.015313	0.141238	-1.1334	9.233655	3.763233	-4.06144	26.412958	-1.384603	12.8499	-0.448695	-0.460285	0.19721
-5.172479	-4.682648	20.126081	-86.189556	372.896728	51.264219	0.369037	0.133315	-0.763938	1.618635	0.662879	9.93883	49.488301	-108.307793	3.104453	-0.016644	0.10631	-1.073993	7.989489	3.474452	-4.38532	7.708201	1.688475	5.017189	-0.462883	-0.475856	0.182449
-9.505315	-8.077517	17.924768	-79.966478	388.728315	48.775305	0.353801	0.123105	-0.721361	2.719477	-0.52192	10.187362	58.431762	-91.137714	-10.744396	-0.015018	0.14231	-1.147749	7.27898	3.998509	-4.456207	0.265713	2.708413	1.432764	-0.490907	-0.492456	0.183146
-5.429655	-7.331307	18.575494	-40.631055	382.666692	66.222165	0.423661	0.114176	-0.694955	3.620343	0.545924	9.358011	54.099851	-82.511363	-15.378727	-0.04193	0.123624	-1.103145	6.626616	3.476321	-4.710165	5.162643	1.805197	1.724972	-0.434787	-0.460081	0.19728
-5.792519	-8.311907	17.541355	-32.311527	370.846422	72.719398	0.479029	0.102092	-0.654124	6.208857	-4.526763	11.55924	25.415792	-41.973171	-3.531038	-0.029765	0.135803	-1.061375	6.682081	4.056452	-4.826406	12.968481	-1.190901	1.313679	-0.476649	-0.477712	0.213434
-2.77398	-12.453996	16.616493	-36.044083	368.906357	85.297121	0.4768	0.080923	-0.569668	3.928735	-1.988872	10.098237	54.916367	-25.935257	7.133734	-0.09472	0.120108	-1.058993	7.694658	2.894119	-4.453202	5.263702	-2.750501	-1.37107	-0.462603	-0.460489	0.19714
2.087613	-11.654302	16.487105	-33.467712	366.798876	104.381335	0.550089	-4.8e-05	-0.564995	2.700158	0.097004	9.338289	54.361739	-24.171263	-1.111153	-0.068027	0.153043	-1.090251	8.830872	4.05703	-3.468838	0.949149	-1.562564	-8.298619	-0.462048	-0.411086	0.179101
3.868559	-10.792516	16.866362	-35.5572	364.18804	122.641172	0.545159	0.075179	-0.50445	3.251786	-2.26871	10.706528	45.547363	-13.315602	-4.185592	-0.094349	0.1365	-1.074346	9.250027	3.825017	-3.16259	-10.014969	1.972906	-16.771413	-0.476023	-0.429135	0.210923
5.887686	-11.824778	17.640081	-19.563263	362.073607	139.690679	0.574229	-0.022309	-0.42835	2.255434	-0.577531	10.007724	62.829652	-9.157335	-1.60245	-0.119931	0.152742	-1.089148	9.791886	3.477571	-2.615007	-21.034316	5.217468	-23.744755	-0.504602	-0.495139	0.229659
-1.944696	-19.921918	3.132338	88.077154	294.538647	254.163151	0.601698	0.004483	-0.43588	0.749217	0.607928	9.637451	55.918884	-8.516791	-0.430177	-0.107916	0.134281	-1.045371	10.56734	3.245242	-2.182342	-22.5797	6.4923	-26.281452	-0.462465	-0.443471	0.180775
16.005396	-3.924707	-0.201891	20.055712	99.788694	369.843345	0.586506	-0.057625	-0.340828	1.840758	0.493124	9.547046	43.713722	-4.164088	-0.458376	-0.108136	0.14853	-1.032025	10.385889	3.244658	-2.425271	-25.354952	6.669646	-26.638926	-0.476027	-0.410464	0.163503
24.443808	-0.479	1.227038	-38.532551	-102.591932	333.310742	0.615161	-0.106744	-0.303127	2.257337	0.3239	10.178402	42.017879	-3.854765	0.529835	-0.081599	0.090614	-1.071611	10.212547	3.071577	-2.249593	-27.298126	5.888123	-25.680909	-0.490281	-0.443879	0.180634
25.535468	3.120313	10.35631	-35.804708	-261.135455	254.412298	0.603284	-0.102499	-0.369742	1.904583	0.380592	9.831358	37.422676	-3.245168	1.549527	-0.094054	0.137572	-1.088696	10.212817	2.955425	-2.250088	-25.473461	4.890237	-23.207647	-0.435205	-0.492466	0.198954
20.314407	1.537999	15.476483	37.51361	-339.998856	159.164848	0.605213	-0.171354	-0.352662	1.626104	0.550502	10.278573	32.880589	-3.395388	1.636863	-0.094205	0.106931	-1.086689	9.677135	3.013727	-2.499372	-22.63143	4.082395	-21.013946	-0.448908	-0.457807	0.150626
16.695466	3.249099	11.946647	109.570328	-370.759993	78.717585	0.578859	-0.187562	-0.38736	1.669078	1.225839	9.657315	29.66002	-1.799604	-0.137893	-0.120232	0.091461	-1.085134	10.108686	3.133137	-1.472757	-20.735348	1.603601	-20.245039	-0.463442	-0.506588	0.153068
12.741166	0.723324	11.574933	140.861376	-380.207112	7.342962	0.508627	-0.182161	-0.39969	3.747993	0.32086	9.926636	25.373382	-1.215351	0.665998	-0.121777	0.130991	-1.002046	9.995595	2.902092	-1.236319	-19.792104	-0.169994	-19.96497	-0.476861	-0.475233	0.166851
9.937207	-2.274191	8.552577	146.515198	-370.105236	-42.227291	0.523848	-0.154651	-0.459759	1.562602	0.494042	9.994118	17.667917	-2.328125	1.141983	-0.120232	0.091461	-1.085134	10.057103	3.251155	-1.054015	-22.046228	-0.450872	-20.199931	-0.46393	-0.538147	0.139214
7.874174	-5.215528	5.374378	113.605854	-365.480391	-69.882536	0.511628	-0.188533	-0.477314	1.909334	1.056796	10.115125	16.096984	-1.952083	1.545225	-0.120156	0.106781	-1.086137	9.402558	3.193328	-1.365902	-19.034192	-0.512	-16.207393	-0.463229	-0.509067	0.199651
6.891081	-7.112807	4.778955	62.9092	-374.16214	-79.66487	0.457032	-0.203992	-0.511314	3.869253	-0.355132	10.155043	11.190924	-1.669037	0.310966	-0.146328	0.12088	-1.07224	9.2258	3.542436	-1.307813	-15.822007	0.982243	-11.703356	-0.491466	-0.523189	0.153764
6.577578	-7.048603	6.307548	15.05488	-392.388651	-80.037711	0.430663	-0.2029	-0.563503	1.896753	2.57734	9.663289	7.004769	-3.063177	-0.939388	-0.134759	0.070706	-1.012106	8.684325	3.250799	-1.918022	-14.577741	3.390885	-7.563125	-0.421856	-0.522994	0.169643
5.677287	-6.400119	10.043577	-12.043755	-410.414643	-76.140874	0.386715	-0.094795	-0.628594	1.668385	0.324456	9.543277	8.668522	-3.29438	0.138634	-0.146473	0.150449	-1.059897	8.930699	3.078256	-1.3752	-12.624976	6.020659	-3.854246	-0.463442	-0.506588	0.153068
5.150514	-5.010975	12.426064	-10.414617	-421.874596	-72.158895	0.347397	-0.151941	-0.652695	2.535277	0.435642	9.731424	8.268155	-3.293035	-0.848173	-0.133798	0.089242	-1.056158	9.156049	3.423947	-1.908476	-12.948817	9.564416	-0.569252	-0.463233	-0.490396	0.15223
3.812324	-3.853188	14.280318	7.271755	-422.143398	-71.078989	0.319485	-0.095766	-0.718548	2.253926	0.211096	10.008388	8.86062	-2.856069	-0.87418	-0.147069	0.088095	-1.041533	9.150972	3.713338	-2.146868	-14.625166	11.353435	0.37573	-0.449116	-0.473999	0.151464
2.450756	-4.25163	14.877289	24.048796	-415.015078	-71.072962	0.277495	-0.091114	-0.731576	1.908664	0.775096	10.058249	9.359511	-2.42491	-0.191274	-0.160856	0.100125	-0.999212	9.084773	3.014583	-2.63019	-15.155607	12.108762	-1.85703	-0.44953	-0.525055	0.200558
1.017376	-4.538284	14.734539	20.733956	-405.63077	-71.92356	0.249625	-0.086836	-0.744954	1.961479	0.098784	9.77569	12.416807	-2.477698	-0.250995	-0.160485	0.116517	-1.014565	8.669054	3.189262	-2.756965	-16.744677	11.88643	-4.57024	-0.477558	-0.522985	0.153834
0.380689	-4.252068	14.382379	5.044513	-392.310517	-77.460974	0.208378	-0.075127	-0.786134	2.48013	0.435845	9.843495	11.802852	-2.178884	-0.248517	-0.148024	0.129769	-0.987145	8.548551	3.305189	-2.878486	-16.246441	11.319902	-2.857871	-0.477208	-0.508445	0.184053
-0.179276	-4.708532	14.994698	-26.899755	-377.1313	-88.045743	0.166359	-0.035877	-0.834146	2.418422	1.337146	9.729765	8.683956	-2.125873	-0.342984	-0.160856	0.100125	-0.999212	8.728745	2.898746	-2.757101	-12.068753	10.777619	0.735975	-0.449463	-0.50721	0.168666
-0.599618	-4.470232	16.91976	-65.088467	-354.662868	-106.166527	0.055653	-0.046309	-0.880825	2.482332	0.548601	9.956869	5.528555	-2.503173	-0.349275	-0.147069	0.088095	-1.041533	8.332524	2.264317	-1.928827	-9.912821	8.895671	3.029398	-0.477488	-0.523811	0.169362
-0.565923	-4.865085	18.623664	-84.603102	-329.153776	-127.117217	0.040389	-0.021921	-0.873231	2.652502	0.604513	9.847264	4.539964	-2.487063	-0.041629	-0.134313	0.102419	-1.028463	8.040764	2.730589	-1.692724	-9.983162	7.048961	4.108197	-0.463371	-0.507414	0.168595
-1.980784	-6.124385	19.386461	-85.871322	-313.635027	-139.138433	-0.015379	0.021233	-0.93497	2.82071	1.054692	9.681351	2.436812	-2.726564	-0.323155	-0.173536	0.101122	-1.013286	8.219838	1.859043	-1.693131	-11.298923	6.776769	6.314881	-0.435413	-0.508659	0.199791
-3.454053	-7.326444	20.091533	-79.203718	-307.302927	-130.338042	-0.07339	0.060516	-0.929744	2.602945	0.210592	10.185561	6.038386	-3.693269	-0.237386	-0.173166	0.117514	-1.028639	7.339673	1.571678	-1.471246	-9.357762	7.783065	10.24592	-0.463442	-0.506588	0.153068
-4.614476	-9.224804	19.208503	-88.005811	-305.658232	-102.634892	-0.129129	0.069071	-0.9565	2.544386	0.097991	10.127617	4.957464	-3.705176	-0.515826	-0.160856	0.100125	-0.999212	7.283803	1.165775	-1.354264	-6.451109	9.209102	15.333108	-0.449254	-0.491018	0.167828
-4.58738	-9.735988	20.570806	-110.876017	-308.554393	-65.642612	-0.199746	0.088243	-0.972245	1.905923	0.943992	9.945112	3.818723	-3.468115	-1.470055	-0.173166	0.117514	-1.028639	6.807272	1.165866	-1.602695	-5.414402	10.483638	22.598338	-0.477208	-0.508445	0.184053
-7.36546	-6.925395	19.107855	-125.748047	-322.349412	-27.723574	-0.228359	0.085464	-0.957471	2.585936	0.885942	9.449815	3.4501	-3.375991	-2.209307	-0.147804	0.11552	-1.000491	6.568486	1.863071	-1.664037	-2.761234	12.173633	31.659804	-0.476932	-0.474407	0.151323
-12.788252	-0.930608	23.005773	-189.895592	-333.436988	19.878683	-0.285612	0.114504	-0.962906	2.711253	-0.01523	9.847951	6.315363	-3.981704	-2.490476	-0.185991	0.14808	-1.030371	6.682698	2.559219	-1.778683	1.925792	11.820467	37.850499	-0.47707	-0.491426	0.167688
-17.969271	6.183228	33.448608	-156.45049	-317.294575	64.624353	-0.284498	0.125089	-1.005134	2.314986	-0.352222	10.122402	7.92388	-3.778737	-2.271368	-0.172871	0.118586	-1.042989	7.151525	2.557397	-1.9496	3.933617	10.451156	34.884301	-0.477141	-0.4906	0.15216
-17.391864	10.882363	30.979108	-49.766443	-294.643108	89.054885	-0.398977	0.148571	-0.98102	2.36185	1.449962	9.785291	10.802025	-5.594318	-0.375768	-0.160856	0.100125	-0.999212	6.965673	2.555824	-2.432156	-1.662885	8.560149	23.541553	-0.477212	-0.489773	0.136632
-19.232022	10.91451	24.692104	-2.633726	-267.065742	88.784379	-0.39972	0.141515	-0.952868	4.280672	-0.355554	10.559982	11.19826	-5.846224	1.410078	-0.186217	0.102118	-1.02736	7.499945	1.683716	-2.366054	-2.729282	6.941768	16.981057	-0.463095	-0.473377	0.135866
-22.179415	8.785014	23.148207	16.074433	-235.320407	72.662394	-0.469966	0.164215	-0.982689	3.219779	-0.07291	9.405667	12.542264	-6.910744	2.695359	-0.173536	0.101122	-1.013286	7.733423	2.321765	-2.41884	-2.346292	5.583254	21.296179	-0.476653	-0.459041	0.166014
-26.203854	3.141716	19.068012	57.893009	-190.14617	53.287374	-0.485586	0.167776	-0.943528	2.672491	0.267289	10.753213	14.810893	-8.03189	5.059819	-0.16034	0.086948	-1.026907	8.447795	2.031001	-2.107336	0.029104	4.41288	28.813136	-0.518376	-0.459653	0.165803
-28.731038	-0.859616	9.681802	47.102344	-139.549465	40.619216	-0.542083	0.186573	-0.959623	2.319067	0.042282	10.349292	16.426517	-9.52706	7.080931	-0.173241	0.102193	-1.027635	9.034405	2.609916	-2.213673	0.477684	3.35429	27.807761	-0.47707	-0.491426	0.167688
-30.044182	0.176249	9.887947	-23.766321	-93.099155	31.888621	-0.529077	0.175614	-0.917745	2.42703	-0.634232	9.954664	18.300915	-10.213918	7.90798	-0.16078	0.115445	-1.000215	9.866113	2.144407	-1.960617	-8.13549	4.179003	19.031267	-0.476861	-0.475233	0.166851
-30.100615	5.486809	15.990088	-43.712893	-44.654061	11.022932	-0.585959	0.208183	-0.937255	3.951136	-1.934025	8.456945	7.907767	-11.502918	6.653659	-0.16019	0.117589	-1.028915	10.111116	2.087768	-1.477207	-17.386262	5.231614	11.662627	-0.462745	-0.458837	0.166084
-28.698387	6.640918	17.499818	-5.526053	12.210132	-19.199553	-0.572582	0.200751	-0.909453	1.943159	0.43844	11.643873	-1.283039	-12.988091	4.905104	-0.160711	0.070556	-1.011554	9.762251	2.205967	-1.183781	-18.039357	8.037842	12.201784	-0.518235	-0.461306	0.196859
-26.301515	4.212116	14.126378	23.416542	59.790233	-37.741436	-0.571453	0.194037	-0.934189	0.119854	3.259364	12.740351	-20.198382	-23.272666	7.500535	-0.199633	0.13054	-1.000392	9.647095	1.916351	-1.067404	-11.109236	9.883562	19.503892	-0.476724	-0.458215	0.150486
-23.192062	1.903249	12.074403	20.287285	90.075186	-40.644907	-0.557347	0.210962	-0.95203	3.047936	1.619855	12.290874	-14.213929	-40.522391	11.958159	-0.199714	0.05501	-1.009723	9.643794	1.915609	-1.247125	-6.483848	9.809282	25.326048	-0.448908	-0.457807	0.150626
-15.215842	47.986234	44.248822	-356.746287	291.157608	-13.376857	-0.556203	0.186948	-0.959274	2.738855	2.861291	14.097131	-1.209924	-53.749403	0.862192	-0.212684	0.115145	-0.999112	9.990903	2.552399	-1.537337	-7.171112	9.082025	30.345437	-0.476724	-0.458215	0.150486
14.900902	-24.602051	-13.608848	131.297331	240.531228	-12.200157	-0.541311	0.159031	-0.952792	2.659268	1.73384	12.962181	-13.316645	-65.368821	4.652142	-0.225365	0.116142	-1.013186	10.575677	2.026881	-1.887999	-7.493774	7.652196	35.397631	-0.491049	-0.490804	0.15209
9.563741	-6.174618	9.779141	27.705354	231.711046	-26.828964	-0.469594	0.167743	-0.996765	2.443082	1.960162	13.637211	-15.471425	-79.066259	7.658768	-0.199783	0.0999	-0.998384	11.732081	2.367445	-3.122552	-4.106296	5.653933	37.534924	-0.504472	-0.440778	0.118453
1.541418	0.034388	9.535608	11.351635	243.680362	-35.635861	-0.44211	0.177237	-0.986804	2.569439	2.411065	14.206404	-26.872976	-93.614426	10.032955	-0.252498	0.111704	-0.955236	13.105804	1.961269	-2.260276	-1.500322	2.517796	28.155186	-0.50461	-0.457797	0.134818
-0.958806	-0.017129	10.452876	34.457763	254.553095	-37.273929	-0.398234	0.155628	-1.009172	2.415499	1.454433	14.994925	-37.026153	-112.098324	11.228393	-0.252203	0.112776	-0.969586	12.870684	1.555277	-2.266408	-1.540348	0.910568	11.992644	-0.490773	-0.456766	0.11936
-3.17265	0.690474	14.334095	12.706022	213.86292	-40.542102	-0.344009	0.167558	-0.961096	2.94071	0.890395	15.288529	-41.18475	-133.302981	8.085623	-0.265769	0.110557	-0.94061	11.920539	2.195284	-2.520923	4.95971	1.845339	9.611095	-0.476724	-0.458215	0.150486
-2.103124	-0.176038	13.385129	54.813243	188.445092	-21.660438	-0.312768	0.160437	-1.039419	2.370669	1.117032	15.559828	-52.31098	-156.052753	1.993255	-0.278154	0.112626	-0.969034	12.619315	3.876633	-2.800083	14.37136	0.813176	18.018219	-0.476168	-0.408811	0.132447
0.102578	0.505854	12.066977	54.414887	162.868247	-11.769845	-0.299004	0.139235	-1.0082	2.057269	1.456942	17.082128	-62.797003	-181.724189	-2.462807	-0.279335	0.108339	-0.911635	13.272624	3.992288	-2.547856	16.074446	-2.740548	13.230042	-0.48945	-0.360438	0.129865
-1.136836	-0.592868	10.106004	50.707461	139.990431	-13.910113	-0.298633	0.142763	-1.022276	2.391065	-0.065197	16.408426	-62.889987	-211.320376	-6.856924	-0.318408	0.137682	-0.898466	12.98204	3.006166	-2.437747	6.265063	-4.458152	-7.448345	-0.462886	-0.457184	0.135028
0.032299	-1.507695	11.318328	33.787825	121.107231	-16.284752	-0.284884	0.13886	-1.008549	2.340598	-1.247841	16.63278	-67.805755	-236.399545	-12.535555	-0.345025	0.120068	-0.868211	11.513664	3.301652	-2.044674	-0.92914	-5.806688	-18.539588	-0.490005	-0.409841	0.147905
-1.124505	-0.705097	10.730905	33.767776	103.258983	-8.324636	-0.228016	0.123591	-1.00653	2.078935	-1.020937	17.872996	-56.297608	-264.729449	-15.736155	-0.370086	0.183344	-0.900374	10.516182	3.653887	-1.702457	-0.210802	-5.728449	-16.984078	-0.518101	-0.425616	0.133073
-1.365315	-1.339442	10.098413	21.247239	90.544901	-0.429428	-0.214295	0.154287	-1.027787	1.776386	-0.908306	17.187371	-43.962593	-291.379814	-21.262192	-0.422881	0.119618	-0.866557	9.822699	3.484493	-0.937614	2.321546	-5.571773	-16.474496	-0.504193	-0.425412	0.133144
-0.755192	-0.310051	9.148502	6.221151	83.71309	7.905584	-0.213166	0.147572	-1.052523	1.599871	-0.175781	17.071082	-35.18894	-313.837776	-27.180953	-0.437108	0.160145	-0.797543	8.705098	3.313572	-0.779543	-0.392814	-3.340778	-14.275057	-0.517963	-0.408597	0.116708
0.167933	-0.826241	9.505265	-3.381294	84.327156	12.144459	-0.18564	0.105168	-0.990086	3.29307	-0.856355	15.464232	-9.861356	-333.492138	-26.030086	-0.476406	0.143527	-0.781362	8.007038	2.271555	-0.377851	-2.15372	-0.508498	-7.772877	-0.50461	-0.457797	0.134818
-0.910496	-1.512822	9.936038	-6.568069	88.946175	12.65804	-0.198617	0.081529	-0.996981	5.91463	-2.834067	14.102192	9.985694	-342.193763	-28.689882	-0.489527	0.173021	-0.768744	7.299945	2.273422	-0.331149	-1.819275	3.517031	2.383919	-0.490352	-0.443053	0.165107
0.684668	-1.285905	9.570209	-2.921511	99.144194	11.678703	-0.171162	0.125621	-1.022003	8.270168	-3.57102	13.867942	23.771876	-341.745742	-32.805055	-0.569379	0.120178	-0.677981	6.53206	2.565558	-0.344219	-2.033985	8.088461	12.816019	-0.518518	-0.458001	0.134748
-8.879076	-0.967326	15.125398	15.157875	81.42124	23.972394	-0.15667	0.128775	-1.036428	12.015261	-5.324272	13.945051	39.830873	-338.084429	-44.654526	-0.583166	0.132208	-0.635659	7.07533	3.031918	0.386546	0.104973	12.33487	20.00179	-0.489868	-0.392823	0.13154
-2.792139	-5.174161	13.066508	68.889895	49.078381	-4.062208	-0.1269	0.090241	-1.040955	8.413549	-6.33053	14.944189	54.366103	-325.756607	-59.902114	-0.63581	0.099123	-0.60385	6.877549	3.89926	-0.631464	2.634162	14.953955	21.997617	-0.517754	-0.392405	0.115871
-2.007155	-1.628847	9.459574	84.084889	34.423668	-3.638804	-0.143292	0.121344	-1.008626	8.312095	-7.402504	12.789774	71.026229	-317.509996	-62.426942	-0.636181	0.082731	-0.588496	7.767058	3.9563	-0.375083	3.636029	15.918889	17.771035	-0.476794	-0.457389	0.134958
-0.643609	-0.885273	8.977757	57.980091	30.901332	0.88734	-0.157027	0.107947	-1.004861	12.332462	-7.408044	15.138773	53.856841	-305.603173	-65.774902	-0.599024	0.076525	-0.503225	8.760408	3.486924	-0.957422	-1.6715	16.277097	10.880547	-0.518585	-0.475846	0.16664
-1.131103	-0.821428	10.389304	52.13947	25.761285	-3.53427	-0.141392	0.087087	-1.02653	8.716084	-9.20593	12.68344	54.479716	-291.638121	-76.978925	-0.652404	0.070865	-0.430373	9.405164	3.019594	-1.246829	-6.737683	18.854533	5.415485	-0.475818	-0.394271	0.162665
-1.776242	-1.168998	9.579665	55.16022	21.143026	-6.991612	-0.128372	0.058828	-0.96716	7.282192	-10.048051	12.822424	54.479448	-260.810252	-85.210939	-0.691482	0.039999	-0.427539	10.055462	3.483211	-1.112933	-9.724982	19.889699	-1.058078	-0.490076	-0.409015	0.132377
-0.356679	-0.253382	9.042832	39.301999	16.644483	-4.350869	-0.155498	0.070162	-1.008689	-13.607455	-14.184538	4.227605	41.685108	-223.262119	-118.660012	-0.719136	-0.011471	-0.352228	9.890228	3.137633	-0.518649	-9.313359	18.435485	-8.204078	-0.503846	-0.392201	0.115942
-1.093151	-0.308596	9.426087	34.108929	13.84591	-3.614687	-0.156241	0.063106	-0.980537	-8.136507	-16.964556	-6.58648	-21.320087	-94.447486	-176.110799	-0.693775	-0.013465	-0.32408	10.293572	3.076386	-1.050355	-10.911622	14.935748	-13.46851	-0.504055	-0.408393	0.116779
