1757_acc_x	1757_acc_y	1757_acc_z	1757_gyro_x	1757_gyro_y	1757_gyro_z	1757_mag_x	1757_mag_y	1757_mag_z	1758_acc_x	1758_acc_y	1758_acc_z	1758_gyro_x	1758_gyro_y	1758_gyro_z	1758_mag_x	1758_mag_y	1758_mag_z	1759_acc_x	1759_acc_y	1759_acc_z	1759_gyro_x	1759_gyro_y	1759_gyro_z	1759_mag_x	1759_mag_y	1759_mag_z
-0.462612	0.208163	9.49736	-2.59787	7.391832	0.311619	0.333448	0.094153	-0.911307	8.733216	0.310582	8.955658	-4.232993	56.015621	-23.234788	0.219916	-0.22756	-1.285469	8.360811	4.304394	-0.122967	11.126424	-8.077648	7.068669	-0.414646	-0.947593	-0.040603
-0.680867	0.727715	10.063609	-5.41343	8.024017	0.329998	0.040249	0.469934	-0.982474	8.260257	-0.139721	8.322572	0.222841	48.585136	-31.44328	0.207236	-0.226563	-1.299543	8.647358	4.185589	-0.597215	11.554925	-8.287375	6.793037	-0.302496	-0.788661	-0.264964
-1.549622	0.611282	9.534746	-7.277804	8.469646	0.925296	0.012751	0.47774	-1.009927	8.035632	0.705952	8.658285	1.948154	40.571896	-35.559798	0.193154	-0.215605	-1.242872	8.529576	3.604852	-0.661795	12.640162	-8.543327	8.257434	-0.273846	-0.723482	-0.268172
0.11072	-0.883641	9.50391	-8.402043	9.249794	2.137249	-0.044889	0.520551	-1.018778	7.688145	0.537513	8.53761	7.148764	31.690905	-36.229627	0.180178	-0.21568	-1.242596	8.063529	4.304575	-0.248283	13.826489	-7.945952	10.053628	-0.287683	-0.724513	-0.252715
-0.519452	-0.366211	9.493833	-11.675439	10.844297	1.129886	0.0269	0.442766	-0.975293	7.405692	0.256589	8.757887	13.25452	23.843142	-33.805856	0.205985	-0.185961	-1.230805	8.476082	4.071079	-0.301476	14.247874	-7.176329	12.677075	-0.260075	-0.740297	-0.251737
-0.699175	-0.138009	9.093487	-13.325196	11.540938	1.360631	-0.000255	0.488699	-1.051806	7.909275	0.255049	8.089092	19.196477	15.458514	-29.35301	0.2065	-0.199137	-1.258501	8.532782	4.593381	-0.358057	13.844847	-5.742111	15.820024	-0.274054	-0.739675	-0.267335
-1.599947	0.268122	9.873303	-15.157498	12.451831	1.595383	0.010479	0.508468	-0.977947	8.953544	-0.816933	8.393149	23.470116	4.658092	-24.493911	0.193525	-0.199213	-1.258225	8.642126	4.068201	-0.897244	13.901402	-4.486913	18.687135	-0.2881	-0.756898	-0.25104
-1.365238	0.096838	10.161299	-17.94168	13.269223	1.555346	-0.000984	0.464343	-1.006162	9.694426	-0.705958	8.069123	26.151134	-7.626745	-20.914699	0.179883	-0.216752	-1.228246	8.761839	4.765585	-0.712355	12.785289	-3.078877	21.160444	-0.287891	-0.740705	-0.251878
-1.489851	0.209633	9.647877	-21.296144	14.893791	3.278116	0.011593	0.519053	-1.020175	10.430664	-1.327516	7.461281	25.475661	-19.241185	-18.657049	0.154747	-0.168797	-1.259405	8.810526	4.472598	-1.31156	11.937361	-1.807331	22.135627	-0.302079	-0.756276	-0.266638
-0.50781	0.752764	15.977444	-29.452191	18.21675	5.04229	0.039463	0.514775	-1.006797	11.292075	-0.878536	7.423155	25.086494	-30.494794	-19.570742	0.193305	-0.184964	-1.244879	9.393835	5.050772	-1.597618	9.901645	-1.192463	21.131316	-0.28747	-0.726992	-0.206131
-1.473475	-0.878379	10.439235	-25.94447	38.459284	-0.71096	0.0261	0.504907	-1.017108	12.093717	-0.542204	7.270445	30.45402	-41.103398	-23.648536	0.218371	-0.18803	-1.202381	9.68631	5.22383	-1.711188	7.489775	-0.443012	18.813325	-0.302287	-0.772468	-0.265801
-1.172111	-0.18591	11.243641	-30.080392	47.112374	1.465677	0.026485	0.491136	-1.013692	11.495418	-0.711019	6.182061	37.761326	-49.955508	-30.019243	0.180769	-0.213536	-1.271296	9.867895	5.166338	-1.468506	6.383414	-0.457321	13.896134	-0.287753	-0.723687	-0.268242
-1.158873	-0.010691	11.926602	-36.825885	54.543602	4.611287	0.056998	0.459659	-1.046371	8.867092	0.137366	4.429184	36.702889	-53.609516	-36.159973	0.206871	-0.182745	-1.273854	9.632506	4.876498	-1.474144	4.991727	-1.35814	8.831575	-0.28845	-0.771438	-0.281259
-1.656104	1.200056	12.888151	-33.214321	61.096019	8.172749	0.05284	0.507344	-0.978995	7.085591	1.718199	4.676233	32.394275	-52.636037	-38.619827	0.180913	-0.243105	-1.283638	9.463295	4.820557	-1.058344	2.376064	-2.933184	6.433951	-0.259867	-0.724105	-0.252574
-0.989088	-0.355947	11.814789	-25.707271	72.138681	12.961212	0.052855	0.490045	-0.961503	-7.434552	70.027269	15.30145	-290.409852	-172.773575	-76.661774	0.179958	-0.201431	-1.22925	10.177012	5.285029	-0.68372	3.219086	-4.971643	5.676518	-0.273704	-0.725135	-0.237117
-1.552393	-0.813135	12.256548	-27.25249	82.071043	17.082923	0.054012	0.448732	-0.951255	-2.438121	-9.524866	10.35417	-85.938527	-180.881282	-73.248993	0.167648	-0.184042	-1.258677	10.696363	6.094653	-1.209516	12.926768	-7.352148	2.596333	-0.274263	-0.755867	-0.266498
-1.018511	1.201289	13.298371	-38.357858	92.103297	22.00027	0.108551	0.533388	-0.987223	3.96756	-7.505788	14.113792	263.524052	-225.396125	-93.259778	0.141985	-0.24333	-1.282811	12.284431	6.031695	-1.479586	12.781473	-11.564228	4.664735	-0.30152	-0.725543	-0.237257
-1.591009	-0.406901	13.223626	-41.620392	109.260805	22.196587	0.122671	0.533013	-0.987572	5.013817	4.430902	10.296531	187.827764	-192.18791	-107.631399	0.102392	-0.261019	-1.252281	12.581558	5.624735	-1.415908	4.049689	-9.842763	6.735949	-0.288033	-0.739053	-0.282933
-1.30049	-0.118936	13.457813	-47.652296	127.877943	25.184342	0.122686	0.515714	-0.970081	7.084139	2.962238	10.11226	154.489694	-115.785535	-43.033149	0.049892	-0.323673	-1.232813	12.34733	6.729708	-1.175985	0.344055	-2.086905	-11.044372	-0.316054	-0.774325	-0.234816
-1.644052	-1.612408	13.388005	-54.648228	145.688398	33.772913	0.107436	0.522803	-0.944995	1.861547	1.000952	10.566986	131.829452	-81.248317	-10.587036	0.075919	-0.308203	-1.234368	11.209577	8.123132	-1.909842	1.203171	-0.681982	-19.427394	-0.329544	-0.742144	-0.23656
-0.877563	0.057924	14.603393	-65.796934	163.579658	38.848367	0.166176	0.507876	-0.995864	1.871152	2.689005	8.473952	108.29109	-70.663041	9.105862	0.049446	-0.355386	-1.216456	11.252201	7.596357	-2.869477	1.608652	-0.123799	-8.18563	-0.287958	-0.75855	-0.219985
-0.567659	-0.281866	15.801427	-72.271042	189.116811	43.176083	0.163918	0.521305	-0.946392	1.873354	2.801761	8.587326	60.450825	-66.888835	5.097162	0.049446	-0.355386	-1.216456	11.37446	6.725441	-2.751171	4.97348	2.392301	-16.674896	-0.329682	-0.759163	-0.220195
-1.098739	-1.548826	14.933301	-82.93644	214.82239	49.664652	0.20518	0.492297	-0.88772	2.636811	1.22358	9.16811	29.066463	-66.333017	-9.565849	0.048925	-0.402419	-1.199096	10.669702	6.669727	-2.584903	3.161941	3.109686	-27.519663	-0.28838	-0.772264	-0.265731
-1.311795	-2.062256	15.722618	-85.499496	241.385424	56.726146	0.260919	0.483742	-0.860965	2.411038	0.773509	9.332814	10.844539	-62.182746	-18.263367	0.062272	-0.385952	-1.214725	9.498433	6.093398	-2.190036	4.199346	1.706006	-27.486166	-0.329965	-0.755858	-0.282307
-1.076718	-1.199352	16.07181	-92.960509	263.766011	64.837072	0.245655	0.50813	-0.853371	3.169036	0.152804	9.744485	2.774905	-55.248763	-15.45733	0.061461	-0.373847	-1.172679	8.622109	5.574469	-1.789419	5.741102	1.059394	-26.541419	-0.288167	-0.774743	-0.219148
-0.348549	-1.076039	18.189219	-75.736162	289.565992	60.179492	0.343727	0.53305	-0.862648	2.370758	-1.310091	9.952886	6.372057	-49.054392	-12.957512	0.010218	-0.416893	-1.211615	7.404893	5.059318	-0.676522	6.708197	1.507177	-25.141455	-0.28782	-0.741532	-0.23635
-1.347992	-1.011097	19.761304	-65.33403	312.777442	56.081831	0.342598	0.539764	-0.837911	2.317142	-1.478832	10.121454	15.224723	-45.22571	-13.744666	0.049371	-0.370706	-1.215453	6.477681	4.832883	0.203485	3.385474	2.385056	-19.48049	-0.288588	-0.788456	-0.264894
-2.833842	-1.756277	19.842923	-36.852243	337.555586	40.123027	0.344156	0.467381	-0.806756	5.186342	-3.06195	9.614175	17.52012	-39.843109	-16.340449	0.073917	-0.420805	-1.155594	5.119365	5.242521	0.179906	2.525429	5.176819	-11.698135	-0.288033	-0.739053	-0.282933
-7.193335	-4.340167	19.235761	-32.240829	357.64744	26.88418	0.41213	0.475409	-0.744954	3.715397	-1.987777	10.886356	38.078539	-17.937043	-5.994735	0.048781	-0.37285	-1.186753	4.586599	5.940648	0.172968	3.998055	7.562655	-5.266524	-0.302004	-0.775773	-0.20369
-5.221157	-4.221145	20.581723	-25.467413	363.755483	32.330019	0.452991	0.477471	-0.70719	2.373499	-1.478987	10.066023	56.479789	-13.32977	-4.238591	0.022684	-0.343431	-1.173859	4.638182	5.822631	-0.245774	5.734564	9.074988	-0.053889	-0.260355	-0.755663	-0.266428
-3.460927	-3.064148	22.837225	-9.327745	368.880769	36.230343	0.465625	0.462983	-0.651235	2.29094	0.210182	9.046724	54.901703	-16.217032	-6.580649	0.0476	-0.377138	-1.129354	4.086689	6.0517	-1.333013	7.099868	10.091498	5.651701	-0.260493	-0.772682	-0.250063
-2.096494	-4.458498	19.391232	2.141718	372.763736	39.510585	0.478231	0.483094	-0.630264	2.54283	-0.352748	10.013959	45.529234	-14.870587	-5.588318	0.048705	-0.388171	-1.18575	4.853629	6.166096	-1.318213	10.529916	9.406526	7.996018	-0.288383	-0.753593	-0.313152
0.976114	-5.728792	18.422696	9.725053	377.234224	43.516686	0.534385	0.426169	-0.56511	2.823512	-0.409902	9.680118	51.904794	-13.435361	-1.653778	0.034919	-0.376141	-1.143428	5.789894	5.813502	-1.781344	9.690098	7.647549	9.199488	-0.274192	-0.756694	-0.25097
3.622657	-5.912715	16.200182	7.705012	380.128785	47.248751	0.561525	0.397536	-0.506089	2.931413	0.209281	9.39986	43.708211	-11.86199	-0.257468	0.05991	-0.394527	-1.099927	6.078257	6.334275	-2.073152	9.27162	5.475117	9.119677	-0.287612	-0.725339	-0.237187
4.181679	-7.237421	15.466677	-9.930178	376.425895	49.937236	0.546305	0.370026	-0.44602	3.168366	-0.128896	9.687609	36.002904	-10.525483	0.797776	0.0476	-0.377138	-1.129354	6.956742	5.923987	-2.477724	8.404063	4.01733	4.850734	-0.302284	-0.791139	-0.218381
8.987556	-6.392348	12.494876	-34.207514	373.444784	62.037688	0.601315	0.337115	-0.373621	1.898516	-0.239328	9.490999	34.233318	-8.801222	0.967637	0.060801	-0.331101	-1.132641	7.721616	5.979813	-2.582985	6.231478	2.822314	-1.615108	-0.246935	-0.787018	-0.280211
11.267579	-9.216063	-2.703228	-93.204418	275.692141	123.084032	0.61545	0.319442	-0.356478	2.298517	0.041475	9.386419	29.828496	-7.818642	1.590425	0.021497	-0.407929	-1.126796	7.902391	6.270777	-2.33882	4.067327	2.48067	-7.77911	-0.274263	-0.755867	-0.266498
23.205625	0.987707	8.199277	-118.299114	34.048776	82.051624	0.614364	0.274258	-0.279267	2.428908	-0.352485	10.06818	27.447468	-7.947466	2.60456	0.021353	-0.37836	-1.114453	8.383053	6.387827	-1.850266	2.149901	3.323052	-10.037678	-0.274121	-0.75752	-0.235442
17.417182	1.787291	19.512969	-34.922083	-116.730732	31.444905	0.641076	0.311294	-0.276137	2.64829	-0.353343	9.56326	23.633241	-6.680038	3.01486	0.008157	-0.364186	-1.100831	7.670302	5.981679	-2.164737	0.099907	4.341187	-8.629325	-0.259934	-0.74195	-0.220681
12.257997	-1.210214	16.046988	77.98424	-159.777399	3.742476	0.669689	0.314073	-0.290911	2.878229	-0.184782	9.568237	21.618683	-7.112229	4.242075	0.033964	-0.334467	-1.08904	8.205465	6.620536	-1.852579	-1.457513	5.455711	-7.49825	-0.273704	-0.725135	-0.237117
9.534381	-3.435801	5.471003	96.481801	-169.148002	2.279652	0.671546	0.331714	-0.361291	2.135168	0.21117	9.836052	18.511409	-6.140238	4.310896	0.034624	-0.377213	-1.129079	8.691339	6.390118	-1.125882	-3.208876	5.903519	-7.035628	-0.260493	-0.772682	-0.250063
9.710615	-4.366612	2.742648	38.801409	-188.715461	11.634634	0.629942	0.322595	-0.370904	2.589863	0.097409	9.56243	18.025949	-5.441997	4.440762	-0.031582	-0.352306	-1.057958	8.821767	6.741271	-0.403315	-3.502853	6.185618	-4.835487	-0.259934	-0.74195	-0.220681
10.834572	-3.497815	4.643576	-20.817295	-223.513215	17.588922	0.630685	0.329652	-0.399056	2.608211	-0.01454	10.411929	17.289613	-4.966789	5.369746	-0.00578	-0.382797	-1.056503	8.474117	6.336785	-0.112113	-1.754779	7.67249	-3.076322	-0.261052	-0.803414	-0.279444
11.584053	-0.497359	7.966965	-36.191635	-261.267452	11.653809	0.632185	0.326466	-0.437868	2.197785	0.09859	10.063724	18.007067	-4.406192	5.437555	-0.01772	-0.349016	-1.101283	8.414541	6.104369	-0.17411	1.349603	8.947595	-1.076534	-0.28775	-0.742358	-0.220822
11.794332	0.142817	9.962818	-14.319607	-296.861427	-4.47393	0.619208	0.302827	-0.444763	2.371582	0.154645	10.124038	19.15182	-4.239366	5.594277	-0.044557	-0.352382	-1.057683	7.8827	5.931109	-0.244662	3.873946	10.737503	1.228563	-0.260426	-0.754837	-0.281956
10.794325	0.08029	8.579173	9.582657	-324.546653	-22.842356	0.563826	0.332209	-0.503085	2.703569	0.209807	9.508303	20.542653	-4.07484	6.583543	0.006831	-0.338905	-1.03109	7.696983	5.87146	-0.727466	6.655308	12.322385	5.703793	-0.316821	-0.82125	-0.26336
8.712387	-1.990938	7.393338	-0.867418	-339.604175	-37.28919	0.550434	0.35694	-0.54838	2.949761	0.097332	10.249359	19.709359	-3.995439	6.891947	-0.057244	-0.411595	-1.082092	8.060019	5.814552	-0.241855	9.992138	13.535869	10.790254	-0.301866	-0.758754	-0.220055
7.470937	-2.445699	8.276561	-30.397372	-344.29034	-48.660983	0.524408	0.396158	-0.649629	2.765192	-0.01548	9.679241	18.285612	-4.142171	7.814199	-0.031142	-0.380804	-1.084651	8.467785	6.21915	-0.472049	13.527623	14.03768	13.77051	-0.260843	-0.787222	-0.280282
6.429745	-2.262454	10.643958	-47.592508	-346.675926	-59.724932	0.50993	0.375705	-0.617712	2.359301	0.886515	9.614898	16.697651	-5.057507	8.728677	-0.019572	-0.430977	-1.024517	8.465564	5.7538	-0.653748	16.557839	13.597877	15.931856	-0.28873	-0.786804	-0.29595
5.706594	-2.257332	11.709691	-48.066604	-345.764091	-72.440994	0.482789	0.404338	-0.676733	2.364437	0.09803	9.784153	12.498829	-4.868508	9.189608	-0.05901	-0.357816	-0.985658	7.86961	5.405211	-1.025677	18.110959	12.867653	19.047566	-0.329965	-0.755858	-0.282307
3.755122	-3.291076	11.383224	-60.879031	-337.43143	-85.063369	0.412158	0.44081	-0.709971	2.707304	0.153619	9.678174	9.336466	-5.654535	10.720683	-0.031807	-0.398268	-1.054948	8.396529	6.274641	-1.131878	17.934607	11.981101	21.895249	-0.288588	-0.788456	-0.264894
2.251482	-3.165907	13.51406	-82.146086	-328.506995	-96.363944	0.370911	0.452519	-0.751151	2.589432	0.322731	9.56262	4.606403	-5.961244	10.929628	-0.019566	-0.370768	-1.014181	7.63451	5.464074	-0.969924	17.857442	11.578991	25.259998	-0.274192	-0.756694	-0.25097
1.508153	-3.612314	16.452901	-81.757888	-327.069482	-108.953989	0.329292	0.460699	-0.778255	2.418183	0.830124	9.672699	2.859016	-7.218898	12.303013	-0.044413	-0.381951	-1.070025	7.733835	5.459601	-1.986141	16.655397	11.390716	31.226359	-0.260213	-0.757316	-0.235372
0.791066	-4.295283	17.800004	-66.358562	-328.219303	-120.648143	0.273953	0.438183	-0.784103	2.834092	0.3792	10.247178	-2.39976	-7.693053	13.650539	-0.070735	-0.398493	-1.05412	7.974416	4.937118	-1.804243	15.732686	11.945203	36.454721	-0.302217	-0.773294	-0.250274
-0.664719	-5.033949	19.416656	-59.394877	-328.552964	-134.484732	0.245284	0.504602	-0.839296	1.912806	-0.126098	10.170769	-6.342361	-9.044313	15.699473	-0.057759	-0.398418	-1.054396	7.252437	4.238365	-2.659112	12.993078	12.70603	41.811191	-0.260635	-0.771029	-0.281119
-0.460209	-5.658934	21.066082	-51.556063	-325.834011	-156.593999	0.187272	0.543885	-0.83407	2.764114	0.547825	9.679715	-10.540222	-11.127881	16.692738	-0.058645	-0.401634	-1.011347	7.966828	4.412456	-2.285724	11.293372	13.673097	45.328688	-0.274397	-0.791557	-0.202713
-1.410477	-6.744794	22.179629	-37.636744	-319.989662	-188.558861	0.132305	0.524898	-0.853994	2.597894	0.323063	9.959097	-15.253326	-12.392538	18.063684	-0.07088	-0.368924	-1.041778	7.891035	4.525035	-3.184933	9.177548	14.450435	46.341587	-0.301378	-0.727196	-0.206201
-4.336382	-9.329238	21.714011	-26.173448	-315.52822	-219.00982	0.062088	0.512999	-0.848832	2.707627	-0.015373	9.678032	-18.044082	-13.224965	18.022332	-0.070729	-0.338283	-1.043785	7.24709	4.643908	-2.897009	6.903428	15.235103	46.590674	-0.301732	-0.723064	-0.28384
-10.237617	-13.002675	21.242759	-26.623881	-319.641817	-225.524221	0.032689	0.555062	-0.858381	2.832213	0.097452	10.133662	-20.023237	-15.968612	16.390343	-0.084151	-0.370071	-1.027152	7.194791	4.122595	-2.6008	4.069499	15.747491	46.353901	-0.301453	-0.707698	-0.26915
-19.81699	-13.816382	17.188531	-28.898325	-325.851805	-186.407318	-0.023793	0.55656	-0.856984	3.126277	-0.635194	10.365648	-16.96796	-26.012025	15.337242	-0.096316	-0.382251	-1.068922	7.724876	5.050844	-2.527033	1.722331	15.808445	45.567187	-0.357289	-0.743378	-0.221173
-30.67628	-9.068544	23.987459	-58.023997	-332.387682	-99.810497	-0.093309	0.603616	-0.932449	3.197809	-0.35308	11.046769	-24.783782	-30.98054	14.295028	-0.083856	-0.368999	-1.041502	7.42908	4.412188	-2.655069	3.232696	15.349004	46.144816	-0.315428	-0.725747	-0.237327
-32.9901	-5.624978	22.877189	-1.276252	-330.670848	-0.245335	-0.121522	0.569767	-0.896767	3.185341	0.719157	13.255406	-11.092783	-40.880398	7.08618	-0.110103	-0.370221	-1.026601	7.428115	4.353865	-2.715223	-0.922243	14.605507	48.5788	-0.287683	-0.724513	-0.252715
-32.589231	-3.569477	20.05213	34.36958	-328.402318	74.624593	-0.191725	0.540569	-0.874114	3.164074	-0.802715	12.121334	-1.764266	-48.671343	1.83707	-0.122859	-0.384544	-1.039671	7.965147	3.714802	-2.468411	-0.076261	12.56454	53.966751	-0.315845	-0.758132	-0.235653
-33.318675	-5.014427	17.815464	52.38373	-310.961425	123.343548	-0.190624	0.568454	-0.933833	2.768955	0.156038	12.566794	-4.446793	-58.199773	-0.294463	-0.123368	-0.311158	-1.00164	8.082234	4.121064	-2.46448	-1.250476	10.422712	56.580224	-0.315428	-0.725747	-0.237327
-31.873878	-6.933312	12.607081	82.057422	-282.558852	159.876261	-0.246363	0.577009	-0.960589	3.118297	-0.013458	12.743824	-4.8955	-69.358923	-2.101284	-0.083705	-0.338358	-1.043509	8.196405	3.887501	-2.702895	-4.190977	8.477681	57.303431	-0.315428	-0.725747	-0.237327
-31.582478	-7.232107	9.94046	92.429553	-245.195101	182.143023	-0.273833	0.550216	-0.953059	2.998139	0.718912	12.572104	-6.767474	-80.605064	-2.861953	-0.137016	-0.388907	-0.981997	8.730851	3.887028	-2.513271	-6.041623	7.571912	58.476388	-0.301453	-0.707698	-0.26915
-28.559222	-4.019508	9.558164	69.535325	-197.411473	180.25746	-0.302831	0.561208	-0.9417	2.828961	0.775708	12.738444	-9.941391	-92.206137	-3.596361	-0.148811	-0.384695	-1.03912	8.558745	3.656118	-2.277933	-12.286147	7.428941	61.282252	-0.328709	-0.677374	-0.239909
-24.619834	1.560359	12.215677	51.6755	-144.596533	142.868007	-0.274176	0.512089	-0.903999	2.48765	1.170858	12.95808	-18.472694	-104.885625	-4.777375	-0.161856	-0.33988	-1.027505	9.265838	3.65425	-2.324635	-16.585111	6.976646	65.091701	-0.301523	-0.706872	-0.284678
-21.518742	4.03052	12.854713	60.496049	-86.659577	73.231344	-0.331072	0.561957	-0.941002	3.005715	0.550205	12.911799	-24.370934	-119.318416	-5.01802	-0.161931	-0.355201	-1.026502	8.910641	3.654813	-2.391144	-20.537238	6.852612	69.815838	-0.356454	-0.678608	-0.224521
-20.610693	1.890003	9.453528	58.783916	-25.960804	-6.908871	-0.343664	0.524546	-0.944481	3.183247	0.550071	13.141985	-34.135528	-134.337989	-7.70298	-0.20189	-0.329072	-0.970283	8.977299	2.261842	-2.15635	-24.059817	7.355186	73.251205	-0.398107	-0.680047	-0.209204
-28.726303	29.537514	25.779365	5.545215	201.594841	-126.143285	-0.34445	0.569388	-0.968804	2.965182	0.494646	13.703497	-45.977921	-149.995623	-10.919989	-0.21398	-0.325932	-1.013056	8.912801	2.725597	-2.3951	-27.213189	7.736414	76.716489	-0.397973	-0.644357	-0.27299
-15.696107	2.146785	3.242029	137.13308	249.535035	-183.727512	-0.273819	0.532916	-0.935567	3.140619	0.325426	13.820261	-54.699486	-167.894841	-12.831145	-0.227697	-0.358791	-0.982074	8.676041	2.551661	-2.46015	-26.431614	7.128643	79.560682	-0.32878	-0.676548	-0.255437
5.936794	-6.348674	8.684912	2.950552	246.194742	-171.452579	-0.272661	0.491603	-0.925319	2.919119	-0.462486	14.154599	-61.638242	-189.221305	-17.919244	-0.240522	-0.328226	-0.983805	9.212554	2.609758	-2.150465	-27.393623	6.733516	78.984993	-0.383927	-0.627134	-0.289284
7.710001	2.152353	8.982557	44.460155	218.475394	-214.977754	-0.257412	0.484514	-0.950405	2.848585	-1.023868	16.190733	-67.039771	-213.713608	-24.578798	-0.292872	-0.360239	-0.966345	9.575339	3.133858	-1.602475	-30.795906	5.407184	78.881329	-0.36946	-0.596198	-0.259833
0.143052	6.509588	5.614403	67.921012	239.610893	-219.645102	-0.285681	0.519862	-0.98469	3.680379	-2.5454	17.28253	-62.106243	-244.195416	-30.210464	-0.293312	-0.331741	-0.939653	10.223437	3.596981	-1.588392	-27.759969	3.83102	72.608667	-0.38288	-0.564843	-0.246049
-9.075618	8.679116	14.252948	20.653462	224.981532	-186.401231	-0.228428	0.490822	-0.979255	3.167941	-4.234251	17.383506	-59.700263	-275.226598	-46.854218	-0.320074	-0.319787	-0.897056	9.885381	2.381161	-0.881304	-32.388352	6.274844	68.363137	-0.383443	-0.576904	-0.322851
-8.501368	4.772436	14.190821	49.386522	187.771687	-121.553391	-0.214336	0.525046	-1.014588	3.163696	-3.668704	19.931553	-56.197653	-307.450558	-63.045953	-0.410535	-0.30392	-0.910479	9.125354	3.081806	-0.413388	-43.572927	10.386972	69.148529	-0.369531	-0.595371	-0.27536
-4.022109	5.334168	12.063929	76.313208	159.549695	-54.155652	-0.185294	0.462156	-0.973471	3.21973	-3.499867	19.876265	-26.060748	-341.055308	-70.937867	-0.398445	-0.30706	-0.867706	8.470735	4.476622	-0.539373	-50.544969	12.576153	65.065722	-0.369953	-0.609085	-0.321107
-0.015738	4.239395	12.023582	38.590871	148.810864	-8.395204	-0.156682	0.464935	-0.988245	5.140655	-1.981552	21.050231	2.687671	-366.023256	-68.696549	-0.45153	-0.311648	-0.809204	8.422203	5.176389	0.121469	-51.467395	12.378643	60.177498	-0.396721	-0.547202	-0.278012
0.941233	-0.877949	10.997679	22.169933	140.585666	-2.225228	-0.185309	0.479455	-0.990963	9.65151	-4.864583	19.160931	59.749124	-380.821882	-58.409695	-0.45153	-0.311648	-0.809204	8.318052	4.889245	0.836915	-47.03134	11.962316	54.628989	-0.369393	-0.578353	-0.291725
0.664941	-0.818129	11.504031	33.697092	139.988125	-15.241347	-0.155939	0.471992	-1.016397	15.30126	-7.581252	16.729554	54.677823	-391.462191	-62.557313	-0.530792	-0.362347	-0.74714	8.095442	4.311745	1.489017	-43.018124	10.254881	52.512855	-0.369256	-0.561334	-0.30809
-1.780287	-0.193216	9.413208	48.930414	142.828928	-18.428798	-0.113934	0.45004	-0.985877	8.602111	-8.693924	18.173072	74.944953	-383.729314	-91.838941	-0.55859	-0.384249	-0.659486	8.033644	3.613979	1.245322	-38.600703	5.841166	54.902848	-0.396512	-0.53101	-0.278849
-1.456918	1.780378	14.315232	37.307613	148.017133	1.470861	-0.07193	0.428089	-0.955357	9.336527	-10.50095	14.676824	92.237806	-379.927018	-103.90038	-0.637181	-0.357274	-0.61679	7.680513	3.673112	1.298873	-36.002233	-0.472676	59.999346	-0.397004	-0.543897	-0.340123
-3.456839	-5.283722	14.189725	21.198827	71.56119	9.903564	-0.071544	0.414318	-0.951941	11.466948	-8.87121	14.892848	50.195576	-366.04593	-99.728038	-0.638518	-0.452412	-0.567719	7.251474	4.367755	0.515347	-32.848873	-6.535794	64.7259	-0.410491	-0.530388	-0.294447
-2.437964	-0.14135	7.979873	131.953826	39.788419	-12.675626	-0.100571	0.459908	-0.975566	8.627609	-10.500368	13.812723	27.37757	-346.980529	-108.742118	-0.601142	-0.472867	-0.495794	8.329306	4.31071	1.373605	-26.260329	-11.341677	64.419186	-0.424049	-0.516052	-0.264299
-0.919575	0.266177	9.545547	59.487395	28.100259	-0.818597	-0.085307	0.43552	-0.98316	5.416316	-12.294193	16.857476	6.269539	-297.870082	-119.675607	-0.654007	-0.491703	-0.450638	9.678144	4.189475	0.919165	-16.081903	-15.383764	65.441281	-0.452215	-0.531	-0.294658
-2.153557	-1.278525	10.765302	58.071718	20.402776	-5.570581	-0.041445	0.43121	-1.023019	-37.21028	-22.313658	-2.446223	19.919331	-214.990534	-167.721315	-0.669124	-0.514602	-0.34891	10.386972	2.967763	0.807365	-15.481776	-17.147453	70.584885	-0.424399	-0.530592	-0.294517
-0.241394	1.757471	9.167211	75.891774	14.088574	-13.330609	-0.055537	0.396986	-0.987686	-16.690257	-11.147462	-7.836666	-83.7781	42.136844	-259.266704	-0.655633	-0.527703	-0.376882	11.144278	2.963783	0.282508	-12.898987	-17.838786	70.303606	-0.438098	-0.514603	-0.295425
-1.380951	0.265785	9.366079	40.265416	10.715359	-6.903529	-0.025781	0.375752	-1.009705	-16.91004	-6.61618	20.016887	-73.628882	192.625745	-218.1358	-0.655859	-0.573665	-0.373871	11.201228	2.905077	0.163548	-9.532989	-16.194822	63.311498	-0.424052	-0.497381	-0.311719
-1.021836	0.268914	10.168704	40.519329	8.369852	-8.659867	-0.041059	0.417439	-1.019603	-13.07003	-5.776675	22.079772	12.14554	188.722263	-194.809251	-0.616271	-0.616185	-0.414737	11.481868	2.959264	-0.609492	-6.557545	-16.375708	55.19858	-0.451727	-0.499441	-0.280804
-1.440267	0.035578	9.250294	30.958426	7.231896	-7.086697	-0.08415	0.394207	-0.972912	-14.497247	-7.139744	6.309855	71.642393	178.757781	-157.29433	-0.589063	-0.596427	-0.473691	11.597659	2.028789	-0.850875	-9.036625	-16.733333	53.435853	-0.465217	-0.467261	-0.282549
-1.270363	1.06916	9.201125	21.67042	6.759349	-7.159644	-0.082992	0.352894	-0.962665	-14.291167	-6.749146	2.521379	17.705344	211.518189	-105.634748	-0.524554	-0.612444	-0.459716	11.110664	1.794104	-1.699364	-9.421333	-16.830848	50.899935	-0.493383	-0.482209	-0.312908
-1.216076	0.551421	9.029508	8.251262	5.904063	-4.98808	-0.08415	0.394207	-0.972912	-13.580211	-5.676922	6.273791	-40.277131	238.551698	-48.481543	-0.523743	-0.624549	-0.501762	11.223869	1.502217	-1.997933	-4.249559	-15.682654	42.192627	-0.409585	-0.466444	-0.282268
-1.151933	0.265619	9.370533	-0.634893	5.325883	-3.71448	-0.070415	0.407603	-0.976677	-12.492438	-4.212135	8.845567	-51.85712	246.669047	8.403872	-0.522782	-0.606013	-0.545814	11.049562	1.270813	-1.88241	-1.672024	-14.628592	32.82321	-0.436566	-0.402082	-0.285757
-0.915867	1.30109	9.777303	-10.812873	5.254252	-4.269052	-0.055537	0.396986	-0.987686	-11.886329	-3.313028	7.670192	-50.348527	256.045277	61.927309	-0.470884	-0.665923	-0.557253	10.830929	0.403674	-1.051824	-4.119108	-13.749945	23.901496	-0.45103	-0.45169	-0.267788
-0.981822	1.011993	9.320158	-19.554005	5.229811	-5.685726	-0.096384	0.377624	-1.007959	-9.814991	-4.049299	7.599817	-67.063917	269.896341	107.284294	-0.456426	-0.600278	-0.618942	10.49529	0.989694	0.02237	-8.58751	-14.894714	14.752866	-0.478845	-0.452098	-0.267928
-0.740515	0.95704	9.949754	-28.719272	5.657035	-6.449798	-0.069272	0.38359	-0.983921	-9.165756	-4.838543	8.292126	-93.422274	284.787241	138.52463	-0.45539	-0.566422	-0.663998	9.973393	1.74837	0.614749	-7.294383	-18.649778	8.622393	-0.423214	-0.451282	-0.267647
-1.203869	0.611516	9.655133	-33.419033	5.412933	-8.525752	-0.041817	0.427682	-1.008943	-6.954609	-3.940355	9.528255	-114.822355	300.049179	159.813863	-0.428258	-0.561984	-0.721949	9.730436	1.398724	0.189516	-7.163284	-21.678789	8.789202	-0.464662	-0.417857	-0.300588
-1.19261	0.441604	10.22294	-38.481545	5.871846	-10.405243	-0.027296	0.396237	-0.988385	-5.610485	-3.716705	10.519123	-130.661462	312.069988	172.441273	-0.440047	-0.497562	-0.768737	8.663473	1.516317	-0.069425	-2.011988	-25.296729	14.411906	-0.436563	-0.420754	-0.238336
-0.281567	-0.307005	9.953353	-33.061731	6.039914	-12.1663	-0.069658	0.397361	-0.987337	-3.16679	-3.382205	11.816253	-148.51335	320.6903	176.861101	-0.374206	-0.478651	-0.814168	8.478047	1.805372	-0.490839	2.358542	-26.815032	20.791864	-0.450403	-0.403113	-0.270299
-1.767583	-0.822419	10.035937	-26.898619	5.844518	-11.389792	-0.100171	0.428838	-0.954658	-1.464107	-3.722034	13.380296	-156.353829	326.171982	175.120769	-0.321336	-0.399605	-0.848989	8.535537	1.514362	-0.610788	2.061068	-27.892257	24.313449	-0.478637	-0.435906	-0.268765
-1.084119	-0.478991	9.880188	-20.432657	5.284907	-10.896108	-0.057023	0.382873	-0.931383	0.708437	-1.750267	18.296483	-148.27928	333.417074	168.445803	-0.346026	-0.319937	-0.896505	8.834749	1.630828	-0.365164	-0.802676	-27.599246	24.566974	-0.478219	-0.403521	-0.270439
-1.532091	-0.53393	10.382716	-14.300227	5.119403	-10.057694	-0.083407	0.401264	-1.001064	3.184527	-1.529532	18.405295	-95.810235	343.206049	148.695155	-0.265959	-0.341552	-1.01095	8.478047	1.805372	-0.490839	-0.000189	-27.597939	24.716906	-0.46452	-0.419509	-0.269532
-1.374845	-0.479749	9.647208	-11.201569	5.062658	-9.208783	-0.04256	0.420625	-0.980791	5.245543	-1.536223	15.221567	-69.155258	359.030809	119.672294	-0.188248	-0.311533	-1.000262	8.469378	1.745318	-0.970341	-4.434421	-26.103601	23.594789	-0.45047	-0.420958	-0.238406
-1.605266	-0.077734	9.58759	-12.086416	5.704211	-9.226479	-0.04216	0.389555	-0.959884	6.16933	-1.706844	15.354047	-84.494625	369.281704	84.826759	-0.135013	-0.276305	-1.060771	8.942473	1.802561	-0.901383	-7.12078	-23.094503	18.54643	-0.449986	-0.370728	-0.271973
-1.256338	0.15299	9.879502	-18.335398	6.477855	-9.533284	-0.056266	0.37263	-0.942043	6.427335	-0.410488	16.775963	-100.398072	369.249253	49.418242	-0.056121	-0.241998	-1.107482	8.89172	2.036978	-0.42224	-4.580428	-20.938673	12.046814	-0.492127	-0.403725	-0.27051
-0.96528	-0.305784	10.110551	-24.821797	8.353882	-9.576131	-0.113134	0.3879	-0.944062	6.803534	0.547765	18.313292	-111.381195	362.60588	14.566886	-0.004733	-0.228521	-1.080889	9.7864	0.816839	-0.051484	-4.694885	-18.817263	5.007162	-0.464658	-0.436528	-0.253167
-1.956706	-1.458012	9.120293	-30.835196	7.026794	-8.844323	-0.04256	0.420625	-0.980791	6.494692	2.296222	20.176616	-121.855533	357.473757	-16.474855	0.074304	-0.223783	-1.139942	9.489969	1.398275	-0.054514	-5.053173	-17.447175	-0.438372	-0.464032	-0.387951	-0.255678
-1.618224	-1.274556	11.798679	-45.807941	11.574561	-4.034941	-0.043689	0.42734	-0.956055	9.280462	4.996004	21.53963	-125.70776	356.455047	-36.710258	0.139699	-0.236585	-1.169017	9.316378	1.806201	0.183543	0.559624	-16.252965	-7.524198	-0.450262	-0.404765	-0.239243
-2.013504	-2.089827	9.116525	-19.645451	41.287281	-9.02504	-0.042946	0.434396	-0.984207	14.448319	5.720511	23.800145	-126.413664	341.13759	-49.347747	0.140139	-0.265082	-1.195709	9.443369	2.214688	0.726637	3.393409	-16.271689	-13.615869	-0.478357	-0.42054	-0.254074
-1.34202	0.33167	11.356179	-39.500455	44.899273	-5.044859	-0.043689	0.42734	-0.956055	20.779544	6.21563	23.933552	-121.893876	312.016013	-56.415687	0.166021	-0.220042	-1.184921	9.028325	2.098987	0.598626	4.494354	-17.181822	-13.951667	-0.491919	-0.387533	-0.271347
-0.894172	0.558934	10.854374	-44.76851	49.278571	-3.149058	-0.028825	0.434022	-0.984556	25.190406	5.530464	22.949916	-110.678516	280.696751	-52.187378	0.178632	-0.17615	-1.159509	8.452874	1.929323	1.365669	6.621207	-17.16953	-8.489164	-0.47794	-0.388155	-0.255749
-1.82797	-1.110309	9.863058	-41.664	56.346717	-4.607194	-0.029954	0.440736	-0.95982	29.807746	6.533976	21.009666	-102.936928	247.420117	-32.414322	0.231202	-0.158386	-1.190315	8.437083	2.564945	0.589599	11.337822	-18.171767	-1.625092	-0.463961	-0.388777	-0.240151
-1.921737	-0.531227	10.943453	-34.296039	60.329238	-0.515428	-0.029197	0.430494	-0.97048	34.294848	9.114483	18.50193	-91.377477	204.748188	2.251411	0.230316	-0.161601	-1.147265	8.366887	1.690973	-0.134093	20.214849	-19.682143	5.532358	-0.478704	-0.453751	-0.236872
-1.282249	-0.069979	11.469309	-40.327572	65.228732	1.237641	-0.00247	0.45023	-0.949859	35.600592	12.094664	15.24836	-72.340555	143.480123	45.311489	0.269545	-0.100094	-1.152107	8.237715	1.746847	-0.735115	22.758347	-19.605018	13.744826	-0.478078	-0.405174	-0.239384
-1.735706	-0.241007	11.68709	-37.080759	72.959487	3.6847	-0.000941	0.412445	-0.953687	35.946157	14.288713	12.766529	-64.825416	73.046382	91.019223	0.294831	-0.117408	-1.122956	8.643395	1.628019	-1.147255	25.083067	-16.911929	23.260579	-0.492123	-0.422396	-0.223089
-1.909323	-0.758339	11.567871	-38.52767	80.772098	5.10389	0.012393	0.456912	-0.97836	34.779218	13.614238	11.948828	-35.229204	15.473655	125.89944	0.347036	-0.055827	-1.128073	9.526106	0.347085	-1.435722	25.79613	-12.532518	28.861831	-0.547472	-0.426518	-0.161259
-1.575777	-0.818201	11.062633	-38.615062	89.498486	7.76068	-0.016948	0.429777	-0.917942	34.538471	10.006468	8.430511	9.028907	-18.048352	138.090315	0.308699	-0.053908	-1.155945	9.758754	0.868735	-1.548909	22.30396	-7.37334	25.64005	-0.46389	-0.389603	-0.224623
-2.146052	-0.874746	11.164963	-40.70675	96.559524	10.120131	0.040277	0.435335	-0.94749	36.299722	7.636155	7.163284	26.413368	-39.486821	120.499574	0.308108	-0.056052	-1.127246	9.578945	0.636094	-1.73292	12.949255	-3.441823	17.860277	-0.477656	-0.39146	-0.193637
-2.49164	-1.104746	11.043611	-42.078056	105.425302	13.457452	0.039506	0.462877	-0.954322	34.81541	6.850756	7.640945	35.475083	-63.877051	82.646455	0.295277	-0.085696	-1.139313	10.172137	0.751637	-1.5417	10.332861	-0.572419	14.554838	-0.492056	-0.404551	-0.254982
-2.704862	-1.38841	11.833894	-47.74933	112.573263	17.484446	0.066618	0.468842	-0.930284	29.752202	7.423688	7.704954	44.946519	-87.5625	45.173541	0.282151	-0.116412	-1.13703	10.352697	-0.758744	-1.544827	9.669585	-1.569378	13.125385	-0.491706	-0.390011	-0.224763
-2.121307	-1.214087	12.414283	-47.794464	125.493662	24.072769	0.03992	0.414507	-0.915923	5.826522	-0.478562	2.100215	-103.245727	-203.491014	-52.650278	0.321154	-0.100866	-1.13886	10.295071	-0.409659	-1.42463	9.888004	-3.315544	10.504272	-0.477727	-0.390634	-0.209165
-2.406217	-1.558288	12.464121	-52.978491	140.076593	30.88663	0.095259	0.437023	-0.910075	-28.133511	-22.934535	15.690554	-91.353482	-123.737767	-27.126362	0.321744	-0.098722	-1.16756	10.664459	0.115924	-0.517199	19.702137	-5.352549	3.815363	-0.477936	-0.406826	-0.208328
-1.867088	-2.185452	13.665403	-61.818055	156.168255	41.230588	0.108222	0.477961	-0.920672	1.698005	-10.880265	15.308662	235.091911	-221.450706	-14.578687	0.282891	-0.083627	-1.167736	10.705734	0.169909	-1.474362	25.511487	-7.500523	3.529502	-0.505196	-0.357831	-0.226508
-1.94741	-1.718357	15.427552	-70.727403	179.95511	52.710959	0.135706	0.487455	-0.91071	6.47397	6.227011	6.082719	212.634459	-211.12791	-68.870487	0.269395	-0.130735	-1.1501	12.299689	-0.530896	-1.507523	8.08533	-5.906148	6.030126	-0.462981	-0.344331	-0.165023
-1.759845	-3.553475	16.162261	-76.340887	210.001602	65.815672	0.149884	0.417883	-0.841092	5.099556	5.502259	11.714631	115.595469	-153.265712	-32.33954	0.230982	-0.144137	-1.176969	12.838288	0.050627	-1.015892	4.782478	-0.726142	-2.081925	-0.491147	-0.359279	-0.195382
-1.441531	-3.202036	17.818016	-87.007634	243.384578	82.881133	0.163232	0.445051	-0.848273	4.832909	-1.143871	12.099468	100.715875	-108.239255	-20.5292	0.216825	-0.1485	-1.119294	14.218233	3.409368	-2.532721	34.882418	0.801809	-3.420705	-0.491493	-0.39249	-0.17818
0.197137	-1.529431	19.732344	-93.120568	285.367486	90.294178	0.203694	0.478183	-0.831416	1.526753	2.802361	8.523433	97.810131	-96.686135	-24.115941	0.21719	-0.192317	-1.144982	12.726748	3.699662	-3.397693	23.499934	-0.849849	-7.344609	-0.477865	-0.407652	-0.1928
1.098923	-0.888787	21.968971	-107.725743	329.108856	95.553212	0.23192	0.494734	-0.849606	1.901388	0.155128	9.66125	68.331131	-90.471973	-18.282477	0.190943	-0.193539	-1.130081	11.487253	3.295718	-3.482439	-15.547201	0.484838	-22.672541	-0.519242	-0.375053	-0.210213
1.21887	0.835824	22.319556	-86.579739	370.916277	79.589827	0.273953	0.438183	-0.784103	1.910065	0.042799	10.057632	63.505421	-93.425916	-16.928501	0.177747	-0.179366	-1.116459	9.67941	1.561579	-2.56546	-15.06246	7.613133	-34.472325	-0.491289	-0.357626	-0.226437
-0.962532	1.065959	21.993943	-54.786906	406.282623	53.556659	0.328564	0.436343	-0.732612	2.169573	0.942505	8.818364	55.825106	-98.231255	-24.226738	0.177232	-0.166189	-1.088764	8.268235	1.217353	-2.353726	-6.781557	10.654883	-29.964127	-0.478078	-0.405174	-0.239384
-4.764619	-0.602418	20.662687	-42.665761	428.653535	28.621731	0.42665	0.443964	-0.724396	3.843374	1.164891	9.080171	38.212823	-99.86134	-34.398958	0.1515	-0.180587	-1.101558	7.142411	1.741861	-2.55213	-1.741802	10.715056	-16.293028	-0.478007	-0.406	-0.223856
-6.733902	-3.191186	19.363201	-50.086722	440.441275	16.998764	0.422906	0.443279	-0.61862	2.898409	-1.254351	10.41693	33.387722	-92.007397	-48.504543	0.099005	-0.183031	-1.071756	6.312789	2.730796	-2.62324	5.242533	11.302986	-8.620048	-0.492194	-0.42157	-0.238617
-4.061748	-3.369559	18.448309	-45.038601	438.369727	17.747799	0.451533	0.428759	-0.615903	-1.007169	-2.091695	10.673851	22.544403	-60.381857	-45.88708	0.111761	-0.168708	-1.058685	6.947661	2.726097	-3.389925	7.909907	11.714095	-11.962748	-0.477727	-0.390634	-0.209165
-3.951113	-4.174789	18.219745	-45.292568	437.237662	17.362125	0.436327	0.38395	-0.538342	2.292408	-2.209788	11.592258	80.373895	-28.625958	-5.666206	0.099156	-0.152391	-1.073763	7.357338	2.782486	-3.561695	6.88509	11.783053	-18.987957	-0.492123	-0.422396	-0.223089
0.175837	-7.5089	18.399626	-43.40562	421.813698	30.781551	0.518021	0.422674	-0.497797	3.222759	0.265215	9.57587	73.480824	-21.990066	-6.808061	0.099301	-0.18196	-1.086106	9.31408	2.60578	-3.046867	-7.407244	12.353302	-22.850318	-0.435724	-0.374655	-0.194264
3.907236	-8.830819	18.921278	-43.696545	420.808273	51.676383	0.502814	0.377864	-0.420236	2.703869	-0.578867	9.451	50.652216	-20.390636	-9.677496	0.08581	-0.168858	-1.058134	10.379401	2.720243	-2.846844	-26.282277	13.039582	-30.638223	-0.491773	-0.407856	-0.19287
5.316824	-9.525978	17.809157	-53.063887	414.506419	65.089942	0.542918	0.39017	-0.371812	2.784618	-0.690735	10.528266	62.46427	-13.7799	-3.498381	0.111466	-0.16978	-1.044336	10.141136	2.720289	-2.97106	-35.40095	13.170074	-46.401964	-0.46389	-0.389603	-0.224623
13.510371	-7.544694	12.521163	-43.008873	378.106527	61.433755	0.514348	0.335492	-0.304562	2.522434	0.829482	9.16536	65.491107	-11.175492	-1.99031	0.034496	-0.167014	-1.08573	9.847851	2.895686	-2.856007	-39.311	11.086757	-59.269951	-0.520219	-0.438171	-0.23792
16.200347	-19.908279	-17.200934	40.992146	110.786795	262.307109	0.527368	0.307234	-0.245191	2.821872	-0.184627	9.623668	49.320113	-7.740606	-0.643566	0.060002	-0.198577	-1.069925	9.374777	3.303299	-2.863079	-32.211737	9.881456	-61.550464	-0.50589	-0.424253	-0.192104
28.585097	0.651025	11.087185	-99.732104	-195.790089	257.982534	0.57013	0.275039	-0.225331	2.3048	0.548735	9.726684	45.41149	-6.599637	0.166163	0.098265	-0.215816	-1.041049	9.38302	3.072725	-2.44472	-25.124163	8.053441	-53.899665	-0.477865	-0.407652	-0.1928
19.903205	2.365232	20.81403	-6.928499	-341.150934	220.601233	0.601015	0.24709	-0.272086	2.013023	0.718123	9.550863	40.670202	-5.404707	0.48251	0.046361	-0.216116	-1.039946	10.328358	2.605957	-2.429091	-26.737371	2.9126	-48.339683	-0.464308	-0.421988	-0.222949
16.615252	4.475519	16.667181	115.045582	-378.496183	173.758859	0.615507	0.250244	-0.286511	3.106312	0.321714	9.51686	32.175881	-3.030781	0.776733	0.071427	-0.219182	-0.997448	11.700036	2.606065	-1.624991	-28.940723	-5.271217	-50.400669	-0.46452	-0.419509	-0.269532
13.483407	2.0437	11.538106	173.585157	-393.263041	118.411518	0.57466	0.230882	-0.306784	2.132319	0.436397	9.722962	27.550151	-2.390109	1.673398	0.059261	-0.231362	-1.039218	11.840462	1.971656	-0.487279	-31.032333	-12.066119	-56.562289	-0.478357	-0.42054	-0.254074
11.302245	0.123324	5.29307	156.557011	-389.879015	65.673104	0.577646	0.24181	-0.4019	2.132882	0.774427	9.779886	27.02384	-2.460116	1.98056	0.046581	-0.230365	-1.053292	11.443585	2.092462	0.404116	-28.731448	-14.585394	-60.59101	-0.43663	-0.438599	-0.206443
-16.327927	-0.675937	14.697585	46.070263	-369.205316	0.005011	0.523865	0.146911	-0.376592	2.708536	0.77335	9.791975	24.096288	-1.973627	1.613104	0.032644	-0.248976	-1.008964	10.449519	1.922507	0.863922	-21.570593	-12.926671	-55.85926	-0.4931	-0.485514	-0.250796
-38.216211	4.506738	13.611713	31.102229	-196.60249	-93.289264	0.553164	0.225944	-0.489486	2.645357	0.547898	9.507379	20.172924	-2.024212	1.732756	0.046141	-0.201868	-1.0266	9.677232	2.213654	0.611225	-12.818697	-8.744807	-40.207617	-0.493029	-0.48634	-0.235268
-50.719838	4.083925	6.37658	32.41759	5.988704	-154.204214	0.523794	0.233407	-0.464051	2.822242	0.885748	9.737848	19.092027	-1.979015	2.102275	0.058966	-0.232433	-1.024868	9.49192	1.979777	0.127679	-3.639594	-3.772698	-20.953565	-0.43726	-0.468505	-0.251353
7.137928	1.116862	-31.950834	6.73693	3.82109	-174.119237	0.539014	0.260917	-0.52412	2.643933	0.660512	9.450834	17.308596	-1.414481	1.397404	0.045174	-0.280614	-0.992882	8.640924	1.743677	-1.266574	1.148416	0.118623	-8.123998	-0.437535	-0.502542	-0.218623
6.709625	-18.375084	3.818668	-334.868176	-357.212811	-203.168783	0.481403	0.26913	-0.497987	2.585828	0.942272	9.449862	18.018716	-1.55074	0.163495	0.019593	-0.264371	-1.007684	8.863514	1.856322	-1.980561	-1.384437	5.499689	0.111207	-0.451372	-0.503573	-0.203165
9.219267	-12.661702	24.066362	7.055184	-443.236286	-176.628514	0.451962	0.36309	-0.560011	2.774347	0.886235	10.189756	15.573332	-1.950897	0.342517	0.019963	-0.247979	-1.023038	9.425644	2.54595	-3.404355	0.627458	9.725	12.248382	-0.450817	-0.454169	-0.221204
-1.946974	-4.775587	12.402663	1.404513	-385.261432	-133.064123	0.398481	0.358216	-0.636239	2.252609	0.267379	9.951796	18.781582	-2.248658	0.527107	0.057855	-0.28161	-0.978808	10.846454	3.008554	-3.076432	7.656578	11.214789	15.547536	-0.464378	-0.421162	-0.238476
-2.804076	-4.339882	6.647956	7.054616	-318.438031	-90.166829	0.369496	0.351909	-0.607388	2.597247	0.661046	9.959381	19.772651	-2.051117	0.375728	0.019593	-0.264371	-1.007684	11.78548	2.889006	-3.358854	-1.833537	9.477974	-3.176339	-0.437122	-0.451486	-0.267717
-0.585474	-1.472076	6.078063	-10.083164	-269.800979	-68.800954	0.34197	0.394313	-0.669825	1.800763	0.155913	10.338507	18.480262	-1.697583	0.069922	0.006026	-0.26659	-0.978709	11.577716	2.082415	-1.928952	-18.298078	4.866013	-30.230917	-0.492749	-0.470974	-0.220578
4.741228	1.237133	9.318766	-12.96561	-254.979543	-77.296108	0.299594	0.412736	-0.68627	2.239681	1.337232	9.442941	18.564751	-2.369031	-0.244967	0.007062	-0.232734	-1.023766	10.760564	1.970131	-1.465597	-18.262509	-0.248309	-44.41414	-0.464583	-0.456026	-0.190219
6.075446	0.320734	10.193311	32.189355	-269.380107	-104.816014	0.285445	0.447709	-0.720904	2.541645	0.266888	10.01448	16.45949	-2.877878	-1.546499	0.018927	-0.281836	-0.977981	9.998836	1.508267	-1.242253	-10.952885	-3.862964	-44.331704	-0.47905	-0.486962	-0.21967
3.812718	-3.131139	8.486667	52.577647	-290.664775	-121.638999	0.27281	0.462197	-0.776859	1.955265	1.450575	9.60691	15.831124	-3.685034	-1.24675	0.044879	-0.281685	-0.978533	9.168478	1.393016	-1.497781	-4.802412	-6.880794	-37.281854	-0.49282	-0.470148	-0.236106
1.611368	-6.122555	7.010479	27.348463	-301.188876	-115.722078	0.231206	0.453078	-0.786471	2.870376	1.392283	9.343007	10.02009	-4.004654	-1.16212	0.032569	-0.264296	-1.00796	9.525762	1.915879	-1.249326	4.51179	-9.863824	-32.504313	-0.450959	-0.452516	-0.25226
2.717592	-5.372501	8.001275	-15.285553	-310.966171	-101.426843	0.17511	0.440805	-0.781658	2.147257	0.211644	10.402448	8.427831	-5.199806	0.335291	0.018117	-0.269731	-0.935936	9.755959	3.018042	-1.419947	17.700936	-10.984281	-37.924268	-0.49282	-0.470148	-0.236106
3.956457	-4.146551	12.861125	-43.050457	-329.121469	-94.031646	0.103707	0.504819	-0.821728	3.189694	0.09728	10.707311	9.531133	-5.861755	0.545393	0.019298	-0.265443	-0.993335	9.465685	2.845478	-1.186564	24.763166	-10.967228	-48.979278	-0.479188	-0.503981	-0.203306
3.277929	-4.246662	16.200499	-28.68317	-348.568121	-88.620084	0.063974	0.496042	-0.884228	2.364221	0.210691	9.784248	15.338032	-8.215536	1.328194	0.018481	-0.313548	-0.961624	9.414798	3.137971	-0.707173	23.103367	-8.999761	-56.436853	-0.479188	-0.503981	-0.203306
2.015198	-4.533681	16.004237	-5.209574	-362.240425	-75.808018	0.005577	0.549096	-0.882419	2.146479	-0.013726	10.345618	18.200157	-9.065995	0.952102	0.006246	-0.280839	-0.992055	9.060816	2.61585	-0.775908	20.070185	-5.508563	-57.908875	-0.479188	-0.503981	-0.203306
0.174112	-6.028006	15.450653	-3.900766	-383.816651	-59.226519	-0.035641	0.526206	-0.888615	2.382462	0.155072	10.633794	21.248416	-9.881226	0.237402	-0.006805	-0.296234	-0.990776	8.418085	2.212039	-0.490209	20.539665	-3.747043	-53.580985	-0.451234	-0.486554	-0.21953
-6.704976	-4.059123	17.882515	-15.933406	-403.226965	-32.971837	-0.078003	0.52733	-0.887568	2.490231	0.210902	10.296422	20.70802	-11.055444	0.564402	0.045249	-0.265293	-0.993886	6.873761	2.213325	-1.057982	27.685736	-3.389123	-44.321085	-0.46528	-0.503777	-0.203235
-16.683159	-1.789896	22.81273	-10.792927	-390.905615	14.505874	-0.119979	0.514683	-0.883104	2.936942	1.110854	9.740456	16.716862	-11.424154	2.31473	0.005876	-0.297231	-0.976702	6.869069	1.863632	-1.359	43.44522	-3.29763	-32.951589	-0.479605	-0.536366	-0.201631
-21.304568	0.457541	23.641598	13.956736	-363.631437	67.858235	-0.203616	0.562114	-0.95822	2.425891	1.22477	10.069508	11.666086	-12.627362	3.007753	0.044433	-0.313398	-0.962176	6.687484	1.921125	-1.601682	51.780036	-2.37637	-21.558135	-0.465347	-0.521622	-0.171343
-21.896608	5.234571	25.752942	29.200984	-347.203855	99.223852	-0.260841	0.556555	-0.928672	3.059757	0.885601	10.082522	13.224809	-13.926269	3.026921	0.018261	-0.2993	-0.948278	6.434893	1.453101	-2.566572	50.640604	-0.948641	-12.118166	-0.465627	-0.536988	-0.186033
-25.348644	9.324857	27.919423	74.220146	-329.484642	104.867916	-0.289454	0.553776	-0.913897	3.244842	0.097077	10.595241	10.836909	-14.777432	1.937548	0.019222	-0.280764	-0.992331	6.37298	1.278266	-2.748134	41.583592	0.435471	-1.181611	-0.465768	-0.535335	-0.217089
-31.233669	8.515012	25.471492	135.745202	-289.488259	101.171375	-0.374191	0.573323	-0.929294	4.283123	-1.878862	7.84121	11.612277	-17.203358	-0.737168	-0.00747	-0.313698	-0.961073	6.356069	1.448786	-3.645996	38.925973	-0.053582	9.711102	-0.410204	-0.552364	-0.184915
-34.653226	4.991528	20.218558	166.087371	-226.136917	100.089061	-0.430631	0.522923	-0.875422	1.392402	6.867388	18.771362	-8.318407	-23.440584	-9.477822	-0.007766	-0.31477	-0.946723	6.474817	2.087846	-3.521262	31.91187	-0.483449	13.375873	-0.479605	-0.536366	-0.201631
-30.124695	-7.444774	14.2302	312.63861	-53.273671	138.665627	-0.402418	0.556773	-0.911104	3.301915	1.617988	10.711009	34.666041	-53.097728	-5.699643	-0.020151	-0.312701	-0.975147	5.937629	2.320129	-3.829711	26.096171	0.900187	13.634861	-0.479464	-0.538018	-0.170576
-44.939794	5.22051	18.087204	67.638695	33.422264	137.316235	-0.413895	0.529948	-0.956811	2.622792	1.453101	13.923609	11.627982	-63.048736	-10.934472	-0.008136	-0.331163	-0.93137	6.169677	1.679517	-4.127564	26.602749	0.1594	11.496946	-0.465977	-0.551528	-0.216252
-48.74827	-1.759592	10.368428	59.738166	109.307287	140.62462	-0.386769	0.518614	-0.915281	2.462849	2.127576	11.882734	15.650971	-74.506736	-9.996986	-0.046103	-0.312852	-0.974595	7.168995	2.431715	-4.225456	27.061448	1.662063	14.239055	-0.466115	-0.568547	-0.199887
-15.218414	6.956444	13.216916	15.355872	206.920962	166.267868	-0.329529	0.506873	-0.927338	2.216709	3.087441	13.916521	8.172855	-89.155488	-8.02149	-0.020446	-0.313773	-0.960797	8.113003	3.010562	-4.14547	28.968914	4.102471	15.534859	-0.493163	-0.52203	-0.171483
10.999634	-8.460247	12.86628	15.08389	198.282855	142.535839	-0.315423	0.523797	-0.945179	2.815955	2.129598	14.947317	-0.983043	-104.47671	-5.190829	-0.059745	-0.330391	-0.944616	9.166842	4.749424	-4.357872	34.93036	6.461441	8.349614	-0.464859	-0.490063	-0.157489
13.250533	-7.136606	13.881758	38.464939	186.931529	45.489318	-0.30206	0.533665	-0.934868	2.370313	2.809427	18.392022	-8.366443	-126.014436	-1.033221	-0.085552	-0.36011	-0.956407	11.169475	6.429038	-4.313288	49.427572	6.714713	-8.208053	-0.493305	-0.520377	-0.202539
0.47634	-1.26881	13.544358	140.533389	212.001027	-8.274438	-0.258541	0.491229	-0.925668	2.906572	0.893788	19.080965	-4.510206	-155.406262	0.681693	-0.046769	-0.330316	-0.944892	13.600101	5.496263	-3.79287	50.638946	4.477961	-37.017344	-0.437949	-0.553598	-0.169528
-4.760351	0.924778	15.099826	120.654254	160.101754	-57.618347	-0.228399	0.456223	-0.944271	3.236339	-0.175466	20.955215	0.119656	-185.417448	-5.470004	-0.111793	-0.301122	-0.931171	15.706477	4.512898	-1.661816	20.093764	1.904842	-53.086986	-0.465906	-0.552354	-0.200724
-3.447932	2.161883	9.106545	111.497995	123.81436	-22.7522	-0.216179	0.490105	-0.926716	3.961895	-1.921772	22.440882	10.790736	-219.288416	-16.124991	-0.125736	-0.379943	-0.897178	14.91585	3.883616	0.177172	6.913375	3.543038	-35.601875	-0.451439	-0.521418	-0.171272
-0.670551	2.49847	7.741226	56.798379	129.248284	9.358957	-0.198643	0.434988	-0.96629	4.018482	-4.569652	22.156664	21.301563	-254.40085	-35.546769	-0.138932	-0.365769	-0.883556	11.548878	3.309563	-0.127653	12.735002	3.830612	-25.907722	-0.438087	-0.570617	-0.153163
0.179311	0.382685	10.135716	34.280512	135.622408	15.077916	-0.170774	0.430711	-0.952912	3.91313	-4.625387	22.607315	30.463277	-286.281834	-54.998381	-0.164143	-0.333135	-0.913711	8.589557	3.66304	-0.60054	13.065796	2.453933	-19.852009	-0.479117	-0.504807	-0.187778
-0.31519	-0.646547	11.144707	38.512102	132.619959	5.265107	-0.114677	0.442984	-0.957725	2.25883	-4.055956	26.026538	43.547889	-322.627504	-70.88396	-0.229763	-0.366295	-0.881626	7.462188	3.431818	-0.981879	15.964811	5.240128	-1.35627	-0.451857	-0.553803	-0.169598
-7.691691	3.694501	17.498191	76.831051	117.35342	4.50787	-0.114692	0.460283	-0.975217	2.85971	-4.847096	24.453263	100.170722	-352.465844	-67.959602	-0.256306	-0.368588	-0.852375	8.117563	3.606044	-0.609591	19.844246	12.050822	15.80507	-0.465694	-0.554833	-0.154141
-6.413837	2.810894	12.575076	42.418017	26.273427	-6.595508	-0.128455	0.481485	-1.006435	6.977309	-3.954564	23.351632	130.970592	-378.026957	-69.945351	-0.270173	-0.432089	-0.819385	8.410038	3.779103	-0.723161	25.594498	17.452951	21.933094	-0.465694	-0.554833	-0.154141
-2.158953	-3.06066	10.416703	33.382974	22.364737	-7.093065	-0.115092	0.491353	-0.996124	8.16523	-3.504605	25.132017	155.78517	-380.404739	-90.415536	-0.296345	-0.417991	-0.805487	8.946301	4.418207	-0.351096	31.362669	19.330152	13.955755	-0.451506	-0.539263	-0.13938
-1.222306	1.469279	8.749103	44.486866	25.798582	-1.824866	-0.083778	0.397735	-0.986988	7.63078	-8.464101	21.21004	185.097655	-386.928319	-97.884818	-0.350466	-0.456435	-0.701929	9.135974	3.723362	0.248307	30.7746	22.24772	3.765802	-0.437602	-0.520387	-0.18673
-1.156843	0.896511	9.145775	37.762342	19.16828	-2.587975	-0.099799	0.432366	-0.968734	9.120912	-10.720551	20.729818	187.785495	-358.234836	-105.426776	-0.376718	-0.517867	-0.697363	9.152366	4.250002	1.209043	34.603852	23.741634	2.613951	-0.451581	-0.519765	-0.202328
-1.264547	0.725717	9.483943	23.600187	16.926765	-0.43686	-0.069643	0.380061	-0.969846	5.320776	-12.57015	23.139399	223.581788	-317.012986	-128.25876	-0.431059	-0.542062	-0.580459	8.968154	4.016373	0.785404	37.633762	24.920976	7.946081	-0.466115	-0.568547	-0.199887
-0.96586	0.498397	10.113929	17.760502	14.007486	-0.160816	-0.071544	0.414318	-0.951941	-14.922254	-18.559245	23.105265	237.792182	-247.856599	-155.298431	-0.406954	-0.563664	-0.493908	9.503046	4.771382	1.098057	42.121644	25.433826	10.189198	-0.465347	-0.521622	-0.171343
-0.742742	0.956557	9.836048	14.050863	13.055751	0.938438	-0.056266	0.37263	-0.942043	-13.946233	-7.28285	-27.194287	245.578892	-174.874626	-84.57374	-0.420156	-0.6097	-0.490621	10.120561	4.181719	-0.689517	46.802533	25.556338	8.826794	-0.479464	-0.538018	-0.170576
-0.924734	1.241718	9.322236	6.963261	11.10629	1.908521	-0.084164	0.411506	-0.990404	-18.139196	-11.177826	18.628308	-114.36085	67.224114	3.762175	-0.40814	-0.628161	-0.446844	10.350063	5.109407	-0.920788	47.795361	25.545155	4.330272	-0.493647	-0.57226	-0.137916
-1.089319	0.553992	9.657119	1.227498	10.341999	1.91261	-0.084536	0.407978	-0.976328	-13.847996	-7.745786	23.19398	68.503356	51.981223	36.714235	-0.368842	-0.611544	-0.463025	10.217455	5.222615	-1.701284	49.22549	23.844757	-2.329553	-0.507347	-0.556272	-0.138823
-0.512486	0.784308	9.896631	-2.118675	9.653805	1.604381	-0.070787	0.404075	-0.962601	-13.95864	-10.914337	6.940594	120.45661	50.391448	57.335344	-0.395089	-0.612766	-0.448124	10.207376	4.348755	-2.363968	47.055599	20.966972	-5.82258	-0.479535	-0.537192	-0.186104
-0.977327	0.955517	9.547329	-4.543609	9.371487	1.116089	-0.070401	0.390304	-0.959185	-14.314453	-12.270865	0.930822	35.102954	119.800103	75.346606	-0.369143	-0.672825	-0.45901	10.323903	4.522466	-2.420932	46.677368	17.344734	-7.698723	-0.507488	-0.554619	-0.169879
-1.259637	0.094825	9.708701	-7.151438	9.116608	0.843443	-0.071944	0.445388	-0.972849	-11.955025	-10.521838	9.190973	-9.448435	175.084985	79.653498	-0.381969	-0.64226	-0.460742	9.8988	3.99776	-3.149743	48.61416	14.999986	-11.025651	-0.452065	-0.569995	-0.168761
-0.954601	0.328485	10.681736	-8.963662	8.211758	1.293969	-0.071573	0.448917	-0.986925	-11.096609	-7.87592	9.211336	-1.281959	205.281402	81.718207	-0.354981	-0.608253	-0.50635	9.856385	3.013816	-2.376257	45.576916	14.086171	-12.446614	-0.493372	-0.538222	-0.170646
-1.198094	0.325515	9.938192	-7.987146	7.414899	1.492882	-0.057809	0.427714	-0.955706	-10.622555	-6.977262	7.240589	-8.678523	231.364347	87.182825	-0.367956	-0.608328	-0.506074	9.030003	2.608927	-2.453301	42.654466	12.723385	-14.782616	-0.507492	-0.535948	-0.2173
-1.032929	0.20906	9.599931	-7.40958	6.461132	1.813062	-0.070801	0.421375	-0.980093	-10.244336	-7.316995	6.059335	-42.856474	257.713229	93.09115	-0.36633	-0.572328	-0.57983	8.616735	2.203093	-2.522641	41.364831	11.931867	-12.635003	-0.451924	-0.571648	-0.137705
-1.022576	-0.248301	10.109679	-5.666428	5.885745	1.768026	-0.099757	0.380468	-0.916259	-9.650526	-6.697679	6.978179	-77.041593	283.844852	98.812415	-0.314206	-0.586276	-0.594279	8.153274	2.264227	-2.051942	39.63567	11.840101	-7.310788	-0.49323	-0.539875	-0.13959
-1.138323	-0.076135	10.051323	-3.030726	5.710534	2.0336	-0.070801	0.421375	-0.980093	-8.368564	-5.967089	7.798346	-104.507702	304.233202	105.962028	-0.261197	-0.597009	-0.651777	7.449502	2.731692	-1.763635	37.726689	11.206577	-5.864473	-0.466182	-0.586392	-0.167994
-0.920564	0.093611	9.48797	-0.970625	5.919943	3.38044	-0.085665	0.414692	-0.951592	-6.819457	-5.801197	7.604571	-140.301678	316.551629	113.918873	-0.24807	-0.566293	-0.65406	7.274925	2.616439	-1.647617	35.707464	9.923357	-6.706756	-0.466182	-0.586392	-0.167994
-1.081441	0.440797	10.054608	1.675141	6.278772	5.341353	-0.111662	0.419312	-1.017857	-6.849088	-5.236646	8.963186	-177.274141	319.904731	128.692789	-0.221453	-0.548679	-0.684315	6.860131	1.919731	-1.838008	34.559749	8.596899	-6.023921	-0.479743	-0.553385	-0.185266
-0.969242	0.555115	9.943611	4.875212	6.851469	7.641454	-0.05628	0.38993	-0.959535	-6.83609	-4.44745	9.643526	-224.00605	311.17317	156.845625	-0.194245	-0.528921	-0.743269	6.569877	2.212022	-1.542739	34.622154	7.260591	-3.970139	-0.465765	-0.554007	-0.169668
-0.971386	0.439749	9.829422	5.955878	7.021046	9.389083	-0.072301	0.424561	-0.941281	-5.428136	-4.728309	13.579226	-254.6473	306.697504	187.76929	-0.140714	-0.49262	-0.818128	6.39503	2.212921	-1.426227	32.857115	6.305643	-3.928629	-0.466324	-0.584739	-0.19905
-1.420224	0.03992	10.27365	5.974772	8.31223	12.07795	-0.070801	0.421375	-0.980093	-3.63173	-5.010492	16.843713	-249.289518	312.28249	214.753012	-0.127733	-0.432335	-0.808068	6.996175	1.749188	-0.878038	33.34006	5.644197	-4.874637	-0.465973	-0.570199	-0.168831
-1.318662	-0.537473	9.591227	7.463456	9.394813	14.789819	-0.070787	0.404075	-0.962601	-1.0664	-4.673587	21.143951	-229.792347	320.21697	232.643538	-0.100154	-0.396185	-0.882376	7.116294	2.272344	-0.693892	35.242037	5.266321	-6.132743	-0.493718	-0.571434	-0.153444
-1.529243	-1.39507	10.492803	-3.771159	5.485697	24.23391	-0.029554	0.409666	-0.938913	2.320509	-5.184963	23.422586	-163.852278	322.536571	230.190623	-0.034979	-0.394738	-0.898104	7.528036	2.387304	-0.745601	40.514858	5.720801	-6.856914	-0.507906	-0.587004	-0.168205
-1.486837	-0.881274	9.756998	4.28599	8.292244	26.678725	-0.056666	0.403701	-0.96295	4.841308	-7.333266	20.020169	-107.450877	329.749068	204.987015	-0.009543	-0.381411	-0.87096	7.645933	2.44511	-0.743153	44.413844	4.3088	-7.995053	-0.465973	-0.570199	-0.168831
-1.35431	0.386458	10.731036	-4.176125	9.706964	31.264133	-0.057038	0.400172	-0.948874	7.034809	-7.56483	17.631624	-119.76525	348.958366	163.257779	0.017225	-0.333156	-0.903222	8.298682	2.328214	-0.551822	44.798559	4.375422	-5.42962	-0.508114	-0.603196	-0.167368
0.602506	2.640268	14.302084	-10.337207	26.408474	27.628468	-0.084164	0.411506	-0.990404	11.127342	-5.091176	20.890152	-154.163118	363.578414	111.138724	0.043108	-0.288117	-0.892434	8.719519	2.793855	-0.062886	46.228327	5.073382	-4.399031	-0.452345	-0.585361	-0.183452
-0.960044	0.154954	10.396747	-14.646291	33.398705	27.355852	-0.042546	0.403326	-0.9633	16.224612	-0.477609	25.587023	-153.219908	358.869963	46.559183	0.13497	-0.313945	-0.949756	8.189879	2.621089	-0.013625	48.161922	4.973769	-5.933637	-0.466253	-0.585565	-0.183522
-1.568687	0.159994	11.464707	-15.111136	41.933928	27.89452	-0.014676	0.399049	-0.949922	19.581955	1.826592	26.735237	-126.634944	355.798592	-17.543511	0.13512	-0.283304	-0.951763	8.963307	3.259901	0.422749	47.692167	5.454834	-2.327932	-0.493718	-0.571434	-0.153444
-1.501339	3.149566	12.103753	-26.452073	44.290042	24.163218	-0.055909	0.393458	-0.973611	24.461033	4.070272	26.386774	-105.941368	357.94687	-62.973242	0.213051	-0.267533	-0.954421	9.318794	3.608041	0.550649	49.330351	6.171142	2.919545	-0.493718	-0.571434	-0.153444
-0.949365	0.789224	10.967932	-3.967035	53.553636	29.431118	-0.01469	0.416348	-0.967414	30.243971	5.184858	25.150472	-94.374944	337.018308	-87.584625	0.239964	-0.248847	-0.999026	9.426497	3.314919	-0.047455	50.20643	7.640711	3.092741	-0.493927	-0.587626	-0.152607
-0.875781	1.309775	11.824014	-14.033535	58.83923	25.314515	-0.042517	0.368727	-0.928316	36.653649	6.915321	20.983939	-98.481992	283.127519	-96.261817	0.343476	-0.249319	-0.986882	9.422636	3.081626	-0.288072	46.786167	8.802837	1.938167	-0.507906	-0.587004	-0.168205
-1.094322	0.680255	12.328583	-12.785908	67.393065	24.83669	-0.014676	0.399049	-0.949922	37.928183	9.389631	18.918166	-98.236764	223.04643	-88.96931	0.422218	-0.245653	-1.031585	9.000989	2.964441	-0.775525	46.707849	10.735027	7.33906	-0.479322	-0.539671	-0.13952
-1.203968	1.65805	12.614724	-16.903031	75.861519	24.250266	0.014322	0.388057	-0.961281	39.11362	11.527168	18.039121	-72.07592	168.443976	-66.805827	0.487989	-0.181852	-1.065678	8.941278	2.790101	-0.837274	51.188307	12.38679	17.768505	-0.507417	-0.555445	-0.154351
-0.975152	0.393929	12.557016	-20.928746	89.374157	23.224295	-0.015433	0.409291	-0.939262	38.205822	14.228748	13.493305	-46.589721	105.688794	-34.272939	0.539887	-0.241762	-1.077116	10.042196	2.085678	-2.01747	52.792241	13.606359	21.669541	-0.506929	-0.523887	-0.140498
-1.364881	0.511515	13.118235	-25.819571	102.307082	21.424796	0.068147	0.431058	-0.934113	33.891545	16.14997	11.026594	-37.717269	44.507424	7.728872	0.541149	-0.161944	-1.125184	10.452278	1.967839	-2.189982	49.296039	15.295525	22.7746	-0.493718	-0.571434	-0.153444
-1.07502	0.167382	13.292914	-28.982836	114.996182	22.805413	0.027314	0.394397	-0.936894	31.075399	17.563798	11.308381	-16.492643	-1.806354	56.890941	0.593267	-0.236102	-1.149968	10.983153	2.082776	-2.179584	48.187339	17.279313	25.795459	-0.465343	-0.540293	-0.123922
-1.945711	-0.351623	12.648656	-36.604118	132.81116	28.115082	0.081896	0.427155	-0.920386	53.351068	63.932822	69.790032	-363.537895	-158.235743	36.805086	0.567905	-0.234109	-1.178116	11.170916	1.73614	-1.638604	47.070742	19.088479	22.030915	-0.451786	-0.554629	-0.15407
-0.619708	0.855867	13.191011	-46.320705	149.174738	33.131077	0.096774	0.416537	-0.931395	47.93605	5.804891	-0.463311	174.249983	-336.846875	112.545757	0.528833	-0.204765	-1.164946	10.987825	1.967613	-1.94045	44.374223	19.318604	13.633592	-0.49288	-0.525335	-0.109372
-1.471341	-1.382525	13.449163	-56.477426	170.043263	36.075174	0.124658	0.394961	-0.900526	4.821659	-2.214673	11.475531	87.090722	-261.054721	15.829534	0.476848	-0.280595	-1.173175	10.695755	1.620326	-1.827622	45.781266	16.582035	15.475543	-0.521534	-0.571842	-0.153584
-2.485384	-1.148394	14.282882	-64.304961	190.801819	46.798407	0.137263	0.415072	-0.879555	-10.160895	-9.665585	25.93059	118.965055	-171.862608	25.650658	0.411673	-0.282042	-1.157446	11.165609	3.071394	-1.752731	52.871857	13.448274	25.154828	-0.507209	-0.539253	-0.155188
-0.556441	-0.394337	16.369476	-77.917503	222.144581	58.660095	0.16549	0.431622	-0.897745	1.143848	4.716917	6.931883	282.493952	-208.833083	12.09689	0.359179	-0.284486	-1.127644	13.438918	3.408404	-3.206003	63.934597	9.499531	29.229927	-0.45116	-0.506051	-0.156582
-1.137619	0.133708	18.860935	-94.033144	263.169998	73.628506	0.207852	0.430498	-0.898793	5.152116	10.792689	6.568512	156.036977	-184.236936	27.993133	0.320401	-0.25407	-1.128824	14.60748	1.834189	-4.029366	38.140685	8.777965	28.012286	-0.493372	-0.538222	-0.170646
0.920396	-0.775227	21.624995	-98.696968	297.338426	80.113776	0.206752	0.402614	-0.839073	5.781163	3.979568	11.161462	107.427067	-150.069054	16.88652	0.306829	-0.316499	-1.110184	14.357751	3.923488	-4.504122	35.097144	12.313225	13.425527	-0.520345	-0.511203	-0.079294
1.159032	-3.301132	22.016802	-76.684939	347.46482	83.839117	0.275454	0.434997	-0.822915	3.629713	1.334978	9.868432	89.581597	-130.171429	-5.619887	0.267236	-0.334188	-1.079654	12.828834	3.928235	-4.233199	33.816122	16.373691	-1.046169	-0.520908	-0.523264	-0.156096
0.476018	-2.725254	22.233266	-65.98651	390.07319	84.716066	0.318244	0.368205	-0.768071	1.079026	1.170017	8.965503	65.488531	-125.587164	-2.665084	0.241724	-0.362836	-1.105794	10.47554	2.192097	-4.104913	8.810214	11.367477	-4.751997	-0.507	-0.52306	-0.156025
-3.534655	-5.837747	18.959631	-57.881783	433.395946	72.308631	0.333122	0.357587	-0.779081	0.011962	0.497095	10.131397	58.582441	-130.647792	11.737582	0.176254	-0.365354	-1.075716	8.533394	2.720721	-3.779561	15.802868	8.552316	3.671431	-0.520837	-0.524091	-0.140568
-11.771244	-7.725902	19.132444	-93.94025	453.338762	71.17349	0.385832	0.390003	-0.709685	3.471092	1.561192	10.54467	64.61272	-134.89469	11.237806	0.187904	-0.339998	-1.006251	7.003511	2.667144	-3.568792	24.870787	7.745637	10.855699	-0.520904	-0.541936	-0.108675
-7.066542	-6.565712	22.695502	-86.490768	445.60921	98.368175	0.413744	0.333828	-0.643832	4.312552	0.432017	9.429063	64.389204	-113.041512	-8.891825	0.123985	-0.321837	-1.048925	6.239468	2.727717	-3.40313	24.370055	7.605955	15.320826	-0.535442	-0.572046	-0.153655
-7.470113	-10.415211	22.387274	-75.82662	440.433544	112.688756	0.440128	0.315437	-0.574151	5.573899	-1.089226	11.775393	18.702625	-45.362887	-4.741595	0.13622	-0.354547	-1.018494	5.404728	3.076333	-3.836401	26.70617	6.479688	15.592841	-0.478972	-0.525131	-0.109302
-5.686343	-11.288776	19.91775	-61.741502	435.662784	138.680031	0.507344	0.333707	-0.501689	1.651073	-1.758243	11.239502	85.582533	-36.502882	22.591173	0.122799	-0.386334	-1.001861	6.351903	3.713998	-3.576447	27.867768	6.813766	13.263993	-0.506858	-0.524713	-0.12497
-1.118066	-13.075674	19.317111	-68.902836	427.065848	163.287395	0.549334	0.329055	-0.48866	3.384252	0.433457	9.069883	54.582903	-29.893542	11.53344	0.084392	-0.339526	-1.018395	7.767575	3.071426	-3.67257	17.237563	8.685067	12.040356	-0.49288	-0.525335	-0.109372
3.360484	-13.70811	20.026693	-91.762576	406.376039	184.400529	0.547133	0.273287	-0.369221	3.043541	-0.748743	9.174913	32.010555	-19.876925	11.645693	0.06994	-0.344961	-0.94637	9.071838	2.895464	-3.349567	4.587546	9.834534	8.932445	-0.521113	-0.558128	-0.107838
6.550025	-12.162887	19.299621	-93.270245	380.309496	209.190972	0.591067	0.18248	-0.321622	1.501148	-0.632697	9.708763	47.275877	-14.462433	10.478661	0.083576	-0.387631	-0.986684	9.599952	2.777355	-3.519879	-3.291045	10.827193	-1.038134	-0.506787	-0.525539	-0.109442
32.033505	-7.94608	2.707122	-1.782866	322.843296	233.690249	0.631171	0.194785	-0.273197	-0.837233	1.003918	8.132513	42.833824	-9.585346	6.30006	0.058145	-0.340748	-1.003493	10.126135	2.542599	-3.810498	-11.930352	11.95365	-9.416661	-0.520699	-0.507072	-0.156933
33.892517	5.112129	7.572078	-151.418022	26.989808	148.841959	0.630456	0.15313	-0.210062	3.443434	-0.411609	9.07038	35.623432	-6.045344	4.263953	0.045018	-0.371464	-1.00121	10.25133	2.776364	-3.38796	-18.323389	13.504104	-13.648754	-0.54872	-0.542344	-0.108815
27.65561	4.99491	19.327825	-61.272191	-151.563104	-1.918134	0.644991	0.104386	-0.172012	5.461611	-0.922261	9.225545	31.535312	-2.022958	4.85557	0.030937	-0.360506	-0.944539	9.77563	2.892855	-3.57599	-20.478341	13.645518	-13.27491	-0.521396	-0.554823	-0.169949
17.816756	1.282131	22.360133	86.917213	-213.547599	-106.09197	0.601086	0.160594	-0.184627	0.827164	1.960653	10.71595	24.097702	-1.651203	3.897602	0.004909	-0.375977	-0.942984	10.491662	2.834889	-3.143683	-22.390634	12.491296	-11.765046	-0.535304	-0.555027	-0.170019
10.232833	-3.523837	11.906054	148.748182	-205.153785	-150.851375	0.603344	0.147165	-0.2341	2.645704	0.99859	9.564398	20.01836	-1.797555	4.293633	0.070304	-0.388778	-0.972059	10.845218	3.066383	-3.136092	-23.388888	11.454251	-12.39824	-0.507138	-0.540079	-0.13966
6.617151	-6.605317	2.502549	97.274097	-200.648932	-148.726628	0.617793	0.202217	-0.301	1.667631	0.718769	9.543609	11.500449	-3.425865	7.014319	0.043762	-0.391072	-0.942808	11.399048	2.779732	-1.929286	-27.884371	9.871377	-14.696934	-0.492883	-0.506664	-0.156792
6.358561	-5.749801	1.023534	5.143513	-229.57136	-126.34097	0.589909	0.223793	-0.331869	3.330337	1.05339	9.295754	3.049256	-2.632292	5.227359	0.068603	-0.440099	-0.897299	11.045356	2.606314	-1.93663	-32.309578	7.21681	-13.904256	-0.507276	-0.557098	-0.123296
7.528	-3.090184	5.319772	-45.521366	-275.095005	-107.508275	0.589909	0.223793	-0.331869	4.675623	0.03772	10.228939	-1.090617	-2.59926	6.210867	0.030786	-0.391147	-0.942532	10.3567	2.728537	-0.871017	-31.668831	6.272633	-8.156757	-0.520837	-0.524091	-0.140568
7.852358	-0.944024	10.279374	-39.866178	-320.157772	-101.536029	0.562383	0.266198	-0.394306	1.331932	1.339479	10.046634	-6.37244	-4.939781	6.892399	0.043687	-0.406393	-0.941804	9.297846	2.673633	-0.711352	-28.12249	5.665923	-1.504257	-0.50728	-0.538427	-0.170716
8.506648	0.611991	11.605759	-1.97571	-359.720563	-106.614532	0.534527	0.253176	-0.390192	1.171648	1.171285	10.609261	-10.395318	-5.368188	8.333845	-0.009178	-0.425229	-0.896648	9.180509	2.848378	-0.652904	-23.877331	6.637231	6.605623	-0.465347	-0.521622	-0.171343
6.967418	0.671999	11.917054	35.085674	-392.944119	-112.355005	0.548962	0.325527	-0.474584	2.694029	0.772781	9.1123	-14.71543	-5.338385	4.75456	0.004909	-0.375977	-0.942984	8.943884	2.616367	-0.718202	-21.023828	8.139677	13.159654	-0.507213	-0.520582	-0.202609
5.118455	-0.709132	10.965982	46.617667	-409.496141	-114.007292	0.480989	0.317499	-0.536386	2.078704	0.267655	9.89153	-11.600098	-5.611895	5.740856	0.004319	-0.378121	-0.914285	9.182419	2.500169	-0.59448	-20.193982	9.889733	15.777007	-0.549913	-0.584311	-0.230527
3.742039	-0.593737	10.826034	33.15334	-408.450216	-111.312295	0.495081	0.351724	-0.571719	3.327765	-0.129741	9.0682	-10.899831	-6.401203	5.887714	0.043687	-0.406393	-0.941804	9.287516	2.380781	-1.311657	-20.373803	11.183364	14.854486	-0.507209	-0.539253	-0.155188
2.50599	-0.817525	11.994487	15.482927	-397.98912	-109.864006	0.409572	0.398812	-0.593947	2.361026	-0.014773	9.614139	-6.574692	-6.318679	6.354441	0.030861	-0.375827	-0.943536	8.461965	2.092291	-1.328299	-17.863696	10.636755	12.372139	-0.53482	-0.504797	-0.203586
3.548321	-0.126318	12.64281	0.860099	-382.135167	-113.12431	0.397695	0.403058	-0.660562	1.632495	1.001431	10.61879	-3.824319	-6.308622	5.462729	0.01781	-0.391222	-0.942256	8.996702	2.440521	-1.077284	-11.449415	9.442887	8.747879	-0.535442	-0.572046	-0.153655
2.83515	-0.061583	14.220462	-8.640537	-367.092524	-121.537789	0.382417	0.444745	-0.67046	2.073198	-0.014234	9.608095	-0.20714	-6.049105	5.622362	-0.008362	-0.377124	-0.928359	8.93479	2.265686	-1.258847	-6.286102	6.943372	3.759109	-0.562703	-0.523051	-0.171834
2.038705	-0.979102	14.428425	-4.296146	-357.640543	-130.788276	0.327049	0.456828	-0.711291	2.262341	-1.027938	10.290543	3.193261	-5.852053	5.534572	0.004464	-0.40769	-0.926627	8.815002	3.020944	-1.257834	-7.370498	3.744715	-3.801291	-0.507213	-0.520582	-0.202609
1.038894	-1.948349	15.939313	1.610051	-354.609129	-137.815354	0.272424	0.475968	-0.780274	3.639314	-0.523692	10.150065	8.696804	-5.558361	4.123814	-0.008732	-0.393516	-0.913005	8.756256	2.904927	-1.259429	-8.62538	1.231992	-9.713633	-0.535028	-0.52099	-0.202749
0.46751	-3.556297	15.921422	7.829793	-353.13339	-140.541025	0.214785	0.51878	-0.789125	2.141212	0.211407	10.11925	10.593957	-7.089374	2.7845	0.01722	-0.393366	-0.913557	8.648243	2.384491	-0.7846	-11.641761	-0.841196	-11.404192	-0.562773	-0.522224	-0.187362
0.01253	-4.704314	16.021394	5.802619	-349.927628	-139.071207	0.159417	0.530863	-0.829956	3.229319	-0.635883	9.80167	12.43068	-8.413564	2.526186	-0.03535	-0.41113	-0.882751	8.76668	2.209993	-0.78314	-11.571633	-1.602225	-8.772619	-0.56347	-0.569975	-0.200378
-0.548749	-6.424974	16.514697	-5.181904	-345.293547	-134.237563	0.117784	0.556343	-0.874552	2.894829	-0.015127	10.361334	12.022026	-8.856244	3.785415	0.004024	-0.379193	-0.899935	8.585365	2.151333	-1.026317	-8.375746	-1.908661	-4.656965	-0.548448	-0.489635	-0.188966
-0.24752	-6.179693	20.215567	-20.495609	-344.865704	-132.099419	0.07578	0.578294	-0.905072	3.163769	0.377937	9.518117	9.046146	-9.548139	5.348388	-0.047515	-0.42331	-0.924521	7.927654	2.034688	-1.518171	-8.760755	-2.188544	-1.384086	-0.548657	-0.505828	-0.188129
-0.661259	-7.376224	22.418862	-3.707687	-346.74739	-146.542917	-0.010058	0.569956	-0.860749	2.759261	-0.464025	12.056516	-9.574764	-13.727829	8.158898	-0.034759	-0.408987	-0.91145	7.383033	2.149089	-2.246463	-10.916601	-1.82491	4.123365	-0.520841	-0.505419	-0.187988
-6.400877	-10.879632	21.439997	12.292109	-348.824558	-165.777453	-0.03797	0.626132	-0.926602	3.116044	-0.973604	9.855607	-12.880044	-28.505232	5.882146	-0.008952	-0.379268	-0.899659	7.200752	2.032106	-2.549793	-10.586952	-0.991662	12.401281	-0.535375	-0.554201	-0.185547
-12.741301	-14.433754	21.926823	-5.784645	-344.567394	-171.304801	-0.107444	0.62129	-0.949592	2.859122	2.07259	14.268803	-18.516836	-34.983644	0.757364	-0.034389	-0.392594	-0.926804	7.202008	2.439132	-2.428249	-12.321412	0.017382	20.716951	-0.576193	-0.49087	-0.173578
-22.042207	-12.147031	17.606928	-37.484211	-327.739684	-145.645733	-0.151706	0.656671	-0.93064	2.349851	0.381498	11.822207	8.543952	-48.004169	-9.862586	-0.021853	-0.364022	-0.900387	7.898232	2.376716	-3.074267	-14.582468	0.684365	23.473103	-0.549283	-0.554405	-0.185617
-31.843226	-4.73877	28.870426	-122.228156	-298.481888	-98.185106	-0.250164	0.645522	-0.92478	2.91508	0.774354	11.381511	1.190026	-55.460188	-9.634343	-0.034314	-0.377274	-0.927807	8.536115	2.024055	-3.722621	-17.07535	-0.17472	19.909757	-0.563053	-0.537591	-0.202053
-34.17144	3.494964	33.065296	-50.445685	-265.455201	-50.728366	-0.307404	0.657263	-0.912723	2.803599	1.394395	11.606173	-2.612195	-62.819156	-8.015034	-0.060341	-0.392744	-0.926252	8.288081	1.9638	-4.386246	-23.753847	-0.721225	17.216059	-0.52105	-0.521612	-0.187151
-36.91901	3.874353	27.216749	52.572795	-238.390671	-21.22992	-0.307018	0.643492	-0.909307	2.698893	1.000676	12.05654	-7.815475	-71.140062	-7.485374	-0.048175	-0.380565	-0.884482	7.998482	1.500856	-4.154099	-25.207233	-1.152796	17.039981	-0.562565	-0.506032	-0.188199
-35.711246	-2.921732	9.707828	148.848602	-173.374219	8.530898	-0.362371	0.638275	-0.932646	3.462828	0.436539	12.751457	-8.261021	-81.853772	-7.160627	-0.087323	-0.366541	-0.870309	8.772834	1.26828	-3.78134	-26.961422	-2.065431	18.915296	-0.576681	-0.522428	-0.187432
-41.470653	-14.582619	21.992511	92.194977	-125.604386	33.449174	-0.389884	0.663381	-0.977591	3.653633	-0.182756	13.547517	-11.157767	-93.771184	-10.61077	-0.047434	-0.34778	-0.915189	9.310582	1.268548	-3.411995	-32.281179	-3.356	17.656899	-0.562356	-0.489839	-0.189036
-39.314307	-12.774857	15.279255	37.070257	-56.734178	51.957426	-0.433331	0.619321	-0.899332	3.579467	-0.352304	12.753211	-12.842723	-105.40914	-17.047361	-0.087178	-0.39611	-0.882651	9.72273	1.209279	-3.464446	-38.655129	-3.551986	13.707252	-0.520491	-0.49088	-0.15777
-36.700052	-2.165078	11.85134	-6.917804	25.60175	48.638909	-0.390241	0.642553	-0.946024	3.474438	-0.577031	13.20372	-18.001899	-118.166875	-23.343649	-0.113275	-0.366691	-0.869758	10.084935	1.035972	-3.039237	-44.920439	-4.774934	8.539634	-0.562427	-0.489013	-0.204564
-32.807275	2.555379	15.015798	-17.150688	117.543358	3.524169	-0.40439	0.677526	-0.980658	3.546964	-0.182208	13.941576	-25.983564	-134.215567	-29.428205	-0.111429	-0.344939	-0.95686	9.849971	1.036759	-2.983732	-48.633918	-6.034172	7.76441	-0.561868	-0.458281	-0.175182
-30.924721	4.953004	11.880018	14.204188	209.830604	-58.067233	-0.404362	0.642927	-0.945675	3.631879	-0.575587	15.188524	-33.959396	-154.596552	-34.97001	-0.099193	-0.377649	-0.926429	9.855493	1.502851	-2.622313	-54.734797	-7.427541	10.268934	-0.534958	-0.521816	-0.187221
-0.213432	1.591178	10.587814	22.579178	262.097433	-92.770236	-0.346736	0.617415	-0.954316	3.990438	-1.139064	15.761699	-45.275628	-180.031767	-39.578195	-0.151983	-0.381165	-0.882276	9.343866	1.159813	-1.615283	-61.973586	-7.118791	16.376346	-0.534331	-0.473239	-0.189733
11.243389	-1.103553	13.924977	-41.984808	239.323115	-114.558653	-0.333373	0.627284	-0.944005	3.37076	-1.022312	19.089024	-57.914972	-210.077702	-46.483396	-0.151983	-0.381165	-0.882276	10.105904	2.435236	-1.715352	-67.854238	-4.352197	24.85176	-0.562076	-0.474473	-0.174345
-2.399108	5.567116	13.119428	75.548461	227.3668	-138.693437	-0.318895	0.647737	-0.975922	2.890923	-0.794502	20.8908	-46.414987	-250.631502	-43.917575	-0.191131	-0.367141	-0.868103	12.085989	4.342209	-2.867916	-65.195742	-5.074482	21.666444	-0.56173	-0.441262	-0.191547
-6.150566	7.816344	14.533529	50.874837	251.673198	-87.989163	-0.30436	0.598992	-0.937871	3.672138	-3.05037	19.546478	-40.636698	-289.870595	-48.37137	-0.217083	-0.367292	-0.867552	13.509539	4.573003	-2.421168	-64.232204	-10.10152	2.33879	-0.548448	-0.489635	-0.188966
-7.5443	3.516744	16.250039	49.667053	203.900023	-45.99486	-0.274633	0.612356	-0.994874	2.803282	-2.767291	19.302023	-39.534645	-323.442435	-60.848603	-0.256821	-0.355412	-0.824679	12.338945	3.706294	-2.027537	-81.715937	-11.96617	-18.584309	-0.561939	-0.457454	-0.19071
-3.166409	0.392127	11.71876	40.087478	163.778036	5.0619	-0.259784	0.636338	-1.040867	3.061109	-3.273653	20.552503	-36.077531	-358.206939	-65.937682	-0.283363	-0.357706	-0.795428	10.988932	5.279924	-1.447103	-82.53675	-13.518823	-25.479919	-0.603595	-0.440222	-0.222814
0.591683	-0.247049	10.709387	30.542075	146.277991	5.786143	-0.260898	0.625753	-0.998639	6.987177	-6.437638	18.197759	-15.421051	-390.4423	-63.528322	-0.322291	-0.357931	-0.794601	10.484582	4.64799	-0.081868	-75.023321	-15.526572	-23.939154	-0.520565	-0.471382	-0.220718
2.023991	-0.018078	10.795043	27.903788	135.832097	-16.825799	-0.219666	0.631344	-0.97495	10.036673	-7.570103	18.090964	0.712767	-398.062302	-74.779974	-0.387391	-0.344057	-0.779876	9.866446	3.610534	1.459156	-87.176207	-12.197614	-24.705501	-0.548172	-0.455598	-0.221696
-2.447054	1.018137	10.485122	30.94537	128.20607	-25.761396	-0.176161	0.606206	-0.983242	9.416741	-5.42531	21.589915	35.252626	-385.077667	-99.189115	-0.375526	-0.393159	-0.734092	9.227267	2.626458	1.862197	-94.026242	-7.264715	-21.984639	-0.548448	-0.489635	-0.188966
2.409294	-7.892442	9.689569	85.977778	74.025673	8.745128	-0.175046	0.616791	-1.02547	7.832198	-9.817698	19.741108	89.187387	-379.872165	-108.833737	-0.415189	-0.365959	-0.692222	7.539759	3.21682	3.210615	-87.168267	-1.888319	-10.086586	-0.548031	-0.45725	-0.19064
-0.932865	-0.471113	11.758567	49.789991	37.687731	-4.683067	-0.188767	0.586095	-1.004213	8.197959	-11.22828	17.879278	109.291741	-366.108984	-120.793699	-0.481921	-0.448296	-0.614077	7.604027	3.798929	3.573629	-66.463061	2.065321	5.161799	-0.54859	-0.487983	-0.220021
-1.525571	-1.853879	10.661431	40.368352	35.434565	-4.968584	-0.160168	0.606174	-1.036479	12.220739	-10.841748	17.681035	119.578025	-343.824067	-120.749276	-0.482437	-0.435119	-0.586381	7.425878	3.799087	3.510421	-48.516398	4.236605	14.347694	-0.56236	-0.471168	-0.236457
-2.351718	-0.19256	9.458926	44.164388	29.009806	-3.274493	-0.133442	0.62591	-1.015858	8.089575	-12.46953	15.384883	110.025161	-307.259506	-135.526897	-0.496744	-0.470123	-0.526699	7.470994	3.62151	2.73199	-40.147738	6.819765	18.859521	-0.590034	-0.473229	-0.205541
-0.551919	-0.762953	10.741799	37.551041	22.569614	-7.193744	-0.146019	0.5712	-1.001845	-6.238154	-14.977519	15.13837	96.835144	-251.386002	-157.450116	-0.510461	-0.502982	-0.495717	8.574579	4.13792	1.85652	-27.833301	8.735329	24.216326	-0.562084	-0.437131	-0.269186
-1.652908	-1.052268	10.037199	34.770296	18.804977	-7.001574	-0.201758	0.579755	-1.0286	-23.678638	-21.730986	-15.40923	3.119197	-137.896285	-203.610323	-0.485545	-0.536689	-0.451212	9.617217	4.537819	0.859641	-14.456778	11.216148	25.562199	-0.604013	-0.472607	-0.221139
1.945824	1.183893	9.775641	28.582337	14.415363	-7.300461	-0.159397	0.578632	-1.029648	-24.00907	-6.662349	16.301057	-95.595698	155.084775	-154.428457	-0.499852	-0.571692	-0.39153	10.136372	4.010952	0.148437	-6.648786	9.887965	17.653669	-0.562151	-0.454976	-0.237294
-1.937326	-0.534605	10.147509	26.784883	10.834699	-6.678762	-0.145662	0.592028	-1.033413	-13.314755	-8.08417	23.88425	-53.289864	139.372002	-119.539652	-0.498081	-0.565261	-0.477628	10.482091	4.298792	-0.263072	-8.268738	4.190711	6.010604	-0.575571	-0.423621	-0.22351
-0.850813	-0.248426	10.113019	23.642437	8.114411	-6.591252	-0.201744	0.562456	-1.011108	-14.983394	-6.287767	13.26394	46.230414	107.715486	-89.415215	-0.472424	-0.566183	-0.46383	10.89833	3.426953	-0.199171	-9.03682	-1.198711	-2.549181	-0.561454	-0.407225	-0.224277
-2.227022	-0.420238	9.971865	23.662408	5.891839	-5.73803	-0.159754	0.557804	-0.99808	-16.098612	-5.899317	4.182593	67.822082	144.105082	-41.196818	-0.433351	-0.595527	-0.477	11.070281	3.251084	-0.496145	-7.146572	-5.842813	-5.345559	-0.562498	-0.488187	-0.220092
-1.466835	-0.81949	10.780595	28.949282	3.79857	-6.001956	-0.146033	0.5885	-1.019337	-14.883478	-6.014004	4.491083	21.623462	204.216665	2.861107	-0.420376	-0.595452	-0.477275	10.896669	3.194155	-0.319973	3.781024	-10.615745	-7.348841	-0.575571	-0.423621	-0.22351
-0.807749	0.897469	9.436722	37.588677	3.029821	-5.149925	-0.172388	0.572292	-1.054035	-11.745451	-5.396619	8.690368	0.730624	242.4833	34.208711	-0.419119	-0.575844	-0.535678	10.607725	1.975975	-0.150947	13.978284	-13.449504	-4.866211	-0.548385	-0.453119	-0.268279
-0.518136	0.897985	9.612848	21.963109	2.700215	-4.159563	-0.14489	0.564486	-1.026581	-10.083391	-4.724015	8.442797	-1.809958	262.938105	52.230565	-0.354164	-0.560148	-0.53806	9.901752	2.442945	0.017547	19.024509	-13.997428	-0.419784	-0.561805	-0.421764	-0.254496
-1.334464	1.29752	8.859859	11.767581	2.970101	-2.316382	-0.131141	0.560583	-1.012854	-8.836102	-5.459489	7.505904	-19.184223	284.429156	60.477698	-0.365595	-0.599753	-0.620872	10.082663	2.675833	0.261464	19.368419	-13.632633	-0.08658	-0.575571	-0.423621	-0.22351
-0.514014	1.358482	9.842191	1.625918	3.322595	-2.312128	-0.145633	0.557429	-0.998429	-8.052461	-4.560516	6.560714	-54.549149	306.991493	61.47565	-0.339863	-0.585354	-0.608077	9.67173	2.212418	0.31169	15.68282	-12.090409	0.347287	-0.603595	-0.440222	-0.222814
-2.07931	2.044799	8.84852	-4.773047	3.837163	-1.518638	-0.129612	0.522798	-1.016683	-7.04747	-4.448644	7.827432	-92.761093	324.657045	61.250942	-0.338312	-0.564675	-0.68083	9.131356	1.921028	-0.238612	16.733383	-10.100447	3.48201	-0.56208	-0.455802	-0.221766
-0.921802	0.265695	9.43184	-10.967145	4.34877	-3.087249	-0.144533	0.585314	-1.058149	-6.015121	-1.575296	10.625742	-123.765366	331.468898	63.945428	-0.298938	-0.532737	-0.698014	8.65444	2.560202	-0.424417	21.572907	-9.859239	8.445318	-0.603942	-0.473433	-0.205612
-1.366144	-0.190611	10.103239	-15.751689	4.554431	-4.204873	-0.159768	0.575103	-1.015572	-5.187399	-0.336585	11.776502	-136.395379	332.658757	68.140301	-0.232432	-0.496361	-0.773148	8.648243	2.384491	-0.7846	21.986814	-11.403866	13.036018	-0.561313	-0.408877	-0.193221
-1.096248	0.897193	9.317448	-17.151575	5.050812	-2.475338	-0.172731	0.534165	-1.004975	-5.080622	-0.393463	11.382395	-155.033504	333.147391	74.358343	-0.179717	-0.508166	-0.816297	8.641755	1.860076	-1.206173	22.055528	-13.155613	16.83438	-0.589758	-0.439191	-0.238271
-0.267009	-0.418752	10.691961	-14.430767	4.771183	-3.80646	-0.144505	0.550715	-1.023165	-3.900302	-0.394481	12.765924	-187.889597	331.92174	85.943761	-0.16585	-0.444665	-0.849287	8.871487	1.7419	-1.561707	21.457169	-15.40033	17.794843	-0.561246	-0.391032	-0.225114
-2.061981	-0.364368	9.634329	-13.442667	5.130283	-2.546058	-0.158625	0.55109	-1.022816	-2.739519	2.087196	18.850208	-209.226908	335.166836	100.666685	-0.11232	-0.408365	-0.924146	8.459724	1.162085	-1.571882	14.924424	-17.26712	15.65716	-0.576126	-0.473025	-0.205471
-1.481684	-0.305653	10.043676	-11.667773	5.021568	-3.074298	-0.158611	0.53379	-1.005324	-0.259746	2.763486	24.564303	-149.785512	337.909939	105.120314	-0.073172	-0.422388	-0.938319	8.285842	1.221308	-1.395216	8.332659	-18.052253	12.414187	-0.548243	-0.454772	-0.237223
-2.554669	-0.818703	10.759438	-10.377959	5.114209	-2.585809	-0.131127	0.543284	-0.995363	2.908713	2.302241	19.308709	-86.283197	345.90506	90.944034	0.00528	-0.359585	-0.958338	8.223524	1.220702	-1.576037	5.61769	-18.027957	12.08768	-0.548239	-0.473443	-0.189803
-1.143274	0.612198	9.826806	-9.582992	5.217424	-3.230458	-0.159368	0.544033	-0.994664	5.149069	0.718114	16.297199	-91.70286	349.65811	63.165853	0.05844	-0.339676	-1.017843	8.170551	0.989769	-1.278592	2.707427	-18.198658	15.76699	-0.575291	-0.408255	-0.20882
-2.696151	-0.479761	9.394185	-10.218584	5.785796	-2.115327	-0.16014	0.571575	-1.001496	4.733189	1.396745	18.440402	-118.913302	347.723985	29.981406	0.12413	-0.351406	-1.061267	7.93105	1.047643	-1.462467	-0.020797	-17.61792	17.822087	-0.561171	-0.41053	-0.162166
-0.793683	-0.076142	10.114857	-9.234751	6.532788	-2.535375	-0.186852	0.534539	-1.004626	4.655363	2.750458	20.308229	-119.993518	342.556702	-0.961598	0.202576	-0.348812	-1.091621	7.761974	0.933627	-1.046915	-5.028112	-16.025632	18.871914	-0.58899	-0.392267	-0.209727
-0.906172	0.211631	10.227542	-11.958745	7.103595	-2.487589	-0.145262	0.560958	-1.012505	4.198837	3.821837	20.582656	-116.78431	339.797098	-26.788912	0.240983	-0.39562	-1.075088	7.936707	1.455659	-1.101295	-10.925053	-13.04784	18.726223	-0.617295	-0.424233	-0.223721
-1.149665	0.20866	9.483998	-15.330938	7.371388	-3.0869	-0.131527	0.574354	-1.01627	4.671279	5.173476	21.273141	-127.510988	335.093546	-49.038944	0.358137	-0.378552	-1.092923	7.760759	1.456311	-1.044689	-14.430123	-10.377951	16.647605	-0.589266	-0.426304	-0.176997
-0.451601	0.3829	10.066615	-20.787197	7.659833	-3.64921	-0.117407	0.57398	-1.016619	7.642134	7.084735	23.148875	-136.782427	321.409023	-66.228697	0.358207	-0.423442	-1.104262	7.64935	1.92292	-0.625564	-14.531343	-8.15738	11.86902	-0.589337	-0.425478	-0.192525
-1.257819	-0.88144	9.761452	-24.868609	7.1222	-3.983556	-0.131141	0.560583	-1.012854	11.580745	9.613417	24.592565	-140.104846	302.333295	-76.007552	0.397725	-0.421073	-1.133788	8.066594	2.039116	-0.377739	-15.899608	-7.708725	3.497091	-0.574874	-0.37587	-0.210494
-2.27586	-1.280131	10.365104	-31.228331	8.297686	-1.830023	-0.157868	0.540847	-1.033476	17.050498	10.955253	24.878469	-138.292353	276.912736	-79.526537	0.410556	-0.391429	-1.121722	8.246289	2.794688	-0.131596	-18.048671	-8.982385	-4.221432	-0.575217	-0.427752	-0.145871
-1.559447	-0.297608	11.917601	-35.238973	29.911818	-4.165999	-0.160125	0.554276	-0.984004	23.497848	11.562865	25.071028	-131.760908	246.627863	-75.014414	0.410706	-0.360788	-1.123729	8.536023	3.199556	-0.363991	-18.192959	-11.367944	-10.199502	-0.589057	-0.410112	-0.177834
-1.158873	-0.010691	11.926602	-36.786786	33.99564	0.934425	-0.146777	0.581443	-0.991185	27.526967	11.552936	22.43816	-100.261476	212.272236	-60.689771	0.436959	-0.299356	-1.128295	8.590388	3.779439	-0.540139	-14.076077	-13.81258	-14.908955	-0.602757	-0.394123	-0.178741
-1.35286	-1.623996	10.72259	-30.076095	43.433355	0.700505	-0.145276	0.578257	-1.029997	31.240671	11.429794	18.496441	-71.479026	172.164612	-34.895309	0.450086	-0.26864	-1.130578	8.706469	3.197667	-0.720131	-10.798546	-15.964178	-15.705094	-0.60269	-0.376278	-0.210634
-0.864765	-0.066651	12.3299	-30.933682	51.229794	3.865787	-0.132284	0.584597	-1.00561	33.859963	11.027001	14.474877	-46.85569	126.673657	-1.233595	0.450016	-0.223751	-1.119239	9.364139	2.384601	-0.352046	-9.67132	-16.921047	-5.589159	-0.630714	-0.392879	-0.209937
-1.295419	0.571569	13.744974	-35.928797	60.068344	5.557188	-0.089151	0.555931	-0.999826	34.826612	11.980024	11.325626	-36.885089	75.744717	32.272128	0.474932	-0.257457	-1.074734	9.730881	2.154206	0.312544	1.871619	-14.71829	10.159817	-0.574803	-0.376696	-0.194966
-1.158252	-0.872314	11.922983	-14.393112	73.776756	11.329997	-0.118521	0.563395	-0.974392	34.566691	12.3173	9.961724	-21.656021	27.321985	60.691299	0.488354	-0.22567	-1.091367	10.079591	1.629229	-0.04252	14.170405	-12.607342	23.218419	-0.574941	-0.393715	-0.178601
-0.860353	-0.008244	12.557554	-19.252894	84.144212	13.659111	-0.061282	0.551654	-0.986448	34.076762	10.626966	8.421361	0.321419	-9.098782	74.714598	0.475158	-0.211496	-1.077745	10.19102	1.627475	-0.399761	23.214072	-9.666713	31.822822	-0.588916	-0.411764	-0.146778
-1.040159	0.334841	12.15769	-24.201877	95.441102	15.236939	-0.077331	0.620883	-1.003178	33.93335	9.612047	7.0021	19.832084	-39.487535	70.111568	0.487543	-0.213565	-1.049321	10.716954	1.973727	-0.628001	25.046423	-5.269553	39.071219	-0.588987	-0.410938	-0.162306
-1.147697	-0.06572	12.494892	-31.324014	107.468399	16.495575	-0.076145	0.544972	-0.957947	30.595372	7.928288	6.817281	30.539201	-66.19843	52.681278	0.461441	-0.244356	-1.046762	11.468913	2.37529	-1.390754	21.354098	-0.916955	39.858701	-0.589266	-0.426304	-0.176997
-1.022794	-0.580605	13.006625	-40.66743	121.813612	18.28892	-0.006714	0.601711	-0.987433	14.667542	-31.392671	98.106419	38.466769	-87.866815	36.871864	0.475378	-0.225745	-1.091091	11.641384	1.502261	-1.750603	13.709756	0.599287	32.57251	-0.602824	-0.411968	-0.146849
-1.347433	-0.518814	13.966688	-48.305852	137.110874	23.4352	-0.020435	0.571015	-0.966176	-31.422562	-26.952126	-12.066397	285.303565	-283.035204	-55.654922	0.475082	-0.226817	-1.076741	11.341881	1.037092	-2.057617	12.363958	-1.016547	25.676279	-0.588849	-0.393919	-0.178671
-1.405676	-0.691338	13.907997	-57.172652	154.538529	32.452298	-0.005557	0.560398	-0.977185	-14.22865	-15.074772	15.479993	-19.509694	-202.524574	-47.117303	0.449125	-0.287177	-1.086525	12.338573	1.498169	-2.336466	33.961445	-4.29121	21.456349	-0.602619	-0.377104	-0.195106
-1.787196	-1.146479	14.864775	-65.667953	173.362561	40.264145	0.020384	0.624976	-0.980887	-0.423358	-0.911789	8.4792	211.248047	-243.148888	3.282543	0.410863	-0.269937	-1.115401	13.105088	1.321938	-2.382809	49.022537	-9.203212	19.530042	-0.58892	-0.393093	-0.194199
-1.419333	-2.462817	16.059821	-71.683158	198.564735	52.556414	0.034919	0.576232	-0.942837	2.91751	7.475918	9.405977	81.051196	-217.665029	27.261626	0.385131	-0.284336	-1.128195	13.523008	1.147754	-2.13622	34.831406	-12.072268	17.027474	-0.588431	-0.361534	-0.180345
-1.122625	-3.035268	16.574653	-74.899216	230.292031	64.455372	0.020441	0.555778	-0.91092	7.060295	2.008344	14.300367	64.486292	-179.453115	57.348633	0.385721	-0.282192	-1.156895	13.770252	2.021321	-1.409227	17.007012	-12.234251	5.844632	-0.574661	-0.378349	-0.16391
-1.438149	-3.258754	17.988334	-76.926247	258.163029	80.79348	0.146011	0.572893	-0.892742	5.971945	2.740589	11.90036	100.143694	-151.444354	25.345077	0.385791	-0.327082	-1.168234	13.528746	3.415191	-1.527509	30.319001	-11.182168	-8.511869	-0.602686	-0.394949	-0.163214
0.597177	-2.046936	19.681113	-77.247107	293.016283	90.985946	0.146754	0.579949	-0.920894	4.521902	2.515151	8.642699	66.869366	-126.132371	-1.066335	0.333592	-0.328454	-1.152781	12.574564	2.950271	-2.146163	25.420626	-10.404753	-14.395937	-0.574941	-0.393715	-0.178601
0.964734	-2.029532	23.836956	-63.850632	329.291073	86.571824	0.200593	0.605651	-0.876235	2.370134	-0.352424	10.010332	37.761757	-111.281705	-10.683761	0.359023	-0.375337	-1.135972	11.925116	3.067908	-2.157774	12.234938	-10.105562	-18.291716	-0.602339	-0.361738	-0.180416
0.74406	-2.154906	21.331597	-35.512818	373.505198	80.527284	0.243369	0.556158	-0.838883	1.558151	-0.970836	9.653048	38.491552	-104.718806	-8.799136	0.332851	-0.361238	-1.122074	10.617512	2.313418	-2.784266	12.935823	-6.485781	-25.003638	-0.630573	-0.394531	-0.178882
-2.25282	-0.248695	23.270404	-10.116366	407.504927	61.41895	0.270853	0.565651	-0.828921	2.817599	0.153214	9.454034	37.091802	-98.116424	-7.748169	0.268781	-0.373718	-1.162741	9.091315	1.6215	-2.456403	3.460415	-2.089948	-27.434822	-0.57459	-0.379175	-0.148382
-8.066193	-2.491725	21.49979	-5.187977	433.215919	42.048521	0.327735	0.533082	-0.80941	3.172578	0.82896	9.971613	25.073294	-94.263379	-15.118124	0.281613	-0.344074	-1.150675	7.322896	1.684121	-2.369355	-1.582182	0.10398	-22.446277	-0.574665	-0.359677	-0.211331
-5.268183	-4.50614	21.091081	-22.522884	446.797281	46.765124	0.381616	0.506886	-0.712276	2.484248	-1.085032	9.898854	21.337794	-83.726624	-33.974764	0.320095	-0.375562	-1.135145	6.904166	2.206762	-2.614461	3.767345	1.246066	-15.687174	-0.588498	-0.379379	-0.148453
-3.213306	-4.151843	23.746743	-24.170426	444.17396	52.858921	0.395751	0.489212	-0.695133	3.352996	-1.311781	10.143356	20.471993	-76.41319	-32.854694	0.306314	-0.303322	-1.082488	6.4831	2.786984	-2.979133	5.947999	2.267086	-13.102397	-0.588778	-0.394745	-0.163143
-0.256895	-6.169277	22.659137	-14.139199	447.701533	57.02628	0.436241	0.487746	-0.643293	4.724086	-5.314546	9.319409	22.864944	-57.624078	-26.007547	0.281763	-0.313433	-1.152682	6.899515	2.78678	-2.791709	-1.921802	3.339405	-15.982151	-0.616523	-0.39598	-0.147756
2.945667	-9.689325	19.46726	-7.89426	440.410111	66.730398	0.491994	0.461892	-0.599046	2.687297	-0.520817	11.375585	51.696594	-20.063634	-1.349911	0.281173	-0.315577	-1.123982	7.845974	2.785114	-2.654288	-11.858171	5.865693	-21.153142	-0.561104	-0.392685	-0.194059
5.147169	-10.90421	17.856879	-26.452601	428.241361	82.403341	0.505015	0.433633	-0.539675	2.714533	-0.46578	9.960851	52.877717	-16.899954	0.162241	0.280657	-0.302401	-1.096286	9.030969	2.667251	-2.393146	-21.736376	10.079699	-23.857083	-0.547125	-0.393307	-0.178461
7.8706	-8.338742	13.828876	-26.274447	402.593205	106.38339	0.531027	0.411714	-0.455918	1.64939	0.774389	8.694063	39.343904	-20.206348	-3.519227	0.280657	-0.302401	-1.096286	9.557732	3.129902	-2.560985	-30.511983	13.349768	-26.59101	-0.589266	-0.426304	-0.176997
16.750334	-18.689892	-0.761111	2.296451	196.417585	266.350061	0.602015	0.39607	-0.454248	2.610067	-0.352476	10.468284	42.162249	-14.054479	3.788811	0.268202	-0.255442	-1.113371	9.255104	3.535626	-2.924198	-32.920455	15.73927	-30.718731	-0.589195	-0.42713	-0.161469
25.288184	-1.524524	12.150495	-3.070285	-61.484848	237.10012	0.630685	0.329652	-0.399056	1.675507	-0.238612	9.826001	40.795945	-12.115851	4.793494	0.215042	-0.275351	-1.053866	9.303811	3.707494	-3.461518	-34.644125	14.668735	-34.282308	-0.589195	-0.42713	-0.161469
19.865518	0.5761	18.816691	53.948884	-200.978772	195.438582	0.644448	0.30845	-0.367837	2.761004	-0.353653	9.452398	32.376382	-8.843058	3.771096	0.24144	-0.243488	-1.070774	9.833721	3.764107	-3.511274	-35.958484	13.272922	-35.829159	-0.588778	-0.394745	-0.163143
16.411167	1.423763	14.888605	127.206809	-242.562006	143.389875	0.590224	0.296519	-0.415912	1.903782	-0.46446	9.717368	29.856791	-7.688468	5.198654	0.240994	-0.2752	-1.054417	10.616722	3.12673	-2.720898	-36.583105	12.975504	-36.864314	-0.588707	-0.395572	-0.147616
13.716403	0.250983	8.750391	145.061452	-255.311099	94.894795	0.621509	0.2375	-0.441759	1.834868	1.675923	9.378123	26.329018	-8.223816	5.190492	0.201991	-0.290746	-1.052587	11.21142	3.068292	-2.470513	-36.513185	11.714628	-39.150071	-0.561171	-0.41053	-0.162166
11.907718	-1.663368	3.990217	118.135885	-275.60904	55.988172	0.59401	0.245306	-0.469213	1.896683	0.718291	9.491805	21.668639	-5.52344	5.213593	0.228314	-0.274204	-1.068491	11.402484	2.722398	-1.749813	-32.472554	10.448825	-42.550034	-0.61722	-0.443731	-0.160773
11.037109	-2.297257	3.345476	67.086517	-308.624478	26.717321	0.60996	0.297171	-0.574925	2.35686	0.266737	9.444457	16.386538	-3.366219	2.672041	0.214892	-0.305991	-1.051859	11.418586	2.900334	-0.850468	-25.115922	7.482228	-45.984348	-0.533914	-0.440854	-0.191407
10.167929	-2.458786	5.714766	21.764713	-337.41786	1.633575	0.625595	0.276311	-0.596595	3.462214	-0.748881	9.91969	13.812812	-4.164991	2.600371	0.228094	-0.259955	-1.055145	10.489193	3.13826	-0.028389	-19.760035	3.571226	-47.512655	-0.561517	-0.443741	-0.144964
9.29413	-2.391514	7.857609	3.23959	-360.189281	-19.936725	0.540872	0.278559	-0.5945	1.88712	0.661581	9.038641	11.00482	-3.926078	2.816285	0.214302	-0.308135	-1.023159	9.023113	2.446454	0.360481	-11.914645	0.995179	-41.2045	-0.548102	-0.456424	-0.206168
8.222583	-1.812692	8.691662	0.24054	-381.442122	-38.95311	0.51486	0.300478	-0.678257	2.723665	-0.183748	10.414205	8.907689	-3.647686	3.063992	0.214082	-0.293887	-1.009813	8.501217	3.20513	0.95286	-2.689371	0.96068	-28.771575	-0.548381	-0.47179	-0.220859
6.414073	-2.150949	9.848497	-0.270183	-394.791695	-53.647602	0.474013	0.281116	-0.69853	3.338729	-0.805328	9.520748	6.017196	-5.034841	3.263671	0.175599	-0.262399	-1.025343	7.477884	3.783983	-0.081792	2.844475	2.729019	-17.432762	-0.561663	-0.423417	-0.22344
5.048134	-2.665239	10.217574	-3.667525	-399.22015	-60.857782	0.431223	0.347909	-0.753373	2.485265	-0.35264	10.01275	8.154876	-4.489495	3.733238	0.175299	-0.323681	-1.021328	8.072562	3.26069	0.106708	7.492078	4.755374	-10.644505	-0.575917	-0.456832	-0.206308
3.794104	-2.663121	10.477342	-11.396345	-397.767784	-64.493486	0.403696	0.390313	-0.81581	1.726489	0.042695	9.544249	11.581301	-4.660445	3.703467	0.213711	-0.310279	-0.99446	8.475886	2.734588	-0.486883	9.913325	6.351175	-4.395875	-0.617992	-0.471985	-0.236737
2.85233	-3.172635	12.048128	-18.373062	-389.740853	-66.644096	0.335337	0.396056	-0.881028	2.820017	0.153309	9.567313	11.939344	-5.666709	3.539608	0.175449	-0.29304	-1.023336	8.951026	2.385546	-0.359749	16.551559	8.473076	-0.243004	-0.575705	-0.459311	-0.159725
1.972755	-2.819361	13.907912	-19.749262	-378.303853	-68.632773	0.251342	0.42266	-0.924577	1.672358	0.77529	9.770215	14.206916	-7.079814	3.650695	0.175449	-0.29304	-1.023336	8.594843	1.862931	-0.548298	18.366017	10.945103	0.930583	-0.548452	-0.470964	-0.236386
1.37834	-2.466536	15.71641	-1.926671	-368.791747	-72.211371	0.208938	0.475682	-0.976004	2.536355	-0.127663	9.73095	13.800094	-7.42707	4.386795	0.175003	-0.324753	-1.006979	9.177633	3.138264	-0.771482	18.562272	13.160033	-0.211527	-0.57578	-0.439814	-0.222673
1.321955	-3.672767	15.710229	18.474821	-370.33133	-71.957627	0.140221	0.460597	-1.009654	1.44145	1.113704	9.765664	8.969023	-8.265546	6.008476	0.174783	-0.310504	-0.993632	9.228115	3.019999	-1.250131	22.134563	13.864835	-2.061583	-0.534123	-0.457046	-0.19057
-0.410355	-4.938615	14.875572	30.188755	-377.922642	-65.518284	0.098646	0.41688	-0.984283	3.055653	-0.128585	9.79847	4.728658	-8.790316	7.695415	0.149572	-0.277869	-1.023788	8.686776	2.670286	-1.860587	21.476982	12.825849	-2.390429	-0.561454	-0.407225	-0.224277
-1.754955	-6.609739	13.364784	12.868934	-378.039213	-51.511496	0.011979	0.505282	-1.016759	1.902512	0.831189	9.775098	-0.999136	-9.528772	11.043789	0.187759	-0.310429	-0.993908	9.10373	2.437778	-1.674152	20.7403	10.515676	-4.057652	-0.562498	-0.488187	-0.220092
-1.696422	-6.839305	13.421785	-36.139954	-369.441857	-34.420493	-0.05558	0.448884	-1.040162	2.363898	0.379683	9.78439	-6.899388	-11.622159	14.933496	0.201401	-0.29289	-1.023887	8.334954	1.218948	-1.933277	21.245232	8.629102	-4.845084	-0.56208	-0.455802	-0.221766
-0.364613	-6.59477	17.142698	-85.834055	-364.343431	-18.520929	-0.141447	0.475145	-1.030822	2.478359	0.097767	9.729931	-13.252811	-12.980001	17.997794	0.149792	-0.292118	-1.037134	8.332348	1.392682	-2.052349	22.698209	6.671152	-1.356921	-0.590105	-0.472403	-0.221069
0.647834	-5.885145	22.109628	-101.699964	-368.7038	-6.983355	-0.16893	0.465652	-1.040784	3.055198	-0.522946	9.741498	-15.015478	-15.232961	21.488515	0.175299	-0.323681	-1.021328	7.206639	1.394258	-2.312885	24.232069	4.801133	5.492647	-0.604084	-0.471781	-0.236667
-1.776621	-5.358187	23.996925	-107.210665	-384.446054	-2.745322	-0.285296	0.506091	-0.981274	2.948529	-0.522399	10.135558	-21.176487	-14.21404	17.825002	0.189235	-0.30507	-1.065657	7.034553	1.628204	-2.015663	21.834161	4.378331	13.022373	-0.562147	-0.473647	-0.189873
-7.101376	-5.858961	26.789593	-115.22909	-395.362832	-4.340828	-0.354369	0.470179	-0.983356	2.718052	-0.409307	10.130817	-21.714154	-19.789759	20.667083	0.136677	-0.202414	-1.01418	6.494354	2.208448	-2.442443	16.007804	3.767877	19.771104	-0.589963	-0.474055	-0.190014
-16.761274	-3.747692	21.66635	-105.894609	-385.587156	6.095319	-0.383354	0.463872	-0.954506	2.022568	-0.236827	12.607386	-41.449279	-29.25731	18.583999	0.136446	-0.308585	-1.021505	6.839398	2.786668	-2.852717	15.101949	2.827632	24.608665	-0.56208	-0.455802	-0.221766
-25.715372	4.436785	26.527757	-246.156811	-354.170198	50.028186	-0.426487	0.492537	-0.96029	3.537134	-0.973647	10.713664	-33.574542	-39.474669	15.837447	0.123916	-0.276948	-1.037586	7.313998	2.66993	-2.724594	14.70885	-0.082787	18.999431	-0.562222	-0.454149	-0.252822
-28.79165	14.431098	39.353719	-229.003693	-313.269031	84.271654	-0.442508	0.527168	-0.942036	2.809058	0.436919	11.775286	-15.28489	-49.745645	8.566935	0.136527	-0.233055	-1.012173	8.014718	1.620716	-3.255001	10.0579	-0.485117	14.891649	-0.5755	-0.424447	-0.207982
-26.451367	21.883971	36.418642	-71.897783	-286.58081	77.325473	-0.499333	0.49054	-0.89158	2.599431	-0.237858	12.676115	-10.599605	-56.079225	1.201416	0.122955	-0.295484	-0.993533	8.247887	1.445206	-3.431061	1.333018	0.478355	19.289741	-0.576335	-0.489217	-0.204634
-28.712949	16.569037	28.850635	21.200386	-244.571802	27.950413	-0.529089	0.511774	-0.869561	3.2903	-0.915165	12.633413	-9.023125	-65.835092	-0.158242	0.097744	-0.262849	-1.023688	7.835314	1.213848	-3.439753	-2.01578	1.160917	26.084803	-0.562498	-0.488187	-0.220092
-35.127347	5.67778	19.416603	71.425656	-180.006422	-18.710431	-0.558459	0.519238	-0.844127	3.185295	-0.520209	13.141083	-2.904374	-78.211705	-4.838869	0.111084	-0.306592	-1.049653	8.710828	2.081232	-3.838886	-5.097118	0.711486	27.076331	-0.575917	-0.456832	-0.206308
-38.754053	-5.276809	9.127241	66.988992	-108.893061	-45.700949	-0.572208	0.523141	-0.857854	3.522333	-0.577518	12.751812	-3.159847	-88.956484	-8.860975	0.071937	-0.292568	-1.035479	9.827557	1.206043	-4.181128	-11.976792	0.349728	21.233773	-0.589617	-0.440844	-0.207216
-40.397615	-7.250174	4.029048	-36.511007	-51.139605	-48.390938	-0.571065	0.499127	-0.865098	2.879274	0.775315	12.399815	-2.199668	-98.68499	-11.207288	0.109984	-0.235349	-0.982922	10.424612	1.554879	-3.749292	-22.803946	1.18726	13.413248	-0.548239	-0.473443	-0.189803
-38.895086	0.889625	13.867414	-119.709328	2.465537	-52.15779	-0.614555	0.506965	-0.839314	3.675973	1.167788	12.020594	-11.777432	-108.619451	-11.991917	0.084693	-0.278245	-1.022409	10.43409	1.266477	-3.271273	-24.576959	2.390635	8.829087	-0.562151	-0.454976	-0.237294
-33.897214	7.291545	20.924923	-79.827372	61.427536	-72.543964	-0.643925	0.514429	-0.81388	2.930017	0.549601	12.060996	-21.445051	-118.195093	-11.601606	0.032273	-0.265368	-0.99361	10.267196	0.6881	-2.797791	-23.673399	3.617766	8.789392	-0.56173	-0.441262	-0.191547
-29.442714	4.216084	14.463108	-7.446351	106.665339	-89.781911	-0.599663	0.479048	-0.832832	3.289138	0.324154	12.691096	-33.763522	-129.764467	-11.880606	0.020108	-0.277548	-1.03538	9.727962	1.326668	-3.164417	-26.587321	2.492134	13.115063	-0.575713	-0.421969	-0.254566
-14.97252	12.257829	17.222173	158.317194	239.543076	-130.630942	-0.586671	0.485388	-0.808445	3.35428	0.155339	13.032	-44.701808	-144.680747	-14.010548	0.006171	-0.296159	-0.991052	10.097175	0.980615	-2.380508	-29.682906	2.511765	21.990662	-0.575988	-0.456006	-0.221836
24.84776	2.651501	-18.926707	30.534683	231.36356	-100.627308	-0.543938	0.487793	-0.823569	3.352322	0.157628	15.636213	-54.357781	-165.65686	-16.477076	-0.018224	-0.215419	-1.052917	11.093172	1.267217	-2.720006	-31.41689	3.11654	30.950877	-0.616948	-0.391022	-0.240923
5.778784	3.006418	6.845867	-107.857702	252.052344	-145.651563	-0.584414	0.471959	-0.857917	2.977744	-2.037559	16.758693	-55.061249	-192.47806	-23.495127	-0.045137	-0.234106	-1.008313	12.45456	1.904184	-2.392442	-39.714496	2.999124	24.653577	-0.561246	-0.391032	-0.225114
-4.126642	5.758677	3.823275	-2.775175	284.260257	-146.043631	-0.512296	0.449601	-0.880983	3.833841	-2.602813	16.379875	-48.10383	-222.161096	-34.080294	-0.045507	-0.250498	-0.992959	12.229885	1.268112	-1.860401	-52.451049	3.262952	6.572409	-0.561525	-0.406398	-0.239805
-9.783299	7.308778	16.05198	-76.776403	257.080303	-110.609522	-0.526788	0.446447	-0.866558	3.860521	-3.277783	17.568738	-44.616178	-250.201428	-45.144872	-0.071534	-0.265968	-0.991404	10.331234	2.316071	-2.310513	-58.293632	5.788213	-0.050795	-0.561454	-0.407225	-0.224277
-6.973651	3.056315	16.145537	-26.253078	226.363208	-53.87763	-0.483698	0.46968	-0.91325	3.136239	-3.219103	18.685861	-39.31594	-281.191836	-53.15451	-0.136038	-0.189741	-0.995044	9.377153	4.175428	-2.619743	-55.347769	5.42749	9.231711	-0.561316	-0.390206	-0.240642
-4.833578	0.818904	17.200681	7.015718	204.408729	0.021768	-0.455057	0.43786	-0.89304	3.811207	-3.556659	20.624621	-28.323988	-316.390641	-60.399715	-0.188682	-0.222826	-0.963234	10.087318	5.220165	-2.36246	-49.632681	4.089749	13.374319	-0.532871	-0.359891	-0.195592
-2.141816	-1.206084	14.289322	18.936413	178.235322	10.816533	-0.426873	0.506308	-0.963706	2.880888	-2.257233	22.984024	-9.6946	-350.460608	-62.07906	-0.201728	-0.178012	-0.95162	11.328338	5.914984	-2.156664	-45.944321	1.319325	-1.41896	-0.560482	-0.325436	-0.24399
-0.321011	-2.473778	13.694261	30.800782	143.315597	-9.167541	-0.439836	0.46537	-0.953109	5.865696	-2.826522	22.593296	33.885809	-379.347427	-56.936301	-0.241101	-0.20995	-0.934435	12.348504	5.277313	-1.301979	-47.659665	-1.739599	-28.626401	-0.561667	-0.404746	-0.270861
-0.892727	0.099643	10.909297	51.259467	119.000627	-26.55238	-0.384882	0.501656	-0.950678	9.842269	-6.723244	19.842668	43.197598	-399.546413	-51.827315	-0.306867	-0.213541	-0.890008	11.608745	3.890683	-0.004267	-57.124585	-3.709846	-48.411919	-0.575224	-0.39041	-0.240712
-0.692784	0.265529	9.436294	45.024388	108.216918	-20.974068	-0.384511	0.505185	-0.964753	8.615399	-6.550316	21.685321	70.203958	-407.493797	-71.827719	-0.385319	-0.276344	-0.869989	10.56346	2.734807	0.74977	-64.360873	-2.074016	-49.371149	-0.533501	-0.389798	-0.240502
-1.903461	1.01145	9.018076	17.168622	104.879618	-0.88999	-0.382982	0.4674	-0.968582	9.452815	-9.989375	20.171292	95.553506	-405.980568	-79.99134	-0.39925	-0.234746	-0.815325	9.454434	3.611727	1.51136	-58.349534	2.210609	-38.659015	-0.589617	-0.440844	-0.207216
-1.374146	0.094908	9.706474	-6.369251	101.773733	11.394052	-0.369233	0.463497	-0.954855	8.304065	-11.566858	17.428294	93.521913	-391.803304	-89.931436	-0.464946	-0.283226	-0.782236	8.106966	3.617058	2.025212	-49.452157	6.717913	-24.810164	-0.575571	-0.423621	-0.22351
-9.137334	-0.571342	13.644453	8.052689	80.900195	18.250198	-0.341749	0.472991	-0.944894	10.04411	-11.456909	18.087692	98.116718	-383.128595	-96.31439	-0.479693	-0.289732	-0.695862	7.580803	4.316669	2.377716	-43.386439	11.762718	-16.575034	-0.560899	-0.357821	-0.242316
-0.203079	-2.58802	13.866564	31.422849	32.221582	-7.141888	-0.312751	0.461999	-0.956252	6.733119	-11.449567	19.320286	99.055009	-336.954427	-107.043902	-0.532563	-0.368778	-0.661041	8.045655	4.604485	2.028314	-39.877446	16.263667	-12.819869	-0.589758	-0.439191	-0.238271
0.051896	-0.251984	9.448598	93.094324	25.358811	-19.02443	-0.312751	0.461999	-0.956252	-6.883012	-12.831338	20.165381	117.229879	-286.123953	-126.589299	-0.520253	-0.386167	-0.631614	7.973028	4.775881	1.309073	-33.657099	18.541846	-6.160507	-0.57578	-0.439814	-0.222673
-0.125025	0.723682	9.221947	39.39769	24.312153	-0.208963	-0.367332	0.429241	-0.97276	-27.055735	-26.737664	-15.031659	49.015864	-164.900826	-180.452043	-0.547976	-0.392749	-0.544964	8.498516	4.366651	0.957805	-26.53441	19.096601	-1.146225	-0.547688	-0.405368	-0.255263
-0.05329	-0.824386	9.898783	37.756019	19.593489	-4.850523	-0.324985	0.445416	-0.991299	-24.147731	-7.001065	15.165563	-29.483028	170.268856	-141.865801	-0.548792	-0.440854	-0.513254	8.600197	4.769451	0.12304	-16.205741	17.487113	1.269077	-0.575642	-0.422795	-0.239038
-0.117231	0.72537	9.619919	45.854323	17.471158	-6.809815	-0.325371	0.459187	-0.994715	-13.228514	-10.676918	22.298578	-14.254524	192.280369	-138.829933	-0.535816	-0.440779	-0.513529	9.18086	4.591648	-0.405859	-4.95324	13.800167	0.78747	-0.534268	-0.436722	-0.269046
0.410059	1.0723	10.256772	35.213775	15.442283	-5.708068	-0.325714	0.42106	-0.945655	-13.038516	-7.810588	15.284939	79.729685	171.01649	-133.356751	-0.53412	-0.449668	-0.598624	9.646346	3.659374	-0.880267	2.18219	8.577822	-0.527656	-0.602831	-0.374626	-0.24169
-0.905633	-0.535109	10.224405	24.816644	12.791587	-3.881088	-0.312365	0.448228	-0.952836	-14.431079	-8.719253	3.875443	73.436185	187.753483	-114.764625	-0.520849	-0.448521	-0.61325	9.819087	2.670193	-1.24061	2.097101	1.508496	-0.218546	-0.533292	-0.373605	-0.241339
-0.92275	0.035687	9.374022	24.994947	12.057351	-4.108216	-0.296715	0.410068	-0.957014	-14.040317	-8.664151	3.317556	-0.464224	242.070838	-83.584689	-0.456045	-0.463466	-0.613625	10.407878	2.784747	-1.289018	4.611857	-4.331371	-5.48704	-0.589758	-0.439191	-0.238271
-1.605515	0.266916	9.589038	18.280004	11.035687	-3.492117	-0.297473	0.420311	-0.946354	-12.999393	-6.238779	9.172817	-35.456196	284.34573	-52.55291	-0.442999	-0.508281	-0.625239	10.703364	2.609844	-1.284257	9.751551	-7.557958	-8.17964	-0.561596	-0.405572	-0.255333
0.627858	1.184605	9.693178	12.881919	10.397631	-3.64029	-0.325328	0.407289	-0.94224	-11.296749	-4.663227	10.908391	-21.875676	310.256165	-23.95505	-0.390505	-0.505837	-0.655042	10.313745	1.976898	-0.096542	5.430706	-9.525019	-11.699618	-0.576063	-0.436509	-0.284784
-0.693282	0.954827	9.43919	6.474726	9.653969	-3.020562	-0.310865	0.445042	-0.991648	-9.896166	-4.104086	9.183261	-12.649939	331.1689	1.754984	-0.337345	-0.485929	-0.714547	10.188165	2.382216	-0.456454	1.063946	-10.870117	-13.266497	-0.53406	-0.42053	-0.269883
-1.211912	0.954476	9.258609	-0.603979	9.336691	-2.330637	-0.339449	0.407664	-0.94189	-7.850406	-4.10901	7.98071	-34.63416	346.026954	22.170715	-0.309917	-0.480419	-0.786847	9.19688	2.910163	0.245947	2.750437	-12.709027	-12.316476	-0.547692	-0.386697	-0.302683
-0.690557	0.266011	9.550001	-7.441727	9.188465	-2.896064	-0.296372	0.448195	-1.006073	-6.277599	-4.956214	8.805594	-69.102351	353.085202	36.549227	-0.297682	-0.513129	-0.756416	8.55417	2.971208	0.59353	5.169996	-13.224759	-8.930585	-0.534335	-0.454567	-0.237153
-0.979512	0.897593	9.433381	-13.206333	8.573855	-2.552108	-0.296372	0.448195	-1.006073	-5.291279	-4.5634	9.222954	-103.286148	355.825893	47.278119	-0.230799	-0.400151	-0.836569	8.087928	2.33444	0.821635	7.957077	-12.644428	-1.975416	-0.561876	-0.420938	-0.270024
-0.919616	0.323619	9.545788	-18.297951	8.184809	-2.85046	-0.338334	0.418249	-0.984118	-4.059414	-3.94508	10.381655	-140.0581	354.595195	56.732318	-0.203597	-0.440603	-0.905858	7.771959	2.795274	-0.260214	11.332726	-12.191272	5.651027	-0.589132	-0.390614	-0.240782
-0.919741	0.495943	9.546512	-19.222669	7.945099	-3.771751	-0.297087	0.40654	-0.942938	-3.585378	-4.058081	11.014267	-170.362363	354.221471	64.628005	-0.138121	-0.377874	-0.925601	8.074183	2.563778	0.103741	13.03648	-12.507206	13.134832	-0.561596	-0.405572	-0.255333
-0.455682	-0.135039	9.837031	-20.454764	7.456025	-4.512202	-0.296344	0.413597	-0.97109	-2.433372	-3.550831	13.813004	-199.563293	353.573173	74.556923	-0.073022	-0.391748	-0.940326	7.473672	1.80742	-0.569453	13.715172	-13.247138	19.860626	-0.533359	-0.39145	-0.209446
-1.318952	-0.135382	9.592916	-20.088612	7.368678	-4.790695	-0.324971	0.428117	-0.973807	-1.516246	-3.156	16.380252	-212.963968	353.367934	84.749826	-0.045733	-0.296459	-0.989949	7.645893	1.515399	-0.866922	10.661058	-13.314017	25.282614	-0.520152	-0.420326	-0.269813
-0.333296	-0.248316	10.236747	-16.474036	7.486099	-5.535243	-0.282581	0.392394	-0.939871	0.198839	-1.521259	21.399761	-204.110342	355.077752	93.129885	0.020258	-0.246907	-1.037387	7.283128	1.456155	-1.353027	11.350743	-12.212103	31.358246	-0.575295	-0.389584	-0.25624
-1.077769	-0.018011	10.223237	-15.924258	7.682099	-6.331034	-0.297116	0.441139	-0.977922	1.878684	-1.298636	21.944766	-153.282785	355.841756	93.39421	0.098925	-0.258562	-1.081087	7.695545	1.280734	-1.405973	13.88803	-10.074284	35.496511	-0.561387	-0.38938	-0.25617
-0.790342	-0.075419	10.285416	-18.778478	7.804579	-7.455589	-0.324957	0.410817	-0.956316	3.71626	-1.079289	19.09623	-138.495105	356.174739	85.084352	0.125177	-0.19713	-1.085653	7.871898	1.105854	-1.46332	12.238592	-9.271741	37.180102	-0.547688	-0.405368	-0.255263
-0.740017	0.267742	9.946859	-18.561939	8.363256	-7.845833	-0.311608	0.437985	-0.963496	5.79643	-0.744854	19.536512	-158.471907	348.848135	67.143085	0.228319	-0.213994	-1.058156	7.7635	1.224501	-0.925865	6.417193	-9.180433	38.179061	-0.575571	-0.423621	-0.22351
-0.97295	-0.479798	9.711855	-21.478019	8.768632	-9.548344	-0.311622	0.455284	-0.980988	6.009819	0.10144	21.523236	-176.141152	340.129044	41.914353	0.29372	-0.166585	-1.076895	7.522899	1.282128	-1.169647	0.721403	-9.030658	39.48302	-0.519451	-0.391246	-0.209376
-1.432389	-0.077617	9.647783	-22.057992	9.353622	-9.874534	-0.296715	0.410068	-0.957014	6.381253	2.918552	23.005491	-189.157179	332.412601	12.662031	0.358744	-0.195779	-1.090617	7.509173	1.976321	-1.825656	-4.629108	-9.639531	37.365252	-0.561037	-0.37484	-0.225951
-1.19335	-0.075611	10.163915	-23.947918	10.472398	-9.022829	-0.326128	0.46943	-0.984055	9.419606	5.956788	25.449778	-202.597861	330.143795	-17.551936	0.423555	-0.150515	-1.080656	7.628347	2.906009	-1.639779	-8.914556	-10.189892	26.989351	-0.603111	-0.389992	-0.256381
-1.187617	-0.304171	10.447215	-20.254642	11.729355	-7.234202	-0.310107	0.434799	-1.002308	15.280683	12.989588	28.409786	-203.185235	325.203159	-44.821139	0.462338	-0.120721	-1.069141	7.750396	3.545812	-1.335324	-13.356791	-11.515176	11.636267	-0.561316	-0.390206	-0.240642
-0.671705	-1.166167	10.453617	-17.080943	13.229716	-5.440143	-0.29713	0.458438	-0.995413	21.207132	17.205849	31.481911	-170.811113	314.130461	-67.376575	0.43535	-0.154727	-1.023533	8.51473	3.833942	-1.439596	-11.672601	-13.328908	-4.651645	-0.533292	-0.373605	-0.241339
-1.223658	-1.288638	8.566961	-11.074821	15.708166	-2.012931	-0.296358	0.430896	-0.988582	25.908131	16.57657	30.617646	-99.039442	301.244364	-82.735659	0.500525	-0.15328	-1.039262	9.234873	3.428262	-0.829052	-10.058471	-15.030365	-17.026262	-0.574945	-0.375044	-0.226022
-0.256688	0.987189	17.119925	-28.168441	19.422813	2.206142	-0.283752	0.451007	-0.967611	34.88804	10.299489	22.13874	-17.388069	272.393271	-99.87885	0.448106	-0.140404	-1.010463	9.548256	3.606018	0.195609	-9.483183	-16.750159	-22.062224	-0.546641	-0.343077	-0.212027
-1.361892	-1.453601	10.268489	-4.473451	47.913505	3.613057	-0.282981	0.423465	-0.960779	38.940465	6.227275	12.142936	-24.499788	215.691778	-104.517575	0.486669	-0.096361	-0.985601	10.142664	3.198877	0.384604	-8.853698	-18.169396	-17.687935	-0.588849	-0.393919	-0.178671
-0.52635	-0.699963	12.049661	-14.872576	60.548527	4.339048	-0.284481	0.426651	-0.921967	36.627811	8.707555	9.152616	-68.30861	142.441639	-83.829514	0.473253	-0.067939	-0.958634	9.903528	2.152812	0.076217	-10.090056	-17.509314	-7.999171	-0.574665	-0.359677	-0.211331
-1.089987	-0.697618	12.493351	-32.039592	72.56735	7.803846	-0.253582	0.381403	-0.95123	30.629621	18.072252	12.035451	-98.96974	72.017454	-24.600675	0.485789	-0.039367	-0.932217	10.507259	1.05049	0.681593	-6.723397	-15.856464	1.91344	-0.546916	-0.377114	-0.179298
-1.278888	2.356117	14.662104	-30.458282	83.203022	10.793484	-0.269246	0.436861	-0.964544	25.911004	23.097317	15.16779	-47.160896	18.715613	61.479302	0.499135	-0.022899	-0.947846	10.021945	1.513459	0.015792	7.328577	-13.980124	14.599151	-0.533012	-0.358239	-0.226648
-0.477636	0.332255	11.657147	-25.419706	99.13484	11.436643	-0.227642	0.44598	-0.954931	27.100799	18.923168	11.226104	29.730214	-15.142417	137.179943	0.524792	-0.023821	-0.934048	9.722098	2.617084	-0.104827	17.773828	-10.375244	30.439668	-0.533079	-0.376084	-0.194755
-0.96641	0.625626	13.012806	-36.773091	112.646577	10.094359	-0.226499	0.421966	-0.962176	45.45618	-11.120935	92.09046	-104.059084	-94.866017	131.746646	0.498765	-0.039292	-0.932493	10.179206	1.973459	-0.997346	25.039176	-7.211746	40.548003	-0.54692	-0.358443	-0.226718
-0.505774	0.108803	13.133248	-49.885031	127.18544	12.208427	-0.212749	0.418064	-0.948449	21.104466	4.040335	-14.955478	148.590617	-403.175601	111.651014	0.536732	-0.057603	-0.889267	10.295058	2.43755	-1.053074	32.609635	-3.985101	38.731967	-0.532662	-0.343699	-0.196429
-1.115406	-0.058723	14.143632	-56.629351	144.441671	15.605614	-0.171903	0.437425	-0.928176	-1.995205	-11.211729	14.77789	55.848446	-280.719879	-20.058788	0.472738	-0.054762	-0.930938	11.114661	1.969321	-1.458994	37.950071	-3.948797	34.096111	-0.559643	-0.279337	-0.199918
-1.512266	-0.861891	14.303018	-66.967516	163.986838	21.442119	-0.184908	0.448385	-0.970055	-3.963711	-9.396331	25.155156	116.827292	-194.081765	1.967408	0.459982	-0.069086	-0.944008	12.111063	2.081694	-1.799234	45.638425	-7.823767	35.829333	-0.560824	-0.377318	-0.179368
-1.665551	-1.776971	15.205466	-80.492649	184.295069	34.383	-0.143676	0.453976	-0.946367	3.546742	4.26113	6.245963	242.570386	-209.855032	-3.236286	0.434175	-0.098805	-0.955799	13.742876	1.957064	-2.907147	63.950935	-12.747663	36.183946	-0.588782	-0.376074	-0.210564
-0.631392	-2.741154	18.29036	-95.56723	206.206872	48.671775	-0.129927	0.450073	-0.93264	3.736184	7.756584	10.046175	120.501979	-179.183811	31.09771	0.396503	-0.079422	-1.013374	14.922038	0.55955	-3.130699	45.599091	-13.55466	36.926848	-0.5328	-0.360718	-0.180065
-1.282352	-4.915956	20.030274	-81.099469	247.313385	66.497378	-0.115835	0.484297	-0.967973	6.063289	0.88276	13.315994	121.311016	-148.779572	39.169639	0.407997	-0.144916	-0.952237	15.925144	2.997684	-2.802074	36.209799	-11.421977	25.60901	-0.57348	-0.280368	-0.184461
-0.370943	-4.630377	19.821884	-79.602135	283.223255	92.672527	-0.07423	0.493416	-0.95836	3.718019	3.981443	8.853566	109.532751	-121.174915	8.851501	0.343783	-0.127827	-0.980561	15.723656	4.038513	-3.999063	44.675136	-10.317211	4.482157	-0.602064	-0.327701	-0.213145
0.694025	-2.900157	21.668465	-90.024108	325.580449	110.738768	-0.047104	0.482082	-0.916831	2.173354	2.125683	9.102558	63.505676	-104.054587	-0.757178	0.343192	-0.129971	-0.951862	13.540444	3.404425	-4.102405	13.196572	-5.480378	-12.694398	-0.532591	-0.344525	-0.180902
1.952375	-3.348497	24.532573	-68.840052	365.834186	107.348321	0.023113	0.49398	-0.921992	1.122105	-1.7577	10.718865	52.765573	-95.240651	9.926731	0.342527	-0.147435	-0.922159	11.907549	3.993663	-2.992514	5.392411	-4.947036	-19.636119	-0.57376	-0.295734	-0.199151
1.562557	-1.564865	25.157643	-28.894826	410.347887	97.996624	0.092615	0.464223	-0.864019	0.985608	-0.06828	9.868276	62.469956	-93.654077	20.771302	0.357054	-0.12668	-0.995187	9.800265	3.188921	-2.196895	6.030587	-3.312486	-23.67983	-0.588364	-0.343689	-0.212238
-2.961947	-1.159742	25.014513	-2.290474	443.39274	68.448867	0.148312	0.507566	-0.889739	2.125497	0.21079	9.382935	55.244672	-95.957607	21.205034	0.355723	-0.161609	-0.93578	7.13778	2.786735	-2.667494	6.936796	-1.310667	-18.772876	-0.560612	-0.379797	-0.132784
-8.325238	-4.726189	22.792433	-28.385887	469.75697	54.237855	0.203694	0.478183	-0.831416	4.65592	2.121333	9.494379	47.293335	-96.540132	0.93834	0.278978	-0.112882	-0.980186	6.082517	3.081276	-2.266717	15.437802	1.82149	-8.15331	-0.546778	-0.360095	-0.195663
-3.510293	-6.279627	23.106863	-30.230737	476.652874	64.901409	0.259819	0.455857	-0.801245	4.438385	-1.370491	9.769801	44.654437	-87.56096	-21.540249	0.277867	-0.162059	-0.934126	5.963385	3.081299	-2.328825	22.822844	1.604777	0.561699	-0.546499	-0.344729	-0.180972
-2.89989	-6.271838	25.051003	-28.875844	456.219882	68.212971	0.300708	0.423321	-0.728497	0.720347	-4.911644	10.481189	28.828452	-52.636144	-26.723831	0.252361	-0.130496	-0.949932	5.667878	2.791346	-2.39547	28.08642	-0.252313	1.529521	-0.547058	-0.375462	-0.210353
2.046133	-9.455277	20.303205	-9.621708	457.112622	75.805126	0.327835	0.411987	-0.686968	3.8541	-0.017718	9.475652	70.120188	-22.563224	8.720925	0.291219	-0.085382	-0.93942	6.671423	2.672899	-2.377257	23.155598	-1.241564	-2.115439	-0.561108	-0.374013	-0.241479
5.760048	-11.240588	19.913277	-12.989309	427.158315	85.99463	0.369096	0.382979	-0.628296	4.718874	-0.695301	9.493217	55.63094	-23.653539	1.916171	0.226038	-0.147039	-0.934027	8.213256	2.322415	-1.990688	7.417943	1.708369	-2.928269	-0.560616	-0.361126	-0.180205
15.526246	-10.243726	13.060471	-11.776716	403.729584	112.213913	0.4096	0.364214	-0.558964	1.168837	-0.518868	10.32464	33.700335	-19.62861	-4.350376	0.25221	-0.161137	-0.947924	8.747702	2.321942	-1.801063	-8.256466	5.309485	-4.569596	-0.560407	-0.344933	-0.181042
16.746374	-22.737179	-6.972762	-22.789103	188.338842	283.252988	0.452348	0.349319	-0.556596	2.080189	-1.140655	9.833705	49.152369	-13.172762	4.450598	0.225894	-0.11747	-0.921684	9.385045	2.201585	-2.448429	-14.147763	9.670964	-11.292479	-0.54657	-0.343903	-0.1965
25.339374	-4.558311	14.639241	-19.515513	-68.453783	259.23547	0.47946	0.355284	-0.532558	5.233013	-0.527421	9.33432	44.331729	-9.05782	-1.153926	0.252066	-0.131568	-0.935582	9.731439	2.199044	-2.861174	-18.923404	15.174764	-18.635658	-0.546637	-0.361748	-0.164607
21.436381	-0.10901	20.094628	43.313381	-198.209697	220.783537	0.47986	0.324214	-0.51165	4.463789	-0.357835	8.355873	36.08999	-6.251985	-0.762724	0.23909	-0.131643	-0.935306	10.545851	2.543138	-3.443354	-20.464469	17.404031	-21.757624	-0.574244	-0.345964	-0.165584
18.002317	1.949509	17.251818	124.093784	-219.513783	163.290233	0.510745	0.296265	-0.558405	1.448202	-0.519739	9.934207	33.351594	-7.393208	4.341207	0.277797	-0.117169	-0.922787	11.19783	3.704409	-3.12677	-26.569003	16.354319	-25.886268	-0.533008	-0.37691	-0.179227
15.744391	0.829256	10.042544	157.860522	-215.567436	108.712669	0.497767	0.272626	-0.5653	2.167179	1.562093	8.762246	23.899181	-5.519514	-0.45697	0.212623	-0.118617	-0.907059	11.491635	2.831852	-3.304697	-34.712375	13.470064	-33.756915	-0.533146	-0.393929	-0.162863
14.302342	-1.609838	3.525547	143.343549	-237.361738	57.946574	0.485933	0.224973	-0.57944	1.785287	0.662318	9.659259	18.568749	-6.50624	4.122333	0.212252	-0.135009	-0.891705	12.03581	1.961969	-2.699432	-36.46995	10.44577	-40.67183	-0.574523	-0.36133	-0.180275
13.309802	-2.762307	2.478436	91.53408	-279.691426	19.879911	0.471041	0.252889	-0.585922	3.378508	-0.355455	8.729381	12.628918	-4.947738	2.776604	0.238059	-0.10529	-0.879914	11.274122	2.429816	-2.352319	-28.740476	8.437334	-44.937021	-0.533075	-0.394755	-0.147335
11.582919	-2.922973	4.887876	53.510881	-316.010095	-8.629674	0.459964	0.194994	-0.610722	5.07778	-0.808087	10.123411	8.515941	-2.88554	2.97877	0.224782	-0.166647	-0.875624	10.063145	3.020087	-0.755469	-22.503932	5.551833	-44.762525	-0.547546	-0.40702	-0.224207
10.185952	-2.742133	6.623209	39.536289	-342.559751	-28.834109	0.360334	0.242457	-0.632601	1.204474	0.832198	9.420754	6.834456	-3.920682	3.275407	0.225228	-0.134934	-0.891981	9.131802	2.67651	-0.115584	-16.474727	3.149917	-38.173505	-0.51938	-0.392072	-0.193848
8.979321	-2.971994	6.371448	29.004534	-366.994354	-41.684903	0.36182	0.25657	-0.688904	1.662603	1.450924	9.374307	4.995738	-2.864466	2.297925	0.251105	-0.150104	-0.891529	8.487431	2.504756	0.111197	-6.824965	2.912927	-26.718657	-0.519309	-0.392898	-0.17832
