1818_acc_x	1818_acc_y	1818_acc_z	1818_gyro_x	1818_gyro_y	1818_gyro_z	1818_mag_x	1818_mag_y	1818_mag_z	1819_acc_x	1819_acc_y	1819_acc_z	1819_gyro_x	1819_gyro_y	1819_gyro_z	1819_mag_x	1819_mag_y	1819_mag_z	1820_acc_x	1820_acc_y	1820_acc_z	1820_gyro_x	1820_gyro_y	1820_gyro_z	1820_mag_x	1820_mag_y	1820_mag_z
-0.8812	-1.0354	9.6727	0.9766	0.8179	0.5606	0.3662	-0.2402	-0.2041	2.3871	-1.5134	9.6489	-1.6208	0.73	0.875	0.1114	-0.0275	-0.7489	9.2495	-2.4257	-1.1396	0.9966	2.1347	-15.0948	-0.9696	0.6605	1.3097
-0.4778	-0.4036	9.7412	1.4347	0.7675	0.3966	0.4803	-0.1081	-0.2462	2.3805	-1.2278	9.3523	-1.9598	0.7052	0.8431	0.1369	-0.5768	-0.9051	9.5304	-1.9105	-1.3071	0.9996	2.1081	-16.3595	-1.2933	0.6695	0.742
-0.4242	-0.6342	9.5054	1.0868	0.7197	0.1302	0.4863	-0.0841	-0.2402	2.2079	-1.3991	9.3484	-1.6509	0.7913	1.0305	0.1376	-0.6144	-0.9214	9.6487	-2.4263	-1.1316	1.1861	2.3271	-17.436	-1.2754	0.7006	0.7753
-0.5982	-0.6341	9.4429	1.0755	0.5965	-0.2058	0.4683	-0.0901	-0.2402	2.4345	-1.6863	9.1149	-1.7445	0.7313	1.0601	0.1087	-0.5951	-0.9045	9.7023	-1.6811	-1.2445	1.2949	2.3904	-17.9913	-1.3105	0.6677	0.7601
-1.0589	-0.8632	9.4333	0.708	0.4292	0.0158	0.4683	-0.0841	-0.2342	2.6141	-1.5143	9.4753	-1.4982	0.6673	0.6888	0.0937	-0.574	-0.9411	8.9036	-2.2537	-1.3209	1.5513	2.5109	-17.3456	-1.2396	0.6439	0.8181
-0.8228	-0.8054	9.7335	0.3949	0.4722	-0.1594	0.4863	-0.0961	-0.2462	2.4425	-1.571	9.5311	-1.1895	0.7232	0.7521	0.1091	-0.6143	-0.9038	9.5913	-2.1967	-1.132	1.399	2.5988	-15.8911	-1.3269	0.6444	0.8166
-0.8809	-0.5754	9.7329	0.796	0.4554	-0.1693	0.4803	-0.0901	-0.2522	2.3187	-1.5143	9.1129	-0.6277	1.113	0.6982	0.0932	-0.5379	-0.8891	9.4182	-1.6804	-1.1919	1.5403	2.4986	-13.708	-1.2395	0.6264	0.8199
-0.938	-0.8627	9.7311	0.8706	0.6677	0.1657	0.4743	-0.0961	-0.2402	2.3887	-1.685	9.7079	-0.6334	0.7463	0.3211	0.109	-0.6136	-0.9216	9.7628	-1.7379	-1.0685	1.0274	2.4589	-10.7086	-1.2745	0.6441	0.8175
-1.1064	-0.8619	9.9642	1.1756	0.746	-0.0243	0.4743	-0.0961	-0.2462	2.6103	-1.9154	9.2369	-0.3568	0.7711	0.6	0.1228	-0.594	-0.9401	9.8241	-1.5651	-0.8333	0.4016	2.1721	-7.4675	-1.2751	0.6987	0.7936
-0.82	-0.5175	9.9115	1.9521	0.6227	0.2002	0.4803	-0.0841	-0.2522	2.7227	-1.1718	9.1813	-0.5449	0.5902	0.5655	0.1378	-0.6159	-0.8857	9.7599	-1.3368	-1.1838	0.3358	1.9176	-5.0998	-1.2224	0.6458	0.8
-1.0508	-0.9772	9.8468	2.4817	0.6013	0.3702	0.4743	-0.0961	-0.2462	2.2674	-1.6853	9.4085	-0.9698	0.8745	0.3845	0.1369	-0.5768	-0.9051	10.0487	-2.1973	-1.0645	0.3098	1.574	-3.7528	-1.2231	0.6672	0.7615
-0.592	-0.3458	9.7982	2.6464	0.4739	0.823	0.4743	-0.0901	-0.2462	2.6126	-1.8579	9.3558	-1.1898	0.6629	0.5039	0.1218	-0.5387	-0.8889	9.3589	-2.4267	-1.3708	0.1751	1.5147	-4.3683	-1.2741	0.6246	0.8377
-1.0505	-0.5171	9.907	2.643	0.5651	0.6406	0.4563	-0.0961	-0.2522	2.5009	-1.3993	9.592	-1.59	0.6994	0.7201	0.0794	-0.5736	-0.9412	9.6517	-2.1388	-0.9555	0.1704	1.4586	-6.0036	-1.2575	0.7142	0.8103
-0.5884	-1.0929	9.9146	2.6776	0.4422	0.8526	0.4563	-0.0961	-0.2582	2.0947	-2.2573	9.3443	-1.8647	0.8869	1.0627	0.1095	-0.6335	-0.903	9.7016	-1.9681	-1.3039	0.1224	1.8398	-9.2902	-1.24	0.6634	0.7979
-0.8323	-0.5191	9.2614	2.2127	0.5834	0.7122	0.4563	-0.0901	-0.2462	2.4939	-1.9152	9.1751	-2.0155	1.0132	0.8485	0.0505	-0.5551	-0.9065	9.5324	-1.738	-1.1898	0.6023	2.1307	-13.6073	-1.2929	0.65	0.7622
-0.8712	-0.9767	10.2048	1.9945	0.5617	0.6564	0.4863	-0.0781	-0.2522	2.4421	-1.9145	9.471	-1.5874	0.8525	0.8155	0.1102	-0.6542	-0.8665	9.885	-1.794	-0.6579	1.1417	2.3909	-18.019	-1.2233	0.7023	0.7578
-0.9356	-0.9199	9.8492	1.9256	0.2889	0.565	0.4683	-0.0961	-0.2281	2.7217	-1.7443	9.0613	-1.31	0.8783	0.8473	0.1084	-0.5767	-0.8874	9.5876	-2.0253	-1.3064	1.2076	2.5885	-21.8066	-1.2926	0.6481	0.7806
-0.4248	-0.9218	9.4456	1.6567	0.6675	0.6652	0.4803	-0.0841	-0.2582	2.5052	-1.6851	9.7697	-1.1869	0.8763	0.8475	0.1236	-0.6163	-0.8679	9.1329	-2.3112	-1.2582	1.013	2.5339	-23.7465	-1.1884	0.6513	0.7457
-1.3956	-0.919	9.8993	1.6864	0.4526	0.7548	0.4683	-0.1201	-0.2522	2.0363	-1.971	9.3437	-0.9712	0.8429	0.6002	0.0939	-0.5755	-0.9054	9.7606	-1.7957	-1.1854	0.9994	2.4437	-24.4271	-1.2924	0.613	0.7843
-0.7041	-0.8627	9.9129	2.0467	0.3445	0.4403	0.4683	-0.0901	-0.2522	2.2636	-1.5712	9.2304	-1.5554	0.9135	0.7857	0.0942	-0.5939	-0.9225	9.1864	-1.5086	-1.3709	0.6837	2.2569	-23.6554	-1.2399	0.6459	0.7998
-0.705	-0.3453	9.9142	1.9212	0.2274	0.4427	0.4683	-0.1021	-0.2642	2.7272	-2.0872	9.2983	-0.5084	0.8664	0.447	0.0931	-0.5371	-0.9069	9.5921	-1.9671	-1.0728	0.1606	2.3465	-22.4092	-1.2574	0.6459	0.7995
-1.1131	-0.8627	9.6095	1.9612	0.3186	0.7168	0.4803	-0.0901	-0.2402	2.2115	-1.9139	9.4662	-0.6339	0.7157	0.2896	0.0786	-0.536	-0.9249	9.3086	-1.5647	-0.9603	0.1868	1.7842	-20.2369	-1.2922	0.6286	0.8007
-0.5938	-0.576	9.6794	1.6523	0.6061	0.5429	0.4683	-0.1021	-0.2462	2.8428	-1.6868	9.3609	-0.4155	0.8655	0.2927	0.1227	-0.5771	-0.8873	9.4225	-1.5075	-0.9578	-0.4197	1.9296	-17.1994	-1.275	0.6304	0.7827
-1.1083	-1.0346	9.8455	2.394	0.6972	0.4949	0.4803	-0.1021	-0.2402	2.381	-1.4568	9.3519	-0.3544	0.894	0.5713	0.0657	-0.5938	-0.9049	9.4728	-1.5662	-1.307	-0.8584	1.7339	-13.7127	-1.2051	0.6125	0.7857
-1.0551	-0.4602	9.6707	2.6195	0.6587	0.8553	0.4803	-0.0901	-0.2402	2.0399	-1.4555	9.5824	-0.6929	0.8398	0.23	0.137	-0.5775	-0.8872	9.6512	-1.1061	-0.8934	-1.4399	2.4337	-10.5367	-1.2569	0.6089	0.8215
-1.0552	-1.0353	9.6102	3.663	0.8277	0.4953	0.4743	-0.1021	-0.2522	2.3797	-1.9148	9.2321	-0.756	0.839	0.6622	0.0933	-0.5548	-0.9419	9.5886	-1.9103	-1.2476	-1.3448	1.1579	-7.1224	-1.2577	0.6479	0.7811
-0.4803	-0.864	9.5628	4.492	0.797	1.4512	0.4683	-0.0901	-0.2462	2.6122	-1.6862	9.3562	-0.9119	0.6892	0.4122	0.0805	-0.6135	-0.904	9.9404	-1.5075	-0.7141	-1.89	2.0152	-4.9601	-1.2576	0.6303	0.783
-1.1105	-0.4598	9.7878	3.2226	0.7885	1.36	0.4683	-0.1021	-0.2462	2.6157	-1.6859	9.5344	-1.5572	0.7613	0.4742	0.1092	-0.6151	-0.8859	9.3659	-1.7369	-0.9598	-0.628	2.1026	-4.3971	-1.2749	0.6636	0.7973
-0.7039	-0.9777	9.9126	3.7171	0.5239	1.5294	0.4563	-0.1081	-0.2582	2.438	-1.6859	9.2932	-1.2818	0.6947	0.597	0.0935	-0.5563	-0.9062	9.4813	-1.9089	-0.8998	0.0888	2.3493	-4.9284	-1.2397	0.6107	0.8035
-0.8243	-0.6331	9.6748	3.3801	0.4773	1.6594	0.4683	-0.0961	-0.2462	2.0871	-1.5711	9.0486	-1.6498	0.7625	0.5667	0.1229	-0.5948	-0.9223	9.7629	-1.7953	-1.0687	-0.0084	2.6319	-6.3673	-1.222	0.6263	0.8202
-1.0483	-0.5169	10.0252	3.1339	0.4267	1.7261	0.4743	-0.0961	-0.2402	2.4351	-1.4572	9.1748	-1.4034	0.7886	0.6602	0.1228	-0.5779	-0.8695	9.8744	-1.6238	-1.1825	-0.042	2.6063	-7.9086	-1.2742	0.5915	0.8231
-0.9994	-0.6331	9.5532	3.2954	0.4516	1.9664	0.4683	-0.1021	-0.2522	2.3199	-1.5142	9.1723	-1.4918	1.0049	0.6948	0.1226	-0.5764	-0.9052	9.9405	-1.5648	-0.7143	-0.2261	2.6731	-9.2902	-1.2919	0.6267	0.8191
-0.6983	-0.3444	10.2688	2.8294	0.7757	1.6745	0.4803	-0.1021	-0.2522	2.7256	-1.9157	9.2392	-1.0924	0.9673	0.7257	0.0521	-0.631	-0.9213	9.591	-2.0247	-1.1313	-1.0983	2.5242	-10.2019	-1.2048	0.6281	0.8022
-1.0459	-0.5741	10.1433	2.3695	0.9737	0.5581	0.4863	-0.0961	-0.2462	2.4439	-2.1433	9.5299	-1.3683	1.0332	0.7573	0.0943	-0.5947	-0.9046	9.1894	-1.9671	-1.2558	-1.35	2.9921	-11.6015	-1.239	0.5893	0.842
-0.5392	-0.1739	9.5633	2.7976	0.9247	0.4254	0.4743	-0.0961	-0.2402	2.6093	-1.9727	9.1773	-1.3711	0.8799	0.7237	0.1368	-0.576	-0.9229	9.019	-1.6798	-1.1999	-1.8898	2.9659	-12.5779	-1.2224	0.6458	0.8
-0.8261	-0.8633	9.556	2.4141	0.8473	0.0072	0.4803	-0.0961	-0.2582	2.1485	-1.1702	9.2883	-1.279	0.848	0.6306	0.0944	-0.6116	-0.9574	9.8318	-1.3341	-0.424	-4.0365	3.4343	-12.7374	-1.3276	0.6483	0.78
-1.0488	-0.862	9.9653	3.0932	0.7884	0.0208	0.4803	-0.1141	-0.2522	2.1496	-1.628	9.2874	-1.2153	0.9396	0.5088	0.1229	-0.5786	-0.8516	9.8175	-1.681	-1.1839	-2.4522	1.4883	-12.8247	-1.3095	0.5936	0.8042
-0.7656	-0.5756	9.7352	3.0393	0.7613	0.327	0.4803	-0.1021	-0.2402	2.4995	-1.8002	9.4724	-1.2123	1.0932	0.4807	0.1077	-0.5398	-0.8532	9.3669	-1.6793	-0.9012	-3.5871	2.6963	-13.6307	-1.2573	0.6284	0.8013
-0.8829	-0.6906	9.6144	2.4435	0.6628	0.0664	0.4803	-0.0961	-0.2402	2.1563	-1.9136	9.5839	-0.5388	0.8974	0.5092	0.0657	-0.5938	-0.9049	9.5868	-1.509	-1.3045	0.089	1.2746	-15.3478	-1.2751	0.5973	0.7681
-0.6553	-0.3463	9.5016	1.2406	0.8352	0.0356	0.4683	-0.0901	-0.2402	2.3191	-2.1439	9.0522	-0.6629	0.8383	0.4462	0.066	-0.6123	-0.922	9.5341	-1.3934	-1.0718	-3.5105	2.8046	-18.3766	-1.2924	0.613	0.7843
-0.5903	-0.6906	9.8565	1.3895	0.6147	-0.0303	0.4563	-0.1021	-0.2522	2.0383	-1.7991	9.4629	-0.6956	0.8066	0.8162	0.1228	-0.5779	-0.8695	9.4751	-1.5658	-1.1903	-0.7031	2.7052	-18.4356	-1.2751	0.5973	0.7681
-1.0493	-1.2071	9.9054	0.4112	1.0841	0.0573	0.4623	-0.0901	-0.2582	2.6203	-2.0861	9.7119	-1.3707	0.9103	0.786	0.0792	-0.5559	-0.9063	9.9359	-1.5657	-0.9477	-1.6685	3.5979	-17.3118	-1.2914	0.5896	0.8411
-1.0537	-0.6325	9.7294	1.0589	0.7519	0.2226	0.4803	-0.1021	-0.2462	2.3241	-2.2579	9.2896	-1.9306	0.6127	0.8106	0.0797	-0.5758	-0.8877	9.7091	-0.9339	-0.8333	-2.0534	3.2849	-15.6175	-1.2572	0.6108	0.8032
-0.7676	-0.1157	9.6772	1.3491	0.8331	0.6126	0.4683	-0.0961	-0.2402	2.2692	-1.9141	9.4674	-1.8101	0.4576	0.7154	0.066	-0.6123	-0.922	9.5926	-0.8194	-0.9519	-1.8382	3.1825	-12.8502	-1.2577	0.5972	0.7684
-1.0514	-0.6323	9.8476	1.506	0.8879	0.6701	0.4683	-0.0901	-0.2582	2.149	-1.857	9.2275	-2.4584	0.3462	0.6196	0.1093	-0.632	-0.9387	9.7081	-1.0488	-0.8921	-2.0431	2.8955	-9.8949	-1.2388	0.5542	0.8457
-0.7051	-0.2878	9.9143	1.8455	0.3856	0.964	0.4743	-0.1021	-0.2522	2.0829	-1.8005	8.8105	-2.0612	0.246	0.9274	0.0938	-0.5748	-0.9233	9.8153	-1.0502	-1.2399	-2.3016	2.8844	-6.4067	-1.2749	0.6129	0.7846
-1.2801	-0.4016	9.9619	1.8255	0.6322	1.21	0.4743	-0.0841	-0.2462	2.2752	-1.4555	9.8249	-2.7669	0.4106	1.1453	0.108	-0.5583	-0.8703	9.3607	-1.3361	-1.1918	-3.0166	2.905	-2.8468	-1.2569	0.5582	0.8088
-0.4167	-0.4608	9.9195	1.7306	0.5443	1.1813	0.4623	-0.1021	-0.2582	2.3849	-2.086	9.4694	-3.3534	0.3584	1.3286	0.0658	-0.5946	-0.887	9.5455	-0.588	-0.427	-3.69	2.99	-0.1183	-1.2567	0.5738	0.8252
-0.7633	-0.6328	9.8533	1.5879	0.5473	0.4831	0.4803	-0.1021	-0.2402	2.1498	-1.6852	9.2872	-3.5386	0.331	1.2969	0.1078	-0.5568	-0.9061	9.6558	-1.1053	-0.66	-4.0465	2.8617	1.6114	-1.2389	0.5718	0.8439
-0.7686	-0.1734	9.6179	1.4298	0.6754	0.2742	0.4743	-0.0961	-0.2522	2.4396	-1.8575	9.3523	-3.6612	0.3937	1.4831	0.0943	-0.5947	-0.9046	9.7124	-1.5645	-0.7189	-5.0603	2.9529	2.7439	-1.2043	0.5911	0.8242
-0.7092	-0.5183	9.6773	0.376	1.0802	-1.2232	0.4743	-0.0901	-0.2522	2.3236	-1.5711	9.3505	-3.45	0.145	1.3555	0.1223	-0.5748	-0.9409	9.6007	-1.6212	-0.6047	-5.2647	3.0182	1.8251	-1.2747	0.5778	0.7883
-0.8164	0.0005	10.1492	1.9812	0.6166	-0.9903	0.4803	-0.1021	-0.2402	2.4425	-1.571	9.5311	-3.8599	-0.3699	1.3456	0.0936	-0.5732	-0.959	9.5338	-1.9098	-1.1321	-4.8834	3.1165	-0.1833	-1.2568	0.5406	0.8106
-1.2872	-0.8625	9.5471	1.528	0.4188	-1.6211	0.4803	-0.0901	-0.2462	2.5003	-2.1436	9.4717	-3.1906	-0.7806	1.3704	0.1231	-0.5963	-0.8865	9.8221	-1.7376	-0.9507	-4.7148	3.3429	-3.4477	-1.2576	0.6303	0.783
-0.8779	-0.345	9.9108	1.0974	0.4675	-1.5798	0.4683	-0.1081	-0.2402	2.4414	-2.0863	9.4112	-2.7049	-1.277	0.652	0.1086	-0.5944	-0.9224	9.8218	-1.5081	-0.9498	-4.7825	3.5427	-7.7563	-1.2393	0.5405	0.8109
-0.7092	-0.5183	9.6773	0.9557	0.4754	-1.1187	0.4683	-0.1261	-0.2642	2.6074	-1.6867	9.1185	-2.3792	-1.8678	1.1053	0.1078	-0.5568	-0.9061	9.9329	-1.1072	-1.0628	-4.5853	3.7432	-12.5019	-1.2229	0.6321	0.7653
-0.3573	-0.1731	10.0395	-1.8546	1.0808	-1.4435	0.4803	-0.1081	-0.2462	2.3227	-1.6856	9.2908	-3.3639	-1.911	0.7631	0.108	-0.5744	-0.941	9.5354	-1.4505	-1.0137	-3.7707	4.0026	-16.8883	-1.2929	0.5993	0.7495
-1.2873	-0.805	9.5472	-1.7304	0.3389	-2.0914	0.4683	-0.1081	-0.2522	2.1503	-1.399	9.3472	-2.7746	-1.6756	0.7992	0.109	-0.6136	-0.9216	9.8751	-1.3367	-1.1231	-2.9294	4.0118	-20.2343	-1.275	0.5797	0.77
-1.2269	-0.4597	9.7265	-1.2531	0.7787	-1.8564	0.4803	-0.0961	-0.2402	2.7836	-2.0302	9.2402	-5.5926	-2.5485	0.7478	0.0943	-0.5947	-0.9046	9.8184	-1.5661	-1.1251	-2.6541	3.4928	-21.9502	-1.2578	0.6147	0.7665
-0.8317	-0.2315	9.3212	-2.0019	0.5647	-1.992	0.4803	-0.0901	-0.2342	2.0993	-2.1996	9.5821	-6.0408	-3.3716	1.1648	0.123	-0.5956	-0.9044	9.5854	-0.6485	-1.3014	-2.609	2.9676	-21.6578	-1.2053	0.6476	0.782
-1.0553	-0.9778	9.6104	-4.0739	0.8643	-2.2449	0.4923	-0.1081	-0.2522	2.5479	-1.9157	8.998	-6.9365	-3.4802	1.4083	0.1076	-0.5552	-0.9418	9.6408	-1.0506	-1.4184	-2.5665	2.6226	-19.9729	-1.2918	0.5584	0.8082
-0.7605	-0.92	9.9708	-3.8846	0.857	-2.097	0.4683	-0.0961	-0.2522	2.2647	-1.5138	9.29	-9.6214	-3.6832	2.1104	0.0796	-0.5751	-0.9055	9.9899	-1.0499	-1.0614	-2.5992	2.7013	-15.8699	-1.2223	0.5775	0.7892
-1.2875	-0.69	9.5475	-3.2312	0.7085	-1.8392	0.4923	-0.1021	-0.2642	2.4908	-2.1445	8.9963	-8.4312	-2.6887	1.7596	0.1221	-0.5403	-0.8531	9.4753	-0.9919	-1.1299	-2.8267	2.3471	-11.2205	-1.2574	0.5445	0.774
-1.0611	-0.8635	9.3151	-1.0761	0.6832	-0.9766	0.4683	-0.1081	-0.2582	2.4902	-1.4004	9.0573	-7.2788	-2.122	1.0614	0.0788	-0.5536	-0.9599	9.699	-1.0505	-1.3589	-2.2457	2.5821	-8.2352	-1.275	0.5797	0.77
-1.112	-0.8625	9.6686	0.7677	0.8535	-0.3188	0.4803	-0.0961	-0.2462	2.5519	-2.087	9.1759	-6.5643	-1.9462	0.2009	0.0653	-0.5747	-0.9056	9.9399	-1.1633	-0.7129	-2.0977	3.5313	-6.3923	-1.257	0.5757	0.8069
-1.0548	-0.6327	9.6703	4.0586	0.0477	0.7557	0.4683	-0.1021	-0.2642	2.4907	-2.0872	8.9965	1.2408	-0.406	3.8247	0.1082	-0.5759	-0.9053	9.4805	-0.6467	-0.8368	-1.1969	4.0802	-5.2849	-1.2398	0.5776	0.7889
-0.7747	-0.5192	9.2625	4.2127	-1.3011	1.5679	0.4863	-0.0961	-0.2522	2.3179	-2.1441	8.9928	7.9307	2.112	5.827	0.1079	-0.5737	-0.9589	9.3607	-0.6476	-1.1309	-0.7545	4.6919	-4.1665	-1.2756	0.6167	0.7479
-1.2262	-0.2296	9.7861	0.4181	-2.0407	-1.1506	0.4743	-0.0961	-0.2402	2.1396	-1.4	8.8125	5.1887	1.5845	3.6817	0.0948	-0.6139	-0.9039	9.4744	-0.3609	-1.1276	-1.1729	5.1791	-2.0481	-1.2577	0.5972	0.7684
-0.7188	-0.1745	9.2053	9.002	-4.2296	0.0008	0.4803	-0.0841	-0.2342	2.0973	-2.3715	9.4629	-0.0861	2.3261	2.0489	0.079	-0.5713	-0.9948	9.3561	-0.591	-1.3641	-1.8937	6.1279	0.5211	-1.2745	0.5427	0.792
-0.5913	-0.1156	9.8579	-1.7607	-3.7171	0.418	0.4563	-0.1021	-0.2462	2.8402	-2.0877	9.1818	5.1532	2.4262	0.8553	0.1082	-0.5759	-0.9053	9.1298	-1.0494	-1.312	-1.886	6.5834	2.5683	-1.257	0.5757	0.8069
-0.5881	-0.6328	9.9748	5.5342	-4.1731	0.8176	0.4923	-0.1021	-0.2462	2.6624	-1.5726	9.0011	0.098	2.0222	0.5922	0.1221	-0.5572	-0.9059	9.472	-0.304	-1.2441	-0.3001	6.5795	2.5365	-1.2573	0.527	0.7759
-1.051	-0.8622	9.8471	-4.5319	-1.7393	-0.4489	0.4743	-0.0841	-0.2522	2.3827	-1.6856	9.4108	-1.3867	1.8885	1.8535	0.1366	-0.5584	-0.888	9.7115	-0.2449	-0.6557	1.084	6.7021	1.7417	-1.2916	0.5233	0.8119
-0.9334	-0.9197	9.9674	-0.3342	-0.8425	-0.0272	0.4683	-0.1021	-0.2402	2.3234	-1.9718	9.2902	-2.5254	1.9679	2.1927	0.0657	-0.5938	-0.9049	9.8226	-0.5899	-0.8298	3.1616	7.0962	2.143	-1.292	0.5428	0.7917
-0.6444	-0.7475	10.0325	-0.2964	-0.1414	-0.2071	0.4743	-0.0961	-0.2342	2.7185	-1.9163	8.8827	-4.5936	1.7857	2.7726	0.1072	-0.536	-0.9425	9.7085	-0.5323	-0.8319	2.286	6.728	2.3041	-1.2229	0.5813	0.7525
-0.7082	-0.4607	9.7366	-0.689	0.9182	0.6017	0.4683	-0.1021	-0.2402	2.2665	-1.7999	9.3488	-4.1916	1.9612	3.2089	0.0925	-0.5172	-0.9256	9.8827	-1.0485	-0.7136	2.0973	6.2018	3.0635	-1.2397	0.5093	0.778
-0.8866	-0.5186	9.4376	-1.8039	1.701	1.1519	0.4863	-0.1081	-0.2522	2.4974	-1.9149	9.3533	-4.9192	2.6767	3.8998	0.0943	-0.6108	-0.9753	9.994	-1.5082	-0.888	2.1436	4.8152	2.8072	-1.292	0.492	0.779
-0.9399	-0.4029	9.6731	-7.0723	3.4527	1.7477	0.4803	-0.1201	-0.2522	2.2551	-1.9727	8.7543	-6.2905	3.6466	5.1193	0.1077	-0.556	-0.9239	10.1663	-0.8197	-0.7654	0.9828	3.5051	-0.9368	-1.2216	0.5561	0.8277
-0.697	-1.0344	10.2671	-16.1737	6.0914	0.6114	0.4623	-0.1081	-0.2342	2.3762	-1.9152	9.0538	-8.3459	5.8267	6.0812	0.1084	-0.5767	-0.8874	9.8824	-0.8764	-0.713	0.6385	2.1064	-6.4568	-1.257	0.525	0.7942
-1.0454	-0.8615	10.1426	-17.7297	8.5738	0.9381	0.4623	-0.0901	-0.2462	2.556	-1.8004	9.4142	-9.8511	7.8729	7.4431	0.1084	-0.5767	-0.8874	9.9997	-1.5071	-0.5963	0.7866	1.1766	-14.2239	-1.2749	0.5622	0.7718
-0.6967	-1.8394	10.2061	-20.1623	10.9902	-1.3683	0.4863	-0.1021	-0.2462	2.3775	-1.9723	9.1132	-11.6552	8.5178	7.4206	0.0656	-0.5931	-0.9227	9.709	-0.8765	-0.8331	2.4275	0.028	-22.2432	-1.2928	0.5817	0.7514
-1.0593	-2.0637	12.3254	-14.2985	12.9976	-3.9703	0.4683	-0.1021	-0.2522	2.2048	-2.0863	9.1094	-10.7436	9.6052	7.9667	0.1077	-0.556	-0.9239	9.8323	-0.9324	-0.3642	4.3215	-0.6305	-29.5141	-1.2392	0.5737	0.8255
-1.5807	-1.2005	12.2583	7.7167	17.3364	2.9932	0.4743	-0.0961	-0.2582	2.6145	-2.1439	9.4147	-10.4688	9.2978	6.9733	0.093	-0.5364	-0.9248	9.9451	-0.8754	-0.42	7.1656	-1.512	-35.3615	-1.2224	0.5443	0.7746
-1.0095	-2.0647	11.9128	30.0024	22.2895	5.9575	0.4743	-0.0901	-0.2462	2.3831	-2.3152	9.3501	-10.1311	9.231	6.88	0.1223	-0.5579	-0.8881	9.6646	-0.8741	-0.1923	10.9298	-2.1859	-39.4642	-1.2744	0.5251	0.7939
-3.4708	-3.7906	9.5564	10.643	17.8976	20.3455	0.4803	-0.1021	-0.2522	2.2106	-2.0285	9.4066	-9.241	8.9429	6.1043	0.1226	-0.5764	-0.9052	10.29	-0.3591	-0.2362	15.6037	-2.7429	-42.3485	-1.2392	0.523	0.8128
0.1952	0.4844	20.9821	8.792	55.9711	1.6031	0.4863	-0.1021	-0.2462	2.2626	-2.1437	9.1104	-7.831	8.4918	5.4501	0.0642	-0.5186	-0.8722	10.0588	-0.6461	-0.4169	19.8371	-3.6137	-43.2905	-1.2216	0.5053	0.815
-2.6549	-2.9714	16.1915	99.7136	73.523	47.2719	0.4923	-0.1021	-0.2342	2.1474	-2.6586	9.0476	-5.2494	8.1435	4.8307	0.0939	-0.5755	-0.9054	10.1756	-0.1868	-0.2379	23.9361	-5.6035	-41.4252	-1.2558	0.5349	0.8656
-3.7977	-5.5704	10.3728	69.6522	92.4391	51.2858	0.4923	-0.1081	-0.2462	2.3832	-2.3724	9.35	-4.397	7.6077	4.6682	0.1215	-0.5365	-0.9424	10.4527	-0.1313	-0.6405	27.6801	-7.2298	-37.415	-1.2921	0.5096	0.7772
-4.9665	-6.7707	12.415	21.3362	110.3767	70.753	0.4983	-0.1141	-0.2342	2.3278	-2.3148	9.4678	-1.7805	7.4438	3.8668	0.1077	-0.556	-0.9239	10.223	-0.5903	-0.7634	29.3353	-9.6008	-30.4246	-1.239	0.4879	0.8165
-4.1422	-7.115	13.3164	2.7523	125.9367	96.6886	0.5043	-0.1141	-0.2462	2.2625	-2.0865	9.1105	1.3775	6.716	3.5505	0.1507	-0.5573	-0.9236	9.484	-0.7034	-0.662	30.9893	-11.3658	-20.3034	-1.2738	0.5213	0.8305
-4.6511	-7.5729	13.7781	-17.1006	141.5819	115.7603	0.5103	-0.1081	-0.2342	2.4394	-2.2582	9.292	3.0058	6.4749	3.1784	0.1072	-0.536	-0.9425	8.673	-0.7045	-1.3199	33.4022	-11.625	-9.2919	-1.2919	0.5252	0.7936
-4.0052	-7.9176	14.3806	-31.5712	149.8181	135.1184	0.5043	-0.1081	-0.2402	2.2729	-2.4861	9.5851	3.0933	6.1676	2.8951	0.1509	-0.5749	-0.9585	7.6565	-1.2748	-0.8757	36.5871	-10.0111	3.4523	-1.2223	0.5268	0.7764
-2.8554	-6.9999	14.3462	-51.4744	156.2785	143.395	0.5283	-0.1141	-0.2281	2.1567	-2.0853	9.5835	4.1258	5.3834	2.6667	0.1077	-0.556	-0.9239	8.2786	-1.5637	-1.156	38.8824	-7.1686	18.2209	-1.2738	0.5213	0.8305
-2.3332	-5.1602	14.7154	-23.6281	156.6862	153.5283	0.5464	-0.1141	-0.2281	2.3882	-2.4864	9.5875	3.0635	4.5423	2.5572	0.0934	-0.5556	-0.924	7.7663	-1.5053	-1.1077	41.5627	-4.4931	36.4892	-1.2208	0.4664	0.8553
-1.9134	-4.7061	12.5977	-19.8685	145.707	146.3814	0.5644	-0.1201	-0.2161	2.2105	-1.9713	9.4067	-0.1843	3.7377	2.5989	0.0932	-0.554	-0.9598	7.882	-1.1035	-0.9872	43.2208	-1.5499	58.3888	-1.2569	0.5582	0.8088
-1.3351	-2.0616	12.97	-8.5959	138.4264	148.4161	0.5464	-0.1381	-0.2101	1.8025	-2.0852	9.1605	-0.2278	3.0632	2.5559	0.1225	-0.5756	-0.923	8.1667	-0.7598	-0.9803	46.0728	0.3961	82.544	-1.2391	0.5562	0.8274
1.2083	-1.0948	10.4814	20.3591	123.0917	141.1195	0.5464	-0.1141	-0.2041	2.2644	-1.9145	9.2297	-3.9097	2.0822	2.5012	0.1219	-0.5395	-0.871	8.3406	-1.1038	-0.8614	46.5681	0.473	105.0259	-1.2211	0.519	0.8497
5.1923	0.3941	11.0944	36.0034	97.3187	122.4248	0.5884	-0.1321	-0.2101	2.0417	-1.7415	9.6413	-5.3656	1.6457	2.6762	0.165	-0.5577	-0.9235	8.797	-1.9652	-0.9137	44.4969	-0.2782	128.1177	-1.2735	0.5193	0.8489
14.7102	-3.3741	5.3034	111.8087	84.0327	93.2742	0.5824	-0.1261	-0.1981	2.0351	-2.4291	9.2239	-6.3007	1.0173	2.5707	0.122	-0.5564	-0.9238	8.7934	-2.5397	-1.1492	40.595	-4.4911	146.001	-1.2747	0.5778	0.7883
15.5904	-4.6389	6.0265	-1.6616	82.1387	-2.4459	0.5944	-0.1381	-0.2041	2.0926	-2.372	9.2252	-7.6895	0.7964	2.3172	0.1217	-0.538	-0.9067	9.2466	-3.5164	-1.377	34.1148	-10.2499	157.9463	-1.2571	0.5933	0.8051
14.7465	-1.702	7.3761	16.2953	93.5088	-95.8637	0.6064	-0.1261	-0.1921	2.0375	-1.9709	9.4031	-8.1314	0.0706	1.5005	0.1213	-0.5188	-0.9075	9.3014	-4.3202	-1.5539	28.0017	-16.602	162.6297	-1.2408	0.6516	0.7448
10.0249	-7.6234	3.9019	30.1042	68.5302	-140.2407	0.5884	-0.1381	-0.1861	2.2731	-2.5434	9.585	-5.6756	-0.3088	1.4671	0.1216	-0.5372	-0.9246	9.3571	-4.8944	-1.6715	20.185	-15.9073	154.5216	-1.2581	0.6166	0.7482
7.3027	-8.2528	3.0792	-42.198	51.749	-151.4732	0.6064	-0.1441	-0.1861	2.0937	-1.8567	9.3451	-5.8619	-0.5777	0.4737	0.1203	-0.4797	-0.9269	9.5363	-5.6965	-1.3208	12.635	-14.0042	126.2067	-1.2922	0.6286	0.8007
5.4859	-6.0033	4.7036	-79.5137	29.7372	-127.4364	0.5944	-0.1201	-0.1741	1.9851	-2.142	9.6393	-4.3596	-1.0302	-0.2113	0.0651	-0.557	-0.8707	9.5353	-6.5573	-1.4407	9.9971	-12.1022	85.4655	-1.2749	0.6636	0.7973
5.5612	-5.1962	5.7114	-106.0213	6.0127	-90.1624	0.6004	-0.1141	-0.1981	1.9778	-2.6006	9.2224	-2.7584	-1.1165	-0.766	0.0797	-0.5758	-0.8877	8.8525	-6.8429	-1.3971	10.9489	-8.8049	39.6901	-1.2569	0.6772	0.8324
5.6566	-4.329	7.7833	-137.0233	-24.5158	-57.0184	0.5884	-0.1141	-0.1801	2.154	-1.971	9.4649	-2.4585	-1.6111	-1.1758	0.0779	-0.4983	-0.9086	9.3659	-6.1551	-1.3259	13.0538	-6.697	-1.6852	-1.2579	0.7337	0.7901
6.1507	-2.7156	9.6875	-140.7278	-60.4693	-31.4559	0.5824	-0.1081	-0.1801	2.4978	-2.0866	9.353	-0.7699	-1.9447	-1.6729	0.1221	-0.5572	-0.9059	8.9748	-5.5218	-0.8648	15.3225	-5.0994	-29.0909	-1.2748	0.6968	0.8119
7.5493	-1.2785	10.6636	-122.1891	-89.6524	-14.841	0.5884	-0.0901	-0.1921	1.8607	-2.3143	9.1612	-1.9433	-2.1694	-1.8952	0.093	-0.5364	-0.9248	8.7336	-4.4336	-1.449	16.0516	-3.5162	-41.9479	-1.2573	0.6791	0.8141
7.4247	-1.1069	10.189	-101.4013	-115.6855	-4.8807	0.5764	-0.0781	-0.1801	2.1568	-2.1425	9.5834	-3.899	-3.1464	-2.5646	0.0924	-0.5164	-0.9434	8.684	-4.0879	-1.0404	13.2065	0.8738	-43.3689	-1.2234	0.7198	0.7559
7.0844	-0.4156	10.5385	-102.1522	-136.0455	-1.746	0.5884	-0.0781	-0.1981	2.2103	-2.372	9.3465	-3.7283	-3.9761	-3.0733	0.1074	-0.5376	-0.9068	9.0234	-3.7447	-1.149	12.3615	-0.3223	-35.4931	-1.2568	0.7104	0.847
6.5045	-0.3	10.3502	-100.9618	-151.4271	-2.9921	0.5644	-0.072	-0.1921	2.3253	-2.2578	9.3491	-1.9202	-4.5562	-3.8526	0.1069	-0.5176	-0.9255	8.8963	-3.46	-1.7922	10.4352	-0.3634	-21.8904	-1.2054	0.6651	0.7801
5.0804	-0.1803	11.209	-101.2095	-162.8151	-7.2919	0.5824	-0.0781	-0.2101	2.0415	-2.1422	9.581	-2.5113	-4.9738	-4.3552	0.1067	-0.5169	-0.9433	8.5138	-3.9153	-0.9848	6.615	-1.1115	-7.5005	-1.2751	0.6987	0.7936
4.6899	-0.523	11.8505	-94.7093	-171.6496	-13.8761	0.5464	-0.0781	-0.1981	2.2088	-2.2577	9.2873	-1.8456	-5.8089	-5.5735	0.0935	-0.5725	-0.9768	8.1058	-3.3999	-1.3995	2.4218	-1.1763	5.6822	-1.2233	0.753	0.7705
3.7819	-0.2321	12.6015	-87.1664	-178.24	-22.1196	0.5584	-0.06	-0.2101	2.5618	-1.7426	9.7114	2.1389	-6.7662	-5.7998	0.0937	-0.5578	-0.8705	8.1008	-3.9172	-1.6931	-0.4388	-1.1721	15.6953	-1.2397	0.6615	0.8162
2.237	-0.8605	13.1016	-80.4329	-183.0888	-31.6446	0.5464	-0.072	-0.2221	2.2107	-2.5437	9.3461	3.228	-7.9472	-6.7764	0.1067	-0.4999	-0.8905	7.8724	-3.7447	-1.6971	-1.527	-0.882	21.8897	-1.2923	0.6969	0.8116
0.8007	-0.8574	13.31	-75.65	-187.1901	-42.8862	0.5343	-0.048	-0.1921	2.0968	-2.1426	9.4634	5.5917	-8.2644	-6.6235	0.136	-0.5384	-0.9066	7.4213	-4.0874	-1.474	-3.8888	1.6386	25.8614	-1.2747	0.6792	0.8138
0.0079	-0.5092	14.0634	-69.0118	-188.9271	-55.5309	0.5283	-0.048	-0.2101	2.437	-2.2585	9.1732	4.1431	-8.4225	-6.9686	0.1362	-0.5561	-0.9415	7.9894	-4.1461	-1.5795	-5.9473	2.8408	27.4471	-1.2748	0.6968	0.8119
-0.1646	-0.7388	14.0595	-64.3029	-188.2147	-72.4132	0.4923	-0.066	-0.2342	2.5043	-2.3149	9.6496	6.6555	-9.1985	-7.812	0.1216	-0.5372	-0.9246	7.983	-4.4341	-1.9307	-7.5259	5.2212	26.7144	-1.2399	0.6966	0.8125
-1.4301	-0.8513	14.1527	-50.9195	-185.4847	-90.8345	0.5043	-0.042	-0.2161	2.4976	-2.4873	9.2927	8.2205	-9.6505	-8.8674	0.1208	-0.4989	-0.9261	7.8073	-4.4347	-2.1675	-8.5944	7.3294	24.0222	-1.2038	0.6555	0.8718
-2.5928	-2.1156	13.4771	-39.4155	-180.2249	-108.34	0.4983	-0.042	-0.2101	1.9788	-2.486	9.2821	9.9408	-10.0733	-10.1691	0.0933	-0.5548	-0.9419	7.8618	-4.9517	-2.3433	-9.7928	9.9097	18.5411	-1.2403	0.7161	0.7923
-4.4426	-2.1705	13.1454	-35.3443	-172.4328	-121.2589	0.4863	-0.042	-0.2281	2.5031	-2.315	9.5902	8.5441	-10.5439	-9.4387	0.1062	-0.4808	-0.8913	7.8158	-4.7201	-1.7601	-10.1082	12.216	11.4009	-1.2409	0.7706	0.7684
-5.4244	-3.4916	12.8867	-35.2464	-164.3798	-126.0008	0.4623	-0.048	-0.2281	2.3892	-1.9139	9.7075	9.8733	-11.8563	-9.398	0.1218	-0.5549	-0.9595	8.1646	-4.5472	-1.4025	-10.8889	14.1461	6.4165	-1.2399	0.6966	0.8125
-7.2134	-4.6964	12.6126	-34.997	-158.01	-121.9465	0.4683	-0.048	-0.2281	2.3184	-1.8578	9.0528	8.2133	-13.213	-8.6221	0.1211	-0.5173	-0.9432	8.2219	-4.7194	-1.402	-14.5768	15.1268	1.7713	-1.2393	0.6927	0.8491
-7.9165	-4.524	12.0085	-37.2001	-150.1693	-112.4586	0.4563	-0.042	-0.2342	2.844	-3.175	9.2391	4.7375	-17.643	-7.1012	0.108	-0.5744	-0.941	8.1641	-4.2604	-1.4014	-17.7471	15.302	-2.1059	-1.2745	0.6948	0.8302
-9.6024	-4.5229	11.2075	-32.3126	-140.5542	-97.8884	0.4383	-0.048	-0.2221	1.9402	-2.9992	10.1711	-6.2924	-22.4111	-4.1478	0.0791	-0.5551	-0.9241	8.6778	-4.4907	-1.392	-19.4582	14.7577	-3.9676	-1.2398	0.7297	0.8271
-10.5989	-4.5807	10.3017	-36.1025	-126.7136	-81.2217	0.4323	-0.042	-0.2402	2.322	-3.3458	9.0498	-15.6799	-25.2353	-2.7938	0.0788	-0.5367	-0.9071	8.9603	-4.2621	-1.5021	-20.3932	14.0511	-3.9691	-1.2752	0.7162	0.7917
-10.6119	-4.2373	9.6524	-53.8119	-109.3616	-66.116	0.4323	-0.03	-0.2342	2.7119	-2.146	8.5257	-17.4946	-22.1589	-4.1628	0.0643	-0.5355	-0.925	8.9034	-4.3194	-1.5035	-21.4862	12.6997	-4.664	-1.2227	0.7491	0.8072
-11.0195	-3.1444	9.529	-63.553	-91.4016	-52.6324	0.4263	-0.024	-0.2342	3.5486	-3.5761	9.8467	-14.4685	-18.1948	-2.6661	0.1079	-0.5575	-0.8882	9.138	-4.089	-1.148	-22.3135	10.7032	-6.2149	-1.2406	0.718	0.774
-11.5489	-1.5922	9.1089	-60.1713	-77.1822	-41.7147	0.4143	-0.018	-0.2402	2.062	-3.743	10.4097	-10.0342	-30.1132	2.5339	0.0498	-0.5336	-0.9609	8.8979	-4.4925	-1.7959	-22.1079	9.2229	-6.2305	-1.2404	0.7336	0.7904
-11.9109	-1.306	8.2754	-59.8233	-64.7737	-33.2645	0.4083	-0.024	-0.2281	2.8402	-1.1146	9.3027	-11.5192	-27.3167	-6.4681	0.0797	-0.592	-0.9583	9.4717	-4.4928	-1.6094	-22.727	8.3647	-7.2291	-1.293	0.7183	0.7731
-12.5416	-0.6144	8.5011	-60.4737	-47.4041	-25.9506	0.4083	-0.018	-0.2342	3.4836	-2.4891	9.61	14.5903	-16.783	-3.3316	0.0501	-0.5359	-0.9073	9.4738	-4.3776	-1.4923	-23.2032	7.8244	-11.2116	-1.2928	0.6832	0.7768
-14.0284	-0.2078	9.123	-48.6376	-25.1013	-15.9223	0.4023	-0.018	-0.2462	2.5514	-0.885	9.2972	-9.5462	-29.2201	-0.0437	0.0498	-0.5174	-0.8902	9.3538	-4.2638	-1.7859	-22.9087	8.3668	-16.8435	-1.2934	0.687	0.7402
-15.5992	-0.1493	8.3245	-38.2268	-0.5653	-5.1442	0.3963	-0.03	-0.2342	2.2714	-2.8298	9.4656	-20.1383	-40.4633	0.4168	0.0644	-0.5363	-0.9072	9.4559	-4.6678	-2.427	-22.8472	9.7692	-21.3673	-1.2396	0.6946	0.8308
-15.0257	0.1944	8.2183	-27.8204	23.8164	5.5727	0.4023	-0.024	-0.2342	3.5295	-1.5744	9.1377	-12.8723	-32.7199	-1.2238	0.0643	-0.5355	-0.925	9.1763	-4.5516	-2.1405	-22.5382	11.1873	-21.5796	-1.2227	0.6984	0.7944
-30.4085	-16.4612	27.7884	-32.7476	67.0394	17.9616	0.4083	-0.012	-0.2342	0.7697	-3.7193	20.7179	-74.1196	-82.5474	4.6992	0.036	-0.5531	-0.9423	9.1775	-4.6087	-2.0824	-21.1408	11.8381	-14.4984	-1.2581	0.7181	0.7737
-4.5059	27.3227	36.9085	522.6957	139.2884	-49.554	0.4083	0.012	-0.2462	4.0355	-3.8609	11.1034	-7.5642	-110.9427	-17.0948	0.0781	-0.516	-0.9435	9.5706	-4.3236	-2.3651	-22.0988	14.793	-3.2973	-1.2582	0.6849	0.7591
10.844	-24.142	-3.0944	557.6899	96.5226	158.9929	0.4323	-0.018	-0.2462	2.4317	-1.7953	11.8468	-34.3634	-103.6708	-9.8774	0.0642	-0.5186	-0.8722	10.4822	-3.7514	-2.3448	-20.5499	14.3671	2.9787	-1.241	0.6867	0.7411
3.1338	-12.2587	7.6556	112.2806	197.9596	-122.6555	0.4503	-0.048	-0.2522	4.0569	-3.1661	15.1442	-49.9527	-101.0568	-20.5747	0.0342	-0.4756	-0.9633	11.2898	-3.751	-1.8619	-20.0107	13.7876	0.732	-1.2934	0.7378	0.7529
2.2715	13.9731	13.3159	184.3477	184.1464	-110.5554	0.4323	-0.066	-0.2462	2.8443	-3.5699	12.0892	-37.3011	-106.294	-37.9716	-0.0223	-0.4954	-0.9094	12.9933	-4.0993	-2.2374	-21.7078	7.2484	-6.0791	-1.2588	0.7395	0.7352
-2.4915	-2.5418	3.6112	196.0486	176.1664	-66.4315	0.4683	-0.072	-0.2522	3.7793	-4.8302	12.581	-33.1676	-143.6686	-23.6836	-0.0652	-0.4787	-0.8212	12.5477	-4.3261	-1.7221	-25.6615	0.1821	-10.425	-1.258	0.7005	0.7755
-2.0316	5.4796	16.4607	24.7815	178.6317	-76.3713	0.4623	-0.072	-0.2762	4.8752	-3.1155	12.8448	-32.7568	-157.3392	-30.6285	-0.0079	-0.4804	-0.8207	13.0115	-5.4731	-1.4254	-32.1935	-4.813	-23.6624	-1.222	0.6263	0.8202
-3.2132	1.9557	8.512	153.0266	129.2744	-33.1148	0.4743	-0.072	-0.2702	3.4363	-4.085	12.8131	-27.6111	-168.0237	-36.7706	-0.0799	-0.4752	-0.8928	13.1393	-5.4708	-0.7228	-43.5335	-6.7848	-52.1041	-1.2758	0.6518	0.7442
-3.2613	2.302	9.0437	32.8514	106.6493	2.896	0.4863	-0.0961	-0.2642	3.5291	-3.6295	11.7468	-20.8092	-175.1526	-48.0653	-0.1086	-0.4744	-0.893	13.4321	-5.2403	-0.3078	-48.4336	-10.8889	-93.0768	-1.2755	0.6499	0.7625
-0.4299	-0.5774	9.21	27.593	83.471	23.6363	0.4923	-0.072	-0.2522	3.2812	-3.3444	10.9108	8.7003	-168.6902	-61.2396	-0.0933	-0.5139	-0.8735	13.3639	-4.7258	-0.8322	-39.4112	-14.5348	-143.179	-1.2573	0.6284	0.8013
-0.4148	-0.8631	9.9776	-8.1761	71.789	9.7031	0.4923	-0.0901	-0.2582	5.8072	-5.1203	13.0974	12.9767	-171.081	-64.8262	-0.1075	-0.4981	-0.7851	12.2275	-4.4937	-0.6208	-28.4866	-15.1606	-185.1626	-1.2401	0.681	0.796
-1.1019	-0.2287	10.2612	-19.1051	61.3829	0.6349	0.5043	-0.1021	-0.2462	6.1871	-5.9192	14.7072	-31.3868	-207.1253	-67.9549	-0.1504	-0.5138	-0.8382	10.4091	-3.629	-0.2458	-17.9555	-14.1193	-209.1995	-1.2404	0.6322	0.765
-0.7025	-1.15	9.9713	-8.5093	57.0978	3.1896	0.4983	-0.0781	-0.2582	4.4397	-5.8596	13.7804	-7.3789	-224.6696	-81.443	-0.1652	-0.4934	-0.8569	8.6764	-2.8843	-1.3278	-3.0843	-8.9841	-216.1713	-1.2917	0.5408	0.8101
-3.6122	-1.3137	11.4503	-57.2785	-4.8343	12.5918	0.5043	-0.0901	-0.2522	4.0467	-5.0619	11.517	56.8201	-214.0103	-94.2033	-0.1777	-0.5543	-0.7655	8.109	-1.7927	-1.1019	3.9398	2.2902	-209.3538	-1.2214	0.521	0.8314
-1.0907	-0.2273	10.8523	9.193	6.4384	-14.2187	0.5163	-0.0961	-0.2342	6.1533	-6.6667	12.9231	66.3452	-218.9965	-100.5132	-0.2202	-0.5722	-0.765	7.3498	-0.7045	-1.9297	9.2203	11.7357	-198.4802	-1.2572	0.5094	0.7777
-1.2246	-3.6223	9.5415	35.7205	1.9353	0.5152	0.4923	-0.0961	-0.2702	6.2404	-7.0646	14.3496	10.9589	-249.2213	-106.5833	-0.2488	-0.5721	-0.7474	8.5909	0.7255	-2.483	4.0919	18.2075	-194.0572	-1.2396	0.441	0.7672
-0.7053	0.4598	9.9752	0.2755	7.339	2.5371	0.5043	-0.0961	-0.2462	4.9513	-6.3195	13.3742	4.9517	-270.8116	-117.076	-0.2913	-0.5739	-0.6763	9.7296	1.9858	-2.4555	-2.7672	19.7196	-180.2676	-1.2565	0.488	0.8162
-0.8746	-1.5522	9.967	21.2559	3.4145	5.0244	0.5043	-0.1081	-0.2702	5.5392	-6.606	13.9203	57.1137	-292.3955	-138.1196	-0.2763	-0.595	-0.6397	10.0087	2.9023	-2.6799	-12.1764	19.2687	-149.2677	-1.2734	0.4003	0.8253
-0.8267	-0.5184	9.5569	12.31	5.934	6.2327	0.5103	-0.0961	-0.2402	5.9563	-2.6501	17.976	49.6873	-343.8098	-133.2138	-0.3194	-0.5769	-0.5872	9.8459	3.4779	-2.2144	-29.9687	17.7191	-106.1691	-1.2558	0.3651	0.8293
-1.2918	-0.173	9.3714	-5.4666	6.5464	4.3195	0.5103	-0.1021	-0.2462	8.2489	-3.2808	20.1602	22.2387	-342.3678	-159.9127	-0.3746	-0.6542	-0.531	10.3663	4.0522	-1.7936	-50.6278	13.2263	-56.6636	-1.2565	0.3865	0.7908
-0.5999	-0.9793	9.3238	-14.0011	5.1223	2.6885	0.5283	-0.0901	-0.2462	8.2792	-3.0489	21.7056	83.6568	-354.0582	-147.9111	-0.4029	-0.6556	-0.4777	9.7474	3.7678	-1.3987	-71.3088	7.0663	-6.4493	-1.2033	0.3648	0.8302
-0.7132	-0.8063	9.4402	-17.6413	5.0262	1.8307	0.4983	-0.0901	-0.2462	5.3686	-2.7013	20.2802	161.1295	-343.4145	-145.703	-0.401	-0.7339	-0.4389	8.6207	2.854	-0.7829	-81.8223	1.7215	32.0749	-1.2734	0.3496	0.8125
-1.1153	-0.9205	9.4912	-15.1466	4.0622	1.0019	0.5043	-0.1021	-0.2582	6.2811	-3.2826	16.8529	194.6647	-338.7632	-118.0503	-0.3993	-0.7945	-0.3652	8.6293	2.4539	-0.3759	-80.4792	-2.5442	52.5739	-1.2733	0.3828	0.8271
-1.1022	-1.3214	10.1404	-21.7978	5.1359	1.1698	0.5223	-0.0901	-0.2522	7.8605	-5.3449	17.7721	132.8629	-344.6329	-92.9422	-0.4428	-0.7571	-0.3135	8.622	2.0509	-0.7859	-70.2802	-5.2035	56.3927	-1.274	0.3359	0.7778
-0.9287	-1.0341	10.2035	-18.0982	4.706	1.1384	0.5043	-0.0841	-0.2522	2.3068	-6.942	13.6154	115.6634	-326.8593	-88.2085	-0.4697	-0.833	-0.3106	8.6808	1.6495	-0.7278	-63.0776	-7.8126	47.6076	-1.3095	0.3907	0.7533
-1.0441	-1.609	10.1408	-10.752	4.8564	0.7775	0.5103	-0.0781	-0.2762	-0.3964	-5.8073	5.3655	175.3098	-299.7957	-63.8749	-0.4546	-0.8387	-0.1855	8.7356	0.8457	-0.9047	-57.8709	-12.1236	32.9579	-1.2392	0.4216	0.7873
-0.9369	-0.8626	9.7902	-9.7172	4.907	1.3018	0.4923	-0.0901	-0.2462	-17.2616	-7.7335	-5.4396	300.0373	-182.6815	16.2893	-0.4677	-0.879	-0.1305	8.0538	1.421	-0.7412	-51.5314	-16.1258	17.3068	-1.2387	0.3845	0.8094
-0.826	-1.5534	9.4953	-12.7699	5.1923	2.4759	0.5163	-0.0901	-0.2582	-19.6989	-14.8389	-12.929	374.8447	47.4637	55.5828	-0.4529	-0.8824	-0.0589	8.5145	1.4785	-0.4984	-44.8048	-18.9587	2.0497	-1.2737	0.4023	0.807
-0.6486	-1.5532	9.7351	-12.0374	5.2825	2.0925	0.5283	-0.0781	-0.2582	-11.3262	-13.81	-3.3104	-154.687	148.0283	-18.5678	-0.5109	-0.8439	-0.0252	8.2991	1.4238	0.1387	-40.9911	-19.0138	-11.8689	-1.2392	0.4723	0.8001
-0.8807	-1.3229	9.672	-7.6809	5.1056	3.3278	0.5103	-0.0781	-0.2462	-3.0388	-2.1307	9.12	-401.0712	154.927	-93.7287	-0.4517	-0.94	-0.0566	9.5576	1.1356	0.3379	-38.0244	-14.4584	-20.8308	-1.24	0.4098	0.7342
-1.1643	-1.3218	9.9028	-9.0168	5.2563	4.0934	0.5103	-0.0901	-0.2462	-5.9138	-12.879	10.9985	-78.292	163.9116	-30.1655	-0.4683	-0.859	-0.1491	9.7852	1.4795	0.3437	-32.9561	-6.7275	-22.222	-1.2907	0.3653	0.8287
-1.1714	-1.7828	9.488	-3.6513	5.1884	4.8777	0.5043	-0.0841	-0.2522	1.433	-11.5203	12.5782	112.206	142.0898	-29.5749	-0.4389	-0.8975	-0.1652	9.8376	1.5359	0.1116	-31.9106	2.3778	-16.8654	-1.256	0.451	0.8383
-1.0555	-1.4954	9.55	-2.5036	5.5988	4.7911	0.5103	-0.0841	-0.2582	-4.551	-0.3024	5.7665	97.1724	175.4816	-24.0332	-0.4543	-0.8572	-0.2026	9.724	1.2493	0.1083	-28.8452	11.1904	-8.6907	-1.2573	0.4762	0.7631
-1.1067	-1.3219	9.9039	0.1178	5.707	5.6737	0.5163	-0.0781	-0.2462	-7.5878	-3.8481	3.3208	-2.5603	208.5082	2.0783	-0.4395	-0.8768	-0.2017	9.3271	1.1929	0.2168	-26.3494	18.2188	-1.2958	-1.3095	0.3907	0.7533
-0.8747	-1.4947	9.9671	1.2175	5.6945	6.3486	0.5163	-0.0841	-0.2522	-4.4774	-3.9645	6.1168	-7.253	262.4649	17.9813	-0.4531	-0.914	-0.2181	9.3828	0.6188	0.0991	-24.1151	23.8094	2.9189	-1.2567	0.4217	0.7871
-1.0529	-1.035	9.7285	0.5809	5.7534	6.761	0.5103	-0.0841	-0.2642	-3.7795	-5.5112	6.2468	25.7177	284.1935	46.6571	-0.3826	-0.8762	-0.2548	9.1016	1.0216	0.3283	-21.6445	28.1703	5.9223	-1.2746	0.3905	0.7538
-1.0494	-1.1496	9.9055	-2.3084	5.876	7.2285	0.5223	-0.0901	-0.2522	-3.274	-5.8572	5.5437	11.7916	290.0326	64.8377	-0.3977	-0.8543	-0.3093	9.3312	1.538	0.4515	-21.1116	29.7305	9.0385	-1.2573	0.4255	0.7504
-1.0596	-1.0933	9.3737	-3.7732	5.8131	6.8062	0.5163	-0.0901	-0.2462	-1.8844	-6.3751	5.8088	-24.3035	290.7012	80.8185	-0.3695	-0.8521	-0.3805	8.9844	1.5377	0.2112	-22.0853	29.1911	14.3133	-1.2227	0.4272	0.7327
-0.5939	-1.1511	9.619	-2.6649	5.1821	5.9214	0.5103	-0.0841	-0.2522	-1.6465	-5.9742	6.2304	-35.3261	288.857	96.3662	-0.3533	-0.947	-0.4123	9.148	1.1918	-0.1951	-21.7239	26.5182	20.5174	-1.2573	0.4255	0.7504
-0.8805	-1.4379	9.6717	-5.5287	5.4859	6.0843	0.5283	-0.0841	-0.2582	-0.6539	-6.2616	6.8442	-40.1636	281.2502	99.4965	-0.3552	-0.8687	-0.451	9.2007	0.3302	-0.4889	-19.8932	20.8531	26.2059	-1.2582	0.4313	0.6954
-1.118	-1.2658	9.313	-4.3125	4.8221	5.7764	0.5043	-0.0901	-0.2402	-0.3566	-5.5745	7.3863	-63.9141	270.9452	105.1716	-0.2858	-0.7903	-0.5428	8.9196	0.6756	-0.2599	-19.1653	15.1298	31.668	-1.2576	0.4274	0.7321
-1.0495	-1.0921	9.9056	-5.0175	5.4671	6.7124	0.5223	-0.0961	-0.2582	-0.4358	-5.7424	9.1662	-66.1217	262.523	109.0025	-0.3427	-0.8078	-0.5425	9.1367	-0.3596	-0.901	-19.0982	9.9953	36.636	-1.2747	0.4081	0.752
-0.9338	-1.3222	9.9073	-6.3314	6.0778	7.9987	0.5103	-0.0781	-0.2402	0.3237	-5.5143	9.7168	-68.4837	258.6537	111.3698	-0.2711	-0.8099	-0.542	8.2235	0.1008	-0.9176	-19.6917	6.0696	40.1723	-1.2756	0.4646	0.7097
-1.1071	-1.092	9.9045	-4.3632	6.3956	8.5933	0.5103	-0.0901	-0.2462	1.2605	-6.0303	10.3884	-70.3825	258.969	109.8276	-0.2871	-0.7489	-0.6158	8.4015	0.1018	-0.5641	-18.704	4.6105	42.4222	-1.2744	0.4061	0.7703
-0.8757	-1.6098	9.9077	-2.2214	6.5778	7.7186	0.5163	-0.0901	-0.2462	2.0846	-6.2023	11.2366	-71.561	264.197	105.3777	-0.2729	-0.7485	-0.6336	8.278	0.2724	-1.0326	-17.5438	4.8181	43.9766	-1.2583	0.4489	0.6936
-0.7598	-1.3224	9.9698	-2.4448	7.2313	8.1854	0.5163	-0.0961	-0.2582	2.4901	-6.0313	11.3641	-77.1609	269.0002	102.9515	-0.2738	-0.7263	-0.7058	8.2365	-0.1837	-0.2768	-14.1594	3.9441	44.6236	-1.2402	0.4449	0.7305
-1.1006	-0.9761	10.2594	3.5767	6.7876	6.0839	0.5223	-0.0841	-0.2522	2.4408	-6.5456	11.7184	-87.0312	272.6534	99.2617	-0.2584	-0.7828	-0.7391	8.2403	-0.4126	-0.1025	-14.346	6.1028	44.5965	-1.3112	0.4862	0.6707
-1.1115	-1.15	9.6679	3.9311	6.9627	7.6322	0.5283	-0.0841	-0.2462	2.2859	-7.1158	12.5455	-112.1745	271.8787	93.2422	-0.2182	-0.6674	-0.7791	8.5871	-0.4123	0.1377	-14.3942	6.3824	43.9891	-1.2923	0.494	0.7607
-0.9957	-1.4377	9.6695	1.6745	6.5074	7.8675	0.5163	-0.0961	-0.2642	3.4542	-7.0599	13.3419	-126.0729	274.7995	90.1193	-0.2186	-0.6651	-0.8326	8.4188	-0.7558	0.2498	-13.3145	5.9212	42.8142	-1.2579	0.4801	0.7265
-1.0527	-1.15	9.7282	-0.2999	7.2401	9.7807	0.5163	-0.0841	-0.2522	3.1365	-6.4266	14.8215	-154.0243	277.1807	89.5264	-0.206	-0.605	-0.9063	8.0793	-0.2957	0.4197	-12.83	4.9103	40.5568	-1.2585	0.5347	0.7026
-0.9374	-1.2077	9.7303	6.2811	8.1907	10.3278	0.5163	-0.0961	-0.2522	3.1752	-6.709	16.7224	-162.448	283.104	87.6713	-0.1637	-0.5686	-0.8896	8.6469	-0.7561	0.2544	-11.104	3.4624	38.9401	-1.2407	0.5326	0.7212
-0.8857	-1.036	9.4363	7.1825	7.4172	9.8743	0.5163	-0.1021	-0.2462	3.8398	-7.051	18.2203	-168.8893	289.3952	85.2394	-0.135	-0.5864	-0.9422	8.5896	-0.584	0.2538	-8.9198	1.921	37.2807	-1.2766	0.5386	0.6656
-1.1125	-1.2076	9.6087	0.0444	7.2217	8.8265	0.5343	-0.0961	-0.2402	4.6308	-7.0488	20.3154	-164.8065	295.2183	78.6781	-0.0789	-0.5474	-0.9968	8.4772	-0.8704	0.3089	-3.6409	-0.4914	35.5962	-1.1883	0.5324	0.7221
-1.5197	-1.6099	9.3635	-0.0262	6.1158	6.9304	0.5343	-0.1021	-0.2522	5.9628	-7.5666	20.5793	-157.8813	301.0602	70.7939	-0.0234	-0.4885	-1.0701	8.2473	-1.2146	0.1863	1.1814	-2.2523	33.0457	-1.2238	0.5696	0.6994
-1.5176	-1.5522	9.4818	4.1667	6.2846	8.7513	0.5343	-0.1021	-0.2582	7.9383	-8.0277	21.3318	-140.2136	303.5132	58.8216	0.0047	-0.4694	-1.0885	8.2391	-1.1014	-0.2217	4.1883	-3.8879	31.2747	-1.2932	0.5505	0.7185
-1.0442	-0.9189	10.2016	6.9745	6.8687	8.2593	0.5283	-0.0781	-0.2702	10.5833	-7.6341	21.0902	-146.4362	289.6479	51.9533	0.0899	-0.4344	-1.0715	8.5831	-1.5032	-0.158	7.1278	-5.7779	31.8092	-1.2939	0.5544	0.6818
-1.3251	-2.4701	10.4286	24.2874	8.0192	10.2244	0.5343	-0.1081	-0.2522	14.2017	-5.9841	20.693	-136.9981	270.8894	28.6856	0.1026	-0.375	-1.1273	8.2963	-1.2162	-0.221	7.981	-8.2238	34.1879	-1.2579	0.5815	0.752
-0.3012	0.0566	9.9821	54.8536	4.8679	8.09	0.5103	-0.0961	-0.2462	17.3529	-2.33	20.2309	-126.9888	252.9392	22.2363	0.173	-0.3357	-1.1997	8.4631	-1.3894	-0.4516	7.5209	-11.9628	36.9873	-1.2234	0.5501	0.7196
-1.7698	-1.957	8.2942	46.1376	2.1984	14.0832	0.5103	-0.1021	-0.2522	18.8928	6.3026	17.6078	-144.0818	210.722	32.8198	0.2156	-0.3185	-1.1823	8.6413	-1.5605	-0.0987	8.367	-15.3968	39.7384	-1.2763	0.5367	0.684
-1.4942	-0.8017	10.7839	82.3327	1.479	20.8869	0.5343	-0.0961	-0.2342	23.3369	9.3778	15.4487	-84.759	218.3256	0.6589	0.2579	-0.2991	-1.2184	8.4761	-1.6739	0.1892	5.9544	-15.0828	39.8573	-1.2413	0.5365	0.6845
0.2317	1.0853	7.809	86.3711	-1.8347	14.7287	0.5343	-0.0961	-0.2402	27.0502	19.217	17.9214	-82.6591	169.7606	33.5547	0.2862	-0.2646	-1.1483	9.5618	-1.5031	0.3283	0.405	-12.0315	35.2476	-1.2756	0.6167	0.7479
-0.8525	-2.0095	11.0889	44.0642	17.112	12.694	0.5343	-0.1021	-0.2522	33.0827	23.3335	23.2811	-12.6969	125.9269	-31.5011	0.2855	-0.2439	-1.1848	9.6241	-1.2153	0.6223	-0.2861	-13.2339	26.5977	-1.2584	0.5678	0.7172
0.8317	0.4763	18.0995	33.9093	42.5966	8.664	0.5524	-0.1021	-0.2402	29.2028	14.0619	18.3115	36.8186	126.2814	-174.4389	0.3427	-0.2448	-1.2022	9.3809	-1.8489	-0.2016	5.3403	-18.9099	23.1796	-1.2753	0.5641	0.7535
-2.7493	-4.1907	11.1056	18.539	96.533	36.9602	0.5163	-0.1141	-0.2642	31.5302	4.3041	6.6977	136.4487	103.3206	-234.907	0.3574	-0.2644	-1.2013	9.7657	-2.139	-0.9532	6.3778	-21.3212	24.2612	-1.2932	0.6012	0.7312
-2.2347	-0.4615	8.2298	22.8098	81.3882	26.2425	0.5283	-0.1321	-0.2582	55.9374	16.1542	9.7197	48.7377	-29.4386	-215.848	0.3721	-0.2833	-1.2183	9.2478	-2.0817	-1.1968	6.3193	-21.0754	24.5468	-1.31	0.5292	0.7567
-0.7569	0.6404	13.3424	4.0865	84.5571	11.8885	0.5404	-0.1081	-0.2462	25.8614	19.5083	19.0261	189.4758	-158.7108	-192.5928	0.4015	-0.3056	-1.1637	10.088	-1.7989	-1.9372	10.7514	-19.5143	24.626	-1.2583	0.5503	0.719
-1.6856	-0.0489	12.909	28.7135	96.7636	18.0412	0.5404	-0.1081	-0.2462	5.8031	0.5806	2.0616	228.7006	-147.0319	-193.9524	0.3583	-0.3028	-1.1997	10.3135	-1.6276	-2.0487	22.5165	-19.0686	29.9511	-1.2762	0.6206	0.7113
-1.4071	-0.9707	12.3213	16.9571	110.8301	17.8285	0.5464	-0.1201	-0.2402	2.5198	-18.7479	5.5175	148.2455	-327.6481	-41.0722	0.3466	-0.4344	-1.2481	11.5318	-1.6257	-0.9743	22.4083	-17.4186	34.5	-1.3111	0.6208	0.7107
-1.2787	-0.1067	13.094	5.0761	125.706	12.5895	0.5584	-0.1321	-0.2462	-13.0894	-9.1663	27.2515	98.7246	-282.554	114.5769	0.2461	-0.4138	-1.2139	13.6986	-1.3423	-0.9298	14.0707	-13.4785	24.4237	-1.3111	0.6208	0.7107
-1.7985	-0.3287	16.0375	-14.133	149.0096	12.1231	0.5644	-0.1261	-0.2402	2.3548	2.4905	8.528	280.6487	-232.3947	-76.9412	0.218	-0.4329	-1.1955	15.1713	-0.7153	-1.3647	20.7682	-8.045	8.2325	-1.276	0.6362	0.7277
-1.5592	-2.6858	16.2727	-9.3025	175.0687	19.0507	0.5764	-0.1261	-0.2281	6.5258	4.2512	6.9545	69.126	-188.9855	-107.6928	0.1341	-0.5255	-1.2102	15.2324	-1.8623	-1.251	26.2233	0.5416	-9.51	-1.2759	0.6187	0.7296
-2.3317	-2.45	18.0897	-4.8204	202.7937	19.0098	0.6004	-0.1201	-0.2522	2.1939	-4.1996	11.1836	24.7422	-132.6754	-60.5385	0.1628	-0.5264	-1.21	15.4603	-2.4365	-1.3068	14.7434	12.1605	-36.3251	-1.2926	0.5974	0.7678
-2.7981	-4.0528	20.6764	6.1669	235.7274	28.787	0.5944	-0.1201	-0.2221	4.4338	-4.6638	10.7536	-9.5285	-17.7805	-4.3179	0.1347	-0.5454	-1.1916	15.1762	-2.3784	-1.254	10.6106	19.5291	-60.8225	-1.293	0.6168	0.7476
-2.4445	-5.2601	20.9757	39.7198	273.1197	44.1749	0.6064	-0.1261	-0.2281	3.0846	-1.9152	9.9	44.2824	-28.3776	5.0066	0.1198	-0.5251	-1.2103	14.1573	-2.2033	-0.8654	12.274	22.4078	-74.6813	-1.2755	0.5992	0.7498
-2.743	-5.7784	20.3778	50.1766	313.816	56.9103	0.6124	-0.1201	-0.2101	2.2918	-1.1735	7.8063	38.0098	-25.9445	-0.4894	0.106	-0.5446	-1.1918	13.132	-1.5703	-0.767	12.5469	18.454	-81.6769	-1.2583	0.601	0.7318
-3.0071	-7.1048	18.4788	29.3368	358.5861	67.1052	0.6304	-0.1321	-0.1861	2.5952	-3.0045	8.3434	-14.1405	-19.9535	-9.09	0.0771	-0.5253	-1.1749	11.6638	-0.7046	0.0234	13.2092	9.8684	-86.7157	-1.2924	0.5623	0.7716
-3.4108	-10.5042	15.0949	-84.6445	418.1216	63.2936	0.6424	-0.1441	-0.1741	3.01	-2.7754	8.9463	-22.3778	-10.8902	0.7243	0.0917	-0.5442	-1.1919	10.1891	-0.0122	0.463	11.7636	4.0207	-88.5809	-1.311	0.6032	0.7126
-1.513	-4.0602	18.5744	-206.9038	469.1623	59.0846	0.6604	-0.1321	-0.1561	2.8527	-2.3727	9.7755	-4.27	-8.1431	-2.9323	0.0624	-0.5065	-1.158	9.3903	0.2185	0.4478	12.7213	2.3957	-91.9465	-1.258	0.5484	0.7374
2.2232	10.7182	22.5829	-182.193	441.4397	69.8901	0.6724	-0.1441	-0.1321	2.7325	-3.2888	9.4147	7.908	-7.7537	-6.0545	0.0482	-0.5068	-1.1402	9.28	1.4244	0.7417	18.3071	1.068	-95.5197	-1.3099	0.5116	0.7585
-3.5905	-8.9159	30.0431	-180.1648	448.6467	81.9377	0.7085	-0.1321	-0.1081	2.0393	-2.1997	9.4621	4.3475	-8.3127	-11.9078	0.1202	-0.5443	-1.2096	9.7811	1.9378	0.1703	21.6218	-2.1282	-101.0132	-1.3104	0.4979	0.7238
1.8361	-1.5279	22.2499	5.7459	426.0917	146.7023	0.7145	-0.1201	-0.0781	2.3856	-2.3722	9.4689	20.9062	-8.1989	-11.1049	0.0925	-0.5825	-1.1904	9.3777	2.3967	-0.0111	27.1667	-5.1675	-109.0146	-1.2745	0.492	0.7793
-4.9209	-2.2507	27.3748	-68.2966	434.8967	117.2616	0.7445	-0.1261	-0.042	2.1591	-2.085	9.7024	11.2707	-9.4277	-8.4875	0.0922	-0.5641	-1.1733	9.928	2.7938	-0.9903	34.4368	-5.1024	-115.4507	-1.3265	0.4552	0.8005
2.0428	-2.8249	33.0038	-30.621	437.0749	152.3224	0.7445	-0.1501	-0.048	1.919	-2.6006	9.1618	0.0627	-9.3651	-7.2396	0.1079	-0.6229	-1.153	8.8352	2.7938	-1.4789	39.9644	-2.0507	-110.2612	-1.2741	0.4217	0.7868
11.7328	11.8583	1.6787	320.6734	300.3411	84.5523	0.7565	-0.1261	-0.006	2.3864	-2.2004	9.5286	-0.1077	-8.445	-6.3278	0.0638	-0.5648	-1.1378	8.2605	2.6792	-1.7241	40.8256	3.6204	-92.1345	-1.2919	0.4238	0.7682
50.6107	-12.7837	-7.2542	438.0187	90.5399	90.3753	0.7565	-0.1621	0.012	2.5529	-2.4876	9.1751	5.3967	-7.2766	-7.1004	0.107	-0.5837	-1.1724	7.9809	2.7954	-1.4376	38.5389	11.4651	-67.2238	-1.3094	0.4239	0.7679
1.7513	-19.3367	3.9482	-92.4819	-69.4559	28.3004	0.7565	-0.1741	0.024	2.6671	-3.0032	9.0576	10.5964	-5.5889	-6.0421	0.0924	-0.5818	-1.2082	7.5946	3.3148	-0.7435	40.2117	17.7841	-40.8978	-1.3084	0.4005	0.8247
13.09	13.9087	18.7259	-13.3099	-87.7372	-123.4717	0.7625	-0.1621	0.012	2.2117	-2.4864	9.4056	6.9143	-4.9136	-5.6967	0.105	-0.4886	-1.1584	7.8287	3.1434	-0.4478	40.5609	20.1362	-16.5125	-1.274	0.4042	0.7886
2.2638	-13.1132	10.2953	155.6944	-56.2242	32.6218	0.7745	-0.1501	0	2.0953	-2.0282	9.4042	4.818	-6.5395	-4.8646	0.0935	-0.6217	-1.171	8.3421	3.0278	-0.4379	33.9625	19.4338	4.6845	-1.3264	0.3869	0.7896
6.2704	-7.9628	3.3552	110.1955	-68.6072	3.0262	0.7745	-0.1561	0.006	2.2735	-1.7419	9.7054	3.3442	-7.7773	-3.9009	0.1076	-0.6206	-1.2066	8.7938	2.3377	-0.723	32.0591	15.72	19.5039	-1.2742	0.4393	0.7849
9.2311	-0.4896	5.2628	58.1879	-116.8018	6.0273	0.7565	-0.1621	0.012	2.6109	-2.1443	9.2364	4.3896	-7.8862	-4.1481	0.0637	-0.564	-1.1557	9.1266	1.7617	-1.2435	33.1482	8.9226	32.2942	-1.292	0.3906	0.7536
5.2446	-4.5594	7.302	85.881	-172.0698	7.7509	0.7505	-0.1621	-0.012	2.4442	-2.2578	9.5297	7.3255	-8.9782	-4.5949	0.0932	-0.6033	-1.1539	9.5104	1.3566	-2.0539	32.1107	3.5531	43.7185	-1.292	0.4413	0.7663
4.9543	-4.6166	7.1781	93.0227	-205.684	8.299	0.7625	-0.1561	-0.012	2.082	-2.4302	8.6903	8.3437	-6.9751	-3.1984	0.0925	-0.5825	-1.1904	8.8844	1.243	-2.0085	26.0385	-0.8363	51.6344	-1.3449	0.4104	0.7325
4.5682	-4.6785	5.0434	101.9289	-233.1028	8.5652	0.7625	-0.1741	-0.036	2.3813	-2.5443	9.2308	2.0288	-5.6084	-3.2777	0.0653	-0.64	-1.1705	9.1547	1.2399	-2.7614	22.5266	-3.5261	56.4966	-1.2747	0.4081	0.752
5.1928	-5.1408	4.5227	72.8819	-253.9963	-2.624	0.7565	-0.1621	-0.03	2.4402	-2.6016	9.2913	2.6651	-4.5143	-3.1953	0.0775	-0.5445	-1.1742	8.5866	0.5526	-2.717	20.763	-4.2133	60.4256	-1.3273	0.4435	0.7474
5.3857	-5.0237	5.5903	35.64	-269.7461	-21.6973	0.7745	-0.1681	-0.054	1.9658	-2.5445	8.6283	4.7371	-4.2973	-4.732	0.0647	-0.6032	-1.1363	8.7629	0.8402	-2.4208	19.6022	-4.5979	65.6145	-1.2921	0.4589	0.7644
5.1209	-4.9053	6.8261	20.8782	-283.0423	-41.484	0.7505	-0.1801	-0.0781	2.5538	-2.3731	9.2347	4.6261	-3.4409	-3.5433	0.0791	-0.6205	-1.189	8.3615	0.7831	-2.5457	16.2959	-4.7034	71.9325	-1.2916	0.4218	0.7865
5.2956	-3.9852	7.009	16.004	-294.7197	-65.5858	0.7505	-0.1741	-0.0901	2.1586	-1.9133	9.7027	8.9921	-4.1197	-5.7716	0.0488	-0.5437	-1.1744	8.8207	0.3812	-2.4213	11.9569	-5.3654	79.4566	-1.345	0.4962	0.7415
3.8949	-5.0703	8.9879	-0.2376	-300.5064	-89.8312	0.7325	-0.1681	-0.1201	2.7298	-2.1442	9.417	11.8821	-6.1589	-7.1001	0.0354	-0.5816	-1.173	8.8163	0.2657	-2.6551	9.6826	-6.9631	88.6377	-1.3444	0.4416	0.7654
0.8612	-6.0399	9.9308	20.5676	-307.9176	-102.8493	0.7445	-0.1561	-0.1261	2.0405	-1.7416	9.5819	21.6692	-6.0521	-6.4326	0.0924	-0.5818	-1.2082	8.3202	0.2696	-1.7901	9.8721	-9.4794	94.0768	-1.3105	0.5155	0.7219
0.251	-7.1932	8.0254	8.4752	-308.1618	-106.5201	0.7265	-0.1501	-0.1501	2.4873	-2.66	8.7576	17.6252	-4.9124	-5.5545	0.0361	-0.6192	-1.1893	8.5436	-0.4202	-2.0798	2.7862	-9.6422	101.9155	-1.327	0.4922	0.7784
-0.6517	-7.9942	8.9512	-21.7032	-302.3967	-105.2657	0.7145	-0.1501	-0.1621	3.0693	-2.9471	9.0066	11.594	-5.1104	-7.0201	0.0647	-0.6032	-1.1363	8.5509	-0.6484	-1.7305	-3.8515	-7.7392	109.4033	-1.2574	0.5445	0.774
-1.9588	-8.2196	9.8704	-37.9452	-299.5839	-99.8548	0.6965	-0.1381	-0.1981	2.7332	-1.1135	9.7162	11.5341	-6.5543	-6.5827	0.0223	-0.6387	-1.1708	7.8154	-0.8183	-1.4542	-2.2947	-5.6395	116.4247	-1.2919	0.5252	0.7936
-1.9295	-8.2735	11.407	-62.9284	-301.8488	-93.4374	0.6904	-0.1201	-0.2161	2.6195	-3.7463	9.4708	20.7173	-4.2866	-6.2483	0.0779	-0.5637	-1.1734	7.8744	-1.3344	-1.3965	2.3292	-1.9011	119.7965	-1.3272	0.5781	0.7874
-2.251	-8.0398	12.7011	-78.572	-307.0234	-89.4282	0.6724	-0.1081	-0.2342	2.495	-1.3999	9.2949	6.6596	-6.8765	-5.1762	0.0649	-0.6208	-1.1712	7.587	-1.3344	-1.519	3.6343	0.808	120.0017	-1.3444	0.5938	0.8036
-1.8244	-8.4402	13.8901	-85.6808	-311.7334	-86.5994	0.6544	-0.1021	-0.2582	1.9726	-1.9142	9.0455	12.7029	-4.4377	-3.6397	0.036	-0.6023	-1.1365	7.537	-1.5052	-1.1706	3.6794	4.3875	119.0248	-1.3108	0.6189	0.729
-3.013	-7.9754	15.0497	-85.9063	-314.0665	-83.2534	0.6304	-0.0841	-0.2642	2.4426	-2.0862	9.4706	16.6101	-3.5679	-7.1692	0.0505	-0.6204	-1.1713	7.3736	-2.0199	-0.8258	2.6705	6.5172	119.0441	-1.3271	0.6288	0.8002
-3.4516	-8.6043	16.1622	-88.199	-314.08	-80.0876	0.6124	-0.0781	-0.2822	2.9664	-2.2014	9.7188	20.8471	-9.852	-11.9992	0.0789	-0.6028	-1.154	7.1929	-2.4231	-1.3559	5.4624	8.1426	119.4968	-1.328	0.6678	0.7598
-4.4761	-8.8884	16.7914	-95.0558	-311.4504	-75.9419	0.5944	-0.048	-0.3062	2.6881	-2.3715	10.1878	39.4403	-10.8144	-18.933	0.0794	-0.6228	-1.1354	6.9055	-1.7345	-1.4174	6.5145	10.8228	119.275	-1.3102	0.6657	0.7784
-5.2651	-8.8272	17.7215	-100.2141	-306.0299	-67.9182	0.5644	-0.042	-0.3062	2.3292	-1.914	9.5874	49.2568	-16.2472	-22.5027	0.0369	-0.6407	-1.135	6.7367	-2.4797	-1.3652	10.0132	8.9301	120.26	-1.3106	0.6852	0.7582
-7.5525	-10.0285	18.5011	-108.4973	-296.1034	-52.6562	0.5343	-0.036	-0.3242	2.6131	-2.0868	9.3554	45.1506	-22.217	-24.5311	0.0937	-0.6393	-1.2059	6.9648	-2.4801	-1.3606	7.9222	11.0199	123.7497	-1.3107	0.652	0.7436
-8.6524	-9.7972	18.2439	-121.3672	-287.7303	-30.1533	0.5103	-0.012	-0.3362	3.2354	-2.0895	8.7742	57.9529	-17.1844	-24.6352	0.0937	-0.6232	-1.1353	7.082	-2.9961	-1.2435	4.2409	8.1533	126.3596	-1.3458	0.7381	0.752
-10.4951	-10.0237	18.2665	-149.6017	-279.6055	-0.8996	0.4923	-0.006	-0.3242	2.2451	-1.2868	8.3397	61.4716	-11.8079	-25.12	0.08	-0.6596	-1.1696	6.7426	-3.3393	-1.1349	-0.9398	5.511	127.5582	-1.3111	0.773	0.7489
-10.7798	-8.8151	18.5594	-170.037	-275.4363	31.2284	0.4623	0.006	-0.3242	2.4911	-1.2858	9.1169	47.4436	-9.6466	-22.3263	0.0661	-0.6784	-1.1689	6.91	-3.1681	-1.3059	-6.3281	4.3278	125.9072	-1.2943	0.7943	0.7107
-11.9319	-5.9952	18.8392	-187.7863	-265.8594	58.8424	0.4563	0.03	-0.3242	3.0655	-1.8598	8.9494	36.9784	-12.4608	-18.9975	0.0526	-0.6994	-1.1147	7.423	-3.7428	-1.3561	-8.7334	3.6442	120.1449	-1.2935	0.7553	0.751
-14.2881	-4.0925	19.3297	-210.7005	-245.9866	82.3117	0.4203	0.048	-0.3182	2.8654	-2.1998	10.4294	12.8428	-28.4284	-15.7727	0.0389	-0.7359	-1.149	7.7034	-5.0638	-1.7053	-11.7026	2.9429	110.9431	-1.2939	0.8255	0.7436
-16.0811	-0.5247	19.3035	-202.557	-227.2471	93.8809	0.4023	0.072	-0.3002	2.4608	-1.0025	7.632	13.396	-23.5876	-15.5618	0.0529	-0.7179	-1.1318	7.8778	-5.6947	-1.5874	-17.054	3.7997	98.5981	-1.2958	0.8878	0.6464
-16.8216	3.5535	17.113	-195.2677	-199.8621	93.8002	0.3843	0.0961	-0.2822	3.1287	-1.2297	9.3084	6.5371	-15.6689	-9.1939	0.0522	-0.6802	-1.1155	7.7749	-5.5204	-1.0055	-22.4668	7.848	81.569	-1.2419	0.8954	0.737
-17.3503	6.0259	16.8133	-191.9781	-163.4992	86.6346	0.3662	0.0901	-0.2642	3.2147	-1.1699	10.7357	-4.61	-25.1593	-7.1588	0.0095	-0.6974	-1.1329	8.4434	-5.6391	-1.8092	-24.6478	11.4839	65.5095	-1.2243	0.8778	0.7392
-18.3185	7.7543	17.5668	-169.3479	-133.6845	75.3294	0.3782	0.0901	-0.2642	3.29	-2.0842	11.5075	-3.2034	-45.2581	-8.3179	0.0241	-0.6993	-1.0971	9.5275	-5.1816	-1.7275	-18.5073	13.6455	50.7501	-1.2766	0.843	0.742
-19.4336	8.9039	16.6025	-107.4954	-117.2047	54.3883	0.3422	0.1141	-0.2522	3.1018	-1.1694	10.8522	-19.2259	-63.2634	-6.0418	0.0387	-0.7182	-1.114	9.5863	-5.5831	-1.6694	-9.5695	17.6161	36.8172	-1.2592	0.8604	0.7404
-21.7438	8.0951	13.1878	-34.1125	-97.8766	40.0511	0.3602	0.1201	-0.2402	2.2631	-0.8843	9.2912	-29.3797	-65.7088	-4.0647	0.0532	-0.7363	-1.1489	10.2657	-5.3555	-1.8883	-2.6533	20.5592	27.3631	-1.2594	0.9462	0.7494
-25.763	6.9396	7.7301	-0.9535	-65.5128	35.0674	0.3602	0.1321	-0.2342	4.1973	-2.4828	13.6042	-30.8146	-65.9403	-8.8275	-0.0189	-0.6981	-1.0974	10.2327	-6.097	-0.725	0.8054	24.544	22.3532	-1.2769	0.8956	0.7364
-25.2674	8.5459	6.6803	-33.2254	-7.2781	26.973	0.3782	0.1321	-0.2462	2.9896	-2.7086	13.6977	-48.0117	-40.5468	-34.0997	-0.0182	-0.7357	-1.1137	9.3896	-5.9786	-0.0998	-0.3643	29.1987	14.0951	-1.2597	0.8975	0.7184
-19.4794	9.5811	11.2268	-69.254	37.9523	25.1501	0.3843	0.1381	-0.2281	3.0593	-2.9995	11.3821	-25.6805	-110.0011	-0.123	-0.0467	-0.7356	-1.0961	8.8281	-6.4926	0.2953	-4.3293	32.8698	7.0666	-1.2601	0.9169	0.6982
-17.1961	10.3865	13.223	-19.7615	50.8101	18.1015	0.3782	0.1261	-0.2342	3.4871	-1.7388	12.7596	-54.0878	-112.3921	-9.9746	-0.0186	-0.7165	-1.1145	8.9986	-6.0913	0.3002	-12.3708	38.1911	7.2868	-1.2427	0.9344	0.6966
-38.198	-8.6845	76.3985	20.4919	60.8056	9.5528	0.3602	0.1081	-0.2402	4.8296	-2.1983	13.5585	-48.7004	-136.0438	-14.6183	-0.0481	-0.6773	-1.1162	8.0895	-6.0892	0.457	-17.6529	44.7145	14.483	-1.2598	0.915	0.7165
-4.0879	11.3801	30.0831	624.3821	109.6904	157.8097	0.3782	0.1201	-0.2281	4.1979	-3.2269	13.5433	-50.1732	-151.2556	-19.8645	-0.0626	-0.6592	-1.0814	7.7875	-5.5754	-0.3638	-15.6113	49.571	26.0464	-1.26	0.9501	0.7128
23.1517	-35.9198	9.8194	699.1924	162.5552	115.8069	0.4203	0.0961	-0.2522	4.5144	-3.1104	14.9756	-47.0945	-173.78	-27.6113	-0.105	-0.6778	-1.0631	8.9034	-5.0653	-1.5646	-14.0478	52.556	35.3771	-1.2608	0.9383	0.6597
3.0212	12.153	-1.9763	176.3802	257.3109	-247.5892	0.4203	0.072	-0.2822	4.2986	-2.3642	15.8042	-48.4825	-191.3559	-26.0433	-0.092	-0.6207	-1.0653	11.9625	-5.0739	-2.5532	-20.5094	47.6541	40.5745	-1.2782	0.9716	0.674
-7.5371	16.7926	6.7507	181.0344	329.8002	-137.1328	0.4323	0.06	-0.2882	4.4313	-3.1642	16.5774	-48.1407	-214.3161	-28.7068	-0.1201	-0.6398	-1.0469	14.0297	-5.2467	-1.8124	-26.4833	40.726	42.9615	-1.2434	0.9558	0.6581
-7.7387	1.5936	21.9528	55.4765	267.3808	-53.6141	0.4503	0.048	-0.3002	4.3466	-4.2543	15.0885	-30.1057	-231.0986	-45.775	-0.1777	-0.6197	-1.0303	16.5474	-6.1672	-1.4153	-30.3633	27.3502	36.1546	-1.2431	0.9539	0.6764
-4.1307	6.4937	6.142	251.4488	192.1387	15.9782	0.4743	0.042	-0.3002	4.9206	-5.1718	14.8609	-1.4882	-239.0507	-66.249	-0.221	-0.6	-1.0135	18.2264	-8.2883	-0.2811	-45.0477	7.8541	23.6561	-1.2267	0.9771	0.6199
-2.596	0.6874	7.5165	-21.2474	167.764	69.0372	0.4803	0.03	-0.2942	5.5671	-6.1395	18.2577	-46.0951	-275.6485	-75.3789	-0.2494	-0.6006	-0.978	16.6461	-10.119	0.3805	-77.3518	-8.0674	-3.1848	-1.2437	1.0084	0.6525
-2.2914	-1.3669	14.2528	-22.1616	145.5221	41.4668	0.5103	0.024	-0.2942	3.8227	-8.8272	17.1471	-73.1042	-312.375	-110.0172	-0.2926	-0.5817	-0.9434	13.8972	-10.92	-0.3192	-123.608	-17.8546	-83.4457	-1.2426	0.9676	0.7112
-9.8068	-1.7517	15.8779	7.256	25.0632	25.3813	0.4983	0.024	-0.3122	4.0483	-8.7138	16.9144	6.1939	-322.8104	-139.1211	-0.3204	-0.6023	-0.8893	12.0088	-8.3361	-0.4643	-146.4249	-26.8272	-203.4432	-1.2779	0.9697	0.6923
-4.4172	-1.7145	11.4928	54.3716	-0.4893	-27.5887	0.4983	0.03	-0.2882	6.8774	-11.2331	19.759	25.9006	-336.798	-155.9167	-0.39	-0.6792	-0.8332	10.3006	-4.259	-0.017	-80.8759	-14.7266	-283.7444	-1.2593	0.9287	0.7513
-0.1578	-4.1453	8.0249	77.6325	-1.4647	1.1235	0.5163	0.024	-0.3062	3.2549	-4.8122	20.945	-9.8002	-424.8352	-161.7787	-0.419	-0.6599	-0.8164	8.8806	-3.5671	0.3071	-8.0854	0.1372	-302.3777	-1.3123	0.8821	0.7011
-1.7636	1.4367	8.9526	-14.5154	8.7782	-5.9111	0.4983	0.012	-0.3062	5.8154	-3.4306	28.1281	41.8618	-435.1745	-161.0705	-0.4182	-0.6653	-0.6914	8.7141	-1.3856	0.7201	2.1461	16.2067	-303.1112	-1.2773	0.8644	0.7035
-1.1573	-2.7586	10.1358	-37.5338	6.2736	-0.973	0.5043	0.018	-0.3122	9.0572	0.5757	32.2421	-5.7424	-472.5364	-173.3359	-0.4884	-0.7215	-0.6718	8.2993	0.5631	0.0772	-9.9648	22.5172	-309.6365	-1.33	0.8159	0.6716
-1.2683	0.52	10.6734	18.9754	0.3404	0.3641	0.5043	0.018	-0.3122	6.17	-1.4213	31.7033	111.922	-450.0625	-153.804	-0.5016	-0.7448	-0.5639	8.7972	1.5924	-0.609	-21.3074	21.8957	-317.9816	-1.3287	0.7399	0.734
-1.1202	-1.3236	9.1947	1.0208	0.8014	4.4337	0.5043	0.018	-0.3002	9.0838	-4.4706	27.1836	205.3908	-430.447	-109.5697	-0.571	-0.8232	-0.4721	9.4517	2.4466	-2.0511	-25.8886	15.2136	-307.6118	-1.2929	0.7007	0.775
-0.9284	-0.574	10.2638	-20.5684	2.2984	0.4219	0.5043	0.036	-0.3002	2.0331	-13.9693	19.2378	151.0179	-393.1648	-117.213	-0.5558	-0.8458	-0.3998	9.3329	2.5606	-2.2864	-23.6279	5.6583	-282.3622	-1.293	0.6168	0.7476
-0.5312	-1.4956	9.8557	-5.2864	1.866	5.8746	0.5103	0.03	-0.2882	-7.7101	-7.844	8.2398	229.5586	-365.8045	-58.4727	-0.5539	-0.9072	-0.3082	9.2125	2.9613	-2.579	-30.1617	-1.4326	-250.109	-1.3107	0.5506	0.7182
-0.3632	-1.2665	9.6232	-6.4307	3.8706	5.7309	0.4983	0.024	-0.2822	-23.1615	-5.2199	-14.881	397.8166	-227.2135	23.1709	-0.6102	-0.9285	-0.2186	8.5296	3.4217	-2.4743	-46.354	-10.9199	-213.2619	-1.3447	0.545	0.7726
-1.0499	-0.8621	9.9062	2.0287	4.9768	3.7011	0.5043	0.018	-0.2942	-30.2416	-39.4732	-10.0493	574.1724	106.1746	31.4348	-0.5808	-0.9508	-0.164	8.1829	4.11	-2.6538	-50.7016	-21.7533	-170.28	-1.3274	0.5624	0.771
-0.4361	-0.2907	8.9152	4.5308	4.1098	4.2149	0.5043	0.03	-0.3062	-10.9147	-13.6957	-2.886	-348.3769	169.9029	-14.1278	-0.5796	-0.9915	-0.1089	7.3414	3.9991	-1.9711	-42.3453	-24.8133	-110.4678	-1.3274	0.5117	0.7582
-1.0531	-0.9775	9.7286	-11.765	5.0965	4.2508	0.5103	0.036	-0.2942	-1.0456	4.9832	20.3422	-658.9061	166.4174	-180.6706	-0.5662	-0.9697	-0.181	6.9968	4.0566	-2.0944	-49.6276	-22.7675	-35.2029	-1.3273	0.4942	0.7601
-0.5773	-1.034	10.5058	-8.5386	6.4894	3.8753	0.5103	0.024	-0.2942	-5.4549	-23.9798	12.4104	17.7617	235.0086	-143.6029	-0.6106	-0.9262	-0.2722	7.8118	3.7141	-1.2627	-53.0044	-19.3667	28.4933	-1.3974	0.4789	0.7425
-0.537	-1.3813	9.5604	-1.3083	6.5542	3.8523	0.5163	0.024	-0.2882	-5.8253	-11.1531	15.6368	185.8211	125.0392	116.5335	-0.5809	-0.9831	-0.3054	8.6177	2.5666	-0.9591	-58.3821	-14.1966	71.9212	-1.3438	0.4378	0.8021
-1.3403	-1.4944	9.7217	-9.3878	7.4821	6.0981	0.4803	0.024	-0.2942	-10.9273	0.0587	6.8238	148.7006	194.6922	-19.0917	-0.5391	-0.9437	-0.3602	8.9477	2.3343	-1.5949	-58.4273	-9.2829	105.0893	-1.3271	0.4591	0.7638
-1.0465	-1.4942	10.0229	-9.8642	7.0424	5.8937	0.4983	0.012	-0.2822	-5.7954	-7.7386	6.0224	110.4927	250.3287	46.1696	-0.5401	-0.9046	-0.3796	8.7381	1.4773	-0.7273	-57.6125	1.5658	132.9821	-1.3798	0.512	0.7574
-0.7705	-0.9787	9.4387	-6.6164	7.6749	6.764	0.5103	0.036	-0.2942	-3.274	-8.3186	5.2416	76.1864	288.9294	16.2822	-0.5382	-0.999	-0.4114	8.922	1.3073	-0.0826	-56.1805	13.1988	156.1993	-1.3442	0.508	0.7946
-0.9309	-1.0344	10.0853	-9.5739	7.5813	6.0117	0.5163	0.036	-0.2942	-1.7338	-8.4385	4.4416	125.3605	319.9925	58.9597	-0.4678	-0.9597	-0.4838	8.9295	1.6529	0.3272	-46.7453	13.8259	173.397	-1.3626	0.5646	0.7521
-0.817	-1.5523	9.9681	-8.6055	9.1686	7.6752	0.5103	0.03	-0.3002	-2.7855	-9.525	3.5861	76.5443	330.5497	60.7619	-0.4672	-0.9966	-0.518	8.4192	1.1952	0.4319	-30.1954	8.9907	186.9698	-1.3974	0.5979	0.7661
-0.528	-0.7476	10.0939	-0.6773	8.5619	7.6009	0.4983	0.03	-0.2882	-2.0954	-7.3515	3.783	19.9405	340.9317	62.6402	-0.3814	-1.0145	-0.6059	8.7067	0.3919	0.4931	-28.8302	9.5263	200.7822	-1.3282	0.6521	0.7433
-1.4494	-1.1484	10.0749	5.3968	7.5748	7.7526	0.5043	0.012	-0.2942	-2.3619	-7.9784	4.786	-13.9655	347.9813	78.3371	-0.3671	-1.0149	-0.6058	7.7492	0.0513	1.056	-30.9493	7.8215	214.1681	-1.3625	0.5977	0.7667
-0.8806	-1.3804	9.6719	6.9312	6.2844	7.0367	0.5043	0.018	-0.2882	-1.5341	-8.2073	5.8123	-36.9241	348.6428	86.7729	-0.3395	-0.9928	-0.6956	7.5341	-0.2902	1.6921	-24.9996	13.4239	230.4631	-1.3458	0.6873	0.7393
-1.0527	-1.15	9.7282	2.4316	6.774	6.0202	0.5103	0.03	-0.2942	-1.7978	-8.5477	6.994	-53.7965	349.4349	97.8783	-0.2822	-0.9945	-0.6951	7.3024	-0.9217	1.4518	-8.694	11.0066	240.2882	-1.3807	0.7207	0.7533
-0.7682	-1.0359	9.5568	4.9982	6.5149	6.2613	0.5043	0.024	-0.2822	-0.6676	-8.7186	8.7394	-75.9053	350.8665	102.3138	-0.2403	-0.972	-0.8027	7.7039	-1.6105	1.5156	12.5698	11.9163	238.0428	-1.3638	0.8259	0.7424
-0.7243	-0.8652	8.849	3.3739	6.2443	5.7806	0.5163	0.03	-0.2942	0.3236	-9.8648	9.1732	-91.5385	352.7416	106.5213	-0.2001	-0.8567	-0.8427	8.3775	-3.5071	0.8222	23.1929	11.514	221.4736	-1.3122	0.8139	0.6902
-0.9436	-0.8634	9.4356	1.2115	6.8226	5.44	0.5223	0.024	-0.2942	1.3908	-9.8071	10.6802	-101.4308	347.0058	101.49	-0.1427	-0.8753	-0.8951	7.8062	-4.367	0.691	21.504	8.1116	189.6072	-1.3119	0.8626	0.7212
-1.2312	-1.2079	9.4291	-1.9343	6.8324	5.6386	0.5103	0.024	-0.2822	2.214	-9.5785	11.5292	-104.9468	330.6651	109.8111	-0.1584	-0.8334	-0.9681	7.836	-5.2328	-0.7699	17.3844	2.5365	145.618	-1.3479	0.8862	0.6638
-1.1761	-1.0358	9.3125	0.9169	5.5465	4.4941	0.5163	0.024	-0.2942	2.6942	-11.0661	12.3082	-133.1181	320.3641	96.2642	-0.0725	-0.8191	-0.9146	7.816	-5.5807	-1.8216	18.3571	3.9727	93.983	-1.3302	0.9524	0.6933
-1.5177	-1.4947	9.4819	-2.6955	5.3969	5.8014	0.5043	0.03	-0.2942	5.9658	-7.8068	14.9363	-159.5886	303.8837	106.3963	-0.0298	-0.835	-1.0207	7.4835	-5.9227	-1.3628	17.1318	8.8856	46.0807	-1.2776	0.9678	0.7106
-1.0535	-1.9552	9.608	-4.8763	4.3517	4.6586	0.5163	0.024	-0.2762	3.2763	-9.6873	15.6492	-163.677	286.4183	121.4928	0.0123	-0.7979	-1.0219	7.4213	-4.8333	-1.5351	11.0504	12.1793	6.4766	-1.2772	0.8975	0.7181
-0.8632	-1.0332	10.6184	7.9157	4.748	7.8276	0.5163	0.03	-0.2822	3.3541	-10.6586	16.5397	-176.7359	292.7105	123.5595	0.0681	-0.7405	-1.0595	7.0949	-4.6578	-0.7243	1.0561	11.2499	-21.2172	-1.3131	0.9718	0.6734
-1.1232	-1.4965	9.017	16.5107	4.9445	9.0535	0.5163	0.03	-0.2882	3.6047	-10.6	17.5547	-206.9315	301.7504	125.522	0.1246	-0.7207	-1.1133	7.3186	-3.3392	-0.8317	5.6857	1.4655	-39.5017	-1.295	0.9678	0.7104
-1.0497	-0.9771	9.9059	6.2374	5.5791	6.958	0.5223	0.018	-0.3002	3.3872	-10.8786	21.054	-228.8472	313.1579	143.9455	0.1524	-0.6832	-1.1147	7.2155	-2.9927	-0.2492	16.9163	1.434	-47.6822	-1.312	0.9309	0.7321
-1.1589	-0.5736	10.2593	8.9917	6.2933	7.8103	0.5103	0.024	-0.2942	6.9645	-9.908	24.2776	-216.5973	325.2991	149.559	0.2076	-0.589	-1.118	7.5621	-2.1892	0.0524	23.947	-0.1591	-46.7891	-1.295	0.9171	0.6976
-1.1659	-1.7246	9.7836	11.7818	6.3661	9.2378	0.5163	0.012	-0.2942	10.1192	-10.4266	26.361	-166.0115	333.405	128.1658	0.2354	-0.5684	-1.1722	7.5197	-3.5061	0.6884	25.8601	-4.3429	-41.8285	-1.3127	0.9523	0.6936
-1.7242	-1.0887	10.7787	15.1358	8.4957	10.8159	0.5223	0.006	-0.2822	14.8989	-9.2365	26.3432	-131.7767	309.968	88.1112	0.3625	-0.4947	-1.1921	7.1679	-2.4745	0.2768	24.0225	-9.4236	-33.273	-1.3291	0.9115	0.752
-2.172	-2.869	11.2974	67.9592	3.5343	10.2957	0.5223	0.03	-0.2702	20.9095	-5.8207	24.7516	-95.1926	286.6173	68.6373	0.4063	-0.5174	-1.1374	7.3343	-3.1068	-0.0139	24.1487	-14.3975	-21.363	-1.2763	0.8586	0.7585
-2.0872	-2.7579	9.7041	72.4267	6.3499	11.515	0.5103	0	-0.3002	25.5673	-0.1717	22.0677	-150.6239	267.7146	71.1692	0.4337	-0.4615	-1.1216	7.2218	-2.6473	0.1022	25.5533	-17.7439	-8.4465	-1.2765	0.8937	0.7547
-1.0226	-1.0312	11.3243	68.7388	4.9997	17.5462	0.5163	0.024	-0.3062	27.7225	6.6315	21.1759	-176.7209	230.4414	88.5604	0.4896	-0.4049	-1.1413	7.4599	-2.4737	0.6326	24.2505	-17.7485	3.0157	-1.2955	0.8859	0.6647
-1.5505	-0.2839	10.9022	83.2091	5.7409	17.5645	0.5223	0.012	-0.2942	28.1734	16.0687	18.9478	-149.792	180.4876	132.1383	0.5183	-0.4057	-1.1411	8.0455	-2.7014	1.4018	20.7541	-15.8884	11.7693	-1.3121	0.8977	0.7175
-0.4418	0.2334	11.6932	70.6315	9.4183	10.6306	0.5283	0	-0.3002	29.4785	22.9385	21.6617	-69.3582	115.6998	136.4356	0.5039	-0.3884	-1.0884	9.0237	-3.103	1.8283	12.3229	-10.5133	15.0503	-1.2765	0.8937	0.7547
-0.3891	1.3398	17.6052	36.8115	53.5315	5.2701	0.5223	-0.006	-0.3002	34.8082	24.2506	26.1101	7.8649	64.6391	73.8757	0.5614	-0.3916	-1.0522	9.3666	-3.5624	1.8335	9.6699	-9.5934	18.52	-1.3295	0.931	0.7318
-1.4962	-0.917	10.6654	57.4687	77.9026	21.474	0.5283	-0.036	-0.3122	38	10.4322	16.8815	171.0254	84.5398	-138.6093	0.5888	-0.3518	-1.1071	9.2143	-3.9709	-0.1544	11.8159	-14.467	26.6288	-1.3475	0.8667	0.684
-0.4402	0.744	8.7994	39.388	70.0916	5.6993	0.5404	0	-0.3242	48.8784	-0.1688	-5.249	205.5429	130.9428	-156.7103	0.6041	-0.3914	-1.0876	9.3102	-4.0891	-1.0862	10.6709	-15.7247	34.6905	-1.3127	0.9016	0.6809
0.3175	2.131	12.4216	5.7872	79.5578	-4.1367	0.5343	-0.012	-0.3062	55.4854	22.3557	19.5829	6.1045	-117.191	-24.749	0.6059	-0.4689	-1.0666	9.642	-4.0341	-1.6043	15.9361	-16.1424	44.8664	-1.3123	0.9328	0.7138
-1.301	-0.2244	11.9117	-5.729	94.1767	-1.5455	0.5584	-0.018	-0.3002	30.9548	19.8242	11.529	142.3623	-313.1848	-89.6783	0.5901	-0.4094	-1.1048	10.6105	-4.0932	-1.6434	27.1874	-17.5791	60.1623	-1.295	0.9171	0.6976
-1.3836	-0.2777	13.6233	-32.6761	113.9147	-3.6746	0.5404	-0.006	-0.3062	4.7763	-31.1801	1.5587	92.5534	-283.4672	-127.1536	0.5337	-0.446	-1.1037	10.9395	-4.3831	-2.3379	36.3279	-26.265	68.76	-1.33	0.968	0.7098
-1.2468	-1.0228	14.6876	-43.7049	134.062	-4.6937	0.5644	-0.024	-0.2882	4.6256	-7.8849	31.4799	101.985	-391.3284	7.2492	0.4469	-0.4213	-1.1766	13.4663	-4.556	-1.4129	33.5627	-21.3694	54.7191	-1.365	0.9858	0.7073
-2.1841	-1.4759	16.8543	-64.9281	161.1644	-8.7498	0.5644	-0.024	-0.2942	-24.3833	2.6246	14.3327	158.8433	-323.4897	242.4479	0.4196	-0.4787	-1.1567	16.5964	-5.4228	-1.7616	43.3456	-21.222	12.9531	-1.3298	0.9837	0.7262
-2.9231	-4.2263	20.1417	-61.3977	195.247	3.2882	0.5704	-0.006	-0.2702	2.0803	17.7134	8.1975	305.1353	-367.8698	0.3005	0.3628	-0.4962	-1.1563	15.4538	-7.0854	-2.0239	58.2195	-21.1971	-51.1279	-1.3126	0.9855	0.7082
-2.0367	-4.5702	21.2807	-10.5618	229.0714	24.4874	0.5884	-0.006	-0.2822	7.1343	-6.2855	4.3912	-31.2319	-191.6072	-193.0386	0.2936	-0.6084	-1.1702	13.808	-8.6306	-1.7709	44.827	-4.7017	-132.305	-1.3119	0.9641	0.7467
-1.2655	-4.2813	22.4781	-13.2563	273.1818	34.3571	0.6184	0	-0.2762	6.7315	-7.6353	15.784	30.7968	-192.6134	-33.1855	0.2805	-0.6656	-1.168	14.1546	-7.0811	-1.4083	12.6478	14.9566	-205.4316	-1.2947	0.9659	0.7287
-0.9474	-5.9458	23.8982	25.5487	318.5111	49.3278	0.6244	-0.012	-0.2642	7.511	-4.5603	9.0354	3.582	-31.8275	-52.6001	0.2642	-0.57	-1.1541	15.2349	-4.9603	-1.3789	2.4492	21.4531	-259.3691	-1.3298	0.9329	0.7135
-0.7979	-6.6966	22.5995	43.0675	365.8746	54.1179	0.6364	-0.012	-0.2161	4.6696	-1.1205	8.5682	82.4572	-30.6997	1.0474	0.2369	-0.6275	-1.1341	14.2789	-3.3497	-0.5755	20.898	25.2338	-297.2995	-1.3118	0.8958	0.7358
-0.7086	-8.95	17.9873	-8.3247	405.2704	60.9967	0.6604	-0.024	-0.2161	0.6634	-2.6593	6.8788	68.2175	-21.1801	-0.043	0.2079	-0.6074	-1.1351	12.4524	-2.429	-0.6088	26.3788	25.1145	-311.7107	-1.3813	0.826	0.7421
-2.4677	-5.493	19.7339	-109.0892	453.3518	82.1892	0.6904	-0.012	-0.2281	1.8875	-1.3443	7.7383	-11.0673	-14.9503	-6.6482	0.2504	-0.5895	-1.1356	9.7179	-0.7028	-0.3656	18.0182	13.45	-301.9639	-1.3292	0.7769	0.712
-0.82	0.604	22.1443	-106.6888	458.8691	103.2235	0.7025	-0.012	-0.1801	2.4857	-2.9464	8.6382	-28.228	-9.9455	-3.037	0.2375	-0.6474	-1.1155	8.6328	0.9627	-0.323	28.2087	11.3571	-292.3155	-1.3979	0.6857	0.7568
-4.1993	1.008	20.1888	-61.7454	496.3653	188.8451	0.7325	-0.036	-0.1621	2.5087	-2.6579	9.8272	-17.7816	-5.2957	2.4381	0.2077	-0.6059	-1.1708	7.6114	2.8014	0.0716	43.7958	11.895	-298.9117	-1.3632	0.6699	0.7409
-2.5558	-2.1971	27.5392	-139.4949	480.3109	169.4512	0.7445	-0.024	-0.1141	3.3685	-3.0612	9.5471	16.6835	-7.4457	-5.3234	0.2373	-0.6459	-1.1512	8.3438	3.4298	-0.3197	46.9178	13.0347	-310.0898	-1.3635	0.6211	0.7098
-3.0002	-2.4673	34.4425	-22.4465	462.4058	175.7212	0.7745	-0.054	-0.1021	2.492	-2.6023	8.9954	17.2627	-7.552	-4.3051	0.2067	-0.5668	-1.1902	8.6867	4.4622	-0.1924	41.3922	13.1182	-303.3063	-1.3281	0.5331	0.7197
6.8734	0.3927	35.8827	27.0125	448.7508	165.8574	0.7925	-0.054	-0.054	2.0889	-3.2882	8.9263	4.4796	-6.3234	-3.7803	0.1652	-0.6246	-1.1526	9.1464	12.4953	0.6628	112.5372	9.3893	-210.7081	-1.4317	0.4246	0.7658
19.1672	8.7972	1.5207	569.8264	248.8641	73.671	0.8165	-0.06	-0.024	2.2536	-2.8315	8.5743	-3.3453	-5.2333	-4.979	0.1939	-0.6254	-1.1523	7.6383	4.5172	-1.3216	89.6074	6.8287	35.0812	-1.3789	0.4048	0.7869
52.7882	-22.9031	-5.8186	643.9331	-0.2349	40.0065	0.8105	-0.0841	0	2.3914	-3.2875	9.6453	-4.5836	-4.6143	-8.3674	0.2072	-0.5867	-1.1716	7.7598	1.1904	-1.2146	-34.6354	17.7434	99.9017	-1.3274	0.461	0.7455
2.0578	-14.3608	-6.7275	72.9864	-119.0033	-36.5008	0.8345	-0.0961	-0.018	2.382	-2.8305	9.2303	11.8138	-5.1389	-8.41	0.2219	-0.5894	-1.1179	8.8582	4.1751	-0.19	-19.7628	19.7155	107.3008	-1.3447	0.4436	0.7471
9.4175	-8.6541	5.1873	-189.8648	1.2683	-124.279	0.8285	-0.0961	-0.042	2.5483	-2.5453	8.9373	14.368	-6.7489	-8.249	0.2219	-0.5894	-1.1179	9.6021	2.6251	-0.1808	68.7973	15.292	109.5945	-1.3806	0.5003	0.7043
6.2071	-2.0258	9.6903	-206.5157	15.273	-78.5199	0.7985	-0.0841	-0.048	2.3161	-2.8884	8.813	6.8929	-6.9193	-10.4269	0.1941	-0.6431	-1.1873	9.8845	0.7306	-0.4737	81.5698	12.7892	119.9875	-1.3803	0.4476	0.7099
5.1439	-6.6204	10.8991	20.6947	-48.1652	-18.717	0.8105	-0.0781	-0.048	2.6151	-2.4301	9.4141	10.0251	-7.3404	-10.5834	0.2092	-0.665	-1.1328	9.1785	-0.0755	-1.6575	43.9097	9.398	120.7358	-1.38	0.5471	0.7536
8.3981	-1.1167	6.8402	24.6115	-105.3543	-35.7034	0.8045	-0.0841	-0.036	2.9018	-3.2323	9.2401	21.182	-8.565	-12.7478	0.2377	-0.6651	-1.1505	9.14	0.5017	-0.6645	30.6035	1.9352	122.1441	-1.3277	0.5137	0.7399
3.687	-6.2245	7.0313	27.1601	-146.9564	-24.2925	0.8045	-0.06	-0.036	2.5059	-3.4596	9.5879	32.0515	-7.9885	-11.3597	0.2081	-0.6251	-1.1701	8.7823	0.9011	-1.4285	42.7502	-6.003	126.5109	-1.3796	0.5276	0.7738
2.7077	-4.3897	4.1807	42.6549	-179.428	-3.7782	0.7925	-0.072	-0.048	2.308	-2.4885	8.4573	27.0472	-5.7541	-11.3594	0.2235	-0.6654	-1.1327	8.0357	-0.1889	-1.7975	50.3053	-8.526	128.444	-1.398	0.5843	0.7313
2.8105	-6.2316	3.3511	4.0194	-202.5606	12.0377	0.7805	-0.072	-0.0781	2.6715	-2.3731	9.356	26.1914	-5.2827	-10.4877	0.1955	-0.7014	-1.1671	7.8588	-0.1323	-2.0925	44.8903	-8.9051	126.0773	-1.381	0.6212	0.7095
4.563	-4.3341	4.8079	-54.1444	-225.6424	13.289	0.7805	-0.072	-0.0841	2.4885	-2.1447	8.8775	19.3186	-3.853	-8.7138	0.2239	-0.6846	-1.1319	7.9736	-0.5914	-2.0918	36.1233	-9.9839	123.3879	-1.3987	0.6564	0.7055
4.8225	-2.3182	6.5312	-54.9411	-249.8078	6.9457	0.7685	-0.06	-0.1081	1.9694	-2.5442	8.8066	12.4955	-2.9476	-6.6093	0.2099	-0.7026	-1.1491	7.0597	-0.4754	-2.1681	36.3729	-10.1746	124.8868	-1.3811	0.6387	0.7077
4.9033	-2.6605	7.7136	-46.3691	-270.7151	-4.5483	0.7625	-0.0781	-0.1081	2.599	-2.1455	8.6422	12.1407	-2.1443	-6.3794	0.1932	-0.6047	-1.1888	7.4	-0.7058	-2.2787	39.2308	-11.2047	126.4944	-1.3632	0.6699	0.7409
4.5513	-2.3731	7.4121	-49.9782	-287.5712	-17.6437	0.7685	-0.0781	-0.1201	2.0944	-2.1428	9.3445	10.9845	-3.1359	-6.8315	0.2238	-0.6838	-1.1498	7.856	-1.2804	-2.33	36.7182	-9.9448	129.6299	-1.3807	0.7207	0.7533
3.1244	-3.2314	8.032	-50.29	-300.7138	-24.3307	0.7505	-0.06	-0.1441	3.0701	-2.3173	9.1267	2.7007	-3.0022	-5.114	0.2097	-0.6849	-1.1142	7.8651	-1.9673	-1.924	31.2229	-9.812	130.9139	-1.3644	0.7283	0.6803
2.3771	-4.265	8.0149	-59.2829	-306.2443	-24.3574	0.7385	-0.06	-0.1741	2.7278	-2.3161	9.2978	7.8566	-3.7967	-4.9957	0.2093	-0.6657	-1.115	8.0569	-2.0212	-0.8704	28.8977	-8.1609	127.6193	-1.3814	0.7421	0.7148
1.0007	-3.6866	8.4031	-75.2919	-304.6735	-20.9089	0.7265	-0.054	-0.1861	2.2591	-2.144	8.9322	7.1751	-5.6574	-5.1227	0.1941	-0.6269	-1.1166	8.0599	-3.2256	-0.8164	30.4544	-9.1828	118.6572	-1.3811	0.7402	0.7331
0.7479	-3.3367	10.2897	-94.4946	-299.9399	-17.5171	0.7085	-0.06	-0.1981	2.439	-2.6017	9.2319	8.6852	-5.6805	-5.7382	0.1957	-0.7029	-1.1314	7.7767	-3.7412	-0.7657	32.6477	-11.3205	101.8254	-1.3638	0.7752	0.7297
1.637	-2.6451	11.6676	-102.0617	-296.9988	-19.1768	0.6965	-0.042	-0.2041	2.9546	-2.2026	9.1246	5.7856	-5.8795	-5.0982	0.1801	-0.6449	-1.1338	7.4955	-4.0844	-0.5976	29.9649	-11.6868	75.4039	-1.3292	0.7769	0.712
2.4145	-1.5503	13.2806	-103.3389	-299.7712	-29.1053	0.6784	-0.042	-0.2281	3.1821	-1.9172	9.0111	7.4867	-5.7782	-6.823	0.1657	-0.6438	-1.1518	7.6639	-4.5442	-0.7709	24.8362	-11.7107	40.6855	-1.3641	0.7771	0.7114
2.7079	-1.9527	13.5217	-93.6644	-307.828	-44.362	0.6544	-0.018	-0.2281	2.0368	-2.1427	9.3434	14.1483	-6.5402	-5.9293	0.1956	-0.7022	-1.1493	7.5374	-4.661	-1.4155	21.4636	-8.4363	4.9093	-1.3639	0.7927	0.7278
2.2009	-2.1804	14.1021	-96.6206	-313.3165	-62.0096	0.6244	-0.024	-0.2582	2.6685	-3.1176	9.1168	16.2662	-5.4657	-7.1727	0.1952	-0.6999	-1.2028	7.0793	-3.513	-1.4205	23.4374	-4.8308	-23.3878	-1.3292	0.7769	0.712
0.8965	-2.693	15.1389	-114.663	-317.9541	-78.1251	0.6064	-0.012	-0.2582	2.2572	-1.858	8.8733	13.107	-6.967	-9.6758	0.1664	-0.6814	-1.1681	7.4218	-2.9397	-1.3532	27.8546	-0.9094	-37.5155	-1.3823	0.8493	0.6853
0.2315	-3.1485	16.4837	-123.3261	-325.66	-82.7765	0.5884	0.006	-0.2762	2.3279	-2.3721	9.4677	12.1709	-5.6996	-7.9561	0.1675	-0.7213	-1.1309	7.924	-2.4261	-1.8662	28.7352	1.7127	-38.6298	-1.3816	0.7772	0.7111
-1.8738	-3.1988	17.8605	-137.1918	-328.7482	-81.634	0.5764	0.006	-0.2822	2.6015	-2.2024	8.7609	9.9935	-6.7107	-6.9588	0.1965	-0.7413	-1.1299	7.5339	-2.4238	-1.4074	26.5316	4.9563	-29.7679	-1.3642	0.7947	0.7095
-2.1966	-3.4829	19.0352	-135.4496	-330.4562	-70.0382	0.5644	0.024	-0.2762	3.0883	-0.999	10.1989	14.4473	-7.8461	-10.4612	0.1964	-0.7405	-1.1477	7.5293	-2.4246	-1.6408	24.3949	7.6526	-14.1103	-1.3643	0.7615	0.6949
-3.1323	-4.2233	21.2602	-146.9297	-327.3366	-53.335	0.5103	0.012	-0.2882	1.4124	-2.2547	9.8054	25.354	-8.2303	-7.1445	0.1522	-0.6817	-1.1504	7.1967	-1.9633	-1.1208	21.4407	9.7469	6.9392	-1.3118	0.7944	0.7104
-4.4758	-3.1808	23.4226	-147.7405	-326.8845	-33.6109	0.4863	0.03	-0.2762	1.1751	-1.4534	9.5646	25.3829	-13.5342	-9.0612	0.1818	-0.7217	-1.1307	7.3494	-1.9096	-2.0508	17.1345	10.9449	29.6826	-1.3466	0.8277	0.7244
-6.3043	-3.1756	24.2142	-137.8339	-330.644	-13.8032	0.4803	0.048	-0.2942	3.017	-2.2023	9.3634	25.0092	-14.5235	-13.1254	0.181	-0.6841	-1.1144	6.9587	-2.1943	-1.6514	10.6701	13.202	50.7706	-1.3468	0.7946	0.7098
-8.3694	-3.5732	24.6456	-118.6197	-332.1257	7.075	0.4563	0.054	-0.3002	2.1087	-1.6835	10.1179	32.8086	-18.9779	-14.8899	0.1957	-0.6868	-1.0607	6.4412	-2.4811	-1.8961	6.3554	14.2707	66.1404	-1.3479	0.8355	0.6511
-11.3266	-3.5702	23.6426	-107.5168	-321.9701	29.3183	0.4383	0.06	-0.2762	2.5678	-2.2572	9.948	36.0145	-22.1886	-16.3623	0.1822	-0.7409	-1.13	7.1789	-2.9994	-2.1166	2.5594	16.284	75.2708	-1.3648	0.8492	0.6856
-15.9462	-4.1381	23.0194	-116.6487	-302.0642	51.472	0.4143	0.066	-0.2882	2.3538	-1.5166	7.9851	45.6974	-17.9601	-17.0421	0.1832	-0.78	-1.1106	7.3426	-3.4027	-2.5231	1.8859	18.5265	78.1213	-1.3301	0.8334	0.6697
-18.7678	-3.3924	20.1303	-122.9587	-278.647	56.063	0.3903	0.0841	-0.2882	2.4046	-1.1168	7.69	43.33	-2.1952	-10.9588	0.1668	-0.7006	-1.1674	7.179	-3.8027	-2.1778	1.2229	21.6992	79.3343	-1.3303	0.8178	0.6533
-20.9694	0.7433	16.848	-133.3336	-236.9365	40.9622	0.3782	0.0781	-0.2762	3.1028	-1.57	10.8514	40.0008	-2.6273	-11.5282	0.1821	-0.7401	-1.1478	7.2904	-4.3198	-2.3525	-1.0618	23.545	82.1747	-1.313	0.8528	0.6498
-22.1702	5.6849	14.7688	-162.9434	-172.8611	17.3672	0.3482	0.1201	-0.2882	2.9203	-2.5436	10.2517	23.9049	-12.8503	-5.1601	0.1975	-0.7804	-1.1105	8.1508	-4.4924	-2.1025	-5.066	22.8134	82.7268	-1.3306	0.8705	0.6477
-26.2402	6.615	15.9325	-151.3329	-124.5379	27.9195	0.3302	0.1201	-0.2822	1.5325	-0.3539	16.0484	-24.1766	-40.8816	-0.5551	0.184	-0.8184	-1.1091	8.6589	-4.0925	-2.3242	-6.9986	17.9085	76.0628	-1.313	0.9035	0.6625
-40.1172	8.0718	13.4204	-52.2848	-101.4445	73.644	0.3242	0.1381	-0.2642	4.5903	-3.5152	12.9569	-25.745	-78.514	-3.7	0.1824	-0.7424	-1.0943	10.8255	-3.6943	-2.2793	-2.8067	12.6389	63.2264	-1.3307	0.9387	0.6585
-48.5078	11.7485	5.7624	6.2835	-67.8693	93.1057	0.3362	0.1321	-0.2822	3.4604	-0.5393	11.5737	-27.7497	-53.8329	-9.1004	0.183	-0.7623	-1.0756	12.1421	-3.925	-2.0204	5.6826	6.0533	53.4088	-1.3299	0.8998	0.6989
-24.9367	13.9132	15.5031	-173.0322	45.5632	100.3499	0.3122	0.1321	-0.2762	3.3245	-2.596	13.1703	-69.9827	-50.4139	-15.9073	0.1544	-0.7622	-1.058	11.4657	-4.6111	-1.6865	11.8654	1.3886	60.7017	-1.3307	0.9387	0.6585
-13.9086	42.4195	43.793	-106.4626	426.5973	23.1369	0.3482	0.1441	-0.2702	3.5066	-2.939	13.5891	-79.7075	-90.2529	-16.2643	0.168	-0.7412	-1.1122	10.2956	-6.1534	-0.4323	9.8889	2.2854	79.593	-1.2961	0.9405	0.6408
-33.8447	-9.638	17.3987	474.205	260.6342	16.7475	0.3542	0.1441	-0.2702	3.509	-4.4271	13.5266	-76.8353	-113.0172	-10.2415	0.1391	-0.7388	-1.1482	9.517	-7.1814	0.4816	-1.3016	3.664	90.5468	-1.3479	0.9369	0.6766
25.2418	-22.5227	11.9609	558.0015	309.4844	66.7091	0.3963	0.1201	-0.3002	3.8206	-4.2538	14.7213	-67.0155	-140.7662	-0.6201	0.1238	-0.6824	-1.1149	10.4151	-7.4723	-0.2597	-14.5141	5.8707	76.8862	-1.3139	0.96	0.6203
6.6883	7.2416	14.6853	298.4178	308.4548	-77.8261	0.4143	0.0901	-0.3422	3.6338	-3.2186	17.0361	-62.1535	-159.6446	-13.642	0.0659	-0.6607	-1.134	13.4908	-7.0762	-0.3716	-19.7434	9.3657	31.854	-1.2964	0.9931	0.6352
-2.7855	0.5131	6.6262	273.3985	283.1106	-80.5651	0.4263	0.066	-0.3302	4.0362	-4.1928	16.8641	-55.5021	-177.9125	-32.9189	0.0077	-0.6037	-1.0831	17.6036	-7.5406	0.0008	-35.329	9.85	-26.8497	-1.2959	1.0068	0.67
-3.6339	4.3265	13.8861	41.2473	275.1608	-97.3152	0.4503	0.048	-0.3302	2.9999	-7.224	16.5395	-38.1082	-193.6528	-54.2003	0.0081	-0.6229	-1.0824	17.8244	-7.2553	-0.3437	-42.1964	-3.4663	-68.0092	-1.279	1.0106	0.6336
-4.9451	5.9336	11.7375	201.2985	190.1657	-28.8754	0.4503	0.036	-0.3482	5.0451	-11.6912	17.4039	4.6112	-218.0371	-93.3778	-0.0068	-0.6018	-1.119	16.7784	-7.2573	-1.3564	-45.5386	-18.4682	-115.1889	-1.2961	0.9912	0.6535
-4.3097	2.8201	8.4928	57.846	174.9269	19.6437	0.4683	0.018	-0.3542	7.2071	-10.6573	21.9053	13.8359	-281.4382	-101.5021	-0.0341	-0.6593	-1.099	14.9418	-7.1991	-1.9763	-57.3723	-34.8083	-180.2087	-1.3132	0.9894	0.6715
0.1619	-2.3592	9.8671	18.5364	152.8074	55.2879	0.5103	0.036	-0.3662	3.6965	-8.4788	19.521	37.9056	-310.8072	-121.499	-0.1348	-0.6202	-1.0478	11.868	-5.8735	-1.6247	-53.0004	-39.2178	-238.3223	-1.2956	0.9542	0.6756
-15.0024	-1.4487	18.3769	-104.0644	-9.5616	16.5702	0.5103	0.03	-0.3542	3.0534	-11.4033	15.8192	82.6423	-307.8549	-142.7971	-0.1471	-0.6988	-0.9913	10.4536	-5.1232	-1.0087	-29.7593	-30.9574	-263.6498	-1.3647	0.8824	0.7002
-5.1447	-0.6754	12.7218	62.0374	8.1043	-31.5687	0.5163	0.036	-0.3362	4.1744	-10.7165	17.2098	42.266	-360.0709	-149.3254	-0.1904	-0.6791	-0.9745	8.9674	-2.1951	-0.9695	-14.609	-12.795	-275.1662	-1.3647	0.8824	0.7002
-0.1757	-5.4702	6.9578	93.0227	-1.4578	10.3589	0.5103	0.018	-0.3302	3.2938	-10.8247	19.2703	46.172	-394.7999	-213.9085	-0.2171	-0.7565	-0.936	9.1301	0.213	-1.1907	-4.7414	-2.055	-294.7874	-1.3473	0.8316	0.6877
-0.5081	1.2676	11.3399	-57.8651	20.4251	6.1313	0.5163	0.012	-0.3422	-0.4875	-4.3905	26.9271	74.3018	-461.1618	-201.027	-0.2892	-0.7183	-0.8845	10.5447	0.8399	-1.6851	-5.7458	3.6131	-301.7693	-1.3809	0.7051	0.7369
-1.0322	-1.32	10.7916	-1.7138	9.1967	-4.6643	0.4983	0.012	-0.3542	6.6629	-3.6634	27.2542	93.2277	-483.2241	-236.2723	-0.3449	-0.7764	-0.8291	11.6274	2.1578	-1.6002	-17.9266	6.2356	-293.2672	-1.3984	0.6545	0.7238
-0.7298	-1.556	8.4927	34.0645	4.5401	7.2514	0.5103	0.024	-0.3482	7.1055	-2.6302	29.3443	104.698	-457.3237	-193.033	-0.3865	-0.8173	-0.7386	10.8734	2.9026	-2.1959	-25.4725	2.812	-278.0531	-1.4327	0.6001	0.7472
-1.1679	0.0579	9.8471	-20.6343	8.7465	-1.4307	0.5223	0.024	-0.3482	6.9944	-2.1658	32.4909	172.885	-416.3156	-160.9693	-0.413	-0.8963	-0.6643	10.5873	3.4767	-2.1995	-33.272	-3.7824	-264.0992	-1.4151	0.5317	0.7366
-1.3406	-1.9545	9.6615	-7.1597	5.8201	3.8684	0.5283	0.012	-0.3422	0.9445	-7.2398	34.7909	219.43	-373.6964	-153.6752	-0.4542	-0.9556	-0.5909	9.6872	3.5951	-1.5755	-38.27	-9.6822	-238.8533	-1.3804	0.5666	0.7335
0.1143	-1.6678	10.4586	-13.3336	8.2135	2.5985	0.5163	0.012	-0.3422	-8.0983	-12.7986	19.9224	417.197	-312.9279	-113.0944	-0.4822	-0.9593	-0.4839	8.3141	6.3508	-1.593	-47.3184	-13.2795	-189.4536	-1.3974	0.5297	0.7552
-0.8271	-0.2884	9.5574	20.4254	5.3318	1.7304	0.5223	0.018	-0.3482	-12.5003	-10.5807	7.5414	365.6568	-347.7689	4.6872	-0.4792	-1.0775	-0.4079	7.5347	8.0769	-0.494	-43.4417	-14.5366	-11.9079	-1.4318	0.4421	0.764
-0.7204	-1.1523	9.0257	0.5409	5.3339	1.0548	0.5163	0.036	-0.3422	-23.5022	1.9826	-19.5059	710.5594	-151.3994	45.6419	-0.5215	-1.0969	-0.3718	7.596	3.8315	-0.6249	-35.2576	-22.3387	64.3865	-1.4149	0.4966	0.7403
-1.1565	-1.3209	10.3166	-12.0025	6.2578	1.6397	0.5043	0.012	-0.3482	-28.412	-50.0863	-20.7248	788.3243	69.5456	112.0254	-0.5044	-1.1809	-0.2078	7.8319	2.5701	-0.3331	-39.3706	-23.7417	72.0086	-1.4323	0.4791	0.7419
-0.8176	-1.2073	9.9689	3.4991	6.5046	3.4301	0.5163	0.012	-0.3482	-5.1625	-14.0028	-6.3318	-375.1711	119.6167	-9.6974	-0.547	-1.1827	-0.1367	8.7436	2.339	-0.374	-38.0346	-23.6685	67.6086	-1.4147	0.5122	0.7568
-0.4191	-1.6112	9.6803	-0.5383	7.7162	4.1759	0.5043	0.024	-0.3362	-0.2446	-10.3777	9.5169	-608.3638	65.5547	-50.0086	-0.5491	-1.1029	-0.2113	9.1979	2.1084	-0.4824	-28.3225	-19.8208	62.3478	-1.3972	0.4946	0.759
-0.5344	-0.9784	9.7387	-4.054	8.6004	4.9986	0.5223	0.018	-0.3362	0.3181	-0.9868	12.8741	-475.5242	103.8858	-47.3968	-0.478	-1.102	-0.2821	9.5863	1.7616	-1.0592	-22.2798	-12.2196	62.1666	-1.4669	0.4774	0.7597
-1.1649	-0.9769	9.9037	-0.8772	7.5169	4.3355	0.5223	0.012	-0.3482	-0.4828	-11.9177	11.8252	67.4174	162.7667	16.2709	-0.5357	-1.0972	-0.354	8.9578	1.705	-1.1304	-23.2223	-2.1763	65.2144	-1.4137	0.4889	0.8136
-1.4015	-1.3797	9.5436	-12.2842	7.5947	4.0643	0.5283	0.018	-0.3362	-5.021	3.081	8.6148	0.0899	113.1928	44.6737	-0.5067	-1.1003	-0.3002	8.4095	0.7918	-0.0947	-22.7951	4.8708	68.7656	-1.4499	0.5475	0.7525
-1.4047	-1.4952	9.366	-8.8992	7.6088	4.6837	0.5163	0.024	-0.3242	-6.7612	-1.8388	7.4402	91.185	165.6583	42.1852	-0.5212	-1.1153	-0.3889	8.0072	1.3083	-0.2176	-15.9497	10.1422	72.9081	-1.3973	0.5804	0.768
-1.1107	-1.61	9.6668	-9.8262	6.8801	4.0004	0.5223	0.012	-0.3422	-3.0955	-7.1736	5.6634	125.9315	201.2507	66.912	-0.5074	-1.0958	-0.4074	8.1252	1.0219	-0.0413	-9.1677	16.1874	76.1186	-1.3614	0.5569	0.8254
-0.8215	-1.5528	9.7317	-4.4489	5.9851	4.5966	0.5103	0.018	-0.3422	-2.7979	-5.8626	3.4153	132.4025	232.4888	73.9056	-0.5082	-1.0574	-0.4089	7.3519	0.9704	1.2264	-4.8435	20.0483	79.8089	-1.45	0.5651	0.7506
-1.0412	-1.3211	10.3188	2.0565	5.2683	7.9121	0.5103	0.03	-0.3422	-3.4422	-7.5794	2.6857	94.9665	258.1509	87.9825	-0.5078	-1.0927	-0.4788	7.8096	0.0518	1.2322	-3.1428	20.6463	84.0129	-1.4318	0.5943	0.8022
-0.9312	-1.4944	10.0251	6.4293	5.2318	6.2801	0.5223	0.018	-0.3422	-3.4278	-8.6083	3.2778	35.8831	282.9176	88.9394	-0.464	-1.1324	-0.4769	7.9264	0.5112	1.4112	-4.9798	20.2334	88.9673	-1.4155	0.6526	0.7419
-1.1627	-1.6092	9.9612	5.2701	3.6961	7.7639	0.5223	0.018	-0.3362	-2.2056	-7.9804	3.9576	-23.5354	308.3304	97.908	-0.4659	-1.071	-0.5685	7.6884	0.2229	0.8804	-3.6334	20.1493	94.6067	-1.3805	0.6349	0.7443
-0.192	-1.5545	9.5076	6.8164	4.5424	6.1752	0.5223	0.03	-0.3422	-2.3307	-7.6319	6.391	-61.0085	326.2561	104.5263	-0.4388	-1.012	-0.6242	7.7475	0.3953	0.9988	3.1283	18.0671	103.6542	-1.4507	0.6879	0.7376
-0.8142	-1.2069	10.1463	18.1648	3.0948	7.4163	0.5103	0.03	-0.3242	-1.55	-6.3141	8.1323	-70.0255	333.9397	116.9736	-0.4393	-1.0252	-0.7663	7.4525	0.107	0.4669	3.8701	17.2269	114.5512	-1.3972	0.6643	0.7953
-1.339	-0.9767	9.8412	22.4756	2.4952	9.5045	0.5223	0.024	-0.3542	-0.5453	-7.1727	9.2797	-49.5764	330.9985	120.2931	-0.4112	-1.0061	-0.7847	7.5535	-0.3546	-0.2328	1.7904	12.5683	126.2573	-1.4514	0.7093	0.6991
-1.0576	-0.9206	9.4923	23.3837	2.363	8.902	0.5343	0.036	-0.3482	0.4312	-8.1485	9.0008	-41.4621	323.855	121.4772	-0.3696	-0.9652	-0.8752	7.4977	-1.1002	-0.2366	2.6039	6.9852	135.6917	-1.4164	0.7599	0.7124
-1.0576	-0.9206	9.4923	21.1531	2.455	8.6212	0.5163	0.03	-0.3422	1.2461	-8.4359	9.3734	-56.6375	319.2084	119.6997	-0.3699	-0.9636	-0.9109	7.3725	-1.3315	-0.8233	4.9514	4.5572	140.8114	-1.4165	0.7774	0.7105
-0.5992	-0.6917	9.3836	15.8308	3.9661	9.6441	0.5103	0.012	-0.3422	1.2577	-9.2934	9.847	-76.2462	318.047	117.4824	-0.3291	-0.8851	-0.9851	7.3103	-1.6767	-1.1174	5.2279	3.8395	143.157	-1.3819	0.7791	0.6928
-0.9475	-1.2089	9.1983	8.9519	5.8665	7.7478	0.5343	0.018	-0.3302	1.4029	-9.4052	11.3347	-107.9665	320.498	115.6484	-0.2864	-0.8841	-1.0383	8.0564	-1.7344	-0.8694	6.1238	1.704	144.9261	-1.3643	0.8122	0.7076
-0.6486	-0.9206	9.7957	1.2854	5.5142	7.8102	0.5223	0.012	-0.3542	2.2894	-10.0349	12.3614	-129.6135	324.3578	103.2921	-0.2294	-0.9005	-1.1442	7.7658	-1.9071	-1.1675	11.8069	-4.5955	143.6473	-1.3993	0.8631	0.7198
-0.8237	-0.9206	9.6741	-2.7291	5.6771	6.658	0.5283	0.024	-0.3422	3.9409	-8.2606	14.4779	-140.8777	332.885	99.7486	-0.145	-0.8439	-1.1816	8.5097	-2.0225	-1.0363	15.4732	-8.4318	135.6724	-1.3115	0.8432	0.7414
-1.6222	-1.2056	10.0714	-0.8778	3.7341	6.6323	0.5283	0.006	-0.3542	5.8804	-10.3223	16.1173	-133.0556	334.4366	93.5499	-0.0469	-0.7671	-1.2553	8.458	-3.2265	-0.8668	16.475	-11.2	123.8382	-1.3821	0.9157	0.7145
-0.6498	-0.8632	9.7367	-1.9252	6.925	5.9134	0.5103	0.018	-0.3362	6.9464	-12.211	17.3232	-153.2534	327.4846	90.765	0.0228	-0.7071	-1.3642	7.8893	-4.2581	-0.882	19.8201	-14.1392	106.0985	-1.3475	0.9174	0.6968
-0.5969	-0.7489	9.5017	4.0096	5.737	7.8673	0.5283	-0.012	-0.3422	7.906	-10.893	19.3652	-176.66	325.7417	88.7472	0.1076	-0.6698	-1.4007	7.896	-4.1995	-0.5316	21.2293	-15.6071	83.2309	-1.3475	0.9174	0.6968
-1.4551	-1.0916	9.7796	6.261	5.0537	5.8866	0.5103	0.024	-0.3422	7.7019	-10.5464	20.7278	-194.4129	329.8822	88.5123	0.177	-0.5752	-1.4219	7.8437	-4.3133	-0.2997	18.3737	-15.4256	59.0441	-1.2948	0.9327	0.7141
-1.5653	-2.0684	9.9523	10.1122	7.1676	8.7033	0.5343	0.012	-0.3482	8.6374	-11.0626	21.3399	-187.6168	342.5247	84.7339	0.3763	-0.5244	-1.4047	7.3259	-5.0593	-0.6045	18.9878	-15.1947	35.8954	-1.3655	0.9721	0.6725
-0.2416	-0.4033	10.0412	41.7694	2.9609	6.4143	0.5103	0.006	-0.3542	11.0159	-10.3226	22.222	-175.7793	342.5401	70.082	0.4904	-0.4917	-1.3518	7.2748	-4.4843	-0.2534	20.6794	-13.6024	19.6649	-1.3825	0.9859	0.707
-2.0223	-3.1022	10.059	47.1401	4.5501	8.6419	0.5283	0.006	-0.3362	15.8956	-10.4451	24.1636	-163.1121	328.6836	50.7675	0.6475	-0.461	-1.2806	6.7572	-4.6564	-0.4978	22.1758	-14.0138	12.5342	-1.3118	0.9465	0.7486
-1.9151	-2.3558	9.7084	52.8316	3.8445	13.8383	0.5283	0.006	-0.3542	21.4066	-7.6558	23.4514	-156.5744	305.1721	37.5719	0.7329	-0.4106	-1.1751	6.9285	-4.0255	-0.4337	22.6859	-16.2378	13.3544	-1.3472	0.9838	0.7259
-0.7455	-1.7807	10.6779	79.8493	4.1007	23.3422	0.5283	0	-0.3542	26.6614	-2.6359	21.7288	-187.9605	274.6396	7.6614	0.8513	-0.5544	-1.0259	6.9245	-3.6819	-0.6075	22.9824	-17.9571	20.0494	-1.3133	1.0069	0.6697
0.4802	-0.178	8.6379	72.9503	4.9219	19.0908	0.5404	0.006	-0.3422	29.777	1.5298	19.5446	-207.6668	240.3697	-6.0794	0.8935	-0.5011	-0.9564	6.6567	-3.7931	0.2617	23.0264	-18.0842	30.2464	-1.3468	0.9643	0.7461
-1.0233	-0.0537	11.3857	58.1395	-0.017	13.748	0.5283	-0.006	-0.3542	27.0524	11.7126	14.2234	-198.5318	211.9041	23.017	0.8951	-0.5448	-0.8299	7.6821	-3.049	0.285	18.6747	-13.1858	43.8483	-1.3649	0.9682	0.7092
0.3268	2.3694	15.9673	60.6595	12.5664	5.5525	0.5223	-0.006	-0.3602	26.2959	18.0677	14.6368	-157.0501	172.4436	117.9259	0.9245	-0.5671	-0.7753	9.6408	-3.1632	1.3155	12.7139	-4.7997	57.4884	-1.3475	0.9857	0.7076
-0.2357	1.5671	16.6043	18.5688	75.3678	13.863	0.5283	-0.018	-0.3422	37.9788	32.6577	27.2026	-186.2867	106.9678	15.9465	0.8548	-0.6433	-0.7371	10.9468	-3.1663	1.05	10.2517	-4.0185	65.3557	-1.2956	1.0224	0.6864
0.1727	-0.6399	7.5673	20.9899	88.7455	4.9424	0.5464	0	-0.3482	33.1793	14.8137	27.0667	-1.6339	119.0691	-201.3399	0.8826	-0.6057	-0.7384	10.7518	-3.9163	-0.24	12.2896	-10.0058	74.6959	-1.3651	1.0033	0.7055
-0.2278	1.8987	10.9925	17.5162	85.0265	2.2294	0.5524	-0.018	-0.3602	35.2123	7.1624	9.6304	167.481	121.1638	-216.29	0.898	-0.6622	-0.7717	9.7636	-4.4346	-1.2533	14.8098	-14.4956	87.5809	-1.3125	1.0187	0.7228
-0.9497	0.4657	12.2747	-7.711	93.5995	-5.8629	0.5524	-0.006	-0.3542	41.3581	2.8863	-3.4376	128.3901	90.1576	-147.8154	0.9275	-0.6853	-0.6993	9.6915	-5.0684	-2.0738	10.9612	-13.4935	94.988	-1.2954	1.0888	0.7156
-1.7233	0.2915	10.9594	-28.3832	105.2243	-6.3	0.5524	-0.012	-0.3482	36.7508	-3.5018	1.681	19.7927	-42.116	-87.558	0.8998	-0.7236	-0.6801	9.8468	-5.9323	-2.9488	8.2593	-14.2485	92.3093	-1.2606	1.0554	0.7016
-1.3864	0.2323	10.4931	-38.3256	111.4437	-7.6086	0.5644	-0.012	-0.3422	5.6213	34.9037	51.9618	283.8054	-374.7649	96.3565	0.886	-0.7431	-0.6616	9.1652	-6.2176	-2.8468	4.2811	-15.4223	86.8098	-1.2611	1.0924	0.6796
-1.9417	-0.8567	11.484	-79.6166	125.7278	-16.6802	0.5644	-0.03	-0.3482	3.2754	-1.2212	13.7661	85.0185	-124.8747	-21.3516	0.8724	-0.7964	-0.7487	9.7863	-6.6214	-3.1858	-6.4992	-20.6194	63.3988	-1.3133	1.1084	0.6951
-2.8202	-1.9998	13.6502	-113.0745	143.711	-20.6131	0.5764	-0.018	-0.3482	-4.1798	-22.5683	4.3025	235.4545	-304.2977	80.447	0.8717	-0.7588	-0.7324	10.7244	-6.1591	-1.8237	-7.9481	-19.7801	26.0093	-1.2608	1.0905	0.6979
-2.0234	-2.2253	16.1466	-122.834	163.8279	-15.8372	0.5764	0.006	-0.3242	-29.3655	-15.0939	19.4795	114.2743	-353.3824	352.2854	0.7877	-0.8507	-0.7649	12.5217	-6.6156	-0.331	7.7047	-14.4568	-0.6592	-1.3309	1.126	0.693
-2.2503	-4.4024	19.15	-100.1503	194.3295	3.7677	0.5944	0.006	-0.3002	-1.0266	7.5265	4.3111	376.4458	-386.6762	-22.4252	0.76	-0.9051	-0.8164	12.1156	-7.3622	-0.7502	30.4921	-21.0006	-24.6997	-1.2432	1.1236	0.7128
-2.5078	-4.6281	20.7397	-49.1252	230.2475	30.436	0.6184	0.03	-0.3122	14.7738	-8.9856	8.5819	36.769	-204.7957	-151.3207	0.6908	-1.0173	-0.8303	11.3615	-7.2486	-1.4066	27.6849	-11.122	-71.7224	-1.2598	1.0672	0.7547
-1.6006	-5.0342	19.9292	-4.0051	267.7578	50.5478	0.6184	0.012	-0.3062	12.9635	4.2454	11.8982	29.9111	-187.4568	-50.7598	0.677	-1.0369	-0.8117	12.326	-6.2182	-1.5585	33.1136	12.4007	-111.9938	-1.3129	1.0889	0.7153
-2.1007	-6.6411	20.7427	35.0408	302.3921	68.5042	0.6484	0.024	-0.2822	0.6465	-0.3655	9.1996	148.6088	-167.7951	-31.2715	0.6202	-1.0551	-0.7936	13.0686	-4.7846	-1.3634	30.0249	19.7116	-129.3369	-1.3117	1.0811	0.7886
-0.6048	-5.8965	20.7146	77.9557	339.6293	82.9955	0.6604	0	-0.2762	0.0815	-7.3409	11.7869	13.9262	-36.5484	-52.4193	0.6336	-1.0164	-0.8129	12.1096	-4.9533	-0.8582	24.0937	20.4172	-123.8921	-1.2777	1.0867	0.7342
-0.9975	-6.0167	18.2252	69.365	378.2671	79.4595	0.6965	0.012	-0.2642	7.4179	-3.6477	7.3723	2.8594	-17.7301	-50.8367	0.6053	-1.034	-0.8302	11.8824	-4.0921	-0.743	26.6395	21.1896	-117.1963	-1.33	1.0188	0.7225
-0.377	-6.0195	17.5283	10.2387	419.082	78.234	0.7205	-0.012	-0.2342	8.9625	-4.6142	12.4507	55.4549	3.7372	-32.0181	0.649	-1.0729	-0.8462	11.5319	-3.175	-1.0966	23.4494	25.0156	-124.9818	-1.3302	1.0031	0.706
-3.7368	-2.328	19.9533	-118.1751	471.4934	84.5598	0.7265	0	-0.2281	0.2837	-0.767	8.3004	54.4232	-6.8031	2.7839	0.6339	-1.0348	-0.8299	10.4141	-2.4231	0.1087	19.1525	21.8534	-125.6031	-1.2614	0.9929	0.6358
-5.6005	3.783	25.5448	-154.1148	499.9992	113.3449	0.7385	-0.018	-0.1921	1.4958	-2.3153	8.2033	-0.6494	-13.5424	-11.1759	0.6203	-1.072	-0.8464	10.46	-1.8514	-0.4133	19.8066	18.9784	-114.5625	-1.2957	0.9717	0.6737
-0.6385	-2.2706	22.318	-46.1658	479.4861	128.4283	0.7685	-0.012	-0.1501	2.394	-2.8866	9.8243	-17.9209	-7.8333	-6.6567	0.6347	-1.0724	-0.8463	10.6316	-0.7613	-0.2892	27.8571	12.5244	-108.1837	-1.3834	0.9917	0.6521
-4.5506	-1.5007	28.7427	-42.3921	475.0138	126.8148	0.8045	-0.018	-0.1081	2.7914	-2.3157	9.5961	3.6136	-9.3214	-10.0431	0.6058	-1.0539	-0.8115	10.2386	-0.3006	0.0546	33.244	8.5835	-104.6101	-1.3652	0.9702	0.6909
-1.6463	-2.804	38.9583	-67.9331	478.9185	111.3707	0.7925	-0.012	-0.0841	2.3198	-2.4301	9.0516	9.1398	-8.6739	-11.1338	0.606	-1.0554	-0.7758	9.6048	-0.5876	-0.3091	34.7938	4.914	-96.3874	-1.3484	0.9232	0.6418
9.9617	5.6458	23.0758	119.03	436.2301	150.6591	0.8405	-0.018	-0.03	2.3814	-2.6016	9.2307	5.9726	-6.3901	-8.4734	0.6484	-1.036	-0.812	8.5374	-0.0092	0.5465	34.2224	1.7564	-83.0192	-1.3648	0.9	0.6983
24.6649	6.7558	-6.4714	487.9268	222.3507	56.6223	0.8345	-0.024	-0.024	2.2698	-2.6582	9.4065	0.1226	-5.3574	-11.2756	0.6337	-1.0172	-0.795	9.1603	-0.0684	0.3255	32.2398	1.1704	-72.3567	-1.3831	0.939	0.6577
36.6942	-34.7582	1.0467	430.0236	-40.5238	49.1032	0.8586	-0.042	0	2.3901	-2.2573	9.7068	-1.3053	-5.1375	-6.765	0.6069	-1.11	-0.845	9.1503	-0.2423	-0.2003	34.9937	3.8717	-61.7882	-1.4002	0.8689	0.6648
-7.1455	-7.1394	0.7915	-55.5931	-160.4187	-83.9604	0.8646	-0.048	-0.03	2.547	-2.0303	8.9383	3.0373	-5.2674	-8.0261	0.6204	-1.0728	-0.8285	8.8127	-0.241	0.0262	39.3729	6.998	-50.5316	-1.4173	0.7988	0.672
12.0154	8.3854	16.2099	-71.3601	-58.2565	-82.6847	0.8405	-0.036	-0.036	2.8406	-3.2326	9.0607	9.7975	-5.9941	-8.6141	0.6052	-1.0171	-0.7774	9.3708	-1.2195	-0.6661	42.4981	7.3199	-38.6216	-1.3301	0.8334	0.6697
-0.5552	-12.13	10.5972	122.8925	-67.1555	60.7592	0.8345	-0.018	-0.042	2.3147	-2.3161	8.8142	6.2168	-6.6066	-9.0636	0.6053	-1.0178	-0.7595	9.3068	-0.4174	-0.9562	43.6295	6.1273	-24.1262	-1.4	0.8338	0.6686
5.5127	-8.25	2.8671	61.1525	-93.1131	24.1223	0.8586	-0.036	-0.06	2.4266	-1.8588	8.6986	4.1362	-5.7168	-7.8469	0.6207	-1.0743	-0.7928	10.2206	-1.2219	-0.9408	44.4488	2.5544	-7.4742	-1.3126	0.8333	0.67
6.2223	-0.3059	7.6269	-12.8715	-137.7087	9.8014	0.8345	-0.03	-0.054	1.9226	-2.6002	9.3401	0.298	-6.6082	-6.6958	0.6335	-1.0156	-0.8307	9.6442	-1.7385	-1.3042	35.4369	-1.5509	9.7891	-1.3659	0.8219	0.616
4.1254	-2.5405	9.2349	90.8044	-208.1217	17.888	0.8345	-0.036	-0.0961	2.3142	-2.6024	8.7542	-1.4079	-7.0751	-5.5953	0.6062	-1.0731	-0.8108	9.5774	-1.3386	-1.7707	25.5965	-7.0377	25.8873	-1.3649	0.8161	0.671
3.3548	-5.4818	4.7815	119.557	-246.0688	18.4042	0.8225	-0.036	-0.0901	2.5406	-2.3171	8.5812	-4.5686	-6.2601	-4.1038	0.605	-1.0155	-0.8131	8.8917	-1.9689	-1.9035	20.3395	-8.9674	35.1524	-1.3649	0.8161	0.671
2.9936	-5.0231	4.0075	93.7094	-260.1632	11.5382	0.8105	-0.03	-0.1261	2.7827	-2.1448	9.1805	-7.734	-5.8708	-3.5773	0.6484	-1.0529	-0.8648	8.5322	-1.1682	-2.7244	17.1321	-8.7788	36.4854	-1.3651	0.8512	0.6673
2.8606	-5.1401	3.0593	81.1725	-270.5594	12.4546	0.7985	-0.024	-0.1321	2.3806	-2.2582	9.2314	-4.9298	-5.7642	-3.7558	0.6064	-1.0739	-0.7929	7.9706	-1.6248	-2.329	16.7765	-8.8009	34.1805	-1.3833	0.8727	0.6285
2.7033	-5.0803	3.8835	27.554	-272.219	1.5158	0.7985	-0.048	-0.1561	2.2629	-2.2582	9.1102	-1.8595	-4.6182	-3.9462	0.591	-1.0335	-0.8303	8.0754	-1.5119	-2.7931	12.7535	-8.3468	30.5448	-1.3829	0.8532	0.6487
3.2378	-5.1368	4.721	-0.3461	-276.5893	-12.7478	0.7625	-0.024	-0.1741	2.8438	-3.1178	9.2392	0.463	-2.4735	-4.954	0.578	-1.0914	-0.8102	7.8505	-2.1421	-2.6833	6.9315	-6.2629	29.4879	-1.3479	0.8862	0.6638
2.2888	-4.7287	6.3578	-18.1872	-282.2382	-19.9112	0.7685	-0.012	-0.2041	2.153	-2.5436	9.3449	-1.4383	-3.7	-4.9483	0.6207	-1.0743	-0.7928	8.0271	-1.9692	-2.3875	2.2334	-7.117	30.297	-1.3659	0.8726	0.6288
1.2205	-3.9759	7.8159	-33.4571	-278.5357	-33.6712	0.7505	-0.018	-0.2041	3.5255	-2.8342	8.7786	4.8195	-1.8068	-5.892	0.6338	-1.0341	-0.8478	8.2658	-2.1972	-1.8585	-1.8764	-8.3077	29.8829	-1.366	0.8394	0.6142
1.6906	-4.6081	8.237	-23.8337	-282.7615	-40.7003	0.7145	-0.006	-0.2342	2.3277	-2.7728	9.4074	2.5395	-1.8013	-5.2782	0.606	-1.0716	-0.8465	8.6649	-2.0831	-1.8501	-8.6293	-8.1047	29.5922	-1.3474	0.8999	0.6986
2.088	-4.3796	7.9499	-29.4301	-291.7814	-51.0768	0.7025	0.012	-0.2281	2.0331	-2.601	9.1048	11.018	-3.4033	-9.029	0.5915	-1.0535	-0.8117	8.4535	-2.5387	-1.0394	-11.8583	-10.1984	31.138	-1.3303	0.8685	0.666
0.8953	-4.7778	8.8119	-50.3329	-299.0616	-61.8025	0.6904	0	-0.2702	2.5518	-3.0029	9.0552	12.6003	-1.3377	-10.1321	0.5618	-1.0128	-0.8491	7.7031	-1.908	-1.4604	-14.2845	-11.3989	32.3541	-1.3648	0.8492	0.6856
0.7963	-5.1206	9.6363	-57.1199	-302.5428	-69.403	0.6544	0.03	-0.2702	3.5919	-2.5473	9.2558	21.196	-0.6302	-8.7765	0.6051	-1.0325	-0.8659	7.8847	-2.8244	-0.9935	-14.6453	-11.5219	32.5119	-1.3832	0.9059	0.6431
-0.1137	-4.9449	10.2689	-74.6239	-298.4975	-74.6565	0.6484	0.036	-0.2882	3.5489	-2.7174	9.9673	11.7996	0.3021	-9.8881	0.6066	-1.0915	-0.8279	7.4314	-2.4789	-0.8263	-11.6113	-11.0347	32.0646	-1.3832	0.9059	0.6431
-0.3233	-4.7119	11.388	-92.0538	-295.2562	-81.1969	0.6244	0.048	-0.2942	3.1922	-2.6604	9.4255	12.3784	-0.1948	-10.8534	0.6059	-1.0547	-0.7937	7.3146	-2.9383	-1.0053	-6.1192	-9.1674	31.9773	-1.3993	0.9139	0.7325
-0.3015	-4.9967	12.5103	-104.0482	-295.8531	-87.7387	0.6004	0.042	-0.3122	1.9115	-2.4296	8.8056	22.2694	-2.7897	-10.6354	0.6064	-1.0908	-0.8457	7.3667	-2.7097	-1.2368	-4.0042	-5.5353	32.1928	-1.3127	0.9016	0.6809
-0.6232	-5.2807	13.744	-111.8279	-296.5582	-92.6455	0.5944	0.042	-0.2942	3.0692	-1.9167	9.1275	19.0958	-1.0241	-8.8181	0.6197	-1.0352	-0.8122	6.9724	-2.9377	-1.0122	-5.7627	-1.9506	31.0666	-1.3296	0.8978	0.7172
-1.1262	-5.8529	14.5009	-121.2678	-296.1576	-91.1637	0.5343	0.06	-0.3182	2.2599	-2.4874	8.9315	18.722	-0.9332	-7.0567	0.6064	-1.0739	-0.7929	7.5413	-2.7667	-1.0585	-8.0051	2.0744	27.6821	-1.3134	0.9737	0.6551
-1.837	-5.9618	16.4956	-130.6395	-296.6042	-86.6699	0.5343	0.072	-0.3182	1.8574	-1.456	9.1035	18.4634	-1.7238	-7.8125	0.6051	-1.0325	-0.8659	7.5347	-2.9401	-1.4092	-5.0262	3.9989	21.6058	-1.3126	0.9348	0.6955
-2.4979	-5.5542	18.138	-124.6786	-294.3999	-78.0207	0.4923	0.066	-0.3362	2.9486	-1.688	8.8879	22.2714	-0.5303	-7.7228	0.6203	-1.072	-0.8464	7.4206	-2.9399	-1.4115	-5.515	9.1739	14.1504	-1.4002	0.9196	0.6776
-4.7714	-5.7187	19.7476	-130.1346	-280.2947	-67.0125	0.4743	0.0901	-0.3182	2.668	-1.9155	9.238	22.7737	-0.2568	-9.0451	0.6064	-1.0739	-0.7929	7.7093	-3.6857	-1.2918	-5.8496	10.8988	5.7299	-1.3305	0.9544	0.675
-7.1806	-5.1954	20.3518	-119.1044	-276.6541	-44.5708	0.4323	0.0901	-0.3302	2.7819	-2.3166	9.1208	26.0319	-1.9727	-8.4832	0.6206	-1.0735	-0.8107	7.3115	-3.1683	-1.1812	-9.8261	14.1983	-0.6929	-1.3304	0.9875	0.6896
-8.5558	-5.882	20.6778	-125.7343	-283.5073	-15.0769	0.3843	0.0901	-0.3122	2.4575	-2.3709	10.1831	27.8444	-7.3378	-10.3671	0.6345	-1.0548	-0.8113	7.3655	-3.3985	-1.356	-11.4569	16.4282	-2.5078	-1.3307	0.9895	0.6713
-9.3522	-5.4193	21.2542	-130.7789	-294.4618	22.9027	0.3482	0.0781	-0.3242	3.0328	-1.8573	10.196	32.687	-16.687	-11.6682	0.592	-1.0734	-0.793	7.0704	-3.6294	-1.8877	-9.7206	18.2341	0.0059	-1.3306	0.9719	0.6731
-10.5084	-4.0375	21.176	-152.296	-292.2454	52.8227	0.3242	0.1081	-0.2942	3.0837	-3.0029	9.7195	21.996	-27.4559	-13.979	0.5921	-1.0742	-0.7752	6.843	-3.3994	-1.8331	-7.9102	20.9912	3.7783	-1.3132	0.9894	0.6715
-11.6732	-3.5194	20.5637	-165.2903	-285.6608	70.8157	0.2942	0.0961	-0.2822	2.7784	-1.859	9.0029	30.689	-20.3252	-14.4852	0.5636	-1.0741	-0.7575	7.8147	-4.0317	-1.7576	-10.0658	23.0462	8.4728	-1.3315	1.0284	0.6309
-13.2347	-2.3671	20.3589	-175.0967	-278.6299	66.1812	0.2702	0.1021	-0.2642	3.1263	-2.2031	9.0687	16.2361	-17.7535	-12.6423	0.5784	-1.1106	-0.8095	8.1622	-3.7444	-1.4579	-17.5612	24.9607	13.085	-1.2955	0.9366	0.6774
-16.2953	-0.8673	20.1256	-163.1045	-266.1124	47.255	0.2342	0.1141	-0.2462	3.3735	-2.4253	12.7559	4.9366	-28.3515	-16.6189	0.6206	-1.0735	-0.8107	8.2255	-4.0876	-1.1662	-21.2156	23.5187	13.7949	-1.3492	0.9622	0.6014
-19.3545	1.9482	17.0597	-146.3199	-219.8139	17.8522	0.2402	0.1081	-0.2161	3.9416	-2.4275	12.3518	-10.4067	-59.5937	-16.122	0.6064	-1.0908	-0.8457	7.7655	-3.9154	-1.3498	-23.9998	23.5883	13.5135	-1.3139	1.0108	0.633
-21.8905	3.4981	14.119	-139.5322	-160.3149	-4.3934	0.2161	0.1081	-0.2041	3.0712	-1.5673	12.1575	-5.2964	-68.7445	-21.7736	0.6072	-1.1122	-0.7914	8.2114	-3.8606	-1.8657	-25.0903	22.2059	12.9102	-1.3134	0.9737	0.6551
-23.8036	4.7653	13.6122	-141.6416	-116.0438	-17.1737	0.2161	0.1201	-0.1801	3.4793	-1.9685	12.3432	-3.9544	-72.2758	-19.8577	0.5772	-1.0531	-0.8118	8.4452	-3.86	-1.5693	-25.6268	21.0721	11.3166	-1.2796	1.0144	0.597
-26.9764	4.5405	13.3725	-87.6203	-89.604	-16.4132	0.2041	0.1261	-0.1681	2.25	-2.0819	11.3673	2.4333	-78.3918	-22.3029	0.5623	-1.0327	-0.8305	8.8452	-3.6309	-1.5021	-20.3507	17.2411	9.8689	-1.2791	0.9774	0.619
-31.4851	4.7122	9.5629	-29.3008	-61.7557	6.3365	0.1981	0.1261	-0.1381	3.7413	-1.3993	11.1025	-9.2766	-86.4419	-10.2677	0.5632	-1.0711	-0.829	9.311	-3.8594	-1.027	-13.8699	14.1904	13.7825	-1.2965	1.0107	0.6333
-34.1577	6.8923	5.5576	-40.6251	-22.6646	40.3678	0.2041	0.1141	-0.1501	3.4867	-2.0823	12.6995	-49.3178	-114.1338	-9.3797	0.534	-1.0503	-0.8478	9.589	-3.6317	-1.3706	-10.9443	13.905	23.0856	-1.2616	0.9773	0.6193
-41.7172	24.883	46.0438	99.6529	188.2767	25.3548	0.1921	0.1201	-0.1441	3.674	-1.8581	10.5656	-43.4718	-112.7916	-9.0676	0.5057	-1.0517	-0.7945	9.8893	-4.5474	-0.6679	-9.8787	12.9073	34.7165	-1.2968	1.0126	0.615
-39.8356	2.399	21.6244	379.4478	242.4417	48.6989	0.2101	0.1141	-0.1201	3.5256	-1.6836	11.8102	-68.532	-126.2798	-7.6531	0.4758	-1.0102	-0.8498	9.7706	-5.2367	-0.9645	-11.5571	13.1911	43.2023	-1.2786	0.9911	0.6538
16.2872	-0.039	6.7603	460.1833	257.3213	27.5043	0.2221	0.1141	-0.1681	3.7714	-1.5681	12.5876	-81.3228	-138.1809	-9.7407	0.4471	-1.0086	-0.8679	10.8557	-5.4676	-0.8852	-12.319	12.5871	40.0569	-1.3139	1.0108	0.633
6.105	-1.3841	13.4712	297.5423	303.9885	52.8782	0.2582	0.0781	-0.1981	4.8298	-2.7707	13.4979	-75.92	-148.5005	-16.0614	0.4308	-0.9299	-0.9068	13.1379	-4.6103	-0.7197	-16.5206	9.7322	12.2287	-1.2804	1.0534	0.5566
-6.6187	-0.7417	7.9073	206.8128	307.7727	-51.9689	0.2702	0.066	-0.2281	4.1605	-2.7669	14.6126	-64.3953	-155.348	-18.6343	0.3886	-0.9662	-0.9235	17.3645	-4.1568	-0.2833	-28.5076	8.2377	-38.3163	-1.2438	1.026	0.6507
-4.4588	7.3233	16.2407	-4.4301	269.8935	-36.0706	0.2822	0.0781	-0.2462	6.1841	-6.4289	17.3789	-77.7325	-165.2676	-29.551	0.4023	-0.9298	-0.8892	19.0945	-5.4184	0.6218	-36.1946	-3.0231	-66.7905	-1.2265	0.9927	0.6364
-2.1655	-0.8555	11.8342	186.4557	215.2682	6.8624	0.3002	0.06	-0.2582	6.0073	-7.7455	17.0162	-126.2816	-242.0559	-58.9226	0.3582	-0.8879	-0.9446	17.0358	-5.4735	0.2886	-47.8403	-27.4057	-87.4537	-1.2968	1.0126	0.615
-3.0869	1.4393	9.045	71.419	161.8976	22.4115	0.3122	0.054	-0.2402	4.3859	-6.254	16.8077	-30.0222	-244.4609	-80.3222	0.3288	-0.8494	-0.9285	13.5397	-6.2745	-0.7177	-58.3708	-50.0687	-135.1767	-1.2616	0.9773	0.6193
0.5543	0.0539	9.5261	47.2587	140.4792	33.2192	0.3122	0.054	-0.2462	3.315	-8.2582	14.8808	68.1287	-233.6097	-100.7708	0.2131	-0.8061	-0.9667	11.9874	-5.5858	-1.3296	-40.4687	-52.1376	-184.2822	-1.3311	0.9582	0.6383
-5.9559	-2.1624	15.3611	-39.2996	41.2287	3.3285	0.3242	0.048	-0.2462	5.4216	-10.8361	16.1661	33.5661	-263.7931	-120.3902	0.2288	-0.848	-0.8936	10.7597	-4.6034	0.1076	7.7937	-46.7162	-218.3935	-1.3312	0.925	0.6237
-4.1992	-6.0295	10.423	28.2477	6.9345	-27.1852	0.3242	0.048	-0.2582	10.2935	-15.1266	22.9693	-36.7929	-323.7978	-160.6104	0.1272	-0.8036	-0.9674	10.1298	-2.9963	0.1009	26.74	-26.7875	-234.8404	-1.2946	0.8976	0.7178
0.3758	-2.4767	8.9847	88.448	-0.9791	13.3407	0.3242	0.036	-0.2462	4.6967	-8.1988	17.701	26.3578	-325.3061	-188.3761	0.084	-0.7846	-0.9328	9.1353	-0.8762	-1.0196	23.9328	-12.0316	-274.3415	-1.3649	0.8668	0.6837
-2.002	3.3338	8.7163	14.8103	10.1805	-6.5857	0.3482	0.048	-0.2582	0.4662	-4.5157	22.7295	76.1216	-417.4973	-202.221	0.0276	-0.8213	-0.9317	9.3516	0.8426	-1.4756	13.3259	-3.1478	-313.3385	-1.3646	0.8141	0.6893
-1.1692	-2.9901	9.4851	-20.214	6.3172	-0.3872	0.3182	0.054	-0.2462	2.4272	-2.4596	23.0711	79.3974	-458.2616	-217.3595	-0.0153	-0.8039	-0.8614	10.2488	1.8139	-2.1541	0.053	3.3653	-324.0354	-1.3293	0.7945	0.7101
-1.8522	-0.285	10.1874	21.5123	1.6737	0.7982	0.3242	0.042	-0.2642	5.9061	-0.8631	24.334	53.1218	-474.5714	-190.2813	-0.172	-0.8376	-0.8611	10.13	2.6739	-2.3283	-13.6703	4.9626	-321.1823	-1.3636	0.6894	0.7207
-0.6765	-1.039	8.3178	-3.8416	2.7365	1.6955	0.3362	0.048	-0.2522	7.218	-2.1785	26.3778	56.0006	-472.774	-176.9685	-0.1996	-0.8605	-0.7534	10.8493	8.8084	-2.9331	-19.5485	-2.9542	-309.6172	-1.3632	0.6192	0.7282
-0.8134	-0.4017	10.2664	-15.3516	3.6407	0.5468	0.3362	0.048	-0.2642	6.3117	-6.1303	23.7969	131.5396	-460.4145	-159.0181	-0.284	-0.917	-0.7161	9.5442	9.6723	-2.5478	81.0866	-4.0902	-148.7164	-1.3971	0.5453	0.7717
-0.9337	-2.0123	9.8465	-5.8021	2.6682	2.3529	0.3302	0.048	-0.2582	6.9347	-6.9343	23.1547	132.2677	-438.4232	-142.3222	-0.3124	-0.9015	-0.6099	8.6814	2.6146	-3.5242	-80.9034	-10.006	53.0165	-1.3802	0.5822	0.7499
-1.2299	-0.6326	9.5487	-0.7459	2.5215	3.1748	0.3242	0.03	-0.2642	0.3586	-10.8744	19.4473	156.2021	-359.0412	-104.9852	-0.4119	-0.92	-0.5564	9.0509	3.4224	-2.0556	-153.3903	-17.3758	107.2165	-1.3799	0.5296	0.7555
-1.0493	-1.2071	9.9054	-3.0415	5.2227	4.558	0.3422	0.042	-0.2462	-7.9001	-4.9316	4.8564	209.5713	-329.6938	-72.8716	-0.4536	-0.9594	-0.5016	9.1293	3.6557	-0.9448	-86.1221	-25.3774	107.2472	-1.3628	0.5997	0.7483
-1.2274	-0.8048	9.6665	1.0796	4.4639	3.2026	0.3242	0.042	-0.2522	-24.558	0.8442	-17.6888	396.615	-188.8695	57.4894	-0.4815	-0.9638	-0.3768	8.9066	1.6487	-0.84	-33.6582	-25.3053	101.5498	-1.3625	0.5977	0.7667
-1.169	-0.5748	9.7273	-1.2315	4.2912	4.6611	0.3422	0.024	-0.2582	-29.6007	-28.2601	-11.2008	632.7893	71.7747	71.9124	-0.5087	-1.0052	-0.2862	8.9093	1.4197	-0.7241	-37.946	-22.297	90.5382	-1.4328	0.6176	0.7453
-0.8125	-1.5517	10.2045	-11.1224	4.7027	4.2634	0.3242	0.048	-0.2582	-8.174	-14.7411	-7.1675	-307.463	207.798	8.4238	-0.5508	-1.0423	-0.285	8.6843	0.8468	-0.614	-46.6974	-21.6358	74.7724	-1.3795	0.6623	0.8139
-1.1562	-0.8608	10.3768	-0.8922	6.234	4.5725	0.3362	0.054	-0.2582	-1.1022	-5.4521	10.4597	-542.3472	177.7562	-105.5159	-0.4664	-1.0019	-0.393	9.261	1.1914	-0.2512	-37.3281	-19.753	58.1233	-1.3804	0.6173	0.7462
-1.2371	-1.0361	9.134	-1.6002	7.6413	4.9334	0.3362	0.042	-0.2762	-9.0685	-16.0754	11.3427	-42.3755	198.304	-9.1989	-0.4966	-0.942	-0.4313	9.3669	1.2471	-0.6572	-31.2708	-11.7289	42.2994	-1.3281	0.6853	0.7579
-1.4541	-1.034	9.8388	-17.5185	8.0642	5.5671	0.3422	0.036	-0.2582	7.8484	-6.2162	11.2959	-24.6008	137.8413	-49.0359	-0.497	-0.9389	-0.5027	9.7702	0.8456	-0.4756	-31.0721	-0.0443	33.2295	-1.3283	0.6697	0.7415
-1.5654	-1.3783	10.013	-14.7732	8.1017	5.3785	0.3362	0.048	-0.2462	-2.6647	0.9508	5.1546	95.9798	176.894	16.3873	-0.4835	-0.9179	-0.5569	9.6116	0.1595	0.102	-29.2282	10.0746	29.8448	-1.3627	0.6836	0.7757
-1.0555	-0.8628	9.6107	-11.9177	8.2897	5.7372	0.3362	0.054	-0.2642	-8.9031	-5.7901	3.5866	17.9052	229.1741	27.5002	-0.4539	-0.9579	-0.5373	8.809	0.6191	-0.0874	-22.2908	14.9691	26.8255	-1.3455	0.7361	0.7704
-1.2146	-1.6659	10.2555	-10.4318	7.4304	5.2385	0.3422	0.048	-0.2642	-3.9533	-2.7059	6.546	22.3549	283.4122	27.4563	-0.4554	-0.8988	-0.5753	8.5298	0.5058	0.1983	-15.519	18.8862	21.1618	-1.3459	0.7049	0.7374
-1.3385	-1.2642	9.8405	-5.9537	7.3397	6.3494	0.3362	0.048	-0.2582	-4.0132	-6.6558	5.9426	53.5796	307.6533	64.2055	-0.4125	-0.9154	-0.6635	8.2494	0.335	0.4254	-10.8224	22.8132	14.1219	-1.3635	0.7225	0.7353
-1.4503	-1.2635	10.0156	-4.2846	7.2444	7.559	0.3422	0.054	-0.2642	-3.8024	-5.3417	5.1181	32.8182	321.2571	74.5129	-0.4137	-0.8748	-0.7186	8.4275	0.2786	0.7787	-8.5858	24.561	6.0822	-1.3459	0.7049	0.7374
-1.1146	-1.9555	9.4296	-2.4244	6.6141	7.0526	0.3422	0.036	-0.2522	-3.3722	-6.0842	6.3728	7.5465	329.2787	101.3323	-0.3711	-0.8738	-0.7719	8.2492	0.5071	0.426	-6.5615	25.777	0.4972	-1.329	0.7418	0.7157
-1.6256	-1.206	9.8941	2.768	6.5811	7.1396	0.3422	0.054	-0.2582	-2.2657	-6.2575	6.9298	5.0245	331.2138	111.1242	-0.3295	-0.8167	-0.7917	8.1311	0.1623	0.189	-4.7075	24.6971	-0.5879	-1.3116	0.7085	0.7014
-1.5111	-1.3788	9.8368	5.4164	5.5284	8.5945	0.3362	0.042	-0.2582	-2.4304	-5.7411	7.4026	2.9766	329.4752	123.7246	-0.3024	-0.7747	-0.9001	8.3584	0.6782	0.1955	-2.9094	22.6706	4.8051	-1.3277	0.7341	0.789
-1.6876	-1.264	9.6564	3.9957	4.9682	6.7039	0.3362	0.054	-0.2642	-0.7566	-6.5463	7.4354	-10.0682	325.6313	126.7843	-0.2455	-0.7741	-0.9533	8.3501	0.1603	-0.2732	-3.9492	19.0335	14.5855	-1.3468	0.7438	0.6971
-1.1686	-0.8048	9.7268	1.7532	5.2467	7.0041	0.3542	0.054	-0.2642	-0.0587	-7.1198	7.6862	-21.7753	320.0067	124.532	-0.2175	-0.7542	-0.9895	7.9977	0.0442	-0.8057	-5.0567	15.4496	26.8646	-1.346	0.7224	0.7356
-1.2286	-0.7475	9.6076	5.2933	4.4261	7.0353	0.3542	0.06	-0.2402	1.1086	-8.0943	8.3022	-38.399	307.3106	115.4413	-0.1613	-0.716	-1.0263	8.1145	-0.185	-0.6875	-6.5372	13.2516	39.8062	-1.3288	0.7067	0.7194
-1.2845	-1.0922	9.6647	1.9746	4.079	7.9072	0.3482	0.048	-0.2522	1.9279	-8.7247	8.8523	-59.9531	294.9086	107.4287	-0.0754	-0.7178	-1.0435	8.2174	0.3292	-1.2086	-4.9735	10.212	53.2166	-1.3819	0.7284	0.68
-1.4571	-1.2644	9.6609	-1.7526	4.7499	6.7814	0.3242	0.042	-0.2522	1.9384	-8.1513	9.4477	-81.6761	291.2572	114.3074	0.0229	-0.6425	-1.0815	7.5918	-0.0712	-1.1643	-1.9001	6.8633	65.6934	-1.3469	0.7614	0.6952
-1.513	-1.6091	9.7181	-0.6423	4.8818	5.5044	0.3602	0.024	-0.2762	1.3898	-9.8645	10.6207	-123.8906	296.9502	106.8598	0.0503	-0.6027	-1.1364	8.0529	-0.2431	-0.9223	2.2306	2.8322	78.5908	-1.3647	0.7303	0.662
-1.4018	-0.5747	9.6046	3.2149	5.1825	6.2665	0.3422	0.048	-0.2402	1.6655	-8.8875	13.0042	-136.858	310.8873	108.6305	0.0933	-0.5879	-1.0654	8.2754	-0.3019	-1.2097	4.6854	1.4855	92.0903	-1.3288	0.7574	0.7321
-1.0604	-0.6334	9.3748	3.4777	4.9863	5.8319	0.3422	0.036	-0.2582	2.2844	-9.2282	15.0951	-117.8691	318.853	108.9292	0.1935	-0.5901	-1.0824	7.8841	-0.2424	-0.809	6.1316	0.9721	106.0946	-1.3821	0.7635	0.6763
-1.0583	-1.2082	9.4325	-1.348	6.3762	4.7675	0.3422	0.036	-0.2522	3.5033	-9.6882	15.4757	-137.9238	323.7931	96.1008	0.2635	-0.5162	-1.0671	8.4697	-0.4701	-0.0398	7.3259	0.0298	119.4437	-1.3295	0.8296	0.7064
-1.3407	-1.2644	9.7223	6.2804	3.9835	6.124	0.3422	0.048	-0.2522	4.565	-10.2608	16.6249	-155.4725	328.5799	87.5681	0.3364	-0.5598	-0.9935	8.5204	-0.8156	-0.3901	8.7941	-1.7649	129.4047	-1.3302	0.8003	0.6551
-1.1085	-1.5522	9.7852	1.2051	5.5101	6.0122	0.3482	0.054	-0.2642	5.5702	-10.3752	17.8926	-171.4094	332.9631	73.6873	0.4206	-0.4856	-0.9959	8.2509	-1.3287	0.361	5.9051	-3.6587	135.4145	-1.3118	0.8451	0.7231
-1.7429	-1.3211	9.7734	6.7409	4.121	7.0594	0.3302	0.036	-0.2522	6.2387	-10.8313	19.5685	-181.6444	340.2324	58.6944	0.4638	-0.4884	-0.9599	7.9614	-2.1898	0.0604	5.9375	-6.0461	139.3497	-1.2954	0.8683	0.6666
-1.3984	-1.2069	9.7213	11.6454	4.5468	4.2579	0.3542	0.048	-0.2402	8.3511	-9.4016	21.6345	-188.4206	345.2457	47.7449	0.5337	-0.3976	-0.8917	7.9059	-2.4763	0.1165	7.6998	-7.6582	140.6545	-1.3126	0.8841	0.6827
-2.205	-1.3779	9.7052	10.488	3.3116	4.4925	0.3542	0.054	-0.2522	10.4419	-9.4051	22.4497	-184.2288	343.5506	39.8147	0.5911	-0.3831	-0.8206	7.6896	-2.7033	0.6947	11.2135	-9.9394	137.9013	-1.278	0.8858	0.665
-1.5107	-1.6088	9.8363	13.826	3.6091	6.6095	0.3542	0.054	-0.2582	12.8731	-8.0934	23.1558	-176.9491	332.1359	30.8826	0.5907	-0.3478	-0.7507	7.5753	-3.277	0.632	15.6239	-12.9489	131.0437	-1.3133	0.9562	0.657
-1.6286	-0.1713	9.8375	26.5376	5.8012	6.8926	0.3542	0.048	-0.2462	16.3187	-6.5002	22.755	-162.43	295.5857	19.5072	0.6624	-0.3507	-0.7322	6.995	-3.5074	0.0945	20.9283	-16.1327	120.3434	-1.2957	0.921	0.661
-1.8056	-2.2417	9.4154	53.236	1.7868	8.4472	0.3542	0.066	-0.2582	21.0429	-4.2221	22.9758	-148.2002	243.6726	-2.3655	0.6916	-0.3715	-0.7134	6.8217	-4.3109	-0.0869	26.0002	-17.4228	105.9738	-1.2421	0.9812	0.746
-1.8046	-2.1841	9.4747	62.0288	1.4724	13.845	0.3482	0.042	-0.2522	27.4214	-0.3527	19.6703	-157.2683	208.9777	-23.5691	0.7211	-0.3946	-0.6409	6.8159	-5.0005	-0.4395	28.9607	-16.4516	90.1383	-1.2259	1.0396	0.6857
-1.2846	-1.0347	9.6649	67.2567	1.4201	9.6294	0.3542	0.036	-0.2582	29.6552	3.012	16.516	-160.2139	185.703	-40.0795	0.7195	-0.3186	-0.6262	7.3356	-4.6559	-0.0779	31.0265	-14.0002	74.8853	-1.2967	1.0458	0.6296
-1.6137	-2.1822	10.4237	80.0596	4.3729	17.3282	0.3542	0.03	-0.2762	24.6568	10.2153	6.6277	-171.8361	172.8493	10.5064	0.7625	-0.3037	-0.5551	8.3149	-4.3113	0.468	30.7497	-6.244	60.8768	-1.1907	1.055	0.7028
-0.2101	1.4408	11.8779	74.4282	4.8111	-0.1657	0.3602	0.036	-0.2642	30.5445	20.9064	8.4343	-218.3652	97.7087	118.2469	0.7468	-0.245	-0.5754	9.8642	-4.5415	0.9649	24.9854	6.1973	42.0257	-1.208	1.0707	0.7189
-0.469	1.8547	16.4823	6.0725	59.2937	8.5525	0.3482	0.03	-0.2762	35.392	25.1658	26.5992	-200.7538	44.2961	-18.1509	0.7038	-0.2275	-0.5051	10.1433	-5.0021	0.6188	19.2662	4.9445	15.6301	-1.174	1.0763	0.6645
-1.4634	-2.1278	9.2451	20.9307	80.9261	6.4547	0.3422	0.006	-0.2702	28.1924	10.8672	22.1447	12.3082	54.3571	-123.1826	0.7039	-0.2283	-0.4872	10.4555	-4.836	-0.891	12.9059	-1.4097	-6.0627	-1.191	1.0569	0.6844
-1.3281	1.0949	10.6145	8.0412	75.468	-1.6831	0.3782	0.018	-0.2822	35.2927	8.5841	5.1804	167.6209	65.4674	-95.1706	0.7185	-0.2302	-0.4514	9.6378	-4.953	-1.8994	2.0234	-2.3755	-13.2094	-1.1562	1.0743	0.6832
-1.1924	1.6147	11.741	-1.7379	80.1804	3.8595	0.3602	0.018	-0.2642	30.4766	4.0645	0.0826	102.5197	11.7918	-78.1767	0.7462	-0.1919	-0.4706	9.2253	-4.5531	-2.5479	-1.2768	-7.7772	-8.9202	-1.2259	1.0396	0.6857
-1.3624	-0.6273	11.6731	-26.0877	90.889	-3.9369	0.3662	0.018	-0.2762	44.6668	14.3642	45.2993	-31.7284	-161.7	-48.7708	0.7183	-0.2287	-0.4871	9.331	-3.5794	-2.8922	1.2912	-12.8048	-1.162	-1.1735	1.0568	0.6847
-2.5145	-1.5453	11.5893	-18.8369	97.3937	0.7136	0.3722	0.018	-0.2582	-7.1583	-7.8532	32.9596	325.9998	-279.6773	28.5031	0.7341	-0.2882	-0.449	9.2909	-4.15	-2.0784	3.2825	-19.6744	13.7366	-1.1913	1.0589	0.6661
-1.7733	-0.8576	11.251	-26.6447	106.1921	1.2897	0.3843	0.03	-0.2762	14.3511	-19.7939	12.0551	44.4744	-76.6182	-108.6341	0.6911	-0.2869	-0.4493	10.3863	-3.6331	-1.4129	1.2704	-20.2439	28.6164	-1.2084	1.0395	0.686
-1.2175	-0.8539	13.2115	-74.2004	125.6394	-12.9385	0.3903	0.024	-0.2702	-2.8359	-33.4802	15.4145	417.5396	-370.8896	198.6409	0.661	-0.2432	-0.5583	13.0992	-3.1724	0.3348	3.8493	-16.0907	29.4847	-1.2252	1.0357	0.7224
-1.8398	-1.9367	16.7417	-97.1674	152.1958	-11.4646	0.3963	0.03	-0.2642	-32.3267	-18.2715	29.5091	714.566	-270.8312	364.9156	0.6771	-0.3211	-0.5372	14.2388	-3.9777	0.238	19.1849	-11.8808	22.2713	-1.1724	1.016	0.7434
-2.0262	-3.3685	18.9206	-67.7581	181.4101	8.58	0.4143	0.042	-0.2522	6.8936	1.8426	4.8782	331.2161	-275.7837	-12.3417	0.62	-0.3532	-0.6433	13.0265	-5.5851	-0.6672	29.9836	-13.5129	4.5016	-1.1724	1.016	0.7434
-2.0266	-3.7711	18.8605	-29.9601	211.8569	27.362	0.4203	0.03	-0.2642	16.028	-3.4316	11.4702	17.0815	-159.8801	-172.6296	0.6221	-0.4491	-0.6394	12.4524	-6.1013	-0.9139	29.3153	-3.6994	-34.1096	-1.1735	1.0568	0.6847
-2.4673	-3.8253	19.9153	-8.2472	248.1971	45.3203	0.4323	0.036	-0.2462	0.5504	1.5257	10.3895	192.5349	-169.0913	-54.0711	0.5938	-0.4506	-0.5861	13.8317	-6.2163	-0.3617	34.6983	10.163	-80.4448	-1.1551	1.0334	0.7419
-2.4795	-6.0048	22.0958	40.3517	288.3269	69.1485	0.4383	0.036	-0.2522	0.9253	-1.117	5.7589	127.8707	-154.0888	-37.6721	0.5796	-0.4671	-0.639	14.2071	-6.3361	-1.5795	30.1467	12.3926	-116.4999	-1.1913	1.0589	0.6661
-1.8669	-5.951	20.9853	98.8383	326.3824	91.1402	0.4803	0.036	-0.2582	3.6453	-3	11.8693	-27.2503	-30.9869	-61.7796	0.551	-0.467	-0.6214	13.1127	-4.5575	-2.0033	15.8473	8.0021	-138.5502	-1.2089	1.0258	0.6512
-0.6249	-5.9565	19.6506	97.0479	370.5465	95.62	0.5043	0.024	-0.2582	7.8313	-3.7622	7.8557	66.6908	-6.8135	-64.86	0.5515	-0.4862	-0.6206	11.8157	-3.0035	-1.1486	13.9848	5.0628	-161.4279	-1.1904	1.0024	0.7084
-1.636	-7.2238	17.8553	40.9306	415.267	78.8081	0.5283	0	-0.2402	3.1258	-1.5162	9.1295	60.8189	-7.2969	-7.6838	0.4948	-0.5213	-0.6553	11.644	-1.9131	-1.0898	17.4208	10.2407	-181.8375	-1.2251	0.9499	0.7134
-2.1646	-5.0316	20.5681	-70.1262	446.9104	55.5686	0.5464	0.012	-0.2342	-0.0141	-1.2252	7.7587	26.6854	-15.544	3.3518	0.5367	-0.4665	-0.6215	11.0858	-1.6231	-0.4582	19.7057	13.4266	-186.6679	-1.243	0.9363	0.6783
-8.5405	1.7179	25.246	-179.3386	469.8936	85.489	0.5584	0.018	-0.1981	2.8769	-1.8037	8.1735	-17.3304	-11.4573	-1.6243	0.6087	-0.4879	-0.6202	10.5232	-0.7028	0.0005	20.8518	10.6605	-180.9067	-1.2429	0.9695	0.6929
0.0606	-1.4658	22.8063	-78.6316	480.5786	131.5145	0.6064	0.018	-0.1861	2.3914	-3.2875	9.6453	-12.2678	-8.9387	-0.4588	0.5665	-0.5242	-0.6368	10.1651	0.672	-0.7016	28.9584	7.7764	-181.9228	-1.2435	0.9051	0.6454
-2.6826	-1.616	30.0196	-78.2567	482.0782	128.4915	0.6244	0.018	-0.1561	2.4869	-2.4883	8.758	2.5102	-9.3938	-3.0973	0.5085	-0.4849	-0.621	9.8838	1.1322	-0.4723	36.6301	7.3643	-184.31	-1.2774	0.8312	0.6889
-2.3131	-1.4268	37.3535	-77.1378	476.1227	125.6213	0.6664	0.006	-0.1381	2.1948	-2.3735	8.574	-13.0106	-7.8741	-2.325	0.5368	-0.4673	-0.6036	9.1395	1.5345	-0.6024	39.7342	5.832	-180.1883	-1.3122	0.7631	0.6775
3.8256	1.0315	36.2384	34.2563	458.2151	133.5229	0.6724	0.006	-0.1081	2.1593	-3.1726	9.5813	-23.4987	-7.1756	-1.8675	0.5509	-0.4662	-0.6392	8.9203	1.6512	-0.1397	40.7237	4.1694	-172.4487	-1.2763	0.7396	0.7349
19.1971	11.9709	6.4329	436.2086	330.5665	68.5454	0.7085	0.006	-0.0841	2.7238	-2.1448	9.1199	-16.0519	-7.6953	-3.3155	0.5374	-0.4872	-0.585	8.5736	1.6509	-0.38	37.629	5.9827	-159.3447	-1.2073	0.745	0.6811
48.77	-21.0034	-7.9011	767.5391	62.4355	27.806	0.7205	-0.024	-0.0961	2.733	-2.4874	9.5352	-5.9152	-7.4352	-3.9727	0.5237	-0.5237	-0.6193	8.4056	1.8239	-0.2077	32.3769	11.297	-140.6378	-1.2598	0.7121	0.6656
-3.7025	-15.3852	-6.7832	152.0121	-71.6969	26.0929	0.7025	-0.054	-0.0901	2.3783	-2.3157	9.1125	-7.7745	-6.3316	-3.3385	0.5226	-0.4838	-0.6566	8.6845	2.1666	-0.4925	31.747	16.0957	-118.8013	-1.2763	0.6889	0.7222
5.2787	-0.0266	3.4735	-29.4198	-101.4137	-153.792	0.6965	-0.054	-0.0961	2.3331	-2.5433	9.705	-7.2846	-6.223	-1.9768	0.4941	-0.4837	-0.6389	8.5662	2.6824	-0.668	38.6009	16.1284	-97.0993	-1.2585	0.6361	0.728
1.9925	-6.0446	8.8302	-66.2478	-81.242	-19.691	0.6965	-0.042	-0.0961	2.8461	-3.0603	9.3581	-7.1926	-6.6451	-4.1461	0.523	-0.503	-0.6558	9.1919	2.2795	-0.7736	43.8127	14.0284	-72.4985	-1.3113	0.6559	0.707
1.2674	-13.0058	6.3767	42.299	-98.5815	35.0454	0.7025	-0.036	-0.1081	2.7337	-2.7735	9.5346	-0.6271	-6.3246	-4.7158	0.523	-0.503	-0.6558	9.8586	2.6769	-1.6338	40.7376	10.4004	-45.7442	-1.2764	0.6557	0.7076
5.4292	1.4224	8.5019	-70.4731	-124.8998	17.4997	0.6724	-0.042	-0.1081	2.439	-2.6017	9.2319	-0.5373	-6.7193	-6.1125	0.5513	-0.4854	-0.6385	9.3439	2.1036	-1.7628	34.8694	4.6766	-17.0868	-1.3297	0.6618	0.6517
5.1168	-0.8731	10.0264	41.6112	-186.7627	24.6079	0.6664	-0.042	-0.1261	2.3239	-2.6587	9.2294	-0.1845	-7.2549	-4.3301	0.5225	-0.4669	-0.6038	9.4008	2.1609	-1.7615	30.3808	-1.0519	11.8771	-1.2591	0.64	0.6914
4.3191	-3.293	7.228	93.3041	-233.9138	21.218	0.6604	-0.012	-0.1081	2.723	-1.8014	9.1206	-0.0036	-8.0428	-7.4632	0.5651	-0.4659	-0.657	9.5611	1.757	-2.3431	24.5984	-6.7047	37.5665	-1.3114	0.6227	0.6924
3.7238	-3.3518	6.2119	92.5267	-260.9745	10.5861	0.6424	-0.054	-0.1261	1.6183	-1.8569	8.6226	5.8766	-7.4796	-4.6324	0.5387	-0.5617	-0.6355	8.6388	1.4124	-2.8878	15.4992	-10.3634	59.5234	-1.2589	0.6556	0.7078
3.4823	-4.7904	5.4947	95.6494	-281.6454	8.7133	0.6364	-0.036	-0.1261	2.2604	-2.2012	8.9915	-5.511	-7.077	-3.1934	0.4947	-0.5205	-0.6731	8.5766	1.0672	-3.182	6.4906	-10.2556	79.9501	-1.2598	0.6614	0.6529
2.8869	-4.7918	4.4786	67.219	-292.8275	-0.5742	0.6244	-0.048	-0.1441	2.3799	-2.4872	9.1715	3.4051	-6.5423	-5.7627	0.5365	-0.465	-0.6572	8.522	1.7563	-3.0056	0.8593	-8.7353	99.5769	-1.2599	0.6789	0.651
3.5431	-5.3077	5.6127	32.9793	-293.6078	-17.347	0.6244	-0.048	-0.1561	2.2555	-2.1444	8.7539	11.9068	-6.0164	-4.6267	0.5231	-0.5037	-0.6379	8.4097	1.3551	-2.9509	2.6508	-8.004	119.0307	-1.2771	0.6771	0.669
3.0364	-5.0753	6.2533	15.0176	-294.7127	-29.4833	0.5884	-0.048	-0.1681	1.9104	-2.4869	8.7461	-1.0647	-4.7582	-3.1135	0.5089	-0.5041	-0.6202	7.8556	0.4409	-2.2071	1.8153	-5.517	140.9563	-1.2937	0.689	0.7219
1.3719	-6.3941	6.454	-1.9659	-291.1851	-43.6898	0.5944	-0.048	-0.1621	2.7184	-2.8323	8.762	-1.5942	-2.0729	-4.3019	0.493	-0.4276	-0.6055	8.2068	0.5568	-1.733	-3.5266	-3.0249	164.6937	-1.2243	0.7081	0.7028
