1818_acc_x	1818_acc_y	1818_acc_z	1818_gyro_x	1818_gyro_y	1818_gyro_z	1818_mag_x	1818_mag_y	1818_mag_z	1819_acc_x	1819_acc_y	1819_acc_z	1819_gyro_x	1819_gyro_y	1819_gyro_z	1819_mag_x	1819_mag_y	1819_mag_z	1820_acc_x	1820_acc_y	1820_acc_z	1820_gyro_x	1820_gyro_y	1820_gyro_z	1820_mag_x	1820_mag_y	1820_mag_z
-0.5352	-0.5185	9.7398	1.9894	1.0492	0.1712	0.4623	-0.0841	-0.2462	1.9806	-2.2569	9.4014	-4.0884	0.4953	0.9592	0.2664	0.0499	-0.8757	9.2943	-2.6575	-1.7812	-17.1844	3.9375	-14.9881	-1.1501	0.9011	1.0096
-1.1663	-0.862	9.8448	1.2997	0.9239	-0.1178	0.4263	-0.2882	-0.1561	2.2644	-1.9145	9.2297	-2.951	0.3543	0.6807	-0.2761	0.0385	-0.6828	9.2448	-3.1151	-1.4339	-17.9924	4.0508	-11.4235	-1.197	0.7652	1.3131
-0.9431	-0.5183	9.4955	1.0505	0.5984	0.0084	0.4263	-0.2822	-0.1621	2.4952	-1.9723	9.2344	-4.3386	0.0146	-0.5014	-0.2906	0.0396	-0.7008	8.8993	-2.4839	-1.5552	-19.2246	4.8059	-5.8902	-1.1788	0.7437	1.3519
-0.7699	-0.6911	9.4985	0.0143	0.273	-0.3954	0.4263	-0.2942	-0.1681	2.1583	-2.2568	9.6426	-3.2842	0.4864	-0.1515	-0.2473	0.0199	-0.7175	8.7819	-2.4844	-1.7326	-21.1003	5.4969	0.8562	-1.2135	0.7419	1.3696
-0.5353	-0.461	9.74	-0.7966	-0.0604	-0.4691	0.4323	-0.2822	-0.1501	2.2729	-2.4861	9.5851	4.7568	1.3505	2.6885	-0.2473	0.0199	-0.7175	8.8925	-2.4852	-1.9053	-22.4061	6.188	7.1593	-1.1788	0.7944	1.3646
-1.1181	-0.5758	9.3738	-1.079	0.1642	-0.766	0.4023	-0.3002	-0.1681	2.3815	-2.1436	9.2911	0.4764	0.9997	1.2541	-0.2895	-0.0002	-0.6635	8.7389	-2.7113	-1.0343	-23.3971	7.4043	12.8853	-1.1611	0.7592	1.3686
-1.0557	-0.1152	9.6716	-1.714	-0.422	-1.0285	0.4143	-0.2882	-0.1561	2.6699	-2.2015	9.2969	3.0892	0.7117	0.7593	-0.2613	0.0181	-0.6641	9.4708	-2.4846	-1.4854	-24.8813	8.412	16.8582	-1.1442	0.7961	1.3468
-1.1623	-0.574	10.0819	-4.3961	-0.2788	-0.9014	0.4143	-0.2882	-0.1501	2.2159	-2.257	9.6438	1.8224	0.397	0.4118	-0.2764	0.04	-0.7185	9.2489	-2.8274	-1.1995	-26.135	9.272	18.7263	-1.1441	0.7786	1.3487
-0.8199	-1.2076	9.8507	-2.8933	-0.5262	-1.1529	0.4083	-0.2882	-0.1621	2.4968	-2.1439	9.2934	2.4074	0.4175	0.4749	-0.2615	0.0196	-0.6998	9.0746	-2.9425	-1.3784	-26.3457	10.5378	18.3659	-1.1605	0.7553	1.4052
-0.7047	-0.5178	9.9138	-3.4532	0.1114	-0.556	0.4263	-0.2882	-0.1321	2.6103	-1.9154	9.2369	3.0847	0.3763	0.2283	-0.2898	0.0182	-0.6464	9.5201	-2.6583	-1.8934	-26.0247	11.282	16.8397	-1.1611	0.7592	1.3686
-0.8867	-0.4611	9.4377	-2.3788	0.035	-0.7656	0.4143	-0.2822	-0.1441	2.0915	-2.4293	9.1657	0.9259	0.1074	-0.0891	-0.2331	0.0364	-0.6646	9.1434	-3.17	-0.7945	-25.8266	11.7545	13.7054	-1.1789	0.7612	1.35
-0.4201	-0.4037	9.7423	-2.346	0.2475	-0.8262	0.4263	-0.2822	-0.1621	2.4363	-2.4303	9.1134	1.6706	0.3721	-0.3302	-0.2321	-0.0189	-0.7159	9.3719	-3.3998	-0.7908	-25.4308	12.1983	9.8264	-1.1268	0.7628	1.3325
-0.8808	-0.6328	9.7328	-2.6141	0.7788	-0.7861	0.4143	-0.2942	-0.1741	2.6075	-2.2019	9.058	1.0539	0.2912	-0.4871	-0.2614	0.0189	-0.6819	9.4872	-2.7112	-0.6693	-23.8435	12.1467	5.6629	-1.1615	0.7611	1.3503
-1.0471	-1.1493	10.0237	-2.0266	0.6323	-0.6792	0.4203	-0.2942	-0.1561	2.7224	-2.0305	9.0607	1.5764	0.2214	-0.611	-0.2464	-0.0184	-0.716	9.5918	-3.2869	-1.1943	-23.2877	12.0352	1.7339	-1.1268	0.7628	1.3325
-0.9361	-0.69	9.8497	-1.2769	0.6023	-0.3621	0.4263	-0.2882	-0.1621	2.3195	-2.3156	9.0518	1.5501	0.4073	-0.8857	-0.2331	0.0364	-0.6646	9.7187	-2.7109	-0.4896	-23.3083	11.3972	-1.0274	-1.1966	0.7457	1.3332
-0.8236	-0.403	9.7345	-0.9324	0.7412	-0.2781	0.4203	-0.2762	-0.1501	2.2152	-2.4288	9.584	2.3148	0.0887	-1.2298	-0.2334	0.0549	-0.6475	9.4239	-3.1139	-1.022	-23.1056	10.5111	-3.5227	-1.1438	0.7766	1.367
-1.2807	-0.6892	9.9021	-0.9975	0.5909	-0.3079	0.4023	-0.3002	-0.1561	2.6651	-2.202	9.0592	2.8972	0.016	-0.9212	-0.2466	-0.0008	-0.681	9.9356	-2.8281	-1.069	-22.8295	9.623	-5.4648	-1.162	0.7981	1.3282
-0.9236	-0.7459	10.4998	-0.9699	0.4977	-0.3701	0.4083	-0.2882	-0.1501	2.3233	-1.9146	9.2903	2.5554	-0.2222	-1.2967	-0.2473	0.0361	-0.6468	9.5455	-2.8258	-0.6102	-22.238	8.6709	-6.9835	-1.1782	0.7398	1.3885
-0.8173	-0.7472	10.0292	-0.7496	0.6417	-0.3136	0.4143	-0.2882	-0.1441	2.0892	-2.4295	9.0469	2.7742	-0.0118	-1.1072	-0.2762	0.0392	-0.7007	9.7694	-2.9991	-0.8397	-21.38	7.6225	-7.5546	-1.1957	0.7906	1.4009
-1.2825	-0.3444	9.8438	-0.4697	0.8133	-0.35	0.4323	-0.2822	-0.1501	2.3192	-2.2012	9.0521	2.4026	-0.1583	-1.2649	-0.275	-0.0183	-0.6984	9.1445	-2.4238	-0.6751	-20.2387	6.6335	-7.6981	-1.1794	0.7475	1.3152
-1.1125	-0.5751	9.6693	-0.6634	0.7591	-0.6201	0.4143	-0.3002	-0.1681	2.3787	-1.9722	9.1726	2.4695	0.1471	-1.1358	-0.2473	0.0361	-0.6468	9.4893	-2.596	-0.5521	-18.9125	5.8284	-7.6243	-1.1616	0.7279	1.3357
-0.7626	-0.9777	9.8524	-0.4068	0.7804	-0.2907	0.4143	-0.2882	-0.1561	2.3827	-1.6856	9.4108	2.7746	-0.0114	-1.1999	-0.2623	0.058	-0.7013	9.1974	-2.7116	-0.9084	-17.7584	5.2065	-6.9253	-1.1792	0.7631	1.3317
-0.8244	-0.5756	9.675	-0.6235	0.9419	-0.4065	0.4263	-0.2942	-0.1441	2.1466	-1.8573	9.1086	2.3159	0.18	-1.0429	-0.2611	0.0004	-0.699	9.6584	-2.7688	-0.666	-16.879	4.5546	-6.2525	-1.1782	0.7398	1.3885
-1.3932	-0.9762	10.0174	-0.0363	0.9784	-0.4206	0.4083	-0.2942	-0.1501	2.5029	-2.2006	9.5904	1.6023	-0.0848	-0.8944	-0.2597	-0.0579	-0.6788	9.3733	-2.8257	-0.672	-16.1592	3.9657	-5.8522	-1.1958	0.7574	1.3863
-0.7075	-0.8631	9.7356	-0.5588	0.9701	-0.3164	0.4203	-0.2762	-0.1621	1.7502	-1.8556	9.4568	0.5256	-0.0961	-1.1435	-0.2612	0.0012	-0.7169	9.6065	-2.4235	-0.3742	-14.8337	3.5297	-5.552	-1.1617	0.7455	1.3338
-0.8808	-0.6328	9.7328	-0.6009	0.8482	-0.6516	0.4143	-0.2882	-0.1501	2.4964	-2.4874	9.2333	0.8381	0.2043	-0.8597	-0.2758	0.02	-0.6999	9.3684	-2.6545	-0.9048	-13.8808	3.0341	-5.5852	-1.1435	0.7747	1.3853
-0.4813	-0.289	9.5642	-0.6939	0.73	-0.589	0.4323	-0.2942	-0.1561	2.6235	-2.4293	9.83	0.8645	-0.0114	-0.7708	-0.2182	0.0161	-0.6459	9.6046	-2.6534	-0.4917	-13.4018	2.5422	-6.3487	-1.1793	0.7807	1.3298
-0.3594	-0.8635	9.8606	-0.8189	0.6435	-0.5865	0.4263	-0.2942	-0.1501	2.2652	-1.7427	9.2895	0.8661	0.0805	-0.7383	-0.29	0.0197	-0.6821	9.6582	-2.6541	-0.6656	-12.9845	1.5892	-7.4631	-1.1779	0.7379	1.4068
-1.1054	-0.8042	10.0234	-1.0574	0.8987	-0.4267	0.4263	-0.2882	-0.1381	2.6663	-2.2019	9.1186	1.1082	-0.1085	-0.5868	-0.2759	0.0208	-0.7177	9.4952	-2.7097	-0.2608	-11.8348	2.2999	-8.7914	-1.1785	0.7417	1.3702
-0.8122	-1.0916	10.2647	-0.7478	1.191	-0.5851	0.4263	-0.2822	-0.1621	2.2644	-2.3725	9.1694	0.7106	0.0213	-0.6161	-0.2606	-0.0188	-0.6982	9.5473	-2.4812	-0.4922	-10.7428	2.2413	-10.5104	-1.1784	0.7242	1.372
-0.826	-0.2883	9.6165	-0.676	1.2459	-1.3797	0.4263	-0.2942	-0.1621	2.1523	-2.2574	9.3455	0.4321	-0.0059	-0.3391	-0.2758	0.02	-0.6999	9.3276	-2.7662	-0.0893	-9.9162	2.0282	-11.9202	-1.1793	0.73	1.3171
-0.8768	-0.9774	9.9093	1.0162	0.9913	-1.4833	0.4143	-0.2942	-0.1621	2.3265	-2.2577	9.4085	0.3076	-0.0955	-0.4336	-0.2623	0.058	-0.7013	9.3776	-2.6528	-0.4379	-8.3793	2.6778	-13.7203	-1.1962	0.7262	1.3534
-1.2299	-0.6326	9.5487	0.9269	0.9955	-1.3591	0.4203	-0.3002	-0.1501	2.4363	-2.4303	9.1134	-0.6111	0.1957	-0.2447	-0.2473	0.0361	-0.6468	9.3743	-2.7682	-0.6134	-6.7174	2.5838	-14.5269	-1.1608	0.7065	1.3742
-0.7052	-0.8629	9.8538	1.5526	0.635	-0.8578	0.4143	-0.2942	-0.1561	2.1491	-1.9143	9.2274	-0.2453	-0.0248	-0.4024	-0.2319	-0.0204	-0.6802	9.1437	-2.6535	-0.7343	-4.9794	2.5181	-14.6252	-1.2133	0.7068	1.3733
-0.9385	-0.5752	9.7318	1.6257	0.6642	-0.4628	0.3963	-0.2822	-0.1501	2.2618	-2.3155	9.0507	-0.0308	-0.0295	-0.155	-0.2466	-0.0008	-0.681	9.6587	-2.2523	-0.6058	-3.8393	2.9749	-13.8026	-1.2308	0.7245	1.3712
-1.2924	-0.4606	9.3116	0.3706	0.8097	-0.1264	0.4263	-0.2942	-0.1381	2.2048	-1.5711	9.1698	-0.2751	0.0669	-0.1846	-0.2458	-0.0391	-0.6795	9.724	-2.423	-0.1968	-2.2083	2.6872	-11.9938	-1.2132	0.6893	1.3752
-0.6549	-0.5188	9.5011	0.9274	0.5731	0.0418	0.4263	-0.2822	-0.1501	2.6545	-1.7451	8.5848	-0.5503	0.1937	-0.0284	-0.2324	-0.0004	-0.6988	9.4924	-2.4233	-0.3764	-0.2978	2.7057	-9.7503	-1.1602	0.7027	1.4108
-0.8848	-0.2883	9.5563	0.4393	0.6249	0.237	0.4083	-0.3002	-0.1441	2.2631	-1.8574	9.1704	-0.7038	0.2268	0.0337	-0.2471	0.0184	-0.6818	9.134	-2.2536	-1.1997	0.4416	2.2628	-6.9725	-1.1435	0.724	1.3726
-0.7697	-0.8061	9.4982	0.7493	0.3071	0.4716	0.4143	-0.2702	-0.1441	2.2577	-2.0869	8.8729	-1.0426	0.2623	0.2499	-0.2606	-0.0188	-0.6982	9.7178	-2.1373	-0.4875	1.2323	1.606	-4.7876	-1.1608	0.7065	1.3742
-0.5323	-0.2306	9.9178	1.3432	0.5884	0.5503	0.4143	-0.2762	-0.1561	2.266	-2.0861	9.2888	-1.2274	0.2652	0.3114	-0.2616	0.0204	-0.7176	9.8905	-2.4241	-0.4268	1.1617	2.1258	-3.4766	-1.2301	0.7031	1.4097
-1.1611	-0.6314	10.1409	1.7	0.5151	1.2124	0.4083	-0.3062	-0.1681	2.3737	-1.8582	8.9351	-1.3198	0.2967	0.4972	-0.3038	0.0002	-0.6636	9.3696	-2.6543	-0.8464	1.1114	1.3554	-3.5284	-1.1782	0.6891	1.3758
-1.0969	-1.1482	10.4363	2.7384	0.8712	1.6773	0.4083	-0.3062	-0.1621	2.4968	-2.1439	9.2934	-1.4776	0.0847	0.4313	-0.2474	0.0369	-0.6647	9.6469	-2.7709	-1.2496	0.1013	2.1367	-5.8904	-1.1782	0.6891	1.3758
-0.7119	-0.9212	9.4991	3.817	0.7038	1.6806	0.4023	-0.3062	-0.1501	2.2713	-2.3146	9.526	-1.4454	0.1458	0.3707	-0.2759	0.0369	-0.6471	9.5937	-2.2537	-1.0154	1.0284	1.07	-10.2551	-1.2308	0.7245	1.3712
-1.0019	-1.1509	9.3747	3.1125	0.8866	1.7903	0.4083	-0.2762	-0.1621	2.032	-2.1431	9.1057	-1.1329	0.4163	0.4996	-0.2603	-0.0372	-0.7153	9.6522	-2.483	-0.9568	0.0084	1.7699	-15.8869	-1.2308	0.7245	1.3712
-1.1165	-0.8631	9.4322	2.0687	0.9921	1.9688	0.4143	-0.2942	-0.1621	2.1509	-2.1431	9.2863	-1.0399	0.4754	0.6553	-0.2326	0.0172	-0.6638	9.4742	-2.4266	-1.3101	0.2449	0.9587	-22.3272	-1.1784	0.7242	1.372
-1.0541	-0.4026	9.73	3.0645	0.9166	1.151	0.4263	-0.2882	-0.1621	2.2659	-3.002	9.1681	-0.947	0.5346	0.8109	-0.2605	-0.0195	-0.6804	9.6033	-2.5388	-0.5496	0.284	1.2574	-28.6395	-1.1778	0.7203	1.4087
-0.8736	-0.862	10.0869	2.067	1.0483	0.7489	0.3963	-0.2882	-0.1501	2.2718	-2.0283	9.586	-0.3328	0.4926	0.9965	-0.2462	-0.0199	-0.6803	9.7678	-2.7125	-0.897	0.5073	1.1202	-33.8275	-1.1787	0.7261	1.3537
-1.1115	-1.15	9.6679	1.2941	1.477	0.4651	0.4143	-0.2822	-0.1501	2.6035	-2.0305	8.8801	1.1488	0.7428	1.2198	-0.2487	0.0783	-0.7377	9.5909	-2.6559	-1.192	-0.76	2.1856	-37.9648	-1.2134	0.6737	1.3587
-0.7086	-0.8633	9.6765	1.0872	1.9354	-1.7236	0.4083	-0.2882	-0.1501	2.3795	-1.8004	9.2323	-0.6359	0.6833	0.6906	-0.2469	0.0177	-0.6639	9.653	-2.2534	-0.8976	-1.1593	1.3612	-40.0461	-1.1947	0.6151	1.4196
-1.0499	-0.8621	9.9062	3.6733	1.6034	-4.1069	0.4263	-0.2762	-0.1381	2.0844	-2.43	8.8092	-0.9853	0.1062	0.6179	-0.262	0.0557	-0.6477	9.597	-2.1957	-0.8402	-1.4031	2.1661	-40.8508	-1.1604	0.6363	1.3817
-0.8816	-0.8055	9.6733	4.944	1.5464	-5.0532	0.4023	-0.3002	-0.1621	2.6707	-2.5449	9.2962	-2.5061	-0.6034	0.2937	-0.2619	0.0388	-0.7005	9.6568	-1.7936	-0.6625	-0.8344	2.8076	-39.518	-1.1779	0.6871	1.3941
-0.7029	-0.9201	9.9719	3.225	1.7417	-4.7663	0.4143	-0.3002	-0.1621	2.6767	-2.0864	9.6536	-2.9472	-1.0881	0.5314	-0.2616	0.0204	-0.7176	9.7039	-2.025	-1.1874	-1.8322	3.3838	-35.9359	-1.1784	0.6735	1.3593
-0.877	-0.8624	9.9096	5.4735	1.8088	-2.8072	0.4323	-0.2882	-0.1621	2.5467	-2.3738	8.8782	-3.9954	-1.2825	-0.0916	-0.2175	-0.0216	-0.6622	9.5883	-1.7382	-1.247	-3.4437	2.2611	-30.9411	-1.2131	0.6717	1.3771
-0.8297	-0.7488	9.379	4.6707	1.9995	-1.7799	0.4323	-0.2942	-0.1441	2.5484	-2.0874	8.9976	-2.4875	-1.3983	-0.5543	-0.2464	-0.0184	-0.716	9.7055	-1.5657	-1.069	-3.824	1.7488	-25.0287	-1.1791	0.6949	1.3208
-0.5843	-0.8624	10.1516	2.7042	2.7542	-1.8498	0.4323	-0.3002	-0.1681	1.9161	-2.3719	9.0434	-0.9452	-1.3604	-1.1995	-0.2752	-0.0007	-0.6634	9.9262	-1.9117	-1.4742	-5.1658	1.4519	-18.2897	-1.1959	0.6736	1.359
-0.9387	-0.4603	9.7321	10.1707	2.4814	0.194	0.4443	-0.2942	-0.1561	2.3813	-2.0864	9.2912	-1.8437	-1.6223	-0.9896	-0.2758	0.0362	-0.6292	9.3629	-1.2784	-1.0748	-6.6241	1.3745	-12.5287	-1.1956	0.6209	1.3646
-0.5404	-0.7491	9.4437	6.4506	2.8222	0.6525	0.4263	-0.2882	-0.1561	2.4385	-2.3728	9.2324	-1.412	-1.5987	-1.0502	-0.2331	0.0364	-0.6646	9.7074	-1.2785	-0.9513	-8.0022	1.1802	-8.7458	-1.1786	0.6071	1.3301
-1.0565	-0.2879	9.6121	7.3865	2.3574	1.2677	0.4323	-0.2882	-0.1561	2.2702	-2.3147	9.4666	-0.493	-1.7394	-0.526	-0.262	0.0396	-0.7184	9.5783	-1.2236	-1.712	-8.8161	1.5451	-6.6538	-1.2132	0.6893	1.3752
-1.3415	-0.1719	9.784	6.4589	2.0299	1.4409	0.4143	-0.2762	-0.1501	2.0956	-2.1427	9.404	-1.3445	-1.2026	-0.6106	-0.2322	-0.0019	-0.6631	9.4729	-1.6236	-1.3072	-10.3453	1.6986	-5.3241	-1.1767	0.6287	1.4547
-1.0572	-0.518	9.5524	4.3663	2.2404	1.6151	0.4203	-0.2882	-0.1321	2.3774	-1.9151	9.1133	-1.3457	-1.204	-0.2709	-0.2755	0.0016	-0.717	9.0157	-1.7378	-1.3751	-12.7502	2.4774	-5.9011	-1.2305	0.6211	1.364
-0.2405	-0.4032	10.1003	2.0927	2.1188	1.029	0.4083	-0.2942	-0.1561	2.2026	-2.1438	8.9904	-1.4369	-1.1111	-0.115	-0.2897	0.0013	-0.6992	9.5248	-1.2803	-1.5383	-13.0769	2.3324	-8.3649	-1.1605	0.6539	1.3798
-0.9426	-0.1732	9.5555	1.5691	1.6528	1.3746	0.4143	-0.2942	-0.1501	2.4398	-2.4299	9.2917	-2.0484	-0.8859	-0.0811	-0.2603	-0.021	-0.6447	9.6434	-1.9682	-1.3634	-14.4052	2.2553	-11.9164	-1.2127	0.6522	1.3972
0.3393	-0.4613	10.2887	1.8299	0.3932	2.6423	0.4323	-0.2822	-0.1501	2.3178	-2.0868	8.9929	-2.1369	-0.6998	-0.1706	-0.2456	-0.0568	-0.7144	9.7071	-1.8523	-1.0117	-14.9446	2.5813	-16.7671	-1.1954	0.6365	1.3811
-0.8819	-0.633	9.6737	-0.5165	1.1531	-0.0113	0.4323	-0.3062	-0.1621	2.495	-2.373	9.1741	-1.7913	-0.2772	0.1464	-0.2756	0.0185	-0.6642	9.9275	-1.2803	-1.3552	-15.0664	1.6728	-21.5382	-1.2126	0.6347	1.3991
-0.9445	-0.346	9.4368	-1.987	1.3383	0.3306	0.4263	-0.3002	-0.1501	2.2672	-2.086	9.3482	-1.9685	0.0648	-0.1258	-0.2613	0.0181	-0.6641	9.3615	-1.8524	-1.1936	-16.8103	2.281	-26.8503	-1.1776	0.5838	1.387
-0.8772	-0.7474	9.9098	-0.5787	1.0688	1.149	0.4323	-0.2882	-0.1561	2.4434	-2.4296	9.4699	-1.1409	-0.1933	-0.4996	-0.2616	0.0204	-0.7176	9.7006	-1.3371	-1.3016	-17.8526	1.8724	-32.8839	-1.1952	0.6014	1.3848
-0.6521	-0.2309	9.6792	0.0107	1.1361	1.196	0.4143	-0.2942	-0.1381	2.0335	-2.2575	9.1649	0.9001	0.6239	1.279	-0.2329	0.0188	-0.6995	9.4746	-1.2216	-1.1891	-17.9979	1.3059	-38.4777	-1.1772	0.615	1.4199
-1.0572	-0.518	9.5524	1.3656	1.0179	1.1014	0.4323	-0.3002	-0.1621	2.1554	-2.5433	9.4638	2.0176	1.3966	2.8081	-0.2453	-0.0591	-0.6609	9.6572	-1.2771	-0.6023	-18.5036	2.5587	-43.9201	-1.1777	0.6013	1.3851
-0.3655	-0.6342	9.5656	0.6662	1.1098	1.4545	0.4203	-0.3002	-0.1441	2.3836	-2.5441	9.3497	2.1808	2.0651	3.7777	-0.2754	0.0009	-0.6991	9.8743	-0.8205	-1.1212	-18.2952	3.4342	-47.6917	-1.1954	0.5858	1.3683
-0.6476	-0.2304	9.9156	-1.0832	0.9967	0.8252	0.4263	-0.3002	-0.1501	2.7219	-1.8588	9.0611	3.8401	1.914	3.8088	-0.2476	0.0384	-0.7004	10.0511	-0.8197	-0.826	-18.0682	4.6143	-50.4068	-1.2119	0.5801	1.423
-0.8301	-0.5188	9.3796	-0.5251	1.0348	0.8729	0.4083	-0.2942	-0.1441	2.7838	-2.1447	9.24	3.0757	2.0228	2.9446	-0.2476	0.0384	-0.7004	9.6463	-0.8775	-1.126	-17.8354	5.6351	-51.5849	-1.2116	0.5782	1.4413
-0.6377	-0.7467	10.3872	-2.5553	2.3151	1.5398	0.4083	-0.2882	-0.1441	2.2752	-2.4287	9.7041	2.7349	1.8759	2.7561	-0.2184	0.0176	-0.6816	9.1408	-0.7605	-0.7274	-17.5887	6.3154	-52.3721	-1.2304	0.5528	1.3532
-0.5222	-0.8619	10.3891	0.2956	3.0213	1.4135	0.4203	-0.2822	-0.1501	2.3804	-2.201	9.2315	1.9335	1.7379	2.3199	-0.2334	0.0549	-0.6475	9.8856	-0.761	-0.5375	-17.0681	6.7752	-51.9685	-1.1953	0.5683	1.3702
-0.9907	-0.4595	10.0265	2.4315	3.6392	2.3108	0.4203	-0.2942	-0.1621	2.0271	-2.0864	8.8681	-0.2234	1.6813	2.5931	-0.2329	0.0357	-0.6467	9.832	-0.7029	-0.3633	-15.8926	5.3149	-49.5053	-1.2467	0.5452	1.4262
-0.4733	-0.403	9.9776	3.9337	3.9409	1.6964	0.4143	-0.2942	-0.1561	2.4908	-2.1445	8.9963	1.2356	2.5418	3.7846	-0.2761	0.0385	-0.6828	10.1024	-0.8208	-1.1167	-15.3728	3.7877	-44.9959	-1.143	0.5855	1.3692
-0.8853	-0.6334	9.4964	3.5928	4.26	1.4625	0.4203	-0.2882	-0.1381	2.596	-2.3747	8.4635	2.3201	2.8622	3.5142	-0.2329	0.0357	-0.6467	9.7087	-0.6471	-0.8323	-15.5311	2.7507	-39.0716	-1.1959	0.5721	1.3336
-0.8254	-0.6332	9.6157	4.3257	3.9277	2.4799	0.4083	-0.3062	-0.1561	2.329	-2.3147	9.5272	0.5104	3.2001	3.4862	-0.2758	0.02	-0.6999	9.261	-0.3005	-0.3733	-14.0621	1.1236	-33.1044	-1.2124	0.4981	1.3774
-0.6576	-0.2891	9.3835	1.3297	4.9984	1.8573	0.4203	-0.2942	-0.1561	2.4915	-1.9154	9.0562	2.3294	3.5033	4.3287	-0.2483	0.076	-0.6841	9.3105	-0.5889	-0.7817	-12.5232	-0.285	-27.965	-1.2474	0.5666	1.3877
-0.89	0.1136	9.3209	-5.6757	5.897	0.477	0.4143	-0.2822	-0.1561	2.265	-2.1435	9.2293	2.646	4.2286	5.7629	-0.2334	0.0387	-0.7182	9.9406	-0.1877	-0.5926	-11.6776	-1.4378	-25.0244	-1.195	0.5663	1.3885
-0.5257	-0.1723	10.2726	-9.6695	6.8858	-0.4268	0.4383	-0.3062	-0.1441	1.9106	-2.0862	8.8063	0.5252	4.5679	6.661	-0.2613	0.0019	-0.7347	10.0605	0.5018	-0.2377	-10.4351	-2.8592	-25.0281	-1.1958	0.5546	1.3354
-1.2199	-0.5739	10.0808	-12.6999	9.2784	0.2707	0.4143	-0.2882	-0.1501	1.982	-1.856	9.521	-3.1871	5.2449	6.7284	-0.2628	0.0772	-0.7021	9.941	0.3288	-0.5324	-9.4502	-5.0729	-27.5774	-1.2299	0.5158	1.3752
-0.9205	-1.2056	10.6169	-13.4756	12.1519	-0.487	0.4263	-0.2882	-0.1621	2.2686	-1.6852	9.4679	-2.8922	4.5945	6.8717	-0.2617	0.0373	-0.6648	10.4628	-0.0147	-0.1149	-8.0724	-6.9133	-31.4188	-1.2482	0.5041	1.3218
-0.6311	-2.5286	10.5602	-10.2051	10.7569	5.8318	0.3963	-0.2822	-0.1441	2.2099	-2.2003	9.3468	0.7795	4.9333	6.3591	-0.2619	0.0388	-0.7005	10.6871	0.2711	-0.2843	-4.5932	-9.5581	-36.0036	-1.2121	0.4962	1.3957
-0.0388	-0.3352	14.6538	16.3897	18.5905	1.9048	0.4263	-0.2822	-0.1441	2.2655	-2.3724	9.2288	-1.5298	4.8211	5.8898	-0.2599	-0.0402	-0.6439	10.4517	-0.2463	-0.6992	-0.1947	-11.9906	-40.2617	-1.2465	0.5101	1.4299
-1.9373	-2.2291	14.6121	22.3246	46.6059	10.7383	0.4383	-0.2882	-0.1501	2.038	-2.1426	9.4028	0.5025	4.8779	6.0487	-0.2614	0.0189	-0.6819	10.2878	-0.4168	-0.3532	4.0588	-14.2086	-44.0175	-1.1949	0.498	1.3777
-2.041	-2.8672	12.1271	53.7856	56.5961	23.0275	0.4263	-0.2822	-0.1561	2.1499	-2.7156	9.1663	0.7211	4.9981	5.8042	-0.2471	0.0184	-0.6818	9.4896	-0.5877	-0.3698	9.3402	-15.3558	-46.0676	-1.2289	0.4417	1.4193
-2.358	-3.8982	13.5363	52.8317	66.2957	29.6054	0.4203	-0.2882	-0.1381	2.1526	-1.8567	9.4057	-0.3888	4.9245	5.8936	-0.2903	0.0212	-0.7179	9.1496	-0.5294	-0.2597	16.9211	-15.6493	-46.9984	-1.1772	0.4628	1.3817
-4.7196	-5.2164	13.428	51.1151	81.837	50.974	0.4203	-0.3002	-0.1561	1.8637	-2.085	9.3399	2.1306	4.5767	5.3976	-0.2472	0.0192	-0.6997	8.9798	0.1023	-0.1442	24.4741	-14.8097	-45.6146	-1.2113	0.4241	1.4215
-4.9751	-7.6344	11.881	22.2123	94.6158	76.3175	0.4263	-0.3062	-0.1501	2.0922	-2.2003	9.2256	3.6158	4.8911	4.9425	-0.2755	0.0016	-0.717	8.3479	0.0451	-0.3904	31.2756	-12.0982	-41.0175	-1.1934	0.4377	1.4566
-4.8959	-7.7468	13.0048	-11.3823	109.3715	96.174	0.4443	-0.3122	-0.1441	2.2667	-2.3723	9.2882	3.0237	4.4723	4.7178	-0.2613	0.0181	-0.6641	7.7805	-0.3551	-0.2865	37.1711	-7.6774	-30.6497	-1.2288	0.4749	1.4339
-4.0155	-7.8614	13.8488	-32.2523	117.1423	115.6829	0.4563	-0.3062	-0.1441	2.2672	-2.086	9.3482	4.9292	4.257	4.4084	-0.2623	0.058	-0.7013	7.0909	-0.6419	-0.5931	40.3785	-2.8113	-13.2181	-1.2116	0.4767	1.4159
-3.0171	-4.468	15.1764	-38.95	123.5454	117.6534	0.4443	-0.3062	-0.1321	1.9122	-2.2578	8.8654	6.0374	4.2085	4.1624	-0.2337	0.0571	-0.7011	7.0811	-0.242	-1.0585	39.9222	3.2191	9.0342	-1.2289	0.4417	1.4193
-0.7781	-4.6456	14.747	5.0296	115.5876	116.232	0.4503	-0.3002	-0.1561	1.912	-2.1433	8.8656	5.0867	4.4086	4.2261	-0.2476	0.0384	-0.7004	6.8547	-0.5856	-1.0059	39.1285	8.9736	31.005	-1.1942	0.4766	1.4162
0.3954	-3.725	15.9537	8.145	101.644	103.1938	0.4503	-0.2942	-0.1681	1.9184	-1.8565	9.2227	4.4394	4.2682	3.7283	-0.2464	-0.0184	-0.716	7.8777	-0.5305	-1.1602	36.4188	13.8399	52.6161	-1.1761	0.422	1.4404
0.2211	-2.9772	15.9522	67.2889	80.1639	105.5684	0.4683	-0.2942	-0.1561	1.7485	-2.142	9.3374	4.5953	4.2381	2.9868	-0.2325	0.0003	-0.7166	8.6729	-0.6471	-1.3197	38.0085	16.2874	75.2095	-1.1771	0.496	1.3963
12.6349	-3.4711	11.2891	151.1109	59.0031	79.7816	0.4803	-0.3122	-0.1561	2.1512	-2.2575	9.2861	4.4361	3.9343	2.8576	-0.2617	0.0211	-0.7355	9.4681	-0.7637	-1.4792	37.3406	16.16	104.2717	-1.194	0.4923	1.4326
17.7822	-6.2528	6.0062	132.6194	50.5366	-2.5078	0.4563	-0.3062	-0.1561	2.3261	-2.086	9.4088	1.0085	3.3485	2.7176	-0.2483	0.076	-0.6841	10.3693	-0.8246	-2.0447	35.5819	13.0276	138.47	-1.212	0.4787	1.3976
12.0557	-4.635	4.9532	77.2327	60.4016	-106.5293	0.4683	-0.3182	-0.1501	2.146	-2.0863	9.0487	0.0743	2.8413	2.9849	-0.2182	0.0161	-0.6459	11.0584	-1.6281	-1.8588	39.1287	4.8288	171.7642	-1.2124	0.4981	1.3774
9.8731	-9.8129	1.7666	27.3836	47.2264	-143.0099	0.4743	-0.3362	-0.1441	2.215	-2.3715	9.5841	-4.0586	2.3907	2.7535	-0.219	0.0375	-0.7002	11	-2.948	-2.0398	33.6246	-4.5821	196.331	-1.2295	0.547	1.4081
8.1437	-11.4776	1.5515	-78.5025	54.7239	-161.0584	0.4923	-0.3482	-0.1501	2.3255	-1.8571	9.4093	-2.4981	1.9332	2.9951	-0.2332	0.0372	-0.6825	10.8845	-3.5219	-2.1609	18.868	-11.8569	206.8246	-1.1941	0.5605	1.4435
7.0377	-7.3868	4.376	-138.4575	42.7551	-148.2111	0.4983	-0.3302	-0.1501	1.9819	-2.314	9.4607	-5.1481	1.6143	1.9656	-0.2469	0.0177	-0.6639	9.9241	-4.9532	-1.8353	9.7732	-19.5144	198.5676	-1.2123	0.6503	1.4156
6.9504	-5.4279	6.0334	-140.4333	26.3344	-123.4458	0.5103	-0.3362	-0.1621	1.866	-2.5428	9.3984	-4.5364	1.2394	1.0643	-0.2325	0.0003	-0.7166	9.127	-6.5584	-1.9155	4.3139	-20.6643	168.8688	-1.1601	0.6851	1.4127
6.505	-4.7926	6.9125	-138.1464	4.4272	-95.3972	0.5163	-0.3182	-0.1441	2.0989	-2.5431	9.522	-1.9562	0.7094	-0.1452	-0.247	0.0015	-0.7346	8.8386	-6.6733	-2.0967	1.1213	-19.255	119.264	-1.1604	0.687	1.3944
7.2654	-3.4699	7.6395	-136.5647	-20.5551	-70.8817	0.5343	-0.3062	-0.1621	2.0356	-2.658	9.2235	-0.2979	0.4369	-0.456	-0.2335	0.0395	-0.736	8.9021	-7.1886	-1.8057	0.5589	-13.3912	63.3716	-1.1954	0.6872	1.3938
6.1765	-2.4896	8.0343	-130.7241	-46.0055	-49.6711	0.5404	-0.3062	-0.1621	1.9782	-2.2571	9.2825	-2.6167	-0.2566	-1.3681	-0.2476	0.0384	-0.7004	8.8932	-6.6164	-2.2121	-0.1808	-9.0277	13.5858	-1.1261	0.7414	1.371
6.5351	-1.511	8.8117	-138.4518	-69.3122	-38.821	0.5283	-0.3122	-0.1561	2.1995	-1.8579	8.8721	0.7436	-0.0968	-1.8535	-0.2329	0.0188	-0.6995	8.7802	-5.8127	-2.0948	-1.2501	-5.3924	-21.2455	-1.1256	0.7044	1.3931
6.8476	-0.6459	10.1788	-109.2354	-88.3905	-30.0641	0.5283	-0.3062	-0.1501	2.378	-1.686	9.1732	-1.9697	-0.4768	-2.6989	-0.2764	0.04	-0.7185	8.7344	-4.9499	-1.4509	-3.0944	-2.0554	-40.2592	-1.2312	0.744	1.351
6.0464	-0.7013	10.4585	-90.3027	-103.8241	-27.7461	0.5404	-0.3182	-0.1741	2.2119	-2.5436	9.4055	-2.131	-0.933	-3.078	-0.2332	0.0372	-0.6825	8.4995	-4.2622	-1.7447	-5.3247	-0.6419	-46.31	-1.1603	0.6695	1.3962
5.5234	-0.1834	10.2723	-76.7443	-116.6583	-28.0275	0.5644	-0.3122	-0.1741	1.8608	-2.3715	9.1611	-1.3322	-1.0682	-3.3569	-0.219	0.0544	-0.6474	8.0954	-4.0903	-1.9855	-9.0714	1.4795	-41.7653	-1.1772	0.6657	1.4326
4.8221	-0.3558	9.7265	-70.8884	-127.3118	-29.9392	0.5764	-0.3002	-0.1801	2.2646	-1.9718	9.2296	-2.5743	-1.7205	-3.834	-0.2754	0.0009	-0.6991	7.8106	-3.5734	-1.931	-14.0269	2.1378	-32.1821	-1.1779	0.7379	1.4068
3.5718	-0.1789	10.6479	-70.2374	-135.61	-32.6563	0.5644	-0.3002	-0.1981	2.6066	-2.3164	8.9984	-2.5194	-2.2395	-4.7388	-0.2325	0.0003	-0.7166	8.2126	-3.1719	-1.7465	-17.4992	3.7431	-21.0914	-1.1958	0.7067	1.3736
2.7325	-0.4043	11.9308	-63.0093	-138.8078	-37.5474	0.5524	-0.3002	-0.2161	2.3813	-2.0864	9.2912	-2.0004	-2.5533	-5.2068	-0.218	-0.0016	-0.6808	7.7615	-3.5145	-1.5234	-19.5186	5.5571	-9.0072	-1.1598	0.6832	1.431
1.3499	-0.7467	11.903	-46.769	-140.0544	-41.7618	0.5704	-0.3182	-0.2342	2.3273	-2.0859	9.4683	-2.6137	-2.6303	-6.2902	-0.2171	-0.04	-0.6793	8.2145	-3.6306	-1.6898	-24.2535	6.8243	2.7141	-1.1773	0.6326	1.418
0.6055	-0.2848	12.185	-35.0468	-139.98	-45.8891	0.5644	-0.2942	-0.2582	2.2161	-1.8562	9.704	-1.0823	-3.1452	-6.8527	-0.2767	0.0584	-0.7014	8.2138	-3.9176	-1.7492	-33.2642	9.3021	15.1402	-1.1425	0.6499	1.4167
0.2067	-0.3985	12.4133	-29.9644	-139.2669	-51.4065	0.5764	-0.2882	-0.2882	2.0356	-2.1428	9.2839	0.7036	-3.2646	-7.5929	-0.2475	0.0376	-0.6826	7.7604	-3.5721	-1.582	-38.4073	9.6232	24.3136	-1.1771	0.6482	1.4345
-0.5341	-0.0511	12.8723	-33.3755	-138.3259	-58.0578	0.5584	-0.2822	-0.3182	2.1553	-2.4861	9.4639	-1.6396	-3.3798	-7.2284	-0.2614	0.0189	-0.6819	7.8059	-3.5169	-2.1642	-41.798	12.9752	29.285	-1.1411	0.6754	1.5046
-1.0347	0.5272	13.8684	-30.7378	-141.0299	-63.8706	0.5404	-0.2702	-0.3362	2.4991	-2.6016	9.3519	-3.0304	-3.6933	-7.36	-0.219	0.0375	-0.7002	8.3732	-3.7478	-2.3287	-43.7553	15.4104	30.8113	-1.1427	0.685	1.413
-2.059	0.1281	14.4974	-22.0836	-147.6477	-67.5953	0.5163	-0.2582	-0.3602	2.1542	-2.0283	9.4648	-3.9167	-3.4008	-7.6034	-0.2619	0.0388	-0.7005	8.1977	-4.6091	-2.627	-45.9775	18.4123	29.0306	-1.1954	0.6872	1.3938
-3.0434	0.1868	14.242	-16.5275	-153.1122	-67.8228	0.4983	-0.2462	-0.3963	2.4416	-2.2008	9.411	-3.6491	-3.8665	-7.4568	-0.2335	0.0395	-0.736	8.3171	-4.3788	-2.3321	-46.2707	21.0533	23.1327	-1.1597	0.6656	1.4329
-4.6583	-1.0181	14.0303	-12.2262	-157.288	-65.024	0.4863	-0.2402	-0.3963	2.3808	-2.3727	9.2312	-6.262	-5.4154	-8.1993	-0.2481	0.0583	-0.7191	8.2025	-4.7803	-2.3942	-47.8145	22.9732	12.6157	-1.2121	0.6659	1.432
-6.04	0.0196	14.1832	-18.5654	-156.2782	-62.455	0.4623	-0.2462	-0.3903	2.6162	-2.3727	9.4736	-5.7621	-6.6219	-8.0655	-0.2046	0.0371	-0.7001	8.4938	-5.0092	-2.0976	-55.164	25.2776	2.0709	-1.1593	0.6462	1.4531
-8.2107	-1.1314	12.0111	-12.6646	-153.8017	-54.9909	0.4023	-0.2281	-0.3843	2.1518	-2.5437	9.2855	-8.7829	-8.5332	-8.599	-0.2606	-0.0188	-0.6982	9.4168	-5.1235	-1.5545	-65.4888	24.6394	-11.181	-1.194	0.662	1.469
-10.9572	-0.9515	13.0214	-33.7963	-145.0225	-46.7719	0.3843	-0.2342	-0.3963	2.1546	-2.7151	9.404	-6.7925	-9.2093	-9.1945	-0.2484	0.0767	-0.702	9.3637	-4.721	-1.3207	-72.9841	22.5808	-25.826	-1.1613	0.726	1.354
-11.8224	1.3502	13.1875	-33.3975	-123.373	-37.6296	0.3482	-0.2161	-0.3843	2.382	-2.3725	9.2906	-5.2298	-9.6042	-9.2297	-0.2618	0.038	-0.6827	9.1341	-4.5488	-1.383	-73.9844	16.8424	-41.9714	-1.1429	0.6694	1.3965
-11.97	3.7042	11.7133	-12.3088	-97.3449	-32.7161	0.3422	-0.2221	-0.3843	2.2168	-2.1424	9.7034	3.929	-10.5545	-10.1263	-0.2604	-0.0203	-0.6625	9.4273	-4.5478	-0.9688	-69.2121	12.9033	-56.7021	-1.1599	0.65	1.4164
-11.9951	3.9311	10.4135	0.4753	-79.0677	-32.9218	0.3362	-0.2101	-0.3843	2.7846	-1.9729	9.2997	5.9096	-11.3317	-8.5925	-0.2461	-0.0207	-0.6624	9.3707	-4.0886	-0.91	-63.5614	7.3497	-68.7225	-1.1772	0.615	1.4199
-11.9078	3.8699	8.938	10.0599	-65.4949	-34.2358	0.3122	-0.2101	-0.3782	2.3219	-1.8575	9.231	10.1428	-12.2298	-9.2807	-0.2477	0.0553	-0.6476	9.3768	-4.317	-0.619	-54.1449	3.1734	-80.6254	-1.2472	0.5822	1.4041
-12.4323	2.72	8.5114	7.6686	-49.4107	-29.9066	0.3122	-0.2342	-0.3782	2.1465	-1.8	9.1087	9.5291	-13.8743	-9.9905	-0.2755	0.0016	-0.717	9.4361	-3.5707	-0.4401	-43.5257	1.2633	-88.9726	-1.1593	0.5954	1.4404
-13.3511	1.5144	8.5496	5.4356	-32.1246	-21.6699	0.3002	-0.2221	-0.3782	2.6794	-2.2006	9.7722	1.3682	-15.3697	-8.3327	-0.2181	-0.0009	-0.6987	8.8072	-2.5945	-0.4491	-33.0026	1.9238	-91.539	-1.2115	0.5606	1.4432
-13.2317	0.4221	8.6675	12.1691	-15.7422	-8.1349	0.2642	-0.2221	-0.3542	2.5629	-3.1736	9.5896	10.8724	-18.7607	-7.0795	-0.2754	0.017	-0.6284	8.2974	-2.6505	-0.2846	-25.8881	3.746	-88.6992	-1.2133	0.6054	1.3479
-13.013	-0.4998	7.9605	13.4026	0.6903	6.481	0.3002	-0.2281	-0.3662	3.8924	-3.6916	9.7348	4.9491	-23.8589	-4.71	-0.2466	-0.0008	-0.681	8.8049	-1.849	-0.5048	-23.7293	6.5836	-81.5371	-1.1948	0.5312	1.3923
-26.9495	-17.0275	58.1637	-29.2936	72.105	28.1277	0.3062	-0.2221	-0.3422	3.7138	-6.033	12.0426	12.8921	-50.7243	6.7462	-0.2613	0.0181	-0.6641	8.5604	-0.8762	-1.2645	-22.9788	9.6173	-67.5264	-1.2641	0.5277	1.4277
-10.5044	-0.256	15.6907	367.8999	152.1195	17.3375	0.3122	-0.2281	-0.3662	2.6704	-0.9421	9.4777	-9.362	-53.9523	-11.2633	-0.2902	0.0374	-0.6472	9.3493	-0.6496	-1.7145	-17.1778	10.6749	-47.2915	-1.2652	0.5179	1.3563
4.943	-14.6241	5.6172	266.1083	156.0802	116.6425	0.3062	-0.2281	-0.3602	4.0212	-3.3471	10.4509	28.0726	-44.7774	-15.4819	-0.2747	-0.0199	-0.6626	9.4497	-0.6523	-2.4125	-12.606	10.2467	-24.333	-1.2116	0.4767	1.4159
5.1355	-8.8066	10.2436	142.501	138.0455	0.0435	0.3242	-0.2522	-0.3542	2.6123	-1.7435	9.356	5.3823	-51.696	-16.0154	-0.289	-0.0202	-0.6449	10.3373	-0.8304	-3.6786	-12.3857	7.4333	-3.8866	-1.247	0.4964	1.3951
2.2234	-2.0123	12.2714	142.9338	131.5313	-47.7397	0.3182	-0.2462	-0.3482	1.7586	-0.6584	7.1431	41.5765	-25.5567	2.3034	-0.2893	-0.0018	-0.6278	11.0279	-0.4287	-3.3133	-15.5483	4.8262	12.7473	-1.1944	0.5117	1.4124
-0.3638	1.1415	6.7931	104.025	126.516	-71.2796	0.3482	-0.2762	-0.3482	5.7103	-5.6734	22.5975	-72.0567	-85.4645	-10.5447	-0.3041	0.0186	-0.6465	12.285	-1.2336	-3.2327	-19.166	0.4787	33.8077	-1.2117	0.4943	1.414
-1.186	-0.0522	11.9143	15.0028	127.4749	-80.4833	0.3482	-0.2642	-0.3482	4.4187	-3.8523	15.863	11.1131	-146.6006	-24.0605	-0.3036	-0.0013	-0.6279	12.2332	-1.6342	-3.0019	-22.8389	-4.9509	55.7602	-1.194	0.4923	1.4326
-2.0955	2.3088	12.7886	55.558	94.7243	-70.8635	0.3722	-0.2882	-0.3662	6.3541	-2.7204	11.9257	-51.3649	-101.7244	-16.8212	-0.2888	-0.0209	-0.627	12.8208	-2.4353	-2.1764	-24.8868	-10.6301	68.211	-1.1942	0.4766	1.4162
-2.0038	1.8384	8.4762	73.5328	77.973	-50.6298	0.3722	-0.2882	-0.3602	3.8122	-2.9895	17.3372	-20.2981	-138.0979	-27.7621	-0.3325	0.0179	-0.611	11.8099	-2.9472	-1.4402	-19.8726	-17.6576	63.7197	-1.1773	0.5311	1.3925
-0.4553	1.0296	8.0318	30.1656	88.5501	-30.9712	0.3843	-0.2942	-0.3482	4.4323	-5.7458	13.4241	-13.2401	-158.1747	-42.1288	-0.3457	-0.0223	-0.556	11.827	-4.436	-0.687	-16.4543	-14.1698	50.9937	-1.1766	0.5097	1.4311
-0.6743	0.8589	8.6179	-1.8733	91.3694	-20.324	0.3903	-0.2942	-0.3542	4.0547	-4.7119	14.844	-9.5748	-183.8457	-41.5921	-0.346	-0.02	-0.6096	11.3973	-3.8566	0.7065	-13.6807	-4.254	34.3027	-1.2293	0.5627	1.4246
-0.3515	-0.2874	10.3348	-3.2295	88.4301	-12.7736	0.3903	-0.2822	-0.3482	5.1069	-5.8006	15.4574	-8.2345	-192.4272	-57.6161	-0.4027	-0.0221	-0.5208	11.963	-3.801	0.4847	-4.2179	6.9109	7.7411	-1.2123	0.5313	1.392
-1.2769	-0.9188	10.0789	9.2397	80.5393	-12.9088	0.3963	-0.2882	-0.3482	4.8662	-6.5452	14.8569	-18.3408	-209.4553	-77.5468	-0.4167	-0.0401	-0.538	12.9219	-2.083	0.1019	4.9292	14.8174	-21.5627	-1.2468	0.512	1.4116
-6.783	-0.1005	11.4506	-15.344	48.8553	-3.2504	0.3903	-0.2822	-0.3422	4.1642	-6.2583	14.3679	60.3046	-216.2922	-91.4279	-0.4165	-0.0416	-0.5023	12.623	-2.0851	-0.6041	10.6202	18.6459	-45.8005	-1.2126	0.5332	1.3736
-4.5504	-0.5089	10.666	-49.0748	21.7157	0.2507	0.4023	-0.2882	-0.3602	5.0392	-5.5725	14.9813	74.0402	-223.6691	-101.1081	-0.4449	-0.0423	-0.4668	12.7767	-1.2278	-1.4145	10.2829	19.5212	-67.3844	-1.1946	0.5468	1.4087
-0.1901	-2.6469	9.505	-30.0696	14.4897	12.6515	0.4023	-0.3062	-0.3482	5.4643	-6.1438	15.9986	65.3835	-237.8173	-103.8767	-0.4872	-0.0617	-0.4306	12.0738	-1.058	-2.3613	-3.5933	17.8012	-86.2763	-1.1944	0.5117	1.4124
-1.2292	0.23	9.669	-49.5513	10.8452	14.3247	0.4023	-0.2822	-0.3542	5.5588	-7.6287	17.6605	41.5279	-266.7279	-90.6	-0.4998	-0.1388	-0.4098	11.4975	-0.886	-2.6639	-19.6879	13.3815	-98.2941	-1.2127	0.6015	1.3845
-0.5958	-2.0139	9.4396	-44.3863	8.0331	15.0981	0.4083	-0.2882	-0.3422	4.8999	-6.7137	16.5203	-12.1734	-295.7517	-118.5386	-0.4983	-0.1979	-0.3718	10.7059	-0.195	-2.2689	-25.0093	14.0043	-105.2948	-1.2295	0.4963	1.3954
-0.8034	-1.6081	10.6772	-44.5175	8.0845	11.4101	0.4083	-0.2882	-0.3302	4.2808	-5.5658	17.4009	52.7024	-301.5709	-114.6081	-0.5409	-0.1989	-0.3186	10.9261	0.4918	-2.612	-23.0391	16.842	-116.3575	-1.2294	0.428	1.3845
-0.4764	-1.151	9.7394	-26.2302	6.4067	12.2675	0.4023	-0.2882	-0.3602	7.4164	1.3096	25.2012	59.2801	-289.0678	-106.5923	-0.5837	-0.1984	-0.301	9.7441	0.726	-1.8182	-21.8246	17.2863	-130.1581	-1.2466	0.3755	1.3898
-0.4147	-1.5531	9.9169	-25.6066	7.2218	8.5961	0.3963	-0.2762	-0.3422	4.5254	-3.2695	21.2714	27.3771	-327.0679	-146.8484	-0.6401	-0.2358	-0.2821	9.1312	0.9592	-1.0713	-25.406	18.4415	-140.9126	-1.2646	0.4633	1.3802
-0.3564	-1.8982	9.9172	-19.9725	7.6857	7.577	0.4143	-0.2702	-0.3482	4.9746	-4.7029	20.5055	86.3615	-328.4762	-131.5488	-0.625	-0.2577	-0.2276	8.1022	1.821	-1.1471	-28.0044	16.13	-148.2694	-1.2117	0.3753	1.3904
-0.703	-1.4951	9.9114	-15.3759	6.6767	2.3038	0.4083	-0.2762	-0.3602	1.3059	-4.005	21.5599	121.6836	-301.9175	-100.3519	-0.6801	-0.3358	-0.1536	8.1756	2.3403	-0.2688	-27.4943	12.1626	-151.4474	-1.2461	0.3892	1.4246
-0.8208	-0.6902	9.852	-13.6279	6.0223	2.227	0.4203	-0.2642	-0.3542	-0.7653	-4.2401	15.9336	178.7121	-298.5088	-98.2155	-0.6939	-0.3392	-0.0644	7.321	2.4566	-0.2271	-21.994	6.1456	-153.9508	-1.2465	0.3579	1.3917
-0.7619	-1.3802	9.8514	-17.3269	6.1028	-0.8858	0.4023	-0.2462	-0.3482	-11.8056	-7.3764	8.097	179.9906	-312.0314	-28.7558	-0.6916	-0.4359	-0.0427	7.0985	2.5154	0.0603	-23.0487	4.5636	-150.3034	-1.2282	0.3189	1.4324
-1.2197	-1.3215	10.0199	-9.9791	4.876	-1.4681	0.4083	-0.2642	-0.3422	-20.6112	-0.6337	-7.8103	366.0297	-141.1236	150.0356	-0.706	-0.4185	0.01	7.4387	3.0883	0.0109	-23.4926	1.3787	-138.0757	-1.1936	0.2699	1.4019
-1.0467	-1.3793	10.0231	-9.5925	5.0804	0.11	0.4203	-0.2522	-0.3542	-25.4391	-14.8111	-6.0385	207.4457	21.3742	183.4303	-0.6923	-0.3821	0.0443	7.3288	4.0647	0.3039	-18.0785	-0.1971	-113.7047	-1.1761	0.2698	1.4022
-1.06	-1.4959	9.3136	-6.2975	4.8546	0.9743	0.4083	-0.2642	-0.3662	-11.8823	-13.9669	3.4489	-74.5309	16.2216	-43.0774	-0.7084	-0.3049	0.0411	8.0667	4.1203	0.1439	-3.8435	0.3016	-71.1664	-1.1758	0.2679	1.4205
-1.0492	-1.2645	9.9052	-2.9761	4.566	1.7155	0.4023	-0.2642	-0.3662	-1.3	-7.4119	3.2053	-113.012	49.3313	-50.7374	-0.7367	-0.3225	0.0238	8.7032	3.375	0.5622	-2.498	5.6784	-11.9643	-1.2283	0.2857	1.4178
-1.0541	-1.0351	9.6693	-3.5737	4.3148	1.4845	0.4023	-0.2762	-0.3542	-0.9856	-6.9521	4.5789	-25.1853	96.7589	25.1247	-0.7493	-0.3988	0.0267	8.6527	2.8599	0.851	-18.6818	11.4983	38.5813	-1.1941	0.2562	1.3671
-0.5305	-1.2655	9.9153	-3.6145	3.8269	1.4217	0.4083	-0.2642	-0.3482	-5.6404	-7.1684	5.1953	-27.0542	136.6959	20.0273	-0.7491	-0.4165	-0.0082	8.3094	2.1142	0.7247	-20.5149	15.4697	68.8993	-1.228	0.2331	1.4234
-0.7043	-1.3803	9.8526	-2.1949	3.3404	1.6589	0.4083	-0.2642	-0.3542	-8.6997	-3.1544	5.4375	-23.9932	177.7246	19.9924	-0.7372	-0.3356	-0.1183	8.9435	2.1719	1.0877	-10.3167	20.2818	87.7506	-1.2285	0.2194	1.3886
-0.7064	-1.4381	9.7342	-0.8042	2.4847	1.0711	0.4143	-0.2642	-0.3482	-5.6483	-3.4483	5.2622	-15.3234	203.1226	12.6773	-0.7234	-0.3161	-0.1368	9.0117	1.6574	1.6121	-2.6794	25.7335	101.6478	-1.1941	0.2562	1.3671
-0.7658	-1.7257	9.6142	-1.2344	2.4115	1.2031	0.4143	-0.2642	-0.3602	-4.2599	-5.9126	5.2263	10.0596	231.0319	19.2421	-0.7666	-0.3133	-0.1729	8.9408	1.0238	0.8501	-0.2753	27.5317	115.0513	-1.2284	0.3033	1.4159
-0.8222	-1.1504	9.7327	-0.9428	2.6759	1.5331	0.4203	-0.2582	-0.3602	-2.2788	-6.7167	6.2158	-12.3712	233.2191	27.8286	-0.7369	-0.3863	-0.2768	8.6625	0.9681	1.1943	0.2735	26.0831	123.6854	-1.264	0.3073	1.3787
-0.8872	-1.4387	9.3171	-0.4624	2.9025	2.0109	0.4083	-0.2642	-0.3482	-3.3408	-4.5413	5.2481	-18.4132	226.7003	46.8828	-0.7823	-0.2868	-0.3345	8.4923	0.3947	1.1888	1.704	22.9414	130.9904	-1.2465	0.3072	1.379
-1.1625	-1.0916	10.0216	-1.8711	2.9936	2.4117	0.4023	-0.2582	-0.3602	-3.167	-5.8583	5.1301	-6.508	225.7872	62.177	-0.7548	-0.2639	-0.4422	8.248	-0.1817	0.3068	4.186	20.5067	138.0478	-1.246	0.3209	1.4138
-1.0577	-1.4956	9.4318	-0.8061	2.8599	3.0257	0.4143	-0.2522	-0.3482	-2.8015	-5.6282	6.1479	-35.157	227.8396	76.7127	-0.7401	-0.2997	-0.512	8.9856	0.046	0.1474	6.9389	17.6675	146.0427	-1.2125	0.3635	1.3373
-0.6515	-1.2085	9.6177	-0.3728	2.2318	3.4386	0.4143	-0.2522	-0.3422	-1.4537	-5.3431	7.3048	-52.9758	232.2412	87.5409	-0.6993	-0.2212	-0.5862	8.6926	-0.0697	-0.2672	6.7038	13.9696	154.9039	-1.23	0.3636	1.337
-0.8819	-1.8981	9.5524	-0.6737	2.6421	3.4788	0.4203	-0.2642	-0.3422	-1.5593	-5.3991	7.7776	-57.2219	233.6916	102.6342	-0.6716	-0.1991	-0.676	8.8065	-1.4471	-0.3866	6.4596	10.0009	161.7863	-1.2644	0.3775	1.3712
-0.8758	-1.5523	9.9079	1.7173	2.8494	3.7879	0.4083	-0.2642	-0.3542	-1.0791	-6.8866	8.5566	-60.7699	231.3007	108.6401	-0.5873	-0.1418	-0.7312	8.0524	-1.3908	-1.0432	6.3245	6.3246	164.1477	-1.265	0.4321	1.3473
-1.0518	-1.6674	9.7269	4.1891	3.4878	5.6534	0.4263	-0.2522	-0.3602	0.0879	-6.7736	9.2936	-71.0149	231.7644	98.4364	-0.5882	-0.1195	-0.8034	7.8838	-2.2508	-0.9914	6.1769	4.1498	160.0853	-1.2474	0.4652	1.3622
-0.5883	-1.783	9.8538	2.887	4.0998	7.3665	0.4263	-0.2702	-0.3602	1.2627	-6.9459	10.3866	-83.7025	234.6977	94.7906	-0.5611	-0.0606	-0.8591	7.8836	-2.8246	-1.0518	7.6526	3.6588	149.2014	-1.2474	0.5159	1.3749
-1.0461	-1.7242	10.0223	3.9809	4.5276	10.9423	0.4143	-0.2702	-0.3843	2.2092	-7.5755	11.5333	-72.3774	224.8145	106.4035	-0.4335	-0.0068	-0.8603	7.372	-3.1678	-1.005	9.042	4.6268	135.4342	-1.2132	0.5371	1.337
-1.288	-1.6677	9.4269	7.3009	4.3961	12.6608	0.4143	-0.2642	-0.3662	3.0398	-7.9758	12.6781	-85.0891	236.5343	87.2837	-0.3776	0.0498	-0.88	7.6066	-3.6834	-0.7105	9.8078	7.4223	119.5742	-1.283	0.5707	1.3504
-0.7042	-0.8052	9.9131	9.1548	5.1962	17.8068	0.4083	-0.2582	-0.3542	4.8558	-6.6607	14.3219	-105.5515	243.8647	91.4565	-0.3645	0.09	-0.935	7.8961	-4.2569	-0.5318	9.9894	8.67	96.9029	-1.2833	0.5726	1.3321
-0.6985	-1.4946	10.1478	7.341	6.2772	24.2337	0.4083	-0.2642	-0.3422	6.0424	-6.3167	16.0695	-127.4391	252.0565	100.8319	-0.3366	0.1268	-0.9185	7.5456	-4.0857	-0.9465	11.1745	10.105	72.8272	-1.3003	0.5532	1.352
-0.6527	-1.1511	9.5587	24.8506	3.7373	23.244	0.4143	-0.2642	-0.3482	4.4531	-4.8221	17.4654	-138.8465	273.7946	95.8558	-0.2227	0.161	-0.9013	8.1852	-3.8549	-0.2912	11.9886	10.905	45.3167	-1.2837	0.5921	1.3119
-1.1792	-1.1512	9.1349	20.6882	5.487	12.3414	0.4263	-0.2702	-0.3482	5.355	-5.4502	19.2645	-132.4619	283.993	98.0259	-0.1946	0.1632	-0.9725	8.4633	-3.7419	-0.6352	12.7795	10.9351	17.5952	-1.2838	0.6096	1.3101
-0.8368	-1.1522	8.9643	6.72	7.7861	13.0605	0.4143	-0.2642	-0.3602	7.1211	-4.3632	21.2632	-111.6724	279.6129	106.2318	-0.1802	0.1628	-0.9724	8.5767	-4.0291	-0.6923	14.1246	9.7188	-6.6324	-1.2314	0.6093	1.3109
-0.6571	-1.2092	9.3222	-9.0793	9.3745	8.2981	0.4143	-0.2762	-0.3362	11.0111	-4.4271	22.7093	-83.3191	280.7434	95.3348	-0.1378	0.1814	-0.9906	8.5388	-3.8534	0.2992	12.6445	6.516	-24.7903	-1.3007	0.6234	1.3445
-0.7671	-0.9783	9.616	-12.6427	10.8026	7.0506	0.4263	-0.2522	-0.3542	15.3067	-3.5815	21.4929	-60.0919	276.9848	84.9598	-0.0389	0.2368	-1.01	8.6497	-4.0263	0.1258	5.4121	1.8658	-39.1765	-1.2662	0.6427	1.3249
-0.9435	-1.5535	9.3748	-17.4269	11.5472	5.6459	0.4143	-0.2702	-0.3482	18.4507	-1.3593	20.4932	-44.4507	252.8281	78.656	-0.0101	0.2344	-0.9741	8.7088	-3.8539	0.2443	-3.8973	-2.3576	-50.5809	-1.2838	0.6096	1.3101
-0.8216	-0.2302	9.8531	-17.7863	11.1275	4.0659	0.4263	-0.2402	-0.3662	21.6948	0.7467	18.7231	-98.1646	241.0716	62.0124	0.0475	0.2143	-0.9907	9.4573	-3.9685	0.6088	-10.6711	-5.8238	-59.9184	-1.3005	0.5883	1.3483
-0.8264	-1.956	9.4352	-19.1044	10.9611	2.2971	0.4143	-0.2702	-0.3602	23.6366	4.1691	15.3847	-90.099	218.3054	55.0718	0.133	0.2309	-0.9908	9.7406	-2.8217	0.6187	-15.5918	-6.3191	-64.768	-1.2831	0.5882	1.3486
-1.2795	-1.3791	9.9004	-14.692	10.3447	1.332	0.4203	-0.2762	-0.3542	22.6641	10.4001	10.7447	-82.0415	201.6937	109.2487	0.1324	0.2678	-0.9566	9.6282	-2.4195	0.7346	-19.9387	-4.8912	-64.3936	-1.2303	0.586	1.3678
-0.822	-1.2654	9.7324	-2.5704	8.7476	3.8041	0.4143	-0.2522	-0.3542	28.7403	17.32	15.7547	-99.8177	147.8678	87.5295	0.1893	0.2853	-0.9569	9.8533	-1.904	0.6243	-20.401	-4.468	-61.5353	-1.2482	0.5549	1.3346
-0.8835	-1.6108	9.494	1.0641	5.7176	2.9967	0.4143	-0.2642	-0.3542	29.6442	12.6908	20.0402	-55.3036	141.694	-38.0882	0.2887	0.3207	-0.9576	9.734	-1.5032	0.3901	-10.7623	-7.4697	-47.2287	-1.3173	0.5163	1.3738
-1.0377	-1.3781	10.496	13.9726	0.3708	1.5537	0.4323	-0.2402	-0.3482	27.4375	7.5311	12.7972	55.5219	124.678	-104.0983	0.2458	0.3212	-0.9401	9.4324	-1.2188	-0.4316	-2.1779	-9.6991	-23.4463	-1.247	0.5471	1.4078
-1.0454	-2.1267	10.0213	33.6331	-1.5051	5.3662	0.4203	-0.2702	-0.3602	30.6759	4.7021	4.3645	66.7304	112.0053	-114.5873	0.2893	0.2999	-0.9212	9.4747	-1.3363	-1.1895	-0.7396	-5.7793	1.6068	-1.2834	0.5394	1.3175
-0.3119	-0.8648	9.3297	28.9915	-7.0076	-3.918	0.4323	-0.2642	-0.3602	44.9441	15.8904	7.4732	-1.5606	-55.733	-85.0588	0.3039	0.2811	-0.9381	9.6933	-1.0515	-1.6507	0.9698	-1.5474	25.3344	-1.2829	0.5024	1.3396
-1.2769	-1.5513	10.0182	1.9205	2.5909	-12.2948	0.4203	-0.2702	-0.3482	29.4467	12.3281	10.1163	53.5169	-157.3242	-90.1718	0.2762	0.2436	-0.9368	9.8834	-1.5074	-0.7153	2.6915	-0.5611	51.4925	-1.2484	0.59	1.3308
0.0494	-5.8951	21.7908	-96.7844	42.8342	-11.5238	0.4323	-0.2582	-0.3422	19.2398	4.447	5.9102	79.3484	-203.8519	-103.9259	0.2182	0.2821	-0.9031	10.513	-2.2539	-0.647	1.6435	-1.7266	77.8255	-1.2482	0.5549	1.3346
-0.6328	-5.9	19.237	34.5772	96.2174	33.9136	0.4263	-0.2642	-0.3482	-0.7276	-14.6148	7.8944	-5.952	-215.0409	-162.8781	0.1902	0.2461	-0.9375	11.4893	-2.1394	-0.277	2.0667	-3.9976	92.6331	-1.2651	0.5511	1.3709
-1.3541	-2.5887	8.8916	-2.5225	133.6587	17.9151	0.4263	-0.2642	-0.3542	-2.9049	-13.0911	23.1174	206.1937	-247.2114	-98.457	0.1186	0.2483	-0.9381	13.4426	-2.4842	0.4608	8.2071	-4.9323	90.9433	-1.2482	0.6056	1.3473
-1.8412	-2.1741	13.6097	-29.349	132.9617	14.6889	0.4323	-0.2642	-0.3362	-0.7615	-2.5855	13.4425	198.104	-134.1671	-8.1946	0.1339	0.2087	-0.9186	14.5249	-4.5518	0.2416	16.9344	-12.5148	74.6547	-1.2474	0.6173	1.4004
-1.4212	-3.4882	17.396	-20.4068	151.3346	23.0283	0.4443	-0.2642	-0.3602	4.3505	1.5618	4.4689	152.0582	-162.7417	-6.3138	0.0621	0.2123	-0.9549	14.2353	-6.1014	-0.1198	15.0105	-22.9554	45.1528	-1.2485	0.6582	1.3417
-1.2947	-3.487	17.9893	-2.2017	182.6486	31.0953	0.4563	-0.2582	-0.3482	4.6515	4.6078	11.2525	42.4043	-137.4871	-25.3876	0.0479	0.1951	-0.9899	12.8049	-6.1	-0.3818	7.4802	-24.0829	-7.8962	-1.2132	0.5878	1.3497
-0.9665	-4.3524	16.9891	1.176	209.8383	38.4317	0.4683	-0.2522	-0.3662	4.0295	-4.5999	13.5964	22.0838	-91.6164	-44.9566	0.0478	0.1959	-1.0078	13.831	-5.7574	-0.36	7.346	-19.5084	-84.045	-1.2122	0.6328	1.4174
-0.5335	-4.522	18.5333	8.97	237.0909	46.7904	0.4983	-0.2702	-0.3362	4.6397	-3.2929	9.6916	51.123	-3.174	7.2903	0.0208	0.1369	-0.9521	13.5465	-4.724	-0.2453	11.6841	-9.7541	-154.4002	-1.2481	0.588	1.3491
-0.86	-5.8992	19.4098	33.0438	262.7815	63.93	0.4983	-0.2642	-0.3242	1.5201	0.6579	6.9033	65.5369	-14.5428	2.171	0.0499	0.1168	-0.9511	13.0825	-3.4623	-0.5416	14.7499	-1.462	-201.8692	-1.2473	0.5998	1.4023
-0.1484	-5.1503	20.5481	44.5955	298.3933	70.1409	0.5524	-0.2522	-0.3182	1.0903	-3.9746	7.8946	-64.2907	-5.3884	-6.1687	0.0356	0.1173	-0.9513	12.0452	-2.4298	-1.0253	23.8059	1.4772	-220.7935	-1.2304	0.5528	1.3532
-0.268	-6.4733	20.188	68.7738	336.8123	77.709	0.5644	-0.2762	-0.3122	2.3213	0.375	9.4732	-57.8669	-11.3969	9.1161	0.0198	0.176	-0.9715	10.516	-1.2205	-0.4099	29.6931	3.7339	-217.8529	-1.2476	0.5003	1.3585
-0.7038	-7.8567	18.3446	29.129	383.4323	72.4416	0.5824	-0.2822	-0.3062	3.0084	-3.5769	8.7664	-36.0382	-1.2827	5.412	0.0349	0.138	-0.9877	8.9271	0.2753	0.0887	34.1287	4.2819	-209.9938	-1.3	0.5006	1.3576
-2.4265	-9.4631	18.4843	-22.8435	402.7623	98.6928	0.6064	-0.2702	-0.2762	2.6785	-2.8304	9.6521	-32.628	-4.9333	5.4764	0.0346	0.1564	-0.9706	8.2463	0.9082	0.3107	39.4772	4.6388	-200.9862	-1.2298	0.3968	1.3516
-0.7963	-2.5559	23.0823	-75.9517	441.2814	128.2918	0.6184	-0.2702	-0.2642	2.2755	-3.0583	9.6434	-17.8426	-2.1901	1.5977	-0.0239	0.2149	-0.9555	8.2968	2.112	0.0828	38.8911	6.757	-188.7238	-1.2466	0.4262	1.4026
-2.9887	-2.6601	25.9344	-90.419	443.0503	129.2647	0.6424	-0.2582	-0.2402	2.0931	-3.0588	9.1644	-8.4856	-2.2592	2.0451	0.0201	0.1745	-0.9358	8.7547	2.5706	0.2103	41.773	10.2118	-173.1919	-1.2643	0.4107	1.3858
-1.0402	-2.2049	25.4417	3.3053	435.3506	159.0592	0.6664	-0.2762	-0.2101	2.44	-3.0023	9.2311	-16.1632	-2.9249	1.6184	-0.0087	0.1761	-0.9539	8.6833	2.9697	-0.4896	47.0073	13.9396	-149	-1.2286	0.3384	1.4122
-0.0078	-3.9828	28.0571	-5.2972	434.2397	143.4763	0.6904	-0.2762	-0.1801	2.1572	-2.7721	9.5227	-13.5257	-3.3712	2.1401	-0.0228	0.1588	-0.989	8.7449	2.9705	-0.255	47.3147	16.2516	-112.6923	-1.2466	0.3755	1.3898
6.6266	-1.2983	25.7707	86.8254	428.0939	156.1596	0.6965	-0.2822	-0.1681	2.275	-2.8294	9.6438	-9.0504	-4.8196	-0.0399	-0.0085	0.1746	-0.9182	8.8009	3.6014	-0.2516	45.5211	17.9206	-66.994	-1.2109	0.3539	1.4289
21.9357	4.6448	-1.7441	417.9452	292.2772	100.3593	0.7145	-0.2942	-0.1381	2.3265	-3.2308	9.2877	-2.0485	-4.17	-0.325	0.035	0.1372	-0.9699	8.6681	3.1965	-1.2474	42.1481	15.3604	-18.4378	-1.2282	0.3189	1.4324
47.8578	-26.1113	-4.8591	453.8358	52.5823	78.0513	0.7445	-0.3062	-0.1321	2.4994	-3.2313	9.2912	5.2545	-4.0128	-1.5449	0.02	0.1752	-0.9537	8.6122	3.1968	-1.1902	41.9643	9.702	23.1716	-1.2115	0.3909	1.4069
-1.0678	-12.4375	1.7832	-68.6018	-58.5305	-10.169	0.7385	-0.3302	-0.1021	2.0325	-2.83	9.0449	8.4618	-3.3689	0.2326	-0.023	0.1765	-0.954	8.7781	2.1053	-1.5408	39.5719	4.7526	48.1336	-1.2457	0.2683	1.4194
19.1793	5.6647	13.9796	-126.8904	-50.2653	-94.2779	0.7265	-0.3182	-0.1081	2.2655	-2.8303	9.1685	5.2662	-3.1889	-0.4183	-0.0383	0.2161	-0.9735	9.0058	2.3918	-1.5352	37.0155	1.3142	63.9562	-1.2819	0.3269	1.3582
7.1755	-13.4654	11.0401	65.4494	-53.1232	-3.6669	0.7265	-0.3302	-0.1081	1.7488	-3.2296	9.2164	-1.2925	-3.2919	-0.4625	0.0056	0.1757	-0.9538	9.237	1.8756	-1.4158	33.9502	-4.2067	75.9999	-1.2465	0.3579	1.3917
10.0884	-9.2257	7.0896	-3.9707	-62.3791	-21.6458	0.7205	-0.3242	-0.1081	2.3838	-2.6013	9.3496	-0.3107	-3.5222	-0.7737	0.0062	0.1557	-0.9352	9.2402	0.5564	-1.3623	30.268	-10.0897	86.1037	-1.2288	0.3735	1.4085
10.9822	-1.1153	9.4311	-14.1051	-107.1308	-28.0012	0.7205	-0.3002	-0.1201	2.4309	-3.1749	8.7554	-0.0009	-3.5552	-1.4841	0.0065	0.1373	-0.9522	9.1218	0.441	-1.5984	22.9718	-14.2343	95.4046	-1.2467	0.393	1.388
7.584	-6.687	8.9377	48.8679	-167.7731	-15.3014	0.7025	-0.3302	-0.1321	2.2075	-2.7157	9.1675	-0.7737	-3.7261	-1.5194	-0.009	0.1945	-0.9368	8.379	-0.1318	-1.732	16.1261	-17.6671	103.5148	-1.2118	0.3928	1.3886
6.0055	-6.687	7.7252	41.7942	-201.8307	-6.7842	0.7085	-0.2942	-0.1321	2.3208	-2.3728	9.1112	-1.8018	-4.5338	-2.4004	0.0061	0.1726	-0.8823	7.1784	0.2712	-1.8713	13.2079	-17.4768	104.133	-1.2473	0.4476	1.3641
5.2169	-6.6905	5.642	43.2581	-233.7449	7.5786	0.6784	-0.3122	-0.1441	2.2582	-2.7738	8.8121	0.9062	-4.7601	-3.3263	-0.0098	0.2329	-0.9383	7.1715	-0.476	-2.2825	16.2543	-15.1487	97.2688	-1.2475	0.4827	1.3603
5.0255	-6.9801	4.6331	18.2829	-264.6561	12.5539	0.6904	-0.3002	-0.1381	2.4374	-2.8881	9.1125	-0.2308	-4.7988	-4.101	-0.0075	0.1193	-0.9695	6.9525	-0.474	-1.8202	17.9413	-11.8089	93.1097	-1.2642	0.4439	1.4004
5.3862	-6.5188	5.4685	-29.7646	-285.1011	6.9541	0.6724	-0.3002	-0.1681	2.4365	-3.0027	9.0528	7.3998	-5.1701	-5.0827	0.0056	0.1757	-0.9538	6.886	-0.2461	-2.2874	14.9775	-8.6493	90.9793	-1.2114	0.4924	1.4323
4.7298	-4.8455	7.4686	-47.8749	-299.2649	-4.7674	0.6484	-0.3002	-0.1801	2.6055	-2.3738	8.9388	12.4818	-5.1008	-5.6286	-0.0229	0.1758	-0.9362	6.7139	-1.0494	-2.4104	10.71	-7.1487	88.0573	-1.2291	0.4768	1.4156
4.2501	-4.6672	9.5275	-52.492	-309.346	-24.9674	0.6304	-0.3062	-0.2041	2.317	-2.7738	8.8727	14.0347	-4.5099	-6.3874	-0.0084	0.1577	-0.971	6.9466	-0.303	-2.1114	8.8952	-4.7949	86.2814	-1.2996	0.5318	1.3905
4.2014	-4.666	9.9992	-40.7995	-320.8944	-50.0834	0.6184	-0.3002	-0.2101	2.6173	-2.8306	9.4727	12.9537	-4.4964	-5.2463	-0.0225	0.1404	-1.0061	7.5296	-1.1049	-1.5193	9.305	-3.0401	86.7238	-1.2645	0.4965	1.3948
4.0044	-4.3812	8.7554	-35.4184	-331.8593	-79.2163	0.6004	-0.2882	-0.2221	2.2618	-2.7735	8.9903	11.0504	-5.9657	-5.8936	-0.0084	0.1577	-0.971	7.4132	-1.851	-1.6993	7.2211	-1.0127	90.4895	-1.2117	0.545	1.4268
0.8204	-6.6128	10.7557	-64.3023	-326.9385	-98.8532	0.5704	-0.2822	-0.2342	2.3221	-2.8878	9.1101	9.4497	-7.5662	-5.7705	0.0065	0.1373	-0.9522	7.9787	-1.6807	-1.9207	9.5139	-0.6501	90.947	-1.2293	0.5627	1.4246
-2.005	-6.6582	13.6546	-71.6609	-319.7449	-113.5411	0.5584	-0.3002	-0.2402	2.4995	-2.7733	9.3516	11.0349	-8.331	-5.5652	-0.0078	0.1377	-0.9524	8.4387	-1.8529	-1.7371	8.5807	-0.4465	86.1345	-1.317	0.5651	1.4048
-1.3492	-7.3539	11.716	-55.1534	-314.5785	-110.8335	0.5524	-0.2822	-0.2642	2.5582	-2.7161	9.4123	6.5073	-8.2889	-4.5531	0.0208	0.1369	-0.9521	8.5582	-2.4258	-1.5035	-1.9774	0.5356	77.0997	-1.2818	0.5805	1.4219
-3.4974	-7.5174	13.8598	-89.0537	-305.7108	-107.3369	0.5163	-0.2942	-0.2522	2.5598	-2.8877	9.4714	7.9013	-9.7487	-6.1827	-0.0511	0.1574	-0.9356	8.3283	-2.7701	-1.626	-15.8458	1.0407	65.7135	-1.2479	0.6544	1.3783
-4.6264	-7.5124	15.0785	-86.9695	-306.7306	-96.0825	0.4983	-0.2462	-0.2702	2.7392	-2.6012	9.832	10.4477	-11.8182	-6.2461	-0.0364	0.1378	-0.9347	8.3313	-2.4826	-1.4499	-23.4231	2.8349	51.341	-1.2297	0.5821	1.4044
-4.7181	-7.5093	16.3174	-95.6429	-301.9421	-84.0142	0.4863	-0.2822	-0.2702	2.7893	-2.9456	9.4166	19.9872	-13.9062	-8.2742	-0.0216	0.1182	-0.9338	8.5511	-3.0009	-1.9141	-27.263	5.7247	38.403	-1.283	0.6214	1.3632
-6.5939	-6.41	17.7606	-97.5556	-293.1869	-65.6219	0.4683	-0.2522	-0.2822	2.8977	-3.0038	9.0623	18.8641	-14.6857	-8.1975	-0.0081	0.1392	-0.9881	8.7315	-3.1143	-1.4442	-26.9847	6.2836	27.9042	-1.2642	0.6136	1.4367
-7.2348	-6.9273	17.3333	-98.6446	-292.4863	-40.4319	0.4503	-0.2462	-0.2762	2.3205	-2.7162	9.051	17.6392	-14.2678	-7.698	-0.0088	0.1768	-0.9718	8.781	-3.4026	-1.8526	-29.8826	7.2273	24.4755	-1.2656	0.6388	1.3616
-8.3354	-6.926	17.0164	-116.9598	-293.4014	-10.2225	0.4263	-0.2522	-0.2702	2.7346	-2.6589	9.5942	23.0913	-14.3532	-9.4504	-0.0372	0.16	-1.0069	8.6097	-3.2876	-1.8556	-36.1251	6.4058	25.9021	-1.2484	0.6407	1.3436
-10.4422	-6.1715	18.3952	-148.3596	-290.1617	19.2971	0.4203	-0.2342	-0.2762	3.0037	-2.6043	8.6496	14.2006	-19.0515	-9.7659	-0.0361	0.1194	-0.9518	8.5476	-3.6901	-2.15	-42.9739	3.7827	31.789	-1.2118	0.664	1.4503
-11.5301	-3.8684	18.9704	-154.2252	-287.041	41.2735	0.4023	-0.2221	-0.2882	2.083	-1.8577	8.8103	21.5911	-16.8827	-7.8922	-0.0507	0.1382	-0.9348	8.4488	-3.2281	-1.3336	-45.0612	3.0329	36.2472	-1.2122	0.6328	1.4174
-13.1954	-2.8296	19.3541	-159.0304	-278.4052	53.4629	0.3782	-0.2221	-0.2702	2.8703	-2.7717	10.6065	22.1233	-13.4168	-9.1575	-0.0507	0.1382	-0.9348	8.2226	-3.7438	-1.2817	-48.2688	2.623	41.3538	-1.247	0.6486	1.4333
-15.0614	-1.3338	18.317	-160.4718	-263.5333	53.7666	0.3722	-0.2041	-0.2882	2.2593	-2.2585	8.9319	20.7499	-14.347	-8.7441	-0.0363	0.1209	-0.9875	8.6854	-4.2598	-0.9827	-52.189	1.7718	49.8207	-1.1951	0.6346	1.3994
-16.4137	0.448	17.0543	-174.5662	-235.5664	44.475	0.3362	-0.1861	-0.2822	4.658	-2.4897	10.7033	16.811	-18.1414	-3.2593	-0.022	0.1205	-0.9874	8.5164	-4.1444	-0.869	-53.5648	-0.0764	59.4714	-1.2474	0.6173	1.4004
-18.1503	2.8079	16.8489	-181.2526	-199.6925	32.2421	0.3422	-0.1801	-0.2882	1.6768	-2.4809	11.4735	-49.378	-54.269	-0.5907	-0.0491	0.0622	-0.9496	8.6274	-3.6287	-0.9815	-48.5121	-1.2791	64.9134	-1.2299	0.668	1.4134
-20.7899	3.9641	17.5093	-179.3481	-157.5247	23.9868	0.3302	-0.1681	-0.2822	3.0105	-3.9659	14.5864	-4.5949	-92.1785	-15.6431	-0.0506	0.1213	-0.9877	8.9571	-3.6889	-1.6168	-35.144	1.7677	65.6884	-1.2651	0.6018	1.3836
-23.8978	6.6155	17.9279	-156.0363	-110.1867	11.0311	0.3122	-0.1621	-0.2702	3.8039	-3.4598	11.0995	-39.3311	-117.6654	-13.0388	-0.0642	0.1003	-0.9334	9.6549	-3.458	-0.902	-18.0449	5.1587	71.2671	-1.248	0.7226	1.3892
-24.1895	6.8959	14.7324	-111.6028	-81.659	5.6607	0.3002	-0.1501	-0.2642	3.7693	-1.6828	12.4686	-52.2206	-103.6892	-20.6255	-0.093	0.1188	-0.8987	10.2843	-4.0324	-0.8331	-4.7622	6.8705	83.9295	-1.2469	0.6817	1.4479
-24.8088	7.6967	12.5363	-90.09	-55.7413	3.4563	0.3062	-0.1441	-0.2642	3.36	-2.5353	14.953	-66.2963	-77.6709	-46.4673	-0.1091	0.1967	-0.9197	10.9151	-4.7787	-0.7065	4.0971	6.717	95.3629	-1.2653	0.6876	1.3926
-24.1782	7.0626	12.3107	-64.3619	-25.7135	2.607	0.2882	-0.1441	-0.2642	3.2563	-5.8083	9.3609	-45.6229	-122.9492	-30.3153	-0.1219	0.1212	-0.9346	11.0276	-5.2382	-0.8226	10.8941	6.8482	106.1979	-1.1605	0.7046	1.3925
-23.639	7.0569	10.3715	-42.789	7.5719	-6.3592	0.2882	-0.1381	-0.2642	4.1018	-2.5436	11.7015	-52.8797	-145.9709	-10.0156	-0.1359	0.1193	-0.8812	10.5227	-5.5228	-0.4255	15.7474	7.1078	107.8643	-1.2474	0.7695	1.4386
-20.8092	6.305	10.6611	-43.6134	47.7463	-17.1199	0.3002	-0.1201	-0.2582	3.7151	-3.1134	12.4645	-62.2997	-153.052	-32.5181	-0.1649	0.1394	-0.8822	10.7533	-6.3834	-0.3656	18.7852	11.6914	99.4319	-1.196	0.7418	1.3699
-17.6559	6.3693	15.922	-34.5281	78.2994	-27.9321	0.3062	-0.1321	-0.2642	3.4694	-3.744	11.6266	-48.3743	-164.1603	-31.92	-0.2079	0.1406	-0.8825	10.1977	-7.7569	0.2598	17.5601	14.4483	87.3352	-1.2133	0.7575	1.3861
-31.5966	19.6651	59.6991	398.9929	224.9539	-72.2155	0.3062	-0.1141	-0.2702	4.6967	-3.2874	12.5438	-41.1704	-175.0967	-37.5997	-0.221	0.1165	-0.7568	9.6883	-8.0423	0.4236	10.6461	17.7202	63.9038	-1.2131	0.7907	1.4006
12.1293	-24.2644	-5.1966	613.1753	142.9367	61.7202	0.3302	-0.1141	-0.2762	4.293	-4.2023	12.4147	-44.2804	-186.0299	-53.1795	-0.2511	0.1765	-0.7951	9.8475	-7.7578	-0.1555	2.2442	22.8864	28.3179	-1.2138	0.8453	1.3767
3.7537	-8.344	10.336	155.9001	264.9448	-153.3845	0.3422	-0.1561	-0.2522	4.8651	-4.8338	12.1282	-42.3383	-197.4128	-62.7054	-0.2504	0.155	-0.7408	10.6413	-7.7026	-0.3727	-11.4291	27.8726	-13.9573	-1.1612	0.8275	1.3795
1.2785	10.5301	15.2969	347.4871	222.0574	-95.5243	0.3362	-0.1741	-0.2822	5.6081	-5.8608	14.5766	-41.9032	-214.9457	-71.2317	-0.2925	0.1179	-0.7396	12.855	-7.5358	-0.8527	-37.3868	24.0137	-65.9019	-1.1783	0.8588	1.4121
-7.7751	0.2878	4.7559	215.0638	230.8664	-35.015	0.3722	-0.1921	-0.2762	5.3993	-7.003	15.5203	-51.5424	-245.9901	-82.2397	-0.2796	0.1927	-0.7068	15.1167	-5.1904	-1.6155	-45.4884	12.9851	-135.1137	-1.1963	0.7945	1.3643
-3.3634	9.6216	16.504	99.6099	179.065	-29.1195	0.3843	-0.2101	-0.2762	5.0213	-7.0053	13.9088	-21.0294	-253.3916	-102.5447	-0.3502	0.155	-0.6701	15.8365	-5.2529	-2.7096	-38.4348	1.7399	-206.4845	-1.2316	0.8142	1.3435
-1.3336	-1.9034	7.0031	150.3965	113.9842	21.1296	0.3782	-0.2221	-0.2882	5.2316	-9.4121	12.6015	27.1125	-251.0131	-132.3083	-0.3779	0.1336	-0.5981	15.7866	-4.7351	-2.3003	-28.1254	-11.0127	-272.4363	-1.214	0.7282	1.3348
0.4891	0.5132	9.1715	51.4034	106.2401	2.595	0.3782	-0.2221	-0.2882	5.9382	-10.8948	16.0579	9.7474	-295.1709	-133.3421	-0.4048	0.0569	-0.5774	14.5297	-3.299	-2.3203	-17.8462	-28.5196	-327.8627	-1.248	0.6719	1.3765
-2.2015	-0.1698	10.0036	30.1919	82.6557	0.6261	0.4083	-0.2281	-0.2642	5.1472	-7.5082	20.1469	-43.682	-355.5039	-142.8168	-0.447	0.0367	-0.5234	13.3672	-2.43	-0.4738	-6.3508	-39.3137	-363.5221	-1.2128	0.6698	1.3954
-6.07	-1.4217	12.4657	-16.926	3.9499	15.0475	0.4143	-0.2221	-0.2702	5.212	-8.2461	23.2947	24.8037	-370.2498	-147.8083	-0.4754	0.0361	-0.4879	10.5767	-0.6461	-0.1732	-8.6565	-26.8329	-377.7005	-1.2122	0.6328	1.4174
-3.1935	-2.9227	12.1045	-11.2787	9.2974	-17.7614	0.4203	-0.2161	-0.2882	2.2897	-0.395	25.092	53.3456	-429.4959	-184.8152	-0.5194	0.0934	-0.4549	7.6455	2.1086	-1.1552	-12.6468	-7.1238	-385.7074	-1.2115	0.5099	1.4305
-0.8842	-3.106	9.3131	63.9965	2.3187	1.721	0.4023	-0.2101	-0.2762	6.6912	0.3921	23.4025	124.0597	-456.4785	-152.1683	-0.5458	0.0137	-0.3627	6.1454	5.0915	-1.816	-8.1881	11.7644	-404.1347	-1.2114	0.4924	1.4323
-1.0658	0.5161	9.2003	9.3966	9.1703	5.0409	0.4143	-0.2221	-0.2762	9.665	2.9128	28.3394	-10.8733	-470.7001	-123.0769	-0.558	-0.0488	-0.2355	6.5954	14.959	-1.3043	84.261	21.2996	-302.3871	-1.2641	0.3756	1.3896
-0.7586	-1.9548	9.9683	-37.8018	11.0452	-3.532	0.4203	-0.2221	-0.2762	10.777	-2.5263	28.5292	48.1664	-456.7616	-85.3934	-0.5989	-0.1104	-0.1085	4.1809	8.1885	-2.8941	-89.1805	17.5897	58.3452	-1.2455	0.3346	1.4485
-1.1521	-1.2628	10.5531	7.8068	7.6952	2.0509	0.4143	-0.2161	-0.2702	6.7477	-8.2461	25.1676	146.4935	-427.5176	-100.1403	-0.6129	-0.1122	-0.0551	7.002	2.91	-1.9235	-118.6294	-0.2544	151.4265	-1.1939	0.3733	1.409
-0.7722	-1.899	9.2592	-0.5941	8.1723	2.9901	0.4143	-0.1981	-0.2762	-3.4903	-9.427	23.1129	144.5207	-358.2772	-64.9408	-0.6257	-0.1547	0.0535	8.1947	3.8826	-2.071	-54.3687	-19.8895	174.9588	-1.2291	0.3754	1.3901
-0.6944	-1.2641	10.3848	-10.0952	10.2178	2.2872	0.4323	-0.2281	-0.2762	-9.0865	-14.5316	10.6328	174.8042	-333.8636	-43.3295	-0.6398	-0.1397	0.1598	9.1332	2.5557	-3.7487	-25.76	-28.6886	156.9225	-1.2639	0.3912	1.406
-0.7594	-1.5524	9.9692	8.6225	9.193	2.7108	0.4143	-0.2101	-0.2642	-16.6534	-3.1182	-14.8019	312.1232	-121.907	-13.4289	-0.6246	-0.1785	0.1614	9.0049	1.4057	-4.5721	-50.0347	-28.4402	128.9256	-1.2634	0.4049	1.4408
-0.8205	-0.8626	9.8516	11.4273	8.0286	0.9275	0.4263	-0.2221	-0.2642	-18.0633	-27.9321	-4.7852	563.8532	115.5996	8.4819	-0.6099	-0.1981	0.1623	8.9671	0.8355	-3.6417	-57.4699	-23.0194	118.0783	-1.247	0.4457	1.3824
-1.0624	-1.3812	9.1957	9.4387	6.7981	1.2739	0.4143	-0.2402	-0.2702	-7.5687	-12.6732	-2.5773	-212.4213	154.473	-111.1653	-0.5948	-0.2361	0.1461	8.7111	0.4396	-2.1899	-36.831	-21.7952	105.4408	-1.2633	0.4556	1.4535
-1.0625	-1.3237	9.1958	-5.5413	8.744	2.5036	0.4083	-0.2161	-0.2522	-2.0206	-8.0826	10.3166	-558.3601	189.8812	-241.8845	-0.5951	-0.2508	0.0397	9.2973	-0.1896	-1.4222	-27.6371	-19.7669	82.3632	-1.2119	0.4611	1.3994
-1.0521	-1.4949	9.7273	-6.0602	9.2334	4.685	0.4143	-0.2221	-0.2762	-8.2767	-16.8745	13.3768	-116.564	260.1623	-113.7148	-0.5942	-0.273	0.1119	9.8814	-0.9913	-0.7717	-37.4043	-16.6157	51.3426	-1.247	0.4964	1.3951
-0.9483	-1.3815	9.1388	-8.5453	9.1871	5.3553	0.4203	-0.2221	-0.2702	-6.0305	-13.0448	13.7874	78.4202	209.5225	-111.9632	-0.6368	-0.2901	0.0945	10.5189	-0.8757	-0.2335	-38.3245	-13.2234	24.492	-1.2644	0.479	1.3967
-1.0478	-0.7468	10.0247	-16.0182	9.7783	6.2726	0.4023	-0.2281	-0.2882	-8.0018	1.195	6.2925	123.1374	234.5501	-76.0822	-0.5656	-0.3061	-0.0292	10.6939	-1.1622	-0.0561	-27.1298	-4.9279	6.5665	-1.2286	0.4905	1.4504
-0.548	-1.4977	8.9691	-16.8828	9.4788	6.475	0.4203	-0.2281	-0.2702	-9.5232	-2.2382	4.7097	124.6236	286.5526	-51.4353	-0.5507	-0.3265	-0.0105	10.4745	-0.9307	0.407	-12.651	1.2737	-14.6924	-1.2465	0.5101	1.4299
-1.6158	-1.6649	10.3658	-26.9716	6.5225	3.195	0.4203	-0.2342	-0.2762	-6.1824	-5.9673	4.1769	113.1133	312.7712	-19.6416	-0.5786	-0.3802	-0.0798	9.5084	-0.9285	0.5627	-5.0951	4.5176	-40.5865	-1.2642	0.4946	1.4132
-0.9925	-1.3798	9.847	1.6115	6.1557	3.535	0.4203	-0.2281	-0.2822	-5.3237	-3.9664	4.1393	109.8688	317.9976	13.0604	-0.5223	-0.3589	-0.1694	8.5425	-1.0985	0.7177	-3.3139	6.2394	-67.8927	-1.229	0.4593	1.4175
-0.7061	-1.6105	9.7338	-5.1368	5.4283	3.5119	0.4203	-0.2342	-0.2702	-5.0397	-5.6276	3.7259	77.9257	314.5431	36.2625	-0.5511	-0.3565	-0.2054	8.0327	-0.3511	0.9435	-2.1197	11.2052	-87.7279	-1.2112	0.4573	1.4361
-1.2775	-1.2639	10.0189	-0.9785	4.7955	3.4376	0.4203	-0.2342	-0.2582	-3.5673	-6.7156	5.1795	48.8611	314.7493	53.4819	-0.536	-0.4115	-0.2744	7.6377	-0.1776	1.1696	-3.5714	18.9162	-96.9471	-1.2637	0.4068	1.4225
-1.0498	-1.5522	9.8454	3.4493	4.8917	4.8558	0.4263	-0.2161	-0.2822	-3.2184	-7.0024	5.3049	50.4308	315.5814	75.1218	-0.5094	-0.3333	-0.3308	7.5307	1.201	1.6391	-3.8516	25.9743	-96.4005	-1.2464	0.4418	1.419
-1.3374	-1.2065	9.8997	-6.2633	4.4969	3.5644	0.4203	-0.2221	-0.2702	-2.1132	-7.6337	5.7421	48.9597	319.3639	93.8445	-0.4952	-0.3491	-0.4192	8.1118	0.8578	2.1745	-0.1745	31.8699	-83.2597	-1.2641	0.4263	1.4023
-1.0561	-1.783	9.4902	-5.4483	5.0184	4.7984	0.4323	-0.2101	-0.2822	-1.3589	-9.1234	5.814	23.5623	329.1387	106.1767	-0.4381	-0.3493	-0.4545	8.6222	1.2581	2.0695	6.9662	35.4106	-59.9876	-1.2646	0.4126	1.3675
-0.5975	-0.4039	9.5025	-5.5775	5.2319	3.3384	0.4203	-0.2161	-0.2702	-0.3077	-9.2963	6.4886	-13.0772	338.7736	116.9426	-0.4818	-0.3273	-0.4913	9.1141	1.7699	1.0313	17.0748	36.8327	-32.2756	-1.2468	0.4106	1.3861
-1.1706	-1.6101	9.5475	-7.0637	4.9319	4.5321	0.4263	-0.2342	-0.2642	1.0542	-9.9256	8.2378	-31.5998	341.7227	111.3407	-0.4534	-0.3259	-0.5447	9.3855	1.0783	0.2759	22.9662	35.085	-2.9407	-1.2291	0.4261	1.4029
-1.0519	-0.9774	9.7877	-9.3224	4.5069	4.6761	0.4323	-0.2281	-0.2642	3.7323	-11.933	9.358	-42.727	337.6054	91.8172	-0.3675	-0.3446	-0.6147	9.029	1.4206	-0.43	26.1309	33.003	27.0197	-1.2301	0.3812	1.3352
-0.8728	-1.9545	10.0251	-10.7595	6.5612	6.2177	0.4203	-0.2342	-0.2762	5.2916	-11.593	9.569	-71.0294	327.7293	80.0079	-0.3396	-0.3247	-0.6509	8.5569	1.361	-1.2563	28.4521	29.6439	52.4253	-1.2288	0.3735	1.4085
-1.1623	-1.2066	10.0213	-8.832	5.1146	8.6641	0.4323	-0.2101	-0.2822	9.1557	-8.7972	10.0702	-93.1939	323.9695	70.9752	-0.3273	-0.2461	-0.7075	8.1505	0.7865	-1.6749	30.1881	25.726	70.274	-1.2654	0.4516	1.3271
-1.3408	-1.8395	9.6618	7.7954	0.356	9.5137	0.4203	-0.2221	-0.2762	6.9981	-12.6812	11.2056	-119.0404	313.8973	73.5925	-0.2842	-0.2482	-0.6892	8.2661	0.5571	-1.6151	32.0596	22.7655	78.3479	-1.3007	0.4537	1.3082
-0.4247	-0.9793	9.4454	-1.5162	2.8305	10.9442	0.4263	-0.2281	-0.2702	4.5117	-10.3233	13.9508	-135.7109	304.8134	74.2663	-0.2575	-0.1707	-0.7278	8.1011	0.329	-1.3276	33.124	20.1706	79.1461	-1.2649	0.4653	1.3619
-1.2252	-1.3796	9.7243	11.8649	1.9637	10.4612	0.4323	-0.1981	-0.2642	4.6362	-10.2082	14.4288	-151.0995	293.7991	76.0818	-0.2443	-0.1305	-0.7828	8.064	-0.0116	-0.3379	35.393	15.7392	75.1845	-1.3007	0.522	1.3191
-0.6486	-0.9206	9.7957	14.0367	2.8415	8.0033	0.4263	-0.2221	-0.2822	5.6426	-10.3224	15.756	-156.7785	279.2991	86.1614	-0.1447	-0.1128	-0.8185	8.754	-0.7002	-0.0933	37.0755	10.1768	68.7374	-1.2835	0.5063	1.3029
-1.0551	-1.0928	9.6101	27.397	0.0977	4.5508	0.4323	-0.2402	-0.2942	6.407	-10.0938	16.5444	-178.3211	269.0703	86.6829	-0.1031	-0.0396	-0.7677	8.694	-0.9876	-0.2705	38.5453	4.7591	65.1948	-1.2651	0.5004	1.3582
-0.7599	-1.2649	9.9699	35.3796	-2.1902	5.2587	0.4203	-0.2342	-0.2762	8.4434	-9.4672	17.5973	-191.2346	262.6064	91.5185	-0.1017	-0.1148	-0.8003	8.5892	-1.789	0.1328	40.8001	-0.761	63.9754	-1.2306	0.5197	1.3386
-1.6329	-1.4945	9.4797	36.9005	-2.7453	4.7304	0.4143	-0.2101	-0.2702	9.736	-8.7237	18.9322	-197.505	269.427	86.656	-0.0176	-0.023	-0.7677	8.3513	-2.0773	-0.3981	41.5429	-5.6645	63.7898	-1.2657	0.5042	1.3215
-1.1084	-1.6097	9.785	33.6334	5.1426	8.0586	0.4143	-0.2221	-0.2642	12.4145	-6.9529	20.5354	-185.4071	281.2616	71.3196	-0.0045	0.0173	-0.8227	7.7693	-2.6524	-1.0535	40.7448	-9.7881	62.0549	-1.2824	0.5336	1.3725
-1.3175	-1.6641	10.9034	34.6214	8.4921	7.1081	0.4263	-0.2462	-0.2822	17.5027	-5.7615	21.5336	-170.7426	277.5195	48.2044	-0.005	0.0372	-0.8414	7.439	-2.9939	-0.478	40.3983	-12.9846	59.3206	-1.301	0.5064	1.3026
-0.0577	0.5898	16.7826	-3.7464	37.7089	14.128	0.4143	-0.2342	-0.2702	21.9648	-2.2839	20.3261	-155.498	265.1788	23.2082	0.0661	0.0543	-0.8416	7.606	-2.5359	-0.648	41.9727	-14.397	56.4139	-1.2487	0.5412	1.2998
-1.7962	-2.0608	12.961	50.4357	72.6081	30.7374	0.4323	-0.2342	-0.2702	25.8267	-0.2955	17.737	-174.3855	238.9447	15.3565	0.0945	0.0719	-0.8242	7.1985	-3.1106	-1.1249	42.3833	-14.0479	53.1493	-1.3	0.5513	1.3703
-0.7352	-1.0391	8.2576	87.6561	69.3299	28.0739	0.4443	-0.2402	-0.2702	28.3821	5.4761	16.5543	-195.5947	202.4473	40.0575	0.0946	0.0711	-0.8064	7.2136	-2.534	-0.3059	39.6148	-12.244	50.606	-1.3006	0.6059	1.3464
-0.1518	0.4632	11.8176	38.9538	75.3458	14.801	0.4443	-0.2582	-0.2822	23.8811	11.6687	17.0089	-194.3951	159.7482	54.7109	0.1074	0.1298	-0.8443	8.0053	-3.3398	-0.7013	33.6621	-10.5934	50.1866	-1.3007	0.6234	1.3445
-1.0151	-0.2252	11.7991	26.4005	89.9396	15.6175	0.4383	-0.2462	-0.2822	24.5201	15.3255	14.8321	-153.6901	128.9285	49.5366	0.1498	0.1815	-0.7391	8.288	-3.226	-0.8119	26.3333	-7.538	54.7653	-1.3009	0.6078	1.3281
-1.0313	0.0603	10.9723	22.0717	93.505	13.3026	0.4383	-0.2402	-0.2702	25.8367	19.6718	14.9276	-56.8524	97.9011	84.7974	0.1775	0.2029	-0.8111	8.9243	-3.1106	-0.332	20.0875	-3.0561	65.1866	-1.3015	0.5941	1.2933
-1.3299	0.232	10.4351	-10.4181	101.8662	6.3919	0.4623	-0.2522	-0.2702	37.8202	30.4213	24.7595	-139.1635	-25.815	42.1679	0.177	0.239	-0.759	9.4831	-3.0562	-0.9039	16.5776	-1.2388	77.4485	-1.3013	0.6273	1.3079
-1.9553	-0.1683	10.8356	-29.9004	105.045	1.5759	0.4563	-0.2642	-0.2642	37.2609	17.1954	21.0974	76.4171	-55.7237	-60.4965	0.1906	0.2761	-0.7426	9.5903	-3.7462	-1.3126	16.4716	-4.8342	92.229	-1.2316	0.6444	1.3072
-1.5517	-0.2265	10.8433	-51.7494	115.7542	-2.8647	0.4623	-0.2462	-0.2642	41.3845	12.2484	13.4507	202.9378	-115.7511	-68.9127	0.1912	0.2393	-0.7768	10.3739	-3.0616	-1.9944	17.7502	-7.389	108.2732	-1.266	0.6583	1.3414
-2.1487	-1.4284	12.6602	-65.3548	126.7169	-3.1723	0.4623	-0.2522	-0.2702	44.344	11.894	11.5509	258.3407	-218.9574	-100.1163	0.1917	0.2201	-0.776	11.2663	-4.0421	-3.0884	21.9788	-9.8791	121.1785	-1.3187	0.6606	1.3222
-1.6942	-1.5451	12.3143	-71.6408	139.4572	-2.458	0.4743	-0.2462	-0.2462	-8.2347	-0.0125	3.1372	170.6164	-221.9139	-185.386	0.1353	0.1665	-0.8277	11.3243	-3.9847	-3.0287	22.3491	-7.1999	121.8636	-1.2133	0.7068	1.3733
-2.4098	-2.1147	14.0124	-82.7279	155.8202	-2.1248	0.4923	-0.2342	-0.2702	-5.2319	-11.0783	25.1524	269.6376	-301.9204	-87.0631	0.1362	0.1281	-0.8262	13.3853	-4.5603	-2.6395	12.1883	-2.1148	93.5937	-1.2845	0.7325	1.297
-2.4271	-2.0521	16.1391	-95.1127	180.2194	-1.073	0.4863	-0.2281	-0.2642	4.2204	-1.6907	9.0923	237.887	-215.6167	25.4151	0.0802	0.0554	-0.8772	15.4998	-5.1366	-2.4242	13.4613	2.2695	45.164	-1.2487	0.7441	1.3507
-2.7139	-3.6543	19.0837	-80.9039	211.9163	15.299	0.5043	-0.2281	-0.2582	6.462	7.0042	9.8693	169.9557	-230.5041	15.7343	0.0235	0.0371	-0.859	15.1532	-6.7435	-2.787	15.1022	3.7959	-24.5471	-1.2313	0.7615	1.3491
-2.2352	-5.3206	19.8571	-33.4754	245.9715	35.9737	0.5223	-0.2221	-0.2582	7.9141	-1.1782	12.3174	14.6293	-133.1522	-66.679	0.0092	0.0376	-0.8591	14.5911	-7.6018	-2.4515	-6.3503	20.3727	-115.3875	-1.2843	0.7481	1.3135
-2.3502	-5.4929	19.8544	-4.3868	279.9911	48.2779	0.5464	-0.2221	-0.2522	2.9458	-6.2047	11.0761	36.7192	-8.9779	-13.9635	0.0108	-0.0223	-0.8032	13.7331	-6.6828	-2.5236	-20.7027	32.5103	-202.8117	-1.2318	0.7303	1.3162
-1.0979	-5.7199	22.0643	28.9195	319.3203	64.7223	0.5584	-0.2161	-0.2402	3.4509	-0.7749	8.1874	78.9843	-19.6939	-9.9117	-0.018	-0.0207	-0.8213	13.6829	-4.5011	-1.9917	-17.3323	39.812	-277.3431	-1.2494	0.7147	1.2995
-0.391	-7.3869	22.7239	54.1	364.7909	80.8215	0.5824	-0.2281	-0.2342	1.0705	-1.6868	7.1862	0.404	-19.316	-0.7145	-0.0032	-0.0403	-0.8204	12.9007	-3.1771	-1.0692	-11.1208	35.9994	-330.4758	-1.3009	0.6585	1.3408
-1.8334	-8.1969	19.5034	44.2141	419.9072	88.6744	0.5944	-0.2402	-0.2161	2.4298	-1.2288	8.9376	-24.3131	-11.6628	-4.7286	-0.0179	-0.0376	-0.8741	11.0959	-0.7606	0.1284	-16.4347	23.3975	-346.4516	-1.2848	0.633	1.2532
-3.85	-8.646	22.4761	-38.2427	441.4964	102.6484	0.6124	-0.2281	-0.2041	3.0649	-2.604	8.829	-35.0595	-6.3016	-2.2735	-0.0021	-0.0971	-0.836	8.3731	2.2301	1.0764	-14.5209	7.7919	-355.0295	-1.2488	0.5587	1.2979
-2.0848	-3.8141	24.8857	-128.4436	492.0701	109.9272	0.6304	-0.2342	-0.1861	3.1902	-2.8323	9.3063	-8.4864	-4.2471	0.2492	-0.0617	0.0021	-0.876	6.2613	4.0119	1.0989	-8.2293	-0.1247	-361.7147	-1.249	0.4748	1.2706
-5.0484	1.0186	24.0126	-63.7433	502.8532	163.8287	0.6424	-0.2281	-0.1561	2.2047	-2.5443	9.049	-9.1444	-3.4331	-0.8184	-0.0613	-0.0171	-0.8752	6.8248	7.6247	1.0651	-4.1952	-0.6978	-341.054	-1.3005	0.4186	1.312
-1.7869	0.399	31.8735	-93.2132	486.8051	137.9808	0.6664	-0.2281	-0.1381	2.1539	-2.429	9.4046	-4.3479	-4.5707	-5.1542	-0.0465	-0.0367	-0.8744	6.3602	12.2717	1.0145	98.1218	0.1553	-67.4437	-1.265	0.3814	1.3346
0.9799	-5.1479	46.5663	-48.837	495.2999	120.4638	0.6904	-0.2402	-0.1081	2.034	-1.9712	9.2249	-6.33	-4.6416	-2.2249	-0.0472	0.0001	-0.8402	6.6399	1.8271	-0.1264	18.1639	1.6978	119.552	-1.247	0.3442	1.3569
7.685	6.1638	21.5557	206.0768	461.0473	151.5222	0.7145	-0.2342	-0.0841	2.5591	-2.6015	9.472	-11.0353	-4.4972	-2.9099	-0.0604	-0.0393	-0.803	8.2416	3.8912	0.3216	-15.4999	12.3706	161.1222	-1.283	0.3678	1.2995
32.6331	7.2896	-17.5995	635.4484	204.419	94.7379	0.6965	-0.2642	-0.054	2.2167	-3.0583	9.5827	-2.1584	-6.0496	-5.4856	-0.0475	0.0024	-0.8938	9.2779	4.2356	0.8686	52.5031	15.4803	148.0883	-1.3347	0.3467	1.3372
20.1214	-42.381	-1.7175	296.6467	-97.9628	129.364	0.7205	-0.2882	-0.042	2.0965	-3.0013	9.3428	9.412	-6.2469	-5.4073	-0.0187	0.0008	-0.8757	9.8431	1.709	0.404	99.254	18.1618	149.8483	-1.265	0.4321	1.3473
-9.8221	0.0002	3.1201	-239.6511	-125.1397	-18.3514	0.7325	-0.2942	-0.03	2.6156	-3.117	9.3533	15.1175	-7.8655	-8.6073	-0.0612	-0.0179	-0.8574	9.8437	-0.1844	0.2804	78.1788	17.8564	164.7041	-1.3535	0.4735	1.2872
23.1324	7.7394	19.0838	-225.3572	-67.1838	19.7979	0.7025	-0.2942	-0.042	2.4414	-2.6015	9.3507	26.7693	-8.6744	-9.4354	-0.0189	0.0185	-0.8407	9.4536	0.5638	0.8003	42.6198	12.0335	171.9	-1.3186	0.4908	1.2859
3.0477	-11.7876	12.2635	44.5127	-109.1136	166.186	0.6965	-0.2882	-0.06	1.9114	-1.9144	8.8661	18.6265	-9.5205	-8.9087	-0.0322	-0.0372	-0.8742	9.3397	-0.2966	0.7366	35.2121	1.048	171.3343	-1.2658	0.5218	1.3197
12.0408	-3.997	7.2587	-6.5953	-136.7058	93.8163	0.7145	-0.3122	-0.06	2.3818	-2.2581	9.2908	6.433	-7.9063	-7.5731	-0.0749	-0.0374	-0.8389	9.9358	-0.7624	-0.8865	41.5527	-6.9644	165.5286	-1.3189	0.5435	1.2803
11.1585	0.0925	9.7329	5.9035	-202.9934	59.5891	0.6965	-0.3002	-0.06	2.2026	-2.1438	8.9904	6.583	-8.3336	-8.7541	-0.032	-0.0387	-0.8385	9.1375	-1.5644	-0.9637	39.4968	-10.1806	151.6814	-1.3022	0.5648	1.2421
7.0866	-4.563	7.2198	80.6109	-263.143	53.8854	0.6844	-0.3062	-0.066	2.2014	-2.1439	8.931	0.744	-9.0715	-6.8008	-0.0328	-0.0003	-0.8401	8.9563	-2.4267	-1.5538	28.5446	-10.5705	129.2825	-1.3019	0.6136	1.2731
6.0004	-5.5447	4.5375	55.2264	-290.8698	40.7949	0.6844	-0.2942	-0.0841	2.2678	-2.3149	9.3478	-4.1399	-8.1671	-5.0018	-0.0464	-0.0375	-0.8565	8.7137	-2.6585	-2.3179	26.3731	-10.8215	95.7113	-1.3534	0.5574	1.3145
4.203	-6.4055	3.8504	10.3357	-302.9684	35.7758	0.6724	-0.3242	-0.0841	2.4459	-2.4866	9.5887	-1.6393	-7.8703	-5.3937	-0.0614	-0.0002	-0.8224	8.8177	-2.8326	-2.8414	27.2943	-9.5654	60.9435	-1.2669	0.6134	1.2737
4.157	-6.0014	4.5004	-26.7196	-308.2904	31.9171	0.6484	-0.3062	-0.1081	2.3838	-2.6013	9.3496	3.727	-7.2577	-4.8793	-0.0464	-0.0375	-0.8565	7.4957	-2.1439	-3.3321	22.4124	-7.3309	23.7852	-1.2844	0.6642	1.2861
4.0574	-4.7341	5.4469	-54.9503	-310.4855	22.4004	0.6484	-0.3122	-0.1201	2.4925	-1.8581	9.1158	9.9277	-8.4016	-6.186	-0.0747	-0.0551	-0.8738	7.6074	-2.0871	-3.4463	13.1209	-7.6377	-6.2139	-1.3195	0.6995	1.2818
3.7389	-4.2701	6.9189	-64.8908	-311.1236	11.8688	0.6424	-0.3062	-0.1501	2.7179	-2.1454	8.8228	13.2612	-7.8159	-5.6448	-0.0752	-0.0359	-0.8746	7.2484	-1.5732	-4.2682	0.2322	-9.7219	-27.6263	-1.319	0.6625	1.3039
3.0109	-4.2086	8.0274	-69.3186	-302.2216	-4.0494	0.6184	-0.3182	-0.1621	2.228	-2.8282	10.1774	18.5306	-5.9391	-6.0036	-0.0455	-0.0597	-0.7843	6.9678	-0.826	-3.9795	-7.4472	-12.3168	-38.6769	-1.2491	0.6621	1.305
2.0825	-3.8052	7.7149	-62.3551	-297.5719	-15.5091	0.6124	-0.3122	-0.1741	2.6727	-1.915	9.4757	15.2762	-6.9321	-4.946	-0.0748	-0.0382	-0.821	6.524	-0.7656	-3.3465	-10.487	-15.2947	-40.2427	-1.2662	0.6427	1.3249
1.9738	-4.3792	8.0068	-83.0498	-296.8526	-35.8953	0.6124	-0.2942	-0.1801	2.655	-1.4588	8.6448	13.8163	-4.6599	-6.3596	-0.0897	-0.0178	-0.8397	6.4573	-0.423	-3.8132	-10.176	-16.8577	-34.158	-1.3191	0.6293	1.2893
1.6564	-3.9151	9.5379	-104.1594	-301.5114	-51.1764	0.5764	-0.3002	-0.1981	2.3824	-2.5442	9.2903	18.2394	-3.6273	-6.9512	-0.0448	-0.0973	-0.8006	6.2352	-0.5937	-3.5267	-11.8651	-14.899	-19.4549	-1.3012	0.6097	1.3098
-0.1608	-6.4387	10.6779	-112.181	-305.347	-60.7317	0.5764	-0.2882	-0.2041	2.4993	-2.2009	9.4122	28.4617	-3.1916	-5.9682	-0.0316	-0.0579	-0.8378	6.8179	-0.4776	-2.8729	-15.3263	-12.3035	-0.2606	-1.3019	0.6136	1.2731
-0.6021	-4.9403	11.8546	-111.2064	-312.7788	-64.5795	0.5584	-0.2822	-0.2101	2.7793	-1.2293	9.123	21.703	-7.4059	-5.9007	-0.0325	-0.0187	-0.8571	8.2573	-0.4199	-2.1438	-16.5452	-11.5755	22.4394	-1.301	0.6254	1.3262
-0.1831	-5.4566	12.6296	-126.8078	-309.7866	-68.4827	0.5283	-0.2702	-0.2462	2.7353	-1.972	9.7145	29.6902	-3.185	-5.2247	-0.0746	-0.0558	-0.856	7.9722	-0.4195	-2.1496	-18.6924	-8.5717	47.5311	-1.2836	0.6253	1.3265
-0.0412	-5.9136	13.9901	-144.5123	-307.214	-76.6671	0.5464	-0.2762	-0.2342	2.3862	-2.1432	9.5287	6.4311	-11.529	-0.4724	-0.0455	-0.0766	-0.8371	8.4479	-1.1626	-1.2094	-22.8309	-6.1415	70.4857	-1.2839	0.6272	1.3082
-0.1376	-5.796	14.993	-147.994	-304.9677	-86.6622	0.5043	-0.2642	-0.2582	2.129	-1.4583	8.2776	-4.5994	-17.4385	-3.4076	-0.0757	-0.0159	-0.8932	8.8557	-1.5633	-0.7944	-25.852	-2.9126	93.4683	-1.3008	0.641	1.3427
-1.2508	-5.8466	17.039	-161.5052	-298.2932	-96.5704	0.4983	-0.2462	-0.2582	1.7058	-1.2187	13.0804	-23.2421	-26.1879	5.9165	-0.1032	-0.0557	-0.8383	8.7487	-2.4226	-0.508	-25.7747	-4.457	112.4609	-1.3016	0.6799	1.3023
-4.0318	-6.6413	19.1689	-168.8642	-290.7435	-99.0616	0.4743	-0.2342	-0.2822	2.5179	-2.5425	10.3028	-28.4955	-51.1811	-1.642	-0.0735	-0.1126	-0.8715	8.5775	-3.0535	-0.5721	-34.65	-4.7543	124.9201	-1.3188	0.6781	1.3203
-6.2676	-6.3483	19.7759	-171.5776	-286.0303	-89.3341	0.4563	-0.2281	-0.2942	2.6487	-1.8029	8.2876	-12.3249	-47.1099	1.4854	-0.0885	-0.0746	-0.8553	8.2945	-3.7412	-0.5219	-41.8839	-4.0779	130.8746	-1.2844	0.7149	1.2989
-7.729	-5.7085	21.7578	-189.5655	-282.262	-70.2451	0.4383	-0.2041	-0.2882	3.0245	-1.4001	9.8404	-45.1967	-46.9994	5.9395	-0.074	-0.0765	-0.8195	7.7745	-4.545	-0.9436	-37.1577	-2.3881	129.1035	-1.266	0.709	1.3541
-10.5421	-4.2644	22.4155	-179.0608	-292.6636	-44.8829	0.3963	-0.1981	-0.2942	3.1372	-2.5398	12.4538	-66.6424	-50.9537	3.608	-0.0881	-0.0938	-0.8545	7.6563	-4.8324	-1.1804	-29.3281	-0.1231	119.0318	-1.2498	0.7342	1.2793
-12.5638	-2.3062	22.3218	-165.1428	-308.5216	-16.7945	0.3843	-0.1981	-0.3062	3.7295	-2.1961	13.2982	-57.2609	-27.7831	-24.0055	-0.1038	-0.0189	-0.8041	7.6076	-5.0603	-0.7739	-24.4654	2.9472	100.9399	-1.2667	0.7305	1.3156
-15.6203	-1.2084	22.2649	-163.2812	-308.3804	-0.8546	0.3722	-0.1981	-0.2882	3.2964	-3.2284	11.6835	-37.4683	-29.4181	-29.1269	-0.1043	0.0011	-0.8228	7.7122	-5.5787	-1.2987	-19.7503	6.7077	79.4179	-1.2312	0.744	1.351
-18.8694	0.2324	21.2007	-150.4319	-289.4267	-1.485	0.3422	-0.1681	-0.2942	3.4539	-4.2035	10.7938	-0.9666	-70.9239	-39.0687	-0.1324	-0.018	-0.8044	7.7104	-5.1773	-1.3556	-14.1027	10.6524	57.4176	-1.2323	0.7673	1.2941
-22.5702	2.7677	20.7212	-157.3112	-251.2363	-18.7906	0.3362	-0.1621	-0.2942	3.646	-3.8013	11.8083	2.6249	-91.2591	-15.2744	-0.1323	-0.0188	-0.7865	7.3664	-5.464	-1.4802	-11.4117	13.7902	39.1486	-1.2494	0.7655	1.3122
-25.5673	3.5206	20.7237	-131.6617	-195.838	-29.161	0.3122	-0.1741	-0.2762	4.6462	-3.2865	12.8991	-6.6389	-103.6314	-21.688	-0.1179	-0.02	-0.7685	7.881	-4.8334	-1.3509	-8.227	15.1141	28.1512	-1.2494	0.8162	1.3249
-32.7841	4.5598	16.9815	-91.2769	-134.6901	-37.5685	0.2882	-0.1741	-0.2702	3.761	-3.172	11.8714	23.9436	-106.6712	-42.7822	-0.1193	0.0383	-0.7887	7.9378	-4.6614	-1.3491	-2.0684	15.57	25.4831	-1.1974	0.7847	1.2929
-32.1773	4.9148	21.6617	-146.9644	-8.6455	-47.2315	0.2942	-0.1441	-0.2642	3.5762	-3.1727	11.2736	33.5622	-117.4497	-44.7798	-0.1738	-0.0927	-0.8195	8.7999	-4.5468	-0.9814	2.737	14.7681	31.1274	-1.2498	0.7849	1.292
-35.6549	11.5317	21.1966	27.6723	44.154	-32.6911	0.2942	-0.1561	-0.2762	3.6957	-2.9436	11.5141	28.0297	-127.4482	-39.6251	-0.2038	-0.0174	-0.7692	9.0868	-4.2026	-0.8577	7.3921	11.215	39.0999	-1.1975	0.8022	1.291
-38.5777	12.4016	22.087	102.8844	117.122	-32.7887	0.2762	-0.1561	-0.2702	3.5338	-2.5986	12.1054	22.9848	-134.2598	-42.1024	-0.1749	-0.0198	-0.7333	9.5372	-4.0897	-1.14	13.723	9.2051	45.2951	-1.2672	0.7675	1.2936
-45.062	12.3592	23.4376	224.7927	197.1975	-64.997	0.2822	-0.1621	-0.2822	3.0171	-2.5399	12.2137	-3.1647	-153.9986	-39.2882	-0.2307	-0.0772	-0.6957	10.3306	-4.4935	-1.4172	22.5127	8.0613	48.7848	-1.2332	0.7731	1.2392
-30.5778	10.9266	12.4317	364.0376	296.1823	-91.3843	0.3062	-0.1741	-0.2762	3.2897	-2.4277	11.4474	-6.5121	-157.7337	-35.6547	-0.2609	-0.0172	-0.734	11.692	-4.8986	-1.7997	30.8487	6.5843	50.8564	-1.2329	0.8726	1.283
10.3969	0.3943	15.1544	369.1083	317.954	50.9113	0.3242	-0.2041	-0.2762	4.0451	-1.9709	11.8203	-7.5937	-159.5275	-35.4724	-0.2458	-0.0391	-0.6795	14.2808	-5.3003	-0.641	32.2736	0.1585	44.5737	-1.2496	0.8513	1.3212
-0.7492	-0.099	16.7084	182.466	255.0993	-85.3144	0.3422	-0.2281	-0.2942	4.2206	-3.7399	14.6118	-55.045	-202.4938	-16.0618	-0.3025	-0.0574	-0.6613	18.176	-5.9344	0.2515	2.4605	-9.3148	-3.7984	-1.2508	0.8415	1.2498
-8.4728	13.5219	8.7332	105.5044	207.1354	-27.3932	0.3662	-0.2281	-0.3062	3.7235	-2.7004	18.702	-111.8766	-252.98	-24.4732	-0.3454	-0.0569	-0.6438	19.1459	-7.6573	0.1479	-36.9394	-33.5335	-70.7615	-1.2151	0.8199	1.2888
-0.3119	-0.8648	9.3297	35.0516	167.8442	43.3159	0.3903	-0.2342	-0.2942	4.6058	-8.717	15.9756	-36.1758	-250.6433	-89.0895	-0.346	-0.02	-0.6096	15.6699	-8.7989	0.1324	-69.0824	-54.4587	-142.3068	-1.2324	0.8356	1.305
-2.185	1.2699	11.0118	-1.1669	126.7343	35.5386	0.3963	-0.2402	-0.2822	8.0952	-13.4163	16.988	4.1935	-283.585	-128.1431	-0.3735	-0.076	-0.6254	12.7803	-8.5613	1.067	-71.6926	-56.5717	-217.8251	-1.2326	0.8199	1.2886
0.6905	-2.2439	10.4094	54.2586	140.3945	31.6754	0.4023	-0.2342	-0.2762	6.7493	-10.8334	19.1633	2.7887	-333.5286	-139.2565	-0.3732	-0.0613	-0.519	10.2376	-6.2004	2.4246	-13.3372	-51.0248	-269.2142	-1.2663	0.711	1.3358
-2.8229	-3.2005	16.424	1.5091	131.9483	44.2914	0.4083	-0.2462	-0.2822	4.2571	-13.6909	18.0963	62.9856	-351.7875	-187.0866	-0.415	-0.1007	-0.4642	8.043	-4.0216	1.1636	46.9319	-25.433	-294.916	-1.2839	0.7286	1.3337
-1.2951	-8.3393	8.406	-93.1114	38.2429	2.3929	0.4143	-0.2402	-0.2822	5.0603	-10.8825	21.1478	68.7527	-404.787	-215.6836	-0.4428	-0.1382	-0.4629	6.7843	0.617	-1.5863	37.8082	0.6041	-365.3965	-1.2486	0.6758	1.3398
1.6933	1.2076	11.9735	138.9543	-3.8179	7.2755	0.4263	-0.2402	-0.2882	4.4446	-3.7811	22.9317	134.2696	-429.1893	-241.3188	-0.5285	-0.1211	-0.3572	7.316	2.6748	-3.3764	19.1168	14.6747	-446.5345	-1.2303	0.586	1.3678
-1.4606	1.4883	6.7135	24.9969	12.5089	8.5551	0.4203	-0.2402	-0.2702	8.3774	4.9747	27.6044	43.3134	-456.7868	-174.5752	-0.5121	-0.2005	-0.3005	8.6512	5.1338	-4.8572	6.7066	15.6032	-456.6443	-1.2477	0.5178	1.3566
-1.4513	-3.8514	9.7138	-59.215	12.2212	-1.9978	0.4203	-0.2522	-0.2822	7.1598	1.2047	29.6503	104.7481	-431.6063	-190.5058	-0.54	-0.205	-0.1757	10.8396	12.698	-6.0107	-30.9502	13.3198	-336.4415	-1.2826	0.4497	1.3452
-1.7859	-0.054	10.6619	30.8312	3.0762	5.1556	0.4143	-0.2402	-0.2762	10.9475	-2.235	31.3249	203.3237	-410.1069	-119.0606	-0.5802	-0.3203	-0.1357	9.2688	12.0062	-7.678	-60.0647	4.3502	22.5617	-1.2119	0.4104	1.3867
-1.0779	-0.9231	8.4284	-0.0471	4.4291	-1.8037	0.4203	-0.2342	-0.2822	4.7541	-9.149	29.1041	176.587	-387.5315	-114.9374	-0.5792	-0.3433	-0.0456	9.5532	5.3026	-5.3635	-18.0394	-16.269	198.7536	-1.2302	0.3987	1.3333
-0.9379	-1.5528	9.6703	-11.8829	4.3562	1.5343	0.4263	-0.2402	-0.2822	-2.3598	-14.87	21.343	209.5881	-359.4702	-81.3698	-0.6076	-0.344	-0.0101	10.0378	2.4955	-4.1391	-13.0712	-21.8652	235.991	-1.3172	0.448	1.3629
-0.6456	-0.6902	9.9736	7.0945	3.8364	0.9783	0.4383	-0.2342	-0.2762	-14.6391	-9.1565	1.6202	245.7256	-323.0663	-8.3002	-0.5924	-0.3666	0.0622	10.452	0.9483	-3.4948	-66.1761	-18.2182	227.4277	-1.2297	0.4807	1.3789
-1.0614	-0.691	9.3156	14.4092	3.8707	1.8073	0.4323	-0.2402	-0.2882	-20.1369	-1.0572	-18.7302	693.1741	-62.252	104.1316	-0.6347	-0.3861	0.0983	10.5802	0.7212	-2.7931	-70.8799	-17.4844	223.6637	-1.2651	0.5004	1.3582
-1.0572	-1.1505	9.4918	-4.6087	5.0877	0.4464	0.4143	-0.2462	-0.3122	-27.1839	-46.3379	-4.952	399.6389	78.0887	53.6397	-0.6057	-0.3892	0.1521	9.5093	-0.1355	-2.2344	-47.308	-19.1547	207.6914	-1.2641	0.5277	1.4277
-1.0532	-0.92	9.7287	-2.9372	4.8965	0.6792	0.4203	-0.2281	-0.2762	-8.2482	-10.8958	-1.7561	-422.3917	103.4561	21.8373	-0.6218	-0.3282	0.0783	9.3958	-1.2255	-2.299	-44.3639	-16.7668	174.109	-1.2652	0.5686	1.369
-1.1785	-0.921	9.1945	-5.808	5.3262	1.6362	0.4323	-0.2402	-0.2822	-4.0289	-7.1037	10.8712	-653.8257	105.3024	-168.3523	-0.5923	-0.3674	0.08	9.6473	-1.5658	-1.1285	-41.6794	-7.4251	126.74	-1.2663	0.6095	1.3103
-1.1077	-1.3796	9.8447	-11.9218	5.7035	1.543	0.4143	-0.2342	-0.2942	-12.0039	-19.2678	14.0078	-0.3631	100.2955	68.3814	-0.6207	-0.3681	0.1155	10.5693	-2.4836	-0.7051	-39.3684	1.9536	77.6715	-1.2304	0.6035	1.3659
-1.0503	-1.2647	9.8461	-10.3576	6.1599	1.9652	0.4203	-0.2402	-0.2702	3.3257	-8.4919	12.5047	-49.3147	140.2166	-32.3599	-0.6064	-0.3846	0.045	11.1615	-3.3412	0.3536	-32.0892	7.7506	35.4755	-1.2837	0.6428	1.3247
-1.051	-1.4948	9.7864	-9.9805	5.9057	3.4799	0.4083	-0.2462	-0.2702	-4.9126	-0.4691	7.8376	23.9522	196.5684	39.0676	-0.5787	-0.3464	0.0258	10.8874	-3.1093	0.9323	-31.9495	11.7748	3.1634	-1.3001	0.6196	1.3812
-1.1639	-1.5518	9.9023	-17.2079	6.8525	4.1187	0.4203	-0.2342	-0.2762	-7.1734	-4.6436	6.6538	67.8218	251.3002	39.3482	-0.6081	-0.324	-0.0288	9.6369	-2.8196	1.1416	-29.68	14.841	-30.119	-1.301	0.6761	1.339
-1.1604	-1.0338	10.1399	-7.5395	7.1297	6.1122	0.4323	-0.2342	-0.2642	-2.9542	-7.1141	6.9732	76.9607	285.3795	39.0764	-0.5787	-0.3633	-0.027	7.9314	-1.9552	1.4606	-26.3359	18.3602	-61.4122	-1.2832	0.6058	1.3467
-0.7569	-1.6671	10.0872	-11.7284	7.5456	5.2097	0.4083	-0.2402	-0.2882	-2.4809	-6.9481	4.7263	90.3017	306.835	51.8684	-0.5953	-0.2815	-0.1373	6.9534	-0.9224	1.0948	-17.5437	21.6907	-86.5647	-1.2646	0.6155	1.4184
-1.6759	-1.55	10.2468	-14.9801	7.6707	2.6049	0.4263	-0.2281	-0.2822	-2.9774	-7.5801	2.8735	57.3103	319.2664	54.8436	-0.5811	-0.2981	-0.2079	5.8686	-0.175	1.0758	-7.8503	26.5829	-100.1894	-1.2134	0.6229	1.346
-1.0991	-1.7811	10.2575	0.473	5.8026	2.798	0.4323	-0.2342	-0.2942	-4.3693	-8.0928	2.3685	-8.8951	328.921	56.7849	-0.5515	-0.3542	-0.2589	5.4059	0.2836	0.7765	-2.8117	29.3867	-103.5721	-1.2481	0.588	1.3491
-1.0581	-1.3232	9.4322	9.3747	5.5636	5.3257	0.4263	-0.2342	-0.2702	-3.1271	-7.8636	3.9983	-68.4358	345.7226	62.294	-0.4959	-0.2953	-0.3322	6.0415	0.112	1.1969	0.2921	31.0483	-95.8758	-1.2832	0.5551	1.334
-1.0463	-1.6092	10.0226	7.7396	5.2003	4.5092	0.4083	-0.2402	-0.2882	-3.0272	-5.6844	6.3807	-93.6793	347.725	74.9196	-0.5101	-0.3118	-0.3852	6.7719	0.6252	0.6885	0.5598	31.1987	-76.7246	-1.2653	0.5355	1.3545
-1.1039	-0.9766	10.0821	4.9289	5.7798	5.3131	0.4263	-0.2281	-0.2762	-2.4799	-6.656	7.6967	-82.2589	349.2908	86.891	-0.54	-0.2703	-0.4405	6.7194	0.6261	0.9208	-0.6767	32.1873	-49.1037	-1.3008	0.5395	1.3172
-1.1113	-1.265	9.6677	6.3816	6.116	5.1271	0.4203	-0.2221	-0.2702	-1.353	-6.4266	9.324	-96.4094	340.8081	94.9011	-0.4262	-0.2523	-0.4939	7.5024	1.0237	0.1796	4.467	32.7457	-17.4962	-1.2826	0.5005	1.3579
-1.2824	-1.0344	9.7831	1.9715	5.9302	4.4096	0.4443	-0.2281	-0.2942	-0.4165	-6.3702	10.0562	-104.7045	332.0794	101.2489	-0.4419	-0.1935	-0.5142	7.8426	0.7933	0.0689	10.8916	30.0934	14.6046	-1.2138	0.541	1.3004
-0.7146	-1.2666	9.3209	8.2158	5.8794	3.4338	0.4263	-0.2402	-0.2762	0.1186	-6.7133	10.8386	-100.4281	323.954	103.212	-0.4147	-0.1353	-0.552	8.3535	0.1609	-0.0982	12.9718	26.2945	42.593	-1.2654	0.5023	1.3399
-1.0489	-1.437	9.9048	-7.1912	7.0674	1.9544	0.4323	-0.2462	-0.2762	0.7071	-7.7439	11.3238	-115.4541	322.5959	100.0416	-0.4296	-0.1311	-0.6414	7.6623	-0.6426	-0.5233	12.287	23.1605	67.4157	-1.2836	0.5238	1.3011
-1.1124	-1.2651	9.6086	-2.9355	6.3139	3.2499	0.4323	-0.2342	-0.2822	1.8282	-7.5723	12.6539	-145.5512	325.204	98.028	-0.373	-0.1121	-0.6774	8.2316	-0.7011	-0.5704	13.3594	19.2905	89.7755	-1.3008	0.5903	1.33
-1.1682	-1.6674	9.6656	0.7041	6.6799	2.7974	0.4263	-0.2342	-0.2942	3.0392	-6.0239	15.7707	-146.5511	320.0777	108.8703	-0.3172	-0.0547	-0.715	8.3516	-0.8149	-0.2768	14.2253	14.3266	107.5462	-1.2833	0.5726	1.3321
-1.2251	-1.4371	9.7241	-1.3945	6.397	1.9316	0.4263	-0.2342	-0.2882	2.8282	-8.2539	16.4744	-131.8644	324.9353	106.4185	-0.2608	-0.018	-0.7161	8.2917	-1.217	-0.4544	13.2519	9.4227	118.0531	-1.2668	0.5958	1.2756
-1.395	-1.2639	9.8985	10.8782	3.7466	2.6856	0.4323	-0.2342	-0.2762	3.1517	-9.0525	18.1425	-131.9253	313.2118	112.6347	-0.2487	0.0621	-0.8084	9.2657	-1.8489	-0.2622	14.7438	4.3119	124.0073	-1.3198	0.6	1.2381
-0.6501	-1.3233	9.6765	11.1729	1.1955	2.6027	0.4143	-0.2402	-0.2762	5.0686	-10.1433	18.7737	-141.626	295.2503	108.1888	-0.2327	-0.0151	-0.8052	8.8707	-3.1099	-0.1581	19.812	-3.9016	123.9489	-1.2499	0.6835	1.2665
-1.164	-1.4943	9.9024	14.7892	-2.355	1.4571	0.4323	-0.2402	-0.2822	6.9839	-10.5473	19.4063	-159.4582	290.1473	108.7155	-0.1627	0.0588	-0.7898	8.6402	-3.7411	-0.34	23.035	-9.4876	114.0222	-1.2663	0.6603	1.3231
-1.5079	-1.3209	10.0143	20.5343	-5.1665	0.8741	0.4203	-0.2402	-0.2822	10.5931	-10.2091	21.2632	-160.479	292.1479	111.6223	-0.0912	0.0574	-0.8071	8.07	-4.6009	-0.4129	24.1235	-13.3086	94.3297	-1.3022	0.6662	1.2675
-1.0467	-1.3793	10.0231	25.4727	-4.3265	2.4367	0.4263	-0.2462	-0.2762	15.2634	-7.8102	24.5718	-149.8264	297.4066	110.3754	-0.0924	0.115	-0.8094	7.7789	-5.1753	-0.7709	27.5841	-16.2406	65.246	-1.267	0.6817	1.2846
-1.5694	-1.6664	9.7759	29.3428	-1.0579	-3.7703	0.4323	-0.2462	-0.2882	22.2267	-8.1144	24.0613	-113.7673	291.1946	98.6811	-0.0369	0.19	-0.812	7.3193	-5.2326	-0.9553	31.4311	-17.251	32.9067	-1.2666	0.7129	1.3175
-1.9938	-2.6961	11.5967	4.7256	6.7081	-1.5406	0.4383	-0.2582	-0.2702	29.0496	-5.9021	22.6028	-88.1029	279.7168	74.519	0.0063	0.1711	-0.8466	7.3807	-5.8057	-0.7811	34.3738	-15.7076	2.8407	-1.2322	0.699	1.2833
0.6981	5.542	20.6499	-27.891	62.3222	-1.4645	0.4263	-0.2462	-0.2942	53.0496	2.0104	30.7163	110.2743	208.2733	38.0985	0.0339	0.2263	-0.813	7.3697	-5.406	-1.3049	36.6045	-12.6032	-14.1621	-1.2148	0.7165	1.2817
-2.1568	-3.2121	12.0649	48.6843	99.1666	17.0506	0.4263	-0.2402	-0.2762	30.8199	2.4092	2.6402	-90.6226	258.2026	61.0338	0.0622	0.2277	-0.8663	7.8863	-3.857	-0.9972	35.4735	-3.7087	-17.7082	-1.2671	0.6992	1.2827
-0.535	-1.266	9.6789	42.92	90.2731	11.7091	0.4383	-0.2402	-0.2702	45.0244	10.7805	-0.6729	-129.0885	164.3946	94.1679	0.0761	0.2465	-0.867	8.3479	-3.5698	-0.6952	32.998	5.1732	-7.5403	-1.2315	0.6776	1.3218
-0.6972	0.123	13.4013	-3.4299	100.0509	7.7064	0.4383	-0.2402	-0.2822	44.3034	15.8513	15.7753	-152.6964	54.3463	89.5377	0.09	0.2652	-0.8676	9.1467	-3.8005	-0.6801	22.8155	13.0816	13.5106	-1.2487	0.6933	1.338
-1.0478	-0.9696	13.0373	-0.7286	119.7598	9.6151	0.4563	-0.2522	-0.2822	38.3407	23.883	18.2825	-147.7258	-39.4503	26.7442	0.1886	0.339	-0.8699	10.231	-3.5152	-0.599	13.0486	15.5401	41.2983	-1.2665	0.6954	1.3193
-0.853	-1.0895	11.1502	-32.5525	136.6417	7.161	0.4443	-0.2522	-0.2762	45.9352	26.4564	26.6409	42.6703	-99.2861	0.6503	0.1169	0.3581	-0.8177	10.5573	-3.576	-1.4093	8.8433	14.2479	71.02	-1.2673	0.7343	1.279
-1.3014	-1.2596	11.7909	-70.4196	149.0313	3.5161	0.4623	-0.2402	-0.2582	50.6026	20.5374	20.1319	220.1567	-147.8965	-65.9974	0.1456	0.3403	-0.8703	11.4668	-4.6108	-1.6282	9.6962	7.1004	96.3402	-1.2496	0.7498	1.2957
-1.5665	-0.9687	13.0272	-95.0959	163.9391	2.7681	0.4623	-0.2522	-0.2822	19.9117	7.9525	14.0091	409.8365	-237.125	-154.5815	0.1193	0.2437	-0.8309	11.4526	-5.0151	-2.3883	15.3372	-4.3896	107.4828	-1.2328	0.7536	1.2594
-2.2094	-1.7665	15.4942	-112.368	183.7929	8.7022	0.4863	-0.2281	-0.2762	-5.4209	-7.3244	13.2772	368.048	-269.8455	-218.9301	0.0892	0.3036	-0.8692	13.0408	-5.3061	-2.8241	9.0674	-11.681	89.2548	-1.2326	0.7692	1.2758
-1.6024	-2.6264	17.0401	-102.689	207.6258	14.5837	0.4803	-0.2281	-0.2642	0.5551	-5.3887	15.5426	287.9894	-192.2847	-37.4258	0.0206	0.1545	-0.9172	16.5143	-5.4273	-3.0466	16.0943	-7.1291	41.7615	-1.2147	0.8004	1.309
-1.2575	-4.1725	19.8789	-85.8011	238.2442	26.7668	0.5163	-0.2342	-0.2702	7.5406	7.5609	3.3592	118.0823	-182.8075	-31.9322	-0.0352	0.081	-0.9503	17.557	-6.9752	-2.3314	17.4173	1.0784	-43.2006	-1.2332	0.7731	1.2392
-1.9362	-6.9875	20.2724	-23.2138	272.3399	48.0815	0.5283	-0.2281	-0.2762	3.633	-3.0642	8.3646	-1.2242	-131.7726	-67.7011	-0.0771	0.0424	-0.9134	14.8963	-9.4348	-1.5771	2.2916	7.7132	-143.3159	-1.2678	0.8221	1.2697
-1.51	-7.1579	21.4619	22.6955	308.6093	65.1477	0.5524	-0.2221	-0.2642	3.0854	-3.7354	15.4794	-23.854	-39.2662	-13.3738	-0.1213	0.1012	-0.916	13.4816	-8.5124	-0.9604	-28.213	19.4634	-231.492	-1.1974	0.7847	1.2929
-0.9672	-9.3411	22.5306	70.1799	349.6767	83.9141	0.5584	-0.2402	-0.2522	3.3187	-0.1466	7.4139	45.018	-21.3451	8.8705	-0.0929	0.1019	-0.9515	13.1843	-5.8747	-1.365	-36.4521	26.6104	-297.038	-1.2323	0.7166	1.2814
-1.4898	-9.0531	22.3439	112.4581	383.2578	95.5623	0.6004	-0.2342	-0.2462	2.3172	-1.1195	6.2033	11.031	-14.4963	14.493	-0.0778	0.08	-0.897	12.0475	-2.4294	-0.9086	-7.7866	30.9241	-354.4407	-1.2853	0.7207	1.2439
-5.473	-10.7576	27.8158	94.2051	427.2745	113.7207	0.6064	-0.2342	-0.2221	1.6202	-2.6582	8.621	-66.3125	-14.8394	0.5466	-0.0911	0.0405	-0.8599	9.7944	-0.0107	0.6884	10.521	24.8552	-405.7727	-1.215	0.5994	1.2398
-5.6003	-8.2358	24.3927	19.4761	481.4165	134.5965	0.6184	-0.2462	-0.2041	2.6905	-2.3713	10.3067	-67.3397	-12.5775	6.9784	-0.1066	0.0816	-0.9151	7.0086	1.7166	1.2222	-1.1737	9.8264	-447.2247	-1.3006	0.5044	1.321
-3.0966	-6.9647	28.9349	-43.7664	498.2437	144.6901	0.6364	-0.2582	-0.1801	2.9464	-1.2875	8.8293	-14.1612	-3.2575	-0.3607	-0.1216	0.1197	-0.8989	5.5269	6.826	1.6778	12.1579	5.0325	-461.7545	-1.2485	0.4553	1.2908
1.9358	-6.2383	24.0128	-1.3403	510.6661	185.6551	0.6724	-0.2522	-0.1621	2.2588	-3.0027	8.8116	-38.6812	-6.4668	-6.6684	-0.1214	0.1181	-0.8632	5.8065	19.1612	2.4285	172.4162	7.6955	-347.3498	-1.2307	0.385	1.2985
-1.7698	-4.6953	41.3736	-67.0179	514.5444	157.8077	0.6844	-0.2642	-0.1381	2.1518	-3.0016	9.2252	-13.0688	-5.1853	-6.1995	-0.1074	0.12	-0.9167	4.0451	4.6376	-1.3931	106.4556	12.1839	61.6455	-1.2832	0.3522	1.2831
5.2395	-8.1392	49.1235	12.121	511.6168	174.5832	0.7025	-0.2582	-0.1081	2.3762	-2.4304	8.9934	-19.2009	-6.0857	-1.0067	-0.1351	0.0817	-0.8975	6.8589	2.571	-0.5276	-105.4351	28.5332	152.4462	-1.2661	0.3715	1.2632
20.9272	11.5799	12.5512	435.7592	370.9879	127.609	0.7265	-0.2822	-0.0841	2.6747	-2.7163	9.4741	-18.7722	-5.0989	-3.7063	-0.107	0.1008	-0.9159	9.3884	5.784	0.8181	-58.7515	27.7074	152.2298	-1.2305	0.4007	1.315
60.0156	-20.8142	-16.3665	919.3321	5.9655	95.3753	0.7145	-0.2942	-0.054	2.3384	-2.7717	9.9422	-15.3797	-6.5658	-4.4678	-0.0925	0.0989	-0.8801	10.6954	2.9695	0.3674	82.6261	27.3619	149.0264	-1.3183	0.4382	1.2915
-2.6463	-22.113	-6.4246	-99.008	-128.9914	71.3565	0.7265	-0.3242	-0.024	2.7392	-3.1164	9.7716	3.6002	-7.68	-6.1224	-0.1071	0.1016	-0.9338	11.0254	0.5568	-0.4515	123.4257	29.8929	163.2194	-1.2664	0.4242	1.2576
9.0692	0.5042	11.9974	-200.0743	-58.7986	-130.5949	0.7085	-0.3302	-0.048	2.1454	-2.3153	8.9889	16.3175	-10.4496	-5.0378	-0.1203	0.0613	-0.8788	11.0332	-0.8189	-0.1647	62.268	30.6352	153.3762	-1.2492	0.5099	1.2669
4.7111	-4.3661	15.6227	-103.7564	-66.2884	73.8472	0.7145	-0.3062	-0.048	2.2029	-2.2582	8.9902	11.2505	-10.2915	-7.4528	-0.092	0.0797	-0.8793	10.3492	-0.3014	-0.1182	20.6608	15.0861	142.5227	-1.3196	0.5649	1.2418
6.3392	-11.4549	9.6698	38.6063	-75.628	59.8012	0.7085	-0.3062	-0.06	2.378	-2.6592	9.0523	11.6767	-10.7243	-8.4481	-0.0934	0.138	-0.8995	9.4188	-1.2787	-1.1321	29.0522	-4.3875	133.1141	-1.3029	0.5355	1.1908
12.9426	1.5266	9.7712	-43.9853	-124.0079	27.3257	0.7145	-0.2882	-0.054	2.6124	-2.7738	9.2351	16.6834	-11.3301	-8.79	-0.1209	0.082	-0.9153	9.1137	-1.7409	-2.1898	40.2184	-12.7096	114.9115	-1.285	0.5666	1.224
8.6357	-3.4092	10.0297	79.7862	-206.4401	17.22	0.7025	-0.3122	-0.066	2.2537	-1.9156	8.695	16.466	-11.5988	-9.6908	-0.1224	0.1573	-0.8826	8.9395	-2.6592	-2.43	27.5228	-12.6406	85.7161	-1.2674	0.5997	1.2389
5.5842	-5.4809	6.8928	83.9548	-254.2383	13.7927	0.7145	-0.3062	-0.072	2.5584	-2.3154	9.4725	16.0874	-10.3666	-9.1444	-0.1349	0.064	-0.9325	8.5338	-2.1434	-2.7279	15.6925	-11.9892	47.7941	-1.3196	0.6156	1.2545
4.2086	-6.4048	4.146	71.0213	-283.4801	26.4481	0.7025	-0.3062	-0.0961	2.5516	-2.4305	9.1158	13.0043	-8.8145	-8.0103	-0.0919	0.0789	-0.8614	8.4588	-1.6301	-3.6025	19.0512	-10.4572	11.681	-1.2493	0.5957	1.2759
2.7862	-7.0972	1.9896	17.8072	-300.4678	35.1813	0.6904	-0.3302	-0.1261	2.2024	-2.5445	8.9302	8.6935	-6.9676	-6.317	-0.1068	0.0831	-0.9509	7.6108	-1.3405	-3.2101	16.7196	-9.9516	-17.5731	-1.2852	0.6525	1.233
4.5979	-5.4296	3.506	-49.9573	-313.3446	32.6974	0.6724	-0.3242	-0.1201	1.8561	-2.372	8.9234	9.9163	-5.701	-5.829	-0.1355	0.1009	-0.8983	7.6039	-1.2844	-3.5601	5.3046	-8.0636	-38.5638	-1.3194	0.6312	1.271
4.4239	-4.3871	6.5775	-83.7302	-325.5291	23.3189	0.6664	-0.3362	-0.1141	2.379	-2.0866	9.1723	8.5485	-4.9076	-6.435	-0.1056	0.0425	-0.8957	7.3337	-0.65	-2.7465	-6.3338	-7.9335	-50.1364	-1.2849	0.5998	1.2386
3.4144	-3.6343	8.0958	-83.77	-336.3484	11.6031	0.6604	-0.3122	-0.1561	2.7285	-2.6023	9.2973	18.4746	-2.6175	-7.0872	-0.1336	0.0065	-0.9302	6.9313	-0.0762	-2.8692	-14.2517	-8.1434	-55.1027	-1.2672	0.6153	1.2554
3.2516	-4.8403	8.5032	-79.1199	-343.9852	-4.5699	0.6604	-0.3182	-0.1801	3.0111	-2.718	9.0059	26.0634	-1.6723	-7.0571	-0.1494	0.0652	-0.9504	6.3522	0.4395	-3.2872	-20.48	-8.378	-54.0289	-1.2492	0.5782	1.2777
2.4085	-4.8936	9.6092	-83.6333	-349.6321	-16.9383	0.6304	-0.3062	-0.1861	2.9572	-2.3168	9.2432	31.2369	0.1128	-7.1398	-0.1344	0.0602	-0.8432	6.7009	0.6697	-2.9294	-24.6544	-8.6947	-48.4351	-1.2665	0.5432	1.2812
2.9488	-4.4318	10.8025	-90.0794	-353.0215	-35.8034	0.6184	-0.3062	-0.2041	2.3298	-2.1429	9.587	38.0421	0.1552	-8.2391	-0.1488	0.0614	-0.8611	6.4214	0.7285	-2.6431	-29.7334	-10.7306	-35.257	-1.3014	0.5258	1.2824
3.1842	-4.6042	11.043	-82.8884	-354.5876	-53.188	0.5944	-0.3122	-0.2221	3.035	-3.2881	10.1337	25.0244	-9.8712	-9.7995	-0.149	0.0629	-0.8969	6.8828	0.3271	-2.402	-29.7324	-11.2173	-18.9618	-1.2668	0.5958	1.2756
0.9553	-5.6905	11.8832	-106.3936	-346.2649	-69.1276	0.5584	-0.3062	-0.2402	2.6096	-2.0872	9.1771	34.1671	-11.5804	-19.8205	-0.1916	0.045	-0.8964	7.6909	0.7293	-1.8593	-28.6847	-11.0407	0.9672	-1.2671	0.5471	1.2445
-1.4947	-6.3726	13.2517	-119.0037	-339.3427	-76.8009	0.5464	-0.2822	-0.2462	2.0587	-1.1616	13.4441	22.1217	-41.174	-1.6226	-0.1473	-0.0138	-0.8938	8.3246	0.3278	-1.5564	-28.7642	-11.6398	23.2057	-1.2663	0.5588	1.2976
-0.663	-5.7959	14.6282	-145.126	-333.1074	-91.0403	0.5343	-0.2882	-0.2702	2.9866	-3.1726	10.6081	43.5895	-59.8124	-29.1575	-0.1348	0.0633	-0.9146	8.5577	0.0988	-1.3193	-32.039	-11.5034	49.1317	-1.2498	0.6152	1.2557
-0.3568	-7.1169	15.4581	-167.2908	-329.7302	-97.7996	0.5223	-0.2702	-0.2642	2.643	-2.3759	7.9299	60.6131	-51.6611	-14.4054	-0.1481	0.0238	-0.8775	8.5685	-0.2435	-0.7953	-35.8313	-10.8784	76.8342	-1.2663	0.5588	1.2976
-2.3189	-6.4739	18.3755	-184.6608	-325.6106	-105.9513	0.4863	-0.2642	-0.2882	3.6023	0.0297	10.0929	8.3009	-55.4554	-17.251	-0.2039	-0.0328	-0.8577	9.1993	-0.9898	-0.6687	-39.7093	-10.5616	104.5865	-1.3021	0.598	1.2567
-3.6135	-6.8127	19.9447	-178.8031	-324.1667	-97.244	0.4743	-0.2642	-0.3182	4.5221	0.8344	12.9645	-4.9603	-43.285	-31.8193	-0.1192	0.0053	-0.9122	8.7853	-1.7952	-1.4966	-41.9388	-8.2759	132.3575	-1.3015	0.5941	1.2933
-6.8168	-6.4589	21.1829	-183.9065	-318.4705	-73.8535	0.4623	-0.2402	-0.3122	4.8528	-3.6901	11.6552	-23.2182	-27.3648	-41.8201	-0.1338	0.0241	-0.8952	8.2309	-2.4226	-0.7517	-39.0221	-4.4401	153.783	-1.2677	0.6016	1.2206
-8.9377	-5.9362	21.7928	-197.8847	-316.6626	-36.9692	0.4143	-0.2281	-0.3242	1.791	-3.2312	8.4451	-6.7018	-66.5476	-13.0276	-0.1625	0.025	-0.8954	8.1094	-2.8254	-1.164	-38.212	-1.4937	166.2615	-1.2844	0.6642	1.2861
-10.7969	-4.6624	24.1229	-214.9775	-320.5728	-0.7966	0.4023	-0.2161	-0.3182	3.1307	-1.0578	9.4275	16.6532	-74.6316	-10.5678	-0.1905	-0.011	-0.9298	7.6545	-3.6852	-1.1762	-39.3157	2.6882	170.3444	-1.2672	0.666	1.2681
-12.9163	-1.8966	25.0337	-187.3939	-330.8862	26.2666	0.3722	-0.1981	-0.3302	3.1051	-2.0277	10.9099	4.229	-69.6443	-21.6187	-0.2042	-0.0313	-0.8935	7.5441	-3.8564	-1.0041	-37.1718	5.8422	165.988	-1.267	0.6817	1.2846
-15.1863	0.5199	24.0501	-174.3523	-326.1867	28.9666	0.3482	-0.1861	-0.3362	3.573	-2.3716	11.2158	11.0853	-80.6166	-17.5714	-0.2334	0.0064	-0.8595	6.8071	-4.4857	-0.8461	-31.0578	8.4032	151.6805	-1.2154	0.7711	1.2578
-17.4461	1.6725	23.4771	-188.8767	-299.423	4.7613	0.3002	-0.1681	-0.3302	4.3198	-1.744	11.1731	9.9041	-88.1089	-19.8381	-0.2195	0.0083	-0.913	7.0937	-5.4039	-0.8438	-26.7908	10.1995	127.8387	-1.2332	0.7731	1.2392
-22.9664	4.1567	24.2618	-175.41	-253.4587	-36.115	0.2762	-0.1501	-0.3242	4.2648	-2.3733	11.23	-2.6241	-96.6951	-22.7	-0.2185	-0.0309	-0.8936	7.8911	-5.4627	-0.8863	-25.871	12.7903	99.4621	-1.2508	0.7907	1.237
-26.875	5.4804	21.8256	-134.3891	-188.9559	-71.9337	0.2702	-0.1321	-0.3002	3.988	-2.6577	11.7583	-3.1402	-109.3637	-23.3901	-0.2765	0.0084	-0.8777	7.4392	-5.2891	-0.6614	-22.146	15.2206	70.8659	-1.2687	0.7771	1.202
-33.4834	7.6079	16.8572	-91.4933	-135.9489	-85.2035	0.2522	-0.1441	-0.3002	4.506	-2.3155	11.7697	-9.2229	-121.0863	-29.2615	-0.276	-0.0115	-0.8591	8.3622	-5.4034	-0.1183	-14.4639	17.5529	50.0412	-1.2332	0.7731	1.2392
-35.76	8.2912	12.3242	-78.6422	-86.8318	-98.5571	0.2342	-0.1441	-0.3062	3.9922	-2.4283	11.9965	-2.8193	-129.9579	-33.5469	-0.2903	-0.0111	-0.8592	9.2771	-5.5191	0.0162	-6.8256	17.6049	38.0872	-1.1978	0.8041	1.2727
-35.4397	9.9551	11.1529	-55.93	-40.9497	-76.0081	0.2221	-0.1261	-0.3062	3.4638	-1.9128	11.5709	-7.8734	-142.8659	-31.9947	-0.2752	-0.033	-0.8047	9.3288	-4.2579	-0.1531	1.2388	16.6224	30.9021	-1.2328	0.8043	1.2721
-34.8582	7.8772	8.205	-32.9505	0.0419	-56.4488	0.2101	-0.1321	-0.3002	4.4481	-1.743	11.8291	-15.8554	-158.1354	-33.7634	-0.3311	-0.0896	-0.785	9.4346	-4.8333	-0.6197	8.1287	15.3188	28.3541	-1.2507	0.8239	1.2516
-34.3836	7.7345	21.0348	-44.4646	45.7414	-44.6526	0.2281	-0.1381	-0.2822	4.4551	-2.143	12.1254	-26.0292	-171.4471	-32.32	-0.3171	-0.0716	-0.7678	8.9831	-5.6924	-0.4569	12.9368	15.2071	30.4738	-1.2687	0.8279	1.2147
-47.3346	20.9647	38.0668	357.1477	305.2521	-0.3117	0.2221	-0.1321	-0.3062	4.5289	-1.4547	13.0193	-32.8757	-189.9921	-33.6818	-0.3467	-0.0316	-0.7875	8.8682	-5.176	-0.4574	15.52	13.9747	37.4445	-1.2341	0.8296	1.1969
5.5731	-15.6033	5.3317	359.066	283.9371	53.4621	0.2462	-0.1441	-0.3002	4.5693	-1.2275	12.189	-7.0036	-189.904	-35.2103	-0.4038	-0.0314	-0.7522	9.4313	-5.6373	-0.8561	16.6496	11.1404	45.1686	-1.2335	0.8257	1.2336
-0.1042	0.2607	23.3981	334.1131	377.2306	-91.8058	0.2762	-0.1741	-0.3242	4.5414	-2.7128	13.4921	-22.7977	-208.5937	-31.7725	-0.3884	-0.0717	-0.7148	10.8009	-4.7212	-0.7086	18.9836	5.7209	32.3936	-1.2159	0.8081	1.2357
-6.5423	9.6619	6.8708	389.5355	311.3182	-61.3948	0.3062	-0.1861	-0.3242	2.836	-2.0824	11.8546	-51.9097	-235.874	-19.9255	-0.4467	-0.014	-0.6819	17.1413	-4.3851	-0.0553	-0.8269	0.8389	-22.5866	-1.1638	0.8605	1.231
-7.1277	3.4729	14.8794	-4.6085	271.2111	7.2867	0.3302	-0.2101	-0.3242	7.2714	-7.9779	16.8041	-64.5081	-213.6655	-22.4234	-0.4313	-0.0543	-0.6445	22.6756	-3.59	0.2336	-18.4115	-20.3667	-102.8307	-1.2501	0.8376	1.2864
-1.3448	-0.3951	12.6194	186.7484	196.9773	44.5223	0.3422	-0.1981	-0.3302	8.6259	-11.6934	20.6851	-199.2961	-352.3779	-111.7526	-0.4743	-0.0369	-0.5742	22.7894	-6.3445	-0.0075	-50.4908	-56.8042	-146.5713	-1.2338	0.8277	1.2153
-1.9685	1.1455	7.2345	74.6025	148.962	68.7025	0.3422	-0.2161	-0.3242	8.5075	-14.8418	20.1415	33.917	-312.3219	-167.6002	-0.5021	-0.0575	-0.52	17.6363	-7.3156	-1.2227	-82.1779	-81.3059	-183.2628	-1.2159	0.8081	1.2357
1.1284	-3.9081	12.0681	10.443	144.1155	52.7798	0.3722	-0.2462	-0.3242	6.0557	-9.853	22.0614	47.6751	-403.2738	-162.7454	-0.5446	-0.0593	-0.4489	13.1368	-6.1024	-0.9002	-65.1804	-85.0537	-255.3178	-1.2505	0.7888	1.2553
0.4837	-6.6686	11.2217	-67.2202	24.0939	7.5392	0.3602	-0.2342	-0.3242	8.3266	-7.3948	23.5388	95.9801	-436.1477	-213.4787	-0.5873	-0.0603	-0.3957	10.128	-2.5376	0.0442	21.083	-49.182	-338.3758	-1.2666	0.7129	1.3175
0.8077	4.8294	11.1971	154.4608	-7.2913	-2.9448	0.3782	-0.2221	-0.3242	6.2968	-0.4189	17.9877	65.2406	-442.158	-171.9297	-0.5855	-0.1378	-0.3748	8.2046	0.499	-1.8499	61.1323	-10.0543	-449.5684	-1.214	0.6775	1.3221
-2.1674	-0.6401	5.6901	0.5892	14.2302	0.7387	0.3782	-0.2281	-0.3182	10.3015	6.5808	31.805	-23.1562	-474.3148	-169.2298	-0.6687	-0.2188	-0.2117	7.496	4.2828	-2.7836	28.9895	12.1577	-548.6439	-1.2306	0.5879	1.3494
-1.0958	-3.6208	10.253	-55.7182	11.8276	-2.6952	0.3722	-0.2462	-0.3242	8.5465	-1.5917	35.2563	72.4786	-451.7246	-139.298	-0.625	-0.2416	-0.157	7.6463	22.7551	-2.3047	112.3957	25.7626	-495.1045	-1.2646	0.4633	1.3802
-1.2184	0.4614	10.2606	24.2557	6.6032	7.6849	0.3843	-0.2281	-0.3182	8.7999	-4.1088	36.0878	148.302	-430.8908	-108.2875	-0.6963	-0.2248	-0.0512	4.6913	8.4636	-5.9161	-73.6925	17.9005	82.5403	-1.2645	0.3951	1.3694
-0.6067	-0.9226	8.9694	-13.5053	8.6359	-0.537	0.3722	-0.2281	-0.3482	-1.8538	-12.5141	26.7633	187.3284	-373.9386	-91.3011	-0.7075	-0.3433	0.0426	8.514	2.4434	-3.3532	-131.748	0.5411	199.4396	-1.3002	0.4342	1.3284
-1.1221	-0.8638	9.1367	-6.3307	5.9373	3.6049	0.3542	-0.2101	-0.3242	-9.7537	-14.871	11.8062	225.9949	-335.0517	-48.7585	-0.7078	-0.3249	0.0597	9.8778	3.4158	-3.4973	-47.1302	-19.7482	209.7952	-1.231	0.4884	1.3057
-1.1561	-2.1259	10.2555	-27.0086	8.8157	2.6905	0.3722	-0.2221	-0.3242	-18.6689	1.6323	-17.0313	584.8569	-81.3515	86.9816	-0.7209	-0.3659	0.1326	11.2845	2.492	-4.5225	-11.5128	-23.9081	164.2576	-1.2835	0.5063	1.3029
-1.4405	-1.7224	10.4873	-4.0871	7.0576	1.3603	0.3782	-0.2342	-0.3422	-24.6527	-51.4392	-5.8013	768.9579	134.6528	28.3617	-0.7218	-0.3106	0.1839	11.0647	0.8299	-4.2413	-36.5836	-19.5992	130.6032	-1.284	0.5433	1.2809
-0.886	-0.8635	9.4367	19.4205	4.4865	1.6584	0.3782	-0.2402	-0.3182	-10.901	-15.6464	-5.3249	-329.8383	128.0339	31.8873	-0.7362	-0.3255	0.0952	10.5695	0.2028	-3.3785	-48.4856	-18.9775	137.9735	-1.3012	0.5415	1.2989
-1.1745	-1.2656	9.371	-12.3779	6.0241	0.4882	0.3843	-0.2221	-0.3182	-1.5594	-5.9027	13.4785	-748.2764	64.3604	-165.3241	-0.7078	-0.3087	0.1304	9.9571	-0.5968	-2.6937	-46.3534	-19.4436	137.4556	-1.2659	0.5393	1.3178
-1.0424	-1.2637	10.2598	-8.8924	6.4012	1.1683	0.3963	-0.2342	-0.3122	-18.2238	-13.5279	14.9012	-3.1629	-22.6772	66.8312	-0.7368	-0.3056	0.0766	9.8072	-0.937	-1.648	-48.7716	-11.4191	109.6103	-1.2835	0.6077	1.3284
-0.7646	-1.1505	9.7338	-1.2528	6.7294	2.3877	0.3662	-0.2221	-0.3302	-0.1611	-14.4339	13.1927	-45.7716	126.9648	-77.7391	-0.7211	-0.3805	0.0262	10.1493	-0.8801	-1.6409	-46.5769	-1.1059	66.9749	-1.2662	0.592	1.3122
-0.9988	-1.6106	9.4918	-7.5088	8.0648	3.2797	0.3782	-0.2101	-0.3482	-4.4047	2.3393	10.5266	96.7343	197.1604	77.167	-0.7633	-0.4168	0.0095	10.2291	-0.8187	-0.4725	-34.2649	6.1814	27.0605	-1.2491	0.6114	1.2923
-0.8246	-1.0932	9.6146	-2.599	8.5356	4.0172	0.3782	-0.2281	-0.3362	-8.6005	-3.1505	7.5184	75.1866	265.6224	-0.3812	-0.7365	-0.3402	-0.0112	9.3892	-2.0195	0.2063	-24.0289	9.9825	-1.4849	-1.3016	0.6117	1.2914
-1.2841	-1.3222	9.6642	-6.6326	9.8742	5.9534	0.3903	-0.2221	-0.3122	-4.4073	-6.1387	6.4701	100.248	296.6798	10.6558	-0.7221	-0.3575	-0.0639	8.9536	-1.3265	1.3084	-22.5171	13.7246	-24.3747	-1.2488	0.6094	1.3106
-0.4759	-1.4385	9.7387	-7.8824	10.4779	6.2008	0.3782	-0.2221	-0.3002	-0.5984	-5.5808	3.9363	139.4021	323.7595	19.7316	-0.6939	-0.3715	-0.2057	8.2792	-0.4055	1.8816	-18.6778	17.3412	-48.3661	-1.2658	0.5725	1.3324
-1.115	-2.3581	9.3695	-16.8417	9.3473	4.6733	0.3782	-0.2161	-0.3182	-2.5062	-7.5288	0.5074	127.4769	343.643	48.42	-0.6808	-0.3312	-0.2607	7.5988	-0.0594	2.1025	-8.5482	21.7054	-70.2451	-1.2315	0.6269	1.3091
-1.0365	-0.8029	10.6156	7.3052	6.8443	5.6885	0.3782	-0.2221	-0.3182	-3.197	-9.416	0.3111	13.4807	344.9234	31.0092	-0.624	-0.3299	-0.3317	6.4616	0.6889	2.3158	3.5355	24.8323	-83.2265	-1.2833	0.5726	1.3321
-1.1749	-1.0931	9.3714	9.7812	5.7258	4.2795	0.3722	-0.2221	-0.3242	-3.9589	-7.4634	2.7941	-115.6549	350.0207	34.891	-0.6238	-0.3637	-0.4373	6.1255	0.4037	2.5997	11.7421	28.9559	-87.2822	-1.2134	0.5722	1.3333
-1.5203	-0.6324	9.4249	6.8449	4.1655	4.0674	0.3722	-0.2402	-0.3242	-3.0848	-3.738	6.6211	-169.8304	344.142	45.3174	-0.6675	-0.341	-0.492	6.1873	1.0356	2.8949	13.5143	31.6219	-83.9106	-1.2485	0.5061	1.3035
-1.2315	-1.0354	9.4296	11.1225	4.0762	3.5052	0.3782	-0.2221	-0.3242	-2.4431	-3.2178	9.9616	-95.9173	341.2617	80.2679	-0.6404	-0.2989	-0.6005	6.5914	0.8638	3.1357	13.3878	31.2473	-73.31	-1.2487	0.5919	1.3125
-0.8269	-1.6685	9.4359	9.7321	4.2044	5.6753	0.3722	-0.2161	-0.3362	-1.5872	-7.3995	9.0202	-38.3215	336.0203	100.2916	-0.5276	-0.2248	-0.6205	7.307	1.2596	1.8682	15.1935	28.7733	-54.0513	-1.2659	0.5393	1.3178
-0.9438	-0.7484	9.4359	7.5724	3.2577	6.363	0.3722	-0.2281	-0.3242	-1.366	-5.9699	8.7307	-76.0813	336.8608	111.362	-0.4572	-0.1863	-0.6751	7.8053	1.3708	1.1202	19.7741	27.7333	-32.4662	-1.2841	0.5608	1.279
-1.4617	-1.2074	9.4247	-5.2612	3.7787	10.1255	0.3722	-0.2342	-0.3242	0.3278	-6.2008	9.8343	-91.7806	337.1048	116.7143	-0.4863	-0.1824	-0.7467	8.0712	1.2521	0.1335	20.433	26.275	-11.9271	-1.3184	0.5065	1.3023
-1.7884	-1.837	10.3621	8.7627	0.2096	-1.3101	0.3782	-0.2402	-0.3122	1.7957	-7.4038	11.0499	-85.3103	338.0998	131.0775	-0.402	-0.1251	-0.8019	8.344	1.0772	-0.5033	23.4263	23.7321	8.5626	-1.2658	0.5218	1.3197
-0.721	-0.2322	9.087	-9.3119	3.9099	0.9201	0.3782	-0.2281	-0.3362	1.7526	-9.9781	11.4595	-119.062	330.5795	99.838	-0.3747	-0.0676	-0.8219	8.2121	0.7873	-1.4404	27.6892	21.486	31.4984	-1.2495	0.5119	1.2485
-1.6208	-2.6431	10.0089	7.7564	-0.263	7.345	0.3782	-0.2221	-0.3242	5.0172	-8.2651	13.5497	-122.726	319.2139	115.5999	-0.3174	-0.0862	-0.8742	8.5389	0.4396	-2.2517	33.2151	19.3131	59.1842	-1.2671	0.5471	1.2445
-0.1796	-0.3454	10.2789	25.9039	2.3495	16.3152	0.3782	-0.2281	-0.3362	6.5183	-8.4344	16.5501	-126.9527	323.2079	103.1526	-0.2763	-0.0092	-0.9127	8.5433	-0.1907	-2.0789	38.5853	17.7561	87.1634	-1.319	0.561	1.2784
-1.5946	-1.3819	8.4763	29.1835	-3.1781	-0.3925	0.3843	-0.2462	-0.3362	4.1717	-8.5988	17.3329	-149.9017	323.1901	105.1822	-0.2054	0.0094	-0.9486	8.1499	-0.2464	-1.7954	38.3611	14.7219	109.4163	-1.2837	0.5414	1.2992
-1.1008	-0.8612	10.2597	-4.9954	0.6429	1.4675	0.3782	-0.2221	-0.3242	5.8112	-8.2568	18.6741	-153.5795	303.2613	113.161	-0.1206	0.0636	-0.9323	8.1052	-0.8179	-1.215	31.8347	9.9765	122.7493	-1.2839	0.5257	1.2827
-0.7655	-1.8982	9.6138	6.0232	-0.2404	2.7197	0.3903	-0.2221	-0.3242	6.9641	-8.7175	18.6375	-165.4976	285.6803	100.3773	-0.0787	0.1022	-0.9693	7.8874	-1.619	-0.7557	27.7117	4.3079	133.7585	-1.2494	0.6133	1.274
-1.2303	-1.0352	9.4887	20.8141	-0.8838	3.9426	0.3722	-0.2342	-0.3302	10.224	-8.4932	20.3089	-164.06	267.698	85.2931	-0.0092	0.196	-0.9725	7.7256	-1.7318	-0.2927	29.798	0.0544	140.9874	-1.2672	0.666	1.2681
-1.2211	-1.1491	9.9612	22.5482	0.7927	5.3134	0.3662	-0.2402	-0.3362	14.0658	-8.0408	22.2896	-176.5734	260.6965	70.7518	0.0188	0.232	-0.9381	8.2352	-2.2497	-0.5177	33.2108	-5.7193	140.9085	-1.2496	0.6484	1.2703
-1.7962	-2.4706	9.8877	17.4239	4.9256	6.316	0.3722	-0.2402	-0.3362	16.7886	-6.157	23.2405	-180.5693	266.7114	72.9218	0.0623	0.2108	-0.9191	8.174	-3.2832	-0.8143	33.7304	-13.2121	131.5676	-1.232	0.6639	1.287
-0.6181	-1.6644	11.3306	25.2043	10.1361	6.3093	0.3782	-0.2281	-0.3242	20.9886	-3.134	23.274	-155.6005	271.008	74.648	0.1182	0.2674	-0.9389	7.722	-3.7981	-0.6503	34.1876	-18.0315	115.7427	-1.2679	0.6875	1.2296
-1.8583	1.5114	16.0999	20.3148	42.6888	11.9545	0.3782	-0.2281	-0.3242	23.7731	-1.7137	21.493	-121.1335	265.3555	46.2202	0.1618	0.2455	-0.902	7.3126	-4.6026	-1.2448	38.2955	-18.9901	95.2708	-1.2337	0.7594	1.2044
-1.2625	-2.0671	10.7262	56.9407	73.6917	18.3201	0.3963	-0.2402	-0.3182	27.4488	-0.1268	18.1865	-118.7825	249.2253	18.0764	0.2325	0.2986	-0.8502	7.833	-4.7743	-0.885	41.129	-16.3242	70.7348	-1.2149	0.734	1.2798
0.0904	-0.2331	9.3391	72.7007	66.5978	14.967	0.4023	-0.2402	-0.3242	29.913	4.2677	15.1578	-126.0965	226.1336	26.2691	0.2601	0.3538	-0.8165	8.1169	-5.4062	-0.9983	38.9019	-9.4226	46.5406	-1.2511	0.7927	1.2187
-0.4908	0.4071	12.1653	23.3481	75.8502	8.7157	0.3963	-0.2522	-0.3122	30.5724	7.1193	11.0196	-168.9697	190.8566	38.4761	0.3182	0.3299	-0.7439	9.3259	-4.6027	-0.3294	31.1414	-1.7414	23.7394	-1.2503	0.7537	1.2591
-1.9206	-0.1065	12.6679	24.3576	92.3024	11.7757	0.4023	-0.2642	-0.3242	28.4176	12.2169	10.5107	-146.5511	143.4405	45.1748	0.2894	0.3322	-0.7798	9.8349	-4.7764	-0.5532	20.7357	4.0667	9.7194	-1.2159	0.8081	1.2357
-0.6715	-0.8587	11.627	25.0656	100.0031	10.3384	0.4023	-0.2642	-0.3362	27.6143	17.4856	11.3366	-122.8586	105.3682	80.2133	0.3319	0.3663	-0.7096	10.357	-4.6034	-0.0754	9.1893	8.3563	7.9459	-1.233	0.7887	1.2556
-1.2554	0.234	11.3228	-7.127	110.6162	3.8607	0.4203	-0.2462	-0.3242	29.7217	17.7757	15.8946	-94.8601	57.8775	39.2593	0.361	0.3463	-0.7086	10.1165	-4.7201	-0.7223	-1.5579	8.6071	14.7024	-1.2686	0.8103	1.2165
-1.3074	-1.0303	11.496	-35.7058	120.3255	0.2187	0.4083	-0.2522	-0.3062	41.8562	7.0795	33.5253	-21.1738	11.9014	0.7932	0.3606	0.3655	-0.7094	10.2575	-4.439	-2.2351	-8.053	3.9627	25.4562	-1.2509	0.8083	1.2352
-2.0413	-1.4296	12.2488	-64.4663	134.1297	-5.7442	0.4443	-0.2342	-0.3302	41.3039	12.1033	26.6939	177.7079	-100.5192	-26.6236	0.3319	0.3663	-0.7096	10.2967	-4.0406	-3.1078	-2.7248	0.7486	42.0235	-1.2504	0.7713	1.2572
-2.3191	-0.9678	12.8353	-85.2769	148.9993	-6.3728	0.4383	-0.2402	-0.3242	38.1013	15.9773	13.9847	263.4053	-213.6836	-11.4141	0.3474	0.3091	-0.725	10.5171	-4.2145	-3.5124	11.8152	-5.2185	63.4723	-1.216	0.8256	1.2339
-1.7737	-1.4254	14.2037	-99.4308	166.2345	-3.4585	0.4563	-0.2462	-0.3182	3.1605	-1.5816	5.0912	286.5189	-218.3691	-134.6707	0.3055	0.2543	-0.7588	9.7756	-4.156	-3.527	12.1569	-11.4803	73.1775	-1.2153	0.8042	1.2724
-2.0848	-1.9956	15.9687	-110.133	188.6627	3.8252	0.4683	-0.2281	-0.3242	-2.214	-13.9572	20.1006	278.342	-311.4597	-109.5435	0.29	0.2954	-0.814	10.934	-4.5562	-2.6303	6.9724	-16.7183	66.846	-1.2334	0.8082	1.2355
-2.1666	-2.5088	17.6792	-97.129	214.2384	13.8154	0.4803	-0.2161	-0.3182	-0.106	-3.8385	17.2547	364.5431	-193.226	-29.9897	0.206	0.2035	-0.8466	13.6349	-3.696	-1.4647	12.2218	-9.4928	41.5865	-1.2339	0.8959	1.2261
-2.2385	-4.1134	19.8009	-62.7321	245.6779	31.8322	0.4983	-0.2281	-0.3242	6.401	4.989	3.6867	273.7635	-241.1047	-16.0854	0.15	0.1308	-0.8975	16.2149	-5.0173	-0.8345	16.916	-2.38	-4.7525	-1.2687	0.8786	1.2274
-1.6713	-5.2657	19.2183	0.3686	277.4496	50.8634	0.5103	-0.2101	-0.3062	5.652	5.7465	9.553	100.3236	-173.2678	-87.997	0.15	0.1308	-0.8975	15.6568	-6.2766	-0.3253	0.5841	0.962	-69.1699	-1.1987	0.8606	1.2304
-1.4319	-5.2075	19.6958	21.3964	312.2773	59.4632	0.5343	-0.2221	-0.2942	1.7356	-5.6351	8.2608	5.5802	-122.0324	-67.7934	0.0653	0.0765	-0.9138	15.0391	-7.3067	0.0669	-24.0831	8.4317	-144.6805	-1.2158	0.8413	1.2503
-0.0572	-5.7213	22.2618	52.1792	350.7332	68.9761	0.5584	-0.2041	-0.2822	3.3297	-1.5594	16.4393	55.1403	-75.8813	-15.1867	0.0943	0.0734	-0.86	13.9502	-6.1583	-0.1257	-36.6397	19.514	-221.9384	-1.2152	0.8374	1.287
-1.2853	-5.7789	21.2924	75.8747	389.3669	80.2196	0.5764	-0.2161	-0.2822	3.3728	-2.6086	6.9347	60.6663	-27.5672	-12.771	0.0792	0.0953	-0.9144	13.0103	-3.9814	-1.3616	-26.6115	27.8333	-283.0886	-1.2506	0.7556	1.2408
-1.8118	-4.3485	17.9771	32.0998	431.1871	78.2296	0.5944	-0.2101	-0.2402	1.1654	-0.6014	6.2994	47.7723	-12.9905	-2.8356	0.0818	-0.0206	-0.892	11.1895	-1.5678	-0.9809	-6.203	27.7112	-344.3709	-1.2153	0.7535	1.2597
-7.7834	-2.4876	22.2373	-43.8016	478.428	95.8539	0.6304	-0.2462	-0.2342	2.3719	-3.5756	8.6345	-84.1053	-10.6998	0.7748	0.0513	0.0585	-0.931	9.0923	0.3888	-0.1992	-13.5024	20.3069	-401.1264	-1.2324	0.6327	1.2541
-5.0253	-1.3865	28.0248	-66.7264	482.5449	99.0605	0.6544	-0.2402	-0.2101	3.4279	-2.317	9.728	-19.7618	-8.3415	-2.5613	0.052	0.037	-0.8766	7.4549	2.9765	0.8274	-13.8878	11.4236	-435.9524	-1.2313	0.5918	1.3128
0.2755	0.1493	25.1777	1.1742	478.3928	134.9024	0.6724	-0.2462	-0.1921	2.0936	-2.3146	9.2848	-26.4027	-8.3153	3.3575	0.0787	0.1145	-0.9152	6.0218	6.1333	0.6936	-3.9979	6.7176	-455.7259	-1.2666	0.51	1.2666
-0.1535	0.3555	38.9951	-48.6846	474.7353	84.5665	0.6904	-0.2342	-0.1741	2.7397	-2.8302	9.8316	-32.4225	-7.1094	-3.3643	0.0946	0.055	-0.8771	7.0382	20.7617	1.4091	122.5946	12.5102	-275.1531	-1.2655	0.4184	1.3125
5.3567	-1.943	43.7644	74.6717	476.5773	97.7219	0.7085	-0.2462	-0.1501	1.9241	-2.2566	9.4596	-6.4596	-5.4274	-4.6173	0.0943	0.0565	-0.9128	5.2582	2.8024	-0.7339	34.1507	14.042	113.0544	-1.2842	0.4262	1.239
20.3806	2.0889	10.1539	358.5068	375.785	85.9582	0.7385	-0.2522	-0.1021	2.1399	-2.0297	8.7518	-11.2772	-3.7677	-0.2412	0.0802	0.0554	-0.8772	7.5049	3.7784	0.5397	-54.4178	29.8389	184.076	-1.3181	0.4538	1.3079
37.2131	-2.6135	-20.075	860.5199	-5.4152	54.0157	0.7385	-0.2582	-0.0901	2.5072	-2.5436	9.768	-25.593	-4.1874	-3.0533	0.0513	0.0747	-0.8603	10.4257	4.8089	1.302	26.794	27.879	165.3391	-1.2846	0.4457	1.2188
-0.0211	-21.8981	-10.745	-11.4801	-63.75	110.9302	0.7445	-0.2882	-0.066	2.2736	-2.7723	9.5845	-15.9577	-5.7976	-2.324	0.0661	0.0381	-0.9122	10.9874	2.2817	0.6624	98.2899	29.543	148.6832	-1.3368	0.5123	1.2471
3.3975	-9.2144	6.6638	-256.735	-75.3063	2.1481	0.7265	-0.2702	-0.0781	2.6711	-2.7166	9.2958	-2.3721	-6.9506	-2.1665	0.0799	0.0577	-0.9307	11.0966	0.2724	0.2489	77.5733	32.5041	154.448	-1.3028	0.5179	1.1927
9.0916	6.4445	19.8113	-338.1134	-38.1352	33.0189	0.7145	-0.2882	-0.0841	2.4893	-2.4881	8.8768	4.0576	-7.5727	-4.3284	0.0527	0.0163	-0.8401	10.922	0.3294	0.0706	34.7678	26.8824	162.4106	-1.3201	0.5844	1.2216
8.7759	-7.6474	16.9937	81.3441	-111.0643	140.6065	0.7205	-0.2702	-0.0841	2.5493	-2.488	8.9968	1.0948	-7.9526	-4.2168	0.0941	0.0741	-0.8778	10.294	-0.014	-0.0016	25.3615	7.7625	162.3611	-1.3193	0.563	1.2601
10.9604	-1.0532	11.3215	19.3193	-145.823	74.3626	0.7205	-0.2882	-0.0961	2.6649	-2.6027	8.999	1.7318	-8.4245	-4.1005	0.0947	0.0542	-0.8592	9.532	-0.7626	-1.1279	35.8022	-7.6793	153.274	-1.2855	0.6037	1.202
8.905	-1.2196	12.2854	119.777	-210.2886	38.2845	0.7205	-0.2882	-0.0901	2.6128	-2.4303	9.2952	3.1901	-7.895	-4.4901	0.0521	0.0363	-0.8588	9.4695	-1.6242	-1.4823	32.0688	-13.9766	140.049	-1.2511	0.6912	1.1932
5.0094	-5.7097	6.9401	179.4194	-257.8551	30.2435	0.7025	-0.2822	-0.0901	2.3829	-2.258	9.3503	1.7769	-7.7481	-4.4899	0.0374	0.0559	-0.8597	8.937	-1.799	-2.4853	17.2387	-17.645	123.5159	-1.2859	0.6739	1.1945
3.4625	-7.4957	4.1878	150.156	-278.4127	24.3079	0.6904	-0.2942	-0.1201	2.7303	-2.3731	9.4166	7.7654	-7.1077	-5.7652	0.0227	0.0586	-0.9133	8.3563	-1.7426	-3.0217	6.6291	-16.9605	102.246	-1.2692	0.6952	1.1563
2.8593	-7.5555	2.7579	105.8427	-288.6973	34.4193	0.6784	-0.3122	-0.1261	2.375	-1.9153	8.9944	6.9882	-8.6408	-3.1687	0.0364	0.095	-0.879	7.7757	-1.7436	-3.5583	4.749	-15.8538	77.2987	-1.2508	0.6893	1.2116
3.6614	-6.8099	2.5982	33.8356	-286.8378	29.9878	0.6604	-0.3002	-0.1321	2.4991	-2.6016	9.3519	-3.3601	-7.5078	-4.3401	0.0222	0.0947	-0.8613	7.2	-1.9732	-3.8624	4.2598	-14.3703	49.2798	-1.199	0.7436	1.1885
3.004	-5.1943	4.539	-15.0804	-288.7883	18.5046	0.6484	-0.3122	-0.1621	2.4395	-2.3155	9.2919	0.372	-7.2314	-4.8537	0.0655	0.075	-0.8781	7.1504	-1.5701	-3.4535	-6.3499	-11.8096	29.3484	-1.2692	0.7459	1.169
3.6753	-5.9384	6.4409	-30.542	-294.0195	3.2304	0.6424	-0.3002	-0.1501	2.1729	-0.9388	10.5366	2.2828	-6.5638	-10.583	0.0657	0.0573	-0.913	7.2606	-1.2841	-3.6253	-12.6351	-10.1785	16.6992	-1.2334	0.7067	1.21
3.231	-5.3029	7.3791	-32.683	-300.714	-16.6452	0.6304	-0.3122	-0.1861	1.9693	-2.487	8.8067	16.2486	-5.8763	-4.4313	0.065	0.0949	-0.8967	6.8135	-1.3391	-3.1678	-17.66	-8.2323	10.2283	-1.2674	0.7012	1.2644
2.0971	-5.7011	8.3014	-34.0792	-305.676	-31.8296	0.6064	-0.3062	-0.2101	2.4903	-1.9156	8.9968	6.5943	-5.7031	-6.4834	0.0529	-0.0013	-0.8751	6.8174	-0.8793	-2.9327	-24.6548	-7.0001	6.6428	-1.2858	0.7578	1.2219
1.5291	-5.9866	8.7032	-38.0286	-311.9786	-49.1541	0.5824	-0.2942	-0.2041	2.9541	-3.004	9.0041	11.9986	-4.8417	-6.8602	0.0221	0.0955	-0.8792	7.3378	-1.051	-2.5729	-30.0933	-5.2583	6.1848	-1.2505	0.7888	1.2553
0.2153	-7.4779	9.1466	-49.1974	-320.55	-59.0566	0.5824	-0.2942	-0.2161	2.7286	-2.1443	9.3576	20.383	-2.799	-8.1372	0.0645	0.1141	-0.8974	7.2872	-0.7628	-2.2229	-31.8142	-6.2197	9.12	-1.2337	0.7087	1.1917
-0.1281	-8.2246	9.1971	-76.5161	-329.5926	-64.8789	0.5644	-0.2882	-0.2342	2.2152	-2.4288	9.584	28.3797	-3.118	-8.4687	0.0371	0.0582	-0.9132	7.1743	-0.7624	-2.1668	-32.3267	-7.7452	13.8642	-1.2686	0.7596	1.2038
-0.7252	-8.7364	11.0749	-105.255	-335.6313	-69.0637	0.5464	-0.2762	-0.2342	2.8403	-2.145	9.1817	31.7911	-1.8831	-9.2746	0.0663	0.0366	-0.8765	7.6374	-1.5078	-1.8686	-33.7409	-7.2759	22.012	-1.2514	0.7439	1.1876
-1.2339	-8.0442	11.6575	-129.942	-333.2769	-74.8232	0.5103	-0.2882	-0.2402	2.7246	-1.973	9.1797	31.1644	-2.2462	-8.0468	0.0943	0.0734	-0.86	7.8748	-1.5639	-1.3974	-37.5304	-7.1183	32.9409	-1.2517	0.7965	1.1821
-2.1818	-8.8436	13.2323	-143.5327	-328.344	-77.5747	0.4983	-0.2702	-0.2822	2.7377	-1.9717	9.8333	20.3355	-6.3721	-5.267	0.0516	0.0562	-0.8774	7.9981	-1.6198	-0.9285	-39.3725	-6.1696	45.5476	-1.252	0.7985	1.1637
-0.7601	-8.4388	15.3288	-167.1133	-318.1257	-87.1879	0.4803	-0.2522	-0.2762	2.261	-1.4569	9.1118	7.3618	-13.9433	-6.7835	0.0658	0.0566	-0.8951	8.0057	-2.1348	-0.5802	-38.0083	-7.0795	58.3136	-1.2505	0.7381	1.2426
-2.3532	-8.6059	16.3609	-155.665	-313.1229	-86.4007	0.4623	-0.2342	-0.2762	2.8392	-1.6871	9.1827	28.9076	-6.3151	-9.6367	0.0228	0.0417	-0.9662	8.5827	-2.7083	-0.2791	-41.2506	-6.4309	69.4897	-1.2334	0.7575	1.2227
-3.9489	-9.2908	17.2143	-173.491	-307.3708	-81.7877	0.4623	-0.2402	-0.2762	2.7714	-1.9169	8.6462	19.7962	-7.0425	-4.3224	0.0667	0.0182	-0.8936	8.0707	-2.822	-0.2314	-45.2483	-5.7414	78.278	-1.1983	0.7222	1.227
-5.9865	-9.34	19.1242	-189.8258	-298.2662	-65.4213	0.4263	-0.2161	-0.2882	2.3164	-1.5145	8.9941	4.5307	-10.281	-4.7156	0.0227	0.0586	-0.9133	7.8423	-2.6496	-0.2354	-41.6752	-4.416	84.8378	-1.2334	0.7575	1.2227
-7.6255	-7.8954	20.9273	-197.9814	-290.3901	-34.0708	0.4263	-0.2041	-0.2882	3.1549	-2.4808	13.3452	-9.7898	-21.1378	-0.7956	0.0526	0.0002	-0.9108	7.2792	-3.6228	0.0415	-36.4202	-1.8249	89.6746	-1.2165	0.8627	1.2118
-9.0337	-7.3137	22.6738	-201.1359	-293.2468	-1.9826	0.3843	-0.1921	-0.3062	2.9922	-2.5424	10.9659	-0.6699	-46.9465	-11.2777	0.038	0.019	-0.8938	7.2737	-3.7386	-0.2507	-36.4284	2.1534	89.3262	-1.1982	0.8236	1.2525
-10.24	-3.0628	20.2383	-180.1981	-313.6187	26.7401	0.3602	-0.1921	-0.3002	3.2132	-3.0018	10.4349	11.3144	-63.6505	-8.3737	-0.0061	0.061	-0.9493	7.3306	-3.6813	-0.2494	-33.9367	5.5246	84.2891	-1.2156	0.8062	1.2541
-11.8939	-2.1376	21.2127	-231.5151	-315.5722	42.287	0.3482	-0.1621	-0.2762	2.2036	-1.5713	9.1104	-16.6513	-64.1305	-7.3808	0.0092	0.0376	-0.8591	7.6155	-4.2556	-0.3041	-32.4014	7.9724	79.5219	-1.2335	0.8257	1.2336
-15.1645	0.9251	25.2331	-229.0473	-306.3563	38.7099	0.3242	-0.1501	-0.2762	3.5284	-2.8281	11.8079	-34.5258	-76.7929	-19.3429	0.0234	0.0379	-0.8769	7.7827	-4.6582	-0.5356	-31.2677	10.1144	74.3225	-1.2167	0.8978	1.2081
-17.8398	2.537	24.0624	-188.8695	-285.415	17.8381	0.3122	-0.1501	-0.2822	5.6084	-1.5676	15.1201	-8.6663	-62.0342	-33.8278	0.0087	0.0567	-0.8599	8.0644	-4.6593	-0.7049	-29.1751	11.2323	70.3687	-1.1463	0.8096	1.2186
-22.5869	5.0156	23.0897	-164.5738	-230.3705	-11.2952	0.3002	-0.1381	-0.2762	5.3543	-4.6032	13.5643	-27.2495	-80.2351	-40.207	-0.0201	0.0591	-0.8958	8.0612	-4.7747	-0.8804	-27.6766	12.5077	65.8766	-1.1817	0.88	1.2105
-26.3272	5.7059	20.3597	-126.5639	-161.6426	-24.269	0.2762	-0.1321	-0.2702	4.2567	-3.6849	13.5436	-26.7869	-118.2458	-27.6663	-0.0197	0.0399	-0.8951	8.8691	-5.0037	-0.3984	-21.9466	13.6155	62.1886	-1.1462	0.8428	1.2332
-31.2559	5.7037	15.6552	-88.7302	-115.3583	-19.6762	0.2702	-0.1201	-0.2702	1.5998	-2.0877	7.6714	76.2683	-97.7363	-35.9537	-0.0055	0.0564	-0.8421	9.4437	-4.8317	-0.1529	-14.6813	14.8271	63.1564	-1.1292	0.8622	1.2133
-33.297	7.9973	11.5444	-83.2714	-72.6021	-18.1293	0.2642	-0.1141	-0.2642	3.888	-0.8871	9.8593	-13.8035	-131.3705	-25.716	-0.0624	0.0397	-0.8597	10.2314	-5.2365	-0.7219	-5.1822	13.8558	69.8101	-1.1988	0.8782	1.2286
-31.4703	8.3369	10.6946	-83.1454	-30.5836	3.4933	0.2642	-0.0901	-0.2822	4.2836	-2.7721	12.1205	-24.3756	-131.1944	-39.1036	-0.0775	0.0616	-0.9141	10.1843	-5.0051	-0.197	3.7242	11.6698	80.5694	-1.1641	0.9638	1.2382
-30.1029	9.0226	9.9549	-73.8385	-0.4361	6.6132	0.2462	-0.0901	-0.2702	3.7644	-2.5992	12.1102	-24.1122	-138.1195	-29.0662	-0.1061	0.0786	-0.8437	10.1766	-5.1787	-0.6061	13.813	12.0486	88.6663	-1.1824	0.9014	1.172
-28.3927	9.887	12.1173	-61.2134	28.8715	10.6849	0.2582	-0.072	-0.2702	4.0534	-2.4281	12.1759	-48.5477	-151.7647	-29.2903	-0.1203	0.0782	-0.826	9.8352	-5.6944	-0.6149	21.6019	13.4992	91.4789	-1.1643	0.9482	1.2217
-38.59	-5.4196	22.7521	-36.401	60.5349	-1.9695	0.2702	-0.0841	-0.2642	4.07	-2.4265	13.0078	-64.1431	-171.639	-29.641	-0.1485	0.0591	-0.8076	9.3298	-7.1267	-0.3386	28.9745	14.6155	93.1811	-1.1649	0.9521	1.185
