1818_acc_x	1818_acc_y	1818_acc_z	1818_gyro_x	1818_gyro_y	1818_gyro_z	1818_mag_x	1818_mag_y	1818_mag_z	1819_acc_x	1819_acc_y	1819_acc_z	1819_gyro_x	1819_gyro_y	1819_gyro_z	1819_mag_x	1819_mag_y	1819_mag_z	1820_acc_x	1820_acc_y	1820_acc_z	1820_gyro_x	1820_gyro_y	1820_gyro_z	1820_mag_x	1820_mag_y	1820_mag_z
-0.774	-0.9216	9.2615	-0.5826	1.7746	1.7022	0.4023	-0.3302	-0.1501	1.9811	-0.9975	9.5822	-1.1649	0.3853	0.6843	-0.3346	0.13	-0.5442	9.6513	-1.1635	-0.8936	33.1517	-2.0545	5.4126	-1.2054	0.6651	0.7801
-1.0529	-1.035	9.7285	-0.8014	1.8139	1.5857	0.4563	-0.1021	-0.2402	2.3855	-1.3418	9.5898	-1.3806	0.3587	0.5908	0.0513	-0.5927	-0.9228	9.8236	-1.2209	-0.8321	33.2177	-2.3583	4.0464	-1.2758	0.6011	0.7315
-1.1063	-0.9193	9.964	-0.1512	1.5734	1.7821	0.4623	-0.1021	-0.2342	2.3876	-1.2271	9.7089	-1.2277	0.3249	0.714	0.0521	-0.631	-0.9213	9.9359	-1.5657	-0.9477	34.5313	-2.2035	2.8532	-1.2756	0.6675	0.7607
-0.5907	-1.0932	9.7964	-0.3992	1.6142	1.7273	0.4683	-0.1141	-0.2342	2.0939	-1.4559	9.4054	-1.2283	0.2942	0.7135	0.1234	-0.6147	-0.9036	9.8769	-1.7381	-1.0662	34.8822	-2.6634	1.8467	-1.206	0.669	0.7435
-0.8171	-0.8622	10.0289	0.0572	1.5636	1.5024	0.4623	-0.0961	-0.2342	2.1491	-1.9143	9.2274	-1.4722	0.4211	0.7153	0.0682	-0.6921	-0.8474	9.7644	-1.2786	-0.9501	34.3539	-2.6867	0.0071	-1.2224	0.595	0.7873
-0.5368	-0.8637	9.6208	0.213	1.4963	1.5898	0.4743	-0.1021	-0.2402	2.3271	-1.0555	9.5892	-1.5346	0.3612	0.6215	0.0951	-0.6162	-0.8503	9.8719	-1.4521	-1.2986	33.6362	-2.3702	-1.8807	-1.2223	0.6282	0.8019
-1.1182	-1.1508	9.3133	0.4285	1.6092	1.4936	0.4563	-0.1021	-0.2342	2.3886	-1.1698	9.7684	-1.4708	0.4227	0.3447	0.0811	-0.6342	-0.8675	9.8219	-1.5655	-0.95	33.8848	-2.6437	-3.2498	-1.2581	0.6166	0.7482
-0.8268	-1.0935	9.4964	0.0861	1.5926	1.4104	0.4563	-0.0961	-0.2161	2.2669	-1.4564	9.4089	-1.3193	0.3274	0.4977	0.1089	-0.5966	-0.8688	9.7631	-1.164	-1.0081	34.2157	-2.3931	-4.6673	-1.2232	0.634	0.7469
-0.5933	-0.8635	9.6788	0.062	1.7471	1.5644	0.4683	-0.0901	-0.2281	2.0905	-1.5135	9.227	-1.3514	0.2662	0.5583	0.0804	-0.5966	-0.8512	9.4735	-1.2792	-1.2476	34.0428	-2.2049	-5.4599	-1.258	0.6498	0.7628
-0.9345	-0.9198	9.9083	0.2758	1.4633	1.649	0.4443	-0.0901	-0.2402	2.0829	-1.8005	8.8105	-1.1017	0.4462	0.562	0.0815	-0.6534	-0.8667	9.8229	-1.5079	-0.8915	34.1356	-2.0208	-5.2716	-1.2753	0.6324	0.7644
-1.0545	-0.8052	9.6699	0.1477	1.4375	1.4995	0.4683	-0.1021	-0.2402	2.2649	-1.6283	9.2897	-1.1641	0.3862	0.4681	0.1084	-0.5767	-0.8874	9.5332	-1.5083	-1.1306	33.7603	-2.1154	-4.3728	-1.2242	0.6905	0.7047
-0.766	-0.9782	9.6751	0.2066	1.4651	1.3762	0.4743	-0.1021	-0.2402	2.2685	-1.6279	9.468	-0.9166	0.4436	0.4387	0.0952	-0.6169	-0.8324	9.5932	-1.2209	-0.9534	32.9965	-1.8719	-2.8709	-1.188	0.6319	0.7658
-1.1065	-0.8044	9.9643	0.3611	1.5196	1.3422	0.4563	-0.1021	-0.2342	2.1544	-1.6275	9.525	-1.0373	0.5986	0.5648	0.0662	-0.6138	-0.8862	9.5332	-1.5083	-1.1306	33.1596	-1.4787	-0.736	-1.2581	0.6166	0.7482
-1.047	-1.2068	10.0236	0.422	1.4255	1.3707	0.4563	-0.0961	-0.2462	1.8699	-1.2258	9.7576	-0.6103	0.3767	0.4998	0.0801	-0.595	-0.8869	9.6504	-1.3358	-0.9526	33.2428	-1.1794	1.8602	-1.2751	0.648	0.7808
-1.4567	-0.8618	9.721	0.4446	1.3318	1.1256	0.4623	-0.0961	-0.2221	2.2621	-1.4568	9.1712	-0.9761	0.5371	0.3476	0.0943	-0.5778	-0.8518	9.4169	-1.5659	-1.2498	32.359	-1.1559	4.6835	-1.2047	0.6106	0.8041
-1.0584	-0.5181	9.4933	0.7791	1.2255	0.9948	0.4623	-0.0961	-0.2462	2.0903	-1.9142	9.1668	-0.8539	0.5339	0.5949	0.0946	-0.5962	-0.8689	8.9662	-1.4494	-0.9668	31.2869	-1.0388	7.3283	-1.2404	0.5814	0.7522
-0.8829	-0.6906	9.6144	0.8453	1.0404	1.2667	0.4683	-0.1081	-0.2342	2.2069	-0.9985	9.3492	-0.5767	0.5295	0.5335	0.081	-0.6334	-0.8854	9.5856	-1.4518	-1.3627	30.795	-0.8003	10.0883	-1.2057	0.6671	0.7618
-1.0483	-1.1494	9.9646	0.7227	1.0456	1.3002	0.4743	-0.1081	-0.2402	2.6686	-1.6865	9.2979	-0.8243	0.442	0.4388	0.1095	-0.6174	-0.8323	10.1069	-1.5086	-0.9441	30.1764	-1.022	12.3136	-1.2583	0.6517	0.7445
-0.7041	-0.8627	9.9129	0.6308	0.9885	1.3631	0.4623	-0.0961	-0.2462	1.9182	-1.2841	9.2833	-0.5785	0.4673	0.7177	0.0807	-0.615	-0.8683	9.6472	-1.5085	-1.1283	29.5458	-1.0835	12.7251	-1.2061	0.6358	0.7289
-0.5865	-0.9201	10.0332	0.76	0.984	1.5735	0.4623	-0.1081	-0.2342	2.4968	-1.1708	9.4142	-0.8856	0.5034	0.6869	0.1091	-0.6143	-0.9038	9.5988	-1.8511	-0.7222	29.0506	-0.9582	12.492	-1.258	0.6498	0.7628
-1.1657	-1.207	9.844	0.6608	0.9872	1.3319	0.4683	-0.0961	-0.2402	2.4951	-1.4571	9.2948	-1.0063	0.5983	0.5031	0.0825	-0.6925	-0.8473	9.2503	-1.5074	-1.0196	28.3243	-1.1063	11.2694	-1.2753	0.6324	0.7644
-0.7544	-1.2067	10.2656	0.5036	1.1153	1.1534	0.4683	-0.0961	-0.2462	2.7314	-1.3427	9.5969	-1.2564	0.4179	0.623	0.095	-0.6154	-0.8681	9.5317	-2.025	-1.2492	27.2844	-1.4985	9.4912	-1.2229	0.6321	0.7653
-1.22	-1.149	10.0203	0.7092	0.8916	0.9031	0.4683	-0.0841	-0.2402	2.4462	-1.6279	9.7092	-1.7166	0.4874	0.5616	0.0956	-0.6523	-0.9023	9.593	-1.8521	-1.014	26.1288	-1.6761	8.153	-1.2591	0.64	0.6914
-0.584	-1.0348	10.1512	0.5243	0.9604	0.8775	0.4623	-0.1141	-0.2342	1.8522	-1.2847	8.8662	-1.4393	0.483	0.4694	0.096	-0.6714	-0.9016	9.3509	-1.6822	-1.7182	25.2156	-1.6079	6.9095	-1.2933	0.6695	0.742
-1.0627	-1.2087	9.1961	0.8627	0.7936	0.9293	0.4563	-0.1081	-0.2281	2.6104	-1.4574	9.2972	-1.686	0.4567	0.4376	0.0798	-0.5766	-0.8698	9.5939	-1.6798	-0.955	24.8358	-1.4511	6.3975	-1.2409	0.6692	0.7429
-0.5858	-0.69	10.0929	0.7441	0.9823	0.9943	0.4743	-0.0961	-0.2462	2.7248	-1.5723	9.2399	-1.9027	0.4289	0.622	0.0799	-0.5935	-0.9226	9.8829	-1.9091	-0.7751	24.0489	-1.1685	5.4966	-1.2411	0.6536	0.7265
-0.9934	-0.8623	9.8482	0.8358	0.8258	1.0521	0.4743	-0.1021	-0.2221	2.4995	-1.8002	9.4724	-1.9938	0.5219	0.778	0.1091	-0.6143	-0.9038	9.583	-2.0261	-1.5398	22.9881	-0.9777	4.5677	-1.2399	0.6459	0.7998
-1.2228	-0.8618	9.9028	0.8036	0.949	0.9316	0.4683	-0.0901	-0.2342	2.2645	-1.4566	9.2901	-2.0881	0.4011	0.683	0.1376	-0.6144	-0.9214	9.3618	-1.3359	-1.1334	22.148	-0.6301	2.6833	-1.2396	0.6439	0.8181
-0.929	-0.8616	10.204	1.1113	0.7834	0.9842	0.4623	-0.0961	-0.2342	2.6094	-1.5148	9.2377	-2.181	0.402	0.8373	0.0954	-0.6346	-0.8674	9.708	-1.68	-0.9527	21.2909	-0.5614	1.2229	-1.2229	0.6321	0.7653
-0.756	-0.9194	10.2072	0.7404	0.8599	0.9326	0.4683	-0.0961	-0.2402	2.3976	-1.9131	10.1234	-2.207	0.6181	0.6558	0.0948	-0.6139	-0.9039	9.7635	-1.4509	-1.0091	21.0429	-0.1556	-0.0552	-1.2577	0.6479	0.7811
-1.0525	-1.265	9.7279	1.1084	0.8136	0.8624	0.4503	-0.1021	-0.2342	2.1531	-1.5704	9.4657	-2.2066	0.6186	0.5322	0.0943	-0.5947	-0.9046	9.4672	-1.6246	-1.599	20.779	-0.3672	-1.1041	-1.2409	0.6692	0.7429
-0.8751	-0.6896	10.0282	0.8635	0.8852	0.8993	0.4683	-0.0901	-0.2402	2.4937	-1.3428	9.2356	-2.3949	0.5275	1.0553	0.0806	-0.6142	-0.8861	9.5231	-1.6249	-1.6562	20.3236	-0.4233	-2.4221	-1.2051	0.6125	0.7857
-0.7114	-1.1512	9.4985	0.8593	0.8847	0.7468	0.4683	-0.0901	-0.2402	2.2688	-1.7424	9.4678	-2.4547	0.5306	0.5611	0.1087	-0.5951	-0.9045	9.7618	-1.8528	-1.1273	19.9142	-0.6048	-3.128	-1.2397	0.6107	0.8035
-0.7613	-1.0926	9.9112	0.8254	0.8552	0.656	0.4563	-0.1081	-0.2342	2.387	-1.9714	9.5885	-2.7029	0.5024	0.9617	0.066	-0.5961	-0.8513	9.8755	-1.5662	-1.124	19.2165	-0.5729	-2.9282	-1.2753	0.6324	0.7644
-0.5316	-0.633	9.9168	0.669	0.7394	0.6591	0.4743	-0.0841	-0.2402	2.2077	-1.7998	9.2882	-2.5166	0.5912	0.9945	0.0651	-0.5731	-0.9414	9.5895	-1.7954	-1.1889	19.4051	-0.2667	-2.4609	-1.2583	0.6517	0.7445
-1.049	-0.747	9.9656	1.0371	0.9372	0.4378	0.4743	-0.0961	-0.2342	2.3268	-1.399	9.5291	-3.0075	0.6914	1.0572	0.0815	-0.6534	-0.8667	9.5341	-2.0819	-1.1327	18.9187	-0.235	-2.3578	-1.2577	0.6479	0.7811
-1.3322	-0.9759	10.1958	0.9457	0.6666	0.652	0.4683	-0.1081	-0.2462	2.2055	-1.3993	9.2296	-3.012	0.446	1.0219	0.066	-0.5961	-0.8513	9.7024	-1.7384	-1.2447	17.4713	0.2629	-2.6229	-1.276	0.6869	0.7405
-1.0575	-0.9781	9.4922	1.0108	0.8169	0.6818	0.4563	-0.1021	-0.2402	1.9172	-1.3414	9.2238	-3.0122	0.4159	0.8978	0.0795	-0.5743	-0.9234	9.7047	-1.7954	-1.1282	16.6552	0.3607	-3.5902	-1.2228	0.6652	0.7799
-0.5947	-0.7486	9.6199	0.8242	0.733	0.6858	0.4503	-0.1021	-0.2221	2.1473	-1.1703	9.2289	-3.0412	0.5085	0.8994	0.0949	-0.6146	-0.886	9.4191	-2.254	-1.1939	15.3526	0.4026	-5.9057	-1.2406	0.6165	0.7485
-0.7604	-0.3449	10.0313	0.7951	0.887	0.6569	0.4683	-0.0901	-0.2281	2.3309	-1.6276	9.7069	-2.9181	0.5064	0.8996	0.1087	-0.579	-0.8339	9.4741	-2.3693	-1.3099	13.6995	0.0786	-9.1495	-1.2755	0.6499	0.7625
-0.5917	-1.1508	9.7372	0.6967	0.6462	0.5969	0.4743	-0.1021	-0.2281	2.2705	-1.456	9.5872	-2.8914	0.291	0.8958	0.0662	-0.6138	-0.8862	9.8198	-1.738	-1.0674	12.9784	0.062	-12.804	-1.2055	0.632	0.7656
-1.0442	-0.9189	10.2016	0.2966	0.7241	0.6071	0.4683	-0.0961	-0.2462	2.2643	-1.8573	9.2298	-2.7974	0.3515	0.7426	0.0942	-0.5939	-0.9225	9.2435	-1.566	-1.3699	12.4291	0.3849	-16.7297	-1.2581	0.6166	0.7482
-1.1679	-1.2073	9.7258	0.2552	0.6938	0.2418	0.4623	-0.0961	-0.2281	2.3236	-2.029	9.2901	-2.6076	0.5944	0.6238	0.0948	-0.6139	-0.9039	9.7112	-1.5647	-0.7772	11.2476	-0.0654	-19.4319	-1.2398	0.5776	0.7889
-0.7682	-1.0359	9.5568	0.1978	0.6053	0.4563	0.4683	-0.0961	-0.2462	1.9287	-1.6838	9.7579	-3.285	0.6055	0.7154	0.0946	-0.5962	-0.8689	9.3624	-1.6801	-1.1347	10.9666	-0.239	-22.6066	-1.2235	0.6866	0.7413
-0.8752	-0.6322	10.0283	0.8779	0.6075	0.4702	0.4623	-0.1081	-0.2402	2.0966	-1.5702	9.524	-3.1602	0.7554	1.0581	0.0808	-0.6319	-0.9211	9.9365	-1.9098	-0.949	10.3849	-0.1403	-24.0103	-1.2578	0.564	0.7538
-0.8831	-0.5756	9.6147	0.9747	0.6041	0.6204	0.4683	-0.0961	-0.2342	2.4933	-1.6863	9.1755	-3.4438	0.3922	0.9584	0.1088	-0.5959	-0.8867	10.1608	-1.6814	-1.1187	10.2104	-0.4795	-23.8623	-1.2402	0.6478	0.7814
-0.7082	-1.0932	9.676	0.8812	0.6994	0.5317	0.4743	-0.1021	-0.2402	2.3826	-1.6283	9.4109	-3.2256	0.5719	1.1473	0.0953	-0.6338	-0.8852	9.7085	-2.0242	-0.954	9.2392	-0.421	-22.2073	-1.2398	0.6283	0.8016
-0.4778	-1.0362	9.6806	0.8169	0.5492	0.5324	0.4683	-0.1081	-0.2402	2.3305	-1.4559	9.7072	-3.0084	0.6603	1.1493	0.0638	-0.4994	-0.873	9.9285	-1.2227	-1.2966	7.9454	-0.0868	-19.7672	-1.2579	0.6323	0.7647
-0.6459	-1.1503	9.9134	0.4534	0.7179	0.6947	0.4683	-0.1081	-0.2462	2.663	-1.8015	9.0006	-3.072	0.509	0.8994	0.0797	-0.5758	-0.8877	10.1001	-1.5098	-1.2942	8.0375	-0.0657	-16.9631	-1.2752	0.6148	0.7663
-0.8231	-0.6329	9.7339	0.7601	0.6438	0.6564	0.4743	-0.0901	-0.2402	2.4913	-1.8582	9.0563	-2.7663	0.4113	0.9908	0.1091	-0.6143	-0.9038	9.6976	-1.6245	-1.4777	7.3899	0.4245	-15.5489	-1.1881	0.5987	0.7512
-0.8207	-0.7477	9.8519	0.3234	0.6309	0.5144	0.4563	-0.1081	-0.2342	2.4351	-1.4572	9.1748	-2.2116	0.4328	0.9304	0.1081	-0.5752	-0.9232	9.4765	-1.7377	-1.1326	6.6465	0.7356	-15.8334	-1.2404	0.6322	0.765
-0.8227	-0.8629	9.7334	0.5377	0.6216	0.4481	0.4623	-0.1021	-0.2342	2.4354	-2.0869	9.1141	-1.5955	0.3929	0.6219	0.0954	-0.6346	-0.8674	9.6485	-1.5656	-1.0702	6.7412	0.7395	-17.0683	-1.2581	0.6166	0.7482
-0.7685	-0.8634	9.5572	0.6023	0.7414	0.4777	0.4623	-0.0901	-0.2462	1.976	-1.8566	9.2239	-1.4375	0.5752	0.4402	0.0797	-0.5758	-0.8877	9.5949	-1.5649	-0.8962	7.0722	1.7637	-19.327	-1.2402	0.5971	0.7687
-0.7603	-1.0349	9.9705	0.3869	0.781	0.4832	0.4743	-0.0961	-0.2402	2.3231	-1.3422	9.3509	-0.9471	0.4144	0.1911	0.0797	-0.5758	-0.8877	9.5345	-1.6228	-1.0727	7.9187	1.6491	-22.5226	-1.2396	0.5932	0.8053
-0.4721	-1.0355	9.9761	0.2902	0.6929	0.3935	0.4683	-0.1141	-0.2522	2.1647	-1.4548	10.0602	-0.7948	0.41	0.6236	0.0939	-0.5755	-0.9054	9.4143	-1.3369	-1.3657	7.4259	1.2652	-27.1481	-1.2405	0.5483	0.7376
-0.9417	-0.6907	9.5542	0.2287	0.7565	0.3649	0.4623	-0.1201	-0.2462	2.6147	-1.7432	9.4749	-0.5461	0.4988	0.4095	0.0806	-0.6142	-0.8861	9.7032	-1.5661	-1.1857	5.9365	1.502	-32.2603	-1.2573	0.5777	0.7886
-1.1694	-0.9774	9.6672	0.0484	0.9479	0.4314	0.4743	-0.0961	-0.2402	2.3821	-1.9146	9.3509	-0.299	0.5257	0.3177	0.0805	-0.6135	-0.904	9.7639	-0.9917	-0.9491	5.23	1.0879	-36.9135	-1.2224	0.5443	0.7746
-0.5317	-0.5756	9.917	-0.0719	1.1364	0.4354	0.4623	-0.1021	-0.2221	2.2653	-1.8	9.2894	-0.2086	0.4017	0.223	0.0941	-0.577	-0.8697	9.3555	-1.6814	-1.4848	4.934	0.9521	-42.1221	-1.2576	0.5796	0.7703
-0.9309	-1.0344	10.0853	-0.0756	0.9225	0.4342	0.4683	-0.0901	-0.2281	2.2113	-1.7995	9.4665	-0.023	0.4597	0.2861	0.0801	-0.595	-0.8869	9.4123	-1.5094	-1.483	4.1424	0.6034	-47.8204	-1.2222	0.5599	0.791
-0.5278	-0.8626	10.0936	0.0032	0.7951	0.0045	0.4683	-0.1081	-0.2402	2.097	-1.7419	9.5236	0.318	0.5469	0.0721	0.0797	-0.5758	-0.8877	9.2469	-0.7621	-1.1336	3.1008	0.8052	-52.0181	-1.2045	0.5072	0.7969
-0.5361	-1.2662	9.6198	-0.1717	0.8649	0.3447	0.4863	-0.0961	-0.2342	2.2656	-1.9144	9.2892	0.5283	0.2672	0.0366	0.0652	-0.5578	-0.8528	9.5971	-0.7612	-0.7183	2.6314	0.6329	-55.4363	-1.2575	0.5621	0.7721
-0.5853	-0.9775	10.0922	-0.2115	0.9263	-0.02	0.4683	-0.0961	-0.2281	2.5458	-1.5152	8.9394	0.6246	0.4803	0.0714	0.0669	-0.6345	-0.8498	9.3638	-0.4175	-0.955	1.8816	0.0885	-57.9962	-1.2571	0.5426	0.7923
-0.8841	-0.6333	9.5555	0.0966	0.7913	0.0327	0.4563	-0.0961	-0.2342	2.0942	-1.5704	9.4051	0.7769	0.3859	0.0082	0.0821	-0.6733	-0.8481	9.2443	-0.5904	-1.2497	0.3657	-0.0275	-59.0176	-1.2751	0.529	0.7573
-1.0528	-1.0925	9.7283	0.4376	0.6247	0.176	0.4683	-0.1081	-0.2342	2.2698	-1.685	9.5273	0.8986	0.3221	0.0691	0.0378	-0.6306	-0.9214	8.9076	-0.4168	-0.9642	-0.577	-0.6147	-57.9055	-1.274	0.4549	0.8014
-0.5925	-0.6909	9.7383	0.1623	0.7281	0.2138	0.4623	-0.1201	-0.2402	2.3894	-1.9711	9.7074	0.6563	0.4808	-0.1756	0.1247	-0.6561	-0.8307	9.0179	-0.2455	-1.1363	-0.9178	-0.9654	-54.2393	-1.2743	0.5076	0.7958
-1.1103	-1.2074	9.7269	0.7139	0.5824	0.1385	0.4623	-0.1141	-0.2402	2.6095	-1.572	9.2376	0.7763	0.2951	-0.3022	0.1244	-0.6539	-0.8842	9.5874	-0.4187	-1.1839	-2.0925	-1.0142	-48.0503	-1.2746	0.4412	0.7666
-0.7002	-0.5172	10.1502	0.9924	0.5709	0.1622	0.4683	-0.1021	-0.2462	2.271	-1.6849	9.5867	1.0238	0.4125	-0.0217	0.1228	-0.5779	-0.8695	8.9592	0.0986	-1.1946	-2.6675	-1.5028	-39.8819	-1.2217	0.4722	0.8004
-0.7159	-0.5191	9.3227	1.0606	0.508	0.4347	0.4623	-0.1021	-0.2402	2.3822	-1.4566	9.4113	1.1472	0.4108	-0.1142	0.1089	-0.5966	-0.8688	9.3624	0.5003	-0.9517	-3.2935	-1.5976	-29.6053	-1.2045	0.5072	0.7969
-0.5389	-0.979	9.5023	0.7129	0.2773	0.2893	0.4503	-0.1141	-0.2281	1.6895	-1.5695	9.3374	0.9307	0.3531	-0.1156	0.0512	-0.5758	-0.87	9.4691	0.0972	-1.3593	-3.7703	-2.2506	-18.4849	-1.2923	0.4433	0.748
-0.8847	-0.3458	9.5562	0.8394	0.4555	0.2873	0.4623	-0.1021	-0.2281	2.3817	-1.7429	9.3513	0.989	0.1383	-0.3664	0.123	-0.5956	-0.9044	9.2498	0.2713	-0.8964	-5.2597	-2.3465	-7.2367	-1.2561	0.4685	0.8364
-0.8274	-0.7485	9.4972	0.342	0.3537	0.2378	0.4563	-0.1141	-0.2342	2.2764	-1.4554	9.8843	0.6536	0.3276	-0.2401	0.0941	-0.577	-0.8697	9.1894	0.2134	-1.0729	-6.0902	-2.1347	3.6673	-1.2568	0.4899	0.7979
-1.0574	-1.0355	9.492	0.6504	0.2797	0.2603	0.4623	-0.1141	-0.2221	2.0277	-1.3422	8.9885	0.8692	0.3543	-0.1466	0.0946	-0.5962	-0.8689	9.0165	-0.0736	-1.194	-6.7117	-1.8564	13.0272	-1.2564	0.4704	0.8181
-0.7101	-0.6334	9.618	0.5852	0.3735	0.0794	0.4503	-0.1081	-0.2342	2.0923	-1.7423	9.2859	0.8975	0.2008	-0.2728	0.0798	-0.5766	-0.8698	9.4157	-0.0742	-1.186	-6.7028	-1.5073	19.2014	-1.2221	0.4917	0.7802
-0.8294	-0.9212	9.3786	0.6196	0.4336	0.1705	0.4743	-0.1021	-0.2402	2.6774	-1.8574	9.7135	0.7129	0.234	-0.1181	0.0813	-0.6357	-0.8318	9.2541	-0.2444	-0.7232	-6.5596	-0.7774	22.0549	-1.2215	0.4878	0.8168
-0.875	-1.3222	9.9675	0.3066	0.4765	-0.0047	0.4623	-0.0961	-0.2342	2.0898	-1.2274	9.2276	0.9565	0.0767	-0.2132	0.0815	-0.6534	-0.8667	9.2515	-0.0727	-0.8393	-6.4731	-0.5308	21.9986	-1.2394	0.4567	0.7836
-1.0537	-1.2651	9.6688	0.5876	0.4652	0.1104	0.4563	-0.1021	-0.2462	2.3289	-1.7995	9.5877	0.5229	-0.0392	-0.0924	0.0948	-0.5977	-0.8332	9.4751	-0.8198	-1.1292	-5.8289	-0.0622	19.7183	-1.2393	0.4898	0.7982
-1.0517	-1.0923	9.7874	0.1157	0.3921	-0.1531	0.4743	-0.1081	-0.2402	2.497	-1.7432	9.3537	0.2468	-0.0035	-0.1541	0.0954	-0.6346	-0.8674	9.482	-0.13	-0.7183	-5.1271	0.7189	16.1204	-1.2216	0.4546	0.8022
-1.0512	-0.7472	9.8474	1.017	0.4469	0.0083	0.4683	-0.1081	-0.2462	2.5558	-1.7432	9.4143	0.2442	-0.1266	-0.0945	0.109	-0.5974	-0.8509	9.9919	-0.1314	-0.883	-3.3029	1.2214	12.0298	-1.2051	0.511	0.7603
-1.0544	-0.8626	9.6698	0.5256	0.6508	-0.009	0.4623	-0.1081	-0.2342	2.2664	-1.7426	9.3489	0.1498	-0.2175	-0.0036	0.1091	-0.6143	-0.9038	9.7039	-0.5332	-1.0653	-1.8265	1.6913	8.7464	-1.2383	0.4665	0.855
-1.0557	-0.7478	9.6109	1.0197	0.3557	0.1603	0.4683	-0.1021	-0.2402	2.6091	-1.4003	9.2379	-0.0334	-0.1826	-0.2504	0.1082	-0.559	-0.8525	9.375	-0.2433	-0.3708	0.1704	2.2518	5.6093	-1.2736	0.4862	0.8343
-0.7688	-1.3235	9.497	0.7472	0.6729	0.1687	0.4683	-0.1081	-0.2402	2.669	-1.343	9.358	-0.1874	-0.1201	0.1211	0.1095	-0.6335	-0.903	9.772	-0.3017	-0.4797	1.4446	2.4128	2.6293	-1.2743	0.5076	0.7958
-0.8175	-0.6323	10.0294	0.8222	0.7633	0.5945	0.4623	-0.1201	-0.2281	2.0912	-1.7997	9.2264	-0.3456	-0.3326	0.1788	0.1087	-0.5951	-0.9045	9.9446	-0.5312	-0.4188	3.8625	2.8763	0.5289	-1.2398	0.5269	0.7762
-1.0549	-0.5752	9.6705	0.4124	0.9622	0.1785	0.4683	-0.1081	-0.2281	2.4368	-1.686	9.2338	-0.281	-0.2101	-0.0042	0.0947	-0.6131	-0.9217	9.8296	0.0999	-0.4188	4.9222	3.1209	0.3298	-1.2746	0.5095	0.7774
-0.5308	-1.093	9.9157	1.0978	1.026	0.3453	0.4623	-0.0961	-0.2281	2.318	-1.6861	9.0531	-0.496	-0.2059	-0.1281	0.0942	-0.5939	-0.9225	9.6549	-0.5316	-0.6579	6.2597	3.9748	2.0844	-1.2217	0.5229	0.8131
-0.3008	-0.8059	9.9209	1.5373	1.0087	0.609	0.4683	-0.0961	-0.2342	2.0399	-1.9706	9.522	-0.6211	-0.2661	0.0868	0.1086	-0.5782	-0.8517	9.6528	0.0418	-0.7142	8.5027	4.7879	6.1316	-1.2739	0.4881	0.816
-0.8225	-0.9779	9.7331	1.7245	0.8792	0.7563	0.4743	-0.1081	-0.2522	2.5477	-1.3433	9.0586	-1.1122	-0.1662	0.2113	0.0801	-0.595	-0.8869	9.5994	-0.0722	-0.5407	9.8073	5.5053	11.8283	-1.2397	0.5093	0.778
-0.7677	-0.6908	9.6167	2.3	0.8581	1.4743	0.4683	-0.1201	-0.2281	2.7337	-1.8004	9.6554	-0.9268	-0.1385	0.1812	0.1092	-0.6151	-0.8859	9.1953	-0.5889	-0.8424	9.8701	5.64	17.5331	-1.2393	0.4898	0.7982
-0.8879	-0.4037	9.3787	1.8261	1.0593	0.9684	0.4623	-0.1201	-0.2221	2.2085	-1.628	9.348	-0.8375	-0.3237	0.0545	0.0657	-0.5938	-0.9049	9.3036	-0.5901	-1.1318	9.834	5.7761	22.9006	-1.257	0.4743	0.7815
-1.0668	-0.8067	9.0198	2.0175	0.9302	1.2681	0.4623	-0.1021	-0.2462	2.2658	-1.5137	9.3494	-0.8954	-0.0783	0.3368	0.079	-0.5382	-0.8713	9.3595	-0.5904	-1.1891	10.9122	5.481	27.3087	-1.2571	0.5426	0.7923
-0.9966	-0.9202	9.6708	1.7415	0.942	1.3358	0.4683	-0.1021	-0.2281	2.0922	-1.2271	9.3464	-1.2939	-0.0396	0.0588	0.1095	-0.6174	-0.8323	9.9336	-0.0742	-0.9423	10.443	4.824	30.4738	-1.2399	0.4937	0.7616
-0.9989	-0.9205	9.5525	1.6837	0.7315	1.6106	0.4563	-0.1021	-0.2342	2.2658	-1.5137	9.3494	-1.0168	0.0159	0.3383	0.0807	-0.615	-0.8683	10.0989	-0.7641	-1.2915	9.7072	4.545	31.4976	-1.222	0.4741	0.782
-0.9443	-0.461	9.4366	1.3443	0.9898	1.4678	0.4863	-0.1081	-0.2342	2.3264	-1.7425	9.4689	-0.8295	0.1359	0.2481	0.0797	-0.5758	-0.8877	9.3083	-0.6466	-0.8986	10.5093	4.4232	30.4302	-1.2395	0.4742	0.7818
-1.0509	-0.9197	9.8469	1.1913	0.8743	1.5929	0.4743	-0.1021	-0.2281	2.2601	-2.0867	8.9917	-0.8295	0.1359	0.2481	0.0668	-0.6337	-0.8676	9.5354	-0.7046	-0.9526	10.8963	4.31	27.1523	-1.2395	0.5249	0.7945
-0.9417	-0.6907	9.5542	1.5872	0.9485	1.3396	0.4563	-0.1021	-0.2402	2.3803	-1.1706	9.3525	-0.6429	0.255	0.3741	0.1085	-0.5775	-0.8696	9.4734	-1.2218	-1.2474	9.6229	4.1461	21.872	-1.2397	0.5093	0.778
-1.0521	-0.8624	9.788	1.0889	0.9381	1.1992	0.4623	-0.0961	-0.2281	2.2638	-1.1704	9.2907	-0.3664	0.2197	0.343	0.0657	-0.5938	-0.9049	9.8739	-1.2796	-1.1813	9.7802	3.3332	15.9895	-1.1869	0.5403	0.8118
-0.7091	-1.2084	9.6166	1.1146	0.7838	1.1061	0.4683	-0.1081	-0.2402	2.5539	-1.9151	9.2951	-0.5498	0.2843	0.313	0.0953	-0.6338	-0.8852	9.3565	-0.8779	-1.3652	10.0986	3.6305	9.8888	-1.2402	0.5463	0.756
-0.5828	-1.0922	10.2101	1.1856	1.1788	1.1982	0.4683	-0.1021	-0.2402	2.3261	-1.1129	9.5296	-0.9197	0.2299	0.1569	0.0662	-0.6138	-0.8862	9.7576	-1.3372	-1.3005	10.4477	3.1848	4.6599	-1.2223	0.5775	0.7892
-0.6498	-0.8632	9.7367	0.1556	1.0676	0.887	0.4683	-0.1081	-0.2342	2.3278	-1.3417	9.5886	-0.7387	-0.0176	-0.1251	0.0938	-0.5748	-0.9233	9.7598	-1.2794	-1.1836	9.0579	3.0157	1.0147	-1.2751	0.529	0.7573
-0.7708	-0.8062	9.4391	0.8003	0.9486	0.8097	0.4623	-0.1021	-0.2462	2.6646	-1.5151	9.12	-0.3961	0.1915	-0.1208	0.0519	-0.6134	-0.8864	9.8183	-0.7628	-1.0638	8.3517	2.869	-0.6707	-1.2392	0.523	0.8128
-0.707	-0.518	9.7955	0.1171	0.9155	0.7041	0.4563	-0.1081	-0.2402	2.4874	-1.6869	8.8784	-0.4582	0.2219	0.1885	0.0657	-0.5938	-0.9049	9.4671	-0.8213	-1.5377	7.2852	2.4977	0.5113	-1.2394	0.5074	0.7963
-0.6458	-0.6327	9.9737	0.5185	1.1123	0.5734	0.4503	-0.1021	-0.2342	2.1471	-1.571	9.1686	-0.7362	0.1654	0.1561	0.0658	-0.5946	-0.887	9.4679	-0.5916	-1.4786	5.5141	2.3039	4.4559	-1.2751	0.529	0.7573
-1.0584	-1.1507	9.4327	-0.2224	1.4178	0.4101	0.4623	-0.1021	-0.2582	2.3823	-1.9718	9.3508	-1.1667	0.2031	0.2178	0.0947	-0.597	-0.8511	9.5934	-0.5897	-0.8927	3.6578	1.9201	9.9379	-1.258	0.5484	0.7374
-0.4112	-0.9777	10.1547	0.0475	1.1918	0.2498	0.4563	-0.0961	-0.2281	2.6116	-1.4573	9.3566	-1.5968	0.2713	0.3418	0.096	-0.6545	-0.8488	9.4181	-0.8771	-1.1306	2.162	1.9621	16.8424	-1.2577	0.5464	0.7557
-0.9355	-0.9774	9.849	-0.0798	1.166	0.1307	0.4623	-0.1021	-0.2402	2.2578	-1.629	8.9332	-1.291	0.1739	0.3715	0.0945	-0.5955	-0.8868	9.8123	-1.2803	-1.4158	1.166	1.8474	24.1637	-1.2396	0.5425	0.7926
-0.8781	-0.8625	9.8504	-0.5516	1.0014	-0.0723	0.4563	-0.1081	-0.2402	2.2717	-1.9711	9.5861	-1.6921	0.1195	0.3389	0.1093	-0.6158	-0.868	9.4789	-1.0487	-0.955	-1.2225	2.482	29.7464	-1.292	0.5428	0.7917
-1.1122	-0.7476	9.6689	-0.3386	0.9615	-0.1693	0.4683	-0.1021	-0.2342	1.8577	-1.5704	9.1033	-1.1053	0.232	0.4037	0.094	-0.5763	-0.8875	9.4063	-0.6497	-1.7133	-2.0806	2.686	33.8683	-1.257	0.525	0.7942
-0.9958	-0.7476	9.7303	-0.5272	0.8164	-0.196	0.4503	-0.1081	-0.2101	2.4969	-1.6859	9.3538	-1.1048	0.1725	-0.0297	0.0941	-0.577	-0.8697	9.8694	-0.5918	-1.3538	-3.4921	3.5119	36.8478	-1.2226	0.5794	0.7709
-1.1069	-0.5744	9.9649	-0.1549	0.7706	-0.1138	0.4623	-0.0961	-0.2402	1.8638	-1.6271	9.4003	-0.6769	0.0417	0.1231	0.0803	-0.5958	-0.869	9.4051	-1.3385	-1.8325	-4.8389	4.4909	40.1077	-1.2743	0.5583	0.8085
-1.1126	-1.1502	9.6088	-0.4116	0.5968	-0.3526	0.4743	-0.1021	-0.2161	2.4395	-1.8003	9.3524	-0.6127	0.1938	0.1877	0.0808	-0.6319	-0.9211	9.6411	-1.9686	-1.4801	-6.8985	5.4118	42.8255	-1.2747	0.5778	0.7883
-0.2486	-0.9217	9.6262	-0.3537	0.3193	-0.3251	0.4623	-0.1021	-0.2281	2.7899	-1.6862	9.5974	-0.829	0.1064	-0.0304	0.0664	-0.6146	-0.8684	9.7574	-1.2225	-1.3001	-7.541	5.6504	45.6803	-1.2747	0.5778	0.7883
-0.8678	-0.9763	10.3821	-0.043	0.5811	-0.4227	0.4623	-0.0841	-0.2342	2.6169	-1.6858	9.5938	-0.4605	0.0991	0.1863	0.0943	-0.5778	-0.8518	9.9322	-1.3942	-1.1222	-9.3067	5.8956	47.4175	-1.2229	0.5813	0.7525
-0.823	-0.6904	9.7338	-0.2283	0.5279	-0.388	0.4503	-0.1021	-0.2402	2.382	-1.8574	9.3511	-0.7643	0.2891	0.0656	0.1093	-0.6158	-0.868	9.471	-1.1075	-1.3637	-9.7316	5.804	47.4542	-1.258	0.5991	0.7501
-0.7729	-0.9215	9.3206	-0.2928	0.3166	-0.3571	0.4623	-0.0961	-0.2342	3.1362	-1.8587	9.6042	-0.613	0.1935	0.2804	0.123	-0.5956	-0.9044	9.8146	-2.0258	-1.3602	-9.0802	5.9284	46.6435	-1.1874	0.5773	0.7898
-1.227	-0.4023	9.7266	-0.3823	0.5038	-0.3539	0.4623	-0.0901	-0.2462	2.4997	-1.3995	9.5326	-0.5198	0.1929	0.0334	0.1096	-0.6343	-0.8851	9.7089	-1.5077	-0.8937	-9.8285	6.0605	44.6283	-1.2753	0.6324	0.7644
-0.6487	-0.8631	9.7958	-0.3807	0.5955	-0.3534	0.4683	-0.1141	-0.2522	2.4305	-1.5149	8.937	-0.6723	0.2871	0.1584	0.0806	-0.6142	-0.8861	9.4138	-1.7386	-1.4255	-11.4375	5.8573	42.0969	-1.2402	0.5971	0.7687
-0.534	-1.2084	9.7381	-0.6707	0.4228	-0.6829	0.4503	-0.1081	-0.2462	2.0333	-1.6851	9.2254	-1.0737	0.2324	0.1876	0.0803	-0.5958	-0.869	9.7605	-1.7383	-1.1852	-12.9274	5.9003	39.6008	-1.2232	0.634	0.7469
-1.0536	-0.69	9.7293	-0.63	0.5141	-0.3783	0.4743	-0.1201	-0.2402	2.264	-1.7429	9.2301	-0.9196	0.2601	0.281	0.0941	-0.5932	-0.9404	9.8127	-2.3131	-1.4779	-13.7059	6.2784	37.7781	-1.2226	0.5794	0.7709
-0.4728	-0.6905	9.9769	-0.4222	0.5652	-0.7186	0.4683	-0.1021	-0.2342	2.1002	-1.5698	9.7022	-0.8876	0.3209	0.2821	0.0938	-0.5748	-0.9233	9.4735	-2.0251	-1.3087	-15.5784	7.0276	36.4193	-1.2406	0.6165	0.7485
-1.1096	-0.9773	9.7866	-1.1105	0.6231	-1.0676	0.4743	-0.1021	-0.2281	2.1552	-1.4557	9.5848	-1.5076	0.1461	0.5559	0.1087	-0.5951	-0.9045	9.8155	-1.9109	-1.3014	-16.946	7.9268	35.9175	-1.2398	0.6283	0.8016
-0.5869	-0.6902	10.0338	-0.798	0.7936	-1.0437	0.4563	-0.0961	-0.2462	3.0689	-1.8023	9.1277	-2.03	0.186	0.4939	0.0656	-0.5769	-0.8521	9.8797	-2.0818	-0.9508	-17.553	8.8197	36.6948	-1.2399	0.5951	0.787
-0.9429	-0.6333	9.4953	-0.5874	0.6619	-1.1716	0.4623	-0.1141	-0.2402	2.1454	-1.8574	9.0492	-2.2435	0.3419	0.7743	0.066	-0.5961	-0.8513	9.7566	-2.1407	-1.4201	-18.2956	9.6228	36.7942	-1.259	0.7239	0.7187
-1.2882	-0.9201	9.4878	-0.8698	0.7951	-1.4081	0.4803	-0.1021	-0.2342	2.2725	-1.7993	9.6459	-2.4282	0.315	0.6191	0.0805	-0.6135	-0.904	9.6519	-2.3109	-0.9562	-20.1985	9.6339	34.9218	-1.2238	0.671	0.7249
-0.6471	-0.5179	9.9149	-0.8077	0.9146	-1.4699	0.4803	-0.0961	-0.2281	1.9235	-1.5125	9.5205	-1.9973	0.2177	0.124	0.094	-0.5763	-0.8875	9.5278	-2.4274	-1.4841	-21.6357	9.5858	31.9905	-1.2229	0.6321	0.7653
-0.8203	-0.9776	9.8513	-0.8738	0.8557	-1.5906	0.4623	-0.1141	-0.2221	2.3864	-1.7424	9.589	-1.3831	0.2657	0.8053	0.0367	-0.5746	-0.888	9.9316	-2.4845	-1.2428	-21.9147	9.3197	28.8449	-1.2405	0.6497	0.7631
-0.9423	-0.9783	9.4944	-1.0303	0.6789	-1.5573	0.4563	-0.1141	-0.2342	1.8677	-1.7984	9.5782	-1.4995	0.5758	0.5636	0.0795	-0.5582	-0.8527	9.6561	-2.0806	-0.7219	-22.2451	8.8677	26.0032	-1.2059	0.7022	0.7581
-0.8194	-0.8625	9.9107	-0.7318	0.4208	-1.7796	0.4563	-0.1021	-0.2402	2.3876	-1.7423	9.6484	-1.2527	0.6323	0.7195	0.0665	-0.6153	-0.8505	9.6475	-2.4265	-1.19	-24.1858	8.3926	22.0834	-1.1882	0.667	0.7621
-1.052	-0.9199	9.7878	-0.4059	0.2526	-2.1851	0.4683	-0.1021	-0.2342	1.9775	-1.4558	9.3436	-0.3295	0.5865	0.5658	0.0933	-0.5387	-0.8712	9.9373	-2.4261	-0.9509	-24.9917	8.3182	17.32	-1.2068	0.708	0.7031
-0.5372	-0.6337	9.6213	-1.2165	0.1327	-2.3796	0.4803	-0.0901	-0.2221	2.8429	-1.744	9.3608	-0.6359	0.6233	0.3806	0.0807	-0.615	-0.8683	9.4736	-2.8284	-1.37	-24.6558	9.0434	12.31	-1.2236	0.7042	0.7395
-0.3614	-1.0362	9.7419	-1.8823	0.0969	-2.9737	0.4623	-0.1021	-0.2582	2.8359	-1.8019	9.0042	0.5655	0.6643	0.3526	0.0945	-0.5955	-0.8868	9.593	-2.5407	-1.0748	-25.8665	9.7448	6.3437	-1.2227	0.6984	0.7944
-0.5918	-1.0933	9.7373	-2.454	-0.1562	-3.3884	0.4683	-0.0961	-0.2281	2.3262	-2.1433	9.4087	0.3212	0.7908	0.4779	0.0951	-0.6162	-0.8503	9.7046	-2.4266	-1.1889	-27.567	10.4785	0.3262	-1.2413	0.6887	0.7227
-0.8923	-0.4618	9.1422	-3.5559	-0.4184	-3.9732	0.4623	-0.1021	-0.2462	2.383	-1.8	9.4106	0.2895	0.7602	0.57	0.0658	-0.5946	-0.887	10.3365	-2.4267	-0.9429	-26.6322	11.7268	-4.8355	-1.2066	0.7236	0.7196
-0.6996	-0.8622	10.1493	-5.2665	-0.4098	-4.3891	0.4743	-0.0841	-0.2342	2.3329	-1.4557	9.826	0.8189	1.1187	0.7935	0.108	-0.5583	-0.8703	9.8233	-2.4833	-0.9534	-26.0489	12.2662	-9.8257	-1.2064	0.6885	0.7233
-0.8188	-1.15	9.91	-2.5003	-0.8628	-4.642	0.4563	-0.1021	-0.2402	2.3758	-1.7435	9.0542	0.4152	0.8511	0.3556	0.0803	-0.6127	-0.9218	10.0521	-2.1966	-0.8894	-26.7997	12.5925	-14.5796	-1.2065	0.6553	0.7087
-0.7666	-0.6332	9.6759	-4.4621	-0.8093	-4.1059	0.4503	-0.1021	-0.2402	2.8395	-1.8016	9.1824	1.1553	0.9004	0.2343	0.0946	-0.5962	-0.8689	10.001	-2.3102	-0.5992	-25.864	12.2319	-18.0613	-1.1891	0.7235	0.7199
-0.7111	-0.6911	9.5587	-2.641	-0.7939	-4.1806	0.4623	-0.1081	-0.2402	2.3846	-1.9716	9.4697	0.633	0.9403	0.1723	0.1234	-0.5986	-0.833	9.6554	-2.3103	-0.7811	-23.8059	11.5267	-20.7122	-1.2235	0.6866	0.7413
-0.6548	-0.5763	9.501	-2.4064	-0.7399	-3.5454	0.4623	-0.1081	-0.2462	2.1593	-1.6843	9.7626	1.1806	0.6234	0.2911	0.1094	-0.6166	-0.8502	10.0624	-2.1948	-0.3642	-21.9353	10.8486	-22.1563	-1.2058	0.7353	0.7727
-0.5436	-0.8645	9.2661	-2.3417	-0.8642	-3.3647	0.4563	-0.0961	-0.2221	2.1498	-1.6852	9.2872	0.8452	0.7228	-0.0783	0.08	-0.5943	-0.9048	9.7221	-1.907	-0.2533	-20.9862	9.8308	-22.7284	-1.2241	0.7237	0.7193
-1.2802	-0.9767	9.9014	-1.6435	-0.5854	-2.8615	0.4443	-0.1081	-0.2342	2.3768	-1.6861	9.1137	1.337	0.7138	0.0768	0.0926	-0.518	-0.9077	9.6554	-2.3677	-0.7813	-21.6278	8.3516	-22.4187	-1.2591	0.6907	0.7041
-1.1071	-1.092	9.9045	-1.1646	-0.5421	-2.3238	0.4683	-0.0961	-0.2342	2.4969	-1.6859	9.3538	1.1803	0.533	-0.112	0.1074	-0.5376	-0.9068	9.3702	-1.5639	-0.7257	-21.7259	6.8364	-21.011	-1.2234	0.6691	0.7432
-0.536	-0.6911	9.6803	-0.8714	-0.1859	-1.9933	0.4683	-0.1081	-0.2582	2.2104	-1.4561	9.4672	1.1505	0.5646	-0.2041	0.0811	-0.6342	-0.8675	9.5983	-1.5643	-0.7212	-21.9734	6.1208	-18.8993	-1.241	0.6867	0.7411
-0.8792	-0.8627	9.7913	-0.3754	-0.2674	-1.8838	0.4683	-0.1021	-0.2281	2.0404	-1.6844	9.582	0.9374	0.661	-0.3572	0.0792	-0.5559	-0.9063	9.4793	-1.3355	-0.9561	-23.5091	6.0246	-16.6517	-1.276	0.6869	0.7405
-1.051	-0.8622	9.8471	-0.4356	-0.1731	-1.8818	0.4623	-0.1081	-0.2281	2.2171	-1.2837	9.824	1.3047	0.6225	0.0134	0.0808	-0.6157	-0.8504	9.5416	-1.7937	-0.7232	-24.7714	5.7173	-15.9879	-1.2228	0.6145	0.7671
-1.2312	-0.5753	9.4898	-0.9482	0.1552	-1.6234	0.4563	-0.1141	-0.2281	2.2055	-1.3993	9.2296	1.4612	0.683	-0.3868	0.0943	-0.5778	-0.8518	9.4255	-1.9086	-0.8426	-24.1902	5.1927	-16.2919	-1.2057	0.6671	0.7618
-0.8224	-1.0354	9.7329	-0.8201	0.1811	-1.4738	0.4623	-0.1021	-0.2402	1.9844	-1.8558	9.6399	1.862	0.707	-0.4165	0.0667	-0.633	-0.8855	9.5941	-1.7946	-0.9554	-23.6207	4.8592	-18.3783	-1.2059	0.6514	0.7454
-0.5966	-0.9214	9.5013	-0.7201	0.2695	-1.2622	0.4743	-0.1021	-0.2281	2.2652	-1.2276	9.35	2.0788	0.795	-0.3219	0.0653	-0.5747	-0.9056	9.7179	-2.1946	-0.4878	-24.1147	3.9526	-23.4195	-1.2064	0.6885	0.7233
-1.1628	-0.9191	10.022	-0.9519	0.5255	-0.8585	0.4503	-0.1021	-0.2221	1.9194	-1.7991	9.2823	2.0448	0.6116	-0.387	0.0801	-0.5781	-0.8341	9.5421	-2.0805	-0.7242	-23.8822	3.4542	-31.2075	-1.2232	0.6847	0.7597
-0.7595	-0.8623	10.03	-0.6163	0.3889	-0.9285	0.4623	-0.0961	-0.2402	2.4941	-1.5145	9.2353	2.601	0.7249	-0.3841	0.0799	-0.5774	-0.8519	9.711	-2.1385	-0.8377	-22.5798	2.7422	-40.4417	-1.2411	0.6536	0.7265
-0.6458	-1.2078	9.9132	-0.8863	0.5539	-0.7379	0.4683	-0.1021	-0.2402	2.5544	-2.144	9.2946	2.5402	0.6969	-0.7553	0.0953	-0.6338	-0.8852	9.8241	-1.5651	-0.8333	-22.0731	1.6635	-50.041	-1.2762	0.6713	0.724
-0.6543	-0.8638	9.5003	-0.5781	0.3274	-0.6247	0.4743	-0.1081	-0.2221	2.0331	-1.6278	9.2256	2.9086	0.6895	-0.5077	0.0652	-0.5578	-0.8528	8.9767	-1.5623	-0.442	-19.9516	0.761	-58.2496	-1.2578	0.6654	0.7793
-0.5887	-0.9204	9.915	-0.4509	0.4447	-0.5661	0.4683	-0.1021	-0.2342	2.2729	-1.971	9.6456	2.5073	0.6348	-0.4785	0.0507	-0.5727	-0.9415	9.6067	-1.7923	-0.3135	-17.1227	-0.3026	-64.9356	-1.1878	0.6475	0.7823
-0.4216	-0.8639	9.623	-0.1043	0.7058	-0.4815	0.4563	-0.0961	-0.2342	2.0849	-1.1706	8.99	2.7565	0.7842	-0.5063	0.0659	-0.5954	-0.8691	9.597	-1.4498	-0.7791	-13.7302	-1.0669	-69.3733	-1.2225	0.6126	0.7854
-1.0608	-1.036	9.3147	-0.2583	0.6818	-0.4474	0.4623	-0.1021	-0.2221	2.4445	-1.9143	9.5898	2.8829	0.876	-0.9368	0.1079	-0.5575	-0.8882	9.836	-1.1039	-0.1897	-12.1189	-1.7374	-72.8786	-1.1887	0.6533	0.7273
-0.6521	-0.8635	9.6185	-0.2881	0.7442	-0.4463	0.4683	-0.1021	-0.2342	2.1008	-1.3408	9.7621	2.7909	0.998	-0.3788	0.0937	-0.5578	-0.8705	9.5414	-0.933	-0.6617	-11.1862	-1.7946	-74.9034	-1.223	0.5989	0.7507
-1.1244	-0.8641	9.0185	-0.5975	0.757	-0.4692	0.4563	-0.1021	-0.2462	1.973	-1.5707	9.1057	3.2515	0.899	-0.596	0.081	-0.6173	-0.8147	9.657	-0.4165	-0.5408	-8.7639	-1.741	-74.3335	-1.2054	0.6144	0.7674
-0.7115	-0.5186	9.5591	-0.311	0.6243	-0.0804	0.4563	-0.0961	-0.2402	2.0301	-1.8571	9.0468	2.6993	1.0004	-0.5643	0.0651	-0.557	-0.8707	10.1717	-0.5892	-0.4728	-6.5126	-1.8826	-70.5895	-1.2226	0.5794	0.7709
-0.7662	-0.8632	9.6754	-0.0601	0.95	-0.1456	0.4503	-0.0961	-0.2281	2.2681	-1.4562	9.4683	3.3757	0.9882	-0.4089	0.0804	-0.5966	-0.8512	9.5454	0.158	-0.3659	-3.5914	-1.8505	-64.0169	-1.2401	0.5795	0.7706
-0.9329	-0.5746	10.0273	0.4489	1.1445	0.2702	0.4683	-0.1021	-0.2402	2.4405	-1.2277	9.4724	3.6543	1.1054	-0.221	0.1092	-0.5989	-0.8152	9.4388	-0.1848	-0.0193	-1.3233	-1.7888	-56.5982	-1.2226	0.5794	0.7709
-0.7148	-1.1516	9.3212	0.3655	1.2409	0.5474	0.4563	-0.1081	-0.2462	2.0442	-1.7985	9.76	3.5261	0.8915	0.0529	0.1091	-0.6143	-0.9038	9.8964	-0.3574	0.0475	0.8897	-1.9432	-49.0615	-1.2746	0.5602	0.7902
-0.411	-1.0926	10.1544	-0.0462	1.9629	0.8666	0.4623	-0.1081	-0.2522	2.4456	-1.399	9.7097	3.4319	0.7709	-0.0729	0.1235	-0.6155	-0.8858	9.7234	0.1589	-0.0124	2.7866	-2.7149	-41.0739	-1.2578	0.5133	0.7411
-0.8129	-0.6892	10.2657	0.563	2.2107	0.3956	0.4623	-0.1081	-0.2522	2.1473	-1.6282	9.1685	3.246	0.6825	-0.1984	0.1086	-0.5782	-0.8517	9.604	-0.0714	-0.3073	5.2343	-3.3913	-34.3283	-1.2577	0.5464	0.7557
-1.0552	-1.0353	9.6102	1.3667	2.1163	0.467	0.4683	-0.0901	-0.2281	2.2631	-1.3422	9.2309	2.6258	0.4773	-0.0178	0.0652	-0.5739	-0.9235	9.8379	-0.1281	-0.0111	8.7956	-4.0375	-28.2518	-1.2579	0.5308	0.7392
-0.8186	-0.6324	9.9703	0.6174	2.3645	1.1578	0.4683	-0.1081	-0.2402	2.3801	-1.5713	9.2922	1.5506	0.6179	0.1064	0.1087	-0.579	-0.8339	9.8912	0.0433	-0.1844	11.9563	-4.6466	-23.7079	-1.2926	0.5466	0.7551
-0.832	-0.6916	9.2609	1.3167	2.4603	1.8125	0.4683	-0.1081	-0.2342	2.0341	-1.0553	9.3456	1.1818	0.7148	0.4472	0.0954	-0.6346	-0.8674	9.7282	0.045	0.2206	14.2152	-5.0971	-19.8198	-1.2574	0.5445	0.774
-0.9332	-1.0346	9.9671	0.4734	2.7733	2.4144	0.4383	-0.1021	-0.2342	2.4915	-1.9154	9.0562	0.8448	0.8124	0.5101	0.0532	-0.6709	-0.884	9.7772	0.0435	-0.1867	15.7532	-5.1429	-16.5224	-1.2052	0.5286	0.7584
-0.8242	-0.6906	9.6747	1.4031	2.5825	2.6348	0.4683	-0.0961	-0.2221	1.8073	-1.6268	9.4585	1.2766	0.8662	0.5736	0.094	-0.5763	-0.8875	10.1137	0.0419	-0.4716	17.7699	-4.7225	-14.7011	-1.2048	0.5091	0.7786
-0.5935	-0.7485	9.679	0.9294	2.9409	3.167	0.4623	-0.1021	-0.2462	2.0957	-1.6847	9.4643	1.1549	1.0199	1.0085	0.0801	-0.595	-0.8869	9.7827	0.1593	0.1055	20.5687	-4.9483	-13.8387	-1.2393	0.4898	0.7982
-1.164	-0.8617	9.963	1.8992	2.9023	3.6313	0.4563	-0.1081	-0.2221	2.0352	-1.5131	9.3446	0.1667	0.8827	1.1279	0.0658	-0.5946	-0.887	9.6061	0.0438	-0.1901	23.631	-4.584	-14.4444	-1.2221	0.4917	0.7802
-1.0522	-0.8049	9.7881	3.0352	3.4076	4.1862	0.4623	-0.0901	-0.2462	2.2145	-1.1695	9.7054	0.1651	0.8208	1.2503	0.0956	-0.6523	-0.9023	9.7778	-0.358	-0.1882	26.1822	-4.7686	-16.4737	-1.257	0.525	0.7942
-0.7708	-0.8062	9.4391	3.0496	3.5617	4.6138	0.4563	-0.0901	-0.2342	2.491	-1.2286	9.117	-0.6372	0.7118	1.2161	0.1091	-0.5982	-0.8331	9.4939	-0.4148	-0.1357	28.1098	-4.2682	-20.0124	-1.2583	0.5503	0.719
-0.8759	-0.8623	9.9687	3.7866	3.6218	4.4132	0.4563	-0.0961	-0.2342	2.4987	-1.4568	9.4731	-1.1316	0.5978	1.1206	0.1092	-0.6151	-0.8859	10.1872	-0.2994	0.3452	30.2964	-3.9552	-23.0067	-1.2216	0.5053	0.815
-1.0555	-0.8628	9.6107	4.5778	3.1905	4.2389	0.4683	-0.0961	-0.2342	2.3257	-1.9143	9.4092	-1.5036	0.4509	1.0555	0.0797	-0.5758	-0.8877	9.9496	-0.0713	-0.1254	34.4702	-3.771	-25.8904	-1.222	0.4741	0.782
-0.9911	-0.8621	9.9664	4.6018	3.1274	4.0245	0.4743	-0.0901	-0.2281	2.3309	-1.6276	9.7069	-1.8139	0.3932	1.4246	0.0949	-0.6146	-0.886	9.8341	0.1008	-0.1854	36.0548	-2.6227	-29.3115	-1.2751	0.4783	0.7445
-0.7032	-0.7476	9.9723	3.999	3.3073	4.4672	0.4443	-0.0781	-0.2402	2.4377	-2.0294	9.2331	-2.1792	0.5541	1.1488	0.1096	-0.6343	-0.8851	9.6639	-0.4726	-0.1909	36.8454	-2.8611	-32.3555	-1.2397	0.5093	0.778
-1.0589	-0.8632	9.4333	3.5831	3.1395	4.0493	0.4623	-0.1021	-0.2342	2.2622	-1.972	9.1108	-2.3395	0.2792	1.4525	0.0646	-0.554	-0.9421	9.7688	-0.4744	-0.6554	38.5181	-2.8552	-35.3486	-1.2221	0.4917	0.7802
-0.7089	-0.6908	9.6769	4.6919	2.8792	4.0818	0.4623	-0.0841	-0.2281	1.8644	-1.398	9.4601	-2.7355	0.5009	1.4558	0.0939	-0.5755	-0.9054	9.3781	-0.0706	-0.1951	39.5674	-2.3889	-37.237	-1.24	0.4605	0.747
-0.8232	-0.5755	9.7341	3.6911	2.7666	3.709	0.4683	-0.0901	-0.2402	2.3245	-1.4565	9.4101	-3.2614	0.3865	1.5764	0.0801	-0.5781	-0.8341	10.1136	0.0993	-0.4714	40.4246	-1.6748	-39.3612	-1.2735	0.4179	0.8234
-0.8194	-0.8625	9.9107	3.8816	2.8814	3.827	0.4683	-0.1021	-0.2342	2.1499	-1.7425	9.2871	-3.8133	0.5184	1.6395	0.1089	-0.5966	-0.8688	9.4901	-0.1859	-0.31	42.235	-0.5336	-40.8448	-1.2386	0.4684	0.8367
-0.8772	-0.7474	9.9098	3.8435	2.6989	3.6743	0.4683	-0.1141	-0.2281	2.034	-0.9981	9.3457	-4.404	0.2813	2.0049	0.0948	-0.5977	-0.8332	9.7129	0.2718	-0.5372	42.7562	0.6381	-41.2842	-1.257	0.4743	0.7815
-1.2246	-1.092	9.784	2.9523	2.9503	3.6975	0.4623	-0.1081	-0.2402	2.3238	-1.6283	9.3503	-4.8041	0.3482	2.3142	0.0519	-0.6134	-0.8864	9.5997	-0.2443	-0.5413	42.9122	1.6829	-40.3942	-1.2219	0.4566	0.7839
-1.4531	-0.3438	9.9587	4.2357	2.9908	4.2766	0.4743	-0.1141	-0.2281	2.4913	-1.343	9.1168	-5.6034	0.3927	2.2519	0.052	-0.6141	-0.8685	9.6564	-0.0149	-0.5393	42.4435	3.3728	-38.3325	-1.2038	0.4526	0.8208
-1.0447	-0.6314	10.2023	4.5028	2.7035	4.0549	0.4683	-0.1261	-0.2402	2.2049	-1.6284	9.1697	-6.2825	0.2519	2.0011	0.0943	-0.5947	-0.9046	9.4831	0.6161	-0.5988	41.2505	4.0129	-35.2688	-1.2216	0.4546	0.8022
-1.0473	-1.0343	10.024	5.3282	2.8555	4.7679	0.4683	-0.0901	-0.2342	2.3245	-1.4565	9.4101	-6.6861	0.1046	2.1522	0.0946	-0.5962	-0.8689	9.8256	-0.3024	-0.6537	41.1928	4.8644	-31.7594	-1.2213	0.4527	0.8206
-1.1676	-0.7472	9.786	6.5925	2.7109	4.7668	0.4563	-0.1081	-0.2342	1.9204	-1.6846	9.3419	-6.8123	-0.047	2.211	0.0939	-0.5755	-0.9054	9.8154	-0.3617	-1.1791	40.187	6.5491	-27.7757	-1.2217	0.4215	0.7876
-1.2261	-0.9197	9.7254	6.7038	2.5824	4.3973	0.4563	-0.1021	-0.2462	2.2108	-1.6278	9.4668	-6.8101	0.1056	2.3991	0.0806	-0.6142	-0.8861	9.5863	0.2697	-1.1814	38.9262	7.0627	-23.7279	-1.239	0.3865	0.7911
-0.6523	-0.7485	9.6188	7.0799	2.5675	4.6016	0.4743	-0.1141	-0.2402	1.987	-1.4549	9.8189	-8.1985	-0.1149	2.053	0.1091	-0.5982	-0.8331	8.8972	0.3273	-1.4283	37.2895	7.3327	-20.2963	-1.2383	0.4158	0.8423
-1.1642	-0.7468	9.9633	8.0966	2.3417	4.6366	0.4563	-0.1081	-0.2221	2.4955	-1.6288	9.2945	-8.724	-0.1987	2.205	0.0947	-0.597	-0.8511	9.2442	0.2129	-1.1884	36.2865	8.4065	-17.9951	-1.2562	0.3846	0.8091
-1.0605	-0.5759	9.3749	8.8062	2.312	4.6192	0.4683	-0.0841	-0.2402	2.1441	-1.8003	8.9899	-9.4914	-0.0332	2.4537	0.1241	-0.6354	-0.8672	9.8046	-0.0194	-1.703	34.1924	9.0252	-17.0724	-1.2041	0.437	0.8044
-1.05	-0.8046	9.9063	8.8907	2.1242	4.433	0.4563	-0.1201	-0.2281	2.5558	-1.7432	9.4143	-10.0653	0.5897	2.68	0.1084	-0.5767	-0.8874	9.4107	0.2118	-1.4184	31.1858	9.1584	-17.7483	-1.2388	0.4021	0.8075
-1.0508	-0.9772	9.8468	7.1819	2.0414	4.1385	0.4503	-0.1021	-0.2342	2.1612	-1.9703	9.8214	-9.6966	0.5527	2.68	0.1079	-0.5575	-0.8882	9.8091	0.0388	-1.4694	28.3224	8.8975	-20.5039	-1.2212	0.4351	0.8224
-1.0582	-0.6331	9.493	6.5106	1.822	3.4519	0.4623	-0.1201	-0.2342	2.1539	-1.9138	9.465	-8.0394	0.3088	2.8638	0.0653	-0.5747	-0.9056	9.3608	0.041	-1.0701	24.4311	8.6163	-25.6134	-1.2031	0.3805	0.8466
-0.7687	-0.7485	9.5575	3.8939	2.2329	2.4197	0.4623	-0.1021	-0.2281	2.2643	-1.8573	9.2298	-8.376	0.3768	2.6483	0.1082	-0.559	-0.8525	9.5271	0.212	-1.2994	21.036	7.7221	-32.1688	-1.2043	0.4214	0.7879
-0.595	-0.5761	9.6203	3.6811	1.841	1.6599	0.4683	-0.1141	-0.2281	2.3255	-1.8571	9.4093	-8.0284	0.8617	2.7502	0.0943	-0.5947	-0.9046	9.1805	0.097	-1.5401	18.1571	7.1392	-39.9899	-1.2381	0.3807	0.846
-1.2816	-0.8043	9.8427	0.982	1.1845	0.532	0.4623	-0.1141	-0.2402	2.0349	-1.8566	9.2845	-10.4312	0.8701	3.1786	0.0361	-0.5539	-0.9245	8.9624	0.2713	-1.0189	15.4375	7.1085	-47.1205	-1.1863	0.3335	0.7975
-1.1077	-0.1144	9.966	-3.052	1.6245	-0.374	0.4803	-0.1141	-0.2462	1.8649	-2.0849	9.3993	-9.3809	1.0668	3.2457	0.0947	-0.597	-0.8511	9.3579	0.4421	-1.1853	12.4481	6.1765	-51.8975	-1.2209	0.3825	0.828
-0.8287	-0.6911	9.4383	-1.8796	1.8195	-0.5539	0.4743	-0.1081	-0.2462	2.2126	-1.8566	9.5258	-7.6194	1.3454	2.8831	0.1221	-0.5403	-0.8531	9.1779	0.2687	-1.6562	8.7335	5.4866	-54.803	-1.2558	0.3651	0.8293
-0.643	-0.9199	10.0912	-1.5583	2.357	-0.4366	0.4803	-0.1081	-0.2281	2.3873	-2.0858	9.5883	-6.7871	1.4529	3.1644	0.108	-0.5583	-0.8703	9.0731	0.9591	-1.1308	4.9791	4.1429	-55.8147	-1.2394	0.4059	0.7709
-0.8764	-1.2074	9.9087	3.4354	2.4218	-0.8933	0.4683	-0.1201	-0.2402	1.9823	-1.5125	9.5811	-6.0504	1.3181	3.0397	0.0934	-0.5394	-0.8534	9.0646	1.2444	-1.5383	2.9959	2.6977	-55.4463	-1.186	0.3316	0.8159
-0.7527	-0.8615	10.3846	2.6195	4.5025	-1.5021	0.4623	-0.0961	-0.2281	2.4445	-1.9143	9.5898	-5.4932	1.5525	3.4464	0.0655	-0.5762	-0.8699	9.1787	1.2442	-1.536	2.6644	2.0734	-52.9291	-1.2038	0.3336	0.7972
0.6401	-0.6327	10.9441	7.0072	6.4644	-0.4383	0.4563	-0.1021	-0.2281	2.6102	-1.8581	9.237	-2.9236	2.247	3.1235	0.1236	-0.5993	-0.8151	9.4028	0.8989	-1.7661	1.9278	1.3545	-49.4814	-1.2734	0.3496	0.8125
-1.1018	-0.2862	10.2611	10.2743	5.7428	-1.4066	0.4683	-0.1081	-0.2402	2.1478	-1.8572	9.1681	-3.5029	2.4433	2.601	0.1083	-0.5598	-0.8346	9.5226	1.5883	-1.4111	0.2855	1.0316	-43.9385	-1.1855	0.2945	0.8379
-1.0468	-0.6892	10.0839	13.1926	6.2779	2.1558	0.4683	-0.1081	-0.2281	2.2696	-2.0858	9.4671	-4.2792	2.1483	2.8723	0.0939	-0.5594	-0.8347	9.4112	2.1054	-1.2365	1.627	0.5083	-36.0564	-1.2038	0.3336	0.7972
-1.0959	-0.458	10.5562	8.2049	8.7809	2.383	0.4563	-0.1081	-0.2402	2.3266	-1.7998	9.4688	-4.7128	1.9723	2.6831	0.0791	-0.539	-0.8535	9.1822	1.9334	-1.3	2.7015	0.169	-27.7015	-1.2208	0.3142	0.8171
-1.3033	-1.8996	8.5989	1.097	6.7909	11.4221	0.4743	-0.1081	-0.2281	1.6963	-1.4544	9.6941	-5.4626	1.5218	3.3224	0.0789	-0.5375	-0.8892	9.8086	1.8175	-1.3462	2.6065	-0.0474	-18.3337	-1.2037	0.2653	0.7864
-1.1955	-1.6635	11.2603	-8.0511	9.7978	2.7232	0.4563	-0.1081	-0.2281	2.5581	-2.2009	9.4728	-5.6483	1.4637	3.2901	0.1229	-0.5786	-0.8516	9.7032	2.1062	-0.8806	3.919	0.255	-8.4249	-1.1683	0.3471	0.8326
-1.4309	-1.4337	11.0199	-2.2366	14.1906	7.0001	0.4803	-0.1081	-0.2221	2.6739	-1.9149	9.5351	-5.2782	1.4583	3.0745	0.1369	-0.5768	-0.9051	9.5867	2.2207	-0.9992	5.637	0.7134	0.6166	-1.1862	0.316	0.7994
-0.0045	-0.0434	16.4867	1.9449	38.9866	3.4413	0.4803	-0.1141	-0.2342	1.8069	-1.9703	9.3984	-4.9958	1.5799	2.2432	0.0789	-0.5375	-0.8892	9.9914	2.3358	-0.699	7.7657	1.2087	7.5545	-1.1517	0.3352	0.7798
-0.8305	-1.7192	12.2717	45.1139	46.4896	20.5564	0.4803	-0.1201	-0.2221	2.3274	-2.1431	9.4681	-3.308	1.2753	2.1172	0.0797	-0.5758	-0.8877	10.0489	2.0489	-0.6989	9.1398	1.2526	11.7819	-1.1683	0.3471	0.8326
-1.9645	-1.8946	10.1812	25.089	55.5331	15.9395	0.4803	-0.1141	-0.2342	2.7282	-1.9726	9.358	-2.3212	1.3209	1.9035	0.0946	-0.5962	-0.8689	10.0024	1.8788	-0.1755	11.2716	0.9263	15.5212	-1.1687	0.3159	0.7997
-1.4715	-2.179	11.8445	16.5295	63.179	25.8328	0.4863	-0.1081	-0.2402	1.8006	-1.7992	9.1016	-2.4742	1.4145	2.152	0.0932	-0.5379	-0.8891	9.822	1.2462	-0.7064	14.7529	0.8462	18.3774	-1.221	0.2986	0.8007
-2.2087	-2.0037	12.4804	17.5976	71.4709	30.4007	0.4863	-0.1081	-0.2281	2.0895	-2.086	9.107	-1.2734	1.3047	1.5035	0.1356	-0.5192	-0.9074	9.4331	1.2487	-0.1892	19.1732	1.4153	20.0004	-1.2031	0.3297	0.8339
-1.6413	-2.6384	11.9582	18.9994	80.3412	37.7712	0.4863	-0.1321	-0.2342	2.2648	-1.571	9.2898	-2.0097	1.5301	2.0004	0.1077	-0.5398	-0.8532	9.8332	1.4203	-0.1222	23.2776	1.9655	18.3622	-1.238	0.2617	0.8224
-1.765	-2.3517	11.5429	13.9066	88.8664	43.9858	0.4863	-0.1141	-0.2281	2.6185	-1.8573	9.6529	-0.2843	1.5932	1.9119	0.1075	-0.5383	-0.889	9.2472	1.2462	-0.9513	26.7182	2.8945	14.5596	-1.1856	0.3121	0.836
-1.9816	-1.947	12.3077	8.8904	98.3266	47.9156	0.4983	-0.1201	-0.2342	2.733	-1.5142	9.656	-0.925	1.9407	2.1641	0.1369	-0.5768	-0.9051	9.4183	1.1886	-0.948	28.5886	4.6909	10.7207	-1.2027	0.3103	0.8541
-1.9841	-3.0974	12.0685	8.0568	105.824	55.73	0.5043	-0.1261	-0.2281	2.3245	-1.9144	9.3498	-0.3671	2.146	2.1996	0.0925	-0.5172	-0.9256	9.0216	1.0749	-0.8398	30.9921	6.1408	8.6797	-1.2035	0.3317	0.8156
-2.2144	-3.212	12.0638	7.8638	113.2019	63.3149	0.5103	-0.1261	-0.2342	2.3808	-1.8575	9.2916	-0.6468	1.9675	1.9797	0.0797	-0.5758	-0.8877	8.8496	0.9029	-0.9022	32.0176	7.6424	10.5823	-1.1852	0.3433	0.869
-3.1913	-2.9224	12.2227	-0.6176	121.0669	68.0527	0.5283	-0.1441	-0.2281	2.0313	-1.857	9.1063	-0.2797	1.8085	1.7922	0.109	-0.5974	-0.8509	8.8403	1.016	-1.3686	31.2948	8.7975	15.962	-1.221	0.2986	0.8007
-3.0248	-3.096	11.871	-8.4849	125.8419	71.1709	0.5163	-0.1261	-0.2221	1.9143	-1.6279	9.0449	-2.4978	1.8136	2.2517	0.0928	-0.5187	-0.8898	8.9583	0.6722	-1.1925	31.4187	10.0915	25.2428	-1.1513	0.3333	0.7981
-3.8524	-2.3423	13.8655	-28.3874	131.4936	68.6663	0.5404	-0.1321	-0.2221	2.1507	-1.5707	9.3469	-2.2926	1.2277	2.0254	0.1225	-0.5595	-0.8524	9.1898	0.7298	-1.0126	33.8367	11.4803	32.1069	-1.1681	0.312	0.8363
-2.7014	-2.5243	10.7562	38.5836	123.2442	95.8316	0.5464	-0.1381	-0.2161	2.5047	-1.9714	9.7097	-3.9832	1.439	2.4278	0.0639	-0.5002	-0.8551	8.7913	0.2716	-1.0223	30.7874	13.2176	40.2919	-1.1856	0.3121	0.836
-1.8517	-3.6778	9.8837	-11.7529	123.644	90.8016	0.5464	-0.1261	-0.2281	1.928	-1.9128	9.698	-3.4327	1.2456	2.3944	0.1069	-0.5176	-0.9255	9.4736	0.8439	-1.0649	29.0032	12.5766	48.8455	-1.2204	0.3455	0.8501
-2.3784	-0.6228	12.7759	-4.6886	124.7908	91.9488	0.5464	-0.1381	-0.2041	2.2087	-2.2004	9.2874	-3.9321	0.8256	2.0772	0.0932	-0.5379	-0.8891	9.2973	0.5563	-1.3611	28.0683	12.923	56.4855	-1.2037	0.3161	0.7991
-3.0284	-1.7163	11.8152	32.8436	116.2116	96.9991	0.5704	-0.1321	-0.2101	2.2003	-1.6861	8.9319	-2.9818	0.6249	2.137	0.1217	-0.538	-0.9067	9.3586	-0.0168	-1.187	26.69	10.2758	65.4351	-1.1856	0.3628	0.8488
-2.074	-0.7436	10.5955	42.4112	106.7983	91.1569	0.5584	-0.1321	-0.1921	2.2653	-1.8	9.2894	-4.777	0.0733	1.877	0.1372	-0.5791	-0.8515	9.5811	-0.0755	-1.4744	29.8279	7.9954	71.932	-1.2037	0.3668	0.8118
-1.965	-0.3995	10.3031	56.671	96.1074	82.5989	0.5884	-0.1381	-0.2041	2.3184	-1.8578	9.0528	-4.066	0.245	1.9739	0.0781	-0.4999	-0.8729	10.3805	-0.6504	-1.4605	29.0466	6.413	75.5074	-1.2384	0.3826	0.8277
4.0758	-1.1665	6.7558	87.8447	81.6049	84.8699	0.5884	-0.1441	-0.1801	1.5167	-1.6264	9.3337	-5.1145	0.0802	1.5986	0.093	-0.5364	-0.9248	9.9785	-0.3634	-1.5841	24.057	4.0151	77.2025	-1.2397	0.4079	0.7526
6.45	-3.5343	4.1376	43.5828	56.1315	59.0655	0.5884	-0.1561	-0.1801	1.8597	-1.9137	9.162	-4.6527	0.1025	1.7233	0.094	-0.5763	-0.8875	10.026	-0.8243	-2.1099	21.978	2.2325	77.1315	-1.2207	0.3981	0.8445
8.5927	-0.7118	8.0266	-8.3019	50.1849	4.8532	0.5704	-0.1621	-0.1741	1.9238	-1.627	9.5203	-4.5009	-0.0226	1.6596	0.1074	-0.5376	-0.9068	9.5785	-0.5924	-1.6513	22.9208	-0.5731	76.4164	-1.1857	0.3804	0.8469
7.7747	-2.0343	7.2985	31.791	56.7135	-52.4209	0.5884	-0.1621	-0.1921	2.2137	-2.3144	9.5248	-5.46	-0.2523	1.7465	0.078	-0.4991	-0.8907	10.3194	-0.9953	-1.6963	20.2155	-1.4504	73.4876	-1.2216	0.4039	0.7895
5.6531	-3.4741	4.654	18.0996	44.6336	-94.7253	0.5824	-0.1621	-0.1741	2.2655	-1.8572	9.2893	-4.9752	-0.6596	1.74	0.0937	-0.5578	-0.8705	10.0848	-1.2257	-2.0518	16.8321	-1.9112	66.3936	-1.1868	0.4213	0.7882
3.869	-5.4833	4.5552	-30.9096	26.7752	-108.7891	0.5944	-0.1681	-0.1801	2.0336	-2.3147	9.1648	-7.3512	-0.9867	1.5139	0.0935	-0.5563	-0.9062	10.6064	-1.4545	-1.6339	16.0882	-2.2487	57.3396	-1.221	0.4508	0.8389
2.5703	-4.155	6.0693	-52.911	11.2846	-98.2218	0.5944	-0.1381	-0.1801	2.324	-2.2007	9.2898	-7.937	-1.038	1.4811	0.0787	-0.5198	-0.8542	10.217	-1.8538	-1.1765	15.0647	-1.2313	49.0074	-1.2388	0.4528	0.8203
1.8231	-3.4058	6.2338	-67.7343	-1.5947	-78.7575	0.5764	-0.1501	-0.1621	1.9196	-2.3715	9.2217	-6.863	-1.2101	1.5725	0.079	-0.5382	-0.8713	9.9262	-1.9117	-1.4742	14.3234	-0.2774	40.9754	-1.1869	0.4388	0.7864
2.4027	-2.7164	6.4831	-83.2611	-21.1906	-56.0189	0.5944	-0.1381	-0.1681	2.6703	-2.3732	9.2965	-6.8869	-0.9314	1.1142	0.1083	-0.5598	-0.8346	10.4418	-1.9121	-1.3472	13.3366	0.8312	32.9832	-1.2399	0.4937	0.7616
3.2862	-1.3929	7.6261	-95.3897	-46.2349	-36.7156	0.5944	-0.1441	-0.1921	2.0914	-2.3721	9.1658	-7.0994	-0.8344	0.8067	0.0784	-0.5183	-0.89	9.9258	-1.6823	-1.4734	12.255	2.1204	26.3538	-1.2217	0.4215	0.7876
3.5324	-0.1262	8.5793	-97.6924	-69.9389	-22.7657	0.5944	-0.1261	-0.1681	2.2653	-2.2579	9.229	-5.4413	-1.0771	0.7126	0.0783	-0.5175	-0.9078	9.5912	-2.1394	-1.1317	11.8962	2.8462	21.6662	-1.2561	0.4685	0.8364
4.1023	-0.9332	8.1749	-92.2618	-91.0499	-13.5024	0.5944	-0.1201	-0.1861	2.1509	-2.1431	9.2863	-7.6991	-1.6221	0.7298	0.0934	-0.5556	-0.924	9.9307	-1.9109	-1.2408	10.3968	3.3167	20.4151	-1.2391	0.5054	0.8147
4.0551	-0.4717	8.7659	-88.0378	-108.6777	-9.802	0.5704	-0.1081	-0.1861	1.8069	-1.9703	9.3984	-8.4802	-2.2228	0.7177	0.1229	-0.5786	-0.8516	9.6523	-1.7945	-0.8959	8.7813	3.6281	20.7028	-1.2219	0.5073	0.7966
3.9329	0.2752	8.47	-83.853	-122.989	-10.6877	0.5704	-0.1261	-0.1981	2.2725	-2.3145	9.5854	-8.0885	-2.7796	0.1217	0.1069	-0.5015	-0.8548	9.4123	-1.5667	-1.4832	7.0568	3.441	22.612	-1.1871	0.4739	0.7826
3.6512	0.3915	8.8193	-82.0454	-133.0209	-14.1143	0.5704	-0.1021	-0.1861	2.0965	-2.0281	9.4636	-5.1657	-3.0406	-0.7427	0.0637	-0.4987	-0.8908	9.419	-2.1967	-1.1937	3.7043	3.9363	24.5116	-1.2222	0.5599	0.791
2.912	0.4516	9.3367	-80.6661	-140.2576	-19.1004	0.5524	-0.1081	-0.1981	2.4339	-2.4305	8.9946	-3.4336	-2.7597	-1.5068	0.0786	-0.536	-0.9249	9.4676	-1.9114	-1.6	1.6048	4.8587	26.799	-1.2564	0.4704	0.8181
2.5729	0.5106	9.6848	-76.3941	-145.908	-25.4897	0.5404	-0.1021	-0.1861	2.4374	-1.915	9.2333	-3.954	-2.5975	-1.4739	0.1231	-0.5963	-0.8865	9.4724	-2.0253	-1.367	-1.2125	5.6885	29.6836	-1.2567	0.4724	0.7998
1.8384	0.3987	10.4382	-67.4017	-150.4394	-31.7126	0.5584	-0.1021	-0.1981	2.3804	-2.201	9.2315	-3.5455	-2.1744	-1.5274	0.1075	-0.5383	-0.889	9.4095	-1.9115	-1.6595	-6.0273	6.4332	31.866	-1.2041	0.437	0.8044
1.2084	0.1128	10.6025	-58.3021	-154.4497	-36.5929	0.5464	-0.1081	-0.2221	2.2174	-2.3713	9.703	-3.6642	-1.8971	-1.2756	0.1068	-0.5007	-0.8726	9.011	-2.4272	-1.6694	-11.9706	7.1544	32.6834	-1.1869	0.4895	0.7991
0.4012	0.9193	10.6478	-51.4086	-157.7291	-42.3606	0.5283	-0.0901	-0.2041	2.1459	-2.0291	9.0489	-2.614	-1.7603	-1.5493	0.1068	-0.5007	-0.8726	8.9437	-2.429	-2.1958	-17.6638	7.8173	32.3538	-1.2567	0.5738	0.8252
-0.5644	-0.6874	11.2159	-48.2816	-160.1353	-45.1648	0.5223	-0.0961	-0.2041	2.3813	-2.0864	9.2912	-3.0757	-1.8426	-2.0149	0.0797	-0.5758	-0.8877	9.1119	-2.774	-2.3686	-23.383	8.884	31.1425	-1.2396	0.441	0.7672
-1.0702	-0.3973	11.9157	-46.8979	-161.4942	-49.0794	0.4983	-0.0781	-0.2101	2.3254	-2.3151	9.3489	-2.0183	-1.3073	-2.1579	0.0509	-0.5573	-0.8529	9.4567	-2.9462	-2.2457	-28.4721	9.2741	28.9747	-1.2572	0.5601	0.7905
-1.2142	-1.4286	13.3284	-40.3959	-162.6668	-52.3854	0.4983	-0.0961	-0.2161	2.4483	-2.4863	9.7075	0.846	-1.2934	-2.4615	0.1077	-0.556	-0.9239	9.4473	-2.8332	-2.7121	-35.1031	9.486	25.9696	-1.2738	0.4705	0.8178
-2.1945	-1.1393	13.31	-27.9409	-164.7955	-56.604	0.4863	-0.0961	-0.2221	2.3333	-2.1426	9.7652	2.9215	-0.7123	-3.0035	0.0777	-0.4968	-0.9443	9.2894	-3.1748	-2.0749	-40.5806	9.1469	20.9223	-1.1699	0.5265	0.7773
-3.0813	-1.8306	12.0503	-16.6642	-167.9392	-59.2138	0.4743	-0.0901	-0.2101	2.5535	-2.2586	9.235	3.5395	-0.7199	-3.682	0.0784	-0.5183	-0.89	8.4324	-2.9442	-2.1496	-44.8609	8.4132	13.1582	-1.2579	0.5815	0.752
-5.1597	-2.9775	11.7115	-28.644	-172.2389	-58.5204	0.4683	-0.0841	-0.2101	2.3231	-1.8573	9.2905	2.1795	-0.8839	-3.0078	0.0636	-0.4818	-0.838	8.9414	-2.4294	-2.3125	-46.8448	6.8207	2.3641	-1.2218	0.5404	0.8112
-7.6812	-2.7987	12.4309	-45.5688	-176.4224	-50.0515	0.4563	-0.0961	-0.2402	2.1514	-2.372	9.2859	0.3245	-1.3125	-3.0805	0.0785	-0.5021	-0.8193	8.8897	-2.8874	-2.0819	-46.4143	6.3028	-8.9107	-1.2398	0.5269	0.7762
-9.8627	-2.5062	12.8617	-56.2468	-179.9524	-35.0206	0.4383	-0.0841	-0.2221	2.3845	-2.4295	9.4093	-1.9075	-2.1041	-2.944	0.0933	-0.5387	-0.8712	9.6371	-3.0596	-1.7758	-49.3035	4.1835	-18.2234	-1.1877	0.5792	0.7714
-12.3468	-1.7549	12.5788	-60.8937	-182.6371	-13.5414	0.4323	-0.0901	-0.2221	2.1485	-2.1433	9.1675	-2.2005	-2.9884	-3.2074	0.0928	-0.5187	-0.8898	9.4605	-3.2324	-2.0717	-52.037	2.1248	-27.353	-1.2397	0.56	0.7908
-14.8363	-0.4292	12.0609	-58.2356	-179.0398	10.1787	0.4323	-0.072	-0.2281	2.3234	-1.9718	9.2902	-2.5344	-4.4241	-3.5733	0.0494	-0.4982	-0.891	9.6926	-2.8304	-1.8322	-53.5645	-0.6161	-36.2492	-1.24	0.562	0.7724
-16.0473	-0.0246	12.0382	-52.7788	-155.0995	32.2119	0.4083	-0.072	-0.2221	2.16	-2.4856	9.7016	-3.9178	-6.0558	-4.2225	0.0936	-0.5409	-0.8176	9.6434	-2.7141	-1.4245	-51.7917	-1.1512	-43.4222	-1.2056	0.5481	0.7382
-16.2416	1.2382	11.0332	-42.0141	-114.6424	48.3856	0.4083	-0.0781	-0.2221	2.1567	-2.0853	9.5835	-4.1677	-8.013	-5.03	0.0639	-0.5002	-0.8551	8.9025	-3.0572	-1.4406	-48.4253	-1.7007	-47.5443	-1.2047	0.4916	0.7805
-22.2794	30.9383	20.5596	-221.6943	76.3113	41.6185	0.3963	-0.0841	-0.2402	2.7325	-1.8005	9.596	-2.0831	-8.7784	-6.646	0.0649	-0.5555	-0.9064	8.8443	-2.3113	-1.439	-40.2723	-1.4264	-52.6946	-1.2225	0.5111	0.76
-18.5007	-0.4844	10.2168	268.0145	36.7038	69.0252	0.4203	-0.0781	-0.2281	2.2042	-2.3154	9.0495	-2.7815	-9.8722	-6.5741	0.1068	-0.5007	-0.8726	9.4773	-2.2539	-1.1344	-30.2663	-2.2628	-58.9932	-1.2923	0.494	0.7607
-22.1619	7.8495	6.3255	171.1947	110.6309	4.4653	0.4203	-0.0961	-0.2221	2.783	-2.7745	9.1198	-2.3235	-11.5413	-5.8001	0.0917	-0.4788	-0.9271	9.9263	-1.2805	-1.4135	-23.5065	-1.4545	-66.0126	-1.204	0.5384	0.8298
10.0431	0.8395	8.7086	261.2402	136.4369	100.927	0.4263	-0.0841	-0.2402	2.6191	-2.6014	9.592	-0.3725	-14.1838	-5.9056	0.0784	-0.5183	-0.89	10.8496	-0.1324	-0.7492	-19.7714	-2.1125	-83.9001	-1.2226	0.5287	0.7581
4.0613	-13.1078	13.9343	184.2759	103.4944	37.6058	0.4383	-0.1081	-0.2462	3.0222	-1.9155	9.6611	-7.0157	-20.2735	-5.7169	0.0916	-0.4619	-0.8743	12.098	0.2662	-1.0144	-16.6854	-4.3085	-111.5366	-1.2579	0.4801	0.7265
0.7565	-1.6752	7.8715	101.6741	98.5899	-67.7849	0.4443	-0.1201	-0.2522	2.3469	-3.3433	10.2976	-11.7343	-28.4895	-4.2039	0.0793	-0.5405	-0.8178	12.7807	0.6091	-1.0578	-17.5749	-10.8414	-130.1521	-1.1865	0.4193	0.8065
-4.3684	5.2928	8.6749	-0.1238	105.7366	-55.4493	0.4623	-0.1381	-0.2342	2.4907	-1.1141	9.1173	-12.9184	-26.403	-6.3616	0.1072	-0.5199	-0.8719	12.214	0.4959	-0.8945	-18.9416	-18.6568	-133.9574	-1.1869	0.4388	0.7864
-2.9097	1.3892	12.2978	7.7739	76.0397	-14.0276	0.4503	-0.1201	-0.2342	1.0063	-1.6815	9.7389	12.1775	-19.7946	-7.4355	0.0775	-0.4792	-0.9094	11.9214	0.8392	-1.2491	-12.4576	-23.8974	-130.0414	-1.2216	0.4039	0.7895
-0.661	0.9756	9.3274	41.0577	60.0434	10.7872	0.4443	-0.1321	-0.2342	2.173	-0.4809	10.5969	3.6031	-22.6497	-9.2617	0.0938	-0.5586	-0.8526	11.4867	0.9586	-0.1491	0.9943	-26.7766	-118.4237	-1.2219	0.4058	0.7712
0.0274	-0.9813	8.9816	2.7657	55.8294	17.3994	0.4443	-0.1261	-0.2462	1.8036	-1.5699	9.2803	48.1786	-8.6189	-7.1735	0.0501	-0.5197	-0.8366	10.0626	2.1088	0.0015	6.0925	-26.4953	-95.9701	-1.1859	0.3647	0.8305
0.2772	-1.0943	9.9906	-12.2458	56.6623	8.0371	0.4503	-0.1501	-0.2402	2.838	-2.4256	11.9133	74.4496	-9.5659	-12.4259	0.0631	-0.4618	-0.8567	8.5909	2.2853	0.556	7.6339	-21.3056	-54.2819	-1.2206	0.3806	0.8463
-0.3522	-1.1501	10.2145	-0.5863	52.3309	-4.657	0.4503	-0.1321	-0.2462	1.7008	-1.3395	9.9321	26.4506	-29.8695	1.3045	0.0794	-0.5574	-0.8706	7.6702	1.654	0.0686	1.5901	-14.1292	7.3018	-1.2382	0.3475	0.8314
-0.589	-0.7479	9.9154	4.0938	52.9359	-3.3641	0.4743	-0.1381	-0.2462	2.8535	-1.0388	18.6282	-61.2449	-110.3645	3.7929	0.0494	-0.4982	-0.891	7.4326	1.1362	-0.4631	-9.6196	-6.277	55.1192	-1.2036	0.3492	0.8137
-3.1715	0.0056	10.5169	-0.8175	48.9896	5.8541	0.4563	-0.1261	-0.2281	3.3022	-4.4242	14.7103	8.1009	-109.2681	-33.0045	0.0219	-0.5542	-0.9067	8.6166	1.0745	-1.1395	5.7357	0.3634	76.6941	-1.2036	0.3492	0.8137
-2.354	-2.8123	10.8213	-40.032	18.2305	3.1224	0.4623	-0.1261	-0.2462	3.0992	-3.797	13.2819	-12.0764	-99.7991	-13.136	0.0516	-0.5788	-0.7986	9.2706	0.781	-2.7025	27.4099	10.932	80.5371	-1.221	0.3493	0.8134
-1.4967	-1.2621	10.6055	-10.8659	14.5886	8.6766	0.4683	-0.1321	-0.2342	3.4911	-2.4253	12.8771	-12.5125	-138.1725	-26.9469	0.0217	-0.5365	-0.8718	10.515	0.7772	-3.2025	24.9196	17.8369	73.451	-1.2215	0.3864	0.7914
-1.0506	-1.0922	9.8465	-15.0407	8.8843	-0.3457	0.4863	-0.1381	-0.2402	3.4224	-3.2277	12.2206	-38.5952	-143.737	-21.9957	-0.0217	-0.5161	-0.8729	12.0414	0.6575	-3.8723	4.6658	19.4836	66.5078	-1.2214	0.3688	0.7932
-0.7071	-1.6682	9.6746	-11.6883	6.3722	2.8835	0.4743	-0.1261	-0.2221	3.8882	-3.6863	12.4075	-41.5638	-157.4614	-31.6342	0.0064	-0.497	-0.8913	12.1555	-0.0886	-3.9311	-11.6585	20.9207	73.0375	-1.2034	0.4331	0.841
-1.0436	-0.6313	10.2614	-14.8589	3.8195	-3.0028	0.4923	-0.1201	-0.2402	3.4869	-3.1126	12.5786	-27.083	-163.2361	-38.3828	-0.0502	-0.4998	-0.7846	11.9399	-0.0859	-3.2938	-18.9833	20.8172	90.8658	-1.1513	0.4348	0.8236
-1.1654	-1.3795	9.8436	1.567	0.5616	-3.6651	0.4623	-0.1261	-0.2281	4.0632	-4.0299	12.4698	-2.8601	-165.45	-47.8302	-0.0497	-0.5359	-0.8366	11.102	-0.3683	-2.4366	-25.5211	19.1721	99.0519	-1.2565	0.4373	0.8035
-1.1068	-1.2644	9.9041	1.851	-0.1556	-4.1337	0.4803	-0.1381	-0.2281	3.2941	-3.2859	11.5645	-0.9184	-175.3017	-49.2996	-0.1087	-0.4575	-0.8402	10.8949	-0.651	-1.3918	-33.0861	15.6325	93.9572	-1.1696	0.4231	0.7702
-1.3401	-0.9768	9.7821	7.8564	-0.7702	-3.3376	0.4683	-0.1261	-0.2402	4.28	-3.7456	11.8215	16.1264	-172.3945	-57.4326	-0.0784	-0.5182	-0.7841	10.2794	-0.9348	-0.8219	-38.2446	14.1591	77.6893	-1.2398	0.4761	0.7634
-0.4177	-1.151	9.7996	7.4526	-0.0381	-0.4865	0.4803	-0.1201	-0.2402	3.9197	-4.1469	11.0411	18.1706	-178.9513	-61.5606	-0.1487	-0.5905	-0.8351	9.7145	-0.7607	-0.5409	-39.1086	15.0676	55.7938	-1.2746	0.5095	0.7774
-1.0581	-0.6906	9.4929	3.8427	2.035	-1.5765	0.4803	-0.1381	-0.2281	5.5223	-4.5468	13.3303	-0.8221	-195.0261	-60.923	-0.1064	-0.538	-0.7478	9.833	-0.6454	-0.3048	-36.353	15.2448	28.6862	-1.239	0.4879	0.8165
-1.1735	-1.208	9.4303	2.1805	2.2716	1.8819	0.4623	-0.1381	-0.2221	5.5696	-4.2045	12.8568	-17.8546	-226.8942	-65.2886	-0.1493	-0.5375	-0.7303	9.5479	-0.7023	-0.3107	-35.2719	15.5365	-3.6909	-1.187	0.4564	0.7845
-0.603	-0.4621	9.2069	-5.1333	3.1878	1.638	0.4803	-0.1321	-0.2281	5.0131	-3.1136	13.9761	-14.0578	-244.0262	-73.246	-0.2055	-0.5757	-0.6935	9.8847	-0.13	-0.5352	-36.2677	15.1832	-35.2188	-1.2233	0.5326	0.7215
-0.5952	-0.4612	9.6206	-9.4436	3.5222	1.9888	0.4803	-0.1201	-0.2402	4.6112	-4.3146	13.906	7.5209	-258.0209	-95.7842	-0.277	-0.5743	-0.6762	9.6	0.2722	-0.4811	-37.0401	14.4708	-61.0317	-1.2043	0.4721	0.8007
-0.5979	-0.8065	9.4425	-14.5055	3.8254	1.9916	0.4683	-0.1321	-0.2221	5.4945	-5.5742	14.6937	7.3676	-288.1674	-110.372	-0.2481	-0.5767	-0.6402	9.5974	0.5012	-0.597	-38.7172	12.7777	-78.7475	-1.1875	0.4934	0.7624
-1.1072	-1.0345	9.9046	-20.1578	4.8544	1.4334	0.4743	-0.1201	-0.2462	5.9539	-5.3465	14.6442	42.5212	-300.4551	-126.7099	-0.234	-0.5595	-0.6052	8.9632	1.1895	-0.8988	-40.6944	9.9186	-88.7511	-1.1863	0.4349	0.823
-0.8177	-1.1498	9.9691	-18.0165	3.7201	0.2155	0.4743	-0.1321	-0.2161	6.8606	-4.2626	14.0118	65.6387	-310.3159	-131.4154	-0.3047	-0.5957	-0.6042	8.4534	1.1336	-0.7343	-41.3507	7.0315	-91.4728	-1.2226	0.5287	0.7581
-0.8766	-1.0924	9.909	-14.4202	3.2975	0.9188	0.4683	-0.1321	-0.2221	7.0974	-2.3735	14.5552	74.8248	-308.0143	-124.7198	-0.3035	-0.6364	-0.5491	8.2841	1.4785	-0.6197	-43.4889	3.3184	-85.8613	-1.1871	0.4232	0.7699
-0.939	-1.5529	9.6112	-14.8376	4.0235	2.1534	0.4803	-0.1261	-0.2281	7.0294	-2.5461	14.0188	94.2592	-294.0035	-118.4458	-0.3166	-0.6773	-0.4762	8.2332	1.9387	-0.2691	-44.3906	-0.6697	-72.8195	-1.2576	0.4782	0.7448
-0.9424	-0.9208	9.4946	-13.1165	4.5346	2.6331	0.4683	-0.1441	-0.2281	7.4502	-2.036	12.0685	104.7112	-280.1566	-95.5468	-0.3729	-0.7148	-0.4573	8.1762	1.9388	-0.2702	-42.3203	-3.2094	-52.7046	-1.2051	0.4096	0.7348
-0.4728	-1.2656	9.9164	-11.3045	4.6452	3.2913	0.4803	-0.1201	-0.2522	9.9828	-2.3287	11.8825	59.9298	-271.9468	-85.1028	-0.415	-0.7357	-0.3854	8.3453	1.7087	-0.3843	-44.4322	-5.5725	-26.9848	-1.1863	0.4349	0.823
-0.4757	-1.5535	9.7384	-12.2096	5.3573	3.653	0.4683	-0.1261	-0.2281	4.9345	-3.7567	7.0833	48.0617	-274.4784	-91.9621	-0.4003	-0.7384	-0.3317	8.854	1.7644	-0.6073	-48.7894	-5.9635	0.7125	-1.2219	0.4058	0.7712
-0.7629	-0.8627	9.8527	-11.7168	5.5806	3.4592	0.4563	-0.1261	-0.2342	1.5217	0.0169	1.1407	143.171	-224.3882	-57.9845	-0.4281	-0.7598	-0.2598	9.1521	1.5368	0.0395	-51.1633	-5.761	24.6533	-1.1869	0.3881	0.7736
-1.2234	-1.782	9.7824	-10.3185	4.9698	2.9946	0.4863	-0.1201	-0.2281	-12.1833	-9.8632	-5.3394	156.4636	-161.9313	-5.1798	-0.441	-0.8177	-0.2397	9.6158	1.1358	0.3974	-47.4719	-4.8416	41.8028	-1.2046	0.4233	0.7696
-1.0537	-1.2651	9.6688	-7.9783	4.444	3.0262	0.4743	-0.1141	-0.2281	-14.9207	-13.2998	-10.0951	183.1616	53.631	-10.3062	-0.4271	-0.7989	-0.2404	10.3079	0.6197	0.7593	-43.6864	-3.429	49.749	-1.2051	0.4603	0.7475
-0.881	-1.1504	9.6724	-7.3413	4.0191	2.8557	0.4683	-0.1261	-0.2342	-4.8915	-11.3605	-1.0939	-204.6558	115.7328	-107.7668	-0.398	-0.8028	-0.1687	10.59	0.3891	0.5892	-45.0933	-1.3027	51.1012	-1.2218	0.3883	0.773
-1.0448	-1.2065	10.1418	-7.6297	3.8465	2.5872	0.4803	-0.1201	-0.2281	-1.6012	-2.3578	11.822	-383.9689	123.3412	-141.5054	-0.4115	-0.8569	-0.238	10.5265	0.1012	0.2368	-44.5827	2.4116	46.4205	-1.2048	0.4584	0.7659
-0.9362	-1.265	9.7892	-7.6719	3.816	2.1915	0.4623	-0.1141	-0.2402	-0.8691	-12.894	9.677	-61.6811	174.6692	-155.7471	-0.3978	-0.8536	-0.3271	10.6319	0.5584	-0.1677	-38.014	7.4139	39.19	-1.2222	0.4585	0.7656
-0.8254	-1.2658	9.5551	-8.9444	4.0207	1.8575	0.4803	-0.1201	-0.2281	-3.9022	-0.4742	6.4923	-54.7979	149.2913	-78.9932	-0.3836	-0.8532	-0.3449	10.1778	-0.8176	-0.1818	-30.8411	12.3278	30.2495	-1.2058	0.4817	0.709
-1.2213	-1.0916	9.9614	-8.562	3.7884	1.2977	0.4863	-0.1201	-0.2221	-6.5363	-3.6203	4.0556	-26.8158	176.997	-99.6029	-0.3969	-0.8919	-0.3256	10.1774	-0.5881	-0.181	-29.4907	16.8862	21.3531	-1.2393	0.4391	0.7855
-0.8802	-1.5529	9.6715	-6.6826	3.8008	1.0996	0.4803	-0.1201	-0.2281	-4.9498	-3.7356	5.573	-84.9966	209.7763	-73.7671	-0.3409	-0.8522	-0.3981	10.2424	-0.5868	0.2286	-30.2498	19.8465	12.5453	-1.1704	0.4621	0.7298
-0.8144	-1.1494	10.1464	-7.5212	4.0486	0.7858	0.4743	-0.1141	-0.2221	-4.9111	-3.0449	7.5947	-61.5253	224.8055	-34.5164	-0.3699	-0.8491	-0.4519	9.6639	-0.4726	-0.1909	-31.5294	22.0869	7.3024	-1.2232	0.515	0.7233
-1.1076	-1.4371	9.8446	-8.2916	4.2335	0.7446	0.4623	-0.1081	-0.2281	-4.8	-3.2745	7.3589	-43.5098	232.4296	-0.9327	-0.3279	-0.8112	-0.471	9.2649	-0.5867	-0.1993	-32.0045	22.9519	7.1208	-1.188	0.429	0.7149
-0.824	-1.3806	9.6139	-8.1869	4.5055	1.0182	0.4863	-0.1021	-0.2161	-4.5192	-3.6194	6.9482	-46.295	232.4712	28.9917	-0.2714	-0.7915	-0.5249	9.9508	-0.1284	-0.0672	-32.1933	22.2058	9.1068	-1.2231	0.4975	0.7252
-1.1674	-1.4947	9.7251	-8.305	4.3282	1.3251	0.4803	-0.1141	-0.2342	-2.8591	-4.197	6.3278	-47.9586	227.7783	55.9318	-0.2839	-0.8685	-0.5041	9.4959	-0.2422	-0.0184	-31.6776	20.2228	11.7215	-1.1884	0.4992	0.7075
-0.7057	-1.8405	9.7332	-6.8387	4.3303	1.8386	0.4743	-0.1141	-0.2342	-2.3383	-4.9994	6.3369	-53.2556	220.2301	75.8041	-0.2856	-0.8079	-0.5778	9.5525	0.0445	-0.0162	-32.0848	17.1621	14.6321	-1.206	0.5168	0.7053
-1.0518	-1.6674	9.7269	-5.3561	4.6087	2.7803	0.4863	-0.1141	-0.2342	-1.8163	-5.2866	6.4659	-73.9759	213.4993	87.9731	-0.2561	-0.8472	-0.576	9.4352	-0.0707	-0.194	-30.8945	13.5728	17.6497	-1.2054	0.513	0.742
-0.5334	-1.4959	9.7375	-5.5407	5.2312	3.5511	0.4803	-0.1201	-0.2281	-1.1068	-5.7445	7.3111	-94.737	210.504	95.5445	-0.2569	-0.8096	-0.5597	9.3849	-0.012	0.1552	-30.1842	11.183	21.8823	-1.2401	0.4273	0.7324
-1.1057	-1.2643	9.9632	-5.6798	5.5444	3.9223	0.4803	-0.0961	-0.2221	-0.7472	-5.515	8.0317	-105.3004	213.3367	99.747	-0.2013	-0.7507	-0.633	8.9881	-0.1257	0.2635	-26.8966	10.2962	26.4143	-1.2235	0.5169	0.705
-1.0494	-1.7821	9.8449	-4.9764	5.4881	4.8201	0.4863	-0.1201	-0.2342	-0.0895	-5.457	9.2333	-111.2444	219.6493	97.5325	-0.1878	-0.7296	-0.6872	9.1673	-0.8704	0.6144	-22.8852	10.147	31.0761	-1.2411	0.5014	0.6883
-1.2863	-1.3225	9.546	-6.0639	5.9643	5.4289	0.4803	-0.1201	-0.2281	0.808	-5.2269	10.9153	-111.3493	227.2375	89.7288	-0.218	-0.6528	-0.6727	9.2806	-0.4117	0.6183	-22.2161	9.6088	34.7457	-1.2056	0.4974	0.7255
-1.3976	-1.6668	9.7202	-6.1397	5.97	6.041	0.4863	-0.1081	-0.2161	2.0939	-4.1406	11.9538	-111.8274	232.631	79.723	-0.2174	-0.6896	-0.7068	9.1212	-0.5814	1.1978	-19.5519	10.9232	36.086	-1.2231	0.4975	0.7252
-1.1163	-1.6107	9.3713	-5.8878	5.8123	7.4373	0.4803	-0.0901	-0.2281	1.9812	-4.2546	12.07	-116.6433	234.6062	74.962	-0.2035	-0.687	-0.7782	9.0071	-1.2698	1.1347	-16.7549	9.2523	35.8283	-1.2064	0.587	0.6979
-1.4006	-1.2646	9.6029	-7.866	6.1738	8.3112	0.4623	-0.1141	-0.2342	2.0475	-3.9104	12.5473	-130.6812	241.2817	70.3306	-0.1042	-0.6347	-0.7261	8.601	-1.2704	0.7765	-12.9341	8.0869	31.1575	-1.2426	0.5442	0.6113
-1.0468	-1.3218	10.0233	-6.3769	6.5397	8.3075	0.4803	-0.1141	-0.2221	1.3882	-3.5621	14.1975	-142.2775	246.8325	74.8267	-0.1338	-0.5947	-0.7457	8.4852	-0.9263	0.7171	-9.2164	6.8099	23.126	-1.2063	0.5695	0.6997
-0.9977	-0.9779	9.6115	-7.9943	6.8237	8.8672	0.4803	-0.1081	-0.2342	1.5968	-4.0742	15.9232	-147.9356	250.2831	80.1606	-0.1053	-0.611	-0.834	8.886	-1.1562	0.7827	-6.14	5.3854	13.5924	-1.1894	0.5732	0.6634
-0.696	-1.6093	10.2657	-8.9427	6.7075	8.1574	0.4623	-0.1081	-0.2161	2.4279	-4.1883	17.128	-151.6638	252.8462	84.3083	-0.0629	-0.5923	-0.8523	8.8241	-0.9848	0.5487	-1.7903	4.6095	2.7567	-1.2065	0.5539	0.6833
-1.0577	-1.4956	9.4318	-7.6174	6.4687	8.1848	0.4803	-0.1141	-0.2281	2.4516	-3.6708	18.3769	-150.2102	255.8045	90.3563	-0.0498	-0.5352	-0.8545	8.7148	-1.0985	0.7795	3.56	3.489	-7.2156	-1.1544	0.5555	0.6658
-1.2829	-2.0121	9.6625	-8.0721	6.5758	7.3117	0.4803	-0.1141	-0.2161	3.1727	-4.471	19.7561	-141.5125	262.4332	99.5407	-0.066	-0.4565	-0.8934	9.1101	-0.813	0.6134	7.8627	2.0297	-16.499	-1.1891	0.5206	0.669
-1.0528	-1.7251	9.6677	-9.9449	7.4488	7.2098	0.4743	-0.1081	-0.2281	3.5868	-4.4137	20.2994	-140.3568	259.885	116.395	-0.0372	-0.475	-0.9281	8.6576	-0.2951	0.8396	10.3038	1.0318	-24.0985	-1.2243	0.5559	0.6646
-1.0014	-1.3809	9.3741	-10.5325	8.0833	6.8006	0.4803	-0.1021	-0.2281	6.1863	-4.6484	20.59	-121.8786	259.2998	136.6206	0.0175	-0.3616	-0.9323	8.6163	-0.8086	1.5952	13.1435	-0.0998	-28.9354	-1.1891	0.5206	0.669
-0.59	-1.4381	9.7956	-6.936	7.5341	6.4659	0.4743	-0.1261	-0.2221	8.3825	-4.9394	20.8722	-112.7328	247.014	151.5244	0.0621	-0.4388	-0.9467	9.1835	-1.0396	1.4307	16.6892	-1.4323	-29.5685	-1.2062	0.5519	0.7016
-0.9237	-1.9536	10.3786	0.167	6.8763	7.8758	0.4683	-0.1141	-0.2101	11.8856	-3.747	20.4123	-83.2383	226.7889	147.1985	0.1025	-0.3411	-1.0217	8.6049	-0.8681	1.0114	19.0672	-2.467	-26.2234	-1.2065	0.5539	0.6833
-1.1614	-1.724	10.0201	-0.8494	7.2241	7.7805	0.4743	-0.1081	-0.2342	16.3202	-3.4147	20.3262	-61.7484	192.9852	126.3665	0.1157	-0.3017	-1.0588	8.6044	-1.2698	0.9516	19.594	-2.6774	-19.0876	-1.2248	0.5422	0.6299
-1.0535	-1.3801	9.6685	1.8855	6.9906	8.5058	0.4863	-0.1081	-0.2161	19.9699	1.547	16.1352	-30.33	189.3428	106.4924	0.1589	-0.3206	-1.0934	9.1832	-0.8101	1.4315	20.4611	-0.3673	-9.9756	-1.2234	0.5501	0.7196
-0.8316	-1.5541	9.1998	-0.0082	6.336	8.5786	0.4923	-0.1141	-0.2342	24.1446	8.397	12.4935	-19.3574	172.4887	91.1977	0.201	-0.2835	-1.0946	9.4626	-0.8116	1.1455	18.7288	3.1378	-5.8335	-1.1889	0.5362	0.6854
-1.2224	-1.7243	9.8416	1.0658	4.8166	6.9878	0.4623	-0.1141	-0.2221	34.7965	13.6422	15.5749	-48.4535	99.2601	-0.3519	0.2588	-0.3052	-1.0755	10.3153	-0.4692	1.0472	13.9709	1.7822	-2.5712	-1.2063	0.5188	0.687
-1.3287	-1.6655	10.3124	11.7285	2.2022	7.5982	0.4683	-0.1081	-0.2342	36.9354	9.0524	12.4615	-25.6875	102.5158	-140.7924	0.2719	-0.248	-1.0777	10.1946	-0.6424	0.6941	12.6879	-1.5996	4.6634	-1.1543	0.538	0.6677
-1.2701	-1.608	10.3727	10.8474	0.885	5.568	0.4743	-0.0961	-0.2281	33.5851	4.2341	2.8198	42.2927	114.099	-126.2643	0.3157	-0.2877	-1.0758	9.7275	-0.2993	0.161	11.877	-2.2119	13.1078	-1.2063	0.5188	0.687
-1.052	-1.5524	9.7272	-1.9766	1.0649	0.8779	0.4923	-0.1141	-0.2161	31.6143	9.0235	20.1326	-69.594	-6.242	-122.3369	0.3003	-0.2474	-1.1132	9.7146	-0.8181	-0.5411	15.1942	-3.9078	19.8355	-1.2247	0.5247	0.6317
-0.7074	-0.9206	9.7355	-12.09	0.8255	-3.85	0.4743	-0.1201	-0.2402	24.3622	11.784	18.0288	52.9163	-65.7265	-140.2598	0.33	-0.2881	-1.0757	10.3464	-0.7035	-0.2947	17.5419	-8.3139	26.351	-1.2407	0.5326	0.7212
-0.7005	-1.6098	10.0293	-18.4159	2.2004	-8.9046	0.4863	-0.1141	-0.2041	10.9312	18.5254	24.4184	226.1822	-194.5767	-58.6669	0.2864	-0.2661	-1.1126	10.6153	-1.2807	-1.1664	16.5239	-12.9655	35.0221	-1.2238	0.5189	0.6867
-1.4327	-2.354	10.8404	-55.6576	14.3269	-18.9105	0.4863	-0.1141	-0.2342	2.3888	-7.8273	0.3107	73.6048	-87.746	-63.8519	0.2754	-0.4023	-1.0537	11.3061	-0.9938	-0.8015	11.9435	-13.935	42.4514	-1.2416	0.5209	0.6681
0.3029	7.2115	21.2371	-84.7203	73.7221	-7.4908	0.4863	-0.1021	-0.2161	4.3606	-11.0076	14.956	125.9559	-257.9102	23.2918	0.259	-0.3228	-1.1105	11.8367	-1.1062	0.0837	10.8835	-13.0675	42.0351	-1.2068	0.5558	0.6649
-1.132	-2.4105	11.496	-4.881	91.5482	7.3266	0.4863	-0.1021	-0.2041	-3.4266	-7.9497	17.8311	163.5319	-217.7572	154.37	0.2318	-0.3803	-1.0905	12.175	-1.5091	-0.1443	16.7512	-10.5428	38.7232	-1.2413	0.5365	0.6845
-2.53	-5.4576	10.3978	-52.5526	104.1296	9.9008	0.5043	-0.0901	-0.2221	-15.2843	2.2468	8.2234	263.1011	-235.9772	197.7818	0.1605	-0.3966	-1.1082	12.5753	-2.1981	-0.1388	18.511	-5.8303	38.8225	-1.2233	0.5326	0.7215
-2.155	-4.3548	15.0753	-19.7601	107.7829	19.2532	0.5043	-0.1081	-0.2161	6.8469	5.8566	8.8057	155.8534	-206.1406	25.1014	0.1186	-0.4352	-1.0713	12.076	-2.3669	0.5505	16.2947	-2.9472	35.8057	-1.224	0.554	0.683
-1.4908	-4.1294	13.6709	8.8894	119.2194	20.4223	0.4923	-0.1021	-0.2221	7.0091	0.251	10.4605	49.427	-128.0237	-54.823	0.0772	-0.4938	-1.0157	12.1973	-2.6526	0.9019	13.8141	-1.2441	17.2269	-1.2586	0.5522	0.7007
-1.2504	-3.381	14.2682	16.9827	134.7194	27.7592	0.5043	-0.0901	-0.2221	4.4021	-1.862	9.5115	87.8192	-110.2565	-47.5835	0.0635	-0.5302	-1.05	12.0077	-1.7376	0.0265	15.9432	-2.2224	-14.1616	-1.2231	0.5482	0.7379
-2.5626	-4.5846	14.8305	29.5721	150.1866	35.7192	0.5043	-0.0901	-0.2101	4.5616	-1.9267	5.9509	75.469	-99.5404	-63.0708	0.0632	-0.5118	-1.033	11.6526	-2.3132	-0.6827	17.3784	-3.4034	-39.8129	-1.2236	0.5345	0.7032
-2.5427	-4.3521	15.8949	54.5826	160.6134	44.5995	0.5223	-0.0961	-0.2101	7.2007	-1.5793	11.1734	-101.8744	29.0812	-40.8881	0.0501	-0.5682	-1.0486	11.7787	-1.221	0.0238	17.25	-2.9939	-60.5501	-1.206	0.5676	0.718
-1.4021	-4.5282	15.2668	69.6741	180.9909	52.9549	0.5283	-0.1021	-0.1921	1.2713	-0.7056	11.5876	-2.0519	-12.7998	-28.3674	0.0499	-0.5674	-1.0665	12.5159	-0.7065	-0.1346	20.7796	0.2675	-79.4313	-1.2242	0.5383	0.6665
-1.7916	-4.8133	15.9675	78.6639	197.4581	59.7582	0.5524	-0.1201	-0.1981	2.6191	-3.5746	9.4712	35.3143	-4.2303	8.5412	0.0635	-0.5302	-1.05	12.7893	-0.4796	-0.7116	21.0925	2.5695	-85.7557	-1.206	0.5676	0.718
-2.5324	-5.731	16.3053	98.5011	216.0703	66.5543	0.5584	-0.1261	-0.2041	1.7338	-1.4565	8.6852	16.6512	-6.4503	-8.2088	0.0068	-0.5646	-1.1025	11.0144	-0.4781	-1.0971	19.8782	-0.3736	-80.6343	-1.241	0.4839	0.6901
-2.0671	-6.2489	16.4904	107.0382	238.538	71.2064	0.5704	-0.1201	-0.1981	2.3721	-1.2286	8.9364	-21.4144	-7.1016	1.2259	0.0371	-0.6261	-1.0286	10.8503	0.1547	-0.6898	22.5708	-3.8098	-78.535	-1.2238	0.5696	0.6994
-2.468	-5.7303	16.6611	102.8628	263.19	69.4052	0.5644	-0.1261	-0.1921	2.1498	-2.2004	9.2268	-21.3624	-4.8201	-1.1732	0.0636	-0.531	-1.0322	9.774	0.6167	-0.3014	37.366	-6.3365	-90.0058	-1.2236	0.5345	0.7032
-1.8231	-5.615	17.2648	91.7666	286.0372	64.161	0.5824	-0.1381	-0.1681	2.3833	-1.9145	9.4104	-13.8052	-3.2794	3.3149	0.0355	-0.5662	-1.0845	9.8309	1.4199	-0.2389	42.3754	-5.7405	-105.8806	-1.171	0.4991	0.7078
-4.4068	-4.7466	17.8073	84.2035	300.7117	84.6336	0.6064	-0.1441	-0.1621	2.3813	-2.5443	9.2308	-22.0723	-4.9904	-1.6099	-0.0089	-0.4897	-1.0521	9.4334	1.0766	-0.1898	38.4467	-3.818	-115.3092	-1.2584	0.4664	0.6917
-3.8725	-4.5228	15.6323	61.5676	330.5886	103.7622	0.6184	-0.1561	-0.1441	2.3347	-2.7149	9.7641	-35.5592	-5.1847	-2.9957	0.0488	-0.5106	-1.0509	8.9828	2.5702	0.2149	38.8893	-2.7357	-116.6135	-1.2577	0.445	0.7302
-2.936	-5.6153	16.2977	2.5891	351.6889	109.9285	0.6304	-0.1321	-0.1381	2.6696	-2.0871	9.2971	-14.4989	-4.9977	-1.3189	0.0209	-0.5474	-1.0675	8.403	2.7989	-0.2625	42.8397	0.6615	-112.1537	-1.2055	0.4291	0.7146
-2.4631	-2.2218	17.2606	47.2425	349.8391	142.9932	0.6424	-0.1621	-0.1321	2.4437	-2.0861	9.53	-10.6785	-5.0583	-2.3634	0.0055	-0.507	-1.1048	8.5811	2.6852	0.0906	42.3121	4.1734	-101.8023	-1.2221	0.3902	0.7547
-3.6981	-4.6955	15.6943	41.2663	349.6055	137.0004	0.6484	-0.1861	-0.1141	2.2063	-2.2007	9.1685	-10.4266	-4.3956	-0.3745	0.0205	-0.512	-0.9976	8.2297	3.43	-0.322	43.1879	6.4662	-78.4689	-1.2232	0.4136	0.6979
-6.0921	-3.2502	17.1873	46.0181	340.0994	140.3716	0.6664	-0.1741	-0.1141	3.0666	-2.3177	8.9484	-16.0047	-3.0422	-0.2983	0.0345	-0.5102	-1.051	8.2208	3.3136	-0.7893	51.3073	9.4516	-37.4112	-1.2062	0.3998	0.6634
-4.4655	-3.2945	23.9543	17.0854	308.397	119.8275	0.6844	-0.1741	-0.054	2.1555	-2.0854	9.5241	-14.0051	-3.2876	-1.1331	-0.009	-0.489	-1.07	8.3866	2.2795	-1.1397	40.4904	11.6746	6.151	-1.1873	0.4076	0.7534
2.8185	5.9393	20.1013	148.4842	264.7992	98.7951	0.6844	-0.1741	-0.048	2.4887	-2.7171	8.8169	2.2221	-3.2843	-1.8769	0.0213	-0.5504	-0.996	7.8049	3.0243	-1.6737	28.282	14.2198	28.3821	-1.2052	0.3764	0.7202
23.9669	1.4371	4.7867	434.7813	184.3581	23.9497	0.6904	-0.1861	-0.048	2.1484	-2.6013	9.1071	-0.6341	-2.9286	-1.8756	0.0349	-0.5294	-1.0503	8.3717	2.3342	-1.8982	34.4239	14.2103	35.7481	-1.2397	0.3571	0.7398
34.5587	-14.2468	-6.2709	547.243	-24.3683	-28.7681	0.6904	-0.2101	-0.018	2.6696	-2.0871	9.2971	-0.3701	-3.4588	-1.0198	-0.0224	-0.5277	-1.0507	8.9287	2.044	-2.588	42.223	11.8408	37.7743	-1.2929	0.3788	0.7005
-0.3806	-17.9671	-1.9982	169.7612	-96.1933	-163.0214	0.7085	-0.2161	-0.024	2.7323	-2.2012	9.5358	-3.4872	-3.7762	-0.5367	0.0201	-0.4928	-0.9983	8.8175	1.7004	-2.4749	37.4	9.6036	37.437	-1.205	0.392	0.7367
2.0627	-6.7907	9.4206	-149.8165	-11.918	-179.4571	0.7085	-0.2101	-0.024	2.8467	-2.3161	9.4785	-6.3283	-4.1895	-0.2711	0.0482	-0.4907	-1.0696	9.5525	1.4111	-2.8112	29.6332	6.2287	38.3897	-1.2233	0.4311	0.696
-2.1364	-2.304	7.1637	60.6161	-0.8805	-132.9991	0.7085	-0.1921	-0.024	2.7245	-2.4309	9.1193	-4.0824	-4.3487	-0.7024	0.0193	-0.4714	-1.0527	9.7831	1.2965	-2.6903	23.6456	1.1776	41.3853	-1.24	0.4098	0.7342
0.305	-12.9013	1.218	128.2677	-35.5135	-73.4721	0.7085	-0.1921	-0.024	2.3871	-3.0017	9.4676	-5.5591	-4.2628	-0.549	0.02	-0.509	-1.069	9.5023	1.4125	-2.4622	22.1106	-4.5968	45.1958	-1.2053	0.4447	0.7311
1.5906	-9.6235	2.4918	-61.0339	-58.7734	-66.4118	0.7145	-0.1981	-0.048	2.9024	-2.4881	9.3605	-5.2823	-4.3878	-1.1376	0.0484	-0.4914	-1.0517	9.2695	0.7808	-2.7608	18.8587	-9.403	46.5412	-1.2573	0.3748	0.7377
1.6336	-3.1128	8.4168	-101.5327	-101.9678	-47.3479	0.7025	-0.1981	-0.024	2.209	-2.8301	9.2267	-2.35	-3.9174	-0.7534	0.0631	-0.511	-1.0508	8.6494	1.2421	-2.3632	12.0054	-14.2167	43.6748	-1.2395	0.4235	0.769
1.1671	-3.1702	8.1122	17.7465	-150.7691	-20.4863	0.7205	-0.1981	-0.036	2.4402	-2.0864	9.3518	-1.1189	-4.0583	-1.4333	0.0059	-0.5262	-1.1041	8.6467	0.7826	-2.54	7.6726	-18.1078	39.5517	-1.2057	0.4135	0.6982
1.8031	-6.6286	4.8666	20.224	-171.5706	-9.7765	0.6965	-0.1861	-0.048	2.044	-2.1992	9.6998	-2.7593	-4.5216	-1.4444	0.0191	-0.4537	-1.0177	9.1616	0.4952	-2.4724	6.7606	-20.7468	36.4744	-1.2226	0.4097	0.7345
2.4974	-4.3868	5.2401	-20.1397	-185.81	-13.91	0.6904	-0.1921	-0.048	2.727	-2.4879	9.2381	-2.9991	-4.2398	-1.7486	0.0193	-0.4714	-1.0527	8.4777	0.898	-2.4263	4.9458	-21.4475	35.3196	-1.2236	0.4838	0.6904
2.5588	-3.3513	5.5393	-18.5866	-202.1297	-15.9939	0.6965	-0.2041	-0.072	2.3903	-2.3717	9.7065	-2.4581	-4.8946	-1.5741	0.0346	-0.5109	-1.0332	8.3143	0.3259	-2.0816	-0.354	-21.0003	34.6678	-1.2584	0.4664	0.6917
2.442	-3.7538	5.4178	-33.9933	-210.244	-25.2437	0.6965	-0.1801	-0.06	2.6752	-2.43	9.5341	-2.2266	-5.5762	-1.0608	0.0346	-0.5109	-1.0332	8.3248	0.213	-1.5569	-5.0518	-18.8307	34.8545	-1.2044	0.4389	0.7861
2.7343	-3.5813	5.6603	-46.7361	-216.7428	-38.6048	0.7025	-0.1861	-0.072	2.3289	-2.2575	9.5273	2.7041	-5.5319	-2.3177	0.0488	-0.5106	-1.0509	8.4305	0.4409	-1.9622	-6.2682	-16.4596	36.7031	-1.223	0.4799	0.7271
2.0046	-3.8076	6.6499	-51.6271	-222.8665	-52.0622	0.7085	-0.1861	-0.1021	2.1496	-2.6011	9.1665	3.9861	-4.3293	-1.4601	0.0067	-0.5477	-1.0497	8.2104	-0.3033	-1.6194	-8.1664	-12.7626	39.0038	-1.2401	0.4273	0.7324
1.7769	-3.5193	6.8234	-60.7246	-228.9071	-65.7206	0.6904	-0.1861	-0.1141	2.4362	-1.9151	9.1739	-0.8671	-3.9059	-2.1714	0.0053	-0.4894	-1.0699	8.6102	0.0405	-1.5518	-9.6488	-8.9466	42.2549	-1.258	0.4469	0.7119
1.3924	-4.0338	7.76	-69.088	-237.2287	-75.9939	0.6844	-0.2041	-0.1201	2.8425	-3.0606	9.1799	-2.9403	-4.1541	-0.5116	0.0061	-0.5278	-1.0684	8.61	0.2126	-1.5511	-9.8105	-5.0123	45.976	-1.2581	0.4645	0.71
0.5487	-3.7421	8.8668	-79.2128	-243.606	-85.2063	0.6724	-0.1861	-0.1321	2.3825	-2.0863	9.3506	-4.6242	-2.0978	-0.7867	-0.0084	-0.5097	-1.0335	8.444	-0.1305	-1.3224	-9.6269	-2.2493	49.3177	-1.2751	0.4783	0.7445
0.2187	-3.7396	9.6875	-81.859	-247.6866	-92.422	0.6724	-0.1861	-0.1621	2.3774	-1.9151	9.1133	-7.0228	-3.7117	-1.53	-0.0081	-0.5281	-1.0506	8.556	-0.3032	-1.4374	-12.6975	-0.6746	50.934	-1.2221	0.4409	0.7674
0.2291	-3.2782	10.2797	-85.3248	-248.8222	-98.6555	0.6844	-0.1621	-0.1621	2.4884	-3.1178	8.7567	-7.4148	-2.645	1.8548	-0.0089	-0.4897	-1.0521	8.7278	-0.0164	-1.3746	-16.1395	-0.2978	51.4758	-1.2572	0.4587	0.765
-0.5506	-3.3885	11.6822	-90.0033	-247.4526	-103.3205	0.6724	-0.1441	-0.1741	2.6635	-3.0036	8.8793	-2.2236	-3.9757	-1.9897	0.0337	-0.4726	-1.0347	8.7882	-0.7044	-1.2593	-19.3734	1.7141	51.5362	-1.2576	0.5289	0.7575
-0.6016	-3.33	12.0358	-88.2624	-249.1645	-107.5188	0.6604	-0.1381	-0.1921	2.2616	-1.7431	9.1112	-4.3097	-3.3021	-0.437	0.0189	-0.4522	-1.0535	8.4448	-0.6468	-1.3243	-21.8574	2.3374	51.4187	-1.2922	0.5272	0.7753
-0.9889	-4.1899	12.7943	-88.6337	-252.2105	-107.9236	0.6664	-0.1141	-0.2101	2.4915	-1.9154	9.0562	-3.7656	-2.5363	-2.1829	0.0341	-0.4917	-1.0339	8.5661	-0.8751	-0.9727	-22.1649	2.1279	49.7857	-1.2052	0.5286	0.7584
-1.4308	-3.6117	13.8505	-85.3175	-258.6042	-103.6509	0.6424	-0.1081	-0.2101	2.9564	-2.9466	9.1231	1.1009	-2.3742	-2.0171	0.0337	-0.4726	-1.0347	8.6086	-1.1074	-1.731	-23.4038	4.0762	48.9416	-1.2576	0.5796	0.7703
-1.2986	-3.6098	14.7394	-82.9271	-266.4502	-97.3212	0.6184	-0.0841	-0.2342	2.0342	-2.5436	9.1643	-0.0486	-2.8477	-1.5951	0.0183	-0.4322	-1.0721	8.6639	-0.7061	-1.7867	-22.6995	5.4012	48.5955	-1.2754	0.5816	0.7517
-2.5574	-3.7214	15.1872	-79.7512	-276.5718	-85.7486	0.6124	-0.0841	-0.2462	2.2677	-2.7729	9.2874	0.0125	-3.0294	-2.4322	-0.0243	-0.4494	-1.0895	8.7261	-1.1069	-1.5536	-25.2463	7.5059	48.0593	-1.2402	0.5971	0.7687
-2.9238	-4.2912	17.0693	-87.897	-282.7769	-70.2489	0.6004	-0.06	-0.2762	2.2627	-3.1741	8.9895	5.0003	-3.1113	-3.1353	0.0058	-0.5093	-1.0513	8.0424	-1.5648	-1.569	-29.8074	11.281	47.3029	-1.2929	0.5993	0.7495
-3.8345	-3.7705	17.7027	-83.753	-285.5961	-51.52	0.5884	-0.06	-0.2702	2.6678	-2.3162	9.1778	5.6771	-3.2731	-3.8782	0.0051	-0.4717	-1.0349	8.0379	-1.5656	-1.8024	-33.8256	13.0119	48.9734	-1.2395	0.5756	0.8072
-4.5684	-2.9047	18.5768	-80.3816	-283.3327	-32.5274	0.5764	-0.036	-0.2882	2.0844	-2.43	8.8092	2.5968	-3.1642	-2.7389	0.0195	-0.4729	-1.017	7.804	-1.5663	-2.0988	-34.127	16.8164	54.5732	-1.2931	0.6344	0.7458
-5.0714	-2.9018	19.3941	-74.7793	-277.9213	-14.1179	0.5524	-0.036	-0.2822	2.8403	-2.145	9.1817	2.2331	-2.9714	-3.292	-0.0075	-0.548	-1.032	8.3833	-2.1967	-1.6812	-33.4082	19.7719	64.3188	-1.2758	0.6011	0.7315
-5.7659	-3.131	19.2028	-80.8589	-270.3186	1.7837	0.5163	-0.024	-0.3062	2.4938	-2.3732	9.1147	2.5648	-3.2851	-3.05	0.0338	-0.4733	-1.0169	8.4386	-1.7955	-1.7369	-32.2902	21.7018	76.2142	-1.2935	0.6031	0.7129
-6.3965	-2.4969	19.4284	-89.107	-262.0817	15.9737	0.5103	0.006	-0.2882	2.9564	-2.4886	9.1834	7.1524	-3.5404	-4.6835	0.0223	-0.6057	-1.0473	8.5492	-1.7963	-1.9097	-30.2121	24.6158	88.0561	-1.258	0.6498	0.7628
-7.0872	-1.1154	19.5955	-107.2216	-258.9872	26.2562	0.4803	0.012	-0.3122	2.6733	-2.144	9.4753	15.5038	-3.2774	-6.0849	-0.0225	-0.5269	-1.0686	8.3757	-2.4276	-2.0905	-26.662	25.5829	100.2434	-1.2405	0.6497	0.7631
-8.0095	-0.3662	19.6385	-120.9667	-261.2472	29.0184	0.4803	0.024	-0.3182	3.0904	-2.8305	10.0764	25.9498	-4.9431	-9.9571	-0.0232	-0.4893	-1.0523	8.3295	-2.7699	-1.5677	-27.5242	26.1734	108.595	-1.3285	0.6541	0.725
-9.7958	0.0971	19.6639	-109.0736	-258.9356	27.4305	0.4383	0.024	-0.3122	3.5543	-2.4879	10.2648	26.795	-10.548	-9.3761	0.0486	-0.4929	-1.016	9.0727	-3.1724	-1.4959	-29.2117	27.1798	113.0317	-1.2759	0.6694	0.7423
-11.4459	0.3255	17.7416	-96.4278	-243.3629	21.5071	0.4383	0.024	-0.3062	3.0511	-1.5693	11.1473	6.0342	-37.7541	-12.0903	0.0206	-0.5289	-1.0504	9.3165	-3.7437	-0.7348	-32.1423	26.8183	112.7411	-1.3464	0.6736	0.7045
-13.3214	1.4751	16.1717	-89.0071	-213.5158	11.2473	0.4263	0.054	-0.3062	2.0287	-0.0312	6.3184	12.2526	-37.7068	-12.0169	0.021	-0.5481	-1.0496	9.3037	-4.3198	-1.4371	-35.1454	27.2862	104.2198	-1.2769	0.6927	0.6855
-15.728	2.6815	13.9417	-85.3963	-176.6585	0.8771	0.3963	0.054	-0.2882	3.9067	-2.9518	7.6577	40.2013	1.3024	-12.2607	-0.0224	-0.5277	-1.0507	10.1624	-4.8944	-1.3054	-39.5364	26.321	82.9918	-1.242	0.7608	0.6969
-18.4904	3.1398	11.1121	-85.8944	-142.8725	5.9341	0.3722	0.066	-0.3122	3.4209	-3.3938	15.0119	22.0349	-10.1567	-10.1186	0.0065	-0.53	-1.0148	10.7838	-4.7243	-1.5839	-42.2103	24.1714	46.1005	-1.2417	0.7589	0.7153
-26.9368	2.9208	9.2336	-66.5749	-122.6568	44.4512	0.3722	0.0781	-0.2942	3.5931	-2.8276	12.1656	11.8293	-60.1384	-13.1899	-0.0223	-0.5284	-1.0329	11.6432	-4.3233	-1.3319	-38.444	21.4015	-3.645	-1.2777	0.7824	0.6579
-38.0658	9.7687	3.3024	-61.7685	-101.2167	99.5144	0.3542	0.0781	-0.2882	3.194	-1.9161	9.6053	9.193	-65.6959	-2.7002	-0.0075	-0.548	-1.032	11.0111	-4.9543	-1.6386	-29.7431	16.054	-51.4809	-1.2253	0.7314	0.646
-28.205	12.081	16.1439	-258.4405	6.1446	148.0243	0.3542	0.0901	-0.2882	3.3478	-1.6264	11.5691	-10.82	-55.6881	-8.8261	-0.0509	-0.5276	-1.0331	10.2254	-5.0655	-1.0131	-19.4164	14.2741	-79.8309	-1.2427	0.7647	0.6603
-14.2243	14.6697	27.5303	-64.6224	39.7857	145.578	0.3602	0.1021	-0.2882	2.8096	-2.2509	13.398	-43.9934	-62.8539	-10.4014	-0.0077	-0.5304	-0.997	9.4423	-4.6598	-0.2106	-15.5651	13.1087	-84.5055	-1.2079	0.7489	0.6444
-9.3352	7.1478	11.2414	130.957	31.5721	127.6111	0.3782	0.1141	-0.2702	3.8496	-3.919	10.4461	-36.7368	-80.8258	-8.0842	-0.0512	-0.5091	-1.016	9.6133	-4.6027	-0.207	-18.7022	14.8147	-76.129	-1.2769	0.7435	0.6982
-20.699	-6.0951	42.5373	120.0027	28.7743	109.4535	0.3963	0.1201	-0.2882	3.7754	-3.2278	12.5843	-45.9002	-101.9867	-13.1411	-0.0658	-0.491	-0.9812	9.7891	-3.1676	0.1518	-18.726	19.3636	-62.9542	-1.224	0.7061	0.7212
-9.5553	14.834	27.6808	508.4924	152.8079	118.7794	0.3963	0.1021	-0.2882	3.899	-3.2273	13.0026	-40.2202	-114.6554	-24.0431	-0.0798	-0.5091	-0.9984	10.5739	-2.4828	-0.4716	-15.2528	20.8869	-51.0776	-1.2592	0.759	0.715
12.8508	-33.3837	4.6028	640.693	170.6955	287.8928	0.4203	0.0841	-0.2762	4.7516	-3.116	12.4264	-15.2278	-124.2116	-28.4012	-0.0938	-0.5271	-1.0156	11.7618	-1.3962	-0.8522	-12.266	18.1101	-43.5082	-1.2595	0.7102	0.6839
4.1426	-10.2442	9.3936	193.1223	223.0219	-17.2016	0.4503	0.042	-0.3122	4.8625	-2.7733	12.2513	-8.6192	-135.1469	-31.9819	-0.122	-0.5454	-1.015	13.1278	-1.8005	-1.0013	-8.6588	9.8418	-35.1834	-1.2244	0.7256	0.701
0.7076	8.5046	9.3135	255.9453	195.6439	-37.2797	0.4803	0.036	-0.3182	3.3808	-3.5122	12.9913	-19.9659	-151.4507	-36.9249	-0.1219	-0.53	-0.9265	13.4084	-1.8018	-1.229	-12.834	-0.8249	-23.0723	-1.2417	0.7082	0.7025
-1.6628	-5.5236	7.5195	107.5594	236.6668	30.5364	0.4923	0.024	-0.3422	4.5252	-3.4013	12.5994	-29.1176	-165.372	-40.5553	-0.1645	-0.5472	-0.9439	14.2541	-2.1492	-1.7383	-13.8713	-13.0215	-26.082	-1.2248	0.6944	0.6681
-1.8246	3.4132	18.0549	50.3843	213.6448	-22.721	0.4983	0	-0.3242	4.0052	-2.885	12.5897	-23.5184	-176.5838	-47.2309	-0.165	-0.5111	-0.8919	14.981	-2.3252	-2.4827	-6.0422	-25.0417	-51.6792	-1.241	0.636	0.7283
-1.6726	1.6707	10.7274	206.5122	157.6853	-1.2787	0.5043	0	-0.3302	3.7716	-1.6826	12.5874	-17.6889	-187.1879	-46.2055	-0.2369	-0.5074	-0.9282	14.9981	-3.7566	-1.7292	-3.1263	-35.844	-87.5095	-1.2243	0.6573	0.6901
-1.8766	0.8046	9.0079	95.5887	139.8614	-19.9138	0.5283	-0.006	-0.3302	3.7045	-3.1717	11.9296	-12.8931	-182.269	-52.4093	-0.2224	-0.5086	-0.9102	14.1658	-3.9805	-0.5801	-16.086	-41.6171	-121.5906	-1.2593	0.6751	0.6877
0.1608	-0.4617	9.9898	72.1772	108.9829	-4.2092	0.5343	-0.024	-0.3182	3.811	-5.4053	11.2144	-12.4207	-180.6309	-63.929	-0.2223	-0.5094	-0.8924	12.1437	-3.3978	1.0148	-13.6427	-43.3147	-150.3478	-1.2762	0.6206	0.7113
-3.3495	-0.4475	13.2301	54.8006	94.6078	-10.5804	0.5343	-0.018	-0.3302	6.4594	-6.6656	13.8204	-30.8777	-200.0833	-86.8198	-0.2793	-0.5099	-0.8392	10.247	-2.0778	0.3399	16.769	-30.0558	-163.567	-1.2757	0.6343	0.7461
-2.6795	-4.5416	8.6838	24.7087	20.0621	-16.7139	0.5343	-0.018	-0.3122	8.6537	-9.4125	16.5921	-45.136	-263.7411	-99.3745	-0.2782	-0.5498	-0.802	9.2674	-0.7584	-0.0832	55.9096	-19.0885	-180.6689	-1.2755	0.5992	0.7498
-1.0659	-1.9567	8.9579	35.3491	11.369	14.978	0.5404	-0.018	-0.3242	5.0479	-6.7165	15.2761	41.9527	-265.3595	-124.9425	-0.3064	-0.5682	-0.8014	8.5781	0.9632	-0.2074	67.926	-11.3902	-214.0506	-1.3102	0.5643	0.7529
-1.051	-0.2297	9.9077	-25.3451	12.8055	-6.6923	0.5404	-0.03	-0.3242	4.5392	-7.4584	15.6798	48.432	-312.1056	-146.8537	-0.3501	-0.5131	-0.7148	8.96	4.0006	-0.8303	57.3672	-9.9945	-245.1605	-1.2739	0.4881	0.816
-1.7416	-1.4359	9.8322	-0.7391	6.4105	4.4173	0.5464	-0.012	-0.3122	5.1678	-7.117	15.4559	62.9362	-337.5688	-166.2092	-0.3637	-0.5503	-0.7312	8.885	7.4402	-1.4609	77.2984	-5.5253	-195.6765	-1.2751	0.4783	0.7445
-0.6993	-1.0346	10.1489	-5.6614	3.9369	-0.0532	0.5404	-0.018	-0.3302	5.1911	-5.9699	16.7655	56.6209	-362.473	-175.9575	-0.4612	-0.6471	-0.6389	8.1439	5.7774	-1.5985	37.1876	3.0659	-34.8138	-1.2752	0.4451	0.7299
-1.1131	-0.8627	9.6095	9.3056	2.1911	2.6234	0.5464	-0.018	-0.3182	6.5611	-2.311	16.5637	45.071	-374.2915	-166.4012	-0.4317	-0.6701	-0.5665	8.148	4.6305	-1.4859	-39.9964	0.9857	81.7234	-1.2735	0.4179	0.8234
-0.6007	-0.5193	9.325	0.0243	2.4235	2.0268	0.5524	-0.012	-0.3422	8.1276	1.6418	20.4649	42.2787	-384.5274	-145.4389	-0.4594	-0.7084	-0.5473	9.2929	3.3672	-1.3509	-44.2759	-5.4701	97.6143	-1.274	0.4549	0.8014
-0.8289	-0.5761	9.4385	-14.563	4.5653	2.821	0.5464	-0.036	-0.3242	8.9402	-2.3609	23.1461	104.3982	-362.3395	-153.5804	-0.5009	-0.7493	-0.4568	9.469	2.335	-1.1762	-8.5878	-9.1878	76.3073	-1.2748	0.4763	0.7628
-0.9973	-1.2079	9.611	-18.8523	4.8104	3.9944	0.5464	-0.006	-0.3062	7.0045	-3.3327	21.3223	210.1184	-358.7105	-131.6564	-0.5141	-0.7896	-0.4018	9.3569	1.8191	-1.122	11.6598	-10.6108	44.3702	-1.2745	0.492	0.7793
-0.3516	-1.4951	10.2137	-20.6736	5.6234	4.684	0.5524	0	-0.3302	7.7333	-4.1379	20.2072	196.2659	-352.534	-106.4359	-0.5562	-0.8105	-0.3299	8.8987	1.5899	-1.2487	3.9328	-12.1775	2.8412	-1.3094	0.5253	0.7933
-1.103	-0.8614	10.1415	-7.4344	4.633	2.4649	0.5524	-0.03	-0.3302	4.397	-9.8592	16.9192	211.7588	-329.6058	-109.1804	-0.5389	-0.9122	-0.201	8.7926	1.6489	-0.8422	-2.6136	-16.8452	-34.3706	-1.2745	0.5427	0.792
-0.9332	-1.6672	9.9065	-4.6813	4.0002	2.974	0.5343	-0.012	-0.3242	0.0912	-9.4007	12.0204	213.4767	-284.8094	-59.0015	-0.5531	-0.9125	-0.1832	8.491	2.6218	-1.603	3.4308	-19.7366	-50.0829	-1.2212	0.4859	0.8351
-0.8233	-1.1505	9.6736	-0.5867	3.3041	1.7416	0.5704	-0.012	-0.3122	-5.8661	-7.7398	5.3676	184.1164	-266.953	-32.3299	-0.5374	-0.9551	-0.0923	8.2618	2.5646	-1.6662	13.003	-22.4991	-42.7065	-1.3098	0.5448	0.7731
-0.8228	-1.438	9.6729	-0.0736	3.4381	2.3401	0.5404	-0.018	-0.3182	-15.2303	-3.2321	-12.8128	388.1183	-116.1117	43.2359	-0.537	-0.9582	-0.0208	7.974	2.7941	-1.7878	12.0823	-24.3808	-23.534	-1.3096	0.459	0.7641
-0.7027	-1.0351	9.9716	-3.339	4.5213	2.0291	0.5524	-0.006	-0.3182	-11.3526	-26.2401	-9.0387	318.1624	41.4453	-11.7088	-0.5367	-0.9597	0.0149	8.0967	3.1398	-1.3174	5.2069	-24.1457	-5.8796	-1.2736	0.4354	0.8215
-0.9391	-0.8629	9.672	-7.2962	5.3967	3.6557	0.5644	-0.006	-0.3242	-1.7643	-12.2825	-0.4375	-320.7934	110.1939	-17.7394	-0.5078	-0.9789	-0.002	8.6808	2.3954	-0.6668	-0.7239	-20.3994	3.1311	-1.2734	0.4511	0.838
-1.0567	-1.438	9.4911	-14.4453	6.5821	3.6229	0.5584	-0.024	-0.3182	-1.049	-4.8744	13.1942	-431.51	123.5856	-89.554	-0.5359	-0.998	0.0164	9.0221	2.2226	-0.7189	1.2431	-15.2339	6.0134	-1.2734	0.4511	0.838
-1.0465	-0.8617	10.0835	-9.0113	6.5123	4.6496	0.5404	-0.024	-0.3242	1.792	-15.2349	15.6665	52.7908	200.0879	-65.4552	-0.5086	-0.9567	-0.0742	10.1038	1.991	-0.8147	7.2937	-8.8693	6.7523	-1.3091	0.5234	0.8116
-0.5924	-1.3809	9.6775	-5.5996	6.6772	5.0252	0.5584	-0.012	-0.3122	6.1023	-3.0138	7.9404	-9.6265	146.2792	-49.9402	-0.5376	-0.9536	-0.128	11.0205	1.474	-0.6232	12.4516	-2.0093	7.4923	-1.2916	0.5233	0.8119
-1.0542	-1.6102	9.6089	-6.5361	6.7148	4.6516	0.5524	-0.024	-0.3062	-2.286	-2.7676	6.3426	9.6362	155.4708	-50.2987	-0.5366	-0.9935	-0.0907	9.832	0.7316	-0.2414	16.3587	4.8274	6.8387	-1.3265	0.4552	0.8005
-1.109	-1.2647	9.7859	-6.9397	6.7313	4.5699	0.5464	-0.006	-0.3242	-3.803	-3.6244	5.2999	34.361	195.0082	-32.1018	-0.5084	-0.9913	-0.1619	9.9432	1.1325	-0.3544	19.1005	11.8	3.2533	-1.2907	0.4668	0.8542
-1.2231	-1.3219	9.8426	-6.411	6.9538	4.5584	0.5464	-0.018	-0.3182	-3.8276	-3.2834	4.1122	54.4858	240.7594	-12.6895	-0.524	-0.9495	-0.235	9.3199	0.7326	-0.1934	22.2818	18.7432	-1.1742	-1.3257	0.4338	0.839
-1.2197	-1.3215	10.0199	-5.6154	6.828	4.3553	0.5524	-0.006	-0.3122	-3.4607	-4.5988	5.0079	38.661	269.3767	13.8296	-0.4661	-0.988	-0.2688	8.9889	0.8499	0.3837	25.8152	25.8364	-4.7414	-1.309	0.4551	0.8008
-1.0509	-0.9197	9.8469	-6.5764	7.1421	4.0449	0.5404	-0.012	-0.3062	-2.583	-6.0307	5.4982	42.883	283.2713	43.1802	-0.4521	-0.9862	-0.3222	8.5993	1.254	0.9024	31.1804	30.9164	-6.8922	-1.2914	0.4882	0.8157
-1.0496	-1.6671	9.8451	-4.6814	7.1867	4.3956	0.5644	-0.018	-0.3122	-2.3015	-6.2037	5.1473	36.1801	290.3939	62.7244	-0.4516	-1.0223	-0.3743	8.434	0.5093	1.1297	34.9317	33.9823	-4.7835	-1.3264	0.4377	0.8024
-0.7639	-1.5529	9.7328	-5.1462	7.2364	4.3157	0.5524	-0.018	-0.3122	-1.4953	-6.3202	5.1042	16.4325	290.6612	78.7882	-0.4802	-1.0214	-0.3745	9.2789	0.6782	0.6223	38.2996	34.1378	1.4111	-1.3271	0.5098	0.7766
-0.7114	-1.1512	9.4985	-6.7522	7.4559	4.2035	0.5464	-0.024	-0.3242	-1.2007	-6.492	5.4069	1.4856	289.2552	93.688	-0.4231	-1.0385	-0.4626	10.0708	0.5036	0.2875	39.6144	30.2267	8.486	-1.3085	0.4181	0.8228
-1.2253	-1.3221	9.7244	-6.0712	6.8176	4.6408	0.5644	-0.012	-0.3122	-1.1961	-6.4343	5.6447	-13.4477	285.3943	108.1738	-0.4099	-0.9983	-0.5176	9.8367	0.675	-0.0082	35.7838	28.5457	16.1895	-1.2747	0.4588	0.7647
-1.1176	-1.4958	9.3125	-7.7047	6.7948	4.8025	0.5704	-0.018	-0.3182	-0.1417	-6.9504	6.4375	-34.3601	280.7002	118.7733	-0.3953	-1.0171	-0.5345	9.8852	1.0177	-0.4143	35.3629	25.5516	26.8073	-1.2914	0.4882	0.8157
-0.8804	-1.4954	9.6716	-6.333	6.3382	4.4004	0.5644	-0.006	-0.2942	0.1163	-6.9483	7.8089	-55.8798	273.1687	127.5295	-0.3531	-1.0131	-0.6592	9.5828	0.3264	-1.3562	33.2861	23.2703	37.5396	-1.326	0.4357	0.8207
-1.0527	-1.7825	9.6675	-5.8482	6.1382	5.3027	0.5704	-0.012	-0.3122	1.4037	-7.0067	8.7857	-57.3417	267.1186	133.6903	-0.3265	-0.9349	-0.7156	9.4721	0.3272	-1.1834	27.216	20.3359	43.8023	-1.2739	0.4881	0.816
-0.8814	-1.553	9.6124	-8.0606	6.2276	4.5638	0.5524	-0.018	-0.3062	1.7508	-7.5226	8.7917	-65.7068	268.3851	136.4478	-0.3402	-0.9713	-0.7499	9.3523	-0.3622	-1.5384	24.0397	17.3472	45.6911	-1.3442	0.508	0.7946
-0.8242	-1.3231	9.614	-8.7335	5.6724	4.0278	0.5464	-0.012	-0.3122	1.9457	-7.2347	9.9249	-76.1967	275.9273	137.6146	-0.3138	-0.8916	-0.8421	8.9021	-0.5899	-1.2566	22.7151	14.8567	44.7528	-1.3445	0.5099	0.7763
-1.1087	-2.0698	9.7248	-9.1804	6.0901	4.3767	0.5704	-0.006	-0.3182	2.9934	-6.492	10.542	-87.1936	289.0341	146.2016	-0.2859	-0.8549	-0.8255	8.6238	-0.5882	-0.9121	21.7988	13.4798	42.3589	-1.3095	0.4921	0.7787
-1.1671	-1.6672	9.7247	-2.4644	5.6899	5.0347	0.5464	-0.006	-0.3002	2.0382	-6.9452	11.7092	-92.9658	296.7438	146.8543	-0.2428	-0.89	-0.9308	8.9125	-0.6454	-0.7316	21.5695	11.0932	37.2105	-1.2924	0.5623	0.7716
-1.1194	-1.7836	9.1936	-9.1391	5.7192	3.8549	0.5584	0	-0.3002	2.4091	-7.9167	12.8434	-97.0729	301.4734	148.5072	-0.1862	-0.871	-0.9668	8.9661	-0.6461	-0.9055	21.5595	8.6222	29.497	-1.275	0.5114	0.7591
-0.7634	-1.2078	9.7928	-8.6023	5.8816	4.1784	0.5464	-0.018	-0.3242	2.712	-8.6029	13.5016	-105.7904	299.5706	154.2353	-0.1598	-0.7751	-0.9883	8.749	-1.1028	-0.3865	22.8034	7.0795	19.8121	-1.2921	0.5096	0.7772
-1.1194	-1.151	9.2542	-7.4208	4.6391	4.0815	0.5644	-0.006	-0.3182	3.7232	-9.1747	15.0061	-118.6738	296.1426	152.6997	-0.1159	-0.8148	-0.9864	9.1518	-1.2175	-0.2039	23.2154	5.0173	9.3887	-1.2933	0.568	0.7166
-1.3987	-1.0344	9.7217	-6.2311	4.6224	4.6626	0.5644	-0.006	-0.3002	4.1956	-9.4036	15.5499	-129.5907	292.2861	150.2022	-0.0308	-0.7959	-1.0401	8.7036	-1.2727	0.1953	24.4086	3.1395	-1.4464	-1.2921	0.5096	0.7772
-1.5721	-1.3792	9.6584	-3.791	2.8077	4.6233	0.5704	-0.012	-0.3242	5.6257	-9.9749	17.8352	-141.0559	285.3745	146.3516	-0.0332	-0.6976	-1.0975	8.4729	-1.0433	0.0748	25.0729	1.2906	-11.3461	-1.3273	0.4942	0.7601
-1.0391	-2.4709	10.316	-5.535	1.7237	5.9103	0.5704	-0.012	-0.3122	6.8078	-10.2038	19.2846	-145.6429	285.7064	137.2668	0.0239	-0.6986	-1.1149	8.5257	-1.2737	-0.1583	26.5221	-0.1591	-21.3431	-1.258	0.5484	0.7374
-0.883	-1.8983	9.4933	-4.8394	1.1128	5.7373	0.5704	-0.018	-0.3062	8.1018	-10.0326	20.6183	-147.2714	290.9944	120.6143	0.0948	-0.6792	-1.1687	8.1257	-1.5027	-0.2255	30.0652	-1.248	-30.2007	-1.3103	0.5311	0.7384
-1.2822	-1.7245	9.7223	-3.3748	-0.1102	5.8167	0.5584	0	-0.3182	12.4199	-9.9233	23.3209	-130.4697	289.8535	98.1648	0.0927	-0.6002	-1.2253	7.6258	-1.3273	0.4651	36.3053	-2.8778	-36.1066	-1.3271	0.5098	0.7766
-1.0446	-1.3215	10.1415	1.1953	1.3297	8.2154	0.5584	0	-0.3062	18.0912	-8.0457	24.7483	-96.2157	287.5467	49.3158	0.1648	-0.6215	-1.224	7.785	-1.0429	-0.114	41.6847	-4.1187	-37.8837	-1.3615	0.5237	0.8108
-1.2799	-1.7817	9.8404	10.9533	-0.7953	7.0812	0.5584	-0.006	-0.3302	25.1515	-5.7188	23.6513	-80.1591	277.4183	20.6541	0.2065	-0.5652	-1.226	7.9577	-1.3297	-0.0532	44.9636	-5.0659	-33.7216	-1.3277	0.5137	0.7399
-1.045	-2.3566	10.0208	9.7587	-0.2698	3.7575	0.5584	0	-0.3062	30.0874	-1.2736	20.3173	-80.4292	251.2643	-43.7436	0.292	-0.5486	-1.226	7.4493	-1.5002	0.1693	47.0301	-5.1948	-24.4866	-1.3095	0.4921	0.7787
-0.69	-1.8386	10.5607	16.2953	0.2444	1.8321	0.5584	-0.018	-0.3062	35.8697	0.2425	12.837	-108.6397	240.88	-87.7362	0.3333	-0.4739	-1.2109	7.4443	-1.2142	-0.0631	47.6502	-3.4867	-10.3926	-1.3271	0.5098	0.7766
-1.7298	-2.3546	10.3619	16.4168	3.0641	4.5299	0.5464	-0.012	-0.3182	34.6123	3.8929	5.1566	-138.344	195.5533	-75.2869	0.391	-0.4779	-1.1569	7.5172	-1.154	0.7552	45.0083	1.0331	4.3698	-1.3096	0.5097	0.7769
-0.4175	2.1414	16.1886	-35.2878	41.7319	2.8372	0.5644	-0.012	-0.3182	25.4097	15.9324	4.6356	-182.8061	185.0783	-5.4166	0.4333	-0.4584	-1.193	8.9535	-0.5805	1.3695	34.0148	8.241	14.4123	-1.3611	0.4535	0.8182
-0.5419	-2.5823	12.2161	37.4651	62.8475	16.6263	0.5704	-0.018	-0.3062	30.8355	25.3767	12.0133	-246.8959	122.0086	-0.9083	0.4029	-0.3808	-1.1963	9.563	-0.8143	0.4475	15.0272	10.588	18.2801	-1.309	0.5058	0.8135
-1.1048	-2.3568	9.9015	5.4701	71.721	12.7573	0.5464	-0.018	-0.3182	35.2127	26.5452	29.3306	-174.5456	91.5206	-115.3719	0.4594	-0.3442	-1.1974	10.5082	-0.6481	-0.7579	8.433	5.562	32.5383	-1.2925	0.4784	0.7442
-0.8918	-0.9145	12.1543	-25.1879	78.8414	12.5981	0.5764	-0.006	-0.3182	30.2934	14.574	18.1568	62.9224	94.1384	-142.8873	0.4582	-0.2874	-1.1819	11.0972	-0.197	-2.6694	21.3402	0.5224	63.6306	-1.3261	0.4533	0.8188
-0.8163	-2.12	12.9799	-15.7042	90.4608	12.1598	0.5884	-0.012	-0.3122	31.8654	21.63	28.4793	-58.9339	-125.9779	-80.1737	0.5453	-0.3467	-1.1967	10.6974	-1.2867	-2.7981	30.7838	-5.2679	100.4026	-1.3268	0.5079	0.7949
-1.8177	-1.3159	11.8989	-20.7061	104.8848	11.3272	0.5884	0	-0.2942	15.3067	24.8683	24.9968	345.6606	-187.6483	-95.3604	0.5156	-0.306	-1.2342	11.3675	-1.6921	-3.5444	33.2176	-11.2813	126.2735	-1.3613	0.4886	0.8145
-0.8149	-0.8619	10.1471	-40.8579	113.7116	12.4478	0.5944	-0.012	-0.3002	1.0901	-7.2605	-4.0507	316.559	-154.3519	-54.3948	0.4874	-0.3243	-1.2337	11.5983	-1.9215	-3.424	24.3233	-15.1219	138.0152	-1.3793	0.5257	0.7922
-1.9235	-2.2346	12.3082	-67.2502	124.1569	9.2752	0.6004	-0.03	-0.3002	13.1898	-21.5035	14.2846	184.3199	-293.9773	25.3445	0.462	-0.4601	-1.1749	13.0867	-2.554	-3.1631	1.9806	-15.2208	129.2186	-1.275	0.5797	0.77
-2.0178	-2.0018	13.4295	-77.4857	136.0561	10.7214	0.6004	-0.018	-0.3002	-9.0898	-11.057	31.0719	187.3773	-264.9112	194.1054	0.3476	-0.4574	-1.158	13.7328	-2.1499	-2.1571	-10.7052	-12.2361	104.021	-1.3623	0.6134	0.7831
-2.3942	-2.6878	14.7793	-87.1419	155.922	14.8842	0.6304	-0.006	-0.2762	-27.1882	11.1053	16.3119	455.8601	-284.7976	145.8678	0.3342	-0.5123	-1.2094	14.5985	-2.7805	-1.6754	-0.389	-5.2065	69.0163	-1.3094	0.6268	0.8188
-2.1051	-5.9013	17.554	-49.7898	173.2578	29.9104	0.6424	0.006	-0.2702	10.2003	2.8613	3.226	267.2718	-180.6575	-102.9687	0.2795	-0.6426	-1.258	15.3047	-4.3269	-0.6752	-3.8753	10.2708	7.6452	-1.3454	0.6171	0.7468
-2.7909	-6.5894	17.7752	-5.8461	198.9078	44.8254	0.6304	-0.018	-0.2522	2.0137	-8.5162	-1.2427	22.4477	-129.7294	-143.9552	0.2662	-0.6813	-1.2388	15.0683	-4.1559	-1.0876	-22.6706	19.5798	-78.3806	-1.3457	0.6698	0.7412
-1.3281	-5.7267	19.0466	22.25	227.1945	57.1823	0.6664	0	-0.2522	9.0538	-5.5212	16.9054	-246.3387	1.7642	-100.4846	0.2096	-0.7003	-1.2027	14.9457	-3.813	-1.4972	-25.3331	27.6823	-175.3918	-1.2918	0.6091	0.8209
-1.7911	-7.7963	18.7371	72.5601	254.8433	73.4517	0.6664	-0.012	-0.2342	5.7401	-4.1022	6.9804	-4.7672	22.0672	-64.9323	0.2511	-0.6433	-1.2225	14.4912	-2.7218	-1.3273	-22.0606	35.6024	-259.4617	-1.3451	0.6152	0.7651
-1.4979	-7.4512	19.0391	90.2146	285.265	83.5132	0.6784	-0.012	-0.2221	2.8337	1.06	9.2476	79.8834	-5.4432	21.1986	0.2373	-0.6628	-1.204	12.9315	-0.1878	0.7507	-36.3838	35.8879	-315.1176	-1.3272	0.5781	0.7874
-0.5015	-7.3359	19.945	115.9948	320.8529	94.9945	0.7085	-0.024	-0.1921	-0.0407	-2.4871	6.2707	8.8705	-14.4244	-0.8287	0.2377	-0.6812	-1.2211	10.1902	2.9144	0.7654	-39.3774	20.3201	-340.026	-1.3264	0.4377	0.8024
0.0049	-7.3958	19.3048	132.4033	352.543	97.1891	0.7205	-0.03	-0.2101	3.6966	-1.5754	8.8442	-89.235	-7.4138	13.7347	0.2232	-0.68	-1.2391	7.4374	14.1624	0.868	26.8631	4.8733	-306.7097	-1.3622	0.4437	0.7468
-1.8329	-6.4213	16.6718	86.3038	406.7423	108.5442	0.7385	-0.042	-0.1741	2.4033	-2.8284	10.2998	-59.9011	-5.6665	5.4468	0.2379	-0.6827	-1.1854	4.1996	6.5383	0.8335	71.2052	4.4843	21.8216	-1.3265	0.4045	0.7878
-4.7013	-3.9346	20.5805	7.4692	428.9999	121.0009	0.7625	-0.06	-0.1501	2.7343	-2.5445	9.5945	-15.4821	-3.4484	6.4284	0.2377	-0.6812	-1.2211	5.6138	4.4683	0.096	-93.9248	14.9651	136.0606	-1.3083	0.3323	0.8138
-6.3676	0.152	21.2079	-15.7084	439.7587	138.9985	0.7685	-0.0781	-0.1381	2.2746	-3.1729	9.5837	-6.9015	-2.0589	-0.8209	0.2213	-0.5856	-1.2072	7.7326	5.5568	0.6674	-55.9452	10.0411	105.2522	-1.3263	0.3694	0.7915
-0.8192	-4.859	21.6583	23.9087	445.6219	153.7313	0.8045	-0.072	-0.1021	2.0345	-2.2001	9.2244	-0.228	-0.8514	-1.0348	0.2239	-0.7007	-1.2026	8.9789	3.6023	0.102	27.1747	10.6181	64.1411	-1.3441	0.4397	0.7837
-2.8726	-5.6505	25.693	2.3459	443.5667	133.6656	0.7985	-0.0781	-0.072	2.0354	-2.5435	9.2237	-5.9915	-1.1834	-0.9581	0.2512	-0.644	-1.2047	9.0829	1.2478	-0.6046	47.6168	12.1738	44.6715	-1.3442	0.4065	0.7691
-3.0791	-7.6957	35.8461	-7.9767	442.7934	130.6456	0.8105	-0.0901	-0.03	1.97	-2.7731	8.8061	-23.109	-2.8839	-1.8521	0.1943	-0.6608	-1.2222	9.7605	1.1881	-0.9412	22.7673	14.5616	31.7073	-1.3278	0.4805	0.7253
3.4341	-0.0806	27.6611	100.3774	422.3539	153.7202	0.8285	-0.1081	0.006	2.149	-2.8302	9.1067	-13.4976	-2.4382	-0.7464	0.2077	-0.6228	-1.2237	9.8726	1.7613	-0.9952	11.1004	12.5695	18.6926	-1.344	0.4729	0.7983
24.044	8.2754	3.4461	430.0317	288.267	58.3508	0.8466	-0.0901	0.036	2.5569	-2.201	9.4134	-8.2611	-4.1193	-1.8174	0.2226	-0.6432	-1.2049	9.9372	1.9921	-0.5847	16.5627	8.4529	10.3287	-1.3447	0.4943	0.7598
45.0919	-24.4962	-4.7318	651.9105	11.1092	31.395	0.8285	-0.1261	0.03	2.269	-2.83	9.3467	-1.9659	-5.5634	-5.0751	0.2225	-0.6424	-1.2228	9.5911	0.8444	-0.8875	14.3905	3.5476	3.8516	-1.3089	0.4376	0.8026
-3.4269	-15.0278	-1.3414	150.3676	-140.1234	-93.241	0.8345	-0.1321	0.042	2.1524	-2.7726	9.285	15.8308	-5.7638	-7.5185	0.237	-0.6444	-1.1869	9.4655	0.8998	-1.4731	3.9537	-2.528	-6.0389	-1.3452	0.463	0.7269
7.4724	-2.2656	6.5239	-77.7468	-104.2009	-176.8319	0.8285	-0.1261	0.024	1.9088	-2.3154	8.687	17.6499	-5.5202	-7.1095	0.2497	-0.5849	-1.2427	9.6442	1.1878	-1.0602	-1.3343	-6.0486	-18.6112	-1.2919	0.4745	0.7809
-2.2823	-5.1612	14.3619	34.423	-50.2878	-104.8144	0.8526	-0.1081	0.012	2.2039	-2.2009	9.0497	7.3333	-5.2648	-4.2197	0.2088	-0.6627	-1.1864	9.584	1.0152	-1.237	-1.7033	-7.9571	-28.3696	-1.327	0.4415	0.7657
1.442	-10.6553	3.668	168.8997	-83.1015	-31.368	0.8405	-0.1081	0.006	2.2703	-2.3719	9.4665	-4.3497	-5.8997	-3.1087	0.2224	-0.6417	-1.2406	9.9234	0.6125	-1.4067	-5.9408	-9.6956	-30.801	-1.3276	0.4961	0.7418
4.9733	-9.2292	1.6725	5.9955	-121.7691	-28.5132	0.8466	-0.1021	-0.006	2.0404	-2.6575	9.4612	-7.6869	-6.4288	-2.5062	0.1951	-0.6991	-1.2207	9.1176	0.8993	-1.7718	-17.1796	-10.6073	-26.3477	-1.3265	0.4552	0.8005
3.082	-4.207	8.7378	-48.8933	-172.5595	-37.3223	0.8405	-0.1021	-0.012	2.0292	-1.9717	8.9872	-6.1267	-6.8867	-2.1719	0.1931	-0.604	-1.2067	8.7661	1.0129	-2.2451	-22.8781	-13.303	-18.2027	-1.3439	0.4553	0.8002
1.0379	-3.7395	10.3534	42.7126	-222.9882	-23.4	0.8405	-0.1021	-0.042	2.3149	-2.3733	8.8141	-12.8041	-6.5913	-1.5914	0.2083	-0.6427	-1.205	8.5367	1.0704	-2.3078	-23.4464	-14.86	-13.2416	-1.3621	0.4768	0.7614
0.1148	-6.793	6.9602	105.6393	-248.4199	-10.0692	0.8165	-0.0841	-0.036	2.4364	-2.4875	9.1133	-5.9994	-5.0768	-2.2938	0.238	-0.6996	-1.2382	7.9073	1.6449	-2.3766	-26.7066	-15.025	-7.6015	-1.3263	0.4201	0.8042
0.6384	-6.8006	4.1936	79.5769	-263.0737	-6.3776	0.8285	-0.0961	-0.072	2.6203	-2.6013	9.6514	-1.3046	-4.5365	-3.7276	0.2223	-0.6409	-1.2585	8.0749	1.7013	-2.5481	-29.6287	-15.6312	0.6084	-1.309	0.4044	0.788
1.1586	-6.3988	4.3228	42.274	-274.8916	-7.5822	0.8165	-0.0841	-0.0841	2.3829	-2.7159	9.2899	0.0696	-4.8426	-2.2482	0.1943	-0.6608	-1.2222	7.8545	1.1293	-2.2046	-28.7079	-15.7853	9.0314	-1.327	0.4415	0.7657
1.342	-5.9952	4.9182	20.1221	-284.0872	-13.2277	0.7985	-0.0901	-0.1201	2.6158	-2.2011	9.474	-0.6578	-4.5769	-4.0361	0.2084	-0.6435	-1.1872	7.7346	1.2432	-2.4982	-30.1695	-15.9639	17.3468	-1.3798	0.4613	0.7446
0.9443	-5.4188	5.2664	0.4257	-289.5463	-22.846	0.7985	-0.0901	-0.1321	2.2039	-2.2009	9.0497	2.4119	-5.0585	-4.1629	0.2076	-0.622	-1.2415	7.6199	1.6449	-2.4991	-29.8966	-16.0846	25.4747	-1.3443	0.4241	0.7673
1.5985	-5.4749	6.3425	-15.1694	-290.9182	-38.6094	0.7805	-0.1021	-0.1501	2.7851	-2.6598	9.2389	6.7127	-4.0236	-4.8164	0.2507	-0.6241	-1.2233	7.8489	1.0709	-2.4966	-28.789	-16.4504	32.5307	-1.3619	0.4417	0.7651
1.2189	-5.5862	7.5755	-19.3157	-291.5346	-51.9617	0.7685	-0.1021	-0.1741	2.1431	-1.8576	8.9304	7.9681	-4.5325	-5.688	0.1931	-0.6201	-1.2774	8.1442	1.187	-1.9652	-26.1632	-14.1828	43.8531	-1.3617	0.4573	0.7816
0.4694	-6.045	7.5007	-25.659	-293.2829	-72.615	0.7445	-0.0841	-0.1921	2.4421	-1.3993	9.5314	4.4515	-4.6629	-4.2758	0.2077	-0.6228	-1.2237	8.7234	1.3599	-1.4863	-26.2871	-12.8968	55.7256	-1.3787	0.4711	0.8161
0.2548	-6.1576	8.3234	-45.2358	-296.9817	-84.5095	0.7265	-0.066	-0.2161	2.3159	-2.7739	8.8132	2.2468	-3.8021	-2.9362	0.2366	-0.6413	-1.2584	9.0098	0.5564	-1.4835	-30.9397	-13.2987	68.6255	-1.3444	0.4923	0.7781
-1.2836	-6.6127	9.1785	-60.715	-299.0383	-94.4507	0.6965	-0.0781	-0.2342	2.1455	-2.3726	8.9887	-0.051	-6.1946	-1.5313	0.207	-0.5852	-1.2073	8.6791	0.5016	-0.907	-35.2102	-11.3262	81.1532	-1.3617	0.4573	0.7816
-1.2656	-6.6105	10.1242	-70.5608	-298.3395	-98.9636	0.6844	-0.06	-0.2462	2.6667	-2.3736	9.1183	-3.9236	-4.3155	-1.906	0.1795	-0.6411	-1.2231	8.916	0.0438	-0.4956	-34.6476	-7.7326	93.9378	-1.3272	0.5273	0.7747
-1.831	-6.4356	10.7045	-78.8628	-297.8883	-103.3629	0.6604	-0.042	-0.2702	2.668	-1.9155	9.238	-5.2484	-4.2346	-1.1965	0.1791	-0.622	-1.2239	9.1446	-0.3007	-0.4923	-34.6361	-5.394	104.3862	-1.3791	0.4906	0.7959
-1.2416	-6.8375	11.3649	-85.3401	-300.3259	-107.0608	0.6724	-0.048	-0.2762	2.2762	-2.3713	9.7636	-1.4461	-3.4391	-1.3302	0.1791	-0.622	-1.2239	8.9741	-0.6447	-0.497	-31.9543	-0.7957	110.1936	-1.397	0.5785	0.7863
-1.5692	-6.9497	12.3035	-91.1705	-303.453	-108.1566	0.6184	-0.036	-0.2822	2.2109	-2.143	9.4063	-0.5454	-2.9945	-1.1971	0.194	-0.6423	-1.2051	8.4133	-0.8715	-0.0424	-28.7784	2.7471	108.6294	-1.3619	0.5432	0.7906
-2.1264	-7.0038	13.2969	-98.4633	-302.7475	-107.457	0.5764	-0.024	-0.2822	2.0344	-2.1429	9.2245	1.3242	0.0386	0.0648	0.2082	-0.642	-1.2229	8.004	-1.7908	-0.6373	-31.0882	6.3659	97.781	-1.3978	0.5999	0.7478
-3.0267	-8.4946	14.2801	-103.1576	-299.3961	-99.2751	0.5824	0.006	-0.2882	2.7764	-2.4889	8.8233	0.2167	1.5348	-0.7753	0.1933	-0.6216	-1.2416	8.1772	-1.6186	-0.5165	-30.464	8.9262	87.7674	-1.3804	0.6173	0.7462
-4.7277	-8.4305	15.7242	-113.9171	-296.1972	-85.6714	0.5524	-0.018	-0.2942	2.6092	-1.9155	9.1774	2.4042	1.7707	-0.026	0.2216	-0.604	-1.2243	8.4583	-1.964	-0.7455	-27.7094	10.4717	75.4017	-1.3097	0.578	0.7877
-5.573	-8.4841	16.712	-121.5	-291.7866	-65.1539	0.5283	0.012	-0.2882	2.6122	-2.2014	9.2957	5.4195	1.6288	-0.3939	0.2375	-0.6805	-1.239	8.5146	-2.9397	-0.8646	-23.9514	12.5073	63.2138	-1.3623	0.6641	0.7959
-7.5158	-8.3636	17.5606	-127.9759	-285.7116	-37.972	0.5043	0.006	-0.2942	2.6843	-2.7726	9.9493	6.465	-3.2109	-0.046	0.1792	-0.6227	-1.206	7.9897	-2.8836	-1.4582	-21.7934	14.7903	51.9886	-1.3628	0.7011	0.7738
-9.6869	-8.9324	18.4622	-140.1951	-285.135	-7.2307	0.4863	0.012	-0.2942	2.9191	-2.5437	10.1922	-0.8676	-14.7852	0.2598	0.1932	-0.6209	-1.2595	8.6726	-2.6555	-1.502	-21.0039	14.8476	43.5616	-1.3628	0.6504	0.7611
-10.6381	-7.0941	17.0893	-151.2138	-292.3947	20.269	0.4803	0.018	-0.2882	2.108	-2.8284	9.9374	1.9363	-22.027	-4.6517	0.1799	-0.6434	-1.1695	8.6727	-2.7128	-1.5022	-21.8742	14.2772	39.6797	-1.3625	0.6485	0.7794
-12.2571	-6.2221	19.8958	-192.9387	-292.164	39.2562	0.4503	0.06	-0.2822	1.6486	-1.3903	13.0788	-1.139	-30.7975	-9.23	0.1944	-0.6615	-1.2044	8.392	-2.6542	-1.2743	-21.5591	11.5376	38.2084	-1.3621	0.7304	0.825
-15.6262	-3.5669	21.7273	-178.4738	-286.9912	45.098	0.4443	0.048	-0.2882	3.0189	-3.7419	12.1519	-16.614	-63.1567	-12.6446	0.2087	-0.6619	-1.2043	8.3937	-2.9982	-1.2172	-23.2212	9.6632	37.6334	-1.3807	0.67	0.7406
-17.9636	-1.324	20.2101	-163.3261	-261.8866	30.9601	0.4203	0.066	-0.2702	2.6582	-3.0556	11.4925	-22.2145	-81.3463	-15.9128	0.2082	-0.642	-1.2229	8.4561	-2.7678	-0.9235	-22.9744	8.335	38.2069	-1.328	0.6678	0.7598
-20.71	0.2864	18.329	-156.2122	-216.514	5.6033	0.4023	0.066	-0.2702	4.7202	-2.4322	10.9423	-19.1595	-58.0948	-23.0284	0.1218	-0.6203	-1.2243	7.8919	-3.0526	-0.6442	-24.0128	6.3861	40.9457	-1.3812	0.707	0.7185
-23.7975	-0.1148	16.4954	-147.7171	-169.4067	-14.4047	0.3903	0.0781	-0.2582	3.879	-2.8285	12.0527	-5.3383	-84.5403	-25.3909	0.1512	-0.6587	-1.2404	8.2413	-3.224	-0.2878	-23.2329	4.2407	45.7379	-1.3801	0.7168	0.79
-27.0866	2.3561	13.4241	-137.259	-124.184	-18.0286	0.3963	0.0961	-0.2522	3.6903	-3.6883	11.1561	0.4013	-90.9177	-28.7683	0.1501	-0.6027	-1.207	8.5922	-2.9934	0.1867	-17.4573	2.4699	54.5394	-1.3636	0.7401	0.7334
-28.7875	3.7931	11.9765	-145.6703	-83.0198	-1.786	0.3782	0.0961	-0.2642	3.006	-2.3693	11.6793	7.0272	-98.8238	-29.9788	0.0935	-0.6217	-1.171	9.6033	-3.2848	-0.6107	-6.5095	2.1768	69.2261	-1.3632	0.7206	0.7536
-28.4948	6.3234	12.461	-143.55	-54.1317	22.8571	0.3722	0.1021	-0.2582	3.2958	-2.9995	11.6839	-5.1771	-111.2265	-31.9507	0.1214	-0.6011	-1.2251	10.11	-2.7704	-0.8903	5.5777	2.0805	88.7005	-1.3637	0.7576	0.7316
-26.8322	8.0445	12.2023	-107.873	-31.7739	50.1899	0.3722	0.1201	-0.2522	3.106	-2.8863	10.8487	-11.6799	-121.0382	-30.7164	0.0644	-0.6016	-1.172	10.9681	-2.9434	-0.7571	22.0817	3.8549	107.8297	-1.3806	0.8046	0.7806
-25.5598	8.0428	12.4634	-69.9886	-16.4219	70.0168	0.3843	0.1321	-0.2462	3.9422	-3.6295	12.2305	-15.5014	-131.071	-31.5197	0.0509	-0.6388	-1.1884	10.5698	-3.5737	-0.7674	29.5017	9.2604	117.4466	-1.346	0.8239	0.761
-6.5331	113.0957	56.7536	-416.1568	335.1607	76.5233	0.3843	0.1381	-0.2522	4.2249	-2.8293	12.0598	-30.5798	-145.121	-31.7347	0.0502	-0.6181	-1.2249	10.909	-4.5503	-0.9975	20.9587	13.2496	120.1954	-1.3464	0.7926	0.7281
-26.6823	16.4304	33.0227	523.6391	201.4077	3.0608	0.3963	0.1381	-0.2402	4.1015	-2.4292	11.7017	-43.7075	-160.2451	-32.6759	-0.0361	-0.5964	-1.2264	10.7915	-5.2967	-1.2359	10.3564	14.4231	109.2589	-1.363	0.7869	0.7828
15.8493	-12.9959	-2.3786	595.1542	143.461	58.0424	0.4263	0.1141	-0.2642	2.9517	-2.7695	11.7961	-46.9359	-171.4235	-33.5912	-0.0217	-0.5814	-1.1377	12.2279	-5.4691	-0.6827	14.2375	9.8112	66.2562	-1.3291	0.8608	0.7393
7.6475	-8.4546	15.1382	285.1947	251.9277	-65.9376	0.4263	0.072	-0.3002	3.0576	-1.7976	11.4439	-26.501	-168.4305	-39.37	-0.0356	-0.6002	-1.1371	15.8877	-5.1288	-0.0831	8.6169	8.419	-19.322	-1.3649	0.8668	0.6837
-6.9568	1.6824	11.5697	323.397	187.5124	-146.6247	0.4383	0.048	-0.3002	2.9122	-2.8821	12.686	-17.3362	-162.455	-30.1062	-0.1219	-0.5784	-1.1385	18.34	-5.0753	-0.0338	-6.3324	-0.5432	-111.266	-1.3815	0.8611	0.7384
-8.4531	8.4208	15.3383	-23.0449	237.2359	-49.2253	0.4623	0.036	-0.3242	7.3891	-6.0317	17.167	-81.7401	-174.9886	-37.8844	-0.1359	-0.5964	-1.1557	17.6061	-5.4744	0.3	-26.4531	-23.614	-194.3634	-1.3642	0.7947	0.7095
-0.5471	2.1901	12.4049	221.9632	184.5482	26.5068	0.4623	0.036	-0.3122	7.9563	-7.5796	16.5221	-161.4885	-251.6057	-69.4375	-0.1939	-0.5579	-1.122	17.0388	-4.4975	0.5256	-34.137	-44.5423	-273.7995	-1.2942	0.8274	0.7253
-2.1186	-0.2891	8.2915	66.9448	155.3702	40.1186	0.4923	0.03	-0.3182	6.9832	-9.9807	16.5565	-51.2852	-255.8271	-94.7357	-0.1797	-0.5407	-1.0869	13.964	-2.5409	0.8794	-13.3449	-53.9195	-343.5976	-1.3461	0.74	0.7337
-0.6057	-0.865	9.0286	51.1897	127.6413	36.8637	0.4983	0.024	-0.3182	6.6178	-11.0064	18.3287	9.7768	-313.9702	-138.4941	-0.265	-0.5588	-1.0511	10.8235	-0.8726	0.7642	24.9297	-42.2249	-383.2319	-1.3988	0.7247	0.7164
-2.81	-4.5288	13.9396	-6.1688	85.9886	17.8514	0.4983	0.018	-0.3302	4.8774	-11.9192	17.6376	15.5193	-342.9215	-168.7645	-0.3366	-0.5567	-1.0517	7.664	1.9398	-0.2221	62.4037	-15.6013	-387.3922	-1.38	0.5978	0.7664
-2.4726	-4.7102	10.4598	-2.7011	15.168	-12.7811	0.4983	0.024	-0.3242	5.5964	-9.9147	19.2602	44.8462	-385.212	-196.3587	-0.3354	-0.5812	-0.9259	5.9519	12.1455	-2.3774	150.9264	0.2122	-342.9013	-1.3792	0.5589	0.8068
0.0855	-2.534	8.8607	80.7126	-0.1613	14.6319	0.5163	0.024	-0.3302	3.2653	-4.462	24.3909	66.3088	-423.3864	-207.5297	-0.3922	-0.5994	-0.9077	4.5031	7.0941	-3.9999	145.9322	7.2271	-60.9828	-1.3622	0.5451	0.7723
-1.4673	0.6896	9.311	-5.3804	9.595	-4.5423	0.5103	0.018	-0.3302	2.5715	-0.9172	21.83	132.1352	-445.1118	-192.8601	-0.4056	-0.6212	-0.8357	7.5805	5.6543	-4.1768	-106.7449	15.5654	150.4086	-1.3957	0.4517	0.836
-1.0399	-2.7011	10.2564	-10.6818	6.9855	-1.3473	0.4863	0.012	-0.3182	9.3217	5.0261	25.8421	70.8778	-471.3136	-139.9898	-0.4749	-0.7166	-0.7967	10.2888	4.6797	-2.7845	-105.138	4.8255	161.7112	-1.3792	0.5082	0.794
-1.392	-0.401	10.137	18.6773	3.5835	-2.3555	0.5163	0.018	-0.3362	7.537	-1.1458	28.0495	63.0264	-471.0119	-136.2002	-0.5603	-0.7009	-0.6552	10.7351	2.2672	-3.4843	3.7249	1.2068	147.8548	-1.4669	0.5281	0.7724
-0.4874	-1.2674	9.1481	7.5383	4.3688	1.0621	0.5223	0.012	-0.3302	7.6846	-6.1346	23.2906	171.163	-473.7586	-104.6584	-0.544	-0.7634	-0.5457	10.744	0.2605	-3.1998	21.6986	0.5683	122.7142	-1.4318	0.5436	0.7894
-1.0456	-0.7466	10.1429	-7.7889	5.2464	-0.6956	0.5163	0.012	-0.3302	8.4229	-9.3547	16.5874	121.2695	-435.7014	-103.3254	-0.6144	-0.8189	-0.5439	10.7396	0.145	-3.4337	-46.1996	-6.8791	68.9595	-1.3967	0.5765	0.8046
-0.9324	-2.1272	9.9054	9.2171	3.1318	-0.0536	0.5223	0.024	-0.3242	-0.9699	-12.3026	19.12	89.2761	-399.2781	-50.0805	-0.6267	-0.8644	-0.3639	10.233	0.9503	-3.0325	-58.6159	-14.3346	30.8448	-1.3968	0.6448	0.8155
-0.765	-1.5531	9.6737	7.6393	4.1781	0.3569	0.5163	0.012	-0.3362	-9.4909	-10.707	5.2868	181.0913	-325.9893	-50.1883	-0.6259	-0.8697	-0.2389	9.6686	0.8375	-2.7526	-31.116	-18.1101	14.438	-1.3789	0.6252	0.8359
-0.823	-1.323	9.6731	16.1192	4.2799	-0.3064	0.4983	0.006	-0.3242	-19.0552	-2.309	-13.7806	339.6648	-141.3764	27.9364	-0.682	-0.9087	-0.1842	9.3362	0.4382	-2.2941	-20.2244	-20.6697	-2.6826	-1.4142	0.6273	0.817
-1.0612	-0.1734	9.3759	13.9003	4.2253	1.059	0.5163	0.012	-0.3422	-17.953	-23.8686	-4.537	285.5721	61.0809	-14.5347	-0.6542	-0.855	-0.1149	8.7862	0.6149	-1.2545	-26.4281	-25.337	-31.2387	-1.3978	0.6681	0.7586
-1.0559	-1.2654	9.5506	-5.2465	4.7804	1.0398	0.5103	0.018	-0.3182	-3.3691	-11.0126	3.0364	-268.6527	121.536	-76.4934	-0.6813	-0.9302	-0.1299	8.907	0.6733	-0.9018	-30.1973	-27.2436	-66.4611	-1.3962	0.6409	0.8521
-0.8279	-1.0936	9.4373	-6.7844	6.3496	2.581	0.5163	0.018	-0.3302	0.0259	4.8008	16.2656	-226.977	116.85	-65.2024	-0.6391	-0.91	-0.1839	9.661	0.6745	-0.2451	-28.5134	-24.3989	-97.4079	-1.4317	0.6274	0.8167
-0.8207	-2.0128	9.7306	-6.1514	7.6465	4.5866	0.5103	0.012	-0.3302	0.8661	-13.7562	9.8891	-3.4201	145.1365	-87.2539	-0.61	-0.93	-0.1829	10.5128	0.8446	-0.4024	-20.7491	-19.8546	-115.7552	-1.4299	0.5827	0.9121
-0.7545	-0.5167	10.3264	-9.9242	8.5353	3.9207	0.5223	0.006	-0.3242	-1.9218	-1.5073	7.4219	40.8465	184.399	-61.0619	-0.5808	-0.9669	-0.2347	11.2114	1.2478	0.3714	-16.7498	-14.2879	-114.5348	-1.3964	0.6253	0.8356
-1.1167	-1.3807	9.3719	-9.7076	8.0688	4.2179	0.5043	0.018	-0.3182	-4.6823	-4.9976	4.388	38.5869	225.0119	-64.7266	-0.6249	-0.9258	-0.2723	10.8088	2.6823	0.3103	-11.5387	-6.0321	-97.9939	-1.3779	0.5004	0.8673
-1.1711	-1.3227	9.5482	-17.2319	8.0443	3.638	0.5163	0.012	-0.3242	-4.3716	-2.9926	5.7646	36.6371	270.1002	-53.6422	-0.5957	-0.9627	-0.3241	9.1551	2.5128	0.2765	5.122	1.7869	-70.3473	-1.3949	0.5142	0.9018
-1.0553	-1.6103	9.5498	-12.0774	8.0774	4.5501	0.5283	0.006	-0.3302	-3.7404	-4.7117	5.4177	82.9359	302.9622	-25.1193	-0.5378	-1.0013	-0.3579	7.803	2.1163	1.0646	19.9673	11.4604	-33.7364	-1.3779	0.5004	0.8673
-0.934	-1.8398	9.847	-9.3017	7.8389	4.5117	0.5163	0.018	-0.3242	-3.6385	-5.0568	4.7063	77.0163	323.1247	0.5243	-0.5963	-0.9589	-0.4134	7.2868	1.7723	0.878	20.5122	18.8446	-2.4922	-1.3603	0.516	0.8841
-0.2976	-1.3231	10.0379	-9.2575	7.7429	3.9305	0.5163	0.024	-0.3122	-2.371	-5.6896	4.6123	66.3586	332.3363	28.3439	-0.5105	-0.9769	-0.5013	6.7371	1.7196	1.9168	15.8523	27.3813	10.7601	-1.4488	0.5242	0.8093
-1.1667	-1.2646	9.7848	-2.7771	6.796	3.0963	0.5283	0.024	-0.3122	-2.5447	-6.8913	4.4281	51.6347	337.2166	51.3547	-0.5245	-0.9949	-0.5185	7.2524	1.8913	2.0444	19.7571	34.3308	12.8531	-1.4138	0.5064	0.8118
-1.0559	-1.2654	9.5506	-4.8948	6.8558	3.5752	0.5163	0.012	-0.3182	-2.0798	-7.4073	4.5554	32.8893	336.3067	65.8854	-0.4811	-1.0315	-0.588	7.6088	1.6064	2.7505	30.828	37.8967	16.5864	-1.3955	0.5181	0.8652
-1.0524	-1.3225	9.7278	-3.739	6.7134	2.9972	0.5343	0.006	-0.3242	-0.7897	-7.122	5.7111	11.6135	330.9455	83.1436	-0.4683	-0.9728	-0.6259	8.3794	1.1411	1.3059	43.986	37.4036	25.0008	-1.3968	0.4926	0.7773
-0.7101	-1.266	9.5573	1.473	6.0114	4.2087	0.5283	0.012	-0.3302	-0.433	-6.6638	6.3133	0.4775	317.6903	96.7267	-0.4253	-0.991	-0.6784	9.2808	0.9081	0.7398	51.0428	33.8198	31.2604	-1.431	0.5553	0.8425
-1.0569	-1.323	9.4913	1.1733	6.1473	4.4608	0.5103	0.018	-0.3002	0.1518	-7.1223	6.6808	-12.2257	306.2435	110.0617	-0.3549	-0.9525	-0.733	9.7825	0.274	0.1059	49.6281	31.1358	32.9995	-1.4141	0.5591	0.8062
-1.0536	-1.3226	9.6687	1.6934	6.6481	5.0917	0.5223	0.018	-0.3122	0.264	-8.325	6.3836	-30.6923	297.2728	120.1566	-0.3552	-0.9502	-0.7865	9.6476	0.4425	-0.9462	42.0993	26.5223	35.5455	-1.3792	0.5589	0.8068
-0.5353	-1.0935	9.6793	1.1903	6.6067	4.7986	0.5223	0.012	-0.3242	1.4442	-8.2679	7.7742	-51.2195	289.1617	124.1467	-0.3269	-0.9488	-0.8399	9.4672	0.5559	-1.416	37.1625	22.4419	42.585	-1.4322	0.563	0.7692
-1.1655	-1.322	9.8437	-0.6048	6.5942	5.8184	0.5223	0.012	-0.3062	2.443	-8.6691	8.6848	-69.0317	284.9062	120.3636	-0.2993	-0.9259	-0.9476	9.2273	0.0377	-2.0644	38.8285	18.8562	53.3583	-1.4312	0.5397	0.8261
-1.0425	-1.8388	10.1993	0.1511	6.1941	5.4621	0.5283	0.018	-0.3122	4.0121	-9.4158	9.2502	-83.899	287.645	113.4667	-0.2713	-0.906	-0.9838	8.7115	0.2101	-2.1908	38.9742	14.6062	61.1226	-1.362	0.5607	0.7887
-1.1691	-1.1499	9.6668	2.3686	5.5774	4.4589	0.5404	0.018	-0.3062	4.684	-8.8412	11.2253	-87.2636	294.1422	115.245	-0.2437	-0.8677	-1.003	8.6068	0.0399	-1.7268	33.3507	13.347	63.9106	-1.4145	0.5786	0.786
-1.2918	-1.3807	9.2503	-2.4067	5.1073	5.2435	0.5223	0.012	-0.3242	4.7011	-9.0113	12.0568	-91.7035	302.7985	118.9752	-0.2308	-0.8091	-1.0409	8.8944	-0.0749	-1.6048	28.0136	10.7106	63.5107	-1.4145	0.6293	0.7987
-0.8857	-1.036	9.4363	1.212	4.4385	5.7923	0.5223	0.012	-0.3182	3.4643	-9.2913	13.575	-107.2509	305.3944	119.427	-0.1878	-0.8273	-1.0934	8.6747	-0.3025	-1.2017	25.3735	7.5118	63.2873	-1.3449	0.5801	0.7688
-1.1676	-1.3797	9.7254	4.8331	3.0332	5.7572	0.5103	0.006	-0.3242	4.9767	-9.4654	14.2592	-104.9142	295.7903	130.2267	-0.1456	-0.8071	-1.1474	8.0531	-1.1038	-0.9838	23.2886	4.7104	63.6187	-1.4497	0.5631	0.7689
-0.8818	-1.323	9.6129	7.727	2.2399	5.8653	0.5343	0.018	-0.3242	4.9524	-10.4923	15.8008	-150.8822	301.4134	125.2734	-0.062	-0.7122	-1.1863	7.9958	-0.8742	-0.9841	21.8089	1.3546	63.3369	-1.3974	0.5979	0.7661
-1.4015	-2.0123	9.4829	6.2463	-0.0868	5.1252	0.5223	0.018	-0.3182	6.023	-11.8082	17.305	-110.1398	302.115	108.057	-0.0334	-0.7292	-1.2567	7.829	-1.447	-0.8145	21.1538	-2.6801	62.6185	-1.3802	0.6329	0.7626
-0.816	-0.8621	10.088	9.5665	-1.1216	2.903	0.5283	0.024	-0.3242	9.9038	-11.4723	18.336	-144.6131	299.0217	92.589	-0.0069	-0.6502	-1.331	8.0663	-1.5031	-0.3433	19.4135	-5.1977	60.7943	-1.3983	0.6876	0.7384
-1.1685	-1.4949	9.666	15.1467	-1.6	2.7646	0.5404	0.018	-0.3242	13.7866	-11.0216	19.4861	-152.7324	299.3093	79.2045	0.0637	-0.6132	-1.3498	7.9504	-2.4787	-0.5242	22.3683	-8.4295	56.9453	-1.4152	0.6507	0.7602
-1.5706	-1.609	9.717	21.1699	-1.6423	1.6111	0.5163	0.012	-0.3122	17.1434	-10.0552	20.3294	-164.6589	312.6012	69.7834	0.1903	-0.5196	-1.3883	8.5709	-2.4809	-0.8618	24.6612	-12.3854	48.867	-1.4672	0.6822	0.7922
-1.1053	-1.4943	9.9626	22.4635	-0.0096	2.7178	0.5404	0.018	-0.3182	21.302	-7.374	21.1334	-148.4074	313.9021	60.043	0.2618	-0.521	-1.4056	7.716	-2.8811	-0.8804	25.247	-13.8885	37.0403	-1.4321	0.6469	0.7966
-1.5603	-1.7227	10.2486	28.2965	3.7871	3.5435	0.5223	0.006	-0.3182	25.771	-3.7812	20.2826	-148.9198	294.63	31.2814	0.3737	-0.4085	-1.4272	7.4866	-2.8236	-0.9431	26.454	-12.7355	23.4268	-1.3969	0.6624	0.8136
-1.0008	-1.9486	12.3859	22.7532	11.8886	5.9824	0.5343	0.012	-0.3422	41.4631	4.2193	33.6895	-190.473	215.53	-2.385	0.4449	-0.3914	-1.4274	7.1445	-2.8804	-0.9502	25.7552	-8.7364	8.3905	-1.3976	0.633	0.7624
-1.0018	0.9338	15.6425	14.8694	48.4144	10.4114	0.5223	-0.006	-0.3062	35.969	2.9311	12.3694	-58.8783	224.4993	-9.4706	0.5866	-0.3366	-1.4643	7.9554	-2.7647	-0.2918	22.801	-4.4551	-6.3475	-1.4675	0.7349	0.7867
-1.2452	-2.3525	11.6121	44.7564	75.035	20.4243	0.5404	0.006	-0.3062	32.392	4.0728	6.5367	-169.8343	183.7746	18.0247	0.6017	-0.3585	-1.4098	8.1378	-2.7055	0.2954	17.5281	-0.0852	-18.2632	-1.3622	0.6973	0.8104
-0.7015	-1.0349	10.0307	43.334	74.362	20.7907	0.5223	-0.006	-0.3122	29.284	18.901	5.6719	-161.0557	87.3559	50.2339	0.6567	-0.2635	-1.4311	8.9952	-2.4196	0.4302	10.2995	5.5109	-26.6835	-1.4142	0.6781	0.8298
-0.6571	-0.1093	12.4562	24.388	79.0405	14.2613	0.5584	0	-0.3242	33.4164	24.2416	19.9043	-258.631	-20.5325	49.5607	0.6993	-0.2294	-1.3608	9.9671	-1.7321	0.6272	3.6177	6.5212	-28.7409	-1.4152	0.7014	0.7729
-0.7198	-0.4549	12.1587	11.2514	96.4207	10.1351	0.5464	-0.006	-0.3122	38.5481	29.4101	35.1072	-126.429	-35.7347	-71.9185	0.6995	-0.2471	-1.3958	10.9666	-1.2796	-0.6927	4.6064	1.8306	-19.0291	-1.4329	0.6352	0.7435
-1.6375	0.4027	9.4252	9.9929	98.5271	11.3982	0.5644	0.006	-0.3242	39.8846	24.0843	35.0049	142.399	-81.8796	-115.7521	0.7128	-0.2084	-1.415	11.239	-1.1103	-1.3283	14.0349	-5.7728	-2.2024	-1.3625	0.6485	0.7794
-1.6276	-1.3213	9.7756	-25.5403	100.8943	3.1238	0.5704	-0.018	-0.3182	41.5714	13.5717	17.1992	423.8818	-144.5006	-130.3654	0.7126	-0.2069	-1.4508	11.8448	-1.2299	-2.4249	23.2246	-10.8238	16.6728	-1.4327	0.7015	0.7726
