1757_acc_x	1757_acc_y	1757_acc_z	1757_gyro_x	1757_gyro_y	1757_gyro_z	1757_mag_x	1757_mag_y	1757_mag_z	1758_acc_x	1758_acc_y	1758_acc_z	1758_gyro_x	1758_gyro_y	1758_gyro_z	1758_mag_x	1758_mag_y	1758_mag_z	1759_acc_x	1759_acc_y	1759_acc_z	1759_gyro_x	1759_gyro_y	1759_gyro_z	1759_mag_x	1759_mag_y	1759_mag_z
-2.23478	1.071794	9.637021	-0.468715	0.15077	0.065135	0.055696	-0.098207	-0.828349	1.908641	0.155412	10.001087	0.466322	0.221473	-0.141287	-0.006163	0.247798	-0.926458	9.520512	1.521349	1.623374	-0.335351	0.561871	1.750817	-0.61498	-0.339472	0.004174
-2.410749	0.726304	9.40482	-0.621126	0.241555	0.128385	0.17162	0.263183	-0.895567	2.080367	0.662064	10.005141	0.311657	0.218506	0.0127	0.147442	-0.180273	-0.901666	9.468253	1.929747	2.043352	-0.365643	0.374441	2.118582	-0.534426	-0.360385	-0.489784
-1.894553	1.01338	9.472901	-0.438273	0.214115	-0.087263	0.199476	0.276205	-0.899682	2.082569	0.77482	10.118515	0.496554	0.189791	0.074219	0.161008	-0.178055	-0.930641	9.580108	2.218621	1.747255	-0.611568	0.403197	2.211026	-0.520447	-0.361007	-0.474186
-2.234532	0.727145	9.635573	-0.253435	0.306126	0.005704	0.228088	0.278984	-0.914456	2.013562	0.43647	9.550625	0.806352	0.255443	0.013465	0.122231	-0.147639	-0.931821	9.704453	1.871131	2.047507	-0.6693	0.581784	2.668834	-0.492702	-0.359773	-0.489573
-2.518743	0.957601	9.744677	-0.2856	0.279075	-0.33199	0.19949	0.258906	-0.88219	1.843738	0.831249	9.71725	0.684803	0.407602	-0.046776	0.161083	-0.162734	-0.931644	9.589857	1.814067	2.224779	-0.331085	0.74005	2.269529	-0.548613	-0.375955	-0.504545
-2.173729	0.44062	9.806039	-0.16458	0.033793	-0.336325	0.18577	0.22821	-0.860933	1.67881	-0.069478	9.996062	0.223263	0.554644	0.015971	0.13446	-0.240558	-0.911725	9.8771	1.869737	1.811181	-0.054972	0.992069	1.656059	-0.534705	-0.375751	-0.504475
-2.176081	0.612462	9.693057	0.018512	0.005658	-0.490649	0.156757	0.256501	-0.867066	1.50767	0.381584	10.106094	0.223029	0.524784	-0.107638	0.147668	-0.134312	-0.904676	9.700997	1.46361	1.806149	-0.025765	1.212613	1.043637	-0.520726	-0.376373	-0.488877
-2.295126	0.726463	9.4639	-0.195118	0.127236	-0.457391	0.155971	0.301343	-0.89139	1.898431	0.436686	9.548208	0.008914	0.705023	0.048122	0.135276	-0.192453	-0.943435	9.526034	1.987441	1.984793	0.034982	1.245631	0.829317	-0.534496	-0.359559	-0.505312
-2.519732	0.785035	9.6871	-0.287499	0.09677	-0.518956	0.198347	0.282919	-0.874946	1.677063	0.212127	9.93966	-0.145595	0.702862	0.078804	0.148258	-0.132168	-0.933376	9.464662	1.580302	1.802241	0.378412	1.42503	1.346791	-0.548267	-0.342744	-0.521747
-2.350444	1.129078	9.578182	-0.194038	0.124107	-0.181433	0.22886	0.251442	-0.907624	1.907563	0.718718	10.001562	0.004236	0.337045	0.044459	0.173909	-0.1933	-0.929913	9.399198	1.985733	1.503337	0.193625	1.579204	1.163345	-0.548893	-0.391322	-0.519236
-2.408315	0.439579	9.51732	-0.257168	0.066529	-0.550203	0.184612	0.269523	-0.871181	1.90195	0.493158	9.718174	-0.086848	0.45873	0.014768	0.135502	-0.146492	-0.946446	9.112226	1.813911	1.916441	0.037802	1.581802	0.858266	-0.562804	-0.372854	-0.566726
-2.179504	0.726621	9.52298	-0.500323	0.153408	-0.180075	0.199862	0.262434	-0.896266	1.730355	0.54986	9.771234	-0.146297	0.641935	0.016542	0.162264	-0.158447	-0.989043	9.69702	1.753248	1.627664	-0.023593	1.48792	1.042315	-0.548684	-0.375129	-0.520073
-2.572118	0.211626	9.910986	-0.132665	0.155473	-0.211767	0.170492	0.269898	-0.870831	1.563141	0.21239	9.993881	0.006341	0.491174	-0.077319	0.161599	-0.175911	-0.95934	9.405781	1.522361	1.800894	0.52533	1.594609	-0.213264	-0.534847	-0.374099	-0.53553
-2.053902	0.786392	10.093979	-0.439016	0.05976	-0.028433	0.171249	0.259655	-0.881491	1.901519	0.718481	9.718364	-0.11747	0.459747	-0.201043	0.17465	-0.160515	-0.96062	9.692328	1.403556	1.326646	0.705777	1.572881	-1.008445	-0.56273	-0.392352	-0.503778
-2.190598	0.666767	8.954208	-0.439769	-0.00066	-0.121417	0.227717	0.275456	-0.90038	1.616086	0.099431	9.768437	0.19229	0.525197	-0.230971	0.135722	-0.160741	-0.959792	9.58476	1.638603	1.924503	0.890023	1.606028	-1.192646	-0.506956	-0.393188	-0.472441
-2.409511	0.554221	9.460949	-0.653717	0.090534	-0.119319	0.213611	0.258531	-0.882539	2.017189	0.436612	9.720544	-0.055837	0.459726	-0.077682	0.186225	-0.150479	-0.89015	9.40414	1.754418	1.741976	0.676014	1.601784	-0.855662	-0.534638	-0.357906	-0.536367
-2.412028	0.955829	9.348932	-0.440796	-0.122893	-0.184737	0.212482	0.265246	-0.857803	1.556665	0.437475	9.710873	0.068403	0.522019	0.015522	0.148472	-0.206627	-0.957057	9.409082	1.523103	1.980614	0.247276	1.843058	-0.671885	-0.520797	-0.375547	-0.504404
-2.639767	0.72647	9.400366	-0.471007	-0.092999	-0.122828	0.184984	0.273051	-0.885257	1.73683	0.324775	10.054243	-0.149455	0.396415	0.044926	0.161008	-0.178055	-0.930641	9.227922	1.871222	1.799076	0.063859	1.808335	-0.334864	-0.576291	-0.359345	-0.52105
-2.404026	0.67031	9.745697	-0.410235	-0.059895	-0.306473	0.185755	0.245509	-0.878425	1.734412	0.32468	9.940963	-0.054823	0.550915	0.046538	0.160933	-0.193375	-0.929637	9.82069	1.696138	1.929152	0.158455	2.053071	-0.305812	-0.548196	-0.34357	-0.506219
-2.29624	0.726222	9.407047	-0.256601	0.002284	-0.305904	0.157886	0.249787	-0.891802	1.913369	0.211933	10.227693	-0.180622	0.365962	-0.047886	0.148258	-0.132168	-0.933376	10.18442	1.813705	2.475411	0.495013	2.214491	-1.010744	-0.548963	-0.390495	-0.534763
-2.75283	0.267262	9.453062	-0.22331	0.339087	-0.177854	0.214754	0.234517	-0.889783	2.023795	0.77488	10.060666	-0.396569	0.393481	0.01387	0.148548	-0.191306	-0.958061	9.753835	1.752619	1.508951	0.773794	2.399343	-1.043198	-0.576429	-0.376364	-0.504685
-2.521959	0.784553	9.573394	-0.31674	0.029948	-0.059938	0.184612	0.269523	-0.871181	2.070912	0.549023	9.551929	-0.487693	0.514964	0.015005	0.161674	-0.16059	-0.960344	9.766075	1.697262	2.167679	0.775286	2.396506	-0.768126	-0.562942	-0.389873	-0.550361
-2.119815	0.439855	9.636593	-0.162593	0.153244	-0.02771	0.199862	0.262434	-0.896266	1.500093	0.550291	9.766399	-0.39271	0.699928	0.047748	0.148108	-0.162809	-0.931369	9.642156	2.33538	1.928571	0.959773	2.460243	-0.952475	-0.534355	-0.361211	-0.474256
-2.174926	0.555262	9.749669	-0.378386	-0.063229	6.1e-05	0.17162	0.263183	-0.895567	2.075639	0.605544	9.778535	-0.361347	0.760039	0.294996	0.148478	-0.146417	-0.946722	9.523833	1.986947	1.864979	1.267442	2.462612	-1.075851	-0.548058	-0.326552	-0.522584
-2.234697	0.956911	9.636538	0.018369	-0.150435	-0.27851	0.198333	0.300219	-0.892437	1.563834	1.113773	10.107919	-0.546634	0.75809	0.233171	0.148403	-0.161737	-0.945718	9.702522	1.754485	1.927199	1.388137	2.405974	-1.473331	-0.520939	-0.373895	-0.53546
-2.521917	0.727111	9.573152	0.233898	-0.089708	-0.124803	0.213611	0.258531	-0.882539	2.134629	0.492822	9.836289	-0.390252	0.941824	0.574234	0.135577	-0.131172	-0.94745	9.463696	1.521979	1.742087	1.693756	2.319096	-1.840773	-0.521077	-0.390913	-0.519095
-2.753286	0.899119	9.455716	0.048024	-0.210017	-0.432904	0.228088	0.278984	-0.914456	1.901411	0.774811	9.718411	-0.758331	1.151371	0.637677	0.17487	-0.174764	-0.973966	9.638274	1.637231	1.626069	1.538113	2.259253	-2.023298	-0.548333	-0.360589	-0.489854
-2.291703	0.612303	9.633977	-0.289651	-0.335214	-0.37263	0.213982	0.262059	-0.896615	1.720792	0.49315	9.31807	-0.507902	1.429281	0.825611	0.148032	-0.17813	-0.930365	9.696055	1.694925	1.56751	1.598587	2.044401	-1.930804	-0.520797	-0.375547	-0.504404
-2.005431	0.612096	9.639544	-0.412921	-0.365128	-0.495434	0.170077	0.318267	-0.909231	2.021138	0.267763	9.890321	-0.663582	1.335126	0.855378	0.147957	-0.19345	-0.929361	9.587501	1.406793	2.043328	1.351741	2.105954	-2.052454	-0.507031	-0.373691	-0.53539
-2.351392	0.89907	9.520364	-0.441746	-0.214045	-0.278219	0.171635	0.245884	-0.878076	1.507777	0.325253	10.106046	-0.696855	1.121893	0.575777	0.187551	-0.175761	-0.959892	9.340162	1.521013	1.440352	0.920512	2.010425	-1.836499	-0.520797	-0.375547	-0.504404
-2.005721	1.014187	9.641233	-0.31899	-0.245248	-0.187076	0.199847	0.279733	-0.913758	1.732557	0.662616	9.884608	-0.421613	0.910365	0.635552	0.135427	-0.161812	-0.945443	9.819474	2.218823	1.931377	0.615964	2.126317	-1.316387	-0.521006	-0.39174	-0.503567
-2.124477	0.726097	9.410388	-0.471194	-0.217665	0.028486	0.199847	0.279733	-0.913758	1.445377	0.325171	9.878279	-0.327879	0.974279	0.420466	0.161008	-0.178055	-0.930641	9.646247	1.52281	2.044923	0.434234	1.964191	-0.489763	-0.548613	-0.375955	-0.504545
-1.892077	0.669214	9.585159	-0.442325	-0.400175	-0.127903	0.172392	0.235641	-0.888736	1.557012	0.888166	9.767892	-0.358773	0.973887	0.420437	0.160863	-0.148486	-0.918298	9.704993	1.638827	2.046518	0.312711	2.022406	-0.245099	-0.562454	-0.358315	-0.536508
-2.305189	0.781733	8.952464	-0.716772	-0.280274	0.028176	0.185369	0.25928	-0.881841	1.681144	0.60663	10.16655	-0.482662	0.942057	0.358365	0.161153	-0.207624	-0.942983	9.347035	1.406344	1.799299	0.339519	1.874926	-0.764059	-0.534288	-0.343366	-0.506149
-2.12819	1.242347	9.242	-0.717635	-0.434281	0.056343	0.184998	0.255752	-0.867765	1.855156	0.550024	10.226769	-0.789267	1.093474	0.051342	0.161379	-0.161662	-0.945994	9.821385	1.870614	1.989801	0.399769	1.90889	-1.070066	-0.535056	-0.390291	-0.534693
-2.459054	0.670834	9.85829	-0.749647	-0.399172	-0.341678	0.184226	0.283294	-0.874596	1.902512	0.831189	9.775098	-0.762232	0.78742	0.017493	0.161523	-0.191231	-0.958337	9.643236	1.870772	1.926593	0.551901	2.099603	-1.71334	-0.534705	-0.375751	-0.504475
-2.178515	0.899187	9.580557	-0.565431	-0.461864	-0.159219	0.172778	0.22187	-0.88532	2.189993	0.379959	9.724124	-0.949314	0.632952	-0.169162	0.135427	-0.161812	-0.945443	9.813972	2.217587	1.631843	0.425282	1.981214	-2.14019	-0.548963	-0.390495	-0.534763
-2.582222	0.324338	9.39979	-0.688448	-0.242098	-0.615313	0.21321	0.289602	-0.903447	2.138148	0.549295	10.006255	-0.731846	0.727891	-0.198871	0.161599	-0.175911	-0.95934	9.878315	1.347053	1.808956	0.545616	2.049457	-2.78276	-0.54903	-0.40834	-0.502871
-2.124145	0.266565	9.408457	-0.626638	-0.180695	-0.583825	0.184984	0.273051	-0.885257	1.562063	0.775695	9.994356	-0.919472	0.541953	-0.262527	0.147888	-0.148561	-0.918023	9.582964	1.46388	1.803948	0.977161	2.20648	-3.029569	-0.534496	-0.359559	-0.505312
-2.225831	1.016283	10.091604	-0.626901	-0.336441	-0.402347	0.184612	0.269523	-0.871181	2.025866	0.324283	10.116927	-0.978689	0.726365	-0.44571	0.161303	-0.176983	-0.94499	9.589587	1.930219	2.225274	0.973785	2.119754	-3.518136	-0.562871	-0.390699	-0.534834
-2.349947	0.439779	9.575286	-0.443689	-0.364923	-0.52601	0.157128	0.260029	-0.881142	1.734066	-0.126012	9.883944	-0.76352	0.666169	-0.19951	0.135797	-0.14542	-0.960796	9.809685	1.693666	1.330083	1.128177	2.213024	-3.610826	-0.520451	-0.342336	-0.521606
-2.351267	0.726745	9.51964	-0.290001	-0.428106	-0.312803	0.185741	0.262809	-0.895917	1.447363	0.550588	9.991748	-0.886433	0.725327	-0.106537	0.161523	-0.191231	-0.958337	9.229428	1.697242	1.858241	1.192211	2.363989	-3.397845	-0.548058	-0.326552	-0.522584
-2.286301	0.843276	9.919208	-0.289978	-0.271665	-0.555605	0.170863	0.273426	-0.884907	2.313824	0.887097	10.180085	-0.57363	1.064345	0.236195	0.148403	-0.161737	-0.945718	9.589702	1.407287	2.163142	1.59642	2.452156	-2.910736	-0.562521	-0.37616	-0.504615
-2.469857	0.20889	9.287829	-0.382589	-0.395369	-0.52668	0.19949	0.258906	-0.88219	2.1443	0.493202	10.289406	-1.095752	1.33145	0.57754	0.148328	-0.177058	-0.944715	9.411978	1.698073	2.161077	2.276186	2.700261	-3.006068	-0.520313	-0.325317	-0.537971
-2.011946	0.380883	9.297461	-0.535196	-0.335316	-0.463929	0.156743	0.2738	-0.884558	1.850644	0.380842	10.000068	-1.215859	1.605663	0.610998	0.160713	-0.179127	-0.916291	9.759878	1.521551	1.807496	3.048091	2.732047	-2.856204	-0.548475	-0.358937	-0.52091
-2.927235	0.841319	9.338428	-0.566838	-0.395185	-0.618151	0.172021	0.232113	-0.87466	1.855372	0.437363	10.226674	-1.433171	1.540181	0.825969	0.160863	-0.148486	-0.918298	9.47304	1.291653	2.220354	3.698279	2.946614	-2.67621	-0.520939	-0.373895	-0.53546
-2.240964	0.381048	9.293007	-0.721018	-0.580987	-0.559391	0.19909	0.289976	-0.903097	1.4533	0.607156	10.274993	-1.432703	1.571248	0.764622	0.134987	-0.133315	-0.91875	9.873643	1.462216	1.569822	4.100321	3.101006	-2.678402	-0.49347	-0.406698	-0.518118
-2.172782	0.670627	9.863858	-0.751633	-0.518623	-0.650293	0.213225	0.272302	-0.885955	2.084317	0.493215	10.174917	-1.097737	1.23523	1.223973	0.161083	-0.162734	-0.931644	9.462596	1.521732	1.68218	4.718727	3.130977	-2.405725	-0.562942	-0.389873	-0.550361
-2.411862	0.726063	9.347967	-0.782412	-0.424485	-0.832683	0.200633	0.234892	-0.889434	2.191979	0.605375	9.837592	-0.912607	1.17907	0.791969	0.173469	-0.164803	-0.903221	9.819434	1.289112	1.807608	4.783032	3.18828	-2.008921	-0.534776	-0.374925	-0.520002
-2.233294	0.555062	9.691702	-0.724948	-0.851317	-1.115799	0.242209	0.27861	-0.914805	1.388266	0.71964	9.934042	-0.822069	0.997264	0.636094	0.187255	-0.176833	-0.945542	9.761113	1.463722	1.867156	5.058909	3.409713	-2.622223	-0.534847	-0.374099	-0.53553
-1.999905	0.670744	9.924051	-1.096166	-1.218689	-1.396714	0.186127	0.249038	-0.892501	1.963573	0.267871	9.889112	-0.419743	1.034634	0.390164	0.134912	-0.148636	-0.917747	9.578853	1.811594	1.625711	5.950858	3.386122	-2.992087	-0.521006	-0.39174	-0.503567
-2.122125	0.554255	9.52337	-0.97463	-1.058546	-1.915821	0.185341	0.293879	-0.916824	1.681682	0.324977	10.166313	-0.848364	1.335794	0.392814	0.160933	-0.193375	-0.929637	10.116331	1.928015	1.99555	6.837172	3.373248	-4.401086	-0.548963	-0.390495	-0.534763
-2.408729	1.013995	9.519733	-1.929586	-1.612334	-2.259424	0.185369	0.25928	-0.881841	2.424096	0.267009	9.898783	-1.214459	1.641561	-0.190174	0.161008	-0.178055	-0.930641	9.64061	1.57965	1.745636	7.478869	3.448736	-5.565113	-0.520522	-0.34151	-0.537134
-1.89216	0.784097	9.585642	-2.423804	-1.947809	-2.692811	0.214739	0.251817	-0.907275	1.90657	0.606009	9.944827	-1.709898	1.572149	0.08619	0.148773	-0.145345	-0.961072	9.938047	1.986249	1.932589	7.720825	3.76908	-6.881656	-0.534918	-0.373273	-0.551058
-2.06252	0.382372	9.637466	-2.826668	-2.375052	-3.127954	0.184612	0.269523	-0.871181	1.789776	0.211816	9.828798	-1.308427	1.576439	0.209868	0.147662	-0.194522	-0.915012	10.055093	1.4628	1.812751	8.208805	3.68791	-7.738746	-0.534709	-0.35708	-0.551895
-2.237913	0.783863	9.465255	-3.286397	-2.377198	-3.126665	0.228846	0.268742	-0.925116	1.914924	0.662672	10.341352	-1.122476	1.639114	0.364781	0.148108	-0.162809	-0.931369	9.638969	1.811707	1.686718	8.114132	3.753801	-8.227693	-0.492773	-0.358946	-0.505101
-2.184	0.783098	9.295809	-3.344835	-2.197959	-2.694226	0.183855	0.279766	-0.86052	1.684662	0.663103	10.336516	-0.938784	1.546855	0.764777	0.147957	-0.19345	-0.929361	9.87872	1.172825	1.808214	8.851228	3.855168	-8.903183	-0.548889	-0.409993	-0.471815
-2.806703	0.210586	9.622266	-2.699391	-2.043727	-2.478898	0.199104	0.272677	-0.885606	1.562817	0.381381	9.994024	-0.942722	1.240007	0.792551	0.148548	-0.191306	-0.958061	9.462886	1.870435	1.743571	10.139757	4.058498	-10.375724	-0.534638	-0.357906	-0.536367
-1.894387	0.783614	9.471936	-2.879396	-1.742827	-1.982796	0.184984	0.273051	-0.885257	1.842637	0.774871	9.660562	-1.466834	1.296283	0.546064	0.173984	-0.17798	-0.930916	9.995942	1.521011	1.811898	11.126565	4.310236	-10.716662	-0.549172	-0.406688	-0.533926
-2.067388	0.955822	9.412466	-2.477646	-1.374964	-1.732628	0.212482	0.265246	-0.857803	1.621376	0.493982	10.051967	-0.696192	1.182619	0.668866	0.134906	-0.208846	-0.928082	9.70982	1.930443	2.347289	11.988317	4.130115	-10.749483	-0.549239	-0.424533	-0.502034
-2.348958	0.612345	9.632863	-2.629535	-1.316997	-1.485903	0.200605	0.269491	-0.924418	1.792863	0.493611	9.998954	-1.006225	1.115759	0.914577	0.148108	-0.162809	-0.931369	10.057585	1.811998	1.993955	13.219003	3.984436	-11.028287	-0.507378	-0.406902	-0.518188
-1.896738	0.955456	9.358954	-2.841499	-1.106351	-1.175187	0.200262	0.231364	-0.875358	2.015117	0.887209	9.664284	-1.444007	0.710624	1.064337	0.174575	-0.175836	-0.959616	9.345394	1.638401	1.740381	13.866501	3.769482	-10.724003	-0.562801	-0.391526	-0.519306
-2.572822	1.188132	9.915088	-2.96119	-0.958826	-0.681756	0.186127	0.249038	-0.892501	1.905792	0.38064	9.887998	-1.4405	0.957955	0.758518	0.147812	-0.163881	-0.917019	9.703062	1.52218	1.92621	14.267322	3.55364	-10.418822	-0.521285	-0.407106	-0.518258
-2.475549	0.380008	9.004287	-3.272579	-1.478181	-1.087985	0.186484	0.269865	-0.924069	1.733119	1.000646	9.941532	-1.534703	0.834321	0.726384	0.161228	-0.192303	-0.943987	9.8771	1.869737	1.811181	14.634927	3.24907	-10.4187	-0.507795	-0.439287	-0.516514
-2.114331	0.555944	9.921341	-3.885892	-1.667869	-0.874626	0.200605	0.269491	-0.924418	1.675985	0.775432	9.940134	-0.642861	0.538033	0.878296	0.134466	-0.180348	-0.90139	9.405646	1.580437	1.801141	14.974638	3.125092	-10.144295	-0.535123	-0.408136	-0.5028
-2.119857	0.497296	9.636835	-4.042149	-1.910269	-1.246133	0.1575	0.263558	-0.895218	1.614338	0.381036	9.712034	-0.273029	0.452151	0.661943	0.161523	-0.191231	-0.958337	9.879031	1.986384	1.931489	15.157173	2.726827	-10.020814	-0.507448	-0.406075	-0.533716
-2.23346	0.784828	9.692667	-4.408332	-1.947934	-0.785669	0.200247	0.248663	-0.89285	1.211919	0.100138	9.703335	0.621653	0.342469	0.414947	0.148918	-0.174914	-0.973414	9.281301	1.927927	1.500889	14.665607	2.504303	-9.376201	-0.507311	-0.389057	-0.550081
-2.29393	0.611821	9.520271	-4.562886	-2.03876	-0.970709	0.184612	0.269523	-0.871181	1.332232	0.550804	9.98933	1.513878	0.105498	0.875731	0.148032	-0.17813	-0.930365	8.922647	1.520969	1.193021	14.268262	2.030459	-8.058389	-0.521356	-0.40628	-0.533786
-1.885438	0.728103	9.926519	-3.884386	-1.547027	-0.688658	0.171606	0.280483	-0.913059	1.743976	0.38139	10.394128	2.716905	-0.060589	0.474282	0.160863	-0.148486	-0.918298	9.223365	1.463454	1.497811	13.934336	1.522465	-6.373895	-0.507027	-0.392362	-0.487969
-2.113342	0.72851	9.978918	-3.303664	-1.508361	-1.149722	0.198333	0.300219	-0.892437	1.903159	0.493206	9.774813	3.604325	-0.752101	0.098182	0.160418	-0.180198	-0.901941	8.871759	1.813462	1.672412	13.442694	0.927508	-5.207939	-0.521632	-0.440317	-0.501056
-2.119484	-0.019678	9.634663	-2.623456	-0.95899	-0.52939	0.171235	0.276954	-0.898983	1.735406	0.437388	9.997698	4.665798	-2.330558	-0.286596	0.12208	-0.17828	-0.929814	9.213326	1.519305	0.958896	12.980695	0.117592	-3.949369	-0.507374	-0.425573	-0.470767
-2.574386	0.268585	9.797521	-2.469057	-0.930324	-0.284025	0.227331	0.289227	-0.903796	1.91447	0.268311	10.28438	6.314981	-3.869106	-0.947957	0.173764	-0.163731	-0.91757	9.448446	1.925297	0.965028	12.667898	-0.682309	-3.608238	-0.507653	-0.440939	-0.485458
-2.295044	0.61158	9.463418	-2.067198	-0.468875	-0.15501	0.185369	0.25928	-0.881841	2.261502	0.042389	10.348084	7.468535	-5.535395	-1.795953	0.174795	-0.190084	-0.972962	9.164504	1.870368	1.558348	11.516324	-2.063241	-3.566915	-0.521356	-0.40628	-0.533786
-2.569067	0.614441	10.083234	-2.61922	-0.564342	-0.093637	0.156757	0.256501	-0.867066	1.515246	0.212877	10.445789	8.122419	-7.550937	-1.78464	0.187035	-0.162584	-0.932196	9.031356	2.215881	0.778841	10.201071	-3.861296	-4.653798	-0.535961	-0.454235	-0.546873
-2.060458	0.61262	9.752137	-1.610331	-0.646253	-0.58856	0.185369	0.25928	-0.881841	1.626319	0.437841	10.278478	8.712336	-9.664521	-0.972825	0.134466	-0.180348	-0.90139	9.095604	2.333134	1.07997	8.479355	-6.395209	-5.705127	-0.535335	-0.405657	-0.549384
-2.227519	0.26906	9.974761	-1.490041	-0.795516	-0.928681	0.213982	0.262059	-0.896615	1.876569	0.100186	11.189263	7.606258	-11.38243	1.69125	0.148108	-0.162809	-0.931369	9.268271	2.796595	0.905529	6.048484	-9.335264	-6.171275	-0.521077	-0.390913	-0.519095
-1.901026	0.724725	9.130576	-0.545139	-0.838637	-2.15883	0.199118	0.255377	-0.868114	1.815377	0.100151	11.018135	4.932313	-14.873036	5.107162	0.161379	-0.161662	-0.945994	8.848826	2.679905	0.53789	3.527577	-12.435469	-5.963982	-0.521632	-0.440317	-0.501056
-2.463591	0.784752	9.63136	-0.574214	-0.592925	-2.154753	0.171649	0.228584	-0.860584	1.979696	-0.576518	10.568076	0.349156	-17.754051	10.069056	0.135056	-0.178205	-0.930089	8.897107	2.561146	-0.060573	0.424558	-15.389519	-5.296854	-0.493399	-0.407524	-0.50259
-2.407325	0.612145	9.574897	-1.128065	-0.745684	-2.462325	0.155985	0.284043	-0.873898	1.768429	-1.02602	11.412455	-8.178393	-22.167072	16.554047	0.148252	-0.192378	-0.943711	8.968904	2.27335	0.598267	-2.513663	-18.301017	-2.766243	-0.506681	-0.359151	-0.505171
-2.179463	0.66918	9.522739	-2.04519	-0.4437	-2.362772	0.170863	0.273426	-0.884907	2.004965	1.623895	14.646768	-9.645779	-30.135562	22.362036	0.161228	-0.192303	-0.943987	8.674248	2.564653	0.653908	-5.037324	-20.305745	0.950547	-0.493608	-0.423716	-0.501753
-2.525092	0.496621	9.401628	-2.38316	-0.098531	-3.1229	0.184598	0.286822	-0.888672	1.810078	1.848686	13.623818	21.072665	-38.840382	20.265469	0.148032	-0.17813	-0.930365	9.163444	2.799832	1.62221	-6.296082	-21.996897	4.35573	-0.535331	-0.424329	-0.501963
-2.348709	0.267696	9.631415	-0.877832	0.273786	-2.814497	0.171606	0.280483	-0.913059	1.814295	2.414565	16.568342	27.345266	-51.670803	10.524306	0.121565	-0.165103	-0.902118	9.400049	2.566988	1.625623	-7.102013	-21.770954	8.85055	-0.521703	-0.439491	-0.516584
-2.581316	0.611787	9.45785	-1.6406	0.635861	-2.530401	0.184598	0.286822	-0.888672	1.670082	0.554593	15.03509	57.457095	-61.924521	4.712499	0.147367	-0.195594	-0.900662	9.650554	2.511586	2.408567	-7.653756	-20.440836	13.125378	-0.549381	-0.42288	-0.533089
-2.342069	0.326585	9.972775	-3.50979	0.532156	-2.281359	0.1571	0.294628	-0.916126	1.886484	0.21561	14.359966	71.158805	-65.381221	1.729651	0.083297	-0.208074	-0.941329	9.94494	2.336435	2.353421	-6.853353	-18.072849	15.097987	-0.534914	-0.391944	-0.503638
-1.834781	0.611731	9.586032	-3.358196	0.255937	-2.255617	0.185369	0.25928	-0.881841	1.863385	-0.348644	13.2267	77.081039	-70.938124	-0.108848	0.096123	-0.23864	-0.939597	10.366566	1.988765	2.778989	-5.664268	-14.811029	13.580357	-0.53554	-0.440521	-0.501126
-2.581067	0.267138	9.456402	-3.02166	0.25925	-2.409873	0.171978	0.284011	-0.927135	1.990735	0.214968	13.852628	86.03299	-73.729585	-1.485822	0.082707	-0.210218	-0.912629	10.660681	1.929766	2.724337	-3.067019	-11.400576	10.009042	-0.534705	-0.375751	-0.504475
-2.003862	-0.019519	9.693743	-5.044463	-0.282371	-1.554141	0.156743	0.2738	-0.884558	2.14476	0.495586	13.006898	98.345989	-76.818437	-2.462279	0.109394	-0.237493	-0.954223	10.608673	1.757157	3.081936	-0.13239	-8.388999	6.683028	-0.507378	-0.406902	-0.518188
-2.06355	0.267247	9.58013	-3.787967	-0.025782	-1.982943	0.184584	0.304122	-0.906164	1.782659	0.382907	12.206595	107.571627	-77.258041	-1.750179	0.056084	-0.288042	-0.89271	9.897718	1.525731	2.888021	1.821731	-6.758639	6.454217	-0.563076	-0.425563	-0.486576
-2.519317	0.21062	9.684687	-3.90628	0.681173	-2.03245	0.170077	0.318267	-0.909231	2.737548	0.774488	11.151326	117.593892	-75.724183	-1.04865	0.06936	-0.226685	-0.897	10.138724	1.293876	3.131062	2.66652	-5.816549	7.333033	-0.521423	-0.424125	-0.501893
-2.401675	0.498468	9.85868	-4.05923	0.554402	-1.758055	0.172349	0.287539	-0.941211	1.912961	1.056938	10.285044	120.968134	-69.902145	1.786463	0.121334	-0.271274	-0.909442	10.191408	1.176105	2.772226	2.87157	-5.10887	9.957502	-0.563356	-0.440929	-0.501267
-1.947063	0.612296	9.697511	-2.713068	0.379784	-2.071451	0.199118	0.255377	-0.868114	-0.348419	-0.124895	6.669815	95.781879	-56.406393	9.268333	0.055493	-0.290185	-0.86401	10.24025	1.289897	2.234659	4.156428	-3.932802	12.025694	-0.548751	-0.392974	-0.48818
-2.059511	0.842628	9.809955	-4.429473	0.340691	-2.036477	0.172021	0.232113	-0.87466	-1.348462	-0.684885	8.290129	63.196962	-42.90817	30.031926	0.095231	-0.302065	-0.906883	10.073261	1.699307	2.832157	4.562403	-1.829878	9.935728	-0.521282	-0.425777	-0.470837
-2.748501	0.440552	9.681198	-2.713186	0.724439	-2.648548	0.156357	0.287572	-0.887974	-0.054463	-0.80121	6.901849	44.302332	-38.302581	48.899959	0.02902	-0.337369	-0.846098	10.179978	0.883006	2.112014	4.995916	0.90042	6.345037	-0.563076	-0.425563	-0.486576
-2.119691	0.26753	9.635869	-3.081623	0.849821	-3.013471	0.141493	0.280889	-0.859473	-1.21533	-1.247742	9.085027	32.106415	-21.97134	65.023295	0.056084	-0.288042	-0.89271	9.825361	1.580975	2.168285	6.07974	3.348324	3.670352	-0.549586	-0.457744	-0.484832
-2.116599	0.612903	9.807877	-2.459906	1.703784	-2.173335	0.19949	0.258906	-0.88219	-0.363267	-0.968133	8.593641	32.109458	-15.963789	74.887741	0.029981	-0.318833	-0.890151	10.355832	1.87014	2.179426	6.727536	5.30621	0.907953	-0.549653	-0.475589	-0.452939
-2.121877	0.209606	9.521922	-1.444863	2.010955	-1.741908	0.199476	0.276205	-0.899682	-0.49215	-1.3628	7.911216	29.804115	-16.924439	81.351243	0.055488	-0.350395	-0.874346	9.94791	1.058763	2.347982	8.020566	6.401396	-1.027417	-0.576846	-0.408749	-0.503011
-2.346358	0.095854	9.744398	-0.673014	2.342498	-0.849365	0.170091	0.300968	-0.891739	-0.966317	-1.813151	7.22149	20.181229	-17.901566	85.496269	0.029686	-0.319905	-0.875801	9.649258	1.174848	2.163253	8.880641	7.311176	-2.929741	-0.535749	-0.456714	-0.500289
-2.288363	0.613027	9.804536	0.221316	2.925332	-0.382446	0.155985	0.284043	-0.873898	-1.420557	-1.305029	7.552083	9.677684	-15.32632	88.658438	-0.009317	-0.33545	-0.873971	9.712831	1.582482	2.465619	9.52275	7.416941	-4.063366	-0.548822	-0.392148	-0.503708
-2.517173	0.325985	9.798876	0.806028	2.921097	0.229161	0.157128	0.260029	-0.881142	-1.47987	-1.023316	7.494472	4.057723	-10.137364	90.802203	-0.022143	-0.304884	-0.875702	9.416475	0.711275	2.276688	9.978045	7.463381	-5.440514	-0.54903	-0.40834	-0.502871
-2.003121	0.497696	9.752768	0.868687	2.886132	0.627095	0.225802	0.327012	-0.899967	-1.482766	-2.037455	7.26706	2.296413	-2.75015	92.477607	-0.022218	-0.320205	-0.874699	9.823566	1.406253	2.04773	9.598599	7.417892	-7.089235	-0.549519	-0.439899	-0.516724
-2.342359	0.728676	9.974465	1.57528	3.134928	0.659772	0.184212	0.300593	-0.892088	-1.783567	-2.20643	6.637837	-1.211743	5.43239	90.983642	0.003439	-0.321126	-0.8609	9.767716	1.465206	2.226597	8.826147	7.511305	-7.514739	-0.521423	-0.424125	-0.501893
-2.297561	1.013188	9.351401	1.601899	2.677227	0.376246	0.143765	0.250161	-0.891453	-1.392936	-2.714681	6.022837	-10.193458	12.831394	86.085802	-0.008947	-0.319058	-0.889324	9.998278	1.463429	1.931465	7.302678	7.52983	-9.831928	-0.520868	-0.374721	-0.519932
-2.062602	0.497255	9.637948	0.560112	2.671667	0.44049	0.156371	0.270272	-0.870482	-0.817305	-3.335441	5.977765	-20.86667	20.680306	79.371979	-0.021703	-0.333381	-0.902394	9.702907	1.115401	1.864572	6.081708	7.405336	-13.005161	-0.549168	-0.425359	-0.486506
-2.346772	0.670269	9.746811	0.313988	2.485437	0.499508	0.185741	0.262809	-0.895917	-0.744672	-2.99695	6.715573	-29.758579	30.003856	70.886064	-0.035344	-0.350921	-0.872416	9.4714	1.523709	2.161436	5.51107	7.277812	-15.661152	-0.54896	-0.409167	-0.487343
-2.531856	0.610057	9.060992	-0.269175	2.579085	0.134694	0.155971	0.301343	-0.89139	-0.678082	-2.658695	7.170184	-34.652514	40.386521	62.814867	-0.048395	-0.366316	-0.871136	8.940119	1.583001	2.151779	6.303555	7.267127	-17.314148	-0.563564	-0.457122	-0.50043
-2.291952	0.956953	9.635425	-0.822838	2.550993	-0.324188	0.184598	0.286822	-0.888672	-0.661936	-2.8834	7.906309	-36.125736	50.250172	56.282971	-0.021627	-0.318061	-0.903398	9.758527	2.102311	1.809969	6.920068	7.26966	-17.346951	-0.507862	-0.457132	-0.484621
-2.062602	0.497255	9.637948	-1.466582	2.642269	-0.50486	0.198333	0.300219	-0.892437	0.023798	-2.772222	7.694352	-36.963346	59.136516	50.358578	-0.008871	-0.303737	-0.890328	9.58559	1.755002	1.984905	7.658635	7.088777	-17.348763	-0.549235	-0.443204	-0.454613
-2.177194	0.612221	9.636204	-1.281949	2.79748	-0.564205	0.156728	0.2911	-0.90205	0.778539	-2.322695	8.050285	-38.942399	65.796061	45.212791	0.030057	-0.303512	-0.891155	9.346069	1.348021	1.739145	7.444316	6.619368	-16.398425	-0.549377	-0.441552	-0.485669
-2.631765	0.440951	9.797131	-1.649883	2.733605	-0.502848	0.143008	0.260404	-0.880793	1.07934	-2.153721	8.679507	-41.461139	71.372049	40.641627	0.042517	-0.290261	-0.863735	8.990217	2.103819	1.735756	7.171074	6.455013	-15.388205	-0.535123	-0.408136	-0.5028
-2.409511	0.554221	9.460949	-2.478483	2.482498	-0.381872	0.1571	0.294628	-0.916126	1.147139	-1.815418	9.190757	-43.16234	75.726558	36.953092	-0.008796	-0.288417	-0.891331	9.228888	1.929546	1.85923	6.807152	5.945319	-13.550895	-0.549448	-0.440725	-0.501196
-2.747594	0.728001	9.739258	-2.137017	2.721928	0.326399	0.185741	0.262809	-0.895917	1.260499	-2.153712	9.079611	-45.172896	80.132502	34.158922	0.017821	-0.270803	-0.921586	9.282266	1.98625	1.561043	6.378684	5.347731	-12.110184	-0.508421	-0.487864	-0.514002
-2.28931	0.38302	9.746718	-1.64447	2.968332	0.482325	0.18384	0.297065	-0.878012	1.206583	-1.533779	9.305483	-48.279428	83.504937	32.617638	0.043623	-0.301293	-0.92013	9.582019	1.870412	1.805678	6.133413	5.033689	-11.404917	-0.521912	-0.455683	-0.515747
-2.01104	0.668332	9.35552	-1.45772	3.148712	0.914069	0.170449	0.321796	-0.923307	1.684354	-1.702969	10.107966	-51.957836	85.815913	32.945973	0.030132	-0.288192	-0.892158	9.05404	1.930445	1.975742	6.286059	4.819796	-11.373889	-0.53589	-0.455061	-0.531345
-2.80691	0.497793	9.623473	-0.626221	3.547912	1.286176	0.184998	0.255752	-0.867765	1.919882	-1.928532	10.33917	-53.863462	86.61754	33.199057	0.056975	-0.224616	-0.925424	8.935157	1.34946	1.851255	5.736428	4.497081	-9.934026	-0.521285	-0.407106	-0.518258
-2.344255	0.268661	9.858828	-1.207511	3.667424	1.351127	0.171249	0.259655	-0.881491	2.494112	-1.816996	10.294715	-55.219976	86.960043	34.43458	0.056529	-0.256329	-0.909067	9.933085	1.752708	1.632066	6.944841	4.459152	-8.807479	-0.508283	-0.470845	-0.530367
-2.235604	0.669462	9.578479	-1.05153	3.848008	1.752292	0.16972	0.29744	-0.877663	2.272527	-1.928894	10.686261	-57.663812	86.800866	35.294277	0.043478	-0.271724	-0.907788	9.82179	1.696386	1.989059	7.58958	4.280461	-9.053447	-0.549586	-0.457744	-0.484832
-2.110742	0.212018	10.090453	-1.080869	3.937973	1.937844	0.198718	0.286448	-0.889022	2.79502	-1.704353	10.92389	-60.176961	86.058171	36.209775	0.0569	-0.239937	-0.92442	10.179593	1.522089	2.174641	7.615271	3.607272	-9.019767	-0.507586	-0.423094	-0.517351
-2.29393	0.611821	9.520271	-0.985988	4.149003	2.339679	0.170134	0.24907	-0.839264	2.49927	-1.985798	10.521131	-63.620474	84.94317	36.010929	0.06943	-0.271574	-0.908339	9.58586	1.63885	1.98441	7.918572	2.841739	-8.833848	-0.507866	-0.43846	-0.532041
-2.697886	0.381621	9.340952	-1.166471	4.451286	2.713121	0.129616	0.285135	-0.926088	2.799186	-1.985863	11.093571	-65.797941	83.639133	34.362199	0.096493	-0.222247	-0.954951	10.113164	1.869197	1.815582	8.375291	2.109244	-8.832006	-0.521561	-0.441143	-0.485528
-2.22987	0.440902	9.861779	-1.375857	4.873569	3.333934	0.199104	0.272677	-0.885606	3.365061	-1.93099	10.652591	-69.125188	81.657761	30.948498	0.122225	-0.207849	-0.942156	9.465202	1.347998	1.801252	9.475478	1.697273	-10.025887	-0.507933	-0.456305	-0.500149
-2.173481	0.095971	9.804591	-2.232079	5.11437	3.432314	0.184998	0.255752	-0.867765	3.770699	-0.804944	10.88856	-72.540401	79.871765	25.594421	0.10962	-0.191531	-0.957234	9.343328	1.57983	1.62032	10.114087	1.188718	-10.912022	-0.549657	-0.456918	-0.500359
-2.23218	0.555303	9.748555	-2.625344	5.786162	3.659035	0.184998	0.255752	-0.867765	3.598434	-1.029943	10.884744	-73.604122	78.273606	19.504257	0.083593	-0.207002	-0.955679	9.4736	1.524204	2.281249	10.198177	0.677223	-11.704448	-0.535611	-0.439695	-0.516654
-2.81124	0.324504	9.395337	-3.327367	6.369196	3.45586	0.171592	0.297782	-0.930551	4.01348	-1.030223	11.459602	-73.020611	77.517731	14.348741	0.11021	-0.189388	-0.985933	9.813392	1.52018	1.509062	10.780712	0.344106	-11.827208	-0.563285	-0.441756	-0.485739
-2.292236	-0.192119	9.573745	-4.364916	6.820777	3.86486	0.184598	0.286822	-0.888672	4.309793	-0.410747	11.919285	-67.874005	76.135459	10.732152	0.161303	-0.176983	-0.94499	9.519702	1.869806	1.624857	11.304549	0.067218	-11.491623	-0.563702	-0.474141	-0.484065
-2.63857	0.611828	9.456737	-4.598183	8.224913	4.624363	0.170863	0.273426	-0.884907	4.475236	-0.411355	11.583074	-63.587936	72.860995	8.91496	0.161159	-0.147414	-0.932648	9.290915	1.581449	1.978661	11.516456	-0.110814	-11.949941	-0.550216	-0.48765	-0.529741
-1.946032	0.72742	9.754847	-5.541388	9.358559	4.553501	0.157114	0.277329	-0.898634	4.64938	0.095392	11.700407	-61.284995	66.854314	8.610429	0.161379	-0.161662	-0.945994	9.45945	1.927769	1.564097	11.45575	-0.330205	-11.459714	-0.52212	-0.471876	-0.51491
-2.124104	0.209123	9.408216	-7.003659	10.703144	4.640897	0.197932	0.331289	-0.913345	5.102865	-0.018416	11.370146	-58.955629	58.231144	10.037128	0.161674	-0.16059	-0.960344	9.225276	1.115245	1.556234	10.74568	-0.82786	-10.904686	-0.494442	-0.488486	-0.498404
-2.521586	0.267579	9.571222	-7.85054	12.293992	4.945193	0.184212	0.300593	-0.892088	6.144764	0.148872	11.675247	-55.835409	48.664969	11.825038	0.148628	-0.115776	-0.948729	9.403175	1.696095	1.681822	9.762519	-1.42805	-9.400802	-0.508142	-0.472498	-0.499312
-2.579954	0.267379	9.513255	-9.496533	13.668433	5.033602	0.184241	0.265995	-0.857105	6.657478	0.429365	11.459806	-51.1679	39.301583	13.647051	0.187255	-0.176833	-0.945542	9.405781	1.522361	1.800894	8.499412	-2.210879	-8.07838	-0.494513	-0.48766	-0.513932
-2.464704	0.784511	9.574507	-9.307796	14.406467	5.075721	0.198333	0.300219	-0.892437	6.295054	0.485679	10.659645	-47.054013	32.452529	14.229648	0.187776	-0.1298	-0.962903	8.981123	1.753138	1.195111	7.572906	-3.298058	-6.786272	-0.535473	-0.422676	-0.533019
-2.291454	0.267654	9.632529	-9.57743	15.357463	5.12262	0.184212	0.300593	-0.892088	6.802179	1.160295	10.217978	-44.98396	27.518581	13.288202	0.187481	-0.130871	-0.948553	9.102167	1.404906	1.315642	6.611725	-4.595363	-5.890322	-0.550491	-0.521688	-0.497011
-2.746274	0.441034	9.794904	-12.298578	16.545976	4.904433	0.142236	0.287946	-0.887625	7.087611	1.779345	10.167904	-45.816386	22.673108	11.913701	0.213583	-0.10008	-0.951112	9.277709	1.578482	1.259778	5.779563	-6.0893	-3.679736	-0.508142	-0.472498	-0.499312
-2.753985	0.324462	9.39645	-17.324547	17.271498	3.918675	0.211339	0.289259	-0.850559	8.982354	7.357467	15.874035	1.255747	-1.272202	-4.656384	0.187631	-0.100231	-0.95056	9.521072	1.753901	1.68427	4.578397	-7.244932	-1.775013	-0.535886	-0.473732	-0.483924
-3.14388	0.671814	9.958634	-16.852909	20.27527	2.126095	0.183097	0.290008	-0.84986	6.891745	4.654197	12.034594	40.82429	0.128261	8.090599	0.214909	-0.125362	-1.020853	9.579528	1.521214	1.624474	3.322128	-8.102779	0.892591	-0.550145	-0.488476	-0.514213
-2.625374	0.84449	10.139939	-21.401548	24.206749	0.485696	0.210938	0.32033	-0.871466	6.953864	6.454614	9.716306	51.223386	-12.135946	14.081117	0.17465	-0.160515	-0.96062	9.51609	1.055505	1.321862	3.912858	-8.824052	2.819384	-0.522258	-0.488894	-0.498545
-2.794372	0.098356	10.247168	-23.956154	28.017251	-0.518394	0.239965	0.274739	-0.847841	7.317066	6.62367	10.573295	51.252061	-21.953201	14.815911	0.213207	-0.176683	-0.946093	9.395877	1.520136	1.261732	5.948391	-9.22131	3.486309	-0.508212	-0.471672	-0.514839
-2.730395	0.042321	10.589158	-31.773468	32.901644	-0.815189	0.197961	0.296691	-0.878361	6.998422	7.808396	11.926388	59.184852	-29.005477	20.702212	0.200382	-0.146117	-0.947825	9.399853	1.230498	1.440216	8.233897	-9.841249	5.070314	-0.507933	-0.456305	-0.500149
-2.336295	0.040583	10.255834	-30.554659	43.07869	-3.444088	0.225831	0.292413	-0.864984	5.987485	9.783042	13.265638	86.252641	-38.822568	31.601771	0.174505	-0.130946	-0.948277	9.933895	1.404252	1.630583	9.108312	-10.355915	7.820405	-0.522329	-0.488068	-0.514073
-2.727919	-0.301846	10.701417	-41.530756	48.388992	-4.6756	0.253729	0.253537	-0.816623	-1.108636	13.513782	12.723595	123.445461	-57.00451	56.146422	0.174135	-0.147339	-0.932924	9.819994	1.521663	1.868504	10.353561	-10.125692	9.648696	-0.550074	-0.489303	-0.498685
-2.622235	-0.418742	10.248336	-42.053258	58.289558	-5.37188	0.239565	0.30581	-0.868749	2.145201	10.910433	5.882708	66.420207	-60.121835	70.344739	0.188436	-0.172545	-1.002941	10.103956	2.041447	1.337069	12.414017	-9.828474	8.233822	-0.521912	-0.455683	-0.515747
-3.021328	0.328771	10.357385	-53.86142	68.805569	-8.080512	0.239923	0.326637	-0.900317	1.905801	3.535386	10.173852	29.979745	-59.468379	49.664605	0.12215	-0.223169	-0.941152	9.920885	2.737776	1.097107	14.149267	-9.000179	8.590364	-0.508142	-0.472498	-0.499312
-3.179522	0.044583	11.035075	-53.027398	81.161602	-10.764977	0.240694	0.299095	-0.893485	3.80785	-0.634482	12.64453	41.91701	-52.330934	8.433119	0.148548	-0.191306	-0.958061	10.39481	2.911418	1.226466	12.343905	-8.163814	9.907211	-0.508142	-0.472498	-0.499312
-2.954177	0.503225	10.8709	-51.595634	95.97875	-13.533861	0.253314	0.301907	-0.855022	1.516239	0.325585	10.502524	40.091899	-51.733147	-35.090515	0.148472	-0.206627	-0.957057	10.387938	3.026087	0.867519	11.870923	-6.714066	11.521976	-0.549932	-0.490955	-0.46763
-3.615329	0.107181	12.16347	-55.257483	109.814143	-15.874689	0.28077	0.345999	-0.880044	-0.459333	0.441199	9.611922	22.301183	-56.966949	-38.516867	0.135716	-0.22095	-0.970128	10.510196	2.155171	0.985825	11.804539	-6.394851	10.206375	-0.535607	-0.458366	-0.469234
-3.413875	0.630544	13.704016	-53.286521	122.859209	-11.313034	0.280427	0.307872	-0.830984	0.602053	-1.362464	10.651677	22.674656	-59.874959	-19.864737	0.135496	-0.206702	-0.956781	9.861714	2.331131	1.034369	15.402934	-6.767862	9.064209	-0.507933	-0.456305	-0.500149
-3.88475	0.812892	15.968842	-43.015257	125.166167	0.747799	0.295276	0.331853	-0.876977	1.773326	-2.321527	11.524643	41.082517	-58.537729	-5.625243	0.148032	-0.17813	-0.930365	10.632245	2.794973	1.29028	21.066814	-5.918207	11.668266	-0.508209	-0.490343	-0.467419
-4.649669	-1.489056	14.807653	-27.741259	141.595933	7.472439	0.308668	0.307123	-0.831683	3.358347	-2.212927	10.312516	64.146804	-47.348104	-11.599312	0.12178	-0.239561	-0.925799	10.634291	2.388688	1.348456	21.758971	-4.234344	11.749419	-0.493954	-0.456928	-0.484551
-3.705228	-0.679265	16.307027	-31.160335	158.983346	14.112863	0.307882	0.351964	-0.856006	2.837217	-1.254385	10.245803	48.448822	-28.543283	-9.976115	0.122	-0.25381	-0.939145	11.055553	3.144956	1.898535	22.423703	-2.246576	12.012616	-0.549519	-0.439899	-0.516724
-3.347474	-0.331728	17.054246	-23.790213	182.276146	18.916842	0.322045	0.299692	-0.80388	2.799382	0.828516	8.661649	27.354321	-10.975465	-3.467924	0.135045	-0.298624	-0.95076	10.872057	3.550657	1.59743	24.172823	0.138976	12.636779	-0.522187	-0.489721	-0.483017
-2.140434	0.87488	17.366962	-15.744458	208.536358	19.412749	0.363649	0.308811	-0.794268	1.747471	-0.18182	10.506933	22.762731	-7.521891	-1.248495	0.12178	-0.239561	-0.925799	10.999163	3.436213	2.078392	26.27923	3.233233	9.924606	-0.577335	-0.440307	-0.516865
-1.221189	1.104707	17.556303	-12.707694	235.370051	15.792716	0.377398	0.304908	-0.780541	1.73221	0.211924	9.827589	26.42997	-8.036499	0.16743	0.070165	-0.299	-0.949381	10.642575	3.087826	1.890585	30.373452	7.453032	2.584747	-0.535961	-0.454235	-0.546873
-1.119793	0.75708	16.874845	-6.681586	262.412474	8.272854	0.389619	0.33879	-0.762986	1.725519	0.54967	9.544676	19.776578	-3.995129	2.267748	0.057565	-0.222472	-0.954123	9.698046	3.206138	1.873473	35.483186	11.121852	-4.358425	-0.507933	-0.456305	-0.500149
-1.059281	0.872645	17.047	-6.31729	281.512294	0.087744	0.418231	0.341569	-0.77776	1.793402	0.211959	9.998717	16.718636	-3.917511	3.221735	0.109684	-0.296631	-0.978908	8.618668	2.507453	0.832281	36.291292	13.441496	-6.54229	-0.52212	-0.471876	-0.51491
-2.010735	0.520939	15.208438	18.592201	294.350861	-6.460799	0.416374	0.323927	-0.70738	1.622477	0.55036	10.108654	13.999973	-3.75224	5.50249	0.0698	-0.255182	-0.923692	7.793003	2.741895	0.87777	35.653127	13.887013	-5.472456	-0.535957	-0.472906	-0.499452
-5.010053	-0.643148	11.053401	24.079014	296.774459	-17.60109	0.48659	0.335825	-0.712542	1.787489	0.775074	9.772633	14.591261	-3.264006	7.018416	0.082701	-0.270427	-0.922965	7.307378	2.391305	0.088694	34.578401	13.722519	1.194814	-0.508346	-0.507362	-0.451054
-9.636553	-1.511589	8.572872	-16.158898	284.117578	-27.905029	0.50114	0.269782	-0.657	1.902166	0.380497	9.718079	12.830935	-3.28353	6.585206	0.069945	-0.284751	-0.936035	7.428306	2.566005	0.271357	33.882924	14.256038	8.530162	-0.53554	-0.440521	-0.501126
-8.673948	-2.089121	8.020858	-76.4387	265.332646	-31.319269	0.50074	0.300852	-0.677908	2.254919	0.323805	10.065123	8.24442	-2.225097	4.61902	0.121554	-0.285523	-0.922788	7.962888	2.507455	0.460734	30.731359	13.418112	8.606704	-0.577752	-0.472692	-0.515191
-2.500325	-2.325534	7.628471	-126.834824	238.002746	-13.829145	0.541215	0.316686	-0.643559	1.439117	0.437595	9.595176	5.862318	-2.644871	3.225654	0.096048	-0.25396	-0.938594	8.674248	2.564653	0.653908	27.835512	13.122903	9.535553	-0.550074	-0.489303	-0.498685
3.40535	-2.627667	5.241532	-99.321539	145.747237	18.478827	0.555736	0.285241	-0.623001	1.911621	0.493538	10.171291	4.906016	-2.707081	1.497885	0.096123	-0.23864	-0.939597	9.454373	2.217161	1.325706	26.121117	12.406559	7.222246	-0.52212	-0.471876	-0.51491
2.078673	-3.535605	7.598777	-69.672206	48.070099	57.92211	0.569113	0.277809	-0.595198	1.846156	0.831344	9.830529	3.948349	-2.804989	0.540468	0.121924	-0.26913	-0.938141	9.92019	2.5633	1.036458	23.155778	9.418008	-0.60762	-0.521908	-0.474354	-0.468326
3.412056	-1.75201	8.541517	-35.645328	-22.127223	114.953443	0.582491	0.270378	-0.567395	2.374538	-0.126913	10.23708	4.909402	-2.546307	0.358844	0.121704	-0.254882	-0.924795	9.582154	1.812336	1.805431	20.733311	6.830662	-5.62925	-0.549657	-0.456918	-0.500359
4.928887	-0.093356	7.157252	-36.145859	-62.594886	153.613108	0.596625	0.252704	-0.550253	1.857443	-0.013234	10.282934	7.201205	-2.058126	0.488855	0.121629	-0.270202	-0.923792	10.105772	2.681025	1.519509	20.721958	4.085501	-9.344556	-0.522329	-0.488068	-0.514073
7.628007	0.940574	7.668754	-43.037506	-95.639585	169.059096	0.598497	0.253047	-0.603141	1.503373	0.099742	9.879298	8.254497	-1.829136	0.337839	0.082626	-0.285748	-0.921961	10.334579	3.434237	1.22759	22.016991	3.3728	-13.929849	-0.522538	-0.504261	-0.513236
8.195998	1.985729	10.412068	-40.54214	-118.302613	162.005151	0.597354	0.27706	-0.595897	1.680797	0.155938	10.109531	9.210548	-1.882743	1.016294	0.056894	-0.300146	-0.934756	10.51848	2.854308	1.527954	26.122598	2.944472	-12.506368	-0.481023	-0.519841	-0.512188
7.852554	1.871094	10.404904	-16.021199	-124.492822	148.475416	0.584377	0.253421	-0.602792	1.392323	0.49446	10.103771	10.596407	-2.116667	1.970757	0.07024	-0.283679	-0.950385	10.155309	2.969292	1.042591	28.58584	3.426065	-13.86221	-0.521979	-0.473528	-0.483854
7.996481	1.864938	8.986917	0.856069	-134.612712	131.225563	0.600769	0.222318	-0.635121	1.792324	0.775264	9.999191	10.717606	-2.184682	3.234137	0.095972	-0.269281	-0.93759	9.514645	2.624052	1.448351	30.516057	3.363662	-16.038606	-0.536237	-0.488272	-0.514143
6.261322	1.460231	8.042174	4.17752	-146.995184	115.355303	0.584391	0.236122	-0.5853	1.101647	0.720227	9.984637	10.811693	-1.975692	4.284454	0.082261	-0.24193	-0.896272	9.745498	2.970979	1.214608	33.950068	4.100047	-15.076663	-0.564608	-0.538084	-0.496244
5.563382	1.113667	7.458833	-3.327103	-158.274876	103.51699	0.599626	0.246332	-0.627877	1.502295	0.663047	9.879773	10.070382	-1.955843	4.499853	0.070096	-0.25411	-0.938042	10.100675	2.505561	1.219233	35.783854	4.265542	-12.700453	-0.508559	-0.504883	-0.497637
5.910042	1.401349	7.63728	-19.353942	-170.813724	93.398371	0.558779	0.22697	-0.64815	2.133097	0.661766	9.779791	9.677391	-1.228797	5.092506	0.082406	-0.271499	-0.908615	9.799126	2.446677	0.854042	37.823473	5.910229	-14.274225	-0.508283	-0.470845	-0.530367
4.787016	1.694211	8.753279	-29.785513	-183.817194	88.497022	0.601913	0.198305	-0.642366	2.020492	0.605746	9.890605	8.785975	-0.930494	4.632329	0.108653	-0.270277	-0.923516	9.511593	2.042303	1.206251	38.799333	6.962587	-12.174164	-0.536516	-0.503639	-0.528834
4.846539	1.637211	8.867857	-34.88834	-197.472359	83.508328	0.603427	0.177819	-0.663686	1.273589	1.114217	9.988596	7.468637	-0.145227	3.899197	0.06906	-0.287967	-0.892986	9.80766	2.564807	1.333792	35.759338	7.268563	-10.269889	-0.50835	-0.48869	-0.498475
4.624327	1.466499	9.203798	-36.684702	-211.758716	78.499741	0.531681	0.203706	-0.654695	1.909981	0.718813	10.114841	6.728012	-0.17906	2.942587	0.094786	-0.333778	-0.890526	9.393001	1.810022	1.143154	33.388786	7.842511	-10.386286	-0.550491	-0.521688	-0.497011
4.059287	1.870693	9.592324	-40.279423	-224.611771	73.795341	0.533182	0.20052	-0.693508	1.78956	0.324477	9.828893	6.150626	0.522006	2.455841	0.108873	-0.284526	-0.936862	9.614604	1.399488	0.307129	31.369651	7.680358	-7.230446	-0.480881	-0.521493	-0.481132
3.267829	1.758562	10.08793	-43.243944	-234.12862	68.100873	0.492306	0.215757	-0.748764	1.918766	0.550153	10.511176	5.198109	0.823145	1.440738	0.121039	-0.272346	-0.895092	9.133962	1.747294	-0.11954	25.954674	7.29597	-4.458474	-0.537422	-0.567582	-0.541013
1.787956	1.991335	10.514769	-44.409087	-239.970981	61.939518	0.477057	0.222846	-0.723678	1.805167	0.381424	10.565255	4.891197	0.915648	0.763191	0.108433	-0.256029	-0.91017	9.429853	1.398163	-0.115521	23.532364	6.98163	-1.514236	-0.508768	-0.521075	-0.4968
1.165045	1.706031	10.842433	-46.441515	-242.528202	56.017698	0.462936	0.22322	-0.723329	2.083216	0.436837	10.11823	4.61588	1.040817	-0.160629	0.068984	-0.303287	-0.891982	9.021277	1.342021	0.116156	18.54359	5.364226	-3.597247	-0.509256	-0.552634	-0.510654
0.485455	2.167749	11.228973	-49.217621	-242.272516	51.339151	0.449916	0.251479	-0.7827	1.617426	0.662831	9.88219	4.615641	0.925001	-1.209934	0.056304	-0.30229	-0.906056	8.721794	1.341707	-0.128973	18.603024	6.765927	-6.018526	-0.523093	-0.553664	-0.495196
-0.476404	1.711334	11.776644	-53.083748	-241.121762	48.670983	0.380456	0.229338	-0.788198	1.561932	0.212342	9.937242	4.645787	0.721005	-2.784165	0.082626	-0.285748	-0.921961	9.188691	1.223239	-0.420199	17.834955	8.52764	-8.041188	-0.550424	-0.503843	-0.528904
-1.08587	1.314042	12.786062	-55.538552	-241.126956	48.126098	0.381928	0.260751	-0.861993	1.909311	0.437113	10.057964	4.670166	0.114741	-3.807494	0.121629	-0.270202	-0.923792	8.614361	1.518677	0.468636	20.965038	10.123591	-7.479479	-0.537351	-0.568408	-0.525485
-1.935737	1.259152	13.223943	-56.126505	-239.041044	51.135551	0.380042	0.277708	-0.826597	1.6759	1.451446	9.997342	4.572729	-0.283468	-4.058155	0.095376	-0.331634	-0.919226	8.43015	1.285048	0.044998	22.864101	11.462193	-6.117489	-0.509256	-0.552634	-0.510654
-2.681691	0.455027	13.092384	-57.165119	-232.498742	57.069747	0.339952	0.248103	-0.85753	1.671149	0.775242	9.713575	4.470731	-1.020404	-4.096393	0.121629	-0.270202	-0.923792	8.370593	1.517487	0.044886	24.365941	12.854558	-4.173628	-0.509256	-0.552634	-0.510654
-4.786536	0.172248	13.732215	-63.305582	-222.743831	62.457427	0.283827	0.270429	-0.887701	1.445723	0.775863	9.935298	5.128248	-2.759299	-4.17481	0.108427	-0.316239	-0.920505	8.017307	1.169841	0.0368	25.291996	13.604614	0.526054	-0.522813	-0.538298	-0.480506
-6.395684	0.804059	13.419426	-71.809794	-215.56661	63.579388	0.2861	0.239701	-0.919681	1.616217	0.662784	9.825551	5.043971	-4.480778	-3.667921	0.121479	-0.300843	-0.921784	8.010839	1.110281	-0.322888	27.022921	14.475827	5.619754	-0.508768	-0.521075	-0.4968
-8.903785	0.865736	13.939205	-74.569387	-212.853779	59.247461	0.299834	0.253098	-0.923446	1.853948	0.549976	10.170129	5.089697	-5.76635	-3.92729	0.0698	-0.255182	-0.923692	8.187888	1.109876	-0.319587	25.267438	14.2824	11.892863	-0.523164	-0.552838	-0.510724
-12.151989	1.273567	14.673368	-73.931491	-206.254579	47.273447	0.27045	0.277861	-0.915504	1.855719	0.888054	10.283693	7.727307	-7.264537	-4.155859	0.082771	-0.315317	-0.934303	7.765816	0.702064	-0.868183	22.74407	14.359952	18.320612	-0.536513	-0.52231	-0.481413
-16.210829	1.909814	14.938084	-68.379835	-189.783205	29.342993	0.156743	0.2738	-0.884558	1.910735	0.324499	10.114509	6.882501	-8.275839	-5.892951	0.108578	-0.285598	-0.922512	7.587397	0.818374	-0.930897	21.154667	13.768536	21.722214	-0.522746	-0.520453	-0.512398
-19.207237	2.252517	13.915128	-53.352294	-165.346379	7.127453	0.170849	0.290725	-0.902399	1.909873	0.775143	10.114888	8.038505	-9.814876	-7.448707	0.107467	-0.334775	-0.876452	7.586722	1.108754	-0.92966	20.088133	12.56055	25.766909	-0.522609	-0.503434	-0.528763
-21.543932	1.899393	11.48131	-32.299516	-142.758395	-15.230398	0.184955	0.30765	-0.92024	1.792994	1.056964	10.056068	6.350072	-11.544935	-8.762026	0.095527	-0.300993	-0.921233	7.404421	0.526916	-1.294875	17.755071	10.141405	31.136627	-0.550424	-0.503843	-0.528904
-33.991021	6.74172	13.191845	24.361774	-24.054122	-21.04055	0.129616	0.285135	-0.926088	1.791678	1.113247	9.999476	2.299084	-14.497816	-10.551812	0.095527	-0.300993	-0.921233	7.513379	0.64082	-1.771435	10.594176	7.990303	38.509969	-0.509394	-0.569653	-0.494289
-32.832594	0.96139	4.892773	-55.205604	59.222573	-68.570138	0.114724	0.313051	-0.93257	2.080583	0.549403	10.005046	-3.12782	-16.018669	-8.906615	0.082331	-0.28682	-0.907611	7.337951	-0.055687	-1.777703	1.38952	4.541525	40.516421	-0.537072	-0.553042	-0.510794
-42.413596	6.676578	9.788408	27.409948	142.27118	-97.189097	0.127701	0.33669	-0.925675	2.147149	0.267974	10.402495	-5.114121	-18.800004	-4.774131	0.083512	-0.282532	-0.96501	7.69539	0.873955	-1.46761	-4.45889	2.259508	34.372952	-0.522329	-0.488068	-0.514073
-51.330128	14.449812	-0.979552	41.290384	209.261812	-126.827364	0.143336	0.31583	-0.947344	2.167592	0.325111	11.365416	-9.499771	-23.550839	-4.269992	0.082476	-0.316389	-0.919954	7.757653	2.79206	-1.039003	-3.48554	0.418705	23.403605	-0.522746	-0.520453	-0.512398
-19.312496	-1.307328	14.239058	183.605725	162.605207	-46.776494	0.18384	0.297065	-0.878012	2.244129	-0.744613	12.158678	-23.299532	-32.072928	1.275704	0.069575	-0.301143	-0.920682	7.35518	3.899416	-0.323126	-4.049314	-4.0719	22.66287	-0.564612	-0.519413	-0.543665
-1.651446	-6.165047	9.902016	186.544582	101.453728	-3.396312	0.186098	0.283636	-0.927484	2.331569	-1.194226	13.518858	-24.197029	-48.195042	12.120483	0.056153	-0.332931	-0.904049	8.363592	5.002296	0.119627	-6.081299	-10.635753	32.636696	-0.509118	-0.535615	-0.527019
2.247227	6.727107	16.624518	40.767235	106.546899	51.319438	0.200619	0.252191	-0.906926	1.933953	0.048468	16.568768	-7.38752	-69.410213	15.036843	0.069945	-0.284751	-0.936035	10.047937	4.540829	1.825855	-22.687908	-23.163084	58.316538	-0.522609	-0.503434	-0.528763
2.494209	-0.832524	8.470709	123.900427	111.870315	57.482161	0.228874	0.234143	-0.890133	1.905728	-0.511255	20.587288	49.115267	-86.021044	9.768792	0.082996	-0.269356	-0.937314	11.344821	2.329486	1.481228	-41.693551	-37.069062	92.397076	-0.522467	-0.505087	-0.497708
-18.637757	-5.849084	13.437413	32.881335	47.928785	-58.269574	0.257487	0.236922	-0.904907	3.085106	-1.136723	16.478672	60.644039	-100.980309	-2.57861	0.057189	-0.299075	-0.949105	11.644884	3.027207	1.849139	-41.623565	-39.264277	85.862191	-0.50863	-0.504057	-0.513165
1.3014	4.201165	3.297157	35.335381	37.179969	28.714599	0.22886	0.251442	-0.907624	2.677239	-1.244099	21.6219	98.034858	-115.258622	-22.111618	0.056529	-0.256329	-0.909067	11.451484	3.430683	1.008871	-42.23256	-32.299851	71.610446	-0.522187	-0.489721	-0.483017
-4.924754	-0.924366	12.474635	18.804564	29.258557	-8.472506	0.270464	0.260561	-0.898012	3.40644	-1.978603	20.674126	118.615439	-134.148442	-30.914144	0.01693	-0.334228	-0.888872	12.147613	4.356054	0.48687	-42.407786	-22.899525	82.269773	-0.563497	-0.439277	-0.532322
-3.236808	0.721577	8.138463	30.920763	25.816102	15.449149	0.257487	0.236922	-0.904907	3.505378	-2.993479	19.826097	124.948793	-156.648659	-41.274279	0.004174	-0.348552	-0.901942	14.163526	4.585992	1.064436	-40.176024	-15.743302	74.18444	-0.54931	-0.423707	-0.517561
-2.492759	0.446176	11.050126	24.541785	18.963525	1.924286	0.228889	0.216843	-0.872641	1.794885	-3.383943	20.525812	121.771001	-181.671456	-50.957905	-0.008727	-0.333306	-0.90267	14.466114	3.250557	1.30388	-38.606233	-11.579567	56.545448	-0.563147	-0.424737	-0.502104
-2.901821	1.753587	7.751516	18.584558	15.622306	4.125849	0.286885	0.19486	-0.895358	1.356098	-4.00191	21.478492	131.488965	-207.482728	-61.101122	-0.009618	-0.396732	-0.869956	14.310494	2.5585	2.375936	-25.925937	-8.554045	31.536964	-0.535402	-0.423502	-0.517491
-2.764012	1.873454	8.948141	7.359442	10.989399	1.53747	0.272008	0.205477	-0.884349	1.079183	-5.524347	19.150153	150.76891	-231.830876	-75.105641	-0.087989	-0.384005	-0.840606	13.024149	3.551977	3.134719	-16.907545	-6.547283	9.149617	-0.56336	-0.422258	-0.548687
-2.244719	0.95474	9.12486	-0.230446	8.633128	0.232975	0.257144	0.198795	-0.855847	1.147323	-4.343377	17.057901	162.125364	-250.132203	-85.850523	-0.113871	-0.429045	-0.851393	11.895004	3.610888	2.694709	-14.511982	-6.24159	7.030506	-0.5765	-0.375537	-0.520213
-2.239892	0.438731	9.350101	-2.991642	7.564275	1.204921	0.271636	0.201949	-0.870273	3.269775	-4.234988	16.762888	206.803848	-238.012427	-72.594371	-0.089766	-0.450646	-0.764843	11.25463	3.614351	3.161859	-15.2491	-6.711987	13.820946	-0.577122	-0.442786	-0.470281
-2.190147	1.586073	9.014922	-2.932952	7.634715	0.439203	0.285342	0.249944	-0.909021	5.470191	-1.762214	14.943015	246.772288	-195.610217	-37.463361	-0.115943	-0.496758	-0.76128	11.193933	2.916832	2.978072	-16.173525	-7.119895	14.498701	-0.548822	-0.392148	-0.503708
-2.341412	0.958683	10.032283	-5.974579	7.172448	-0.69427	0.286128	0.205102	-0.884698	-6.508451	-5.521519	6.026152	265.774723	-198.155373	-33.774225	-0.143371	-0.502267	-0.68898	10.955107	2.684327	2.79296	-16.868784	-6.096543	9.942021	-0.590545	-0.39276	-0.503918
-2.584656	0.611063	9.287291	-8.8827	8.118814	-1.314548	0.327718	0.231521	-0.892577	-10.968956	-5.913393	-0.80496	115.49165	-148.835749	-1.221939	-0.169254	-0.547307	-0.699768	10.784256	2.860443	3.149842	-15.046852	-3.270189	6.406971	-0.61892	-0.423901	-0.53344
-2.232387	0.842511	9.749762	-10.256641	9.380334	-1.99546	0.258616	0.230208	-0.929643	-7.897565	-6.873628	2.825392	6.861393	-129.973375	61.678668	-0.18238	-0.578023	-0.697485	10.543074	2.220664	2.783279	-12.003277	0.048491	0.053429	-0.548755	-0.374303	-0.5356
-2.402954	0.727993	9.802792	-12.309804	9.776504	-2.535142	0.313983	0.218124	-0.888812	-5.996322	-6.19874	5.696626	-48.167442	-117.457665	100.947644	-0.222043	-0.550823	-0.655615	10.433616	3.268774	3.384597	-8.068958	3.12857	-6.576928	-0.548963	-0.390495	-0.534763
-2.578882	0.325062	9.57035	-13.840601	10.077351	-2.587183	0.271222	0.250318	-0.908672	-2.690083	-6.882285	4.180265	-71.600901	-108.511414	104.378658	-0.260525	-0.519335	-0.671145	9.657312	2.919849	2.829646	-2.119737	3.991036	-8.069521	-0.563009	-0.407718	-0.518469
-2.930244	0.381063	9.165938	-12.734106	10.104889	-1.85388	0.271979	0.240076	-0.919332	-2.094071	-6.150213	5.212483	-78.799105	-68.759662	86.760961	-0.26001	-0.532512	-0.698841	9.475862	2.919265	2.586717	0.754373	3.243543	-5.784273	-0.562801	-0.391526	-0.519306
-2.580368	0.841794	9.515668	-12.156818	9.277184	-1.807657	0.286114	0.222402	-0.90219	-1.047075	-4.856029	5.85837	-82.380023	-39.772881	55.967109	-0.260525	-0.519335	-0.671145	9.294007	3.092909	2.34453	2.821341	1.94476	-3.707364	-0.535126	-0.389465	-0.550221
-2.466931	0.784029	9.460801	-10.841266	8.601698	-1.331731	0.271264	0.19842	-0.856197	-1.488449	-4.122064	6.812188	-79.715168	-12.917983	24.912391	-0.26023	-0.518263	-0.685495	9.468139	2.452679	2.105484	5.614076	0.334229	-3.770916	-0.549239	-0.424533	-0.502034
-3.03238	0.211475	9.788372	-8.271839	7.501843	-0.866312	0.284971	0.246416	-0.894945	-2.182945	-3.444899	6.684971	-72.497279	12.938483	0.018958	-0.299083	-0.503168	-0.685671	9.879456	2.277011	1.992632	5.833323	-1.072008	-6.729473	-0.548893	-0.391322	-0.519236
-2.295577	-0.192843	9.403186	-6.130289	5.926845	0.665991	0.27085	0.24679	-0.894596	-2.304312	-2.712577	6.456612	-65.540217	38.775672	-13.621776	-0.312499	-0.474746	-0.658703	8.924483	2.625402	1.437346	4.470329	-2.372262	-11.608034	-0.549027	-0.427012	-0.45545
-2.580119	0.497145	9.514221	-5.058416	5.245685	1.5412	0.283856	0.235831	-0.852717	-3.75331	-1.977917	6.030528	-61.471278	62.049122	-16.346427	-0.285296	-0.515198	-0.727993	9.868472	2.739394	1.455448	-1.627404	-4.274224	-13.165989	-0.576775	-0.409575	-0.487483
-2.63754	0.726953	9.514072	-4.507991	5.032794	1.566823	0.31284	0.242138	-0.881568	-3.470534	-1.865985	5.810109	-64.054714	80.57747	-9.782944	-0.285291	-0.454988	-0.717657	9.216378	2.101054	1.200996	-4.983618	-4.946954	-11.378151	-0.605013	-0.423697	-0.53337
-2.814622	0.381222	9.225019	-3.741127	5.003207	1.778808	0.271607	0.236547	-0.905256	-3.708803	-1.471525	5.465768	-71.154693	94.380003	2.803126	-0.232941	-0.422975	-0.735117	9.631037	2.855839	1.391634	-7.224003	-3.981256	-10.885684	-0.56308	-0.406892	-0.533996
-2.634199	0.727676	9.684632	-4.513231	4.672363	0.824955	0.284599	0.242887	-0.880869	-3.304552	-2.148245	5.473661	-79.375766	105.302183	17.733804	-0.21886	-0.433933	-0.791788	9.295202	2.105369	2.28042	-7.532537	-2.08469	-8.051485	-0.535331	-0.424329	-0.501963
-2.351433	0.956512	9.520605	-4.666485	4.76558	0.673572	0.256758	0.212566	-0.859263	-2.37964	-1.642806	5.719989	-85.693528	115.209868	32.070598	-0.244956	-0.404514	-0.778894	9.052264	2.220578	1.917072	-6.563152	-1.079146	-1.427902	-0.521356	-0.40628	-0.533786
-2.694753	0.669553	9.512718	-3.962756	3.98981	1.609638	0.299477	0.23227	-0.891879	-1.563623	-1.869257	6.189841	-92.78991	124.418698	43.902928	-0.231986	-0.464649	-0.789505	9.298618	1.58318	2.398009	-6.167812	-0.380869	2.173764	-0.535544	-0.42185	-0.548547
-3.204102	0.154158	9.78479	-3.314706	3.729581	3.136918	0.328118	0.20045	-0.871669	-1.041368	-2.151737	6.370403	-98.338539	133.517131	52.097581	-0.231095	-0.401223	-0.822219	9.651635	2.046978	2.40659	-3.843439	-0.053721	3.875347	-0.535056	-0.390291	-0.534693
-2.743016	0.556641	9.965946	-3.652748	3.605429	3.105206	0.298734	0.225213	-0.863727	-0.684989	-2.208288	6.887365	-102.676909	142.656281	56.316465	-0.179857	-0.418387	-0.793619	9.593699	1.582504	2.403511	0.110896	-0.147372	5.420237	-0.550149	-0.469805	-0.561634
-2.412934	0.66838	9.290873	-4.508818	3.814456	3.295071	0.299834	0.253098	-0.923446	0.374719	-1.871296	8.042202	-106.177909	151.706281	56.958697	-0.179116	-0.385602	-0.824326	9.538409	1.874008	2.643275	3.525718	-0.617244	4.707137	-0.563214	-0.442582	-0.470211
-2.809303	0.727077	9.510732	-5.823786	4.363206	3.154438	0.285728	0.236173	-0.905605	1.24841	-2.154186	8.513215	-106.752265	159.942437	56.485249	-0.191576	-0.398854	-0.851746	10.124439	1.755517	2.414157	9.719327	0.219914	2.785755	-0.549448	-0.440725	-0.501196
-2.401675	0.498468	9.85868	-4.805965	5.789214	2.500001	0.298705	0.259812	-0.89871	0.340877	-2.264601	9.116814	-105.604159	167.52737	55.82172	-0.139227	-0.366841	-0.869206	9.54142	1.526047	2.761605	12.500596	1.177311	-3.066389	-0.548822	-0.392148	-0.503708
-2.806537	-0.01918	9.621301	-6.890438	5.15443	3.415706	0.25673	0.247165	-0.894247	0.28027	-1.306922	9.059771	-105.650721	173.704929	57.239769	-0.099633	-0.349152	-0.899736	9.707484	1.988025	2.227722	13.852986	2.056442	-10.71578	-0.563218	-0.423911	-0.517632
-2.807899	0.325228	9.565896	-6.267241	5.033809	6.171986	0.29912	0.211442	-0.860311	0.634232	-1.363567	9.463455	-111.016026	179.715379	59.823489	-0.112459	-0.318586	-0.901468	9.708855	1.87212	2.287134	15.408821	2.093936	-13.80814	-0.577126	-0.424115	-0.517702
-2.863957	0.210627	9.621153	-5.069008	5.782153	5.720697	0.298734	0.225213	-0.863727	1.177468	-1.870563	10.6067	-118.787376	185.949567	60.958417	-0.087393	-0.321652	-0.85897	9.711461	1.698386	2.406207	16.679084	1.897376	-18.028942	-0.56308	-0.406892	-0.533996
-2.811074	0.094738	9.394371	-6.111	5.808367	5.693455	0.312469	0.23861	-0.867492	2.170155	-1.646505	11.307116	-130.143442	192.086497	60.60957	-0.059444	-0.269109	-0.948631	9.346069	1.348021	1.739145	19.421328	1.721586	-23.752335	-0.535402	-0.423502	-0.517491
-2.807775	0.152903	9.565172	-4.485399	6.156774	5.449103	0.326175	0.286605	-0.90624	4.36965	-1.366089	14.63718	-137.3547	198.549708	60.513962	-0.059739	-0.270181	-0.934281	9.180315	1.699602	2.396303	22.079909	1.062976	-27.181163	-0.562592	-0.375333	-0.520143
-2.638529	0.554387	9.456495	-6.660297	5.89277	6.15641	0.31284	0.242138	-0.881568	4.383856	-0.576845	15.374159	-130.099692	198.166	63.01336	-0.007094	-0.237096	-0.966091	8.808321	1.347753	1.369799	24.13298	0.411935	-28.591068	-0.521356	-0.40628	-0.533786
-2.807651	-0.019422	9.564448	-3.716575	5.745897	6.758885	0.285728	0.236173	-0.905605	5.157161	-0.351929	16.579496	-122.402849	193.482744	63.497065	-0.019995	-0.221851	-0.966819	8.872435	1.523082	1.671176	24.448736	-0.377226	-26.113395	-0.550074	-0.489303	-0.498685
-3.098708	0.439353	9.333399	-0.868768	5.234341	6.957042	0.31244	0.273208	-0.902475	7.179981	-0.130047	17.018475	-111.912321	184.515589	59.377249	0.019529	-0.159272	-0.98601	8.917955	1.171277	0.892003	23.702487	-1.265172	-20.361703	-0.536028	-0.47208	-0.51498
-2.762603	-0.079558	8.939936	-2.131689	3.587893	7.976582	0.301006	0.194485	-0.895707	8.522835	1.389252	18.067073	-103.937006	174.427532	53.086089	0.006993	-0.187844	-1.012427	8.687528	1.114977	1.186889	22.639865	-1.890595	-16.443399	-0.578102	-0.487232	-0.545409
-3.036834	0.21051	9.560959	0.315172	2.111364	9.080199	0.312469	0.23861	-0.867492	10.314747	1.949548	18.5015	-95.00637	163.880149	43.831446	0.045626	-0.188691	-0.998904	9.09761	0.997138	1.014377	22.868192	-2.441355	-13.385675	-0.549936	-0.472284	-0.51505
-2.577892	0.497628	9.627927	-0.603456	1.603892	10.086579	0.313969	0.235424	-0.906304	11.982096	3.016702	18.53746	-80.024765	155.569374	36.793061	0.071803	-0.14258	-1.002467	8.624785	0.823743	0.944925	23.086504	-4.090789	-10.567079	-0.53589	-0.455061	-0.531345
-2.584946	1.013154	9.28898	-2.279996	2.69645	10.630483	0.285757	0.201574	-0.870622	22.557682	15.136589	51.436638	20.84399	150.446009	-47.953094	0.084409	-0.158897	-0.987389	8.745308	1.172671	1.12833	22.030055	-5.880042	-9.454539	-0.564191	-0.505699	-0.497918
-3.313458	0.729863	10.069241	-4.085284	4.682631	8.214661	0.285714	0.253472	-0.923097	16.451721	8.413262	15.465699	93.10066	115.320313	24.600594	0.111101	-0.125962	-1.018647	8.859229	1.520115	0.952293	19.906835	-8.848954	-9.982771	-0.54959	-0.439073	-0.532252
-2.802539	0.613641	9.851368	-8.205841	8.995904	5.628621	0.299105	0.228742	-0.877803	16.860699	6.433929	7.489944	104.640862	88.640922	31.311955	0.124147	-0.170777	-1.030262	9.749548	1.228699	1.207191	18.732076	-10.434173	-13.852068	-0.563982	-0.489507	-0.498755
-2.910118	0.270523	10.188812	-13.669984	12.787136	5.153959	0.34071	0.237861	-0.86819	18.869369	4.962847	4.417054	23.271529	54.819293	30.509201	0.136608	-0.157525	-1.002842	9.687906	0.937712	1.025134	18.975045	-11.54389	-12.930864	-0.536375	-0.505291	-0.497778
-2.502532	0.099355	10.537001	-18.235296	18.431109	4.277482	0.326203	0.252006	-0.871257	18.424266	5.361024	7.861521	-41.763846	32.020348	29.705988	0.136532	-0.172845	-1.001838	9.274523	1.054809	1.017925	20.52583	-11.745109	-16.602631	-0.563911	-0.490333	-0.483228
-2.515894	0.09646	9.854763	-23.895079	26.453301	1.909434	0.298362	0.221685	-0.849651	18.394387	7.561639	12.052284	-55.354148	10.477685	29.943252	0.123406	-0.203561	-0.999555	9.147437	1.634109	0.598849	20.461523	-11.460904	-17.489957	-0.563494	-0.457948	-0.484902
-2.793424	0.328364	10.304986	-32.136124	34.074186	-1.377781	0.312097	0.235081	-0.853416	16.681795	7.394066	9.978057	-38.799064	-1.863975	31.683639	0.109915	-0.19046	-0.971583	8.617278	2.158503	0.710983	20.231571	-11.090002	-14.985064	-0.536725	-0.519831	-0.527996
-3.199275	-0.361851	10.01003	-39.544262	42.99687	-5.321008	0.297577	0.266526	-0.873974	16.281563	9.760986	10.311424	-21.755347	-14.997708	28.730397	0.149288	-0.158522	-0.988768	8.742723	1.81126	1.071142	17.146412	-10.256401	-10.882869	-0.535957	-0.472906	-0.499452
-3.077303	0.099287	10.412159	-43.539108	52.623725	-7.667887	0.34071	0.237861	-0.86819	14.467105	11.117553	11.689867	4.265756	-28.938297	25.745556	0.110355	-0.218957	-0.998276	8.745909	2.334933	1.312995	13.856236	-9.84769	-4.2106	-0.577681	-0.473518	-0.499663
-3.13868	-0.361168	10.181703	-45.784401	61.34442	-8.010367	0.342582	0.238203	-0.921078	11.859058	12.983126	13.674848	43.297511	-41.437139	29.074808	0.110876	-0.171923	-1.015636	9.231899	1.581584	1.97756	11.396978	-9.091323	1.662709	-0.563777	-0.454643	-0.547013
-3.01922	-1.049585	10.408447	-45.579089	68.767453	-6.755517	0.340681	0.272459	-0.903174	7.949661	12.877983	13.819106	97.623687	-52.412475	35.391249	0.0979	-0.171999	-1.01536	8.52355	1.176425	1.902718	12.548069	-7.830365	7.306857	-0.550003	-0.490129	-0.483157
-3.766459	-0.073022	10.284367	-37.875458	73.382143	-4.095806	0.353287	0.29257	-0.882203	4.654344	9.895466	10.123959	135.681474	-59.573686	45.925593	0.11021	-0.189388	-0.985933	9.105583	0.882717	1.433231	16.587887	-6.260985	10.738589	-0.549724	-0.474763	-0.468467
-3.650671	-0.30263	10.342482	-29.571823	75.001109	0.138841	0.383071	0.236737	-0.869238	0.871937	7.140474	7.890751	105.585095	-74.973646	58.080798	0.058897	-0.187544	-1.01353	8.980522	0.590876	1.010445	23.813821	-4.360945	9.90865	-0.5363	-0.524789	-0.43483
-3.791712	0.336106	11.933683	-16.792487	76.01225	5.607965	0.36705	0.271368	-0.850984	-8.616403	5.358303	10.690453	87.765019	-80.110216	58.385375	0.097744	-0.262849	-1.023688	9.394776	1.519889	1.201825	29.890766	-3.380762	8.903878	-0.550216	-0.48765	-0.529741
-3.616526	0.221823	12.1071	-0.804339	77.250198	8.648735	0.368965	0.219812	-0.851397	-14.542434	-0.486918	12.882018	105.121211	-62.46356	62.675396	0.097448	-0.263921	-1.009339	10.858386	2.327352	0.693635	30.704877	-2.004213	9.169446	-0.508071	-0.473324	-0.483784
-4.221248	-0.576596	13.342241	-6.024185	85.461836	8.551921	0.367422	0.274896	-0.86506	3.479554	1.561524	10.941147	70.295846	-71.06532	43.847211	0.084253	-0.249748	-0.995717	11.249665	3.193098	-0.373278	26.698213	0.278308	11.862821	-0.549932	-0.490955	-0.46763
-3.559365	-0.282847	15.004436	0.268005	100.498431	10.066245	0.394563	0.246263	-0.806039	3.011304	4.094781	8.102839	70.191976	-79.365936	-10.063046	0.04606	-0.277398	-1.035932	11.139431	2.207311	-0.080147	21.009819	1.189363	13.499071	-0.563419	-0.477446	-0.421953
-4.026308	-0.284446	14.540703	3.893216	119.438772	12.939674	0.450273	0.272307	-0.814267	1.595236	0.8873	8.862867	38.070303	-68.680169	-22.529317	0.006096	-0.31148	-0.990048	11.559146	2.207849	0.286998	18.146526	0.111666	10.244047	-0.564261	-0.504873	-0.513446
-3.2526	0.640594	16.094073	3.838621	139.524066	13.450396	0.409441	0.235646	-0.817048	2.639356	-1.759696	11.71317	27.099284	-40.210442	2.221858	0.006096	-0.31148	-0.990048	11.263276	3.021836	0.344863	18.833581	-0.492311	12.689695	-0.550417	-0.541185	-0.434063
-3.118255	0.932061	17.120862	7.48932	165.300565	11.86577	0.452945	0.210508	-0.82534	1.848897	0.662448	9.943666	42.18582	-28.371922	12.710088	-0.006805	-0.296234	-0.990776	11.680406	3.660963	0.654821	20.619276	0.640473	16.162391	-0.550354	-0.504669	-0.513376
-2.412355	1.050548	18.101209	8.186407	195.790488	7.5757	0.409441	0.235646	-0.817048	1.666853	0.4934	9.48678	49.586317	-29.919608	5.795035	0.031677	-0.327722	-0.975246	11.574013	2.443615	1.126683	21.032936	2.946236	15.171753	-0.563352	-0.459601	-0.453846
-2.0058	0.764257	18.392062	11.407364	227.664185	3.822168	0.450302	0.237708	-0.779284	2.990103	0.885235	9.514917	34.683118	-21.409614	7.347418	-0.019856	-0.31163	-0.989496	11.820947	2.503623	1.730401	23.65898	4.6505	8.032297	-0.577957	-0.507556	-0.466933
-1.947799	-0.269732	18.388832	21.356275	256.947416	0.743133	0.477428	0.226374	-0.737754	2.305362	0.886765	9.783608	18.802421	-9.912322	4.951848	-0.021407	-0.332309	-0.916744	11.239994	2.332723	2.19791	27.981661	6.949669	0.150754	-0.549936	-0.472284	-0.51505
-2.008146	-0.615064	18.215712	24.504284	284.531394	0.93751	0.533896	0.242175	-0.756643	1.670372	0.549873	9.656746	19.452161	-9.841549	4.768104	0.005355	-0.344264	-0.959341	9.5837	2.568066	1.988366	31.306491	10.760274	-6.328078	-0.57789	-0.489711	-0.498826
-1.911571	-1.997845	17.245645	52.127282	307.181892	7.359961	0.547645	0.238272	-0.742916	1.790446	0.493516	9.885675	20.184511	-10.709805	2.972017	0.006391	-0.310408	-1.004398	9.399219	2.450589	1.565222	30.880636	15.063632	-11.450708	-0.550145	-0.488476	-0.514213
-2.158021	-1.899002	13.43363	79.499659	319.063402	7.597142	0.546945	0.179317	-0.662289	1.613153	1.000672	9.712556	15.003468	-10.09978	2.788944	0.031747	-0.372611	-0.986585	8.030552	2.102519	0.879452	27.335966	18.622214	-10.690849	-0.577539	-0.475171	-0.468607
-7.112122	-1.052674	8.908062	76.029943	318.721866	-1.598637	0.589307	0.178194	-0.663337	1.905684	0.43697	9.888045	12.555865	-10.797769	1.608562	-0.020446	-0.313773	-0.960797	7.605064	2.216896	0.213268	23.373798	20.134005	-4.418704	-0.577606	-0.493016	-0.436714
-8.703111	-0.257023	6.607252	12.278418	284.996986	-7.208209	0.601913	0.198305	-0.642366	1.570309	0.888688	10.390928	8.821064	-10.685223	0.589346	0.018256	-0.35951	-0.958613	7.648695	2.678155	-0.562443	20.061842	21.146348	3.04576	-0.549586	-0.457744	-0.484832
-11.885288	-0.294491	10.693818	-27.268382	244.515539	-22.168231	0.671072	0.13042	-0.535332	1.501625	0.381347	9.822896	4.08714	-9.076099	-1.463944	-0.007916	-0.345411	-0.944716	8.000726	2.618775	-0.675902	15.403769	20.205098	9.638473	-0.549932	-0.490955	-0.46763
-2.544425	-2.03539	8.310802	16.616846	204.141071	-4.947834	0.641316	0.151655	-0.513314	1.906354	0.71867	9.944922	4.330122	-9.32373	-0.633854	-0.033793	-0.330241	-0.945168	8.533917	2.211275	-0.607821	12.040314	18.648456	17.024523	-0.578236	-0.522922	-0.481624
3.016859	-2.682165	5.85888	19.772092	142.796291	7.7232	0.669572	0.133607	-0.49652	1.687165	-0.012816	10.392587	4.290318	-7.63504	-1.048688	0.005801	-0.312551	-0.975698	9.317518	2.736159	0.36722	8.892597	15.661162	20.840552	-0.522046	-0.491373	-0.451961
3.847031	-4.022801	1.436605	48.618328	83.43096	28.416222	0.655451	0.133981	-0.496171	2.082223	0.324128	10.061496	5.84922	-6.539103	-1.498956	0.00565	-0.343192	-0.973691	9.723313	2.0944	-0.107052	5.740454	12.337498	18.728093	-0.56412	-0.506526	-0.48239
2.625576	-2.864615	3.406792	7.883783	8.351436	52.70021	0.711576	0.111655	-0.466	1.91052	0.43716	10.114604	6.300397	-5.119155	-2.070206	-0.008507	-0.347555	-0.916016	10.554346	1.91927	0.14724	4.26254	9.495878	11.991782	-0.564261	-0.504873	-0.513446
1.920525	-1.70656	5.443854	-3.429641	-25.890728	75.16862	0.682592	0.105348	-0.43715	1.856473	0.49374	10.283361	6.496513	-4.316272	-2.555312	-0.034088	-0.331313	-0.930818	11.033213	1.861597	0.515238	3.943257	6.838584	2.622269	-0.550421	-0.522514	-0.481483
4.467143	-1.127937	6.916588	-18.61184	-69.018802	79.477735	0.697841	0.098259	-0.462235	1.619952	0.606596	9.995422	6.659908	-3.580551	-2.208758	-0.020672	-0.359735	-0.957786	10.564655	1.747267	0.68566	5.041274	5.461443	-8.774808	-0.536654	-0.520657	-0.512469
3.924699	0.372712	8.503614	-3.669085	-89.811508	78.177484	0.713848	0.080927	-0.497981	1.670372	0.549873	9.656746	7.249264	-3.274298	-1.002947	-0.021552	-0.30274	-0.904402	10.154324	2.446114	0.920552	3.370014	4.594597	-14.26543	-0.550074	-0.489303	-0.498685
5.065375	0.313477	8.29823	20.332221	-97.682601	68.998868	0.699742	0.064002	-0.48014	1.848465	0.88777	9.943855	7.102404	-2.577996	0.082841	-0.007696	-0.35966	-0.958062	9.861734	2.795987	1.096254	4.668444	4.499603	-13.505692	-0.536513	-0.52231	-0.481413
4.975705	0.478847	6.649101	31.190112	-106.57449	54.966468	0.672601	0.092636	-0.539161	2.135946	0.436539	9.892881	6.583187	-2.009465	1.228717	-0.034314	-0.377274	-0.927807	10.264653	2.444113	0.503404	5.925771	4.365298	-8.956145	-0.550003	-0.490129	-0.483157
4.797468	0.190316	6.303435	27.722838	-117.181669	39.873148	0.657752	0.068654	-0.493168	2.317774	0.718248	10.349862	5.634731	-1.286255	1.32763	-0.046474	-0.329244	-0.959242	9.738875	2.50464	0.793282	7.512825	3.908645	-5.659115	-0.563702	-0.474141	-0.484065
4.111611	0.076171	6.346444	17.033185	-128.039223	27.585535	0.67413	0.054851	-0.542989	1.901758	1.225503	9.77543	5.270401	-0.799511	1.208864	-0.008142	-0.391372	-0.941705	10.206737	2.444495	0.562211	11.250945	4.405201	-5.06379	-0.535611	-0.439695	-0.516654
3.87843	-0.326719	6.112888	5.408491	-138.759284	19.012385	0.644746	0.079614	-0.535047	1.902297	0.94385	9.775193	3.791091	-0.627895	0.22288	-0.007621	-0.344339	-0.959065	10.3945	2.097859	1.103191	14.107944	4.839353	-7.612798	-0.550283	-0.505495	-0.497848
2.867934	-0.379072	7.11596	-6.312723	-148.52476	15.66772	0.673759	0.051323	-0.528913	1.735968	0.775419	10.054622	1.448651	-0.342782	-1.040121	-0.021112	-0.331238	-0.931094	10.153898	2.155486	0.859409	16.210404	5.391617	-12.97111	-0.522534	-0.522932	-0.465815
2.329385	-0.55609	5.9113	-15.301554	-160.266353	16.790829	0.674502	0.058379	-0.557065	1.504174	0.944794	9.993289	-0.061343	-0.17035	-2.211085	0.004915	-0.315767	-0.932649	9.796635	2.097479	0.672838	17.44838	6.098144	-18.754615	-0.563982	-0.489507	-0.498755
1.485086	-0.609773	6.633446	-26.914891	-176.258217	19.99898	0.633269	0.052788	-0.580754	1.79783	1.057153	10.282626	-1.265913	-0.298635	-3.693069	-0.007771	-0.37498	-0.957058	9.320374	1.981418	0.423913	17.598101	7.069706	-20.95997	-0.536725	-0.519831	-0.527996
1.277224	-0.605024	7.709201	-31.04381	-192.420178	24.899943	0.618748	0.084233	-0.601312	2.317235	0.9999	10.350099	-2.533328	-0.461791	-4.651374	-0.020522	-0.329094	-0.959793	9.26549	2.098694	0.662934	15.777819	7.127182	-21.228673	-0.549932	-0.490955	-0.46763
0.600151	-0.544914	8.207758	-28.143588	-206.948915	29.623095	0.54816	0.068807	-0.582074	1.333549	0.494521	10.045922	-3.929353	-0.967655	-5.027461	-0.020892	-0.345486	-0.94444	9.269061	1.983284	0.84216	12.925476	7.243028	-18.621467	-0.550212	-0.506321	-0.48232
-0.020657	-0.657411	8.649852	-24.211141	-217.273171	32.878327	0.605756	0.077894	-0.625699	1.849328	0.437125	9.943476	-3.073114	-1.632521	-4.848417	-0.007175	-0.312626	-0.975422	8.793496	2.041698	0.653883	10.248555	7.03628	-17.296773	-0.5507	-0.53788	-0.496174
-0.137227	-0.887576	8.532954	-26.660916	-222.309315	33.784794	0.593136	0.075082	-0.664162	1.561393	0.493995	9.937479	-3.110243	-2.066253	-4.236203	-0.020452	-0.373983	-0.971132	8.492082	1.924738	0.288445	8.403267	7.548409	-17.1703	-0.578866	-0.552828	-0.526533
-0.937758	-0.771872	8.5747	-34.606618	-222.735143	32.819565	0.566038	0.051817	-0.670708	2.427638	0.943165	10.125911	-2.956707	-2.155081	-4.42193	0.00528	-0.359585	-0.958338	8.898998	1.748081	-0.064035	6.741139	7.50584	-16.583462	-0.523026	-0.535819	-0.527089
-1.105275	-0.483575	8.799979	-44.449181	-221.270925	29.897426	0.552232	0.124918	-0.754402	2.200872	0.380385	10.23388	-1.939019	-2.208911	-3.589294	-0.007621	-0.344339	-0.959065	8.959384	1.632041	-0.003522	5.599003	6.976335	-16.057299	-0.56412	-0.506526	-0.48239
-1.71631	-0.249252	9.755198	-51.598102	-219.219574	25.137228	0.508785	0.080858	-0.676143	1.676739	0.381118	9.939802	-1.018856	-2.747317	-3.871358	-0.021187	-0.346558	-0.93009	8.968458	1.517867	0.475239	5.036516	6.367569	-16.541299	-0.578449	-0.520443	-0.528207
-1.756655	-0.532799	10.605675	-52.947843	-215.526771	19.068294	0.524406	0.077297	-0.715304	2.256474	0.774544	10.178781	-0.806064	-2.991709	-3.596166	-0.020522	-0.329094	-0.959793	8.727877	2.04035	0.293342	5.101526	5.895692	-15.255806	-0.536304	-0.506117	-0.48225
-2.102201	-0.82024	10.484081	-53.495995	-210.84083	12.552975	0.525506	0.105181	-0.775024	1.742874	0.325012	10.337441	1.323331	-3.119802	-3.318276	0.004985	-0.360656	-0.943988	8.731718	1.808787	0.472073	5.883234	5.505214	-12.720338	-0.550354	-0.504669	-0.513376
-2.382865	-0.876269	10.762538	-58.760696	-205.533218	6.24507	0.483501	0.127133	-0.805544	2.025651	0.436944	10.117022	1.722807	-3.326346	-3.782426	-0.033278	-0.343417	-0.972864	8.668165	1.86601	0.231593	6.893975	6.084005	-9.181777	-0.522746	-0.520453	-0.512398
-2.998514	-1.964307	11.427941	-63.934755	-200.848421	0.631915	0.415528	0.119105	-0.867346	1.849436	0.380795	9.943429	2.307803	-3.472427	-3.75258	-0.007771	-0.37498	-0.957058	8.374725	1.634628	0.285008	7.198566	6.468193	-4.814467	-0.523164	-0.552838	-0.510724
-2.985608	-1.329555	12.112833	-67.186429	-197.726033	-4.766982	0.45789	0.117981	-0.868393	1.854055	0.493646	10.170082	1.661832	-3.380208	-5.046951	-0.020151	-0.312701	-0.975147	8.487795	1.400818	-0.013314	7.995356	6.794235	-0.57076	-0.536721	-0.538502	-0.480576
-2.745699	-2.533822	12.623897	-69.627633	-197.9955	-9.119361	0.443397	0.114828	-0.853968	2.140589	1.169073	10.176695	1.506113	-3.50322	-5.294922	-0.020452	-0.373983	-0.971132	9.076991	1.341144	-0.062464	8.663236	7.223585	2.511647	-0.549936	-0.472284	-0.51505
-3.599321	-2.01502	12.893632	-75.489173	-201.051374	-13.292572	0.401007	0.15055	-0.887904	1.90955	0.944135	10.11503	1.382652	-3.532837	-5.696077	-0.007696	-0.35966	-0.958062	9.67063	2.21217	0.251783	9.14444	7.717552	5.197163	-0.5507	-0.53788	-0.496174
-4.268351	-2.29787	13.788713	-83.573282	-206.612748	-17.162801	0.416214	0.195359	-0.965465	1.847472	0.775061	9.887121	1.595674	-3.804675	-5.914402	-0.020967	-0.360807	-0.943436	9.49132	0.817515	-0.056986	9.547216	7.96372	5.194529	-0.508768	-0.521075	-0.4968
-5.509179	-3.614254	14.668316	-91.816301	-213.350377	-20.469	0.374281	0.130814	-0.908526	1.447363	0.550588	9.991748	1.689485	-3.740356	-6.191137	0.031012	-0.345186	-0.945543	8.965542	0.878042	0.232892	9.55263	8.543373	5.344564	-0.564537	-0.53891	-0.480716
-7.328829	-2.40376	15.319989	-94.168168	-216.025049	-21.579184	0.374624	0.168941	-0.957585	1.905469	0.549631	9.88814	1.440616	-3.924265	-6.686409	0.018846	-0.357366	-0.987313	8.915464	0.822079	0.710799	11.309758	9.268019	9.827758	-0.510024	-0.599559	-0.539198
-9.117493	-1.830955	14.605646	-93.219212	-210.779005	-22.63158	0.332248	0.187364	-0.97403	1.902297	0.94385	9.775193	1.380273	-3.745685	-5.975645	-0.00703	-0.342195	-0.987765	9.261608	1.400546	0.360433	9.654202	10.08232	10.380044	-0.509323	-0.570479	-0.478761
-10.771854	-0.909241	14.918335	-92.836621	-197.182456	-25.172365	0.27418	0.295844	-1.038771	1.900872	1.056464	9.718648	0.448464	-4.127042	-5.733564	-0.034534	-0.363025	-0.914461	9.031721	1.111942	0.654329	9.211551	9.825536	14.35644	-0.523235	-0.552012	-0.526252
-12.888745	0.069281	14.994944	-90.34372	-174.68605	-27.850745	0.274965	0.251003	-1.014448	1.899424	0.549394	9.604942	0.068849	-4.779349	-5.185456	-0.034163	-0.346633	-0.929814	8.735519	0.647514	0.527036	6.537366	9.427356	16.446557	-0.550074	-0.489303	-0.498685
-14.978695	1.385897	13.539081	-81.690712	-147.857641	-30.50716	0.260416	0.317047	-1.06999	1.844169	0.605927	9.71706	-0.528159	-5.583506	-5.286416	-0.033943	-0.360882	-0.943161	8.548452	1.168626	0.046704	1.716754	8.219212	16.255816	-0.522746	-0.520453	-0.512398
-18.088168	1.269392	12.568821	-65.12667	-118.644383	-28.975975	0.203577	0.297717	-1.037025	1.800009	0.550226	10.338839	-1.399904	-6.144859	-5.539321	-0.034238	-0.361953	-0.928811	8.902684	1.109739	0.05306	-1.951058	7.920695	11.318794	-0.536375	-0.505291	-0.497778
-21.415387	-12.098347	29.155899	-59.770792	-75.204018	-23.439259	0.204291	0.339372	-1.100161	1.450127	1.001375	10.162046	-1.446039	-7.31278	-5.211865	-0.007916	-0.345411	-0.944716	8.716427	1.282395	-0.428755	-4.855666	6.73908	6.261159	-0.56447	-0.521066	-0.512609
-23.175535	0.330773	7.01019	11.643271	0.621971	-6.709152	0.202419	0.33903	-1.047273	2.137609	0.830948	10.006492	-1.651247	-8.878917	-5.25843	-0.007551	-0.389229	-0.970404	8.421366	1.747925	-0.372373	-6.686046	5.042893	1.049479	-0.564679	-0.537258	-0.511772
-24.355677	4.427886	11.209955	-6.970284	32.708322	-14.261543	0.203162	0.346087	-1.075425	2.429817	0.436237	10.182123	-2.448439	-10.850785	-5.371161	-0.008061	-0.315842	-0.932373	8.365631	1.283947	-0.255637	-9.262132	3.793043	-0.249435	-0.536934	-0.536023	-0.527159
-23.405865	6.145603	10.099061	15.659174	76.292695	-11.25653	0.202791	0.342559	-1.061349	2.239119	0.999202	9.386017	-5.347213	-12.910464	-5.517283	-0.020377	-0.358663	-0.972136	8.481868	1.108954	-0.373992	-12.084388	3.010536	3.462677	-0.578587	-0.537462	-0.511842
-20.304364	9.592511	10.799052	31.176668	121.828748	-26.785958	0.217297	0.328413	-1.058282	1.808255	0.663219	10.735411	-8.724962	-16.173703	-5.429135	-0.033723	-0.37513	-0.956507	8.41901	1.340651	-0.553824	-13.346994	1.978554	5.21432	-0.536725	-0.519831	-0.527996
-14.008937	18.677025	14.08547	55.955393	169.139347	-65.721713	0.273765	0.344214	-1.077171	1.807262	0.550511	10.678677	-13.621643	-22.019646	-2.562552	0.004689	-0.361728	-0.929638	8.772702	1.514069	-0.54648	-13.98283	0.463789	9.502907	-0.508768	-0.521075	-0.4968
0.469254	11.089181	2.002904	175.955837	165.995685	-105.086905	0.274151	0.330443	-1.073755	2.106053	-0.125615	11.137269	-14.917976	-28.725465	2.764653	-0.033503	-0.389379	-0.969853	8.483434	2.329539	-0.129172	-11.327683	-1.241244	12.619117	-0.550842	-0.536228	-0.52723
-3.578087	3.147681	11.267724	7.742731	139.291618	-75.4568	0.315384	0.336034	-1.050066	2.458329	-1.196352	11.37018	-15.555939	-37.36719	5.20615	-0.021338	-0.377199	-0.928083	8.201444	2.856113	0.64634	-9.483831	-3.362026	20.172582	-0.536516	-0.503639	-0.528834
-6.307287	-0.682949	14.949299	56.688041	131.659022	-29.858886	0.302778	0.315923	-1.071038	2.342359	-0.125809	11.425303	-15.204931	-46.253147	4.624841	-0.06019	-0.362104	-0.928259	9.264545	2.505226	0.664665	-13.301592	-5.863069	35.941765	-0.550145	-0.488476	-0.514213
-2.806371	-0.248947	9.620336	75.725049	134.787067	29.816959	0.314998	0.349805	-1.053482	2.305991	-0.462878	12.386682	-1.264896	-55.364624	3.867259	-0.033793	-0.330241	-0.945168	10.024436	1.862657	0.196996	-19.797407	-9.071384	42.278539	-0.50898	-0.518597	-0.543384
0.310942	-1.739357	10.924958	68.61244	132.615679	39.58317	0.373766	0.300279	-1.069368	2.817904	-1.027438	12.057251	14.734529	-70.12122	2.500321	-0.046919	-0.360957	-0.942885	10.207777	1.050176	0.436463	-20.308805	-8.110676	32.003628	-0.549936	-0.472284	-0.51505
0.0396	2.540316	17.700538	84.509759	114.863367	21.31133	0.41427	0.281514	-1.000036	3.168099	0.495508	15.123114	19.32349	-76.845308	-6.441274	-0.046694	-0.314995	-0.945896	10.516893	1.168867	1.22125	-32.337941	-4.255847	36.645068	-0.578449	-0.520443	-0.528207
-5.957592	-3.968987	12.21439	161.093047	90.526549	-3.929995	0.373395	0.296751	-1.055292	3.049857	-0.405754	14.893379	36.667994	-88.553029	-16.685882	-0.086212	-0.317364	-0.916369	11.766177	2.097968	1.907291	-40.278676	-3.095047	42.935682	-0.564191	-0.505699	-0.497918
-8.323378	0.49743	8.493222	98.047386	55.143348	-14.781971	0.416928	0.237014	-1.0286	2.39426	0.160267	16.578535	39.959119	-104.561264	-20.695683	-0.098748	-0.345936	-0.942786	12.651304	2.618874	1.985929	-41.555105	-3.572623	41.352782	-0.550078	-0.470631	-0.546106
-3.506455	3.01096	6.153804	27.569086	33.105201	16.313224	0.415785	0.261028	-1.021356	2.873802	0.329155	17.494582	42.630524	-125.437605	-23.089666	-0.124555	-0.375655	-0.954577	13.351505	2.266819	1.518396	-40.410064	-4.977392	38.573229	-0.536099	-0.471254	-0.530508
-1.757194	0.213941	10.608812	13.218773	24.535761	4.592837	0.45929	0.235891	-1.029648	2.617813	-0.514078	18.903816	44.177661	-147.512354	-27.839232	-0.099489	-0.378721	-0.912079	13.166078	2.555874	1.096982	-39.61411	-5.153541	32.212308	-0.550074	-0.489303	-0.498685
-3.215195	0.094304	9.216018	37.145052	21.843733	-0.273266	0.431778	0.260996	-1.074593	2.680514	-1.302671	19.07428	50.037391	-172.910095	-32.803216	-0.138932	-0.365769	-0.883556	13.225405	3.369298	1.221358	-35.591174	-3.963966	22.073545	-0.563635	-0.456296	-0.515957
-2.258246	1.181611	8.443589	15.220701	15.14784	6.64251	0.431063	0.21934	-1.011458	2.295103	-2.258919	19.801326	53.641125	-201.029606	-39.6455	-0.139302	-0.382162	-0.868202	13.3362	4.587635	0.989123	-31.555406	-4.168117	10.658454	-0.54966	-0.438247	-0.54778
-3.098424	1.588425	9.395078	12.618884	12.617896	3.726186	0.444798	0.232737	-1.015223	2.117872	-3.04746	19.513837	56.537029	-231.517875	-47.898866	-0.203736	-0.350824	-0.883181	13.346779	4.29948	1.527049	-30.924089	-6.408348	-0.244542	-0.549381	-0.42288	-0.533089
-2.578058	0.727394	9.628892	6.684323	9.987229	2.903164	0.401665	0.261403	-1.021007	1.206711	-3.158017	19.947517	66.59164	-260.333293	-59.397074	-0.17779	-0.410884	-0.894067	12.808585	3.543729	1.034676	-29.539348	-8.702637	-8.612539	-0.577685	-0.454847	-0.547083
-2.349372	1.18676	9.635276	2.949705	7.385609	0.418221	0.430677	0.233112	-1.014873	0.229393	-3.832151	19.926396	92.819746	-282.461077	-71.832758	-0.218414	-0.40222	-0.808145	10.985552	3.607475	1.360251	-25.403537	-9.603652	-17.668879	-0.577476	-0.438655	-0.54792
-2.230901	0.325778	9.804443	3.118264	6.022344	-1.260493	0.444798	0.232737	-1.015223	1.302988	-4.288033	16.268621	125.928459	-292.21095	-80.564253	-0.257122	-0.416694	-0.820664	10.390854	3.665912	1.109866	-20.879077	-9.700476	-24.499173	-0.577268	-0.422462	-0.548757
-2.342069	0.326585	9.972775	2.223117	5.003717	-1.243804	0.431077	0.202041	-0.993966	5.475604	-3.959056	14.997805	153.700016	-277.933556	-72.755999	-0.335938	-0.43568	-0.774957	9.809901	3.495012	1.577375	-21.497936	-10.350392	-23.974363	-0.536446	-0.504465	-0.513306
-2.060168	0.210529	9.750448	3.385877	4.701494	-1.221394	0.458904	0.249662	-1.033064	7.213018	-0.189818	13.169352	180.93404	-230.091019	-61.778993	-0.323703	-0.468389	-0.744526	9.115318	3.325371	2.282311	-24.146983	-9.864308	-18.650055	-0.535823	-0.437216	-0.563238
-2.235645	0.726904	9.57872	2.187151	4.267761	-1.409002	0.445184	0.218966	-1.011807	2.430464	0.098254	10.181839	182.101815	-213.180181	-58.527703	-0.311544	-0.516419	-0.713091	9.113367	2.743869	2.100118	-26.654356	-9.102162	-10.393594	-0.57685	-0.390077	-0.550432
-1.948632	1.243912	9.643312	-1.821893	4.169476	0.195679	0.44557	0.205195	-1.008391	-2.394591	-4.180822	2.094129	130.121016	-190.770334	-56.250939	-0.324745	-0.562456	-0.709805	9.478333	2.803607	2.706037	-25.867086	-5.864172	-0.846148	-0.563915	-0.471662	-0.530648
-2.293889	0.554379	9.520029	-3.166508	4.527436	0.604049	0.460462	0.177278	-1.001909	-6.790244	-4.736789	0.982265	47.262397	-152.67168	-54.243859	-0.365149	-0.56804	-0.637229	10.129266	2.047134	2.714928	-24.274112	-3.876335	5.648613	-0.591455	-0.438033	-0.563518
-2.639725	0.669029	9.400125	-4.204538	4.636109	1.436832	0.430334	0.194985	-0.965814	-6.240679	-3.49716	2.580097	-17.041951	-103.208851	-47.423417	-0.339492	-0.568962	-0.623431	9.361651	2.223117	2.701363	-20.806621	-1.407657	4.737911	-0.605083	-0.422871	-0.548898
-2.237458	0.152006	9.462601	-3.160791	4.542175	2.014986	0.458161	0.242605	-1.004912	-5.529184	-2.706588	6.332273	-38.169932	-57.582173	-28.984742	-0.391176	-0.583511	-0.635674	9.483525	1.991284	2.882296	-16.006398	1.456242	4.523472	-0.549239	-0.424533	-0.502034
-2.638197	0.094855	9.454565	-2.418173	5.151195	2.820101	0.430692	0.215812	-0.997382	-3.149558	-2.374602	4.627504	-31.424153	-40.89938	-15.496341	-0.391911	-0.556086	-0.594632	9.066145	1.933165	2.634718	-10.475112	3.097985	4.434474	-0.591943	-0.469591	-0.577372
-2.575831	0.727876	9.742598	-1.740992	5.552806	2.916681	0.458161	0.242605	-1.004912	-4.094561	-2.878464	6.135795	-43.296965	3.153117	-3.56925	-0.404667	-0.570409	-0.607702	9.053095	2.336977	1.977473	-8.162121	4.440277	2.61643	-0.549243	-0.405862	-0.549454
-2.288363	0.613027	9.804536	-0.271439	5.219893	3.060377	0.44557	0.205195	-1.008391	-3.691687	-2.203205	6.201466	-46.150828	24.317423	-1.141467	-0.378195	-0.523226	-0.625614	9.121475	2.571372	2.518724	-7.730776	3.976671	3.228352	-0.591175	-0.422666	-0.548828
-2.291004	1.18696	9.693243	-0.733344	5.067567	2.752557	0.472282	0.242231	-1.005261	-2.382512	-2.037261	5.549738	-51.8683	33.986254	-0.001753	-0.416902	-0.5377	-0.638133	9.404701	1.986969	1.802872	-8.832589	2.125312	7.367342	-0.577614	-0.455673	-0.531555
-2.582471	0.668987	9.401238	-0.767945	4.640663	2.439044	0.45929	0.235891	-1.029648	-2.163646	-1.136784	5.102216	-60.782218	40.26326	2.581417	-0.404227	-0.598906	-0.634394	9.505301	2.854378	0.970084	-9.019413	0.761992	8.994464	-0.577409	-0.42081	-0.579813
-2.233294	0.555062	9.691702	0.126856	5.316033	2.876789	0.460076	0.191049	-1.005324	-2.622614	-0.685182	5.206203	-65.673353	52.008829	6.362885	-0.390731	-0.551798	-0.652031	9.215007	2.216959	1.141583	-10.22837	0.273278	8.512135	-0.618991	-0.423075	-0.548968
-2.402789	0.498227	9.801827	-0.459627	5.043686	2.260702	0.472696	0.193861	-0.966862	-2.959544	-0.684204	5.595427	-67.83908	66.785205	11.163252	-0.39036	-0.535406	-0.667384	9.572945	1.984586	1.326918	-12.308398	-0.203724	6.596368	-0.562871	-0.390699	-0.534834
-2.406461	0.957036	9.633198	0.121724	4.704884	2.560197	0.444826	0.198138	-0.980239	-2.679078	-0.628697	5.261681	-68.31021	81.126293	15.3133	-0.429878	-0.537775	-0.637858	8.97288	1.983712	0.776751	-14.658335	-0.044073	5.137031	-0.605013	-0.423697	-0.53337
-2.403778	0.325661	9.744249	0.304736	4.301368	2.982456	0.473811	0.204446	-1.009089	-2.390042	-0.629188	5.324365	-72.545278	93.344166	17.990268	-0.351062	-0.518788	-0.683565	9.453387	1.693982	1.203667	-16.144936	0.273836	3.459882	-0.550007	-0.471458	-0.530578
-2.069449	0.725573	9.297795	0.177972	3.686864	2.911499	0.459719	0.170222	-0.973757	-2.092544	-0.629348	5.783527	-78.031082	104.210744	18.556414	-0.337275	-0.530818	-0.725886	9.457519	1.811123	1.443789	-16.334639	0.251093	2.63546	-0.549101	-0.407514	-0.518398
-2.465942	0.956595	9.518378	0.270483	3.623049	3.155535	0.471539	0.235174	-0.977109	-1.516998	-0.574095	5.795663	-83.125665	114.169027	18.09648	-0.349586	-0.513429	-0.755313	9.693158	1.519955	1.387048	-17.456134	-0.538137	1.665259	-0.577059	-0.40627	-0.549595
-2.467879	0.554021	9.402983	-0.465594	3.652432	2.974127	0.445198	0.201667	-0.994315	-1.384058	-0.404608	6.647817	-84.503315	124.761344	16.813464	-0.33676	-0.543995	-0.753582	9.226417	2.045203	1.739911	-17.878703	-1.678013	-0.650558	-0.521285	-0.407106	-0.518258
-2.75312	0.669353	9.454751	-0.005993	3.654926	2.942177	0.445198	0.201667	-0.994315	-0.44367	-0.405573	7.573393	-83.677271	136.088127	15.138763	-0.309547	-0.464027	-0.802201	9.405261	2.219521	1.863767	-16.601467	-1.950247	-3.465623	-0.577126	-0.424115	-0.517702
-2.576655	0.325544	9.684056	-1.660153	3.989069	2.615027	0.44557	0.205195	-1.008391	-0.49476	-0.63055	7.855193	-82.33728	146.531694	13.548184	-0.296871	-0.525234	-0.798462	9.059947	1.757453	2.274535	-14.468962	-1.614225	-8.609266	-0.591526	-0.437206	-0.579046
-2.462394	0.670111	9.687731	-2.236389	5.032953	2.480314	0.44294	0.215095	-0.944843	0.37224	-0.575694	8.043293	-81.793766	155.095606	11.999926	-0.283079	-0.477053	-0.830448	9.231358	1.813888	1.978549	-11.994292	-1.003256	-13.602449	-0.590616	-0.391934	-0.519446
-2.235728	0.841787	9.579202	-3.702867	5.982924	2.131964	0.444041	0.24298	-1.004562	0.311826	-0.350359	7.928994	-82.698749	161.670371	11.972153	-0.282043	-0.443197	-0.875505	9.11097	1.406884	1.794897	-10.30819	-0.513099	-16.055635	-0.577268	-0.422462	-0.548757
-2.520596	0.440145	9.628799	-3.731895	6.885803	1.104022	0.445184	0.218966	-1.011807	0.68118	-0.237397	9.069135	-85.932335	167.558923	13.970385	-0.216724	-0.471319	-0.903575	8.752762	1.755409	1.610057	-8.579555	-0.75917	-15.327303	-0.591038	-0.405648	-0.565193
-2.179546	0.784063	9.523222	-3.695527	7.244983	1.968449	0.428777	0.267368	-0.996969	0.695255	-0.011505	9.749	-90.321812	172.596236	17.408193	-0.230064	-0.427576	-0.877611	9.109174	1.232162	1.674342	-7.258989	-0.775534	-16.248778	-0.563568	-0.438451	-0.54785
-2.345741	0.785393	9.804147	-4.462107	7.242449	1.878612	0.445198	0.201667	-0.994315	1.802164	-0.576384	10.337891	-94.538953	176.652697	21.268012	-0.228293	-0.421145	-0.96371	8.996374	1.34982	1.97217	-6.491625	-1.635565	-15.636273	-0.590754	-0.408953	-0.503081
-2.352339	0.669063	9.462545	-3.265419	7.369215	2.030565	0.442912	0.249694	-0.979826	1.579479	-0.74466	10.67275	-98.48386	180.224486	24.814959	-0.163488	-0.43609	-0.964085	8.993633	1.58163	1.853345	-6.15631	-3.614105	-13.488894	-0.535402	-0.423502	-0.517491
-2.523031	0.72687	9.516299	-2.841963	6.511097	1.984732	0.473068	0.197389	-0.980937	2.281598	-0.351166	11.253985	-102.20906	183.845251	25.957876	-0.176829	-0.392348	-0.93812	9.178945	1.815506	2.33689	-4.851428	-4.873572	-15.473966	-0.576988	-0.407096	-0.534067
-2.585687	0.495939	9.229955	-3.02841	6.110735	1.978762	0.472682	0.21116	-0.984353	3.097054	-0.915648	11.666913	-104.792834	186.983229	23.489837	-0.150217	-0.434943	-0.97871	9.405916	1.464285	1.800647	-2.966742	-5.52957	-19.419721	-0.562801	-0.391526	-0.519306
-2.467962	0.668904	9.403465	-3.613868	5.866686	1.577802	0.458533	0.246133	-1.018988	4.063952	-0.239556	13.895769	-105.396907	192.803559	22.129138	-0.084446	-0.371143	-1.012803	9.463987	1.870682	1.803478	-0.407975	-5.395491	-19.674091	-0.549869	-0.454439	-0.546943
-2.748584	0.555435	9.681681	-3.092026	5.365947	2.580191	0.444826	0.198138	-0.980239	3.605177	-0.520299	13.9425	-102.736396	190.458961	20.504807	-0.109362	-0.337436	-1.057308	9.1107	1.523036	1.795392	1.227992	-4.989441	-19.926417	-0.56336	-0.422258	-0.548687
-2.701351	0.553222	9.171116	-3.025663	5.85237	3.078584	0.445198	0.201667	-0.994315	3.854457	-0.35098	14.853712	-103.809419	188.728559	20.764182	-0.083925	-0.32411	-1.030163	9.177824	1.350404	2.215099	2.047877	-4.900368	-22.34387	-0.577472	-0.457326	-0.5005
-2.982138	0.669519	9.450297	-3.734522	5.672688	2.372353	0.474597	0.159604	-0.984766	5.131475	0.43575	15.447368	-102.333476	185.65869	20.025733	0.007717	-0.335689	-1.074139	9.531516	1.523822	2.222443	2.401991	-4.993022	-25.094847	-0.563568	-0.438451	-0.54785
-2.752131	0.841919	9.512328	-5.289455	7.11288	2.124228	0.45929	0.235891	-1.029648	6.301825	1.223028	16.435083	-102.117108	183.241572	20.063503	0.03463	-0.317003	-1.118743	9.590127	1.697915	2.224285	4.125397	-4.825359	-25.926916	-0.563635	-0.456296	-0.515957
-2.293557	0.094847	9.518099	-6.784983	8.18319	1.99259	0.458547	0.228834	-1.001496	7.695268	1.333577	17.030588	-101.960892	178.583882	20.695508	0.047606	-0.316928	-1.119019	9.36134	1.409558	2.578088	5.650041	-4.287298	-24.19327	-0.549936	-0.472284	-0.51505
-2.810002	0.15242	9.451466	-8.82905	9.899045	1.627681	0.415071	0.219373	-0.95822	9.089212	3.077852	17.797387	-101.976749	172.745974	23.473691	0.10025	-0.283843	-1.150829	8.989657	1.871268	1.67486	8.482944	-3.241905	-20.786089	-0.577264	-0.441134	-0.501337
-3.199897	0.499772	10.01365	-9.796468	12.672725	0.571508	0.471924	0.221403	-0.973693	11.158849	3.862552	17.784932	-95.85609	163.692601	28.629545	0.100621	-0.267451	-1.166182	8.933807	1.930221	1.853728	10.223992	-1.520905	-15.055609	-0.577126	-0.424115	-0.517702
-2.798002	0.499723	10.078298	-15.325231	15.972284	0.058359	0.473068	0.197389	-0.980937	12.992958	4.872816	17.541272	-82.942177	152.189342	37.404509	0.139109	-0.238729	-1.140317	8.816585	1.582035	1.850043	12.610798	0.019535	-9.387464	-0.590545	-0.39276	-0.503918
-3.136743	0.041405	10.297098	-17.394456	19.174089	-1.263707	0.459704	0.187521	-0.991248	14.922917	4.586408	16.279427	-60.124697	137.4522	49.146027	0.191232	-0.252677	-1.154766	9.289949	1.523126	1.918507	14.586115	1.082037	-4.968324	-0.549727	-0.456091	-0.515887
-2.796516	-0.017009	10.132979	-21.08247	22.163731	-0.805815	0.471539	0.235174	-0.977109	16.762541	3.735475	13.42999	-36.715229	115.809525	58.908017	0.204874	-0.235138	-1.184745	9.396397	0.822977	1.198858	16.24327	-0.104422	0.899313	-0.549452	-0.422054	-0.548617
-2.811571	0.784036	9.397267	-20.336364	23.420104	-0.174181	0.443683	0.222152	-0.972995	18.91065	2.828478	11.549424	-22.747274	87.458916	63.446913	0.255742	-0.268694	-1.140791	9.037088	1.171254	0.954111	13.684217	-1.452523	-2.721941	-0.563706	-0.455469	-0.531485
-3.045002	0.725795	9.165159	-20.63349	24.58081	0.336226	0.471153	0.248945	-0.980525	20.338769	2.653981	8.352256	-29.281877	54.355915	60.460767	0.230235	-0.237131	-1.156597	8.623975	1.172199	0.946408	8.237419	-3.700621	-3.119358	-0.60515	-0.440716	-0.517005
-2.908963	0.213322	10.245423	-25.510408	30.299839	-1.887554	0.45779	0.239077	-0.990836	20.828	3.834909	7.118061	-54.171104	25.371125	52.10539	0.21741	-0.206566	-1.158329	8.505537	1.346697	0.944949	4.14425	-5.93444	1.490529	-0.563706	-0.455469	-0.531485
-2.807733	0.095461	9.564931	-26.74941	33.52875	-2.567544	0.511271	0.243951	-0.914609	18.762968	5.698123	7.585861	-78.173391	5.475105	42.731395	0.281919	-0.222583	-1.144354	8.505247	0.997994	0.883559	1.033263	-7.562791	10.006438	-0.577264	-0.441134	-0.501337
-3.095119	0.095427	9.50251	-24.653191	35.444635	-2.634441	0.50018	0.203354	-0.9569	16.736666	8.802221	9.980452	-80.02841	-7.353265	36.189584	0.256859	-0.159307	-1.176516	8.75106	0.592899	1.365485	-3.251516	-9.408507	18.436515	-0.536449	-0.485794	-0.560726
-3.034524	0.09611	9.674183	-25.192497	37.252544	-2.388823	0.485288	0.231271	-0.963382	14.635435	8.976338	11.295215	-56.371359	-18.193586	32.92531	0.244323	-0.187879	-1.202933	8.811312	0.534936	1.426245	-5.748959	-10.783516	20.408453	-0.577476	-0.438655	-0.54792
-3.200886	0.327206	9.956073	-24.163245	39.834868	-2.043126	0.513143	0.244293	-0.967496	10.686249	10.56441	15.120051	71.847067	-39.001242	16.821028	0.244323	-0.187879	-1.202933	8.752836	0.302766	1.424156	-5.769534	-11.36532	17.507392	-0.577961	-0.488885	-0.514353
-3.197214	-0.131602	10.124702	-24.110952	43.465287	-2.382953	0.512014	0.251007	-0.94276	7.739233	11.358154	14.605944	139.723155	-42.300957	24.82767	0.257003	-0.188876	-1.188859	8.868148	0.999162	1.369416	-1.708908	-10.650022	14.799388	-0.577894	-0.47104	-0.546246
-3.184468	-0.818247	10.74719	-22.53588	49.514718	-1.338434	0.497879	0.268681	-0.959903	3.08932	7.306556	9.352822	182.35388	-46.726291	29.288316	0.243507	-0.235985	-1.171222	9.221954	0.649648	1.314629	6.866581	-9.539805	13.907169	-0.563285	-0.441756	-0.485739
-3.419385	-0.359755	10.460401	-21.409579	57.53277	-0.659311	0.526863	0.274989	-0.988753	-5.228919	6.588594	7.762132	116.206964	-74.225654	39.320647	0.217404	-0.266775	-1.168664	9.109849	0.941782	1.673105	16.31437	-7.759845	13.619925	-0.563702	-0.474141	-0.484065
-3.562363	-0.123592	11.936206	-20.949998	67.121279	-0.566097	0.512386	0.254536	-0.956836	-17.08861	-0.482697	12.205791	125.399233	-86.204568	21.882535	0.204208	-0.252602	-1.155042	9.700767	2.509473	1.930413	19.642735	-4.543141	14.264974	-0.563147	-0.424737	-0.502104
-3.883802	1.042899	16.026661	-20.676564	74.086503	3.134467	0.513157	0.226994	-0.950005	-0.042496	-2.148043	12.732172	92.106175	-108.520215	24.62442	0.16557	-0.311965	-1.1789	11.177507	4.772546	2.327007	15.954565	0.395003	20.551591	-0.563427	-0.440103	-0.516794
-4.076224	0.349141	14.940216	16.574276	94.550313	4.801289	0.568125	0.245981	-0.930081	-1.919727	2.076768	8.73348	113.377727	-127.830294	1.728758	0.178841	-0.310818	-1.193525	12.820825	3.488373	1.693404	18.304232	6.30103	29.991296	-0.591242	-0.440511	-0.516935
-3.945013	0.352677	15.795239	9.574768	110.624239	6.892115	0.58376	0.225121	-0.951751	2.38218	1.955407	8.087739	83.182693	-112.854335	3.733786	0.191227	-0.312887	-1.165101	13.427642	0.585446	2.231209	26.247075	10.359417	21.842314	-0.577614	-0.455673	-0.531555
-3.716611	-0.337028	15.739944	18.08279	129.650207	12.267552	0.583403	0.204293	-0.920183	5.910444	0.374483	11.500682	50.978119	-72.854467	12.429114	0.100395	-0.313412	-1.163171	12.112956	1.456343	1.431919	22.062612	9.319732	2.605935	-0.618987	-0.441746	-0.501548
-2.484334	1.392103	17.362453	16.909828	151.060973	14.55099	0.609386	0.216973	-0.871409	2.635817	1.110871	9.111376	53.473272	-49.768534	4.860957	0.125971	-0.389864	-1.158705	10.809874	3.491975	1.416362	11.836868	7.577582	-4.011389	-0.577543	-0.4565	-0.516028
-2.488622	1.161371	17.134076	19.672282	177.862243	11.513663	0.623521	0.199299	-0.854267	0.638036	0.439294	9.80481	51.420575	-51.758715	-4.378083	0.11344	-0.358226	-1.174786	10.392069	3.143228	1.107641	11.043874	6.102173	5.289686	-0.619409	-0.45546	-0.547294
-2.712771	0.588087	17.354621	19.838811	207.218668	6.624033	0.636484	0.240237	-0.864863	2.680044	-0.521101	11.035747	56.597733	-43.035588	-5.643626	0.074067	-0.390164	-1.157602	9.977545	2.330367	0.916756	11.283489	6.775239	14.241228	-0.563635	-0.456296	-0.515957
-2.229457	1.052836	18.67308	20.25904	235.578622	5.458782	0.650647	0.187965	-0.812737	3.187445	-1.254842	10.479615	43.300648	-23.554392	9.737661	0.087338	-0.389017	-1.172227	9.931464	2.449621	1.635033	11.797332	10.526144	12.570893	-0.6192	-0.439267	-0.548131
-2.669547	-0.666459	19.50973	26.853804	266.140263	4.618291	0.664368	0.218661	-0.833994	2.458956	1.392705	8.938067	24.827154	-9.687986	5.791294	0.112694	-0.451221	-1.154414	10.343342	2.506504	1.583076	14.490921	15.013932	2.514491	-0.590963	-0.425145	-0.502244
-1.415387	-2.392065	19.185868	44.612939	294.935258	9.482311	0.720107	0.210106	-0.807239	1.564242	0.268768	10.050568	21.174771	-8.208219	2.165324	0.073477	-0.392308	-1.128902	9.800902	2.156544	0.912713	16.108981	19.083943	-11.874804	-0.618783	-0.406882	-0.549805
-0.934859	-3.60643	17.371523	73.633401	319.652652	18.20324	0.762897	0.143313	-0.752395	1.909526	0.324451	10.057869	21.643254	-7.717514	3.0646	0.111368	-0.425939	-1.084673	9.025314	2.446949	0.480295	14.346386	21.723213	-22.1793	-0.57713	-0.405444	-0.565122
-2.250089	-3.675023	14.504131	90.12753	336.809483	25.150314	0.845006	0.133667	-0.673451	1.665967	0.324361	9.429998	16.65133	-4.090141	6.056175	0.112844	-0.42058	-1.156422	8.025205	2.508062	0.641556	11.592868	22.510567	-19.392327	-0.604737	-0.389659	-0.5661
-6.706773	-1.843835	12.038284	100.405537	332.828898	20.364392	0.787809	0.09351	-0.608919	1.668971	1.282169	9.657363	13.244628	-5.065581	3.238352	0.060205	-0.393455	-1.114277	7.353904	3.027534	-0.506555	8.727691	22.688687	-8.014658	-0.577547	-0.437829	-0.563448
-8.214121	0.968259	11.168361	82.042767	290.599281	14.578495	0.78818	0.097038	-0.622994	1.331455	0.325434	9.932501	9.808545	-5.918754	0.421737	0.060055	-0.424096	-1.112269	7.884084	2.967995	-0.556805	7.102594	22.951675	4.459448	-0.590896	-0.4073	-0.534137
-12.290528	1.255997	10.521979	86.308817	239.407507	-1.906667	0.814578	0.061348	-0.535821	1.845809	0.380653	9.77351	7.838285	-5.478417	-0.407828	0.06057	-0.437273	-1.139965	8.703843	2.906546	-0.901088	5.825529	21.580965	15.290728	-0.605568	-0.4731	-0.515331
-2.041099	-0.889345	7.757118	98.160486	219.024337	-8.528839	0.842062	0.070841	-0.52586	1.906678	0.549679	9.94478	7.044299	-4.781884	-0.617338	0.034103	-0.424246	-1.111718	9.655224	2.208709	-0.586913	2.949318	18.699322	17.851954	-0.605989	-0.486814	-0.561077
4.409454	-2.978853	3.895653	60.605392	161.072835	-16.141412	0.826827	0.060631	-0.483283	1.907132	0.94404	10.001751	4.654962	-3.160135	-0.048229	0.085787	-0.409697	-1.099475	10.015363	1.976831	-0.281765	0.435871	15.767417	13.565143	-0.591175	-0.422666	-0.548828
9.083302	-4.090811	-0.053082	45.893517	104.339991	-11.991679	0.867345	0.024566	-0.396459	2.022455	0.21148	9.946913	2.786973	-1.923946	-0.469033	0.086082	-0.408625	-1.113825	11.077363	1.625697	-0.323347	-0.24638	13.188489	5.357886	-0.591593	-0.455051	-0.547153
5.593547	-4.83454	-0.010436	19.847167	40.073824	-2.411271	0.910064	0.04427	-0.429074	1.855934	0.775393	10.283598	2.262242	-1.9855	-1.456565	0.059835	-0.409847	-1.098923	10.682553	1.805073	0.688109	-0.953337	9.631927	-5.93082	-0.591455	-0.438033	-0.563518
1.631819	-1.419628	5.325787	-15.432999	-2.616119	10.244678	0.868088	0.031623	-0.424611	1.567522	-0.181782	10.163468	2.752292	-2.344998	-1.798853	0.111959	-0.423796	-1.113372	10.696028	1.691888	1.406497	-1.231725	5.092653	-10.767324	-0.590967	-0.406474	-0.549665
2.553789	-1.878617	5.625938	-21.314893	-37.86828	20.881533	0.852467	0.035184	-0.385449	1.906139	0.831331	9.945017	3.430589	-2.486682	-2.262136	0.060425	-0.407704	-1.127623	10.752728	2.21419	1.349915	-3.33959	1.842976	-13.739052	-0.54959	-0.439073	-0.532252
2.69498	-1.815468	6.992881	-15.098902	-60.815827	32.725371	0.910821	0.034028	-0.439734	2.315656	-0.070522	10.179279	3.492729	-2.426782	-1.922382	0.061161	-0.435129	-1.168665	10.396161	2.330658	1.223994	-4.253372	-0.265248	-14.275753	-0.604946	-0.405852	-0.565263
3.047699	-0.664715	7.516065	-4.239155	-76.33796	36.795912	0.868445	0.052451	-0.456178	1.857143	0.775441	10.340238	4.447315	-2.631301	-1.615368	0.033883	-0.409997	-1.098372	9.742041	2.563458	0.97325	-5.072753	-0.293145	-11.858437	-0.591384	-0.438859	-0.547991
3.733142	0.023845	7.47547	10.317417	-95.575292	36.410888	0.856225	0.018569	-0.473734	1.453839	0.325503	10.274756	6.115064	-2.498141	0.021184	0.047519	-0.452668	-1.138686	10.692497	2.737009	1.35104	-3.15525	0.357914	-6.123081	-0.6192	-0.439267	-0.548131
4.10926	0.248013	6.233462	20.705696	-117.094866	32.07612	0.897072	0.037931	-0.453461	1.970287	0.549808	10.229187	5.690045	-1.834627	0.890627	0.086157	-0.393305	-1.114828	10.572399	2.678709	1.228778	1.340205	1.134332	-2.750708	-0.549523	-0.421228	-0.564145
3.359178	0.534554	5.935927	19.785387	-137.070319	25.100546	0.857354	0.011854	-0.49847	1.731995	0.324585	9.827684	5.389729	-1.077754	1.791929	0.086597	-0.421802	-1.14152	10.512802	1.981437	1.104897	5.706166	2.074063	-6.34673	-0.577197	-0.423289	-0.53323
3.359675	-0.154745	5.933032	16.325086	-152.209802	19.007831	0.870317	0.052793	-0.509066	1.731995	0.324585	9.827684	4.00981	-0.268643	1.983833	0.112103	-0.453365	-1.125715	10.509096	2.154923	0.925918	8.515112	1.826597	-11.031516	-0.577543	-0.4565	-0.516028
2.615119	0.190443	5.920004	8.01966	-163.443993	13.636253	0.814964	0.047577	-0.532406	2.246696	0.830495	9.725712	2.078157	0.813819	1.499791	0.086522	-0.437122	-1.140517	10.390213	1.573939	0.801431	10.441769	1.80172	-13.880439	-0.577685	-0.454847	-0.547083
2.617097	0.535575	6.035158	-6.977371	-173.64294	11.827181	0.88631	0.052761	-0.562303	1.898431	0.436686	9.548208	0.36197	1.866341	1.323908	0.073841	-0.436126	-1.154591	9.90982	1.340737	0.312384	11.071117	1.931754	-17.36707	-0.577547	-0.437829	-0.563448
1.937755	0.652644	6.420251	-19.189305	-185.387177	11.763606	0.829813	0.071558	-0.578398	1.904691	0.324262	9.831311	-0.746873	2.012799	0.214659	0.085787	-0.409697	-1.099475	9.443193	1.343053	0.603115	9.730336	2.234763	-20.511161	-0.591034	-0.424319	-0.517772
1.366159	0.883066	6.466934	-29.464558	-202.064697	13.454296	0.858397	0.108936	-0.628156	1.565127	0.437807	10.10735	-1.854863	2.220988	-0.955629	0.073031	-0.424021	-1.112545	9.619837	1.516876	0.607158	7.106846	2.664945	-21.603792	-0.591802	-0.471244	-0.546316
0.758879	0.543698	7.5903	-33.403488	-221.069798	16.714204	0.859155	0.098693	-0.638816	1.898886	0.831047	9.605179	-2.592553	2.403015	-2.095049	0.072585	-0.455734	-1.096188	9.384872	1.517664	0.662663	3.892149	2.792794	-23.242861	-0.563568	-0.438451	-0.54785
0.140173	0.604008	8.146823	-32.849241	-236.691677	19.065475	0.790795	0.104437	-0.704034	1.905923	0.943992	9.945112	-3.330167	2.585445	-3.296118	0.112179	-0.438044	-1.126718	9.681769	2.156567	0.850605	1.41045	2.564107	-25.646779	-0.591105	-0.423493	-0.5333
-0.713034	0.548394	8.414145	-31.891617	-245.835991	20.048846	0.805259	0.142189	-0.753443	1.903829	0.774906	9.83169	-3.60951	2.374713	-4.439068	0.085862	-0.394377	-1.100478	9.505241	1.459812	0.78443	0.286018	2.649665	-28.39318	-0.577126	-0.424115	-0.517702
-0.702971	0.493124	8.925582	-33.002882	-246.570738	19.273507	0.764012	0.153898	-0.794623	1.914146	0.437302	10.284522	-4.19741	2.190725	-5.581999	0.099203	-0.438119	-1.126443	9.152109	1.518946	0.837982	1.46184	2.925406	-28.032082	-0.577476	-0.438655	-0.54792
-0.934506	0.894898	8.809111	-40.293276	-243.362083	15.513485	0.751377	0.168386	-0.850578	1.679396	0.888235	10.110147	-4.259865	2.071912	-6.292268	0.085932	-0.439266	-1.111817	9.030235	1.750778	0.657049	3.635388	3.432079	-25.995099	-0.563915	-0.471662	-0.530648
-1.095834	0.322778	9.315035	-50.208873	-240.580433	7.644735	0.70823	0.214351	-0.873854	1.897892	0.718338	9.548445	-4.174398	1.405511	-7.377795	0.073326	-0.422949	-1.126895	8.858689	1.752419	0.953282	5.937418	4.674623	-24.084287	-0.563915	-0.471662	-0.530648
-1.300023	-0.131281	10.559419	-55.926509	-236.552369	-2.608347	0.70973	0.211165	-0.912666	1.850991	0.831534	10.057087	-3.692326	0.403066	-7.880616	0.085862	-0.394377	-1.100478	8.855678	2.100381	0.834952	8.192178	5.73437	-19.299969	-0.619342	-0.437615	-0.579187
-0.943135	-0.128635	11.248337	-57.049807	-232.58438	-13.827038	0.625378	0.21694	-0.924646	1.84922	0.493456	9.943523	-3.765419	-0.458349	-7.580964	0.098983	-0.423871	-1.113097	8.859364	1.462039	0.952046	9.608669	5.932701	-14.324966	-0.563915	-0.471662	-0.530648
-1.167201	-0.816802	11.468399	-59.713295	-230.482441	-23.906801	0.625693	0.289666	-1.008689	1.552823	0.549993	9.541049	-1.52614	-1.601249	-6.63487	0.05998	-0.439416	-1.111266	9.338926	1.578842	1.380692	10.675784	5.838722	-10.783444	-0.605501	-0.455255	-0.547224
-1.909732	-1.735087	11.506916	-63.859538	-227.003208	-31.261233	0.582931	0.32186	-1.028549	1.621484	0.437651	10.05192	-0.391666	-2.232931	-6.301133	0.086672	-0.406482	-1.142524	9.273578	1.461341	1.019656	10.71706	5.477434	-8.367587	-0.578173	-0.486406	-0.560937
-2.589074	-1.618018	11.892008	-76.555828	-220.501994	-34.615944	0.568796	0.339534	-1.045692	1.853624	0.718968	10.170271	1.3839	-3.440438	-5.756812	0.112995	-0.389939	-1.158429	9.096799	1.345594	1.01586	11.06388	5.402026	-6.870994	-0.57824	-0.504251	-0.529044
-4.170503	-2.359013	12.937902	-90.849505	-212.870215	-32.549068	0.485188	0.352366	-1.085825	1.909419	0.380782	10.057917	4.456833	-4.603643	-4.779417	0.072956	-0.439341	-1.111542	8.976026	1.577674	0.894834	11.20155	5.406265	-4.273784	-0.564474	-0.502394	-0.56003
-5.514545	-2.351505	14.446212	-95.924345	-204.596085	-26.418779	0.52562	0.420098	-1.103951	1.620706	0.212282	9.99509	6.271595	-5.223291	-4.969085	0.059615	-0.395599	-1.085577	8.73664	1.112617	0.648827	9.921502	5.404142	-1.549105	-0.550842	-0.536228	-0.52723
-8.397942	-2.111664	16.266541	-89.069829	-197.928605	-17.527358	0.441268	0.425874	-1.115932	1.971388	0.606186	10.285874	7.096201	-6.006802	-5.469457	0.073106	-0.4087	-1.113549	8.316364	0.879527	0.220787	8.030598	5.66818	1.848966	-0.564053	-0.488681	-0.514283
-10.81397	-1.825128	15.65245	-80.378539	-193.782179	-5.309023	0.398864	0.478895	-1.16736	1.511858	0.719757	10.332937	9.091509	-6.992702	-5.570137	0.085787	-0.409697	-1.099475	8.493142	0.995274	0.224583	5.283291	5.357049	7.331357	-0.536308	-0.487446	-0.529671
-13.24134	-1.253797	14.471035	-78.057269	-187.558956	5.611131	0.371023	0.448574	-1.145754	2.027422	0.775022	10.230585	10.315924	-7.837691	-5.269276	0.07266	-0.440413	-1.097192	8.59963	1.224836	-0.371296	4.332863	5.874509	13.170317	-0.564053	-0.488681	-0.514283
-16.850312	-0.102596	14.348858	-80.926235	-175.943523	13.566553	0.313726	0.529513	-1.203664	1.563272	0.775742	10.050995	9.911976	-8.055439	-5.580044	0.072365	-0.441485	-1.082842	8.015356	0.588339	-0.145393	3.127567	5.692545	18.524733	-0.550007	-0.471458	-0.530578
-18.419404	1.214853	13.187283	-77.385467	-159.917265	14.859251	0.25723	0.54831	-1.219759	1.390791	0.663405	10.047274	9.59782	-8.544789	-6.386683	0.124194	-0.456505	-1.082941	8.606888	0.471084	-0.074976	1.437955	5.302022	20.213936	-0.56447	-0.521066	-0.512609
-20.737507	2.876525	11.785267	-71.712075	-142.433234	10.435051	0.242709	0.579755	-1.240317	1.903613	0.887567	9.831785	7.894054	-9.106068	-8.274121	0.05998	-0.439416	-1.111266	8.666194	0.819652	-0.012485	-0.43493	4.717922	16.89166	-0.563844	-0.472488	-0.51512
-21.327832	4.366801	10.92761	-61.627307	-117.367569	0.815772	0.228974	0.566359	-1.236552	1.731887	0.380916	9.827732	8.978895	-8.873254	-8.94914	0.073546	-0.437197	-1.140241	8.477716	0.526958	-0.675998	-1.780423	3.536298	9.41348	-0.591731	-0.47207	-0.530789
-22.090405	3.444174	9.942771	-40.576376	-82.44983	-11.098423	0.227102	0.566017	-1.183664	1.796729	1.000776	10.225939	6.778297	-9.68312	-11.30185	0.0602	-0.453665	-1.124612	8.186342	0.354146	-0.502522	-0.018356	2.412779	6.264287	-0.550287	-0.486824	-0.545269
-22.133127	2.458259	7.721398	-20.558668	-40.307239	-23.905191	0.200719	0.584407	-1.253346	2.069811	0.492645	9.495242	4.138972	-10.960292	-13.382104	0.099348	-0.467688	-1.138785	7.783963	0.473716	0.089339	0.893746	1.17098	11.310139	-0.578035	-0.469387	-0.577302
-27.483754	10.307097	15.379342	-140.0545	79.122904	-53.460412	0.212567	0.614761	-1.221714	1.847688	0.6624	9.887026	-0.939262	-12.144767	-15.617525	0.060055	-0.424096	-1.112269	7.657262	0.413932	-0.392365	1.331316	0.726625	13.022363	-0.577965	-0.470213	-0.561774
-19.239968	1.945726	9.309934	-0.215917	126.900249	-53.36194	0.227817	0.607672	-1.2468	1.908664	0.775096	10.058249	-4.309742	-14.883621	-15.986566	0.060124	-0.468985	-1.123608	7.849312	0.591216	0.450375	0.018231	-0.606402	17.251669	-0.591522	-0.455878	-0.531626
-13.085303	10.647375	17.081603	51.61144	201.362497	-92.246787	0.226702	0.597087	-1.204572	1.691784	0.100035	10.61924	-8.803041	-18.121011	-12.631375	0.073917	-0.420805	-1.155594	7.549424	0.765131	0.205987	-0.934498	-2.137081	20.013495	-0.577685	-0.454847	-0.547083
3.344083	15.915575	2.874792	208.585276	215.560904	-161.646301	0.28317	0.612888	-1.22346	1.936206	-0.350519	11.246732	-14.411104	-23.951409	-8.840424	0.0602	-0.453665	-1.124612	7.781303	2.564947	0.218053	-1.322211	-3.595017	18.890856	-0.577827	-0.453195	-0.578139
-1.659746	8.425585	10.077015	43.952426	197.412862	-185.842737	0.255315	0.599866	-1.219346	1.79397	0.158012	12.716161	-22.579925	-34.010761	-1.147574	0.059464	-0.42624	-1.08357	7.607326	3.611957	0.518736	-4.890868	-6.637923	19.101713	-0.632899	-0.423279	-0.549038
-10.380328	0.479722	17.432343	132.920193	189.943186	-116.388086	0.310697	0.570484	-1.161023	2.739039	-1.0258	13.754021	-32.684878	-56.574427	20.045919	0.034398	-0.423174	-1.126068	8.60948	3.144559	0.415652	-11.111521	-11.455633	27.370186	-0.564124	-0.487854	-0.529811
-6.397707	-6.562492	10.092173	185.757281	113.699726	-5.311072	0.312211	0.549998	-1.182344	3.177747	-0.123796	15.51907	-27.733591	-75.05862	23.103257	0.047374	-0.423099	-1.126343	10.26815	3.781345	0.868532	-20.809555	-17.108315	32.384675	-0.591872	-0.470418	-0.561844
-11.409144	-9.323076	8.334977	34.719782	73.057106	32.519014	0.356817	0.552745	-1.250355	3.496844	-0.91416	14.222948	19.010652	-96.907834	16.357068	0.007485	-0.44186	-1.081463	11.994599	3.490263	1.677998	-30.929835	-23.93143	35.113605	-0.577756	-0.454021	-0.562611
-0.471002	1.942307	12.061875	35.155819	34.616729	10.796171	0.371723	0.507529	-1.226381	3.187431	2.639353	18.918561	26.306246	-112.450988	0.455058	0.020681	-0.456034	-1.095085	12.660047	1.226285	2.27953	-44.532697	-28.453893	62.640684	-0.619196	-0.457938	-0.50071
-1.90936	1.469776	8.735741	59.620534	30.626617	-17.554196	0.356845	0.518146	-1.215372	3.083251	-0.798788	16.422317	55.705496	-133.488098	-14.774206	-0.01743	-0.408154	-1.125968	13.006536	0.235958	1.742768	-44.719699	-24.901674	73.969419	-0.605083	-0.422871	-0.548898
-4.353474	2.09493	6.701771	10.790052	36.057839	22.787691	0.327875	0.494539	-1.16903	2.629334	-0.459658	16.752767	65.627361	-148.274094	-24.531105	-0.031367	-0.426765	-1.08164	13.35326	1.511831	1.515182	-31.483146	-13.14714	47.90479	-0.6192	-0.439267	-0.548131
-3.791997	-0.812966	11.872003	10.047967	13.472582	3.195466	0.370608	0.496944	-1.184153	2.712871	0.498944	18.057493	60.541643	-164.94327	-29.108966	-0.045084	-0.459625	-1.050657	13.004146	2.211037	1.870987	-25.488286	-7.787793	31.531721	-0.618503	-0.391516	-0.535114
-2.652512	1.413115	8.777878	32.153747	16.583943	8.886426	0.370594	0.514243	-1.201645	1.342565	-0.962731	18.423724	54.399129	-192.251739	-37.893128	-0.05821	-0.49034	-1.048374	13.765914	3.602612	1.771413	-27.058962	-7.392967	31.260391	-0.618924	-0.40523	-0.580861
-2.750811	0.554952	9.567975	22.283481	9.932965	3.225386	0.385472	0.503626	-1.212654	1.37579	-0.003737	20.067078	42.800237	-223.424661	-44.500434	-0.096397	-0.457781	-1.078254	13.287628	4.357691	1.526196	-28.958999	-8.263142	28.978661	-0.618783	-0.406882	-0.549805
-2.421309	1.470873	8.896279	20.485553	7.511535	1.903174	0.371737	0.49023	-1.208889	0.183901	-1.296506	20.720276	38.489863	-256.884653	-49.675661	-0.148596	-0.459153	-1.062801	13.51954	3.775155	1.228591	-27.750263	-8.867554	19.806515	-0.604457	-0.374293	-0.551409
-2.191012	1.241182	8.956621	14.331755	4.518685	0.400198	0.328233	0.515367	-1.200597	-1.317335	-2.082568	20.404982	46.543442	-291.88905	-53.993055	-0.176615	-0.466806	-0.961802	12.815863	3.254833	1.392881	-22.401502	-8.449284	10.767992	-0.632273	-0.374701	-0.55155
-2.428197	1.756633	8.556367	12.956432	2.023698	-2.396523	0.372495	0.479987	-1.219549	-1.274599	-1.914254	19.726658	67.563041	-319.715048	-56.101776	-0.202347	-0.481205	-0.974596	11.751351	2.791913	1.191375	-18.59666	-8.3146	-3.917015	-0.618712	-0.407708	-0.534277
-2.24447	0.610091	9.123413	1.87498	-0.573829	-2.836197	0.357645	0.456005	-1.173556	0.821704	-4.567293	17.956692	125.220442	-333.688252	-57.488662	-0.242235	-0.499966	-0.929716	10.750683	2.620475	1.291739	-20.782149	-9.298262	-13.072646	-0.604453	-0.392964	-0.503989
-2.808065	0.554994	9.566861	2.94852	-0.508747	-2.715556	0.372523	0.445388	-1.184566	2.772353	-1.134796	18.000687	161.659889	-306.640681	-63.78734	-0.293549	-0.498122	-0.957313	10.048842	3.204586	1.700355	-27.134237	-10.99891	-16.433604	-0.660298	-0.391302	-0.550853
-2.695907	0.726753	9.456106	3.784079	0.222947	-1.847356	0.358017	0.459534	-1.187632	4.929518	2.070999	16.916537	221.472383	-246.768103	-43.324542	-0.35932	-0.561923	-0.92322	9.870828	3.146668	1.636899	-34.336536	-13.037515	-16.978409	-0.604804	-0.407504	-0.534207
-2.232222	0.612745	9.748797	1.589932	1.303343	-0.443414	0.370966	0.517772	-1.215721	-0.638781	2.074966	9.439751	260.999779	-218.539878	-24.331869	-0.335805	-0.585668	-0.80797	9.585921	3.033416	2.170064	-38.345837	-13.359376	-16.809559	-0.576641	-0.373885	-0.551269
-2.23247	0.957394	9.750244	0.004996	2.053069	0.554706	0.370223	0.510715	-1.187569	-5.59241	-5.530538	-2.2769	186.698833	-172.338186	-9.413303	-0.337287	-0.651238	-0.746556	9.76378	2.684555	2.171882	-37.891111	-11.380459	-9.853057	-0.618574	-0.39069	-0.550642
-2.63886	1.013919	9.458426	-2.319743	2.310782	1.270944	0.356102	0.51109	-1.18722	-11.393322	-7.213909	-7.32565	49.127173	-110.355534	-27.065339	-0.389561	-0.66793	-0.7301	9.824281	2.045584	2.170263	-34.959134	-8.392306	-7.952613	-0.618574	-0.39069	-0.550642
-2.74747	0.555676	9.738534	-2.95903	2.545633	1.981957	0.384729	0.496569	-1.184502	-7.817097	-5.185161	1.356603	-73.347041	-42.369805	-59.779664	-0.402387	-0.637364	-0.731832	10.705662	1.810265	1.946153	-29.060398	-5.286144	-10.525332	-0.631994	-0.359335	-0.536859
-2.34599	1.130043	9.805594	-2.832419	2.753678	2.659659	0.371752	0.47293	-1.191397	-7.892425	-2.756258	8.830233	-75.74184	-9.931735	-63.312166	-0.37607	-0.681032	-0.758072	10.296545	1.986427	2.17882	-24.534667	-3.677901	-19.56436	-0.603965	-0.361406	-0.490135
-2.007616	0.554172	9.525597	-2.584665	3.060399	2.817268	0.371366	0.486701	-1.194813	-7.81587	-2.814322	7.020137	-50.37491	7.416221	-59.913559	-0.414922	-0.665937	-0.758248	9.52756	2.278316	2.105843	-17.880844	-2.870544	-27.323265	-0.576846	-0.408749	-0.503011
-2.405181	0.727511	9.689086	-1.329142	2.537225	3.387831	0.384343	0.51034	-1.187918	-9.780131	-2.923603	6.639101	-32.852037	52.284732	-52.08619	-0.375995	-0.665711	-0.759075	9.706674	2.336481	2.229205	-15.203743	-2.944153	-28.157623	-0.604804	-0.407504	-0.534207
-2.414172	0.840464	9.234743	-1.362833	2.5772	2.560558	0.356474	0.514618	-1.201296	-7.677345	-2.646981	5.437997	-40.972005	73.04903	-41.806351	-0.310374	-0.632552	-0.791161	8.989967	2.684827	1.798135	-15.195042	-4.357844	-24.54525	-0.632549	-0.408739	-0.51882
-2.244304	0.380325	9.122447	-1.181681	2.742494	1.612029	0.356845	0.518146	-1.215372	-7.508036	-2.140425	5.328771	-65.458257	84.894069	-30.641734	-0.349302	-0.632777	-0.790334	9.216938	2.333605	1.261892	-16.729993	-6.021459	-20.956547	-0.646528	-0.408117	-0.534418
-2.063923	0.784221	9.582302	-0.051074	2.162845	1.691357	0.34311	0.50475	-1.211607	-6.228407	-2.085944	5.97845	-83.422729	99.45938	-19.937777	-0.336691	-0.588884	-0.764921	9.216918	1.86875	1.200007	-20.120688	-8.270361	-17.602697	-0.604733	-0.408331	-0.518679
-2.642858	0.381097	9.228359	-0.053147	2.10625	1.261096	0.385101	0.500098	-1.198578	-6.164128	-1.804115	6.319734	-93.867605	119.70276	-10.373303	-0.309193	-0.628264	-0.84856	9.148423	2.157287	0.720887	-22.941137	-7.410531	-15.946412	-0.645827	-0.379037	-0.473981
