1757_acc_x	1757_acc_y	1757_acc_z	1757_gyro_x	1757_gyro_y	1757_gyro_z	1757_mag_x	1757_mag_y	1757_mag_z	1758_acc_x	1758_acc_y	1758_acc_z	1758_gyro_x	1758_gyro_y	1758_gyro_z	1758_mag_x	1758_mag_y	1758_mag_z	1759_acc_x	1759_acc_y	1759_acc_z	1759_gyro_x	1759_gyro_y	1759_gyro_z	1759_mag_x	1759_mag_y	1759_mag_z
-3.040713	0.956526	9.393537	-6.59183	7.056744	-1.583749	0.601138	-0.093014	-0.714872	2.142552	0.774807	10.233003	-1.041858	2.339001	-8.075027	-0.008061	-0.315842	-0.932373	9.226322	3.03299	1.863927	0.856674	1.734895	-1.834953	-0.508071	-0.473324	-0.483784
-2.981765	0.152545	9.448125	-7.076791	7.883843	-1.538243	0.365936	0.260783	-0.808756	1.91216	0.211885	10.171054	-1.42385	1.559834	-6.880805	0.00484	-0.331087	-0.931645	8.937014	2.918749	2.157465	1.007022	3.112212	1.091957	-0.535957	-0.472906	-0.499452
-2.403944	0.555427	9.745215	-7.348297	8.809	-1.921112	0.354087	0.230429	-0.840387	2.13737	0.323926	9.949426	-0.789254	0.577938	-5.533638	0.030792	-0.330937	-0.932197	9.522483	2.567707	1.867452	0.445882	3.808331	4.574914	-0.536654	-0.520657	-0.512469
-3.0344	-0.076215	9.673459	-7.651077	9.579314	-2.214404	0.338838	0.237518	-0.815302	1.731671	0.493577	9.827826	-0.956077	-0.290086	-4.401775	0.095671	-0.330562	-0.933575	9.276109	2.74025	1.32463	-0.923333	4.669022	6.654134	-0.508421	-0.487864	-0.514002
-2.929048	0.266421	9.222309	-8.537989	10.258192	-2.814185	0.381171	0.270993	-0.851333	1.802642	0.43766	10.452023	-1.734509	-0.646459	-2.987864	0.0695	-0.316464	-0.919678	8.980333	2.56645	1.258479	-3.387513	5.183339	6.35496	-0.495001	-0.519219	-0.527786
-2.92319	-0.134463	9.504885	-7.921412	11.127072	-3.292534	0.353687	0.2615	-0.861295	1.852978	1.056951	10.170556	-2.35851	-0.972421	-1.234413	0.00543	-0.328944	-0.960345	9.213522	2.855795	1.144303	-5.327051	5.82285	5.961595	-0.508563	-0.486212	-0.545058
-3.208597	0.210635	9.557619	-8.163923	11.431146	-3.102882	0.353301	0.275271	-0.864711	2.367332	1.112169	10.011565	-2.832603	-1.721108	-0.194085	0.057114	-0.314395	-0.948102	9.204718	2.853817	0.665048	-5.288032	6.242087	6.845822	-0.5224	-0.487242	-0.5296
-3.156745	-0.020379	9.273502	-6.602038	11.035123	-2.776461	0.381571	0.239923	-0.830426	2.024788	0.887589	10.117401	-3.611164	-2.192698	0.078052	0.056894	-0.300146	-0.934756	9.450511	1.983868	1.085089	-5.379596	6.14683	7.152254	-0.494234	-0.472294	-0.499241
-2.92884	-0.020786	9.221102	-5.044805	9.150122	-1.247497	0.354073	0.247729	-0.857879	2.194828	0.380148	9.950682	-3.306466	-2.497244	0.352722	0.018111	-0.329941	-0.946271	8.745464	1.57945	1.189967	-6.160521	5.480209	6.271893	-0.522817	-0.519627	-0.527926
-2.991745	0.092932	8.936206	-2.725783	6.655454	0.14668	0.396092	0.208478	-0.809867	1.908556	0.831426	10.058296	-2.379671	-2.514339	0.075845	0.044138	-0.31447	-0.947826	8.802995	2.218151	1.193787	-6.446832	4.937094	5.450286	-0.550216	-0.48765	-0.529741
-3.16458	0.035373	8.875771	-0.471681	3.732669	1.319401	0.366322	0.247012	-0.80534	2.309874	1.055946	10.010309	-0.706231	-2.09412	0.019713	0.043548	-0.316614	-0.919126	9.104678	2.21896	1.558731	-6.330289	4.205262	5.269971	-0.494513	-0.48766	-0.513932
-3.09747	0.267269	9.389528	1.106032	0.687599	2.154732	0.35443	0.268556	-0.889447	2.023017	0.549511	10.003837	1.313152	-1.179552	0.06126	0.018481	-0.313548	-0.961624	8.871354	1.98769	1.673154	-5.220872	3.371972	6.370245	-0.521912	-0.455683	-0.515747
-2.579829	0.095054	9.512531	2.442277	-1.336497	2.301995	0.337695	0.261532	-0.808058	1.786496	0.662366	9.715898	3.797249	-0.166309	-0.01915	0.043548	-0.316614	-0.919126	9.38945	2.390288	1.025813	-4.083072	2.760807	6.70525	-0.509051	-0.51777	-0.558912
-2.823322	0.092084	8.768987	3.694553	-2.132098	2.500133	0.395677	0.256848	-0.848267	1.908449	0.887757	10.058343	5.551181	1.669492	-0.70853	0.044584	-0.282757	-0.964183	9.103442	2.276788	1.499071	-4.001535	2.161005	5.576935	-0.494304	-0.471467	-0.514769
-3.217422	0.093821	9.102311	4.148138	-2.800844	2.027947	0.366322	0.247012	-0.80534	1.848704	1.394792	10.000922	5.071734	2.77137	-1.345348	0.01737	-0.362725	-0.915564	9.810826	2.623624	1.51376	-4.196176	1.961342	4.111518	-0.522888	-0.518801	-0.543454
-3.2661	0.555325	9.557953	4.267681	-3.104465	1.74666	0.396063	0.243077	-0.844851	1.669833	0.831525	9.656983	5.23088	3.169954	-1.032976	0.031162	-0.314545	-0.94755	10.049767	2.333199	1.636739	-4.356412	2.065481	2.858489	-0.508145	-0.453827	-0.546732
-3.034441	-0.018773	9.6737	4.176145	-2.793053	1.353305	0.367065	0.254069	-0.833492	1.733766	0.662663	9.941248	3.406287	3.022561	-0.789285	0.043472	-0.331934	-0.918123	10.10191	2.447732	1.278893	-4.206979	2.447615	1.450207	-0.536312	-0.468775	-0.577091
-3.036834	0.21051	9.560959	3.963526	-2.36137	1.146259	0.381171	0.270993	-0.851333	2.083	0.549498	10.118325	1.577665	2.539268	-0.764734	0.031162	-0.314545	-0.94755	9.871483	2.391432	1.573778	-3.839136	3.477645	-0.420384	-0.550078	-0.470631	-0.546106
-2.982097	0.612077	9.450056	3.535022	-1.989373	0.693521	0.381571	0.239923	-0.830426	2.256474	0.774544	10.178781	-0.09724	2.025458	-0.462911	0.056819	-0.315467	-0.933752	9.752796	3.146938	1.634698	-3.00115	4.029055	-0.212111	-0.550424	-0.503843	-0.528904
-3.151384	0.268035	9.558974	1.179856	-0.730642	-0.137943	0.382314	0.24698	-0.858578	1.439894	0.662965	9.652005	-1.925108	1.603491	-0.437749	0.018186	-0.31462	-0.947274	10.163417	2.796795	1.461197	-2.689793	4.179647	0.122234	-0.550078	-0.470631	-0.546106
-2.754151	0.554228	9.397415	-0.620324	0.959163	-0.810663	0.395291	0.270619	-0.851683	2.130464	0.774333	9.666607	-2.146825	1.200094	-0.133658	0.017816	-0.331012	-0.931921	9.750034	2.913892	1.453989	-1.857129	3.778664	0.732392	-0.550078	-0.470631	-0.546106
-3.317456	0.097041	9.839175	-1.837649	2.33706	-0.846101	0.368208	0.230055	-0.840737	1.968971	0.606091	10.172594	-2.49524	0.521158	-0.14069	0.044063	-0.32979	-0.946822	9.579298	2.567077	1.748738	-2.41766	2.327904	1.811057	-0.522538	-0.504261	-0.513236
-3.152249	-0.076856	9.500673	-2.873559	3.253446	-0.766889	0.366693	0.25054	-0.819416	1.900418	0.662103	9.661677	-2.654935	0.11975	-0.021497	0.057045	-0.269506	-0.936763	9.509838	2.797291	1.209465	-3.071697	0.940841	2.614695	-0.508701	-0.50323	-0.528693
-3.100687	0.094221	9.218245	-3.117569	3.43669	-0.763209	0.381171	0.270993	-0.851333	1.569208	0.83231	10.334241	-2.628329	-0.217173	-0.024826	0.031608	-0.282832	-0.963907	9.393446	2.565505	1.266182	-3.768287	0.07274	0.543059	-0.52303	-0.517148	-0.57451
-2.871835	0.323821	9.223664	-2.816151	2.607675	-0.716214	0.366679	0.26784	-0.836908	1.906246	0.775001	9.944969	-2.25822	-0.272994	-0.148396	0.018036	-0.345261	-0.945267	9.404566	2.045045	1.803119	-3.438623	-0.063227	-0.985628	-0.508772	-0.502404	-0.544221
-2.816641	0.093531	9.110106	-1.566787	1.006804	0.020872	0.395677	0.256848	-0.848267	2.366446	0.94313	9.954783	-1.703602	-0.388196	-0.210751	0.031087	-0.329866	-0.946547	9.155026	2.158771	1.080329	-3.320146	-0.208795	-1.657738	-0.522817	-0.519627	-0.527926
-3.164622	0.092815	8.876013	-0.411756	-0.775421	0.448601	0.367436	0.257597	-0.847568	1.79023	0.606177	9.88577	-1.548663	-0.355169	-0.271954	0.031087	-0.329866	-0.946547	9.744512	2.447801	1.092569	-3.692415	-0.392086	-1.808327	-0.550495	-0.503016	-0.544432
-3.044753	0.381146	9.163712	0.714847	-2.094734	0.699927	0.339238	0.206448	-0.794395	2.364136	0.886705	9.841456	-1.149143	-0.532856	-0.458368	0.05778	-0.296931	-0.977805	9.276785	2.44987	1.323393	-4.241931	-0.404485	-0.797714	-0.53617	-0.470427	-0.546036
-2.93144	0.495705	9.109568	1.967167	-3.172142	1.353503	0.381585	0.222624	-0.812934	1.90657	0.606009	9.944827	-1.086263	-0.440479	-0.395743	0.018997	-0.326725	-0.98932	9.218849	1.985397	1.320315	-4.420944	-0.478622	0.395239	-0.53617	-0.470427	-0.546036
-3.094995	-0.076897	9.501786	2.97324	-4.091128	1.48901	0.354816	0.254785	-0.886031	1.50767	0.381584	10.106094	-0.781414	-0.772869	-0.552943	0.018261	-0.2993	-0.948278	9.220644	2.160119	1.440871	-4.144026	-0.84911	0.823886	-0.536449	-0.485794	-0.560726
-3.213958	-0.077779	9.272147	3.73831	-4.491244	1.848317	0.366307	0.264311	-0.822832	1.902728	0.718528	9.775003	-0.841331	-0.62073	-0.489822	0.043843	-0.315542	-0.933476	9.272092	2.100177	1.022376	-4.357474	-1.102796	1.620513	-0.54994	-0.453613	-0.562471
-2.925417	-0.134946	9.391179	4.073935	-4.704449	1.813218	0.367808	0.261125	-0.861644	2.308103	0.717868	9.896745	-0.284453	-0.49504	0.128437	0.031162	-0.314545	-0.94755	9.04236	2.218353	1.37791	-4.476133	-1.236314	2.660735	-0.508563	-0.486212	-0.545058
-2.521461	0.095254	9.570498	4.441646	-4.921684	2.145972	0.381171	0.270993	-0.851333	2.247689	0.943203	9.782446	0.834948	0.100699	0.289402	0.030647	-0.301368	-0.919854	9.276785	2.44987	1.323393	-3.785942	-1.349599	4.981626	-0.536028	-0.47208	-0.51498
-3.033452	0.153792	9.731277	5.238863	-5.200814	2.691156	0.35373	0.209602	-0.80882	2.078165	0.549308	9.891767	2.324873	0.642828	-0.012289	0.056819	-0.315467	-0.933752	9.519567	1.927882	1.625105	-2.440073	-0.699922	7.693885	-0.494237	-0.453623	-0.546662
-2.810085	0.267304	9.451948	5.545278	-5.418335	3.02408	0.382314	0.24698	-0.858578	2.080367	0.662064	10.005141	3.387073	1.5767	-0.094633	-0.008061	-0.315842	-0.932373	9.998184	2.451216	2.055481	-1.130561	-0.13298	9.520335	-0.549936	-0.472284	-0.51505
-3.152166	-0.191739	9.50019	6.309747	-5.910651	3.381887	0.337337	0.240705	-0.77649	1.904175	1.225598	9.888709	4.571249	2.475231	0.778442	0.00462	-0.316839	-0.918299	10.048801	2.274875	1.576585	0.235333	0.382148	10.460454	-0.522609	-0.503434	-0.528763
-3.439884	0.267759	9.4397	6.675783	-6.216955	3.43719	0.352558	0.268214	-0.836559	2.300742	0.773914	9.556955	5.160334	2.722761	1.58291	0.031307	-0.344114	-0.959893	10.166408	1.983978	1.517643	1.282669	0.729339	9.782565	-0.522333	-0.469397	-0.561493
-2.813384	0.209138	9.281148	6.882427	-7.257388	3.113014	0.396449	0.229306	-0.841435	2.422025	0.717605	9.842523	4.049649	2.859558	1.953315	0.030641	-0.361578	-0.93019	10.172876	2.043537	1.877331	2.385661	0.932945	8.21878	-0.564261	-0.504873	-0.513446
-3.095534	0.669843	9.504923	7.673168	-8.394259	3.398935	0.368608	0.198985	-0.819829	2.075532	0.661874	9.778582	2.654753	2.473946	1.948358	0.018117	-0.269731	-0.935936	10.288552	1.635993	1.698081	2.427959	0.504269	5.317042	-0.494304	-0.471467	-0.514769
-2.469034	0.611222	9.346371	8.979893	-10.234173	3.549277	0.367836	0.226527	-0.826661	2.190447	0.77432	9.781095	1.538675	2.153191	1.944271	-0.021112	-0.331238	-0.931094	10.167914	1.809997	1.576808	1.665079	0.203581	1.592466	-0.549448	-0.440725	-0.501196
-3.105638	0.782555	8.993728	10.800332	-12.958417	3.285094	0.339209	0.241047	-0.829378	2.0127	0.887114	9.551005	0.206488	1.830496	1.816677	0.043768	-0.330862	-0.932473	10.169014	1.810244	1.636715	1.307542	0.113102	-1.614909	-0.521636	-0.421646	-0.548477
-2.93375	0.610106	8.996344	13.504471	-16.728359	3.430716	0.382286	0.281578	-0.893561	2.078727	0.887338	9.948691	-1.06193	1.633457	1.351274	0.056894	-0.300146	-0.934756	9.807234	2.274179	1.272649	2.159618	0.417046	-4.094982	-0.550078	-0.470631	-0.546106
-2.985935	1.300652	9.282392	16.045991	-17.054902	3.448761	0.368951	0.237112	-0.868889	1.673675	0.719007	9.826807	-1.374071	1.355166	1.101631	0.00477	-0.286198	-0.920306	9.749744	2.565189	1.392598	3.972255	1.088036	-6.244061	-0.521915	-0.437012	-0.563167
-2.759884	0.782788	9.114115	16.363302	-19.688119	2.669039	0.381557	0.257222	-0.847918	2.072683	0.887101	9.665493	-1.402433	1.511116	0.640736	0.044213	-0.29915	-0.94883	8.975236	2.390985	0.958203	5.605915	1.560639	-7.016264	-0.536032	-0.453409	-0.5624
-2.060624	0.842386	9.753102	17.682762	-19.029592	2.062592	0.339209	0.241047	-0.829378	1.904152	0.605914	9.831548	-1.366786	1.822582	-0.034356	0.031162	-0.314545	-0.94755	9.450802	2.332571	1.14648	7.243986	1.993828	-6.93258	-0.494304	-0.471467	-0.514769
-2.857318	0.269516	9.962513	13.172431	-15.116823	2.139162	0.338809	0.272117	-0.850286	1.735429	1.057072	10.054859	-1.147215	2.042997	-0.494409	0.017891	-0.315692	-0.932925	9.62814	2.680869	1.211171	8.29563	2.115544	-6.509112	-0.522124	-0.453204	-0.56233
-2.790534	-0.590218	10.414831	7.783956	-9.110765	1.577591	0.353701	0.2442	-0.843803	1.909095	0.549774	10.058059	-1.179632	1.862844	-1.143616	0.043912	-0.360431	-0.944815	9.453003	2.333065	1.266293	8.60944	1.764719	-5.011062	-0.550775	-0.518383	-0.559122
-2.571004	0.211867	9.967839	3.246744	-4.051807	0.84484	0.340353	0.217033	-0.836622	2.153085	0.324542	10.68574	-1.156258	1.337308	-0.439777	0.044289	-0.283829	-0.949833	9.510243	2.623063	1.208723	8.057649	1.446107	-3.968443	-0.508145	-0.453827	-0.546732
-2.801301	0.441558	9.907497	-0.378757	0.031748	-0.243738	0.340338	0.234332	-0.854114	2.260101	0.774686	10.3487	-0.42692	0.395906	-0.417724	0.043843	-0.315542	-0.933476	9.100972	2.392446	1.379752	7.165269	1.160019	-3.230358	-0.535961	-0.454235	-0.546873
-2.512678	0.269509	10.026047	-3.308645	2.580216	-1.205932	0.326989	0.207165	-0.846933	1.5691	0.88864	10.334288	0.029088	-0.152195	-0.114526	0.070385	-0.313248	-0.962727	9.22242	1.869986	1.499541	4.980483	1.050605	-2.274495	-0.536237	-0.488272	-0.514143
-2.806087	0.900125	9.682015	-4.833002	3.989491	-1.423986	0.339581	0.244575	-0.843454	1.911274	0.042846	10.114272	0.765906	-0.539219	-0.45689	0.018701	-0.327797	-0.97497	9.402095	2.160703	1.683799	2.061292	1.176311	-0.64471	-0.536721	-0.538502	-0.480576
-2.523196	0.956636	9.517265	-5.56624	4.542697	-1.719566	0.354102	0.21313	-0.822896	1.788244	0.38076	9.772301	1.073364	-0.657557	-0.519476	-0.020742	-0.314845	-0.946447	8.858844	2.159199	1.01492	-0.919564	0.742987	1.782632	-0.494864	-0.5022	-0.544151
-2.817796	0.150732	9.053494	-5.288555	4.507344	-1.199581	0.369723	0.209569	-0.862057	1.907455	0.775048	10.001609	1.255921	-0.898915	-0.768353	0.031307	-0.344114	-0.959893	8.926104	1.92849	1.434379	-4.174833	0.396021	4.638499	-0.508701	-0.50323	-0.528693
-2.756461	0.668629	9.284192	-3.975796	3.651975	-1.125257	0.312469	0.23861	-0.867492	1.914254	0.380972	10.284475	1.409728	-0.957682	-0.861298	0.018557	-0.298228	-0.962628	9.276899	1.926938	1.261261	-7.490686	-0.139431	7.954021	-0.480326	-0.47209	-0.499171
-2.641911	0.611105	9.286177	-2.908643	2.483624	-0.656627	0.367065	0.254069	-0.833492	1.910112	1.282165	10.171955	1.069737	-0.991451	-1.046876	0.044213	-0.29915	-0.94883	9.219524	1.695016	1.319079	-10.165387	-0.753603	10.228457	-0.522191	-0.471049	-0.530438
-2.752955	0.439587	9.453786	-1.380918	1.565353	-0.369269	0.339609	0.209976	-0.808471	2.076525	0.774583	9.835317	0.915618	-0.962947	-1.015888	0.057334	-0.328644	-0.961448	9.454488	1.694229	1.263574	-11.36118	-0.832661	11.547484	-0.522609	-0.503434	-0.528763
-2.817305	1.012596	9.113967	-0.527345	0.643583	-0.049359	0.369723	0.209569	-0.862057	2.653172	0.886213	9.90414	0.419248	-1.094496	-0.616831	0.017966	-0.300372	-0.933928	9.634027	2.043022	1.448079	-10.53139	-0.762499	10.963397	-0.549798	-0.455265	-0.531415
-2.925997	0.669236	9.394557	0.390052	-0.03483	0.519665	0.367822	0.243826	-0.844153	1.908687	1.394779	10.11541	0.171824	-1.09904	-0.401279	0.031087	-0.329866	-0.946547	9.753565	1.868771	1.509445	-8.575147	-0.69203	7.777197	-0.536028	-0.47208	-0.51498
-2.816973	0.553064	9.112036	0.909471	-0.434693	0.757014	0.354845	0.220187	-0.851048	2.086196	0.774962	10.288434	0.760686	-0.881365	0.279577	0.030792	-0.330937	-0.932197	10.045345	1.867354	1.335227	-6.333244	-0.418731	5.781078	-0.536308	-0.487446	-0.529671
-3.155056	0.726843	9.390345	1.152502	-0.865534	0.902651	0.354445	0.251257	-0.871955	1.907886	0.549726	10.001419	1.164881	-0.662419	0.405392	0.031533	-0.298153	-0.962904	10.282645	1.808985	1.399288	-4.211651	0.127855	3.936941	-0.563781	-0.435972	-0.594434
-2.865154	0.325269	9.564782	1.152742	-0.86623	0.963974	0.368608	0.198985	-0.819829	1.500093	0.550291	9.766399	1.139794	-0.23169	0.132202	0.005135	-0.330016	-0.945995	10.054844	2.043807	1.875131	-2.124777	0.371272	1.819335	-0.509189	-0.534789	-0.542547
-2.581564	0.956436	9.459298	0.788746	-0.315467	1.035309	0.338824	0.254818	-0.832794	1.670611	1.056895	9.713812	0.184922	-0.057234	-0.267597	0.018406	-0.328869	-0.960621	9.879186	2.393163	1.993126	-0.464678	1.038555	-0.023648	-0.5224	-0.487242	-0.5296
-2.636095	0.267662	9.568995	-0.309035	0.508447	1.113194	0.325075	0.258721	-0.846521	2.195606	0.605518	10.007511	-0.523226	0.146795	-0.019513	0.005581	-0.298303	-0.962352	9.813142	2.101187	1.571442	0.670346	1.395221	-1.588158	-0.522467	-0.505087	-0.497708
-2.470064	0.496097	9.289035	-1.589609	1.48481	1.224751	0.383071	0.236737	-0.869238	2.311969	1.225033	10.12373	-1.203446	0.07805	-0.205712	0.031012	-0.345186	-0.945543	9.993492	2.101524	1.754464	1.163245	2.174034	-2.785591	-0.522542	-0.485589	-0.560656
-2.754068	0.439345	9.396933	-2.899367	2.863665	1.066924	0.381943	0.243451	-0.844502	2.478813	0.492128	9.786903	-1.851758	0.129538	0.040903	0.00521	-0.314695	-0.946999	9.290375	1.813753	1.97965	1.132536	2.701517	-3.521487	-0.52212	-0.471876	-0.51491
-3.093431	0.84265	9.619353	-4.886282	3.809473	0.873341	0.367808	0.261125	-0.861644	2.022933	1.225524	10.061046	-2.223856	0.003181	-0.114794	0.045099	-0.295934	-0.991879	9.280471	1.811528	1.440488	0.580903	3.189907	-3.613506	-0.550011	-0.452786	-0.577998
-3.036917	0.325393	9.561442	-5.249502	4.827453	0.400246	0.339209	0.241047	-0.829378	2.481577	0.942915	9.957201	-2.10406	-0.301297	-0.210209	0.070165	-0.299	-0.949381	9.340722	1.753564	1.501248	-0.184016	3.424289	-2.878365	-0.522191	-0.471049	-0.530438
-3.152581	0.382677	9.502603	-5.12493	5.041405	0.556704	0.325846	0.231179	-0.839689	2.133313	0.549105	9.779697	-2.260834	-0.515698	-0.551576	-0.008727	-0.333306	-0.90267	9.575977	2.10148	1.507133	-1.223941	3.652946	-1.683759	-0.54994	-0.453613	-0.562471
-2.75411	0.496787	9.397174	-4.668035	4.676167	0.426781	0.367822	0.243826	-0.844153	2.138148	0.549295	10.006255	-2.387724	-0.763592	-0.400003	0.032048	-0.311329	-0.990599	9.396437	1.752687	1.322628	-1.95638	3.604878	-0.244433	-0.536308	-0.487446	-0.529671
-2.930203	0.323622	9.165697	-3.847855	3.762262	0.041553	0.351801	0.278457	-0.825899	1.909873	0.775143	10.114888	-2.513212	-0.918284	-0.43247	0.031382	-0.328794	-0.960896	9.625089	2.09912	0.969071	-2.906321	3.279778	1.288709	-0.522404	-0.468571	-0.577021
-2.924801	0.554594	9.450928	-3.05884	2.787095	-0.375251	0.354459	0.233958	-0.854463	2.359409	0.830185	9.614851	-2.610143	-1.227923	-0.158174	0.018111	-0.329941	-0.946271	9.573911	2.04291	1.387072	-3.616772	2.813964	1.721391	-0.535753	-0.438042	-0.54771
-2.922657	0.66996	9.565117	-2.204939	2.240019	-0.570608	0.339967	0.230804	-0.840038	2.136616	0.718239	9.949758	-2.610688	-1.259393	-0.035175	0.056599	-0.301218	-0.920406	9.391225	2.100155	1.084483	-4.022088	2.541626	1.296273	-0.550354	-0.504669	-0.513376
-2.583626	0.726188	9.344627	-2.174728	2.210126	-0.632517	0.409798	0.256473	-0.848616	1.449111	0.268983	10.048151	-2.456918	-1.318361	-0.097294	0.017596	-0.316764	-0.918575	9.922641	1.982787	1.093893	-4.799021	2.488392	0.260196	-0.493958	-0.438256	-0.531971
-2.983044	0.38207	9.392237	-2.205223	2.272142	-0.692757	0.339209	0.241047	-0.829378	1.904822	0.887614	9.888425	-2.272721	-1.408005	-0.098037	0.005581	-0.298303	-0.962352	9.388599	1.809033	0.903526	-5.206776	2.375939	-0.838051	-0.522053	-0.454031	-0.546802
-2.811198	0.267062	9.395095	-2.204414	2.551507	-0.933564	0.368565	0.250883	-0.872304	1.89964	0.436733	9.604847	-1.747126	-1.370676	-0.097243	0.017741	-0.346333	-0.930917	9.632502	1.752147	1.327029	-4.845228	1.989689	-1.815519	-0.522053	-0.454031	-0.546802
-2.97987	0.61256	9.563762	-2.325818	2.641391	-0.778413	0.32546	0.24495	-0.843105	2.190663	0.661659	9.781	-1.498218	-1.243873	-0.249922	0.043988	-0.345111	-0.945819	9.461766	1.405332	1.621779	-4.754586	1.776208	-1.845391	-0.521845	-0.437838	-0.54764
-2.867298	0.209903	9.450594	-2.5082	3.105677	-1.13836	0.325832	0.248478	-0.857181	1.661263	0.887524	9.260553	-1.091135	-0.809466	-0.245275	0.043698	-0.285973	-0.921134	9.691673	2.158792	1.389767	-5.12215	1.677119	-1.262899	-0.522329	-0.488068	-0.514073
-2.985023	0.036938	9.277083	-2.354674	3.074271	-1.01664	0.382686	0.250508	-0.872654	1.958545	1.000025	9.71981	-0.131076	-0.641977	-0.551118	0.032123	-0.296009	-0.991603	9.697175	2.160028	1.689302	-6.003778	2.022697	0.511286	-0.564057	-0.470009	-0.561704
-2.474684	0.724898	9.062588	-2.232779	2.889063	-0.897328	0.368565	0.250883	-0.872304	2.133228	1.225119	9.836905	0.126366	0.130601	-0.974821	0.070015	-0.32964	-0.947374	9.638004	1.753383	1.626564	-6.274984	2.071846	1.581743	-0.521915	-0.437012	-0.563167
-2.986716	0.840878	9.223609	-1.806967	2.399709	-0.937175	0.325103	0.224122	-0.811537	1.902189	1.000181	9.77524	0.253452	0.436805	-0.663394	0.031307	-0.344114	-0.959893	9.875864	1.927566	1.751521	-6.115667	2.342035	2.130017	-0.536516	-0.503639	-0.528834
-2.867671	0.726877	9.452765	-0.982108	1.72261	-0.521201	0.35223	0.212788	-0.770008	1.901627	0.66215	9.718316	0.129567	0.462279	-0.108335	0.057485	-0.298003	-0.963455	10.279364	2.273099	1.281452	-5.253053	2.470652	1.820645	-0.535473	-0.422676	-0.533019
-2.811613	0.841478	9.397508	-0.34361	0.582283	0.010452	0.326232	0.217408	-0.836273	1.904822	0.887614	9.888425	0.193852	0.705161	0.387381	0.031903	-0.28176	-0.978257	9.223385	1.928309	1.559695	-4.734447	2.452034	0.840833	-0.522191	-0.471049	-0.530438
-3.219033	0.782879	9.048354	0.418014	-0.33992	0.330619	0.382714	0.215909	-0.83767	2.194074	0.774462	9.951014	0.072653	0.887783	0.358272	0.004915	-0.315767	-0.932649	9.636498	1.927364	1.567399	-4.218271	1.848112	0.261149	-0.522049	-0.472702	-0.499382
-3.213051	0.20967	9.330206	0.843513	-0.953598	0.411424	0.367836	0.226527	-0.826661	1.902943	0.605867	9.774908	-0.051742	0.824684	0.388372	0.004915	-0.315767	-0.932649	9.576267	2.450184	1.568523	-3.700345	1.209819	0.048379	-0.55022	-0.468979	-0.577161
-3.098833	0.611677	9.334123	1.178937	-1.103598	0.224014	0.32546	0.24495	-0.843105	2.307218	0.548829	9.839963	0.043239	0.980995	0.11255	0.017741	-0.346333	-0.930917	9.636519	2.39222	1.629283	-3.090447	0.697057	-0.440388	-0.508705	-0.484559	-0.576114
-2.806869	0.440352	9.623232	1.545607	-1.255194	0.189826	0.326589	0.238235	-0.867841	1.850452	1.113187	10.057324	0.323819	1.169518	-0.03949	0.00528	-0.359585	-0.958338	9.75345	2.391702	1.571577	-2.480471	0.215201	-0.959864	-0.536241	-0.469601	-0.561563
-2.575541	0.325786	9.740909	1.819984	-1.50011	0.215724	0.353687	0.2615	-0.861295	2.195175	0.83084	10.007701	0.29425	1.261925	-0.161907	0.017671	-0.301443	-0.919579	9.579278	2.102222	1.686854	-1.680446	0.096987	-1.084448	-0.53617	-0.470427	-0.546036
-2.745119	0.383834	9.851516	2.000648	-2.022044	0.23739	0.354859	0.202887	-0.833556	2.020168	0.774738	9.890748	-0.044222	1.350614	-0.315438	0.018186	-0.31462	-0.947274	9.577638	2.334279	1.627936	-0.818994	-0.051594	-1.209109	-0.52212	-0.471876	-0.51491
-2.587008	0.782905	9.174309	2.794252	-2.791495	0.65195	0.368194	0.247354	-0.858228	2.369619	0.548911	10.06773	0.015111	1.166806	-0.224734	0.019147	-0.296084	-0.991327	9.514645	2.624052	1.448351	-0.511374	-0.204378	-1.117806	-0.535682	-0.438869	-0.532182
-2.922657	0.66996	9.565117	3.741144	-3.341283	0.732293	0.367808	0.261125	-0.861644	2.251747	0.718024	9.952175	0.601672	1.172039	0.114899	0.031457	-0.313473	-0.9619	9.635148	2.508125	1.569871	-0.907939	-0.369169	-0.107013	-0.480467	-0.470437	-0.530227
-3.09442	0.670084	9.561776	5.144397	-4.411376	0.802866	0.339581	0.244575	-0.843454	1.91052	0.43716	10.114604	0.661979	1.050567	0.052083	0.017891	-0.315692	-0.932925	9.453428	2.623693	1.327436	-1.458411	-0.56605	0.996188	-0.508145	-0.453827	-0.546732
-2.647685	0.897106	9.003118	6.302003	-5.669099	1.055103	0.353344	0.223373	-0.812236	1.856365	0.550071	10.283408	1.123987	0.963244	0.236556	0.017445	-0.347405	-0.916568	9.691383	1.810088	1.328377	-2.599877	-0.972542	1.460709	-0.52212	-0.471876	-0.51491
-2.70032	0.668346	9.228452	7.640948	-7.169051	1.05754	0.325075	0.258721	-0.846521	2.247127	0.605173	9.725522	1.251343	1.242203	0.023635	0.070165	-0.299	-0.949381	9.689607	2.100221	1.269706	-2.91247	-1.151828	0.943123	-0.550775	-0.518383	-0.559122
-2.473446	0.552815	9.118717	9.931928	-8.388675	1.123128	0.339981	0.213505	-0.822547	1.79187	0.380903	9.94222	1.096092	1.150262	-0.285685	0.005505	-0.313623	-0.961348	9.868587	2.216463	1.393316	-2.978853	-1.174128	0.118269	-0.522195	-0.452378	-0.577858
-2.527526	0.783346	9.289128	10.382021	-9.829936	1.006406	0.354087	0.230429	-0.840387	1.731025	0.83156	9.828111	0.849952	1.209664	-0.470261	0.044729	-0.312326	-0.976525	9.695785	1.811077	1.568005	-2.399825	-0.817571	-1.627603	-0.54959	-0.439073	-0.532252
-3.043929	0.783478	9.222254	10.224882	-10.288866	0.754058	0.328118	0.20045	-0.871669	1.909981	0.718813	10.114841	0.546741	1.636458	-0.682057	0.057855	-0.28161	-0.978808	9.342113	2.102515	1.622545	-2.24789	-0.502297	-2.485405	-0.535886	-0.473732	-0.483924
-2.932595	0.552905	9.052956	9.920789	-10.015438	0.912716	0.355573	0.244543	-0.896691	1.906678	0.549679	9.94478	0.517485	1.787779	-0.433951	0.044364	-0.268509	-0.950837	9.570204	2.216396	1.208093	-2.013392	-0.912953	-4.104084	-0.564194	-0.487028	-0.545339
-2.700403	0.783229	9.228935	10.479765	-9.533302	1.992311	0.35523	0.206416	-0.847632	1.843846	0.774919	9.717202	0.771849	2.343883	-0.582357	0.018852	-0.297156	-0.976978	9.636384	2.450296	1.629531	-2.361809	-1.362294	-5.139777	-0.522124	-0.453204	-0.56233
-2.697104	0.841395	9.399735	9.166222	-9.238731	2.583562	0.324703	0.255192	-0.832445	2.073784	0.943479	9.72218	1.210368	2.810142	-0.70068	0.044358	-0.328719	-0.961172	8.983344	2.218488	1.376809	-3.106258	-1.760093	-5.379675	-0.522053	-0.454031	-0.546802
-2.411697	0.496297	9.347002	7.396086	-7.828448	2.182231	0.35443	0.268556	-0.889447	2.245595	0.774117	9.669025	1.561233	3.673659	-0.784296	0.004915	-0.315767	-0.932649	9.403445	1.579943	1.681327	-4.190078	-2.65547	-4.943615	-0.521982	-0.454857	-0.531275
-2.980942	0.554877	9.506667	7.187304	-6.969628	2.258124	0.34071	0.237861	-0.86819	1.907779	0.606057	10.001467	1.351055	4.132086	-0.964874	0.030792	-0.330937	-0.932197	9.693584	1.810583	1.448191	-5.983839	-4.017582	-3.983203	-0.521845	-0.437838	-0.54764
-2.354401	0.438814	9.347874	6.670437	-6.326674	2.270061	0.341481	0.210319	-0.861359	1.800355	1.000918	10.395858	0.862129	4.526059	-1.207974	0.019367	-0.310333	-1.004673	9.98936	1.984383	1.514342	-7.228711	-5.148753	-4.462285	-0.522191	-0.471049	-0.530438
-2.579172	0.727153	9.572039	5.994579	-6.450319	2.055324	0.339209	0.241047	-0.829378	1.971173	0.718847	10.285969	-0.097147	4.391252	-1.210087	0.030942	-0.300297	-0.934204	9.699491	1.637591	1.746984	-7.982928	-5.869461	-6.014756	-0.521565	-0.422472	-0.532949
-2.636385	0.669752	9.570684	5.351762	-5.453888	0.662655	0.368565	0.250883	-0.872304	1.916456	0.493728	10.397849	-0.564651	4.106376	-0.750875	0.044289	-0.283829	-0.949833	10.049206	2.100647	1.575843	-8.337907	-6.213154	-8.395597	-0.54994	-0.453613	-0.562471
-2.352174	0.439297	9.46158	4.588555	-4.840034	0.429486	0.340353	0.217033	-0.836622	1.908125	1.056748	10.058486	-0.879593	3.698991	-0.015306	0.018261	-0.2993	-0.948278	9.928008	2.0421	1.393675	-8.15828	-6.295427	-9.251555	-0.536032	-0.453409	-0.5624
-2.238695	0.324089	9.406471	3.795505	-4.291266	0.502023	0.354859	0.202887	-0.833556	1.845162	0.718636	9.773794	-0.610002	3.085811	0.502892	0.032198	-0.280689	-0.992607	9.224081	2.102785	1.620344	-7.481951	-6.692842	-9.038183	-0.54994	-0.453613	-0.562471
-2.923522	0.325069	9.506816	3.032454	-3.70919	0.36034	0.312483	0.22131	-0.85	2.076956	0.549261	9.835127	-0.857623	3.051609	0.564008	0.044879	-0.281685	-0.978533	9.582289	1.75426	1.805184	-6.278818	-7.093414	-8.337731	-0.508425	-0.469193	-0.561423
-2.290838	0.957194	9.692278	2.239638	-2.816807	-0.052226	0.340367	0.199734	-0.819131	1.905815	1.000323	9.945159	-1.046846	2.771466	0.838524	0.031828	-0.297081	-0.977253	9.576787	1.753024	1.50565	-5.475536	-7.373074	-7.636404	-0.577894	-0.47104	-0.546246
-2.864496	0.957367	9.62429	1.660358	-2.327463	-0.073274	0.355602	0.209944	-0.861708	2.312508	0.94338	10.123493	-1.540377	2.797872	0.530108	0.044358	-0.328719	-0.961172	9.27773	2.043338	1.321663	-4.272514	-7.618182	-7.181175	-0.563564	-0.457122	-0.50043
-2.41207	1.013271	9.349174	0.743672	-2.245817	0.482714	0.31324	0.211068	-0.86066	2.123642	0.548726	9.32658	-1.880411	2.763902	0.375356	0.044283	-0.344039	-0.960168	9.578292	1.579043	1.564815	-3.068686	-7.740623	-6.757094	-0.521982	-0.454857	-0.531275
-2.531032	1.012389	9.119534	1.051527	-2.029262	0.485347	0.35483	0.237486	-0.868539	1.909981	0.718813	10.114841	-2.68464	2.691376	0.528128	0.031307	-0.344114	-0.959893	10.053318	1.752933	1.754081	-2.119065	-7.818547	-7.768678	-0.507724	-0.440113	-0.500986
-2.863916	0.153186	9.620911	1.114304	-2.408887	1.460365	0.340338	0.234332	-0.854114	1.790338	0.549847	9.885722	-3.153242	2.286255	0.616207	0.044213	-0.29915	-0.94883	9.693023	1.578031	1.387295	-1.395763	-8.374047	-9.999578	-0.508492	-0.487038	-0.52953
-2.980284	1.186975	9.566175	1.081987	-2.498097	1.182999	0.326604	0.220936	-0.850349	2.204499	0.380528	10.403799	-3.284067	1.788821	1.412688	0.031457	-0.313473	-0.9619	9.691113	1.92624	1.328871	-1.106566	-9.454242	-11.920762	-0.508279	-0.489517	-0.482947
-2.810499	0.841719	9.454361	1.080983	-2.463888	0.87688	0.313969	0.235424	-0.906304	1.909981	0.718813	10.114841	-3.205608	0.742366	2.17305	0.043548	-0.316614	-0.919126	9.744492	1.982945	1.030685	-2.172101	-10.573993	-13.439549	-0.536446	-0.504465	-0.513306
-2.81384	0.840995	9.283802	0.55654	-2.925913	0.74821	0.369351	0.206041	-0.847981	1.618419	0.77554	9.938925	-2.632485	-0.238709	3.273573	0.058	-0.311179	-0.991151	9.217478	2.101301	1.260903	-2.657659	-11.835741	-15.815395	-0.53582	-0.455887	-0.515817
-2.874393	0.782871	9.111888	1.049319	-2.6802	0.965459	0.311354	0.228025	-0.825264	2.03027	0.549795	10.343675	-1.499135	-0.933528	3.884142	0.031237	-0.299225	-0.948554	9.93351	2.043336	1.693209	-3.602976	-12.731783	-18.221834	-0.536729	-0.50116	-0.575417
-2.57913	0.669711	9.571798	1.266093	-2.310064	0.940183	0.35523	0.206416	-0.847632	2.019283	0.605699	9.833966	-0.297026	-1.133098	3.913954	0.005951	-0.281911	-0.977705	9.452827	1.461431	1.142771	-5.102422	-12.727747	-16.168992	-0.522955	-0.536646	-0.511561
-2.746315	0.498476	9.795146	1.543256	-2.062224	0.882078	0.354459	0.233958	-0.854463	1.447363	0.550588	9.991748	1.560399	-0.803533	4.01121	0.004545	-0.332159	-0.917296	9.696325	1.578773	1.567016	-5.502144	-12.824417	-15.830935	-0.536516	-0.503639	-0.528834
-2.230492	1.302525	9.865398	0.628176	-1.672214	1.351066	0.314398	0.169755	-0.850413	1.78464	1.000301	9.659543	3.799603	0.332854	3.376917	0.044509	-0.298078	-0.963179	9.405106	1.812741	1.80213	-5.896376	-12.310605	-15.373573	-0.522679	-0.502608	-0.544291
-2.577359	1.30205	9.688158	-0.105071	-1.181502	1.146478	0.368994	0.185213	-0.816413	1.662926	1.281932	9.374165	5.488003	1.804722	1.943983	0.044949	-0.326575	-0.989871	9.58532	1.871154	1.985399	-4.385291	-11.15367	-11.381258	-0.578449	-0.520443	-0.528207
-2.575665	0.49811	9.741633	-0.621141	-0.353129	1.069423	0.341496	0.193019	-0.843867	2.070265	0.887007	9.552214	5.013272	3.274773	1.279999	0.056964	-0.345036	-0.946094	9.886308	1.697487	2.289694	-2.4459	-10.144014	-7.786957	-0.522471	-0.486416	-0.545128
-2.459137	0.785717	9.858773	-1.350811	0.659326	0.934639	0.326632	0.186337	-0.815366	2.239227	0.942871	9.385969	4.599942	4.800885	1.541467	0.057039	-0.329715	-0.947098	9.707194	1.639321	2.166332	-0.634285	-8.846898	-5.41593	-0.52275	-0.501782	-0.559819
-2.63061	0.383751	9.853743	-2.322986	1.975863	0.989501	0.31324	0.211068	-0.86066	1.901842	0.549489	9.718221	3.401794	5.307289	1.483882	0.018261	-0.2993	-0.948278	9.526979	1.580909	1.983063	0.217042	-7.203185	-4.357199	-0.536658	-0.501986	-0.559889
-2.748708	0.727759	9.682405	-3.110968	3.417568	0.923197	0.326218	0.234707	-0.853765	1.897007	0.549299	9.491663	1.802215	5.838254	1.58036	0.018331	-0.344189	-0.959617	9.532887	1.407917	2.281855	1.126888	-5.553246	-3.879378	-0.550216	-0.48765	-0.529741
-2.634241	0.785118	9.684873	-3.869268	4.517887	1.157936	0.326618	0.203637	-0.832857	2.432474	0.943354	10.352469	0.687071	5.63694	2.070712	0.057485	-0.298003	-0.963455	9.635938	1.694813	1.506503	1.477352	-3.927994	-4.163461	-0.481094	-0.519015	-0.527716
-2.229995	0.613227	9.862503	-5.240691	5.803551	1.060108	0.368194	0.247354	-0.858228	2.135946	0.436539	9.892881	-0.085592	5.625532	2.316603	0.017301	-0.317836	-0.904225	9.812987	1.694408	1.509804	1.113403	-2.885207	-4.564423	-0.522679	-0.502608	-0.544291
-2.517463	0.728076	9.800565	-6.857274	7.400935	0.477367	0.339195	0.258346	-0.84687	2.130895	0.54901	9.666417	-0.837929	4.757735	2.27654	0.031602	-0.343042	-0.974242	9.580763	1.463386	1.684134	0.800717	-2.691749	-5.633871	-0.550216	-0.48765	-0.529741
-2.567788	0.384916	10.139122	-9.785627	10.226252	-0.510995	0.338438	0.268589	-0.83621	1.743868	0.43772	10.394175	-1.215289	4.20309	1.962439	0.018111	-0.329941	-0.946271	9.816733	2.450632	1.812553	0.482061	-2.828465	-7.312935	-0.549727	-0.456091	-0.515887
-2.51404	0.613917	9.970641	-13.723618	13.416968	-1.613191	0.355588	0.227243	-0.8792	2.135299	0.774522	9.893165	-0.513881	3.505822	2.11021	0.043843	-0.315542	-0.933476	9.455473	2.217408	1.385613	-0.551076	-3.237043	-9.568744	-0.522609	-0.503434	-0.528763
-2.683203	0.09755	10.078835	-19.094683	18.08116	-3.147346	0.353716	0.226901	-0.826312	1.842421	0.887532	9.660657	-0.699987	3.442343	2.078601	0.043773	-0.270653	-0.922137	9.105758	1.754351	1.556753	-0.460581	-3.170804	-10.027795	-0.480743	-0.504475	-0.497497
-2.678666	-0.016368	10.305765	-23.481119	23.458351	-4.826104	0.383457	0.222966	-0.865822	2.075077	0.267513	9.721611	0.536481	3.518947	2.142014	0.017816	-0.331012	-0.931921	9.395087	2.333448	1.3251	1.253617	-2.392404	-7.806787	-0.508283	-0.470845	-0.530367
-2.907518	-0.245969	10.300346	-29.09737	28.90263	-7.512331	0.354459	0.233958	-0.854463	1.789021	0.60613	9.82913	0.512795	4.014214	1.376215	0.030942	-0.300297	-0.934204	8.863692	2.91567	1.377575	2.447116	-0.815206	-6.10721	-0.522471	-0.486416	-0.545128
-2.557684	0.272204	10.650317	-36.552367	34.336122	-10.009464	0.355602	0.209944	-0.861708	1.840758	0.493124	9.547046	0.61448	4.692215	1.043929	0.031237	-0.299225	-0.948554	9.272923	2.216577	1.082777	3.210474	0.974896	-4.43763	-0.522679	-0.502608	-0.544291
-3.125816	0.331025	10.866836	-42.339144	41.523091	-11.992208	0.396449	0.229306	-0.841435	1.675315	0.493732	9.883257	-0.243888	5.231381	1.326053	-0.00747	-0.313698	-0.961073	9.158057	2.275664	1.260544	2.991607	2.535676	-1.632569	-0.495139	-0.536237	-0.511421
-2.914707	-0.177629	12.857863	-40.084137	59.900296	-13.816197	0.381957	0.226152	-0.82701	1.557335	0.719175	9.76775	-0.212329	5.321149	1.727738	0.017816	-0.331012	-0.931921	8.974946	2.042282	0.896812	2.58198	3.578925	0.870084	-0.52177	-0.457336	-0.484691
-2.987758	0.106242	12.062013	-34.977159	74.494955	-17.028741	0.353716	0.226901	-0.826312	1.68082	0.775622	10.166692	-0.585399	5.132461	1.725561	0.030867	-0.315617	-0.9332	9.212131	2.506845	1.023006	1.483058	3.678065	2.737953	-0.508768	-0.521075	-0.4968
-3.365368	1.949969	13.312708	-20.253941	83.463513	-13.398167	0.381171	0.270993	-0.851333	1.507777	0.325253	10.106046	-0.404947	4.708334	1.289894	0.056674	-0.285898	-0.921409	9.687427	2.564582	1.211777	1.362136	3.641987	3.227581	-0.522746	-0.520453	-0.512398
-3.354269	0.458661	13.818112	18.445892	84.368203	-1.503163	0.352172	0.281985	-0.839975	2.023017	0.549511	10.003837	0.73911	4.785171	1.137438	0.031237	-0.299225	-0.948554	10.17002	2.798278	1.820639	1.262203	3.190054	2.527137	-0.508768	-0.521075	-0.4968
-3.195536	-0.003891	13.137285	14.053187	89.769954	2.645456	0.382328	0.22968	-0.841086	1.681013	0.043277	10.109436	0.430636	4.812318	1.075804	0.057334	-0.328644	-0.961448	10.459578	2.331512	1.464722	0.841459	2.605498	-0.249797	-0.536166	-0.489099	-0.498615
-2.950847	-0.115562	13.937199	20.465605	100.113211	3.531173	0.380442	0.246637	-0.80569	2.369295	0.717903	10.067872	0.280845	5.206978	1.387889	0.044509	-0.298078	-0.963179	10.287067	2.27483	1.700801	-1.401659	1.647956	-3.079413	-0.50863	-0.504057	-0.513165
-2.837824	0.401087	13.884745	24.156323	112.209885	3.073211	0.408683	0.245888	-0.806388	1.909442	1.000465	10.115078	-0.024467	5.565591	2.223571	0.057334	-0.328644	-0.961448	9.737349	2.213766	0.672232	-3.864835	0.790868	-6.825487	-0.508842	-0.501578	-0.559749
-3.225326	0.519155	14.55967	26.068481	124.457516	2.070816	0.409469	0.201047	-0.782065	2.022371	0.887494	10.004122	-0.422737	5.864317	2.657817	0.057039	-0.329715	-0.947098	9.80737	2.216103	1.272402	-5.200129	0.648913	-8.348025	-0.536587	-0.502812	-0.544361
-3.629732	-0.63035	14.319637	28.115926	137.606764	2.830748	0.464394	0.271932	-0.814617	1.848358	0.9441	9.943903	-1.009103	5.917393	2.781186	0.018481	-0.313548	-0.961624	9.392056	2.216554	1.144885	-6.021161	1.307228	-7.217437	-0.536934	-0.536023	-0.527159
-3.56184	0.061319	14.892177	30.17736	152.028598	5.083365	0.450673	0.241236	-0.79336	2.079397	1.169038	10.005568	-1.476341	5.547975	2.098915	0.056819	-0.315467	-0.933752	9.564007	2.040685	0.84791	-5.440162	2.00492	-3.49436	-0.550354	-0.504669	-0.513376
-3.283689	-1.032207	14.438335	39.927758	166.553864	6.702177	0.465551	0.230619	-0.804369	1.558891	1.169914	9.881408	-2.099886	4.995229	1.01393	0.018331	-0.344189	-0.959617	9.029	1.808607	0.597389	-5.277604	2.237899	-2.304136	-0.508976	-0.537268	-0.495963
-3.165591	-1.376215	14.609674	49.794789	179.937041	8.792738	0.478572	0.20236	-0.744999	1.729493	1.000504	9.771614	-3.066625	4.162997	-0.19742	0.044358	-0.328719	-0.961172	9.084985	1.691578	0.418275	-5.28169	1.997278	-2.700282	-0.536375	-0.505291	-0.497778
-3.646927	-1.495833	13.406368	62.07787	191.496082	12.870598	0.492678	0.219285	-0.76284	1.797722	1.113484	10.282674	-4.893003	3.691583	-1.991603	0.017816	-0.331012	-0.931921	9.74225	1.05274	0.787101	-5.055952	1.078799	0.420669	-0.550212	-0.506321	-0.48232
-3.619861	-1.330064	11.873172	68.226135	198.474734	14.77565	0.535082	0.166263	-0.711412	1.737285	0.719136	10.111214	-5.578659	3.079133	-3.447157	0.057114	-0.314395	-0.948102	9.569448	0.647354	0.96179	-5.398024	0.089571	1.312958	-0.522609	-0.503434	-0.528763
-4.899092	-0.356747	10.886275	75.854035	194.690079	13.097534	0.548803	0.196959	-0.732669	1.62049	0.324943	9.995185	-5.241781	2.810283	-3.881149	0.044358	-0.328719	-0.961172	9.515644	0.300022	1.198834	-4.424985	-0.905612	0.275039	-0.522471	-0.486416	-0.545128
-6.436432	1.714438	11.376576	98.693169	162.950701	-0.947153	0.561837	0.151401	-0.655807	1.911944	0.324546	10.171148	-5.090937	2.421052	-5.025528	0.069424	-0.331784	-0.918674	9.33709	0.474408	1.136367	-1.100478	-1.411132	0.020908	-0.508909	-0.519423	-0.527856
-5.842265	1.706262	9.569525	134.261953	126.182658	-16.39959	0.588949	0.157366	-0.631769	1.90493	0.831284	9.888377	-4.387298	1.878508	-5.092012	0.044063	-0.32979	-0.946822	9.33738	0.823112	1.197758	1.814631	-2.305347	-1.238453	-0.536446	-0.504465	-0.513306
1.478415	0.008291	3.396588	116.153425	114.194567	-15.100836	0.604599	0.119207	-0.635947	1.395519	0.719925	10.273879	-2.542119	1.28511	-4.541528	0.005801	-0.312551	-0.975698	9.925631	1.16997	1.150338	2.273318	-4.34894	-4.5922	-0.522467	-0.505087	-0.497708
6.15826	-1.422178	5.584312	39.153895	84.781737	-26.767236	0.617962	0.129075	-0.625636	2.026189	0.155292	10.116784	-0.29708	0.630444	-3.220633	0.070015	-0.32964	-0.947374	10.114245	1.404589	1.813605	4.332613	-5.325932	-9.973748	-0.536304	-0.506117	-0.48225
7.605298	-3.085883	6.344242	17.160746	57.671988	-43.187405	0.631711	0.125172	-0.611909	1.620059	0.550265	9.995375	1.643642	0.396937	-1.248404	0.058	-0.311179	-0.991151	10.346312	1.228832	1.577637	7.564687	-5.928179	-15.697249	-0.522955	-0.536646	-0.511561
7.530134	-3.59433	8.329701	11.353203	12.035529	-59.190016	0.63134	0.121644	-0.597833	2.318205	0.492926	10.349672	3.921839	-0.0449	0.413751	0.044433	-0.313398	-0.962176	10.348378	1.287402	1.697698	11.581724	-4.719237	-15.870359	-0.523097	-0.534993	-0.542617
5.202228	-5.324362	6.288064	12.436717	-24.810943	-59.424021	0.604227	0.115678	-0.621871	1.855156	0.550024	10.226769	5.21719	-0.125665	1.215522	0.030942	-0.300297	-0.934204	10.409616	1.752617	1.880497	14.155444	-3.716282	-20.284882	-0.536375	-0.505291	-0.497778
4.310281	-4.801417	7.523188	-6.698407	-69.766395	-44.699529	0.646589	0.114555	-0.622918	1.795735	0.888067	10.169205	5.127744	0.119082	1.125399	0.044358	-0.328719	-0.961172	10.042989	1.46008	1.153776	14.646983	-3.027999	-21.603929	-0.522959	-0.517974	-0.558982
2.924542	-4.113537	6.930829	-23.547559	-81.450696	-16.314506	0.602327	0.149935	-0.603966	2.184295	0.830413	9.497945	4.72527	0.023602	0.8775	0.031533	-0.298153	-0.962904	9.566323	1.518248	0.905592	13.779132	-3.081335	-16.74178	-0.508835	-0.53892	-0.464908
3.439625	-3.826702	6.942057	-43.2496	-92.396756	10.828595	0.632083	0.1287	-0.625985	1.553385	0.888024	9.597973	4.197116	-0.227576	0.751265	0.031162	-0.314545	-0.94755	9.681459	1.343008	0.72733	12.631482	-3.255502	-12.122332	-0.509185	-0.55346	-0.495126
4.12486	-2.850935	6.902668	-59.352131	-107.230777	32.466702	0.561837	0.151401	-0.655807	1.38738	0.550601	9.87726	3.941388	-0.962647	0.127188	0.05778	-0.296931	-0.977805	9.624778	1.285561	0.845796	13.021635	-2.919888	-8.947075	-0.50863	-0.504057	-0.513165
4.962338	-1.694723	8.799235	-64.201628	-124.283807	42.812405	0.604185	0.167576	-0.674346	2.091462	0.54983	10.514802	4.30061	-1.905545	-0.34432	0.044063	-0.32979	-0.946822	10.148896	0.992235	0.435116	14.265109	-2.810434	-7.271251	-0.495415	-0.570275	-0.478691
5.427215	-0.37221	9.211665	-61.467708	-137.89303	42.675514	0.548074	0.172603	-0.687025	2.021138	0.267763	9.890321	6.205171	-2.710818	-0.10417	0.06928	-0.302215	-0.906332	9.679393	1.284437	0.607269	15.037729	-2.842033	-6.907164	-0.522813	-0.538298	-0.480506
5.371814	0.145288	9.326429	-58.123774	-146.385925	33.636312	0.548074	0.172603	-0.687025	1.902835	0.662197	9.774956	5.314952	-2.291662	-0.285687	0.044804	-0.297006	-0.977529	9.686265	1.169769	0.966216	16.798657	-2.90414	-6.210336	-0.508697	-0.521902	-0.481273
5.077541	0.431014	8.924097	-59.08444	-149.377344	20.436086	0.547317	0.182846	-0.676365	1.799231	0.324857	10.28201	5.989501	-2.68189	-0.258197	0.043252	-0.317686	-0.904777	9.806208	0.82129	1.02684	17.362513	-2.018531	-5.880428	-0.536304	-0.506117	-0.48225
4.523801	0.607854	9.880188	-60.383411	-151.177154	5.0778	0.521362	0.135567	-0.690155	1.268192	0.775997	9.705113	6.65941	-3.439904	-0.265195	0.044433	-0.313398	-0.962176	9.680473	0.819829	0.605291	18.201747	-1.189945	-5.85686	-0.522746	-0.520453	-0.512398
3.494086	0.953491	9.918446	-59.851082	-154.792422	-9.457906	0.520947	0.183937	-0.728555	1.72632	1.394723	9.658666	7.047925	-4.476635	-0.398503	0.0824	-0.331709	-0.91895	9.746767	0.530797	0.964597	17.894259	-0.2923	-6.990799	-0.509185	-0.55346	-0.495126
2.743388	0.550491	9.561163	-58.64794	-160.586417	-21.455742	0.479715	0.178346	-0.752243	1.728391	0.944126	9.714927	4.578242	-4.412775	-0.893104	0.06987	-0.300071	-0.935031	9.091817	0.647198	0.653452	16.847251	0.135965	-7.355785	-0.494931	-0.520045	-0.512258
2.247809	1.014739	10.576428	-55.837592	-166.50467	-29.994947	0.478557	0.219659	-0.76249	1.616564	1.113475	9.88257	3.859734	-5.093218	-1.393696	0.018331	-0.344189	-0.959617	9.440567	1.051932	0.422158	14.473934	-0.153868	-6.765145	-0.495202	-0.572754	-0.432108
0.873952	0.671084	10.548256	-49.81174	-169.918441	-35.681081	0.465966	0.182249	-0.76597	1.904822	0.887614	9.888425	4.102046	-5.544837	-2.19952	0.056744	-0.330787	-0.932748	9.333384	0.647895	0.957388	11.663406	-0.807281	-6.660166	-0.523026	-0.535819	-0.527089
0.308378	0.270856	10.876551	-44.348122	-171.608844	-38.975794	0.421661	0.269528	-0.799493	1.845809	0.380653	9.77351	3.47836	-6.098425	-3.161192	0.044063	-0.32979	-0.946822	9.032801	0.647333	0.652352	9.618641	-1.510272	-7.413435	-0.522258	-0.488894	-0.498545
-0.608599	-0.01593	10.800675	-42.010307	-174.382436	-40.254588	0.408297	0.259659	-0.809804	1.565366	0.944829	10.164417	3.292173	-6.276924	-4.365403	0.044283	-0.344039	-0.960168	8.678704	0.648144	0.645749	8.373967	-2.052072	-8.6899	-0.53693	-0.554695	-0.479739
-1.859863	-0.76007	11.171013	-40.921815	-177.371849	-39.294	0.409426	0.252945	-0.83454	1.794634	0.831689	10.112518	2.940721	-7.286778	-5.362216	0.030867	-0.315617	-0.9332	9.147147	1.285405	0.537458	7.842159	-2.38098	-9.603224	-0.509602	-0.585845	-0.493452
-2.085375	-0.988946	11.336153	-41.414828	-179.183604	-37.052066	0.380414	0.281236	-0.840673	1.620814	0.155951	9.995043	3.138186	-8.813732	-5.932139	0.031162	-0.314545	-0.94755	9.267785	1.111402	0.658731	8.828204	-2.096772	-10.127679	-0.509118	-0.535615	-0.527019
-3.057918	-0.528468	11.376008	-42.807817	-178.989389	-33.057233	0.393405	0.287576	-0.816286	1.906462	0.66234	9.944875	2.850471	-9.64083	-6.618804	0.07031	-0.328569	-0.961723	8.903784	1.109987	0.112967	10.428726	-1.557751	-11.419577	-0.467461	-0.552848	-0.494916
-2.988457	-0.468414	12.002746	-44.152547	-177.091958	-27.347947	0.323917	0.300034	-0.856768	2.144108	1.225546	10.346662	3.554907	-10.121879	-6.715503	0.030641	-0.361578	-0.93019	9.139849	1.109447	0.117368	12.24412	-1.078186	-12.803636	-0.509185	-0.55346	-0.495126
-3.391216	-0.813256	11.879798	-44.745145	-173.641126	-19.990187	0.35253	0.302813	-0.871543	2.596254	0.548338	9.902647	5.098651	-10.193072	-6.899935	0.044729	-0.312326	-0.976525	8.786292	0.877953	0.109777	12.902022	-0.102041	-12.321719	-0.509461	-0.587498	-0.462396
-4.142039	-1.043931	11.523239	-46.184281	-169.50826	-10.748361	0.28267	0.311742	-0.897948	2.021054	0.943777	9.94753	4.849278	-10.436913	-7.611596	0.019072	-0.311404	-0.990324	9.613754	0.818233	0.184843	13.237884	1.27498	-9.304044	-0.467599	-0.569867	-0.478551
-3.624315	-1.331029	11.64576	-48.236679	-165.81651	-0.837747	0.295262	0.349153	-0.894469	2.25505	0.887157	10.122237	3.018051	-11.191618	-8.298781	0.069349	-0.347105	-0.917671	9.139289	0.876895	0.056472	13.442396	3.539527	-3.417256	-0.53693	-0.554695	-0.479739
-3.453996	-0.871862	11.594178	-49.401547	-161.897051	8.337432	0.268164	0.325888	-0.901015	1.448703	1.113988	10.105501	0.348308	-12.237343	-8.311326	0.030792	-0.330937	-0.932197	9.551166	0.933779	0.004516	14.226394	5.787285	1.336947	-0.50911	-0.572958	-0.432178
-4.545337	-0.642032	11.403427	-50.044366	-156.537009	15.448787	0.225059	0.319955	-0.871816	1.903829	0.774906	9.83169	-3.181789	-12.868532	-7.734718	0.057409	-0.313323	-0.962451	9.377264	0.528146	0.119298	14.725103	7.986764	4.74777	-0.509118	-0.535615	-0.527019
-5.176249	-0.641818	11.334326	-47.98786	-148.788497	19.156486	0.196789	0.355303	-0.906101	1.846048	0.887675	9.830576	-7.067096	-14.614708	-6.152167	0.030491	-0.392219	-0.928182	9.432033	0.933802	-0.057592	15.383858	9.240803	4.983912	-0.551188	-0.569439	-0.510028
-5.810378	-0.814652	11.093941	-45.468818	-138.415155	19.379039	0.211296	0.341157	-0.903034	1.569147	2.128007	10.448611	-14.415595	-16.705851	-5.439004	0.030867	-0.315617	-0.9332	9.36682	0.758225	-0.418875	15.355332	9.639954	4.82929	-0.495695	-0.585641	-0.493382
-7.532879	-0.239958	10.835537	-47.697468	-125.915378	17.227298	0.21241	0.351742	-0.945262	1.906893	0.437018	9.944685	-15.584621	-20.56652	1.211339	0.043843	-0.315542	-0.933476	9.379735	0.412489	0.238617	14.046485	8.698951	3.677092	-0.495277	-0.553256	-0.495056
-8.911937	0.44937	10.584297	-48.535291	-109.809906	12.186226	0.140279	0.3914	-0.939687	1.904775	-0.351752	9.774102	-17.128822	-24.999203	5.481987	0.043768	-0.330862	-0.932473	9.614294	0.585929	0.183854	11.148698	7.258962	5.864506	-0.495557	-0.568622	-0.509747
-11.425445	1.831238	10.882213	-46.14468	-91.024959	5.277918	0.155185	0.346184	-0.915713	2.428	-1.141207	9.954237	-21.05115	-29.657959	6.850624	-0.007986	-0.300522	-0.933377	9.616204	0.23772	0.242277	7.990714	6.34403	10.434475	-0.467461	-0.552848	-0.494916
-12.977338	2.463008	10.570538	-38.628488	-75.058196	-3.285949	0.182626	0.407576	-0.958227	1.92876	0.381541	10.96415	-24.642335	-35.21697	5.805956	0.018557	-0.298228	-0.962628	10.257794	-0.288427	-0.227098	7.578744	5.342472	15.453578	-0.509811	-0.602038	-0.492615
-15.213809	2.751108	10.357759	-24.848959	-62.072781	-12.162073	0.154413	0.373726	-0.922545	2.166406	0.944747	11.365937	-30.307918	-40.852837	7.780051	-0.008727	-0.333306	-0.90267	9.71798	-0.347266	-0.716505	5.486994	4.704525	17.267645	-0.509602	-0.585845	-0.493452
-16.250904	2.52064	9.995633	-9.067191	-48.484844	-19.194337	0.154399	0.391025	-0.940037	2.339318	0.831762	11.369469	-31.683047	-46.685824	10.68051	0.005656	-0.282982	-0.963356	10.54237	-1.453589	-0.945423	4.773998	3.74336	12.353609	-0.495695	-0.585641	-0.493382
-26.783723	10.206957	18.972852	1.997241	35.942457	-30.184231	0.139907	0.387872	-0.925611	2.985919	0.155085	11.948594	-21.921412	-53.92819	11.479574	-0.00754	-0.268809	-0.949734	10.535787	-0.990217	-1.24298	5.133301	1.802249	2.000162	-0.537072	-0.553042	-0.510794
-20.904594	5.380593	6.280021	51.827323	138.169968	-45.229779	0.155928	0.353241	-0.943865	1.963039	0.157547	12.549869	-16.345768	-67.379183	10.70295	-0.033422	-0.313848	-0.960521	10.525728	-1.399222	-1.84378	7.887355	0.010221	-16.032345	-0.495273	-0.571927	-0.447635
-27.665249	13.624796	12.093631	22.877023	219.112281	-95.772155	0.170034	0.370165	-0.961706	2.543013	1.057994	12.845915	-9.992128	-82.355794	14.721102	0.00484	-0.331087	-0.931645	10.351367	0.286871	-1.48047	9.444652	-2.635344	-31.792787	-0.495765	-0.584815	-0.50891
2.461625	11.914431	7.330365	125.420666	246.590255	-121.060597	0.196761	0.389902	-0.941084	2.722606	2.75035	16.021573	16.432194	-85.022159	-0.081838	-0.033938	-0.300672	-0.932825	10.116044	4.703662	-0.867013	20.253496	-5.718635	-52.317997	-0.467808	-0.586059	-0.477714
-4.608572	-11.234293	19.42747	78.058588	205.100182	-80.63299	0.255529	0.340376	-0.95697	2.568104	1.455688	16.753171	17.513078	-106.453935	4.700218	-0.060034	-0.271253	-0.919931	10.912487	6.335452	0.951422	25.85506	-12.587486	-72.344752	-0.523302	-0.569857	-0.494359
-4.632599	-4.173085	18.490648	126.850802	136.98941	-56.723685	0.239894	0.361236	-0.9353	2.183279	1.457154	17.594302	28.447322	-127.940211	8.379904	-0.046989	-0.316067	-0.931546	11.285696	6.164617	1.9757	15.015504	-18.015029	-45.121996	-0.481783	-0.604108	-0.445891
-2.293889	4.276216	6.751027	114.237307	131.807025	-16.67983	0.269635	0.357301	-0.974811	2.63409	-0.175431	19.697055	39.767465	-151.079809	7.080111	-0.072865	-0.300897	-0.931998	11.004935	3.321297	2.377432	-0.439073	-20.821559	8.057762	-0.523581	-0.585223	-0.50905
-1.348039	3.132995	8.242197	98.104721	137.728137	-0.926273	0.339152	0.310244	-0.899345	2.206352	-2.144999	21.045074	61.466924	-177.223861	-3.27379	-0.085992	-0.331613	-0.929715	11.097752	2.327554	0.877757	-7.761185	-19.275035	42.344794	-0.481716	-0.586263	-0.477784
-7.369978	3.05757	16.365155	95.827523	102.420849	44.839409	0.297534	0.318424	-0.92645	3.173775	-4.51333	20.327319	75.151298	-204.694288	-14.787666	-0.151832	-0.350524	-0.884284	12.045041	2.442287	1.07558	-14.006519	-12.510865	57.469788	-0.509673	-0.585019	-0.50898
-3.13852	0.960228	10.244106	112.354102	92.424465	49.841411	0.341038	0.293287	-0.934741	3.28453	-4.511351	22.82067	81.009767	-235.615309	-26.341791	-0.151537	-0.349452	-0.898633	12.698236	3.080875	1.389939	-20.764464	-9.160723	68.364139	-0.509811	-0.602038	-0.492615
-5.507232	-2.592169	11.887971	52.226184	56.032385	31.639996	0.368908	0.28901	-0.921364	2.611939	-5.805043	23.541388	100.966515	-272.813777	-42.354623	-0.152498	-0.367988	-0.854581	14.03719	3.422269	0.458222	-25.059924	-9.7469	67.373382	-0.509319	-0.58915	-0.431341
-3.165901	0.32234	8.820125	47.338615	34.494652	15.696258	0.369322	0.24064	-0.882965	0.99963	-6.816069	23.393405	118.741167	-313.865042	-57.204694	-0.165399	-0.352743	-0.855308	13.602784	4.057601	-0.625086	-29.464529	-10.187475	46.32405	-0.523648	-0.603068	-0.477157
-3.42388	-0.303278	10.23323	38.231606	28.859889	7.504459	0.312054	0.28698	-0.905891	-0.136287	-6.644306	24.105684	134.797697	-361.680132	-76.376354	-0.24348	-0.399154	-0.850643	13.134921	4.117746	-0.394015	-29.198968	-2.412113	16.174011	-0.523022	-0.554491	-0.479669
-2.414462	1.242555	9.236433	40.038666	24.17082	7.085712	0.326589	0.238235	-0.867841	1.382492	-5.064137	30.70622	181.564552	-402.878242	-100.265039	-0.283369	-0.417916	-0.805763	12.31943	4.238261	0.190143	-22.193035	-0.086102	-8.191293	-0.509252	-0.571305	-0.463233
-2.375811	2.330042	8.332482	35.262922	21.783759	4.23931	0.354044	0.282328	-0.892863	-2.380931	-2.187275	27.176252	295.317403	-396.717129	-115.892916	-0.311538	-0.45621	-0.702756	11.436409	4.705636	0.355335	-14.370824	-1.852031	-24.040723	-0.467461	-0.552848	-0.494916
-2.35886	1.989012	9.18383	20.338295	17.049945	3.622661	0.341796	0.283044	-0.945402	9.300316	0.548704	24.763132	297.358148	-347.682281	-63.191421	-0.364553	-0.505687	-0.655593	10.438791	5.115947	0.697799	-10.962053	-5.142815	-32.95969	-0.522743	-0.539124	-0.464978
-2.980776	0.325111	9.505702	14.833113	14.890622	2.070043	0.354044	0.282328	-0.892863	10.079248	-2.895015	17.812911	322.827704	-306.932747	-5.923452	-0.353424	-0.527363	-0.568767	9.735134	5.06048	0.923974	-12.662125	-8.497114	-34.52637	-0.494998	-0.53789	-0.480365
-2.924226	1.301575	9.510918	13.748335	12.980344	2.042119	0.368179	0.264654	-0.87572	4.408953	-5.868961	18.766868	282.589067	-284.708207	30.704448	-0.418749	-0.559451	-0.551031	9.316789	4.944037	0.616242	-20.720729	-10.922065	-27.580125	-0.523302	-0.569857	-0.494359
-2.643604	1.415045	9.232703	6.196263	9.884404	3.638913	0.383086	0.219438	-0.851746	-23.824244	-13.046951	-5.270692	238.541783	-245.060165	24.711671	-0.432761	-0.593383	-0.505699	10.032531	4.537368	0.987158	-33.30978	-13.206964	-15.025545	-0.551397	-0.585631	-0.50919
-2.469821	1.702611	9.350956	2.444327	8.52731	2.523632	0.382671	0.267807	-0.890145	-21.85667	-14.911622	-7.608808	68.997398	-82.433348	53.475793	-0.420821	-0.627164	-0.460918	10.090737	4.885689	0.989742	-40.708146	-14.255638	-7.842685	-0.523369	-0.587702	-0.462467
-2.983666	1.243693	9.395857	-0.902505	8.247999	1.394026	0.3842	0.230023	-0.893974	-5.858691	-7.996053	11.982104	-26.757865	-52.715944	65.50271	-0.446918	-0.597745	-0.448024	10.391995	4.59587	1.293542	-45.195602	-15.942722	-2.989654	-0.536788	-0.556347	-0.448683
-2.419082	1.471356	9.009986	-3.418964	7.932781	1.058802	0.355202	0.241014	-0.882615	-5.867303	-10.93053	5.921619	-78.05311	-36.949178	59.359314	-0.486731	-0.601186	-0.404148	10.869316	3.782467	1.478605	-47.1083	-16.036714	2.488467	-0.550834	-0.57357	-0.432388
-2.409801	0.956312	9.462638	-5.873001	8.334394	-0.123653	0.381542	0.274522	-0.865409	-6.635112	-8.730471	7.888929	-82.185545	-9.354052	9.623749	-0.434532	-0.599814	-0.419601	10.399658	3.66789	1.589121	-46.004456	-14.434749	4.707976	-0.522813	-0.538298	-0.480506
-2.412934	0.66838	9.290873	-8.298817	8.304875	-1.221201	0.396792	0.267433	-0.890495	-6.814968	-6.251699	7.77411	-81.147221	22.493435	-29.332948	-0.473165	-0.598967	-0.433123	9.462002	3.671534	1.930956	-41.314555	-11.100402	6.264412	-0.564399	-0.521892	-0.497081
-2.236308	1.645968	9.582581	-10.329919	8.100132	-2.966776	0.37008	0.230397	-0.893625	-8.55505	-4.446269	7.286244	-79.943968	61.6683	-50.335367	-0.434023	-0.673201	-0.457632	9.21976	3.961218	1.628255	-38.703984	-8.492082	6.334199	-0.523231	-0.570683	-0.478832
-2.638529	0.554387	9.456495	-8.34192	7.714798	-3.40812	0.396806	0.250133	-0.873003	-8.90346	-2.868367	7.280318	-78.95567	93.014235	-52.088039	-0.459599	-0.596749	-0.462098	8.928521	3.73033	1.801485	-31.419169	-5.558331	15.00497	-0.578725	-0.554481	-0.495477
-2.646696	1.069672	9.060695	-11.2876	7.835805	-4.440409	0.369308	0.257939	-0.900456	-8.606586	-1.910861	7.796925	-77.48065	113.189123	-36.905015	-0.459448	-0.566108	-0.464106	9.045027	3.439186	1.682636	-28.344166	-4.969942	18.32282	-0.53721	-0.570061	-0.49443
-2.574019	1.302774	9.858717	-9.795793	7.151997	-5.866585	0.411684	0.239516	-0.884012	-7.666549	-1.970541	6.004962	-79.340378	131.886537	-13.415597	-0.432691	-0.638272	-0.517038	8.629288	3.149009	1.493976	-26.722943	-5.402174	22.231693	-0.523093	-0.553664	-0.495196
-2.292609	0.324855	9.575917	-9.153143	6.750979	-5.476256	0.368565	0.250883	-0.872304	-6.00188	-2.030187	5.813414	-92.987601	154.349161	10.750342	-0.432981	-0.579134	-0.492353	9.104448	3.264823	1.682995	-26.196234	-6.243513	23.91507	-0.551117	-0.570265	-0.4945
-2.307375	0.723809	8.838516	-9.030812	5.90721	-4.202232	0.397935	0.243419	-0.897739	-5.361107	-2.819763	6.109247	-101.828464	172.858673	29.980008	-0.406439	-0.57684	-0.521604	8.637821	3.267139	1.973726	-28.162571	-6.080548	19.305623	-0.550842	-0.536228	-0.52723
-2.810168	0.382187	9.452431	-8.904692	5.521973	-2.706096	0.396806	0.250133	-0.873003	-4.081694	-2.65262	6.75902	-110.755122	188.839472	41.970758	-0.430764	-0.54099	-0.594808	8.347527	2.629719	2.145225	-28.190188	-5.652106	19.27311	-0.550421	-0.522514	-0.481483
-2.516184	0.498551	9.856453	-9.051602	5.346395	-0.837763	0.396778	0.284732	-0.907986	-2.57008	-3.499859	7.412776	-115.345712	204.949602	46.998734	-0.405258	-0.572553	-0.579003	8.695852	2.743825	1.852787	-26.417473	-4.65055	20.637457	-0.550629	-0.538706	-0.480646
-2.52707	0.151489	9.286474	-10.152669	4.176373	1.599819	0.368179	0.264654	-0.87572	-1.864788	-3.500583	8.106958	-119.605353	224.596237	45.402742	-0.391547	-0.599903	-0.62032	8.70367	2.222624	2.210003	-24.135153	-2.501771	17.715013	-0.536654	-0.520657	-0.512469
-2.523647	0.03733	9.456551	-9.500187	3.840775	4.352551	0.368165	0.281953	-0.893212	-0.715036	-3.953478	8.017478	-124.722759	244.269786	37.640236	-0.389694	-0.517942	-0.697087	8.526601	1.758174	2.144817	-17.119215	0.343372	11.19594	-0.536721	-0.538502	-0.480576
-2.694628	0.497228	9.511994	-12.099734	3.937283	5.618949	0.382314	0.24698	-0.858578	0.644241	-4.067242	9.687737	-131.486872	260.228427	23.241987	-0.337715	-0.502321	-0.699194	8.943441	2.048598	2.393384	-12.288267	1.959083	1.542934	-0.508976	-0.537268	-0.495963
-2.416192	0.552774	9.119831	-12.760919	4.991653	7.232659	0.411313	0.235988	-0.869936	1.814675	-3.955978	10.618243	-140.994811	271.466393	4.263154	-0.284706	-0.513054	-0.756692	8.643013	2.454816	2.149985	-7.303099	3.016548	-7.312635	-0.57789	-0.489711	-0.498826
-2.526205	0.49638	9.344775	-15.479469	6.078636	7.840813	0.396435	0.246605	-0.858927	3.110042	-3.281198	12.061398	-147.118087	278.990449	-16.105615	-0.270619	-0.463802	-0.803028	8.102058	1.46602	1.476902	-3.265588	3.279033	-13.562815	-0.55035	-0.52334	-0.465955
-2.342934	-0.018306	9.914474	-15.190681	7.795298	8.358543	0.39642	0.263904	-0.876419	3.699233	-2.774732	12.75359	-148.549676	283.890658	-33.413318	-0.244302	-0.507469	-0.829268	7.692267	1.932562	1.710805	-1.600095	2.877034	-18.48692	-0.508417	-0.506535	-0.466582
-3.089759	0.383841	9.787982	-10.342997	9.27477	7.264642	0.397149	0.28826	-0.922062	3.49572	-1.590221	14.1091	-148.032859	284.555112	-45.150866	-0.21879	-0.478822	-0.803127	7.801691	3.266804	1.419157	-1.979146	2.986072	-20.288998	-0.53721	-0.570061	-0.49443
-2.407284	0.554704	9.574655	-11.228223	9.760921	7.397757	0.426162	0.259969	-0.915929	3.800194	-0.181739	15.022564	-152.802794	278.579802	-48.75911	-0.126552	-0.428048	-0.865467	7.339716	2.689102	1.887137	-5.295161	3.068486	-23.485924	-0.591727	-0.490741	-0.483368
-2.69496	0.95676	9.513924	-10.675756	11.545384	4.757155	0.340667	0.289759	-0.920666	4.158453	0.043458	15.653043	-157.3379	265.001154	-45.476389	-0.099344	-0.40829	-0.924421	7.693658	2.281512	1.832102	-8.305708	2.384652	-20.507682	-0.579284	-0.585213	-0.524859
-2.690091	0.38331	9.738923	-12.786548	13.433007	2.769872	0.382671	0.267807	-0.890145	3.888112	0.382692	16.496877	-157.37583	250.6513	-37.419725	-0.098383	-0.389754	-0.968474	8.289321	2.281398	2.142641	-11.944087	0.509074	-17.857553	-0.53721	-0.570061	-0.49443
-2.915686	0.269316	9.904546	-12.928042	15.996097	1.646571	0.381928	0.260751	-0.861993	4.775508	-0.744682	17.533575	-159.588551	240.597502	-25.838507	-0.033428	-0.374058	-0.970856	8.409149	2.455851	2.265397	-12.124924	-0.586179	-15.529204	-0.536583	-0.521484	-0.496941
-2.399117	0.039419	9.970455	-15.794659	18.25665	1.691562	0.395649	0.291447	-0.88325	5.142252	0.100531	18.617692	-167.681098	240.457576	-5.962919	-0.007476	-0.373908	-0.971408	8.408589	2.2233	2.204501	-9.435991	-0.740912	-8.509417	-0.56475	-0.536432	-0.5273
-2.807076	0.72756	9.624438	-18.08325	20.000283	1.481147	0.368551	0.268182	-0.889796	7.466844	-0.015588	19.685466	-160.479308	230.562828	18.237178	-0.019266	-0.309486	-1.018196	8.353144	2.108024	2.382627	-0.63335	-0.331593	-0.68888	-0.508626	-0.522728	-0.465745
-3.267255	0.612526	9.501341	-19.579871	21.605449	0.254166	0.397564	0.239891	-0.883663	10.775894	0.991019	18.453726	-161.065224	218.478128	43.736104	0.045319	-0.310183	-1.005225	8.642838	1.583181	2.026463	8.737611	0.831223	8.410214	-0.55098	-0.553246	-0.510865
-2.909129	0.443089	10.246389	-24.39693	25.106944	1.18364	0.409784	0.273773	-0.866108	13.909291	2.279508	17.105317	-177.84943	208.041245	61.994169	0.110569	-0.293415	-1.021957	8.05005	1.29341	1.834502	17.703654	2.777212	15.581984	-0.550491	-0.521688	-0.497011
-3.079282	-0.245844	10.297005	-30.135415	33.590242	1.460712	0.424647	0.280455	-0.894609	17.867454	5.088265	16.794625	-202.301136	201.123369	65.667133	0.123846	-0.232058	-1.026247	8.216114	1.755388	1.300619	28.238982	4.23912	22.781362	-0.578721	-0.573152	-0.448057
-3.13101	-0.187155	10.580399	-33.825866	40.784665	2.38563	0.410555	0.246231	-0.859276	19.895741	7.507416	17.68857	-220.885466	196.07076	67.050996	0.136602	-0.217735	-1.013177	8.173179	1.468604	2.136979	37.272308	5.399802	31.975113	-0.578654	-0.555307	-0.479949
-3.198079	-0.476493	10.066401	-36.012929	47.762815	4.008052	0.39452	0.298161	-0.858514	21.591095	10.998063	19.255838	-211.411639	185.126301	68.306266	0.177232	-0.166189	-1.088764	8.817375	0.768723	1.786675	39.924722	4.884172	38.387978	-0.536442	-0.523136	-0.465885
-2.72722	0.272811	10.760683	-42.677576	56.321271	2.632984	0.451774	0.269121	-0.853079	22.272194	13.531454	19.045921	-164.621566	164.915993	69.160155	0.242187	-0.150493	-1.091146	8.638375	0.187626	1.601181	33.930134	2.712207	39.306659	-0.564955	-0.571295	-0.479042
-3.00446	0.102624	11.209216	-46.076576	69.197161	-1.502754	0.393777	0.291104	-0.830362	23.899975	14.428052	17.212631	-108.43377	138.387084	70.2979	0.241747	-0.121996	-1.064454	8.633838	0.244713	1.361801	25.796251	2.479933	35.301728	-0.550629	-0.538706	-0.480646
-3.627661	0.21941	11.538569	-47.967023	82.185949	-4.199654	0.435381	0.300223	-0.82075	25.062434	13.409942	14.971581	-58.617234	106.995792	66.325683	0.255018	-0.120849	-1.079079	8.97392	0.589392	0.651004	22.076162	1.603794	32.965401	-0.56412	-0.506526	-0.48239
-3.547396	0.741409	12.735769	-33.672492	92.937706	-3.575289	0.421632	0.304126	-0.834477	25.823576	12.167312	12.778518	-18.049401	77.440013	58.078763	0.294171	-0.074663	-1.082917	8.84913	0.1814	0.227724	16.881192	1.050713	25.497203	-0.605776	-0.489293	-0.514494
-3.978915	1.034738	14.092542	-18.923307	94.091721	3.638655	0.435767	0.286452	-0.817334	25.20796	10.307776	10.725838	8.743111	51.061485	52.072407	0.241231	-0.10882	-1.036758	9.553036	-0.344141	-0.06083	15.268346	-1.455407	21.785631	-0.564053	-0.488681	-0.514283
-3.839189	-0.868195	12.382327	-0.725649	100.844143	6.272089	0.478872	0.292385	-0.846533	22.940995	9.12809	9.544902	18.391877	25.138288	50.373247	0.319828	-0.075585	-1.069119	9.218997	-0.919888	0.948512	7.534125	-4.946204	16.542119	-0.578449	-0.520443	-0.528207
-3.708433	-0.232802	13.240004	4.762228	107.694925	11.274284	0.478129	0.285329	-0.818382	20.738549	8.737255	8.762317	15.679938	-0.707381	54.430406	0.306557	-0.076732	-1.054493	8.985039	0.068933	1.187941	-2.17115	-7.202623	15.487638	-0.536863	-0.53685	-0.511632
-4.057154	-0.750733	12.946886	7.034348	116.150757	14.287784	0.464008	0.285703	-0.818032	17.151899	8.461573	7.837534	8.42861	-21.271889	62.143818	0.306997	-0.105229	-1.081186	9.576571	-0.048322	1.258358	-5.086438	-8.571081	25.561568	-0.56447	-0.521066	-0.512609
-3.886013	0.110765	12.953846	11.278222	126.493677	16.927599	0.505641	0.260223	-0.773436	14.969465	8.353198	8.018059	2.174158	-36.62083	66.425984	0.319162	-0.093049	-1.039416	9.349695	-0.684887	1.670585	-5.716754	-8.637094	28.773966	-0.550558	-0.539533	-0.465118
-3.472326	0.745227	13.646532	9.373047	140.279801	16.789255	0.535011	0.25276	-0.798871	12.141961	8.752555	7.675956	5.35338	-44.179977	65.428421	0.305961	-0.139085	-1.036129	9.878099	-0.454293	1.561664	-3.608732	-8.18555	30.200968	-0.591306	-0.477028	-0.437622
-4.317123	1.380842	14.371574	11.632059	159.136628	15.372132	0.491906	0.246827	-0.769671	7.259036	7.013371	5.194074	21.436323	-40.824796	57.242611	0.293286	-0.077879	-1.039868	9.749602	-0.688799	0.959405	-2.106778	-6.545492	31.838503	-0.550141	-0.507148	-0.466792
-3.778403	-0.223069	15.511901	11.160067	181.341259	15.427924	0.589221	0.28199	-0.768287	-9.25331	29.3442	61.198074	169.987128	-84.913533	-51.622384	0.306852	-0.07566	-1.068843	9.580817	-0.454112	1.436348	4.271687	-4.279506	27.861027	-0.577957	-0.507556	-0.466933
-4.197176	-0.616384	17.491162	10.518941	204.376099	17.858932	0.589264	0.230092	-0.715812	-20.600633	-25.324499	4.467205	252.726317	-115.17409	45.343896	0.279714	-0.140307	-1.021228	9.491113	2.515947	3.363776	11.982838	-2.248751	8.627116	-0.564191	-0.505699	-0.497918
-4.166708	-1.803797	21.919522	6.390916	237.952769	20.594098	0.574	0.25448	-0.708218	-7.947614	2.269566	22.873822	311.201235	-250.851133	18.577643	0.279488	-0.186268	-1.018217	11.131494	9.59843	3.664379	-1.35002	-8.391376	-40.861885	-0.605426	-0.474753	-0.484275
-1.594595	0.75856	30.618576	25.501168	293.26294	21.8988	0.603013	0.226189	-0.702085	10.10615	14.834924	1.807305	150.970169	-195.159154	97.252452	0.226843	-0.219353	-0.986407	12.223575	11.274383	2.314598	-3.59589	-10.381544	-65.100897	-0.591936	-0.506934	-0.482531
-0.685286	-4.036854	24.251044	91.455978	340.789032	29.350736	0.643503	0.224723	-0.650245	11.333216	6.052251	9.97777	63.040158	-152.709903	52.988434	0.175229	-0.278791	-1.009989	12.238479	2.780809	-1.194997	24.130013	4.743431	-18.558435	-0.577677	-0.49219	-0.452242
-0.252192	-6.512961	22.885101	95.743427	383.494466	38.097346	0.658023	0.193278	-0.629686	7.73865	-0.195224	8.141726	47.457126	-68.984044	28.280207	0.149723	-0.247229	-1.025795	14.27568	2.000934	-6.011054	6.012576	17.399995	-6.32929	-0.577819	-0.490537	-0.483298
0.315484	-5.939926	22.671237	121.013227	427.31944	53.454356	0.698927	0.143442	-0.539447	-3.248567	2.079057	8.479117	64.294458	-82.142552	-14.442042	0.175524	-0.277719	-1.024339	11.536575	1.78264	-4.20665	-15.978666	17.253318	-41.145136	-0.592562	-0.555511	-0.48002
-5.79119	-3.071176	20.745974	147.313057	452.297856	58.537082	0.75541	0.141944	-0.540844	-1.015908	-0.683669	10.391838	58.656479	-117.584665	-15.045398	0.13534	-0.297552	-0.965109	7.64916	3.898494	-0.377531	-28.493577	4.925762	-45.440544	-0.578236	-0.522922	-0.481624
-12.517547	0.30483	16.423918	129.818612	411.727332	43.885571	0.768044	0.127456	-0.484889	4.853347	-0.694758	10.401868	68.292218	-105.029748	-11.275269	0.148756	-0.325975	-0.992077	7.189467	5.180708	0.457801	-13.5262	-4.811659	-0.773618	-0.60591	-0.524983	-0.450708
-16.261982	2.715485	15.281467	112.928386	335.530219	22.764072	0.766572	0.096044	-0.411093	3.481879	-0.917113	10.825781	56.115801	-81.611859	-12.963642	0.149127	-0.309582	-1.007431	8.489017	4.190197	0.417901	-3.554958	-2.888924	26.751667	-0.578165	-0.523748	-0.466096
-9.160427	-0.9785	12.448849	104.029814	295.180119	-9.484252	0.765458	0.085459	-0.368865	4.091643	0.209842	12.538007	60.300925	-62.490788	-29.940744	0.122509	-0.327196	-0.977176	9.437596	2.329604	0.427597	7.092156	3.344062	25.154885	-0.592286	-0.521474	-0.512749
3.837489	-2.596271	12.694854	109.300943	268.693638	2.674386	0.778092	0.070971	-0.312911	2.03847	-0.576578	10.625924	72.525826	-52.328478	-21.722526	0.083506	-0.342742	-0.975345	10.218261	1.749808	1.098406	10.516248	9.743017	5.029708	-0.550354	-0.504669	-0.513376
17.327382	-5.775411	-2.911838	99.439252	189.159323	-1.412429	0.848723	0.034499	-0.279673	2.732081	-1.422782	10.696359	72.413759	-40.485605	-8.441693	0.097148	-0.325203	-1.005324	10.219983	3.377173	1.404863	6.109888	11.574565	-13.880826	-0.550283	-0.505495	-0.497848
11.158798	-7.893377	-2.358786	-1.179968	68.802424	-10.655091	0.806733	0.039151	-0.292702	2.979523	0.096133	8.947857	56.097431	-26.512561	-5.510594	0.109307	-0.373233	-0.97389	10.085619	4.245369	0.627581	-1.202889	12.741576	-10.926168	-0.605359	-0.456908	-0.516168
5.713763	-4.751043	6.129939	-39.033816	13.460216	0.484446	0.791098	0.060011	-0.271032	1.170631	0.438893	10.495365	38.761684	-14.942676	-3.004943	0.083576	-0.387631	-0.986684	11.443666	3.951884	0.651655	-8.192064	13.201286	1.382757	-0.578583	-0.556133	-0.464422
7.044168	-4.104658	9.795688	-54.683944	-36.129521	13.860921	0.818596	0.052206	-0.243579	3.003377	0.266073	10.080791	40.497854	-14.028273	1.228987	0.057033	-0.389925	-0.957433	12.04039	3.022306	0.898331	-10.384916	10.682158	-1.286813	-0.550212	-0.506321	-0.48232
6.613731	-3.134134	8.313816	-49.610739	-44.663832	31.1247	0.84758	0.058513	-0.272429	2.801499	1.617286	8.832231	29.490397	-10.122354	1.536419	0.0706	-0.387706	-0.986408	11.632219	2.791936	1.129267	-8.752557	7.35555	-19.215788	-0.578098	-0.505903	-0.497989
6.89831	-2.330401	8.265908	-43.398305	-72.112274	41.269734	0.861315	0.07191	-0.276194	2.472253	1.393227	9.561103	18.285985	-7.307764	-0.479267	0.070825	-0.341745	-0.989419	11.52301	3.259039	1.668206	-1.823429	5.588446	-29.346794	-0.577819	-0.490537	-0.483298
7.187094	-1.181054	8.446861	-31.834452	-105.554977	42.348931	0.833845	0.045117	-0.268664	1.898454	1.056369	9.605369	12.654143	-5.721512	-0.776307	0.08247	-0.376599	-0.930289	10.522787	3.843084	1.891598	4.412859	5.875128	-28.301288	-0.564328	-0.522718	-0.481553
7.469196	-0.033154	8.286696	-21.152049	-138.283553	36.666339	0.848695	0.069098	-0.314657	2.186066	1.168491	9.611508	8.346136	-4.513855	-1.569294	0.08306	-0.374455	-0.958988	9.928649	4.134073	1.702109	12.524345	8.080464	-19.876896	-0.56412	-0.506526	-0.48239
6.079418	0.079346	7.464511	-14.81251	-167.150912	27.379311	0.820839	0.056076	-0.310543	1.674237	1.057037	9.883731	4.261758	-2.663312	-1.769976	0.043687	-0.406393	-0.941804	9.576753	4.135377	1.81532	16.642229	9.280842	-7.33756	-0.564679	-0.537258	-0.511772
5.55493	0.47988	7.001354	-10.223275	-196.522204	18.119338	0.851338	0.041898	-0.360713	2.362497	1.111979	9.785006	1.211106	-2.088608	-1.797544	0.08335	-0.433593	-0.983673	10.644911	3.030244	2.010152	18.135965	7.586878	3.17857	-0.578098	-0.505903	-0.497989
4.921548	-0.726902	6.756626	-14.725088	-226.569843	12.921993	0.836075	0.066287	-0.35312	1.55809	0.324861	9.767418	0.654272	-2.156793	-1.829498	0.070009	-0.38985	-0.957709	9.696926	2.741035	1.751681	19.699016	5.250938	4.803941	-0.578032	-0.488058	-0.529881
3.555977	-0.207003	7.186899	-22.190664	-248.412255	12.466194	0.795199	0.081523	-0.408376	1.565235	0.381476	10.107303	0.373142	-2.4914	-2.788717	0.031521	-0.418572	-0.983574	9.047883	2.684445	1.739329	19.05541	4.057892	1.633345	-0.578445	-0.539115	-0.480787
2.983308	-0.034264	7.176488	-27.953671	-263.524604	13.28007	0.811563	0.085019	-0.475689	1.913476	0.155602	10.227646	1.502927	-3.548378	-3.075769	0.070229	-0.404099	-0.971055	8.691295	2.336057	1.551522	18.042689	3.234387	-1.904348	-0.564817	-0.554277	-0.495407
2.302646	0.369771	7.505934	-31.457742	-271.727901	16.192844	0.810391	0.143632	-0.503428	1.736961	0.888127	10.111356	2.819664	-4.566105	-4.317944	0.0706	-0.387706	-0.986408	8.740967	2.566248	1.074356	17.578544	2.707965	-1.441718	-0.577823	-0.471866	-0.530718
1.621326	0.141709	7.775872	-32.889482	-275.964677	17.477443	0.798186	0.092451	-0.503492	2.074862	0.380174	9.721706	4.360137	-4.91208	-4.690079	0.070524	-0.403027	-0.985405	8.628012	2.277127	1.310547	15.767401	1.257725	2.117066	-0.536446	-0.504465	-0.513306
1.104549	0.658814	7.711169	-35.708194	-280.311545	17.047016	0.770245	0.183225	-0.604328	1.909311	0.437113	10.057964	6.081671	-5.650336	-5.682523	0.056883	-0.420566	-0.955426	9.204658	1.459251	0.479393	13.912729	-0.41684	3.690517	-0.578098	-0.505903	-0.497989
1.332453	0.658407	7.65877	-42.783367	-287.705397	14.923468	0.743161	0.142661	-0.593382	1.790661	0.380855	9.88558	7.380631	-5.540466	-5.896179	0.07016	-0.359209	-0.959716	8.602682	1.806585	-0.129196	9.531772	-2.263112	0.292098	-0.550767	-0.555725	-0.464281
0.999896	0.890835	8.221585	-53.938606	-294.140345	10.680596	0.730141	0.17092	-0.652753	2.300288	0.379553	9.499983	8.023343	-6.079191	-6.671712	0.043687	-0.406393	-0.941804	8.419165	1.747431	-0.492186	10.077056	-1.745842	-2.218482	-0.577961	-0.488885	-0.514353
0.158279	0.205777	9.054784	-63.67365	-298.969941	6.551588	0.702243	0.209796	-0.701114	2.770482	0.37907	9.962771	8.146918	-6.020316	-6.054473	0.056958	-0.405246	-0.95643	8.59855	1.689444	-0.369319	11.331621	-1.598765	-4.179701	-0.55035	-0.52334	-0.465955
-0.274643	0.900956	10.356393	-73.681595	-297.53864	1.083515	0.674373	0.214073	-0.714491	2.246804	0.774164	9.725664	9.526196	-6.775368	-5.136038	0.069488	-0.436883	-0.940348	8.597355	2.676984	-0.305209	10.703473	-2.141414	-11.081626	-0.551047	-0.571091	-0.478972
-0.656578	1.02023	11.315583	-74.983812	-291.982321	-3.668112	0.632726	0.256852	-0.776579	1.909526	0.324451	10.057869	9.916272	-7.546188	-3.725309	0.01825	-0.419719	-0.968948	8.131092	1.575361	-0.138989	10.707184	-1.713797	-11.022559	-0.564608	-0.538084	-0.496244
-1.55982	0.219366	11.919773	-75.772243	-288.470334	-7.043749	0.605628	0.233588	-0.783125	2.488376	0.548838	10.240067	8.774049	-7.527811	-4.065151	0.07038	-0.373458	-0.973062	8.370458	1.575563	0.045134	10.656178	-0.554464	-10.752865	-0.564261	-0.504873	-0.513446
-1.732324	-0.297725	11.857408	-76.49387	-289.240861	-9.937114	0.578116	0.258693	-0.82807	1.790769	0.324525	9.885533	7.532119	-8.148565	-5.336263	0.044717	-0.432746	-0.997196	8.429049	1.284801	-0.014909	9.862664	0.948473	-11.429487	-0.564746	-0.555103	-0.479879
-3.149168	-0.350994	12.568419	-80.208669	-289.620791	-10.51532	0.564681	0.335321	-0.92584	2.247258	1.168525	9.782636	6.259372	-8.683349	-5.743365	0.069783	-0.435812	-0.954698	8.970679	1.983217	0.656937	11.242253	3.021166	-10.252525	-0.550562	-0.520861	-0.512539
-4.051214	-1.266501	13.22898	-87.664711	-284.904728	-11.552092	0.507441	0.347062	-0.913783	2.19442	1.225153	10.008033	4.002151	-9.008767	-7.258974	0.082319	-0.407239	-0.928282	8.252156	1.691985	0.043427	12.955936	4.918497	-9.748257	-0.537418	-0.586253	-0.493592
-5.11146	-0.915033	14.630599	-95.742629	-275.305677	-14.716076	0.480329	0.341097	-0.937821	2.483217	0.71764	10.013651	2.873841	-10.252364	-6.840659	0.056292	-0.42271	-0.926726	8.728397	1.34319	0.230468	13.47386	7.543812	-9.059767	-0.564746	-0.555103	-0.479879
-6.802866	-0.218701	15.964564	-97.335889	-264.470129	-23.890362	0.452445	0.362674	-0.96869	2.766101	0.773242	9.793184	0.515567	-11.195117	-7.930898	0.057178	-0.419494	-0.969776	8.612565	1.343955	0.348081	11.941229	9.294163	-4.325577	-0.592424	-0.538492	-0.496385
-9.707787	-1.017632	16.643488	-94.422667	-252.701333	-34.872733	0.422661	0.418507	-0.981655	1.907132	0.94404	10.001751	-1.103136	-12.252747	-8.77506	0.044202	-0.419569	-0.9695	7.958561	1.053824	0.035205	10.72789	10.683285	2.915548	-0.579	-0.588518	-0.462747
-13.708341	-0.266303	16.966652	-94.319918	-244.898934	-44.562392	0.365779	0.451076	-1.001166	2.131673	0.77438	9.723247	-3.468305	-13.660756	-9.068411	0.043612	-0.421713	-0.9408	8.252541	1.052901	-0.019199	8.549898	12.089071	14.134068	-0.578725	-0.554481	-0.495477
-18.35317	0.482347	16.538478	-100.037748	-240.99497	-46.599201	0.324932	0.431714	-1.021438	2.721055	0.548502	10.358182	-6.692285	-14.732143	-10.931305	0.082464	-0.436808	-0.940624	7.945511	1.457636	-0.62204	10.206819	10.968359	25.474039	-0.578307	-0.522096	-0.497151
-22.213937	1.698675	18.173421	-99.144208	-232.251731	-44.036347	0.265391	0.508782	-1.012385	2.136724	0.661909	9.94971	-9.630343	-17.408442	-10.652004	0.031596	-0.403252	-0.984578	8.233158	1.339079	-1.03638	8.766531	10.670084	33.12319	-0.592774	-0.553032	-0.526603
-24.797855	2.790482	17.78678	-72.397861	-215.962664	-37.130845	0.223759	0.534262	-1.056981	2.372575	0.267354	10.180772	-15.234056	-20.764552	-10.07333	0.044422	-0.433818	-0.982846	8.25007	1.168559	-0.138519	6.780911	9.820214	37.720171	-0.564258	-0.523544	-0.466026
-26.809668	3.58208	14.454821	-35.598089	-190.227828	-29.11959	0.208109	0.572421	-1.052803	2.65887	0.435759	10.13032	-19.347501	-25.856528	-8.462578	0.043907	-0.420641	-0.95515	8.308485	0.006162	-0.322084	3.482227	9.000053	38.989498	-0.578236	-0.522922	-0.481624
-27.838994	2.479091	11.531799	-16.915987	-155.562208	-18.917823	0.152427	0.511779	-1.009591	2.901136	1.111816	10.75876	-24.989859	-31.99047	-5.260366	0.031897	-0.34197	-0.988592	9.081603	-0.168585	-0.008985	-0.950947	6.856386	37.701185	-0.606265	-0.520852	-0.528348
-28.508464	1.896446	9.470426	-8.395348	-118.677842	-8.283279	0.123772	0.560897	-1.047292	2.519398	1.395076	11.770047	-26.751343	-36.631642	-2.410105	0.030861	-0.375827	-0.943536	9.976188	-0.400937	0.485788	-6.236311	3.629627	34.37285	-0.606265	-0.520852	-0.528348
-27.528607	1.195304	6.872331	2.066563	-81.195224	4.133512	0.124543	0.533355	-1.04046	2.865976	0.774794	11.776779	-18.992066	-47.997763	1.39831	0.031156	-0.374755	-0.957885	9.788831	-0.228529	-0.055934	-11.415564	0.808905	27.312741	-0.564332	-0.504047	-0.528974
-35.815053	7.216854	16.511362	-24.123122	30.163123	8.011791	0.110023	0.5648	-1.061019	2.566951	0.551921	13.921641	-28.85099	-67.553639	3.693077	0.031521	-0.418572	-0.983574	9.599678	-0.230843	-0.718211	-11.656556	0.449008	17.655726	-0.549586	-0.457744	-0.484832
-29.494557	8.788447	9.082482	-28.018879	148.388157	-3.763319	0.11118	0.523487	-1.050771	2.204443	1.284247	13.178689	-24.347625	-82.422417	6.385129	0.031747	-0.372611	-0.986585	9.428847	0.410129	-0.299445	-9.358292	0.608369	14.865057	-0.578378	-0.52127	-0.512679
-33.043426	29.695536	21.604268	-26.134397	253.694924	-67.576246	0.122257	0.581383	-1.025972	2.850903	2.187303	16.589913	3.050389	-88.760369	-8.021685	0.00543	-0.328944	-0.960345	9.849339	2.444564	0.375887	-3.47003	1.558988	7.778528	-0.578449	-0.520443	-0.528207
4.546376	10.444448	-0.250556	263.736495	269.981888	-139.831409	0.179911	0.521272	-0.999629	2.440369	2.356765	16.241755	6.009268	-111.062673	-7.316105	-0.020452	-0.373983	-0.971132	10.565762	5.059579	1.179008	7.932558	0.914463	-14.722781	-0.606194	-0.521678	-0.51282
-13.754761	-0.481269	20.431498	-12.913479	193.049944	-76.210153	0.152441	0.494479	-0.992099	1.867785	1.627977	19.003181	12.094573	-137.600288	-5.601915	0.017885	-0.375902	-0.94326	10.820885	6.806511	2.448871	15.067663	-1.670455	-25.553798	-0.606265	-0.520852	-0.528348
-9.563487	-5.262599	17.992332	103.215691	137.148334	14.35226	0.208538	0.506752	-0.996912	2.35086	-0.681725	19.860502	19.389271	-171.406053	-7.812369	-0.04729	-0.377349	-0.927531	12.178351	5.815619	2.350165	11.305052	-3.873479	-0.134519	-0.605773	-0.507964	-0.467073
2.508559	3.064774	6.441521	87.067019	141.703587	74.627241	0.250142	0.515871	-0.987299	2.120087	-0.171935	22.573585	16.40616	-204.813697	-12.123326	-0.033648	-0.35981	-0.95751	12.812582	3.718946	1.275045	0.731545	-7.121681	44.182127	-0.577614	-0.455673	-0.531555
4.188774	-0.366715	10.267377	61.843692	145.634164	34.693901	0.279169	0.47028	-0.963674	2.041907	-2.42366	24.09854	28.804779	-243.068462	-16.408275	-0.099639	-0.409362	-0.910072	12.445449	1.27636	0.239642	-10.044676	-2.543103	73.951039	-0.59166	-0.472896	-0.515261
-2.405372	-7.360607	12.269189	138.445503	99.324388	15.659735	0.281055	0.453323	-0.999071	1.63797	-5.070677	23.804651	44.488052	-285.713508	-25.32721	-0.111729	-0.406221	-0.952845	11.714321	2.144424	-0.908086	-8.693125	3.832966	58.25923	-0.592215	-0.5223	-0.497222
-11.298827	-1.970401	8.424944	122.004534	60.593538	-14.087624	0.337152	0.465596	-1.003883	0.183664	-5.742228	25.698396	59.133305	-331.849278	-30.304785	-0.203817	-0.426354	-0.892512	11.406346	2.955691	-1.509196	-2.841641	8.790162	27.518711	-0.619751	-0.507342	-0.482671
-0.593492	3.466932	5.871403	-6.788904	31.024925	33.91772	0.350929	0.427094	-0.955173	-0.509772	-6.640029	28.174064	84.392567	-384.404094	-45.386468	-0.190986	-0.39671	-0.880446	11.295436	2.260285	-1.214829	-15.263779	6.580279	3.243211	-0.605776	-0.489293	-0.514494
-2.740048	-2.647498	12.90768	26.841383	26.836226	5.143018	0.294419	0.463191	-0.98876	-2.069596	-7.766398	25.083146	115.639712	-438.825113	-80.948176	-0.217308	-0.413253	-0.864541	10.993368	2.89856	-1.517146	-28.049692	2.157396	-11.236838	-0.591522	-0.455878	-0.531626
-3.213833	-0.250104	9.271423	43.528439	22.06322	1.95067	0.294819	0.432121	-0.967852	0.469879	-5.289786	28.365673	160.977942	-468.377209	-99.913958	-0.322522	-0.464102	-0.801925	11.223565	4.000723	-1.687768	-38.646121	-4.434249	-28.187847	-0.59201	-0.487436	-0.545479
-2.128113	2.678627	9.304886	44.562236	20.651411	2.200755	0.308553	0.445518	-0.971617	4.731153	-2.25563	28.79753	229.627367	-438.553091	-98.021894	-0.350031	-0.545142	-0.738956	10.886286	4.8188	-0.672492	-41.43526	-11.136006	-43.606145	-0.577614	-0.455673	-0.531555
-3.573819	0.953039	8.473866	14.429045	14.154021	1.813894	0.35243	0.423908	-0.993985	9.795765	-0.014135	26.358238	305.463709	-363.603372	-70.247419	-0.39036	-0.535406	-0.667384	10.733737	5.173348	0.703548	-42.478339	-18.824382	-42.832429	-0.619822	-0.506516	-0.498199
-3.222249	0.60983	8.877071	14.108749	11.281809	2.902832	0.324189	0.424658	-0.993287	7.563445	-5.253296	21.041615	342.454496	-363.7113	-47.439412	-0.443966	-0.587027	-0.591522	10.764529	4.715415	2.319057	-41.471296	-26.217376	-28.470898	-0.57761	-0.474345	-0.484135
-3.04162	0.669078	9.335477	7.690574	9.005091	3.190979	0.323045	0.448671	-0.986042	-8.756354	-8.838812	8.240582	286.917012	-339.544414	-17.003954	-0.457833	-0.650527	-0.558532	11.719347	3.960244	2.812705	-38.062055	-33.22431	-15.096155	-0.619405	-0.474131	-0.499873
-3.162809	0.667713	8.992132	4.808762	7.554729	5.230402	0.394034	0.433027	-0.984372	-20.954291	-16.383514	-13.988556	111.163325	-211.900304	-21.211429	-0.485626	-0.612219	-0.460543	11.91012	3.265646	3.472015	-34.311399	-34.277417	-15.471422	-0.619614	-0.490323	-0.499036
-2.409843	1.013753	9.46288	3.181996	6.990859	5.501923	0.33718	0.430997	-0.9689	-21.554356	-10.62542	-1.144663	-47.497738	-23.3092	-54.205924	-0.461451	-0.67871	-0.385331	12.371495	2.681086	2.819371	-31.445061	-32.689221	-29.087438	-0.59138	-0.45753	-0.50057
-2.125797	1.013064	9.354741	2.037294	6.108965	4.20287	0.310097	0.390433	-0.957954	-8.435922	-2.016835	15.783014	-97.792904	6.436013	-53.58075	-0.486147	-0.659252	-0.443183	11.119396	3.436438	2.200407	-30.418021	-27.588616	-45.858932	-0.605568	-0.4731	-0.515331
-2.417803	1.241831	9.065873	-3.118893	4.791435	4.441636	0.338709	0.393213	-0.972728	-13.204002	-5.502623	13.132161	-68.450507	42.82654	-43.516199	-0.460785	-0.661246	-0.415035	10.656475	3.265268	2.670116	-26.544063	-21.466617	-50.97364	-0.605564	-0.491772	-0.46791
-2.253792	1.182576	8.671001	-4.168492	4.276305	3.362932	0.353201	0.396366	-0.987153	-12.128453	-4.209686	12.419906	-16.972575	55.2714	-46.741803	-0.446999	-0.673276	-0.457356	10.706668	2.798299	2.130077	-23.788934	-16.628461	-44.682605	-0.605702	-0.50879	-0.451545
-2.919648	1.130216	9.737606	-9.344247	4.835323	3.44825	0.350172	0.437337	-0.944513	-12.174071	-3.988502	7.606939	-13.955486	78.898309	-44.963103	-0.46005	-0.688671	-0.456077	10.106602	2.797424	1.579911	-19.739059	-14.179082	-40.584374	-0.564537	-0.53891	-0.480716
-2.396972	0.154784	10.084644	-12.329382	7.991469	3.078793	0.324217	0.390059	-0.958303	-13.719904	-4.212967	5.253094	-39.400736	124.091177	-37.13582	-0.447369	-0.689668	-0.442003	9.041591	3.49652	1.503162	-22.284643	-12.416359	-46.296839	-0.619614	-0.490323	-0.499036
-2.331965	0.213873	10.483971	-15.24665	12.067689	2.908099	0.335666	0.451483	-0.947579	-12.659442	-4.270289	6.407599	-66.909642	172.601363	-27.211567	-0.393914	-0.668688	-0.515858	7.506205	3.441707	1.414397	-18.563487	-12.59579	-36.532576	-0.619472	-0.491976	-0.467981
-2.620423	0.156156	10.364456	-16.483329	15.227727	2.901683	0.365807	0.416477	-0.966182	-12.067726	-3.820058	7.213022	-80.801538	208.5248	-16.32239	-0.445968	-0.699629	-0.512748	7.610067	3.380147	0.637561	-13.105542	-12.471193	-14.154889	-0.578236	-0.522922	-0.481624
-2.753369	1.014002	9.456199	-21.070195	17.209269	2.456411	0.352044	0.437679	-0.997401	-10.347801	-3.936237	6.909356	-89.420524	238.524464	-8.231308	-0.379757	-0.664325	-0.573532	7.194213	3.612902	0.511033	-10.025914	-12.322483	-3.80668	-0.619681	-0.508168	-0.467144
-2.235977	1.186436	9.58065	-17.911715	18.315537	1.054591	0.351287	0.447922	-0.986741	-8.976656	-3.54489	6.485585	-103.908589	263.138588	-8.059498	-0.365971	-0.676355	-0.615854	7.669623	3.147708	0.637672	-9.388342	-12.263577	5.51247	-0.606261	-0.539523	-0.480927
-3.037041	0.497718	9.562166	-22.202676	19.734442	-1.148757	0.35243	0.423908	-0.993985	-7.803697	-3.489861	7.529324	-124.549321	277.620614	-10.983786	-0.351959	-0.642424	-0.661186	7.856981	2.9753	1.179394	-9.072785	-12.145334	17.859319	-0.619472	-0.491976	-0.467981
-3.318569	0.096799	9.782322	-22.386086	19.888621	-1.268395	0.323074	0.414073	-0.951059	-6.932616	-3.040502	7.944314	-143.110212	287.830835	-16.815844	-0.326152	-0.612705	-0.649395	9.280781	2.625087	1.563763	-7.741081	-12.083031	30.051123	-0.605635	-0.490945	-0.483438
-3.152456	0.210352	9.501879	-19.489519	20.170777	2.131986	0.337923	0.438054	-0.997052	-6.912604	-2.758043	8.907425	-157.414104	300.072422	-20.897873	-0.274103	-0.641973	-0.66284	8.989366	1.522565	1.61347	-7.706254	-11.811102	30.385971	-0.605635	-0.490945	-0.483438
-2.744829	-0.018257	9.849827	-17.35203	21.429912	5.795695	0.37917	0.426345	-0.955871	-5.967357	-2.139136	10.11672	-166.694955	313.943956	-21.260382	-0.233769	-0.5915	-0.724077	9.829453	0.768405	2.284638	-8.108713	-8.959862	14.783935	-0.592006	-0.506108	-0.498059
-3.035845	0.383076	9.618536	-22.172551	24.62864	6.32156	0.32306	0.431372	-0.96855	-4.897786	-2.534109	11.667418	-174.809505	325.083261	-18.196552	-0.180314	-0.57052	-0.797933	9.177939	0.827472	2.152967	-7.003896	-3.923171	-4.591195	-0.619543	-0.49115	-0.483508
-2.908057	0.500771	10.303483	-27.118595	27.928674	5.990762	0.393662	0.429499	-0.970296	-3.776109	-1.971714	13.050212	-181.886218	330.331423	-15.498828	-0.167413	-0.585765	-0.797205	9.04369	1.172737	1.313553	-5.854784	0.964	-21.304281	-0.591309	-0.458356	-0.485042
-2.733901	0.271363	10.419564	-31.219011	33.777727	6.158964	0.352058	0.42038	-0.979909	-1.826995	-1.916995	15.412377	-184.001441	329.066119	-17.9793	-0.141091	-0.569223	-0.81311	8.746409	1.172918	1.188237	-4.094265	4.873292	-31.962923	-0.577819	-0.490537	-0.483298
-3.062129	0.67708	11.210516	-36.834054	48.553655	4.391276	0.392148	0.449985	-0.948976	0.620673	-1.131662	16.936445	-181.53246	320.477442	-28.913861	-0.075024	-0.50435	-0.861552	8.338393	1.349327	1.48081	-1.051989	7.887715	-32.53831	-0.591869	-0.489089	-0.514424
-3.478084	0.099578	10.404365	-36.444131	58.41687	1.943758	0.392162	0.432685	-0.931484	3.437734	-2.148746	19.429122	-186.256748	307.157321	-46.405259	-0.02216	-0.485514	-0.906708	8.394938	1.46485	1.362591	-1.736065	10.386931	-25.978276	-0.592073	-0.523953	-0.466166
-3.203356	-0.87979	9.780446	-32.229653	66.440954	0.620688	0.42036	0.483834	-0.984658	5.189182	0.215041	20.826731	-189.477245	290.807715	-61.24329	0.016693	-0.500609	-0.906531	8.049625	1.002782	1.773359	-5.464223	9.875139	-19.178602	-0.591656	-0.491568	-0.46784
-3.643332	0.330916	10.743108	-32.695051	69.839589	1.505306	0.392148	0.449985	-0.948976	6.960117	0.607876	22.958996	-201.060543	293.822782	-62.640488	0.082239	-0.48277	-0.937613	8.050144	0.305623	1.710485	-3.971264	6.350463	-6.148723	-0.647425	-0.509403	-0.451756
-3.154575	0.969196	12.346557	-14.932626	70.03641	4.953462	0.406283	0.432311	-0.931834	8.353977	3.028165	23.783003	-204.756091	298.786713	-47.150837	0.109082	-0.419194	-0.970879	8.299279	0.366126	2.434017	-5.180196	1.735469	4.910824	-0.634077	-0.539931	-0.481067
-3.179238	1.193655	11.096754	18.155709	71.198509	8.127785	0.419646	0.442179	-0.921523	11.952934	6.738383	22.899421	-231.609558	299.976212	-18.769772	0.174778	-0.370714	-1.003968	7.413342	0.193676	2.356861	-10.79931	-3.330978	10.793233	-0.592774	-0.553032	-0.526603
-3.521236	0.619729	11.144514	5.778562	73.163779	5.895363	0.433781	0.424505	-0.90438	15.121157	10.675971	23.422348	-263.375847	297.105505	12.558903	0.214226	-0.323456	-1.022156	7.709813	0.541951	2.483661	-17.039842	-9.945813	12.406262	-0.592286	-0.521474	-0.512749
-3.430743	0.856691	12.852185	12.006566	80.531723	3.605183	0.447158	0.417074	-0.876577	20.352974	15.398022	23.649621	-278.538151	291.562927	39.929946	0.279552	-0.291368	-1.039891	7.000114	0.717552	2.41129	-23.947299	-16.211546	15.548388	-0.647638	-0.506924	-0.49834
-3.19752	1.20214	13.085499	12.942391	90.475069	-0.375988	0.433781	0.424505	-0.90438	19.282633	33.926106	80.314269	-251.627539	221.866799	-13.336669	0.291793	-0.263867	-0.999125	6.283002	1.240126	1.980962	-24.953504	-22.197075	26.187695	-0.605706	-0.490119	-0.498966
-3.866467	0.804406	13.980098	14.454035	103.229052	-2.749108	0.462408	0.409985	-0.901663	32.127774	18.184542	14.841109	-28.165861	170.15209	76.351873	0.370985	-0.168279	-1.04985	6.817313	1.297729	2.170834	-19.725363	-26.46186	41.16896	-0.578169	-0.505077	-0.513516
-3.344165	0.345949	14.329307	22.339299	119.053153	-2.391841	0.518504	0.422257	-0.906475	43.97267	19.962153	11.921054	12.41559	95.04506	110.571718	0.408507	-0.218303	-0.990268	6.752079	0.657297	1.747665	-14.471193	-27.77137	45.405886	-0.564191	-0.505699	-0.497918
-3.345812	-0.458715	14.212222	30.507682	134.57365	0.382466	0.490263	0.423007	-0.905777	52.499811	16.679079	12.153861	-13.048503	-5.075519	113.59456	0.409242	-0.245728	-1.03131	8.102558	0.304005	1.352144	-8.91659	-26.084406	43.879591	-0.646799	-0.460825	-0.454267
-4.640269	-0.625262	15.32295	30.128743	150.766642	2.578938	0.491406	0.398993	-0.913021	61.485131	20.159952	18.290132	13.144569	-144.572604	129.219225	0.408211	-0.219375	-0.975918	9.276609	1.578235	1.199871	-0.614703	-22.41323	28.851821	-0.632962	-0.459795	-0.469725
-4.17198	-0.03642	18.801196	29.302926	173.33688	5.524402	0.517775	0.397901	-0.860832	55.3768	48.789177	20.451662	142.488814	-305.343342	213.180211	0.369874	-0.217456	-1.00379	10.093539	6.048446	1.294221	-8.090778	-16.126994	-10.855142	-0.605147	-0.459387	-0.469585
-3.467536	-0.078153	22.62236	39.013851	205.640292	7.401824	0.574272	0.379104	-0.844737	27.503829	11.54493	13.266171	193.710997	-230.075048	97.217563	0.356082	-0.265636	-0.971804	12.523034	10.622128	-0.736771	-17.195839	-2.904384	-65.240068	-0.619054	-0.459591	-0.469655
-3.549707	-1.679678	24.205263	56.098249	247.648783	14.475781	0.546402	0.383381	-0.858114	8.776474	-4.753116	15.915643	66.454143	-101.949025	-16.795036	0.291567	-0.309829	-0.996114	12.897511	7.823397	-3.197117	-18.078724	15.851861	-45.377616	-0.632962	-0.459795	-0.469725
-2.258946	-5.65037	22.736043	84.962463	290.121083	25.448116	0.586892	0.381915	-0.806274	-2.612823	5.960336	3.570459	8.560027	-92.504729	-58.239274	0.278956	-0.353721	-1.021527	11.382498	1.658599	-6.186273	12.484846	36.045713	44.758968	-0.647492	-0.527248	-0.419863
-1.92675	-8.468149	22.048662	103.997486	334.837022	42.340833	0.657523	0.345444	-0.773036	-10.829057	-3.987791	11.315109	56.033609	-152.966392	-57.846211	0.291712	-0.339398	-1.008457	11.967487	-0.00221	-0.253856	-2.730367	40.220615	52.957642	-0.61961	-0.508995	-0.451616
-1.575098	-8.926241	22.451384	115.522661	376.553175	62.883583	0.658695	0.286831	-0.745297	6.129083	-5.313847	13.142067	111.534599	-158.923699	-0.924578	0.26554	-0.325299	-0.994559	11.306578	2.392395	2.618606	-19.829326	26.617077	7.565373	-0.619263	-0.475783	-0.468818
-6.07206	-6.561833	23.79464	145.546638	407.074237	79.080991	0.713319	0.267692	-0.676314	9.700991	-1.999034	10.955443	154.068355	-99.801099	-10.784338	0.226317	-0.326596	-0.979382	9.782548	4.083324	3.375954	-14.80374	19.631253	-10.359703	-0.605147	-0.459387	-0.469585
-11.111326	-3.800751	23.765089	187.911143	385.592187	80.203437	0.811835	0.209643	-0.612207	4.972338	0.204168	7.970751	107.815354	-43.342785	0.128537	0.20051	-0.356315	-0.991173	9.633994	4.425375	1.75775	-5.757695	23.956592	-14.324762	-0.605147	-0.459387	-0.469585
-12.469761	3.532412	18.99582	205.109609	290.202488	53.832403	0.769887	0.162397	-0.57276	1.810583	1.731305	8.245379	39.039594	-9.578337	2.536016	0.186868	-0.373854	-0.961194	10.25566	4.417709	0.272183	2.455274	28.991641	-25.073845	-0.619405	-0.474131	-0.499873
-9.092505	2.758054	13.147884	270.475873	255.978525	22.855703	0.768773	0.151812	-0.530533	1.170608	-0.18079	10.438204	48.311385	-16.358701	2.32192	0.199989	-0.403348	-0.973812	11.41465	4.119684	-0.905183	-0.262354	36.232463	-25.067991	-0.633525	-0.471856	-0.546527
16.186533	-2.748898	6.171594	153.407748	240.947984	-4.712386	0.797028	0.133764	-0.513739	1.673005	0.437307	9.76993	35.984187	-14.219849	3.011487	0.21304	-0.387953	-0.975092	12.754394	3.647767	-1.900267	2.460867	37.779517	-19.890477	-0.633521	-0.490527	-0.499106
21.776561	-8.010379	-0.845652	99.497881	154.788613	-47.397509	0.809262	0.150346	-0.478692	1.911836	0.380877	10.171196	39.235265	-10.684759	8.01263	0.200064	-0.388028	-0.974816	12.95179	3.419508	-0.819631	-6.191091	30.096855	-40.264146	-0.619196	-0.457938	-0.50071
10.799085	-4.974324	8.614791	33.298177	87.195934	-92.977606	0.879894	0.113875	-0.445455	1.768063	1.450329	8.923608	29.742369	-9.435219	4.811253	0.199989	-0.403348	-0.973812	12.5025	3.541932	0.430105	-13.599253	15.281914	-59.719077	-0.619338	-0.456286	-0.531766
6.967099	-6.878981	5.747536	24.388926	38.890011	-91.190804	0.850124	0.152409	-0.440928	2.64471	0.885881	9.507663	16.366809	-5.043977	1.298901	0.173446	-0.405642	-0.944561	11.63342	5.11646	1.498597	-18.18391	0.454795	-59.142982	-0.605359	-0.456908	-0.516168
6.088328	-8.548747	4.643627	-1.246956	5.666196	-50.176604	0.879508	0.127646	-0.448871	1.724226	1.225636	9.545245	14.813949	-3.342461	0.667179	0.199618	-0.419741	-0.958459	11.889023	5.236523	2.581818	-12.291378	-8.190133	-40.426043	-0.605985	-0.505485	-0.513657
5.393719	-5.792263	4.357582	-40.124628	-24.971812	-4.46124	0.863887	0.131206	-0.409709	2.346805	1.731046	9.105853	9.631101	-0.375861	1.154929	0.212519	-0.434986	-0.957731	11.549886	4.485311	3.290884	4.747564	-10.145975	-22.878647	-0.605847	-0.488467	-0.530022
7.458254	-4.29931	4.631354	-71.371602	-69.231692	33.394462	0.851253	0.145694	-0.465664	1.726513	0.662379	9.60141	6.714886	1.058413	1.228501	0.16113	-0.448463	-0.984324	11.131136	4.543096	2.983894	17.421633	-8.54683	-19.356916	-0.606052	-0.52333	-0.481764
8.412427	-3.085257	6.644096	-80.706865	-114.918737	56.256576	0.865016	0.124492	-0.434445	2.197269	0.999926	10.121122	8.485356	1.960973	2.62617	0.199618	-0.419741	-0.958459	10.71138	3.612847	2.49298	26.984385	-3.672675	-20.087077	-0.619755	-0.488671	-0.530092
7.445321	-0.900085	7.032308	-73.026357	-150.131219	62.131351	0.865373	0.14532	-0.466013	2.133552	1.056127	9.836763	6.381222	1.601638	1.911854	0.147639	-0.435361	-0.956352	9.921351	3.958114	1.282019	32.125628	-0.091832	-15.56956	-0.606194	-0.521678	-0.51282
7.796062	-0.094463	7.440339	-67.021683	-178.87746	52.756724	0.809262	0.150346	-0.478692	1.671473	0.606251	9.713433	5.966002	0.494826	1.561404	0.199693	-0.40442	-0.959463	9.919555	3.783391	1.161464	31.214237	0.006309	-7.621117	-0.592286	-0.521474	-0.512749
6.889432	0.712553	7.937579	-66.951571	-197.320241	38.108413	0.853496	0.149565	-0.532628	1.908233	1.000418	10.058438	6.507932	-0.631313	1.334845	0.238546	-0.419516	-0.959286	9.305589	3.605074	-0.168234	31.152608	0.219984	-13.52005	-0.605985	-0.505485	-0.513657
6.180974	1.053115	6.845457	-65.761329	-207.468453	22.087763	0.810734	0.181759	-0.552488	1.672574	0.662629	9.77012	6.30756	-1.885904	0.551505	0.173296	-0.436283	-0.942554	8.701682	3.835762	-0.897132	28.334448	-0.0811	-20.87305	-0.578378	-0.52127	-0.512679
5.607234	1.168172	6.777951	-68.165064	-215.228417	8.261363	0.825626	0.153842	-0.546005	1.619305	0.944579	9.995707	4.322534	-2.696414	-1.277008	0.200504	-0.416525	-1.001508	7.926749	3.370931	-1.392671	23.407225	1.161634	-21.472294	-0.606265	-0.520852	-0.528348
4.87229	0.538784	7.215646	-70.21034	-225.591223	-3.800018	0.785523	0.141537	-0.59443	1.730355	0.54986	9.771234	3.11159	-3.37346	-3.257703	0.212449	-0.390097	-0.946392	7.638251	2.908234	-1.100616	16.450559	3.659445	-22.864667	-0.60654	-0.554889	-0.495618
3.898923	0.59693	7.196958	-69.950661	-232.006713	-13.075115	0.730126	0.188219	-0.670244	2.185827	0.661469	9.554442	2.140153	-4.602576	-4.750443	0.160615	-0.435286	-0.956628	7.058668	2.62143	-0.573695	8.691377	6.563351	-19.427965	-0.578307	-0.522096	-0.497151
3.558447	0.999993	7.362526	-77.021116	-235.813944	-19.342788	0.771716	0.214637	-0.678124	1.90955	0.944135	10.11503	1.763773	-5.066261	-4.909495	0.200429	-0.431846	-1.000505	6.942567	2.738346	-0.455588	6.11954	8.292583	-13.009532	-0.592073	-0.523953	-0.466166
2.651325	0.945144	7.799293	-85.620396	-240.143195	-23.621066	0.715591	0.236963	-0.708295	1.608533	0.887821	9.485903	2.37818	-5.362866	-5.251056	0.186272	-0.436208	-0.94283	6.117036	2.914712	-0.410345	7.041606	10.512792	-5.536116	-0.59277	-0.571704	-0.479183
2.219066	0.721259	9.097041	-92.517847	-247.992956	-26.059799	0.646846	0.256478	-0.776928	1.964158	1.225585	10.003197	2.518502	-6.40818	-4.552297	0.173886	-0.434139	-0.971254	7.003534	3.319713	-0.272294	8.992299	11.349359	5.944488	-0.606194	-0.521678	-0.51282
1.431031	0.494968	9.762724	-93.226008	-258.494488	-25.492143	0.659438	0.293888	-0.773449	1.684316	0.212411	10.279497	2.22892	-7.302235	-4.376453	0.186862	-0.434064	-0.971529	7.643307	2.153988	-0.92411	15.413156	11.082514	13.25816	-0.606749	-0.571082	-0.494781
0.869746	0.32547	10.319396	-99.369643	-267.177325	-22.057466	0.631154	0.346535	-0.825226	1.906439	0.042657	9.887713	4.554624	-9.020431	-4.391666	0.173371	-0.420963	-0.943558	7.468345	2.677819	-0.745465	17.330994	11.788668	7.746064	-0.606611	-0.554063	-0.511146
-0.033419	0.960885	10.986472	-106.359006	-270.72735	-15.776688	0.617033	0.34691	-0.824877	1.905708	1.056653	9.945207	4.693809	-10.272182	-4.958901	0.173296	-0.436283	-0.942554	7.715684	2.563599	-0.142489	28.028565	13.139343	10.971348	-0.606056	-0.504659	-0.529185
-1.208458	0.163364	12.324184	-113.476006	-270.154547	-9.520852	0.59105	0.33423	-0.873651	1.795173	0.550037	10.112281	5.449848	-11.635954	-5.95834	0.173666	-0.419891	-0.957908	8.310267	3.028093	0.170028	35.895792	13.567438	16.656703	-0.634077	-0.539931	-0.481067
-2.513683	1.028594	12.927578	-118.486293	-266.31268	-3.064895	0.518904	0.391187	-0.885568	2.13804	0.605626	10.006302	4.69316	-12.898892	-6.557233	0.199618	-0.419741	-0.958459	8.613861	2.680692	0.593395	41.822372	12.867061	24.311121	-0.620586	-0.572112	-0.479323
-3.601186	0.569849	12.904491	-127.031861	-258.667896	3.033378	0.518518	0.404958	-0.888984	2.131349	0.943372	9.723389	3.35845	-13.549899	-8.075334	0.187007	-0.463633	-0.983872	8.624285	1.985758	1.069683	44.348774	11.176189	31.921909	-0.578378	-0.52127	-0.512679
-4.593	0.866247	14.875513	-138.346749	-250.228888	5.778967	0.463894	0.424098	-0.957967	2.074777	1.056188	9.778914	3.293893	-13.794211	-8.355263	0.212669	-0.404345	-0.959738	8.148855	1.986096	0.881159	44.295653	7.930487	38.143598	-0.618987	-0.441746	-0.501548
-6.568535	1.678152	16.3181	-140.583319	-245.32274	6.325055	0.434509	0.448861	-0.950024	2.306463	0.943143	9.840295	0.679053	-13.110908	-10.076914	0.147419	-0.421113	-0.943006	8.449843	1.812429	1.185454	47.58361	5.573944	39.396404	-0.620031	-0.522708	-0.497362
-9.928772	1.741898	17.162294	-129.311486	-243.496077	7.211628	0.405482	0.494451	-0.973649	2.309659	1.168607	10.010403	-0.491724	-12.794099	-9.211537	0.212889	-0.418594	-0.973085	7.784584	2.100834	0.335889	51.209022	3.563657	39.820885	-0.634148	-0.539105	-0.496595
-13.084074	1.225756	16.757762	-114.986785	-244.655696	9.512913	0.405111	0.490923	-0.959573	2.129817	1.112316	9.666892	-1.434214	-13.86103	-7.311593	0.174106	-0.448388	-0.9846	7.897249	2.041251	0.038308	54.20252	2.576934	41.61855	-0.606261	-0.539523	-0.480927
-16.401781	1.630975	16.865428	-114.042817	-245.065298	16.157976	0.377227	0.5125	-0.990442	2.195067	0.88717	10.007748	-4.196297	-14.848625	-7.015358	0.186787	-0.449385	-0.970526	7.836417	1.401808	-0.145233	55.361686	1.115044	41.40732	-0.619889	-0.524361	-0.466306
-19.375676	3.185016	17.041455	-113.242472	-235.530437	24.835106	0.362335	0.540417	-0.996925	2.321724	0.549398	10.519638	-4.778209	-16.908817	-7.282931	0.16091	-0.434214	-0.970978	8.004952	1.748129	-0.559796	54.466899	1.888866	40.214525	-0.620169	-0.539727	-0.480997
-20.758489	4.448036	16.622068	-105.800555	-217.457193	32.006223	0.3478	0.589161	-1.034975	2.322394	0.831098	10.576515	-8.722972	-20.894635	-5.661037	0.160835	-0.449535	-0.969974	8.414473	1.397739	-0.793204	52.94335	4.577223	34.092818	-0.619405	-0.474131	-0.499873
-21.930099	5.70703	15.297486	-89.476076	-193.576974	35.16786	0.277197	0.591034	-1.033229	2.109642	1.789907	11.478719	-15.352216	-29.255439	-1.46442	0.16113	-0.448463	-0.984324	8.346093	1.163344	-1.334456	47.992082	8.038261	26.02369	-0.591798	-0.489915	-0.498896
-37.548529	18.562091	36.586601	40.290193	-106.227496	38.972419	0.263791	0.633064	-1.096015	1.949465	1.565383	12.041299	-14.171963	-35.560919	3.683802	0.173886	-0.434139	-0.971254	8.510862	0.288585	-2.113652	43.280457	11.29652	16.946467	-0.619614	-0.490323	-0.499036
-34.661424	12.441091	2.57554	76.000773	41.782847	16.161498	0.290175	0.614673	-1.026334	2.118127	2.409922	11.932357	-10.761691	-44.147007	5.420063	0.14801	-0.418969	-0.971706	8.624222	0.403478	-2.350585	29.054368	12.475355	13.416071	-0.647008	-0.477018	-0.45343
-46.963988	23.806639	11.931657	50.138704	93.329583	-36.352773	0.278712	0.570548	-1.054549	2.896596	2.07406	16.024631	-26.093866	-68.386033	14.415392	0.160766	-0.404645	-0.958635	8.687815	1.275967	-1.986334	12.76374	12.93149	11.027625	-0.606194	-0.521678	-0.51282
-45.473445	22.402274	6.158028	85.639541	120.169551	-80.318467	0.292832	0.570174	-1.054898	2.14632	0.554348	15.781076	-1.99628	-88.479738	4.986459	0.135184	-0.388403	-0.973437	9.27076	2.95808	-2.147881	1.436153	13.28532	8.407786	-0.605985	-0.505485	-0.513657
-47.994193	18.382225	5.86473	110.301894	138.071003	-107.377412	0.266092	0.567737	-1.093012	1.832058	1.344902	17.303756	5.462997	-106.903473	3.11381	0.108567	-0.406017	-0.943183	9.988338	3.655844	-1.53264	-3.926042	13.91625	13.589777	-0.591518	-0.474549	-0.484205
-9.877223	0.471928	2.211545	183.282591	97.864502	-40.404981	0.321802	0.59378	-1.10124	2.068772	0.499703	17.534439	22.134785	-129.882111	-2.588507	0.109302	-0.433443	-0.984225	11.077289	3.078339	-0.137446	-1.878071	14.095199	32.503413	-0.633242	-0.475161	-0.484416
0.208903	5.674544	11.86351	113.443974	68.587663	30.717262	0.309982	0.528828	-1.097888	2.652626	-0.627748	17.828778	31.915131	-153.104663	-8.329523	0.096181	-0.403949	-0.971607	11.862491	2.441456	0.772744	2.568727	13.397436	57.163719	-0.675107	-0.474121	-0.515682
5.326477	0.607515	9.95263	93.062781	93.251955	88.13749	0.338638	0.479709	-1.060187	2.119951	-0.343311	19.855951	37.959811	-178.791155	-15.855069	0.108862	-0.404946	-0.957533	11.870254	3.837753	1.377746	11.091644	11.637256	67.62954	-0.660849	-0.459377	-0.485393
-1.42318	-7.30194	12.743185	26.975797	85.256009	53.680356	0.337137	0.482895	-1.021375	2.301822	-2.368959	22.801921	48.549825	-213.642412	-22.080617	0.017509	-0.452504	-0.938242	12.922466	2.961463	0.73487	12.113449	7.254737	74.710807	-0.632828	-0.424105	-0.53351
-9.189129	-5.051258	13.738223	60.402433	35.033097	-12.853538	0.35313	0.482863	-1.074612	2.97441	-4.62199	24.455871	72.27661	-252.815786	-33.239718	0.056292	-0.42271	-0.926726	12.377399	2.320381	-0.11645	-2.980785	1.643194	79.746546	-0.660991	-0.457724	-0.516449
0.746536	3.758252	7.092135	49.060477	33.483573	18.833338	0.381014	0.461286	-1.043743	1.22008	-5.237146	25.777223	85.061448	-292.633473	-43.704694	-0.008958	-0.439477	-0.909994	12.656338	1.212058	-1.134062	-25.532395	-1.550643	76.173696	-0.632895	-0.44195	-0.501618
-4.362677	0.324417	9.081007	32.668744	33.962641	10.547372	0.352001	0.489577	-1.049876	-0.597344	-6.753768	26.75677	106.967662	-336.506043	-56.760699	-0.008292	-0.422013	-0.939698	11.369453	2.437839	-0.374291	-34.209929	-1.357075	39.634088	-0.632966	-0.441124	-0.517146
-2.569766	0.039784	10.023968	35.695514	20.210363	7.647178	0.352373	0.493106	-1.063952	-1.412377	-9.569354	26.057799	128.524891	-377.67244	-86.650014	-0.087259	-0.47164	-0.891983	11.661698	3.656761	-0.363597	-24.88966	0.894136	-12.220175	-0.646177	-0.393577	-0.504199
-2.365997	2.619421	8.845366	45.74566	22.823673	3.551353	0.422604	0.487705	-1.051622	-1.271982	-5.618048	35.688642	195.163601	-402.709008	-113.78305	-0.166001	-0.475306	-0.847279	10.908855	5.056296	0.586542	-17.120404	0.653607	-45.461342	-0.61892	-0.423901	-0.53344
-2.49106	1.81291	8.27123	15.499004	14.417038	0.741719	0.393977	0.502225	-1.05434	5.433239	-0.338732	32.210817	351.318535	-341.480627	-79.546277	-0.15347	-0.506944	-0.831198	9.903224	4.651318	0.386383	-25.178996	-0.353081	-57.372532	-0.632687	-0.425758	-0.502455
-2.455921	0.958766	10.030056	9.753021	12.525124	-0.100522	0.410369	0.471122	-1.086669	12.289886	-5.426168	26.802146	446.574365	-311.15201	-7.530305	-0.219612	-0.587137	-0.781752	9.560287	5.06138	1.040487	-34.569038	-3.488584	-56.132167	-0.701809	-0.394393	-0.50448
-2.582636	0.898753	9.402204	3.833898	12.228236	-0.732336	0.423761	0.446391	-1.041375	-12.960067	-10.121967	13.359666	427.553306	-321.942931	3.661134	-0.23503	-0.671317	-0.67601	10.393521	4.886745	1.414592	-37.900021	-8.403184	-49.345116	-0.61885	-0.424727	-0.517912
-2.696363	1.35861	9.45876	0.531979	11.939128	1.725897	0.39512	0.478211	-1.061584	-21.675985	-17.676767	-12.87257	210.177403	-240.75975	20.9395	-0.287745	-0.659513	-0.632862	11.398881	5.407875	1.615246	-43.61181	-12.809217	-33.385423	-0.647154	-0.456694	-0.531906
-2.119489	1.531485	9.698031	-8.025473	11.291899	1.095988	0.395134	0.460912	-1.044092	-22.733758	-11.978766	-5.303461	17.29552	-89.372478	85.430876	-0.341206	-0.740702	-0.569342	11.445077	4.76569	0.834837	-38.107465	-11.131808	-10.311866	-0.646524	-0.426788	-0.486997
-2.346813	0.727711	9.747052	-12.560644	12.175463	-0.072644	0.39512	0.478211	-1.061584	-9.473462	-8.49581	12.415272	-64.086894	-63.140263	90.960361	-0.316359	-0.72952	-0.513498	12.4336	4.004698	-0.048273	-32.624448	-1.52086	8.662951	-0.605009	-0.442368	-0.485949
-2.114248	0.441061	9.920859	-14.537757	14.594893	-0.119634	0.382157	0.437272	-1.050987	-13.368282	-12.039167	10.235623	-61.749886	-4.597301	77.083543	-0.354471	-0.68164	-0.544381	12.089596	2.032159	0.236253	-31.277679	6.29574	-4.338115	-0.67532	-0.471642	-0.562265
-2.746771	1.130333	9.7978	-18.631097	17.227184	-0.83177	0.395134	0.460912	-1.044092	-11.754694	-9.169043	10.611728	-47.747204	38.307088	36.515504	-0.353811	-0.724385	-0.584419	10.270405	1.864342	0.74056	-36.459647	9.560125	-31.929198	-0.632966	-0.441124	-0.517146
-2.407574	0.956794	9.576345	-19.917106	17.968421	-1.67473	0.394748	0.474683	-1.047508	-12.284506	-7.706196	7.488112	-52.963408	78.742881	-2.948523	-0.3412	-0.680493	-0.559006	8.966493	3.783574	0.664602	-44.054772	11.600511	-42.544142	-0.632828	-0.424105	-0.53351
-2.56684	0.614923	10.19694	-19.298882	19.145613	-2.240073	0.422261	0.449578	-1.002563	-13.431472	-6.182832	7.805052	-77.345012	129.896393	-23.853304	-0.354101	-0.665247	-0.559734	10.270621	3.665687	0.987851	-26.229161	12.169007	-8.540764	-0.633108	-0.439471	-0.548201
-2.114165	0.326178	9.920376	-19.175734	20.052288	-3.544435	0.409269	0.443238	-1.026949	-14.164622	-5.279478	8.583049	-83.462573	178.234506	-26.089886	-0.352555	-0.704777	-0.642822	10.321873	2.269256	0.383949	-29.445381	11.089606	-8.799012	-0.619129	-0.440093	-0.532603
-2.740748	0.499682	10.079411	-18.320728	20.754241	-5.467618	0.409626	0.464065	-1.058517	-14.435587	-3.982579	9.484329	-78.675793	213.671354	-7.761092	-0.35292	-0.66096	-0.617133	10.435234	2.384149	0.147017	-34.788505	9.346674	-13.660965	-0.646807	-0.423483	-0.549108
-2.759553	0.323256	9.112185	-20.25705	22.13764	-8.997193	0.409255	0.460537	-1.044441	-12.08754	-5.226838	8.853176	-74.706063	236.581966	17.811173	-0.312961	-0.687088	-0.673352	9.801773	3.202654	1.096884	-34.097013	6.929702	-13.3769	-0.632828	-0.424105	-0.53351
-3.372525	0.155006	9.952009	-23.5313	23.921649	-10.461586	0.43711	0.473559	-1.048556	-8.937396	-5.740405	8.126284	-81.907186	253.004747	39.580665	-0.285533	-0.681578	-0.745652	9.516576	2.740699	1.568659	-34.706673	4.647721	-8.840899	-0.647154	-0.456694	-0.531906
-2.100513	-0.073018	10.600924	-25.220041	28.277454	-10.416593	0.436724	0.48733	-1.051971	-6.679633	-6.7018	8.682382	-97.317	265.063318	57.169593	-0.247196	-0.683497	-0.71778	9.644107	2.916882	2.110764	-34.718195	2.872146	-2.781215	-0.633525	-0.471856	-0.546527
-2.499973	-0.359694	10.648776	-26.071159	38.590738	-9.633103	0.46498	0.469282	-1.035178	-4.552632	-8.33961	8.442539	-112.369235	275.231512	64.75091	-0.232813	-0.633173	-0.778465	9.716693	1.815775	2.706236	-29.564886	4.005922	7.67798	-0.646878	-0.422657	-0.564636
-2.969019	-0.5341	10.070613	-28.848583	42.74162	-5.539953	0.394005	0.467626	-1.019356	-3.155562	-8.228919	9.207962	-129.488729	285.253762	67.118559	-0.206566	-0.631951	-0.793367	9.605783	1.120368	3.000602	-24.22796	4.053088	13.832655	-0.647016	-0.439675	-0.548271
-2.917415	-0.420465	9.787944	-26.470669	47.870367	-1.568516	0.381771	0.451044	-1.054403	-2.230997	-8.174171	9.397271	-147.271866	293.968814	66.728595	-0.166973	-0.614262	-0.823897	9.026046	0.426784	3.465886	-11.521923	3.439675	15.409579	-0.6192	-0.439267	-0.548131
-3.261108	-0.19045	9.782228	-27.321064	51.290957	2.660359	0.435967	0.497573	-1.041311	-1.245024	-8.232049	9.757612	-164.32864	301.446455	65.001111	-0.179283	-0.596873	-0.853324	8.787875	-0.560957	3.217654	4.847883	5.334908	12.284614	-0.660435	-0.408321	-0.534488
-3.208597	0.210635	9.557619	-28.577509	54.293393	5.656827	0.450102	0.479899	-1.024169	-0.81996	-7.781259	10.842607	-183.38485	304.835222	62.152172	-0.087491	-0.577811	-0.899307	8.432117	-0.792945	3.090249	18.144047	8.099358	3.909624	-0.660853	-0.440706	-0.532814
-2.637249	0.324862	9.512383	-20.498505	55.595056	7.985403	0.463865	0.458697	-0.99295	0.415124	-6.31779	12.228577	-201.942645	301.116573	56.61215	-0.100171	-0.576815	-0.913381	8.369529	-0.6774	2.909922	27.376247	8.909769	-6.213332	-0.661341	-0.472264	-0.546667
-2.970346	1.304029	10.078335	-22.439927	53.644449	8.480612	0.492106	0.457947	-0.993649	2.514897	-4.855891	13.689321	-225.802701	296.118577	49.205311	-0.007858	-0.51072	-0.976725	7.836879	-0.502204	2.840853	27.183059	7.117033	-16.319478	-0.646252	-0.374079	-0.567148
-2.951831	1.882546	11.047251	-12.766876	51.848914	8.178256	0.506212	0.474872	-1.011489	4.627819	-4.968483	18.319346	-237.406838	296.832828	39.152252	0.006525	-0.460396	-1.037411	8.289645	0.247749	1.89436	19.523532	4.811731	-20.833937	-0.647642	-0.488253	-0.54576
-2.910284	0.500289	10.189777	-9.758515	55.072827	4.235319	0.447844	0.493328	-0.974696	6.767054	-3.279697	21.649386	-232.198689	306.696268	29.204056	0.059019	-0.457952	-1.067213	7.492879	0.649608	0.324206	14.689976	2.975729	-22.427227	-0.619342	-0.437615	-0.579187
-3.278732	0.450134	11.830481	-12.316978	59.207485	1.703167	0.504341	0.47453	-0.958602	9.374497	-1.816811	25.328746	-210.054727	316.727707	26.300479	0.111663	-0.424868	-1.099023	7.431662	0.649249	0.203291	13.772887	2.556994	-14.782327	-0.633041	-0.421626	-0.580094
-3.451278	-0.009515	11.768357	-6.578122	66.165106	0.205029	0.476457	0.496107	-0.989471	14.142895	1.891963	25.318936	-207.053722	327.075656	31.492922	0.164679	-0.375391	-1.146186	6.838489	0.998561	0.073957	16.538988	1.814665	-4.153725	-0.661132	-0.456072	-0.547505
-3.32811	0.336981	12.226856	-1.719998	73.970629	-0.571434	0.503583	0.484773	-0.947941	19.032365	5.265112	28.25531	-225.452579	333.045935	46.983705	0.243055	-0.327907	-1.165201	6.618236	0.828334	0.90751	13.89304	0.803792	3.959837	-0.647016	-0.439675	-0.548271
-3.197479	1.144698	13.085258	-2.526849	84.238112	-4.021053	0.504355	0.457231	-0.94111	27.070193	10.321679	30.579921	-229.767557	312.286823	73.165408	0.282504	-0.280649	-1.183389	7.091756	1.176204	1.03761	7.369384	-1.231974	9.280838	-0.647225	-0.455868	-0.547434
-4.095236	0.459923	13.974196	2.760807	97.899493	-6.26767	0.532967	0.46001	-0.955884	36.828949	13.23169	29.768389	-177.709103	239.176342	96.189774	0.398112	-0.224051	-1.118136	6.737524	1.23509	1.031255	-0.032963	-2.744515	11.026528	-0.632899	-0.423279	-0.549038
-3.566212	-0.054529	14.664282	10.800865	114.722908	-7.244039	0.517332	0.48087	-0.934215	45.492211	11.519499	23.041898	-76.137235	142.031719	105.140346	0.437486	-0.192113	-1.13532	5.899213	1.699117	0.418758	-9.172579	-3.745779	10.055751	-0.647087	-0.438849	-0.563799
-3.574498	-0.918082	14.205838	17.844983	131.839077	-4.747157	0.562352	0.435247	-0.963827	51.48442	8.344292	12.351641	-13.057637	67.215851	89.430348	0.463293	-0.162394	-1.123529	6.787196	1.465282	0.554089	-10.577983	-5.293308	20.216332	-0.646878	-0.422657	-0.564636
-4.163087	-0.289188	13.401414	21.917947	148.309948	-0.841497	0.545588	0.462821	-0.917421	50.444249	9.463306	1.460861	-45.944154	15.76735	45.788607	0.463293	-0.162394	-1.123529	6.658524	0.35914	-0.171692	-5.194752	-8.00683	33.079498	-0.660573	-0.42534	-0.518123
-3.83908	-0.108868	15.340711	19.633689	166.515622	4.490628	0.588692	0.468754	-0.946621	42.869388	15.229341	8.327015	-113.701022	-24.474358	0.384515	0.464329	-0.128538	-1.168586	6.523425	0.123151	-1.133392	-17.805796	-10.820338	25.740659	-0.632624	-0.389241	-0.581768
-3.514002	0.129135	17.337102	19.22944	191.552491	9.345634	0.588707	0.451455	-0.929129	31.857915	24.443675	21.634663	83.835475	-97.386295	-42.783895	0.450687	-0.146077	-1.138607	6.220371	0.238247	-1.557748	-17.203361	-13.554251	27.096578	-0.688322	-0.407903	-0.550156
-4.207912	-0.261561	19.879326	16.290926	222.463928	14.855359	0.588749	0.399557	-0.876654	19.555621	26.331174	27.718739	266.228196	-145.332863	-32.725147	0.47745	-0.158032	-1.181204	6.57914	0.122274	-1.312012	-11.387802	-16.208925	34.425079	-0.646878	-0.422657	-0.564636
-3.135962	-2.034309	21.9386	23.238151	262.000145	18.943591	0.658966	0.411455	-0.881816	-6.006734	28.35298	29.901135	480.243019	-204.034251	19.980347	0.438817	-0.157185	-1.194726	5.64463	-0.28012	-0.852095	-8.959129	-19.01188	37.181109	-0.618641	-0.408535	-0.51875
-2.16895	-4.72411	24.44661	37.651252	305.66935	29.240862	0.726568	0.415954	-0.805938	8.595637	23.754636	20.805809	320.493349	-259.274863	132.335974	0.42517	-0.234934	-1.175083	6.818927	6.760089	2.972863	-23.382202	-18.408729	9.351947	-0.674135	-0.392332	-0.535395
-1.103262	-3.715697	32.143695	40.677189	360.755562	39.694846	0.712076	0.412801	-0.791512	9.578878	3.641481	19.223522	213.740918	-246.299041	1.496063	0.359619	-0.312983	-1.154336	9.303195	11.92714	3.999595	-15.171297	-20.098041	-25.600826	-0.65988	-0.358917	-0.552527
2.132735	-4.183623	30.783906	102.48503	429.04122	50.991089	0.739946	0.408523	-0.778135	1.447724	15.188173	0.5501	192.292918	-195.138871	0.537913	0.294363	-0.389961	-1.147939	10.38018	4.941854	0.695957	12.030479	-17.072178	10.592741	-0.64639	-0.391098	-0.550783
-3.238502	-4.731807	22.436709	147.396695	457.951048	55.164559	0.740032	0.304727	-0.673184	6.451712	-16.068225	19.197074	105.095689	-119.100229	-2.692062	0.293923	-0.361463	-1.121247	13.021284	0.806941	-0.590028	4.430888	11.366048	67.899606	-0.632828	-0.424105	-0.53351
-12.175093	0.246898	16.373504	143.018276	412.744343	27.245631	0.838118	0.312348	-0.664968	5.231191	11.070367	2.211126	56.454025	-50.063508	-38.204988	0.254619	-0.438291	-1.115402	15.133916	1.20614	-1.147751	7.58258	20.549207	44.697829	-0.646528	-0.408117	-0.534418
-14.872014	6.969265	16.29255	107.403389	325.698757	-3.078208	0.878236	0.307354	-0.599052	-0.426341	-3.437506	18.893917	77.37115	-26.138062	53.795537	0.268261	-0.420751	-1.145381	13.887808	3.835635	2.01423	-24.687992	10.864343	-17.921931	-0.632344	-0.373875	-0.567077
1.723736	-2.88098	12.879861	135.668376	308.056506	-13.966371	0.849266	0.283747	-0.55271	7.971496	2.391113	3.110236	34.687378	-29.372812	-3.614107	0.267815	-0.452464	-1.129024	13.165837	6.636659	4.827416	-19.187039	1.375559	-24.283139	-0.63262	-0.407913	-0.534348
14.075411	-4.227051	9.363634	47.312176	236.941351	-35.941088	0.862287	0.255488	-0.49334	4.933857	-1.313647	11.422068	50.50399	-20.835241	6.502662	0.241348	-0.439438	-1.100776	14.267856	5.932484	3.707126	-2.873286	1.319627	4.507121	-0.674347	-0.389854	-0.581979
19.637105	-8.805265	0.927956	42.56879	189.544057	-20.656475	0.876393	0.272413	-0.511181	2.908861	2.518121	8.55221	35.870295	-10.602604	7.671625	0.26789	-0.437144	-1.130027	16.075848	4.761339	2.418344	4.257196	6.270147	4.457669	-0.660648	-0.405842	-0.581071
8.870924	-5.268608	6.586981	-2.094632	72.946181	-16.044417	0.944766	0.24937	-0.428471	1.893127	2.577198	9.49337	18.267931	-6.009841	2.647268	0.280426	-0.408572	-1.103611	15.299078	3.192074	1.67848	7.530228	5.704103	-10.67973	-0.632624	-0.389241	-0.581768
8.155976	-4.285049	8.111641	-2.779068	7.257967	1.199331	0.902791	0.236723	-0.424008	1.916241	0.606389	10.397944	16.280655	-4.266561	4.17359	0.254989	-0.421898	-1.130755	14.115265	5.169607	1.724784	6.290837	0.829741	-15.969356	-0.64611	-0.375732	-0.536092
6.870976	-4.576894	6.778317	-8.400309	-22.698451	30.259148	0.917283	0.239876	-0.438433	1.552284	0.831646	9.541286	15.43608	-5.104919	4.133746	0.26789	-0.437144	-1.130027	13.222454	5.111826	1.288682	7.41606	-0.492492	-0.106008	-0.674903	-0.439257	-0.56394
6.854019	-2.684701	5.990337	-24.243869	-46.27048	53.008977	0.91614	0.26389	-0.431188	1.683561	0.606725	10.279829	15.579171	-3.713128	2.575457	0.254694	-0.42297	-1.116405	12.801037	3.948778	0.676965	9.573486	1.728253	7.730479	-0.646185	-0.356234	-0.59904
7.770416	-1.593733	6.069591	-39.693278	-86.109934	62.431287	0.918412	0.233162	-0.463169	1.956259	1.563283	9.663644	11.865772	-2.000348	0.70898	0.241417	-0.484327	-1.112115	12.497423	3.831323	0.191713	9.231869	4.398526	-2.153057	-0.674135	-0.392332	-0.535395
7.40118	-0.552499	7.714879	-38.837154	-129.264841	61.206866	0.932161	0.229259	-0.449442	1.891656	1.450445	9.322503	5.538193	0.513692	-2.16895	0.241197	-0.470079	-1.098769	11.837781	3.598032	-0.420449	10.491462	6.799291	-12.040324	-0.660369	-0.390476	-0.566381
6.319364	0.3688	8.038703	-20.270851	-164.361839	53.072511	0.905777	0.24765	-0.519123	1.549459	1.676556	9.485358	0.63136	3.187775	-3.317769	0.242083	-0.466863	-1.141818	11.378162	3.427604	0.228981	10.030675	6.201044	-16.466912	-0.660298	-0.391302	-0.550853
5.445	0.308603	7.225816	-4.856671	-191.160439	41.126489	0.935147	0.240186	-0.544558	2.308342	1.22489	9.953811	-3.27834	4.212453	-3.495692	0.228441	-0.484402	-1.111839	10.92389	2.851632	1.116309	7.867261	3.59469	-13.635196	-0.673859	-0.358295	-0.568125
4.906078	0.648559	6.023327	-4.136782	-210.872136	30.042239	0.907278	0.244464	-0.557935	2.315033	0.887144	10.236725	-4.512684	4.290177	-3.711708	0.241788	-0.467935	-1.127469	10.920973	2.211807	0.873962	8.645885	3.020448	-16.996779	-0.660439	-0.38965	-0.581909
4.369425	0.931556	4.934304	-15.662899	-229.210519	20.210726	0.908006	0.26882	-0.603579	2.022047	1.056485	10.004264	-4.392457	4.045224	-3.52908	0.279535	-0.471997	-1.070897	10.098859	1.865983	1.036793	11.188073	3.341529	-20.552278	-0.67365	-0.342103	-0.568962
3.973636	0.186071	5.150785	-30.617515	-247.895486	12.284175	0.896158	0.238466	-0.63521	1.909765	0.831474	10.114936	-4.222212	2.909374	-2.985335	0.215025	-0.45598	-1.084872	8.916085	2.449197	0.957349	11.291811	4.590156	-25.906121	-0.660439	-0.38965	-0.581909
3.434082	0.768138	6.847656	-37.195335	-262.114772	7.288343	0.882023	0.25614	-0.652353	1.857335	0.043096	10.282982	-3.218592	1.72277	-2.441424	0.241493	-0.469007	-1.113119	8.856684	3.088415	1.018875	10.657959	7.045787	-26.95446	-0.64639	-0.391098	-0.550783
1.944188	0.998741	6.762817	-39.040268	-275.345354	3.797505	0.826641	0.285523	-0.710676	1.611382	0.662594	9.598992	-1.039354	0.674114	-1.956851	0.228221	-0.470154	-1.098493	8.49828	2.100449	0.648628	10.21703	7.503227	-18.093409	-0.646461	-0.390272	-0.56631
