1757_acc_x	1757_acc_y	1757_acc_z	1757_gyro_x	1757_gyro_y	1757_gyro_z	1757_mag_x	1757_mag_y	1757_mag_z	1758_acc_x	1758_acc_y	1758_acc_z	1758_gyro_x	1758_gyro_y	1758_gyro_z	1758_mag_x	1758_mag_y	1758_mag_z	1759_acc_x	1759_acc_y	1759_acc_z	1759_gyro_x	1759_gyro_y	1759_gyro_z	1759_mag_x	1759_mag_y	1759_mag_z
-0.305097	2.343067	11.782639	-75.3092	-215.841909	32.251364	0.333977	0.360699	-1.201835	1.843283	0.436888	9.660278	0.213771	-0.583049	-4.21878	0.11226	-0.362514	-1.117387	8.664054	2.213724	0.053355	37.211198	3.729404	-4.726708	-0.520522	-0.34151	-0.537134
-0.4776	1.825976	11.720274	-79.35335	-210.262567	24.197292	0.268661	-0.145139	-0.82334	1.800679	0.831926	10.395716	-0.386864	-1.721081	-4.847136	-0.236066	-0.011098	-1.147375	8.380653	1.926491	0.645686	39.045785	5.166439	-4.037287	-0.522786	-0.668997	-0.148562
-1.835703	1.255933	12.48708	-85.109799	-202.601857	21.762483	0.211822	-0.164468	-0.790375	1.564804	0.606798	10.107492	-1.0235	-3.229713	-5.140099	-0.248521	0.03586	-1.16446	8.375981	2.041654	0.406553	41.03233	6.63936	-3.807014	-0.536903	-0.685393	-0.147795
-2.960584	1.031338	13.487201	-88.088489	-191.655605	26.36433	0.184281	-0.104764	-0.870304	2.02796	0.49337	10.230348	0.316818	-4.771987	-5.832566	-0.248596	0.020539	-1.163457	8.549053	2.330888	0.23137	43.461347	8.341866	-1.959642	-0.536344	-0.654661	-0.118413
-4.441321	0.919222	13.855739	-87.35725	-178.86954	35.645855	0.15644	-0.135086	-0.848698	1.911059	0.155507	10.114367	3.502306	-6.821541	-5.079688	-0.222789	0.050259	-1.151666	8.489746	1.982319	0.168879	44.712867	10.113023	-1.239126	-0.522645	-0.670649	-0.117506
-5.571728	0.635979	14.571353	-87.467919	-173.162712	44.96765	0.169789	-0.107918	-0.855879	1.856796	0.324749	10.283219	6.167125	-8.567696	-4.848284	-0.274542	0.080599	-1.15257	9.015234	1.573089	-0.182389	45.068656	12.256279	-1.311767	-0.536348	-0.63599	-0.165834
-7.059934	1.613804	14.603358	-92.765054	-178.347253	55.138725	0.184281	-0.104764	-0.870304	1.859083	-0.238509	10.339384	7.726981	-9.631704	-3.223733	-0.260831	0.053249	-1.193888	8.423972	1.574192	-0.253301	45.055933	14.146874	-0.740053	-0.508319	-0.63806	-0.11911
-9.734894	2.595877	15.407922	-97.515664	-183.764574	64.353493	0.127399	-0.072196	-0.889815	1.629407	0.719636	10.448634	10.176953	-11.143953	-1.664572	-0.23525	0.037007	-1.179086	8.188448	1.342428	-0.258691	45.330055	15.617145	2.124865	-0.494549	-0.654875	-0.102675
-12.057337	3.464748	16.67351	-91.437752	-178.137111	72.367108	0.098415	-0.078503	-0.860965	1.908556	0.831426	10.058296	10.285679	-12.193318	-0.410969	-0.248596	0.020539	-1.163457	8.488065	1.284665	-0.013809	45.123387	16.59587	7.989252	-0.536206	-0.637642	-0.134778
-14.937549	4.554591	15.769624	-76.800133	-166.402645	79.657878	0.05681	-0.087622	-0.870577	1.683238	0.775716	10.279971	7.867338	-12.755904	1.215381	-0.288259	0.04774	-1.121587	8.837045	0.643536	-0.369367	45.231117	17.036405	15.719901	-0.56423	-0.654243	-0.134082
-17.484913	5.009915	14.301234	-60.142926	-154.651625	86.26845	0.040746	-0.001093	-0.904799	1.913284	0.887946	10.284902	4.861446	-13.472031	1.729921	-0.274693	0.049958	-1.150563	9.186895	1.048516	-0.540754	43.75067	16.755348	21.687256	-0.521948	-0.622898	-0.10449
-19.478869	5.747932	11.878682	-37.47176	-143.681756	88.251094	0.041904	-0.042406	-0.894551	2.03027	0.549795	10.343675	2.932282	-14.512992	2.427068	-0.287229	0.021386	-1.176979	9.896844	0.291907	-0.530763	40.870583	15.805495	20.846314	-0.536411	-0.672506	-0.086521
-23.857954	4.079004	10.308879	67.305281	-64.233819	85.775946	-0.000829	-0.044811	-0.879428	1.909442	1.000465	10.115078	-1.474591	-16.075602	3.055379	-0.248671	0.005219	-1.162453	9.556783	0.412084	0.241918	37.609394	14.46837	12.947651	-0.564297	-0.672088	-0.102189
-24.69911	4.932764	8.307051	13.766253	-27.085856	54.805467	-0.013064	-0.061393	-0.914475	1.847819	1.225753	9.94414	-4.781377	-18.63194	3.027302	-0.287229	0.021386	-1.176979	9.566802	-0.108623	0.718948	33.693114	13.174336	3.615149	-0.549834	-0.62248	-0.120158
-22.355873	5.204962	5.228104	22.55315	26.695556	21.191138	-0.014964	-0.027137	-0.89657	2.305362	0.886765	9.783608	-9.194394	-20.770048	2.540069	-0.248376	0.006291	-1.176803	9.267205	0.413995	0.535951	30.678532	11.500264	1.769679	-0.536411	-0.672506	-0.086521
-24.261123	6.479252	7.355972	1.5364	78.308088	-13.207338	-0.000458	-0.041282	-0.893504	2.206031	0.211583	10.460296	-13.146088	-23.227988	0.261995	-0.261132	-0.008033	-1.189873	8.843222	0.354392	-0.071069	26.709797	10.474876	4.906442	-0.550598	-0.688076	-0.101282
-25.952784	9.071396	8.754754	-0.902645	147.100148	-57.847852	0.01482	-0.08297	-0.883606	1.913176	0.944277	10.284949	-17.3105	-27.634607	0.12235	-0.287373	0.050955	-1.164637	9.128824	0.642119	-0.543585	24.628932	9.381206	9.381632	-0.536064	-0.639295	-0.103723
-9.628124	16.492361	0.976817	89.97621	169.021758	-76.652037	0.012548	-0.052242	-0.851625	1.917773	0.437444	10.454441	-23.429935	-32.453618	2.967366	-0.300645	0.049808	-1.150011	8.884382	0.931308	-0.966099	22.067114	8.044837	16.458042	-0.535997	-0.62145	-0.135615
-4.016613	2.347932	12.22194	61.681739	129.795761	-42.296095	0.054895	-0.036066	-0.870165	2.533427	0.381601	12.33559	-25.940513	-37.831075	4.391645	-0.248741	0.050108	-1.151114	9.640628	1.856792	-1.427093	22.801186	7.0376	22.420879	-0.535997	-0.62145	-0.135615
-3.093471	-6.543583	15.1576	21.569112	113.049361	-1.567196	0.070931	-0.087997	-0.870926	1.924061	0.552727	13.455226	-14.93007	-48.689558	7.221261	-0.301235	0.047665	-1.121312	9.521846	3.600084	-1.242156	29.140145	6.24742	21.148395	-0.535926	-0.622276	-0.120088
-1.092628	-0.123685	12.382058	87.40345	124.544228	24.894718	0.099915	-0.081689	-0.899777	2.128056	-0.009716	14.874369	-27.715065	-65.210607	8.803979	-0.288925	0.030275	-1.091884	9.953146	4.300502	-0.153162	30.576901	3.699446	22.530923	-0.550043	-0.638673	-0.119321
1.693547	1.006668	8.576548	94.538784	130.647074	7.095706	0.071688	-0.098239	-0.881587	2.496576	0.781597	18.73257	20.113865	-81.66315	4.763713	-0.288925	0.030275	-1.091884	11.225209	3.95638	1.605764	16.662247	-1.076439	44.798748	-0.549834	-0.62248	-0.120158
-5.062439	-4.938394	14.046289	76.371188	68.808433	12.367901	0.085066	-0.105671	-0.853784	2.95368	-2.486815	18.286374	53.13745	-102.084087	-12.614598	-0.340238	0.032119	-1.119481	11.704015	2.50414	1.788107	11.108273	-7.347526	75.548711	-0.535576	-0.607736	-0.089869
-7.471455	-1.388106	11.002384	111.117567	70.529629	4.874557	0.14079	-0.096926	-0.844521	2.575246	-2.03442	19.467723	78.794833	-122.717643	-21.523029	-0.341049	0.044224	-1.077435	12.223751	2.674681	1.199684	15.592801	-11.086055	77.782772	-0.521881	-0.605053	-0.136382
-5.299164	0.837711	8.042007	61.190254	45.85293	6.211892	0.155325	-0.14567	-0.80647	2.777625	-1.751906	20.887576	92.643179	-143.925561	-26.932283	-0.392588	0.000106	-1.102021	13.013122	2.896936	-0.760849	7.650227	-8.668568	54.193014	-0.549488	-0.589269	-0.13736
-2.79157	0.84582	10.420864	27.632622	27.382921	-4.786773	0.170946	-0.149231	-0.845632	2.336551	-1.806615	21.784091	103.585329	-174.973041	-30.992696	-0.380202	-0.001963	-1.073597	12.607077	4.119703	-0.224198	0.655977	-0.827209	27.001696	-0.549275	-0.591748	-0.090776
-3.024047	-0.533576	10.183206	45.161119	25.796246	-9.463418	0.157197	-0.145328	-0.859358	2.075534	-1.917694	23.024023	111.767489	-201.870281	-32.794553	-0.419576	-0.0339	-1.056413	13.327241	4.178878	0.44823	-3.33361	4.615097	16.963784	-0.549555	-0.607114	-0.105467
-2.483882	1.125059	8.609453	25.110904	19.630198	-2.42137	0.141205	-0.145296	-0.806121	0.600654	-3.209735	23.897734	126.818231	-230.064128	-34.911966	-0.472215	-0.006775	-1.014268	14.161886	4.818049	1.005518	-4.887206	6.926611	5.863042	-0.563045	-0.574933	-0.107211
-2.363516	0.724092	8.894256	26.187286	16.614321	-4.344269	0.114507	-0.199631	-0.791759	0.252104	-5.349932	23.548841	149.643799	-263.989674	-43.121785	-0.474142	-0.104057	-0.936498	13.808869	4.354251	0.996938	-4.305668	7.671982	-12.78546	-0.535509	-0.589891	-0.121762
-2.186232	2.333778	9.245472	17.068559	12.928991	-2.905824	0.198459	-0.174336	-0.800686	1.605046	-6.818346	22.103993	184.325051	-291.307728	-62.753843	-0.487633	-0.090956	-0.908526	12.633103	4.76472	1.276194	-1.213544	6.907624	-32.471939	-0.549488	-0.589269	-0.13736
-2.70552	1.701329	9.005383	12.424898	10.888565	-3.75367	0.184695	-0.153134	-0.831905	-0.937489	-4.051213	24.544058	224.001359	-306.634391	-84.38885	-0.540498	-0.109792	-0.86337	11.15936	5.000894	1.369486	1.807403	6.419669	-37.491458	-0.563183	-0.591952	-0.090847
-2.75514	0.381663	9.339838	5.645515	8.403144	-1.474419	0.156469	-0.169684	-0.813715	-0.130108	-2.533993	22.071329	308.337153	-292.348484	-66.178257	-0.567492	-0.204008	-0.828097	9.876681	4.891174	2.183478	5.270919	4.739452	-27.626744	-0.562699	-0.541722	-0.124413
-2.633044	0.670476	9.741243	4.139059	6.813558	-0.146522	0.185124	-0.218803	-0.776014	4.457044	-1.695937	24.093291	359.56236	-244.514594	-11.10064	-0.59566	-0.242303	-0.725091	9.115648	4.603785	2.467471	6.175268	1.621792	-15.697686	-0.563183	-0.591952	-0.090847
-2.231025	0.498103	9.805167	0.368618	5.890503	1.106711	0.154568	-0.135428	-0.79581	2.069949	-3.274679	17.248064	408.735897	-250.503527	19.122125	-0.635995	-0.292776	-0.663854	8.703346	4.256274	2.458284	5.127057	-0.769611	-6.636675	-0.604769	-0.575545	-0.107422
-2.470437	1.013071	9.291207	-1.738041	6.358074	2.377746	0.154568	-0.135428	-0.79581	-9.824192	-6.190381	6.974979	394.510871	-250.369983	27.3743	-0.63688	-0.295992	-0.620804	8.522841	3.849158	2.213625	2.83099	-2.078824	3.830275	-0.507622	-0.590309	-0.106094
-2.460457	1.072684	9.803126	-3.389732	6.622407	2.785473	0.155325	-0.14567	-0.80647	-9.830018	-4.115688	-3.893234	222.925658	-185.313827	92.937282	-0.637917	-0.329849	-0.575748	7.930188	3.501311	2.021416	1.76791	-1.547718	17.18869	-0.549551	-0.625785	-0.058047
-2.176205	0.784786	9.693781	-6.691603	7.146553	3.99952	0.198073	-0.160565	-0.804102	-10.172472	-5.408259	-1.184086	99.001977	-100.708499	152.913573	-0.665049	-0.334286	-0.517797	8.406584	3.559295	2.270094	3.415011	0.427369	27.902801	-0.563396	-0.589473	-0.13743
-2.004608	1.014428	9.698087	-7.154235	6.902383	3.659544	0.143463	-0.158725	-0.855593	-1.469965	-5.42177	2.169068	33.274922	-67.605493	179.834096	-0.690851	-0.303795	-0.519253	8.595292	2.806127	2.809344	5.991161	2.612141	33.446848	-0.576949	-0.593808	-0.059861
-2.294137	0.899029	9.521477	-8.102512	7.111674	3.788344	0.127827	-0.137865	-0.833924	-0.886855	-6.938862	7.78478	-6.96854	-10.929177	186.193984	-0.666375	-0.309005	-0.448056	9.484915	2.340235	3.003593	11.875495	3.674144	42.225234	-0.577374	-0.588851	-0.153028
-2.286177	0.670951	9.918484	-8.351036	7.182768	2.839528	0.226314	-0.161314	-0.804801	-0.299281	-5.587438	8.477682	2.468668	9.321624	155.379363	-0.704041	-0.229412	-0.495296	9.895652	1.467161	2.76796	20.72632	5.132036	40.351833	-0.577233	-0.590503	-0.121972
-2.17678	0.037805	9.633791	-8.788205	7.141553	0.87739	0.156111	-0.190512	-0.782147	0.708038	-4.40748	7.254367	15.114273	11.516203	116.094885	-0.678384	-0.230334	-0.481498	9.361516	2.281193	2.701611	26.6142	8.003121	19.101121	-0.577438	-0.625367	-0.073715
-2.635887	-0.019546	9.567788	-6.553312	7.503598	-0.319205	0.158369	-0.203941	-0.831619	0.292715	-2.998842	6.793973	22.747505	13.437122	80.815019	-0.69077	-0.228265	-0.509922	9.355359	3.035192	2.465197	31.090245	8.379443	13.825607	-0.577304	-0.589677	-0.1375
-2.403985	0.612869	9.745456	-6.463468	7.729226	-1.205171	0.19733	-0.167622	-0.77595	-1.039405	-2.546004	6.42671	31.86824	23.786864	53.484612	-0.716421	-0.167134	-0.513385	9.287249	2.684646	1.923451	35.455949	8.047644	11.916287	-0.577229	-0.609175	-0.074552
-2.12328	0.611455	9.466758	-5.760186	7.455591	-1.180975	0.154568	-0.135428	-0.79581	-2.718018	-2.148896	5.995507	43.252341	43.337938	39.136031	-0.664592	-0.182154	-0.513484	9.281342	2.857638	1.624658	33.641622	7.655497	7.798415	-0.576815	-0.558118	-0.123647
-2.292858	0.669504	9.577365	-4.225498	7.831864	-1.209945	0.171361	-0.197601	-0.807232	-3.829679	-2.260221	5.122848	48.767377	68.744398	36.340994	-0.691059	-0.169127	-0.485237	8.69091	2.97514	1.614149	30.224886	6.820802	4.513818	-0.548232	-0.510785	-0.094962
-2.521751	0.497345	9.572187	-6.218397	7.38642	-0.69009	0.170218	-0.173587	-0.799988	-5.063615	-2.427945	3.907887	41.957803	97.241662	42.538503	-0.664888	-0.183226	-0.499134	8.161155	3.325306	1.725542	25.644845	6.431615	2.11773	-0.562837	-0.558741	-0.108049
-2.467672	0.266814	9.401776	-5.841846	7.362758	1.547195	0.212951	-0.171183	-0.815111	-4.429641	-2.823444	3.920854	28.434948	125.311467	53.505324	-0.677864	-0.183301	-0.498859	8.692145	2.917312	1.673808	23.468888	5.49446	0.296292	-0.590022	-0.529243	-0.06328
-1.953537	0.323641	9.355186	-5.711574	6.652483	4.602012	0.143105	-0.179552	-0.824026	-4.182802	-3.273903	4.661625	16.636212	145.910245	66.526872	-0.6379	-0.149219	-0.544742	8.577975	3.150875	1.912224	18.016175	4.533478	2.612867	-0.549488	-0.589269	-0.13736
-2.178473	0.841745	9.580316	-6.285012	7.218704	5.931545	0.157212	-0.162628	-0.841867	-3.714941	-3.950494	4.953925	9.090741	158.478063	78.8556	-0.651096	-0.135046	-0.53112	7.985572	2.22202	1.657636	20.633539	4.208303	2.42156	-0.534253	-0.511407	-0.079364
-2.067015	0.438848	9.410295	-7.597969	7.166871	7.25315	0.155668	-0.107543	-0.85553	-2.347231	-4.291633	4.302979	0.098587	166.386645	88.73207	-0.623152	-0.142713	-0.631116	8.574248	2.859506	1.67136	22.143638	5.364178	0.607343	-0.548858	-0.559363	-0.092451
-2.579954	0.267379	9.513255	-8.452257	7.714979	7.356516	0.185081	-0.166905	-0.828489	-1.594045	-4.292845	4.545253	-10.891165	172.449504	95.875355	-0.636713	-0.084722	-0.591806	8.510965	2.800576	1.430385	25.868841	7.096646	-2.959675	-0.563116	-0.574107	-0.122739
-2.798991	0.327158	10.020721	-9.581308	8.164738	7.888407	0.19733	-0.167622	-0.77595	-1.053011	-4.912597	5.575124	-20.976248	178.914202	99.477525	-0.583408	-0.094383	-0.663654	8.990912	2.278295	1.796405	30.34086	8.974347	-5.521462	-0.562628	-0.542548	-0.108886
-2.289269	0.325578	9.746476	-12.828821	8.521122	7.658213	0.185081	-0.166905	-0.828489	-0.590525	-5.307725	5.641103	-27.019002	187.223817	100.387923	-0.582743	-0.076918	-0.693357	8.582647	3.035712	2.151357	34.084252	10.04814	-10.460449	-0.576953	-0.575137	-0.107282
-2.235106	-0.019836	9.575583	-9.695341	9.923467	7.242654	0.141219	-0.162595	-0.788629	0.401793	-6.154041	6.22734	-30.205704	198.888798	99.453143	-0.530839	-0.076618	-0.69446	8.751931	1.63901	1.549656	36.655577	10.190125	-8.514561	-0.590582	-0.559975	-0.092661
-2.411862	0.726063	9.347967	-10.184843	10.137683	7.124878	0.183595	-0.181018	-0.772185	0.523507	-6.435672	6.512718	-33.103004	213.750028	97.193734	-0.530023	-0.028513	-0.72617	8.757589	2.047025	1.910828	36.868757	9.919907	-3.01298	-0.576744	-0.558945	-0.108119
-2.745202	0.498717	9.851999	-9.448674	10.765463	6.274294	0.185824	-0.159848	-0.856641	0.885261	-6.773685	7.256002	-37.277261	230.274523	95.44323	-0.50326	-0.040468	-0.768767	8.866527	1.696074	1.372383	35.368417	9.521528	-0.499525	-0.576189	-0.509541	-0.126158
-2.352215	0.496738	9.461821	-9.386759	11.358668	5.486419	0.226314	-0.161314	-0.804801	1.829815	-7.056161	8.35126	-43.210435	246.959185	93.63126	-0.489914	-0.024001	-0.784397	8.641892	1.989714	2.028193	32.952558	7.173147	0.956888	-0.591349	-0.6069	-0.121206
-2.464041	-0.134553	9.570646	-10.507533	12.128724	7.587497	0.212565	-0.157411	-0.818527	2.475315	-7.789217	8.873698	-50.108187	260.71984	92.097749	-0.411468	-0.021407	-0.81475	8.348162	1.409628	2.020219	33.115627	5.697483	4.692095	-0.590719	-0.576994	-0.076296
-2.349201	-0.594169	9.570943	-9.785426	13.209104	10.178946	0.196944	-0.153851	-0.779366	2.721161	-8.352384	9.557734	-58.717599	268.500757	88.653291	-0.410652	0.026698	-0.846461	8.476253	1.818363	2.623219	31.798079	4.310486	8.218398	-0.590652	-0.559149	-0.108189
-2.459546	-0.19103	9.797817	-9.76664	14.406675	12.988943	0.169046	-0.114975	-0.827727	3.888053	-8.917276	10.261114	-73.715644	269.446083	83.532298	-0.358598	0.057639	-0.849571	8.768573	1.584642	2.448012	32.515847	1.937126	13.178736	-0.60393	-0.529447	-0.06335
-2.750272	-0.191788	9.564837	-6.861979	16.19843	16.076228	0.157597	-0.176399	-0.838451	4.931483	-8.918931	10.622712	-99.963014	265.446707	77.798061	-0.33176	0.061005	-0.893172	9.119369	1.58309	2.274894	33.039989	-0.14107	16.151704	-0.576394	-0.544405	-0.0779
-2.578882	0.325062	9.57035	-7.035611	17.419811	16.709875	0.183952	-0.160191	-0.803753	5.492444	-8.580211	12.672902	-125.711695	259.613656	72.53935	-0.331314	0.092718	-0.909529	9.343578	0.998823	1.557941	33.282573	0.084976	15.079912	-0.617771	-0.511806	-0.095313
-2.5755	0.268344	9.740668	-10.800984	19.047916	15.244587	0.141176	-0.110697	-0.841105	7.142335	-7.624045	14.576665	-149.52377	255.666536	68.195176	-0.291426	0.111479	-0.954409	9.8087	1.170487	1.208044	34.616276	0.164892	10.76489	-0.60456	-0.559353	-0.108259
-2.518494	0.612952	9.743229	-15.368197	25.605132	12.420424	0.212179	-0.14364	-0.821943	9.634577	-8.019993	18.082122	-161.474844	251.399076	65.583987	-0.23885	0.189453	-0.97488	9.560935	0.99408	0.543925	38.118419	0.572118	2.161651	-0.604769	-0.575545	-0.107422
-2.510161	-0.132099	10.138064	-17.95656	30.864423	8.312106	0.184695	-0.153134	-0.831905	12.288007	-7.067047	18.478376	-169.575901	245.707403	58.768593	-0.200513	0.187535	-0.947007	8.608953	0.529654	0.045085	41.29762	2.437608	-5.591065	-0.590582	-0.559975	-0.092661
-2.908264	0.787979	10.304689	-28.051889	35.516686	5.871446	0.240034	-0.130619	-0.826057	16.104271	-6.453814	19.40828	-185.63134	243.850858	49.333608	-0.187167	0.204002	-0.962636	8.423257	0.934861	-0.375834	43.62803	3.682233	-9.792299	-0.590444	-0.542956	-0.109026
-2.859338	-0.018174	9.8476	-28.071345	42.343028	5.522455	0.211065	-0.154225	-0.779715	19.376068	-5.953314	19.081137	-196.075469	244.967681	31.454595	-0.147643	0.266581	-0.981828	8.302733	0.585933	-0.559239	43.6871	3.842656	-10.496168	-0.562628	-0.542548	-0.108886
-2.847669	0.788661	10.476362	-36.836483	47.715712	5.113671	0.227071	-0.171557	-0.815461	22.812576	-4.439426	18.475277	-205.613207	241.481774	7.48868	-0.121616	0.282051	-0.983383	7.650835	1.284084	-0.628284	41.164015	4.04351	-4.161846	-0.562974	-0.575759	-0.091684
-3.183976	0.043618	10.807663	-41.501633	56.482555	5.146933	0.226314	-0.161314	-0.804801	25.709737	-1.291694	17.010318	-218.683696	222.939449	-15.241622	-0.070152	0.310848	-0.957794	7.897614	0.937312	-0.086203	39.925222	4.490493	5.437299	-0.576398	-0.525733	-0.125321
-3.016625	-0.014913	10.58335	-42.119736	64.859527	5.959556	0.212151	-0.109042	-0.856927	25.242897	3.664012	14.457247	-242.10023	186.780271	-29.12253	-0.017953	0.31222	-0.973246	7.848771	0.82352	0.451364	33.708569	4.975433	12.609727	-0.562907	-0.557914	-0.123576
-2.912179	0.040274	10.07414	-43.296421	73.722638	4.29767	0.240792	-0.140861	-0.836717	25.080643	9.579893	15.478112	-261.594429	137.182202	-28.707044	-0.030853	0.327466	-0.973974	7.976147	0.592924	0.931831	26.243813	5.328836	17.281187	-0.576465	-0.543578	-0.093428
-2.555006	1.191992	10.824737	-48.497527	83.279413	-0.592151	0.253398	-0.12075	-0.815746	23.45683	14.823939	18.052886	-231.140619	89.770756	-15.00483	-0.018092	0.401999	-0.950569	8.211402	0.94084	0.937716	19.392455	4.911587	16.818921	-0.54837	-0.527804	-0.078597
-2.958838	0.789468	10.644695	-50.321674	94.84025	-7.452736	0.225914	-0.130244	-0.825708	28.71879	15.892511	27.449066	-154.402041	56.138365	4.297925	-0.017646	0.433712	-0.966926	8.384184	0.88137	0.701143	12.963616	3.054371	16.728802	-0.590444	-0.542956	-0.109026
-3.668959	1.257018	12.394595	-50.180601	104.554545	-10.576839	0.281624	-0.1042	-0.833937	22.955828	19.163355	19.235089	75.823917	10.172553	2.916157	-0.006592	0.396715	-0.879096	8.369203	1.168536	-0.076411	8.590932	-1.477795	18.692006	-0.618464	-0.578228	-0.060909
-4.665015	-0.28592	14.07363	-53.867268	109.294255	-4.692659	0.280896	-0.128556	-0.788293	23.878374	20.516089	22.14298	177.65087	-12.069864	19.763621	0.020466	0.385832	-0.936043	8.656196	1.805214	-0.427631	6.840699	-6.406886	21.503543	-0.548925	-0.577208	-0.060558
-4.765747	-0.857357	14.751227	-40.443787	123.812057	2.006423	0.295359	-0.090804	-0.837702	20.577063	23.678556	24.114545	253.956992	-65.564863	33.320762	-0.018977	0.398784	-0.907519	8.657971	1.515081	-0.36896	7.690454	-11.28331	26.047909	-0.548303	-0.509959	-0.11049
-4.902495	-1.539053	16.507437	-38.754468	142.88768	10.959755	0.337349	-0.095456	-0.824673	-11.337796	28.406025	14.673233	395.853556	-166.353366	106.862898	0.020836	0.402224	-0.951396	8.707103	1.977576	-0.845137	6.506952	-15.301029	29.678599	-0.576047	-0.511193	-0.095102
-3.694518	-0.721949	19.773711	-37.348884	170.313789	20.049233	0.364847	-0.103262	-0.79722	-3.249198	17.963065	7.190988	273.18062	-182.234797	137.750235	-0.018393	0.340718	-0.946554	9.0814	4.654197	0.610604	0.535238	-17.862906	23.965408	-0.562348	-0.527182	-0.094195
-2.893651	2.059838	25.711377	-45.61569	215.548492	19.858067	0.350341	-0.089116	-0.800286	12.969815	6.615919	13.919017	116.672857	-182.633068	20.67076	-0.043685	0.297822	-0.986041	10.751506	8.896147	2.157137	-6.449678	-18.4284	-0.673133	-0.548578	-0.543996	-0.07776
-0.924087	-1.281183	23.860201	-16.087777	271.602658	25.223103	0.434321	-0.09842	-0.77423	7.156602	8.591458	5.929299	40.835339	-112.595481	-38.499915	-0.044206	0.250789	-0.96868	11.555622	6.565035	0.664981	4.572959	-16.144843	10.034581	-0.576044	-0.529865	-0.047682
-1.746883	-2.721466	22.701518	-14.712207	323.416667	26.460725	0.419843	-0.118873	-0.742313	-0.909567	-0.123248	7.337401	-12.351514	-83.08269	-61.923044	-0.069341	0.298744	-0.999839	12.476299	2.02528	-1.193809	8.275474	-7.692493	48.743656	-0.562348	-0.527182	-0.094195
-0.715231	-2.664529	22.778655	-17.940959	374.972709	34.085314	0.419829	-0.101574	-0.759805	-1.222928	-5.637418	13.723357	21.676547	-89.521358	-43.248966	-0.109085	0.250413	-0.967302	13.599206	0.860947	-1.237753	13.554074	1.456692	59.076707	-0.589538	-0.479013	-0.096847
0.566926	-3.062707	23.938524	-6.338119	411.92594	41.122779	0.474825	-0.117185	-0.704898	-1.545217	-1.525795	12.474703	100.497145	-106.564127	-0.228266	-0.109456	0.234021	-0.951948	12.340487	1.337673	0.956571	14.705816	6.777248	47.795186	-0.603166	-0.463851	-0.082226
-1.218179	-2.156874	20.497795	30.900986	432.136776	41.007285	0.544328	-0.146942	-0.646924	8.941865	-5.601113	12.80459	131.986202	-85.508647	-6.159252	-0.082612	0.297597	-0.985214	10.25141	1.699149	2.895366	22.252512	3.85981	33.74884	-0.56186	-0.495623	-0.080341
-6.8678	-2.198534	9.64678	42.096116	433.178216	26.795645	0.585189	-0.14488	-0.60916	8.368372	4.305501	3.007032	96.194131	-27.626592	22.410498	-0.135489	0.158341	-0.960728	8.677262	2.404404	4.006852	29.018232	1.928424	27.619477	-0.589609	-0.478186	-0.112374
-10.095536	-1.741264	8.506146	-69.278432	403.275182	7.065268	0.583331	-0.162522	-0.53878	-0.52669	-0.906379	14.421523	44.117861	-7.787927	10.604143	-0.121992	0.205449	-0.978365	9.137462	3.27224	3.480202	26.695207	5.479255	20.641261	-0.56186	-0.495623	-0.080341
-8.969127	-5.812681	10.329468	-165.101797	372.747398	-24.592305	0.69631	-0.182817	-0.524082	3.44104	0.207979	9.014263	56.470692	-20.531012	4.383327	-0.135408	0.233871	-0.951397	9.244935	4.02498	3.006361	20.75428	11.209965	8.68394	-0.617074	-0.464055	-0.082296
2.372686	0.811993	16.943009	-226.091312	284.34509	26.065013	0.707415	-0.15952	-0.464299	1.593858	2.23928	8.920645	36.674505	-10.7587	4.957814	-0.108871	0.175955	-0.990983	10.720879	3.7893	3.032883	16.250412	17.159188	-0.222239	-0.575977	-0.51202	-0.079574
12.181991	-2.010878	3.368952	-112.387329	196.287152	60.730027	0.693309	-0.176445	-0.446458	2.249329	0.717929	9.838896	20.741418	-8.561978	-0.859699	-0.096781	0.172815	-0.94821	12.467849	3.954286	1.808593	15.349665	20.497653	4.991444	-0.589605	-0.496858	-0.064954
8.696524	-2.523876	3.639976	-90.536326	42.836477	93.517032	0.691409	-0.142189	-0.428553	2.073353	1.168801	9.72237	14.682203	-6.668502	-2.078868	-0.134377	0.207518	-1.006789	13.806628	3.424046	0.753354	20.631363	22.58363	9.210842	-0.533768	-0.461177	-0.112931
5.078229	0.386159	11.879103	-74.829742	-46.160697	144.431272	0.735328	-0.215696	-0.398446	1.77972	1.676125	9.490194	8.839949	-4.71057	-3.358873	-0.147504	0.176802	-1.004506	14.933552	2.899785	1.011665	24.10219	21.035035	3.367859	-0.57563	-0.478809	-0.096776
7.599553	0.245003	6.187678	-56.444796	-84.818809	180.026425	0.708201	-0.204362	-0.439975	2.186174	1.11216	9.611461	3.768196	-2.694412	-2.664693	-0.134377	0.207518	-1.006789	14.293603	3.193875	1.539959	23.735038	17.416134	-7.707674	-0.589747	-0.495205	-0.09601
8.222033	2.036374	8.821536	-65.596452	-121.077932	187.613009	0.707072	-0.197647	-0.415239	2.020384	0.662077	9.890653	2.653159	-0.415263	-1.68726	-0.136004	0.171518	-0.933033	13.598884	3.08231	2.245142	26.350672	11.094787	-10.804164	-0.603446	-0.479217	-0.096917
8.744698	4.163267	9.295311	-52.819861	-141.657839	179.859536	0.666597	-0.213481	-0.449588	1.96131	1.450812	9.890108	2.860045	1.388666	-0.497691	-0.135934	0.126628	-0.944371	12.401785	3.197454	1.325024	26.214356	7.424048	-7.882898	-0.589747	-0.495205	-0.09601
10.410064	4.967453	9.615246	-21.271883	-161.951826	151.773943	0.681475	-0.224098	-0.460597	1.910196	0.606151	10.114746	0.992831	2.85806	0.93351	-0.14876	0.157194	-0.946103	11.697007	2.676885	1.429407	30.725677	7.515933	-6.341054	-0.561305	-0.446219	-0.09838
9.813561	4.21582	8.350206	6.23856	-183.255978	113.351095	0.668469	-0.213139	-0.502476	2.079828	0.943716	10.005378	-2.585557	3.327246	1.952627	-0.122217	0.159488	-0.975354	11.632603	2.152852	1.06664	35.767918	7.780095	-9.447228	-0.589329	-0.46282	-0.097684
8.318058	4.502658	7.981343	29.779836	-206.175262	74.506101	0.639513	-0.254045	-0.438642	2.373376	1.112406	10.294763	-3.818877	3.610763	3.095099	-0.14876	0.157194	-0.946103	11.274395	2.501377	0.8818	37.358847	6.564523	-15.589711	-0.575906	-0.512846	-0.064047
6.251544	2.664573	7.592417	45.899601	-223.502992	41.221846	0.613144	-0.252954	-0.490831	1.618958	0.493887	9.938688	-4.933621	3.383009	2.937796	-0.135338	0.188982	-0.962736	10.154033	2.09741	0.859161	38.16972	4.963243	-17.235185	-0.588983	-0.429609	-0.114886
4.573515	2.432149	6.649511	44.076096	-235.897348	18.488987	0.586389	-0.238091	-0.546437	1.907216	0.268026	9.944543	-5.73794	3.252778	2.535086	-0.147579	0.161481	-1.003502	9.734588	1.98072	0.491523	35.004445	4.458462	-25.716336	-0.589538	-0.479013	-0.096847
2.401809	1.572825	6.774138	34.479078	-248.538757	6.137111	0.571869	-0.206646	-0.566995	2.1901	0.323628	9.724076	-5.397787	3.230048	1.980226	-0.136004	0.171518	-0.933033	9.443483	1.691757	0.664505	33.180077	3.03311	-24.572332	-0.603233	-0.481696	-0.050333
1.307874	0.767983	6.408485	22.477444	-264.092235	2.607101	0.545528	-0.240154	-0.584201	1.843176	0.493219	9.660325	-5.062001	2.869607	1.483661	-0.122217	0.159488	-0.975354	8.800753	1.287946	0.950204	27.589181	1.59937	-29.831476	-0.589538	-0.479013	-0.096847
0.456852	0.770293	6.789754	9.033117	-279.675556	6.44088	0.546657	-0.246868	-0.608937	1.907886	0.549726	10.001419	-4.040412	3.007816	1.085091	-0.147648	0.206371	-0.992163	8.680405	1.810653	0.890321	23.815639	0.893627	-30.914443	-0.603792	-0.512428	-0.079715
-1.009659	1.005962	7.89883	1.153999	-290.113101	14.57395	0.533679	-0.270507	-0.615832	1.971496	0.549855	10.285826	-2.278801	3.033377	0.593512	-0.135708	0.172589	-0.947382	7.904837	2.565913	0.519788	21.567815	0.693168	-30.049797	-0.57563	-0.478809	-0.096776
-1.331408	0.149172	8.968739	-3.012721	-294.900135	22.511682	0.490532	-0.224542	-0.639108	1.904691	0.324262	9.831311	-1.045366	2.865069	0.592831	-0.135193	0.159413	-0.975078	7.792712	2.393192	0.81638	19.901857	0.005699	-29.215483	-0.588912	-0.430435	-0.099358
-1.834781	0.611731	9.586032	-3.745852	-297.449056	27.163916	0.44817	-0.223418	-0.638061	1.734867	0.719041	9.997935	0.125961	2.637064	0.221568	-0.136224	0.185766	-0.919686	8.087658	2.450592	0.822129	20.03114	-1.992234	-25.264667	-0.575559	-0.479635	-0.081249
-1.479705	0.039479	10.15883	-2.373147	-299.241454	28.388051	0.421444	-0.243155	-0.658682	1.730355	0.54986	9.771234	-0.678853	2.389608	-1.014663	-0.135633	0.18791	-0.948386	7.96893	2.276387	0.75928	20.103434	-2.415834	-22.726675	-0.589463	-0.49851	-0.033898
-1.646932	-0.074315	10.38242	-4.052481	-300.776972	24.71906	0.366062	-0.213772	-0.717005	1.793295	0.268289	9.998764	-3.066149	1.5137	-2.998283	-0.134898	0.160485	-0.989428	8.078699	2.041835	0.281237	20.020801	-2.124461	-21.352679	-0.589117	-0.465299	-0.0511
-1.934685	-1.108538	10.258802	-7.47662	-299.945336	17.843008	0.379782	-0.183076	-0.738262	1.444299	0.888477	9.878753	-3.782771	0.9291	-4.083648	-0.135708	0.172589	-0.947382	8.077889	2.390291	0.28272	18.673971	-2.427653	-19.115627	-0.589605	-0.496858	-0.064954
-2.55512	-1.738008	10.698724	-16.912044	-293.641855	9.018164	0.281696	-0.190697	-0.746478	1.388373	0.66331	9.933994	-4.008006	0.077805	-5.633684	-0.161215	0.204152	-0.963188	8.256558	1.692974	0.283055	18.297853	-3.345476	-13.303692	-0.604281	-0.543987	-0.093568
-2.72086	-2.368535	10.976995	-32.480283	-281.748276	-1.416158	0.282453	-0.20094	-0.757138	1.681144	0.60663	10.16655	-2.376643	-0.477011	-6.716858	-0.122142	0.174808	-0.976358	7.95694	1.750736	0.038172	17.954362	-2.372677	-9.884366	-0.561998	-0.512642	-0.063976
-4.132343	-2.13339	11.973479	-48.11327	-267.468344	-16.136737	0.210707	-0.175053	-0.748148	2.140674	0.493059	10.119487	-1.180497	-1.194466	-7.216273	-0.096705	0.188135	-0.949213	7.835472	1.808341	-0.143502	17.443853	0.704228	-11.822495	-0.547952	-0.495419	-0.080271
-5.073378	-2.125689	13.603289	-59.213387	-251.247296	-34.735723	0.212222	-0.195538	-0.769468	1.798261	0.831831	10.282437	0.321623	-2.123869	-7.532582	-0.096335	0.204527	-0.964567	7.066756	1.984077	-0.216973	18.322232	4.190701	-8.51123	-0.562207	-0.528834	-0.063139
-5.915782	-1.719358	14.441072	-63.289173	-236.796506	-57.220499	0.141576	-0.141768	-0.820197	1.511081	0.494387	10.276108	0.489639	-3.529109	-8.008834	-0.135118	0.174733	-0.976082	7.310234	1.636564	0.145387	19.970763	5.539	-2.258514	-0.534532	-0.526774	-0.094055
-8.930597	-1.195845	15.407585	-67.171469	-227.203318	-77.271807	0.17016	-0.10439	-0.869955	1.506137	0.550528	10.049597	3.837546	-4.933911	-7.064452	-0.148094	0.174658	-0.975806	7.658173	2.389753	-0.084424	19.900694	6.958686	5.375779	-0.576047	-0.511193	-0.095102
-12.765116	-1.767242	15.387421	-77.840379	-218.54724	-90.75457	0.127456	-0.141393	-0.819848	1.905361	0.605962	9.888188	4.991391	-6.455535	-6.58541	-0.109907	0.142099	-0.945927	7.71827	1.92501	-0.085302	21.657702	8.14944	9.15375	-0.576114	-0.529038	-0.06321
-16.167682	-0.781012	17.030306	-84.11976	-211.609285	-100.166952	0.058311	-0.090808	-0.909389	1.913607	0.718955	10.28476	5.592738	-7.650522	-5.548666	-0.135489	0.158341	-0.960728	7.893927	1.575654	-0.203298	22.777571	9.845945	14.093244	-0.548023	-0.494593	-0.095799
-18.78357	-0.775245	17.888735	-68.166499	-205.008464	-100.627295	0.014077	-0.090027	-0.855454	1.500979	0.71933	9.82318	5.857141	-8.605705	-4.324839	-0.147868	0.220619	-0.978817	7.648499	1.341665	-0.74785	22.796229	11.832096	20.227678	-0.590373	-0.543783	-0.093498
-22.247952	-0.549265	16.344711	-32.612802	-190.480911	-94.970146	-0.013049	-0.078693	-0.896983	2.140566	0.54939	10.119534	4.119933	-9.151805	-3.900077	-0.122513	0.158416	-0.961004	8.351461	1.222657	-1.034674	24.506326	13.056735	26.635046	-0.590373	-0.543783	-0.093498
-24.368743	-1.250099	13.231663	-6.860526	-163.746189	-82.244146	-0.013778	-0.103049	-0.851339	1.860531	0.268561	10.45309	4.542236	-9.829438	-2.611703	-0.14876	0.157194	-0.946103	8.473604	0.874672	-0.854236	26.783662	13.666909	30.536828	-0.561651	-0.479431	-0.081178
-25.364571	-1.841222	9.118011	4.05019	-129.073227	-68.058758	-0.055411	-0.077569	-0.895935	2.095412	0.38098	10.684579	7.503221	-9.902527	0.256959	-0.161736	0.157119	-0.945827	8.780074	0.237386	-0.312291	24.728882	12.392701	28.807855	-0.603446	-0.479217	-0.096917
-24.887134	-3.40096	7.131659	5.046332	-92.617625	-52.865969	-0.055025	-0.09134	-0.89252	1.921376	-0.182096	10.567199	10.067628	-9.639352	2.512096	-0.174416	0.158116	-0.959901	9.43572	0.29546	0.059502	18.135593	9.650308	22.547581	-0.575843	-0.47633	-0.14336
-23.429815	-4.787631	5.506079	1.78531	-60.270503	-38.158439	-0.098159	-0.062674	-0.898304	2.311491	0.210989	10.009597	11.183471	-9.376888	2.05318	-0.199923	0.189678	-0.975707	9.090561	0.240172	0.531908	11.048609	5.944635	17.577821	-0.575488	-0.480461	-0.065721
-23.163586	-4.792181	4.48829	-11.15432	-31.941352	-23.152182	-0.098859	-0.121629	-0.817676	2.25669	0.661883	10.178686	9.616068	-9.039619	-0.996712	-0.147428	0.192122	-1.005509	9.081083	0.528574	0.053889	7.072842	2.383867	17.425814	-0.547952	-0.495419	-0.080271
-21.098718	-3.75876	4.760132	-34.674218	-3.841521	-8.79523	-0.055397	-0.094868	-0.878444	2.370289	0.830611	10.124607	6.197705	-8.626222	-5.218775	-0.161591	0.12755	-0.95817	8.969363	0.181624	0.349739	5.950436	0.447364	17.958765	-0.58905	-0.447454	-0.082993
-19.317114	-2.264876	5.198896	-52.05254	20.265487	7.563298	-0.083295	-0.055992	-0.926805	2.19837	1.056304	10.177809	2.45812	-9.110906	-8.710129	-0.161145	0.159263	-0.974527	8.734399	0.182411	0.405244	7.160686	0.002315	20.004529	-0.590164	-0.52759	-0.094335
-16.379654	-1.803597	6.167264	-56.50664	36.605896	25.535324	-0.069932	-0.046124	-0.916494	2.086088	0.831292	10.288481	-1.438601	-9.725652	-11.370539	-0.147868	0.220619	-0.978817	8.852296	0.240217	0.407692	9.126214	-0.469071	24.860029	-0.575559	-0.479635	-0.081249
-14.370015	-2.033608	6.489536	-54.530693	44.638074	47.000411	-0.112622	-0.100427	-0.848895	1.965236	0.662279	10.002723	-4.9703	-10.823347	-14.497852	-0.109461	0.173811	-0.962284	9.204597	0.064685	0.293739	11.295812	-1.255443	33.629521	-0.5894	-0.461994	-0.113212
-10.727174	14.891667	29.534391	-39.991847	153.313627	60.773525	-0.070689	-0.035881	-0.905834	2.312053	0.549019	10.066521	-9.166667	-13.013907	-15.91023	-0.136004	0.171518	-0.933033	9.434059	0.062661	-0.0613	15.332974	-1.512838	39.210761	-0.547535	-0.463034	-0.081945
10.675735	18.993155	12.066409	73.258508	241.47944	2.304787	-0.014593	-0.023608	-0.910646	2.2056	0.436906	10.460486	-14.283724	-17.176998	-17.589572	-0.161736	0.157119	-0.945827	8.968688	0.472004	0.350975	20.408981	-1.285789	36.745517	-0.575421	-0.462616	-0.097614
5.365928	15.74566	3.82269	121.649469	204.119008	-146.909042	0.030055	-0.07276	-0.926183	1.932495	0.325353	11.134022	-20.518777	-23.835019	-15.071307	-0.14913	0.140802	-0.93075	9.620262	1.807504	0.668301	24.576929	-0.638589	19.944506	-0.589262	-0.444975	-0.129576
-12.125647	-3.731367	12.891042	-104.07329	202.362912	-78.864396	0.014806	-0.065671	-0.901097	2.130769	-0.406319	12.269824	-29.21486	-36.276224	-5.275544	-0.174347	0.113226	-0.97124	10.212685	3.201214	0.984773	22.581813	0.161548	-1.936683	-0.533765	-0.479849	-0.06551
-12.918333	-5.587391	22.017497	100.66687	156.295818	-25.444004	0.042675	-0.069948	-0.88772	2.080457	-0.405927	12.608453	-33.61909	-51.244722	5.207802	-0.187763	0.141648	-0.944272	11.060245	3.494649	2.199553	6.35594	-1.843363	-5.902529	-0.561651	-0.479431	-0.081178
-4.970355	-4.094025	10.01668	69.352059	130.666785	43.780475	0.056396	-0.039252	-0.908977	1.975587	0.160405	15.833757	-17.613919	-65.494747	6.188854	-0.161365	0.173511	-0.961181	11.528532	3.725131	2.029625	-2.345414	-3.725416	-4.364516	-0.519652	-0.444781	-0.113698
0.550891	5.628958	14.71149	76.799557	105.659223	30.566829	0.098429	-0.095802	-0.843473	2.525514	-0.684337	17.259916	-23.803462	-95.571644	5.638315	-0.174115	0.219397	-0.963916	11.824673	2.794992	1.971265	-10.605434	-5.658147	-6.648054	-0.561443	-0.463238	-0.082015
-2.457556	-2.948224	9.786234	123.044125	75.434622	8.047949	0.142662	-0.096584	-0.897408	2.855351	0.105458	19.30565	31.428121	-117.248942	-20.766966	-0.200513	0.187535	-0.947007	11.757508	2.037914	1.427788	-11.99138	-7.773798	2.260703	-0.575488	-0.480461	-0.065721
-8.49683	-0.249669	8.373039	86.273645	54.7772	-17.115667	0.101072	-0.123002	-0.889529	2.432189	0.556098	18.391334	28.587649	-144.4349	-26.588147	-0.226685	0.201633	-0.93311	10.855739	1.571375	0.450793	-16.016154	-6.349276	13.974824	-0.575071	-0.448076	-0.067395
-3.219603	2.206572	6.155993	-3.274998	37.211662	29.102208	0.141548	-0.107169	-0.855181	1.332215	0.898276	20.802943	30.231222	-173.709916	-33.474445	-0.226911	0.155672	-0.930099	11.017132	2.148516	-0.322223	-19.577936	-2.288271	16.383103	-0.575351	-0.463442	-0.082086
-3.032675	-1.557108	12.622432	-7.505584	25.652542	8.749313	0.071317	-0.101768	-0.867511	1.135862	-0.395662	22.269646	35.374657	-203.716971	-30.346628	-0.253308	0.123809	-0.91319	11.659342	3.249487	-0.545048	-26.632891	2.11642	10.977414	-0.575284	-0.445597	-0.113978
-3.671662	-0.53698	9.261308	48.058895	22.190489	0.712987	0.127399	-0.072196	-0.889815	1.434153	-2.705515	22.556944	47.544276	-237.843207	-32.46362	-0.27933	0.168548	-0.9013	12.530414	3.186171	-1.307578	-36.514609	4.440758	4.64464	-0.53391	-0.459525	-0.143986
-1.618592	1.413093	8.96848	16.180844	12.864345	5.130625	0.128585	-0.148107	-0.844584	0.974014	-4.169341	22.432761	58.701603	-271.318881	-33.773415	-0.318998	0.135539	-0.869766	13.774465	3.997883	-0.921566	-43.794443	5.195824	-2.851116	-0.547676	-0.461382	-0.113001
-2.763266	0.839506	8.943797	21.479297	13.461364	3.438383	0.114078	-0.133962	-0.847651	1.25873	-5.071358	22.211488	70.849515	-307.775457	-43.404033	-0.345245	0.134317	-0.854865	13.310309	3.884542	-0.511516	-44.648006	2.839047	-8.918503	-0.560883	-0.432506	-0.052634
-2.468542	1.473086	9.406844	10.779392	9.632978	0.585548	0.140805	-0.114226	-0.827029	-0.761026	-5.631128	21.885504	92.352783	-342.620673	-61.641745	-0.370827	0.150559	-0.869667	13.328882	3.946821	0.507148	-42.098374	-1.084373	-16.121132	-0.561726	-0.459933	-0.144127
-2.700361	0.725788	9.228693	9.817537	8.410784	-0.443589	0.142677	-0.113883	-0.879917	0.324817	-5.295477	21.56892	132.131935	-357.571862	-75.443864	-0.411827	0.082621	-0.778727	12.346806	4.302517	1.688062	-40.901743	-6.478289	-20.59181	-0.54705	-0.412804	-0.115512
-2.859835	0.671124	9.850496	0.760336	6.5065	-1.552519	0.18581	-0.142549	-0.874133	3.453192	-3.666811	22.711729	195.777016	-336.952249	-83.541141	-0.45061	0.052827	-0.790242	11.180208	3.611025	2.322062	-37.25241	-11.275165	-22.782282	-0.547255	-0.447668	-0.067255
-2.641786	0.43878	9.285453	1.40771	5.684769	0.701695	0.114478	-0.165032	-0.826743	5.148494	-1.023554	21.504154	264.477317	-276.026143	-59.609315	-0.504876	0.043951	-0.674341	9.899865	3.443723	3.255621	-33.476748	-12.876031	-23.430018	-0.575421	-0.462616	-0.097614
-2.125507	0.610973	9.353052	-1.878068	4.874271	0.360634	0.129342	-0.15835	-0.855244	4.075886	-1.422118	14.34789	311.538935	-263.499722	-37.807851	-0.531128	-0.01748	-0.669775	8.892999	3.096574	2.995803	-28.391305	-13.006974	-17.886286	-0.575843	-0.47633	-0.14336
-2.243564	0.89754	9.181472	-1.593819	5.101593	2.11157	0.12857	-0.130808	-0.862076	-1.720903	-6.377475	3.804766	227.710629	-244.749957	-25.142978	-0.54477	-0.03502	-0.639796	8.7146	3.677739	2.994974	-24.292209	-11.927534	-8.463349	-0.561722	-0.478604	-0.096706
-2.125673	0.840739	9.354017	-5.368261	4.471453	1.928188	0.127427	-0.106794	-0.854831	-7.578031	-9.640424	-4.020653	103.442936	-189.292356	-38.348305	-0.584664	-0.113991	-0.605251	9.128388	3.386414	3.001441	-19.229068	-10.953433	2.607728	-0.547956	-0.476748	-0.127692
-2.579089	0.612269	9.571556	-8.187363	4.519056	1.998411	0.142691	-0.131183	-0.862425	-8.600102	-5.638164	-3.019533	-6.646388	-119.111085	-49.360915	-0.572128	-0.085418	-0.578835	9.363467	2.862695	2.883804	-14.834975	-8.97796	8.297891	-0.547676	-0.461382	-0.113001
-2.402871	0.61311	9.802309	-9.744671	4.620082	3.292567	0.143448	-0.141425	-0.873085	-2.743291	-2.5982	7.466548	-62.792128	-80.138001	-37.767538	-0.585625	-0.132527	-0.561199	9.243214	2.397615	2.699904	-11.496836	-5.349346	4.600747	-0.561163	-0.447872	-0.067325
-2.126745	0.783056	9.296923	-7.658871	4.406001	4.049766	0.140433	-0.117754	-0.812953	-4.53361	-4.623137	6.974248	-71.733777	-34.060824	-28.038098	-0.572424	-0.08649	-0.564485	9.419837	2.106583	2.642063	-8.004485	-2.74805	-3.217893	-0.58877	-0.432088	-0.068302
-2.913459	0.269799	10.018252	-9.766624	4.813851	5.166476	0.141576	-0.141768	-0.820197	-5.710445	-3.042244	8.592737	-46.096973	4.713524	-22.638076	-0.611872	-0.133749	-0.546297	9.587251	1.9878	2.105707	-5.52925	0.656303	-12.136355	-0.589121	-0.446628	-0.098521
-2.344462	0.555868	9.860034	-5.012449	5.232754	5.404936	0.128613	-0.182706	-0.8096	-4.575953	-3.101394	7.823913	-31.262405	15.0373	-20.643053	-0.585695	-0.087637	-0.54986	8.988171	2.510104	1.67758	-3.03793	3.409203	-17.200796	-0.561793	-0.477778	-0.112234
-2.580161	0.554587	9.514462	-6.113521	5.815668	5.049575	0.114464	-0.147733	-0.844235	-4.401059	-2.596984	5.280394	-36.920471	17.483561	-16.554122	-0.624327	-0.08679	-0.563382	8.809887	2.568338	1.614619	-2.493973	5.574572	-22.316291	-0.575351	-0.463442	-0.082086
-2.054767	0.441502	10.035679	-3.045473	6.572043	4.654365	0.127427	-0.106794	-0.854831	-4.076564	-3.049128	4.267755	-56.010392	27.764758	-13.045418	-0.586141	-0.11935	-0.533503	8.342585	2.861035	1.906586	-4.303932	6.388931	-21.824703	-0.533489	-0.445811	-0.09824
-2.516018	0.268785	9.855487	-1.390836	6.768675	4.254126	0.143062	-0.127654	-0.876501	-4.694045	-2.427643	5.047933	-71.518787	47.85552	-7.401616	-0.597785	-0.084497	-0.592633	8.21575	2.859327	1.42513	-8.834605	5.96581	-20.920106	-0.561793	-0.477778	-0.112234
-2.520721	0.612469	9.629523	0.109247	7.124853	3.274245	0.099958	-0.133587	-0.847301	-5.201339	-1.750233	5.604018	-74.909011	71.030204	-0.268383	-0.559303	-0.115984	-0.577103	8.394979	2.394561	1.48636	-13.61172	3.899309	-12.03088	-0.547952	-0.495419	-0.080271
-2.630569	0.326309	9.853502	-0.65882	7.345779	2.452027	0.112921	-0.092649	-0.857898	-4.739607	-1.751048	5.670329	-75.299194	91.945492	6.228348	-0.546472	-0.08634	-0.565037	8.688844	2.91657	1.494088	-18.07868	1.113128	-7.386771	-0.547885	-0.477574	-0.112164
-2.569766	0.039784	10.023968	1.30809	8.090393	2.642472	0.169803	-0.125217	-0.838387	-4.055644	-1.977948	5.344808	-80.064968	108.770707	10.769585	-0.598231	-0.116209	-0.576276	8.504768	2.624864	1.070202	-23.788739	-0.851231	-5.736969	-0.576398	-0.525733	-0.125321
-2.629289	0.096785	9.90939	-1.260461	8.749933	3.05926	0.17016	-0.10439	-0.869955	-3.717504	-1.978879	5.012224	-90.030504	122.152073	11.5113	-0.570357	-0.078987	-0.664933	8.388801	2.683705	1.188062	-25.628442	-2.926255	-0.922159	-0.534536	-0.508102	-0.141475
-2.397387	0.729199	10.087057	-2.171492	10.004557	3.174275	0.157212	-0.162628	-0.841867	-3.142605	-1.585643	5.024645	-100.698543	133.548626	9.704749	-0.570282	-0.063667	-0.665937	8.861356	2.973252	1.258008	-24.8176	-3.561943	1.675791	-0.57591	-0.494175	-0.111467
-2.284815	0.326543	9.973889	-4.064333	11.320228	2.9251	0.155297	-0.111072	-0.841454	-2.890345	-1.078198	6.10606	-106.868316	146.234553	6.71235	-0.544035	-0.062445	-0.680838	9.158482	2.566292	1.321687	-22.221627	-3.657634	2.950509	-0.561793	-0.477778	-0.112234
-2.345617	0.613069	9.803423	-6.259355	12.872309	3.385987	0.155311	-0.128371	-0.823962	-2.300854	-1.360407	6.740948	-107.796226	160.36972	2.906255	-0.531134	-0.07769	-0.68011	8.742473	2.392267	1.133522	-20.628386	-2.949913	0.129541	-0.589191	-0.445801	-0.114049
-2.806211	1.07245	9.682739	-6.286532	13.300303	3.577025	0.156068	-0.138614	-0.834622	-2.469146	-1.134572	6.964069	-106.266719	173.25466	-1.865936	-0.478119	-0.028213	-0.727273	9.338386	1.811146	1.381681	-16.897598	-1.601939	-1.754728	-0.548165	-0.49294	-0.126855
-2.46561	0.497062	9.516448	-7.725192	13.851589	3.160783	0.142705	-0.148482	-0.844933	-1.81801	-1.022385	7.827056	-106.294637	185.083813	-7.605491	-0.503851	-0.042612	-0.740068	8.878902	1.582641	2.030865	-13.858174	-0.448768	-5.744294	-0.562002	-0.493971	-0.111397
-2.352215	0.496738	9.461821	-8.191405	13.774287	1.658162	0.184667	-0.118535	-0.866888	-1.292021	-1.361054	8.177489	-108.569379	195.141911	-13.950127	-0.477083	0.005643	-0.77233	9.290759	1.174669	1.917023	-13.275964	-0.287954	-12.226034	-0.575354	-0.444771	-0.129506
-2.634241	0.785118	9.684873	-11.465759	13.55617	3.289417	0.157183	-0.128029	-0.87685	-1.100845	-0.909974	9.087729	-110.539703	204.864608	-20.02033	-0.477824	-0.027141	-0.741623	8.884404	1.583877	2.330399	-13.451436	-1.241518	-14.726734	-0.534324	-0.510581	-0.094892
-2.809013	0.324986	9.509043	-12.687999	14.541112	2.664928	0.155668	-0.107543	-0.85553	-0.342585	-0.403974	9.613628	-108.766781	217.443186	-24.825948	-0.424513	0.023408	-0.803136	8.947667	1.177952	2.50949	-12.815016	-2.55326	-14.845016	-0.561864	-0.476952	-0.127762
-2.405016	0.497745	9.68812	-15.432666	16.24077	3.436469	0.198059	-0.143266	-0.821594	0.087614	-0.741668	10.867877	-105.056987	231.753706	-28.657094	-0.372905	0.022636	-0.789889	9.115122	1.988881	2.096904	-12.090096	-4.478009	-14.807897	-0.534398	-0.491084	-0.15784
-2.064829	0.496772	9.524242	-15.603798	19.019838	2.224766	0.17016	-0.10439	-0.869955	-0.419187	-1.585277	11.309402	-104.620659	243.931107	-31.186547	-0.384474	0.07281	-0.850023	9.243598	1.758532	2.637278	-12.052738	-6.449646	-16.387695	-0.548303	-0.509959	-0.11049
-2.290507	0.497662	9.690347	-22.860202	20.965821	1.111909	0.18431	-0.139363	-0.835321	0.049475	-1.416815	11.715693	-113.203267	254.263651	-31.367995	-0.385655	0.068522	-0.792624	9.362036	1.584033	2.638737	-12.422444	-8.255576	-19.341914	-0.548511	-0.526151	-0.109653
-3.029081	0.269641	9.959172	-22.140522	24.619824	-1.008194	0.156068	-0.138614	-0.834622	0.418721	-1.247522	12.855881	-125.562974	261.955719	-28.403665	-0.345917	0.056643	-0.835497	9.304255	1.52634	2.697296	-10.938207	-8.944851	-23.163709	-0.533839	-0.460351	-0.128459
-2.789136	0.559095	10.533364	-28.754669	29.894729	-0.014047	0.184281	-0.104764	-0.870304	1.363167	-1.473667	13.951186	-135.328645	270.185361	-18.37255	-0.293787	0.102904	-0.839611	9.469509	2.336774	2.164897	-9.387816	-8.959394	-27.141628	-0.56214	-0.510989	-0.095032
-2.807526	-0.191746	9.563724	-23.856046	34.540222	-1.14869	0.19803	-0.108667	-0.856577	2.03654	-0.346583	15.947819	-141.258592	269.576306	-2.16814	-0.253459	0.093168	-0.911183	8.764732	1.816204	2.26928	-7.287332	-8.648812	-26.87571	-0.520211	-0.475513	-0.143079
-3.490623	0.499015	9.78067	-24.581847	35.447144	-0.119814	0.169389	-0.076848	-0.876787	4.52813	-0.01257	16.793041	-155.993124	259.353097	11.251849	-0.21416	0.109786	-0.927364	8.816429	1.175255	1.788406	-4.570455	-6.872928	-23.166097	-0.520278	-0.493358	-0.111186
-2.696565	0.094655	9.396598	-21.388752	35.29031	1.463173	0.209893	-0.095613	-0.807455	8.744504	0.825136	17.618317	-183.528935	245.884237	18.525364	-0.201549	0.153678	-0.901951	8.113313	0.887484	2.013592	-1.30763	-5.3228	-15.179064	-0.548023	-0.494593	-0.095799
-3.62043	0.093629	8.980811	-17.888091	35.194276	3.230251	0.224385	-0.092459	-0.82188	13.055078	2.734532	20.258171	-207.904209	234.666292	15.249483	-0.110197	0.201237	-0.921242	8.462873	0.943761	1.780814	3.086242	-2.535642	-5.153908	-0.520416	-0.510377	-0.094821
-3.554475	0.382725	9.437956	-19.973005	35.280206	2.930975	0.227	-0.08506	-0.90292	17.573447	6.276323	21.998002	-216.141434	220.770768	7.705585	-0.135853	0.202158	-0.93504	8.295418	0.132833	2.1934	7.726217	0.533114	4.35023	-0.54872	-0.542344	-0.108815
-3.093182	0.498001	9.617905	-18.265761	38.480937	3.223426	0.181637	-0.077564	-0.824248	20.110461	11.060197	22.678261	-200.334934	204.124448	3.606514	-0.096769	0.293234	-0.927539	7.879989	0.656215	2.128015	12.66142	3.379751	11.776593	-0.534532	-0.526774	-0.094055
-3.132621	0.501902	10.526441	-20.451832	45.358014	-2.485391	0.198073	-0.160565	-0.804102	21.647812	14.211369	22.203801	-152.115341	177.639658	6.926894	-0.109375	0.309551	-0.942617	8.11895	0.830644	2.312879	15.185285	4.518691	14.910328	-0.534395	-0.509755	-0.110419
-3.065262	0.389149	11.03875	-21.898909	55.644659	-5.074185	0.225885	-0.095645	-0.860692	22.758281	15.334306	20.41646	-86.485408	143.62221	14.74905	-0.058137	0.292387	-0.914017	7.941206	0.656574	2.248929	12.709926	4.68137	13.115105	-0.534603	-0.525947	-0.109582
-3.283145	0.391727	11.602827	-22.813722	67.87238	-7.939681	0.25527	-0.120408	-0.868634	23.680888	14.032212	14.999728	-32.394983	104.593569	20.415863	-0.018618	0.294756	-0.943543	8.356405	1.179055	2.438578	7.304842	3.868595	7.025493	-0.534745	-0.524295	-0.140638
-3.815521	0.285944	13.637921	-13.78132	73.178663	-3.401743	0.267875	-0.100297	-0.847663	26.370153	9.91407	13.920293	14.437839	68.843945	24.753117	-0.057396	0.325172	-0.944723	8.576908	0.768274	1.542646	2.451285	2.47472	1.120332	-0.548582	-0.525325	-0.12518
-3.734535	-1.100215	11.87191	12.307951	80.485264	2.407532	0.281239	-0.090429	-0.837352	26.777941	10.305482	11.494793	131.636747	-4.534655	11.292682	-0.017727	0.358182	-0.976257	8.626871	1.347169	1.12687	-3.528456	-0.472254	0.086347	-0.506508	-0.510173	-0.094751
-3.99557	-0.577485	13.176136	4.451057	86.280391	5.683081	0.212151	-0.109042	-0.856927	24.267903	13.294496	10.085973	116.657505	-54.163882	30.610491	-0.030853	0.327466	-0.973974	8.3882	1.521443	1.003397	-14.115523	-4.962296	-1.198641	-0.562281	-0.509337	-0.126088
-3.769277	0.111165	13.069779	15.5049	97.294469	8.927648	0.26789	-0.117597	-0.830172	15.999526	17.087636	13.93527	118.985963	-109.232538	54.513765	-0.031745	0.26404	-0.94126	9.381456	2.039854	0.545074	-18.031519	-8.701179	4.090262	-0.534119	-0.475717	-0.143149
-3.908749	0.118286	14.715179	12.540984	112.413853	10.132642	0.254155	-0.130993	-0.826407	-3.351782	23.263971	13.647525	190.846788	-166.255047	124.891484	-0.004832	0.282727	-0.985865	9.262729	1.865648	0.482225	-16.955082	-10.179149	11.337266	-0.548232	-0.510785	-0.094962
-3.069038	-0.276183	16.662083	15.984381	132.784811	11.312589	0.266761	-0.110882	-0.805436	2.374307	7.818644	13.640934	137.764266	-159.937797	130.46198	-0.031895	0.2334	-0.939253	10.32695	1.979864	0.622341	-12.667395	-7.711766	13.7858	-0.534741	-0.542966	-0.093217
-3.742088	1.290959	20.349574	13.313896	163.190431	8.012093	0.281653	-0.138799	-0.798953	5.985122	1.393804	17.787322	123.246201	-168.121338	48.629076	-0.096329	0.264737	-0.954231	10.913257	5.057285	0.826169	-16.271513	-3.791068	3.112976	-0.576118	-0.510367	-0.11063
-3.059685	-1.525621	20.009993	31.409487	203.180528	9.959682	0.337735	-0.109227	-0.821257	5.825434	7.525661	8.164968	82.905087	-119.039788	15.386998	-0.070458	0.189357	-0.964114	11.454306	5.058295	1.375235	-15.051513	2.275332	14.38866	-0.547952	-0.495419	-0.080271
-3.99497	-2.678131	18.963996	37.845164	232.890514	16.802805	0.366391	-0.158346	-0.783557	2.352352	3.644279	6.84309	38.312276	-95.623885	-20.639022	-0.09663	0.203455	-0.950217	11.330495	1.861417	0.640554	2.28566	10.76101	48.738405	-0.520345	-0.511203	-0.079294
-3.428294	-2.897173	21.588294	29.591512	268.826548	26.058358	0.352284	-0.17527	-0.765716	1.727287	-2.658975	12.032906	30.45668	-73.470978	-8.279264	-0.096555	0.218776	-0.95122	11.929689	0.816181	1.006549	7.276785	15.32993	58.268783	-0.534048	-0.476544	-0.127621
-1.214642	-3.06287	23.562888	52.707079	308.899408	34.799901	0.407266	-0.173583	-0.7283	1.47743	-0.631262	11.293463	59.547568	-69.964747	4.634264	-0.109901	0.202308	-0.935591	12.778194	0.703084	2.219599	8.59847	14.842472	52.609682	-0.575839	-0.495001	-0.095939
0.240983	-3.6456	21.883833	89.152496	347.000089	40.98714	0.435507	-0.174332	-0.728999	2.188329	-0.01445	9.610512	65.95257	-66.454536	5.660818	-0.122953	0.186913	-0.934312	11.737393	1.407618	3.460803	12.955381	11.942702	41.662106	-0.589609	-0.478186	-0.112374
0.97211	-4.810451	18.255997	109.368618	380.514049	49.384431	0.47604	-0.227696	-0.624683	3.764547	-0.748851	10.60541	78.150201	-47.896665	-3.670796	-0.123103	0.156272	-0.932305	10.549407	2.338299	3.143215	11.829962	5.623677	31.149084	-0.575284	-0.445597	-0.113978
0.807945	-3.901919	15.756095	127.201613	406.979183	55.619467	0.532122	-0.198124	-0.646987	3.969123	0.038397	9.478117	54.924492	-22.868507	7.133403	-0.174636	0.172364	-0.946555	9.883318	2.510304	2.233248	9.075011	2.525872	28.055699	-0.561446	-0.444567	-0.129436
-6.431036	-0.225264	14.494178	141.75412	409.773485	45.168427	0.587904	-0.258577	-0.567757	1.955111	0.267539	9.492635	44.474239	-11.397274	9.921138	-0.14876	0.157194	-0.946103	9.344064	2.684017	1.804738	5.793485	3.405084	18.801102	-0.547956	-0.476748	-0.127692
-12.212263	3.915678	14.626502	124.600233	347.718464	27.313638	0.588318	-0.306946	-0.529358	1.547449	0.831456	9.314728	36.975133	-8.661311	8.370046	-0.162847	0.107942	-0.899767	9.676983	2.794661	0.673604	4.56247	7.957117	7.077041	-0.547401	-0.427344	-0.145731
-14.220783	6.316604	11.528712	137.167903	265.015219	8.115654	0.628093	-0.350068	-0.414382	1.80275	0.38133	10.451976	29.655533	-6.35317	6.938164	-0.161736	0.157119	-0.945827	9.536557	3.42907	-0.464108	5.114927	12.493942	-5.508031	-0.575142	-0.44725	-0.082923
-0.389048	-1.696658	7.331206	169.247008	227.021999	-18.54075	0.626922	-0.291455	-0.442121	1.621484	0.437651	10.05192	28.362929	-5.886423	8.082421	-0.148464	0.158266	-0.960453	9.526653	3.426845	-1.00327	5.852837	16.533878	-17.295615	-0.533839	-0.460351	-0.128459
10.019897	-3.844779	3.944302	104.734262	168.797819	-23.810769	0.654077	-0.337388	-0.365608	1.903505	0.943897	9.831832	23.093544	-5.11279	6.143676	-0.174272	0.128547	-0.972244	9.642464	2.961225	-1.182768	6.671761	19.29862	-18.136852	-0.575634	-0.460137	-0.144197
13.366561	-6.981236	-3.562267	79.293578	97.897275	-15.41302	0.681932	-0.324366	-0.369722	1.441797	1.564395	9.822683	19.440092	-3.55254	4.275717	-0.175232	0.110011	-0.928191	10.781513	2.904539	-0.203597	0.683527	18.454479	-12.518819	-0.561379	-0.426722	-0.161329
7.340609	-7.944182	-1.523982	7.176688	19.790377	3.214412	0.680074	-0.342008	-0.299343	1.842552	1.450885	9.717771	13.09474	-2.363321	2.340253	-0.148609	0.187835	-0.94811	11.966643	2.7286	0.057298	-4.472328	13.477266	-12.201361	-0.575776	-0.458485	-0.175253
3.392817	-3.779393	4.554468	-33.760269	-9.560505	29.625718	0.639585	-0.340542	-0.351183	2.011622	1.450419	9.551479	8.754675	-1.30538	0.929184	-0.187612	0.172289	-0.946279	12.512229	2.672522	0.845745	-11.253312	7.259839	-19.695206	-0.561443	-0.463238	-0.082015
5.267188	-3.656669	6.751	-51.416542	-47.21182	43.598215	0.65372	-0.358216	-0.33404	1.894505	1.225218	9.435592	6.172892	-0.410302	-0.297118	-0.123253	0.125631	-0.930297	12.298193	3.142863	2.101365	-14.97656	1.850846	-27.386866	-0.534115	-0.494389	-0.095729
5.221602	-2.849792	7.378649	-46.294945	-62.575653	53.114147	0.666711	-0.351876	-0.309654	1.957336	0.999978	9.66317	2.104788	0.190578	-1.620021	-0.123624	0.109239	-0.914944	11.411715	3.202717	2.025199	-13.978788	0.615545	-34.778962	-0.562073	-0.493144	-0.126925
5.515787	-1.469472	7.844833	-35.600576	-84.235975	48.010135	0.653705	-0.340916	-0.351532	1.156256	1.001677	9.872804	-0.276278	-0.080293	-2.333674	-0.161736	0.157119	-0.945827	10.935049	3.260884	1.777015	-10.015928	1.28159	-32.749329	-0.547121	-0.411978	-0.13104
5.561244	-0.552862	7.281276	-29.295105	-110.486579	33.58448	0.653348	-0.361744	-0.319964	2.01404	1.450514	9.664758	-2.743031	0.22828	-2.733354	-0.122808	0.157344	-0.946654	10.518365	3.37724	1.590086	-7.534242	0.333599	-23.036966	-0.548165	-0.49294	-0.126855
5.069337	-0.547422	8.46517	-23.89197	-136.549298	15.544829	0.654448	-0.33386	-0.379684	1.679935	0.606583	10.10991	-3.237892	0.133234	-3.227943	-0.174932	0.171292	-0.932205	10.404444	3.029795	1.766122	-3.798321	0.71306	-17.032383	-0.547747	-0.460555	-0.128529
4.20689	-0.145434	8.279597	-13.261036	-155.337725	-1.994938	0.639199	-0.326771	-0.354599	1.441666	1.001043	9.765569	-3.705017	-0.235592	-4.002683	-0.136229	0.125556	-0.930022	10.288073	3.262864	1.884724	2.235764	0.659102	-18.612461	-0.533768	-0.461177	-0.112931
2.702935	-0.492383	7.453255	-3.969112	-169.616659	-16.453647	0.612087	-0.332736	-0.378636	1.560746	0.831978	9.937763	-4.299577	-0.82648	-3.885726	-0.174937	0.111083	-0.942541	9.9883	2.913847	1.578204	6.163206	0.775369	-16.671489	-0.562352	-0.508511	-0.141615
2.695549	0.482676	7.116239	-6.084031	-183.146451	-25.776847	0.600224	-0.34579	-0.427759	2.140242	0.718381	10.119676	-3.590128	-0.851954	-3.299679	-0.174712	0.157044	-0.945551	9.69486	2.682465	1.63162	7.08431	-0.490203	-21.160848	-0.562281	-0.509337	-0.126088
1.486815	0.080008	6.750048	-14.019349	-199.156748	-30.400302	0.62655	-0.294983	-0.428045	2.080583	0.549403	10.005046	-3.003519	-0.817867	-2.68231	-0.149205	0.125481	-0.929746	9.402675	2.85811	1.80658	8.826286	-2.286124	-21.403048	-0.520487	-0.509551	-0.110349
0.694368	-0.20469	7.188077	-23.768785	-214.435752	-29.822882	0.600167	-0.276593	-0.497727	1.91514	0.550011	10.341257	-1.213785	-0.920813	-2.219474	-0.123253	0.125631	-0.930297	8.978787	1.81072	1.075544	9.188357	-4.101515	-20.2345	-0.506374	-0.474483	-0.158537
0.199903	0.259799	8.260195	-28.318106	-228.998133	-25.291972	0.558191	-0.28924	-0.493263	2.245379	0.886778	9.66912	-1.455056	-0.521076	-2.86308	-0.1366	0.109164	-0.914668	8.608899	2.447152	0.292871	9.368816	-5.551436	-18.975353	-0.548515	-0.50748	-0.157073
-0.13715	0.548703	8.595839	-30.851891	-245.222096	-19.99649	0.558934	-0.282183	-0.521415	2.076309	0.887244	9.835412	-2.685185	-0.192395	-3.939778	-0.148684	0.172514	-0.947107	8.918711	2.740318	1.138306	8.617872	-7.365109	-18.352813	-0.534328	-0.49191	-0.142312
-0.936153	0.090234	8.692026	-33.780063	-261.774362	-13.141159	0.515829	-0.288116	-0.492215	1.673998	0.550015	9.826665	-3.549809	-0.287113	-5.205355	-0.14854	0.142945	-0.959449	8.499806	2.391324	0.769678	7.200141	-9.358412	-15.373968	-0.547885	-0.477574	-0.112164
-1.336152	0.550297	8.743015	-36.860358	-274.472622	-4.41362	0.547043	-0.260639	-0.605521	1.841536	0.718493	9.603875	-3.609692	-0.22073	-6.098748	-0.148464	0.158266	-0.960453	8.683187	2.508554	1.132916	6.697012	-10.024605	-16.194061	-0.548023	-0.494593	-0.095799
-2.341329	0.8438	10.0318	-41.7632	-283.186481	2.206016	0.476083	-0.279594	-0.572208	1.7909	0.887877	9.942646	-3.765414	-0.34374	-6.346718	-0.149205	0.125481	-0.929746	8.024915	2.159358	0.580165	5.680283	-9.501969	-16.80405	-0.562143	-0.492318	-0.142453
-2.739966	0.959456	10.138195	-44.92198	-286.049397	6.431364	0.434093	-0.274942	-0.585236	1.670264	0.606203	9.656793	-3.458185	-0.52059	-6.841473	-0.162181	0.125406	-0.92947	7.678521	2.161899	0.992911	5.702248	-8.488146	-14.272564	-0.534536	-0.508102	-0.141475
-2.502206	1.190986	10.598439	-46.133619	-283.653225	6.289747	0.420301	-0.219141	-0.651438	1.902728	0.718528	9.775003	-3.091429	-0.880244	-7.399652	-0.14898	0.171442	-0.932757	8.271714	2.277443	1.18413	5.228978	-6.820501	-13.025868	-0.548098	-0.475095	-0.158747
-2.495649	1.364758	10.940281	-48.499504	-277.251223	2.47509	0.39356	-0.221578	-0.689552	2.068494	0.548929	9.43865	-2.502912	-0.721685	-7.058497	-0.16107	0.174583	-0.97553	8.199898	2.100383	0.463406	3.577944	-5.331758	-12.629717	-0.534398	-0.491084	-0.15784
-2.086784	0.964066	11.344358	-53.905308	-270.003672	-3.893323	0.351956	-0.230697	-0.699164	1.559406	0.268578	9.82401	-2.909966	-1.299153	-8.636775	-0.122513	0.158416	-0.961004	8.613686	1.809058	0.469872	2.210134	-3.480297	-11.716802	-0.53419	-0.474891	-0.158677
-2.026971	0.504975	11.457247	-60.813637	-262.637857	-10.470422	0.322929	-0.185106	-0.722789	2.075208	0.830866	9.778725	-2.487698	-2.148871	-9.168952	-0.174196	0.143867	-0.973247	8.44324	1.810946	0.826013	0.994991	-1.5633	-11.171468	-0.548236	-0.492114	-0.142382
-2.579389	0.394849	12.468985	-68.385197	-254.400332	-15.528839	0.309565	-0.194974	-0.7331	1.744322	0.832081	10.451147	-1.945945	-3.304686	-9.549939	-0.175082	0.140652	-0.930198	8.325323	1.288285	0.76168	1.070161	0.895106	-12.253072	-0.548303	-0.509959	-0.11049
-3.147273	0.10902	12.684056	-76.496898	-241.903338	-16.621425	0.224442	-0.161657	-0.751913	1.614362	1.000719	9.769196	0.808967	-5.177928	-8.456557	-0.174196	0.143867	-0.973247	8.019953	1.925818	0.279642	1.616844	3.43122	-11.808755	-0.548582	-0.525325	-0.12518
-4.56725	-0.23218	13.223302	-87.778302	-224.179355	-13.387439	0.196201	-0.160907	-0.751214	1.683561	0.606725	10.279829	3.91588	-6.095626	-7.445871	-0.187172	0.143792	-0.972972	7.669293	1.869294	0.452513	2.070498	5.7507	-11.149145	-0.534954	-0.540487	-0.139801
-6.536844	0.063957	14.947982	-91.817185	-206.064876	-9.186563	0.209921	-0.130212	-0.772471	1.668755	1.39483	9.657457	4.274949	-7.010705	-7.485509	-0.174046	0.174508	-0.975255	8.258468	1.344765	0.341478	2.200725	8.784262	-8.658135	-0.507138	-0.540079	-0.13966
-8.24301	-0.391919	15.481178	-89.170193	-197.049022	-5.643471	0.156054	-0.121315	-0.852114	1.909203	0.493443	10.058012	4.014427	-8.114406	-8.020762	-0.149425	0.13973	-0.9164	8.260129	1.577564	0.462281	2.649543	10.836919	-2.893439	-0.534741	-0.542966	-0.093217
-10.072842	-0.504994	15.55877	-90.831842	-199.640141	-2.981922	0.127442	-0.124094	-0.83734	1.922608	0.437634	10.681	3.945469	-8.639338	-7.59445	-0.201404	0.124109	-0.914293	8.31955	1.4032	0.46264	2.20081	11.774996	3.858132	-0.590377	-0.525111	-0.140919
-12.921172	-0.384902	16.242668	-91.522029	-203.701986	-0.439097	0.127799	-0.103266	-0.868907	1.907671	0.662387	10.001514	5.040954	-9.94349	-7.668191	-0.148615	0.127625	-0.958445	8.199837	0.705816	0.277751	1.254916	12.43913	10.307521	-0.534119	-0.475717	-0.143149
-15.721817	0.652283	16.476716	-91.030271	-199.092959	0.217026	0.097643	-0.050961	-0.867796	2.496815	-0.070513	10.579383	5.341901	-10.496604	-6.902757	-0.148244	0.144017	-0.973799	8.549417	1.226949	0.106858	1.048038	12.704136	17.153842	-0.562423	-0.507684	-0.157143
-19.180513	2.258307	15.279602	-80.47452	-186.46232	-2.552367	0.057553	-0.080566	-0.898729	2.029385	0.380756	10.286893	7.745817	-10.839668	-6.041059	-0.161817	0.081589	-0.955159	7.965589	1.345935	0.45579	0.587338	13.10607	22.502944	-0.534954	-0.540487	-0.139801
-20.817249	2.539438	13.544038	-66.06951	-170.105969	-6.867153	0.012934	-0.066013	-0.848209	2.031156	0.718834	10.400457	9.294024	-10.429249	-4.83345	-0.148841	0.081664	-0.955435	7.835141	0.529926	-0.328662	2.458968	14.127315	24.967353	-0.534607	-0.507276	-0.157003
-22.338405	2.878168	11.867795	-38.651461	-145.650737	-12.284065	-0.014207	-0.03738	-0.907231	2.137609	0.830948	10.006492	10.062565	-10.754168	-5.236823	-0.187097	0.159113	-0.973975	8.493952	0.646818	0.223099	2.53508	12.951184	29.282992	-0.575843	-0.47633	-0.14336
-23.286808	2.929276	10.201481	-12.680789	-113.546859	-15.057684	-0.01345	-0.047622	-0.917891	2.366531	0.267116	9.897574	9.759634	-10.383242	-6.281522	-0.162181	0.125406	-0.92947	9.210254	0.4727	0.654911	1.605238	10.345464	26.547524	-0.548165	-0.49294	-0.126855
-23.341778	1.940708	7.354724	-2.4785	-77.500135	-11.741057	-0.042048	-0.067701	-0.885625	2.309204	0.774246	9.953432	7.592363	-10.779086	-6.225546	-0.188724	0.123112	-0.900219	9.567923	0.35648	0.84074	-1.591227	6.702721	16.825241	-0.534331	-0.473239	-0.189733
-22.848675	1.820627	6.227201	-12.455385	-46.997174	-2.69065	-0.115694	-0.007558	-0.85873	2.190878	0.548998	9.780905	5.793802	-11.43838	-7.374172	-0.174052	0.114298	-0.98559	9.268015	0.065539	0.534467	-3.196511	4.361946	3.026709	-0.548586	-0.506654	-0.172601
-22.630778	5.794583	8.748728	-7.147655	48.961165	7.685813	-0.070675	-0.053181	-0.888342	2.030401	1.113148	10.400789	3.094434	-12.564021	-9.298846	-0.174717	0.096834	-0.955887	8.928109	0.592494	1.368786	0.570881	3.177915	-5.416558	-0.57626	-0.508715	-0.141686
-21.080672	5.462126	11.903151	-41.603607	86.425232	1.187223	-0.028713	-0.023234	-0.910297	1.855287	1.113376	10.283883	-0.795626	-15.022868	-11.299381	-0.162257	0.110086	-0.928467	9.0979	1.345841	1.075767	6.161428	2.586285	-8.398415	-0.534331	-0.473239	-0.189733
-20.271119	8.278352	12.442242	21.987283	149.095315	-7.760055	-0.070689	-0.035881	-0.905834	1.914385	0.944324	10.341589	-7.738393	-19.396973	-12.396586	-0.187468	0.14272	-0.958622	9.56161	0.7037	0.542689	8.095896	1.335621	-8.063283	-0.576264	-0.490043	-0.189106
-16.668981	18.775679	9.771864	43.427164	214.947921	-53.251656	-0.05694	-0.039784	-0.892107	1.812097	0.5507	10.905235	-14.636603	-27.284472	-10.75422	-0.162552	0.109014	-0.914117	9.38072	0.935667	0.360656	9.339357	-1.411392	-2.278531	-0.562494	-0.506858	-0.172671
0.285532	10.68456	1.372491	145.118331	207.878545	-65.317625	-0.014578	-0.040908	-0.893155	2.402689	0.32487	11.59681	-25.412979	-40.92346	-4.794612	-0.187688	0.156969	-0.945276	9.25298	2.270203	0.0047	10.866208	-4.420269	-0.649888	-0.548169	-0.474269	-0.174275
-7.304189	3.576432	16.823265	18.014513	169.565526	-37.566346	0.055638	-0.02901	-0.898316	1.69952	0.722386	13.733731	-33.362671	-55.58212	2.945252	-0.239742	0.126028	-0.942166	9.60148	3.255943	-0.164215	14.269983	-8.659945	-3.575966	-0.604288	-0.506644	-0.18841
-5.850343	-6.888173	14.64788	104.973314	147.915206	0.200976	0.027812	-0.07663	-0.859219	2.42942	0.497289	15.560515	-23.874652	-78.739715	11.786298	-0.201329	0.13943	-0.915297	9.90799	3.548368	0.501499	11.213896	-14.03535	3.52078	-0.548236	-0.492114	-0.142382
-3.552877	3.982343	18.432365	91.540119	125.960882	61.452548	0.070188	-0.095053	-0.842774	1.947255	-0.342987	19.852324	-26.780934	-106.08106	7.103733	-0.227657	0.062677	-0.909727	10.227436	3.959911	1.886591	7.451383	-18.700916	15.691071	-0.548586	-0.506654	-0.172601
-7.151845	-5.919681	12.523921	140.15569	103.095613	0.812242	0.084694	-0.109199	-0.839708	3.247026	0.557305	21.522228	35.631813	-130.897225	-13.562356	-0.240332	0.123884	-0.913466	10.32425	3.141385	0.627285	-4.305337	-22.506302	30.669274	-0.562006	-0.475299	-0.158817
-13.119264	0.331481	9.081202	115.719956	32.674471	-55.903156	0.100701	-0.126531	-0.875453	2.771842	-0.625437	20.718606	51.063539	-159.13061	-21.167258	-0.266504	0.137983	-0.899569	10.913041	3.255939	0.578877	-13.390897	-21.964592	37.272406	-0.576819	-0.539447	-0.171067
0.315768	5.188308	5.612193	-16.933414	23.386458	23.121502	0.141948	-0.138239	-0.834273	2.559282	-0.398973	21.563554	62.420884	-187.115385	-28.495368	-0.254269	0.105273	-0.869138	12.093073	2.904535	0.539496	-29.081947	-18.602556	43.91693	-0.561935	-0.476126	-0.14329
-3.290887	-2.769729	11.077877	22.201967	30.016139	4.686719	0.084323	-0.112727	-0.825632	1.954598	-1.410693	22.795474	67.052842	-219.253949	-34.143731	-0.253603	0.122737	-0.898841	12.626129	2.555111	0.607823	-42.907632	-13.426742	56.233512	-0.561379	-0.426722	-0.161329
-3.004781	1.181667	8.315407	37.452903	22.065056	7.42693	0.127056	-0.110323	-0.840755	1.876473	-4.566138	21.545538	73.630829	-259.110226	-44.860749	-0.319224	0.089577	-0.866755	13.336544	3.018841	0.802727	-41.66967	-9.395517	51.317614	-0.533768	-0.461177	-0.112931
-2.307789	1.298224	8.840929	26.634673	17.287918	6.889768	0.128956	-0.144579	-0.85866	2.199141	-4.452641	23.194226	72.837136	-295.529559	-52.066064	-0.358522	0.07296	-0.850575	14.640692	3.36581	1.187862	-38.686445	-7.208045	30.07882	-0.561864	-0.476952	-0.127762
-2.54283	1.929041	8.554864	16.696966	12.912109	3.841897	0.169817	-0.142517	-0.820896	-0.98887	-5.630602	21.993948	78.008173	-339.803226	-69.362173	-0.346212	0.055571	-0.821147	13.987403	3.71501	0.99752	-35.117781	-6.725385	11.233745	-0.533702	-0.443332	-0.144823
-2.58375	0.898512	9.345351	2.60585	9.19263	3.546004	0.141576	-0.141768	-0.820197	-2.491802	-5.28767	24.397095	90.192129	-376.960382	-91.574594	-0.411613	0.008162	-0.802408	12.918395	4.238888	0.680402	-28.576649	-5.756305	-0.378408	-0.561238	-0.428374	-0.130273
-2.820645	1.011872	8.943408	3.424392	8.314687	2.70136	0.126698	-0.13115	-0.809188	-1.675874	-4.446131	22.263635	145.476597	-403.634323	-106.620039	-0.412493	0.065157	-0.749024	12.224507	4.243723	1.445987	-26.104532	-5.851492	0.805047	-0.589613	-0.459515	-0.159795
-2.355147	1.472762	9.352218	-3.512283	6.590408	2.84664	0.128599	-0.165407	-0.827092	4.270011	-3.04821	23.295572	206.187396	-373.772506	-94.809241	-0.530243	-0.014265	-0.712824	11.823633	4.189311	2.097012	-22.729185	-8.416895	1.599708	-0.547747	-0.460555	-0.128529
-2.288321	0.555586	9.804295	-2.9965	5.543811	3.196155	0.113721	-0.154789	-0.816083	6.752664	-0.181851	21.255517	311.538279	-294.041626	-78.182881	-0.505477	-0.078612	-0.666312	10.818678	3.493953	1.895617	-17.718341	-10.26837	-3.971996	-0.561517	-0.443741	-0.144964
-2.807692	0.03802	9.564689	-3.984423	4.49576	3.059296	0.127084	-0.144921	-0.805772	4.971884	1.168939	16.124033	347.072178	-279.666875	-51.256261	-0.583924	-0.081206	-0.635958	9.761619	3.613771	2.175838	-11.158411	-9.144554	-6.873903	-0.575492	-0.46179	-0.113141
-2.46689	0.726587	9.46056	-7.721786	4.191291	3.985123	0.184681	-0.135835	-0.849397	-6.431606	-5.584304	-1.162289	280.848866	-266.064092	-20.009595	-0.559233	-0.160874	-0.588442	9.573972	3.437476	1.572726	-7.380041	-7.610771	-6.008629	-0.533631	-0.444159	-0.129296
-2.176537	1.244319	9.695711	-6.430877	4.593679	4.263952	0.156826	-0.148857	-0.845282	-13.450351	-10.65058	-12.35393	109.994849	-167.429135	-17.472207	-0.599788	-0.197099	-0.513859	9.711096	2.802325	2.530718	-6.041912	-7.598426	-3.782531	-0.561726	-0.459933	-0.144127
-2.240223	0.898263	9.352031	-6.060663	4.744881	4.633349	0.170575	-0.152759	-0.831556	-14.059815	-5.909245	-2.738139	-50.179029	-63.630912	-23.197491	-0.62655	-0.185144	-0.471262	9.895713	2.861727	2.953615	-5.240811	-7.408232	-4.153083	-0.534119	-0.475717	-0.143149
-2.753203	0.784236	9.455234	-7.01519	4.377579	4.108786	0.155697	-0.142142	-0.820546	-5.098502	-2.422216	10.361175	-80.435128	-41.416415	-12.797282	-0.626255	-0.184072	-0.485612	10.303999	2.569165	2.660547	-3.287767	-7.300557	-7.980844	-0.547609	-0.443537	-0.144894
-2.745326	0.671042	9.852723	-7.781075	4.466892	4.051107	0.15494	-0.131899	-0.809886	-8.425113	-5.23459	7.911033	-73.121777	-12.131172	-3.005347	-0.625884	-0.16768	-0.500965	10.23975	2.451912	2.359418	-0.358424	-7.421345	-18.961766	-0.576051	-0.492522	-0.142523
-2.588162	0.840106	9.117697	-7.382393	4.468056	4.111313	0.141948	-0.138239	-0.834273	-8.760465	-4.163189	8.471077	-35.472717	17.994321	-7.422981	-0.600303	-0.183922	-0.486163	9.645207	2.917129	2.17067	2.499006	-7.864323	-31.345473	-0.53391	-0.459525	-0.143986
-2.576903	0.670193	9.685504	-6.437087	4.329961	3.124996	0.15684	-0.166156	-0.827791	-8.356326	-4.391602	5.818497	-30.607162	30.872697	-12.408355	-0.62618	-0.168752	-0.486615	9.624859	3.144983	1.093335	4.874568	-8.330824	-41.617977	-0.533768	-0.461177	-0.112931
-2.571419	0.786283	9.970252	-4.171928	4.254961	2.534576	0.115207	-0.140676	-0.872387	-8.461899	-3.9427	3.608723	-52.86505	49.025499	-14.218663	-0.574131	-0.198021	-0.500061	9.51318	3.727744	1.512955	4.792059	-10.188618	-48.330228	-0.561584	-0.461586	-0.113071
-2.580119	0.497145	9.514221	-4.141029	4.160476	2.747624	0.142334	-0.15201	-0.830857	-9.023994	-2.814395	4.333897	-79.508323	77.46247	-13.340684	-0.626625	-0.200465	-0.470258	8.616643	3.378594	0.835989	2.86887	-11.632787	-48.346927	-0.547609	-0.443537	-0.144894
-2.520928	0.899677	9.630729	-1.573228	3.816235	1.630607	0.169432	-0.128746	-0.824311	-8.992972	-1.968157	5.863878	-93.266565	106.629805	-6.156208	-0.599637	-0.166458	-0.515866	8.029803	3.845541	1.06659	-1.847648	-11.524022	-42.739402	-0.53356	-0.444985	-0.113768
-2.344338	0.383544	9.85931	-3.253896	4.169493	2.315872	0.126684	-0.113851	-0.82668	-8.28293	-1.292678	6.841827	-95.386532	130.373833	4.159122	-0.612764	-0.197174	-0.513583	7.794299	4.078632	1.123084	-8.68258	-10.287789	-31.537865	-0.548653	-0.524499	-0.140708
-2.349864	0.324896	9.574804	-1.779775	4.605905	2.380057	0.142305	-0.117412	-0.865841	-6.848199	-1.520884	6.645302	-95.300603	150.162673	14.067159	-0.612023	-0.164389	-0.54429	8.445522	3.670862	1.193365	-11.19473	-6.902212	-16.694231	-0.520073	-0.458495	-0.159444
-2.404518	-0.191554	9.685225	-2.087383	4.639029	2.044138	0.15684	-0.166156	-0.827791	-5.469716	-1.805266	6.50416	-100.412156	169.283974	21.929843	-0.572209	-0.160949	-0.588167	8.392818	3.323777	1.490316	-13.385165	-3.920178	-10.038534	-0.576051	-0.492522	-0.142523
-2.582305	0.439221	9.400273	-4.435367	5.313276	3.963231	0.156054	-0.121315	-0.852114	-4.257001	-1.920048	6.699371	-107.459936	186.416172	25.424312	-0.558122	-0.111697	-0.634502	7.642925	2.980785	2.37313	-16.049937	-3.214693	-2.269662	-0.520632	-0.489227	-0.188825
-2.573314	0.326268	9.854615	-5.528879	6.656818	4.294886	0.141948	-0.138239	-0.834273	-3.485359	-2.089539	7.791097	-114.806467	201.5494	24.644176	-0.532095	-0.096226	-0.636057	8.581276	3.151616	2.091945	-15.330554	-0.834259	7.374438	-0.520353	-0.473861	-0.174135
-2.580078	0.439704	9.513979	-6.282704	8.057131	5.178491	0.141948	-0.138239	-0.834273	-2.092586	-2.260691	8.329725	-118.641341	215.46354	20.186036	-0.505848	-0.095004	-0.650959	8.518668	2.802306	1.849733	-13.054387	3.134003	11.901474	-0.50672	-0.507694	-0.141335
-2.28828	0.498144	9.804054	-9.119207	9.318177	6.648492	0.128985	-0.179178	-0.823676	-1.379503	-2.542783	9.363507	-119.199225	229.16411	12.398929	-0.517348	-0.08972	-0.722432	8.407644	2.629832	2.206232	-6.899546	7.314377	15.007543	-0.562703	-0.523051	-0.171834
-2.46227	0.497786	9.687007	-9.999616	11.167599	5.822413	0.156426	-0.117786	-0.86619	-0.673842	-1.473133	10.17187	-119.6225	241.189225	3.393072	-0.478345	-0.074174	-0.724262	8.464999	2.396898	2.08653	-2.797248	11.117588	15.433031	-0.534536	-0.508102	-0.141475
-2.808148	0.669877	9.567344	-12.874301	11.605024	6.727132	0.141962	-0.155539	-0.816781	0.042522	-2.205774	11.318552	-118.292099	250.202719	-5.302089	-0.438456	-0.055413	-0.769142	8.520019	2.221546	1.847261	-0.214439	14.000527	15.593316	-0.547956	-0.476748	-0.127692
-2.235645	0.726904	9.57872	-9.321676	12.59999	4.463727	0.142319	-0.134711	-0.848349	0.400911	-1.417225	12.006145	-115.400982	255.763633	-12.088103	-0.399007	-0.008155	-0.78733	8.643533	1.757657	2.087111	0.834784	15.120431	14.147545	-0.520695	-0.525743	-0.109512
-2.354484	0.553697	9.348357	-10.849994	12.424235	5.78395	0.141576	-0.141768	-0.820197	1.060618	-1.361037	13.265561	-113.511391	260.475335	-17.372764	-0.411688	-0.007158	-0.801404	8.880968	1.641212	2.150926	0.805208	14.058836	10.301419	-0.520561	-0.490053	-0.173298
-3.15357	0.210111	9.445026	-9.048267	11.857143	5.033541	0.100344	-0.147358	-0.843886	1.005255	-1.248173	13.377726	-118.329642	267.602852	-21.220673	-0.372245	-0.02011	-0.829927	8.766102	1.7003	2.328693	1.006351	10.358116	7.353544	-0.548519	-0.488809	-0.204494
-2.524186	0.78407	9.459688	-9.662419	11.826333	4.789472	0.172104	-0.190544	-0.835384	2.012317	-1.586898	14.700704	-126.869324	276.209405	-24.440279	-0.346362	0.02493	-0.81914	9.000236	1.583113	2.212786	-0.685744	6.612229	2.212225	-0.575705	-0.459311	-0.159725
-2.124601	0.898422	9.411112	-8.532694	12.532726	2.589659	0.125555	-0.107137	-0.801943	2.993853	-0.346885	17.666349	-137.30249	279.74357	-23.365365	-0.292172	0.018485	-0.934037	8.757143	1.291542	1.7878	-2.741874	2.29155	-6.622787	-0.534536	-0.508102	-0.141475
-2.752872	0.324704	9.453303	-11.559628	13.905593	2.252674	0.156068	-0.138614	-0.834622	3.842402	-0.515725	19.665518	-146.317163	271.301267	-18.370272	-0.291431	0.051269	-0.964744	8.808186	1.405829	1.370047	-4.522861	-2.178757	-15.67137	-0.561864	-0.476952	-0.127762
-2.979704	0.382793	9.562797	-10.602803	16.17557	0.324082	0.15534	-0.16297	-0.788979	4.786871	-0.122188	20.817984	-154.379666	263.097987	-5.973381	-0.265549	0.096309	-0.953957	8.98483	1.579652	1.37409	-6.138082	-6.266818	-23.163313	-0.50672	-0.507694	-0.141335
-2.700154	0.43858	9.227487	-11.05084	18.768626	-0.859202	0.155683	-0.124843	-0.838038	6.822449	0.381868	21.880236	-163.93372	259.33184	8.470669	-0.214236	0.094465	-0.92636	8.74917	1.405964	1.368946	-6.230652	-10.061436	-28.920051	-0.53419	-0.474891	-0.158677
-2.914531	0.212116	9.961158	-16.269563	22.340883	-0.908792	0.170561	-0.13546	-0.849047	9.935779	2.291618	22.343607	-178.216246	260.411173	21.818904	-0.213495	0.12725	-0.957067	8.1615	1.756512	1.539146	-6.394145	-12.593395	-32.574021	-0.534052	-0.457872	-0.175042
-2.391405	0.15599	10.36891	-20.103067	28.030275	-2.798721	0.156454	-0.152385	-0.831206	13.181356	3.469472	23.545093	-186.289149	259.015277	37.151806	-0.199859	0.084579	-0.997381	8.287505	1.64182	1.960201	-5.651975	-13.464192	-30.922577	-0.548094	-0.493767	-0.111327
-2.375692	-0.012957	11.164129	-31.813168	39.411127	-5.738904	0.140819	-0.131525	-0.809537	30.642827	-9.833774	50.565365	-192.101468	238.458418	51.432886	-0.121847	0.17588	-0.990707	7.989143	2.106609	1.836862	-3.259128	-12.184006	-23.756645	-0.534395	-0.509755	-0.110419
-3.007552	-0.242749	11.037209	-35.296879	51.265658	-6.486915	0.140419	-0.100454	-0.830445	23.111287	-6.190647	13.441345	-12.971176	163.066952	55.605188	-0.082769	0.206746	-0.993542	7.753369	2.455853	1.893851	1.19739	-8.777735	-14.438226	-0.547885	-0.477574	-0.112164
-2.949433	0.1021	11.096624	-33.628922	63.607999	-7.54851	0.183909	-0.108293	-0.856228	32.617049	11.76028	12.920837	-55.665615	152.304617	96.378798	-0.121031	0.223985	-1.022418	8.643148	2.39674	2.149738	5.291493	-4.548726	-4.938355	-0.520554	-0.527396	-0.078456
-3.252531	0.271013	10.238984	-30.109212	71.849038	-6.627263	0.211393	-0.098799	-0.846267	30.4585	8.93931	3.191991	-79.208706	129.071121	80.495989	-0.04266	0.211259	-1.051768	8.698168	2.221388	1.910469	7.554731	0.475696	6.887958	-0.534674	-0.525121	-0.12511
-3.481792	-0.935335	10.172609	-21.636749	75.331346	-1.350693	0.169403	-0.094147	-0.859295	32.186058	9.109836	8.663385	-138.65373	89.031848	57.357121	-0.05519	0.242896	-1.067849	8.81809	1.408054	1.909209	9.602883	4.904805	14.103411	-0.562073	-0.493144	-0.126925
-3.322117	0.383283	9.612969	-8.467657	75.272531	3.79329	0.197644	-0.094896	-0.859993	30.023212	12.663987	10.093063	-111.624765	42.031342	32.154105	-0.003211	0.258517	-1.069956	8.940484	0.479062	2.027268	6.776853	7.920455	17.308758	-0.548236	-0.492114	-0.142382
-3.628241	1.023592	11.541947	-3.085138	64.530726	10.257839	0.197287	-0.115724	-0.828426	27.847098	16.445323	13.617388	-42.517954	-9.162371	15.114272	-0.029603	0.286864	-1.042712	8.69247	0.883662	1.425528	-4.672611	6.722452	22.735877	-0.562143	-0.492318	-0.142453
-3.503943	0.438678	9.098192	18.364073	63.576865	11.008576	0.238505	-0.092834	-0.822229	23.442458	18.933445	15.055658	37.227385	-51.81738	9.914226	-0.017218	0.284795	-1.014288	8.981603	0.126268	1.008467	-14.580643	4.727315	34.795268	-0.561793	-0.477778	-0.112234
-3.534598	0.616834	10.462276	8.760131	61.751476	10.883885	0.212551	-0.140112	-0.836019	15.951838	19.118548	17.276296	98.068497	-98.594117	24.357909	-0.016332	0.288011	-1.057338	9.677037	0.877163	0.425818	-17.219458	2.216494	51.907387	-0.534048	-0.476544	-0.127621
-3.71065	0.386227	10.230558	12.944168	64.164981	11.125735	0.240049	-0.147918	-0.808566	0.136337	23.709524	15.362987	160.834937	-152.331786	72.680051	-0.016332	0.288011	-1.057338	9.327841	-0.283053	0.534084	-16.569462	-0.545978	61.94741	-0.548515	-0.50748	-0.157073
-3.957867	0.279995	12.214366	11.451615	69.738062	12.232594	0.25264	-0.110508	-0.805086	-1.488419	8.888898	5.295083	162.680295	-159.521588	105.787045	-0.029533	0.241975	-1.054051	10.149011	0.469304	0.372984	-22.847398	-1.870185	54.7297	-0.547468	-0.445189	-0.113838
-3.855249	0.691936	14.548146	7.876398	81.498214	11.514084	0.21105	-0.136926	-0.797207	2.384546	2.467244	13.636429	86.56505	-189.008703	59.429701	-0.029389	0.212406	-1.066393	11.095166	2.966143	0.82057	-25.446812	-0.691319	34.463075	-0.548098	-0.475095	-0.158747
-3.777496	0.06438	15.569961	17.377661	100.677491	12.105188	0.253798	-0.151821	-0.794839	5.635323	5.107639	12.518134	73.764799	-165.418314	13.038285	-0.094118	0.242671	-1.067022	11.849596	3.252048	0.177136	-11.058214	0.616914	25.294789	-0.547676	-0.461382	-0.113001
-4.178894	-0.624869	15.502417	21.249777	120.676549	13.829803	0.296517	-0.132117	-0.827454	2.484514	3.588397	7.638415	65.368778	-134.419378	-22.544072	-0.11978	0.183383	-1.091155	11.971564	2.032429	0.234052	-2.654718	1.735609	32.41237	-0.561868	-0.458281	-0.175182
-4.153941	-1.251419	16.750531	25.551051	144.184043	17.726112	0.28201	-0.117971	-0.830521	3.470437	-1.255571	10.259101	47.371071	-100.141784	-25.30063	-0.146323	0.181089	-1.061904	13.215265	1.100871	0.373019	13.388445	2.057776	39.323049	-0.561379	-0.426722	-0.161329
-4.923336	-1.071518	18.384406	24.221072	168.86214	21.534955	0.29463	-0.11516	-0.792058	2.357442	-2.322272	11.93321	60.251765	-76.182191	-4.891188	-0.198151	0.19611	-1.061805	14.600147	1.103947	1.896002	25.626428	3.099047	31.569719	-0.561517	-0.443741	-0.144964
-3.977242	-1.008225	19.937496	32.720609	197.299204	25.376586	0.324029	-0.157222	-0.782509	3.865439	-0.014907	12.7029	82.848327	-54.772729	-3.057152	-0.145952	0.197482	-1.077258	14.687505	1.226392	3.455176	25.005016	3.868545	7.205906	-0.588707	-0.395572	-0.147616
-3.512852	-2.09874	20.226085	47.755984	227.360785	29.164462	0.366033	-0.179173	-0.751989	5.542314	-2.273495	10.188489	79.090064	-45.208372	13.928878	-0.185031	0.166616	-1.074423	12.683352	2.567967	3.722982	11.783159	-0.306605	-13.630759	-0.547401	-0.427344	-0.145731
-1.907294	-2.386625	20.369762	60.603029	259.229971	34.797048	0.407652	-0.187354	-0.724885	4.054318	1.783384	8.235934	52.651169	-21.171858	15.287241	-0.198232	0.120579	-1.071137	11.3233	4.197449	3.764501	0.716049	-5.6288	-5.588986	-0.560962	-0.394337	-0.163003
-0.83278	-2.447749	19.70844	83.469965	292.881984	38.55936	0.406895	-0.177111	-0.714224	1.339485	0.551088	10.329168	21.410346	-5.870874	10.974877	-0.16026	0.162478	-1.017576	11.301157	4.25058	2.56661	-2.700046	-7.730008	4.182917	-0.603383	-0.442701	-0.17623
-0.215395	-2.221093	19.09627	109.580072	323.758248	38.986484	0.449285	-0.212833	-0.680288	1.676847	0.324788	9.939754	35.305268	-13.537542	9.923307	-0.185696	0.149152	-1.04472	11.447528	4.185177	0.892271	2.306032	-4.942306	-3.397572	-0.575634	-0.460137	-0.144197
-1.518626	-1.942382	16.855709	130.172268	346.566398	36.446802	0.477554	-0.248181	-0.646003	1.898323	0.493016	9.548255	22.709925	-8.638481	5.306771	-0.172946	0.103265	-1.041985	11.070686	3.076856	-0.496887	13.626614	1.137515	-22.506278	-0.561659	-0.442088	-0.176019
-7.346899	-0.511808	14.475155	134.032704	354.237168	24.724851	0.532936	-0.277564	-0.587681	2.07236	1.056093	9.665635	15.565779	-7.265154	1.80025	-0.17272	0.149227	-1.044996	10.007315	3.543895	-0.514717	17.884634	6.35369	-46.2874	-0.561376	-0.445393	-0.113908
-11.93725	0.363546	16.833265	112.618382	304.868742	16.777162	0.532208	-0.30192	-0.542037	1.434628	0.888097	9.425637	11.91286	-8.09565	-0.214777	-0.197937	0.121651	-1.085486	9.046145	3.716575	-1.430186	18.427248	10.940293	-60.730745	-0.533839	-0.460351	-0.128459
-12.342543	5.073801	16.788405	162.08913	248.086162	11.111071	0.560492	-0.354567	-0.49026	1.551745	1.113299	9.541523	5.710362	-7.823018	-2.375018	-0.185997	0.08787	-1.040706	7.448328	4.184087	-1.637641	18.580802	14.578323	-60.47372	-0.547747	-0.460555	-0.128529
-1.150151	-2.204367	9.360157	177.36549	230.177074	-14.525591	0.559377	-0.365152	-0.448032	2.481254	1.111906	9.957343	-0.316593	-8.314292	-4.604359	-0.173091	0.132834	-1.029643	7.568811	3.603304	-1.578005	15.516463	17.456302	-49.936821	-0.562352	-0.508511	-0.141615
6.392975	-3.144625	5.808939	122.13582	165.314048	-39.929288	0.600996	-0.373332	-0.420928	2.142098	0.380446	10.176032	-2.37942	-7.845464	-5.279568	-0.198898	0.103115	-1.041434	6.989113	3.839431	-0.988952	7.516764	16.811359	-34.689624	-0.575843	-0.47633	-0.14336
11.250674	-5.57545	2.426526	96.915874	113.775375	-53.701791	0.62735	-0.357124	-0.38623	1.916887	0.268405	10.397659	-0.605693	-6.754431	-4.558254	-0.185401	0.150223	-1.05907	7.770204	3.550262	-0.256999	-2.36865	14.52376	-18.020217	-0.561376	-0.445393	-0.113908
5.782226	-6.669416	0.781126	39.606879	63.354535	-63.591019	0.612501	-0.381106	-0.340237	1.860076	-0.1258	10.396119	3.64577	-5.084086	-3.212627	-0.198898	0.103115	-1.041434	8.184262	3.142785	-0.251027	-9.044034	10.25118	-3.52066	-0.534052	-0.457872	-0.175042
2.784729	-5.452745	2.660184	-7.393287	30.593232	-55.521029	0.653705	-0.340916	-0.351532	1.798345	0.155818	10.225228	8.17672	-3.259117	-1.526126	-0.159304	0.120805	-1.071964	8.909118	3.551652	0.722419	-16.803132	6.725796	3.431474	-0.576055	-0.473851	-0.189943
2.026411	-4.281338	7.821939	-29.62945	-9.653265	-33.595033	0.654448	-0.33386	-0.379684	1.965105	0.098927	9.945609	9.203051	-2.723661	-1.704944	-0.211584	0.043902	-1.065843	9.688703	3.436464	1.395206	-20.605671	4.247897	5.107524	-0.534469	-0.490257	-0.173368
1.554724	-3.881811	7.132483	-31.610468	-19.645261	-7.15939	0.640714	-0.347256	-0.375919	2.075855	0.492883	9.77844	8.657192	-1.87571	-1.142047	-0.185997	0.08787	-1.040706	10.331413	3.37542	1.047623	-21.629272	-0.342547	4.980319	-0.533977	-0.47737	-0.112094
2.011599	-2.27378	7.148147	-30.638653	-40.875508	16.59714	0.626979	-0.360652	-0.372154	1.962172	1.000168	9.889728	7.766317	-1.545935	-1.725217	-0.198823	0.118436	-1.042437	10.924065	3.723267	1.239831	-20.479133	-1.197999	2.321188	-0.561659	-0.442088	-0.176019
2.982816	-0.896128	7.116015	-25.776597	-68.541268	34.531628	0.668598	-0.368833	-0.34505	1.502511	0.550386	9.879678	6.324468	-0.767064	-1.718633	-0.211579	0.104112	-1.055508	10.571744	3.433944	1.291899	-17.224902	-2.560463	-3.827197	-0.576193	-0.49087	-0.173578
4.020077	-0.895427	7.477176	-18.881417	-98.964581	44.043677	0.627736	-0.370895	-0.382814	1.907432	0.155365	9.944448	6.022358	-0.191367	-1.250731	-0.172575	0.119658	-1.057338	10.213785	3.201462	1.04468	-15.165876	-3.726902	-14.555868	-0.575984	-0.474677	-0.174416
4.869654	-0.438446	7.040985	-14.132085	-124.703922	46.095424	0.626593	-0.346881	-0.37557	2.306894	0.717821	9.840105	5.90467	0.26724	-1.277094	-0.211654	0.088792	-1.054504	9.271748	3.668972	1.208771	-9.735324	-3.905018	-19.127939	-0.547889	-0.458903	-0.159584
5.034653	-0.325135	6.703689	-15.123095	-144.02222	43.454428	0.668955	-0.348005	-0.376617	1.895367	0.774574	9.435213	3.503621	0.82574	-2.259968	-0.224184	0.120429	-1.070585	9.153446	3.785394	1.207065	-0.552081	-2.489985	-10.825281	-0.534398	-0.491084	-0.15784
4.846188	-0.32863	5.847552	-20.283986	-156.493391	37.287967	0.600253	-0.380389	-0.392776	1.788482	0.887783	9.829367	1.131263	1.25875	-2.750818	-0.15938	0.105484	-1.07096	9.204448	2.969969	0.665542	6.196874	-1.862299	-1.164751	-0.548377	-0.490462	-0.173438
4.684612	-0.5561	6.354924	-26.716587	-165.227196	29.161918	0.60021	-0.328491	-0.445251	2.081253	0.831103	10.061923	-0.590511	1.766754	-4.072751	-0.211579	0.104112	-1.055508	9.204043	3.144198	0.666284	10.656279	-1.789869	2.241811	-0.548098	-0.475095	-0.158747
4.386707	0.130993	5.783722	-33.421596	-172.939737	20.34757	0.600595	-0.342262	-0.441835	1.844839	0.887627	9.773937	-2.813001	1.748395	-5.585283	-0.185331	0.105334	-1.070409	8.966318	2.911939	0.541079	14.213234	-1.239121	3.448843	-0.548373	-0.509133	-0.126017
4.164412	0.075165	6.120145	-43.460823	-184.610446	11.999395	0.586832	-0.32106	-0.473054	1.852308	0.775251	10.113679	-4.820649	1.66823	-6.605011	-0.199193	0.102043	-1.027084	8.615502	2.448635	0.652313	15.999603	-0.235233	1.634337	-0.520073	-0.458495	-0.159444
3.36285	0.075745	6.104556	-53.842596	-197.898596	5.036217	0.574241	-0.35847	-0.476533	1.915917	0.77538	10.398086	-5.042803	1.119359	-7.504649	-0.186588	0.085726	-1.012006	8.686893	2.335068	1.311895	16.741095	0.292493	1.140121	-0.562073	-0.493144	-0.126925
2.855437	-0.037076	6.492024	-61.888073	-211.258959	-0.09505	0.545599	-0.32665	-0.496742	1.910304	0.549821	10.114699	-2.946719	0.863589	-6.519021	-0.198753	0.073546	-1.053776	8.924713	1.57954	1.313082	15.837033	-0.126681	-0.046562	-0.590172	-0.490248	-0.189176
1.779437	0.54078	7.098665	-68.371443	-221.784622	-2.332747	0.532208	-0.30192	-0.542037	1.566359	1.057537	10.221151	-2.644244	0.375664	-6.338663	-0.211503	0.119433	-1.056511	8.744383	2.044058	1.191945	12.749896	-0.755146	-5.411332	-0.547818	-0.459729	-0.144057
0.93984	0.143412	8.046776	-77.960372	-229.977328	-2.714203	0.519573	-0.287432	-0.597991	1.798908	0.493848	10.282152	-0.060769	-0.339244	-4.524855	-0.16012	0.0727	-1.040254	8.620559	1.694389	0.828819	9.228581	-2.218632	-10.036866	-0.562285	-0.490666	-0.173508
0.667836	0.433964	8.781505	-86.186919	-237.357811	-0.939608	0.50661	-0.32837	-0.587395	1.85153	0.549881	10.05685	2.776142	-0.617281	-3.384707	-0.198603	0.104187	-1.055783	8.322892	2.333653	0.76613	6.345339	-2.509617	-12.469847	-0.548377	-0.490462	-0.173438
0.166773	0.782122	9.512022	-92.518891	-245.996093	1.269114	0.506939	-0.272944	-0.653946	1.786819	0.493374	9.715756	3.938297	-1.436986	-2.374601	-0.198307	0.105259	-1.070133	8.559922	2.391436	0.830686	4.274466	-1.638172	-14.636235	-0.548444	-0.508306	-0.141545
-0.267305	1.534501	10.757019	-98.742032	-256.568705	3.13942	0.436307	-0.236473	-0.687184	1.790122	0.662508	9.885817	4.362272	-2.07728	-2.103175	-0.199043	0.132684	-1.029091	8.618223	1.75197	0.709253	5.282838	-0.527093	-12.292101	-0.561868	-0.458281	-0.175182
-0.708804	1.768218	11.601872	-101.145386	-267.931186	2.931199	0.438194	-0.25343	-0.72258	1.902728	0.718528	9.775003	4.949838	-1.952203	-1.330759	-0.172431	0.090089	-1.069681	8.431581	2.563709	0.290064	5.931844	2.208015	-10.351656	-0.548098	-0.475095	-0.158747
-0.56522	1.602083	13.081556	-103.726254	-276.744384	0.311469	0.381297	-0.203562	-0.759582	1.562625	1.113725	10.05128	4.579274	-1.898797	-0.837278	-0.186292	0.086798	-1.026356	9.087361	2.563707	0.661611	7.92725	4.688181	-9.912311	-0.53391	-0.459525	-0.143986
-0.716075	1.95144	14.159872	-103.397994	-279.573066	-5.163699	0.35267	-0.189041	-0.7623	1.903267	0.436875	9.774766	5.192235	-2.231496	-0.346844	-0.185627	0.104262	-1.056059	8.676294	2.158368	0.712084	10.098288	6.938508	-10.847721	-0.534328	-0.49191	-0.142312
-1.562975	2.414248	14.770484	-100.462452	-272.855227	-10.2462	0.339264	-0.147012	-0.825086	1.737608	0.550144	10.111072	4.544911	-2.174975	-0.87088	-0.212169	0.101968	-1.026808	8.906566	1.807888	0.355561	12.564387	9.68438	-9.311173	-0.547472	-0.426518	-0.161259
-3.146631	1.67277	15.702672	-95.647283	-255.616911	-14.366007	0.326258	-0.136052	-0.866965	1.782007	1.112867	9.546359	3.959723	-2.087206	-1.363726	-0.199268	0.086723	-1.02608	9.090372	2.215746	0.779941	13.41192	12.142887	-10.120547	-0.56277	-0.540896	-0.139941
-4.847189	1.160658	16.519892	-89.314554	-232.740758	-15.945025	0.25527	-0.120408	-0.868634	1.896899	0.60563	9.49171	3.186444	-2.187794	-1.550317	-0.198603	0.104187	-1.055783	8.909307	1.576078	0.474386	12.910978	13.338823	-7.618462	-0.562143	-0.492318	-0.142453
-6.999391	1.052416	17.671011	-75.871557	-216.032041	-16.203104	0.227786	-0.129902	-0.878596	2.19241	0.380053	9.837403	1.423034	-2.48069	-2.387003	-0.185702	0.088942	-1.055055	8.374185	1.866932	0.285997	12.635011	14.114518	-2.853555	-0.561588	-0.442914	-0.160492
-9.712536	0.934656	16.481133	-62.347064	-214.662071	-17.538628	0.170518	-0.083562	-0.901523	2.142098	0.380446	10.176032	1.169097	-3.063249	-2.886247	-0.185407	0.090014	-1.069405	8.610655	1.692164	0.289657	12.096347	14.954199	4.510091	-0.575914	-0.475504	-0.158888
-12.23936	0.705025	16.033203	-68.01854	-221.43104	-14.35045	0.15564	-0.072945	-0.890513	1.793426	0.831642	10.055878	-0.259246	-3.720224	-3.664626	-0.198232	0.120579	-1.071137	8.494668	1.286149	0.345633	10.200503	15.665689	11.971396	-0.589892	-0.474881	-0.174486
-15.933475	1.288165	17.384566	-75.01115	-218.163803	-12.345038	0.115536	-0.08525	-0.938938	1.855719	0.888054	10.283693	-1.044782	-4.858214	-4.663064	-0.23716	0.120354	-1.07031	8.380767	1.40356	0.583554	8.422568	16.263767	18.607936	-0.590101	-0.491074	-0.173649
-18.63619	2.149324	16.767321	-65.847304	-207.479832	-14.83556	0.072017	-0.042813	-0.948138	1.912267	0.155555	10.171006	-1.644565	-5.963194	-5.661022	-0.211063	0.090935	-1.083203	8.485284	0.586764	-0.256403	7.33726	16.492232	22.768016	-0.589821	-0.475708	-0.158958
-20.666001	4.098479	15.485785	-48.694196	-200.049988	-22.800161	0.071602	0.005557	-0.986537	1.679588	0.155891	10.052891	-0.329982	-6.906247	-4.251263	-0.199048	0.072474	-1.039426	8.427659	0.93585	-0.136206	3.857397	15.943551	24.34224	-0.548728	-0.505001	-0.203657
-22.257358	3.85994	13.123779	-30.549882	-189.048304	-33.409277	-0.012335	-0.037037	-0.960119	2.035884	0.775354	10.627062	2.123885	-8.19817	-3.553094	-0.198753	0.073546	-1.053776	8.844323	0.354639	-0.011162	-0.167895	14.781445	22.925641	-0.576122	-0.491696	-0.158051
-24.694377	3.912126	11.428514	-8.882128	-160.127472	-41.529451	-0.013121	0.007804	-0.984442	2.025112	0.718597	10.117259	3.898146	-9.498323	-2.917208	-0.211654	0.088792	-1.054504	8.955617	0.410961	-0.368155	-5.790647	12.419335	18.677768	-0.548239	-0.473443	-0.189803
-25.605812	2.752337	8.678037	9.966142	-115.709413	-42.825291	0.0006	0.0385	-1.005699	1.908533	0.211743	10.001135	6.532652	-11.213226	-2.839656	-0.211359	0.089864	-1.068854	8.784206	0.354527	-0.072169	-11.036536	8.86248	11.775127	-0.548102	-0.456424	-0.206168
-25.255588	1.821885	6.066729	11.487193	-71.217922	-39.407238	-0.054339	-0.015086	-0.990639	2.091678	0.437169	10.514708	7.572965	-12.025493	-3.21683	-0.22463	0.088717	-1.054228	8.662602	0.470207	-0.253596	-15.909494	5.177418	5.575105	-0.534119	-0.475717	-0.143149
-24.633169	1.245325	5.678592	0.021654	-38.347666	-31.048721	-0.055854	0.005399	-0.969318	2.025782	1.000297	10.174135	7.368575	-13.673412	-4.836427	-0.173612	0.085801	-1.012282	8.369162	0.238825	-0.20018	-18.542148	3.510846	0.18284	-0.548102	-0.456424	-0.206168
-22.575475	1.415434	5.548843	-4.299992	-15.67272	-21.005841	-0.097058	-0.03479	-0.958023	1.558005	1.000875	9.824626	3.155672	-14.731103	-6.021788	-0.23753	0.103962	-1.054956	8.061322	0.992017	-0.801538	-16.610943	2.638602	-0.584062	-0.589754	-0.457863	-0.190851
-17.555579	-0.463195	10.469152	-5.271732	0.536031	-6.048474	-0.068474	0.002588	-1.007781	2.320515	0.549351	10.462999	0.466361	-17.339307	-6.296506	-0.211799	0.118361	-1.042162	8.713105	0.816798	-0.670361	-11.396232	1.655771	1.602277	-0.576197	-0.472199	-0.220999
-17.665683	6.054644	16.802659	6.592203	135.974089	2.559486	-0.082581	-0.014337	-0.98994	2.569017	0.493301	11.317381	-5.467333	-24.722233	-4.89495	-0.22485	0.102965	-1.040882	8.470863	1.106482	-0.973061	-5.982197	-0.253834	7.704585	-0.562356	-0.489839	-0.189036
-11.434693	12.470027	13.768397	-1.894181	223.289854	-35.592074	-0.054711	-0.018614	-0.976563	2.288551	0.437794	11.651126	-6.36678	-34.558633	-3.143794	-0.211949	0.08772	-1.040154	8.718337	0.934186	-0.370332	-1.122784	-2.597212	20.077509	-0.561868	-0.458281	-0.175182
8.208041	24.241799	3.174988	191.17774	260.081384	-122.258164	-0.02647	-0.019363	-0.977261	2.535282	0.043665	12.391945	-7.342386	-47.982985	-1.705807	-0.23731	0.089713	-1.068302	8.94973	1.048809	-0.605063	3.484514	-3.878649	24.315931	-0.576193	-0.49087	-0.173578
-7.295813	-2.134247	11.173146	-19.320848	235.363216	-105.420563	0.045276	-0.04525	-0.986251	2.010962	0.384766	14.815643	-5.869998	-62.84622	3.912499	-0.22544	0.100821	-1.012183	9.124179	4.534202	-0.287393	10.501993	-5.574667	13.263752	-0.576059	-0.45518	-0.237364
-14.172611	-8.962461	25.047716	66.682554	186.769275	-23.408844	0.115107	-0.019581	-0.994829	2.156451	0.557111	18.951685	-19.119886	-91.389258	8.519874	-0.263928	0.072099	-1.038048	9.73556	5.351107	0.985117	6.413222	-8.88255	3.421881	-0.603942	-0.473433	-0.205612
-4.563841	-4.322875	10.307775	111.445975	159.092261	46.512844	0.101744	-0.029449	-1.00514	3.101674	0.556335	20.10382	29.583655	-115.936102	-13.942633	-0.264443	0.085276	-1.010352	10.684936	5.989267	1.364885	-7.037114	-12.170495	18.035469	-0.547192	-0.411152	-0.146568
1.674292	-3.810901	10.317611	118.812813	109.886302	59.671879	0.143005	-0.058457	-0.946468	2.281337	-0.118739	19.350011	42.175319	-143.99546	-20.438346	-0.264293	0.115917	-1.012359	12.465648	3.953791	1.68878	-18.777308	-17.12379	37.543957	-0.575914	-0.475504	-0.158888
-11.188995	-4.474427	13.929077	80.120382	48.667344	-52.595467	0.130028	-0.082096	-0.953363	2.467977	-0.456523	19.976389	49.820881	-172.570271	-28.854262	-0.290395	0.085126	-1.0098	13.073896	2.329526	2.471651	-30.424878	-16.915681	60.760936	-0.589896	-0.45621	-0.221906
-1.977733	4.257591	2.437986	64.245262	39.878473	5.86065	0.174662	-0.113948	-0.986391	2.150735	-0.004094	21.328865	48.976072	-202.831292	-31.374978	-0.304552	0.080763	-0.952126	13.239785	1.919869	1.814246	-27.81965	-10.654624	71.393677	-0.561171	-0.41053	-0.162166
-1.881848	0.384177	10.095631	-8.242054	31.232622	15.036604	0.160155	-0.099802	-0.989458	1.437826	-1.466006	22.841186	54.768833	-240.825152	-36.679744	-0.317829	0.019406	-0.947835	12.996152	1.860603	1.390249	-25.625159	-5.8451	65.491472	-0.575358	-0.4261	-0.176927
-4.177505	-1.281417	9.702975	28.01366	23.277266	5.081798	0.173175	-0.128061	-0.930087	1.966809	-4.001613	23.13313	57.504027	-281.377411	-43.152766	-0.368992	0.051891	-0.977439	12.693794	2.150175	1.026541	-20.836356	-4.022071	53.509643	-0.575008	-0.41156	-0.146708
-2.41772	1.126948	9.065391	34.235567	18.007451	6.174245	0.14492	-0.110013	-0.946881	0.242433	-5.350312	23.095724	57.083489	-325.582136	-57.802133	-0.384109	0.028992	-0.875712	12.979841	3.193385	0.677052	-21.721859	-4.765763	39.329962	-0.602615	-0.395776	-0.147686
-2.82803	1.986931	8.606391	22.521551	13.120895	4.073861	0.146435	-0.130498	-0.968201	-1.476737	-5.628446	23.399058	66.357929	-368.01125	-77.850468	-0.435793	0.014444	-0.887955	13.560119	3.654665	0.21078	-26.457871	-6.929962	22.176889	-0.589475	-0.442496	-0.17616
-2.471551	1.01283	9.234354	9.888509	8.758633	1.432599	0.131214	-0.158008	-0.908132	-2.779113	-6.188467	24.333652	109.776862	-401.050873	-96.451944	-0.488438	-0.018641	-0.856145	13.503169	3.71337	0.32974	-32.855846	-10.098785	6.962538	-0.561033	-0.393511	-0.178531
-2.522083	0.956877	9.574118	4.537752	6.094698	1.067361	0.200659	-0.118568	-0.920126	0.555533	-4.901547	21.630728	173.518718	-409.688177	-103.914382	-0.554499	-0.023304	-0.797368	12.563447	3.658444	0.551513	-35.425043	-12.609664	-2.521395	-0.58892	-0.393093	-0.194199
-2.871301	1.128244	9.283895	1.88635	4.656799	-0.604442	0.173175	-0.128061	-0.930087	6.792548	-3.335032	22.83877	258.420057	-355.121483	-91.561574	-0.581041	-0.025598	-0.768117	11.810273	3.779565	1.316492	-30.518396	-14.719055	-9.802705	-0.588223	-0.345342	-0.181182
-2.348626	0.152813	9.630933	-1.42495	3.862631	0.312221	0.187296	-0.128436	-0.930437	8.420103	-0.182687	23.894788	329.637393	-283.348701	-85.860405	-0.59646	-0.109778	-0.662375	10.758291	3.609992	1.835104	-24.448243	-16.122392	-13.974148	-0.588778	-0.394745	-0.163143
-2.40716	0.382379	9.573932	-1.209924	3.424006	1.132504	0.187682	-0.142207	-0.927021	4.342868	-1.026765	16.108885	393.248961	-302.544644	-65.502091	-0.623818	-0.160177	-0.601413	9.952278	3.442105	2.89728	-19.386986	-16.548494	-12.431903	-0.575496	-0.443119	-0.160562
-2.80691	0.497793	9.623473	-6.053579	3.373448	0.900282	0.144934	-0.127312	-0.929389	-6.842393	-8.684633	-4.513887	292.352648	-276.547302	-24.204351	-0.625149	-0.195105	-0.542007	9.785944	3.096279	3.431658	-17.845658	-16.75651	-6.568866	-0.588987	-0.410938	-0.162306
-2.408729	1.013995	9.519733	-2.183673	4.150375	1.729797	0.17239	-0.08322	-0.954411	-14.043768	-10.938971	-21.311687	119.312524	-139.069059	-46.745226	-0.652432	-0.230184	-0.482049	9.962297	2.921399	3.374311	-15.545629	-17.000863	-2.847499	-0.589057	-0.410112	-0.177834
-2.522124	1.014319	9.574359	-7.370056	3.707427	0.725492	0.173161	-0.110762	-0.947579	-10.952145	-5.464421	-2.672479	-79.829866	-27.807786	-38.617432	-0.639161	-0.229037	-0.496675	9.779746	2.920567	3.071475	-10.715541	-13.824633	-3.705328	-0.589754	-0.457863	-0.190851
-2.522741	0.324779	9.51461	-5.434865	3.985723	1.368468	0.186153	-0.104422	-0.923192	-3.17618	-1.24422	8.874005	-97.160709	-22.486968	-37.098837	-0.652288	-0.259753	-0.494392	10.248129	2.163263	2.77753	-3.399484	-10.520892	-1.241486	-0.574732	-0.377522	-0.179438
-2.692401	0.497711	9.6257	-6.846279	3.545425	1.672051	0.186925	-0.131964	-0.916361	-6.32748	-5.181143	9.144033	-85.105352	9.385909	-11.032019	-0.67824	-0.259903	-0.49384	10.539658	2.742853	2.66569	0.028279	-6.69994	-5.764752	-0.61694	-0.428365	-0.146082
-2.580285	0.726911	9.515186	-5.373972	3.674176	1.761908	0.186896	-0.097365	-0.951344	-6.605112	-2.926815	9.81956	-26.835512	27.519101	1.495473	-0.651993	-0.258681	-0.508742	10.23755	2.451418	2.239604	5.488268	-3.76992	-15.119406	-0.57487	-0.394541	-0.163073
-2.584449	0.323856	9.286084	-7.737042	3.64077	1.032143	0.185381	-0.07688	-0.930024	-5.183252	-2.988888	6.339289	-1.745623	31.474885	12.560786	-0.639092	-0.273926	-0.508014	10.649717	2.857005	2.249038	10.180878	-0.693772	-24.074037	-0.588636	-0.396398	-0.132088
-2.467713	0.324255	9.402017	-4.363984	3.93344	0.996523	0.173919	-0.121005	-0.958239	-4.793859	-3.724892	2.949968	-15.477957	43.420342	25.000249	-0.639532	-0.245429	-0.481322	9.230704	2.569124	2.04167	13.984526	1.279344	-36.105542	-0.574732	-0.377522	-0.179438
-2.236634	0.554338	9.521143	-5.285689	3.904326	0.47735	0.199888	-0.091026	-0.926957	-4.90534	-3.104851	3.17463	-46.364887	66.457278	32.757877	-0.664748	-0.273005	-0.521812	8.155923	3.207918	1.425513	10.668533	2.479067	-40.865601	-0.575496	-0.443119	-0.160562
-2.235562	0.612021	9.578237	-4.392537	4.146331	1.184072	0.173175	-0.128061	-0.930087	-4.060741	-3.104842	5.004022	-67.475501	93.143188	39.912389	-0.651107	-0.255465	-0.551791	8.043548	3.616204	1.784484	8.086904	2.681102	-22.829716	-0.561313	-0.408877	-0.193221
-2.747346	0.383351	9.73781	-3.353265	3.658451	1.265154	0.159012	-0.075789	-0.982213	-4.207944	-3.159854	6.18978	-72.069177	116.305144	45.688703	-0.664372	-0.196402	-0.52683	8.403553	3.442402	2.089879	5.748976	3.693638	-12.100011	-0.602824	-0.411968	-0.146849
-2.521052	1.072002	9.631453	-2.925657	3.60212	0.986998	0.201774	-0.107983	-0.962353	-2.884801	-2.711689	6.217964	-72.441118	133.526791	49.282037	-0.651327	-0.241217	-0.538445	8.049165	3.094508	2.021886	2.630958	4.034605	-7.68964	-0.547889	-0.458903	-0.159584
-2.289352	0.440461	9.746959	-3.386053	3.4767	1.016953	0.186524	-0.100894	-0.937268	-2.502071	-2.882241	5.263411	-78.077943	147.228087	51.356237	-0.623453	-0.203995	-0.627102	8.101984	2.918662	1.662804	0.388137	4.449329	-1.23496	-0.533217	-0.393103	-0.17839
-2.464746	0.841953	9.574749	-3.107685	3.376755	1.811887	0.186925	-0.131964	-0.916361	-1.632892	-3.334312	5.507724	-87.92965	159.726939	50.948592	-0.636429	-0.20407	-0.626826	8.745929	2.799788	1.37488	-2.536284	5.147329	4.212557	-0.575776	-0.458485	-0.175253
-2.758978	1.070237	9.172175	-3.83856	3.610133	2.615139	0.173576	-0.159132	-0.90918	-1.507313	-3.108779	6.020088	-99.474042	172.528549	47.644484	-0.609812	-0.186455	-0.657081	8.325944	2.915402	1.00823	-3.578895	5.508667	10.327539	-0.589337	-0.425478	-0.192525
-2.627062	0.097267	10.023096	-4.757043	3.759497	2.62021	0.228886	-0.102018	-0.938316	-0.804416	-2.489915	6.658152	-107.790029	186.389351	43.027826	-0.595429	-0.136131	-0.717766	8.864367	2.62529	1.376339	-3.029609	6.797891	13.039747	-0.575008	-0.41156	-0.146708
-2.398127	0.211984	10.028032	-6.981995	4.871162	3.963376	0.201802	-0.142581	-0.92737	-0.855506	-2.714892	6.939951	-112.924617	199.993495	36.808044	-0.556056	-0.104194	-0.734951	9.102612	2.160389	1.43867	0.129159	7.962826	13.878598	-0.575354	-0.444771	-0.129506
-1.605722	0.554123	9.590244	-8.653416	6.105193	5.582929	0.159026	-0.093088	-0.964722	-0.426061	-2.658272	8.194532	-117.492371	211.868145	29.060919	-0.55517	-0.100978	-0.778	9.223115	2.044462	1.56019	2.305077	8.958426	10.045241	-0.575008	-0.41156	-0.146708
-2.516883	-0.076105	9.797186	-8.641775	7.542598	6.219593	0.18691	-0.114665	-0.933852	0.560043	-2.152798	8.611988	-122.902093	223.121313	20.937105	-0.542044	-0.070262	-0.780283	9.108904	1.348314	1.674836	5.508689	8.724056	4.227478	-0.575008	-0.41156	-0.146708
-2.4546	0.671799	10.085702	-8.939414	8.830125	6.394709	0.173533	-0.107234	-0.961655	0.006471	-2.319858	9.619269	-127.365115	233.440194	12.249968	-0.5026	-0.083214	-0.808806	8.699092	1.350001	1.846854	6.591077	8.249383	-5.707053	-0.574311	-0.363809	-0.133692
-2.466434	0.09473	9.457905	-10.403822	10.055614	6.142839	0.144148	-0.082471	-0.953712	0.418346	-1.92592	10.08118	-127.984844	242.128674	2.71748	-0.462266	-0.03274	-0.870043	8.701719	1.641122	2.02781	9.105237	7.878534	-13.354524	-0.575425	-0.443945	-0.145034
-2.700279	0.610905	9.228211	-10.306214	10.978656	6.096226	0.172761	-0.079692	-0.968487	0.905726	-0.799033	11.45115	-127.697947	249.177029	-7.138702	-0.475016	0.013147	-0.872778	8.750696	1.696838	1.489996	12.377626	7.041095	-17.029477	-0.58899	-0.392267	-0.209727
-2.516924	-0.018664	9.797428	-9.788312	10.4894	6.086784	0.243021	-0.119691	-0.921173	1.270113	-1.249613	12.307619	-129.777055	255.021413	-15.405571	-0.46101	-0.013132	-0.928445	8.702549	1.757522	2.088212	14.208949	5.437795	-18.128567	-0.574941	-0.393715	-0.178601
-2.581973	-0.020311	9.398343	-9.295537	10.328302	6.941416	0.199888	-0.091026	-0.926957	0.9963	0.272514	13.095809	-132.665143	260.713656	-20.715101	-0.394793	0.082382	-0.978895	9.174948	1.640289	2.096521	13.822562	2.828415	-17.350753	-0.575776	-0.458485	-0.175253
-2.761081	0.89743	9.057745	-6.141603	9.631715	7.319684	0.200259	-0.087497	-0.941033	1.480331	-0.0091	14.181395	-135.556823	266.730494	-19.486084	-0.356236	0.066215	-0.964369	8.885215	1.235421	2.328916	11.705606	-0.059287	-16.870928	-0.547263	-0.410325	-0.162096
-2.638694	0.784153	9.457461	-6.848459	9.289691	7.377493	0.215523	-0.111886	-0.948627	1.98187	0.667664	16.174022	-140.136685	274.503387	-9.177719	-0.329173	0.115542	-1.01098	8.932281	1.639346	1.732678	8.722381	-3.875904	-15.588998	-0.603521	-0.459719	-0.159865
-2.802456	0.498758	9.850885	-6.724278	9.442179	7.532946	0.185767	-0.090651	-0.926608	2.813734	1.005182	17.437302	-148.858062	268.287778	6.999732	-0.277049	0.101593	-1.025429	8.93033	1.057844	1.550485	6.007424	-6.024956	-12.788005	-0.57613	-0.454354	-0.252892
-3.038238	0.61236	9.505795	-7.178628	9.518319	8.762149	0.172761	-0.079692	-0.968487	4.506769	1.284657	18.60539	-166.568765	253.090859	26.194822	-0.224329	0.149998	-1.058243	8.285554	1.060318	1.778008	4.8879	-8.215206	-11.367742	-0.561379	-0.426722	-0.161329
-2.812146	0.037055	9.337277	-6.980768	10.918532	10.041649	0.214022	-0.1087	-0.909815	7.659814	1.393253	20.766431	-180.574542	234.814043	41.046665	-0.159594	0.179943	-1.047279	8.39907	1.581991	1.602713	5.203027	-9.25155	-8.64406	-0.589963	-0.474055	-0.190014
-2.914282	-0.132533	9.95971	-9.685885	12.905844	12.565667	0.229229	-0.063891	-0.987375	12.486729	3.583284	23.360763	-186.867797	222.120261	50.256963	-0.145657	0.198554	-1.091608	8.505672	1.288621	0.944702	8.573297	-7.577401	-3.743875	-0.547192	-0.411152	-0.146568
-2.856163	0.212316	10.019124	-10.638042	17.607127	12.276824	0.215923	-0.142956	-0.927719	15.098008	5.325628	24.549426	-175.803762	213.076256	59.301917	-0.131715	0.277375	-1.125601	8.030897	0.533724	0.693057	14.471439	-3.626501	-2.225421	-0.57487	-0.394541	-0.163073
-3.199607	0.097682	10.011961	-17.469529	23.234841	11.897297	0.200659	-0.118568	-0.920126	18.652327	7.966101	24.17349	-150.163831	197.927067	65.368912	-0.054374	0.291001	-1.09956	8.509784	0.940907	1.122939	23.7191	0.855643	-3.594473	-0.603174	-0.426508	-0.177067
-2.790782	-0.245569	10.416279	-21.329111	30.006164	9.442516	0.214751	-0.084344	-0.955458	26.076988	13.578524	16.691462	40.650345	108.145655	64.289587	-0.055109	0.318427	-1.058518	8.037655	0.941987	1.114135	30.734965	3.675842	-4.733564	-0.589408	-0.424651	-0.208053
-2.601369	-0.012067	11.330234	-30.904539	40.45866	5.223977	0.21588	-0.091058	-0.980194	23.662703	13.184111	11.375291	-0.668217	130.429506	62.474024	-0.002094	0.367904	-1.105681	8.5816	1.117967	1.843664	31.843475	4.924879	-6.821718	-0.589404	-0.443323	-0.160632
-2.600131	-0.184151	11.386363	-36.023331	58.849924	-0.841185	0.242264	-0.109449	-0.910513	28.575531	13.342364	9.723572	-16.164659	105.145922	42.508721	0.048994	0.320099	-1.075073	8.757143	1.291542	1.7878	26.596071	5.040053	-7.934026	-0.602548	-0.377931	-0.179578
-3.057711	-0.815676	11.374801	-44.845135	70.815091	-2.768065	0.256741	-0.088996	-0.94243	30.330021	9.450746	8.001948	-16.389335	75.888362	21.900417	0.062786	0.368279	-1.107059	8.988266	1.522317	1.553563	21.701169	4.696658	-5.989308	-0.589479	-0.423825	-0.22358
-3.243043	-0.531239	10.69043	-38.821406	82.606063	-2.287026	0.213622	-0.077629	-0.930722	30.621637	13.788132	8.578041	-1.462314	33.097299	-0.64826	0.06168	0.379312	-1.050664	8.80475	1.463163	1.190573	15.797788	4.208329	-2.20649	-0.575567	-0.442292	-0.17609
-3.465794	0.04479	11.029508	-30.572337	91.626095	-0.446701	0.271233	-0.085842	-0.956855	27.289033	17.120742	11.79461	15.671861	-26.692251	-9.644985	0.074876	0.365138	-1.064286	9.147822	0.995025	0.536222	5.575939	3.087001	2.145245	-0.589404	-0.443323	-0.160632
-3.666317	0.683085	12.505889	-14.690172	91.567497	8.492125	0.212836	-0.032788	-0.955046	22.115698	21.639884	15.143408	49.162694	-91.401107	16.312744	0.087481	0.348821	-1.049208	9.328307	0.937286	0.718997	-4.360841	1.770129	13.679888	-0.561588	-0.442914	-0.160492
-3.577294	0.505129	11.199771	24.609478	85.369935	21.034988	0.283482	-0.086559	-0.904316	9.105271	30.846781	15.670879	128.116434	-167.948361	83.382561	0.075021	0.335569	-1.076628	9.160467	0.765441	1.194209	-9.862884	0.855454	29.263361	-0.60345	-0.460546	-0.144337
-3.180677	0.101783	10.978463	7.965022	83.739853	22.497604	0.312466	-0.080251	-0.933167	5.66947	8.258993	9.011552	108.947678	-155.897369	52.377092	0.049584	0.322243	-1.103773	9.456128	1.462172	1.322492	-11.100904	0.152646	40.613197	-0.602615	-0.395776	-0.147686
-3.318011	1.775432	12.80142	11.891338	90.198557	20.843448	0.355957	-0.088089	-0.95895	2.585057	-3.613774	17.08874	81.714517	-140.930636	-22.780566	0.022746	0.318877	-1.060172	10.683808	2.2121	0.809653	-15.641838	-0.499097	39.960161	-0.575425	-0.443945	-0.145034
-3.259845	0.511677	12.797224	18.01434	101.112089	17.384838	0.284611	-0.093273	-0.929052	2.375709	1.788515	10.465251	60.700849	-92.627479	-13.100254	-0.029013	0.289008	-1.071412	11.799498	2.73123	0.593159	-24.058205	-0.095444	39.43842	-0.561521	-0.425069	-0.192384
-2.96656	0.053385	13.14198	16.616649	113.470816	16.11787	0.297617	-0.104233	-0.887174	-0.082038	1.847807	8.545417	47.835617	-83.436119	-3.370228	-0.015597	0.260586	-1.098379	12.279695	1.627941	0.896799	-14.316811	1.973287	58.68599	-0.589266	-0.426304	-0.176997
-4.208549	0.345364	14.028339	14.409911	128.431087	15.324842	0.355214	-0.095146	-0.930798	2.127804	-3.279508	11.870928	61.658323	-74.919655	20.648556	-0.016627	0.286939	-1.042988	13.881023	-0.349548	1.097826	4.460892	4.809504	65.973732	-0.616385	-0.378961	-0.164121
-3.732034	-0.570172	14.943036	11.629655	148.497719	16.303085	0.368605	-0.119876	-0.885504	2.732535	-1.028421	10.753331	90.824913	-68.095445	28.231456	-0.042805	0.240828	-1.039425	13.306133	-0.28666	1.925766	10.507297	3.818649	45.53145	-0.588431	-0.361534	-0.180345
-3.798788	-0.387391	17.386215	11.437114	171.444769	16.094145	0.396089	-0.110383	-0.875542	4.437916	0.770211	9.941522	96.322506	-50.211061	10.378529	-0.042434	0.25722	-1.054779	13.02924	0.415377	3.001554	10.984466	0.981278	24.265566	-0.574382	-0.362982	-0.14922
-3.557231	-0.786993	18.014364	20.611462	197.252533	16.426107	0.423959	-0.11466	-0.862165	4.189198	0.938922	9.087234	62.944623	-25.816753	9.299375	-0.055045	0.213327	-1.080192	12.548813	2.564529	2.822178	8.351189	-1.650455	14.597728	-0.588636	-0.396398	-0.132088
-3.305038	-0.494885	19.21394	29.937159	227.289129	17.378422	0.465549	-0.088242	-0.870044	2.243716	0.49237	9.555509	40.15152	-6.110647	13.700513	-0.042069	0.213402	-1.080467	13.015501	3.956779	2.717101	7.719074	-3.955269	9.506526	-0.588223	-0.345342	-0.181182
-2.779146	-1.297268	19.732261	41.962729	257.10416	19.699312	0.465606	-0.157439	-0.800077	1.682245	0.663008	10.223237	39.95438	-4.095209	19.300464	-0.068021	0.213252	-1.079916	12.937352	3.662084	1.63644	9.885519	-4.562793	-4.954925	-0.602686	-0.394949	-0.163214
-1.637025	-1.815795	19.581799	66.045341	289.047007	23.093361	0.479341	-0.144043	-0.803842	2.167071	1.618424	8.762294	30.142274	-3.76256	15.010624	-0.081293	0.212105	-1.06529	12.517501	3.719621	1.269543	10.570059	-2.815819	-28.740453	-0.58864	-0.377727	-0.179508
-0.388355	-2.106327	19.036559	88.694206	317.570576	26.589208	0.5492	-0.152972	-0.777436	1.785526	1.16934	9.716325	16.521701	0.750874	11.067616	-0.055786	0.180543	-1.049485	11.606524	3.425333	-0.185965	15.949671	1.819964	-55.179505	-0.588569	-0.378553	-0.16398
-1.06492	-2.116004	16.63648	115.18424	341.457962	26.073691	0.562992	-0.208773	-0.711234	1.508232	0.719614	10.163018	13.375705	0.908771	8.939474	-0.067801	0.199004	-1.093262	9.821463	3.542322	-0.997274	23.628456	9.694959	-77.543912	-0.56082	-0.39599	-0.131947
-6.562449	-1.492755	13.576993	126.451396	357.627286	14.989287	0.616474	-0.203899	-0.635007	1.896814	1.281643	9.548919	10.715811	0.486483	7.391705	-0.030205	0.164301	-1.034683	8.749984	4.181858	-1.43371	31.155269	17.51062	-88.26779	-0.56082	-0.39599	-0.131947
-11.70975	1.557066	13.88754	84.04297	324.652433	1.142909	0.645143	-0.270318	-0.579814	1.376069	0.775497	9.367693	4.748222	-0.389544	3.154699	-0.041774	0.214474	-1.094817	7.696612	3.663335	-1.036395	33.767526	23.446941	-81.616831	-0.589195	-0.42713	-0.161469
-15.180871	2.770691	14.961746	76.972329	265.912741	-11.692065	0.643629	-0.249832	-0.558494	2.586091	2.068977	9.56409	-0.786719	-1.25868	-1.297651	-0.04244	0.19701	-1.065114	6.873282	3.840195	-0.871339	31.070339	27.545983	-67.728818	-0.602965	-0.410316	-0.177904
-1.554822	-2.077572	12.08068	103.406695	240.49193	-17.426473	0.685247	-0.258012	-0.531389	1.617211	0.775492	9.882285	-2.93942	-3.285083	-5.080535	-0.055937	0.149902	-1.047478	6.883301	3.319489	-0.394309	24.880532	28.915325	-51.400148	-0.575287	-0.426926	-0.161399
6.787023	-3.708433	8.371596	78.396723	180.930991	-26.512785	0.699768	-0.289457	-0.510831	1.903374	0.380545	9.774719	-3.527005	-3.410161	-5.852946	-0.068097	0.197932	-1.078912	7.251548	2.915113	0.329446	14.566699	27.767461	-35.653488	-0.603454	-0.441874	-0.191758
12.947393	-4.374764	1.441642	80.916978	128.148721	-32.777065	0.741015	-0.301166	-0.469651	1.801518	-0.238401	10.338175	-2.665662	-3.704835	-6.009321	-0.054455	0.215471	-1.108891	8.080556	3.611124	0.587446	6.165003	25.536222	-23.940188	-0.603733	-0.457241	-0.206449
6.612609	-4.940236	2.338988	20.171904	55.748955	-45.804137	0.71276	-0.283118	-0.486444	1.347732	0.664081	10.72574	-1.401756	-3.846319	-5.362329	-0.055121	0.198007	-1.079188	8.389247	3.439188	1.31109	-3.17542	21.710274	-18.082142	-0.561171	-0.41053	-0.162166
3.447927	-3.8948	4.441393	-22.810073	21.88129	-41.598964	0.712374	-0.269347	-0.48986	1.858999	0.437505	10.396593	-1.792625	-3.022237	-5.539416	-0.055566	0.166294	-1.062831	9.46982	3.150333	2.288172	-13.243413	17.482884	-15.061307	-0.547472	-0.426518	-0.161259
3.624004	-2.789984	7.631978	-43.608747	-16.952433	-29.931239	0.726137	-0.290549	-0.458642	1.630161	0.325322	10.448302	0.496783	-2.747304	-5.627323	-0.093458	0.199926	-1.10706	9.296633	3.384031	2.525487	-15.936607	11.994513	-14.750334	-0.603521	-0.459719	-0.159865
3.050755	-1.813063	7.624945	-52.989104	-22.878315	-12.701632	0.754378	-0.291298	-0.45934	1.860554	0.888244	10.510251	1.703637	-2.578489	-5.655501	-0.042145	0.198082	-1.079464	9.882528	3.323616	2.296617	-13.892824	5.550807	-15.06314	-0.589337	-0.425478	-0.192525
3.583156	-0.83307	8.548719	-49.319004	-38.524573	2.275982	0.726123	-0.273249	-0.476133	2.088375	0.268035	10.344647	2.820536	-2.138887	-5.064504	-0.028433	0.170732	-1.120781	9.400765	3.206319	1.748157	-11.629227	0.81158	-11.503805	-0.562143	-0.492318	-0.142453
4.558418	-0.431201	8.683043	-35.588149	-59.912456	12.49959	0.710845	-0.231562	-0.486032	1.509525	0.043648	10.162449	3.195316	-1.798073	-4.875847	-0.068467	0.18154	-1.063559	9.282442	2.857885	1.684565	-9.1316	-4.399338	-9.562684	-0.590451	-0.505614	-0.203867
4.726841	-0.432049	8.515824	-17.702977	-84.944269	17.530521	0.711231	-0.245333	-0.482616	1.510326	0.888701	10.276439	2.642854	-1.499885	-4.657532	-0.081588	0.211034	-1.050941	8.807032	3.323079	1.557926	-5.909435	-5.28684	-5.444377	-0.576335	-0.489217	-0.204634
4.99608	0.023657	7.670526	-6.364673	-110.398818	18.98561	0.698253	-0.268972	-0.489511	1.730055	1.338534	9.828538	1.310203	-1.910959	-5.340903	-0.04266	0.211259	-1.051768	8.911028	3.203443	0.780843	-0.577077	-4.512584	4.343256	-0.575638	-0.441466	-0.191618
4.238617	-0.265907	6.972607	-1.365743	-134.398186	19.470685	0.67227	-0.281652	-0.538285	1.908449	0.887757	10.058343	0.16416	-2.16998	-5.467712	-0.094048	0.197782	-1.078361	9.205684	2.912141	0.725202	5.030568	-2.587484	6.453252	-0.603804	-0.456414	-0.221977
3.891667	-0.151499	6.795849	-4.708198	-154.379105	19.983735	0.669969	-0.216325	-0.541288	1.676416	0.55011	9.939944	-2.183771	-2.314178	-6.734971	-0.054675	0.22972	-1.095545	9.084775	3.202296	0.604423	11.299801	-0.689894	5.535124	-0.548098	-0.475095	-0.158747
3.194759	-0.382939	6.269845	-12.015255	-171.77561	21.378116	0.657349	-0.219136	-0.579751	2.021377	0.774785	9.947387	-3.94469	-2.508034	-8.649628	-0.068247	0.167291	-1.076905	8.787048	2.446994	0.35608	14.701258	0.949535	4.934262	-0.602965	-0.410316	-0.177904
3.193562	-0.268297	6.213474	-21.457757	-188.305369	24.019269	0.629108	-0.218387	-0.579052	1.790769	0.324525	9.885533	-5.836292	-3.198533	-9.891116	-0.041554	0.200226	-1.108163	8.433762	2.099348	0.347994	16.211744	2.415069	2.751766	-0.576055	-0.473851	-0.189943
2.630998	-0.20827	6.714258	-31.708398	-206.250245	26.241126	0.617245	-0.231441	-0.628175	1.33465	0.550899	10.102609	-6.456647	-3.419622	-10.109606	-0.081217	0.227426	-1.066294	8.727472	2.214578	0.294083	15.496426	3.386657	0.243534	-0.589479	-0.423825	-0.22358
1.838385	-0.263201	7.153253	-41.852531	-222.454181	29.502795	0.588247	-0.22045	-0.616817	1.858113	0.268466	10.339811	-5.310377	-3.102288	-9.519806	-0.067946	0.228573	-1.08092	9.02983	1.925006	0.657791	14.096555	3.187712	-1.70646	-0.575358	-0.4261	-0.176927
1.449562	0.141833	7.772532	-48.669524	-236.154489	33.010119	0.546985	-0.191442	-0.675489	1.743113	0.832034	10.394507	-3.21281	-3.264458	-8.77987	-0.055196	0.182687	-1.078184	8.918691	2.275463	1.076421	11.352408	1.249203	-4.498986	-0.589825	-0.457036	-0.206378
1.34363	0.603378	8.22706	-53.453469	-247.399506	35.110305	0.562621	-0.212302	-0.697158	1.622585	0.494029	10.108607	-1.238993	-3.429001	-7.916746	-0.055717	0.135653	-1.060824	8.969329	2.563977	0.65941	7.874954	0.192398	-12.946676	-0.562006	-0.475299	-0.158817
0.896936	0.318915	8.785476	-50.803192	-255.520795	36.074662	0.519516	-0.218235	-0.667959	1.904907	0.211601	9.831216	1.844619	-3.649016	-5.789343	-0.067356	0.230717	-1.109619	8.255883	1.983354	0.284291	6.41643	0.391213	-14.928709	-0.617153	-0.425886	-0.192665
0.395956	0.55219	9.51551	-48.775858	-259.381828	35.515576	0.448099	-0.136922	-0.725519	1.853385	0.211946	10.113205	5.444922	-4.565063	-4.069199	-0.082033	0.179321	-1.034584	8.376676	2.21613	0.467201	5.199357	0.573164	-12.235929	-0.617432	-0.441252	-0.207356
0.395625	1.011723	9.517441	-52.812623	-260.813429	32.591094	0.422887	-0.177143	-0.767462	1.624333	0.212424	10.165009	8.430039	-5.302946	-2.656051	-0.041994	0.228723	-1.081471	8.665404	1.632964	0.050883	4.143904	1.14514	-8.750961	-0.603316	-0.424856	-0.208123
0.064637	0.612534	10.134455	-60.076233	-262.14412	27.59242	0.407981	-0.131927	-0.791436	1.911297	0.662529	10.171433	9.472492	-5.874889	-2.260136	-0.042075	0.153193	-1.090803	8.303739	1.573967	-0.375315	0.842867	1.664648	-9.841668	-0.589892	-0.474881	-0.174486
-0.414198	1.022959	12.002274	-65.047562	-263.47535	20.869812	0.338864	-0.115941	-0.845994	2.025435	0.549605	10.117116	10.138847	-6.851807	-1.621926	-0.068982	0.194716	-1.035863	8.669651	1.227173	0.228873	0.904253	2.444976	-5.414267	-0.575847	-0.457659	-0.19078
-0.641481	0.161743	12.051054	-66.797046	-263.57712	12.869673	0.324	-0.122623	-0.817492	1.277647	0.889037	10.158325	9.889638	-7.008878	-1.531205	-0.055636	0.211184	-1.051492	8.485885	1.749026	-0.071738	0.988491	4.047871	-3.619077	-0.603733	-0.457241	-0.206449
-1.199757	0.452502	12.780216	-68.57211	-262.00176	3.485762	0.224756	-0.088931	-0.835956	1.800009	0.550226	10.338839	9.054396	-7.139912	-1.872287	-0.042289	0.227651	-1.067121	8.839421	1.515665	-0.126031	1.358246	5.729682	-0.480517	-0.589896	-0.45621	-0.221906
-1.821223	-0.292094	13.162802	-74.42297	-256.780768	-3.466263	0.240406	-0.12709	-0.840133	1.565905	0.663176	10.16418	8.620644	-7.266455	-2.120518	-0.041925	0.183833	-1.09281	8.61189	1.634335	0.349317	0.682152	6.378385	4.592356	-0.589892	-0.474881	-0.174486
