1812_acc_x	1812_acc_y	1812_acc_z	1812_gyro_x	1812_gyro_y	1812_gyro_z	1812_mag_x	1812_mag_y	1812_mag_z	1813_acc_x	1813_acc_y	1813_acc_z	1813_gyro_x	1813_gyro_y	1813_gyro_z	1813_mag_x	1813_mag_y	1813_mag_z	1814_acc_x	1814_acc_y	1814_acc_z	1814_gyro_x	1814_gyro_y	1814_gyro_z	1814_mag_x	1814_mag_y	1814_mag_z
-0.623101	0.405823	9.674081	-1.24797	1.760981	-0.254533	-1.252843	1.110197	-2.367705	2.934795	2.419484	8.789925	0.359817	-1.688859	0.280349	0.180117	0.006004	-0.474309	8.613028	4.612486	-1.34097	-5.039419	2.697941	-4.320615	-0.632525	0.276733	0.164399
-0.674607	0.232449	9.961592	-0.216308	1.914872	0.002298	0.533985	-0.369349	-1.40828	2.765577	2.305411	8.786868	0.095111	-1.430256	0.306558	-0.354231	-0.042027	0.732477	8.43477	4.379401	-1.745045	-5.316316	2.704953	-5.025734	-0.542979	0.131082	0.943174
-1.016539	0.116977	10.070084	-0.929866	2.41954	0.528936	0.515474	-0.407517	-1.407069	2.938395	2.304595	8.967128	-0.121735	-1.421525	0.315	-0.354231	-0.018012	0.750488	8.668174	4.38026	-1.455079	-5.746207	2.510764	-4.6871	-0.539853	0.131586	0.913618
-0.956753	0.001116	10.186577	-0.456421	2.77763	0.440712	0.554168	-0.352946	-1.353907	2.643333	2.478441	8.312388	-0.332989	-1.555107	0.654054	-0.354231	-0.024016	0.756492	8.155571	4.439181	-1.464953	-6.021522	2.058764	-3.362924	-0.587934	0.126507	0.920831
-0.787264	0.406968	10.075355	0.397835	2.353471	0.525221	0.497728	-0.406661	-1.444387	2.712658	2.190692	8.962985	-0.48198	-1.423489	0.637008	-0.342223	-0.036023	0.726473	8.777112	4.03134	-1.739865	-5.220719	1.669995	-1.269807	-0.558121	0.123388	0.948661
-0.219821	1.160268	9.799528	-1.3021	2.726117	1.375479	0.503628	-0.373269	-1.392116	2.65648	2.076278	8.962101	-0.792064	-1.175935	0.324215	-0.348227	-0.024016	0.744485	8.378725	4.495571	-1.688553	-5.158854	1.677842	0.320765	-0.502509	0.088208	0.947477
-0.62483	-0.174883	9.557054	2.619659	1.700193	1.20956	0.440215	-0.358217	-1.433533	2.76351	1.904668	8.610578	-0.663479	-1.120774	0.353983	-0.342223	-0.03002	0.738481	8.666149	4.263942	-1.569789	-5.25114	1.625826	-0.381979	-0.556795	0.114385	0.953284
-1.008649	0.234041	10.475067	2.910766	1.138171	1.210116	0.506065	-0.356009	-1.375061	2.819689	2.019083	8.611461	-0.049666	-1.137255	0.176094	-0.360234	-0.036023	0.738481	8.499028	4.670609	-1.342959	-5.774708	1.748039	-2.865026	-0.529636	0.12927	0.971867
-1.083071	0.115915	9.606423	2.31631	1.14039	2.2328	0.505038	-0.354883	-1.393221	2.819923	2.305444	8.669954	-0.139153	-1.138593	0.271973	-0.366238	-0.048031	0.738481	8.549225	4.089692	-1.744107	-6.298466	1.960845	-5.258442	-0.555469	0.105383	0.957908
-0.799726	0.289346	9.439113	-0.449239	1.505068	1.182817	0.516501	-0.408644	-1.388909	2.99206	2.533797	8.849808	0.444192	-0.796753	0.396309	-0.360234	-0.042027	0.744485	8.495877	4.554028	-1.514762	-6.390928	1.944916	-6.329068	-0.507388	0.110462	0.950696
-0.796408	0.40585	9.612837	1.211086	1.152056	1.251089	0.532958	-0.368223	-1.42644	2.882281	2.533834	9.024636	1.081403	-0.903862	0.149949	-0.354231	-0.036023	0.720469	8.104816	4.730354	-1.122212	-6.144125	1.795893	-4.336221	-0.525184	0.120772	0.946935
-0.964057	0.464619	9.840807	-1.053904	1.092124	1.027433	0.51791	-0.390258	-1.390014	2.987479	2.247843	8.555315	1.179242	-0.646681	-0.084344	-0.348227	-0.024016	0.738481	8.612914	4.670382	-1.340707	-5.435819	1.688479	-0.629105	-0.542979	0.131082	0.943174
-0.497592	-0.057372	10.195582	-2.073396	1.087731	1.082046	0.484855	-0.371286	-1.447595	3.048515	2.189974	8.792504	0.669239	-0.180715	-0.252246	-0.372242	-0.042027	0.738481	8.449297	4.440715	-1.002584	-5.52731	1.648376	2.001632	-0.536347	0.08607	0.966293
-0.909652	-0.000197	9.667388	-1.158979	0.851115	0.836675	0.51932	-0.371872	-1.391118	2.700428	2.650047	8.372171	1.5375	-0.373635	-0.821552	-0.354231	-0.03002	0.738481	8.38604	4.786893	-1.287594	-4.696605	1.438612	2.377979	-0.538573	0.090319	0.978759
-0.732971	0.058237	9.902215	-1.781137	1.12098	0.312481	0.533985	-0.369349	-1.40828	2.480806	2.306466	8.663434	1.073517	-0.255386	-0.920718	-0.366238	-0.036023	0.744485	8.846888	4.381759	-1.052055	-4.635128	1.252001	0.54755	-0.557695	0.109632	0.970374
-0.675639	0.116224	9.903498	-1.877756	1.219908	0.013248	0.552758	-0.371332	-1.352802	2.772608	2.132925	9.141173	1.303799	-0.507661	-1.037983	-0.348227	-0.024016	0.738481	8.556995	4.149428	-1.344199	-4.974568	1.394158	-3.127785	-0.5381	0.108828	0.939955
-0.791614	0.174239	9.843537	-1.847509	1.501782	-0.403723	0.503628	-0.373269	-1.392116	2.938119	2.762833	9.025316	2.128569	-0.658256	-1.20124	-0.366238	-0.036023	0.744485	9.126746	5.133055	-1.214283	-5.004434	0.864268	-4.614343	-0.537246	0.081317	0.983383
-0.907144	-0.232089	9.782458	-0.607087	1.685837	-0.517327	0.487291	-0.354027	-1.430539	2.819113	1.847307	8.552766	1.843328	-0.738102	-1.226897	-0.366238	-0.036023	0.744485	8.499255	4.554817	-1.343485	-5.710502	0.53183	-3.448183	-0.556841	0.082121	1.013802
-0.617219	0.232394	9.962735	-0.81975	2.034428	-0.834105	0.551086	-0.349567	-1.408387	2.828446	2.361924	9.141854	2.539514	-0.943858	-1.419923	-0.372242	-0.03002	0.726473	8.790286	4.208184	-1.05397	-5.06407	0.497646	-0.599491	-0.524757	0.107016	0.968648
-0.912495	0.57995	9.553155	-0.385774	1.833901	-0.516506	0.546213	-0.384086	-1.442498	2.827764	2.591094	9.141448	2.629692	-0.842981	-1.633062	-0.354231	-0.03002	0.744485	9.070941	4.554205	-1.218038	-5.432689	0.530388	1.01877	-0.554569	0.110136	0.940818
-0.730852	0.232645	10.018264	-0.881649	1.816562	-0.535991	0.532958	-0.368223	-1.42644	3.21818	1.788517	8.737474	2.237009	-0.606924	-1.665456	-0.348227	-0.036023	0.756492	8.61709	4.265896	-1.17127	-5.493772	0.293486	0.412238	-0.539	0.104075	0.957045
-0.790526	0.232421	9.901492	-1.548297	1.701229	0.208541	0.532958	-0.368223	-1.42644	3.15463	1.961174	8.382082	2.842022	-0.778016	-1.852945	-0.360234	-0.036023	0.738481	8.846205	4.729138	-1.050478	-5.340605	0.270779	-2.063802	-0.503836	0.09721	0.942853
-1.139372	0.174153	9.663235	-1.27508	1.508582	0.255253	0.566778	-0.348171	-1.407389	2.82037	1.789913	8.611867	2.881811	-0.624653	-1.844554	-0.360234	-0.03002	0.738481	9.246844	4.265433	-0.987605	-5.065027	0.467316	-4.758391	-0.520777	0.080009	0.98252
-0.554115	0.233037	10.252952	-2.244544	1.711402	0.836696	0.522522	-0.315589	-1.412592	2.592141	2.87905	8.664592	2.945376	-0.730073	-1.668199	-0.354231	-0.024016	0.726473	8.560692	5.134981	-1.054269	-4.758147	0.661805	-5.220035	-0.584854	0.094747	0.951792
-0.852487	0.231918	9.669089	-1.229219	1.310538	1.162809	0.515856	-0.388005	-1.426334	2.773759	2.476476	9.258564	2.225669	-0.95892	-1.471289	-0.360234	-0.03002	0.750488	8.622607	4.325107	-0.885547	-5.035021	0.909333	-3.545062	-0.505162	0.106212	0.93823
-0.667693	0.175245	10.308341	-1.329486	1.537132	0.532752	0.521494	-0.314462	-1.430752	2.540756	2.248699	8.841623	2.65653	-1.441463	-0.93072	-0.366238	-0.036023	0.732477	9.018844	4.381681	-0.991584	-4.971729	0.385695	-1.238684	-0.522957	0.116523	0.934469
-0.897079	0.00134	10.30335	-1.575917	1.605972	0.480319	0.485237	-0.351774	-1.466859	2.711359	2.992684	9.020564	2.026082	-1.869744	-0.564422	-0.366238	-0.036023	0.738481	8.896846	4.495861	-1.392956	-4.940073	0.069596	-0.558312	-0.554569	0.110136	0.940818
-0.914169	-0.058799	9.435989	-0.255263	1.544148	0.171353	0.502218	-0.391654	-1.391012	2.484002	1.962509	8.782043	1.662844	-1.96786	-0.186663	-0.366238	-0.018012	0.744485	8.667492	4.727639	-1.453502	-5.062605	-0.143304	-0.768129	-0.520731	0.112273	0.922003
-0.323253	0.058826	10.31492	-0.720891	1.808682	-0.265103	0.535394	-0.350964	-1.409385	2.828041	2.132856	9.08326	0.807404	-2.051099	0.302653	-0.342223	-0.018012	0.744485	8.273962	4.440005	-1.234332	-4.877824	-0.264994	-0.672558	-0.559021	0.118634	0.96575
-0.958872	-0.173292	10.070529	-0.224054	1.919543	-0.333478	0.523166	-0.336227	-1.375167	2.715002	2.133197	9.081086	0.736714	-2.136291	0.207047	-0.354231	-0.03002	0.732477	8.789262	4.729251	-1.051604	-4.632002	-0.228141	-0.886187	-0.535447	0.090823	0.949203
-0.735257	0.057958	9.786586	0.723113	1.586895	-0.369655	0.552114	-0.350693	-1.390227	2.655052	2.190964	8.902898	0.557894	-2.005118	0.221961	-0.354231	-0.036023	0.744485	8.44659	4.671775	-1.115717	-4.69315	-0.354221	-0.700082	-0.535447	0.090823	0.949203
-0.841056	0.233315	10.247237	0.236136	1.815123	-0.348706	0.567806	-0.349297	-1.389229	2.817239	2.477524	8.551649	0.789096	-1.957083	-0.277826	-0.366238	-0.024016	0.738481	8.67211	4.670794	-1.225396	-4.231545	-0.505872	-0.418818	-0.504735	0.092457	0.959943
-0.674885	0.522663	9.962291	0.578166	1.616607	0.001721	0.517266	-0.36962	-1.427438	2.932856	2.706048	8.730417	1.383581	-1.855402	-0.323818	-0.354231	-0.012008	0.744485	8.90225	4.612968	-1.10697	-4.10859	-0.530024	-0.754032	-0.553196	0.133398	0.884925
-1.019467	-0.405826	9.895382	1.159342	1.949617	-0.731837	0.550322	-0.388591	-1.369858	2.597169	2.649474	8.900999	1.194341	-1.775914	-0.497266	-0.372242	-0.024016	0.738481	8.324034	4.49621	-1.575495	-3.80226	-0.17231	-1.89233	-0.507388	0.110462	0.950696
-0.856083	0.405627	9.496064	1.769927	2.000405	-1.141534	0.518675	-0.351234	-1.428543	2.879532	2.362261	8.84794	0.9541	-1.676555	-0.420352	-0.348227	-0.042027	0.744485	8.615952	4.84486	-1.168642	-4.449172	0.262894	-2.854043	-0.539	0.104075	0.957045
-1.07769	0.46487	9.896336	1.058301	1.894375	-1.006737	0.516883	-0.389132	-1.408174	2.597105	2.305821	8.842608	0.757631	-1.463222	-0.183198	-0.360234	-0.024016	0.726473	8.443211	4.670986	-1.286993	-4.665108	0.593777	-2.618195	-0.490492	0.095398	0.971546
-1.135609	-0.173684	9.835841	0.375129	1.757635	-0.934995	0.548267	-0.386339	-1.406178	3.158188	2.590883	8.675966	0.597913	-1.650984	-0.034916	-0.348227	-0.024016	0.744485	9.079052	4.440252	-0.818919	-5.064971	0.786644	-1.493165	-0.573691	0.129449	0.932434
-0.730685	0.058517	10.017845	-0.056294	1.517484	-0.537334	0.519702	-0.35236	-1.410383	2.761976	2.4203	8.609664	0.012749	-1.240982	0.321692	-0.360234	-0.024016	0.750488	8.614712	4.902493	-1.225471	-5.064378	0.486932	-1.944989	-0.569711	0.102441	0.946305
-1.085357	0.115636	9.490794	-0.682496	1.256549	-0.502607	0.467753	-0.391069	-1.447488	2.818261	2.133769	8.552258	0.004983	-1.072828	0.672701	-0.360234	-0.03002	0.7685	8.959523	5.018392	-1.046911	-5.310665	0.474547	-3.383534	-0.502509	0.088208	0.947477
-0.909819	0.173931	9.667807	-0.714152	0.975525	-0.146686	0.536804	-0.332578	-1.41049	3.041143	2.477045	8.437995	-0.088564	-1.101701	0.705154	-0.348227	-0.018012	0.750488	8.740771	4.441723	-0.6544	-5.279322	0.201786	-3.560552	-0.527836	0.138777	0.937687
-0.79652	0.521936	9.613116	-0.672254	1.219007	-0.015445	0.549032	-0.347314	-1.444707	2.767921	2.247915	8.904969	-0.740968	-0.781971	1.058413	-0.348227	-0.024016	0.738481	8.508493	4.441127	-0.887274	-5.647769	0.091242	-2.611824	-0.554569	0.110136	0.940818
-0.739996	0.231527	9.555746	-0.973286	1.15968	0.417104	0.535394	-0.350964	-1.409385	2.940739	2.2471	9.08523	-0.580256	-0.72975	1.117728	-0.366238	-0.024016	0.726473	8.626202	4.789329	-0.655075	-5.647842	0.202518	-1.849774	-0.517652	0.080513	0.952964
-0.451912	0.231388	9.619276	-1.310451	1.072963	0.666032	0.550059	-0.348441	-1.426547	2.873694	2.1337	8.494345	-0.320789	-0.622814	1.238769	-0.366238	-0.024016	0.726473	8.732319	4.729365	-1.052731	-6.508608	0.241885	-1.090686	-0.506489	0.115215	0.933606
-0.733083	0.174323	9.902495	-2.109209	1.091515	0.869137	0.503628	-0.373269	-1.392116	2.941485	2.361583	9.144027	-1.023138	-0.698741	0.888586	-0.348227	-0.03002	0.744485	8.506912	4.67245	-0.943314	-5.616406	0.005398	-0.92748	-0.518978	0.089515	0.94834
-0.964001	0.406576	9.840667	-2.187841	1.148229	1.392845	0.565369	-0.366556	-1.406284	3.164474	2.303913	8.971475	-0.791125	-0.528713	1.014673	-0.366238	-0.024016	0.750488	8.680893	4.78869	-0.768133	-6.385749	0.222718	-1.762454	-0.489593	0.100151	0.954457
-0.733194	0.290408	9.902774	-3.265256	0.829478	2.047114	0.532193	-0.407247	-1.387911	2.985071	1.961685	8.378822	-0.431571	-0.626288	0.809922	-0.360234	-0.024016	0.756492	8.674022	4.845009	-1.110423	-6.999745	-0.2342	-2.458619	-0.500283	0.083958	0.935011
-1.242718	0.175662	10.239097	-3.066381	0.973258	2.415006	0.501191	-0.390528	-1.409172	2.545273	2.191	9.077725	0.100677	-0.678414	0.200059	-0.354231	-0.048031	0.744485	8.67492	4.961064	-1.052805	-6.876235	-0.609852	-3.886754	-0.551016	0.096884	0.932976
-0.569951	0.056952	9.443126	-3.822524	1.5799	2.305099	0.516883	-0.389132	-1.408174	2.712999	2.076107	8.963188	-0.315317	-0.284806	0.147715	-0.348227	-0.03002	0.726473	8.736824	4.730417	-0.824362	-7.612526	-1.45316	-5.492189	-0.539426	0.117831	0.935332
-0.621791	0.231835	9.731476	-1.376467	1.529839	1.175316	0.515212	-0.367367	-1.463759	3.159381	2.189836	8.676677	-0.722626	-0.261817	0.040379	-0.354231	-0.048031	0.744485	9.018389	4.613266	-0.990533	-7.180081	-2.494371	-7.23969	-0.52343	0.098014	0.973272
-1.077467	0.232699	9.895777	-2.488802	1.371163	1.439716	0.536422	-0.35209	-1.391225	2.70437	2.420572	8.549577	-0.621264	0.057207	-0.190075	-0.360234	-0.018012	0.738481	9.069815	4.553942	-1.27513	-6.932126	-3.321649	-7.035657	-0.534121	0.081821	0.953827
-1.139483	0.290239	9.663514	-5.096555	1.680616	1.911688	0.552114	-0.350693	-1.390227	2.984858	2.763576	8.495401	-0.935772	0.792293	0.270257	-0.372242	-0.03002	0.732477	8.562058	4.440224	-1.057424	-7.45564	-2.906671	-6.528137	-0.567912	0.111948	0.912125
-0.56772	0.115275	9.558895	-1.835573	0.912171	2.230442	0.535012	-0.370476	-1.39012	2.816898	2.592109	8.551446	-2.258762	2.789291	1.775291	-0.354231	-0.024016	0.744485	8.164581	4.441284	-1.008215	-8.132406	-2.732908	-6.413462	-0.524757	0.107016	0.968648
-0.736901	0.580202	9.730029	-4.000662	1.109947	3.267939	0.486909	-0.373539	-1.411274	2.931428	2.820735	8.671214	-3.023248	4.21446	2.481651	-0.360234	-0.024016	0.738481	8.163568	4.383124	-1.06557	-8.225845	-2.240904	-6.608889	-0.517652	0.080513	0.952964
-0.789383	0.232561	9.959306	-3.69695	0.948087	3.254071	0.502983	-0.35263	-1.429541	2.876102	2.419858	8.670838	-5.162209	4.470378	2.297688	-0.360234	-0.03002	0.744485	7.887293	4.675278	-0.61315	-10.069982	-2.853391	-10.244332	-0.488739	0.07264	0.997884
-0.795685	-0.348705	9.61102	-3.47667	0.72037	3.728437	0.491782	-0.33902	-1.377163	2.420856	2.364234	8.485245	-5.687871	3.897737	2.372778	-0.360234	-0.012008	0.732477	8.247758	4.852753	0.364963	-13.754145	-5.205266	-11.769499	-0.515426	0.076264	0.940498
-0.674941	0.580706	9.962431	-4.94593	0.549638	3.297956	0.535012	-0.370476	-1.39012	2.656544	2.419931	9.020492	-5.837519	3.538435	2.23156	-0.366238	-0.024016	0.756492	8.346662	5.022798	-0.374194	-8.333887	-8.827895	-8.842416	-0.466446	0.086096	0.916195
-0.509356	0.289487	9.618272	-4.01187	0.708937	3.343414	0.499782	-0.408914	-1.408067	2.603625	2.305212	9.196609	-5.811877	2.986116	2.07159	-0.372242	-0.036023	0.744485	8.296806	5.430026	0.026165	-10.733698	-7.581236	-3.990509	-0.517652	0.080513	0.952964
-0.791391	-0.057932	9.842978	-3.933113	0.526679	2.9979	0.522522	-0.315589	-1.412592	2.588646	2.592993	8.429099	-4.798417	2.398961	1.780767	-0.354231	-0.024016	0.738481	8.548685	5.203506	1.228554	-7.510296	-4.904504	2.112347	-0.52343	0.098014	0.973272
-0.792868	0.290184	9.786002	-3.098357	0.66106	2.800218	0.523549	-0.316715	-1.394432	2.710485	2.190895	8.844984	-3.723655	1.821166	0.68482	-0.372242	-0.03002	0.750488	8.692042	4.849215	-0.196949	-4.903477	-1.687585	6.394753	-0.535447	0.090823	0.949203
-0.668614	-0.057065	10.249967	-2.47921	0.581208	2.935018	0.519702	-0.35236	-1.410383	2.82363	1.789609	8.788868	-2.339448	1.354584	0.171923	-0.354231	-0.018012	0.750488	9.35138	4.436792	-1.441301	-2.985499	6.500474	7.530299	-0.55059	0.083129	0.95469
-0.511642	0.289207	9.502643	-2.386238	0.609947	2.903429	0.51932	-0.371872	-1.391118	2.824951	2.075868	8.906361	-0.428297	1.134492	-0.715171	-0.354231	-0.018012	0.750488	9.521311	4.320395	-1.495541	-5.065986	14.996117	5.211782	-0.517179	0.099022	0.91416
-0.331254	0.057848	9.910216	-2.600506	0.457637	3.207863	0.517266	-0.36962	-1.427438	2.365018	2.135234	8.484565	-0.414916	2.176486	-1.019675	-0.348227	-0.042027	0.750488	9.00228	4.783276	-1.789035	-1.45244	19.39045	-11.264444	-0.488266	0.091149	0.95908
-0.676949	0.290213	9.846102	-2.740905	0.515974	3.733111	0.552878	-0.311669	-1.428756	3.59543	3.220954	7.975541	-2.338962	3.108589	-0.642714	-0.360234	-0.036023	0.750488	8.828071	4.782828	-1.96369	-3.770045	23.201876	-22.315459	-0.506062	0.101459	0.955319
-0.688212	0.114687	9.267536	-3.195462	-0.073067	4.942114	0.550442	-0.328929	-1.445812	1.913097	2.422958	8.534364	-5.622444	3.419128	-1.523278	-0.372242	-0.03002	0.744485	8.555175	5.07577	-1.339993	-0.220257	17.910537	-15.811486	-0.512773	0.058259	0.949745
-1.030366	0.231386	9.376587	-4.56696	-0.782551	5.465094	0.519702	-0.35236	-1.410383	2.938225	2.361888	8.967027	-8.350741	3.073978	-1.631662	-0.366238	-0.018012	0.738481	8.438365	4.843624	-1.514574	-7.490285	12.421045	-0.858468	-0.515426	0.076264	0.940498
-0.742338	0.28929	9.440256	-7.40242	-1.13696	7.687707	0.503748	-0.313606	-1.46807	2.604136	2.133334	9.196913	-5.850516	2.751407	-1.650529	-0.360234	-0.048031	0.732477	8.556984	4.728655	-1.284478	0.606935	8.886521	10.797331	-0.480688	0.083154	0.904592
-0.852264	-0.000253	9.668531	-8.265677	-1.867919	8.808935	0.486909	-0.373539	-1.411274	2.707672	1.675669	8.609897	-5.790878	2.405387	-2.787458	-0.372242	-0.042027	0.744485	8.55687	4.786551	-1.284215	-4.202566	1.708853	13.506938	-0.534547	0.095577	0.932113
-0.90377	-0.173627	9.956042	-10.624688	-2.099155	10.077934	0.486909	-0.373539	-1.411274	2.487326	2.305857	9.017435	-5.788828	1.854318	-3.533692	-0.348227	-0.042027	0.738481	9.256412	4.557281	-0.472461	-5.548392	-2.216452	4.323818	-0.5372	0.113581	0.922866
-0.668836	0.175105	10.250526	-11.057676	-1.80511	9.672458	0.539885	-0.335957	-1.356009	2.707907	1.96203	8.66839	-5.454212	1.514444	-3.258606	-0.360234	-0.036023	0.744485	9.029094	4.32615	-0.478018	-0.444664	-3.986846	-12.552033	-0.534547	0.095577	0.932113
-0.489368	-0.288565	10.599726	-10.599205	-1.012433	7.035374	0.516239	-0.368493	-1.445599	2.088536	1.906409	8.774538	-4.572884	1.201665	-3.341612	-0.372242	-0.042027	0.744485	8.786907	4.207395	-1.225247	-2.573823	-1.96653	-24.539352	-0.518978	0.089515	0.94834
-0.503585	0.232143	9.907206	-9.318644	-0.032831	4.905968	0.501191	-0.390528	-1.409172	3.721082	1.902076	8.45205	-6.510765	1.740252	-4.318298	-0.354231	-0.024016	0.750488	8.671439	4.438945	-1.28354	0.221961	-1.424714	-27.748642	-0.50161	0.092961	0.930387
-0.955777	0.175384	10.244811	-8.708449	0.286914	2.795974	0.517648	-0.350108	-1.446703	3.046683	2.075592	8.674707	-7.853671	1.65239	-7.4275	-0.366238	-0.036023	0.744485	8.336878	4.267516	-0.948533	1.577466	-1.739054	-19.872982	-0.566159	0.08919	0.938463
-0.908899	0.406241	9.72618	-7.926925	-0.550356	1.673423	0.487291	-0.354027	-1.430539	2.215254	2.420279	9.601801	-7.096224	0.214926	-9.061659	-0.354231	-0.03002	0.738481	7.765625	5.194996	-0.95559	1.089655	-2.202674	-7.599612	-0.501183	0.079205	0.952101
-0.38145	-0.289514	10.255123	-6.309781	-0.64425	0.867139	0.485499	-0.391925	-1.41017	2.424862	2.478412	8.721043	-6.16749	-0.402356	-7.558788	-0.348227	-0.042027	0.744485	7.429824	5.0812	-0.677412	-2.074055	-2.748905	-0.263448	-0.498057	0.079709	0.922545
-0.897079	0.00134	10.30335	-3.974295	-1.962872	-1.901188	0.502983	-0.35263	-1.429541	2.544527	2.076517	9.018928	-5.73058	-0.278759	-6.145065	-0.354231	-0.042027	0.738481	8.41183	4.850835	0.025789	-3.267683	-4.632388	3.841583	-0.53502	0.077068	0.970917
-0.491766	-0.172759	10.484376	-2.01953	-1.956747	-1.641812	0.502601	-0.372142	-1.410276	3.230133	1.7874	9.386476	-4.931003	-0.872424	-5.563192	-0.360234	-0.036023	0.738481	8.281846	4.441845	-0.834686	-6.461746	-5.196678	12.370423	-0.531895	0.077572	0.941361
-0.561616	-0.290326	9.846991	-2.751899	-1.283902	-2.146831	0.522904	-0.296077	-1.431857	2.203237	2.077743	8.894408	-2.571676	-1.578004	-4.705242	-0.354231	-0.024016	0.744485	9.028752	4.499839	-0.477229	-9.970646	-2.903114	18.017415	-0.483814	0.082651	0.934148
-0.625164	0.173373	9.557892	-1.494047	-1.374851	-2.455497	0.519702	-0.35236	-1.410383	2.824845	2.476813	8.96465	-1.701297	-1.169867	-3.721736	-0.354231	-0.048031	0.756492	9.41632	4.380622	-1.040793	-11.546952	0.284026	14.601493	-0.50071	0.097714	0.913297
-0.661533	-0.288398	10.596297	-0.477507	-0.100451	-3.069056	0.552878	-0.311669	-1.428756	2.716493	2.362163	9.198681	1.791373	-1.209589	-3.418577	-0.354231	-0.048031	0.7685	9.194304	3.745268	-0.819821	-10.660475	1.528932	5.769282	-0.536347	0.08607	0.966293
-0.675138	-0.40616	9.90224	4.35991	1.110015	-4.203884	0.537186	-0.313066	-1.429754	2.493675	2.36254	9.371335	3.089094	-1.69275	-2.971358	-0.342223	-0.048031	0.738481	9.02121	4.32431	-0.877663	-11.772411	2.646089	-4.386196	-0.515852	0.090019	0.918784
-0.900508	0.00092	10.129906	9.546011	2.229964	-6.175791	0.50542	-0.335371	-1.412486	2.481381	2.478242	8.72213	2.38171	-0.96685	-1.446566	-0.348227	-0.042027	0.738481	8.733672	4.613835	-0.996164	-12.729567	3.602205	-11.815315	-0.501183	0.079205	0.952101
-0.668502	-0.173151	10.249688	12.166496	3.481318	-8.264651	0.583235	-0.30775	-1.44492	2.079736	2.308167	8.360827	0.191849	-0.713078	0.194521	-0.348227	-0.048031	0.744485	8.504762	5.193254	-0.998041	-12.759807	3.333676	-12.32922	-0.499856	0.070203	0.956725
-0.735035	-0.174213	9.786027	16.086376	3.317179	-8.395118	0.502601	-0.372142	-1.410276	2.764661	2.24822	8.727969	-0.491534	-0.3921	0.548989	-0.354231	-0.042027	0.732477	8.27857	4.962387	-0.946505	-9.527511	2.614545	-2.446517	-0.519405	0.103271	0.926626
-0.382871	0.000559	10.198007	16.574544	3.186615	-11.131751	0.505038	-0.354883	-1.393221	2.704029	2.535157	8.549374	-2.765698	-0.416264	0.475587	-0.354231	-0.03002	0.750488	8.617192	4.787226	-1.111813	-6.386738	2.181429	12.872571	-0.518079	0.094269	0.93125
-0.61733	0.348479	9.963015	16.686508	1.863643	-13.755598	0.523549	-0.316715	-1.394432	2.424393	1.905691	8.604058	-3.674709	-0.979458	-0.485516	-0.360234	-0.054035	0.750488	8.563753	4.151005	-1.001646	-3.922993	1.346532	21.651869	-0.487367	0.095902	0.94199
-0.791558	0.116196	9.843397	13.225064	0.055188	-19.03401	0.534367	-0.349837	-1.427545	2.481147	2.191881	8.663637	-4.282144	-2.179896	-0.818568	-0.354231	-0.048031	0.750488	8.456623	4.15281	-0.661346	0.661893	-0.790429	16.679938	-0.530995	0.082325	0.924271
-0.839691	0.001284	10.304493	15.408431	-1.54291	-21.321068	0.484472	-0.390798	-1.42833	2.717175	2.132994	9.199087	-2.745936	-3.073325	-1.611612	-0.366238	-0.048031	0.744485	8.975074	4.558638	-0.306816	2.10866	-2.771245	4.744859	-0.482061	0.059893	0.960486
-1.079364	-0.173879	9.779169	20.550002	-3.367237	-26.407202	0.521112	-0.333974	-1.411488	2.487603	1.847619	8.959247	-0.803946	-2.578826	-1.928629	-0.348227	-0.048031	0.750488	8.97405	5.079706	-0.30445	2.538385	-3.373346	-3.894396	-0.54661	0.056122	0.968561
-0.61864	0.522467	9.905619	22.864013	-4.412446	-26.535676	0.517266	-0.36962	-1.427438	2.889759	1.845817	9.320855	0.102029	-2.414226	-2.816336	-0.348227	-0.042027	0.756492	8.976758	4.848646	-0.191318	0.599546	-2.733593	-5.265418	-0.534547	0.095577	0.932113
-0.788296	0.290743	10.017261	17.711539	-4.468631	-25.89608	0.532958	-0.368223	-1.42644	2.722438	2.189778	9.493986	4.082716	-2.977121	-3.584338	-0.348227	-0.042027	0.756492	9.135427	4.72962	-0.816478	-0.20014	-1.947894	1.012617	-0.530995	0.082325	0.924271
-0.676837	0.174127	9.845823	17.30979	-3.817067	-25.462543	0.468136	-0.371557	-1.466753	2.94125	2.075222	9.085534	7.72913	-3.04384	-4.061123	-0.366238	-0.054035	0.744485	8.742011	4.38409	-0.597571	-0.968744	-0.884014	11.290691	-0.517225	0.066757	0.974678
-1.147904	-0.465434	9.19918	17.245972	-2.429038	-20.881668	0.484855	-0.371286	-1.447595	2.933878	2.362294	8.731026	8.99592	-3.022979	-4.291264	-0.354231	-0.042027	0.726473	8.902841	3.165033	-1.227726	-4.969339	1.334426	17.456714	-0.531895	0.077572	0.941361
-1.187034	-1.624136	10.062463	17.162152	-3.73073	-10.818658	0.490493	-0.297744	-1.452013	2.542077	2.534958	8.959116	8.965246	-3.256811	-3.96519	-0.354231	-0.018012	0.756492	8.38877	3.397379	-1.293903	-9.096238	3.810012	12.361488	-0.534547	0.095577	0.932113
-0.913527	0.463725	9.495061	14.692033	0.139132	-2.808608	0.553523	-0.332308	-1.391331	2.594591	2.420609	8.724405	7.522862	-3.005441	-2.289581	-0.366238	-0.054035	0.738481	8.615303	3.454558	-1.346227	-13.591353	5.066082	-1.730004	-0.528342	0.06432	0.933519
-0.743481	0.28915	9.382441	14.527569	0.642595	1.341468	0.51932	-0.371872	-1.391118	2.595677	2.420507	8.783405	5.02256	-3.163191	-0.849018	-0.366238	-0.042027	0.750488	8.499824	4.265335	-1.344799	-14.454839	5.061714	-12.500756	-0.566159	0.08919	0.938463
-0.278352	1.160184	9.74057	7.52756	2.975875	4.292932	0.497345	-0.426173	-1.425123	2.994745	2.361717	8.968113	1.544576	-3.390723	0.344454	-0.342223	-0.048031	0.738481	8.544936	4.552074	-1.91328	-14.883874	4.581708	-11.482578	-0.50161	0.092961	0.930387
-0.447618	0.522161	9.851233	8.267888	3.100238	2.721899	0.500809	-0.41004	-1.389907	2.539563	2.649746	8.840912	-0.658807	-3.810017	1.788318	-0.348227	-0.036023	0.756492	8.827503	5.07231	-1.962376	-13.122072	1.878537	0.793242	-0.518079	0.094269	0.93125
-0.668669	0.000977	10.250107	7.242601	2.77208	1.663208	0.552758	-0.371332	-1.352802	2.760378	2.592279	8.550359	-3.098357	-4.952104	2.978068	-0.336219	-0.042027	0.744485	9.465027	5.131584	-1.378802	-10.12929	-1.008093	16.137648	-0.514099	0.067261	0.945122
-0.779794	-0.230663	10.420707	9.170218	2.261415	1.474177	0.532958	-0.368223	-1.42644	2.943424	2.075019	9.203535	-1.905992	-6.609058	3.940958	-0.354231	-0.060039	0.750488	9.538648	4.671979	-0.580489	-7.077811	-3.772419	21.203127	-0.531895	0.077572	0.941361
-1.245758	-0.231056	10.064674	12.302252	0.227155	4.616618	0.515474	-0.407517	-1.407069	3.003885	1.845375	9.382028	1.23364	-9.37812	3.803749	-0.342223	-0.054035	0.732477	9.615648	4.213163	0.389101	-3.07623	-6.554739	13.796365	-0.549263	0.074126	0.959314
-0.328857	-0.057958	10.025566	13.066694	-0.778657	6.940813	0.516883	-0.389132	-1.408174	3.124701	1.787031	9.797304	9.119799	-12.393096	2.180314	-0.348227	-0.036023	0.750488	10.07141	4.675687	0.457306	-0.862391	-8.096859	-0.224672	-0.516325	0.071511	0.957588
-0.964001	0.406576	9.840667	11.874009	0.106281	7.616713	0.471479	-0.415086	-1.355583	2.598128	1.962066	8.843217	13.336006	-13.271802	0.734565	-0.342223	-0.048031	0.738481	9.382243	4.212304	0.099135	0.887708	-8.192996	-10.887421	-0.498957	0.074956	0.939635
-0.001531	0.98452	9.225533	10.123245	-0.180566	7.218704	0.515091	-0.427029	-1.387805	2.363996	2.478989	8.483956	9.816277	-12.286686	0.802069	-0.348227	-0.036023	0.756492	9.144664	4.61593	-0.360267	1.254218	-7.14763	-10.817934	-0.517652	0.080513	0.952964
-0.222385	1.450202	9.684597	6.245169	-0.319596	6.907894	0.545448	-0.42311	-1.403969	2.818496	2.42013	8.610751	8.970421	-11.590546	1.248308	-0.354231	-0.03002	0.732477	9.254057	4.035425	-0.646104	1.622405	-6.002347	-3.012548	-0.552389	0.073622	0.98887
-0.507318	1.740973	9.79521	3.574282	-0.348559	5.167153	0.54853	-0.426489	-1.349488	2.541395	2.764128	8.958709	5.279658	-11.367976	3.498156	-0.366238	-0.03002	0.756492	9.246287	3.975688	-1.046012	1.374843	-4.658986	3.316636	-0.536347	0.08607	0.966293
-0.057888	1.100801	9.282484	-1.116932	0.516348	0.455214	0.518555	-0.410896	-1.352589	2.7741	2.361891	9.258767	-0.794011	-11.946901	6.339406	-0.360234	-0.036023	0.744485	9.056641	4.377098	-1.961025	0.386356	-2.8157	2.16753	-0.544811	0.065628	0.934381
-0.566659	1.392493	9.677599	-1.342648	0.71172	2.424408	0.532193	-0.407247	-1.387911	2.77199	2.705747	9.199158	0.140758	-13.266035	8.167639	-0.336219	-0.03002	0.750488	9.393568	4.491157	-2.18211	-2.448177	-1.111395	-5.625279	-0.515426	0.076264	0.940498
-1.480242	1.3359	9.890431	-5.444155	0.026809	-2.701297	0.518555	-0.410896	-1.352589	2.652261	2.76399	8.842882	-1.276643	-13.622051	8.968859	-0.354231	-0.03002	0.744485	9.339901	3.970729	-2.071418	-3.344698	0.156994	-13.397802	-0.499856	0.070203	0.956725
-0.630096	1.740106	9.388221	-5.361782	-0.520474	-1.075545	0.537449	-0.353216	-1.373065	3.212428	2.991861	8.617342	-2.019021	-13.816596	10.868325	-0.354231	-0.048031	0.732477	9.345862	4.377581	-1.727025	-4.913486	0.207746	-16.068461	-0.481634	0.046137	0.982199
0.340092	0.229212	9.05713	-10.00797	-2.191904	-0.392005	0.501836	-0.411166	-1.371747	3.047727	2.820089	8.850387	-4.397751	-13.215641	11.982142	-0.354231	-0.03002	0.744485	9.125177	4.785151	-1.330045	-5.157176	-0.451348	-13.148745	-0.551443	0.11064	0.911262
-1.140571	0.232056	9.60556	-9.160834	-3.386659	4.397746	0.550059	-0.348441	-1.426547	3.122123	1.558166	9.62071	-0.927602	-14.105493	11.335438	-0.354231	-0.012008	0.744485	9.016591	4.381155	-1.105769	-6.044792	-1.583765	-7.774664	-0.515426	0.076264	0.940498
-1.595969	-0.057293	9.769162	-7.784509	-4.257741	2.312311	0.51791	-0.390258	-1.390014	3.2747	1.788347	8.738561	3.027425	-15.357138	10.091691	-0.348227	-0.018012	0.738481	8.795018	4.093443	-0.826127	-7.548001	-2.686157	-4.943293	-0.514999	0.062508	0.962212
-0.739718	-0.058687	9.555047	-3.612475	-5.749108	4.229936	0.549939	-0.408103	-1.350593	3.62756	2.645188	9.628561	5.023871	-17.436649	8.433406	-0.342223	-0.042027	0.738481	8.103019	4.498242	-1.237447	-7.452505	-4.172447	-5.887052	-0.549263	0.074126	0.959314
-0.50353	0.1741	9.907067	1.22089	-8.990288	9.054883	0.530401	-0.445145	-1.367542	3.637041	2.01426	10.042678	7.048941	-20.08372	7.479298	-0.354231	-0.036023	0.750488	8.445463	4.671512	-1.172809	-8.248863	-5.762438	-8.851875	-0.548364	0.07888	0.942224
-1.016539	0.116977	10.070084	-3.071289	-7.650377	4.872415	0.518938	-0.391384	-1.371854	3.411134	1.95765	10.038433	12.753181	-24.534133	5.348734	-0.360234	-0.024016	0.732477	8.323136	4.380154	-1.633113	-10.152445	-7.181262	-11.887829	-0.49943	0.056447	0.978439
-1.814536	0.408669	10.343855	-1.209821	-7.981405	12.149038	0.501836	-0.411166	-1.371747	3.565074	1.729491	9.157097	7.27261	-28.074249	3.775754	-0.360234	-0.012008	0.738481	7.927229	4.729118	-1.468143	-12.365197	-7.867321	-15.003649	-0.548364	0.07888	0.942224
-0.967931	0.928541	9.66848	2.949421	-8.568885	10.956413	0.546858	-0.404724	-1.405073	3.67415	0.870373	8.806792	-4.917402	-32.278921	2.496731	-0.348227	-0.018012	0.732477	8.139576	4.551293	-2.263717	-16.916976	-7.372391	-17.058336	-0.501183	0.079205	0.952101
-0.854606	0.05751	9.553041	3.684506	-7.477533	13.092456	0.502863	-0.412293	-1.353587	4.246525	-0.449361	8.996994	-13.152163	-37.811887	3.151975	-0.360234	-0.012008	0.726473	8.024563	4.551258	-2.323062	-21.838151	-6.475987	-17.56439	-0.563979	0.052676	0.986514
-1.023397	0.116139	9.723196	1.924842	-5.854122	14.942942	0.551086	-0.349567	-1.408387	3.564749	4.010363	15.640882	-27.672048	-53.679203	8.37906	-0.354231	-0.024016	0.738481	8.308927	5.303605	-2.256921	-25.253536	-4.989675	-15.262027	-0.482061	0.059893	0.960486
-1.020357	0.522857	9.897618	1.389494	-3.907199	13.171419	0.532575	-0.387735	-1.407176	3.993574	4.183009	14.410267	-11.698699	-84.912714	15.68346	-0.342223	-0.024016	0.714465	7.50857	5.188616	-2.444491	-29.434565	-4.414138	-10.036976	-0.496304	0.056951	0.948883
-0.393492	0.347558	9.678513	0.987105	-2.825394	9.038616	0.518938	-0.391384	-1.371854	4.2078	7.781635	20.483062	-8.902187	-103.798553	7.232602	-0.354231	-0.03002	0.720469	8.01925	5.534708	-2.48987	-32.691456	-4.541744	-4.148465	-0.495877	0.043196	0.970596
-0.034193	0.232955	10.436683	-2.798795	0.591549	5.112782	0.535657	-0.391114	-1.352696	4.583187	4.007194	15.719441	5.699141	-137.275921	12.805422	-0.360234	-0.018012	0.720469	7.854393	5.362675	-2.208576	-35.516615	-5.619824	-1.997681	-0.499856	0.070203	0.956725
-0.505396	0.928515	9.851069	4.308128	-0.094832	3.143186	0.499782	-0.408914	-1.408067	4.47365	5.376734	19.194755	-5.031364	-161.999388	16.05944	-0.348227	-0.018012	0.690449	8.310724	5.535717	-2.141685	-37.294058	-8.428561	-6.254654	-0.528342	0.06432	0.933519
-0.680712	0.63805	9.673497	-2.682785	0.642018	3.40075	0.50542	-0.335371	-1.412486	4.140349	4.518066	19.366758	-1.424231	-195.743004	20.778366	-0.336219	0	0.690449	8.196724	5.59384	-2.143675	-38.637824	-12.748386	-11.575434	-0.547891	0.097388	0.90342
-0.445863	-0.116169	9.907511	-3.246193	1.360519	6.0718	0.547885	-0.405851	-1.386913	4.611895	4.572167	20.437353	-7.385075	-229.37609	24.028994	-0.348227	0	0.684445	7.528182	4.382273	-1.534696	-40.101924	-17.395438	-9.395681	-0.499383	0.088712	0.917921
-0.908843	0.348198	9.726041	7.32057	0.045329	7.416842	0.499782	-0.408914	-1.408067	4.399623	2.853264	20.908053	-7.359619	-265.967131	25.512868	-0.348227	0.024016	0.678442	8.090744	4.437454	-1.865724	-43.472537	-21.198736	-1.648619	-0.479408	0.041888	0.969733
-0.795098	0.231862	9.670232	5.923213	0.095677	11.058251	0.546858	-0.404724	-1.405073	3.126222	3.427469	22.41605	-5.638945	-295.350713	19.982041	-0.348227	0.036023	0.666434	7.187319	3.977681	-1.543294	-45.464584	-23.365908	2.305789	-0.476282	0.042392	0.940177
-1.249354	-0.057347	9.891649	2.565355	0.098397	12.941266	0.53463	-0.389988	-1.370856	2.273309	4.065655	19.154711	13.175145	-321.609826	19.251958	-0.354231	0.048031	0.648422	7.988575	4.208725	-1.298106	-48.965619	-25.136355	-1.097491	-0.492751	0.0437	0.94104
-0.666606	0.233428	10.366296	8.688023	-1.178126	13.323947	0.535657	-0.391114	-1.352696	2.612908	1.72136	15.74447	32.027963	-329.89297	16.73794	-0.372242	0.072047	0.636414	6.234823	4.099087	-0.762624	-48.863614	-30.215771	-9.818411	-0.510547	0.05401	0.937279
-0.496727	0.232981	10.254095	11.541618	-0.740387	11.746057	0.514064	-0.425903	-1.405965	3.755925	0.404522	13.173616	43.825171	-327.686623	10.919694	-0.390254	0.090059	0.624406	6.863679	3.982569	-0.636577	-46.33646	-33.564173	-15.446858	-0.46114	0.050086	0.934691
-0.555203	0.174854	10.194998	14.847913	-0.138007	10.77539	0.519965	-0.39251	-1.353694	5.083843	-0.226943	11.548808	49.360817	-327.157244	7.106148	-0.378246	0.114074	0.606395	8.125111	3.576632	-0.213994	-43.848932	-30.9919	-0.811869	-0.494551	0.034193	0.97522
-0.444189	0.52258	10.024678	14.654712	0.189535	7.370675	0.512655	-0.444289	-1.40486	5.181341	-3.027271	7.191029	44.244901	-310.26194	-5.283724	-0.38425	0.13809	0.612399	9.098437	3.749701	0.091401	-40.069218	-27.65492	25.341107	-0.477655	0.01913	0.996071
-0.842311	0.349261	10.189702	11.036293	0.22883	4.707897	0.530139	-0.404994	-1.424231	0.866864	-6.84496	2.396319	19.381076	-280.905196	-12.912471	-0.402262	0.162106	0.594387	9.165392	4.389076	0.666341	-36.167677	-25.677488	33.726107	-0.478508	0.046641	0.952643
-0.516129	1.391599	9.331854	11.256577	-0.496491	3.236562	0.513037	-0.424777	-1.424125	-10.882956	-11.434161	-7.435248	-42.939009	-235.498308	-13.606417	-0.408266	0.150098	0.600391	10.078748	3.808555	0.738824	-31.994665	-23.742783	20.40067	-0.491425	0.034697	0.945664
-0.73021	0.755169	10.077336	6.443986	0.616906	0.921365	0.51342	-0.405265	-1.443389	-20.917385	-9.578518	-2.853993	-83.703494	-97.786175	-18.033141	-0.420274	0.186121	0.594387	11.104512	3.98046	0.816977	-30.067444	-20.965345	8.296853	-0.528388	0.032056	0.994036
-0.327294	0.696876	10.143012	2.774118	2.278529	-0.909507	0.513682	-0.445415	-1.3867	-24.223335	-5.004352	8.575547	-61.108854	36.77033	-12.479586	-0.432281	0.198129	0.606395	10.985335	3.805684	0.528476	-28.568711	-18.399255	1.8227	-0.445571	0.044025	0.950918
-0.569587	0.86969	9.502897	7.010705	2.477811	-1.215939	0.551349	-0.389717	-1.351698	-22.815701	-5.419267	14.383267	-9.800224	115.409086	-8.126425	-0.468305	0.180117	0.582379	11.032131	4.382431	0.075493	-28.640345	-14.455756	-1.725227	-0.508321	0.049761	0.924813
-0.507627	0.870193	9.735299	-3.326781	4.783189	-3.381367	0.511245	-0.462674	-1.403755	-19.703961	-7.943994	11.144577	25.286799	167.017727	5.682936	-0.474309	0.204133	0.570371	11.137781	5.133279	-0.26139	-31.879635	-10.321232	-8.414418	-0.475856	0.028636	0.961891
-0.278408	1.218227	9.74071	-3.04342	4.915904	-4.66612	0.531166	-0.406121	-1.406071	-17.900552	-12.749968	3.992029	6.659851	196.522017	15.946363	-0.516336	0.216141	0.546356	11.180197	5.071852	-1.002725	-33.14568	-8.535026	-14.21288	-0.47363	0.024387	0.949425
-0.617664	0.696735	9.963853	-7.204695	5.759908	-6.549405	0.466606	-0.449605	-1.389694	-15.209831	-13.333948	5.814122	-59.814594	234.166861	28.191947	-0.534348	0.198129	0.510332	11.241429	4.609356	-0.832425	-32.286342	-7.940211	-14.3444	-0.459387	0.027328	0.961028
-0.791138	0.870891	9.903029	-10.703198	6.17057	-7.274453	0.500809	-0.41004	-1.389907	-13.48303	-11.050917	7.907666	-116.547935	264.673344	33.631911	-0.564367	0.204133	0.498324	10.83765	4.377252	-1.126821	-32.31475	-8.60031	-11.178834	-0.508367	0.017496	0.985331
-0.612758	0.349038	10.194274	-8.453261	5.674892	-6.920477	0.549677	-0.367953	-1.407282	-11.564937	-8.770427	11.184474	-151.310107	296.325616	35.72073	-0.618402	0.210137	0.468305	10.493977	3.682389	-1.308009	-31.881191	-9.782916	-9.58918	-0.446043	0.025516	0.989721
-0.555481	0.465068	10.195696	-13.56954	7.667694	-7.603202	0.532193	-0.407247	-1.387911	-8.884166	-6.3751	12.942288	-169.172385	324.094205	38.305294	-0.672438	0.204133	0.426277	10.503999	3.742651	-0.793917	-32.155326	-11.39656	-14.661169	-0.485646	0.017196	0.925356
-0.384738	0.754975	10.142009	-9.148278	8.848176	-7.965403	0.548267	-0.386339	-1.406178	-6.596751	-4.379727	14.752206	-176.584717	349.14501	43.301061	-0.732477	0.198129	0.360234	9.819326	3.859546	-0.863998	-29.384431	-13.597111	-18.938594	-0.489199	0.030448	0.933198
-0.444134	0.464537	10.024538	-7.728089	9.14258	-9.790004	0.532193	-0.407247	-1.387911	-3.732699	-2.215299	17.221688	-176.04643	368.459056	52.149408	-0.786512	0.204133	0.288188	9.316757	3.399502	-0.4195	-26.549479	-15.903584	-13.945363	-0.408653	0.014402	0.963063
-0.801426	0.869633	9.382696	-6.733633	6.907861	-10.455467	0.548912	-0.406977	-1.368753	-0.252578	0.749653	19.524701	-164.704191	379.542813	65.018129	-0.816531	0.222145	0.174113	9.145369	3.110098	-0.481286	-22.699558	-18.086911	-6.074558	-0.52261	0.014555	0.973727
-0.961882	0.580984	9.956716	-16.016018	7.287486	-11.166519	0.501574	-0.371016	-1.428436	3.49009	2.054608	20.479087	-138.047602	383.647916	76.448914	-0.864563	0.258168	0.066043	9.611052	3.111554	0.041554	-20.234995	-19.940278	-3.020951	-0.460713	0.036331	0.956404
-0.961604	0.29077	9.956017	-12.60677	6.034488	-11.75739	0.53181	-0.426759	-1.368647	6.822761	3.075714	20.600372	-114.413739	383.371864	89.622044	-0.888578	0.306199	-0.090059	8.864942	2.648285	-0.317743	-17.864006	-21.884021	-6.358126	-0.45806	0.018326	0.965652
-1.076436	0.348924	9.953871	-5.321915	4.639534	-11.743385	0.504655	-0.374395	-1.373956	11.681501	3.34762	20.634316	-96.104876	376.51882	104.387133	-0.876571	0.360234	-0.234152	9.265911	2.590118	-0.195938	-14.787169	-23.564606	-12.389249	-0.45986	0.008819	0.999832
-0.728789	0.465095	10.134453	-4.880236	4.73447	-12.819507	0.497345	-0.426173	-1.425123	17.658827	2.471691	19.86602	-76.567917	356.663852	110.092191	-0.816531	0.426277	-0.38425	8.750156	2.532457	-0.377614	-11.127519	-24.334367	-15.288041	-0.462512	0.026824	0.990584
-0.615044	0.348759	10.078644	-1.147725	4.482103	-12.888035	0.505038	-0.354883	-1.393221	24.33688	1.711277	17.282643	-74.3573	321.020279	108.993879	-0.780508	0.504328	-0.516336	8.138547	1.900002	0.292212	-7.278994	-26.620008	-15.000242	-0.454508	0.005074	0.95781
-0.733528	0.638664	9.903613	-1.076229	4.255045	-12.165674	0.5106	-0.442036	-1.44118	32.166474	2.611607	13.067137	-88.087584	270.973807	101.994855	-0.678442	0.588383	-0.624406	7.624351	2.769472	0.286019	-4.660654	-28.520199	-12.801038	-0.453608	0.009827	0.94072
-0.841223	0.407443	10.247656	-3.083064	4.822851	-11.483496	0.549677	-0.367953	-1.407282	40.224149	3.568344	8.973876	-116.969531	202.953451	84.884177	-0.558363	0.684445	-0.648422	7.465455	3.00429	0.911705	-4.29638	-25.772962	-5.552708	-0.407754	0.019155	0.945973
-0.498093	0.465012	10.196839	-1.843355	5.007332	-11.627618	0.536422	-0.35209	-1.391225	46.47222	7.050794	5.195376	-129.646612	122.658325	62.318127	-0.498324	0.762496	-0.684445	7.170932	3.408031	0.451177	-2.51599	-23.777896	1.934557	-0.462559	-0.00544	1.051101
-1.129419	0.523667	10.184406	0.618233	5.637999	-13.035327	0.502601	-0.372142	-1.410276	47.717135	12.035071	3.028531	-130.620112	49.465122	33.752741	-0.41427	0.846551	-0.684445	7.450802	3.5801	0.229228	1.107423	-20.919461	10.604252	-0.441591	0.017018	0.964789
-0.958564	0.697488	10.13044	1.523087	6.688954	-12.830326	0.513037	-0.424777	-1.424125	45.654118	17.542396	2.330665	-105.198363	-8.86919	4.739613	-0.38425	0.90659	-0.684445	7.560639	3.347235	0.00206	5.652378	-16.821919	27.415291	-0.458533	-0.000183	1.004456
-0.616243	0.406662	10.020969	7.572778	7.580851	-13.273624	0.537449	-0.353216	-1.373065	42.83332	19.0969	2.804593	-61.783785	-59.987508	-21.103878	-0.366238	0.966629	-0.654426	8.302494	2.535207	0.013021	2.388359	-13.859556	35.708283	-0.427821	0.00145	1.015196
-0.371719	0.29217	10.776854	5.854935	9.402896	-12.546809	0.503628	-0.373269	-1.392116	21.636423	74.331715	106.223651	-47.042496	-115.792695	-51.158284	-0.390254	0.978637	-0.654426	8.369243	2.131921	0.469045	5.982926	-13.756749	25.57226	-0.458533	-0.000183	1.004456
-0.41093	0.410547	11.701026	4.903354	16.917908	-10.748778	0.566014	-0.387195	-1.36886	21.796845	24.034962	-0.498189	305.698928	-213.411596	-16.849488	-0.396258	1.008656	-0.66043	8.877672	2.477487	0.309482	4.197263	-14.323019	10.590246	-0.473676	-0.007878	1.009942
-0.939911	1.512462	11.115247	13.671066	26.728371	-15.74907	0.545448	-0.42311	-1.403969	-0.350606	-7.207733	15.997714	317.290786	-176.862852	-128.577435	-0.462301	0.924602	-0.678442	8.834892	3.871057	1.171047	6.257465	-15.734227	-2.058497	-0.443391	0.007512	0.998969
-0.573728	0.179661	12.159557	-4.366283	38.146842	-18.548849	0.551349	-0.389717	-1.351698	-35.104898	-29.670346	12.006414	172.223122	-36.516073	-257.112089	-0.510332	0.876571	-0.708461	9.429927	5.484333	-0.236508	7.426886	-16.743617	-7.411858	-0.480354	0.00487	1.04734
0.125452	-1.496084	15.521334	-24.440906	69.18035	-10.135699	0.595988	-0.402787	-1.365759	-21.763347	-2.659933	41.293237	131.741796	-66.78831	-111.763985	-0.570371	0.816531	-0.720469	10.887739	7.02659	-4.081269	11.311486	-8.439202	-10.366879	-0.454981	-0.013435	0.996613
-0.556986	0.362928	15.916793	0.674814	95.65941	-13.556803	0.567041	-0.388321	-1.3507	11.600865	-4.929502	2.65833	302.577381	-177.058133	-120.846044	-0.588383	0.7685	-0.708461	11.285472	7.73407	-1.159657	-11.174709	-3.753204	-10.412921	-0.476801	-0.008382	1.039498
-0.329677	0.079255	18.694632	-20.354747	126.679169	-8.880193	0.599069	-0.406166	-1.311279	5.498549	1.790089	3.709099	113.214512	-101.347454	-106.255626	-0.612399	0.720469	-0.726473	10.501395	10.229413	-0.250647	-11.294145	-5.954826	-17.030392	-0.39711	0.003084	1.025936
-0.913582	-0.436788	21.051207	7.92538	148.378251	5.181776	0.551993	-0.410356	-1.314273	5.911188	2.646455	4.777186	163.098481	-31.807333	-37.547966	-0.63041	0.690449	-0.726473	10.297949	7.905224	-2.148581	2.694697	-15.005887	20.262252	-0.489672	0.011939	0.972002
0.098608	-0.208134	20.031674	37.176572	174.454288	14.84761	0.626607	-0.439018	-1.325234	-2.058915	5.87805	5.090285	143.283243	-15.722681	-28.964089	-0.636414	0.666434	-0.714465	12.185325	6.571168	-1.832	8.529811	-6.398154	74.983591	-0.426968	-0.026061	1.058623
1.927627	-1.07449	22.551045	13.459501	216.055797	17.150009	0.647435	-0.443253	-1.233435	1.289507	3.05505	8.521295	52.871407	-31.507424	-29.195189	-0.63041	0.642418	-0.726473	13.206823	6.047001	-2.042462	9.171387	5.56434	47.801539	-0.476329	0.010127	1.000695
1.864788	-1.590475	25.149166	37.213024	255.788569	18.889039	0.657106	-0.534911	-1.208754	4.704406	2.01674	6.642402	46.93083	-26.673838	-24.15599	-0.636414	0.63041	-0.732477	12.073321	4.731705	0.953725	4.537888	7.314961	-22.544645	-0.442064	-0.001491	1.003593
3.488996	-2.983101	25.987223	78.34716	299.00202	23.230729	0.739674	-0.532434	-1.131124	4.403535	1.212318	8.584308	55.005831	-11.55	-13.279092	-0.654426	0.624406	-0.696453	9.334185	4.851644	0.61473	13.488226	3.172817	-49.839123	-0.478981	0.028132	0.991447
3.779088	-2.692747	26.167081	94.379107	345.130946	16.430591	0.696586	-0.600791	-0.985524	1.586209	1.964626	9.118658	49.264518	-15.298722	-17.143566	-0.654426	0.612399	-0.714465	7.742674	6.245657	0.874965	13.018731	7.362527	-43.4842	-0.477228	0.005374	1.017784
5.391121	0.266851	26.610914	127.831763	387.34239	14.770748	0.745717	-0.598854	-0.94621	2.039069	2.822345	9.302829	44.741498	-21.22197	-17.946426	-0.642418	0.594387	-0.738481	7.344629	6.536198	0.925487	14.48692	13.260681	-18.469165	-0.428721	-0.003303	1.032286
4.960605	0.495917	25.158103	151.918329	424.466008	23.057042	0.776478	-0.734897	-0.773041	3.621125	1.1566	9.041198	47.602926	-19.652157	-14.673381	-0.642418	0.588383	-0.726473	7.050584	5.549899	0.344466	11.620966	19.690797	16.630881	-0.462086	0.013069	1.012298
1.313746	2.011942	26.47614	167.203256	436.188084	7.894534	0.753738	-0.828223	-0.768516	1.411197	3.798495	9.11215	43.180723	-20.716105	-13.375483	-0.654426	0.576375	-0.720469	6.125328	4.158263	-0.536245	9.642349	27.084128	43.268582	-0.463412	0.022071	1.007674
-0.157586	4.446934	24.718992	186.422352	419.021573	-0.386736	0.771364	-0.888741	-0.655244	3.378066	1.387974	8.151443	40.785348	-19.521745	-13.459069	-0.648422	0.576375	-0.720469	5.895439	2.941842	-0.774639	1.91298	32.490589	46.159609	-0.475002	0.001125	1.005318
0.741353	1.178773	17.793967	236.340068	360.315277	-14.401453	0.760043	-0.934793	-0.526912	3.061449	2.589701	9.558795	32.326814	-18.522137	-13.24204	-0.672438	0.588383	-0.714465	5.30653	2.532973	-1.815401	-3.076199	34.648397	32.810974	-0.429148	0.010453	1.010572
0.837103	1.705853	19.76207	188.515637	338.797409	-33.888661	0.754666	-1.048486	-0.465805	1.291744	3.3985	8.697686	27.151537	-19.059714	-8.977737	-0.654426	0.576375	-0.726473	6.192583	4.378843	-2.87372	-8.121578	34.438715	17.925935	-0.495923	0.010931	1.031113
9.763724	-2.964101	12.589006	275.051489	275.64752	-17.939666	0.720081	-1.107563	-0.446327	1.339805	3.685502	8.285264	18.690247	-16.387394	-3.399313	-0.672438	0.570371	-0.732477	7.819138	5.528215	-3.977644	-13.95732	31.391061	11.970956	-0.492325	0.029944	0.962754
11.642271	-15.657949	-3.297086	317.114278	154.984752	-4.975955	0.691013	-1.152759	-0.355313	2.028991	2.193245	8.654944	9.110135	-14.369073	0.755981	-0.672438	0.564367	-0.714465	9.453008	6.968908	-4.68061	-20.580523	25.221573	23.761055	-0.511066	0.003237	1.0366
9.264498	-10.478159	1.464829	80.148412	90.494123	42.16369	0.679812	-1.139148	-0.302936	2.581935	4.483745	8.366749	8.604349	-14.556227	4.656158	-0.66043	0.546356	-0.702457	11.674023	6.848679	-4.637212	-20.77387	18.727855	50.39325	-0.44429	0.002758	1.016059
15.114373	-10.419168	4.297704	68.965786	16.281974	87.249033	0.621722	-1.330574	-0.240404	1.927692	2.99436	9.418352	6.298918	-13.974698	6.075149	-0.666434	0.558363	-0.714465	13.182841	5.635943	-3.30033	-17.618222	12.108683	67.595493	-0.479454	0.009623	1.030251
17.994471	-5.356195	10.955608	4.647794	-37.918936	86.765117	0.607822	-1.294073	-0.261771	3.468612	1.270072	9.981738	7.919868	-15.4077	4.255595	-0.678442	0.564367	-0.720469	12.404588	4.020117	-2.524167	-15.5417	3.627607	54.440929	-0.508367	0.017496	0.985331
18.989669	-5.528894	11.95747	96.09036	-84.761932	78.509166	0.583148	-1.325483	-0.36952	3.676345	1.958422	9.099864	14.960479	-18.620693	3.515495	-0.672438	0.55236	-0.720469	10.254054	2.984933	-2.000775	-13.783674	-3.174587	12.467673	-0.508367	0.017496	0.985331
18.73212	-8.042365	4.6067	119.507895	-119.869948	58.016703	0.516414	-1.426377	-0.313509	3.108359	2.533152	9.028982	14.519669	-18.838312	4.444642	-0.666434	0.576375	-0.708461	10.037304	3.683036	-1.374111	-12.120804	-8.99126	-32.013691	-0.539079	0.015863	0.97459
17.650705	-8.801927	2.098274	84.054832	-148.780122	36.550726	0.490975	-1.496811	-0.382729	2.633383	2.536647	7.781285	8.36386	-15.66319	6.355334	-0.666434	0.564367	-0.702457	9.593896	4.961084	-0.63514	-9.963449	-12.97673	-48.703507	-0.462512	0.026824	0.990584
16.999498	-10.661336	0.982749	28.120784	-174.95985	17.519322	0.41846	-1.571435	-0.454943	3.331688	2.360898	8.856633	5.254672	-13.576906	5.860498	-0.678442	0.558363	-0.696453	8.50318	5.424577	-1.054081	-9.559599	-12.734818	-29.52718	-0.527016	0.055318	0.938142
16.355923	-8.797573	3.343911	-39.237834	-197.507716	-3.961948	0.34	-1.578418	-0.459933	3.042848	1.904121	8.43901	6.961437	-13.113507	5.148332	-0.66043	0.55236	-0.690449	7.77947	5.603688	-0.211552	-11.525663	-9.616312	6.543011	-0.493697	0.006682	1.018647
14.56238	-8.210055	5.505694	-65.358749	-219.718082	-24.421413	0.235457	-1.635196	-0.571568	3.442725	2.303467	8.740907	9.245751	-13.216413	4.100724	-0.678442	0.564367	-0.696453	7.722777	4.329555	-0.332645	-13.007285	-4.139121	34.788538	-0.494551	0.034193	0.97522
13.207034	-7.277242	6.636794	-87.09309	-240.295018	-42.166501	0.180044	-1.690038	-0.643888	2.932387	2.133327	8.613432	8.682142	-13.386266	4.233926	-0.678442	0.55236	-0.702457	8.29494	2.938904	-0.327692	-12.131699	3.31731	41.011641	-0.515472	0.043999	1.001015
11.620349	-6.86687	7.646434	-105.531384	-261.708968	-56.723438	0.032653	-1.695849	-0.761831	2.810484	2.191772	8.139155	7.065871	-12.128631	4.09521	-0.672438	0.564367	-0.678442	8.810365	2.591028	-0.204948	-9.350402	8.61577	24.879325	-0.49635	0.024687	1.0094
9.760329	-6.338458	9.344417	-126.169461	-281.332994	-64.860165	-0.048506	-1.679941	-0.840566	2.70763	2.420268	8.726578	5.96509	-11.266213	5.704755	-0.678442	0.55236	-0.684445	8.970933	3.225444	-0.655415	-8.571157	14.622017	0.644509	-0.524409	0.005048	1.007907
8.57079	-5.929034	10.130799	-137.084674	-297.780463	-67.445453	-0.176478	-1.708373	-0.865605	2.588881	2.879354	8.487592	2.817602	-11.078391	7.592614	-0.666434	0.564367	-0.678442	8.688014	3.458124	-0.545811	-8.64323	17.889317	-11.084769	-0.49725	0.019934	1.02649
7.168566	-5.227078	11.78053	-153.930157	-310.148532	-66.361449	-0.387019	-1.739282	-0.968275	3.22534	2.303337	9.208562	1.477976	-11.505515	7.335797	-0.678442	0.55236	-0.690449	8.465531	3.633583	-0.264066	-6.893247	19.6762	-4.082052	-0.49763	0.065954	0.944259
5.829333	-4.408394	13.720757	-164.610459	-319.507355	-60.900996	-0.561041	-1.77303	-0.978149	3.222421	2.189057	9.031765	5.470905	-12.377185	6.516723	-0.702457	0.558363	-0.696453	8.233025	3.748779	-0.496414	-6.028226	19.816107	14.086454	-0.525262	0.03256	0.96448
4.653511	-3.997293	15.200917	-177.673549	-326.581717	-53.517806	-0.74139	-1.758648	-0.901534	2.713404	2.305175	9.021782	7.333109	-13.698175	5.900784	-0.690449	0.558363	-0.696453	8.179927	2.938869	-0.387036	-5.471984	20.183681	29.035674	-0.526635	0.009298	1.020373
3.558913	-3.409186	17.896749	-189.07177	-333.716359	-44.923765	-0.986179	-1.728088	-0.884495	3.098345	2.247705	8.439488	3.666046	-14.495134	6.261077	-0.684445	0.55236	-0.690449	8.00449	2.416828	-0.678242	-5.779953	20.207529	27.167993	-0.490571	0.007186	0.989091
3.289579	-2.935288	21.706784	-197.011554	-340.235972	-38.586377	-1.150312	-1.792611	-0.693504	3.230368	2.073761	9.444969	2.97842	-14.179675	4.977505	-0.696453	0.558363	-0.678442	7.948787	2.359309	-0.622538	-6.153281	20.702455	14.126393	-0.527915	0.050564	0.955232
2.786818	-1.997245	25.33992	-189.79523	-349.309416	-37.1449	-1.271785	-1.707255	-0.509353	3.672041	1.214229	8.747183	-1.540822	-15.06539	3.601639	-0.684445	0.55236	-0.66043	7.54321	1.895094	-1.03217	-7.697268	22.27495	1.817446	-0.546656	0.023857	1.029078
-2.678524	-1.064813	24.597611	-142.663823	-376.285901	-34.974922	-1.305629	-1.785749	-0.200312	3.399181	1.958766	9.389432	-4.467033	-18.728108	2.298772	-0.684445	0.55236	-0.66043	7.468565	2.875766	-1.828118	-5.212687	24.027759	-4.816241	-0.511873	0.063012	0.932656
-7.243174	1.206797	25.956991	-158.944415	-386.267939	-40.772699	-1.306296	-1.823552	0.090356	4.191924	1.097095	9.347167	-7.511553	-21.980905	-0.178768	-0.684445	0.55236	-0.678442	7.188695	2.703697	-1.606169	-15.510958	23.748845	-2.877085	-0.56218	0.062183	0.952334
-13.5523	-2.276686	22.933284	-177.177694	-375.730884	-33.092149	-1.230296	-1.892269	0.406382	3.75888	1.612162	10.458564	-4.877338	-26.550121	-3.472626	-0.690449	0.564367	-0.666434	7.186886	3.050813	-1.661684	-19.565086	23.788602	13.799218	-0.509693	0.026499	0.980707
-17.757496	-0.518935	27.939453	-241.266374	-351.861299	-31.441596	-1.031842	-1.946436	0.675913	2.859341	2.931803	10.910844	4.335555	-38.844116	-3.607128	-0.696453	0.558363	-0.66043	6.961388	1.89334	-1.671447	-23.676934	22.505558	32.859519	-0.559527	0.044178	0.961582
-22.921509	2.098413	28.016317	-214.849038	-329.83171	-19.309217	-0.829496	-2.065991	0.8419	4.199233	3.387473	10.110109	7.586769	-45.847538	-3.741852	-0.684445	0.564367	-0.66043	6.106454	1.721094	-1.746221	-27.023274	21.260409	39.659281	-0.51012	0.040254	0.958993
-25.481478	2.960266	23.344084	-220.160903	-293.946757	-4.262621	-0.611458	-2.18415	1.008885	3.656516	3.50163	11.338043	14.168443	-52.426579	-5.144817	-0.702457	0.564367	-0.648422	5.808337	1.660612	-2.437221	-32.06256	19.735705	34.958168	-0.527016	0.055318	0.938142
-29.440457	9.516725	20.738302	-232.819348	-246.373552	5.389044	-0.421437	-2.29019	0.956951	3.424089	3.445629	10.979797	18.390659	-58.522828	-5.565699	-0.696453	0.564367	-0.642418	5.680935	1.657685	-3.124579	-37.564821	18.550451	25.567628	-0.528342	0.06432	0.933519
-30.775347	14.392333	20.203418	-273.750198	-189.279093	6.44813	-0.279017	-2.320119	0.788644	3.018694	4.535987	10.61626	14.647418	-67.790398	-0.275771	-0.714465	0.564367	-0.636414	6.2508	2.583416	-2.994927	-32.493912	18.304847	17.435105	-0.573297	0.059745	0.911175
-37.147179	20.507636	26.101671	-242.556631	-138.097469	-2.062384	-0.186874	-2.410521	0.638817	3.030242	4.305802	11.206668	12.29301	-75.685811	6.751031	-0.708461	0.558363	-0.594387	6.546973	4.207363	-2.239737	-29.975148	18.897687	14.682429	-0.510547	0.05401	0.937279
-40.436502	7.996702	59.293789	-246.274876	4.713069	41.453211	-0.072636	-2.386959	0.44704	3.138317	4.87869	11.030826	8.045964	-84.037138	14.496692	-0.708461	0.576375	-0.594387	8.652509	4.897911	-2.194912	-21.206276	16.921701	25.112288	-0.574196	0.054992	0.928265
-49.971064	13.151613	27.042007	297.161725	28.96209	113.348847	-0.029931	-2.338114	0.320705	4.071329	4.357793	12.52413	2.859598	-92.761932	19.502065	-0.732477	0.558363	-0.564367	10.658595	4.549442	-1.529056	-19.506562	14.435228	37.197476	-0.545284	0.047119	0.973185
-63.711498	8.837949	13.696928	210.930912	143.672241	156.892264	-0.066571	-2.394938	0.303863	4.082515	3.153942	12.939263	2.947654	-106.741828	22.062924	-0.732477	0.55236	-0.558363	11.309965	5.017408	-0.201445	-13.782144	11.760905	36.372848	-0.559054	0.062687	0.922778
-36.37958	15.438027	18.244992	194.736897	253.898795	184.128908	-0.069315	-2.271013	0.349613	5.398572	2.11754	13.674085	1.390974	-123.402495	21.390988	-0.744485	0.55236	-0.540352	11.898669	4.383616	0.720401	-9.041415	8.35019	28.587528	-0.56038	0.071689	0.918155
-9.194915	2.972799	11.474485	315.599011	239.059743	275.437517	-0.128739	-2.320129	0.45679	7.036367	2.164883	16.713418	3.166156	-145.097361	16.845416	-0.732477	0.558363	-0.510332	12.469797	4.093259	0.787441	-8.602849	4.140803	21.47017	-0.541685	0.066132	0.904826
9.708687	-5.17671	9.692957	192.952193	237.796399	254.16303	-0.153458	-2.250505	0.468536	7.643749	1.12826	18.850118	4.259962	-171.550739	8.774648	-0.750488	0.534348	-0.486317	11.031141	3.165818	-0.101304	-15.885392	2.167632	18.265611	-0.579975	0.072493	0.948573
17.998994	-9.121788	13.893935	96.183203	247.850688	215.185501	-0.309471	-2.325259	0.55267	8.211892	0.49113	21.988023	6.676822	-210.575571	0.374192	-0.762496	0.55236	-0.450293	10.51302	3.165528	-0.396901	-21.994483	-2.338515	11.211386	-0.595071	0.097063	0.893543
1.070022	-9.200191	22.283078	62.858494	268.219446	133.23832	-0.355902	-2.350087	0.5871	8.524155	0.367843	26.653586	0.054647	-260.772579	-11.196623	-0.762496	0.55236	-0.390254	10.67335	4.494963	-0.787121	-17.793414	-12.017295	-0.041275	-0.609314	0.094121	0.88194
-0.207591	-11.123514	18.496504	183.669126	126.40658	55.147654	-0.401186	-2.316379	0.563737	8.211104	0.361321	31.129993	0.929376	-320.506172	-26.002407	-0.762496	0.55236	-0.354231	10.541717	7.792657	-1.345312	-10.728375	-23.899068	-13.307853	-0.594172	0.101816	0.876453
-33.012332	0.079112	4.982712	150.535604	4.781503	-151.170426	-0.401186	-2.316379	0.563737	6.938307	0.357595	35.646926	9.384698	-390.670427	-40.76596	-0.79852	0.540352	-0.288188	10.562131	9.753397	-2.990921	5.778621	-35.824444	-15.787153	-0.559054	0.062687	0.922778
8.364395	4.262444	0.211253	258.284018	-10.379055	64.996656	-0.417261	-2.337288	0.582004	2.962133	0.079884	37.517288	15.240128	-472.402674	-53.489364	-0.804524	0.546356	-0.240156	11.368427	11.433691	-2.339516	19.344127	-49.316818	4.295756	-0.54969	0.087882	0.9376
8.679202	-2.628174	7.078011	-75.251522	26.032322	50.148715	-0.387331	-2.251846	0.704599	-0.632795	0.265646	35.619519	39.791608	-557.050221	-61.391476	-0.804524	0.528344	-0.144094	12.624166	10.750215	0.649773	27.567667	-64.428604	40.165649	-0.563033	0.089694	0.908907
-4.687004	4.314536	16.133075	-96.855468	32.265182	-27.958391	-0.376895	-2.304481	0.690751	1.249928	2.04928	27.690469	78.79596	-615.086499	-53.207026	-0.810528	0.516336	-0.060039	11.018589	8.099743	2.660338	38.427058	-63.241111	70.468895	-0.527016	0.055318	0.938142
-0.960442	2.896068	7.246154	155.611766	-6.794393	33.012717	-0.37613	-2.265457	0.652222	5.520115	9.08881	24.457645	34.644141	-631.11363	-18.036789	-0.816531	0.510332	0.018012	9.304852	3.989357	1.922781	37.589526	-59.563746	76.035731	-0.564832	0.080187	0.943087
-0.249579	-4.764418	7.993016	-46.172709	21.578166	9.634138	-0.436844	-2.273296	0.68455	6.938266	7.704321	27.613169	34.500123	-570.774775	-29.090616	-0.786512	0.504328	0.114074	9.638434	2.364947	1.351256	30.50223	-55.746512	52.456541	-0.54879	0.092635	0.92051
-0.693586	2.856499	14.937665	-28.618515	24.94654	-12.494634	-0.394641	-2.303625	0.653433	3.995427	-1.216485	22.853573	84.673656	-513.459221	-52.526424	-0.7685	0.516336	0.186121	9.410434	2.481195	1.347277	29.873303	-41.693003	5.368397	-0.547937	0.065124	0.963937
-0.589858	-0.642075	8.400783	61.296277	7.468711	12.734383	-0.427052	-2.305292	0.633277	2.35447	-6.428637	24.954218	139.536984	-469.52175	-99.359102	-0.732477	0.49232	0.240156	9.419432	3.062525	1.863735	28.996987	-26.952218	-40.828211	-0.603122	0.086548	0.986834
0.063833	2.204479	9.692128	-31.964417	20.806909	2.14416	-0.410333	-2.305021	0.652435	-4.051585	-13.051645	22.719196	204.497465	-425.060771	-144.782055	-0.702457	0.480313	0.264172	9.066124	5.551175	1.525728	32.412183	-16.08448	-53.757048	-0.516752	0.085266	0.935874
-0.803823	0.985439	9.267346	8.018661	12.147623	5.972041	-0.410333	-2.305021	0.652435	-15.0881	-19.177304	5.354648	232.214353	-349.680302	-165.491661	-0.696453	0.474309	0.318207	10.068908	5.949408	0.463089	35.778901	-7.081192	-31.922818	-0.485141	0.091653	0.929524
-0.896214	0.291693	10.361863	-11.215615	13.859116	3.749173	-0.455999	-2.290825	0.648336	-51.874648	-20.447883	-25.842441	182.82849	-164.922541	-160.091146	-0.636414	0.468305	0.330215	11.073159	6.174214	-0.543245	35.001304	0.491881	4.35665	-0.563506	0.071185	0.94771
-0.495331	1.161944	10.37196	-1.395266	13.113006	5.471468	-0.439925	-2.269917	0.63007	-22.812673	-11.106324	-10.908961	47.104512	36.221054	-40.808304	-0.63041	0.444289	0.336219	11.01625	4.436647	-0.723534	37.828662	3.752176	28.640262	-0.534547	0.095577	0.932113
-0.239642	1.564191	8.817655	6.164699	11.026917	3.647532	-0.431281	-2.360449	0.636591	-24.2669	-6.437304	9.049	-12.913073	228.772853	22.124699	-0.642418	0.450293	0.324211	10.346377	2.182156	-0.290564	39.393916	4.518746	23.707236	-0.569331	0.056422	1.028536
0.229918	1.390876	9.346712	-1.392908	11.412691	1.33714	-0.44069	-2.308941	0.668599	-12.043938	-4.887082	19.543642	49.123662	334.267945	58.360366	-0.600391	0.438285	0.318207	9.827915	2.355555	-0.585372	32.551963	6.945551	-15.533923	-0.567485	0.098192	0.933839
-0.337859	0.985832	9.623378	0.562813	11.467438	0.253882	-0.461255	-2.344856	0.63349	-4.918921	-7.19995	19.50762	127.155284	363.605665	52.805397	-0.576375	0.450293	0.294191	8.859731	4.153065	-0.425093	23.615625	10.132302	-62.335791	-0.505208	0.073948	0.998747
-0.55891	0.464649	10.022252	4.657181	10.699506	-3.450392	-0.416233	-2.338414	0.600164	-3.684755	-11.3738	12.225089	149.254335	355.38887	42.425701	-0.564367	0.456297	0.252164	8.344842	5.94914	-0.369988	18.040066	13.153889	-74.489635	-0.520777	0.080009	0.98252
-0.211708	1.045161	10.203952	4.797843	10.735115	-4.094008	-0.423971	-2.30867	0.687757	-3.195421	-16.174534	4.280546	110.004136	347.176726	38.628756	-0.55236	0.444289	0.222145	9.082841	6.526362	-0.409811	19.99393	9.90632	-37.693618	-0.488739	0.07264	0.997884
-0.452413	0.753773	9.620533	5.570442	8.527338	-6.342151	-0.471691	-2.292222	0.647338	-4.493553	-18.222519	-2.110637	8.621653	371.99401	33.399033	-0.528344	0.456297	0.192125	9.930482	5.248832	-0.855437	28.507462	3.645933	11.466424	-0.554615	0.077872	1.001336
-0.786177	0.465151	10.13331	2.550859	7.634429	-7.254361	-0.460873	-2.325344	0.614225	-5.493488	-16.04968	2.230872	-98.457694	408.389542	33.137095	-0.510332	0.456297	0.204133	9.594841	2.760233	-0.816406	29.537231	-0.73149	30.656871	-0.52343	0.098014	0.973272
0.318194	0.175557	10.848105	3.44362	7.053078	-0.057019	-0.455999	-2.290825	0.648336	-4.947773	-13.539618	7.722114	-165.519688	439.026265	31.54689	-0.49232	0.486317	0.180117	9.021722	1.196591	-1.177319	23.228778	-0.784141	10.317437	-0.506062	0.101459	0.955319
-0.913107	1.218419	9.554693	19.199549	4.122433	-3.393878	-0.438898	-2.271043	0.64823	-4.580075	-10.741871	12.796587	-197.120925	452.660463	29.029195	-0.49232	0.480313	0.186121	8.905128	1.427878	-1.292704	18.018397	0.937623	-29.604237	-0.504309	0.078701	0.981657
-0.571539	0.521154	9.386429	10.725215	3.508947	-5.142856	-0.457027	-2.289699	0.630176	-2.910348	-7.542194	15.005422	-206.221903	448.964284	28.598098	-0.486317	0.49232	0.180117	9.455846	2.34914	-2.133618	13.297828	5.549181	-51.149505	-0.556795	0.114385	0.953284
-1.008593	0.175998	10.474928	-4.08117	4.209596	-9.682037	-0.441717	-2.307814	0.650439	-2.730561	-5.138047	15.948421	-205.583395	434.670529	33.682787	-0.480313	0.498324	0.168109	8.942094	3.566251	-2.081142	10.376021	6.31249	-47.206094	-0.473124	0.098844	0.953594
-0.560109	0.522552	9.964577	-0.892468	3.6865	-11.460004	-0.438898	-2.271043	0.64823	-2.501883	-3.821612	16.304433	-204.138681	418.443815	45.193803	-0.498324	0.49232	0.168109	9.335623	3.853885	-2.300312	16.011933	4.44353	-28.013971	-0.522104	0.089012	0.977896
-0.740163	0.405655	9.556165	-3.010031	3.174049	-12.683586	-0.435434	-2.25491	0.683445	-2.68169	-1.471807	16.120011	-203.160386	403.213008	59.965616	-0.510332	0.498324	0.150098	8.602801	3.509563	-1.973978	17.439427	1.193192	-5.969424	-0.505162	0.106212	0.93823
-0.906668	0.464563	9.84195	-6.281593	3.558932	-14.240126	-0.455355	-2.311464	0.685761	0.111715	-2.22699	17.35458	-205.624047	388.142673	73.882545	-0.528344	0.510332	0.114074	8.837809	2.120646	-1.747413	15.755416	-1.320657	-1.087688	-0.509614	0.114711	0.963162
-0.897413	0.349596	10.304188	0.020023	3.110266	-13.949977	-0.440307	-2.289429	0.649334	1.931228	-1.145208	18.154426	-209.198021	372.485266	85.700644	-0.528344	0.504328	0.078051	8.10229	1.428156	-1.593932	11.725777	-2.025975	-14.764902	-0.487367	0.095902	0.94199
-1.34704	0.002903	10.756724	4.278326	4.2018	-11.928441	-0.440307	-2.289429	0.649334	3.16742	-2.012538	20.715775	-213.917164	357.442835	92.164382	-0.540352	0.516336	0.03002	7.359536	2.124129	-1.662511	8.308457	-2.100403	-33.287224	-0.555469	0.105383	0.957908
-0.486495	0.292282	10.774568	10.777968	6.255253	-7.995488	-0.374338	-2.227559	0.631853	4.855769	-2.881232	23.285818	-214.599964	344.204009	90.785067	-0.528344	0.516336	-0.03002	6.848389	2.58885	-1.55636	10.057088	-1.498355	-43.508729	-0.470471	0.080839	0.962841
-0.885259	-0.403562	10.88052	21.52928	8.122871	-3.223829	-0.439925	-2.269917	0.63007	7.935891	-2.840891	27.945322	-220.716533	333.547816	86.711991	-0.486317	0.534348	-0.078051	6.686456	2.64919	-1.102739	14.852733	-0.484121	-37.633206	-0.473551	0.112599	0.93188
-0.503444	1.277051	9.967537	23.584604	12.173422	-1.639487	-0.37613	-2.265457	0.652222	9.757102	-0.494074	25.971013	-209.198798	334.937342	84.745651	-0.438285	0.570371	-0.13809	6.644836	2.305343	-0.363244	19.159552	0.579403	-18.945196	-0.543025	0.098818	1.003691
-0.74033	0.579783	9.556584	23.956244	12.754823	0.20911	-0.438515	-2.251531	0.628965	14.590189	1.097588	24.822619	-217.980083	337.19857	94.195054	-0.366238	0.570371	-0.156102	6.824437	3.002124	0.157118	17.1006	1.194169	-8.387549	-0.490492	0.095398	0.971546
-1.011688	-0.172677	10.300645	13.667543	14.420662	-0.272472	-0.410978	-2.284383	0.61501	21.652594	3.023922	25.131999	-238.285602	335.813052	105.372611	-0.258168	0.570371	-0.168109	6.783273	2.426691	0.895561	22.789091	1.010593	-9.85143	-0.49002	0.113907	0.932743
-0.67536	-0.173989	9.902799	13.218115	15.065381	0.773147	-0.467463	-2.237065	0.644025	26.353332	7.830323	20.377822	-271.743128	325.516705	122.629982	-0.168109	0.570371	-0.132086	6.570141	2.430564	1.633255	24.419409	0.403928	-13.040163	-0.444638	0.104726	0.9768
-0.59408	-0.055025	11.118332	8.655518	18.528168	1.91004	-0.440952	-2.26879	0.61191	32.024689	13.716056	19.415115	-299.406077	298.873212	146.126063	-0.090059	0.564367	-0.072047	6.009616	1.912474	2.019271	25.220328	-0.281226	-13.692873	-0.478476	0.102589	0.995616
-0.133755	3.202522	14.256156	-3.3845	38.578301	-8.959384	-0.457671	-2.269061	0.592752	40.916509	22.169625	18.863778	-281.549586	255.538473	160.10521	-0.03002	0.582379	-0.054035	6.030662	2.670384	3.164532	23.409892	-1.759584	-12.628377	-0.475304	0.135357	0.905542
-1.407134	-0.752016	10.58032	21.001789	53.28318	-1.020431	-0.452153	-2.25518	0.664287	51.470974	27.814609	16.108009	-210.144225	196.053857	151.602044	0.006004	0.55236	0.006004	5.911815	2.901146	2.934962	31.283618	-2.071818	-7.715604	-0.478476	0.102589	0.995616
-0.833625	0.589592	13.542374	-17.57172	73.424523	-11.866513	-0.456262	-2.250675	0.591647	61.484992	26.247255	10.464243	-91.308195	127.158702	103.023221	0.054035	0.534348	0.036023	6.527725	2.491991	2.374589	34.786857	0.635367	8.970375	-0.475777	0.116848	0.944346
-1.036944	0.651071	14.867682	6.468722	91.08228	-2.881498	-0.440952	-2.26879	0.61191	67.763045	20.401053	0.686447	20.08637	55.394743	17.500773	0.060039	0.528344	0.078051	7.413801	3.179407	1.196828	35.675561	3.490747	23.802836	-0.494945	0.103897	0.996479
-0.222999	0.419379	15.403458	20.915602	110.093974	-0.030018	-0.421031	-2.212237	0.609594	70.120293	13.933416	-7.337293	44.39359	-18.189358	-73.824171	0.060039	0.516336	0.042027	9.205896	4.153434	-0.189967	26.289471	7.191639	28.804302	-0.510087	0.096202	1.001965
-0.845626	0.943493	15.854661	17.47403	129.776885	6.72748	-0.469779	-2.194662	0.551015	29.640543	20.924619	-4.588589	777.284577	-251.040056	-225.97853	0.078051	0.52234	0.054035	10.724776	4.435639	-1.071718	16.421928	6.137418	29.662571	-0.445965	0.113729	0.972176
-0.532982	0.365862	17.130903	22.120983	155.122761	11.600074	-0.439422	-2.190742	0.534851	20.513414	9.594511	37.956282	212.509607	-221.49106	-238.408235	0.066043	0.486317	0.012008	10.480211	4.953481	-1.873148	11.044438	5.690005	38.818273	-0.473551	0.112599	0.93188
-0.697134	-1.077157	20.360465	3.633423	190.501714	17.22065	-0.490989	-2.209939	0.478481	-29.584936	-11.976619	7.776699	383.712392	-248.2862	-179.6212	0.036023	0.468305	-0.006004	11.025072	5.989221	-2.998997	5.860223	13.412778	36.440126	-0.480229	0.125347	0.969278
-0.679643	-2.867481	24.055135	2.042759	234.840319	26.658301	-0.487405	-2.134143	0.437743	-5.699768	13.00474	32.49235	278.192905	-151.659193	-114.183307	0	0.462301	-0.042027	11.608889	5.282962	-5.216357	27.015714	24.817675	24.66849	-0.467739	0.151046	0.954544
0.484833	-3.846321	27.774621	21.023915	290.282094	40.678093	-0.457048	-2.130224	0.421579	10.745188	6.014675	37.715687	181.008189	-128.352735	-157.428114	-0.018012	0.432281	-0.036023	9.248283	3.267674	-3.902648	24.238012	27.369111	7.284407	-0.465086	0.133041	0.963791
2.987137	-4.417905	32.446411	32.88484	354.756806	45.916098	-0.462446	-2.084442	0.274089	18.340021	4.119097	-7.31308	286.575254	-159.500954	-138.198077	-0.036023	0.420274	-0.048031	8.187379	7.748213	0.491164	-12.448235	26.194752	-26.866796	-0.494472	0.122405	0.957675
7.2147	-2.55971	34.557837	95.048066	419.302502	45.407155	-0.480072	-2.023924	0.160817	9.374006	-2.478292	14.053272	261.820153	-93.434678	-114.73805	-0.054035	0.408266	-0.060039	7.929277	9.421354	-0.87593	11.190003	13.885306	-40.647503	-0.514493	0.136965	0.96638
10.602883	1.26148	32.033973	154.858175	497.91362	58.766455	-0.462205	-1.965118	0.122181	-1.539209	7.656167	2.914999	276.405656	-50.351153	-117.173303	-0.090059	0.390254	-0.078051	8.657742	7.969048	-1.610058	25.614458	18.524	18.17055	-0.514966	0.118456	1.005184
10.537853	6.608226	34.819652	86.390098	573.825026	25.180443	-0.394706	-1.8252	0.027641	-1.307379	2.771116	11.656739	172.365459	-54.115522	-63.897067	-0.078051	0.360234	-0.078051	10.226705	7.728232	-2.892694	16.749564	28.559441	75.776639	-0.499777	0.158415	0.93918
8.91848	6.775332	31.26251	187.568061	597.839867	3.561634	-0.395351	-1.804562	-0.009784	7.539275	4.881432	1.501817	190.388435	-44.607834	-32.033835	-0.096063	0.372242	-0.102066	10.247353	5.821594	-2.044986	4.682286	32.756802	57.390675	-0.533615	0.156278	0.957995
-3.091766	6.901091	30.214501	175.660285	586.609991	-6.76192	-0.333872	-1.757699	-0.080641	-4.025201	10.303414	0.267596	97.207768	-24.0425	-37.56159	-0.090059	0.342223	-0.096063	9.329332	3.041495	-2.703638	4.709639	32.022397	36.675153	-0.502004	0.162664	0.951646
-2.412593	4.156794	23.806495	206.802169	537.412992	-27.548266	-0.284622	-1.696099	-0.117281	3.231519	2.417313	9.56236	29.434892	-12.75181	-0.21896	-0.096063	0.330215	-0.096063	9.082868	2.805896	-3.679761	-8.266012	44.880734	30.496827	-0.535414	0.146771	0.992175
3.619615	1.242194	21.20337	215.351439	471.251282	-57.444704	-0.154474	-1.610258	-0.131875	1.941726	3.399094	7.176721	32.477506	-16.391785	3.794383	-0.102066	0.348227	-0.114074	10.850203	5.177699	-3.291517	-13.634872	51.690492	17.09857	-0.518473	0.163972	0.952509
0.400697	3.304695	32.587006	183.32132	403.847959	-74.389276	-0.055067	-1.547848	-0.111041	2.307732	3.853771	8.716433	14.055494	-16.95076	11.968025	-0.114074	0.336219	-0.114074	13.11732	6.560822	-3.639803	-25.677583	46.539479	3.207137	-0.50333	0.171667	0.947022
16.561997	-5.296482	11.042802	432.260313	278.37191	-41.051026	-0.003117	-1.509139	-0.073936	1.111213	3.800972	8.162714	0.894557	-13.578469	11.086704	-0.102066	0.330215	-0.10807	13.53813	5.580519	-2.608729	-18.023218	34.786268	13.063104	-0.520699	0.168221	0.964975
27.920026	-15.284053	-9.791359	565.130091	75.407392	-95.36273	0.046778	-1.468178	-0.073151	3.483945	0.872813	7.682529	8.21527	-11.518219	8.635183	-0.102066	0.318207	-0.102066	12.802292	3.903265	-2.573901	-23.398459	21.609041	31.566823	-0.524678	0.195229	0.951103
3.87176	-25.651917	-10.931242	338.333821	-96.128203	51.045656	0.118648	-1.372916	-0.038362	3.654271	2.075037	7.919657	8.630164	-12.301515	8.41536	-0.10807	0.342223	-0.114074	12.533469	3.270391	-1.840226	-32.264457	12.831888	23.068107	-0.484635	0.16611	0.933693
18.177138	-8.678042	5.518769	-225.678948	-118.193824	76.352361	0.179624	-1.405228	-0.014001	2.460011	3.453939	7.717401	-1.230693	-12.951489	11.513165	-0.10807	0.342223	-0.102066	12.81996	4.660387	-1.599917	-36.719522	8.465113	-8.53967	-0.518473	0.163972	0.952509
16.410057	0.074997	23.940351	-31.051824	-166.72179	74.281393	0.115184	-1.389049	-0.073578	3.279686	2.303369	9.091648	-8.461811	-13.187342	15.252558	-0.10807	0.324211	-0.102066	12.244759	5.87656	-1.776936	-37.118755	5.40501	-36.030343	-0.488188	0.179361	0.941535
16.092727	-6.857544	13.341333	189.335448	-166.844987	82.76381	0.130614	-1.347502	-0.129269	3.448158	2.30296	9.035908	-9.855793	-13.589515	15.153836	-0.10807	0.336219	-0.102066	11.14145	5.2945	-2.942807	-34.03824	2.740236	-35.584898	-0.472145	0.191809	0.918959
16.377404	-8.787875	7.331987	147.505045	-179.544336	84.305461	0.128942	-1.325738	-0.184854	2.139537	3.395943	8.713986	-10.721737	-14.596579	14.31734	-0.114074	0.336219	-0.096063	10.461509	5.296654	-2.785045	-31.504959	-0.196332	-13.112802	-0.449898	0.173	0.897787
15.073574	-9.83659	5.16518	138.03456	-224.717353	86.097523	0.127533	-1.344123	-0.183749	2.993594	2.018166	8.850722	-8.348768	-13.3783	12.918725	-0.102066	0.342223	-0.096063	10.181878	4.429565	-2.623343	-29.527948	-2.6087	2.460675	-0.50243	0.17642	0.929932
13.758783	-12.570079	2.358357	93.475435	-280.715179	95.217742	0.124451	-1.340745	-0.238229	3.057848	2.704591	9.381592	-5.281014	-13.414543	11.167177	-0.090059	0.336219	-0.096063	10.130474	3.330436	-2.458187	-29.093374	-4.569469	0.734565	-0.551364	0.198852	0.893717
13.072316	-11.517182	5.410197	-6.511039	-325.786786	102.100573	0.100422	-1.392793	-0.308554	3.288273	2.703503	9.621939	-2.990384	-13.470846	10.987606	-0.10807	0.342223	-0.096063	10.552615	3.393056	-1.251105	-29.519816	-7.520937	-11.372355	-0.487761	0.165606	0.963249
11.801679	-10.464985	7.930273	-30.284258	-359.32649	107.890458	0.036627	-1.397253	-0.330706	3.055142	1.788419	9.088215	-0.470161	-13.487583	11.049434	-0.102066	0.342223	-0.090059	10.626463	2.817659	-0.453317	-25.462775	-8.178761	-21.490157	-0.473045	0.187056	0.936049
10.155933	-10.693306	8.821604	-62.765604	-376.430636	112.392813	0.002544	-1.377155	-0.406447	3.053778	2.246759	9.087403	-0.118527	-13.550852	11.372502	-0.120078	0.336219	-0.084055	10.192077	3.518583	0.68267	-24.203206	-8.387285	-27.045551	-0.500677	0.153662	0.95627
8.17269	-9.701419	10.113715	-94.925688	-387.599559	114.227344	-0.056333	-1.44813	-0.513983	3.006868	2.303308	9.617217	2.977744	-14.858201	11.268823	-0.120078	0.342223	-0.096063	9.404791	3.059107	1.121537	-18.63884	-7.997108	-23.904697	-0.472618	0.1733	0.957762
7.384534	-8.944129	10.908937	-127.776516	-394.700688	112.362958	-0.108927	-1.4662	-0.588512	3.11882	2.303069	9.56039	6.762766	-16.393762	10.81647	-0.120078	0.360234	-0.096063	8.899173	3.003812	1.453691	-13.663969	-4.666576	-14.962512	-0.456149	0.171992	0.956899
7.127175	-7.605096	12.467435	-163.184227	-401.67957	106.437349	-0.253881	-1.454752	-0.689399	3.282541	2.073997	9.210055	15.212735	-19.305809	9.148365	-0.10807	0.342223	-0.084055	8.103446	2.252751	1.434506	-9.18358	-0.368879	-7.605612	-0.437927	0.147926	0.982374
6.015377	-6.961042	14.296185	-199.662948	-408.984724	97.130726	-0.308267	-1.51072	-0.74356	2.817132	2.878469	8.609939	14.395084	-19.747365	8.748046	-0.120078	0.348227	-0.10807	7.467844	1.788466	0.906185	-6.734971	4.611698	-4.618797	-0.425011	0.15987	0.989353
4.980175	-6.082497	17.109488	-231.537254	-411.700842	85.213555	-0.452576	-1.51991	-0.807022	2.646934	2.363552	8.489592	11.193604	-18.999202	10.086627	-0.120078	0.342223	-0.114074	6.727695	1.732048	0.891281	-4.254348	8.426049	-7.691322	-0.422358	0.141865	0.998601
3.78778	-5.318054	20.670675	-264.407502	-408.578641	71.237699	-0.528741	-1.409821	-0.9276	3.262981	2.075824	8.148052	7.803096	-19.781548	11.117603	-0.120078	0.342223	-0.102066	6.423161	1.4963	-0.143061	-3.615858	10.876901	-13.342014	-0.439254	0.156929	0.97775
2.952175	-4.436322	24.874962	-293.830162	-404.094151	52.040466	-0.701353	-1.425183	-0.938578	3.333627	2.074334	8.91614	5.422967	-19.939645	10.143345	-0.126082	0.354231	-0.078051	6.147454	1.498972	0.308045	-5.252141	13.417591	-16.621351	-0.461501	0.175738	0.998921
0.675806	-1.761478	25.934151	-278.807674	-414.42767	26.225945	-0.812869	-1.413194	-1.001149	3.653333	0.929594	7.685687	-11.125647	-18.795362	7.66631	-0.114074	0.330215	-0.096063	5.733539	1.264502	-0.50018	-8.883177	14.643977	-17.648103	-0.404989	0.145311	0.980648
-2.986874	-1.154965	35.109332	-354.703086	-419.369606	-12.386749	-0.928538	-1.295666	-1.016865	3.984084	0.809691	10.287331	-10.221686	-23.323952	3.820151	-0.126082	0.348227	-0.090059	5.781813	1.088596	-0.95658	-16.197054	13.883617	-11.735961	-0.455723	0.158237	0.978613
-7.290705	8.812541	26.841376	-292.119964	-419.663095	-50.922307	-1.067712	-1.310488	-0.989527	3.934575	2.470225	10.932302	-6.607175	-31.829529	0.08379	-0.120078	0.342223	-0.090059	4.997099	1.614411	-0.284876	-12.412321	13.809369	0.581536	-0.423258	0.137112	1.015691
-19.219741	-4.939744	23.391849	-292.270168	-418.516946	-72.044022	-1.158903	-1.381908	-0.865081	3.510054	3.041772	12.515598	4.710662	-48.184822	2.115484	-0.132086	0.342223	-0.096063	4.463336	0.973317	-1.439747	-19.912917	13.842394	4.485864	-0.485535	0.161356	0.950783
-19.455658	4.317856	35.141322	-499.600126	-370.377191	-83.640536	-1.207553	-1.363112	-0.671522	4.002963	3.958135	11.815752	7.20314	-56.645058	1.327742	-0.126082	0.354231	-0.10807	3.939015	1.261194	-2.01949	-26.305477	13.696395	11.061027	-0.425011	0.15987	0.989353
-23.978657	7.030667	27.02477	-364.417299	-332.137911	-90.147225	-1.148414	-1.332288	-0.507296	3.20924	4.418962	11.740727	16.660862	-68.641948	0.678065	-0.120078	0.360234	-0.084055	3.639657	1.258346	-2.767319	-33.682868	14.626345	22.77421	-0.421931	0.12811	1.020314
-31.828808	21.675304	31.122732	-502.010188	-266.886135	-115.92694	-1.14789	-1.412588	-0.393918	3.615679	4.073101	12.279944	13.456148	-81.403165	3.993489	-0.13809	0.354231	-0.090059	4.357838	1.599251	-3.835852	-43.153821	16.653048	31.086251	-0.425484	0.141361	1.028157
-33.887078	8.614159	77.225577	-446.705766	-192.231822	-154.006504	-1.038166	-1.462475	-0.310978	3.277371	4.53226	12.390612	15.660383	-92.22882	6.95824	-0.174113	0.360234	-0.090059	4.733541	3.504567	-4.78986	-40.153491	21.249866	25.246455	-0.392973	0.152501	1.004717
-52.475579	29.1414	37.549003	-28.533467	-60.519938	-71.370659	-0.921732	-1.540978	-0.333791	2.45808	4.823646	10.899887	12.6064	-103.725542	13.840813	-0.168109	0.372242	-0.084055	4.945183	4.832574	-5.464415	-36.416987	25.162619	6.214319	-0.395199	0.15675	1.017183
-90.776807	24.394392	26.661023	100.500356	7.581094	-44.020698	-0.826673	-1.593388	-0.233688	3.515637	4.816822	13.102453	3.881903	-116.434142	20.54231	-0.174113	0.366238	-0.090059	6.339056	5.878814	-3.948258	-34.950975	27.614738	-9.188413	-0.428136	0.159366	1.018909
-88.766707	15.424722	14.716422	151.9827	163.051199	114.570596	-0.795672	-1.610107	-0.212428	4.661432	2.92185	13.658538	6.268378	-132.560656	23.623489	-0.186121	0.366238	-0.078051	8.722387	5.76966	-1.447644	-27.803589	21.654527	-4.148602	-0.409015	0.140054	1.027294
-59.754283	18.904643	25.763054	125.875773	316.836355	208.902887	-0.777281	-1.631601	-0.137685	6.119079	2.512481	16.046421	3.402092	-151.191073	22.440285	-0.192125	0.348227	-0.084055	10.81818	5.950032	0.934468	-15.263847	12.005827	14.462601	-0.409441	0.153809	1.00558
-9.76706	-0.270132	14.28701	321.306675	287.327543	383.0062	-0.742695	-1.572524	-0.157163	7.577279	1.186637	18.317928	9.364312	-178.282913	14.893668	-0.204133	0.360234	-0.072047	12.390358	4.912448	2.615818	-14.097074	1.270935	30.651131	-0.378349	0.109423	1.098551
11.24897	-11.325511	11.847009	204.523179	276.829148	354.011883	-0.803671	-1.540213	-0.181524	7.912291	-0.365577	20.92211	12.47638	-212.795781	2.987722	-0.210137	0.366238	-0.054035	11.811039	3.636974	1.970758	-24.21108	-10.851058	42.039713	-0.345884	0.088298	1.135629
18.994097	-15.157496	14.59261	77.219834	292.151837	274.19933	-0.882131	-1.547196	-0.186514	8.211345	-0.430353	24.879569	7.754138	-256.512854	-12.625029	-0.228148	0.38425	-0.066043	10.710198	3.518873	0.978267	-42.183777	-16.388218	34.640469	-0.359181	0.122374	1.046419
-2.841885	-11.679555	27.40039	35.004073	192.883469	157.560828	-0.91416	-1.52935	-0.225935	8.767031	0.188653	30.610162	5.193599	-313.083687	-27.44324	-0.24616	0.396258	-0.036023	10.769485	4.619843	1.212757	-39.544183	-29.899471	13.866344	-0.377876	0.127931	1.059748
-10.635438	-28.642278	18.246281	205.503857	25.656399	-124.19087	-0.910959	-1.473067	-0.247409	6.869323	0.53076	34.996533	7.281323	-380.45252	-43.496504	-0.27618	0.372242	-0.03002	11.001984	8.256232	-1.048738	-31.393096	-46.81907	-4.017586	-0.41214	0.13955	1.05685
-2.482874	42.179167	1.878738	438.631011	-28.480626	24.152388	-0.875084	-1.455267	-0.192037	2.047252	0.71364	37.026783	20.821361	-458.807348	-56.839549	-0.306199	0.38425	0	10.687053	9.871591	-2.417221	-0.330128	-65.23446	-7.399789	-0.393872	0.147748	1.021807
12.220285	-5.898615	0.321193	144.684517	34.442106	98.576819	-0.857458	-1.515785	-0.078765	-0.015341	1.696082	35.628934	35.432191	-540.187309	-60.398105	-0.342223	0.390254	0.012008	11.06225	11.153041	-0.577731	7.275278	-80.596459	15.782595	-0.395671	0.138242	1.055987
-9.452637	10.414055	16.226324	-107.861839	63.33541	-58.991407	-0.921253	-1.520245	-0.100917	-1.159404	0.107245	28.473197	58.817435	-607.522146	-49.738181	-0.348227	0.378246	0.048031	9.515971	9.024311	1.607602	20.445099	-80.167522	59.909691	-0.360508	0.131377	1.041795
4.630581	10.621303	11.884017	199.863155	-2.846593	-4.976963	-0.913636	-1.609651	-0.112556	7.761584	5.694263	29.04794	3.791468	-622.527004	-27.399465	-0.378246	0.402262	0.090059	7.952593	5.848978	2.817637	15.302104	-60.208608	92.624667	-0.32539	0.092247	1.08812
2.055855	1.359527	-2.753242	101.534561	9.561343	-2.804446	-0.919843	-1.501859	-0.102022	10.215338	1.102627	29.633788	13.541298	-579.204906	-43.863267	-0.402262	0.396258	0.114074	8.787072	3.815378	1.626395	18.162212	-46.744059	98.564954	-0.311101	0.127453	1.039206
-2.063201	-0.166869	12.24463	-191.329787	56.613467	-39.408264	-0.856048	-1.4974	-0.079869	7.555161	-4.554276	25.40484	39.354038	-529.146232	-86.79974	-0.420274	0.408266	0.180117	11.689837	3.345879	1.567546	12.266961	-40.121639	70.740349	-0.313754	0.145458	1.029959
0.784037	2.446937	14.214812	71.443424	15.795158	16.991564	-0.886787	-1.520831	-0.044441	2.958045	-8.386438	29.805463	94.013646	-494.621529	-137.185541	-0.420274	0.402262	0.216141	14.146157	3.979951	2.075604	8.820809	-30.972742	23.356617	-0.328043	0.110252	1.078873
-0.828986	0.046499	5.045775	55.431357	17.275178	-15.968516	-0.905561	-1.518849	-0.099919	-5.016664	-15.292354	28.248525	149.153992	-458.72751	-190.311518	-0.438285	0.402262	0.234152	13.844308	4.671596	1.273837	10.112282	-21.720449	-12.604011	-0.265719	0.118272	1.083263
-0.231195	1.100828	9.22124	-69.580443	30.104977	-12.745073	-0.851819	-1.442242	-0.083183	-17.473021	-19.455491	4.660515	185.880316	-366.231382	-216.637944	-0.450293	0.402262	0.264172	12.005104	5.308417	0.441398	21.837181	-14.245689	-25.377448	-0.261267	0.109774	1.058331
-1.16386	1.629468	11.400028	1.53936	18.223979	-9.606764	-0.858867	-1.534171	-0.07766	-37.855725	-17.163199	-27.996761	142.560023	-159.765243	-134.495982	-0.432281	0.390254	0.294191	11.432509	5.7722	0.318054	35.021965	-11.362732	-24.85343	-0.300883	0.125137	1.097455
-1.30577	-2.263054	9.827381	-13.986196	19.281446	-7.11632	-0.888842	-1.518578	-0.080761	-30.544895	-9.652085	-10.234367	-60.220341	80.250971	-23.724558	-0.432281	0.38425	0.306199	11.652978	4.901196	-0.138121	41.167219	-8.195016	-14.280048	-0.302683	0.115631	1.131635
-0.888016	1.279536	10.826757	-2.176368	18.116103	-14.901041	-0.876996	-1.552827	-0.095714	-26.557148	-4.19395	7.762571	-83.852256	281.113227	56.201632	-0.432281	0.38425	0.282184	10.632971	4.093482	0.009203	38.119893	-5.572177	-1.511165	-0.267519	0.108766	1.117443
-0.827296	1.621114	8.112587	18.298026	11.606349	-8.626734	-0.857075	-1.496273	-0.09803	-16.252795	-3.674306	21.289017	-11.950199	391.977388	99.912575	-0.402262	0.390254	0.300195	9.947296	3.572991	-0.177954	30.334279	-3.253619	-3.197214	-0.266146	0.132028	1.06155
-1.437101	0.695558	9.138445	-24.230488	12.607876	-12.738993	-0.874177	-1.516056	-0.097923	-10.923704	-5.868352	21.926021	73.721963	429.575938	105.94145	-0.41427	0.396258	0.27618	10.287591	4.267066	-0.168042	24.36042	-1.124981	-17.440111	-0.235008	0.119906	1.094003
-1.758878	-0.172093	10.227971	-20.038366	11.538987	-7.901595	-0.860277	-1.552557	-0.076556	-9.436208	-8.613517	16.356304	106.24485	432.792486	107.282558	-0.402262	0.396258	0.252164	10.852621	4.786207	-0.325691	24.050907	-1.263713	-26.951323	-0.266192	0.099764	1.122067
-1.798453	-0.866454	11.092373	-3.34753	10.070441	-4.966687	-0.817309	-1.543862	-0.146202	-7.611129	-13.765175	10.325369	89.58878	425.587707	109.802476	-0.390254	0.402262	0.252164	10.952765	4.898618	-1.008018	29.009986	-4.958812	-27.787202	-0.281761	0.105825	1.10584
-1.244893	0.059297	10.123188	16.680959	7.788435	1.522662	-0.888842	-1.518578	-0.080761	-5.768281	-16.856538	5.588783	23.089561	417.116142	109.759588	-0.360234	0.41427	0.210137	11.753828	3.507775	-0.941467	33.455775	-11.461059	-17.457384	-0.25105	0.107458	1.11658
-1.623569	0.113481	8.382026	19.410827	0.1768	5.759662	-0.862593	-1.510154	-0.169565	-6.061596	-18.000215	4.818377	-72.605208	413.894286	105.650292	-0.354231	0.444289	0.204133	9.708056	2.528157	-0.872297	27.492323	-11.359884	-8.591101	-0.316453	0.131198	1.081228
-0.669337	0.69749	10.251784	-18.029824	5.22981	-0.599341	-0.909025	-1.534982	-0.135135	-6.137646	-15.826822	7.172353	-162.450324	418.63147	100.481715	-0.366238	0.444289	0.204133	8.166765	2.182799	-1.132651	23.330647	-7.707301	-16.62008	-0.235907	0.115153	1.111093
-1.404651	0.235129	10.75614	7.60954	2.500074	0.543176	-0.864385	-1.548052	-0.149196	-5.988355	-12.685451	12.713873	-217.854983	429.011586	92.7873	-0.342223	0.456297	0.204133	8.042514	2.296453	-1.648208	15.634632	-5.117252	-28.283672	-0.247497	0.094207	1.108738
-1.027104	0.405933	9.55045	3.820205	2.110069	0.403314	-0.894742	-1.551971	-0.133032	-5.868425	-7.708489	16.95414	-230.753262	442.559484	85.787794	-0.330215	0.474309	0.216141	8.837923	2.062749	-1.747676	14.521821	-2.751682	-29.629235	-0.214559	0.091591	1.107012
-0.428688	1.046921	10.835342	-7.163979	5.323328	-1.587225	-0.909025	-1.534982	-0.135135	-4.356069	-4.223057	19.867208	-214.1019	451.221353	80.426169	-0.330215	0.468305	0.228148	8.729759	3.164848	-1.345289	13.937335	-2.474567	-28.139968	-0.237707	0.105646	1.145273
-0.257024	1.569138	10.840029	0.649592	13.292118	-5.143294	-0.830565	-1.527999	-0.130144	-2.324775	-3.083344	19.904297	-188.316777	451.103554	76.145855	-0.330215	0.498324	0.240156	8.896072	3.742682	-1.510558	15.53714	-2.935777	-28.763028	-0.219011	0.100089	1.131944
-0.143082	2.439667	10.844411	-1.74578	29.054916	-11.650734	-0.860921	-1.531918	-0.11398	-0.172452	-2.803866	20.240083	-177.038918	440.287251	72.324936	-0.342223	0.498324	0.258168	8.607545	2.815594	-1.805856	16.462917	-4.148823	-26.772263	-0.201216	0.089779	1.135705
-0.848471	0.812903	9.901746	-5.284887	31.936771	-17.498643	-0.893333	-1.533585	-0.134137	1.800852	-3.725799	19.866739	-184.757478	421.410864	67.380957	-0.342223	0.516336	0.264172	8.50888	1.95053	-1.126945	14.743692	-5.031618	-24.466925	-0.200316	0.094532	1.118615
-0.664289	1.394701	10.542535	-26.224435	39.049386	-19.520043	-0.862331	-1.550304	-0.112876	2.671038	-5.047808	20.888376	-207.748415	402.784703	59.981499	-0.348227	0.49232	0.264172	7.997516	1.951817	-1.07999	16.559583	-5.588643	-22.578386	-0.20117	0.122043	1.075188
-0.937822	0.525876	11.170686	-21.891533	44.361844	-20.107693	-0.849076	-1.566167	-0.128933	5.164318	-3.571827	24.590473	-223.856774	386.94827	48.463649	-0.38425	0.486317	0.270176	7.595762	1.836032	-1.259676	19.542486	-5.923639	-24.359263	-0.249723	0.098456	1.121204
-1.117179	0.87346	10.821207	-17.128422	49.252283	-17.606091	-0.829537	-1.529125	-0.111984	6.111784	-4.213736	29.917905	-239.631974	380.06383	33.861004	-0.402262	0.462301	0.282184	7.089131	1.722577	-0.984877	24.306323	-5.703932	-31.068183	-0.23548	0.101397	1.132807
-1.27415	0.527188	11.568532	-13.483807	53.750513	-13.474432	-0.879695	-1.529936	-0.169459	9.677266	-1.07471	30.747782	-224.562343	387.964156	21.893524	-0.420274	0.456297	0.270176	6.929905	1.551858	-0.418122	26.76185	-4.345762	-35.888963	-0.233254	0.097148	1.120341
-1.403452	0.177226	10.813815	-5.517886	57.697402	-8.94858	-0.816927	-1.52435	-0.165467	13.266114	0.062566	29.458293	-225.402436	388.733176	26.206255	-0.438285	0.426277	0.252164	6.421124	1.959208	-0.19805	25.710867	-2.29486	-38.695237	-0.253276	0.111707	1.129046
-1.460785	0.119239	10.812533	-4.112243	61.936287	-6.302134	-0.772287	-1.53742	-0.179528	21.113549	1.528884	29.370697	-246.015632	374.123092	36.029405	-0.474309	0.408266	0.204133	6.08835	2.599117	0.311913	27.639377	1.377834	-38.861822	-0.246598	0.09896	1.091648
-1.796556	-0.459876	11.208981	1.588237	67.890047	-2.25106	-0.8218	-1.558869	-0.199578	26.232807	6.675614	25.921522	-281.721041	346.601363	53.851407	-0.498324	0.378246	0.162106	5.863409	1.731389	0.360558	28.311384	4.171543	-30.388622	-0.201643	0.103535	1.113991
-1.689726	-0.519008	10.806424	5.424876	72.679926	0.421415	-0.793497	-1.552697	-0.252062	32.772028	12.385086	26.037421	-308.770834	310.765559	77.215164	-0.516336	0.366238	0.10807	5.779476	1.970299	1.900845	27.294755	6.274741	-18.085348	-0.178069	0.075723	1.097444
-1.037405	0.179547	11.919154	2.336158	80.349673	1.879381	-0.801235	-1.522953	-0.164469	40.69477	20.326834	24.937524	-283.932783	267.159512	93.062814	-0.570371	0.366238	0.024016	5.682142	2.148159	2.755763	27.910605	6.558137	-11.879492	-0.214986	0.105346	1.085298
-0.751243	0.991867	11.926825	4.416588	88.589395	-1.223785	-0.839546	-1.558013	-0.236896	48.985187	24.895797	18.719295	-218.403669	210.089516	91.15967	-0.588383	0.38425	-0.072047	5.757447	1.978562	3.669576	27.697694	6.030494	-7.463995	-0.199844	0.113041	1.079812
-2.756209	-0.398931	11.999097	5.902559	98.732458	1.968873	-0.79247	-1.553823	-0.233902	61.592491	26.648368	10.229705	-141.60117	130.520603	74.220254	-0.600391	0.420274	-0.180117	4.960002	2.675174	3.714055	26.346913	5.740217	-1.408596	-0.228329	0.107158	1.056605
-1.97841	-1.324564	13.572718	-3.428529	111.826822	4.073013	-0.743985	-1.531248	-0.232012	63.373167	23.27643	2.071617	-90.965613	49.419986	20.042181	-0.606395	0.462301	-0.240156	5.729154	3.18834	2.361976	18.689524	6.273687	-0.391652	-0.213614	0.128608	1.029405
-1.581304	-0.331605	16.299246	8.993326	130.74093	9.107864	-0.75724	-1.515385	-0.215955	64.520417	21.276988	-3.44694	-66.687318	-17.179239	-37.870531	-0.588383	0.510332	-0.318207	7.482678	3.413771	1.82702	11.431862	7.199037	3.462724	-0.21366	0.096344	1.089922
-1.60857	-0.509086	14.911272	23.731032	153.276215	12.891777	-0.746039	-1.528995	-0.268332	57.355037	19.974987	-0.043685	-60.345751	-73.906635	-87.662586	-0.606395	0.540352	-0.360234	8.876864	3.461989	0.371043	15.280327	7.244783	24.278967	-0.232355	0.101901	1.103251
-1.59449	0.305328	15.664821	12.360327	177.019251	17.559819	-0.748476	-1.546255	-0.285388	44.569283	21.95184	5.487125	-41.722238	-124.027121	-120.111804	-0.642418	0.570371	-0.372242	9.531583	3.106411	-1.101416	10.029015	7.841023	56.162475	-0.196718	0.113545	1.050256
-1.667646	-1.372908	17.681999	12.930508	208.531453	23.424417	-0.717092	-1.543462	-0.283392	30.303971	-22.017023	12.306839	-7.661879	-160.697145	-122.592494	-0.696453	0.576375	-0.366238	9.804355	3.450592	-1.665129	5.502771	11.999006	69.526319	-0.232309	0.134165	1.042734
-1.157134	-2.528058	20.232198	20.777466	245.820752	32.195645	-0.701662	-1.501915	-0.339083	-6.946897	-38.166774	-28.074403	711.636562	-288.195878	-224.375233	-0.762496	0.564367	-0.336219	9.453565	1.524282	-5.219148	46.223545	20.986417	67.732747	-0.226957	0.13042	1.000712
-1.408363	-2.813661	22.018042	38.09069	290.694689	44.996274	-0.676561	-1.552026	-0.370093	-67.630609	-45.747347	22.673819	362.814007	-196.319602	-265.058934	-0.792516	0.504328	-0.318207	7.982015	-2.467349	-5.209477	53.377056	23.288599	42.399036	-0.247024	0.112715	1.069934
1.717574	-2.574099	26.357472	30.404653	346.52702	55.693231	-0.640948	-1.494076	-0.371411	-15.799414	-19.868635	43.324707	605.676652	-227.526207	-189.473787	-0.816531	0.426277	-0.312203	5.291599	2.369124	0.295094	17.145767	18.464008	-34.512011	-0.230082	0.129916	1.030268
4.399989	-1.417537	25.720209	71.309819	406.628791	58.716508	-0.580999	-1.525261	-0.36521	8.527173	3.438983	5.828753	618.206814	-133.098687	-299.839091	-0.846551	0.366238	-0.312203	4.925646	8.691142	2.59955	-0.189259	7.04847	-118.168751	-0.278163	0.124837	1.03748
4.995014	3.474791	32.852308	68.699473	471.335152	44.195465	-0.555133	-1.536349	-0.43475	4.471737	0.591234	2.983669	271.234822	-178.257428	-246.005316	-0.864563	0.288188	-0.300195	5.292965	13.143111	1.485831	15.258994	1.140759	-120.121161	-0.233635	0.143168	1.03811
4.872392	4.74396	29.616612	128.010642	517.597363	20.753733	-0.541233	-1.57285	-0.413382	10.539503	-0.001652	4.103958	400.711387	-112.364808	-146.218036	-0.864563	0.234152	-0.288188	7.196346	12.307287	-3.102895	22.167932	5.06179	3.661754	-0.298657	0.120888	1.084989
1.601578	7.997942	29.732732	115.92047	545.156513	-6.127017	-0.429335	-1.565327	-0.370076	-5.609268	7.147901	5.786596	303.569521	-58.282046	-126.43565	-0.876571	0.186121	-0.252164	9.632233	10.766632	-9.624647	3.902945	33.520684	145.784534	-0.230982	0.125163	1.047358
-2.612932	9.217965	28.438119	111.956433	543.072731	-45.444086	-0.41608	-1.581189	-0.386134	-2.849478	4.90156	8.02572	210.456174	-84.646989	-45.317551	-0.870567	0.156102	-0.258168	12.026239	9.54603	-9.582865	-32.990113	49.758156	174.766604	-0.262121	0.137285	1.014904
-5.856323	0.800281	26.445963	159.166476	504.081792	-61.271741	-0.305209	-1.57254	-0.360987	6.411357	8.435753	2.181792	183.181757	-77.597124	-19.48366	-0.894582	0.13809	-0.258168	11.004843	4.857156	-9.90989	-10.142733	58.728416	156.984465	-0.246978	0.14498	1.009417
-3.086274	0.218999	27.25102	177.15314	467.083787	-70.915396	-0.239097	-1.610483	-0.245826	-2.136584	10.816195	-1.407377	114.957049	-36.343643	-41.407367	-0.882574	0.126082	-0.24616	9.99665	1.169457	-6.579675	-26.140819	69.172752	85.733654	-0.245652	0.135977	1.014041
2.909633	2.255382	31.76756	227.662266	417.023463	-71.6017	-0.157938	-1.626391	-0.167091	0.241922	4.091919	7.024903	26.413467	-16.673784	5.72722	-0.888578	0.13809	-0.240156	12.159511	1.931307	-3.622886	-38.106428	60.929246	-21.203568	-0.283895	0.174603	0.997271
7.099078	-0.244794	31.729359	297.039605	378.453658	-76.877083	-0.109573	-1.663478	-0.089248	1.897138	2.309896	7.649565	23.494861	-20.815947	9.893857	-0.870567	0.114074	-0.240156	14.455775	4.537615	-2.367072	-49.723817	28.017622	-75.657814	-0.297285	0.14415	1.029096
15.080766	-10.184008	5.51123	518.813284	222.971248	-71.895451	-0.131975	-1.636257	0.015508	4.256405	0.986738	6.694536	7.757077	-16.52513	17.137254	-0.870567	0.126082	-0.222145	16.850612	6.908429	-1.909347	-37.531942	-0.819975	-25.702138	-0.330223	0.146766	1.030821
15.213679	-21.943256	-8.673615	450.467288	79.446804	-89.303518	-0.02576	-1.601243	0.182727	2.208884	4.196446	9.539653	0.952202	-15.002427	19.058036	-0.864563	0.120078	-0.234152	16.442255	6.978276	0.479777	-39.703008	-11.713181	41.762363	-0.308829	0.155468	0.966223
5.803129	-16.180023	-5.610745	85.45957	-28.48457	12.150356	0.027096	-1.623323	0.313946	1.826756	4.769142	10.357034	-0.418549	-16.647355	16.592279	-0.864563	0.120078	-0.228148	15.965737	4.728701	2.057969	-43.09364	-4.151706	76.641473	-0.296385	0.148903	1.012006
13.6479	-4.472327	14.56984	-15.493434	-140.400396	59.22035	0.053179	-1.573528	0.420591	1.386076	3.113524	7.638364	-11.141626	-16.690189	13.673042	-0.876571	0.126082	-0.222145	13.634373	2.475143	1.944449	-52.584411	3.93014	60.931355	-0.299938	0.162155	1.019848
10.82704	-5.269231	19.82855	93.243846	-191.125779	96.124074	0.072718	-1.536486	0.43754	1.517547	6.777158	9.227045	-8.217962	-15.05764	16.885002	-0.864563	0.13809	-0.234152	13.032074	1.425996	0.158598	-65.6542	12.911481	-1.977789	-0.32885	0.170028	0.974928
12.479376	-6.904759	16.274411	186.47633	-208.613629	116.180189	0.107948	-1.498048	0.455487	2.034786	3.166404	9.12522	-12.176573	-13.979671	16.727227	-0.882574	0.132086	-0.228148	12.364777	3.329154	-1.729158	-71.553838	17.556399	-74.369952	-0.327524	0.161025	0.979552
11.978321	-9.412642	11.114887	213.368265	-227.275593	128.012783	0.157461	-1.476599	0.475536	2.250297	3.796751	8.656448	-11.85796	-13.882005	17.556177	-0.882574	0.168109	-0.222145	11.588543	5.581232	-3.332127	-71.247247	14.968975	-102.150403	-0.389847	0.153005	0.975161
11.067492	-11.863071	5.542798	199.772626	-260.070813	140.257171	0.162979	-1.462718	0.547072	1.694135	3.683058	9.117786	-10.272856	-11.650705	17.610755	-0.870567	0.13809	-0.234152	10.666154	7.318104	-3.741907	-60.557311	8.401462	-67.643163	-0.372478	0.156451	0.957209
9.983483	-13.493693	2.858833	152.965491	-307.60008	156.01834	0.216982	-1.426262	0.620497	2.147591	2.879702	9.0689	-10.531415	-8.316555	15.949136	-0.882574	0.132086	-0.222145	10.05963	5.817992	-2.904747	-50.228638	2.58181	2.932451	-0.306602	0.151219	0.953757
9.700446	-12.796343	3.086054	67.753951	-350.771429	166.451138	0.27385	-1.454068	0.572218	5.049752	-0.452864	9.661208	-9.993783	-9.494529	15.452362	-0.870567	0.150098	-0.210137	9.73839	4.027829	-2.063271	-45.782805	-1.149582	45.490687	-0.357336	0.164145	0.951722
9.706345	-12.033907	6.324354	9.820106	-384.370234	171.033908	0.310107	-1.416757	0.608325	2.543675	2.362979	9.01842	-2.264805	-9.046503	13.747893	-0.888578	0.150098	-0.216141	9.591928	1.948632	-1.048455	-42.674412	-3.857364	34.377875	-0.354683	0.14614	0.960969
8.767019	-10.51924	8.216444	-29.75685	-401.247371	165.746246	0.330717	-1.481875	0.523939	3.790066	1.728911	9.102443	-0.733799	-9.227482	14.175037	-0.894582	0.144094	-0.228148	8.933523	0.73943	0.074353	-37.174614	-6.899414	-5.95303	-0.372051	0.142695	0.978922
7.46814	-9.818793	9.290313	-45.299136	-408.544468	157.865359	0.360429	-1.457317	0.47035	2.036128	1.619813	8.95096	1.810147	-8.408511	11.384988	-0.888578	0.150098	-0.216141	8.77631	1.264256	0.815539	-33.801561	-7.517268	-46.23574	-0.375131	0.174455	0.947961
7.336972	-9.414339	8.479599	-91.177797	-410.057277	138.92783	0.395705	-1.519913	0.368802	3.322548	2.87724	8.442718	6.076903	-8.88096	12.188425	-0.882574	0.168109	-0.222145	7.982915	2.193505	1.089438	-29.53119	-8.051615	-62.444521	-0.352503	0.109627	1.009021
6.272107	-8.59747	9.789578	-132.3614	-410.322961	116.323879	0.412589	-1.561014	0.192511	3.283052	1.902119	9.210359	7.821788	-9.469264	10.758556	-0.876571	0.156102	-0.216141	7.351238	2.59898	0.85052	-24.146836	-8.279081	-46.716784	-0.386767	0.121245	1.006123
1.2724	-4.936359	9.525499	-180.535149	-404.405891	96.282794	0.446454	-1.641995	0.092068	2.897835	2.417828	9.850841	13.959823	-12.237768	9.399991	-0.876571	0.168109	-0.234152	7.120314	2.482854	0.674213	-21.158097	-7.495808	-12.276157	-0.354256	0.132385	0.982683
1.748637	-5.159837	13.2909	-240.029956	-428.102371	72.330413	0.378596	-1.742983	-0.122219	2.324181	2.706705	9.426466	15.876543	-13.695102	9.545877	-0.876571	0.162106	-0.210137	7.17265	1.960358	0.387513	-20.014666	-7.016095	16.284986	-0.372951	0.137942	0.996012
3.985494	-5.496317	19.056014	-268.011702	-433.082825	63.285467	0.284347	-1.752584	-0.380346	3.163365	1.215763	8.737403	17.606262	-15.378776	7.675456	-0.882574	0.150098	-0.216141	7.109643	1.032289	-0.017464	-18.542192	-5.381216	18.854531	-0.408969	0.172318	0.966777
1.198863	-2.406792	23.342379	-268.400712	-407.638652	43.219963	0.191507	-1.743798	-0.639577	2.865917	2.191703	8.081242	13.594051	-16.759249	8.75249	-0.870567	0.156102	-0.204133	7.053826	1.032666	0.038502	-13.292634	-4.359193	-2.305035	-0.390746	0.148252	0.992251
1.17923	-5.776063	22.177979	-240.352776	-380.287378	33.468218	0.056848	-1.685172	-0.886955	3.226192	2.016875	9.20907	9.233599	-16.360143	8.812961	-0.864563	0.150098	-0.216141	7.447924	1.030818	-0.181983	-12.162078	-4.463728	-31.537729	-0.372478	0.156451	0.957209
-1.415272	-0.376428	21.792652	-261.803656	-353.189101	21.645319	-0.216221	-1.602343	-1.145525	3.055312	1.731127	9.088317	13.902987	-18.437225	5.574366	-0.864563	0.168109	-0.222145	7.009703	1.962539	0.783779	-12.074375	-4.38596	-49.128246	-0.385867	0.125998	0.989033
-1.834248	-1.931341	26.635033	-308.50662	-369.521481	1.274294	-0.445078	-1.451062	-1.279397	4.132251	0.696625	9.11079	10.934705	-20.585292	2.732335	-0.870567	0.162106	-0.210137	6.94995	1.672383	0.610062	-17.177654	-4.103838	-45.552524	-0.340867	0.162837	0.950859
-1.687084	0.5318	37.104232	-329.849036	-386.814588	-25.360704	-0.688096	-1.223129	-1.491325	5.087265	-1.367683	8.483916	6.176775	-24.40529	-2.902453	-0.882574	0.162106	-0.204133	5.404951	0.920698	0.119499	-35.924049	-3.925544	-17.423993	-0.390746	0.148252	0.992251
-7.312769	3.687345	19.662333	-154.191857	-424.422146	-20.026134	-0.939475	-1.10429	-1.444488	2.741657	2.302536	10.555786	12.058142	-29.768819	-10.197779	-0.882574	0.162106	-0.198129	5.105911	1.902614	-0.509677	-28.826911	1.234058	14.608898	-0.375604	0.155947	0.986764
-19.463193	1.212025	22.997386	-414.668748	-382.236687	-28.438249	-1.112057	-0.857922	-1.29243	3.448187	4.474355	12.452974	10.319855	-45.811601	-5.415069	-0.870567	0.180117	-0.192125	4.467374	1.785181	-1.150606	-43.125493	4.074292	26.026337	-0.356909	0.15039	0.973435
-18.389093	10.794216	25.584866	-433.38036	-330.548256	-62.19674	-1.245637	-0.698167	-1.150016	4.359467	3.955488	12.766274	26.178439	-62.776825	-7.203342	-0.876571	0.162106	-0.198129	4.341076	2.94097	-1.66143	-43.317881	6.396327	15.971016	-0.34134	0.144328	0.989662
-21.847288	16.324577	30.846236	-497.442274	-276.049096	-88.67567	-1.257955	-0.481363	-0.876808	3.738519	5.160098	12.98819	31.188009	-75.48486	-8.478732	-0.870567	0.180117	-0.186121	4.652896	2.643709	-3.197475	-45.755718	8.875348	1.7095	-0.342666	0.153331	0.985039
-31.939695	48.137909	52.972194	-492.244971	-147.836818	-139.584517	-1.232944	-0.329407	-0.668829	2.968418	4.993786	11.027363	32.93409	-88.670139	-2.897744	-0.864563	0.168109	-0.168109	5.038871	3.33504	-3.757359	-50.126469	10.95282	-1.543015	-0.405416	0.159066	0.958934
-50.42383	32.77356	28.35202	-18.815622	-132.393158	-179.807322	-1.19506	-0.212826	-0.457642	3.048502	5.105967	12.32625	27.526007	-97.17822	4.0464	-0.876571	0.156102	-0.162106	4.96649	3.737012	-4.498843	-45.460999	14.217464	1.220174	-0.405416	0.159066	0.958934
-66.184875	23.830558	19.925542	52.088674	-67.473568	-75.557731	-1.076354	-0.232699	-0.267951	3.058431	3.95951	12.682281	27.087775	-109.370176	9.646184	-0.876571	0.174113	-0.150098	5.719688	4.607396	-3.738061	-43.563867	17.920969	0.991558	-0.406742	0.168069	0.954311
-89.068934	11.577722	7.939442	159.258202	33.808965	93.894059	-1.122403	-0.238015	-0.252785	4.548457	3.265844	13.714755	23.371055	-125.339899	14.628139	-0.858559	0.168109	-0.120078	7.466723	4.960562	-1.704471	-35.414204	16.465554	0.579774	-0.392073	0.157254	0.987627
-69.897767	16.238883	23.242871	18.576526	216.479953	188.15567	-1.032787	-0.143609	-0.180678	5.144312	3.547657	15.436119	23.787912	-142.267186	16.215685	-0.870567	0.186121	-0.126082	9.974531	4.621961	1.311173	-33.145159	7.09848	12.247689	-0.443279	0.151672	1.024396
-51.44689	13.59823	19.154028	250.714723	291.246995	315.011931	-0.984564	-0.080883	-0.235478	6.655901	2.909253	17.648495	21.808971	-163.254972	12.469673	-0.864563	0.174113	-0.102066	10.980746	4.686861	3.271716	-20.389575	-2.515815	34.864119	-0.40409	0.150064	0.963558
-1.172432	-4.931172	10.632646	238.74134	327.305187	445.015348	-0.952032	-0.019554	-0.291276	7.807796	0.779495	21.566908	21.907293	-196.458281	5.794168	-0.858559	0.186121	-0.078051	12.291146	3.178413	3.176601	-25.650346	-12.183666	52.184586	-0.39032	0.134496	1.013965
15.830325	-10.750653	11.477326	111.123585	312.747968	395.384272	-0.916682	0.078547	-0.349283	8.923116	0.709999	26.896585	19.492863	-241.094014	-6.097681	-0.846551	0.186121	-0.048031	11.658013	3.178087	2.821659	-30.290255	-13.503678	48.459633	-0.392027	0.189519	0.92711
-2.44755	-17.102141	41.265085	-50.902487	169.417638	275.813724	-0.887876	0.163893	-0.496985	8.572529	0.530044	32.375212	20.411903	-299.920708	-21.031615	-0.846551	0.192125	-0.018012	10.613296	4.623601	1.951576	-24.731748	-14.934701	11.121749	-0.442333	0.188689	0.946789
-8.09365	-25.087522	25.124953	82.634253	16.77679	-174.108582	-0.825491	0.149967	-0.473729	7.712755	0.523501	37.843754	22.213681	-370.196304	-37.167229	-0.822535	0.198129	0.018012	10.222571	8.377823	-0.150505	-8.679219	-21.943207	-38.118552	-0.409868	0.167565	0.983866
-11.892924	40.505054	1.687237	629.92365	-31.695404	-57.730173	-0.841183	0.148571	-0.474727	2.918745	-0.327217	41.232836	46.360914	-446.019532	-56.236411	-0.810528	0.210137	0.048031	11.854621	10.744859	-0.849264	20.845497	-40.01953	-53.0806	-0.47707	0.181799	0.982694
7.795083	-3.362139	-8.660713	148.568723	27.64264	111.198258	-0.846056	0.114052	-0.508838	-0.554926	-1.798473	36.450263	69.697008	-530.636245	-66.659075	-0.804524	0.222145	0.096063	12.175696	11.737467	1.101969	29.544988	-61.026935	-13.973945	-0.427237	0.164119	1.001819
-1.957689	-4.812072	11.54196	-139.529478	73.411323	-72.397573	-0.861366	0.132167	-0.5291	-1.362506	0.043394	32.774877	106.710424	-600.525185	-67.295025	-0.792516	0.222145	0.13809	10.20119	9.776388	1.795811	50.870121	-60.905678	47.395434	-0.411241	0.144303	1.03976
3.587862	2.167104	19.644607	28.354531	28.449544	-35.613831	-0.831391	0.116575	-0.526	3.536895	4.560182	29.558473	84.013594	-641.789527	-41.258816	-0.750488	0.258168	0.198129	7.622651	5.620704	3.380749	43.340602	-46.289418	80.681627	-0.42809	0.191631	0.958392
5.790616	14.758825	-4.669043	295.392544	-11.487575	16.32906	-0.817109	0.099586	-0.523897	9.480159	2.708624	29.85282	51.547726	-620.625685	-42.616156	-0.726473	0.234152	0.240156	8.680524	2.948474	1.90566	43.141105	-38.573453	93.434659	-0.428136	0.159366	1.018909
-5.440324	-7.890166	9.326829	-194.646592	38.021027	19.892634	-0.867649	0.079263	-0.562107	7.236648	-3.810584	26.636004	55.149672	-573.957903	-81.899844	-0.702457	0.264172	0.27618	11.338519	1.954157	0.926466	27.201867	-35.257167	81.745662	-0.413467	0.148552	1.052226
-0.435766	8.903951	19.580808	-30.972827	27.874214	-40.368894	-0.803471	0.103235	-0.559219	3.09931	-4.718609	28.858223	58.919282	-540.056405	-115.217756	-0.678442	0.27618	0.318207	13.843659	3.281294	1.096252	27.779872	-23.611639	42.951382	-0.419199	0.198317	1.012017
-1.040348	0.390171	3.077482	115.231118	1.802513	-16.374531	-0.832418	0.117701	-0.54416	-12.277426	-11.534893	21.142989	99.410972	-470.11784	-167.624592	-0.654426	0.282184	0.342223	14.325046	4.199778	-0.373802	30.513164	-14.72421	-10.637875	-0.40363	0.192256	1.028244
-0.111068	0.288678	9.452829	-110.674606	33.53416	-19.296836	-0.865212	0.096522	-0.545051	-38.80093	-17.369358	-5.720472	176.441928	-275.603094	-217.406481	-0.618402	0.282184	0.354231	12.707746	5.529849	-1.42695	38.088133	-9.172141	-39.845729	-0.404957	0.201259	1.02362
-1.654342	1.923396	12.72018	-2.248424	17.640646	-6.790442	-0.861366	0.132167	-0.5291	-30.02213	-12.909477	-16.116644	146.509963	-57.052075	-127.579045	-0.588383	0.294191	0.342223	11.856406	5.821826	-1.271253	51.218302	-8.594096	-36.851944	-0.417827	0.221579	0.956124
-1.425928	-2.611897	9.535183	-0.025272	18.429449	-8.033225	-0.831009	0.136087	-0.545264	-25.054446	-8.02368	-0.223137	22.89636	151.274899	-39.996543	-0.576375	0.288188	0.336219	11.520048	5.418285	-1.051482	58.360793	-8.824493	-7.046435	-0.440547	0.221879	1.016098
-0.695566	3.016263	9.043263	-5.92939	15.185598	-13.954344	-0.888214	0.043347	-0.597216	-19.114305	-5.943305	12.803895	17.267957	280.106612	18.789001	-0.558363	0.294191	0.288188	11.309646	4.032644	-0.320098	61.412075	-9.332343	15.30839	-0.40363	0.192256	1.028244
-1.732908	0.404505	8.669513	-14.051397	11.133001	-7.877243	-0.817753	0.120224	-0.561322	-12.137551	-0.816815	18.178344	65.405716	334.024294	43.637325	-0.540352	0.306199	0.252164	10.176412	4.036233	-0.057162	53.623415	-7.187329	2.585656	-0.389387	0.195198	1.039847
-1.632616	-0.22885	10.808265	-31.37465	15.549614	-8.934171	-0.895831	0.132753	-0.585577	-10.447217	-6.715808	13.915474	101.553376	345.651971	58.699634	-0.528344	0.318207	0.216141	9.603043	3.746837	-0.298108	42.165427	-2.721272	-29.236621	-0.404957	0.201259	1.02362
-0.863263	-0.69112	11.978301	2.828136	15.224305	-1.968163	-0.831009	0.136087	-0.545264	-11.714306	-12.260559	8.651486	92.759064	356.01273	67.311623	-0.49232	0.348227	0.168109	9.879978	4.265759	-0.632664	34.620185	0.372202	-45.806107	-0.391613	0.199447	1.052313
-0.217287	-0.290659	9.853849	20.609835	10.653055	2.860995	-0.871495	0.043618	-0.578058	-10.48403	-12.945289	4.783686	52.412437	371.898515	78.997521	-0.468305	0.348227	0.132086	9.994979	4.845021	-0.513598	34.319511	-2.00382	-40.796993	-0.407136	0.237772	0.975569
-1.278653	0.693714	8.448096	13.817597	6.478242	3.889996	-0.847083	0.115178	-0.526998	-9.431467	-14.550278	3.391171	-19.076057	396.074241	88.855646	-0.438285	0.366238	0.102066	9.877054	4.033385	-0.804991	36.550687	-7.07087	-19.561315	-0.410735	0.218759	1.043928
-0.843231	0.11695	10.131328	-12.391592	6.676142	4.398901	-0.820573	0.083452	-0.559113	-8.354222	-13.871623	6.772522	-89.02326	419.916888	95.024234	-0.396258	0.38425	0.054035	9.597423	3.166296	-0.643289	37.399052	-12.873874	-1.52923	-0.429003	0.210561	1.078971
-0.945293	1.163507	10.825335	7.349275	4.119274	4.344133	-0.817753	0.120224	-0.561322	-6.775503	-12.964724	9.809245	-137.322801	438.23677	95.452526	-0.342223	0.41427	0.03002	8.630525	2.589266	-0.665064	28.417533	-11.761989	-1.35861	-0.425451	0.197309	1.071129
-1.020833	-0.173795	9.838127	4.622465	4.290156	3.896452	-0.833828	0.099315	-0.543055	-5.499005	-12.398797	11.720142	-174.931132	449.270362	91.660283	-0.282184	0.456297	0.03002	7.942609	1.489023	-1.026127	23.361642	-7.263317	-11.399889	-0.406756	0.191752	1.0578
-0.001404	1.8043	12.174899	-7.74798	13.87909	-0.060697	-0.824036	0.067319	-0.594328	-4.565715	-10.45683	13.622082	-198.011017	460.230185	85.297236	-0.228148	0.498324	0.018012	7.879466	1.777304	-1.311399	15.229729	-1.626596	-16.039974	-0.343533	0.204526	1.045101
0.110029	2.90672	12.064211	5.58423	30.600205	-5.894329	-0.85683	0.04614	-0.59522	-3.289749	-7.886176	15.824427	-211.944518	472.262622	80.121363	-0.162106	0.528344	0.048031	8.223594	2.240581	-1.131262	15.09876	1.879524	-14.959691	-0.378697	0.211391	1.059293
-0.572014	-0.175498	9.326938	8.025984	35.204705	-9.674732	-0.903906	0.041951	-0.598214	-1.327453	-6.578408	18.278045	-213.91125	476.556965	74.075831	-0.10807	0.570371	0.072047	8.910509	2.703439	-0.887276	21.064491	1.616307	-14.952102	-0.413434	0.2045	1.095198
-0.999419	1.33811	10.998055	-20.869906	45.840038	-12.89032	-0.856447	0.065652	-0.614484	1.01075	-5.212712	19.677165	-213.560855	466.487629	67.858847	-0.036023	0.594387	0.150098	9.082817	1.950444	-0.887314	24.942949	-0.035803	-13.944749	-0.380069	0.188129	1.115186
-0.70746	0.874049	11.233911	-5.719326	52.382536	-14.142982	-0.837292	0.083182	-0.578271	3.171489	-4.475808	20.54314	-212.620405	445.167399	59.8796	0.006004	0.642418	0.204133	8.456896	1.72011	-0.900755	24.269326	-1.347632	-14.896722	-0.380923	0.21564	1.071759
-0.704143	0.990553	11.407635	-10.350357	60.593513	-13.267906	-0.804498	0.104361	-0.577379	6.286241	-7.292308	20.489879	-216.090335	420.851719	49.767716	0.03002	0.684445	0.300195	8.401193	1.66259	-0.845051	24.054052	-2.100226	-22.190772	-0.414288	0.232011	1.051771
-1.384967	1.166327	11.799042	-8.706707	65.741121	-12.270532	-0.826856	0.030548	-0.592119	5.484471	-5.232097	23.301933	-223.94128	399.678576	36.123265	0.054035	0.702457	0.38425	8.286396	2.125989	-0.845201	23.774005	-1.768388	-32.416464	-0.411208	0.200251	1.082732
-1.10324	0.642966	11.514425	-2.196116	69.432771	-8.790083	-0.841783	0.068175	-0.631646	6.405559	-6.501583	27.096477	-239.324773	388.277468	21.925603	0.054035	0.702457	0.462301	8.455645	2.35697	-0.897863	25.399155	-0.33079	-37.090629	-0.376044	0.193386	1.06854
-1.188562	1.162052	10.126986	2.679325	72.996148	-6.284415	-0.8275	0.051186	-0.629544	6.585501	-7.080939	30.639675	-262.909878	392.957007	11.280764	0.036023	0.732477	0.55236	7.660362	1.953551	-0.858378	29.33046	2.074313	-32.751018	-0.380923	0.21564	1.071759
-1.538803	0.174822	9.770864	-0.352089	74.876016	-4.943376	-0.798935	0.017208	-0.625339	11.559695	-8.361175	33.627455	-292.272828	409.363492	13.896319	0.054035	0.708461	0.66043	6.704953	1.263357	-0.309757	32.247229	5.346935	-19.566569	-0.37917	0.192882	1.098096
-1.697474	0.408837	10.461771	-3.94695	77.837461	-2.749989	-0.825446	0.048934	-0.593224	19.176088	-6.320946	33.357497	-323.905928	424.704696	20.790311	0.036023	0.666434	0.744485	6.150617	1.036326	0.420127	30.553021	7.606521	-10.115597	-0.396492	0.221701	1.055532
-1.299186	0.408028	10.296327	-1.625326	80.915583	-0.325723	-0.819883	-0.03822	-0.641183	20.50621	4.74201	27.584141	-367.369064	409.877558	55.712756	-0.006004	0.606395	0.822535	5.075111	1.213754	0.742069	29.720513	8.361331	-12.125688	-0.350211	0.217273	1.082499
-1.581221	0.060609	10.521033	1.091151	85.291268	-1.310735	-0.78427	0.019731	-0.642501	34.95541	14.255185	34.451215	-393.401675	326.450639	112.731115	-0.024016	0.528344	0.870567	4.51727	1.623058	1.360661	21.788198	7.287379	-18.658419	-0.365354	0.209579	1.087986
-1.874211	0.408445	10.227083	3.875374	87.967685	0.29151	-0.789526	-0.0343	-0.657347	41.295656	26.221275	27.828943	-375.371561	205.83648	163.111037	-0.042027	0.444289	0.864563	4.418025	1.626703	2.100606	18.924066	9.267311	-18.199754	-0.416087	0.222505	1.08595
-2.085783	-0.459877	11.087636	-3.508832	93.232963	1.263884	-0.754678	-0.015374	-0.620135	49.951483	32.90599	23.383483	-314.257353	104.809403	202.667892	-0.060039	0.372242	0.882574	4.605851	2.151635	3.019825	19.789521	8.959429	-2.894838	-0.37827	0.197635	1.081006
-1.862516	-0.105499	13.693568	-2.906072	103.925472	4.286207	-0.774861	-0.031777	-0.674509	60.411962	34.722228	14.911499	-189.75647	42.139807	194.74942	-0.096063	0.306199	0.852555	4.552628	1.978848	3.189187	23.583781	6.050281	18.785315	-0.349358	0.189762	1.125926
-1.50355	0.128154	14.452577	13.057651	118.578453	5.33357	-0.79889	-0.083826	-0.744833	72.946828	26.854004	4.01887	-50.649658	4.004299	121.408004	-0.144094	0.258168	0.822535	5.532762	3.008946	1.044689	26.418556	4.214547	25.112486	-0.352437	0.221522	1.094965
-1.729785	0.244881	14.621729	10.188501	136.85594	5.479975	-0.753224	-0.098022	-0.740735	77.254822	16.082118	-3.075308	15.811622	-36.729426	3.590133	-0.132086	0.240156	0.792516	7.328224	4.562989	-0.111109	16.084738	4.360593	16.949223	-0.334169	0.229721	1.059922
-2.248453	0.129017	14.495533	22.33383	158.360201	10.933372	-0.783581	-0.101941	-0.724571	63.491416	14.231024	-2.157096	-15.080499	-99.603301	-105.343574	-0.156102	0.216141	0.780508	8.73638	4.382775	-0.883031	12.92919	0.663403	28.088752	-0.366253	0.204826	1.105075
-2.052345	-2.190202	15.591853	13.028374	186.131607	18.957187	-0.706148	-0.093832	-0.737741	40.209744	20.471369	7.824012	-46.422362	-160.306848	-163.801627	-0.132086	0.192125	0.7685	9.334486	4.432849	-2.297684	17.557033	-2.044427	65.81942	-0.3186	0.22366	1.076149
-2.593902	-2.759117	20.087435	7.387102	222.544568	30.152374	-0.67861	-0.126684	-0.751696	24.092345	10.482098	14.608844	2.682492	-183.444359	-180.046925	-0.126082	0.186121	0.750488	10.204611	4.105044	-10.157444	24.502996	13.776947	79.15745	-0.367107	0.232337	1.061648
-1.407751	-3.452131	22.016505	41.528213	266.170853	47.330952	-0.686303	-0.197975	-0.783597	-7.793418	-36.055325	-21.547613	698.371928	-306.804169	-251.574657	-0.096063	0.144094	0.744485	8.727875	-0.729833	-4.730212	41.778754	27.637882	63.79367	-0.371559	0.240835	1.08658
0.450809	-2.696562	23.211192	52.046256	317.490083	59.549763	-0.637435	-0.155887	-0.800973	-76.283582	-57.743715	17.219952	420.104273	-189.509356	-308.10791	-0.066043	0.174113	0.756492	6.187726	-1.793237	2.005827	52.026863	19.791561	20.882631	-0.3186	0.22366	1.076149
1.895917	-0.432751	23.881179	73.185155	370.073231	62.459338	-0.643335	-0.18928	-0.853244	-15.976803	-28.91197	38.382559	656.894255	-276.813046	-260.967033	-0.036023	0.192125	0.762496	4.737098	1.344538	3.817688	39.219662	5.459177	-50.273862	-0.30303	0.217599	1.092376
3.803328	4.218106	27.744708	50.553587	423.895826	50.932212	-0.58544	-0.218213	-0.883363	10.195856	2.973062	7.395082	552.30884	-231.276395	-268.152526	-0.036023	0.24616	0.744485	5.520801	6.494936	3.685574	35.013992	-3.366735	-105.437139	-0.319027	0.237416	1.054435
4.255525	6.654895	27.528462	99.113927	466.222465	24.772048	-0.477388	-0.246335	-0.856007	3.808672	-1.584645	3.446488	374.717439	-176.279754	-230.405324	-0.03002	0.294191	0.708461	5.997182	9.960861	2.227086	31.600164	0.118689	-74.665023	-0.304403	0.194337	1.14827
-0.657987	7.932371	25.69994	84.60338	504.157378	-12.810099	-0.467597	-0.278331	-0.90728	10.746206	-0.812615	9.063567	365.540868	-100.250393	-139.087244	-0.036023	0.318207	0.702457	6.078788	11.214	-2.159848	19.830524	7.454544	24.267978	-0.348458	0.194515	1.108836
-3.201776	7.177889	24.664982	105.918913	496.209915	-44.228851	-0.382164	-0.340115	-0.951354	-3.722227	8.920913	4.22739	329.62314	-85.855	-98.956904	-0.03002	0.342223	0.672438	7.207386	9.863696	-5.681957	-7.454729	22.373123	113.272982	-0.337768	0.210708	1.128282
-5.333328	4.037203	21.147402	128.691744	492.67473	-58.052525	-0.25983	-0.385226	-0.921896	4.222465	5.457476	5.565615	232.285976	-90.982461	-50.536359	-0.03002	0.366238	0.654426	10.20142	9.477728	-12.643926	-28.010313	49.484576	170.520764	-0.30303	0.217599	1.092376
-0.661301	3.280936	22.394462	123.452564	469.598322	-62.174391	-0.213781	-0.37991	-0.937062	-4.24691	15.072967	-7.94294	152.942381	-46.740902	-56.162515	-0.036023	0.372242	0.654426	15.308784	7.494018	-13.636252	-51.752559	70.040323	200.081668	-0.325278	0.236408	1.113547
-0.950029	1.089258	27.989184	129.991134	448.557608	-73.671825	-0.113804	-0.498835	-0.922344	0.611053	5.696944	5.849664	31.321919	-15.167229	9.724477	-0.054035	0.38425	0.63041	14.318918	5.374517	-9.214188	-35.156354	90.496793	131.415042	-0.359116	0.23427	1.132363
-0.427289	1.728065	28.347896	222.207823	412.679947	-63.157256	-0.045518	-0.479368	-0.846816	2.447653	3.225987	7.009805	16.952665	-23.77657	8.211275	-0.042027	0.390254	0.648422	13.560352	1.459772	-4.795768	-31.236749	70.966712	7.901666	-0.339521	0.233466	1.101944
3.404873	-2.521918	24.657458	247.391932	362.57051	-71.646133	0.042996	-0.544532	-0.83641	3.320118	1.502831	8.091153	4.466792	-19.535818	16.723874	-0.048031	0.38425	0.618402	15.571853	0.649184	-3.903647	-51.642193	22.582559	-53.668143	-0.334596	0.243477	1.038209
9.852143	-8.38018	5.180292	442.478302	200.235114	-63.045939	0.042613	-0.564044	-0.817145	4.452193	2.759348	8.405654	-2.599469	-18.15141	16.204303	-0.042027	0.390254	0.654426	16.758101	2.337733	-1.304352	-53.089141	-11.783791	-16.385857	-0.354617	0.258036	1.046914
15.472721	-17.883481	-9.872229	387.946769	66.145717	-59.711474	0.097951	-0.669898	-0.788366	4.06934	1.384711	8.872485	-0.624596	-21.910415	11.65819	-0.048031	0.378246	0.648422	15.907429	5.423571	2.059997	-49.210203	-21.609829	37.842967	-0.335495	0.238723	1.055298
0.01984	-17.965287	-2.262775	96.494735	-49.659971	47.357515	0.133706	-0.71176	-0.65704	3.101029	2.075625	8.557793	3.501622	-24.92612	7.792091	-0.048031	0.38425	0.636414	15.568545	7.452205	2.404993	-60.18849	-8.814472	17.181096	-0.318173	0.209904	1.097863
9.882794	-2.67344	12.82325	9.834529	-165.122879	94.498354	0.083428	-0.772233	-0.63856	2.669172	4.027603	6.89473	-10.165466	-21.570696	12.861068	-0.024016	0.390254	0.636414	16.237814	5.999487	1.555554	-72.710362	7.779932	3.455628	-0.337722	0.242973	1.067764
5.195956	-6.026354	16.420423	97.771831	-216.802532	138.497591	0.033533	-0.813194	-0.639345	1.661749	2.884213	7.231202	-24.992366	-16.447733	18.363427	-0.03002	0.390254	0.624406	14.994179	3.96341	-1.103537	-85.761378	16.877596	13.358909	-0.320399	0.214154	1.110329
5.507659	-3.237229	17.8204	158.515019	-228.563837	163.233999	0.052044	-0.775026	-0.640556	4.070384	2.129208	9.048166	-14.175995	-15.65303	14.127948	-0.024016	0.390254	0.648422	13.805861	4.47545	-3.578659	-97.969967	18.777797	3.095313	-0.302177	0.190088	1.135803
6.779456	-8.599089	9.337347	212.845487	-244.00744	181.490955	0.003941	-0.77809	-0.66171	1.910199	3.39693	8.532639	-7.619143	-14.74038	12.804852	-0.03002	0.38425	0.624406	13.578634	5.344876	-3.465037	-97.688285	13.304417	-28.433256	-0.282155	0.175528	1.127098
5.839901	-9.943018	5.269954	185.725295	-264.108896	189.688096	-0.089304	-0.847258	-0.573584	3.09549	2.477078	8.321082	-11.411802	-12.040839	15.340609	-0.03002	0.38425	0.654426	12.904655	5.753882	-2.962882	-84.056369	4.502773	-45.438832	-0.295972	0.158831	1.137209
5.684532	-10.528364	3.184939	150.530391	-293.594111	197.691552	-0.100888	-0.853159	-0.501942	3.501588	2.245801	8.860096	-11.389654	-10.217336	17.279786	-0.024016	0.378246	0.63041	12.193561	5.820092	-1.492864	-71.093594	-4.129014	-35.196603	-0.344905	0.181264	1.100994
