1757_acc_x	1757_acc_y	1757_acc_z	1757_gyro_x	1757_gyro_y	1757_gyro_z	1757_mag_x	1757_mag_y	1757_mag_z	1758_acc_x	1758_acc_y	1758_acc_z	1758_gyro_x	1758_gyro_y	1758_gyro_z	1758_mag_x	1758_mag_y	1758_mag_z	1759_acc_x	1759_acc_y	1759_acc_z	1759_gyro_x	1759_gyro_y	1759_gyro_z	1759_mag_x	1759_mag_y	1759_mag_z
-0.561739	0.498831	10.292283	-28.550823	3.234907	1.208123	-0.027927	-0.068075	-0.885974	-0.39637	0.779312	9.896613	-0.232238	1.134012	-0.379399	0.304917	0.534256	-0.866047	9.481227	2.790863	-0.348115	-0.019744	-1.724089	-4.840916	-0.60021	-0.405197	0.33284
0.396329	0.035216	9.513338	-25.985784	3.431873	-1.556175	0.298734	0.225213	-0.863727	-0.504571	0.948804	10.234175	0.34945	0.74161	-0.197865	0.329244	-0.269002	-0.928204	9.299236	3.022584	-0.590054	-0.355049	-1.577407	-4.351413	-0.493021	-0.523682	-0.140427
0.409235	0.669968	10.19823	-26.898334	1.398955	-4.254745	0.313969	0.235424	-0.906304	-0.100212	0.215752	10.242021	0.591574	0.346304	-0.232429	0.354311	-0.272067	-0.885706	9.299236	3.022584	-0.590054	-0.416083	-1.796166	-3.922282	-0.493092	-0.522856	-0.155955
0.114055	0.668246	9.737838	-27.103716	-0.198704	-7.101666	0.327304	0.279891	-0.930976	-0.27675	0.328595	10.06857	1.086738	0.44296	0.015555	0.368247	-0.253456	-0.930034	9.305839	3.024067	-0.230613	-0.69067	-1.492218	-3.831053	-0.492671	-0.509143	-0.110209
0.175639	0.841494	9.967088	-23.915359	-3.25772	-9.798136	0.29872	0.242513	-0.881219	0.068427	0.440609	10.075919	1.326093	-0.167203	0.009681	0.290021	-0.270299	-0.913027	9.188617	2.675881	-0.234297	-0.713814	-1.072275	-3.03836	-0.492253	-0.476758	-0.111883
0.222215	0.207183	9.397016	-19.599548	-7.763566	-11.846665	0.340281	0.30353	-0.924081	-0.104054	0.328271	10.072197	1.572038	-0.227611	0.348387	0.366621	-0.289456	-0.856278	9.360858	2.848715	-0.469882	-0.770868	-0.957075	-2.366334	-0.493088	-0.541527	-0.108535
-0.057294	0.093955	9.732084	-18.220689	-11.454474	-13.781509	0.326175	0.286605	-0.90624	-0.11856	0.327702	9.392522	1.541261	-0.227399	0.25588	0.342515	-0.267855	-0.942829	9.36499	2.965856	-0.22976	-0.762635	-0.382813	-1.696732	-0.548303	-0.509959	-0.11049
0.173702	0.438921	9.851692	-18.7373	-14.824235	-15.000271	0.284199	0.273958	-0.901777	-0.051647	0.496965	9.84699	1.355389	-0.289672	0.039315	0.34141	-0.256822	-0.886434	9.178308	2.847884	-0.772718	-0.66403	0.071633	-1.240821	-0.520766	-0.524917	-0.12504
-0.006554	-0.137301	9.391114	-18.390888	-17.671727	-15.844988	0.284942	0.281014	-0.929929	-0.402653	0.272053	9.556349	1.260017	-0.505302	0.006266	0.328503	-0.301786	-0.897497	9.008692	2.966172	-0.356176	-0.719092	0.52458	-0.692655	-0.478834	-0.508112	-0.125666
0.276377	-0.138232	9.226122	-18.25167	-20.228557	-15.304198	0.27005	0.308931	-0.936411	0.298365	0.609169	10.080896	0.613307	-0.388256	-0.393856	0.289506	-0.257122	-0.885331	9.306244	2.849839	-0.231355	-0.925091	1.343419	-0.084561	-0.492883	-0.506664	-0.156792
-0.404078	-0.021404	9.554361	-18.285405	-21.284101	-14.401136	0.284928	0.298314	-0.947421	0.071191	0.891395	10.246217	-0.374877	-0.369933	-0.425297	0.342	-0.254678	-0.915133	9.069639	3.082683	-0.234768	-0.705672	1.585761	0.219116	-0.4926	-0.509969	-0.094681
-0.176215	0.035631	9.502204	-18.768551	-21.27617	-12.590062	0.269678	0.305403	-0.922335	-0.564231	0.779825	10.119545	-0.987852	-0.037237	-0.915731	0.327988	-0.28861	-0.869801	9.306224	2.384983	-0.29324	-0.977452	2.288013	0.247312	-0.520695	-0.525743	-0.109512
-0.176132	-0.079252	9.501721	-18.546343	-21.359933	-10.537169	0.269693	0.288103	-0.904844	-0.170058	0.94773	9.731672	-0.987189	0.023489	-0.822642	0.354681	-0.255675	-0.901059	9.476555	2.906026	-0.587248	-1.25011	2.495155	0.828008	-0.478763	-0.508938	-0.110139
-0.920771	0.380819	9.489176	-17.492126	-20.920475	-8.202168	0.256344	0.260936	-0.897663	-0.278521	-0.009483	9.955007	-1.694834	0.258787	-0.666732	0.341555	-0.286391	-0.898776	9.303908	2.90742	-0.350921	-1.709678	2.73632	1.0119	-0.506232	-0.476135	-0.127481
-0.919078	-0.423121	9.542651	-15.151594	-21.035529	-5.235865	0.270436	0.29516	-0.932995	0.011316	0.835078	10.131681	-2.002453	0.347667	-0.789408	0.315753	-0.2559	-0.900232	9.174581	2.556515	-1.013581	-2.140102	2.763466	1.196708	-0.533835	-0.479022	-0.081038
-1.024228	0.498197	10.055963	-11.404963	-22.040865	-1.797438	0.270036	0.32623	-0.953903	-0.217737	0.835556	10.183485	-2.403456	0.403096	-0.665867	0.354531	-0.286316	-0.899052	9.299371	2.964508	-0.590302	-3.003012	2.790636	1.230267	-0.465068	-0.506256	-0.156652
-1.657668	0.280509	12.770584	0.140758	-24.084602	6.937679	0.297919	0.304653	-0.923034	-0.281694	0.384735	9.842059	-2.126575	0.314629	-0.666524	0.3291	-0.239433	-0.915861	9.832002	2.324456	-0.583117	-3.099113	2.610861	0.834152	-0.49288	-0.525335	-0.109372
-1.64211	0.960839	10.671029	10.740988	-20.043908	7.340827	0.283427	0.3015	-0.908609	-0.099219	0.328461	10.298755	-2.341628	0.404081	-0.696635	0.314867	-0.259116	-0.857183	9.952951	2.964011	-0.338569	-3.50416	2.244863	0.592862	-0.479046	-0.505633	-0.17225
-1.48853	-0.077334	9.703523	19.398348	-18.858599	9.35915	0.269678	0.305403	-0.922335	0.067433	0.3279	10.019184	-2.343383	0.251763	-0.852292	0.354756	-0.240355	-0.902063	9.889357	2.091522	-0.70282	-3.724559	1.600755	0.688423	-0.520975	-0.541109	-0.124203
-2.387407	0.788812	10.598976	16.834003	-16.233273	15.327665	0.298262	0.34278	-0.972093	-0.443402	0.329155	10.348142	-1.945615	-0.049589	-0.885796	0.341635	-0.210861	-0.889445	9.24101	2.209407	-0.654523	-4.096225	1.323171	0.782783	-0.506161	-0.476962	-0.111953
-2.845567	0.961468	10.590792	19.046643	-12.886566	19.270101	0.28417	0.308556	-0.93676	-0.387824	0.10363	10.235882	-1.952633	-0.630211	-1.199856	0.328509	-0.241577	-0.887162	9.419044	2.732181	-0.529183	-4.376028	0.581402	1.429163	-0.492604	-0.491298	-0.142102
-2.907275	0.960545	10.362267	26.592913	-10.11458	24.567613	0.255958	0.274707	-0.901078	-0.338936	0.215852	9.840708	-1.743271	-1.150183	-0.989061	0.328503	-0.301786	-0.897497	9.660206	2.907105	-0.224505	-4.776431	0.206582	2.043668	-0.493159	-0.540701	-0.124062
-2.853195	0.730014	10.191855	30.401652	-10.404725	27.311619	0.284956	0.263715	-0.912437	-0.621388	-0.065072	10.060985	-1.005979	-1.477489	-1.084207	0.328289	-0.227328	-0.873815	9.550957	2.444497	0.190665	-5.762937	-0.356088	2.87514	-0.52042	-0.491706	-0.142242
-2.969807	0.557289	10.075198	33.850775	-13.636417	29.088945	0.284928	0.298314	-0.947421	-0.223913	0.271967	9.843173	-0.697582	-1.50504	-0.96092	0.354606	-0.270995	-0.900056	9.584238	2.148049	-1.247237	-6.196884	-0.819002	3.12343	-0.52042	-0.491706	-0.142242
-2.957523	2.053664	10.76371	36.737602	-5.524541	33.229189	0.283813	0.287729	-0.905193	0.296055	0.552744	9.96757	-1.444424	-1.943358	-1.027536	0.34178	-0.24043	-0.901787	9.535551	2.441036	-0.648032	-6.381004	-1.007617	3.552888	-0.493159	-0.540701	-0.124062
-3.460357	1.769483	11.377866	39.495442	-0.029303	32.237375	0.271207	0.267618	-0.926164	0.067433	0.3279	10.019184	-0.981945	-1.999614	-0.904411	0.354606	-0.270995	-0.900056	9.240875	2.267483	-0.654276	-6.286881	-1.227713	4.164874	-0.520699	-0.507072	-0.156933
-3.013089	2.800928	10.879439	49.835755	7.430956	31.807577	0.271593	0.253847	-0.922748	-0.45044	0.216209	10.008209	-0.679201	-2.486138	-0.939833	0.354976	-0.254603	-0.915409	9.830091	2.672665	-0.641541	-6.587686	-1.491503	5.909377	-0.506583	-0.490675	-0.1577
-2.821822	3.551886	11.909272	63.873772	15.402979	28.401194	0.287228	0.232987	-0.944417	-0.217653	0.159543	10.126276	-0.780928	-3.221675	-1.193853	0.328434	-0.256897	-0.886158	9.247208	2.385118	-0.29434	-7.232647	-1.622808	6.554192	-0.520975	-0.541109	-0.124203
-3.703074	3.777449	10.756474	77.799644	21.864631	22.609426	0.257487	0.236922	-0.904907	0.084919	0.666595	10.869063	-1.684583	-3.874604	-1.571008	0.341705	-0.25575	-0.900783	9.473233	2.440429	-0.828853	-7.232227	-1.996182	7.167264	-0.506646	-0.527192	-0.078386
3.577981	4.795959	8.515514	86.383158	23.790717	13.477957	0.299834	0.253098	-0.923446	-0.33343	0.497741	10.124143	-1.913164	-4.886499	-2.012846	0.354311	-0.272067	-0.885706	9.602945	2.152251	-0.228819	-7.360653	-2.514748	6.986816	-0.492671	-0.509143	-0.110209
0.461792	3.184285	7.141008	51.174903	22.711054	12.979145	0.286843	0.246758	-0.947833	-0.337811	0.891913	9.954556	-1.798046	-5.558977	-2.111923	0.328359	-0.272217	-0.885154	9.7159	2.441373	-0.46501	-6.970943	-2.833709	5.428143	-0.507067	-0.540905	-0.124133
-0.706685	1.009374	8.757194	19.177289	12.621183	11.527325	0.243738	0.240825	-0.918634	0.078074	-0.178695	10.471874	-1.625738	-6.569611	-1.967694	0.34222	-0.268927	-0.928479	10.123667	2.845971	-0.695204	-7.294811	-4.016119	4.304089	-0.492462	-0.49295	-0.111046
-0.172839	1.530076	9.73589	4.61435	8.095121	17.107438	0.300234	0.222027	-0.902539	-0.219185	0.328487	10.069779	-0.774615	-7.662016	-2.070355	0.301886	-0.319401	-0.867242	10.420813	2.903866	-0.569641	-8.364802	-6.151944	3.431807	-0.520491	-0.49088	-0.15777
-0.007466	1.126413	9.396423	4.498173	11.117065	21.603216	0.300977	0.229084	-0.930691	-0.32553	0.160043	10.463696	0.142117	-8.390075	-1.491125	0.354831	-0.225034	-0.903066	10.303321	2.671832	-0.57283	-7.926101	-8.247308	2.125986	-0.492883	-0.506664	-0.156792
0.64366	-0.650388	10.424546	5.83776	11.931602	18.086205	0.272751	0.212534	-0.912501	-0.505934	-0.23428	10.06326	0.60058	-8.724948	-0.970009	0.34178	-0.24043	-0.901787	10.477649	3.368092	-0.626469	-6.647859	-10.104723	1.763461	-0.49295	-0.524509	-0.1249
-0.455475	-0.422247	9.835824	5.929344	5.032077	5.891517	0.301378	0.198013	-0.909783	0.354698	-0.010669	9.968305	0.93956	-8.725064	-0.291521	0.355937	-0.236067	-0.959462	10.122991	3.136351	-0.693968	-5.951972	-11.505099	1.370302	-0.4926	-0.509969	-0.094681
0.168135	0.437714	9.567427	14.815987	3.568302	0.383358	0.272751	0.212534	-0.912501	-0.210615	0.272488	10.466209	0.325619	-8.368731	0.297262	0.315678	-0.271221	-0.899228	10.004979	3.601476	-0.634284	-5.469719	-12.01007	0.087317	-0.507067	-0.540905	-0.124133
0.597499	-0.590492	10.992205	7.294882	3.700592	4.608602	0.285356	0.232645	-0.891529	-0.040337	0.27207	10.356556	-0.745417	-7.412599	2.063113	0.328654	-0.271145	-0.899504	9.35084	3.369421	-0.946912	-4.487602	-12.153154	-0.526813	-0.506445	-0.473657	-0.174064
-0.186941	1.009966	8.994628	4.075838	2.843649	5.677285	0.315098	0.228709	-0.93104	0.068858	0.215287	10.075729	-2.215474	-6.276163	3.614644	0.315603	-0.286541	-0.898225	9.297751	3.66142	-0.587335	-2.054564	-12.108133	-1.085968	-0.479113	-0.523478	-0.140357
-0.121685	0.724405	9.392507	6.472979	3.305005	6.628554	0.273908	0.171221	-0.902253	0.075549	-0.122459	10.358642	-3.902338	-5.002031	7.140396	0.328804	-0.240505	-0.901511	8.83317	3.257451	-0.238428	0.693014	-11.235516	-1.711334	-0.478208	-0.459535	-0.128178
-0.053088	0.439569	9.960944	5.857189	2.684384	6.896241	0.287628	0.201916	-0.92351	-0.144157	0.04739	10.863705	-7.595928	-6.168551	9.561285	0.340964	-0.288535	-0.870077	9.415628	3.25437	-0.646772	2.20768	-9.93343	-2.884402	-0.548582	-0.525325	-0.12518
-0.169042	0.898943	9.903795	6.22421	2.531748	6.954037	0.288014	0.188145	-0.920094	-0.476036	-0.064102	11.479393	-12.392774	-8.75113	15.38923	0.341705	-0.25575	-0.900783	9.18246	3.42988	-0.470711	4.063816	-8.510283	-3.814778	-0.479251	-0.540497	-0.123992
0.060183	0.611569	9.907042	5.790393	2.167919	6.336039	0.287628	0.201916	-0.92351	-0.136927	-0.572008	11.146382	-18.885126	-13.356939	22.521427	0.341485	-0.241501	-0.887437	9.063212	3.952835	-0.470687	6.076046	-7.462769	-3.857626	-0.47918	-0.541323	-0.108464
-0.166608	0.612218	10.016295	5.001964	2.922406	7.239903	0.300992	0.211785	-0.913199	-2.099061	-0.676474	16.25697	-37.401526	-25.952163	27.529846	0.303148	-0.239583	-0.91531	9.47644	3.428958	-0.525116	8.821762	-7.797249	-3.101923	-0.534887	-0.522642	-0.171694
-0.520612	1.242152	9.50059	3.074546	3.247961	7.557408	0.30022	0.239327	-0.920031	-0.199454	-1.52742	13.522021	-51.484008	-66.943424	26.001137	0.329244	-0.269002	-0.928204	9.357327	3.893836	-0.525339	9.326947	-6.700292	-2.528306	-0.493021	-0.523682	-0.140427
-0.111705	0.784018	9.904426	2.079273	2.096095	5.732217	0.24451	0.213283	-0.911802	-0.63312	-0.398809	14.872649	-49.399052	-85.199655	25.975504	0.303518	-0.223191	-0.930663	9.950635	3.486448	-0.396251	11.100177	-4.643602	-2.63623	-0.535229	-0.574525	-0.107071
0.472389	0.211601	10.481678	3.261267	1.232361	3.782753	0.315484	0.214938	-0.927624	-1.441102	-0.33868	17.459984	-5.479689	-106.701622	12.016465	0.290837	-0.222194	-0.944737	9.76824	3.892397	-0.637449	12.875118	-3.117931	-1.671944	-0.520766	-0.524917	-0.12504
-0.058573	0.323479	9.676196	4.17985	1.583394	3.019131	0.288014	0.188145	-0.920094	-0.999386	-0.229977	13.902664	-1.315528	-127.16697	5.928184	0.277566	-0.223341	-0.930111	9.771561	4.357994	-0.395844	13.421778	-1.078557	-0.522277	-0.520491	-0.49088	-0.15777
-0.221843	0.899949	10.130094	4.207497	1.592228	2.252509	0.302135	0.187771	-0.920443	-1.083518	-0.003206	15.373066	5.027752	-143.691507	1.761423	0.276756	-0.211236	-0.888066	9.406575	3.8334	-1.063648	12.672208	1.362047	-0.164457	-0.534745	-0.524295	-0.140638
0.002804	0.783935	9.906653	1.101298	0.826519	0.746291	0.301378	0.198013	-0.909783	-1.25114	0.504329	15.653064	14.805567	-162.340562	-4.334956	0.225958	-0.222569	-0.943358	9.414683	3.660903	-0.645041	10.590107	3.189583	-0.135075	-0.534812	-0.54214	-0.108745
-0.057708	0.66837	9.734497	2.691126	0.594711	0.155258	0.273136	0.198763	-0.909085	-1.246867	0.166488	15.822698	20.764096	-179.976398	-8.82122	0.225518	-0.194072	-0.916666	9.583488	3.891071	-1.060099	8.384127	4.583073	0.416396	-0.534954	-0.540487	-0.139801
-0.058247	1.41511	9.737634	2.254834	0.112819	-0.89403	0.315112	0.21141	-0.913548	-1.763123	-0.790161	15.811012	28.921568	-199.207101	-9.529725	0.226178	-0.236817	-0.956704	9.17132	3.485484	-1.069533	4.910392	5.388916	1.158644	-0.492391	-0.493776	-0.095518
-0.223987	0.784584	10.015905	2.316847	-0.23329	-0.163801	0.316241	0.204696	-0.938284	-1.464117	-1.578948	16.269509	35.278363	-219.196883	-10.678779	0.187099	-0.267683	-0.95387	8.879561	3.951756	-0.833429	2.600109	5.748946	1.043041	-0.506646	-0.527192	-0.078386
0.004125	0.496969	9.962299	1.393193	-0.381855	-0.991593	0.302135	0.187771	-0.920443	-1.664509	-1.636046	14.963124	46.372175	-238.611858	-15.764174	0.147211	-0.286445	-0.90899	8.578263	3.311864	-1.260999	-0.302131	5.83912	0.197356	-0.521042	-0.558954	-0.09231
-0.237266	0.666805	9.333185	3.172622	-0.253757	-0.718621	0.273508	0.202291	-0.923161	-0.839274	-2.256479	15.829121	51.875089	-255.672664	-21.077236	0.120894	-0.242777	-0.88275	9.120277	3.371198	-0.651779	-1.443402	5.991122	-0.104865	-0.535371	-0.572872	-0.138127
0.346455	0.611362	9.91261	5.066292	-0.758289	-1.529643	0.273136	0.198763	-0.909085	-0.288467	-2.540205	14.651542	63.558036	-270.100698	-27.438041	0.094792	-0.273568	-0.880191	8.469729	3.488588	-0.723297	-1.172944	5.974455	-1.358835	-0.493017	-0.542354	-0.093007
-0.282148	0.497176	9.956732	6.320037	-0.900867	-1.995593	0.35746	0.227586	-0.932088	0.39692	-2.879719	14.382566	76.515545	-276.327066	-31.681794	0.029912	-0.273943	-0.878812	8.464072	3.080572	-1.084469	-0.3784	5.928766	-2.583991	-0.534395	-0.509755	-0.110419
-0.048593	0.383092	10.188116	5.801691	-0.660572	-1.714181	0.300992	0.211785	-0.913199	2.815384	-1.363179	14.604539	91.674385	-274.020962	-30.78357	-0.009757	-0.306953	-0.847278	8.649654	3.198297	-0.601418	1.371824	5.824704	-3.751192	-0.534603	-0.525947	-0.109582
0.176012	0.32452	9.964916	6.752008	-0.500391	-1.898323	0.302121	0.20507	-0.937935	4.196761	-0.633422	14.690809	112.713577	-260.455914	-26.008022	-0.035043	-0.289639	-0.87643	8.544131	3.027058	0.054616	3.315445	6.357404	-4.310887	-0.506508	-0.510173	-0.094751
-0.398759	0.324452	9.840075	5.802751	-0.475833	-1.74185	0.287243	0.215687	-0.926926	5.591708	-0.919523	12.62513	141.260095	-241.626423	-22.962055	-0.062182	-0.354286	-0.828815	8.664925	3.259834	0.237526	4.981424	6.485755	-4.317533	-0.465064	-0.524927	-0.109231
0.180217	0.670134	10.193776	5.744385	0.172727	-2.037824	0.272379	0.209005	-0.898425	3.19215	-1.818005	10.649059	164.965613	-215.018124	-21.969748	-0.062697	-0.34111	-0.801119	8.73454	3.4364	0.838437	6.017516	8.161821	-3.351302	-0.521117	-0.539457	-0.155259
0.006351	0.497451	10.076005	6.851289	0.76213	-2.0621	0.301763	0.184242	-0.906367	2.184872	-1.366619	9.326176	178.542272	-173.737021	-17.911259	-0.075899	-0.387146	-0.797832	9.787487	3.664295	0.379979	7.192873	11.17428	-1.413947	-0.520766	-0.524917	-0.12504
0.24176	0.900824	10.423267	6.85615	1.655784	-2.262268	0.272751	0.212534	-0.912501	-1.151341	-2.320324	6.594401	190.107431	-123.216615	-15.088025	-0.141664	-0.390737	-0.753405	9.381092	3.143792	0.669585	7.806109	14.47778	-1.187432	-0.507067	-0.540905	-0.124133
-0.22378	0.497376	10.014698	7.534332	2.430004	-2.496984	0.330747	0.19055	-0.935218	-3.103463	-2.940873	1.344351	185.26114	-76.616068	-9.973914	-0.117194	-0.456156	-0.692543	10.252859	3.254952	-0.032296	7.864839	16.691585	0.696686	-0.548023	-0.494593	-0.095799
0.292624	0.497244	10.081573	8.885285	3.305474	-3.253356	0.273508	0.202291	-0.923161	-4.340561	-4.857465	-2.87277	146.550958	-23.049413	-7.715433	-0.155531	-0.454237	-0.720415	9.89546	3.255021	-0.21862	5.637688	19.370923	1.150413	-0.507343	-0.574943	-0.091403
-0.225225	0.956667	9.959776	10.11056	3.469374	-3.652911	0.300977	0.229084	-0.930691	-4.471656	-3.221802	-0.779356	76.242224	14.995108	-11.771248	-0.116974	-0.470405	-0.705889	9.537927	3.313165	-0.404696	2.982288	18.933715	1.100989	-0.46569	-0.573504	-0.10672
-0.168752	0.496852	9.902106	10.261205	3.352379	-4.115276	0.31587	0.201167	-0.924208	-5.122272	-4.627301	0.960779	28.519907	40.800705	-14.204163	-0.168953	-0.486025	-0.703782	9.645765	2.961967	-1.003047	-0.202951	17.387608	1.608915	-0.492742	-0.508316	-0.125737
0.173454	0.78357	9.85314	10.812191	3.38812	-4.330962	0.315498	0.197639	-0.910132	-8.167311	-2.421935	4.069165	7.211591	68.23853	-9.324289	-0.117564	-0.472548	-0.677189	9.655014	3.719427	-0.400764	-2.55598	16.124571	1.654027	-0.507484	-0.57329	-0.122458
0.009692	0.498175	10.246565	10.601634	4.064252	-4.411373	0.273136	0.198763	-0.909085	-6.780367	-2.705985	4.3245	17.296599	83.237955	8.405038	-0.117199	-0.516366	-0.702878	9.594472	3.428688	-0.522915	-4.515008	14.720742	0.659237	-0.464788	-0.490889	-0.141961
-0.280086	0.727425	10.071403	12.041341	4.198075	-4.781368	0.288372	0.208973	-0.951662	-4.679914	-3.105472	2.952908	8.6638	100.779448	27.31677	-0.104073	-0.48565	-0.705161	9.99573	2.844016	-1.236567	-4.898462	13.844536	-0.527146	-0.493092	-0.522856	-0.155955
-0.061297	1.012295	9.565386	12.471464	4.541252	-5.053048	0.315512	0.18034	-0.892641	-4.897225	-3.555211	3.514089	-5.478597	133.711721	38.361989	-0.116534	-0.498902	-0.732581	9.716056	2.848152	-0.403372	-4.573601	12.289355	-0.887653	-0.520979	-0.522438	-0.171623
-0.046573	0.670782	10.303028	13.174176	4.362936	-5.30332	0.286871	0.212159	-0.91285	-4.898326	-3.611589	3.457402	-19.275411	154.745693	46.360408	-0.077971	-0.454859	-0.707719	9.661192	3.430283	-0.102466	-4.677424	11.130639	-1.279062	-0.507209	-0.539253	-0.155188
0.002638	1.013701	9.907618	12.811536	4.815931	-4.742874	0.259802	0.154296	-0.884412	-3.958584	-3.274571	4.383262	-34.194133	167.369471	49.742156	-0.077531	-0.483356	-0.734412	9.892004	2.8475	-0.459978	-4.195081	10.252828	-2.010119	-0.479393	-0.538845	-0.155048
-0.055854	1.185826	9.850375	13.481482	4.268001	-4.937721	0.315512	0.18034	-0.892641	-3.376	-3.106373	4.735331	-49.291611	173.054844	50.403229	-0.051284	-0.482134	-0.749313	9.776868	3.02274	-0.281716	-3.921101	10.043155	-2.346296	-0.520628	-0.507898	-0.141405
-0.39501	1.301923	10.071589	12.350405	4.129351	-4.016656	0.315884	0.183868	-0.906716	-2.274442	-2.770106	5.155062	-64.572339	173.970648	49.351793	-0.090356	-0.45279	-0.736143	9.129776	3.547651	-0.111876	-3.772349	9.805599	-2.987508	-0.534741	-0.542966	-0.093217
-0.118386	0.782571	9.563307	10.545264	4.394015	-3.700472	0.287614	0.219216	-0.941002	-1.894532	-2.487725	6.805101	-76.352588	170.796609	48.169969	-0.063073	-0.417712	-0.796101	9.43173	3.432307	0.252574	-3.808611	9.28796	-3.229404	-0.479393	-0.538845	-0.155048
0.119374	1.014101	10.023551	9.509348	4.59071	-2.498221	0.330347	0.22162	-0.956125	-1.256562	-1.812707	7.102166	-85.05468	166.828109	47.969309	-0.063223	-0.448353	-0.794094	9.8494	3.83913	0.561542	-3.54342	8.411904	-4.204167	-0.520695	-0.525743	-0.109512
-0.050779	0.325168	10.074168	9.020623	4.802844	-2.43203	0.31587	0.201167	-0.924208	-0.722088	-1.53136	7.906238	-91.269553	161.693249	48.252337	-0.036311	-0.429666	-0.838698	9.729146	3.37405	0.377642	-3.187465	7.508433	-5.454174	-0.520699	-0.507072	-0.156933
-0.164837	1.244557	10.132655	9.229612	4.225166	-2.902046	0.302521	0.174	-0.917027	-0.47598	-0.967822	8.704502	-98.639872	158.016088	48.209806	0.028644	-0.413971	-0.84108	9.361034	3.72035	-0.34636	-2.859041	6.660677	-6.184793	-0.506791	-0.506868	-0.156862
0.173619	0.553804	9.852175	9.540334	4.777674	-2.70995	0.345268	0.159105	-0.914659	0.297779	-0.348544	9.966811	-106.353393	156.911085	52.354813	0.015964	-0.412974	-0.855154	9.371903	3.780898	0.252956	-2.532274	5.816078	-7.221028	-0.493163	-0.52203	-0.171483
-0.393689	1.014957	10.127236	9.19673	4.200202	-3.423722	0.303664	0.149986	-0.924272	0.940885	-0.462012	10.433131	-108.340933	156.350531	54.598326	0.041626	-0.353686	-0.831021	9.420475	4.010842	-0.284116	-1.925962	5.061731	-8.01421	-0.520558	-0.508724	-0.125877
-0.224153	1.01435	10.01687	8.126034	4.095699	-2.7783	0.302892	0.177528	-0.931103	0.893768	-0.236155	10.941868	-108.159336	156.304348	57.34202	0.029611	-0.335225	-0.874798	8.953558	3.664455	-0.054776	-1.565584	4.739807	-9.297531	-0.521396	-0.554823	-0.169949
-0.289367	1.242469	9.61875	10.489698	4.314535	-2.137511	0.289157	0.164132	-0.927338	1.726279	-0.236621	12.204864	-102.221551	154.349884	58.560608	0.107467	-0.334775	-0.876452	9.303273	4.127511	-0.225916	-0.464628	4.38838	-10.430578	-0.451648	-0.53761	-0.170435
-0.457749	1.185875	9.785728	9.121018	4.997881	-0.619724	0.31587	0.201167	-0.924208	1.859435	-0.179794	13.056923	-95.32656	152.375091	60.057253	0.095231	-0.302065	-0.906883	9.072671	3.199577	-0.054552	0.022865	3.842367	-10.70478	-0.493301	-0.539049	-0.155118
-0.341137	1.358599	9.902385	6.977055	4.827602	-0.033628	0.316627	0.190924	-0.934868	2.719959	0.100147	12.962015	-86.901962	149.023405	59.568191	0.095376	-0.331634	-0.919226	8.834425	3.664478	-0.116883	1.002861	3.299707	-11.133583	-0.451577	-0.538436	-0.154907
-0.234589	1.586594	9.507605	7.41711	5.51765	1.63238	0.302149	0.170471	-0.902951	2.595242	-0.576031	12.449272	-84.489272	146.673046	58.251804	0.107837	-0.318382	-0.891806	8.783652	3.434039	0.300376	1.361853	2.545745	-12.048086	-0.493372	-0.538222	-0.170646
0.000162	1.357868	9.79536	5.007716	6.286235	3.338518	0.330762	0.173251	-0.917726	3.640313	-0.802961	12.86732	-85.592158	144.803687	56.197424	0.147361	-0.255804	-0.910997	8.897978	3.607256	0.123597	2.22402	1.867992	-11.283973	-0.437736	-0.556077	-0.122945
-0.291884	1.644077	9.506733	4.278259	6.296497	4.843476	0.315884	0.183868	-0.906716	3.825313	-0.915471	13.437248	-85.411868	141.729229	53.515461	0.122	-0.25381	-0.939145	8.59616	3.664524	-0.241099	2.777283	1.159174	-10.57971	-0.492883	-0.506664	-0.156792
-0.172341	0.840777	9.732994	4.519715	5.964119	4.438707	0.31817	0.13584	-0.921205	4.128447	-0.070388	14.236958	-83.916369	137.598969	50.854894	0.161003	-0.238264	-0.940976	9.083965	3.550753	0.605907	3.732122	0.481444	-9.785363	-0.521188	-0.538631	-0.170786
0.001649	0.841136	9.850041	4.181776	5.777115	4.528642	0.317384	0.180682	-0.945529	4.761775	-0.127904	14.250208	-80.924036	132.195267	49.046144	0.186364	-0.240258	-0.912828	9.015315	3.43251	0.06515	4.567865	-0.235827	-8.165251	-0.493439	-0.556067	-0.138753
-0.053503	1.013984	9.963358	3.658501	5.687356	4.09935	0.316255	0.187396	-0.920792	5.220335	0.2655	14.203572	-77.494694	124.799515	48.142858	0.147807	-0.224091	-0.927354	8.965103	3.434623	0.543304	5.128956	-0.742174	-6.3312	-0.493789	-0.570607	-0.168972
-0.284665	0.898784	9.844715	4.598689	4.969192	2.766278	0.301763	0.184242	-0.906367	6.375485	0.150825	14.397574	-74.586952	115.281759	47.372197	0.161298	-0.237193	-0.955326	8.719134	3.432938	-0.000259	6.188078	-1.100419	-3.857834	-0.507417	-0.555445	-0.154351
-0.511373	0.78455	9.953484	4.005545	4.684887	0.49396	0.344897	0.155577	-0.900583	7.39664	1.049652	13.797058	-74.522902	103.217481	46.173112	0.174204	-0.192228	-0.944263	8.670447	3.725926	0.598945	6.388423	-1.159974	-0.98542	-0.52105	-0.521612	-0.187151
-0.232936	0.840095	9.561322	1.426677	4.623226	-0.542329	0.303292	0.146458	-0.910196	8.029021	2.118794	13.867896	-80.273402	85.553375	41.645584	0.225738	-0.20832	-0.930012	8.731219	2.970802	0.596832	6.186784	-0.939363	1.275913	-0.480019	-0.587422	-0.152537
-0.458738	1.013309	9.728151	3.531856	4.159824	-2.181334	0.316656	0.156326	-0.899885	9.649446	2.67946	14.355337	-81.380669	65.907922	34.789866	0.239014	-0.146964	-0.934302	8.669191	3.318899	0.477401	6.908953	-1.209897	4.025305	-0.465481	-0.557312	-0.107557
-0.16694	1.07175	10.018225	0.037576	5.240314	-4.024493	0.330405	0.152423	-0.886158	10.679579	2.677283	14.093899	-73.862394	51.402708	27.00578	0.252286	-0.145817	-0.948928	9.016645	2.386895	0.000793	7.694014	-1.389386	6.86579	-0.507555	-0.572464	-0.137986
0.531083	1.303431	10.601083	-4.723431	9.228664	-5.326061	0.315898	0.166569	-0.889225	11.139155	3.803079	14.161159	-59.40212	43.421912	19.199819	0.278237	-0.145667	-0.949479	9.078848	2.910433	0.243746	8.74389	-2.195749	8.302379	-0.493368	-0.556894	-0.123225
-0.337672	1.186999	10.07222	-5.390922	10.802166	-6.126627	0.344111	0.200418	-0.924907	11.41852	3.802208	13.770726	-40.778916	42.290639	12.667785	0.265337	-0.130421	-0.950207	8.964677	3.143996	0.482161	10.161519	-3.244858	9.67768	-0.493443	-0.537396	-0.186174
-0.328226	0.442189	10.523908	-6.977422	12.808194	-7.500238	0.316656	0.156326	-0.899885	11.165075	3.914399	12.689833	-24.001017	46.833009	6.838182	0.278978	-0.112882	-0.980186	8.672338	2.912861	0.595484	11.642952	-4.17359	11.26615	-0.521046	-0.540283	-0.139731
-0.463026	0.782578	9.499773	-8.842416	14.382351	-8.849408	0.315898	0.166569	-0.889225	15.704056	7.520432	23.488421	-1.253077	72.918333	-10.240199	0.25243	-0.175386	-0.96127	9.316553	2.677836	0.307066	14.152421	-4.218208	13.488585	-0.493647	-0.57226	-0.137916
-0.445542	1.24597	10.411353	-10.244788	16.200658	-9.858585	0.345297	0.124506	-0.879676	12.675204	4.475471	13.401414	70.426954	62.687074	-12.627176	0.291804	-0.143448	-0.978455	8.788844	2.621717	0.476635	15.602581	-4.245791	13.697428	-0.465272	-0.541119	-0.108394
0.23483	1.244026	10.083596	-13.786944	18.774744	-10.634634	0.317027	0.159854	-0.913961	14.179805	4.13497	13.772399	109.633659	61.24713	-21.025729	0.265852	-0.143598	-0.977903	8.900294	3.084819	0.181279	16.306287	-4.108593	12.502147	-0.479464	-0.538018	-0.170576
-0.194089	1.020864	11.551904	-20.003581	21.045749	-12.880083	0.360132	0.165787	-0.94316	17.317981	6.327368	15.425438	151.929404	1.638563	-35.425517	0.329696	-0.177079	-0.934225	9.612214	3.374568	0.435348	17.406074	-4.085057	10.602978	-0.493092	-0.522856	-0.155955
-0.379297	1.132976	10.866809	-22.526005	30.302889	-14.470562	0.358231	0.200043	-0.925256	17.608334	6.270594	15.544714	139.994787	-32.100634	-43.35367	0.278307	-0.190556	-0.960818	8.729598	3.667715	0.599799	17.302863	-4.717034	9.567147	-0.479393	-0.538845	-0.155048
-0.201308	1.766156	11.213922	-23.41034	40.06008	-13.450632	0.316656	0.156326	-0.899885	-1.413556	8.208719	0.653693	167.841951	-59.23355	-23.594865	0.32962	-0.1924	-0.933222	9.259798	4.073032	0.611433	16.962849	-4.375159	8.924879	-0.479602	-0.555037	-0.154211
-0.402157	1.312821	12.628865	-8.574335	44.924893	-5.501479	0.371237	0.189084	-0.883377	-0.567224	-2.32107	7.002967	77.788278	-13.646474	-8.232193	0.291208	-0.205801	-0.96009	10.083284	4.302951	0.508014	13.968595	-2.858379	6.147094	-0.479739	-0.572056	-0.137846
0.153643	1.366229	11.787445	-10.01147	54.838822	-5.029494	0.357088	0.224057	-0.918012	0.954763	0.888201	8.509732	7.114953	7.377998	-7.925875	0.264145	-0.255128	-0.913479	10.252764	4.242739	0.09172	10.106146	0.623965	5.258098	-0.465272	-0.541119	-0.108394
-0.579819	1.771271	12.34319	-9.396546	64.359403	-4.293786	0.371237	0.189084	-0.883377	-1.695405	-1.526954	10.829737	-10.989189	6.489344	-15.039576	0.32969	-0.237289	-0.944561	10.119596	4.123396	-0.749672	5.804328	4.961259	7.331358	-0.521113	-0.558128	-0.107838
-0.447821	0.683418	13.193628	-7.986391	74.0446	-4.232398	0.387244	0.171752	-0.919123	-3.122367	-2.199799	11.308702	1.349702	-1.436298	-7.524918	0.278157	-0.221197	-0.958811	10.52375	3.713694	-1.282861	3.761487	9.539826	10.526237	-0.493297	-0.55772	-0.107698
-0.454212	0.27988	12.85082	-3.382219	83.944406	-2.857961	0.372752	0.168599	-0.904697	-1.623357	-2.146176	11.45346	32.852292	-9.733897	9.650866	0.290392	-0.253906	-0.92838	10.007855	3.311591	-0.515706	3.623938	13.143931	13.963478	-0.493021	-0.523682	-0.140427
-0.397988	0.164714	12.794598	1.216771	93.263955	-1.830298	0.37198	0.196141	-0.911529	-0.274918	-0.629024	10.067764	46.616722	-11.959009	20.306658	0.303368	-0.253831	-0.928656	9.783875	2.849995	0.076983	3.922353	14.750858	15.452485	-0.507209	-0.539253	-0.155188
-0.857593	0.796661	12.731491	3.716562	99.894932	-0.318951	0.414742	0.163947	-0.891669	0.388133	1.227641	8.951044	35.841887	-7.021498	18.034887	0.277196	-0.239733	-0.914758	9.203058	2.621019	0.544245	6.348259	13.070754	16.063051	-0.548862	-0.540691	-0.139871
-0.860602	0.336405	12.559002	6.279012	107.241586	0.40648	0.427719	0.187586	-0.884774	-0.062396	1.059891	9.394347	24.456354	-4.589924	8.554598	0.263849	-0.2562	-0.899129	8.770832	2.791989	-0.481134	8.04204	10.034515	14.451377	-0.49288	-0.525335	-0.109372
-0.916867	0.509012	12.615465	8.510742	115.381289	1.483102	0.455589	0.183308	-0.871396	-0.295206	0.496875	9.219119	21.46724	-7.385023	-1.248177	0.290467	-0.238586	-0.929384	8.956279	2.96779	0.002165	9.170992	7.201316	10.762329	-0.493159	-0.540701	-0.124062
-0.698119	0.851325	12.109689	8.987922	122.846537	1.695114	0.441854	0.169912	-0.867631	-0.681779	0.779946	10.003848	24.802287	-10.373326	-6.731735	0.303738	-0.237439	-0.944009	9.318774	3.143186	0.488764	8.866061	5.793135	7.805335	-0.507067	-0.540905	-0.124133
-0.858789	0.911303	12.675121	8.457639	131.484466	1.009067	0.441483	0.166383	-0.853556	-0.161512	0.272048	10.070941	23.274016	-9.219941	-7.892947	0.303148	-0.239583	-0.91531	9.783531	4.418789	0.263379	7.427507	4.957036	5.338812	-0.520695	-0.525743	-0.109512
-0.845427	0.914198	13.357358	8.911076	140.180458	0.995828	0.454446	0.207322	-0.864152	0.300328	0.214903	10.137204	16.862166	-5.891463	-8.851494	0.26466	-0.268305	-0.941175	9.651983	3.602534	-0.58098	6.895165	5.498515	3.076427	-0.465414	-0.539467	-0.13945
-0.557876	0.684466	13.418813	10.374129	149.511468	-0.451377	0.483844	0.16526	-0.854603	-0.22402	0.328297	9.843221	11.720126	-4.780346	-10.570923	0.264515	-0.238736	-0.928832	10.121911	3.600959	-0.69199	5.506834	6.457594	1.548706	-0.506929	-0.523887	-0.140498
-1.090034	0.910986	12.556961	13.535694	159.813331	-0.170276	0.497608	0.144058	-0.823385	-0.738375	0.273079	10.002212	9.552947	-5.233081	-11.193717	0.238928	-0.282704	-0.953969	9.762758	4.356016	-0.875099	3.261311	8.084997	0.173733	-0.507067	-0.540905	-0.124133
-1.085	0.10777	12.780995	16.572784	169.71287	0.288655	0.526192	0.181435	-0.873143	-0.622251	0.385572	10.061364	6.340841	-5.155208	-10.578978	0.251979	-0.267308	-0.955249	10.230485	4.353947	-1.105923	1.326715	9.336026	-0.191985	-0.535371	-0.572872	-0.138127
-1.603754	0.279744	12.601138	20.627021	180.162563	1.366965	0.553347	0.135503	-0.79663	-0.163498	0.046632	9.957472	3.222389	-4.956314	-9.531376	0.250352	-0.303308	-0.881493	10.109806	3.598239	-1.350966	-0.515097	10.493733	-0.374217	-0.520699	-0.507072	-0.156933
-2.241223	0.106186	12.190194	24.147911	188.705804	2.385135	0.524334	0.163794	-0.802763	-0.170297	0.440708	9.674606	1.368138	-4.9544	-8.731333	0.303883	-0.267008	-0.956352	9.348794	3.775706	-1.005088	-2.21831	9.911757	-0.884837	-0.493718	-0.571434	-0.153444
-2.806263	0.51038	12.57872	28.897044	193.332345	2.600048	0.595708	0.134379	-0.797677	-0.162397	0.103009	10.014159	-0.020024	-4.703494	-7.589334	0.251389	-0.269452	-0.926549	8.940913	3.89404	-0.712762	-3.988503	8.377141	-0.993353	-0.479113	-0.523478	-0.140357
-3.660543	0.397084	12.788947	37.378767	192.857903	1.86256	0.607543	0.182032	-0.783538	-0.227539	0.271824	9.673255	0.071961	-4.677288	-6.725825	0.277265	-0.284622	-0.926097	9.175992	3.370321	-0.8304	-4.492472	7.153623	-1.169065	-0.492462	-0.49295	-0.111046
-5.09586	-0.292144	12.530802	46.176818	184.525483	0.843013	0.650705	0.118767	-0.74277	-0.3878	0.723313	10.293043	-3.163485	-4.044403	-6.629652	0.264145	-0.255128	-0.913479	9.236534	3.66106	-0.708249	-5.68757	4.772172	-2.009122	-0.54907	-0.556884	-0.139034
-5.054236	-0.238121	11.736214	56.949914	176.378344	3.224899	0.650719	0.101468	-0.725278	-0.095184	-0.516402	10.411323	-3.377446	-3.834701	-6.288635	0.303738	-0.237439	-0.944009	9.653488	3.428553	-0.521814	-6.938264	3.031032	-2.668654	-0.465414	-0.539467	-0.13945
-5.347681	-1.101226	11.329055	66.611698	168.941313	10.221472	0.67896	0.100719	-0.725977	-0.332915	-0.403594	10.066745	-2.356595	-3.5857	-4.867261	0.303958	-0.251688	-0.957355	9.116456	4.067615	-0.768626	-8.062065	1.656169	-3.208141	-0.493372	-0.538222	-0.170646
-1.602252	-1.16864	9.696711	81.56229	157.523139	21.001505	0.67746	0.103905	-0.687165	0.249777	-0.291727	10.418766	-2.070749	-2.968862	-4.860898	0.27719	-0.299943	-0.925093	9.055084	3.660477	-0.951178	-9.269506	1.040366	-3.231391	-0.465556	-0.537814	-0.170505
-0.445106	-1.811259	7.386463	94.28521	117.744603	17.772959	0.693481	0.069274	-0.705418	-0.095377	0.215942	10.468579	-1.973971	-2.60272	-4.394762	0.264069	-0.270449	-0.912475	9.585264	3.600938	-1.001428	-10.169103	0.706023	-3.746092	-0.492883	-0.506664	-0.156792
0.588483	-1.351749	7.578996	106.207086	77.372291	14.537106	0.720607	0.05794	-0.663889	-0.383981	-0.008889	10.405706	-0.73999	-2.71091	-4.209878	0.251759	-0.25306	-0.941902	9.522521	3.309704	-1.243392	-11.497661	-0.100692	-3.095628	-0.492883	-0.506664	-0.156792
2.356747	-2.343574	4.313046	104.658818	47.217061	12.088805	0.748119	0.032835	-0.618944	-0.159225	-0.291209	10.127106	0.926111	-2.844279	-4.024897	0.290461	-0.298796	-0.939719	9.285376	3.774852	-1.245816	-12.492343	-1.36187	-2.749823	-0.520558	-0.508724	-0.125877
4.174538	-2.520361	3.608864	96.584354	12.584171	8.513232	0.706472	0.075614	-0.681032	0.018545	0.215679	10.414358	0.775929	-2.508919	-4.021683	0.27756	-0.28355	-0.940447	9.410821	3.42761	-0.885657	-13.363317	-2.468074	-2.558016	-0.507347	-0.556272	-0.138823
4.521255	-3.221771	0.827961	77.822726	-26.565433	5.385711	0.734742	0.040266	-0.646746	-0.620287	-0.008695	10.117672	0.283416	-2.391321	-4.205877	0.27734	-0.269302	-0.927101	9.77069	3.311884	-0.580015	-14.211355	-3.807522	-3.465416	-0.521747	-0.569363	-0.200168
5.004575	-4.308184	2.083052	56.090511	-65.400386	2.578566	0.749234	0.04342	-0.661172	-0.219077	0.272156	10.069732	-0.79523	-2.190785	-4.143095	0.303217	-0.284472	-0.926648	9.534491	3.3705	-0.584169	-15.207667	-4.786125	-3.823881	-0.479322	-0.539671	-0.13952
5.097207	-2.404694	3.968281	31.566749	-87.016275	-4.60235	0.707287	-0.003826	-0.621725	-0.228317	0.046455	9.616425	-0.726891	-1.640442	-3.767634	0.290536	-0.283475	-0.940722	9.64538	3.60105	-0.940421	-15.527558	-5.572448	-4.796948	-0.507559	-0.553793	-0.185407
5.047296	-3.322269	4.304425	23.066449	-94.952703	-10.472651	0.735499	0.030023	-0.657407	-0.441547	-0.008781	10.404497	-0.878125	-1.367824	-3.549249	0.303663	-0.252759	-0.943005	9.883085	3.368453	-0.877101	-15.845851	-6.454945	-5.341693	-0.492883	-0.506664	-0.156792
3.962559	-4.527271	4.391907	17.502404	-97.125026	-19.110378	0.70953	4.4e-05	-0.688689	0.012717	0.102781	10.131065	-1.216052	-1.219011	-3.517214	0.27675	-0.271446	-0.898401	9.534936	4.125982	-0.461142	-15.581066	-7.423313	-6.254875	-0.507	-0.52306	-0.156025
3.762274	-1.1313	5.993577	1.415331	-101.694505	-26.745	0.651147	0.035799	-0.669387	0.124436	-0.010238	9.963469	-1.273435	-0.853222	-3.297827	0.277711	-0.25291	-0.942454	9.536307	4.010078	-0.401729	-14.820417	-8.022215	-7.232731	-0.507347	-0.556272	-0.138823
3.060254	-1.995803	5.180652	-5.46056	-102.984579	-35.089389	0.638527	0.032987	-0.70785	-0.618755	-0.177639	10.174169	-0.714452	-0.602054	-3.109913	0.27712	-0.255053	-0.913754	9.066898	3.314493	-0.353593	-14.176143	-8.572675	-7.018509	-0.478838	-0.489441	-0.173087
2.487093	-2.684928	5.109768	-24.471409	-112.393819	-37.457467	0.665239	0.070023	-0.70472	-0.170428	-0.122645	9.617492	-0.279946	-0.44304	-3.13881	0.264365	-0.269377	-0.926825	9.424857	3.546976	-0.106373	-12.700637	-8.869449	-7.38917	-0.465627	-0.536988	-0.186033
2.340443	-1.989957	6.416945	-39.897293	-118.400715	-37.41864	0.651119	0.070398	-0.704371	-0.395831	0.497659	9.896376	-0.526124	-0.355187	-2.983995	0.251313	-0.284772	-0.925545	9.015876	3.665062	0.126046	-10.967899	-8.316125	-7.061914	-0.507555	-0.572464	-0.137986
1.502001	-2.444525	7.421668	-50.299069	-121.428747	-34.983933	0.651519	0.039327	-0.683463	-0.504055	0.047468	10.176777	-0.060489	-0.165922	-2.889255	0.264735	-0.252985	-0.942178	9.016821	3.25853	0.124315	-9.238526	-7.84952	-7.223209	-0.507764	-0.588656	-0.137149
0.880654	-1.810282	7.866898	-56.354933	-121.749329	-30.892072	0.624764	0.05419	-0.739069	-0.03969	-0.065913	10.356272	0.650545	-0.097187	-2.641376	0.277265	-0.284622	-0.926097	9.190163	3.431611	-0.051363	-7.997298	-7.115069	-6.833914	-0.493163	-0.52203	-0.171483
0.66347	-1.233047	8.490241	-59.925268	-122.284327	-25.860093	0.665225	0.087322	-0.722212	-0.168095	0.553464	9.78798	0.65304	0.11626	-2.454284	0.251389	-0.269452	-0.926549	8.951607	3.082953	-0.236969	-5.70882	-6.126463	-6.999726	-0.507067	-0.540905	-0.124133
0.038001	-1.059302	8.706129	-62.204157	-122.980962	-19.607742	0.582374	0.089912	-0.773005	-0.382665	-0.065172	10.462298	1.20664	-0.032827	-2.023729	0.277856	-0.282479	-0.954796	9.067303	3.140265	-0.354334	-4.157709	-4.897066	-7.041772	-0.49358	-0.554415	-0.169809
-0.008035	-1.171731	9.273064	-64.881057	-123.681199	-13.201187	0.609829	0.134004	-0.798026	-0.38519	-0.008936	10.349066	3.030825	0.169659	-1.311204	0.26503	-0.251913	-0.956528	9.480416	3.139319	-0.346631	-2.177887	-4.126199	-6.960937	-0.507209	-0.539253	-0.155188
-0.287958	-0.710544	9.610546	-67.900203	-124.963731	-7.110045	0.609829	0.134004	-0.798026	-0.214265	-0.347337	10.239129	4.01619	-0.035069	-0.911683	0.251313	-0.284772	-0.925545	8.890255	3.14067	-0.357636	-1.029394	-3.298406	-6.755118	-0.506925	-0.542558	-0.093077
-0.389478	-0.190592	10.292728	-70.553521	-126.144656	-1.693227	0.553361	0.118203	-0.779138	-0.16898	0.384425	9.731198	4.72694	0.032257	-0.448021	0.27756	-0.28355	-0.940447	8.712106	3.140828	-0.420844	0.545746	-2.956273	-6.762455	-0.535162	-0.55668	-0.138964
-0.102507	0.383857	10.357561	-70.846479	-126.24828	1.894078	0.580831	0.144996	-0.786668	-0.44649	0.04736	10.177986	4.696478	0.120036	0.138561	0.264585	-0.283625	-0.940171	8.88904	3.663354	-0.35541	1.572681	-2.225413	-6.097313	-0.451298	-0.52307	-0.140217
-0.206912	0.271229	10.86653	-71.14569	-126.239835	3.735121	0.569339	0.13547	-0.849867	-0.509861	0.554253	9.950645	4.206624	0.451883	0.018154	0.27719	-0.299943	-0.925093	9.188752	2.617805	-0.234545	2.996369	-1.733724	-5.829763	-0.49295	-0.524509	-0.1249
-0.37476	1.019058	11.093738	-71.229208	-125.356593	4.455054	0.525849	0.143308	-0.824083	-0.163929	0.271954	9.957661	4.576179	0.393244	0.32615	0.289871	-0.30094	-0.911019	9.186031	3.31447	-0.291485	4.018112	-1.427641	-5.498747	-0.493647	-0.57226	-0.137916
0.084514	0.846643	11.158776	-71.774183	-124.31446	4.534884	0.541498	0.105149	-0.828261	-0.399134	0.328526	9.726315	3.713028	0.535191	0.388523	0.329684	-0.297499	-0.954896	9.42082	2.442048	-0.470512	4.916268	-1.090465	-5.259117	-0.521396	-0.554823	-0.169949
-0.660617	0.44485	11.085758	-73.818721	-123.005755	4.899362	0.497951	0.182185	-0.872444	0.076434	0.04658	10.415424	3.712093	0.473056	0.511217	0.28972	-0.33158	-0.909012	9.013094	2.967161	-0.116549	5.935215	-0.841146	-5.355681	-0.465623	-0.555659	-0.138613
-0.931922	1.310058	11.879753	-76.281452	-120.040129	5.414625	0.497193	0.192427	-0.861784	-0.516898	0.441307	9.610713	3.74486	0.655022	0.88299	0.277045	-0.270374	-0.912751	9.362654	3.023437	-0.349326	6.678514	-0.720541	-4.931086	-0.521534	-0.571842	-0.153584
-0.993382	0.964485	11.64978	-77.205212	-116.395486	6.335158	0.469324	0.196705	-0.875162	-0.55359	0.27323	10.572235	4.049898	0.352293	0.880225	0.263994	-0.285769	-0.911471	9.482172	2.384331	-0.349845	7.17534	-0.38386	-4.781683	-0.507697	-0.570812	-0.169042
-0.863119	0.738013	12.446985	-76.344939	-111.882062	7.295332	0.45596	0.186837	-0.885472	-0.270036	0.610532	10.408645	4.259255	-0.167676	1.091021	0.289871	-0.30094	-0.911019	8.893401	2.734632	-0.239552	7.367221	0.317841	-4.541233	-0.465694	-0.554833	-0.154141
-1.143166	1.371525	12.78519	-74.718104	-107.553089	8.556965	0.411698	0.222217	-0.86652	0.01438	0.497189	10.244676	4.565775	-0.348148	1.151129	0.316564	-0.268005	-0.942278	9.187537	3.140489	-0.23232	7.497163	1.112984	-4.484375	-0.521188	-0.538631	-0.170786
-1.084756	1.314283	12.842915	-72.967888	-103.507624	10.457617	0.44144	0.218282	-0.906031	-0.048691	0.215408	9.960032	4.222514	-0.628043	1.086413	0.263994	-0.285769	-0.911471	9.24076	2.790415	-0.592144	7.967214	1.814428	-4.122683	-0.521743	-0.588034	-0.152747
-2.411174	0.681208	12.302973	-72.595526	-99.47423	12.852665	0.411313	0.235988	-0.869936	-0.282902	0.384688	9.78542	4.714785	-0.775499	1.146999	0.238112	-0.330809	-0.922259	8.352217	2.791698	-0.788371	8.19296	2.665731	-3.546886	-0.493856	-0.588452	-0.137079
-0.610019	1.31757	13.70462	-50.109799	-111.847183	20.345204	0.426162	0.259969	-0.915929	-0.16326	0.553654	10.014538	4.992711	-0.772575	1.239737	0.264214	-0.300018	-0.924818	9.178848	2.61558	-0.773707	7.740327	3.638851	-3.152584	-0.479669	-0.572882	-0.122318
-2.230751	1.027663	12.762586	-58.403567	-115.377853	21.875585	0.411655	0.274115	-0.918996	-0.102845	0.328319	10.128837	4.768309	-1.419085	1.202299	0.27741	-0.314191	-0.938439	9.357827	2.731821	-0.650097	7.595732	4.489463	-2.636563	-0.479255	-0.521826	-0.171413
-2.770828	1.424819	11.503486	-70.197046	-113.861527	29.753254	0.369694	0.244168	-0.89704	-0.392205	0.497802	10.066295	4.919577	-1.720155	0.644521	0.277636	-0.26823	-0.94145	8.647027	2.907175	-0.782374	6.684646	5.48427	-1.537765	-0.507347	-0.556272	-0.138823
-3.728357	1.141694	12.279293	-92.136531	-106.952203	37.869966	0.397163	0.270961	-0.904571	-0.214134	0.216015	10.296243	5.775045	-2.446154	0.792131	0.290021	-0.270299	-0.913027	8.82199	2.383344	-0.961019	5.493538	5.923986	-0.099104	-0.521117	-0.539457	-0.155259
-4.001024	2.35131	13.017883	-99.651847	-102.680799	45.871293	0.41127	0.287886	-0.922412	-0.270814	0.385162	10.351816	6.634759	-2.835036	0.973924	0.316413	-0.298646	-0.94027	8.757471	2.382243	-1.261654	4.489656	6.794845	1.122895	-0.507764	-0.588656	-0.137149
-3.669431	2.820526	15.356358	-97.469998	-100.893939	51.872532	0.355559	0.261842	-0.914183	-0.621927	0.21658	10.061222	7.121489	-3.440867	0.783323	0.290612	-0.268155	-0.941726	8.706563	2.209881	-0.844148	3.488492	7.753699	2.711239	-0.507693	-0.589483	-0.121621
-2.864476	-0.339097	15.415528	-16.804769	-102.827064	79.01549	0.369294	0.275239	-0.917948	-0.155683	0.384947	10.354234	7.580522	-3.772712	0.842049	0.264365	-0.269377	-0.926825	8.756796	2.672623	-1.260418	3.713283	8.42054	3.379642	-0.535722	-0.587412	-0.168345
-6.363517	4.705217	12.299887	23.981227	-93.75827	63.380781	0.353673	0.278799	-0.878787	0.014488	0.440859	10.244628	7.695946	-4.443575	0.496362	0.290392	-0.253906	-0.92838	8.820754	2.441173	-1.020679	2.467712	8.939522	6.010183	-0.493927	-0.587626	-0.152607
-8.262935	4.704413	11.751464	13.204147	-114.127424	52.013712	0.326146	0.321204	-0.941224	-0.159741	0.610126	10.184504	7.318795	-4.968591	0.336697	0.264365	-0.269377	-0.926825	8.768746	2.268563	-0.663079	1.990117	9.653021	7.842382	-0.535513	-0.57122	-0.169182
-10.555	10.960103	23.553975	-38.559331	-71.148418	69.353976	0.342939	0.259031	-0.952646	-0.283788	0.215649	9.728638	7.561768	-5.330829	-0.067474	0.316268	-0.269077	-0.927928	8.885273	2.442274	-0.720044	2.92281	10.417977	8.141001	-0.521325	-0.555649	-0.154421
-9.318871	2.803798	10.358984	-36.458548	-35.657507	55.515865	0.299063	0.28064	-0.930278	-0.281586	0.328405	9.842012	7.366973	-6.126873	-0.630452	0.264805	-0.297874	-0.953517	8.94815	2.675432	-0.478327	3.088206	10.583481	9.942952	-0.54935	-0.57225	-0.153725
-11.363643	2.33679	8.214517	-10.808074	-9.598136	66.656552	0.327289	0.29719	-0.948468	-0.170405	0.497039	9.674653	5.941512	-6.53994	-1.19061	0.27712	-0.255053	-0.913754	8.768206	2.500867	-0.66209	3.146309	9.534771	10.803579	-0.49295	-0.524509	-0.1249
-11.476594	4.807583	8.393225	24.918649	0.522815	64.265698	0.355531	0.296441	-0.949167	-0.106772	1.116851	10.016221	4.235153	-7.200457	-1.969251	0.264289	-0.284697	-0.925821	9.003575	2.325852	-0.718337	3.968856	7.848953	11.419957	-0.535375	-0.554201	-0.185547
-13.744114	8.273627	12.56918	44.569193	9.982969	59.33516	0.300177	0.291225	-0.972506	-0.275542	0.328642	10.12521	2.902707	-7.581886	-2.498191	0.28972	-0.33158	-0.909012	9.168289	3.36859	-1.249748	4.604446	6.383556	11.363518	-0.492954	-0.505837	-0.17232
-17.119924	7.402345	9.658323	86.624822	27.243022	53.271048	0.315441	0.266836	-0.980099	-0.106687	0.440837	9.959013	2.253082	-7.594546	-1.820624	0.28928	-0.303083	-0.88232	8.991916	3.078615	-1.254285	5.299748	5.139461	10.633363	-0.493443	-0.537396	-0.186174
-16.903953	7.871403	11.937718	115.144599	43.659769	59.004715	0.315469	0.232238	-0.945116	-0.160411	0.328426	10.127628	2.52891	-7.659798	-0.680415	0.276744	-0.331655	-0.908736	8.942689	3.603907	-0.654092	5.929497	4.213034	8.740459	-0.507835	-0.58783	-0.152677
-18.544543	9.77276	12.993599	138.136636	62.423262	50.567242	0.37158	0.227211	-0.932437	0.201559	-0.122248	10.870817	-2.599007	-7.578983	0.456902	0.225506	-0.314491	-0.937336	9.829571	3.369825	-0.578667	7.171687	2.644865	7.001251	-0.521463	-0.572668	-0.138057
2.722391	5.589141	5.774355	71.812202	54.667536	51.582593	0.345197	0.245602	-1.002118	-0.09145	-0.57259	10.581195	-1.123195	-7.797577	3.939506	0.237967	-0.30124	-0.909916	10.001158	4.297894	-0.751131	8.859672	-0.380152	4.31992	-0.493856	-0.588452	-0.137079
1.505294	-0.835197	7.655837	48.881154	32.133797	37.485535	0.372723	0.203197	-0.939681	-0.148238	-0.347113	10.636815	-0.633512	-7.872564	6.991169	0.276675	-0.286766	-0.897397	10.829025	4.063947	-0.676807	10.518958	-3.626596	2.342764	-0.492746	-0.489645	-0.173157
0.723024	-1.967001	11.500318	9.464872	5.704803	7.640274	0.358946	0.241699	-0.988391	-0.134186	-0.740905	11.259519	-1.256247	-7.79095	12.078212	0.238413	-0.269527	-0.926273	11.075169	4.937267	-0.009721	12.142643	-9.099379	2.699203	-0.507488	-0.554619	-0.169879
0.340271	-0.079384	9.568595	6.024334	7.720496	10.074908	0.373095	0.206726	-0.953757	-0.423892	-1.022114	11.139958	-5.444295	-8.678231	17.738558	0.27675	-0.271446	-0.898401	10.311895	3.719673	0.030689	9.498843	-13.287603	4.562593	-0.507488	-0.554619	-0.169879
1.11918	-0.187327	11.345034	19.75617	11.72098	4.427075	0.360117	0.183086	-0.960652	-0.632117	-2.429187	12.04017	-8.35927	-8.943158	24.485216	0.238042	-0.285919	-0.91092	9.607792	2.908723	0.133836	6.20362	-13.83489	6.074785	-0.54872	-0.542344	-0.108815
0.014768	-0.362483	10.470357	31.50135	9.298996	-4.846493	0.346383	0.16969	-0.956887	-1.153598	-0.170228	17.466171	-38.652903	-33.804062	34.664995	0.251609	-0.2837	-0.939895	8.887899	2.733396	-0.539087	4.445729	-10.577315	6.921408	-0.535233	-0.555854	-0.154492
-0.931658	0.033757	8.919197	31.859471	4.597135	-7.469476	0.402093	0.195734	-0.965116	-0.21657	-0.79574	12.786323	-37.885708	-73.742647	27.331831	0.238413	-0.269527	-0.926273	9.462384	2.844736	-1.366284	3.335379	-7.783103	8.44033	-0.521117	-0.539457	-0.155259
-0.585454	0.953297	9.100298	21.846883	4.814679	1.763422	0.404022	0.126878	-0.948036	-0.765587	2.196857	19.684361	-16.204842	-85.789406	6.974787	0.225587	-0.238961	-0.928005	10.170423	2.436337	-1.414717	0.611542	-5.813564	9.296616	-0.50672	-0.507694	-0.141335
0.287631	1.243019	9.857298	16.418661	0.727233	-0.495464	0.373466	0.210254	-0.967833	-0.871281	-0.060679	14.52826	3.583031	-116.744251	-1.825507	0.225581	-0.299171	-0.93834	10.105675	3.481099	-1.591088	-2.889846	-2.933535	7.61448	-0.507417	-0.555445	-0.154351
-0.149326	-0.188345	10.865713	10.898893	2.125348	4.051286	0.373081	0.224025	-0.971249	-0.983864	0.502984	14.696235	-0.323034	-132.958068	-7.569584	0.225141	-0.270674	-0.911648	10.464869	3.655753	-1.284209	-2.145616	-1.603882	6.474548	-0.521255	-0.556476	-0.138894
-0.342458	1.645566	9.846738	14.057226	1.947005	4.805973	0.360117	0.183086	-0.960652	-1.319154	0.278688	15.141909	6.715383	-150.442746	-9.124872	0.199855	-0.25336	-0.9408	10.752537	4.00205	-1.636665	-2.094379	-1.645925	4.640709	-0.507067	-0.540905	-0.124133
-0.013986	-1.275475	11.88671	3.764307	1.917837	5.877804	0.402093	0.195734	-0.965116	-1.656108	-0.340017	15.473971	17.141456	-166.661351	-14.94983	0.224991	-0.301315	-0.909641	10.825453	4.179357	-0.856033	-1.282109	-2.691167	2.47273	-0.506858	-0.524713	-0.12497
-0.521317	2.218658	9.504692	-5.239232	2.324922	6.953005	0.418872	0.15086	-0.994029	-1.081532	0.222211	15.486535	26.781242	-186.390822	-20.77938	0.134235	-0.28652	-0.908714	9.892895	4.358465	-0.213922	-0.961998	-3.057342	-0.460742	-0.479535	-0.537192	-0.186104
0.470245	0.096235	10.36749	2.101182	3.973288	8.24666	0.388387	0.147739	-0.926367	-1.194853	-1.354876	15.426149	32.990918	-206.056472	-24.607242	0.147801	-0.284301	-0.937689	10.187706	4.473942	-0.207926	0.034207	-3.789403	-3.272599	-0.535095	-0.538835	-0.170857
0.289035	0.84117	9.912461	3.785643	4.641813	6.903348	0.38873	0.185866	-0.975426	-1.764463	-1.353561	15.697258	42.216555	-221.378976	-25.060243	0.121108	-0.317235	-0.906431	9.129276	4.709666	0.012883	0.72383	-4.898459	-5.225761	-0.535025	-0.539661	-0.155329
-0.444055	0.729238	10.466034	0.142533	5.301916	6.832562	0.373838	0.213782	-0.981909	-1.370876	-2.143369	15.1953	55.057175	-236.591914	-26.064108	0.06928	-0.302215	-0.906332	9.190878	4.070942	0.071171	1.267475	-5.588966	-6.294086	-0.535229	-0.574525	-0.107071
0.169248	0.437955	9.62428	1.97964	5.722522	5.730106	0.345654	0.145334	-0.911243	-0.763258	-2.03289	14.019261	63.41668	-249.820092	-29.57962	0.043032	-0.303437	-0.891431	8.893192	4.24535	-0.053404	2.026895	-6.030205	-7.731105	-0.535304	-0.555027	-0.170019
0.398758	1.299654	9.689207	5.17026	6.729491	4.970614	0.416228	0.17806	-0.947973	0.607779	-1.585212	13.595538	66.59004	-258.132514	-34.283509	-0.009317	-0.33545	-0.873971	8.603883	4.13111	0.240134	3.232974	-5.380687	-8.013621	-0.48009	-0.586596	-0.168064
0.289408	0.324196	9.91029	8.012627	6.671464	3.121458	0.401736	0.174906	-0.933548	2.803164	-1.927006	13.98103	73.458448	-254.639541	-33.811741	-0.022959	-0.352989	-0.843992	8.435618	3.668637	0.654203	4.233447	-3.819956	-7.749644	-0.521117	-0.539457	-0.155259
0.29613	0.268202	10.251167	8.986834	6.694816	1.462987	0.429206	0.201699	-0.941078	4.964294	-1.425123	12.837963	88.412498	-243.995481	-31.135465	-0.0481	-0.365244	-0.885486	8.837727	3.66522	0.062837	4.62375	-1.714923	-7.088759	-0.507697	-0.570812	-0.169042
-0.287265	1.415276	9.73318	8.530347	6.965077	1.836705	0.429991	0.156858	-0.916754	4.884992	-0.806186	11.874403	99.37055	-220.311639	-34.929699	-0.075308	-0.385002	-0.826532	8.244534	3.549676	-0.128382	5.510652	0.975635	-6.676954	-0.548929	-0.558536	-0.107978
-0.341753	0.66906	9.842636	8.105728	7.388441	2.274154	0.386087	0.213065	-0.92937	0.960691	-2.209978	8.507123	111.251286	-177.520087	-39.673907	-0.115197	-0.403763	-0.781652	8.948076	4.128074	-0.292425	5.378877	2.981714	-5.494156	-0.47946	-0.55669	-0.123155
-0.047645	0.6131	10.245934	9.535076	6.644621	0.6939	0.388401	0.130439	-0.908875	0.078374	-0.96737	10.414571	120.285161	-129.553213	-35.89179	-0.128323	-0.434479	-0.779369	8.596585	3.955151	-0.179956	4.439183	4.406871	-4.611267	-0.535092	-0.557506	-0.123436
-0.682887	0.440025	9.948696	9.404326	5.97909	-0.297913	0.389502	0.158323	-0.968595	-0.588609	-1.643525	8.758155	135.123252	-94.56566	-41.358264	-0.090061	-0.451718	-0.750493	9.020007	3.782203	0.366168	3.88205	5.995793	-1.682869	-0.521538	-0.553171	-0.201005
-0.391006	0.383582	10.238288	10.372922	4.954453	-1.697419	0.402836	0.20279	-0.993267	-1.174979	-2.602925	5.461372	134.984456	-64.54134	-45.098126	-0.115498	-0.465045	-0.777637	9.252345	3.490294	0.129706	2.923245	8.330081	0.020973	-0.535509	-0.589891	-0.121762
-0.449664	0.785473	10.18201	11.527813	4.424458	-3.273445	0.402093	0.195734	-0.965116	-1.561257	-2.716552	3.528277	119.979035	-33.22058	-46.987476	-0.155531	-0.454237	-0.720415	9.609203	3.722529	0.317018	1.926844	10.894507	0.165158	-0.54935	-0.57225	-0.153725
-0.116118	0.725612	9.676772	11.612786	3.756445	-3.959256	0.373852	0.196483	-0.964417	-2.161627	-2.43477	2.383633	98.064764	6.183095	-47.322348	-0.12973	-0.484728	-0.718959	9.545225	3.489124	0.015394	0.644486	12.107838	0.714146	-0.507555	-0.572464	-0.137986
-0.221926	1.014832	10.130576	12.433555	3.310115	-4.919604	0.417	0.150518	-0.941141	-3.237452	-2.319349	3.210353	79.311198	41.925904	-45.625701	-0.130251	-0.531761	-0.701598	9.726	3.780088	0.259559	-0.703964	13.143079	0.714089	-0.493163	-0.52203	-0.171483
0.049912	0.954047	9.396812	10.036803	2.628771	-5.445149	0.402865	0.168192	-0.958284	-5.16728	-1.469589	4.529311	68.675508	60.793035	-40.545366	-0.143227	-0.531836	-0.701323	9.772641	3.893385	-0.397822	-2.091233	13.292939	0.53502	-0.549212	-0.555231	-0.17009
-0.285861	1.013426	9.788344	9.175202	2.134102	-5.542715	0.38913	0.154795	-0.954519	-3.049664	-1.36139	4.00774	67.267856	58.433231	-24.509579	-0.144483	-0.551444	-0.64292	9.907045	3.9549	0.50323	-3.300448	13.053021	-0.345779	-0.535584	-0.570393	-0.18471
-0.283593	0.956467	9.901809	8.474866	2.743704	-5.377447	0.403222	0.189019	-0.989852	-3.202616	-1.813336	2.192476	39.243273	73.360207	-8.600188	-0.130326	-0.547082	-0.700595	9.603026	4.011673	0.01872	-4.177405	12.237494	-1.652905	-0.493439	-0.556067	-0.138753
-0.040923	0.557106	10.586811	1.996031	0.714563	-5.2691	0.388001	0.16151	-0.929783	-4.431019	-1.471464	3.978631	21.353688	93.457363	4.687242	-0.116979	-0.530614	-0.716224	9.66957	3.141634	0.315646	-4.408791	11.458989	-3.359839	-0.520628	-0.507898	-0.141405
0.124284	0.383209	10.248309	1.349546	0.375594	-5.456762	0.402865	0.168192	-0.958284	-3.325295	-1.416707	4.568044	4.881795	103.788905	18.958042	-0.090588	-0.558961	-0.743468	9.361149	3.197418	-0.408492	-4.046277	11.195084	-4.337874	-0.521534	-0.571842	-0.153584
-0.51925	0.897744	9.555995	5.216772	1.410206	-5.665761	0.402879	0.150892	-0.940792	-3.951585	-1.246246	4.894726	-7.300283	108.970316	32.441537	-0.078052	-0.530389	-0.717051	9.416458	3.37077	-0.58637	-4.578434	11.053167	-5.588298	-0.507697	-0.570812	-0.169042
0.168834	1.012371	9.626693	3.531393	1.589507	-5.903348	0.402093	0.195734	-0.965116	-2.852013	-1.135395	5.200988	-18.69589	110.282587	44.006845	-0.077982	-0.575279	-0.72839	9.42061	3.952766	-0.284363	-4.216478	10.697173	-6.535313	-0.479669	-0.572882	-0.122318
0.020081	1.534535	10.819439	2.059032	1.210729	-5.629245	0.40478	0.116636	-0.958697	-1.695115	-1.531675	5.451393	-29.360654	110.60686	53.435807	-0.077907	-0.559958	-0.729394	9.54536	3.431048	0.015147	-4.50478	10.157825	-7.72358	-0.5353	-0.573699	-0.122599
0.12721	0.958348	10.421281	1.505343	1.120131	-5.997151	0.416985	0.167817	-0.958633	-1.69259	-1.587911	5.564624	-40.692297	111.650065	59.387564	-0.090368	-0.57321	-0.756814	9.370087	3.14132	0.070516	-4.078643	9.673069	-8.028419	-0.50735	-0.5376	-0.186244
-0.210542	0.672596	10.697659	-4.746265	1.308148	-6.160114	0.416242	0.16076	-0.930481	-0.701458	-1.814591	6.151382	-51.326056	113.914498	62.66972	-0.078272	-0.516141	-0.703705	9.551018	3.839064	0.376319	-3.531964	9.069862	-8.669298	-0.507626	-0.571638	-0.153514
0.169782	1.242378	9.684511	-1.743407	1.230323	-6.200692	0.37501	0.15517	-0.95417	-0.176355	-2.322298	6.445034	-61.978783	116.872377	62.937241	-0.090142	-0.527249	-0.759825	9.434356	3.723429	0.43353	-2.701848	8.922107	-8.885524	-0.521258	-0.537804	-0.186314
0.170564	1.702152	9.743295	-2.048612	1.600802	-6.469814	0.403251	0.154421	-0.954868	-0.057036	-1.984341	6.674294	-73.370727	119.807256	60.583228	-0.038018	-0.541197	-0.774274	9.554589	3.723653	0.555545	-2.676052	8.497096	-9.189196	-0.50728	-0.538427	-0.170716
-0.058739	0.553246	9.677162	-3.586464	1.452852	-7.602553	0.402122	0.161135	-0.930132	0.377591	-1.47684	8.212453	-84.651708	121.621745	56.3991	-0.051064	-0.496383	-0.762659	9.074061	3.548527	0.066745	-2.462516	8.036486	-8.943286	-0.507626	-0.571638	-0.153514
-0.10519	1.015232	10.24651	-6.65002	1.591159	-7.499479	0.38723	0.189052	-0.936614	0.733432	-1.251738	8.729652	-94.090817	122.481776	51.806183	-0.050473	-0.494239	-0.791358	9.307655	3.663645	-0.048173	-2.869768	7.17787	-8.876593	-0.521814	-0.587208	-0.168275
-0.007176	0.724323	9.394734	-8.060133	1.585272	-7.556854	0.38763	0.157981	-0.915707	1.448849	-0.857722	9.933923	-100.135142	123.074844	47.768341	-0.024371	-0.463448	-0.793917	9.132247	3.431993	0.007444	-3.401766	6.352558	-9.115213	-0.493651	-0.553589	-0.185337
-0.054409	0.726535	9.905298	-8.213465	1.991716	-8.224533	0.402108	0.178434	-0.947624	1.339654	-0.800939	10.21475	-102.043259	123.350074	44.131497	0.015292	-0.490648	-0.835786	8.663574	3.840594	0.239998	-4.087306	5.711814	-9.506961	-0.507071	-0.522234	-0.171553
-0.172259	0.725894	9.732512	-7.51132	1.940498	-8.840777	0.445227	0.167068	-0.959331	1.528412	-0.349954	11.011711	-101.531075	122.114676	41.930631	-0.010214	-0.459085	-0.851592	8.952728	3.548056	-0.115177	-3.974231	4.582935	-9.746468	-0.494069	-0.585974	-0.183662
-0.512486	0.784308	9.896631	-8.334401	2.518449	-8.644997	0.402508	0.147364	-0.926716	1.878532	-0.294081	11.24557	-100.159705	120.457416	40.312049	0.028569	-0.429291	-0.840077	9.365706	3.605187	-0.107227	-3.982602	3.543183	-9.772036	-0.465765	-0.554007	-0.169668
0.116116	0.898494	9.852509	-7.601749	2.311281	-9.049177	0.359374	0.17603	-0.9325	1.831955	-0.349877	11.75407	-98.167347	116.659516	39.258449	0.029084	-0.442468	-0.867772	9.073116	3.95506	0.068475	-3.493731	2.746149	-9.433837	-0.535513	-0.57122	-0.169182
-0.633883	1.070151	9.554492	-7.563447	2.915278	-8.088716	0.416614	0.164289	-0.944557	2.175145	-0.463279	11.64795	-95.69828	113.765536	36.765201	0.056443	-0.392069	-0.928734	9.076552	3.897725	0.247949	-2.668715	1.738732	-9.340336	-0.493785	-0.589279	-0.121551
-0.570813	0.726667	9.838423	-5.437882	4.302503	-7.581577	0.359346	0.210628	-0.967484	2.175684	-0.744932	11.647713	-93.308898	111.739437	32.58488	0.056072	-0.408461	-0.91338	8.72093	3.607661	0.120296	-2.304499	0.943785	-9.24618	-0.507626	-0.571638	-0.153514
-0.429539	0.674933	11.204883	-13.046219	3.161033	-7.608899	0.444484	0.160011	-0.93118	2.349265	-0.576216	11.708121	-92.359078	110.563816	26.747091	0.068608	-0.379889	-0.886964	9.075317	3.955554	0.188289	-1.319749	0.578367	-9.064638	-0.536072	-0.601952	-0.198564
0.111455	1.184737	9.626303	-7.76499	9.29821	-7.278997	0.402493	0.164663	-0.944208	2.646679	0.099638	12.224491	-93.751967	109.790863	20.387392	0.109603	-0.372161	-0.988239	8.899504	3.89813	0.244647	-0.642165	0.209634	-8.668043	-0.550047	-0.620001	-0.166741
-0.458738	1.013309	9.728151	-10.84034	7.968039	-7.782474	0.444469	0.177311	-0.948671	2.769602	-0.181946	12.56651	-97.157651	108.771897	14.948578	0.095961	-0.3897	-0.95826	9.022208	3.782697	0.485981	0.034005	-0.125356	-8.577211	-0.49386	-0.569781	-0.1845
0.124118	0.612975	10.249274	-8.251087	10.253786	-7.722106	0.38873	0.185866	-0.975426	2.602172	-0.406755	12.789252	-99.794142	107.630482	10.989001	0.083651	-0.372311	-0.987688	8.842263	3.608133	0.302218	0.893289	-0.890768	-8.20994	-0.521463	-0.572668	-0.138057
-0.10853	1.014508	10.07595	-9.539682	10.501965	-8.450429	0.429591	0.187928	-0.937662	2.843791	0.607285	13.417976	-99.988058	106.668203	7.803917	0.122214	-0.328268	-0.962826	9.255667	3.955891	0.371311	1.389453	-0.956477	-7.600204	-0.521676	-0.570189	-0.18464
-0.031642	0.042062	11.039464	-14.45696	7.168279	-6.496954	0.4166	0.181588	-0.962049	2.625379	0.101169	13.92247	-98.334721	105.2631	5.633271	0.149202	-0.294262	-1.008434	9.380552	3.376097	0.670574	2.068205	-1.327413	-6.98967	-0.49358	-0.554415	-0.169809
-0.006104	0.782005	9.451828	-8.426151	12.856535	-9.642148	0.402465	0.199262	-0.979191	3.378026	0.38161	14.164982	-91.87093	103.11868	4.014056	0.160997	-0.298474	-0.951311	9.436827	3.607771	0.55285	2.348567	-1.518146	-6.195183	-0.521884	-0.586382	-0.183803
-0.510135	0.612466	10.009614	-11.555774	11.881304	-8.943589	0.418143	0.126504	-0.948386	3.02076	0.269121	13.591237	-85.435951	101.100047	1.841168	0.175079	-0.309432	-1.007982	9.13968	3.549876	0.427286	3.308034	-1.801044	-5.127655	-0.479952	-0.569577	-0.184429
-0.561516	-0.720028	7.331968	-13.849565	13.796709	-10.746038	0.38723	0.189052	-0.936614	3.01176	0.550442	13.194997	-81.101991	99.057971	-0.826883	0.174934	-0.279863	-0.99564	9.198561	3.607817	0.428634	3.985238	-2.262169	-4.669482	-0.522164	-0.601748	-0.198494
-0.437084	0.328595	10.805464	-11.857885	17.662542	-9.339465	0.415842	0.191831	-0.951389	3.523804	0.549235	12.92268	-80.792085	96.416111	-3.935713	0.201922	-0.245857	-1.041248	9.022748	3.550393	0.484993	5.215127	-3.058405	-4.150585	-0.507768	-0.569985	-0.18457
-0.383295	0.500154	10.636742	-17.567319	20.732514	-8.659739	0.428805	0.232769	-0.961985	3.521386	0.54914	12.8094	-81.81488	93.45129	-7.110464	0.202217	-0.244785	-1.055597	8.898404	3.897883	0.184741	6.660528	-3.853231	-3.693598	-0.535584	-0.570393	-0.18471
-0.511989	0.09501	9.893736	-15.965218	22.906989	-10.03981	0.387973	0.196108	-0.964766	3.509621	0.379674	12.242862	-83.698443	90.813986	-10.49842	0.227879	-0.185497	-1.031464	8.722186	4.014688	0.241841	7.681287	-4.2283	-2.564706	-0.494065	-0.604645	-0.136242
-0.738655	-0.076666	10.002264	-14.72207	25.147927	-9.301559	0.428462	0.194642	-0.912926	3.925553	0.548433	12.874502	-84.226971	87.854327	-13.518543	0.266952	-0.214841	-1.044634	8.911724	3.377918	0.841491	8.491518	-4.272712	-0.947619	-0.507906	-0.587004	-0.168205
-0.505681	0.613431	10.237026	-12.067621	26.734137	-7.167225	0.444469	0.177311	-0.948671	4.565941	1.223545	13.284847	-81.840811	85.725907	-16.158109	0.293274	-0.198298	-1.060538	8.7329	3.668456	0.779519	9.363357	-4.751447	1.282602	-0.493927	-0.587626	-0.152607
-1.512712	0.389477	11.409933	-5.887468	26.706232	-2.186454	0.428834	0.198171	-0.927002	4.546707	1.166456	12.378566	-78.126698	83.666955	-17.470341	0.319006	-0.1839	-1.047744	8.729733	3.609639	0.599551	10.236934	-4.860913	3.297147	-0.480019	-0.587422	-0.152537
-0.341588	0.439294	9.841671	-3.30504	28.166314	-2.507507	0.443712	0.187553	-0.938011	5.003843	1.672474	12.275384	-75.173229	80.183644	-18.026677	0.305289	-0.216759	-1.016761	9.090973	3.378008	0.964606	11.356952	-4.658561	4.820319	-0.521396	-0.554823	-0.169949
-0.215985	0.499065	10.41267	-3.912513	28.679577	-1.945386	0.416228	0.17806	-0.947973	5.284763	2.122342	11.99861	-70.971292	75.303361	-18.1335	0.344593	-0.139932	-1.022607	8.669462	3.202747	0.476906	11.115415	-4.66922	5.768734	-0.466741	-0.617124	-0.197376
-0.56046	0.269306	10.348171	-3.324531	29.260572	-1.446943	0.442955	0.197796	-0.927351	5.169202	2.347879	11.996382	-64.921018	70.044548	-17.718541	0.357349	-0.125608	-1.009536	8.728613	3.144536	0.47776	11.14367	-4.97468	5.739525	-0.508185	-0.60237	-0.182896
-1.190341	0.384645	10.336405	-2.731443	30.29623	-0.389101	0.42882	0.21547	-0.944494	5.337086	2.96705	11.830612	-57.881266	64.888053	-16.993496	0.344889	-0.13886	-1.036956	8.895737	2.67705	-0.119986	10.860912	-5.555598	5.621065	-0.493785	-0.589279	-0.121551
-0.216193	0.786272	10.413877	-2.990067	33.061851	-0.466076	0.457432	0.218249	-0.959268	6.084982	2.571287	11.789356	-50.690644	59.40059	-16.949814	0.371211	-0.122318	-1.052861	9.199506	3.201285	0.426904	10.795019	-6.261874	5.869188	-0.521605	-0.571016	-0.169112
-0.960086	0.212396	10.396988	-1.698485	33.556028	-0.155081	0.443712	0.187553	-0.938011	7.056233	2.625501	11.470117	-44.931554	53.098897	-17.069516	0.383967	-0.107994	-1.039791	9.431324	3.606535	0.253315	10.484062	-7.127334	6.638556	-0.521884	-0.586382	-0.183803
-0.554851	0.213071	10.632195	-1.129277	35.917677	0.495026	0.470424	0.224589	-0.934881	6.989212	2.512568	11.015697	-40.25695	46.510562	-17.686171	0.396868	-0.123239	-1.039063	9.197306	3.20079	0.30709	10.573771	-7.928911	7.283913	-0.479393	-0.538845	-0.155048
-0.898585	0.500527	10.626721	-0.594376	38.070674	0.55915	0.456346	0.173066	-0.882057	7.793811	2.567343	10.976029	-35.528394	39.338444	-18.031143	0.384413	-0.076281	-1.056148	9.076802	3.316718	0.18557	10.699352	-8.305294	8.232762	-0.493998	-0.5868	-0.168135
-0.787333	0.384837	10.457906	-0.692466	41.097476	1.896675	0.471196	0.197047	-0.92805	8.305532	2.735127	10.703854	-30.976834	30.415479	-18.239531	0.397684	-0.075134	-1.070773	8.900969	2.794439	0.180043	10.673248	-8.686959	9.640671	-0.522093	-0.602574	-0.182966
-1.186095	0.672818	10.565024	-0.34796	42.767678	1.094805	0.457447	0.20095	-0.941776	8.413218	3.466971	10.42369	-27.537137	19.115597	-18.195003	0.384262	-0.106922	-1.054141	9.016821	3.25853	0.124315	10.33975	-8.88526	10.957138	-0.521672	-0.588861	-0.137219
-0.971303	0.324866	9.82894	-0.639534	45.038963	1.224567	0.486474	0.155359	-0.918151	9.942477	9.047318	17.877187	46.640142	-26.817088	-28.980602	0.410509	-0.1057	-1.069042	9.079003	3.317212	0.305383	10.557851	-8.981921	11.50699	-0.493785	-0.589279	-0.121551
-1.071461	0.50041	10.566527	-1.205535	47.242275	1.814029	0.470453	0.18999	-0.899898	7.467418	7.023912	17.653577	78.022536	-48.951152	-11.542425	0.423045	-0.077128	-1.042625	9.311071	3.141455	0.069416	10.009451	-8.592895	12.149001	-0.507764	-0.588656	-0.137149
-1.357775	0.558059	10.561201	-2.844409	49.566243	2.163198	0.484559	0.206915	-0.917739	6.902962	7.248402	15.490582	151.406938	-74.767742	2.841595	0.396277	-0.125383	-1.010364	9.550977	2.909353	0.252549	10.234855	-7.33738	12.08106	-0.521396	-0.554823	-0.169949
-1.189518	0.786977	10.394947	-3.193036	52.482068	2.334269	0.498694	0.189241	-0.900596	1.012868	-4.691392	5.335637	179.253275	-78.107815	-9.315372	0.396422	-0.154952	-1.022706	9.191493	2.385995	-0.11572	10.522437	-6.486217	12.687274	-0.521188	-0.538631	-0.170786
-1.290168	0.100656	11.072062	-3.609642	54.697152	1.942129	0.484202	0.186087	-0.886171	-0.533935	8.905047	25.752859	123.184406	-68.043329	-24.951443	0.409027	-0.17127	-1.007628	9.253446	3.490541	0.189613	10.194554	-5.546448	13.386995	-0.521396	-0.554823	-0.169949
-1.130078	0.84486	10.510008	-2.983821	57.166356	1.244443	0.499794	0.217125	-0.960316	-9.091351	-4.161973	9.143498	118.923326	-39.158303	-27.349663	0.370244	-0.201064	-1.019144	10.015174	3.952405	-0.033731	8.629784	-3.393562	11.70126	-0.577028	-0.55564	-0.17023
-1.407069	0.330023	10.957094	-2.719903	59.961012	1.503787	0.513943	0.182152	-0.925681	-1.72131	-4.173338	12.07237	120.471256	-38.733504	-0.092907	0.31738	-0.2199	-0.973988	10.008301	4.067073	-0.392678	3.781262	1.388269	9.036807	-0.535233	-0.555854	-0.154492
-1.275402	-0.298298	11.809463	-2.966567	64.537982	1.548232	0.498322	0.185713	-0.88652	-1.32437	-0.007923	9.480129	103.839773	-45.373634	-1.898674	0.344142	-0.231855	-1.016585	9.999113	4.704179	-0.809307	-3.478335	7.853436	8.420944	-0.520904	-0.541936	-0.108675
-1.164565	0.160428	11.643061	-1.818944	71.424504	1.718214	0.497922	0.216783	-0.907428	-0.597193	0.947536	8.590418	95.193149	-47.905223	-2.08494	0.370464	-0.215312	-1.03249	10.999201	4.178211	-1.032452	-9.539006	13.616096	8.140309	-0.493439	-0.556067	-0.138753
-1.44296	0.047441	12.034982	-2.434463	80.200709	2.506677	0.540684	0.184589	-0.887568	-0.291688	0.553348	9.389085	72.57494	-30.342684	16.691892	0.357558	-0.260277	-1.043553	11.111886	4.583484	-1.268148	-12.405259	17.674766	8.100757	-0.49351	-0.555241	-0.154281
-1.643234	0.341087	13.509915	0.599259	89.550775	2.925959	0.582302	0.176409	-0.860463	2.228694	1.393136	8.933232	43.395183	-9.99668	23.468181	0.33116	-0.292139	-1.026644	10.87414	3.88637	-1.455238	-13.441287	18.455058	9.201126	-0.56277	-0.540896	-0.139941
-1.80988	-0.576889	13.730126	2.549097	101.404615	4.247755	0.581145	0.217722	-0.870711	0.445591	1.283864	8.9523	15.816059	-1.626876	7.559765	0.317889	-0.293286	-1.012019	10.115869	3.832027	-0.990535	-11.368389	15.806087	8.717218	-0.535584	-0.570393	-0.18471
-1.641458	-0.577737	13.562907	6.067832	113.998942	5.883742	0.580759	0.231493	-0.874127	-1.264794	0.837069	9.651968	4.414583	-2.899027	-2.943658	0.290832	-0.282404	-0.955072	9.639608	3.715966	-1.239461	-7.624524	9.82594	8.518242	-0.535095	-0.538835	-0.170857
-1.345206	-0.518331	14.080394	10.728221	127.857986	7.475667	0.567424	0.187026	-0.849454	-0.626978	0.329051	9.834758	6.922966	-7.079992	-1.102706	0.330275	-0.295355	-0.983595	8.649228	2.90767	-0.662561	-4.401242	4.396322	8.165702	-0.53558	-0.589065	-0.13729
-1.749576	-0.174116	13.903488	15.81128	141.298339	8.170241	0.609386	0.216973	-0.871409	-0.003992	-0.010544	9.338015	10.043319	-9.204574	1.622381	0.317669	-0.279038	-0.998673	8.717493	3.664995	-0.059177	-1.047285	2.030594	10.33497	-0.521814	-0.587208	-0.168275
-1.522702	-0.289647	13.793753	19.368706	155.993863	8.552296	0.609429	0.165075	-0.818934	0.182002	-0.010346	9.964678	13.346419	-9.404341	1.068145	0.343326	-0.27996	-0.984875	9.205954	2.795989	0.724707	4.282952	1.808843	9.949938	-0.535166	-0.538009	-0.186384
-1.118871	0.112877	13.973796	21.362332	171.059142	8.116887	0.652548	0.153708	-0.830642	0.805096	-0.406272	9.467887	12.722872	-7.906966	-4.065744	0.304178	-0.265936	-0.970701	9.434511	4.130208	0.495168	7.963003	4.751106	7.69132	-0.521676	-0.570189	-0.18464
-0.944922	0.170677	14.091084	22.199537	187.283281	7.857	0.624693	0.140686	-0.826527	0.686493	0.776837	9.409826	11.091679	-5.415995	-8.358168	0.291862	-0.308757	-1.010464	8.447163	3.438805	1.252283	10.048024	7.951309	6.568169	-0.521463	-0.572668	-0.138057
-0.836188	0.456596	13.810252	22.986064	205.164246	7.624223	0.707944	0.107026	-0.754827	-0.667081	0.048171	10.626267	10.237547	-4.740446	-10.170962	0.33079	-0.308532	-1.011291	8.327085	3.84536	1.191906	9.87794	10.375224	5.793107	-0.535442	-0.572046	-0.153655
-1.283254	0.689106	14.370841	25.082161	222.166594	6.760073	0.66594	0.128978	-0.785347	-1.428213	-0.852286	9.930117	10.262516	-5.171791	-9.805301	0.330639	-0.339173	-1.009284	8.959081	4.130547	0.306644	8.02938	14.529882	5.688282	-0.549767	-0.604635	-0.152051
-1.994022	1.144069	13.165494	29.142853	235.315481	5.214259	0.734685	0.109463	-0.716713	-0.339174	-0.291171	9.783642	7.666569	-5.209548	-9.067905	0.330199	-0.310675	-0.982592	9.307945	4.012348	0.013217	6.696021	17.803121	5.219027	-0.548932	-0.539865	-0.155399
-3.294628	1.780498	13.995335	29.48807	243.303928	2.245824	0.734313	0.105935	-0.702638	-0.148669	-0.121791	10.637005	6.249067	-4.893877	-8.511011	0.343841	-0.293136	-1.01257	8.998424	4.067885	-0.770827	4.751252	18.514585	3.786169	-0.549767	-0.604635	-0.152051
-4.680443	1.032099	13.34009	36.93423	241.95729	-3.225761	0.776703	0.070213	-0.668702	0.239375	0.721891	10.023143	4.52297	-4.580316	-8.231834	0.343621	-0.278888	-0.999224	9.283871	3.948833	-1.304982	2.091277	17.837681	3.248885	-0.535442	-0.572046	-0.153655
-6.640616	-0.290783	12.557591	44.465096	229.238052	-7.717343	0.77596	0.063156	-0.64055	-0.991084	-1.020704	11.524346	4.393161	-5.01523	-7.619711	0.34266	-0.297424	-0.955171	9.572463	3.423743	-1.721053	-1.167241	15.350881	2.997481	-0.549003	-0.539039	-0.170927
-6.012672	-0.808696	12.453961	54.444735	217.384617	-6.374771	0.775575	0.076927	-0.643966	-0.163283	-0.06603	9.957377	6.329786	-5.699475	-7.070058	0.3431	-0.325921	-0.981864	10.114498	3.947932	-1.049948	-2.959098	11.497544	2.288835	-0.507283	-0.519755	-0.218137
-4.080336	0.508156	11.815133	77.318376	204.723036	-4.377099	0.845434	0.067998	-0.61756	-0.563284	-0.346833	10.061957	6.793465	-5.54892	-5.742597	0.329609	-0.312819	-0.953892	9.822699	3.484493	-0.937614	-5.95591	7.365285	1.524762	-0.507	-0.52306	-0.156025
-1.482921	-0.133569	9.987547	99.196856	174.335847	-7.939928	0.816064	0.075461	-0.592125	-0.490027	-0.966007	10.742319	5.442307	-4.836426	-4.780939	0.330859	-0.353421	-1.02263	9.403813	3.600354	-1.244357	-7.404523	3.878227	1.027076	-0.534958	-0.521816	-0.187221
-0.290061	-0.883351	9.496116	126.258001	140.150261	-10.659383	0.857311	0.063752	-0.550945	-0.443749	-0.121537	10.291123	4.861841	-4.323159	-4.683819	0.329534	-0.32814	-0.952888	9.992044	3.482357	-1.353661	-7.740202	0.793214	0.492879	-0.549212	-0.555231	-0.17009
1.018272	-2.334859	6.105621	135.627802	106.936846	-11.931879	0.886324	0.035461	-0.544812	-0.567342	-0.121653	9.892228	5.849966	-4.313031	-4.31299	0.343841	-0.293136	-1.01257	9.769745	3.718416	-0.578284	-8.279612	-1.228833	0.626735	-0.549283	-0.554405	-0.185617
2.301694	-3.21726	1.466772	122.774356	63.276245	-17.297334	0.89853	0.086642	-0.544748	-0.734017	-0.740776	10.114638	7.760212	-4.573174	-3.019269	0.33013	-0.265786	-0.971253	9.882431	4.123689	-0.81398	-8.14014	-2.876937	0.328466	-0.507697	-0.570812	-0.169042
2.230011	-4.828959	0.662958	94.63201	19.516668	-23.571245	0.900087	0.014259	-0.513593	-0.278198	-0.178475	9.954864	10.200062	-4.545831	-2.462131	0.343175	-0.3106	-0.982867	9.717737	3.545806	-0.220685	-8.582271	-4.100466	0.183092	-0.535517	-0.552549	-0.216603
4.884866	-3.275119	1.857756	71.871457	-20.792978	-28.945855	0.885967	0.014634	-0.513244	0.075525	-0.742142	10.301481	10.908338	-4.691755	-2.216389	0.33013	-0.265786	-0.971253	9.719512	3.255673	-0.162014	-8.217837	-4.802674	0.185123	-0.521188	-0.538631	-0.170786
3.897837	-3.437288	4.05426	56.823868	-53.096878	-32.832313	0.885938	0.049232	-0.548228	-0.609539	-0.57162	10.570314	13.187573	-5.213727	-2.373885	0.317959	-0.338176	-1.023358	9.47754	3.429205	-0.465209	-7.729408	-5.164179	-0.181675	-0.535651	-0.588238	-0.152817
6.254342	-3.666824	4.553772	55.020542	-79.197293	-36.441409	0.887081	0.025219	-0.555472	-0.449147	-0.459757	10.00764	16.395933	-5.453786	-1.633819	0.330344	-0.340244	-0.994934	9.593372	3.428441	-0.582822	-7.332028	-5.342486	-0.549017	-0.535655	-0.569567	-0.200238
3.810632	-4.235597	5.413129	52.117462	-99.297693	-41.084864	0.872589	0.022065	-0.541047	-0.393006	-0.347251	9.952304	17.507696	-5.470139	-1.663915	0.330715	-0.323852	-1.010287	9.601635	3.662723	-0.102578	-6.749907	-5.147077	-1.499499	-0.534883	-0.541314	-0.124273
3.557402	-3.091667	4.219586	50.844008	-111.820598	-40.916578	0.830599	0.026717	-0.554075	0.305941	0.440462	10.420592	17.512998	-5.041622	-1.536338	0.343471	-0.309529	-0.997217	9.594607	3.370612	-0.523162	-7.309681	-5.543571	-1.801204	-0.563329	-0.571628	-0.169323
3.51021	-3.146895	4.729909	38.191159	-135.490314	-41.479455	0.888196	0.035803	-0.5977	-0.046058	0.102841	10.073216	15.633762	-4.694926	-1.935166	0.330124	-0.325996	-0.981588	9.60175	3.139791	-0.16471	-6.974537	-5.752057	-2.229296	-0.534954	-0.540487	-0.139801
2.88631	-3.604766	4.999996	26.262136	-153.073057	-39.00066	0.860712	0.02631	-0.607661	-0.226892	-0.066159	9.67297	12.638757	-4.638937	-2.245299	0.317073	-0.341391	-0.980309	9.777718	3.603994	-0.15943	-7.56831	-6.422064	-2.712944	-0.521325	-0.555649	-0.154421
2.267688	-3.659339	5.556037	18.272533	-163.762834	-35.316969	0.860298	0.07468	-0.646061	-0.395508	0.328668	9.896234	10.758005	-4.385849	-2.398436	0.330275	-0.295355	-0.983595	9.305164	3.314447	-0.229377	-7.544669	-6.842938	-3.41395	-0.535237	-0.537182	-0.201912
1.994239	-2.909497	6.235844	12.683932	-168.768056	-30.198287	0.845806	0.071526	-0.631636	0.47786	0.214769	10.367389	9.122162	-4.284364	-2.337087	0.329754	-0.342388	-0.966235	10.072934	3.545243	-0.154175	-7.771005	-7.941419	-3.74407	-0.535651	-0.588238	-0.152817
0.855997	-3.136986	6.553727	6.746334	-170.44716	-25.607508	0.833186	0.068714	-0.670098	0.017421	-0.460382	10.300509	6.839575	-4.066031	-2.645032	0.317293	-0.35564	-0.993655	9.540533	3.139432	-0.285624	-7.687133	-8.607716	-4.352432	-0.507138	-0.540079	-0.13966
0.805382	-3.078056	6.893973	-0.432264	-169.797364	-20.760753	0.806816	0.069806	-0.722288	-0.107788	0.384459	9.902326	4.686115	-3.416209	-3.041066	0.303952	-0.311897	-0.96769	10.012662	3.138351	-0.27682	-7.017616	-9.27159	-4.993485	-0.549074	-0.538213	-0.186455
0.793258	-3.253034	6.267866	-9.476841	-168.040166	-16.688224	0.789667	0.111151	-0.679298	-0.048044	-0.122576	9.959747	3.703874	-2.908848	-2.821016	0.304317	-0.355715	-0.993379	9.896561	3.255268	-0.158713	-6.560834	-10.035249	-4.930371	-0.521396	-0.554823	-0.169949
0.636213	-2.04326	7.065536	-19.23173	-166.679444	-13.202927	0.791939	0.080423	-0.711279	-0.112301	0.215278	9.675625	2.0083	-2.682667	-3.190066	0.330495	-0.309604	-0.996941	9.663527	3.372702	0.0171	-5.821958	-9.937357	-5.269692	-0.577028	-0.55564	-0.17023
0.482059	-1.752068	7.973051	-27.654399	-166.8323	-11.310286	0.750306	0.105903	-0.755875	-0.171721	0.553322	9.618061	0.680597	-2.695698	-3.776994	0.317148	-0.326071	-0.981312	9.481922	2.965339	-0.287466	-4.773066	-9.624244	-5.611162	-0.493163	-0.52203	-0.171483
0.208076	-1.806648	8.592627	-33.425451	-168.307715	-11.041611	0.735799	0.120048	-0.758941	-0.100428	0.328413	10.242116	0.183132	-2.976147	-4.057633	0.342805	-0.326993	-0.967514	9.079118	2.794281	0.243251	-3.349427	-8.728946	-5.926205	-0.549141	-0.556058	-0.154562
-0.353665	-1.344289	9.151953	-37.603984	-169.145332	-12.116641	0.737285	0.134161	-0.815245	0.12543	0.102471	10.020203	1.969529	-3.354077	-3.751676	0.317224	-0.310751	-0.982316	8.830138	3.140558	-0.418643	-2.414658	-7.719684	-5.598231	-0.535859	-0.604431	-0.15198
-0.629009	-1.054462	9.716123	-41.314268	-168.877883	-12.807034	0.723908	0.141593	-0.843048	-0.217437	0.046882	10.126182	3.666664	-3.428943	-3.072841	0.356076	-0.325846	-0.982139	9.074021	2.618817	-0.057025	-0.403971	-6.669328	-5.91614	-0.521467	-0.553997	-0.185477
-1.128627	-1.165594	10.501562	-47.767274	-166.165214	-13.265798	0.694524	0.166356	-0.835105	0.013148	-0.122541	10.130875	4.653196	-3.541679	-2.672405	0.316923	-0.372032	-0.978301	9.425917	2.617512	-0.170236	1.365796	-4.978755	-6.113986	-0.5497	-0.58679	-0.183943
-1.298247	-1.050104	10.612411	-56.77968	-161.475474	-12.826314	0.668526	0.170975	-0.901371	-0.676967	0.160452	10.173245	5.083134	-3.721392	-2.488879	0.329974	-0.356637	-0.979581	8.905931	3.027979	0.480567	2.917643	-3.874857	-5.849821	-0.521538	-0.553171	-0.201005
-1.623383	-0.299014	11.575369	-65.763418	-156.562072	-13.119368	0.63837	0.22328	-0.90026	0.313733	0.159094	10.760192	6.712066	-4.345805	-2.308809	0.34273	-0.342313	-0.96651	8.957379	2.968037	0.062071	4.315317	-2.709382	-5.677076	-0.549279	-0.573076	-0.138197
-1.717559	-0.69668	12.594809	-69.942225	-152.19698	-14.631304	0.638756	0.209509	-0.896844	-0.443533	-0.234198	10.291028	8.769708	-5.299439	-2.532431	0.330564	-0.354493	-1.00828	9.070855	2.559999	-0.236993	5.619395	-1.790521	-5.350007	-0.535442	-0.572046	-0.153655
-1.835532	-0.524996	12.422747	-71.109576	-148.025393	-14.130795	0.597123	0.234989	-0.94144	-0.215343	0.215968	10.239603	9.919305	-4.620754	-0.921703	0.329754	-0.342388	-0.966235	8.660233	2.910142	-0.063492	6.463912	-0.692619	-4.747072	-0.535162	-0.55668	-0.138964
-2.346451	-0.408775	12.64062	-68.649266	-142.267715	-13.706971	0.582602	0.266434	-0.961998	0.643195	0.270492	10.031226	9.974616	-5.197791	-1.667268	0.303431	-0.358931	-0.95033	8.716353	2.735037	-0.242854	7.091297	0.282786	-4.203887	-0.534741	-0.542966	-0.093217
-2.117848	0.165475	12.647487	-67.400385	-134.492408	-12.725489	0.56771	0.29435	-0.968481	0.188824	0.215261	10.304705	9.974736	-5.13988	-1.142616	0.316778	-0.342463	-0.965959	9.008962	2.85002	-0.356671	7.0356	0.612745	-3.594021	-0.521605	-0.571016	-0.169112
-2.221222	0.16797	13.213791	-65.861405	-125.285191	-10.464114	0.540241	0.267558	-0.960951	0.297264	0.552791	10.024209	10.439651	-4.982886	-0.801573	0.316037	-0.375248	-0.935252	8.713477	3.024923	-0.361431	7.350829	0.911239	-2.771411	-0.521884	-0.586382	-0.183803
-2.173	0.338323	12.760804	-65.729089	-116.001702	-7.400074	0.568439	0.318706	-1.014124	-0.034077	0.159646	10.63966	10.716011	-5.102625	-0.710057	0.330194	-0.370885	-0.992927	8.940447	2.673701	-0.897675	7.326811	1.519138	-2.407478	-0.549696	-0.605461	-0.136523
-3.66816	-2.936697	12.263274	-34.251556	-126.172504	-0.66342	0.510428	0.35799	-1.008899	0.010083	0.215347	10.01788	11.146326	-5.280328	-0.83479	0.317067	-0.401601	-0.990644	9.245412	2.210396	-0.414895	7.18416	2.210801	-1.310015	-0.562699	-0.541722	-0.124413
-3.169185	0.518873	14.503931	-40.194989	-135.016025	6.570209	0.497436	0.35165	-1.033286	0.48017	0.271195	10.480716	10.837282	-5.284851	-0.742599	0.35548	-0.388199	-0.963775	8.995332	2.556425	-1.136697	7.374232	2.853855	-1.313772	-0.535651	-0.588238	-0.152817
-2.347238	0.682614	12.645205	-38.180229	-137.294574	15.757832	0.481401	0.40358	-1.032524	0.012393	0.271773	10.131207	11.021159	-5.376107	-0.496734	0.316627	-0.373104	-0.963952	8.878265	2.615019	-1.078743	6.243675	3.45115	-0.30396	-0.563537	-0.58782	-0.168486
-4.241912	0.280685	12.322505	-54.878139	-132.004723	25.152371	0.440954	0.353148	-1.031889	-0.106041	0.102854	9.958728	9.940767	-5.299439	-0.250216	0.329899	-0.371957	-0.978577	9.175256	2.266135	-1.014818	5.234044	3.742989	0.706881	-0.493234	-0.521204	-0.187011
-5.038896	0.109906	12.533605	-77.47278	-121.542046	39.67577	0.496665	0.379192	-1.040118	0.584313	0.326883	9.973425	10.219662	-5.205524	-0.002434	0.304097	-0.341466	-0.980033	9.416283	2.499135	-0.709892	4.038467	4.191212	1.320334	-0.507626	-0.571638	-0.153514
-4.510167	1.548707	13.288749	-91.748455	-112.927271	52.396455	0.453546	0.390558	-1.02841	-0.100859	0.553736	10.242305	10.285425	-4.869026	0.24759	0.290531	-0.343685	-0.951058	8.77946	1.922332	-0.125401	2.846424	4.787975	2.360956	-0.521534	-0.571842	-0.153584
-4.38778	1.43543	13.688465	-93.564478	-109.743272	61.006828	0.454289	0.397615	-1.056562	0.180254	0.271259	9.908275	9.139929	-5.096781	0.028607	0.291636	-0.354718	-1.007453	9.119946	2.092783	-0.836939	1.50257	5.255519	4.014029	-0.522298	-0.637438	-0.134708
-4.784507	2.265799	19.765103	-89.234402	-107.763609	67.157753	0.411541	0.41251	-1.05893	0.300867	-0.066749	10.136967	9.325522	-5.064568	0.152389	0.316998	-0.356712	-0.979305	8.342718	2.615245	-1.328275	0.712605	5.882426	5.236459	-0.507559	-0.553793	-0.185407
-5.115344	1.382146	14.526545	-32.085694	-105.78573	95.011715	0.424533	0.418849	-1.034543	0.353405	0.665297	9.968874	8.151273	-5.109726	0.089339	0.330269	-0.355565	-0.99393	8.878535	2.498867	-1.079238	0.693322	6.791838	6.026859	-0.534954	-0.540487	-0.139801
-5.522682	4.930501	11.407905	-7.151801	-107.765537	71.06007	0.397392	0.447483	-1.093564	-0.389248	0.216244	10.179337	7.90417	-5.055355	0.675415	0.290751	-0.357934	-0.964404	9.174021	2.323963	-1.074477	-0.774081	6.824684	8.263235	-0.535092	-0.557506	-0.123436
-7.731512	2.409515	12.490923	-10.235203	-134.151133	69.874134	0.355045	0.431307	-1.075025	-0.042862	0.328306	10.243325	6.793379	-4.919156	1.138298	0.329679	-0.357709	-0.965231	8.814847	2.614165	-1.319471	-1.138184	6.781099	9.395668	-0.549141	-0.556058	-0.154562
-9.406332	8.809488	17.827381	-38.094748	-90.614462	86.079949	0.356174	0.424593	-1.099761	0.361066	-0.179423	10.25136	7.251325	-5.256639	2.060156	0.316853	-0.327143	-0.966962	8.584555	2.499789	-1.024833	0.437982	7.338649	9.265037	-0.521534	-0.571842	-0.153584
-12.923974	2.589471	13.299969	-43.565575	-76.050396	90.132992	0.369537	0.434461	-1.08945	0.241123	0.440286	10.079545	6.479502	-5.177862	2.584399	0.29038	-0.374326	-0.94905	9.075121	2.619064	0.002882	0.845248	7.452051	10.271675	-0.534954	-0.540487	-0.139801
-13.344549	5.962606	9.498368	-36.72626	-50.825058	97.020905	0.35503	0.448607	-1.092517	-0.163822	0.215623	9.957614	5.862379	-5.038612	3.540963	0.303651	-0.373179	-0.963676	9.11707	2.382669	-0.955517	1.70746	6.929438	10.821224	-0.549283	-0.554405	-0.185617
-15.35569	7.641001	12.080523	-17.645193	-26.68471	93.25091	0.354645	0.462378	-1.095932	-0.035609	0.32859	10.583162	3.953496	-4.427588	4.871122	0.277989	-0.432467	-0.987809	9.182304	3.023101	-0.532348	3.213287	6.04396	11.186783	-0.521463	-0.572668	-0.138057
-16.740978	9.248187	11.548878	11.833077	-1.906406	83.361554	0.340152	0.459224	-1.081507	0.080815	-0.347592	10.585011	3.296901	-4.877418	6.746657	0.304317	-0.355715	-0.993379	9.121783	3.197217	-0.592614	4.988636	4.957331	10.390836	-0.534883	-0.541314	-0.124273
-17.62352	9.083763	13.235931	55.77619	27.987957	75.199109	0.313426	0.439488	-1.102129	-0.436604	-0.064922	10.631008	0.264708	-5.054195	9.147089	0.316112	-0.359927	-0.936256	9.764493	3.136172	-0.940198	6.42896	4.606808	9.286942	-0.562978	-0.557088	-0.139104
-19.46479	13.659042	21.687133	90.567533	56.776388	65.665158	0.385544	0.417129	-1.125195	-0.559658	-0.346691	10.231875	-8.182175	-5.713723	13.912199	0.303871	-0.387428	-0.977022	9.360993	2.790639	-0.470129	8.579288	3.977849	8.731984	-0.535722	-0.587412	-0.168345
-18.357362	11.556942	13.857216	166.436174	68.585781	57.943791	0.371809	0.403733	-1.12143	-0.425185	-0.346147	11.140527	-18.26836	-6.344572	20.49525	0.290155	-0.420287	-0.946039	9.878009	3.657845	-1.115493	11.361743	1.610749	7.877387	-0.50763	-0.552967	-0.200935
4.557481	3.68014	2.960482	164.626668	69.019365	48.789272	0.414199	0.36801	-1.087494	-1.027162	-0.003362	15.317635	-34.881378	-17.358317	26.599939	0.303947	-0.372107	-0.978026	10.302011	4.182303	-0.446589	13.826242	-2.043118	7.121783	-0.5634	-0.570802	-0.184851
2.564219	2.822139	3.429568	122.624278	52.495042	39.045163	0.428705	0.353865	-1.084428	-0.759937	-0.852096	11.585963	-49.507616	-51.982471	30.991735	0.277844	-0.402898	-0.975467	11.067176	4.586833	-0.490459	14.622305	-5.106582	4.902323	-0.562561	-0.524703	-0.140778
-0.3988	-3.339944	12.609319	27.958324	21.355493	17.317073	0.400093	0.351086	-1.069653	-0.760232	-0.455398	14.303787	-60.395983	-72.799364	27.0148	0.303501	-0.40382	-0.961669	11.011076	5.226793	-0.249212	13.28086	-6.634149	4.272628	-0.507142	-0.521408	-0.187081
-0.990446	2.159135	8.927012	26.789765	15.843425	9.656488	0.431706	0.347493	-1.162052	-0.98161	1.463129	17.584452	-63.929451	-93.608499	21.656591	0.252193	-0.341767	-0.97893	10.795164	3.662989	0.638314	12.396827	-9.016271	9.544305	-0.50672	-0.507694	-0.141335
-0.279423	-0.19164	10.067542	18.331616	14.991396	10.862965	0.445855	0.312519	-1.127418	-1.84242	-0.563201	17.507972	-15.554164	-124.32901	8.84281	0.265465	-0.34062	-0.993555	10.377088	3.430394	0.330087	10.552078	-9.095131	10.62115	-0.590727	-0.539651	-0.171137
0.016047	-0.592008	10.526245	22.892483	7.500662	-1.569404	0.400822	0.375442	-1.115297	-1.322583	-0.845776	17.575254	-8.513366	-147.311564	-1.275763	0.226166	-0.357237	-0.977375	9.583292	2.554581	-1.245506	8.382363	-6.842645	10.923912	-0.507283	-0.519755	-0.218137
-0.28858	0.151079	9.614165	25.302277	3.782932	-6.114387	0.414199	0.36801	-1.087494	-1.668322	-1.295821	17.510982	10.419153	-172.55365	-9.341537	0.226832	-0.339773	-1.007078	10.342394	2.725323	-1.649807	4.060154	-4.795291	12.580345	-0.548791	-0.541518	-0.124343
-0.575349	0.840585	9.611494	27.178686	6.436417	-0.832337	0.416471	0.337282	-1.119475	-1.311811	-0.789018	18.085058	19.799322	-196.069059	-18.939028	0.187314	-0.342142	-0.977551	10.352433	2.669472	-1.110892	-1.295605	-2.130977	10.416863	-0.563049	-0.556262	-0.154632
-0.231657	0.61057	9.617209	24.762578	8.169262	5.274951	0.43022	0.333379	-1.105748	-2.29241	-1.012603	17.951038	33.822594	-221.272274	-29.535767	0.148681	-0.341295	-0.991074	10.408843	2.84307	-1.228864	-4.334022	-0.774812	5.408766	-0.549208	-0.573903	-0.122669
-0.415053	1.29758	9.048234	17.443353	4.485507	4.592145	0.430592	0.336908	-1.119824	-2.359585	-2.308572	17.382342	45.232167	-247.324367	-33.361092	0.14772	-0.359831	-0.947021	10.161254	3.538298	-1.769461	-4.673746	-1.833947	1.227826	-0.562978	-0.557088	-0.139104
-0.343732	0.323928	9.727482	8.486544	5.724697	8.19541	0.429849	0.329851	-1.091672	-2.645102	-2.251607	17.489624	50.612412	-271.289811	-35.166804	0.08328	-0.388703	-0.972334	10.348207	3.540118	-1.226997	-4.595592	-5.597511	-1.566276	-0.563049	-0.556262	-0.154632
-0.280868	0.267651	10.01262	7.056796	6.751357	9.2282	0.445469	0.32629	-1.130833	-2.946011	-2.364251	16.860449	61.518609	-295.317128	-36.074694	0.043837	-0.375752	-0.943811	9.590786	4.06703	-0.640009	-5.750808	-9.05482	-4.815737	-0.535162	-0.55668	-0.138964
0.002395	-0.192812	9.845697	13.153104	7.568965	7.383955	0.443955	0.346776	-1.109513	-2.449682	-2.366075	15.851816	65.591925	-315.447164	-40.771756	-0.007991	-0.360731	-0.943712	9.471248	4.241281	-0.701375	-3.292561	-11.858644	-7.897952	-0.549141	-0.556058	-0.154562
0.001033	0.151596	9.790292	12.903826	7.517136	6.433164	0.430977	0.323137	-1.116408	-0.078404	-2.482728	16.411043	76.366259	-328.044912	-42.984235	-0.034829	-0.364097	-0.900111	8.542801	4.072674	0.118973	0.087863	-13.563739	-7.474202	-0.520908	-0.523264	-0.156096
-0.042943	0.269415	10.471898	15.502752	7.327393	5.257258	0.429863	0.312552	-1.07418	3.246876	-2.37684	15.858219	91.250371	-325.237056	-39.368629	-0.023109	-0.38363	-0.841985	8.374826	3.958905	0.594432	3.673147	-13.567267	-5.897985	-0.520766	-0.524917	-0.12504
-0.109478	0.784501	10.018132	22.517395	8.119952	3.287248	0.432135	0.281823	-1.106161	6.061832	-2.779056	12.916434	107.399105	-313.137755	-40.129504	-0.113061	-0.44115	-0.893439	8.082372	4.250702	0.769887	7.367156	-11.179619	-4.822541	-0.56277	-0.540896	-0.139941
-0.044222	0.49894	10.41601	22.407884	7.262744	0.237539	0.458104	0.311803	-1.074879	2.50613	-3.675572	10.689627	110.758716	-272.846396	-46.508489	-0.153986	-0.493767	-0.803502	9.025395	4.30637	0.727834	9.321847	-7.559912	-2.218562	-0.576331	-0.507888	-0.157214
0.225182	0.72488	9.569747	19.764639	6.960164	-1.262503	0.443612	0.308649	-1.060454	0.775888	-3.221789	10.54046	118.620907	-207.90631	-44.778526	-0.206109	-0.479819	-0.789053	8.961686	3.956813	0.425716	11.56065	-1.654111	-1.704732	-0.590097	-0.509745	-0.126228
-0.337382	0.784908	10.070531	19.847604	6.704873	-3.10699	0.444741	0.301934	-1.08519	-0.498985	-2.992044	12.835068	138.089576	-148.284122	-46.482578	-0.180603	-0.511382	-0.773248	9.257557	3.142826	0.36785	13.221407	4.576512	-0.242912	-0.549003	-0.539039	-0.170927
-0.222956	0.899708	10.073241	18.032962	6.465184	-4.393744	0.46039	0.263775	-1.089367	-2.303445	-3.555198	9.116753	160.039693	-102.526709	-51.682114	-0.220561	-0.485253	-0.717029	9.437097	3.491619	0.552355	13.574744	9.491068	0.863184	-0.563467	-0.588647	-0.152958
-0.050903	0.497493	10.074892	16.305548	5.20658	-5.237285	0.444355	0.315705	-1.088606	-3.737755	-2.76836	3.992047	165.285081	-56.567656	-51.714357	-0.220938	-0.561855	-0.712011	9.311091	3.606311	0.131301	12.347727	12.986576	2.593055	-0.562494	-0.506858	-0.172671
-0.101352	0.326657	10.414173	18.533955	4.397016	-6.11559	0.445512	0.274392	-1.078358	-5.414808	-3.671622	-1.875231	154.166871	-2.960381	-45.24116	-0.220938	-0.561855	-0.712011	10.127974	3.834747	-0.331559	10.338607	15.693441	3.412631	-0.563116	-0.574107	-0.122739
0.120612	0.842018	10.07968	20.509441	3.045306	-8.075408	0.416142	0.281856	-1.052924	-6.070752	-3.556293	-0.247094	116.266465	57.100889	-35.056801	-0.260681	-0.610186	-0.679473	10.304752	3.950493	-0.327764	8.3569	18.220687	3.866204	-0.549137	-0.574729	-0.107141
-0.566441	0.842515	10.066318	17.351357	2.785063	-8.101215	0.501209	0.317735	-1.104078	-7.276158	-2.985814	5.332895	102.405139	80.229876	-22.692324	-0.221754	-0.609961	-0.6803	10.364578	3.601902	-0.328147	6.538496	18.678396	3.351022	-0.604493	-0.541508	-0.140152
0.062161	0.956701	10.022196	16.152088	2.384492	-8.502976	0.430992	0.305837	-1.098916	-3.649139	-3.053655	0.030665	87.977393	71.677032	-3.429482	-0.209073	-0.610957	-0.666226	9.720903	3.604624	-0.040717	3.845993	17.383536	3.397516	-0.591282	-0.589055	-0.153098
-0.918011	1.185724	9.663114	14.378845	2.896195	-8.274868	0.431378	0.292066	-1.095501	-5.256885	-3.048111	2.884226	55.422104	108.717967	9.860721	-0.169925	-0.624981	-0.6804	9.89492	3.487325	-0.217631	2.596126	15.795856	2.676092	-0.56284	-0.540069	-0.155469
0.002472	1.243468	9.908583	13.397272	2.862971	-8.456599	0.473382	0.270115	-1.064981	-5.868992	-2.708089	3.890726	41.728104	131.165296	27.337451	-0.170145	-0.610732	-0.667054	9.247248	3.314829	-0.170571	1.240211	13.364208	0.705993	-0.548999	-0.55771	-0.123506
-0.162734	1.417364	10.247085	12.781107	2.619124	-8.888162	0.431349	0.326665	-1.130484	-4.424243	-2.485224	4.204336	33.897351	145.937947	44.126535	-0.183127	-0.671017	-0.677113	8.951202	3.257181	-0.236227	1.220667	11.569384	-0.263385	-0.56277	-0.540896	-0.139941
-0.40037	1.013509	9.786117	10.757768	2.517833	-8.914653	0.445498	0.291692	-1.09585	-4.188715	-2.710788	4.43554	29.162431	151.274904	57.433272	-0.144118	-0.595262	-0.668609	9.123329	3.952947	-0.409679	1.120252	11.056246	-0.963515	-0.548657	-0.505828	-0.188129
-0.060184	1.012537	9.622239	8.97723	2.29928	-9.342454	0.4184	0.268427	-1.102396	-3.237368	-2.995363	3.153144	16.122734	151.606416	65.812353	-0.16978	-0.65455	-0.692742	9.715266	3.661464	-0.340004	1.486424	11.126956	-1.759805	-0.577307	-0.571006	-0.184921
-0.520654	1.299593	9.500831	6.096747	2.065841	-8.908581	0.460776	0.250004	-1.085952	-2.369613	-3.334821	3.340912	-5.85444	148.388066	70.325811	-0.116765	-0.605073	-0.739905	9.25221	3.54837	0.129953	1.330241	11.595993	-2.800596	-0.549208	-0.573903	-0.122669
-0.113109	1.185868	9.849262	2.606039	2.416222	-8.70882	0.45999	0.294845	-1.110275	-1.901598	-2.828376	3.747487	-31.892541	146.392421	72.042446	-0.103795	-0.665208	-0.750516	8.961376	3.143254	0.302441	1.726975	11.76048	-3.780804	-0.576961	-0.537795	-0.202123
-0.176138	1.471911	9.565089	-2.274544	2.665745	-11.021616	0.459261	0.270489	-1.064631	-1.480854	-3.279111	4.548525	-54.720329	146.654096	72.08835	-0.11647	-0.604001	-0.754255	8.953673	3.141524	-0.116908	1.470238	11.250885	-4.877668	-0.535095	-0.538835	-0.170857
0.007092	1.014666	10.13503	-4.174048	3.093025	-11.530593	0.432135	0.281823	-1.106161	-1.121148	-2.546844	5.292709	-71.058065	149.660077	72.62928	-0.103419	-0.588605	-0.755534	8.893016	3.373716	-0.176926	1.435697	11.164675	-5.427241	-0.549279	-0.573076	-0.138197
-0.279305	1.187198	10.130187	-6.70905	4.6205	-11.74383	0.445084	0.340061	-1.134249	-0.628894	-3.335148	6.717707	-78.381931	154.49521	73.257337	-0.102979	-0.617102	-0.782226	9.180664	3.255158	-0.591266	1.091164	10.738957	-5.7907	-0.56277	-0.540896	-0.139941
0.188794	1.131596	10.650531	-10.555327	7.343104	-12.179228	0.446641	0.267678	-1.103094	-0.265022	-2.884392	7.631573	-79.833134	159.381408	72.749822	-0.090078	-0.632348	-0.781499	9.192499	3.374029	0.068204	0.367252	9.336142	-6.453734	-0.548653	-0.524499	-0.140708
-0.345508	1.242751	9.67449	-12.054365	12.873025	-12.575753	0.433692	0.20944	-1.075006	0.668005	-2.829312	8.217359	-84.102351	163.458248	68.717088	-0.063825	-0.570916	-0.786065	9.252615	3.374142	0.129211	-1.155106	7.675956	-6.165247	-0.535166	-0.538009	-0.186384
0.119332	1.071543	10.023792	-16.495452	12.655033	-11.431718	0.44587	0.29522	-1.109926	1.880936	-3.056755	8.412475	-95.987053	166.11408	61.087606	-0.088376	-0.581027	-0.856258	9.491286	3.199868	0.252685	-2.898094	5.682613	-6.271668	-0.562982	-0.538417	-0.186525
-0.291926	1.701518	9.506975	-18.621389	16.156245	-12.074102	0.472996	0.283886	-1.068396	2.011136	-2.718371	9.151493	-111.452924	166.442966	51.027356	-0.01059	-0.535688	-0.846574	9.133348	3.43224	0.067351	-5.010394	4.028237	-6.745104	-0.535446	-0.553375	-0.201075
-0.045708	1.015673	10.361329	-27.316508	12.888745	-12.071515	0.431378	0.292066	-1.095501	2.848289	-1.986303	10.698303	-122.677359	164.989233	40.73716	0.015952	-0.533394	-0.875825	9.185606	3.023843	-0.352628	-6.380727	2.434882	-6.946466	-0.577028	-0.55564	-0.17023
-0.221392	1.819255	10.190808	-23.282728	15.859317	-12.188192	0.472239	0.294129	-1.057736	3.059369	-1.196434	12.571701	-123.940412	162.059699	31.858678	0.029519	-0.531175	-0.9048	9.361709	3.42997	-0.347596	-8.39981	0.655361	-7.114029	-0.605332	-0.587607	-0.184224
-0.45936	1.874932	9.73177	-24.868734	17.644288	-13.04405	0.429491	0.309023	-1.060104	3.821124	-1.253644	13.210405	-116.763805	159.387783	23.359661	0.055546	-0.515704	-0.906355	9.123984	3.197711	-0.4728	-9.526651	-1.148363	-7.590317	-0.548728	-0.505001	-0.203657
-0.516235	-0.193163	9.665117	-25.977475	18.405503	-15.574142	0.444355	0.315705	-1.088606	3.484625	-1.477987	13.599439	-108.243982	157.951868	15.829871	0.043606	-0.481923	-0.951136	8.955894	3.606874	0.064791	-10.832671	-2.28072	-7.977476	-0.549421	-0.571424	-0.169253
-0.95976	1.304026	10.458426	-23.199201	25.002072	-13.450653	0.430992	0.305837	-1.098916	3.587344	-1.309685	13.035603	-106.311478	156.069119	7.643049	0.121242	-0.467224	-0.939444	9.069504	3.140759	-0.23452	-11.642227	-3.075764	-8.276359	-0.535304	-0.555027	-0.170019
-0.156753	0.844155	10.528938	-25.856477	25.556784	-11.961815	0.456946	0.353116	-1.085126	3.81836	-1.70443	13.040106	-111.086142	154.042913	-0.982053	0.10841	-0.496868	-0.951511	9.011859	3.024989	-0.176208	-12.145861	-3.896186	-8.973518	-0.57724	-0.553161	-0.216814
-0.89599	1.535198	10.801623	-26.23392	28.060415	-10.662562	0.431378	0.292066	-1.095501	3.704222	-1.591506	13.094423	-120.125712	152.108788	-8.530555	0.134518	-0.405867	-0.943734	9.548526	3.489866	0.195115	-11.320525	-4.624799	-9.217515	-0.563049	-0.556262	-0.154632
-0.661198	1.249031	11.089136	-20.447479	29.896249	-7.582414	0.485588	0.321296	-1.064917	3.382899	-1.53358	14.220009	-127.798309	150.830427	-15.331467	0.186637	-0.480026	-0.968519	8.777725	3.142176	-0.060302	-10.364051	-5.088385	-8.424188	-0.576957	-0.556466	-0.154702
-0.676787	1.245654	10.293193	-16.432719	33.239171	-5.331455	0.47221	0.328727	-1.09272	3.681845	-1.02667	14.792876	-132.687648	149.881409	-20.246336	0.147494	-0.405792	-0.94401	9.021378	3.666298	0.42558	-8.358335	-5.363724	-7.727237	-0.563608	-0.586994	-0.184014
-0.845002	0.959294	10.459205	-14.156703	34.228527	-4.923229	0.457732	0.308274	-1.060803	3.523224	-0.800456	15.469115	-133.961358	149.031032	-23.862551	0.213705	-0.370489	-1.004795	8.731219	2.970802	0.596832	-6.531249	-5.155041	-6.573527	-0.535375	-0.554201	-0.185547
-0.228482	0.84106	9.788734	-11.936154	36.076919	-4.408874	0.458133	0.277204	-1.039895	4.042113	0.043627	15.593985	-132.919923	148.079227	-26.214004	0.239507	-0.40098	-1.003339	9.27723	3.205353	1.446421	-4.884879	-4.76885	-4.900451	-0.549074	-0.538213	-0.186455
-1.02472	-0.363667	9.99549	-11.093902	37.728239	-3.341723	0.470681	0.366512	-1.088891	4.448913	-0.069647	15.772272	-133.449415	145.030281	-29.481542	0.265684	-0.354868	-1.006901	8.976917	3.088639	1.14089	-3.238949	-4.226562	-3.533717	-0.577378	-0.57018	-0.200449
-0.687341	0.43906	9.721284	-10.50441	38.617874	-2.960936	0.485188	0.352366	-1.085825	5.108399	0.49118	14.371263	-143.094983	136.723885	-38.234066	0.304688	-0.339323	-1.008732	9.332114	3.088077	1.2074	-1.683305	-3.533553	-1.983986	-0.535655	-0.569567	-0.200238
-0.907368	0.326272	10.171172	-11.16588	40.142388	-2.167542	0.54207	0.319798	-1.066314	6.512745	1.221838	15.533685	-152.118873	126.023725	-49.938135	0.292082	-0.323005	-1.02381	8.981744	3.380256	1.441661	-0.31458	-3.085918	-0.432387	-0.563262	-0.553783	-0.201216
-1.026621	0.727481	9.943222	-10.967017	42.290647	-1.826511	0.542041	0.354396	-1.101297	6.412144	1.842306	16.268104	-152.128122	119.502576	-60.144354	0.318335	-0.261574	-1.028376	8.85929	2.914681	1.137947	1.350797	-3.670574	0.481258	-0.56312	-0.555436	-0.17016
-1.356496	0.328534	10.617089	-9.786733	44.59814	-1.577722	0.555076	0.308838	-1.024435	6.294965	2.912801	16.266587	-141.235079	117.510232	-67.060033	0.343772	-0.248247	-1.001232	9.09659	2.856313	1.202009	3.726968	-4.41098	1.912655	-0.590936	-0.555844	-0.1703
-1.413916	0.558342	10.61694	-9.033479	46.960195	-0.897463	0.528349	0.289102	-1.045057	6.18571	4.265281	16.661785	-121.070494	118.624223	-67.125208	0.357633	-0.244956	-1.044556	9.204313	3.028045	0.665789	5.330415	-5.523108	3.532023	-0.563396	-0.589473	-0.13743
-1.071953	-0.361454	10.506054	-6.622658	49.854724	-0.427998	0.527178	0.347714	-1.072796	6.285818	5.165832	16.041925	-96.696014	120.979175	-61.348888	0.384251	-0.227342	-1.074811	8.680831	2.10128	0.951464	6.103303	-6.455639	5.245256	-0.535513	-0.57122	-0.169182
-1.18828	0.614894	10.451076	-5.564414	51.909515	0.369056	0.555819	0.315895	-1.052587	7.066133	5.275989	14.869513	-77.193234	122.180207	-52.536247	0.396787	-0.19877	-1.048395	9.079928	2.445825	0.241768	6.665183	-6.777177	6.956361	-0.577449	-0.569353	-0.215976
-1.475707	0.672301	10.388897	-4.29206	53.841346	1.255494	0.555419	0.346965	-1.073495	8.544462	4.765453	13.994285	-62.534823	119.181354	-43.39923	0.410133	-0.182302	-1.064024	8.427179	2.56272	0.050437	6.426484	-6.855317	8.516401	-0.577237	-0.571832	-0.169393
-1.187208	0.672576	10.508171	-3.604858	55.559541	1.772129	0.596666	0.335257	-1.032314	10.185062	4.648528	12.669898	-49.869319	109.923857	-36.94612	0.42363	-0.135194	-1.08166	8.427199	3.027576	0.112322	5.66628	-6.660993	10.168746	-0.590585	-0.541304	-0.140082
-1.417091	0.327852	10.445416	-3.564762	56.940569	1.947801	0.540941	0.326512	-1.041578	11.880487	6.059524	19.443836	-47.392348	85.969024	-38.168872	0.436235	-0.151511	-1.066582	8.711951	2.734048	-0.482481	4.506976	-6.098844	11.606842	-0.563746	-0.604013	-0.167649
-1.532879	0.557459	10.387301	-3.793014	59.300015	2.446825	0.582159	0.349402	-1.035381	13.020404	5.207169	13.465923	-6.808383	51.298686	-38.203656	0.436311	-0.136191	-1.067586	8.83587	2.095931	-0.243372	1.963312	-5.144033	13.048094	-0.604982	-0.573067	-0.154006
-1.593391	0.441894	10.215146	-3.931033	61.602243	2.607317	0.568425	0.336006	-1.031616	14.055443	7.064231	13.602528	24.291936	14.712741	-36.723753	0.48844	-0.08993	-1.0717	9.073461	2.386265	-0.117921	-0.031587	-4.361612	13.601776	-0.535166	-0.538009	-0.186384
-1.981426	-0.24446	10.82984	-3.668598	64.08822	2.984315	0.62455	0.31368	-1.001445	13.999808	8.193475	16.489678	52.218814	-23.194557	-32.8242	0.50082	-0.152208	-1.053611	9.078942	1.922646	0.119729	-1.655723	-3.610336	14.337664	-0.577024	-0.574311	-0.12281
-1.409793	1.018839	10.846283	-3.02709	67.920081	4.056779	0.596666	0.335257	-1.032314	11.350683	10.677118	16.606074	102.883146	-66.661079	-22.457088	0.475019	-0.121717	-1.055067	8.90369	2.097774	0.236983	-2.849921	-2.543734	14.306332	-0.548791	-0.541518	-0.124343
-1.166217	0.906926	11.589345	-2.291778	72.654401	4.162293	0.625664	0.324265	-1.043673	5.958159	14.464774	20.402537	174.297851	-92.595538	5.765676	0.461817	-0.167754	-1.051781	9.259873	2.620389	0.425532	-2.297326	-2.226706	13.416395	-0.576677	-0.5411	-0.140012
-2.075027	0.104855	11.909269	-2.309806	78.881063	5.122247	0.583317	0.308089	-1.025134	1.771461	-6.497469	2.972181	198.319486	-96.630946	8.057053	0.449206	-0.211646	-1.077193	10.078146	3.197776	0.083969	0.095242	-1.97714	10.808442	-0.590585	-0.541304	-0.140082
-1.892129	0.107144	12.481141	-1.001444	86.65361	5.766177	0.640171	0.310119	-1.040606	-4.58856	-5.747255	9.689582	205.398845	-66.783289	-20.341205	0.461811	-0.227964	-1.062116	9.897837	4.12715	0.024716	0.925045	-1.099681	9.059026	-0.53558	-0.589065	-0.13729
-1.767806	0.39644	12.996252	-0.232322	95.889221	7.202113	0.637541	0.32002	-0.977058	-2.586149	-5.746781	14.543842	143.486904	-37.26354	2.745599	0.422802	-0.303719	-1.07062	10.660125	4.821565	-0.137732	-2.345501	2.746212	8.716301	-0.576469	-0.524907	-0.140849
-1.515488	0.516223	14.195103	-1.759913	110.619897	8.059333	0.665397	0.333042	-0.981173	-1.158819	-0.064861	9.143871	116.858807	-50.979502	-1.111565	0.435709	-0.258754	-1.059557	11.467083	4.582921	-1.201639	-7.713881	10.564843	8.026001	-0.604844	-0.556048	-0.170371
-1.01357	-0.106556	16.418627	-0.841192	129.511862	8.609186	0.681804	0.284639	-0.99601	-0.384694	2.016768	7.85984	97.067872	-50.982212	-1.62077	0.436519	-0.270859	-1.101603	12.104467	5.392275	-1.725235	-10.313588	17.660542	7.237436	-0.591078	-0.554191	-0.201356
-1.28747	-0.27602	17.03772	4.039717	150.210223	8.471705	0.679546	0.298068	-0.946538	-0.494754	-1.022527	10.515713	69.655276	-28.729293	22.254856	0.409311	-0.290617	-1.042649	11.937032	5.046202	-1.250764	-10.172612	20.111571	6.919582	-0.576193	-0.49087	-0.173578
-1.002436	-0.104144	16.987158	9.917895	173.334118	8.677489	0.665454	0.263844	-0.911205	1.393209	0.663499	10.160553	40.267291	-10.651218	23.705792	0.422062	-0.336504	-1.039913	10.640027	4.468412	-1.277446	-7.576616	14.699577	4.613121	-0.577028	-0.55564	-0.17023
-0.314352	0.010483	17.057856	13.374666	196.945627	8.03955	0.694438	0.270152	-0.940056	-0.783228	-0.684005	10.509953	29.914396	-10.1894	7.948398	0.357182	-0.336879	-1.038535	9.642504	3.890936	-1.058999	-3.075136	6.977615	4.511413	-0.548862	-0.540691	-0.139871
0.02138	0.008546	16.666565	19.014626	221.981985	7.01987	0.763926	0.257694	-0.899574	-1.366135	-0.683212	10.158027	36.108663	-16.579105	2.957302	0.421836	-0.382465	-1.036902	9.120723	4.12668	-0.528752	2.013306	2.429784	11.238945	-0.57654	-0.524081	-0.156376
-0.419569	0.115034	14.612542	23.056687	246.270173	6.11532	0.805173	0.245985	-0.858394	-0.777062	-3.275162	10.564411	51.066223	-20.022273	9.902343	0.408715	-0.352971	-1.024284	8.908672	2.796169	0.599391	7.560485	2.02054	11.312503	-0.590727	-0.539651	-0.171137
-0.368628	1.147734	14.333734	23.375531	268.269079	5.000276	0.817765	0.283395	-0.854914	1.203242	0.212467	9.306953	60.03254	-16.293076	15.095058	0.396034	-0.351974	-1.038358	9.453988	2.856244	1.388332	11.918221	5.215014	8.561162	-0.59031	-0.507266	-0.172812
-1.748634	1.607055	14.024675	25.837086	281.924961	1.197943	0.845263	0.27559	-0.827461	1.488328	0.380825	9.19986	52.104372	-8.931048	8.656997	0.421245	-0.384609	-1.008203	7.921229	3.092553	1.480523	13.238126	9.457279	6.977332	-0.562565	-0.506032	-0.188199
-4.097303	1.780837	13.922893	32.826846	285.668832	-3.91352	0.872418	0.229657	-0.750948	0.052711	0.439992	9.339604	39.94691	-3.945578	1.020515	0.369782	-0.413406	-1.033792	8.085633	3.321733	0.825838	11.509767	14.860315	4.512664	-0.604564	-0.540682	-0.15568
-6.976804	0.343011	12.951536	42.475679	276.32813	-12.864755	0.87319	0.202115	-0.744116	-0.3709	0.104294	11.028836	31.993375	-3.01844	-1.473741	0.382167	-0.415475	-1.005369	8.712012	4.128615	-0.296827	8.978324	19.549119	2.818449	-0.576819	-0.539447	-0.171067
-7.628541	-0.120891	11.800295	52.957163	258.557446	-14.594922	0.872832	0.181287	-0.712549	-0.622382	-0.177781	10.00425	32.484826	-2.940702	1.671894	0.395143	-0.4154	-1.005644	9.527233	4.124252	-0.88049	6.599241	20.481388	0.591496	-0.534816	-0.523469	-0.156166
-5.673563	0.683812	12.296357	70.454894	242.851999	-11.557767	0.956084	0.147627	-0.640848	0.232638	-0.17973	9.625907	26.423347	-3.597758	1.290545	0.395143	-0.4154	-1.005644	10.639466	4.235861	-1.338342	0.61729	17.351801	-0.563858	-0.590727	-0.539651	-0.171137
-1.625076	0.504926	11.521895	104.75282	216.09002	-9.761005	0.925942	0.182633	-0.622245	-0.225445	0.440911	9.786676	17.37795	-3.510699	-1.459568	0.421095	-0.415249	-1.006196	11.106363	4.117392	-1.629568	-4.86632	11.509997	-2.533247	-0.577028	-0.55564	-0.17023
-0.349542	-0.883792	9.381296	141.250401	170.318781	-15.701924	0.996959	0.13239	-0.585592	0.067864	0.102578	10.018994	12.333181	-4.424976	-2.736665	0.394923	-0.401151	-0.992298	10.861495	4.115954	-2.113224	-10.136059	4.617438	-3.367572	-0.562632	-0.523877	-0.156306
0.58028	-2.330185	7.120069	158.960153	126.210654	-19.598764	0.996202	0.142633	-0.574932	-0.631814	0.328862	9.6082	12.936025	-5.612099	-2.902123	0.382242	-0.400154	-1.006372	10.691745	4.292318	-1.696436	-15.459373	-1.669266	-3.623911	-0.535099	-0.520164	-0.218277
1.965636	-4.306953	1.796625	155.305542	86.230638	-20.330361	0.968361	0.112312	-0.553326	-0.334878	-0.009328	10.010437	10.865827	-5.640374	-2.595791	0.408785	-0.39786	-1.035623	10.582361	3.887787	-1.281019	-19.387532	-6.381921	-4.748544	-0.604915	-0.555222	-0.185898
3.524262	-4.375205	-0.446563	129.746868	37.082556	-24.276346	0.983582	0.139821	-0.613395	-0.167125	0.046489	9.787553	10.128655	-5.169392	-1.019474	0.357026	-0.427729	-1.046863	9.692562	3.482044	-1.598791	-21.393592	-9.834741	-5.763894	-0.57661	-0.523255	-0.171904
3.989843	-4.029198	-0.038235	91.03739	-10.928032	-31.754698	0.996231	0.108034	-0.539948	-0.394299	0.328715	9.952873	7.696952	-4.524301	-1.230812	0.395288	-0.444969	-1.017987	9.584994	3.71709	-1.000934	-22.74208	-11.938381	-6.879739	-0.563049	-0.556262	-0.154632
6.24211	-4.601129	0.96928	62.5969	-52.983182	-29.657029	1.010708	0.128487	-0.571865	-0.337511	0.103238	9.897253	6.538599	-3.341222	-1.52826	0.3442	-0.397164	-1.048594	9.293349	3.660431	-0.826963	-24.507314	-12.457434	-7.573774	-0.590589	-0.522633	-0.187502
7.767636	-4.824011	2.873418	40.495655	-93.328843	-29.911601	0.996616	0.094263	-0.536533	-0.03969	-0.065913	10.356272	7.623764	-2.963543	-0.907071	0.420945	-0.44589	-1.004188	9.357192	3.951912	-0.525091	-25.992401	-13.042651	-7.687847	-0.590239	-0.508093	-0.157284
5.189192	-4.235627	5.667265	34.051602	-116.179833	-26.767591	0.982481	0.111937	-0.553675	-0.281501	-0.347609	9.784803	10.032216	-2.996514	-0.566353	0.396029	-0.412184	-1.048693	9.48787	3.722058	0.135096	-26.574974	-13.237105	-6.829098	-0.577449	-0.569353	-0.215976
4.421087	-3.665739	4.461288	35.247216	-132.851516	-23.207824	1.010694	0.145787	-0.589357	-0.507359	-0.121666	10.006716	10.465066	-2.989215	-0.843384	0.382237	-0.460364	-1.016707	8.949831	3.373086	-0.295639	-26.669018	-13.669123	-6.490522	-0.604426	-0.523663	-0.172045
4.265114	-2.398282	5.316052	29.140745	-158.436515	-23.237801	0.954983	0.119743	-0.581129	-0.337188	-0.065754	9.897111	10.58914	-3.013683	-1.552572	0.395288	-0.444969	-1.017987	9.249854	3.141096	-0.051498	-26.265442	-13.548801	-6.156383	-0.57661	-0.523255	-0.171904
4.042161	-3.086208	5.592968	23.476383	-177.258462	-22.975126	0.928614	0.120834	-0.633318	-0.437166	-0.402952	10.574083	11.665904	-3.366944	-1.709359	0.356435	-0.429873	-1.018163	9.604261	3.953844	0.078379	-25.733481	-13.127208	-5.335162	-0.632593	-0.538611	-0.202404
4.048759	-2.969878	5.934569	21.672952	-190.764562	-23.465355	0.9286	0.138134	-0.65081	-0.271592	0.159793	10.294986	12.313712	-3.478155	-2.203191	0.382902	-0.4429	-1.04641	9.545225	3.489124	0.015394	-24.342543	-12.880674	-5.03576	-0.590243	-0.489421	-0.204704
3.428567	-2.392835	6.436412	20.412014	-200.666241	-24.266664	0.95717	0.192811	-0.71806	-0.393652	-0.009268	9.952589	11.633956	-3.516035	-2.41991	0.381722	-0.447187	-0.989012	9.075702	3.316471	0.125663	-23.47832	-12.817341	-4.947508	-0.632175	-0.506226	-0.204078
2.924329	-2.275166	6.995404	17.841967	-208.594501	-26.044347	0.887682	0.205269	-0.758541	-0.565032	-0.065228	10.005554	9.905126	-3.474641	-2.729169	0.35658	-0.459442	-1.030506	9.425957	3.547223	-0.046466	-22.125559	-13.333073	-4.888822	-0.604497	-0.522837	-0.187573
2.639171	-2.274718	7.04669	13.537183	-214.467235	-28.059725	0.901445	0.184066	-0.727323	-0.055297	-0.12286	9.61991	8.634966	-3.766904	-2.702269	0.369261	-0.460439	-1.016432	9.311901	3.257854	0.129817	-20.864558	-13.757374	-4.830241	-0.604773	-0.556874	-0.154843
2.067616	-2.101738	7.093132	6.745411	-216.605552	-29.455193	0.888439	0.195026	-0.769202	-0.34103	0.046765	9.727287	6.633926	-3.211749	-2.39008	0.395583	-0.443897	-1.032336	9.250144	3.489799	0.009892	-19.145868	-14.29511	-5.475693	-0.562356	-0.489839	-0.189036
1.626531	-2.442436	7.935572	-0.54952	-215.258779	-31.835529	0.846835	0.185907	-0.778814	-0.164468	0.553606	9.957899	6.575922	-2.877829	-1.986042	0.408339	-0.429573	-1.019266	9.082575	3.201802	0.48461	-17.205712	-14.501287	-5.573421	-0.604635	-0.539855	-0.171208
1.068255	-2.151678	8.664734	-7.005743	-211.497889	-35.160683	0.84642	0.234277	-0.817213	-0.673795	-0.233767	10.286192	7.496211	-3.358127	-1.774282	0.382312	-0.445044	-1.017711	8.671527	3.261318	0.596967	-15.265117	-14.397813	-6.039365	-0.590798	-0.538825	-0.186665
0.792046	-2.206741	9.170603	-11.342817	-206.675161	-39.026908	0.804773	0.277056	-0.879301	0.064238	0.102436	9.849076	8.790022	-3.590008	-1.313127	0.381502	-0.432939	-0.975665	9.01487	2.677028	-0.057878	-13.288474	-13.869479	-6.171291	-0.646012	-0.507257	-0.18862
0.105774	-1.74647	9.216025	-15.992834	-202.211556	-43.910458	0.749763	0.309966	-0.9517	-0.210507	0.216158	10.466162	9.348047	-3.400971	-1.002518	0.382532	-0.459292	-1.031057	9.252885	3.257989	0.128717	-10.75179	-12.6347	-6.4003	-0.590239	-0.508093	-0.157284
-0.174557	-2.262031	9.492551	-24.111987	-198.939213	-48.251331	0.694424	0.287451	-0.957548	0.015912	0.328245	10.301173	10.643446	-3.509989	-0.570967	0.343089	-0.446341	-1.002534	8.839212	3.026383	0.060118	-8.707807	-11.433848	-6.474556	-0.590101	-0.491074	-0.173649
-0.563996	-2.546536	10.052081	-36.091116	-196.288455	-50.904043	0.694395	0.32205	-0.992531	-0.453289	0.441437	9.89512	10.981163	-3.65981	-0.448872	0.355399	-0.46373	-0.973107	8.84703	2.505182	0.417334	-6.721958	-10.022565	-6.213432	-0.604985	-0.554395	-0.201426
-1.16934	-2.483331	11.290842	-49.723968	-193.809675	-52.634502	0.694009	0.335821	-0.995947	-0.158101	0.384852	10.240954	12.552171	-3.949696	0.042758	0.355694	-0.462658	-0.987456	8.374651	3.08727	0.47091	-4.730303	-8.218669	-5.465217	-0.604844	-0.556048	-0.170371
-2.022387	-1.217548	11.620567	-62.95684	-188.167544	-51.062917	0.637127	0.368389	-1.015458	-0.049984	0.891374	9.960601	12.027425	-3.925493	0.011749	0.407668	-0.507247	-0.999898	8.723381	3.027148	0.177731	-3.202857	-6.444169	-4.990232	-0.562423	-0.507684	-0.157143
-2.580953	-0.524698	12.351418	-67.850063	-179.795115	-53.581768	0.623021	0.351465	-0.997617	-0.855361	0.61123	9.943439	11.060974	-4.756561	-1.384555	0.342423	-0.463805	-0.972831	8.902184	2.271754	0.177818	-2.567398	-4.676963	-4.114676	-0.591215	-0.57121	-0.184991
-2.781885	-0.863151	13.766843	-75.108163	-170.979525	-50.073819	0.55349	0.41582	-1.090574	-0.403192	0.553705	9.556586	12.359295	-4.477994	0.746397	0.394842	-0.476681	-1.00163	8.658842	2.561191	-0.184789	-2.180653	-3.341392	-2.991656	-0.618752	-0.556252	-0.170441
-3.063656	-2.470583	13.925079	-67.919354	-161.392298	-46.34957	0.553475	0.43312	-1.108066	-0.334986	0.047002	10.010485	12.676721	-3.771179	1.123618	0.381571	-0.477828	-0.987004	8.536003	2.7347	-0.425876	-2.195126	-2.099649	-1.805601	-0.604422	-0.542334	-0.124624
-3.12784	-2.127339	13.584294	-65.660079	-152.036649	-40.529035	0.566481	0.42216	-1.066187	0.179715	0.552912	9.908512	14.485856	-4.706137	2.256421	0.382237	-0.460364	-1.016707	8.722935	2.271665	0.054703	-2.76474	-0.921702	-0.556093	-0.576264	-0.490043	-0.189106
-2.904224	-2.358478	13.303518	-64.256366	-139.744919	-30.946985	0.539369	0.416195	-1.090225	-0.333992	0.159711	10.067219	9.300284	-4.548673	0.928202	0.381942	-0.461436	-1.002358	8.894636	2.676803	-0.179893	-3.830934	-0.329243	0.942524	-0.590518	-0.523459	-0.171974
-2.438809	-1.782705	13.71281	-63.036088	-127.581468	-21.029641	0.481315	0.507376	-1.137475	-0.216659	0.272251	10.183011	10.875158	-4.618063	0.528013	0.368225	-0.494296	-0.971375	8.713051	2.734295	-0.422574	-4.71454	0.299518	1.95131	-0.618126	-0.507675	-0.172952
-2.997044	-1.549388	14.441731	-62.518536	-114.426898	-12.076196	0.481315	0.507376	-1.137475	0.180816	0.60929	9.965199	10.810526	-4.862765	0.309731	0.356725	-0.489011	-1.042848	8.354958	2.559889	-0.669546	-5.933966	1.200161	3.173968	-0.618055	-0.508501	-0.157424
-1.585136	-0.553087	19.360809	-14.941272	-138.992841	4.19425	0.467552	0.528578	-1.168693	-0.045603	0.497202	10.130188	9.024192	-4.484831	0.003771	0.342568	-0.493374	-0.985173	8.885813	2.20997	-0.721033	-7.61667	1.634939	4.920128	-0.604218	-0.50747	-0.172882
-3.812553	0.803641	13.810652	-2.604771	-150.019118	2.538286	0.397721	0.502909	-1.160115	-0.32784	0.103617	10.35037	8.252409	-4.491813	-0.428513	0.394547	-0.477753	-0.98728	8.93398	2.614142	-1.257364	-7.702097	1.869553	5.866808	-0.63301	-0.570996	-0.200729
-4.780005	-0.52819	11.115191	-29.238303	-144.46602	17.210201	0.340095	0.528421	-1.151474	-0.164037	0.328284	9.957709	9.297238	-4.908209	-0.370156	0.381791	-0.492077	-1.00035	8.759112	2.150186	-1.202736	-9.194626	2.854041	7.762517	-0.618405	-0.523041	-0.187643
-6.752075	0.112114	12.727612	-76.127696	-128.830833	34.862383	0.353816	0.559117	-1.172731	-0.168765	0.271764	9.731103	8.678675	-4.976978	-0.432994	0.381646	-0.462508	-0.988008	8.466927	2.325831	-1.027776	-9.732187	3.843549	9.501945	-0.618472	-0.540886	-0.15575
-18.094047	17.326487	33.379489	-118.450637	-155.951523	76.728682	0.352673	0.583131	-1.165487	-0.275757	0.441303	10.125305	7.629048	-4.957827	-0.711101	0.36874	-0.507472	-0.999071	8.58525	2.674264	-0.964185	-9.590346	5.081802	11.084922	-0.59031	-0.507266	-0.172812
-10.486422	3.341708	15.055465	-73.080319	-95.028356	84.116499	0.326332	0.549623	-1.182693	-0.220933	0.610092	10.013377	7.723209	-4.834391	-0.648142	0.394327	-0.463505	-0.973934	8.707259	2.384356	-0.783499	-9.18204	5.286343	12.152267	-0.632242	-0.524071	-0.172185
-8.427805	6.589452	9.255664	-19.646311	-94.980464	61.125918	0.298477	0.536602	-1.178579	-0.163475	0.666315	10.014633	7.196428	-4.935266	-0.31046	0.342643	-0.478053	-0.986177	9.178558	2.266876	-0.835097	-8.531001	4.567756	13.834472	-0.60408	-0.490452	-0.189247
-11.369473	4.43342	28.454869	-40.318385	-107.364773	54.730186	0.282098	0.550405	-1.128757	0.075033	0.778877	10.416041	7.256852	-4.998833	0.151378	0.342568	-0.493374	-0.985173	9.231822	2.846513	-1.071152	-8.193194	3.950551	14.478087	-0.604777	-0.538203	-0.202263
-16.608575	5.780058	6.478928	-48.000481	-69.832379	44.386013	0.267964	0.568079	-1.1459	-0.277505	0.722908	10.068902	7.747365	-5.24131	0.67344	0.381125	-0.509541	-0.970647	9.476264	2.557323	-0.648638	-6.376362	3.029933	15.392896	-0.591357	-0.569557	-0.216047
-16.138078	0.222172	9.817648	-33.724377	-70.245888	81.187204	0.296962	0.557087	-1.157258	-0.218515	0.610187	10.126656	8.35743	-5.875443	0.359344	0.394397	-0.508394	-0.985273	8.892976	2.444005	-0.300695	-5.239096	2.202434	15.942927	-0.604076	-0.509123	-0.141826
-16.738978	3.388668	11.410558	-50.985318	-56.431613	89.492077	0.269121	0.526766	-1.135652	0.01833	0.32834	10.414452	6.529542	-6.383792	-0.47954	0.355764	-0.507547	-0.998795	9.128905	2.501541	-0.296046	-3.054492	2.001537	15.416339	-0.604009	-0.491278	-0.173719
-17.203327	4.421741	11.121728	-36.53347	-44.207738	96.42286	0.238579	0.592842	-1.137957	-0.344741	0.722637	9.614576	5.933752	-7.21037	-1.844671	0.369406	-0.490008	-1.028774	8.775659	3.083605	-0.180363	0.326814	1.132937	14.796906	-0.604147	-0.508297	-0.157354
-19.325336	6.318362	10.974786	-15.09292	-16.82097	102.72134	0.296948	0.574386	-1.17475	-0.389032	0.103583	10.179242	6.2345	-7.850442	-1.850793	0.355173	-0.509691	-0.970096	8.887919	3.198251	-0.477202	3.026453	0.175177	13.69131	-0.618334	-0.523867	-0.172115
-19.934647	8.79363	12.109976	12.876648	18.687949	97.179669	0.2546	0.558211	-1.156211	-0.550071	0.329702	10.742201	5.423949	-8.299625	-0.376166	0.369556	-0.459367	-1.030781	8.587046	2.848987	-0.843629	5.385832	-0.967963	12.648973	-0.604497	-0.522837	-0.187573
-18.557589	10.241984	15.268539	57.447828	49.664162	91.209955	0.309954	0.563427	-1.132872	-0.146336	0.554318	10.807493	8.224414	-8.892985	2.024782	0.36852	-0.493224	-0.985725	9.007072	3.663084	-0.35321	6.789528	-2.73577	12.530063	-0.576264	-0.490043	-0.189106
-17.743425	7.301711	12.885105	179.881352	63.86211	89.739491	0.282484	0.536634	-1.125341	-0.318085	-0.572017	10.746278	10.86352	-10.09681	3.679663	0.368005	-0.480047	-0.958029	9.122748	3.25554	-0.53246	7.907645	-4.67548	11.190378	-0.576543	-0.50541	-0.203797
3.372813	4.788846	6.806581	157.410504	63.777483	82.59959	0.312997	0.505157	-1.15802	-0.366734	-0.177216	11.198518	8.839822	-11.091481	6.504358	0.368074	-0.524936	-0.969368	9.359778	3.313323	-0.467904	8.404828	-7.540702	10.407549	-0.604288	-0.506644	-0.18841
3.207374	0.653903	6.956425	110.525779	55.330444	49.611727	0.34161	0.507936	-1.172795	-0.124646	-1.303878	11.655522	5.164232	-12.955681	12.494457	0.355764	-0.507547	-0.998795	10.184789	3.834117	-0.450273	8.652704	-10.122334	8.737887	-0.631403	-0.477973	-0.128113
-0.194942	-2.426352	11.366866	38.484998	23.261048	10.786019	0.370237	0.493416	-1.170077	-0.42652	-1.301524	13.687294	-3.831807	-20.08234	20.401097	0.303345	-0.494671	-0.969997	9.835229	3.77784	-0.217495	8.62981	-12.469367	7.954484	-0.645804	-0.491064	-0.189457
