1546_acc_x	1546_acc_y	1546_acc_z	1546_gyro_x	1546_gyro_y	1546_gyro_z	1546_mag_x	1546_mag_y	1546_mag_z	1548_acc_x	1548_acc_y	1548_acc_z	1548_gyro_x	1548_gyro_y	1548_gyro_z	1548_mag_x	1548_mag_y	1548_mag_z	1549_acc_x	1549_acc_y	1549_acc_z	1549_gyro_x	1549_gyro_y	1549_gyro_z	1549_mag_x	1549_mag_y	1549_mag_z
-1.5622	-1.0642	9.3554	0.1223	0.0176	0.0325	-0.6015	0.0023	-3.0744	1.164	0.8504	9.9378	0.0028	0.1169	0.1318	-0.5541	-0.9945	-0.7248	9.9092	1.8018	0.2953	-1.2795	0.3773	-0.2057	-0.4503	-0.2582	-0.1141
-2.2008	-0.9475	9.4005	0.032	0.0862	-0.0874	1.2974	0.6437	-1.3556	0.4646	0.6777	9.693	-0.0269	0.2419	0.109	-0.5887	-1.0195	-0.6613	9.6209	1.8611	0.5747	-1.677	0.0739	-0.2489	-0.3422	-0.4503	0.072
-1.8497	-0.9479	9.5224	0.0024	0.1806	-0.1133	1.3685	0.5986	-1.4191	0.6432	0.2736	9.9277	-0.0251	0.3957	0.119	-0.5898	-1.0188	-0.7253	9.3283	1.6869	0.6257	-2.0162	-0.2826	-0.5722	-0.3362	-0.4623	0.0781
-2.1482	-0.487	9.1727	0.0931	0.0854	-0.087	1.2603	0.6201	-1.3781	1.1035	0.3883	9.7621	0.1871	0.0846	0.0978	-0.5872	-0.95	-0.662	9.6781	2.2101	0.5197	-2.2916	-0.6198	-0.5567	-0.3422	-0.4563	0.0841
-1.9681	-0.429	9.4639	-0.0292	0.1164	-0.0554	1.297	0.5961	-1.3544	0.9303	0.735	9.8175	0.1256	0.1824	0.0113	-0.6069	-0.9961	-0.7259	9.265	1.7446	0.3968	-2.9008	-0.9273	-0.414	-0.3422	-0.4623	0.0841
-1.799	-0.6606	9.1792	0.2164	0.2646	0.0156	1.2972	0.6199	-1.355	0.9876	0.4462	9.7601	-0.1813	0.18	0.1678	-0.6075	-1.0428	-0.7041	9.795	1.8024	0.464	-3.907	-1.1649	-0.4182	-0.3242	-0.4443	0.072
-1.9663	-0.7747	9.5205	0.3983	-0.0391	-0.1532	1.2965	0.6448	-1.3999	0.7579	1.1973	9.931	0.0046	0.3029	0.1128	-0.5523	-0.9487	-0.6826	9.7892	1.9763	0.1796	-4.6386	-1.3444	-0.3908	-0.3302	-0.4563	0.066
-1.6126	-0.3135	9.8161	0.1236	0.0556	-0.1192	1.278	0.669	-1.4232	1.2171	0.5612	9.6484	0.0945	0.0216	0.1562	-0.5881	-0.9729	-0.6831	9.6209	1.8028	0.5746	-5.3663	-1.4135	0.0421	-0.3242	-0.4623	0.072
-1.9123	-0.4294	9.35	0.2161	0.0881	-0.1783	1.3137	0.5742	-1.42	0.6947	0.4463	9.5809	0.0935	0.2213	-0.1413	-0.624	-0.9735	-0.7265	9.7949	1.9188	0.4643	-5.944	-1.5376	0.2248	-0.3242	-0.4383	0.0781
-2.3184	-0.8898	9.3408	0.3374	0.022	-0.1196	1.2784	0.6684	-1.401	1.0516	0.5621	10.1094	0.2476	-0.0732	0.1494	-0.5872	-0.95	-0.662	9.149	2.3271	0.5099	-6.2782	-1.507	0.3214	-0.3302	-0.4623	0.0781
-1.9565	-1.0619	9.9799	0.3091	0.0956	-0.3617	1.3149	0.6688	-1.4	1.0486	0.5041	9.9353	0.0624	0.0282	0.0326	-0.6054	-0.9266	-0.7266	9.7369	2.2101	0.5208	-6.4941	-1.5886	0.0422	-0.3242	-0.4683	0.072
-1.9132	-0.5448	9.2922	0.28	0.3091	-0.289	1.3143	0.5974	-1.3983	0.4642	1.0242	9.6935	0.1253	0.2485	-0.0776	-0.6064	-0.973	-0.7261	9.2008	2.5591	0.1698	-6.8894	-1.8384	0.2477	-0.3482	-0.4623	0.066
-2.318	-0.4861	9.3993	0.3709	0.2153	-0.2934	1.3519	0.6205	-1.3536	0.7557	0.5042	9.756	0.2171	0.1854	-0.0821	-0.5705	-0.9724	-0.6827	9.3874	2.3855	0.6855	-6.7382	-2.2734	0.316	-0.3422	-0.4503	0.06
-2.3229	-0.3713	9.1696	0.2778	0.1785	-0.1423	1.259	0.5737	-1.4214	0.6942	0.7928	9.5813	-0.0006	0.003	-0.0619	-0.5703	-0.949	-0.7043	9.5088	1.9201	0.8575	-7.1671	-2.5735	0.1809	-0.3242	-0.4623	0.054
-2.027	-0.6596	9.4046	0.0936	0.0015	-0.2759	1.2963	0.6211	-1.3994	0.6984	0.7931	9.8134	0.0632	0.122	0.0076	-0.6062	-0.9966	-0.6832	9.3275	2.4436	0.6275	-7.4716	-2.7903	0.2952	-0.3362	-0.4683	0.06
-2.1901	-0.5426	9.9765	0.2467	0.1172	-0.1458	1.3147	0.645	-1.3995	1.1645	0.5039	9.9374	0.1862	0.1214	-0.024	-0.6045	-0.9508	-0.641	9.6783	2.0937	0.5194	-7.8358	-2.6671	0.3968	-0.3362	-0.4683	0.06
-1.7905	-0.8903	9.5812	0.2798	0.3076	-0.2584	1.2786	0.5722	-1.3543	0.9336	0.5621	9.9913	0.2801	0.1461	0.0703	-0.5707	-0.9487	-0.7256	9.0961	2.095	0.7931	-8.0168	-2.6724	0.6132	-0.3362	-0.4623	0.0781
-1.914	-0.7179	9.2343	0.339	0.1777	-0.142	1.3327	0.6214	-1.3984	0.8136	0.5042	9.7571	0.184	-0.0953	-0.007	-0.5528	-0.9718	-0.6823	9.5637	2.4435	0.689	-8.5925	-2.2099	0.765	-0.3302	-0.4623	0.066
-2.0205	-0.4282	9.7502	0.4614	0.2055	-0.109	1.314	0.6218	-1.4211	0.9967	-0.1883	10.2234	0.1256	-0.0127	0.2159	-0.6049	-0.9034	-0.7268	9.4411	1.919	0.4006	-8.5008	-2.2117	0.7949	-0.3362	-0.4623	0.066
-1.7988	-0.7759	9.179	0.3404	0.0995	-0.4535	1.26	0.6445	-1.4009	0.8783	0.9665	10.1648	0.0026	0.0201	0.2186	-0.5695	-0.926	-0.6832	9.9729	2.3846	0.5827	-8.6225	-2.1174	0.77	-0.3362	-0.4503	0.0841
-2.0919	-0.718	9.0583	0.4922	0.236	-0.1071	1.2592	0.5975	-1.4219	0.9905	0.5619	9.9343	0.1876	-0.0152	0.2465	-0.6043	-0.9273	-0.6625	9.8591	2.0358	0.7505	-8.5923	-2.1166	0.7391	-0.3302	-0.4563	0.0841
-1.9128	-0.7754	9.2917	0.4611	0.2041	-0.0783	1.2975	0.5956	-1.3322	1.1634	0.5039	9.8793	0.2449	-0.1579	-0.0114	-0.5697	-0.9729	-0.64	9.3874	2.3855	0.6855	-8.8663	-2.1461	0.7705	-0.3302	-0.4683	0.0781
-1.6736	-0.6021	9.6417	0.4008	0.1812	-0.2336	1.2783	0.6447	-1.4004	0.824	0.5049	10.3372	0.2492	-0.0808	0.3041	-0.6048	-0.9505	-0.6623	9.5008	2.0937	0.4591	-8.9865	-2.3395	1.0689	-0.3182	-0.4503	0.066
-2.0265	-0.3136	9.463	0.3417	0.3994	-0.253	1.2956	0.5978	-1.421	0.9287	0.3307	9.7009	0.3091	-0.2033	0.2648	-0.5705	-0.9724	-0.6827	9.8011	2.3853	0.8072	-9.1417	-2.3582	0.731	-0.3182	-0.4563	0.072
-1.8471	-0.4863	9.696	0.5845	0.2965	-0.1033	1.2252	0.6662	-1.3358	1.1608	0.9656	9.7639	0.1864	-0.172	0.2984	-0.6233	-0.974	-0.6838	9.5028	2.3269	0.5736	-9.5678	-2.3873	0.7945	-0.3422	-0.4683	0.072
-2.0842	-0.544	9.4613	0.3706	0.1257	-0.3597	1.3142	0.6456	-1.4217	1.0456	0.3884	9.7611	0.2782	-0.235	0.2939	-0.5345	-0.9013	-0.7254	9.5055	1.9197	0.6866	-9.9027	-2.3537	0.7989	-0.3362	-0.4743	0.066
-2.1981	-0.6012	9.5738	0.3399	0.2128	-0.2323	1.2973	0.5718	-1.3316	1.1043	0.6193	9.8204	0.3082	-0.1665	0.143	-0.5536	-0.9714	-0.725	9.9042	2.2669	0.0686	-10.5129	-2.0946	0.5714	-0.3482	-0.4503	0.066
-1.7448	-0.4305	9.0084	0.3389	0.1189	-0.2066	1.297	0.5961	-1.3544	1.1636	0.3307	9.8791	0.156	-0.1407	0.3006	-0.5537	-0.9948	-0.7035	9.9189	2.1523	0.8089	-11.1552	-2.1101	0.2684	-0.3482	-0.4563	0.06
-1.7398	-0.6029	9.238	0.2162	0.0014	-0.3059	1.2969	0.5724	-1.3538	1.0441	0.7348	9.7035	0.0303	-0.1281	0.0847	-0.6218	-0.9044	-0.6845	9.624	2.0943	0.7462	-11.7645	-2.1675	0.3011	-0.3242	-0.4623	0.072
-1.8994	-0.5432	9.9823	0.095	0.1851	-0.2354	1.2784	0.6684	-1.401	0.8681	0.7926	9.5844	-0.1492	0.3363	0.1157	-0.5515	-0.9257	-0.6614	9.502	2.0357	0.5159	-12.1032	-2.2759	-0.0708	-0.3362	-0.4563	0.072
-1.6245	-0.7186	9.1826	0.0341	0.1874	-0.2664	1.2774	0.5977	-1.4215	0.8063	0.5614	9.351	-0.0302	0.2248	-0.1715	-0.5876	-0.9497	-0.6833	9.5061	2.3855	0.7447	-12.3455	-2.4356	0.1689	-0.3422	-0.4563	0.066
-2.0248	-0.6017	9.5198	0.1247	0.179	-0.1126	1.2963	0.6211	-1.3994	0.8824	0.2161	10.3379	0.095	0.1169	0.1003	-0.5879	-0.9495	-0.7046	9.6153	1.8604	0.2899	-12.5589	-2.5271	0.1966	-0.3362	-0.4743	0.0781
-1.7343	-0.4869	9.5258	0.2788	0.0974	-0.3926	1.3139	0.598	-1.4205	0.4639	0.4467	9.6347	0.0024	0.1184	0.1008	-0.6061	-0.9732	-0.7048	9.4367	1.9185	0.1727	-12.6806	-2.7771	0.3384	-0.3302	-0.4623	0.0781
-1.9146	-1.0063	9.1761	0.4011	0.0959	-0.3918	1.3146	0.5731	-1.3756	1.0443	0.5615	9.7033	0.0919	0.0015	-0.0624	-0.5708	-0.9721	-0.7041	9.5008	2.152	0.4593	-12.6479	-2.9113	0.6694	-0.3302	-0.4743	0.072
-2.3752	-0.9472	9.397	0.4634	0.2479	-0.3526	1.2784	0.6684	-1.401	0.8715	0.5618	9.7582	0.1537	-0.1301	0.084	-0.6222	-0.9042	-0.7058	9.5017	2.3267	0.5167	-12.2497	-2.8292	0.8856	-0.3362	-0.4683	0.06
-2.263	-0.6596	9.2275	0.4318	0.0087	-0.5193	1.3152	0.5244	-1.33	0.8792	0.2736	10.1639	0.0964	-0.0197	0.3709	-0.6045	-0.9508	-0.641	9.3212	2.0353	0.2847	-11.6103	-2.4892	0.6828	-0.3422	-0.4743	0.072
-2.1352	-0.6584	9.8049	0.5852	0.0684	-0.5151	1.3148	0.5969	-1.3761	0.9857	0.2728	9.6439	-0.0287	0.1527	0.0411	-0.6238	-0.9972	-0.6836	9.3787	2.2097	0.2293	-11.1856	-2.486	0.4643	-0.3302	-0.4743	0.066
-1.6755	-0.833	9.5262	0.3705	0.0963	-0.392	1.2784	0.6684	-1.401	0.8176	0.6777	9.9893	-0.0578	0.2425	0.1092	-0.6046	-0.9037	-0.7055	9.5591	2.5012	0.4612	-10.6981	-1.9581	0.211	-0.3482	-0.4503	0.066
-1.908	-0.2559	9.5804	0.371	0.1285	-0.421	1.2784	0.5965	-1.3771	0.923	0.7345	9.4114	-0.0588	0.247	0.0163	-0.5696	-0.9494	-0.6616	9.6823	2.5017	0.7483	-10.2101	-1.464	0.0482	-0.3422	-0.4683	0.054
-2.2646	-0.4291	9.1706	0.5534	-0.0266	-0.4589	1.2781	0.6209	-1.3998	1.0468	0.273	9.8189	-0.2172	0.0097	-0.1226	-0.6043	-0.9273	-0.6625	9.7911	2.3259	0.2944	-9.7526	-1.2823	0.0232	-0.3362	-0.4623	0.066
-2.0226	-0.5437	9.6349	0.2783	0.0651	-0.3635	1.3143	0.5974	-1.3983	0.8102	0.7349	9.5833	-0.1862	0.106	-0.2096	-0.604	-0.9276	-0.6412	9.5075	2.1528	0.8011	-9.6634	-1.1491	-0.3088	-0.3242	-0.4683	0.066
-1.8515	-0.6022	9.4657	0.2164	0.0322	-0.3042	1.3149	0.6688	-1.4	0.6971	0.1578	9.6965	0.0338	0.2777	-0.0131	-0.6233	-0.974	-0.6838	9.5683	2.2694	0.9164	-9.5735	-1.2383	-0.4372	-0.3362	-0.4623	0.06
-1.5016	-0.5451	9.5303	0.0009	0.0837	-0.0262	1.2603	0.6201	-1.3781	0.9347	0.5621	10.0493	0.093	0.0937	-0.0564	-0.6056	-0.95	-0.705	9.9764	2.2686	0.7533	-9.1787	-1.5185	-0.455	-0.3302	-0.4383	0.0781
-1.6246	-0.661	9.1827	-0.0893	0.095	-0.2414	1.2781	0.6209	-1.3998	1.1642	0.7349	9.9377	0.1598	0.2635	0.2338	-0.5698	-0.9258	-0.7045	9.4416	2.5013	0.459	-8.6333	-1.6374	-0.7424	-0.3542	-0.4623	0.066
-1.784	-0.6588	9.9268	0.0937	0.0309	-0.2436	1.2793	0.5954	-1.3327	0.9292	0.735	9.7594	-0.0915	0.2889	-0.1981	-0.5542	-1.018	-0.7032	9.9662	2.3837	0.2409	-8.1146	-1.739	-0.5981	-0.3242	-0.4623	0.048
-2.0865	-0.5443	9.3463	-0.1522	-0.032	-0.1564	1.2583	0.5986	-1.4663	1.097	0.6188	9.4143	-0.12	0.3111	-0.0103	-0.6047	-0.9271	-0.6839	9.4457	1.8614	0.6283	-7.9015	-1.6465	-0.6566	-0.3302	-0.4623	0.06
-1.8522	-0.2563	9.4666	-0.2126	0.1187	-0.0565	1.2416	0.5486	-1.3769	0.7555	-0.1887	9.6971	-0.0902	0.2506	-0.0454	-0.6064	-0.973	-0.7261	9.5053	2.0943	0.687	-7.4759	-1.4903	-0.8364	-0.3302	-0.4563	0.066
-2.3761	0.033	9.4569	-0.0929	-0.1031	0.0246	1.2976	0.6675	-1.3561	1.2175	0.2725	9.648	-0.2137	0.4155	-0.2204	-0.6081	-1.0188	-0.7684	9.6773	1.9771	0.4622	-7.3229	-1.3378	-0.8297	-0.3302	-0.4563	0.066
-1.8997	-0.9468	9.9238	-0.0619	-0.13	-0.0688	1.3336	0.6684	-1.3774	0.4625	0.7353	9.5771	-0.0896	0.2475	0.0165	-0.6052	-0.9503	-0.6837	9.5056	1.8032	0.6863	-7.0778	-1.2515	-0.7042	-0.3302	-0.4623	0.066
-1.9671	-0.3712	9.5215	-0.1211	-0.0295	-0.2175	1.3141	0.6937	-1.445	1.2206	0.3305	9.8221	-0.062	0.0025	-0.0306	-0.5889	-0.9959	-0.7042	9.1432	2.5593	0.2257	-7.2012	-1.1502	-0.944	-0.3242	-0.4623	0.066
-2.0219	-0.313	9.693	0.0019	0.1189	-0.1166	1.279	0.6197	-1.3555	0.5857	0.7357	9.9852	-0.0575	0.2409	0.1401	-0.5902	-1.0185	-0.7467	9.2597	2.4426	0.1707	-7.5346	-1.2794	-0.6712	-0.3302	-0.4683	0.06
-2.2065	-0.4292	9.1717	0.0933	0.0574	-0.15	1.2956	0.5978	-1.421	0.8193	0.9665	10.1057	-0.0593	0.1195	0.1012	-0.5518	-0.9255	-0.6828	9.6176	1.8024	0.4037	-7.9272	-1.2263	-0.2963	-0.3302	-0.4683	0.06
-1.7372	-0.199	9.4115	0.0305	-0.1269	-0.1603	1.2969	0.5724	-1.3538	0.8637	0.0993	9.2935	-0.0002	0.0983	-0.1178	-0.5713	-0.9953	-0.7038	9.3789	1.9769	0.2287	-8.5382	-1.2768	-0.4784	-0.3422	-0.4683	0.06
-2.0302	-0.7753	9.2319	-0.0277	0.3294	0.0175	1.2974	0.6437	-1.3556	0.6407	0.5622	9.812	-0.12	0.116	0.1944	-0.5702	-0.9255	-0.7259	9.6272	2.2112	0.9174	-9.0585	-1.4194	-0.6968	-0.3242	-0.4623	0.06
-1.6153	-0.6599	9.6427	-0.2413	0.2483	-0.1727	1.2788	0.596	-1.3549	0.8652	0.5614	9.4101	0.2159	0.1915	-0.2059	-0.5701	-0.9726	-0.6614	10.0855	1.8016	0.2987	-9.6999	-1.9708	-0.628	-0.3302	-0.4683	0.072
-2.4912	-1.1199	9.3943	-0.0284	0.1795	-0.0828	1.279	0.6197	-1.3555	0.6439	0.5624	9.9861	0.0604	-0.0272	-0.0952	-0.5713	-0.9953	-0.7038	9.971	2.1514	0.4682	-10.1868	-2.1562	-0.4799	-0.3422	-0.4623	0.0781
-1.5013	-0.718	9.5299	-0.1229	-0.0704	-0.0046	1.296	0.6454	-1.4221	0.9938	0.4466	10.1082	0.1559	0.0221	0.1249	-0.5703	-0.949	-0.7043	9.2081	2.036	0.5104	-10.493	-2.5546	-0.4674	-0.3122	-0.4503	0.066
-1.7259	-0.6589	9.928	0.0034	0.1289	-0.3312	1.2612	0.6671	-1.3571	0.9871	0.7926	9.7606	0.0324	-0.0726	0.2125	-0.571	-0.9956	-0.6825	9.9629	2.3251	0.0699	-10.7075	-3.2992	-0.2584	-0.3422	-0.4743	0.054
-2.1962	-0.947	9.6305	0.0924	0.0223	-0.0597	1.2785	0.6203	-1.3777	0.9286	0.4462	9.7011	0.3077	-0.0667	-0.0057	-0.5708	-0.9721	-0.7041	9.5628	2.2105	0.6314	-10.9235	-3.5684	-0.4551	-0.3362	-0.4563	0.072
-1.9147	-0.372	9.2351	-0.0285	0.1207	-0.1474	1.2789	0.6679	-1.3788	0.9204	0.3301	9.2368	0.0324	0.187	-0.0501	-0.6052	-0.9503	-0.6837	9.7399	2.5015	0.6924	-11.0161	-3.782	-0.4962	-0.3362	-0.4623	0.066
-2.0265	-0.3136	9.463	0.0637	0.1518	-0.1759	1.2616	0.6666	-1.3349	1.1689	0.2733	10.1691	0.0965	0.2721	0.0794	-0.5725	-1.018	-0.7463	9.6737	2.2096	0.2919	-11.1668	-3.5991	-0.3932	-0.3422	-0.4743	0.06
-2.1978	-0.7165	9.5736	-0.1206	0.0616	-0.1819	1.3146	0.6931	-1.4228	0.9853	0.6193	9.6443	-0.15	0.2425	0.1407	-0.6066	-0.9964	-0.7046	9.4973	2.2098	0.2885	-11.1013	-2.8035	-0.2294	-0.3302	-0.4563	0.054
-1.9647	-1.0052	9.5775	-0.1802	0.1887	-0.2369	1.2779	0.5971	-1.3993	0.7557	0.5042	9.756	-0.0281	0.3448	-0.1016	-0.6227	-0.9274	-0.7056	9.4421	2.0356	0.4579	-10.9793	-2.4919	-0.3679	-0.3302	-0.4443	0.054
-1.9115	-0.2563	9.4079	-0.1523	-0.004	-0.0934	1.315	0.6207	-1.3767	0.814	0.2155	9.7567	-0.2453	0.3545	-0.2242	-0.6435	-1.0433	-0.7475	9.6742	1.7439	0.2907	-10.7951	-2.0607	-0.4085	-0.3302	-0.4803	0.066
-1.9071	-0.1404	9.6382	0.0003	0.0794	0.0657	1.2794	0.6673	-1.3566	1.1614	0.446	9.7632	-0.3048	0.2804	0.0507	-0.5712	-0.9719	-0.7254	9.5617	2.2104	0.5745	-10.5202	-1.941	-0.3738	-0.3302	-0.4683	0.066
-1.447	-0.4879	9.3591	-0.2134	-0.0606	-0.189	1.2974	0.6437	-1.3556	1.1054	0.5617	9.8784	-0.0257	0.4632	-0.0008	-0.6229	-0.9742	-0.6625	9.3844	2.094	0.5139	-10.1832	-1.5755	-0.3268	-0.3242	-0.4683	0.054
-1.9139	-0.7755	9.2342	-0.2125	0.0614	-0.1518	1.2965	0.6448	-1.3999	0.7554	0.7352	9.7563	0.0015	0.123	0.008	-0.5882	-0.9258	-0.7476	9.7436	2.2691	0.8628	-10.121	-1.2991	-0.3129	-0.3362	-0.4623	0.06
-1.7887	-0.6017	9.6969	-0.2437	0.1163	0.0047	1.2775	0.6696	-1.4454	0.9854	0.5038	9.6442	-0.2115	0.1775	0.2298	-0.6056	-0.95	-0.705	9.3807	2.4429	0.3438	-9.6925	-1.2481	-0.0985	-0.3302	-0.4563	0.06
-1.6121	-1.1208	9.7566	-0.4895	0.0534	0.0919	1.2602	0.6683	-1.4015	1.1016	0.2727	9.6459	-0.0888	0.3413	-0.0084	-0.5548	-0.9941	-0.7675	9.329	2.0945	0.6836	-9.265	-1.068	-0.0619	-0.3362	-0.4623	0.06
-1.9658	-0.4287	9.5789	-0.5196	0.0567	0.0304	1.2425	0.6675	-1.3797	1.1001	0.6191	9.5884	-0.337	0.2224	-0.015	-0.5708	-0.9721	-0.7041	9.3823	1.9773	0.3996	-8.8677	-0.8262	-0.0218	-0.3302	-0.4623	0.066
-2.2004	-0.6015	9.4588	-0.3682	-0.0716	0.086	1.2605	0.6439	-1.3787	1.2242	0.735	10.0547	-0.1461	0.4839	0.2495	-0.5181	-0.994	-0.6814	9.6263	1.9782	0.8598	-8.2559	-0.4968	0.1133	-0.3302	-0.4803	0.066
-1.7958	0.0318	9.4109	-0.3987	-0.158	-0.0418	1.2784	0.5965	-1.3771	1.1033	0.5615	9.7623	-0.365	0.4044	0.059	-0.5879	-0.9495	-0.7046	9.5019	2.0939	0.5161	-8.0709	-0.1628	0.2214	-0.3362	-0.4683	0.054
-1.9768	-0.7183	9.0031	-0.3657	0.0325	-0.1543	1.296	0.6454	-1.4221	1.1023	0.5615	9.7043	-0.2449	0.1901	-0.0176	-0.5544	-0.9943	-0.7462	9.4433	1.9775	0.5147	-7.6111	-0.0842	0.5293	-0.3242	-0.4683	0.06
-1.6185	-0.8332	9.4698	-0.2735	0.0342	-0.2151	1.3136	0.6224	-1.4433	0.9897	0.3886	9.8761	-0.4271	0.3424	0.0863	-0.552	-0.9489	-0.6612	9.4414	1.6862	0.4001	-7.4273	0.1922	0.5114	-0.3302	-0.4683	0.06
-2.0263	-1.0055	9.4038	-0.2129	0.1173	-0.0258	1.2783	0.6447	-1.4004	0.6962	0.9084	9.6975	-0.3026	0.4971	0.0337	-0.6058	-0.9263	-0.7479	9.5697	2.0949	0.9729	-7.1212	0.1837	0.6929	-0.3242	-0.4623	0.06
-2.0775	-0.4279	9.8066	-0.1233	-0.0145	0.1214	1.3147	0.645	-1.3995	0.9885	0.5618	9.8183	-0.2081	0.4865	0.2189	-0.5893	-0.9956	-0.7255	8.9753	2.0365	0.6198	-6.425	-0.2124	0.3592	-0.3302	-0.4683	0.06
-1.9048	-0.7168	9.6943	0.124	0.1159	-0.0852	1.2983	0.6426	-1.3112	0.9908	0.3887	9.9341	-0.0577	0.3393	0.0223	-0.5876	-0.9497	-0.6833	9.4397	2.21	0.3444	-5.8155	-0.5004	0.5237	-0.3242	-0.4623	0.072
-1.6118	-0.1404	9.874	0.0606	-0.1596	-0.1311	1.3327	0.6214	-1.3984	0.7548	0.3309	9.6978	-0.028	0.1497	0.103	-0.5518	-0.9255	-0.6828	9.9798	2.269	0.9242	-4.8713	-0.2265	0.3765	-0.3362	-0.4683	0.042
-1.9723	-0.6601	9.2333	-0.0897	0.2083	-0.0202	1.3131	0.6229	-1.4655	0.6356	0.5041	9.5219	0.0365	0.3301	0.1766	-0.5887	-1.0195	-0.6613	9.7386	1.7445	0.5767	-4.3239	-0.0088	0.1681	-0.3242	-0.4623	0.06
-1.7952	-0.8332	9.3513	-0.1233	-0.0439	0.0891	1.3156	0.6439	-1.3551	0.869	0.9081	9.6426	-0.0573	0.37	0.0243	-0.5902	-1.0185	-0.7467	9.6198	1.8609	0.5178	-3.7732	0.071	0.4137	-0.3422	-0.4743	0.042
-2.1489	-0.7177	9.1147	-0.4592	-0.0073	0.0581	1.2611	0.5952	-1.3332	0.7601	0.2736	9.9878	-0.2102	0.3665	0.149	-0.5525	-0.9721	-0.661	9.9212	2.0944	0.9227	-3.5924	-0.0795	0.2507	-0.3362	-0.4863	0.042
-2.024	-0.4286	9.5777	-0.5817	0.0517	0.1527	1.2958	0.6216	-1.4216	0.8693	-0.1313	9.5832	-0.0593	0.1195	0.1012	-0.6403	-0.9279	-0.706	9.5605	2.3267	0.5178	-3.5948	-0.2582	0.0569	-0.3362	-0.4623	0.042
-1.8569	-0.7758	9.1778	-0.5204	0.1097	0.2177	1.2961	0.5973	-1.3988	0.8105	0.5039	9.583	-0.1226	0.1281	-0.0532	-0.5533	-0.995	-0.6821	9.7397	2.6762	0.6929	-3.5962	-0.6284	0.0684	-0.3422	-0.4623	0.054
-2.1354	-1.1198	9.7463	-0.3678	-0.0981	-0.0076	1.2781	0.6209	-1.3998	0.7547	0.4464	9.6979	-0.0269	0.3065	0.0511	-0.6583	-0.9987	-0.6416	9.5699	1.9203	0.9725	-3.9308	-0.8777	0.2427	-0.3302	-0.4563	0.054
-2.3106	-0.7159	9.7438	-0.151	0.2664	0.0748	1.2955	0.646	-1.4443	0.6991	0.2734	9.8127	-0.1481	0.4285	0.1217	-0.6062	-0.9966	-0.6832	9.6199	1.7445	0.5175	-4.0559	-1.3333	0.0663	-0.3362	-0.4683	0.06
-2.0275	-0.3713	9.4053	-0.0592	0.1491	-0.0846	1.2968	0.6205	-1.3772	0.9891	0.0421	9.8176	0.0345	0.307	0.0198	-0.6054	-0.9266	-0.7266	9.563	2.0359	0.631	-4.3303	-1.5493	0.1495	-0.3482	-0.4743	0.042
-1.6189	-0.6026	9.4704	-0.0601	0.1433	0.038	1.2799	0.6186	-1.3111	0.696	0.2155	9.6386	-0.0864	0.4275	0.1213	-0.5693	-0.9026	-0.7047	9.3157	1.9764	-0.0002	-4.1761	-1.2448	0.2256	-0.3302	-0.4563	0.054
-1.4998	-0.8908	9.587	0.0625	0.0564	-0.1195	1.2789	0.6679	-1.3788	0.8705	0.5618	9.7002	0.0329	0.0872	0.0987	-0.5877	-0.9732	-0.6617	9.2137	2.0367	0.7952	-3.8722	-1.1819	0.1034	-0.3362	-0.4743	0.06
-2.0335	-0.8334	9.0592	0.0619	0.0815	0.0048	1.3142	0.6456	-1.4217	0.58	0.2733	9.6366	0.0659	0.2711	0.1105	-0.5361	-0.9943	-0.7031	9.3198	2.268	0.2283	-3.5976	-1.2487	0.1899	-0.3422	-0.4623	0.06
-1.8457	-0.6015	9.7533	0.0028	0.1834	-0.1746	1.297	0.5961	-1.3544	0.8116	0.4463	9.641	-0.0891	0.3751	-0.0683	-0.5518	-0.9255	-0.6828	9.6218	2.0358	0.6321	-3.1415	-0.9995	-0.0161	-0.3482	-0.4563	0.048
-2.1389	-0.5435	9.6326	-0.0295	0.0267	-0.1217	1.2599	0.6207	-1.4003	1.2243	0.6772	10.0546	0.0674	0.3619	0.1474	-0.6061	-0.9732	-0.7048	9.5054	1.9779	0.6867	-2.836	-0.6924	-0.0641	-0.3362	-0.4683	0.054
-1.6862	-0.6613	9.009	0.0932	0.1148	-0.0547	1.3142	0.6456	-1.4217	0.8138	0.3887	9.7569	-0.2137	0.1881	0.0132	-0.6064	-0.973	-0.7261	9.4987	1.977	0.3449	-2.8062	-0.4396	-0.2664	-0.3122	-0.4743	0.06
-1.793	-0.7752	9.4665	0.0623	0.0844	-0.0566	1.2602	0.6683	-1.4015	1.0433	0.5615	9.6453	-0.2122	0.3111	0.0212	-0.6238	-0.9972	-0.6836	9.7403	2.2105	0.6917	-2.745	-0.3161	-0.2913	-0.3302	-0.4863	0.066
-1.6258	-0.6034	9.1253	-0.0296	0.0841	-0.0264	1.2594	0.6213	-1.4225	0.7526	0.4463	9.5819	-0.1204	0.248	0.0167	-0.6075	-0.9722	-0.7902	9.7405	2.0358	0.6913	-2.4705	-0.2886	-0.2613	-0.3242	-0.4743	0.054
-2.0823	-0.8898	9.5179	-0.2442	0.0546	0.0013	1.2425	0.6675	-1.3797	0.9847	0.215	9.5858	-0.0888	0.3413	-0.0084	-0.6242	-0.9969	-0.7049	9.3268	2.036	0.5696	-2.8071	-0.3424	-0.4151	-0.3242	-0.4743	0.042
-1.5618	-0.6605	9.4139	-0.3362	0.0249	-0.0008	1.2776	0.6214	-1.422	0.8684	0.5039	9.5841	-0.1241	0.1679	-0.2369	-0.5526	-0.9955	-0.6394	9.6138	2.1513	0.2336	-2.8978	-0.1878	-0.4063	-0.3362	-0.4803	0.066
-2.1465	-0.7751	9.2295	-0.0005	-0.0132	0.0608	1.2969	0.6443	-1.3778	0.928	0.0419	9.6425	0.2207	0.3961	0.0248	-0.5879	-0.9495	-0.7046	9.5601	1.6862	0.4593	-3.0505	-0.0595	-0.5214	-0.3422	-0.4743	0.06
-1.852	-0.3716	9.4663	-0.1219	0.1398	0.1296	1.2965	0.6448	-1.3999	0.9908	0.3309	9.934	0.1273	0.2394	0.1081	-0.6061	-0.9732	-0.7048	9.3728	2.4419	-0.055	-3.4166	-0.242	-0.4972	-0.3302	-0.4623	0.06
-1.5525	-0.7171	9.8738	-0.1528	0.0799	0.0955	1.2975	0.5956	-1.3322	1.1626	0.3306	9.8211	0.0968	0.2706	0.1103	-0.5524	-0.9016	-0.7471	10.0314	1.6858	0.5252	-3.1757	-0.39	-0.7528	-0.3362	-0.4803	0.048
-2.1333	-1.0042	9.8616	-0.3056	0.0245	-0.0007	1.2599	0.6207	-1.4003	1.0443	0.5615	9.7033	0.0655	0.2081	0.1374	-0.5889	-0.9959	-0.7042	9.3897	2.3276	0.7993	-3.055	-0.4179	-0.8782	-0.3302	-0.4683	0.06
-2.0871	-0.2561	9.347	-0.0311	-0.0128	0.0606	1.2785	0.6203	-1.3777	1.102	0.7924	9.7046	0.0336	0.1487	0.1027	-0.6061	-0.9732	-0.7048	9.3888	2.1528	0.7419	-2.5648	-0.2453	-0.6273	-0.3362	-0.4623	0.048
-2.0826	-0.7745	9.5182	-0.2757	-0.0096	0.0592	1.3153	0.6682	-1.3779	1.1024	0.446	9.7042	0.0671	0.4279	0.0586	-0.5356	-0.9711	-0.7033	9.4372	2.4425	0.231	-2.0182	-0.2122	-0.8453	-0.3182	-0.4743	0.066
-1.7298	-0.4287	9.756	-0.0924	-0.1002	-0.0367	1.2962	0.5491	-1.3755	1.0964	0.2723	9.3559	-0.0546	0.4224	0.214	-0.5691	-0.9263	-0.6618	9.3344	2.2116	0.9688	-1.9573	-0.2127	-0.8458	-0.3242	-0.4803	0.054
-2.0923	-0.545	9.0587	0.0013	0.0572	-0.1199	1.2784	0.6684	-1.401	1.0998	0.85	9.5887	-0.2115	0.3726	0.0252	-0.6064	-0.973	-0.7261	9.7999	2.4434	0.7504	-1.7432	-0.1867	-0.7539	-0.3302	-0.4743	0.066
-2.0176	-0.7162	9.8645	-0.1203	0.0631	-0.2125	1.26	0.6445	-1.4009	0.6973	0.8507	9.7554	-0.1499	0.3393	0.0538	-0.6235	-0.9503	-0.7267	9.8623	2.2109	0.9218	-1.7761	-0.5528	-0.865	-0.3362	-0.4683	0.066
-1.2051	-1.1216	9.7647	-0.2749	-0.0333	-0.0958	1.314	0.6218	-1.4211	0.822	0.5048	10.2212	-0.1196	0.4063	-0.0662	-0.5708	-0.9721	-0.7041	9.6748	2.2097	0.3488	-1.5945	-0.863	-0.8518	-0.3302	-0.4623	0.072
-1.6831	-0.4879	9.182	-0.0303	0.0798	0.0655	1.3327	0.6214	-1.3984	0.9266	0.3306	9.5849	-0.0584	0.2455	0.0473	-0.6245	-0.9967	-0.7263	9.3822	2.0937	0.3999	-1.5932	-1.1498	-0.5593	-0.3302	-0.4743	0.054
-2.3186	-0.7745	9.3411	-0.3988	-0.0418	0.1181	1.3144	0.6694	-1.4222	0.4092	0.3315	9.8076	-0.0577	0.2747	0.0802	-0.6407	-0.9277	-0.7273	9.8532	2.3262	0.4664	-1.5934	-1.3056	-0.5059	-0.3182	-0.4923	0.06
-1.9673	-0.8325	9.4629	-0.2419	0.2734	-0.0484	1.2602	0.6683	-1.4015	0.704	0.447	10.103	-0.0592	0.184	0.0433	-0.5873	-0.9734	-0.6404	9.6228	2.1524	0.6894	-1.6219	-1.4065	-0.2341	-0.3302	-0.4863	0.054
-1.9757	-0.6605	9.0608	-0.2746	0.1432	0.0981	1.2977	0.6194	-1.3328	1.046	0.042	9.7606	-0.1177	0.3327	0.1774	-0.5888	-0.9724	-0.7258	9.5555	1.8021	0.2317	-1.5298	-1.2852	-0.1978	-0.3302	-0.4743	0.066
-2.0831	-0.4863	9.5189	-0.3679	0.0181	0.1523	1.2592	0.5975	-1.4219	0.9885	0.5618	9.8183	0.0356	0.1396	0.2884	-0.6059	-0.9498	-0.7264	9.4463	2.3272	0.6864	-1.1948	-1.288	-0.2007	-0.3242	-0.4683	0.042
-1.5527	-0.6018	9.874	-0.3074	-0.1326	0.0524	1.2776	0.6214	-1.422	1.0433	0.5037	9.6452	0.1567	0.1481	0.071	-0.5882	-0.9963	-0.6615	9.6859	2.2693	0.9186	-1.1634	-0.9786	-0.2464	-0.3302	-0.4683	0.048
-1.7962	-0.3143	9.3526	-0.2131	0.0865	-0.0275	1.297	0.5961	-1.3544	0.9872	-0.0735	9.7014	0.1297	0.3255	0.2379	-0.5691	-0.9263	-0.6618	9.3833	2.0939	0.4569	-1.1335	-0.7575	-0.4196	-0.3302	-0.4803	0.048
-2.1954	-1.3505	9.6296	-0.0915	0.0512	0.0329	1.3324	0.6458	-1.4212	0.8147	0.5042	9.8151	0.0649	0.2112	0.0755	-0.6061	-0.9732	-0.7048	9.5064	2.1527	0.7441	-0.981	-0.6973	-0.4177	-0.3242	-0.4683	0.06
-1.9723	-0.6601	9.2333	-0.1551	-0.0801	0.2099	1.2971	0.6681	-1.3783	1.1025	0.3882	9.7041	0.0989	0.4229	0.1513	-0.5713	-0.9953	-0.7038	9.7329	1.802	0.292	-1.2231	-0.3568	-0.398	-0.3182	-0.4683	0.06
-1.7468	0.0305	8.952	-0.0606	0.2272	0.2269	1.241	0.5973	-1.4224	0.7512	0.7349	9.5243	-0.0252	0.3634	0.148	-0.5698	-0.9258	-0.7045	9.5641	2.036	0.688	-0.8906	-0.3497	-0.7079	-0.3482	-0.4743	0.066
-1.8006	-0.4301	9.1223	-0.1526	0.1108	0.0972	1.2972	0.6199	-1.355	1.1012	0.6191	9.6464	-0.18	0.4013	0.058	-0.5902	-1.0185	-0.7467	9.7475	1.7456	1.0324	-0.6484	-0.2526	-0.9201	-0.3242	-0.4623	0.042
-1.9131	-0.6025	9.2921	-0.3344	0.2114	-0.0216	1.2781	0.6209	-1.3998	0.583	0.389	9.8108	-0.1527	0.1578	-0.0201	-0.6079	-1.0425	-0.7254	9.6808	1.8029	0.6327	-0.6785	-0.0032	-0.9991	-0.3302	-0.4743	0.054
-1.6758	-0.66	9.5266	-0.3356	-0.0296	-0.1574	1.2781	0.6209	-1.3998	0.6457	0.7935	10.1024	-0.0871	0.2031	0.293	-0.6232	-0.9506	-0.7054	9.7362	1.8606	0.463	-0.5256	0.0243	-0.9374	-0.3242	-0.4683	0.066
-2.0886	-0.0833	9.2899	-0.3666	0.1135	0.0959	1.2961	0.5973	-1.3988	0.9881	-0.0157	9.7595	-0.0877	0.2062	0.2312	-0.5538	-0.9477	-0.768	9.5051	2.2689	0.6874	-0.6181	0.0608	-1.0885	-0.3302	-0.4683	0.06
-1.7376	-0.545	9.3532	-0.1226	0.0193	0.0617	1.334	0.6678	-1.3552	1.1051	-0.0158	9.8196	0.1259	0.1809	0.0422	-0.5687	-0.9265	-0.6405	9.7382	2.0938	0.5775	-0.553	0.2946	-0.7079	-0.3302	-0.4683	0.072
-1.7321	-0.429	9.641	-0.0612	0.1361	0.1913	1.3147	0.645	-1.3995	0.8747	0.5043	9.9321	-0.2744	0.2169	0.0775	-0.5863	-0.927	-0.6408	9.5616	2.3268	0.5747	-0.584	0.2343	-0.7415	-0.3182	-0.4683	0.048
-2.0851	-0.6595	9.4035	-0.1504	0.1252	-0.2094	1.2791	0.6917	-1.3794	0.9871	-0.0158	9.7015	0.0049	0.2691	0.1727	-0.5884	-0.9727	-0.7044	9.5617	2.2104	0.5745	-0.4318	0.108	-0.6878	-0.3362	-0.4743	0.072
-1.9036	-0.7167	9.7518	-0.0309	-0.0407	-0.0024	1.2605	0.6439	-1.3787	0.4672	0.2737	9.8085	-0.119	0.3388	0.0536	-0.5702	-0.9255	-0.7259	9.566	2.3856	0.8027	-0.494	-0.0116	-0.7858	-0.3182	-0.4683	0.054
-1.857	-1.2948	9.1191	-0.0916	0.1379	0.1605	1.2781	0.6209	-1.3998	0.7538	0.3309	9.6398	-0.0272	0.2757	0.0491	-0.6235	-0.9503	-0.7267	9.2749	1.8623	0.9098	-0.4041	-0.2884	-0.8317	-0.3362	-0.4743	0.06
-1.5629	-0.7183	9.3562	-0.1208	0.1764	0.0087	1.2967	0.6686	-1.4005	1.2843	0.6773	10.1717	0.0344	0.2102	0.1067	-0.5528	-0.9718	-0.6823	9.3333	2.2115	0.9118	-0.7406	-0.6865	-0.8189	-0.3242	-0.4863	0.06
-1.8567	-0.3145	9.2364	-0.0885	0.1875	-0.2364	1.2597	0.5969	-1.3997	0.9812	0.5612	9.4122	0.0665	0.2036	0.2303	-0.5891	-1.0193	-0.6826	9.5077	1.9782	0.8006	-0.8928	-1.1239	-0.5944	-0.3302	-0.4923	0.042
-2.0218	-0.3707	9.6929	0.0315	0.0539	-0.0584	1.2966	0.5967	-1.3766	0.9899	0.2154	9.8758	0.0636	0.185	-0.0193	-0.5713	-0.9953	-0.7038	9.6763	1.8606	0.4049	-1.0147	-1.0286	-0.6499	-0.3422	-0.4683	0.066
-1.9071	-0.7171	9.5793	0.3066	0.1371	0.0708	1.259	0.5737	-1.4214	1.0488	0.3309	9.935	0.0979	0.1355	0.3499	-0.5874	-0.9263	-0.7049	9.3874	2.4437	0.6856	-1.313	-0.7688	-0.019	-0.3302	-0.4623	0.054
-2.1969	-0.6011	9.6313	0.0631	0.1769	-0.0516	1.3321	0.6701	-1.444	0.996	0.3313	10.2241	0.0946	0.1184	0.0694	-0.6068	-0.9727	-0.7475	9.5638	2.3271	0.6887	-1.2202	-0.8688	0.1903	-0.3242	-0.4503	0.054
-2.2614	-0.3134	9.3434	0.032	0.1156	-0.0551	1.2789	0.6679	-1.3788	0.6387	0.562	9.696	0.0046	0.3029	0.1128	-0.6062	-0.9966	-0.6832	9.5683	2.2694	0.9164	-1.0363	-0.7809	0.2856	-0.3362	-0.4623	0.06
-2.2102	-0.3143	8.9995	-0.1208	0.2058	0.041	1.2583	0.5986	-1.4663	0.4629	0.4466	9.5767	0.1299	0.2918	0.2978	-0.5876	-0.9497	-0.6833	9.3292	1.9199	0.6832	-0.9747	-0.7844	0.3772	-0.3302	-0.4803	0.06
-1.967	-0.4288	9.5214	0.1542	0.1714	0.0409	1.3327	0.6214	-1.3984	0.9853	0.5615	9.6442	-0.0587	0.2793	-0.0126	-0.5878	-0.9966	-0.6401	9.5042	2.036	0.6299	-1.1257	-0.4437	0.3654	-0.3302	-0.4683	0.048
-2.0254	-0.8901	9.4616	0.186	0.1208	-0.2075	1.3145	0.6212	-1.3989	1.1602	0.5614	9.7054	0.0632	0.122	0.0076	-0.6247	-1.0201	-0.7047	9.5671	2.3857	0.8597	-1.1872	-0.2844	0.2204	-0.3422	-0.4743	0.048
-1.8525	-0.6599	9.4081	0.339	0.3233	0.0502	1.2954	0.6222	-1.4438	0.9888	0.2731	9.8179	0.0974	0.2353	0.2012	-0.5879	-0.9495	-0.7046	9.5595	2.1519	0.4604	-1.3397	-0.0945	0.1085	-0.3422	-0.4803	0.054
-1.6232	-0.7761	9.2399	0.1233	-0.0341	-0.1854	1.2787	0.6441	-1.3782	1.1005	0.3304	9.588	0.1856	-0.0707	0.1188	-0.6239	-0.9501	-0.7481	10.0368	1.8029	0.8103	-1.5865	-0.1114	-0.2593	-0.3302	-0.4623	0.054
-1.7319	-0.5443	9.6407	0.2798	0.337	-0.226	1.26	0.6445	-1.4009	0.8178	0.5045	9.9891	0.2179	0.0518	0.1266	-0.6076	-0.9957	-0.7686	9.4996	2.21	0.4024	-1.7697	-0.1705	-0.2916	-0.3302	-0.4683	0.06
-1.9183	-0.3148	9.0627	0.0945	0.1529	-0.2064	1.2965	0.6448	-1.3999	0.8816	0.7935	10.3386	-0.0285	0.0544	0.1589	-0.6062	-0.9966	-0.6832	10.0344	1.9773	0.6968	-1.9529	-0.2612	-0.2949	-0.3362	-0.4743	0.036
-2.0251	-0.4287	9.5202	0.003	0.2717	-0.0776	1.2596	0.645	-1.4231	0.9866	0.3884	9.702	0.0961	0.2091	0.1063	-0.5718	-1.0185	-0.7036	8.9818	2.212	0.962	-1.8019	-0.4452	-0.3672	-0.3302	-0.4743	0.072
-1.7809	-0.4855	10.0997	0.0928	0.0251	-0.121	1.3316	0.5988	-1.4423	0.4697	0.7936	9.9832	0.2176	0.0856	0.0667	-0.6061	-0.9732	-0.7048	10.0286	2.1512	0.4124	-1.7429	-0.6264	-0.5001	-0.3182	-0.4503	0.048
-2.0761	-0.5431	9.8638	-0.0602	0.1139	0.0057	1.2789	0.6679	-1.3788	1.0433	0.5615	9.6453	0.0043	0.2722	0.1108	-0.5886	-0.9961	-0.6828	9.4419	2.2685	0.4584	-1.4081	-0.6282	-0.5336	-0.3182	-0.4683	0.042
-1.7307	-0.5442	9.6982	-0.0013	-0.0763	0.0881	1.3148	0.5969	-1.3761	0.7051	0.4471	10.161	0.0349	0.1103	0.2554	-0.5717	-0.9951	-0.7252	9.8013	2.1525	0.8067	-1.4083	-0.784	-0.4802	-0.3362	-0.4743	0.06
-1.9665	-0.6594	9.5208	-0.0898	0.1789	-0.0525	1.2962	0.6692	-1.4227	1.04	0.6767	9.4714	-0.029	0.1865	-0.0188	-0.5527	-0.9484	-0.7039	9.6804	2.2104	0.6337	-1.2884	-0.6521	-0.7819	-0.3302	-0.4743	0.066
-2.0879	-0.4292	9.289	0.0027	0.0952	-0.2715	1.2781	0.6209	-1.3998	0.9809	0.7922	9.4125	-0.1189	0.4033	-0.0043	-0.5885	-0.9256	-0.7689	9.4465	2.1526	0.686	-1.3481	-0.6565	-0.6279	-0.3362	-0.4743	0.066
-1.5572	-0.66	9.6439	-0.09	0.0612	-0.1817	1.3147	0.645	-1.3995	0.7036	0.7935	10.1034	-0.1202	0.2143	0.0766	-0.6249	-0.9964	-0.7476	9.0987	1.7461	0.9062	-0.7958	-0.6769	-0.1414	-0.3482	-0.4623	0.06
-2.1954	-0.7739	9.6884	-0.0906	0.0569	-0.0897	1.2783	0.6447	-1.4004	1.0464	0.5617	9.8193	-0.2746	0.2829	-0.0114	-0.5702	-0.9961	-0.6398	9.4431	2.1522	0.5151	-0.642	-0.5591	-0.0136	-0.3362	-0.4743	0.048
-1.7992	-0.5453	9.1795	-0.0907	0.1437	0.0378	1.2959	0.5735	-1.3982	1.454	0.6768	9.9428	0.1262	0.1471	0.1021	-0.5706	-0.9958	-0.6611	9.5113	1.7457	0.971	-0.4589	-0.5308	0.0171	-0.3122	-0.4683	0.054
-1.6832	-0.4302	9.1821	-0.2114	0.1848	-0.1452	1.3325	0.5976	-1.3979	0.9846	0.3305	9.5859	0.0943	0.1199	0.0384	-0.5879	-0.9495	-0.7046	9.9144	2.21	0.5812	-0.3983	-0.5611	-0.0157	-0.3242	-0.4683	0.06
-2.0258	-0.6595	9.4621	-0.0903	0.1466	-0.0235	1.2597	0.5969	-1.3997	1.0469	0.9659	9.8779	-0.0594	-0.0096	0.217	-0.5889	-0.9959	-0.7042	9.5042	2.036	0.6299	-0.3116	-0.6067	-0.5415	-0.3302	-0.4683	0.06
-2.6728	-1.0051	9.0461	-0.0296	0.0841	-0.0264	1.296	0.6454	-1.4221	0.6483	0.3318	10.2178	0.1563	0.0851	0.098	-0.5735	-1.0644	-0.7458	9.5672	2.3275	0.8596	-0.5595	-0.8072	-0.9496	-0.3302	-0.4803	0.06
-1.8626	-0.8341	8.8901	-0.0314	-0.0436	0.0589	1.3137	0.5742	-1.42	0.8687	0.3306	9.5838	-0.0251	0.2006	0.3236	-0.6059	-0.9498	-0.7264	9.3301	2.0946	0.7406	-0.6846	-0.9184	-1.2926	-0.3302	-0.4683	0.054
-2.2017	-0.4863	9.4016	-0.1527	0.0519	0.0325	1.296	0.6454	-1.4221	0.8754	-0.0731	9.9314	0.3422	-0.0193	0.2766	-0.5696	-0.9494	-0.6616	10.044	2.386	1.2105	-0.3189	-0.9225	-1.2651	-0.3422	-0.4623	0.06
-1.8006	-0.4301	9.1223	-0.0284	0.2089	-0.0505	1.3334	0.6446	-1.3768	1.0489	0.2731	9.935	0.4637	0.0522	0.0323	-0.5876	-0.9497	-0.6833	9.5685	2.0948	0.916	-0.0454	-1.1104	-1.2463	-0.3302	-0.4743	0.066
-2.0214	-0.5436	9.6924	-0.2156	-0.075	0.1175	1.3135	0.6705	-1.4666	0.589	0.5627	10.1591	0.2463	-0.0994	0.0545	-0.5707	-0.9487	-0.7256	9.5629	2.1523	0.6313	0.2926	-0.9057	-0.9924	-0.3242	-0.4623	0.066
-1.8483	-0.4864	9.6385	-0.091	-0.0328	-0.156	1.2777	0.5733	-1.3987	1.0449	0.0996	9.7027	0.1246	-0.0404	0.152	-0.6059	-0.9498	-0.7264	9.792	1.5109	0.2924	0.2644	-0.695	-0.8275	-0.3362	-0.4623	0.048
-2.2054	-0.3714	9.2294	-0.0594	0.2064	0.0107	1.296	0.6454	-1.4221	0.9232	0.5613	9.4111	0.0346	0.1441	0.1955	-0.5712	-0.9719	-0.7254	9.3824	1.8609	0.3994	0.2973	-0.4233	-0.6599	-0.3302	-0.4743	0.048
-1.5617	-0.7182	9.4137	-0.0909	0.0261	-0.0914	1.3153	0.6682	-1.3779	0.8151	0.9662	9.8737	-0.0916	-0.0353	0.1223	-0.5708	-0.9721	-0.7041	9.6217	2.094	0.6323	0.1165	-0.0535	-0.6085	-0.3302	-0.4683	0.054
-1.9684	-0.8903	9.4052	-0.0597	0.1462	-0.0233	1.2973	0.6918	-1.3789	1.1052	0.7349	9.8786	0.0961	0.2091	0.1063	-0.5531	-0.9482	-0.7253	9.5055	1.9197	0.6866	-0.0027	0.0002	-0.3279	-0.3182	-0.4683	0.054
-1.9621	-0.5436	9.7511	-0.0294	0.1149	-0.0248	1.296	0.6454	-1.4221	1.2237	0.3307	9.9962	-0.0582	0.1795	0.1361	-0.6067	-0.9493	-0.7691	9.6763	1.8606	0.4049	-0.3365	0.4051	-0.3657	-0.3422	-0.4623	0.054
-1.9183	-0.3148	9.0627	0.124	0.1453	-0.0529	1.2974	0.6437	-1.3556	0.7002	0.158	9.8706	0.0028	0.1492	0.1028	-0.5702	-0.9961	-0.6398	9.6136	2.3259	0.2341	-0.7318	0.3747	-0.2718	-0.3362	-0.4803	0.054
-1.8011	-0.1995	9.1228	0.3386	0.088	-0.2083	1.2969	0.5724	-1.3538	0.8687	0.3306	9.5838	0.0667	0.1375	0.3191	-0.5696	-0.9494	-0.6616	9.686	2.1529	0.9184	-0.9723	0.615	-0.0113	-0.3482	-0.4803	0.066
-1.9782	-0.0265	9.0048	0.1878	0.3074	-0.2282	1.2787	0.6441	-1.3782	0.7577	0.5621	9.8721	0.0022	-0.0106	0.2166	-0.5879	-0.9495	-0.7046	9.3956	2.0954	1.0835	-1.216	0.7114	-0.0658	-0.3362	-0.4623	0.054
-1.7867	-1.0628	9.7533	0.2484	0.1861	-0.2958	1.2794	0.6673	-1.3566	0.9864	0.5616	9.7022	0.1857	-0.0061	0.0609	-0.553	-0.9953	-0.6608	9.5564	1.9768	0.2891	-1.5829	0.4067	-0.0787	-0.3422	-0.4683	0.054
-2.0326	-0.1413	9.1759	0.0652	0.2781	-0.2306	1.3333	0.5727	-1.3529	0.8792	0.2736	10.1639	0.0359	0.1381	0.3193	-0.6064	-0.973	-0.7261	9.5608	2.0356	0.5171	-1.431	0.0938	0.0268	-0.3482	-0.4743	0.06
-1.8464	-0.2556	9.7541	0.1544	0.1434	-0.0221	1.2784	0.5965	-1.3771	0.9332	0.9085	9.9917	0.0621	0.062	-0.0273	-0.6068	-0.9727	-0.7475	9.504	2.2688	0.6304	-1.5555	-0.0511	-0.2257	-0.3242	-0.4803	0.042
-2.3699	-0.7159	9.6851	0.1246	0.2364	-0.0173	1.2773	0.6458	-1.4448	1.0419	0.8501	9.5876	0.0315	0.0287	0.0328	-0.5713	-0.9953	-0.7038	9.4373	2.3261	0.2307	-1.4949	-0.3008	-0.1469	-0.3302	-0.4683	0.048
-1.972	-0.7754	9.233	0.2163	0.0896	-0.209	1.2611	0.5952	-1.3332	0.5776	0.5042	9.5208	-0.0594	0.2178	-0.0166	-0.572	-1.0419	-0.682	9.0982	2.2118	0.9073	-1.4053	-0.514	-0.251	-0.3362	-0.4803	0.06
-1.6867	-0.373	9.0097	0.1573	0.3666	-0.1638	1.278	0.669	-1.4232	0.9323	0.7929	9.9336	0.1881	0.3074	-0.043	-0.6406	-0.9748	-0.6628	9.505	2.3272	0.6876	-1.527	-0.5447	-0.2208	-0.3182	-0.4803	0.054
-1.7299	-0.9477	9.6972	0.1568	0.3049	-0.1671	1.296	0.6454	-1.4221	0.6987	0.5621	9.8131	0.1244	0.0256	0.0632	-0.5543	-1.0414	-0.6817	9.2701	2.211	0.6828	-1.3436	-0.2356	-0.2985	-0.3302	-0.4743	0.042
-2.4918	-0.8316	9.395	0.1541	0.1126	-0.0237	1.2974	0.6437	-1.3556	0.7508	0.2729	9.4657	-0.0004	-0.0307	-0.002	-0.6058	-0.9263	-0.7479	9.8612	2.1526	0.8647	-1.2224	-0.0153	-0.4725	-0.3362	-0.4923	0.06
-2.3816	-0.6596	9.1102	0.2774	0.1756	-0.081	1.3152	0.6444	-1.3773	0.8673	0.6193	9.5262	0.1872	0.1169	0.0688	-0.6076	-0.9957	-0.7686	9.3308	2.4441	0.7984	-0.9475	0.1045	-0.4378	-0.3302	-0.4803	0.042
-2.0278	-0.256	9.4056	0.1868	0.2428	-0.1702	1.2609	0.6915	-1.3798	0.6982	0.1579	9.7545	0	-0	0	-0.5886	-0.9961	-0.6828	9.2609	2.3845	0.2275	-0.6702	0.4655	-0.2368	-0.3122	-0.4743	0.06
-2.1928	-0.9466	9.803	0.1238	0.1438	-0.0222	1.2597	0.6688	-1.4237	0.6997	0.5622	9.8711	0.0972	0.3014	0.1123	-0.5869	-0.9031	-0.7051	9.4438	2.5598	0.5731	-0.6705	0.4665	-0.2675	-0.3182	-0.4803	0.048
-2.1466	-0.1408	9.2886	0.0026	0.182	-0.1439	1.2971	0.6681	-1.3783	1.1052	0.7349	9.8786	-0.0282	0.0529	0.1899	-0.6045	-0.9508	-0.641	9.6806	2.0358	0.6332	-0.4589	0.5649	-0.5101	-0.3242	-0.4623	0.054
-2.0296	-1.0636	9.2312	0.0322	0.0876	-0.118	1.2415	0.5967	-1.4002	1.0425	0.3882	9.587	0.1283	0.2671	0.172	-0.6063	-0.9495	-0.7477	9.4563	2.3285	1.1991	-0.3364	0.3108	-0.3091	-0.3242	-0.4683	0.054
-1.8508	-0.9481	9.4649	0.0918	-0.0394	-0.063	1.2787	0.6441	-1.3782	0.9877	0.3307	9.76	-0.0898	0.0862	0.1613	-0.5536	-0.9714	-0.725	9.157	2.2117	0.9084	-0.1251	0.0032	-0.3883	-0.3242	-0.4743	0.054
-1.6763	-0.4294	9.5271	0.0926	0.0531	-0.058	1.2244	0.6192	-1.3569	0.7037	0.7357	10.1034	-0.091	0.1568	-0.0204	-0.5698	-0.9258	-0.7045	9.5039	2.3852	0.6307	0.0602	0.0544	-0.1104	-0.3362	-0.4623	0.06
-2.2057	-0.8328	9.1708	0.0018	0.0895	-0.1489	1.3143	0.5974	-1.3983	0.9874	0.5617	9.7603	0.0028	0.1815	0.0739	-0.6232	-0.9506	-0.7054	9.5658	2.5602	0.8032	0.2425	-0.1645	-0.0618	-0.3122	-0.4623	0.048
-2.1413	-0.4861	9.5178	-0.0286	0.1781	-0.0521	1.2601	0.5963	-1.3776	1.0495	0.5619	9.9934	0.1263	0.0166	0.2489	-0.5881	-0.9729	-0.6831	9.7988	2.385	0.6933	0.641	0.1349	0.1043	-0.3302	-0.4743	0.042
-2.0279	-0.775	9.3469	0.0015	0.1454	-0.0229	1.2608	0.6196	-1.3559	0.8723	0.7929	9.8165	0.0323	0.1225	0.0078	-0.5874	-0.9263	-0.7049	9.736	2.0353	0.4635	0.8536	-0.1775	0.1785	-0.3422	-0.4803	0.054
-1.9657	-0.4864	9.5787	0.0624	0.1138	-0.0242	1.3325	0.5976	-1.3979	0.9284	0.5617	9.7012	0.2809	0.077	0.2211	-0.5882	-0.9258	-0.7476	9.4933	2.7915	0.119	1.0362	-0.0848	0.1204	-0.3182	-0.4683	0.054
-1.557	-0.7753	9.6436	-0.0589	0.2387	-0.0183	1.3152	0.6444	-1.3773	1.1071	0.0421	9.9357	-0.0282	0.0207	0.2188	-0.5702	-0.9255	-0.7259	9.4453	2.2107	0.6292	1.4008	-0.335	0.1351	-0.3362	-0.4863	0.054
-1.7338	-0.7176	9.5253	0.2779	0.2079	-0.11	1.3153	0.6682	-1.3779	1.1076	0.5041	9.9943	0.0958	0.0156	0.28	-0.6063	-1.0201	-0.6616	9.5129	2.2699	1.0862	1.5521	-0.0505	-0.128	-0.3422	-0.4923	0.048
-1.8562	-0.5451	9.2359	0.1552	0.236	-0.0171	1.2776	0.6214	-1.422	0.9937	0.5044	10.1083	0.1885	0.1108	0.1926	-0.5879	-0.9495	-0.7046	9.3312	2.0948	0.7976	1.3366	0.1795	-0.5141	-0.3182	-0.4683	0.06
-1.7987	-0.8336	9.1788	0.1534	0.0789	0.0359	1.259	0.5737	-1.4214	0.6895	0.446	9.2908	0.3157	0.3179	0.3297	-0.6256	-0.9959	-0.7903	9.4442	2.2105	0.5722	1.1227	0.1525	-0.5752	-0.3362	-0.4803	0.054
-1.7347	-0.2563	9.5264	0.1236	0.0556	-0.1192	1.3152	0.6444	-1.3773	1.3931	0.5612	9.7676	-0.1798	0.0756	0.4094	-0.5858	-0.9039	-0.6411	9.3288	2.2691	0.6841	0.7606	0.3303	-0.2555	-0.3182	-0.4743	0.042
-1.7426	-0.3726	9.1236	-0.0003	-0.0117	0.0301	1.2778	0.6452	-1.4226	0.6463	0.2739	10.1017	-0.1209	0.1528	0.0726	-0.5876	-0.9497	-0.6833	9.7413	2.2688	0.7489	0.2712	0.249	-0.471	-0.3182	-0.4803	0.066
-1.9074	-0.5441	9.5797	-0.0591	0.0917	-0.1799	1.278	0.669	-1.4232	0.7044	0.1583	10.1026	-0.0599	0.0902	0.0682	-0.6068	-0.9727	-0.7475	9.6798	1.7446	0.5756	-0.096	-0.1797	-0.4595	-0.3422	-0.4743	0.048
-1.907	-0.1981	9.6381	-0.0598	0.058	-0.1202	1.2428	0.6432	-1.357	1.1063	0.6772	9.9365	0.002	0.0232	0.1567	-0.5712	-0.9719	-0.7254	9.9682	2.6169	0.3554	-0.3392	-0.1478	-0.4251	-0.3182	-0.4803	0.054
-1.6151	-0.7752	9.6425	-0.0599	0.1447	0.0074	1.2969	0.6443	-1.3778	1.3386	0.2728	9.9402	-0.0286	0.2173	-0.0168	-0.5882	-0.9258	-0.7476	9.5588	1.8025	0.4026	-0.5816	-0.2757	-0.2146	-0.3362	-0.4863	0.066
-2.0815	-0.7167	9.5759	0.1569	0.2181	-0.2947	1.2973	0.6918	-1.3789	0.8083	0.5615	9.4671	0.0617	-0.001	-0.0003	-0.5703	-0.949	-0.7043	9.2668	2.0942	0.5116	-0.3689	-0.088	-0.3603	-0.3182	-0.4683	0.06
-2.1374	-0.1397	9.7486	0.0033	0.2157	-0.2036	1.314	0.6218	-1.4211	0.9305	0.5618	9.8172	0.0951	-0.0137	0.2471	-0.6067	-1.0198	-0.683	9.2758	2.0953	0.9674	-0.2463	-0.092	-0.2693	-0.3362	-0.4683	0.06
-1.8477	-0.7747	9.6378	0.001	0.1131	0.0061	1.2231	0.6447	-1.424	1.2831	0.8505	10.1139	-0.0602	0.1563	-0.0206	-0.6407	-0.9277	-0.7273	9.5061	2.3855	0.7447	-0.096	-0.0854	-0.5161	-0.3302	-0.4683	0.048
-1.6779	-0.7756	9.4113	0.1543	0.0846	-0.0867	1.2971	0.6681	-1.3783	0.8684	0.5616	9.5841	0.0001	0.0645	-0.0579	-0.5887	-0.949	-0.7473	9.6248	2.3855	0.8039	-0.0046	0.1014	-0.5994	-0.3302	-0.4683	0.06
-1.6736	-0.6021	9.6417	0.1553	0.1786	-0.1124	1.2974	0.6437	-1.3556	0.8147	0.4465	9.815	-0.0297	0.0928	0.0062	-0.5533	-0.995	-0.6821	9.207	2.0941	0.4535	0.0278	0.3126	-0.4657	-0.3242	-0.4803	0.054
-2.0265	-0.3136	9.463	0.093	0.0266	-0.1517	1.2788	0.596	-1.3549	0.8741	0.9662	9.9327	-0.0872	0.366	0.1173	-0.5893	-0.9956	-0.7255	9.2141	2.6772	0.8537	0.3017	0.092	-0.3872	-0.3302	-0.4683	0.066
-2.2123	-0.3722	8.8843	-0.0592	0.1785	-0.0523	1.3156	0.6439	-1.3551	0.9898	0.3309	9.876	-0.1241	-0.0272	-0.0323	-0.5882	-0.9963	-0.6615	9.4444	1.9777	0.5717	0.3634	0.0885	-0.2956	-0.3242	-0.4803	0.042
-2.2623	-1.0055	9.2267	0.1558	0.2109	-0.1414	1.26	0.5726	-1.377	0.8138	0.3309	9.7568	-0.0293	0.1558	-0.0208	-0.5703	-0.949	-0.7043	8.7943	2.2108	0.389	0.6065	0.0884	-0.3591	-0.3302	-0.4803	0.06
-2.078	-0.774	9.7482	0.2169	0.2101	-0.141	1.2594	0.6213	-1.4225	0.8698	0.273	9.6418	0.0302	-0.0297	-0.0331	-0.5719	-0.9714	-0.7681	9.6837	2.269	0.8047	0.303	0.1496	-0.2612	-0.3242	-0.4803	0.054
-2.0189	-0.6586	9.8072	0.0648	0.3046	-0.137	1.296	0.6454	-1.4221	0.7536	0.5041	9.64	0.036	0.2026	0.2614	-0.6238	-0.9972	-0.6836	9.7323	2.3259	0.2933	0.3014	0.1872	-0.4745	-0.3182	-0.4623	0.054
-1.6847	-0.8341	9.0661	0.0637	0.1224	-0.2082	1.296	0.6454	-1.4221	0.9243	0.5036	9.4691	-0.0912	0.0277	0.0954	-0.5881	-0.9729	-0.6831	9.5083	2.444	0.8587	0.1808	0.4027	-0.4315	-0.3182	-0.4743	0.036
-1.5576	-0.487	9.6443	0.0628	0.0872	-0.1179	1.2969	0.6443	-1.3778	0.8715	0.5618	9.7582	0.0637	0.0544	0.1274	-0.5883	-0.9492	-0.726	9.5032	1.9776	0.5728	0.2118	0.5255	-0.4254	-0.3302	-0.4743	0.06
-1.7395	-0.7759	9.2376	-0.0596	0.0888	-0.1186	1.2787	0.6441	-1.3782	0.6983	0.8508	9.8134	-0.1827	0.2844	-0.0738	-0.5884	-0.9727	-0.7044	10.0362	2.3269	0.8115	0.2732	0.4605	-0.337	-0.3302	-0.4863	0.066
-1.9028	-0.5436	9.8098	-0.0297	0.0253	-0.091	1.2777	0.5733	-1.3987	0.6451	0.3893	10.0439	-0.2704	0.5228	0.1284	-0.5718	-1.0185	-0.7036	9.6795	2.0356	0.5763	0.1203	0.3387	-0.3421	-0.3302	-0.4743	0.054
-2.0226	-0.5437	9.6349	0.0013	0.2028	0.0723	1.3152	0.6444	-1.3773	0.9301	0.9083	9.8177	-0.179	0.3968	0.1508	-0.5897	-0.9954	-0.7469	9.8022	2.3855	0.8642	-0.0036	-0.0276	-0.4216	-0.3242	-0.4863	0.048
-1.9077	-0.4288	9.58	0.1535	-0.0079	-0.0916	1.2583	0.5986	-1.4663	0.9854	0.5038	9.6442	-0.1192	0.242	0.1405	-0.5701	-0.9726	-0.6614	9.5604	2.3849	0.5179	-0.2196	-0.4219	-0.5634	-0.3242	-0.4683	0.054
-2.3176	-0.7167	9.3987	-0.0914	-0.0062	-0.0624	1.2608	0.6196	-1.3559	1.1039	0.908	9.8208	0.0009	-0.0691	0.1507	-0.5706	-0.9958	-0.6611	9.2632	2.3266	0.3413	-0.5565	-0.5997	-0.6929	-0.3362	-0.4503	0.06
-2.4356	-0.4283	9.3396	-0.1224	0.1075	0.1586	1.3139	0.598	-1.4205	0.9884	0.6195	9.8184	0.3403	0.022	0.062	-0.5708	-0.9721	-0.7041	9.5632	1.9195	0.6307	-0.6801	-0.6543	-0.8792	-0.3302	-0.4683	0.06
-1.7322	-0.3714	9.6411	-0.3986	-0.0697	0.0552	1.2779	0.5971	-1.3993	0.53	0.5627	10.1	0.0623	-0.0363	0.0905	-0.5703	-0.949	-0.7043	9.4983	2.3845	0.3459	-0.8012	-0.4994	-0.8701	-0.3242	-0.4863	0.054
-1.7404	-0.3147	9.2387	-0.1513	0.1194	-0.0868	1.333	0.5971	-1.3757	1.1033	0.5615	9.7623	0.0343	0.1456	0.1646	-0.5541	-0.9945	-0.7248	9.7402	2.2687	0.6919	-1.0147	-0.6217	-0.844	-0.3242	-0.4803	0.048
-2.0836	-0.2557	9.5195	-0.3062	-0.0372	-0.004	1.2785	0.6203	-1.3777	0.7486	0.3305	9.3497	0.0657	0.3049	0.0506	-0.5691	-0.9263	-0.6618	9.3817	2.5012	0.4009	-1.0449	-0.4349	-0.8955	-0.3362	-0.4683	0.048
-2.0823	-0.3132	9.5768	-0.1515	0.0886	-0.0884	1.2961	0.5973	-1.3988	0.9859	0.9658	9.7028	0.033	0.184	0.0118	-0.5907	-1.0417	-0.7464	9.2724	2.1531	0.7966	-1.1981	-0.5239	-0.9604	-0.3122	-0.4743	0.048
-2.091	-0.6025	9.1161	0.0325	0.0317	-0.244	1.2415	0.5967	-1.4002	0.8716	0.4463	9.758	-0.0894	0.3766	-0.0993	-0.5693	-0.9026	-0.7047	9.5549	2.2678	0.2328	-1.1359	-0.31	-0.9191	-0.3242	-0.4803	0.06
-1.3348	-0.2003	9.1896	0.1246	0.1202	-0.1772	1.3334	0.6446	-1.3768	1.2213	0.5615	9.8805	-0.1181	0.302	0.1754	-0.5873	-0.9734	-0.6404	9.1519	2.735	0.6818	-1.1076	-0.2706	-1.194	-0.3302	-0.4743	0.054
-1.7293	-0.6594	9.7554	0.154	0.0538	-0.0883	1.2974	0.6437	-1.3556	1.2762	0.5035	9.7074	-0.2778	0.103	-0.1162	-0.5722	-1.0183	-0.7249	9.7409	2.6763	0.7498	-0.8029	0.1019	-1.3616	-0.3302	-0.4863	0.048
-1.8529	-0.487	9.4085	0.1549	0.1757	-0.0511	1.2959	0.5735	-1.3982	0.9843	0.5615	9.5862	-0.1501	0.1457	0.2275	-0.6047	-0.9271	-0.6839	9.8035	2.211	0.9207	-0.7412	0.161	-1.2975	-0.3362	-0.4803	0.06
-1.6236	-0.5455	9.2405	0.0021	0.1497	-0.1149	1.2964	0.5729	-1.376	0.6957	0.4464	9.6389	-0.1506	0.3101	0.0209	-0.5871	-0.9265	-0.6835	9.9668	1.8598	0.2396	-0.4338	0.3977	-1.0725	-0.3242	-0.4803	0.06
-1.8517	-0.4869	9.466	-0.0609	0.0802	0.0654	1.277	0.5982	-1.4437	0.7599	0.4468	9.988	0.0628	0.0912	0.0056	-0.5702	-0.9255	-0.7259	9.2117	1.8618	0.6808	-0.4364	0.1574	-1.2694	-0.3242	-0.4683	0.048
-1.9175	-0.7183	9.0618	0.0938	0.2353	0.0132	1.2967	0.6686	-1.4005	0.6937	0.3885	9.5228	0.1227	-0.0313	-0.0336	-0.6057	-0.9734	-0.6834	9.5121	1.9787	1.0285	-0.3458	0.0028	-1.2782	-0.3242	-0.4683	0.06
-1.5602	-0.3143	9.5297	-0.0014	-0.0189	0.1834	1.2771	0.622	-1.4442	0.6427	-0.1306	9.8691	0.125	0.0226	0.1251	-0.5706	-0.9253	-0.7472	9.8555	2.2683	0.5802	-0.2864	-0.0543	-1.4354	-0.3302	-0.4743	0.048
-1.9045	-0.3131	9.7528	-0.0918	0.0203	0.0312	1.2792	0.6435	-1.356	0.932	0.2155	9.8748	0.2478	0.0558	0.0336	-0.6235	-0.9503	-0.7267	9.6814	2.327	0.6909	-0.3788	-0.4565	-1.3633	-0.3302	-0.4743	0.042
-1.7978	-0.6605	9.2367	-0.1527	0.0519	0.0325	1.3336	0.6684	-1.3774	0.8138	0.3309	9.7568	0.0325	0.0242	0.1256	-0.5713	-0.9953	-0.7038	9.5561	2.2097	0.2896	-0.4107	-0.7322	-1.4082	-0.3302	-0.4863	0.054
-2.1914	-0.4851	9.9191	-0.0905	0.1451	0.0072	1.2971	0.6681	-1.3783	0.8749	0.3311	9.9319	0.1863	-0.0414	0.1517	-0.5716	-0.9716	-0.7467	9.5073	2.3274	0.8015	-0.2878	-0.9565	-1.1748	-0.3242	-0.4863	0.042
-2.2025	-0.6594	9.3437	-0.1829	0.0258	-0.0613	1.2778	0.6452	-1.4226	0.524	0.389	9.7517	0.4336	-0.1454	0.2991	-0.6247	-1.0201	-0.7047	9.3845	2.0358	0.5137	-0.8354	-0.9856	-1.0796	-0.3242	-0.4803	0.048
-1.8004	-0.5454	9.122	-0.1205	0.1204	-0.1173	1.3159	0.6195	-1.3323	1.2197	1.0234	9.823	0.5259	-0.0486	0.1807	-0.5361	-0.9943	-0.7031	9.2123	2.3276	0.7389	-1.1075	-0.9286	-0.8592	-0.3302	-0.4803	0.06
-2.3111	-0.4852	9.7443	-0.0286	0.2075	-0.0198	1.3334	0.6446	-1.3768	0.7561	0.1578	9.7556	0.4024	-0.1111	0.2393	-0.6243	-0.9498	-0.7694	9.6812	2.4434	0.6912	-1.3808	-0.8667	-0.7923	-0.3302	-0.4743	0.06
-1.9669	-0.4865	9.5212	0.0026	0.182	-0.1439	1.2963	0.6211	-1.3994	0.8125	0.5618	9.6991	0.6185	-0.0179	0.1513	-0.5528	-0.9718	-0.6823	9.2697	2.5021	0.6835	-1.378	-0.8776	-0.4546	-0.3122	-0.4803	0.054
-1.7977	-0.7181	9.2366	0.0305	0.1055	0.1595	1.277	0.5982	-1.4437	1.1029	0.8502	9.7627	0.2467	-0.0041	-0.0014	-0.571	-0.9956	-0.6825	9.27	2.2692	0.6829	-1.2551	-0.695	-0.4154	-0.3302	-0.4803	0.048
-2.2043	-0.3713	9.2869	0.1243	0.1761	-0.0512	1.2592	0.5975	-1.4219	1.1617	0.215	9.7629	0.3697	-0.1015	0.0538	-0.5886	-0.9961	-0.6828	9.4984	2.2681	0.3456	-1.6485	-0.2946	-0.2991	-0.3302	-0.4863	0.054
-2.2027	-0.6017	9.3438	0.2167	0.1793	-0.1427	1.2961	0.5973	-1.3988	0.7552	0.8507	9.7565	-0.0893	0.2138	0.0764	-0.5696	-0.9494	-0.6616	9.501	1.9773	0.4588	-1.8307	-0.0131	-0.3752	-0.3302	-0.4803	0.06
-1.973	-0.8909	9.1752	0.2468	0.0304	-0.2734	1.2601	0.5963	-1.3776	1.2165	0.2147	9.5899	-0.0919	-0.0337	0.0914	-0.6232	-0.9506	-0.7054	9.4946	2.6752	0.1757	-2.0424	0.0453	-0.2167	-0.3302	-0.4863	0.048
-2.0243	-0.8323	9.5192	0.2139	-0.0424	-0.0316	1.2968	0.6205	-1.3772	1.2283	-0.0154	10.2278	-0.0289	-0.0086	0.1859	-0.5533	-0.995	-0.6821	9.4397	2.21	0.3444	-2.5312	0.0553	-0.3967	-0.3362	-0.4803	0.048
-1.6103	-0.8899	9.8722	0.1879	0.25	-0.3235	1.2783	0.6447	-1.4004	1.1092	0.8507	10.1108	0.2809	0.0447	0.25	-0.552	-0.9489	-0.6612	9.911	2.2096	0.4103	-2.7153	-0.1258	-0.4661	-0.3182	-0.4863	0.042
-1.9038	-0.659	9.752	0.3098	0.2455	-0.2615	1.2613	0.619	-1.3337	0.7528	0.2731	9.5817	0.2183	0.0826	0.1286	-0.5542	-1.018	-0.7032	9.9723	1.9187	0.5246	-2.8693	-0.1176	-0.6797	-0.3362	-0.4683	0.048
-1.9665	-0.6594	9.5208	0.3092	0.2706	-0.1372	1.2972	0.6199	-1.355	1.0466	0.3885	9.8191	0.1889	0.2061	0.1367	-0.6063	-0.9495	-0.7477	9.3342	2.4445	0.9693	-3.0226	-0.3943	-0.662	-0.3362	-0.4863	0.042
-2.2594	-0.7168	9.3999	0.308	0.0884	-0.2084	1.2609	0.6915	-1.3798	1.1016	0.2727	9.6459	0.1573	0.1128	0.1619	-0.6062	-0.9966	-0.6832	9.2079	2.2106	0.5108	-3.1464	-0.5422	-0.8225	-0.3482	-0.4803	0.054
-2.0313	-0.1988	9.2332	0.0309	-0.0372	-0.094	1.2431	0.6907	-1.3581	0.4627	0.5621	9.5768	0.1574	0.2096	0.075	-0.5697	-0.9729	-0.64	9.318	1.9185	0.1135	-3.1782	-0.7871	-0.8657	-0.3182	-0.4683	0.048
-2.1386	-0.0822	9.6912	0.0632	0.1195	-0.1469	1.2602	0.6683	-1.4015	1.3342	0.4457	9.7084	-0.0264	0.2067	0.1999	-0.5879	-0.9495	-0.7046	9.6786	1.8026	0.5187	-3.0856	-0.9804	-0.6305	-0.3242	-0.4863	0.042
-1.9672	-0.3135	9.5216	0.187	0.1854	-0.2655	1.2244	0.6911	-1.3808	0.7525	0.504	9.582	-0.1187	0.3695	0.0556	-0.5536	-0.9714	-0.725	9.392	2.2696	0.913	-3.515	-1.2468	-0.8561	-0.3302	-0.4863	0.036
-1.6772	-0.5449	9.4693	-0.0596	0.0888	-0.1186	1.3327	0.6214	-1.3984	0.6369	0.3309	9.5797	0.2174	-0.108	0.2404	-0.5718	-1.0185	-0.7036	9.5007	2.2102	0.4594	-3.6366	-1.3718	-0.7694	-0.3302	-0.4863	0.042
-2.0297	-1.0059	9.2313	0.0936	0.1177	-0.116	1.2969	0.5724	-1.3538	0.9309	0.2154	9.8168	0.4622	-0.103	0.0533	-0.5889	-0.9959	-0.7042	9.6228	2.0942	0.6892	-3.6961	-1.2829	-0.6412	-0.3302	-0.4863	0.072
-1.5497	-0.3707	10.0471	0.0336	0.1845	-0.2051	1.2423	0.6437	-1.3792	0.6955	0.6196	9.6391	0.4649	0.0139	0.1851	-0.5882	-0.9963	-0.6615	9.8567	2.2102	0.637	-3.9701	-1.5317	-0.4982	-0.3302	-0.4623	0.06
-2.0868	-0.3714	9.3467	-0.0267	0.2778	-0.2005	1.2599	0.6207	-1.4003	0.8123	0.735	9.6993	0.4337	-0.0163	0.1833	-0.6264	-1.066	-0.7469	9.7422	2.5018	0.8064	-3.8764	-1.3538	-0.3052	-0.3182	-0.4803	0.054
-1.6786	-0.4297	9.4121	0.1254	0.1833	-0.2045	1.3145	0.6212	-1.3989	1.1592	0.5613	9.6474	0.4639	-0.0461	0.1501	-0.5878	-0.9261	-0.7262	9.5592	2.443	0.4611	-3.5406	-0.9526	-0.4101	-0.3182	-0.4683	0.066
-1.9727	-1.0062	9.1749	0.1537	0.0229	-0.09	1.2601	0.5963	-1.3776	1.1553	0.3301	9.415	0.4643	0.0492	0.0942	-0.5883	-0.9492	-0.726	9.7992	2.094	0.6926	-3.4174	-0.8335	-0.3127	-0.3182	-0.4863	0.048
-2.0274	-0.429	9.4052	-0.0274	0.0985	-0.333	1.3149	0.6688	-1.4	0.9939	0.3889	10.1081	0.2777	-0.1352	0.1452	-0.5708	-0.9721	-0.7041	9.2711	2.3276	0.74	-2.9002	-0.6791	-0.4626	-0.3362	-0.4683	0.048
-1.9116	-0.7753	9.3492	0.0324	0.1185	-0.1164	1.2426	0.6194	-1.3564	0.3531	0.5627	9.9228	-0.0905	0.0892	0.0994	-0.6056	-0.95	-0.705	9.4507	2.386	0.9144	-2.7767	-0.5302	-0.3329	-0.3242	-0.4743	0.048
-1.7859	-0.3131	9.8701	0.2141	0.0458	0.0653	1.2415	0.6686	-1.4241	0.5774	0.7351	9.5211	0.0354	0.2379	0.1706	-0.6238	-0.9266	-0.7697	9.6214	2.3851	0.633	-2.2574	-0.3529	-0.2357	-0.3122	-0.4683	0.048
-1.7328	-0.6598	9.5829	-0.0599	0.0286	-0.1525	1.2601	0.5963	-1.3776	0.8136	0.5619	9.7571	0.0638	0.1512	0.0406	-0.6067	-0.9493	-0.7691	9.3232	2.2684	0.3992	-2.0172	-0.4355	-0.6109	-0.3362	-0.4683	0.036
-1.2693	-1.0069	9.4763	0.0926	0.0237	-0.0903	1.3145	0.6212	-1.3989	0.8141	0.1	9.7565	0.5258	0.1465	-0.0239	-0.5713	-0.9953	-0.7038	9.9171	2.7343	0.7533	-1.6211	-0.4706	-0.5852	-0.3302	-0.4983	0.054
-2.0267	-0.7749	9.4044	0.1226	-0.0384	-0.0935	1.2781	0.6209	-1.3998	0.8102	0.7349	9.5833	0.4039	0.0442	0.2184	-0.5866	-0.9034	-0.6838	9.5676	1.9782	0.8587	-1.2584	-0.6196	-0.8419	-0.3242	-0.4743	0.048
-2.0769	-0.1395	9.8648	0.1238	0.1732	0.0101	1.2785	0.6203	-1.3777	0.936	0.3312	10.107	0.3146	0.2579	0.2948	-0.6239	-0.9501	-0.7481	9.9163	2.4431	0.6957	-0.9542	-0.652	-0.8768	-0.3182	-0.4923	0.054
-1.7381	-0.3144	9.3537	0.0303	0.0173	0.0626	1.3166	0.6428	-1.3107	0.6948	0.3309	9.5807	0.2214	0.198	0.2913	-0.624	-0.9735	-0.7265	9.8588	2.3269	0.7512	-0.8915	-0.3776	-0.8016	-0.3302	-0.4803	0.048
-2.0797	-1.0625	9.6325	0.0957	0.3351	-0.1351	1.2586	0.5743	-1.4436	0.9342	0.1001	9.9907	0.283	0.1647	0.3199	-0.5531	-0.9482	-0.7253	9.7401	2.3269	0.692	-0.7372	-0.3867	-0.5573	-0.3362	-0.4863	0.06
-1.8546	-0.7755	9.2928	0.033	0.1802	-0.1131	1.3156	0.6439	-1.3551	1.1571	0.5612	9.5313	0.1612	0.3865	0.2418	-0.6055	-0.9971	-0.6405	9.6269	2.444	0.9179	-0.6166	-0.4146	-0.6827	-0.3242	-0.4743	0.06
-1.9664	-0.7171	9.5207	-0.0899	0.2362	0.0428	1.2963	0.6211	-1.3994	1.1044	0.5616	9.8204	0.0333	0.1502	0.0717	-0.5526	-0.9955	-0.6394	9.6237	2.3272	0.7468	-0.6479	-0.3171	-0.8312	-0.3182	-0.4923	0.054
-2.0225	-0.6014	9.6348	-0.1193	0.2733	-0.0783	1.3145	0.6212	-1.3989	0.8687	0.3306	9.5838	-0.027	0.2097	0.138	-0.5721	-0.9948	-0.7465	9.4397	2.21	0.3444	-0.5543	-0.6393	-0.4182	-0.3302	-0.4743	0.054
-2.024	-0.4286	9.5777	-0.0294	0.0855	-0.0571	1.3148	0.5969	-1.3761	1.5645	0.0411	9.596	0.0624	0.0605	0.0036	-0.5353	-0.9242	-0.7465	9.4432	2.094	0.515	-0.4943	-0.9495	-0.3733	-0.3302	-0.4863	0.066
-1.9686	-0.775	9.4055	-0.0603	0.0551	-0.0589	1.3152	0.6444	-1.3773	0.8715	0.5618	9.7582	0.219	0.1441	0.1326	-0.5904	-0.9949	-0.7896	9.5027	2.3851	0.5738	-0.7644	-0.8062	0.0361	-0.3182	-0.4923	0.048
-1.8512	-0.7751	9.4653	0.0937	0.1765	-0.0514	1.3144	0.6694	-1.4222	1.1055	0.4462	9.8782	0.0332	0.0534	0.1586	-0.6069	-0.9961	-0.7259	9.5639	2.2689	0.6885	-0.7942	-0.4952	-0.0398	-0.3362	-0.4863	0.048
-2.1403	-0.4284	9.5754	0.0625	0.202	0.0727	1.2972	0.6199	-1.355	0.6397	0.5621	9.754	0.2206	0.3638	0.0537	-0.5531	-0.9482	-0.7253	9.5596	2.0937	0.4602	-0.6383	-0.1977	0.2512	-0.3302	-0.4803	0.042
-1.7898	-0.6595	9.6393	0.0317	0.2009	0.1032	1.3159	0.6195	-1.3323	0.761	0.3891	10.0459	0.0056	0.3306	0.1767	-0.6069	-0.9961	-0.7259	9.5039	2.327	0.6306	-0.394	0.0166	0.2296	-0.3302	-0.4743	0.06
-1.8561	-0.6027	9.2357	0.0941	0.1794	-0.1127	1.2963	0.6211	-1.3994	0.8736	0.562	9.8742	0.0652	0.1774	0.1354	-0.624	-0.9735	-0.7265	9.3286	2.3856	0.6843	-0.4825	0.1942	0.4855	-0.3062	-0.4803	0.048
-1.62	-0.6604	9.4127	0.1547	0.2037	0.0119	1.2604	0.572	-1.3548	0.6471	0.5049	10.16	-0.0246	0.2959	0.2677	-0.5715	-1.0187	-0.6822	9.2035	2.2101	0.2829	-0.3306	0.1631	0.4519	-0.3302	-0.4743	0.054
-1.8552	-0.4873	9.2935	0.2174	0.2424	-0.17	1.2958	0.6216	-1.4216	1.1642	0.7349	9.9377	0.0349	0.1103	0.2554	-0.5883	-0.9492	-0.726	9.391	2.2113	0.8559	-0.3911	0.1934	0.4847	-0.3242	-0.4923	0.06
-1.5532	-0.3712	9.8746	0.3397	0.2408	-0.1693	1.2785	0.6203	-1.3777	0.9922	0.9085	10.0508	0.0344	0.2424	0.0777	-0.6238	-0.9972	-0.6836	9.1487	2.6182	0.5106	-0.2094	0.1958	0.3604	-0.3302	-0.4923	0.048
-2.1486	-0.314	9.1731	0.0313	-0.0343	-0.1553	1.297	0.5961	-1.3544	0.9924	0.7353	10.0506	0.2479	0.1204	-0.0243	-0.6059	-0.9498	-0.7264	9.558	2.5592	0.4044	-0.0864	-0.0603	0.6228	-0.3302	-0.4803	0.048
-1.9027	-0.6012	9.8096	0.0609	-0.0125	0.0305	1.3153	0.6682	-1.3779	1.0384	0.2724	9.3548	0.3116	0.207	0.0741	-0.5691	-0.9263	-0.6618	9.5625	2.5016	0.6321	-0.0566	-0.2769	0.642	-0.3182	-0.4803	0.054
-1.913	-0.6601	9.2919	0.2767	0.1419	-0.0214	1.3154	0.6201	-1.3545	0.6962	0.8507	9.6974	0.1559	0.0544	0.096	-0.5866	-0.9034	-0.6838	9.7407	2.7927	0.7501	0.1872	-0.53	0.7806	-0.3122	-0.4923	0.036
-1.9658	-0.4287	9.5789	-0.0297	0.0547	-0.0587	1.3159	0.6195	-1.3323	0.9316	0.5042	9.8752	-0.1808	0.3075	0.0829	-0.5701	-0.9726	-0.6614	9.5636	2.5017	0.6891	0.1245	-0.742	0.6779	-0.3182	-0.4863	0.048
-2.2052	-0.4867	9.2291	-0.0911	0.0246	-0.0607	1.2599	0.6207	-1.4003	0.761	0.3891	10.0459	-0.117	0.4265	0.1525	-0.5884	-0.9727	-0.7044	9.451	2.0949	0.9137	0.3694	-0.999	0.9392	-0.3062	-0.4743	0.048
-2.0793	-0.6588	9.691	-0.0909	0.0555	-0.0591	1.3145	0.6212	-1.3989	0.9942	0.1002	10.1077	0.0973	0.1708	0.2591	-0.5705	-0.9724	-0.6827	9.8502	2.0347	0.2948	0.797	-0.7257	0.95	-0.3422	-0.4863	0.054
-1.9667	-0.5441	9.5211	0.0012	0.1146	-0.0246	1.3152	0.6444	-1.3773	0.9896	0.5041	9.8762	0.0379	0.3886	0.2424	-0.5867	-0.9268	-0.6622	9.2688	2.3273	0.6261	0.762	-0.802	0.4543	-0.3242	-0.4743	0.048
-1.6819	-0.4878	9.2395	0.0614	0.0492	0.0338	1.2963	0.6211	-1.3994	0.8208	0.6202	10.1633	-0.1202	0.2143	0.0766	-0.6228	-0.9508	-0.684	9.2171	1.9789	0.966	0.7963	-0.1283	0.5813	-0.3242	-0.4803	0.054
-1.7354	-0.4871	9.4683	0.0611	-0.0111	-0.0002	1.2597	0.6688	-1.4237	0.8749	0.3311	9.9319	-0.1181	0.302	0.1754	-0.6061	-0.9732	-0.7048	9.385	1.5701	0.5126	0.8894	0.2084	0.6288	-0.3362	-0.4743	0.054
-1.9656	-0.544	9.5786	0.2484	0.3317	-0.1036	1.3332	0.6208	-1.3762	1.2728	0.7342	9.5336	-0.1777	0.3907	0.2746	-0.624	-0.9735	-0.7265	9.4461	2.4436	0.6867	0.8902	0.6124	0.5268	-0.3242	-0.4803	0.048
-1.9682	-0.3713	9.464	0.0925	0.0811	0.0049	1.2959	0.6935	-1.4455	0.9916	0.562	9.9923	-0.1781	0.3277	0.3016	-0.6409	-0.9745	-0.6842	9.0329	2.0363	0.564	0.9815	1.0185	0.3319	-0.3242	-0.4743	0.042
-2.0904	-0.3141	9.1743	0.2135	-0.0453	0.0297	1.3152	0.6444	-1.3773	0.8733	-0.0732	9.8154	-0.3031	0.3696	0.1186	-0.5525	-0.9721	-0.661	9.5584	2.1518	0.4034	0.8911	1.0471	0.4264	-0.3302	-0.4863	0.042
-1.9036	-0.7167	9.7518	0.0304	-0.0401	-0.0327	1.2599	0.6926	-1.4242	1.0467	0.3307	9.819	-0.3658	0.3429	0.055	-0.5694	-0.9731	-0.6187	9.5083	2.444	0.8587	0.7689	1.0184	0.3952	-0.3182	-0.4803	0.042
-1.6711	-0.7171	9.7565	-0.0306	0.0489	0.0639	1.2778	0.6452	-1.4226	0.6363	-0.0733	9.5211	-0.3973	0.3142	0.0222	-0.5525	-0.9721	-0.661	9.2625	1.9772	0.2835	0.8258	0.5949	0.1267	-0.3422	-0.4743	0.06
-1.7321	-0.429	9.641	-0.213	0.0291	-0.1228	1.2594	0.6213	-1.4225	0.7595	0.7932	9.9884	-0.489	0.474	-0.0601	-0.6074	-1.0193	-0.7257	9.3872	2.5601	0.6859	0.822	0.1403	-0.1122	-0.3182	-0.4683	0.072
-2.0795	-0.6011	9.6912	0	0.0485	0.0641	1.2429	0.6669	-1.3575	1.218	0.7345	9.7066	-0.3976	0.3157	-0.0087	-0.4809	-0.9002	-0.6816	9.3254	2.3269	0.5133	0.8214	-0.1079	-0.0636	-0.3302	-0.4803	0.042
-1.9023	-0.8318	9.8091	0.0937	0.1765	-0.0514	1.2789	0.6679	-1.3788	0.9853	0.5615	9.6442	-0.4287	0.3823	-0.0974	-0.5691	-0.9263	-0.6618	9.3233	2.152	0.3989	0.8808	-0.4469	-0.0817	-0.3362	-0.4803	0.036
-1.3304	-0.6611	9.361	-0.0313	0.0152	0.1236	1.2597	0.5969	-1.3997	1.1622	0.677	9.8216	-0.5794	0.5955	0.0103	-0.5883	-0.9492	-0.726	9.9178	2.094	0.7518	0.8224	-0.1743	0.0867	-0.3122	-0.4923	0.048
-2.0328	-0.6026	9.1173	0.0928	0.0546	-0.0887	1.2783	0.6447	-1.4004	0.8684	0.5616	9.5841	-0.151	0.247	0.0478	-0.6073	-0.9959	-0.7473	9.6222	2.6763	0.6906	0.9147	-0.3041	0.2637	-0.3242	-0.4803	0.054
-1.8498	-0.8903	9.5226	0.1544	0.1728	0.0102	1.2771	0.622	-1.4442	0.7577	0.5621	9.8721	0.0347	0.2409	0.1087	-0.6054	-0.9266	-0.7266	9.6741	1.8603	0.291	0.8845	-0.3048	0.2947	-0.3482	-0.4863	0.066
-2.2024	-0.1404	9.4024	-0.1214	0.0853	-0.027	1.2782	0.5727	-1.3765	0.8144	0.7352	9.8154	0.0334	0.1825	0.0428	-0.5889	-0.9959	-0.7042	9.6194	2.2102	0.5186	0.9761	-0.1498	0.2405	-0.3422	-0.4683	0.06
-1.9754	-0.2568	9.1192	0.0311	0.1098	0.0676	1.2597	0.6688	-1.4237	0.8717	0.3886	9.758	-0.0248	0.3942	0.1499	-0.6261	-1.0191	-0.7901	9.3352	2.5028	1.0264	1.0992	0.0944	0.2829	-0.3242	-0.4803	0.048
-2.2546	-0.2549	9.6885	-0.0284	0.1795	-0.0828	1.2784	0.6684	-1.401	1.1035	0.3883	9.7621	-0.211	0.305	0.145	-0.5871	-0.9265	-0.6835	9.3851	2.4434	0.5717	1.1305	0.0912	0.3747	-0.3302	-0.4803	0.06
-1.6767	-0.7755	9.4688	-0.0302	0.0224	-0.0297	1.2608	0.6196	-1.3559	0.8116	0.4463	9.641	-0.2127	0.2158	0.0771	-0.5351	-0.9479	-0.7035	9.098	2.4446	0.9079	1.1613	0.1207	0.4068	-0.3182	-0.4683	0.03
-2.2049	-0.6597	9.2287	0.0028	0.154	-0.2069	1.3152	0.6444	-1.3773	0.9864	0.5616	9.7022	-0.1182	0.4325	0.0287	-0.5893	-0.9956	-0.7255	9.6802	2.3268	0.6339	1.101	0.3068	0.3862	-0.3242	-0.4803	0.042
-1.7924	-0.4868	9.5247	0.1854	0.1753	-0.0509	1.2967	0.6686	-1.4005	0.5207	0.562	9.5779	-0.304	0.3741	0.0257	-0.6219	-0.9279	-0.6629	9.8576	2.4432	0.6945	1.0726	0.5493	0.522	-0.3122	-0.4863	0.036
-1.975	-0.4298	9.1188	0.1846	0.0828	-0.0558	1.2777	0.5733	-1.3987	0.9926	0.5621	10.0503	-0.1493	0.304	0.1446	-0.5872	-0.95	-0.662	9.8647	2.0948	1.0355	0.8574	0.2771	0.4174	-0.3362	-0.4803	0.042
-1.6142	-0.6597	9.7002	0.124	0.1159	-0.0852	1.3141	0.5737	-1.3978	0.6956	0.5619	9.639	-0.3041	0.3096	0.0836	-0.6073	-0.9959	-0.7473	9.149	2.3853	0.5101	0.5825	-0.0928	0.4926	-0.3242	-0.4683	0.036
-1.6745	-0.7175	9.5839	-0.0294	0.0855	-0.0571	1.3153	0.6682	-1.3779	1.0467	0.3307	9.819	0.033	0.1517	0.0408	-0.587	-0.9737	-0.619	9.5058	2.6766	0.7454	0.2478	-0.0601	0.5278	-0.3362	-0.4743	0.066
-2.0328	-0.026	9.1761	-0.1208	0.0602	-0.1512	1.278	0.549	-1.3759	0.8653	0.5036	9.41	0.0992	0.3568	0.2401	-0.6224	-0.951	-0.6627	9.6877	2.6189	1.0334	0.1573	-0.1566	0.6773	-0.3122	-0.4683	0.048
-1.9667	-0.5441	9.5211	-0.0903	0.1466	-0.0235	1.2593	0.6694	-1.4459	0.9253	0.5615	9.5272	0.0333	0.1502	0.0717	-0.6053	-0.9737	-0.6621	8.9143	2.0363	0.5048	0.2489	-0.4085	0.8172	-0.3362	-0.4983	0.048
-1.793	-0.7752	9.4665	-0.029	0.2046	0.0415	1.2788	0.596	-1.3549	0.8674	0.5038	9.5261	0.0362	0.3316	0.1456	-0.6242	-0.9969	-0.7049	9.9685	2.384	0.3548	0.4614	-0.5641	0.8074	-0.3362	-0.4983	0.048
-1.5632	-0.5454	9.3566	-0.1217	0.0544	-0.0286	1.241	0.5973	-1.4224	0.8654	0.4459	9.41	-0.0272	0.2757	0.0491	-0.6218	-0.9044	-0.6845	9.6242	1.9197	0.7458	0.5828	-0.5949	0.774	-0.3362	-0.4683	0.054
-1.6144	0.0322	9.7594	0.0325	0.1479	-0.0841	1.2592	0.5975	-1.4219	0.9935	0.6776	10.1085	-0.0586	0.1487	0.1341	-0.6061	-0.9732	-0.7048	9.6825	2.3271	0.7479	0.554	-0.5698	0.9601	-0.3302	-0.4683	0.06
-1.5029	-0.4875	9.4729	0.0641	0.2415	-0.1096	1.2963	0.6211	-1.3994	0.9854	0.5038	9.6442	-0.3066	0.1589	0.0117	-0.5892	-0.9722	-0.7471	9.7477	2.5607	1.0914	0.6433	-0.6252	0.7412	-0.3302	-0.4803	0.048
-2.1483	-0.4293	9.1729	-0.0904	0.0878	-0.0881	1.2599	0.6207	-1.4003	0.815	0.2733	9.8148	-0.0628	0.1039	-0.2103	-0.5708	-0.9721	-0.7041	9.4494	2.5023	0.8578	0.3098	-0.3465	0.7892	-0.3362	-0.4743	0.066
-1.9596	-0.6586	9.8658	0.0623	0.0549	-0.0889	1.2599	0.6207	-1.4003	1.0444	0.5038	9.7032	-0.1825	0.1861	0.044	-0.6226	-0.9745	-0.6411	9.6293	2.3279	1.0316	0.343	-0.1382	1.015	-0.3362	-0.4743	0.054
-2.2595	-0.6591	9.4	-0.2122	0.0922	-0.1501	1.2968	0.6205	-1.3772	0.8728	0.3309	9.8159	-0.2121	0.3756	-0.0367	-0.6047	-0.9271	-0.6839	9.2679	2.1525	0.5687	0.0092	0.079	1.0597	-0.3362	-0.4923	0.066
-1.7919	-0.7751	9.524	-0.1485	0.3411	-0.1978	1.2597	0.5969	-1.3997	0.9338	0.4466	9.9911	-0.3961	0.2436	0.2039	-0.571	-0.9956	-0.6825	9.496	2.4425	0.2321	-0.2647	0.3622	0.9537	-0.3482	-0.4803	0.042
-1.9032	-0.3706	9.8102	-0.0298	-0.0041	-0.1234	1.2968	0.6205	-1.3772	0.9867	0.3306	9.702	-0.0591	0.2485	-0.0146	-0.5862	-0.9036	-0.6624	8.9726	2.4437	0.5069	-0.7504	0.4855	1.0871	-0.3182	-0.4923	0.066
-2.0838	-0.717	9.4609	-0.0913	0.0526	0.0022	1.334	0.6678	-1.3552	1.0446	0.3306	9.703	0.0024	0.1184	0.1008	-0.5715	-1.0187	-0.6822	9.5628	2.2687	0.6316	-1.0573	0.3093	0.8959	-0.3242	-0.4683	0.06
-1.6797	-0.4298	9.3546	0.032	0.1156	-0.0551	1.241	0.5973	-1.4224	1.0461	0.7926	9.8196	-0.2439	0.2179	0.0463	-0.5542	-1.018	-0.7032	9.4418	2.3267	0.4586	-0.844	0.2758	0.9232	-0.3242	-0.4803	0.048
-1.973	-0.3142	9.2341	0.0635	0.0048	-0.3374	1.2952	0.5984	-1.4432	0.6407	0.5622	9.812	-0.0567	0.3347	0.1152	-0.5881	-0.9729	-0.6831	9.4985	2.2099	0.3455	-0.8429	0.2401	1.0751	-0.3242	-0.4863	0.024
-2.4366	-0.4861	9.282	0.0642	0.1841	-0.2049	1.3332	0.6208	-1.3762	1.1044	0.5616	9.8204	-0.1829	0.1553	0.042	-0.5712	-0.9719	-0.7254	9.5049	2.4436	0.6878	-0.6604	0.302	1.0153	-0.3242	-0.4743	0.06
-1.8505	-0.5444	9.5234	0.093	0.1722	0.0406	1.2968	0.6205	-1.3772	0.9326	0.562	9.9333	-0.3055	0.2834	-0.0112	-0.6064	-0.973	-0.7261	9.7345	2.3262	0.4072	-0.3563	-0.0429	1.1179	-0.3242	-0.4803	0.042
-1.8517	-0.4869	9.466	0.1234	0.0248	-0.1208	1.2795	0.6192	-1.3333	0.9287	0.3307	9.7009	-0.3966	0.3757	0.0262	-0.5346	-0.9247	-0.7038	9.8624	2.0945	0.9216	-0.172	0.1372	1.218	-0.3182	-0.4683	0.066
-1.9652	-0.717	9.5782	-0.0283	0.2383	-0.0182	1.2784	0.6684	-1.401	1.0985	0.2725	9.4719	-0.368	0.1262	0.072	-0.6059	-0.9498	-0.7264	9.5669	2.5604	0.8601	-0.232	0.228	1.2847	-0.3182	-0.4803	0.054
-1.9597	-0.601	9.866	0.2477	0.1817	-0.2038	1.3136	0.6224	-1.4433	0.7509	0.1574	9.4655	-0.2729	0.3721	0.0565	-0.5707	-0.9487	-0.7256	9.4431	2.1522	0.5151	-0.1105	0.1972	1.2514	-0.3242	-0.4683	0.036
-2.139	-0.4859	9.6328	0.0948	0.2999	-0.0448	1.2969	0.5724	-1.3538	1.331	0.5609	9.5345	-0.2112	0.3388	0.0851	-0.6048	-0.9505	-0.6623	9.6179	2.5593	0.4625	-0.1422	0.1081	1.1547	-0.3302	-0.4803	0.048
-2.0768	-0.7738	9.8058	0.096	0.2497	-0.2934	1.2785	0.6203	-1.3777	1.0437	1.0235	9.7039	-0.15	0.2425	0.1407	-0.5886	-0.9961	-0.6828	9.6216	2.2105	0.6325	0.1931	0.0418	1.21	-0.3302	-0.4743	0.042
-1.9649	-0.3133	9.6366	0.002	0.1777	-0.0519	1.278	0.669	-1.4232	0.9321	0.9662	9.9338	-0.1823	0.12	0.1328	-0.6254	-1.0196	-0.7474	9.5584	2.21	0.4036	0.4027	-0.0087	0.806	-0.3362	-0.4623	0.06
-1.8592	-0.1994	9.1217	-0.0602	0.0845	-0.0266	1.2787	0.6441	-1.3782	0.8711	0.8505	9.7586	-0.1204	0.248	0.0167	-0.5374	-1.0404	-0.724	9.5022	1.861	0.5155	0.25	0.0253	0.7475	-0.3362	-0.4803	0.042
-1.8509	-0.8904	9.4651	-0.1512	0.1782	-0.0222	1.2965	0.6448	-1.3999	0.8154	0.7353	9.8734	-0.428	0.2164	0.1402	-0.6232	-0.9506	-0.7054	9.5608	1.9774	0.5169	0.2785	-0.1239	0.5858	-0.3302	-0.4683	0.054
-1.6118	-0.7171	9.8151	-0.3987	-0.0124	0.1504	1.3336	0.6684	-1.3774	0.759	0.3312	9.9298	-0.2739	0.3444	-0.0074	-0.5862	-0.9036	-0.6624	9.3923	2.0368	0.9125	0.5202	-0.2124	0.3947	-0.3422	-0.4683	0.048
-2.1452	-0.8326	9.2869	-0.3688	-0.0465	0.2103	1.2612	0.6671	-1.3571	1.0408	0.9077	9.5297	-0.3039	0.2758	0.1435	-0.5707	-0.9487	-0.7256	9.6797	1.8028	0.5757	0.7968	-0.0052	0.5877	-0.3362	-0.4683	0.066
-2.0227	-1.0627	9.5762	-0.2734	0.2092	0.0094	1.2972	0.6199	-1.355	1.1035	0.3883	9.7621	-0.2445	0.2531	-0.0445	-0.6061	-0.9732	-0.7048	9.3299	2.2693	0.741	0.8581	0.0866	0.592	-0.3242	-0.4623	0.048
-1.9672	-0.8902	9.4628	-0.215	-0.0133	0.1208	1.2787	0.6441	-1.3782	0.8125	0.5618	9.6991	-0.2421	0.3393	0.0853	-0.6413	-0.9743	-0.7055	9.6814	2.2688	0.6908	0.8593	0.1134	0.7163	-0.3362	-0.4863	0.036
-1.9616	-0.8318	9.7504	-0.1531	0.0785	0.1262	1.3323	0.622	-1.4206	1.1075	0.5618	9.9944	-0.2121	0.2128	0.139	-0.5696	-0.9494	-0.6616	9.7958	2.1518	0.5218	0.7997	0.2966	0.7879	-0.3242	-0.4803	0.036
-2.0182	-0.4279	9.8652	0.0617	-0.0068	-0.0922	1.3324	0.6458	-1.4212	0.9866	0.3884	9.702	-0.0874	0.2047	0.2621	-0.5713	-0.9953	-0.7038	9.5039	2.327	0.6306	0.7098	0.4483	0.8887	-0.3362	-0.4863	0.06
-1.9176	-0.6607	9.0619	-0.0604	0.0831	0.0041	1.2784	0.6684	-1.401	0.6382	0.1001	9.6374	-0.0893	0.2138	0.0764	-0.6059	-0.9498	-0.7264	9.5616	2.3268	0.5747	0.6459	0.1162	0.6875	-0.3062	-0.4683	0.048
-1.9656	-0.544	9.5786	-0.0599	-0.0009	-0.1848	1.3348	0.6429	-1.3102	0.8679	0.908	9.5846	-0.1209	0.1528	0.0726	-0.5698	-0.9258	-0.7045	9.566	2.3274	0.8026	0.918	-0.035	0.5237	-0.3302	-0.4743	0.048
-1.9124	-0.3717	9.3501	-0.0592	0.1785	-0.0523	1.2781	0.6209	-1.3998	0.7627	0.678	10.1623	-0.0247	0.2636	0.2967	-0.6059	-0.9498	-0.7264	9.744	1.8616	0.8618	0.948	-0.3152	0.6011	-0.3362	-0.4863	0.042
-2.0174	-0.8315	9.8643	-0.2435	0.0589	-0.0906	1.2971	0.6681	-1.3783	1.1003	0.5036	9.5882	-0.0275	0.2772	0.0182	-0.6239	-0.9501	-0.7481	9.2611	2.2681	0.2272	1.1629	-0.2613	0.7866	-0.3242	-0.4803	0.06
-1.561	-0.4874	9.4718	-0.0279	0.2412	-0.0795	1.2803	0.6662	-1.3122	0.6898	0.1573	9.2904	-0.3038	0.3404	0.0856	-0.5887	-0.949	-0.7473	9.6869	2.3277	0.9757	1.1325	-0.4804	0.8985	-0.3242	-0.4803	0.048
-2.6645	-0.5428	9.5073	-0.3064	-0.068	-0.0056	1.3156	0.6439	-1.3551	0.8709	0.2153	9.6997	-0.0556	0.3947	0.1501	-0.551	-0.9025	-0.6617	9.3873	2.5019	0.6857	1.0102	-0.665	0.9206	-0.3182	-0.4743	0.06
-2.027	-0.6596	9.4046	-0.2745	0.1152	0.0351	1.2956	0.5978	-1.421	0.8148	0.3888	9.8149	-0.2115	0.4049	-0.0038	-0.6071	-1.0196	-0.7043	9.6182	2.21	0.4616	1.1019	-0.5734	0.9246	-0.3302	-0.4803	0.054
-1.8497	-0.3713	9.5813	-0.1224	0.0207	0.0311	1.2791	0.5716	-1.3321	0.7546	0.5619	9.6981	0.0668	0.2021	0.2612	-0.572	-1.0419	-0.682	9.3899	2.2111	0.799	1.0733	-0.7994	1.2514	-0.3242	-0.4803	0.054
-1.6816	-0.6607	9.239	-0.3061	-0.0078	0.0283	1.2607	0.6677	-1.3793	0.6976	0.6198	9.7551	-0.2421	0.3071	0.1142	-0.5705	-0.9724	-0.6827	9.5615	2.385	0.5749	1.1038	-0.6746	1.1961	-0.3362	-0.4743	0.042
-2.3171	-0.9473	9.3982	-0.0907	0.1437	0.0378	1.2784	0.5965	-1.3771	1.1003	0.4458	9.5882	-0.1507	0.181	0.1367	-0.6052	-0.9503	-0.6837	9.5054	1.9779	0.6867	1.0155	-0.3413	1.3986	-0.3362	-0.4803	0.054
-2.1368	-0.4279	9.7479	-0.1525	0.024	-0.0304	1.3164	0.619	-1.3101	0.7525	0.504	9.582	-0.0858	0.3922	0.2122	-0.5708	-0.9721	-0.7041	9.3823	1.9773	0.3996	0.8637	-0.0601	1.3223	-0.3242	-0.4683	0.054
-2.0805	-0.6589	9.6335	-0.06	0.0859	-0.0573	1.2594	0.6213	-1.4225	0.578	0.2155	9.5205	-0.213	0.2173	0.0462	-0.6047	-0.9271	-0.6839	9.7401	2.3851	0.6922	0.8348	0.1843	1.3967	-0.3242	-0.4683	0.066
-1.7279	-0.7745	9.8127	-0.1503	0.184	-0.1448	1.2603	0.6201	-1.3781	1.0399	0.7922	9.4715	-0.0252	0.3634	0.148	-0.624	-0.9735	-0.7265	9.5016	2.4432	0.5169	0.4994	0.4392	1.2282	-0.3122	-0.4863	0.066
-1.9679	-0.5443	9.4636	0.0006	0.0234	-0.0602	1.3318	0.6225	-1.4428	0.8136	0.5619	9.7571	-0.2142	0.0928	0.0691	-0.5883	-0.9492	-0.726	9.6158	2.3844	0.3481	0.5314	0.5581	1.3571	-0.3302	-0.4743	0.042
-1.5048	-0.6608	9.3575	0.0618	0.0227	-0.0599	1.3144	0.6694	-1.4222	1.2202	0.6192	9.8225	-0.1181	0.302	0.1754	-0.6232	-0.9506	-0.7054	9.4419	2.2102	0.4583	0.1361	0.4027	1.506	-0.3182	-0.4983	0.042
-2.0761	-0.5431	9.8638	0.0629	0.1755	-0.0209	1.3531	0.715	-1.3337	0.7528	0.3308	9.5818	-0.2433	0.1826	0.1372	-0.626	-1.0662	-0.7256	9.3864	2.3271	0.6283	-0.2605	0.3147	1.4739	-0.3302	-0.4683	0.066
-1.8499	-0.8326	9.5227	-0.0295	0.0561	-0.0894	1.2955	0.646	-1.4443	1.2158	0.7921	9.5907	-0.2419	0.4361	-0.0016	-0.5717	-0.9951	-0.7252	9.3854	2.2106	0.5711	-0.4148	-0.1456	1.4513	-0.3362	-0.4623	0.072
-1.798	-0.6028	9.2369	-0.2128	0.1467	0.0065	1.2776	0.6214	-1.422	0.8697	0.3307	9.6419	-0.2748	0.4135	-0.1581	-0.6237	-0.9737	-0.7052	9.3788	2.0933	0.229	-0.3835	0.1013	1.4331	-0.3302	-0.4743	0.042
-1.7426	-0.3726	9.1236	-0.1212	0.1735	0.07	1.2418	0.6443	-1.4014	0.8676	0.3306	9.5258	-0.3349	0.3747	0.0259	-0.5891	-1.0193	-0.6826	9.6147	2.3843	0.2912	-0.5049	-0.0247	1.5505	-0.3302	-0.4863	0.054
-2.0797	-0.4858	9.6914	-0.0611	-0.0669	-0.0962	1.2599	0.6207	-1.4003	0.9868	0.2152	9.7018	-0.5222	0.3561	-0.1608	-0.5885	-1.0432	-0.6183	9.6223	2.6181	0.6905	-0.7184	-0.272	1.6316	-0.3242	-0.4863	0.042
-1.8483	-0.4864	9.6385	-0.1532	-0.0098	0.0292	1.2589	0.6218	-1.4447	0.9359	0.389	10.1071	-0.399	0.2572	-0.0746	-0.5706	-0.9958	-0.6611	9.7445	2.4439	0.9202	-0.5997	-0.3237	1.2898	-0.3302	-0.4743	0.054
-1.853	-0.4293	9.4087	-0.1523	-0.004	-0.0934	1.2399	0.5746	-1.4662	1.0531	0.2157	10.167	-0.3038	0.5355	-0.119	-0.535	-0.9245	-0.7251	9.794	2.7338	0.4663	-0.297	-0.632	1.2098	-0.3182	-0.4743	0.054
-1.6223	-0.6607	9.2977	0.0312	0.0525	-0.0277	1.2601	0.5963	-1.3776	0.9861	-0.0159	9.6435	-0.0544	0.5837	0.0693	-0.5877	-0.9732	-0.6617	9.3269	1.9196	0.5693	-0.2979	-0.6598	1.1161	-0.3242	-0.4803	0.054
-1.7344	-1.0059	9.4671	-0.2146	-0.0398	0.0272	1.2965	0.6448	-1.3999	0.9862	0.6771	9.7024	-0.2449	0.1579	0.0114	-0.5891	-1.0193	-0.6826	9.5032	1.9776	0.5728	-0.1764	-1.035	1.2493	-0.3302	-0.4803	0.06
-1.789	-1.0631	9.6383	-0.244	0.0266	-0.0616	1.2592	0.5975	-1.4219	0.9947	0.5622	10.1664	-0.1502	0.3085	0.0518	-0.6238	-0.9972	-0.6836	9.6779	2.3848	0.5201	0.0352	-1.2185	1.1458	-0.3362	-0.4743	0.042
-1.6765	-0.8908	9.4685	-0.3672	0.0518	0.0926	1.2607	0.6677	-1.3793	1.1047	0.2729	9.82	0.0663	0.3019	0.1125	-0.5536	-0.9714	-0.725	9.563	2.0941	0.6311	0.3097	-1.1285	1.1482	-0.3362	-0.4683	0.048
-1.795	-0.3718	9.4099	-0.3966	0.0888	-0.0285	1.3152	0.6444	-1.3773	1.218	0.6768	9.7066	-0.0568	0.2702	0.1731	-0.5717	-0.9951	-0.7252	9.1577	2.6193	0.9664	0.4944	-0.731	1.1981	-0.3362	-0.4803	0.042
-2.0297	-1.0059	9.2313	-0.4601	-0.013	0.1808	1.314	0.6218	-1.4211	1.1032	0.6193	9.7624	-0.1505	0.3746	-0.037	-0.6037	-0.8807	-0.6844	9.5121	1.9787	1.0285	0.4043	-0.3908	1.1858	-0.3242	-0.4623	0.054
-1.8541	-0.4295	9.3511	-0.4298	-0.0443	0.1793	1.2962	0.6692	-1.4227	1.5137	0.1571	10.0012	-0.3609	0.5798	0.2567	-0.5884	-0.9727	-0.7044	9.5073	2.2692	0.8013	0.3433	-0.0767	1.0182	-0.3302	-0.4743	0.06
-2.2087	-0.4871	9.0566	-0.3342	0.1541	-0.1169	1.2965	0.6448	-1.3999	1.2223	0.5616	9.9385	-0.2714	0.4951	0.0645	-0.6056	-0.95	-0.705	9.6173	2.0935	0.4044	0.1913	0.1112	0.9677	-0.3302	-0.4683	0.054
-1.6839	-0.661	9.124	-0.3064	-0.0386	0.0267	1.2967	0.6686	-1.4005	0.9346	0.6199	10.0494	-0.4899	0.2835	0.0517	-0.6054	-0.9266	-0.7266	9.1505	1.978	0.5661	0.0998	0.3005	0.8553	-0.3302	-0.4743	0.042
-1.9643	-0.6015	9.636	-0.3658	0.0899	-0.059	1.3164	0.619	-1.3101	0.7569	0.3888	9.8139	-0.3017	0.4281	0.1845	-0.5712	-0.9719	-0.7254	9.7397	1.7446	0.6337	-0.2954	0.3635	0.9233	-0.3242	-0.4683	0.054
-2.0845	-0.3711	9.4617	-0.5498	0.0599	-0.0311	1.2607	0.6677	-1.3793	0.7495	0.446	9.4079	-0.2429	0.4084	-0.0655	-0.5721	-0.9948	-0.7465	9.981	2.1527	0.9809	-0.0541	0.1202	0.7549	-0.3302	-0.4623	0.06
-1.9605	-0.7741	9.8081	-0.2724	0.1576	-0.2085	1.2605	0.6439	-1.3787	1.0448	0.9658	9.7618	-0.5475	0.655	0.0451	-0.5878	-0.9261	-0.7262	9.6739	1.9767	0.2913	-0.1146	0.1505	0.7877	-0.3362	-0.4683	0.06
-2.3767	-0.7744	9.3399	-0.3984	-0.0683	0.0245	1.315	0.6207	-1.3767	1.0433	0.5615	9.6453	-0.2099	0.5924	-0.0537	-0.6237	-0.9737	-0.7052	9.2699	2.3274	0.6831	0.0971	-0.1273	0.7408	-0.3302	-0.4683	0.048
-1.6751	-0.4293	9.5846	-0.2437	0.0574	-0.06	1.2801	0.6424	-1.3116	0.8749	0.3311	9.9319	-0.5201	0.5083	-0.1198	-0.5703	-0.949	-0.7043	9.3827	1.628	0.3988	0.0968	-0.1888	0.7376	-0.3122	-0.4863	0.042
-2.201	-0.8322	9.4008	-0.3692	-0.1067	0.1763	1.2787	0.6441	-1.3782	1.0415	0.3304	9.529	-0.426	0.4347	0.0923	-0.5878	-0.9261	-0.7262	9.6828	2.036	0.7472	-0.0567	-0.4645	0.7245	-0.3362	-0.4863	0.048
-2.0303	-0.7177	9.232	-0.4586	-0.0323	-0.0662	1.3165	0.6909	-1.334	0.9886	0.4463	9.8181	-0.4879	0.534	-0.0251	-0.6424	-0.9735	-0.7696	9.269	2.2109	0.6258	-0.0272	-0.7427	0.7406	-0.3302	-0.4863	0.048
-1.8566	-0.3721	9.2363	-0.5805	0.1177	0.064	1.2976	0.6675	-1.3561	1.1055	0.5039	9.8783	-0.6427	0.5719	-0.1151	-0.5336	-0.8783	-0.7042	9.6826	2.2107	0.7476	-0.1481	-0.4637	0.7253	-0.3242	-0.4803	0.06
-1.8501	-0.7173	9.523	-0.4264	0.298	0.1361	1.26	0.5726	-1.377	1.1014	0.4459	9.6462	-0.2726	0.5334	-0.0883	-0.5898	-1.0188	-0.7253	9.5052	2.2107	0.6873	-0.2071	-0.3768	0.9148	-0.3242	-0.4863	0.06
-2.0279	-0.1984	9.4057	-0.2133	0.1144	0.0355	1.3142	0.6456	-1.4217	1.1581	0.5612	9.5893	-0.366	0.4412	-0.0628	-0.5527	-0.9484	-0.7039	9.7956	2.2682	0.5221	-0.3284	-0.4403	1.0047	-0.3362	-0.4743	0.042
-2.0744	-0.2545	9.9795	-0.3051	0.0568	-0.0297	1.2779	0.5971	-1.3993	0.6449	0.5625	10.0441	-0.2423	0.4376	-0.0325	-0.624	-0.9735	-0.7265	9.2126	2.0366	0.7382	-0.4175	-0.104	1.1152	-0.3122	-0.4623	0.048
-1.6763	-1.0061	9.4682	-0.151	0.1208	-0.1174	1.2599	0.6926	-1.4242	0.8144	0.7352	9.8154	-0.1494	0.2072	0.2315	-0.5707	-0.9487	-0.7256	9.3856	2.0359	0.5707	-0.6901	-0.1076	1.3017	-0.3302	-0.4683	0.042
-1.9146	-0.4296	9.235	-0.1816	0.1506	-0.0853	1.2785	0.6203	-1.3777	0.817	0.3312	9.9309	-0.2432	0.2471	0.0793	-0.5883	-0.9492	-0.726	9.6846	2.3856	0.8619	-0.5998	-0.2294	1.2332	-0.3362	-0.4743	0.048
-1.9129	-0.7178	9.2918	-0.2752	-0.0641	-0.0974	1.2963	0.6211	-1.3994	0.8127	0.4463	9.699	-0.185	0.0354	-0.0279	-0.5711	-1.019	-0.6609	9.4386	2.2098	0.2874	-0.5701	-0.3518	1.1958	-0.3362	-0.4803	0.0781
-1.9064	-0.4863	9.6374	-0.2126	0.032	-0.1841	1.314	0.6218	-1.4211	0.469	0.5048	9.9248	-0.0563	0.3977	0.0882	-0.5515	-0.9257	-0.6614	9.33	2.2111	0.7409	-0.7219	-0.5401	1.341	-0.3182	-0.4683	0.054
-1.559	-0.3142	9.5872	-0.2433	0.0603	-0.1213	1.2778	0.6452	-1.4226	1.046	0.8504	9.8197	-0.4264	0.3717	0.1193	-0.6069	-0.9961	-0.7259	9.5662	2.1527	0.8022	-0.6909	-0.6366	1.4587	-0.3302	-0.4803	0.042
-1.8555	-0.3143	9.2939	-0.3684	-0.1892	-0.0432	1.2786	0.6922	-1.4016	1.1039	0.908	9.8208	-0.3956	0.3389	0.148	-0.5724	-0.9946	-0.7679	9.852	2.4425	0.4097	-0.7837	-0.7242	1.3319	-0.3242	-0.4683	0.054
-2.0848	-0.2558	9.462	-0.2449	-0.0086	0.0287	1.3156	0.6439	-1.3551	0.8693	0.6194	9.6422	-0.2123	0.2788	0.0502	-0.641	-0.9274	-0.7487	9.5668	1.687	0.8011	-0.935	-0.57	1.3719	-0.3302	-0.4743	0.06
-1.8503	-0.602	9.5232	-0.0902	0.176	0.0088	1.3147	0.645	-1.3995	1.1602	0.5614	9.7054	-0.3341	0.4684	0.0009	-0.5698	-0.9258	-0.7045	9.6196	2.0355	0.5182	-1.1185	-0.6906	1.3364	-0.3362	-0.4623	0.054
-2.029	-0.7752	9.2894	-0.0904	0.0584	-0.1204	1.2781	0.6209	-1.3998	0.8725	0.5619	9.8162	-0.3685	0.2582	-0.1057	-0.6247	-1.0201	-0.7047	9.4491	1.8036	0.7991	-0.9958	-0.7263	1.4565	-0.3302	-0.4623	0.06
-1.5009	-0.891	9.5295	-0.0295	0.1723	0.0705	1.3157	0.5958	-1.3317	1.1042	0.6771	9.8205	-0.0868	0.3967	0.1193	-0.6057	-0.9734	-0.6834	9.86	2.2106	0.8079	-0.8747	-0.8187	1.42	-0.3362	-0.4743	0.054
-1.673	-0.8903	9.641	-0.0289	0.1178	-0.0861	1.3137	0.6461	-1.4439	1.2783	0.5037	9.8234	-0.0602	0.1563	-0.0206	-0.5539	-0.9711	-0.7464	9.6823	2.4435	0.7482	-0.8118	-0.8896	1.6925	-0.3422	-0.4563	0.06
-1.8514	-0.6598	9.4656	-0.2119	0.1819	-0.0838	1.2954	0.6222	-1.4438	0.6395	0.7353	9.7542	-0.1172	0.4602	0.0926	-0.5538	-1.0182	-0.6819	9.383	2.3849	0.4576	-0.7516	-0.8246	1.5724	-0.3542	-0.4863	0.042
-2.0326	-0.7179	9.117	-0.2141	0.0219	0.0305	1.2968	0.6205	-1.3772	0.9254	0.5037	9.5271	-0.0871	0.3982	0.0884	-0.6598	-0.9977	-0.727	9.8545	2.2099	0.5231	-0.7205	-0.671	1.5802	-0.3242	-0.4623	0.054
-1.9734	-0.6603	9.1758	-0.1223	-0.0661	-0.0965	1.3329	0.6452	-1.399	0.9276	0.3884	9.643	-0.0588	0.2147	0.0453	-0.6068	-0.9727	-0.7475	9.5008	2.0937	0.4591	-0.5096	-0.8515	1.3846	-0.3302	-0.4683	0.042
-1.8604	-0.7762	9.0053	-0.1196	0.2718	-0.0477	1.278	0.669	-1.4232	0.4629	0.4466	9.5767	-0.1199	0.1805	0.1365	-0.5877	-0.9732	-0.6617	9.3955	2.1536	1.0837	-0.3	-0.9646	1.008	-0.3302	-0.4743	0.054
-1.9054	-1.0052	9.6361	-0.0912	-0.0048	-0.0931	1.261	0.6433	-1.3565	0.8097	0.3306	9.5248	-0.0892	0.2783	0.0185	-0.5707	-0.9487	-0.7256	9.509	1.8037	0.8572	0.0669	-0.3474	0.8834	-0.3302	-0.4743	0.048
-2.3043	-1.0034	10.0306	-0.0287	0.1487	-0.0844	1.2784	0.5965	-1.3771	0.8825	0.1007	10.3377	-0.0873	0.2692	0.2042	-0.6053	-0.9737	-0.6621	10.0907	2.1516	0.5844	-0.0238	-0.4428	1.0021	-0.3242	-0.4923	0.048
-1.7961	-0.3719	9.3524	0.0311	-0.0358	-0.1247	1.2416	0.6205	-1.4008	0.7519	1.0237	9.5827	-0.0553	0.3932	0.1811	-0.5537	-0.9948	-0.7035	9.6148	2.2678	0.2909	-0.2333	-0.1739	1.3253	-0.3302	-0.4803	0.048
-1.8448	-0.486	9.8111	-0.0316	-0.0745	0.0573	1.315	0.6207	-1.3767	0.9904	0.6774	9.9345	-0.056	0.3639	0.1481	-0.5528	-0.9718	-0.6823	9.9819	2.3275	1.0383	-0.0817	0.0778	1.1219	-0.3302	-0.4683	0.048
-2.2601	-0.3709	9.4007	-0.2152	-0.0147	0.1515	1.2967	0.6686	-1.4005	1.3395	0.3883	9.9983	-0.2743	0.2491	0.0485	-0.6412	-0.9508	-0.7271	9.4455	1.9778	0.6286	-0.2956	-0.1993	1.1707	-0.3182	-0.4743	0.042
-1.9616	-0.8318	9.7504	-0.2751	-0.0053	-0.0328	1.2421	0.6199	-1.3786	0.6994	0.7932	9.8714	-0.271	0.5904	0.0086	-0.535	-0.9245	-0.7251	9.6869	2.3277	0.9757	-0.1444	-0.1649	1.0176	-0.3242	-0.4623	0.042
-2.0785	-0.4857	9.7489	-0.3692	-0.1067	0.1763	1.3342	0.6916	-1.3558	0.8128	0.3309	9.6988	-0.1536	0.1946	-0.1419	-0.57	-0.9492	-0.6829	9.7399	2.5015	0.6924	0.1598	-0.4166	1.0942	-0.3242	-0.4743	0.054
-1.8437	-0.4859	9.8686	-0.1827	-0.0022	-0.1242	1.3156	0.6439	-1.3551	0.9305	0.5618	9.8172	-0.1182	0.4325	0.0287	-0.6046	-0.9037	-0.7055	9.3772	2.5589	0.1732	-0.0254	-0.4994	0.8454	-0.3242	-0.4623	0.042
-1.9732	-0.7756	9.1755	-0.3373	-0.1279	-0.0398	1.2956	0.5978	-1.421	1.0979	0.7344	9.4725	-0.2436	0.3792	-0.0984	-0.5892	-0.9722	-0.7471	9.5604	2.3849	0.5179	0.2501	-0.601	1.0532	-0.3362	-0.4623	0.0841
-1.9088	-0.429	9.5225	-0.3694	-0.1376	0.1747	1.3325	0.5976	-1.3979	0.6991	0.2157	9.8126	-0.3957	0.5662	-0.0856	-0.5723	-1.0417	-0.7034	9.3875	2.3273	0.6853	0.7068	-0.5731	1.0201	-0.3302	-0.4623	0.066
-2.0846	-0.3134	9.4618	-0.4579	0.1176	0.0341	1.2794	0.6673	-1.3566	1.1665	0.5618	10.0535	-0.0604	0.2223	-0.1095	-0.5708	-0.9721	-0.7041	9.4464	2.2108	0.6862	0.9512	-0.5781	1.1101	-0.3302	-0.4803	0.054
-1.856	-0.6604	9.2356	-0.2771	-0.1639	0.0509	1.2777	0.5733	-1.3987	1.1036	0.3306	9.762	-0.1185	0.239	0.2024	-0.6069	-0.9961	-0.7259	9.3924	1.9204	0.9122	1.0735	-0.2367	1.0039	-0.3242	-0.4683	0.048
-2.079	-0.2551	9.7495	-0.092	0.0483	0.0942	1.2597	0.5969	-1.3997	0.4724	0.3318	10.0987	0.0022	0.1845	0.012	-0.5695	-0.926	-0.6832	9.562	1.9775	0.5739	1.2592	-0.0932	1.2866	-0.3302	-0.4683	0.06
-1.732	-1.0633	9.582	-0.2145	0.019	0.0918	1.242	0.6681	-1.4019	1.2834	0.6195	10.1136	-0.1201	0.2465	0.0476	-0.5884	-0.9727	-0.7044	9.3302	2.0364	0.7405	1.4438	0.1484	1.3899	-0.3302	-0.4803	0.054
-1.9744	-0.7757	9.118	-0.0898	0.1789	-0.0525	1.2974	0.6437	-1.3556	0.5825	0.7932	9.8113	-0.0581	0.244	0.0782	-0.5696	-0.9494	-0.6616	9.8027	1.9198	0.8631	1.4421	-0.2208	1.3707	-0.3362	-0.4563	0.048
-1.621	-0.7182	9.3551	-0.1503	0.184	-0.1448	1.3326	0.6695	-1.4218	0.4583	0.735	9.345	-0.0263	0.2712	0.142	-0.5695	-0.926	-0.6832	9.9197	2.4435	0.8666	1.6861	-0.2556	1.4284	-0.3182	-0.4743	0.048
-2.0202	-0.6011	9.7498	-0.1516	0.2047	0.0715	1.2781	0.6928	-1.4238	0.985	0.8502	9.6446	-0.0544	0.3564	0.3029	-0.5717	-0.9951	-0.7252	9.6252	1.978	0.8029	1.8073	-0.2229	1.3368	-0.3302	-0.4503	0.066
-1.6742	-0.3138	9.6424	-0.0914	0.1394	0.1298	1.2975	0.5956	-1.3322	1.3372	0.5614	9.8825	-0.0852	0.3891	0.2741	-0.6061	-0.9732	-0.7048	9.8581	1.9775	0.6934	1.8392	-0.0723	1.4367	-0.3302	-0.4683	0.06
-1.9681	-1.0056	9.405	-0.1837	-0.0667	-0.0662	1.2797	0.643	-1.3338	0.7008	0.5623	9.9291	-0.1514	0.184	0.0748	-0.5884	-0.9727	-0.7044	9.626	2.2692	0.8605	2.1758	0.3884	1.3964	-0.3362	-0.4683	0.054
-2.2036	-0.7172	9.286	-0.275	0.0241	-0.0005	1.2584	0.6224	-1.4669	0.9909	1.0816	9.993	-0.2111	0.4033	0.0272	-0.6244	-0.9732	-0.7478	9.5054	1.9779	0.6867	2.2344	0.3343	1.1471	-0.3422	-0.4683	0.054
-1.8041	-0.4306	8.9498	-0.3685	-0.1024	0.0843	1.3332	0.6208	-1.3762	0.9899	0.2731	9.8759	-0.1792	0.4951	0.033	-0.5705	-0.9724	-0.6827	9.6229	2.036	0.6891	2.0219	0.208	1.296	-0.3302	-0.4683	0.042
-1.7368	-0.9486	9.3522	-0.3387	-0.1954	0.0796	1.3139	0.598	-1.4205	0.8716	0.5041	9.7581	-0.2398	0.5883	0.0394	-0.5893	-0.9956	-0.7255	9.3182	2.7336	0.1725	2.1096	0.3153	0.8089	-0.3302	-0.4683	0.042
-2.206	-0.6598	9.1712	-0.3683	0.0152	0.2136	1.2594	0.6213	-1.4225	0.9867	0.2729	9.7019	-0.425	0.4946	0.1273	-0.5882	-0.9963	-0.6615	9.5008	2.152	0.4593	2.0475	0.3208	0.6559	-0.3242	-0.4803	0.048
-2.2527	-0.6007	9.7452	-0.2775	-0.1667	0.1122	1.3152	0.6444	-1.3773	0.8702	0.735	9.7004	-0.1814	0.3106	0.021	-0.5883	-0.9492	-0.726	9.7401	2.3269	0.692	1.9833	0.3341	0.2574	-0.3182	-0.4563	0.06
-1.6095	-0.1402	9.989	-0.308	-0.1075	0.1767	1.2589	0.6218	-1.4447	0.4641	0.2735	9.6345	-0.2701	0.5213	0.1593	-0.6417	-0.974	-0.7269	9.5052	2.1525	0.6871	1.8921	0.3339	0.2889	-0.3302	-0.4863	0.054
-1.9017	-0.5434	9.8673	-0.2145	0.0484	0.1242	1.2781	0.6209	-1.3998	0.8681	0.7926	9.5844	-0.3649	0.5335	-0.0568	-0.6239	-0.9501	-0.7481	9.6237	2.3272	0.7468	1.7675	0.2207	0.0073	-0.3422	-0.4743	0.048
-1.9724	-0.6025	9.2334	-0.2155	-0.0162	0.1822	1.2959	0.5735	-1.3982	0.8089	0.908	9.5255	-0.2111	0.4356	-0.0018	-0.5894	-1.019	-0.704	9.619	2.5012	0.5193	1.615	-0.0589	0.117	-0.3182	-0.4623	0.048
-2.0341	-1.1218	9.001	-0.1226	0.1355	0.2216	1.2599	0.6207	-1.4003	0.7544	0.6774	9.6982	-0.0265	0.3372	0.0531	-0.5878	-0.9261	-0.7262	9.2721	2.3859	0.7972	1.5809	-0.3575	-0.175	-0.3182	-0.4803	0.048
-1.2679	-0.5454	9.5924	-0.0604	0.1125	0.0364	1.2962	0.5491	-1.3755	1.1056	0.3885	9.8782	-0.3341	0.4684	0.0009	-0.6064	-0.973	-0.7261	9.8	2.327	0.7501	1.6413	-0.4186	-0.2094	-0.3302	-0.4803	0.066
-1.7937	-0.4293	9.4673	-0.1828	0.0846	0.0034	1.2959	0.5735	-1.3982	0.9243	0.5036	9.4691	-0.0273	0.2112	0.107	-0.6069	-0.9961	-0.7259	9.8016	1.9196	0.8061	1.4858	-0.8431	-0.384	-0.3302	-0.4803	0.03
-2.2097	-0.5449	8.9989	-0.0905	0.1157	-0.0251	1.3149	0.6688	-1.4	0.7001	0.2735	9.8707	-0.3927	0.3898	0.3687	-0.6056	-0.95	-0.705	9.9092	1.86	0.2955	1.2107	-1.1813	-0.3378	-0.3362	-0.4803	0.06
-1.3295	-0.5457	9.4188	-0.3357	0.0572	-0.0298	1.3337	0.6203	-1.354	1.154	0.5609	9.3573	-0.3049	0.2159	0.1086	-0.6056	-0.95	-0.705	9.4465	2.0944	0.6859	1.2111	-1.089	-0.333	-0.3242	-0.4743	0.054
-2.0229	-0.9474	9.5765	-0.2768	-0.133	0.0526	1.2784	0.5965	-1.3771	0.6945	0.5618	9.581	-0.4257	0.4332	0.1233	-0.5903	-1.042	-0.7251	9.5111	1.8622	0.9713	0.9054	-0.9564	-0.5389	-0.3302	-0.4683	0.048
-2.2622	-0.4865	9.2854	-0.2462	0.0122	0.245	1.296	0.6454	-1.4221	1.1077	0.3886	9.9942	-0.1195	0.4709	-0.1241	-0.66	-0.9741	-0.7699	9.614	2.0348	0.2333	0.8495	-0.6312	-0.091	-0.3362	-0.4563	0.042
-2.3705	-0.4276	9.6858	-0.2761	-0.0993	-0.0071	1.2781	0.6209	-1.3998	1.0455	0.4461	9.7612	-0.3952	0.4019	0.1211	-0.5884	-0.9727	-0.7044	9.5014	2.5596	0.5172	0.7914	-0.3597	0.1081	-0.3182	-0.4683	0.048
-1.7358	-0.8908	9.4099	-0.2765	0.0434	0.2464	1.3329	0.6452	-1.399	1.1086	0.5042	10.0523	-0.3334	0.4976	0.0339	-0.5358	-0.9474	-0.7462	9.3831	2.2103	0.4572	0.5474	-0.3249	0.0504	-0.3242	-0.4803	0.06
-1.8619	-0.0267	9.0071	-0.153	-0.0083	-0.0014	1.3327	0.6214	-1.3984	1.0477	0.3308	9.877	-0.3028	0.5632	-0.0551	-0.5866	-0.9034	-0.6838	9.6774	1.8607	0.4619	0.4552	0.0232	-0.2075	-0.3242	-0.4683	0.054
-1.7912	-0.5443	9.582	-0.1853	-0.1356	0.0838	1.2784	0.5965	-1.3771	0.5765	0.5618	9.4629	-0.5495	0.5673	-0.0537	-0.6038	-0.9041	-0.6628	9.4421	2.0356	0.4579	0.395	0.3026	-0.254	-0.3302	-0.4683	0.048
-1.6238	-0.4879	9.2406	-0.0593	0.1197	-0.1169	1.2971	0.6681	-1.3783	1.041	0.7345	9.5295	-0.2714	0.5274	0.0355	-0.625	-1.0199	-0.726	9.5106	2.3279	0.9724	0.3048	0.487	-0.2129	-0.3302	-0.4623	0.066
-1.5604	-0.7757	9.4711	-0.1549	-0.1081	0.1469	1.3153	0.6682	-1.3779	0.9948	0.4467	10.1662	-0.1478	0.6543	-0.081	-0.6054	-0.9266	-0.7266	9.2112	2.3275	0.682	0.2435	0.2384	-0.1331	-0.3182	-0.4803	0.054
-1.8485	-0.3711	9.6388	-0.2137	0.1115	0.0968	1.2771	0.5501	-1.4203	0.7003	0.1003	9.8705	-0.2433	0.3777	-0.0675	-0.6075	-0.9722	-0.7902	9.3856	1.9777	0.5705	0.2738	0.2074	-0.1349	-0.3302	-0.4623	0.054
-1.8507	-1.0057	9.4648	-0.0311	-0.1584	-0.1316	1.2968	0.6205	-1.3772	0.5157	0.3307	9.2875	-0.3348	0.4392	-0.032	-0.5713	-0.9953	-0.7038	9.6762	1.977	0.4052	0.5466	0.1475	-0.2633	-0.3302	-0.4743	0.066
-1.9734	-0.6603	9.1758	-0.0313	-0.101	-0.0363	1.2415	0.5967	-1.4002	0.8728	0.3309	9.8159	-0.461	0.2921	-0.1341	-0.5697	-0.9729	-0.64	9.5021	1.9775	0.5158	0.4257	0.1138	-0.1411	-0.3362	-0.4803	0.054
-1.7938	-0.3717	9.4674	-0.0285	0.0913	-0.1797	1.316	0.6914	-1.3562	0.8136	0.5619	9.7571	-0.1506	0.2455	0.0788	-0.6054	-0.9266	-0.7266	9.4445	1.9195	0.5715	0.3645	-0.0723	-0.0887	-0.3242	-0.4743	0.072
-1.9669	-0.4865	9.5212	-0.1836	-0.0079	-0.0016	1.3145	0.6212	-1.3989	1.0463	0.6194	9.8194	-0.1216	0.3509	-0.194	-0.5354	-0.9947	-0.6604	9.6169	2.3845	0.4051	0.5783	0.0798	-0.0826	-0.3242	-0.4743	0.06
-1.8522	-0.8329	9.4077	-0.1834	-0.0359	-0.0646	1.3326	0.6695	-1.4218	1.0514	-0.0732	10.0506	-0.1826	0.3489	-0.1317	-0.5173	-0.9239	-0.7248	9.8012	2.2689	0.8069	0.5784	-0.3589	0.1406	-0.3302	-0.4683	0.054
-1.8544	-0.3142	9.3514	-0.0609	0.0508	0.0331	1.3334	0.6446	-1.3768	1.5079	0.5609	9.7116	-0.1489	0.367	0.1177	-0.6056	-0.95	-0.705	9.3925	1.8622	0.9121	0.6402	-0.3316	0.2338	-0.3242	-0.4863	0.054
-2.078	-0.774	9.7482	0.0924	0.0517	-0.0274	1.2798	0.5948	-1.3105	0.9885	0.5618	9.8183	-0.2741	0.4104	-0.0962	-0.5717	-0.9951	-0.7252	9.2655	2.2686	0.4551	0.792	-0.4559	0.2261	-0.3242	-0.4743	0.054
-1.7377	-0.4874	9.3533	-0.1525	-0.0054	-0.0627	1.3137	0.5742	-1.42	1.0448	0.9658	9.7618	-0.3324	0.5576	0.0688	-0.6074	-1.0193	-0.7257	9.5084	2.3276	0.8585	0.761	-0.3912	0.1374	-0.3182	-0.4623	0.042
-1.74	-0.4876	9.2383	-0.0619	0.0156	0.1234	1.2795	0.6192	-1.3333	0.8101	0.8504	9.5835	-0.2725	0.4351	0.0295	-0.5892	-0.9722	-0.7471	9.5035	1.7448	0.5722	0.7617	-0.7068	0.367	-0.3182	-0.4743	0.048
-1.9182	-0.9491	9.0037	0.0323	0.1759	-0.0211	1.3153	0.6682	-1.3779	1.3428	0.2731	10.1722	-0.1794	0.366	0.1488	-0.6056	-0.95	-0.705	9.5117	2.328	1.0294	0.8541	-0.5864	0.434	-0.3362	-0.4623	0.06
-2.0256	-0.7748	9.4619	-0.0905	0.1157	-0.0251	1.2976	0.6675	-1.3561	1.11	0.2155	10.11	-0.0275	0.3095	-0.0108	-0.5513	-0.9023	-0.683	9.3929	2.4444	0.9704	1.0667	-0.3669	0.2592	-0.3182	-0.4623	0.066
-1.8565	-0.4298	9.2361	0.0303	0.0173	0.0626	1.2783	0.6447	-1.4004	0.9939	0.3889	10.1081	-0.1505	0.3423	-0.0081	-0.5695	-0.926	-0.6832	9.805	1.92	0.977	1.3092	-0.3333	0.1052	-0.3302	-0.4623	0.06
-2.0252	-0.3711	9.5203	0.0022	0.0629	-0.2425	1.2778	0.6452	-1.4226	0.6407	0.5622	9.812	-0.0289	0.0237	0.1569	-0.5873	-0.9029	-0.7265	9.3951	2.5611	1.0846	1.1868	-0.5804	0.1549	-0.3362	-0.4683	0.066
-1.9056	-0.8899	9.6364	-0.0903	0.1466	-0.0235	1.3148	0.5969	-1.3761	0.6419	0.5045	9.87	0.1547	-0.1024	0.1479	-0.5727	-1.0414	-0.7247	9.8085	1.7458	1.1475	1.341	-0.6828	0.425	-0.3302	-0.4803	0.048
-1.7978	-0.6605	9.2367	0.0633	0.1489	-0.1146	1.2789	0.6679	-1.3788	1.1018	0.0995	9.6457	0.2212	0.0689	0.4071	-0.5529	-0.9247	-0.7468	9.5123	1.8041	1.0281	1.2469	-1.0474	0.2838	-0.3302	-0.4803	0.054
-1.9107	-0.0832	9.4658	0.0345	0.3065	-0.1678	1.2956	0.5978	-1.421	1.0431	0.7347	9.6455	0.3716	-0.1106	0.2395	-0.6056	-0.95	-0.705	9.3321	2.3278	0.8551	1.3382	-1.2982	0.393	-0.3362	-0.4803	0.042
-2.2635	-0.429	9.2281	0.1244	0.2349	0.0134	1.2421	0.6199	-1.3786	0.7526	0.4463	9.5819	-0.0004	-0.0307	-0.002	-0.6234	-0.9974	-0.6622	9.5651	2.1526	0.7452	1.3707	-1.1813	0.5834	-0.3362	-0.4743	0.042
-1.7875	-0.6592	9.7543	0.2473	0.1789	-0.1425	1.2781	0.6209	-1.3998	0.9909	0.2732	9.9339	0.0924	-0.0661	0.0574	-0.5697	-0.9023	-0.7261	9.6725	2.2676	0.235	1.522	-1.3037	0.5143	-0.3122	-0.4563	0.054
-1.7919	-0.7751	9.524	0.1245	0.1776	-0.0819	1.2777	0.5733	-1.3987	1.1029	0.0995	9.7037	0.1853	-0.2642	0.2925	-0.5893	-0.9956	-0.7255	9.6783	2.0355	0.5193	1.0964	-0.7711	0.3609	-0.3302	-0.4743	0.066
-1.9669	-1.0631	9.4623	0.216	0.1749	-0.0507	1.3149	0.6688	-1.4	0.8106	0.4462	9.5829	0.032	-0.1034	0.2105	-0.5894	-1.019	-0.704	9.2082	1.9778	0.5102	0.7914	-0.579	0.2197	-0.3302	-0.4743	0.054
-2.1488	-0.1987	9.1734	0.2169	0.1807	-0.1733	1.2966	0.5967	-1.3766	0.8689	0.1574	9.5836	0.0006	-0.0353	0.0908	-0.5887	-0.949	-0.7473	9.3828	2.5014	0.4579	0.4871	-0.5149	0.2255	-0.3182	-0.4683	0.072
-1.7959	-0.4872	9.3522	0.1236	0.0556	-0.1192	1.2407	0.6216	-1.4452	0.5781	0.9661	9.5794	-0.1835	0.1584	-0.0199	-0.5537	-0.9948	-0.7035	9.7428	1.9779	0.8051	0.1246	-0.085	0.3738	-0.3302	-0.4743	0.048
-1.9068	-0.3134	9.6378	0.1267	0.3376	-0.1963	1.2593	0.5493	-1.3986	0.9295	0.504	9.7591	-0.0628	-0.1235	0.0233	-0.5883	-0.9492	-0.726	9.1532	1.629	0.6792	0.0329	0.0736	0.2598	-0.3242	-0.4743	0.06
-1.9117	-0.7176	9.3493	0.155	0.1478	-0.114	1.2797	0.643	-1.3338	0.6991	0.2157	9.8126	-0.1195	0.2112	0.1385	-0.5541	-0.9945	-0.7248	9.8533	2.2098	0.4661	-0.06	0.2371	-0.0077	-0.3302	-0.4803	0.048
-2.2537	-0.1395	9.7463	0.1548	0.1463	-0.0834	1.2965	0.6448	-1.3999	1.1002	0.5613	9.5883	0.0961	0.2737	0.0484	-0.5702	-0.9255	-0.7259	9.5617	2.2104	0.5745	-0.0013	0.2762	-0.2829	-0.3362	-0.4683	0.06
-1.5093	-0.719	9.1274	0.1253	0.2701	-0.0769	1.296	0.6454	-1.4221	0.4686	0.8513	9.9253	0.003	0.0831	0.1917	-0.6063	-1.0201	-0.6616	10.2637	2.151	0.4168	0.059	0.2469	-0.3464	-0.3422	-0.4563	0.042
-2.081	-0.4283	9.6341	0.2168	0.1513	-0.2057	1.3161	0.6433	-1.3329	0.8758	0.4466	9.9901	0.0329	0.0549	0.1276	-0.5877	-0.9732	-0.6617	9.4424	1.8028	0.4573	-0.1827	0.2103	-0.1003	-0.3242	-0.4743	0.066
-2.0197	-0.8317	9.7493	0.3694	0.0596	-0.271	1.2977	0.6194	-1.3328	0.9348	0.4466	10.0491	-0.0939	-0.0246	-0.0943	-0.5898	-1.0188	-0.7253	9.7404	2.094	0.6915	-0.5813	0.1927	-0.4055	-0.3122	-0.4623	0.048
-1.8443	-0.7166	9.8105	0.3735	0.465	-0.3415	1.2778	0.6452	-1.4226	0.6927	0.3885	9.4648	-0.0951	0.0137	-0.2471	-0.6238	-0.9972	-0.6836	9.5032	1.9776	0.5728	-0.4295	0.0991	-0.4116	-0.3242	-0.4803	0.054
-1.9636	-0.9474	9.6351	0.3684	0.1407	-0.0208	1.2778	0.6452	-1.4226	1.0475	0.504	9.8773	0.062	-0.0348	0.0596	-0.5702	-0.9255	-0.7259	9.6783	2.0355	0.5193	-0.1593	-0.3261	-0.6819	-0.3362	-0.4683	0.054
-2.0292	-0.7175	9.2895	0.1244	0.1187	-0.1465	1.2592	0.5975	-1.4219	1.3362	0.5036	9.8245	0.0634	0.0882	0.0675	-0.5713	-0.9953	-0.7038	9.2659	1.9776	0.4544	-0.0708	-0.5662	-0.9103	-0.3422	-0.4563	0.054
-1.8537	-0.6601	9.3506	0.0613	0.0198	0.0015	1.279	0.6197	-1.3555	1.0479	0.2153	9.8769	0.0617	-0.001	-0.0003	-0.6415	-0.9506	-0.7484	9.4429	2.3268	0.5155	0.2022	-0.7521	-0.953	-0.3242	-0.4923	0.048
-1.9084	-0.6596	9.522	-0.0899	0.2362	0.0428	1.2789	0.6679	-1.3788	0.9931	0.2156	10.0499	-0.0275	0.3095	-0.0108	-0.6239	-1.0206	-0.662	9.5064	2.0945	0.744	0.3845	-0.7834	-0.9868	-0.3302	-0.4563	0.066
-1.914	-0.7179	9.2343	0.0021	0.2659	0.045	1.2606	0.5958	-1.3554	1.162	0.7925	9.8217	0.0643	0.0514	0.1893	-0.552	-0.9489	-0.6612	10.0332	2.0354	0.6399	0.4732	-1.1495	-1.1296	-0.3422	-0.4803	0.054
-1.8005	-0.4878	9.1221	0.0319	0.173	0.0402	1.2969	0.6443	-1.3778	1.0485	0.5618	9.9353	-0.028	0.2142	0.0451	-0.5884	-0.9727	-0.7044	9.5681	2.5023	0.917	0.8104	-1.0044	-0.9403	-0.3302	-0.4503	0.066
-1.9091	-0.3136	9.5228	-0.0892	0.1244	-0.2091	1.26	0.6445	-1.4009	1.0442	0.6193	9.7034	-0.1209	0.185	0.0436	-0.6053	-0.9737	-0.6621	9.3925	1.8039	0.9119	0.9644	-0.8558	-0.8108	-0.3362	-0.4683	0.048
-1.916	-0.8911	9.1189	-0.1221	0.0516	0.0327	1.2779	0.5971	-1.3993	1.043	-0.0738	9.5864	-0.2116	0.2758	0.112	-0.6245	-0.9967	-0.7263	9.5697	2.0367	0.9728	0.8765	-0.5552	-0.5485	-0.3122	-0.4623	0.048
-2.0228	-0.4284	9.6352	-0.0288	0.0604	-0.1814	1.2957	0.5497	-1.3977	0.6385	-0.1309	9.6371	0.0326	0.121	0.0388	-0.6052	-0.9503	-0.6837	9.216	1.9788	0.909	0.6615	-0.609	-0.734	-0.3242	-0.4503	0.06
-1.849	-0.7172	9.5805	-0.1221	0.0221	0.0004	1.315	0.6926	-1.4006	0.9884	0.6195	9.8184	0.0002	-0.066	0.0888	-0.6038	-0.9041	-0.6628	9.2184	1.8626	1.0226	0.4813	-0.2104	-0.6196	-0.3302	-0.4623	0.036
-1.6722	-0.7173	9.6989	-0.0601	0.0565	-0.0896	1.2764	0.6469	-1.4892	0.8065	0.3882	9.3508	-0.1805	0.2415	0.1718	-0.5186	-1.0171	-0.6811	9.5572	2.268	0.3467	0.4818	-0.1498	-0.5857	-0.3302	-0.4623	0.054
-1.9732	-0.7756	9.1755	-0.0004	-0.0411	-0.0022	1.2599	0.6207	-1.4003	1.0484	0.6196	9.9354	-0.0593	0.1195	0.1012	-0.5879	-0.9495	-0.7046	9.7439	1.978	0.8621	0.2679	0.0425	-0.7584	-0.3362	-0.4683	0.054
-1.9633	-0.5437	9.6936	0.2466	0.0583	-0.2104	1.3327	0.6214	-1.3984	0.6956	0.5042	9.639	0.0003	-0.0015	0.0309	-0.5541	-0.9945	-0.7248	9.7948	1.977	0.4644	0.0258	0.258	-0.6838	-0.3422	-0.4743	0.054
-2.0198	-0.7741	9.7494	0.0007	0.0823	0.0044	1.2596	0.645	-1.4231	0.866	0.7924	9.4684	0.0654	0.1436	0.1953	-0.5543	-0.9709	-0.7677	9.563	2.0359	0.631	0.0265	0.5369	-0.7308	-0.3302	-0.4743	0.06
-1.7394	-0.2569	9.2964	0.1842	0.0799	0.0055	1.3163	0.6671	-1.3335	0.9874	0.5617	9.7603	-0.1828	0.2198	-0.0159	-0.5718	-1.0185	-0.7036	9.5604	2.3849	0.5179	-0.0046	0.2265	-0.6544	-0.3362	-0.4743	0.06
-1.849	-0.7172	9.5805	0.1242	0.1467	-0.0836	1.3136	0.6224	-1.4433	1.2154	0.2724	9.532	-0.2117	0.2435	0.141	-0.6064	-0.973	-0.7261	9.7401	2.3269	0.692	-0.0947	0.2223	-0.5001	-0.3182	-0.4743	0.054
-2.3196	-0.8323	9.2835	0.0943	0.2676	-0.0158	1.3152	0.6444	-1.3773	0.9931	0.1579	10.0498	0.0642	0.1819	0.0426	-0.5883	-0.9492	-0.726	9.9771	1.6282	0.7518	-0.2176	-0.0228	-0.5119	-0.3122	-0.4803	0.048
-2.0286	-0.4291	9.3477	-0.0291	0.1458	-0.0231	1.2961	0.5973	-1.3988	0.754	0.2154	9.6396	-0.089	0.18	0.1363	-0.6064	-0.973	-0.7261	9.6783	2.0355	0.5193	-0.3094	-0.4587	-0.3493	-0.3242	-0.4743	0.054
-1.9665	-1.2361	9.4619	0.0938	0.2353	0.0132	1.2958	0.6216	-1.4216	0.9284	0.5617	9.7012	-0.1192	0.242	0.1405	-0.5881	-0.9729	-0.6831	9.7339	1.9186	0.3492	-0.2183	-0.5836	-0.3258	-0.3362	-0.4803	0.054
-1.612	-0.6018	9.8154	0.2767	0.1713	0.011	1.2787	0.6441	-1.3782	0.9856	0.3306	9.6439	0.1537	0.065	-0.1207	-0.5717	-0.9951	-0.7252	9.561	1.8028	0.5165	-0.2512	-0.6678	-0.5759	-0.3422	-0.4803	0.042
-1.5603	-0.8333	9.471	0.0937	0.1765	-0.0514	1.2796	0.6911	-1.3572	0.9858	0.1574	9.6437	0.1555	0.0236	0.094	-0.5883	-0.9492	-0.726	9.8524	2.035	0.4087	0.0545	-0.706	-0.4266	-0.3242	-0.4683	0.048
-2.1377	-0.5434	9.6901	0.278	0.1211	-0.2376	1.2789	0.6679	-1.3788	0.7557	0.5042	9.756	0.308	-0.1004	0.0542	-0.5697	-0.9023	-0.7261	9.0857	2.4431	0.2812	0.2696	-0.6214	-0.2395	-0.3182	-0.4623	0.054
-1.8559	-0.718	9.2354	0.0927	-0.0337	-0.1856	1.2791	0.6917	-1.3794	0.9873	0.6194	9.7603	0.1874	0.0831	0.1287	-0.6064	-0.973	-0.7261	9.7379	2.3266	0.5781	0.4235	-0.5978	-0.055	-0.3302	-0.4743	0.042
-1.566	-0.315	9.2422	0.0335	0.3875	0.0824	1.3149	0.6688	-1.4	1.1087	0.4464	10.0523	0.0942	0.0231	0.1253	-0.5711	-1.019	-0.6609	9.5672	2.3275	0.8596	0.6375	-0.6026	0.0352	-0.3302	-0.4743	0.066
-1.97	-0.6599	9.3483	0.1238	0.1732	0.0101	1.2774	0.5977	-1.4215	1.1045	0.4461	9.8202	0.2469	-0.1347	0.1454	-0.624	-0.9735	-0.7265	9.3918	2.4443	0.9135	1.0353	-0.5195	0.2208	-0.3302	-0.4623	0.06
-1.6809	-1.0066	9.2382	0.0324	0.1185	-0.1164	1.3161	0.6433	-1.3329	0.6936	0.504	9.5229	0.0644	0.0836	0.1604	-0.5708	-0.9721	-0.7041	9.097	2.328	0.8506	1.3096	-0.4911	0.22	-0.3302	-0.4743	0.036
-1.789	-1.0631	9.6383	0.1529	0.0172	0.0326	1.3142	0.5255	-1.3744	0.9889	0.2153	9.8178	0.035	0.1749	0.1975	-0.5882	-0.9258	-0.7476	9.685	2.0945	0.8612	1.5816	-0.1411	-0.1945	-0.3302	-0.4803	0.054
-1.9187	-0.6608	9.0044	0.1867	0.3002	-0.0749	1.3331	0.669	-1.3996	1.2164	0.3302	9.5901	0.0014	-0.1366	0.2705	-0.6234	-0.9974	-0.6622	9.7334	2.3843	0.3504	1.6411	-0.1675	-0.3501	-0.3302	-0.4803	0.06
-2.2591	-0.8897	9.3995	0.0625	0.1726	0.0404	1.2619	0.6422	-1.3121	0.8712	0.7928	9.7585	-0.0289	0.0237	0.1569	-0.5882	-0.9963	-0.6615	9.7384	2.9089	0.6365	1.8556	0.0134	-0.2809	-0.3422	-0.4803	0.054
-2.0242	-0.3133	9.578	0.0952	0.2734	-0.1384	1.3145	0.6212	-1.3989	1.2164	0.3302	9.5901	-0.2452	-0.0357	0.1851	-0.5907	-1.0417	-0.7464	9.5556	2.6754	0.2907	1.6142	0.1008	-0.0592	-0.3362	-0.4683	0.06
-2.1961	-0.428	9.6893	0.1552	0.236	-0.0171	1.2603	0.6201	-1.3781	1.1082	0.7929	10.0527	0.1257	0.0196	0.187	-0.6074	-1.0193	-0.7257	9.5021	1.9193	0.5157	1.339	-0.143	-0.0696	-0.3182	-0.4623	0.042
-2.0796	-1.1201	9.6324	0.1226	-0.0384	-0.0935	1.2418	0.6443	-1.4014	0.9774	1.0807	9.2388	0.0934	-0.0706	0.1502	-0.5879	-0.9495	-0.7046	9.4407	2.3265	0.4016	1.0057	0.1348	0.009	-0.3122	-0.4803	0.054
-1.9784	-0.4879	8.9462	0.1538	0.1685	0.1022	1.2786	0.6922	-1.4016	1.1566	0.1569	9.4728	0.0342	0.0811	0.2225	-0.5518	-0.9255	-0.6828	9.676	2.0934	0.4055	0.8215	0.0797	-0.1461	-0.3062	-0.4803	0.054
-1.85	-0.775	9.5228	0.0947	0.2411	-0.1094	1.2972	0.6199	-1.355	0.8687	0.2729	9.5838	0.0033	0.0816	0.2226	-0.6414	-0.9977	-0.6839	9.6206	2.0939	0.5753	0.6667	-0.1285	-0.3401	-0.3362	-0.4623	0.048
-1.8525	-0.6599	9.4081	0.2466	0.204	-0.0182	1.3158	0.6677	-1.3557	0.8673	0.6193	9.5262	0.1223	-0.062	-0.0356	-0.6419	-1.0209	-0.6837	10.1529	2.1519	0.7564	0.6668	-0.2228	-0.2835	-0.3422	-0.4623	0.072
-1.6776	-0.3142	9.4699	0.1553	0.208	-0.0801	1.2603	0.6201	-1.3781	0.8669	0.908	9.5266	0.0291	-0.0575	-0.097	-0.571	-0.9956	-0.6825	9.5547	2.4424	0.2332	0.8204	0.0211	-0.2413	-0.3362	-0.4803	0.042
-2.205	-0.602	9.2288	0.0933	0.0574	-0.15	1.2792	0.6435	-1.356	0.581	0.3312	9.6947	-0.1247	-0.0564	-0.0652	-0.6066	-0.9964	-0.7046	9.1484	1.8613	0.4519	0.5737	-0.0275	-0.5801	-0.3302	-0.4803	0.048
-2.022	-0.2554	9.6931	0.1239	0.2026	0.0424	1.2972	0.6199	-1.355	1.3362	0.5613	9.8245	0.0325	0.0564	0.0967	-0.5722	-1.0183	-0.7249	9.2729	1.6874	0.7955	0.4826	-0.0903	-0.5211	-0.3182	-0.4623	0.066
-1.6767	-0.7755	9.4688	-0.0896	0.1803	-0.0831	1.2237	0.596	-1.3785	0.8211	0.3892	10.163	-0.3379	0.0319	0.0968	-0.6245	-0.9967	-0.7263	9.5596	2.0937	0.4602	0.8205	0.0836	-0.2688	-0.3242	-0.4563	0.06
-1.3238	-0.4873	9.7064	0.0937	0.1765	-0.0514	1.2773	0.6458	-1.4448	0.9865	0.4461	9.7021	0.0955	0.0493	0.2201	-0.5702	-0.9255	-0.7259	9.3319	2.4442	0.8554	0.7311	0.1391	-0.05	-0.3302	-0.4743	0.054
-1.9146	-0.4296	9.235	0.0651	0.3061	-0.1676	1.2613	0.6909	-1.3576	0.7019	0.5046	9.987	-0.0285	0.0222	0.1879	-0.552	-0.9489	-0.6612	9.7407	1.8612	0.6909	0.9136	0.4204	-0.2213	-0.3242	-0.4503	0.06
-1.9744	-0.7757	9.118	0.1855	0.2047	-0.0186	1.2795	0.6192	-1.3333	1.2734	0.2723	9.533	-0.031	-0.0963	0.087	-0.5533	-0.995	-0.6821	9.3902	1.9201	0.7983	0.9755	0.541	-0.1541	-0.3242	-0.4803	0.048
-1.9032	-0.9473	9.7513	0.2477	0.3273	-0.0116	1.2973	0.6918	-1.3789	0.9864	0.5039	9.7022	0.1252	-0.0757	0.2429	-0.6063	-0.9495	-0.7477	9.5059	1.5704	0.6857	1.037	0.3192	0.0184	-0.3242	-0.4803	0.066
-1.5607	-0.6604	9.4714	0.1571	0.3357	-0.1654	1.3158	0.6677	-1.3557	0.8073	0.5615	9.4091	0.3104	0.018	0.155	-0.6066	-0.9964	-0.7046	9.8567	2.2102	0.637	1.2508	0.2211	0.1345	-0.3362	-0.4743	0.048
-1.9711	-0.66	9.2908	0.0633	0.1489	-0.1146	1.3336	0.6684	-1.3774	1.0454	0.5039	9.7612	-0.0602	-0.0711	0.213	-0.6056	-0.95	-0.705	9.8489	2.151	0.2381	1.2511	0.1258	0.2218	-0.3422	-0.4743	0.054
-2.2025	-0.6594	9.3437	0.2778	0.2653	-0.0147	1.2784	0.5965	-1.3771	0.991	0.2155	9.9339	0.2476	-0.0732	0.1494	-0.5724	-0.9946	-0.7679	10.0928	2.3265	0.6987	1.1614	0.1515	0.4084	-0.3242	-0.4743	0.048
-2.0234	-0.7168	9.577	0.2453	0.0497	-0.0265	1.3161	0.6433	-1.3329	1.0436	0.2728	9.6449	0.0018	-0.0736	0.2436	-0.5717	-0.9951	-0.7252	9.7428	1.9779	0.8051	1.3765	-0.2333	0.8171	-0.3182	-0.4743	0.048
-1.9704	-0.4293	9.3488	0.1225	0.019	0.0018	1.2968	0.6205	-1.3772	0.9937	0.5044	10.1083	-0.1508	0.1165	0.1946	-0.6414	-0.9977	-0.6839	9.5715	2.4445	1.0877	1.4378	-0.5485	1.0154	-0.3182	-0.4803	0.054
-1.8582	-0.7183	9.1204	-0.2449	-0.0954	-0.0989	1.3133	0.6467	-1.4661	1.1063	0.6772	9.9365	-0.0586	0.1164	0.1631	-0.5905	-1.0183	-0.768	9.5642	1.9778	0.6878	1.5308	-0.9938	1.422	-0.3182	-0.4683	0.06
-1.7298	-0.4287	9.756	-0.2113	0.2436	-0.0805	1.2797	0.643	-1.3338	1.0457	0.2729	9.7609	-0.2139	0.2541	-0.0756	-0.6419	-1.0209	-0.6837	9.266	1.8612	0.4541	1.2579	-1.0272	1.5762	-0.3182	-0.4743	0.042
-1.7301	-0.2558	9.7564	-0.2746	0.027	-0.0618	1.3149	0.6688	-1.4	0.7606	0.7356	10.0464	-0.0592	0.1517	0.0722	-0.5708	-0.9721	-0.7041	9.0324	2.502	0.5651	1.1664	-1.0572	1.5754	-0.3242	-0.4623	0.054
-1.8536	-0.7177	9.3505	-0.1227	-0.0396	-0.0029	1.2958	0.6216	-1.4216	0.7615	0.0427	10.0455	-0.091	0.1891	-0.0494	-0.6417	-0.974	-0.7269	9.5073	2.3274	0.8015	0.861	-0.7698	1.3469	-0.3182	-0.4563	0.054
-2.2571	-0.7165	9.5149	0.0331	0.2684	-0.0162	1.3334	0.6446	-1.3768	0.9327	0.4465	9.9331	-0.1826	0.1538	0.0729	-0.6229	-0.9742	-0.6625	9.6785	1.8608	0.5189	0.983	-0.3957	1.1808	-0.3302	-0.4803	0.06
-2.031	-0.3718	9.2328	-0.0901	0.1186	-0.0864	1.2969	0.6443	-1.3778	1.1023	0.5615	9.7043	-0.0879	0.2722	0.1423	-0.6237	-0.9737	-0.7052	9.5617	2.2104	0.5745	0.8339	-0.3754	1.5521	-0.3122	-0.4743	0.054
-1.566	-0.8917	9.1833	0.1235	0.0836	-0.0562	1.2415	0.5967	-1.4002	0.9916	0.562	9.9923	0.2485	0.0851	0.0665	-0.5351	-0.9479	-0.7035	9.6218	2.0358	0.6321	0.6211	-0.1563	1.5037	-0.3362	-0.4863	0.054
-2.0762	-0.4854	9.8639	-0.0603	0.1713	0.101	1.2603	0.6201	-1.3781	0.7547	0.4464	9.6979	0.2791	-0.0768	0.2111	-0.5879	-0.9495	-0.7046	9.8514	1.9184	0.3515	0.1896	-0.4456	1.031	-0.3302	-0.4743	0.066
-1.9047	-0.7744	9.6942	0.124	0.2615	0.107	1.315	0.6207	-1.3767	0.6991	0.2734	9.8127	0.125	-0.0096	0.154	-0.6071	-1.0196	-0.7043	9.4388	1.977	0.2868	-0.1748	-0.4465	1.1569	-0.3422	-0.4743	0.048
-1.7983	-0.4299	9.2373	-0.0288	0.0604	-0.1814	1.3514	0.621	-1.3758	0.6987	0.5621	9.8131	0.4019	-0.0113	0.0906	-0.6594	-0.998	-0.7057	9.5644	1.8032	0.6874	-0.6638	-0.5297	1.0028	-0.3182	-0.4743	0.048
-1.7936	-0.487	9.4672	0.0335	0.0963	-0.302	1.2968	0.6205	-1.3772	1.0486	0.4464	9.9352	0.1538	-0.0333	-0.0029	-0.5687	-0.9265	-0.6405	9.4999	1.919	0.4017	-0.7519	-0.5418	1.4027	-0.3362	-0.4503	0.054
-1.9771	-0.5454	9.0035	0.1871	0.2442	-0.2009	1.2599	0.6207	-1.4003	0.9885	0.5618	9.8183	0.2202	0.2686	0.1096	-0.5881	-0.9729	-0.6831	9.85	2.2094	0.2952	-0.873	-0.7313	1.5783	-0.3422	-0.4563	0.048
-1.911	-0.4869	9.4074	0.0633	0.1783	-0.0823	1.2779	0.5971	-1.3993	1.0462	0.7349	9.8195	0.1863	-0.0414	0.1517	-0.5871	-0.9265	-0.6835	9.6714	2.2675	0.1781	-0.9654	-0.7891	1.4838	-0.3302	-0.4803	0.042
-2.203	-0.4288	9.3442	0.0629	0.1755	-0.0209	1.2423	0.6437	-1.3792	1.1625	0.4461	9.8213	0.2786	0.0231	0.0623	-0.5701	-0.9021	-0.7474	9.6189	1.6279	0.4602	-0.9329	-1.0791	1.8682	-0.3422	-0.4683	0.06
-1.8508	-0.3714	9.5238	0.0951	0.244	-0.1707	1.2783	0.6447	-1.4004	1.1593	0.5036	9.6473	0.1579	0.1098	0.2238	-0.5881	-0.9729	-0.6831	9.5079	1.7453	0.8001	-1.023	-1.1457	2.0499	-0.3302	-0.4743	0.042
-1.6834	-0.3149	9.1824	0.1849	0.1136	-0.0542	1.3336	0.6684	-1.3774	0.8136	0.5619	9.7571	0.1556	0.0559	0.065	-0.6593	-0.9746	-0.7272	9.3356	2.1536	1.0256	-1.4785	-1.1786	2.2364	-0.3242	-0.4743	0.048
-2.2022	-0.8324	9.3433	0.0035	0.1878	-0.2665	1.3156	0.6439	-1.3551	0.9896	0.4464	9.8761	0.2155	-0.0666	0.0257	-0.6062	-0.9966	-0.6832	9.9114	2.8501	0.4688	-1.6278	-1.0323	2.522	-0.3362	-0.4683	0.036
-1.7954	-0.7179	9.3516	-0.0609	0.0508	0.0331	1.2784	0.6684	-1.401	0.6977	0.5043	9.755	0.094	0.1537	-0.0215	-0.5527	-0.9484	-0.7039	9.3833	2.0939	0.4569	-1.8982	-0.9505	2.9282	-0.3302	-0.4563	0.048
-2.4251	-0.4847	9.857	-0.0576	0.2474	-0.2023	1.3158	0.6677	-1.3557	1.0475	0.504	9.8773	-0.1517	0.2178	0.0149	-0.5534	-0.9479	-0.7466	9.7933	2.3261	0.4083	-2.0494	-0.8906	3.0248	-0.3362	-0.4743	0.048
-1.9571	-0.197	10.0395	0.0324	0.2347	0.0435	1.2961	0.5973	-1.3988	0.9882	0.7927	9.8186	0.1275	0.1733	0.197	-0.6076	-0.9957	-0.7686	9.4974	2.1515	0.2884	-2.0805	-0.7941	2.9071	-0.3182	-0.4683	0.054
-1.799	-0.6606	9.1792	0.1551	0.1772	-0.0817	1.2249	0.6906	-1.3586	0.6956	0.5619	9.639	0.1233	-0.0666	0.0572	-0.5537	-0.9948	-0.7035	9.4473	2.4438	0.7437	-1.8349	-0.8348	3.1489	-0.3362	-0.4683	0.06
-1.6264	-0.3152	9.126	0.1851	0.1151	-0.0849	1.2979	0.6431	-1.3334	1.1686	0.562	10.1695	0.062	-0.0026	0.0306	-0.5711	-1.019	-0.6609	9.3999	2.2706	1.3118	-1.7431	-0.775	3.182	-0.3422	-0.4743	0.066
-1.8465	-0.7746	9.6954	0.2176	0.2144	-0.233	1.2605	0.6439	-1.3787	1.2812	0.6771	9.9977	-0.0287	0.1527	0.0411	-0.57	-0.9492	-0.6829	9.8002	2.2105	0.7498	-1.7432	-0.4614	3.0138	-0.3362	-0.4683	0.048
-1.5652	-0.7186	9.2412	0.2172	0.241	-0.1394	1.3149	0.6688	-1.4	0.4667	0.6779	9.809	-0.0902	0.2828	-0.0743	-0.5881	-0.9729	-0.6831	9.1576	1.6296	0.907	-1.561	-0.6485	3.0334	-0.3362	-0.4743	0.054
-2.0354	-0.4876	9.0025	0.1857	0.2062	-0.0492	1.3145	0.6212	-1.3989	0.647	0.5626	10.1601	0.0006	-0.003	0.0619	-0.6056	-0.95	-0.705	9.2104	1.9781	0.6242	-1.1656	-0.7124	2.9961	-0.3302	-0.4803	0.072
-1.9671	-0.9478	9.4626	0.2484	0.3317	-0.1036	1.3143	0.5974	-1.3983	0.6939	1.0815	9.5817	0.1559	0.0221	0.1249	-0.5711	-1.019	-0.6609	9.386	2.6764	0.6292	-0.9544	-0.9257	2.8603	-0.3422	-0.4683	0.054
-1.9716	-0.4294	9.2913	0.3082	0.206	-0.0792	1.2974	0.6437	-1.3556	0.9844	0.5037	9.5861	0.2171	-0.1065	0.2094	-0.5877	-0.9732	-0.6617	9.3832	2.1521	0.457	-0.8945	-1.2666	2.9035	-0.3362	-0.4743	0.036
-1.9671	-0.3712	9.5215	0.2798	0.337	-0.226	1.2787	0.6441	-1.3782	0.9305	0.5618	9.8172	0.0323	-0.1049	0.2414	-0.6067	-1.0198	-0.683	9.4467	1.978	0.6856	-0.7119	-1.2364	2.8729	-0.3242	-0.4683	0.042
-2.0248	-0.6017	9.5198	0.2812	0.4045	-0.3454	1.3153	0.5963	-1.3539	0.8708	0.3308	9.6999	0.2488	-0.1438	0.331	-0.6064	-0.973	-0.7261	9.4386	2.2098	0.2874	-0.2844	-1.4008	3.0761	-0.3302	-0.4683	0.048
-1.9643	-0.6015	9.636	0.2459	0.0246	-0.1508	1.3334	0.6446	-1.3768	0.8673	0.5615	9.5261	0.2201	0.0089	0.3722	-0.5697	-0.9729	-0.64	9.3244	2.1522	0.4559	0.0205	-1.0917	2.9667	-0.3542	-0.4623	0.054
-1.9722	-0.7178	9.2331	0.3388	0.0895	-0.2389	1.3324	0.6458	-1.4212	0.6366	0.5042	9.5799	0.1583	0.1405	0.2258	-0.5701	-0.9726	-0.6614	9.267	1.9195	0.5112	0.3265	-0.7558	2.9816	-0.3362	-0.4743	0.072
-2.089	-0.4293	9.2315	0.3417	0.37	-0.2853	1.2612	0.6671	-1.3571	1.2138	0.7342	9.4746	0.16	0.1975	0.3226	-0.5711	-0.9485	-0.747	9.433	2.2091	0.0025	0.5726	-0.329	3.0633	-0.3302	-0.4743	0.072
-2.1418	-0.8322	9.4594	0.2772	0.1741	-0.0504	1.2985	0.6664	-1.3117	0.9846	0.2728	9.5859	0.0952	0.0831	0.1602	-0.571	-0.9956	-0.6825	9.7305	1.9764	0.1785	0.6656	-0.0856	3.1367	-0.3302	-0.4443	0.048
-2.2035	-0.7748	9.2859	0.1566	0.3034	-0.1364	1.2785	0.6203	-1.3777	0.865	0.7346	9.4103	-0.0593	0.0549	0.1591	-0.6252	-1.0433	-0.7045	9.6814	2.2688	0.6908	0.6015	0.021	2.7123	-0.3242	-0.4743	0.06
-2.1423	0.0327	9.519	0.0644	0.3017	-0.0756	1.2594	0.6213	-1.4225	1.0431	0.6769	9.6454	0.1566	0.1159	0.1	-0.6228	-0.9508	-0.684	9.6136	2.3259	0.2341	0.4193	0.3024	2.6362	-0.3422	-0.4743	0.048
-1.6733	-0.775	9.6413	0.0311	-0.0064	-0.0923	1.2787	0.6441	-1.3782	0.9368	0.5623	10.1653	-0.0631	-0.0574	-0.0655	-0.6085	-1.0186	-0.7897	9.5563	2.0351	0.2892	-0.0087	0.5312	2.3441	-0.3482	-0.4623	0.066
-2.4356	-0.4283	9.3396	0.0942	0.2088	-0.0804	1.2963	0.6211	-1.3994	0.4672	0.3315	9.8086	0.0651	0.1451	0.1644	-0.5879	-0.9495	-0.7046	9.4385	2.268	0.2875	-0.1338	0.2007	2.1127	-0.3302	-0.4683	0.06
-1.8008	-0.3148	9.1226	0.0638	0.1812	-0.1436	1.2965	0.6448	-1.3999	1.1643	0.6194	9.9375	0.279	0.0861	0.0354	-0.5872	-0.95	-0.662	10.1489	2.7336	0.5869	-0.2245	0.2303	2.1765	-0.3302	-0.4563	0.042
-1.924	-0.3154	8.7752	0.1546	0.1743	-0.0204	1.3142	0.6456	-1.4217	0.4707	-0.0148	9.9822	-0.0607	0.0287	0.0642	-0.5542	-1.018	-0.7032	9.9767	1.9775	0.7526	-0.562	0.0861	1.9565	-0.3302	-0.4743	0.054
-2.1994	-0.486	9.5166	0.2465	0.2613	0.077	1.2796	0.6911	-1.3572	1.3376	1.0811	9.9412	0.1553	0.0897	0.0051	-0.5536	-0.9714	-0.725	9.3876	2.2109	0.685	-0.3494	-0.1638	2.0032	-0.3482	-0.4623	0.054
-2.0793	-0.6588	9.691	0.1251	0.1231	-0.2385	1.2797	0.643	-1.3338	1.2162	0.4457	9.5902	0.2804	-0.0506	0.3059	-0.5715	-1.0187	-0.6822	9.8027	1.9198	0.8631	-0.3502	-0.4109	2.0211	-0.3302	-0.4623	0.06
-1.7309	-0.4289	9.6985	0.1556	0.2095	-0.1107	1.3333	0.6928	-1.4001	1.0433	0.5615	9.6453	0.0954	0.2122	0.0444	-0.5695	-0.926	-0.6832	9.5649	2.3272	0.7456	-0.2321	-0.7733	1.7554	-0.3302	-0.4563	0.06
-1.7864	-0.6014	9.8119	0.1244	0.1481	-0.1142	1.3148	0.5969	-1.3761	0.7621	0.3892	10.104	0.1539	-0.0011	-0.0318	-0.5697	-0.9729	-0.64	9.6798	1.7446	0.5756	-0.1105	-0.7734	1.7236	-0.3362	-0.4803	0.048
-1.7327	-0.7174	9.5828	0.0628	0.1461	-0.0532	1.2981	0.6669	-1.3339	1.0447	0.2728	9.7029	-0.1819	0.2153	0.0769	-0.587	-0.9737	-0.619	9.3841	2.3269	0.5144	-0.114	-0.9789	1.4055	-0.3242	-0.4623	0.06
-2.1444	-0.6595	9.3448	0.0638	0.065	-0.3035	1.2602	0.5482	-1.3542	0.9895	0.5618	9.8763	0.1549	0.0266	0.0321	-0.57	-0.9492	-0.6829	9.563	2.0941	0.6311	0.0987	-0.9788	1.3422	-0.3302	-0.4803	0.036
-1.7251	-0.4858	9.9859	0.0927	0.0825	-0.0257	1.3336	0.6684	-1.3774	1.1541	0.4455	9.3571	-0.1195	0.2435	0.1095	-0.5889	-0.9959	-0.7042	9.623	1.9778	0.6889	0.0992	-1.1058	1.4586	-0.3422	-0.4503	0.048
-1.9779	-0.7185	8.9456	0.0325	0.1773	-0.0518	1.2975	0.5956	-1.3322	0.9872	0.7349	9.7605	-0.1534	0.1286	-0.053	-0.5868	-0.9502	-0.6406	9.8533	2.2098	0.4661	0.008	-0.8867	1.3785	-0.3362	-0.4803	0.054
-1.9106	-0.7175	9.4068	0.2154	0.1706	0.0413	1.2776	0.6214	-1.422	1.0454	0.5616	9.7613	0.1566	0.0836	0.1289	-0.5716	-0.9716	-0.7467	9.3922	2.095	0.9126	0.3427	-0.5441	1.1784	-0.3362	-0.4683	0.066
-1.9098	-0.5444	9.4647	0.1545	0.2023	0.0426	1.3511	0.6454	-1.3985	0.8135	0.6196	9.7572	0.0962	0.1108	0.2241	-0.5892	-0.9722	-0.7471	9.506	1.454	0.6855	0.3738	-0.5781	1.2686	-0.3422	-0.4623	0.054
-2.0252	-0.3711	9.5203	0.216	0.1455	-0.083	1.2943	0.5514	-1.4642	0.9305	0.5618	9.8172	0.004	0.1109	0.2556	-0.6237	-0.9737	-0.7052	9.6806	2.0358	0.6332	0.4054	-0.6766	1.4477	-0.3302	-0.4563	0.048
-2.0266	-0.2559	9.4631	0.2476	0.2685	-0.0762	1.2962	0.6692	-1.4227	0.6418	0.5623	9.87	0.2186	0.0488	0.1885	-0.6055	-0.9971	-0.6405	9.6182	2.2683	0.4618	0.4359	-0.5518	1.3924	-0.3302	-0.4683	0.048
-1.5639	-0.1994	9.3575	0.0645	0.2444	-0.1709	1.2413	0.5729	-1.3996	1.2775	0.2726	9.7651	0.1564	-0.0455	0.2447	-0.624	-0.9735	-0.7265	9.5653	2.0362	0.7449	0.4331	-0.8228	1.1939	-0.3362	-0.4563	0.048
-1.7939	-0.8907	9.4087	0.0952	0.2734	-0.1384	1.2969	0.6443	-1.3778	1.1052	0.7349	9.8786	0.0627	0.0267	0.0635	-0.624	-0.9735	-0.7265	9.0839	1.9771	0.1662	0.7095	-0.7089	1.4128	-0.3302	-0.4563	0.048
-2.2597	-0.6015	9.4002	0.2473	0.2377	-0.0779	1.2957	0.5497	-1.3977	1.1618	0.9657	9.8219	-0.0613	0.0318	0.0023	-0.6052	-0.9503	-0.6837	9.6172	2.1517	0.4045	0.5281	-0.7123	1.5678	-0.3302	-0.4683	0.054
-2.0893	-0.314	9.2318	0.0309	0.079	0.0659	1.3141	0.5737	-1.3978	1.1049	0.1574	9.8198	0.0028	0.1492	0.1028	-0.5711	-0.9485	-0.747	9.2658	2.0358	0.4545	0.2841	-0.4899	1.4276	-0.3422	-0.4683	0.048
-1.7898	-0.6595	9.6393	0.1247	0.2952	0.0473	1.2601	0.5963	-1.3776	0.295	0.6205	9.9219	0.1561	-0.0439	0.2138	-0.6053	-0.9737	-0.6621	9.442	2.152	0.4581	0.2557	-0.7169	1.7851	-0.3302	-0.4683	0.03
-2.2019	-0.4287	9.4017	0.1252	0.1819	-0.1739	1.2777	0.6933	-1.446	1.2273	0.7929	10.2288	-0.1238	-0.0932	0.0566	-0.6042	-0.9039	-0.6841	9.5019	2.1521	0.5162	0.3478	-0.6889	1.8473	-0.3302	-0.4743	0.066
-1.9642	-0.6592	9.6358	0.0928	0.0251	-0.121	1.2974	0.6437	-1.3556	1.1006	1.0233	9.6469	0.1259	0.2132	0.0133	-0.5532	-0.9716	-0.7037	9.4522	1.9787	0.9704	0.561	-0.5656	1.7904	-0.3422	-0.4683	0.054
-1.6811	-0.8913	9.2385	0.1254	0.2127	-0.1722	1.2967	0.6686	-1.4005	0.8725	0.5619	9.8162	0.034	0.2117	0.0757	-0.5708	-0.9721	-0.7041	9.2716	1.8619	0.7389	0.864	-0.4998	1.5761	-0.3242	-0.4743	0.048
-1.7304	-0.7171	9.6978	0.1846	0.0828	-0.0558	1.3341	0.6197	-1.3318	0.6958	0.3887	9.6388	-0.028	0.2142	0.0451	-0.6071	-1.0196	-0.7043	9.3855	2.0942	0.5708	1.1095	-0.3211	1.7064	-0.3302	-0.4623	0.048
-1.8443	-0.7166	9.8105	0.002	0.2071	-0.0196	1.2966	0.5967	-1.3766	0.8132	-0.0156	9.6984	0.0359	0.3977	0.0568	-0.5711	-0.9485	-0.747	9.4511	1.9785	0.9135	1.1395	-0.1944	1.5898	-0.3302	-0.4683	0.042
-2.149	-0.6601	9.1148	-0.0288	0.0899	-0.1491	1.314	0.6218	-1.4211	1.1111	0.1579	10.1679	-0.0865	0.3629	0.1792	-0.6068	-1.0432	-0.6614	9.218	2.2119	1.0235	1.1111	-0.1395	1.8081	-0.3302	-0.4683	0.054
-1.968	-0.4866	9.4637	0.0007	0.0823	0.0044	1.2979	0.6431	-1.3334	0.8724	0.6774	9.8163	0.0669	0.2666	0.2033	-0.5701	-0.9021	-0.7474	9.6219	1.9776	0.632	1.2626	-0.2628	1.7697	-0.3422	-0.4503	0.06
-2.0219	-0.8897	9.6341	-0.1823	0.1169	-0.0257	1.2961	0.5973	-1.3988	1.1625	0.3883	9.8212	-0.1478	0.2319	0.3573	-0.6048	-0.9505	-0.6623	9.7415	2.0942	0.7484	1.5961	-0.0722	1.5001	-0.3422	-0.4623	0.048
-2.0317	-0.6025	9.1748	-0.1527	0.1387	0.1601	1.2977	0.6194	-1.3328	0.9937	0.5621	10.1083	-0.0852	0.3569	0.303	-0.6242	-0.9969	-0.7049	9.9777	2.0941	0.8099	1.688	-0.0124	1.5332	-0.3362	-0.4683	0.054
-1.7326	-0.1984	9.6415	-0.2775	-0.1373	0.1445	1.296	0.6454	-1.4221	1.1015	0.3304	9.646	-0.0848	0.4522	0.2471	-0.5537	-0.9948	-0.7035	9.624	2.0361	0.7461	1.9299	0.055	1.2888	-0.3362	-0.4683	0.06
-1.7932	-0.6599	9.4668	-0.2151	-0.0721	0.0562	1.3327	0.6214	-1.3984	0.9898	0.3309	9.876	-0.4867	0.4957	0.1276	-0.59	-0.9951	-0.7682	9.5054	1.9779	0.6867	1.7164	0.2771	1.1483	-0.3422	-0.4623	0.048
-1.6778	-0.8332	9.4111	-0.1198	0.2704	-0.017	1.2784	0.6684	-1.401	0.6949	0.2731	9.5806	-0.2995	0.5803	0.2254	-0.6228	-0.9508	-0.684	9.6197	1.9191	0.5179	1.719	0.5173	1.3453	-0.3422	-0.4743	0.048
-1.9619	-0.6589	9.7508	-0.0612	0.0199	0.0314	1.2597	0.6688	-1.4237	0.7608	0.5623	10.0462	-0.303	0.4341	0.0607	-0.5888	-0.9724	-0.7258	9.384	1.4535	0.4553	1.7471	0.3384	1.1513	-0.3302	-0.4623	0.066
-1.9056	-0.3132	9.6953	-0.0303	0.0798	0.0655	1.2968	0.6205	-1.3772	0.9314	0.6774	9.8754	-0.2715	0.3983	0.1513	-0.6058	-0.9969	-0.6619	9.4983	1.3948	0.2865	1.9013	0.2984	1.3939	-0.3242	-0.4623	0.054
-1.8455	-0.7168	9.753	0.0918	0.0768	0.0969	1.2612	0.5471	-1.3098	1.1049	0.9659	9.8789	-0.486	0.4927	0.1895	-0.571	-0.9956	-0.6825	9.33	2.1529	0.7407	1.8682	0.121	1.1697	-0.3362	-0.4503	0.048
-2.1932	-0.7159	9.8036	0.0943	0.122	-0.208	1.315	0.6207	-1.3767	1.1597	0.1571	9.6468	-0.1167	0.5878	0.0077	-0.5717	-0.9951	-0.7252	9.327	1.8614	0.5691	1.5325	0.1893	1.053	-0.3482	-0.4563	0.06
-2.0841	-0.6017	9.4611	-0.1224	0.0207	0.0311	1.3158	0.6677	-1.3557	0.6973	0.0423	9.6964	-0.1758	0.6412	0.1978	-0.5727	-1.0414	-0.7247	9.6852	1.9199	0.8608	1.1977	0.0661	1.1416	-0.3542	-0.4623	0.06
-1.9211	-0.6611	8.8894	-0.2129	0.0879	-0.0581	1.2962	0.6692	-1.4227	0.8737	0.4465	9.8741	-0.2073	0.8721	-0.0976	-0.57	-0.9492	-0.6829	9.7967	2.2683	0.5791	0.7383	-0.1078	0.9211	-0.3302	-0.4563	0.042
-1.8462	-0.3709	9.7538	-0.1218	0.0824	0.0344	1.2785	0.6203	-1.3777	0.6956	0.5042	9.639	-0.5442	0.9317	0.0631	-0.5703	-0.949	-0.7043	9.4997	2.0936	0.4022	0.1869	-0.5291	0.7499	-0.3422	-0.4503	0.066
-1.732	-0.4867	9.6408	-0.1824	0.0287	-0.1226	1.2963	0.6211	-1.3994	0.8663	0.5615	9.4681	-0.2978	0.8968	0.0597	-0.6233	-0.974	-0.6838	9.8566	2.2684	0.6372	-0.0613	-0.9787	0.4211	-0.3422	-0.4683	0.054
-1.795	-0.9485	9.3511	-0.3679	-0.1275	-0.0399	1.2968	0.6205	-1.3772	0.8731	0.9084	9.8747	-0.5714	1.2075	0.1122	-0.5882	-0.9963	-0.6615	9.5079	1.8035	0.8002	-0.0958	-1.3071	0.0968	-0.3182	-0.4503	0.054
-2.1512	-0.718	8.9997	-0.3382	-0.2499	-0.077	1.3156	0.6439	-1.3551	0.8705	0.5618	9.7002	-0.819	1.3129	-0.0661	-0.5698	-0.9258	-0.7045	9.7318	1.7437	0.2349	-0.067	-1.5515	0.0224	-0.3422	-0.4623	0.048
-1.7916	-0.3137	9.5826	-0.5839	-0.2245	0.1072	1.2762	0.6231	-1.4886	0.9292	0.735	9.7594	-1.1563	1.5369	-0.1121	-0.5714	-0.9482	-0.7683	9.2693	1.9198	0.6251	-0.251	-1.8894	0.037	-0.3362	-0.4563	0.06
-1.7982	-0.4875	9.2372	-0.675	-0.2484	-0.0176	1.2965	0.6448	-1.3999	0.8771	0.2735	10.0479	-1.0325	1.6623	-0.1977	-0.6068	-0.9727	-0.7475	9.5056	1.8615	0.6864	-0.4335	-2.0139	0.1243	-0.3422	-0.4743	0.054
-1.9136	-0.9485	9.2337	-0.7062	-0.2523	0.0741	1.2418	0.6443	-1.4014	0.8191	0.2736	10.0468	-0.7875	1.2771	0.0246	-0.6233	-0.974	-0.6838	9.3849	2.6181	0.5721	-0.7052	-2.2398	0.5145	-0.3362	-0.4743	0.06
-2.0842	-0.544	9.4613	-0.9838	-0.5264	0.0577	1.3325	0.5976	-1.3979	1.218	0.6768	9.7066	-0.6376	0.7427	0.1754	-0.5883	-0.9492	-0.726	9.2712	2.2111	0.7398	-0.9476	-2.5245	0.8092	-0.3242	-0.4743	0.054
-2.14	-0.5437	9.5751	-0.9531	-0.4092	0.1871	1.2612	0.6671	-1.3571	0.7574	-0.0153	9.8134	-0.4225	0.6454	0.1991	-0.5886	-0.9961	-0.6828	9.6192	2.3266	0.5189	-1.2481	-2.0683	1.0813	-0.3302	-0.4623	0.06
-1.5514	-0.6593	9.9314	-0.9219	-0.4641	0.0307	1.3325	0.5976	-1.3979	0.6988	0.5044	9.813	-0.488	0.4695	0.0328	-0.6062	-0.9966	-0.6832	9.7447	2.211	0.9196	-1.3691	-1.3815	0.8413	-0.3362	-0.4683	0.048
-2.2456	-0.7151	10.09	-0.6166	-0.6165	-0.0984	1.2773	0.6458	-1.4448	1.1061	0.8505	9.9368	-0.8259	0.5014	0.1295	-0.5533	-0.995	-0.6821	9.6815	2.2105	0.6906	-1.4879	-0.4534	0.7675	-0.3302	-0.4503	0.054
-1.7273	-0.5438	9.8707	-0.8279	-0.2759	-0.0508	1.2966	0.5967	-1.3766	1.1595	0.2726	9.647	-0.9149	0.7459	0.2079	-0.5716	-0.9716	-0.7467	9.6761	2.0352	0.4054	-1.5482	0.484	0.3863	-0.3302	-0.4683	0.054
-2.0826	-0.7745	9.5182	-0.4587	-0.2368	-0.323	1.2599	0.6207	-1.4003	0.6898	0.9657	9.3495	-0.5803	0.6646	-0.1404	-0.57	-0.9492	-0.6829	9.449	1.92	0.7994	-2.0644	1.4213	0.1318	-0.3302	-0.4563	0.066
-1.6648	-0.947	10.0434	-0.4895	-0.2378	-0.2925	1.2406	0.5497	-1.4213	0.8735	0.6197	9.8743	-0.8882	0.9924	-0.4282	-0.6061	-0.9732	-0.7048	9.8537	1.8605	0.4653	-2.7651	1.8977	-0.1145	-0.3362	-0.4683	0.066
-2.3747	-0.6588	9.4552	-0.2771	-0.4257	-0.3012	1.3148	0.5969	-1.3761	1.1685	0.6197	10.1696	-1.0116	0.7349	-0.1649	-0.6258	-1.0194	-0.7687	10.0297	2.1514	0.4693	-3.5617	1.8913	-0.6618	-0.3422	-0.4623	0.066
-2.0365	-0.4878	8.945	-0.0321	-0.5142	-0.458	1.2785	0.6203	-1.3777	1.1625	0.4461	9.8213	-0.952	0.6784	-0.2931	-0.6222	-0.9042	-0.7058	9.4304	2.4999	-0.1107	-4.5426	1.8299	-1.3642	-0.3302	-0.4623	0.06
-1.6234	-0.6608	9.2402	0.0285	-0.5472	-0.4287	1.2788	0.596	-1.3549	0.9305	0.5618	9.8172	-0.6751	0.6445	-0.3276	-0.5875	-0.8792	-0.7694	9.7292	2.0926	0.1218	-5.4027	1.3644	-1.9964	-0.3422	-0.4623	0.054
-2.086	-0.7749	9.3457	0.12	-0.5793	-0.4298	1.2954	0.6222	-1.4438	1.1021	0.6769	9.7045	-0.5507	0.6379	-0.2354	-0.6243	-1.0204	-0.6833	9.6753	1.744	0.3477	-5.8083	0.6539	-2.7987	-0.3362	-0.4743	0.06
-1.8518	-0.4292	9.4662	-0.0346	-0.8212	-0.5052	1.3139	0.598	-1.4205	0.8125	0.5618	9.6991	-0.4277	0.6373	-0.2671	-0.6412	-0.9508	-0.7271	9.7901	2.2093	0.2371	-6.3969	-0.3985	-3.4636	-0.3302	-0.4623	0.036
-2.3111	-0.4852	9.7443	-0.0331	-0.7243	-0.5922	1.2596	0.645	-1.4231	0.7014	0.1004	9.9285	-0.3052	0.477	-0.1849	-0.6221	-0.9513	-0.6413	9.3755	2.0929	0.0581	-6.8328	-1.5475	-4.0425	-0.3302	-0.4623	0.048
-1.7955	-0.6602	9.3517	-0.1553	-0.7507	-0.6559	1.334	0.6678	-1.3552	0.8697	0.3307	9.6419	0.1592	0.3311	0.114	-0.5707	-0.9487	-0.7256	9.3801	1.9188	0.2856	-6.4754	-2.7397	-4.4457	-0.3362	-0.4623	0.054
-2.2019	-0.4287	9.4017	-0.1844	-0.5373	-0.5832	1.2405	0.5979	-1.4446	0.8706	0.4463	9.7	0.1309	0.5468	0.1281	-0.5888	-0.9724	-0.7258	9.7303	2.0928	0.1788	-6.3028	-2.9838	-5.536	-0.3422	-0.4683	0.042
-1.7315	-0.7173	9.6403	-0.3682	-0.5658	-0.5859	1.3522	0.668	-1.3547	0.7557	0.5042	9.756	-0.1218	0.4492	-0.3118	-0.5698	-0.9258	-0.7045	10.0906	2.268	0.5847	-6.3599	-2.9355	-5.1025	-0.3242	-0.4503	0.072
-1.8562	-0.5451	9.2359	-0.5546	-0.7866	-0.4452	1.2968	0.6205	-1.3772	1.1003	0.4458	9.5882	-0.276	0.4195	-0.2819	-0.6051	-0.9268	-0.7052	9.8596	1.6284	0.7495	-6.6348	-2.5858	-5.3589	-0.3362	-0.4803	0.06
-2.1421	-0.6592	9.4598	-0.2476	-0.8113	-0.6597	1.2971	0.6681	-1.3783	0.8159	1.1973	9.932	-0.2743	0.4765	-0.1851	-0.5883	-0.9492	-0.726	10.0313	1.744	0.5253	-6.4851	-1.9511	-5.9728	-0.3362	-0.4743	0.048
-1.6767	-0.7755	9.4688	-0.2181	-0.935	-0.6662	1.2969	0.6443	-1.3778	0.8102	0.7349	9.5833	-0.4269	0.5037	-0.0584	-0.5898	-1.0188	-0.7253	9.9683	1.5107	0.2958	-6.7287	-1.0727	-6.3864	-0.3362	-0.4803	0.066
-1.7966	-0.1413	9.353	0.6399	-1.0802	-1.0987	1.2605	0.6439	-1.3787	0.6333	0.6772	9.4061	-0.3672	0.4473	-0.1866	-0.6078	-1.0191	-0.747	9.7419	1.7449	0.7476	-7.0635	-0.1945	-6.7685	-0.3362	-0.4863	0.048
-2.0273	-0.4866	9.4051	1.0084	-0.9586	-1.1513	1.2765	0.5988	-1.4659	0.99	0.1577	9.8758	-0.6716	0.8552	-0.2208	-0.6071	-1.0196	-0.7043	10.1443	1.8598	0.3	-7.8899	-0.0468	-7.3075	-0.3362	-0.4683	0.06
