1494_acc_x	1494_acc_y	1494_acc_z	1494_gyro_x	1494_gyro_y	1494_gyro_z	1494_mag_x	1494_mag_y	1494_mag_z	1497_acc_x	1497_acc_y	1497_acc_z	1497_gyro_x	1497_gyro_y	1497_gyro_z	1497_mag_x	1497_mag_y	1497_mag_z	1498_acc_x	1498_acc_y	1498_acc_z	1498_gyro_x	1498_gyro_y	1498_gyro_z	1498_mag_x	1498_mag_y	1498_mag_z
-1.7195	3.3933	8.6104	-19.8819	3.4793	3.7686	0.7439	-1.0543	-0.8099	1.7165	1.2738	10.0403	-0.8408	-0.7082	1.8076	-0.7147	0.1236	-0.5637	9.8886	-0.4161	0.8394	5.6975	-1.4083	4.4485	-0.8025	-0.8416	0.1262
-2.1163	3.451	8.9972	-21.9533	3.8393	3.2498	0.7787	-0.2236	-1.4766	1.6489	1.7955	9.5208	-0.7488	-0.5328	1.9667	-0.1634	-1.0172	-0.8495	9.5415	0.15	1.0652	6.8401	-1.5828	4.7715	-0.7829	-0.2944	-0.9887
-2.1803	3.5071	8.7138	-23.5057	4.3106	2.6747	0.7438	-0.2431	-1.5006	1.8789	1.8533	9.6405	-0.3475	-0.4051	1.7264	-0.1274	-1.0169	-0.8703	9.5989	0.2066	1.008	8.0128	-1.5739	5.104	-0.7613	-0.3112	-0.902
-2.1718	3.3946	9.1088	-24.2394	3.9393	2.5057	0.7585	-0.1762	-1.4322	1.8153	1.969	9.2935	0.0196	-0.6162	1.5088	-0.1642	-0.9951	-0.893	9.3574	0.0372	0.6532	8.9107	-1.5944	5.592	-0.653	-0.3235	-0.936
-2.1112	3.1118	9.2223	-24.1178	3.8744	2.5039	0.7391	-0.1753	-1.4773	2.0473	1.5046	9.4703	0.7323	0.0592	1.2839	-0.1465	-0.9954	-0.9145	9.9458	0.2634	0.7815	9.9914	-1.8589	5.8487	-0.7259	-0.2797	-0.9477
-1.7072	3.168	9.1745	-23.6619	3.6129	2.5581	0.7812	-0.2457	-1.4548	1.6457	1.7953	9.3477	1.2248	0.1531	1.0744	-0.1447	-0.9466	-0.8906	9.7759	0.0367	1.07	10.5447	-2.0795	5.7398	-0.7276	-0.3428	-0.9563
-2.577	3.3949	9.1003	-22.3549	2.8795	2.9694	0.7783	-0.2004	-1.4319	1.8158	1.6789	9.2932	2.0861	0.308	0.7463	-0.145	-1.0397	-0.8275	9.8896	0.0934	0.8973	11.4068	-2.3058	5.7212	-0.7459	-0.3431	-0.9571
-1.9967	3.1682	9.1684	-20.8927	2.6377	3.3051	0.7747	-0.1554	-1.4311	1.9343	1.5629	9.5259	2.7019	0.4335	0.477	-0.2026	-1.0682	-0.897	9.9949	0.2071	0.3158	12.0807	-2.4638	5.4287	-0.7459	-0.3431	-0.9571
-1.8144	2.999	9.5669	-19.4948	1.7879	3.5276	0.7758	-0.1783	-1.4536	1.9342	1.6209	9.5259	2.9504	0.3592	0.0146	-0.1641	-1.0181	-0.8717	9.4182	0.5466	0.7706	12.5661	-2.6137	4.7971	-0.7821	-0.2987	-0.9672
-2.0002	2.8848	8.9985	-17.942	1.3877	3.2721	0.7189	-0.1279	-1.4329	1.8174	1.9692	9.4088	2.9498	0.2393	-0.0499	-0.1281	-1.0178	-0.8925	9.9494	0.0367	0.9569	13.0231	-2.8275	4.3483	-0.727	-0.2979	-0.9649
-2.168	3.2251	9.2778	-15.8105	0.8672	3.2611	0.7571	-0.177	-1.4765	1.8739	1.6208	9.3518	2.4329	0.1739	-0.4265	-0.1282	-0.9948	-0.9139	9.5883	-0.1892	0.483	13.598	-2.8225	3.5384	-0.7273	-0.3203	-0.9606
-2.4043	2.9984	9.0467	-13.9232	0.2966	3.1552	0.7733	-0.1562	-1.4754	1.7559	1.4467	9.1188	1.8525	0.0115	-0.6825	-0.1672	-1.0918	-0.9187	10.0021	-0.0762	0.6663	13.8383	-2.8485	3.0392	-0.7276	-0.3428	-0.9563
-2.0544	2.8852	9.1667	-12.0664	-0.2716	3.0183	0.7704	-0.1109	-1.4525	1.8168	1.679	9.3508	1.363	-0.1861	-0.8767	-0.1629	-0.9703	-0.87	9.88	0.3769	0.43	14.0783	-2.7826	2.545	-0.7634	-0.276	-0.9707
-2.1075	2.9423	9.3914	-9.7214	-0.7966	2.977	0.7196	-0.1276	-1.4107	1.7596	1.7951	9.3499	1.0295	-0.3132	-1.3147	-0.1086	-0.9693	-0.8901	9.7101	0.2635	0.7184	14.1069	-2.8107	2.3573	-0.7097	-0.3158	-0.9813
-2.1605	2.9428	9.616	-6.3714	-1.555	2.0979	0.7585	-0.1762	-1.4322	1.7604	1.3309	9.3493	1.1556	-0.0344	-1.3998	-0.1269	-0.9699	-0.8908	10.0019	0.5465	0.6657	14.348	-2.4415	2.0652	-0.7262	-0.3022	-0.9434
-2.1654	2.9423	9.3901	-2.7781	-2.4514	2.017	0.7336	-0.1079	-1.4761	2.0417	1.6203	9.182	1.0354	0.1535	-1.4275	-0.127	-0.9469	-0.9121	9.9375	0.2637	0.3729	14.5577	-2.1016	1.7097	-0.7637	-0.2984	-0.9665
-1.8799	3.3946	9.2277	-1.1964	-3.1872	1.6886	0.7362	-0.13	-1.4543	2.0451	1.5045	9.3549	1.5003	0.5259	-1.6616	-0.1439	-0.9687	-0.8471	9.8298	0.0935	0.8377	14.7675	-1.8836	1.3168	-0.7462	-0.3656	-0.9528
-1.8216	2.8285	9.2278	2.6068	-4.76	0.8451	0.774	-0.1558	-1.4532	2.103	1.6205	9.4138	1.7146	0.6991	-1.5014	-0.1457	-1.0175	-0.871	9.7031	0.2072	0.3683	14.974	-1.4784	0.7169	-0.7437	-0.3067	-0.9227
-1.9869	2.9426	9.6196	9.2181	-5.8952	0.1485	0.7362	-0.13	-1.4543	1.9295	1.8528	9.2955	2.1433	0.9578	-1.2755	-0.2014	-1.0203	-0.8953	9.6444	0.3204	0.367	15.2714	-1.1031	-0.0093	-0.7445	-0.3024	-0.9442
-2.1701	2.7155	9.1639	17.808	-7.8065	-0.9075	0.7895	-0.1354	-1.4743	1.8179	1.679	9.4085	3.0815	1.3649	0.1622	-0.1636	-0.9712	-0.8922	9.9434	0.2635	0.6648	14.9925	-0.9135	-0.1211	-0.7619	-0.3562	-0.8934
-1.9894	3.1688	9.5071	24.7231	-9.3254	-0.8449	0.7729	-0.133	-1.4307	1.7557	1.5627	9.1189	5.6051	1.9269	2.297	-0.1262	-0.9921	-0.8473	9.7018	0.3205	0.3098	14.7106	-0.4151	-0.3714	-0.7827	-0.3436	-0.9587
-2.0988	2.66	9.786	29.1111	-10.1031	-0.0246	0.7765	-0.1779	-1.4315	1.8669	1.9686	9.0062	6.0592	2.1614	3.0165	-0.1635	-0.9942	-0.8709	9.9328	0.0941	0.1396	14.3075	0.1739	-0.4299	-0.7262	-0.3022	-0.9434
-2.2222	3.1689	9.4458	34.5699	-10.3105	0.4789	0.7718	-0.1569	-1.5197	1.6459	1.6793	9.3476	5.1406	1.996	2.9426	-0.1104	-1.0181	-0.914	9.6457	-0.0193	0.4257	13.439	0.3787	-0.9704	-0.8359	-0.3305	-0.9223
-1.7059	2.9417	9.2305	39.1145	-10.3875	1.3542	0.7578	-0.1766	-1.4544	1.9808	2.0264	9.0084	4.2561	1.7001	2.3721	-0.1787	-0.9442	-0.8033	9.8238	0.2636	0.5457	12.485	0.8192	-0.8467	-0.7076	-0.3511	-0.9126
-2.2824	2.8857	9.3312	41.8297	-10.3399	1.9812	0.756	-0.1541	-1.454	1.809	1.8526	8.9473	3.7385	1.661	2.0887	-0.147	-1.0424	-0.8941	9.764	0.2071	0.4862	11.1012	1.1427	-0.695	-0.7451	-0.3474	-0.9356
-1.4848	4.0728	8.7859	41.3092	-10.6909	1.9061	0.7041	-0.1948	-1.5013	1.8168	1.679	9.3508	3.3091	1.5456	2.0822	-0.1609	-0.9675	-0.8034	10.0021	-0.0762	0.6663	9.6512	1.565	-0.9095	-0.7424	-0.3377	-0.8754
-1.8479	4.015	8.0446	32.5619	-9.3568	-0.2664	0.7942	-0.2032	-1.4976	1.5344	2.0859	9.5189	3.0915	1.5039	2.3879	-0.1263	-0.969	-0.8686	9.7019	0.094	0.31	7.4991	1.8375	-0.7237	-0.7246	-0.3824	-0.8661
-1.6065	3.9025	8.5009	23.7271	-7.4058	-1.1535	0.7193	-0.1511	-1.4776	2.3318	1.7362	9.4759	2.9125	1.4985	1.9231	-0.1465	-0.9954	-0.9145	9.9352	0.0374	0.2564	5.1905	1.75	-0.8968	-0.7248	-0.3332	-0.8961
-2.1277	4.0726	8.4903	15.4417	-5.4889	-2.2867	0.7258	-0.2414	-1.5014	1.9879	1.6206	9.354	2.8562	1.4047	1.334	-0.1608	-0.9905	-0.7821	9.7618	-0.1891	0.3698	3.2225	1.929	-0.7793	-0.7432	-0.4051	-0.8626
-1.9576	3.959	8.3244	8.559	-3.7048	-3.3893	0.7776	-0.2008	-1.454	1.7017	1.7371	9.2911	2.5891	1.7403	0.8454	-0.182	-0.9718	-0.8929	9.885	-0.246	0.6641	1.2575	1.9212	-0.4859	-0.7459	-0.3431	-0.9571
-1.5952	3.394	9.008	4.6625	-2.4089	-3.7587	0.7243	-0.2421	-1.5457	1.6997	1.6209	9.1756	2.5661	2.0394	0.389	-0.1823	-1.0418	-0.8511	10.0597	-0.4159	0.6094	-0.2211	2.0362	-0.6235	-0.7643	-0.3434	-0.9579
-1.9425	3.281	9.0005	3.7193	-2.0199	-3.6251	0.7258	-0.2414	-1.5014	1.9924	1.5048	9.5846	2.968	2.1993	0.1185	-0.1825	-0.9957	-0.8937	9.9448	-0.2461	0.7236	-1.6988	2.1501	-0.6992	-0.761	-0.2888	-0.9063
-1.5376	3.7336	9.0099	3.9356	-1.4984	-3.0824	0.7427	-0.2202	-1.4781	1.884	1.3893	9.8706	2.6984	2.4646	-0.1865	-0.1293	-1.0427	-0.9156	10.3492	-0.4158	0.4403	-2.5647	2.5341	-0.9512	-0.7262	-0.3022	-0.9434
-1.7075	3.5076	9.1751	4.6072	-1.3891	-2.5522	0.7301	-0.286	-1.48	2.0494	1.5047	9.5856	2.6707	2.4784	-0.4643	-0.1267	-1.016	-0.8482	9.8263	-0.1894	0.6629	-3.0854	2.7517	-0.6877	-0.7827	-0.3436	-0.9587
-1.7666	3.6208	9.1177	5.2196	-0.9454	-1.2704	0.7376	-0.176	-1.5216	2.0412	1.2721	9.124	2.519	2.1054	-0.968	-0.1639	-1.0642	-0.8291	10.2928	-0.0762	0.5555	-3.6426	2.8558	-0.9568	-0.7654	-0.3616	-0.9751
-1.8149	3.6783	9.5682	6.2876	-0.8254	-0.5535	0.7452	-0.2423	-1.4563	1.7014	1.9112	9.2913	2.0585	1.8413	-1.0709	-0.2014	-1.0203	-0.8953	9.7079	-0.0195	0.602	-4.232	3.0231	-1.3154	-0.7649	-0.3883	-0.9493
-2.2272	3.2817	9.2202	9.1543	-0.8338	0.504	0.76	-0.2223	-1.4995	1.7524	1.6206	8.946	1.8408	1.3887	-1.1758	-0.161	-0.9445	-0.8248	9.8896	0.0368	0.8973	-4.6303	2.8133	-1.2616	-0.7276	-0.3428	-0.9563
-1.7049	3.338	9.2877	8.5151	-0.6278	1.0643	0.7632	-0.244	-1.4556	1.422	1.796	9.5741	1.5297	0.9596	-1.0959	-0.1438	-0.9918	-0.8258	9.9998	-0.1328	0.5496	-5.0052	2.8265	-1.7539	-0.7081	-0.3244	-0.9383
-1.9984	3.9039	9.1134	7.939	-0.0137	1.4226	0.7427	-0.2202	-1.4781	1.9308	1.6788	9.353	1.6412	0.3502	-0.6149	-0.1446	-0.9696	-0.8693	9.7044	-0.1892	0.427	-5.4074	2.4696	-2.0798	-0.7621	-0.307	-0.9235
-2.1211	3.3373	8.7711	6.9042	0.3726	1.0314	0.7221	-0.1964	-1.5006	1.5938	1.9698	9.6352	1.7315	0.0488	-0.7753	-0.1097	-1.0172	-0.8919	10.1778	0.2634	0.6695	-5.9046	2.3614	-2.5468	-0.7284	-0.3385	-0.9778
-1.487	3.8461	8.6726	5.4408	0.4451	0.3814	0.7092	-0.239	-1.4578	1.5974	1.7379	9.808	1.8844	-0.0708	-0.9001	-0.1268	-0.993	-0.8695	9.532	0.207	0.5982	-6.3328	2.1204	-2.4324	-0.764	-0.3926	-0.9278
-1.7089	3.8471	9.1193	4.2518	0.5173	-0.422	0.7258	-0.2414	-1.5014	1.5331	1.6215	9.403	1.5787	-0.1532	-0.9974	-0.1446	-0.9696	-0.8693	9.709	0.0937	0.6602	-6.9154	1.8519	-2.3802	-0.7267	-0.3471	-0.9348
-2.0672	3.8464	8.604	2.9409	0.5974	-1.318	0.7625	-0.2444	-1.4777	2.0893	2.0839	8.7223	1.2439	-0.2569	-1.2806	-0.1463	-1.0415	-0.8719	9.825	0.2636	0.6041	-7.1607	1.8543	-2.3163	-0.7243	-0.3599	-0.8704
-1.9405	3.9039	9.1146	2.6946	0.184	-2.1657	0.7625	-0.2444	-1.4777	2.0383	1.6782	9.0091	0.6355	-0.29	-1.6573	-0.1457	-1.0175	-0.871	10.0702	-0.0767	1.1345	-7.1949	1.7985	-2.6289	-0.7265	-0.3963	-0.9048
-1.7642	3.621	9.2306	2.5143	0.6813	-2.7974	0.7236	-0.1957	-1.4563	1.7614	2.0274	9.4655	-0.1577	-0.4428	-2.0385	-0.1641	-1.0181	-0.8717	9.5463	-0.0767	1.2989	-7.1754	1.783	-3.5907	-0.7618	-0.2845	-0.9278
-2.0587	3.9038	8.9993	1.6009	0.9541	-2.8218	0.7272	-0.2406	-1.4571	1.4196	1.9119	9.4589	-0.9535	-0.4904	-2.0468	-0.145	-1.0397	-0.8275	9.4806	-0.1896	0.9476	-7.0903	1.7306	-4.2141	-0.7262	-0.3022	-0.9434
-2.0065	3.2239	8.7169	1.0844	1.2855	-2.3803	0.7463	-0.2652	-1.4789	1.7597	1.7371	9.3498	-1.4712	-0.2663	-2.0464	-0.0895	-0.9908	-0.8459	10.002	0.2634	0.666	-6.942	1.8274	-4.644	-0.7092	-0.3425	-0.9555
-1.822	3.4512	9.2291	0.2644	1.9139	-2.1766	0.7607	-0.2219	-1.4773	1.5357	1.9699	9.5765	-1.8977	-0.4561	-2.425	-0.1642	-0.9951	-0.893	9.9422	0.2069	0.6065	-6.9446	1.7395	-4.8966	-0.7629	-0.3027	-0.945
-2.0033	3.9601	8.8877	-0.4649	2.3801	-1.8546	0.7668	-0.289	-1.4564	1.9325	1.3307	9.4103	-1.805	-0.3656	-2.4221	-0.1652	-1.066	-0.8734	10.1181	-0.0196	0.6102	-6.7653	1.4699	-5.4393	-0.7819	-0.3479	-0.9372
-1.9478	3.9032	8.7759	-1.1326	2.9436	-1.0355	0.7394	-0.1985	-1.522	1.8148	1.6208	9.2354	-1.3117	-0.0918	-2.5348	-0.1469	-1.0654	-0.8728	9.9456	0.603	0.7812	-6.7088	1.4454	-5.8749	-0.7438	-0.3784	-0.8883
-2.1178	3.7905	8.9414	-1.9545	3.2079	-0.9366	0.7456	-0.2655	-1.501	1.8726	1.7949	9.2944	-0.5437	0.1159	-2.6465	-0.1649	-0.996	-0.9152	9.7091	-0.0195	0.6603	-5.9766	1.3825	-6.4107	-0.7459	-0.3431	-0.9571
-2.1167	3.9604	8.9982	-4.0855	3.8558	-1.0139	0.7628	-0.2676	-1.5225	2.0479	1.7368	9.5282	-0.5776	-0.1923	-2.623	-0.1457	-1.0175	-0.871	9.6515	0.2635	0.7172	-6.409	0.9642	-6.7087	-0.7289	-0.3835	-0.9692
-1.8366	3.5631	8.5518	-6.7933	4.9671	-0.7997	0.7265	-0.241	-1.4792	1.812	1.3305	9.0621	-0.1492	-0.0813	-2.524	-0.1281	-1.0178	-0.8925	9.8275	-0.2461	0.7213	-6.7772	0.7243	-6.7187	-0.7065	-0.3329	-0.8954
-1.4883	3.9592	8.6163	-11.1167	6.1604	-0.7111	0.7276	-0.2638	-1.5018	1.6978	2.0851	9.1184	-0.2466	-0.3109	-2.1906	-0.1268	-0.993	-0.8695	9.9973	0.2637	0.4325	-6.8647	0.1402	-6.5321	-0.6705	-0.3281	-0.9153
-1.6679	3.7324	8.33	-16.6897	7.427	-0.7781	0.743	-0.2434	-1.5228	1.9328	1.795	9.4685	-0.0647	-0.2923	-2.0033	-0.1283	-1.1109	-0.8294	10.0043	0.4898	0.7825	-7.786	-0.3365	-6.5815	-0.7265	-0.3246	-0.9391
-1.6644	3.9591	8.4998	-22.8737	8.405	-0.8876	0.7434	-0.2199	-1.4559	1.706	1.099	9.4634	-0.0072	-0.1049	-1.4429	-0.1098	-0.9942	-0.9132	9.8801	0.1505	0.4302	-7.846	-0.7645	-6.6038	-0.7089	-0.3918	-0.9255
-1.7787	3.5065	8.5529	-28.3293	8.7451	-0.9547	0.7034	-0.1951	-1.5235	1.7607	1.7952	9.4076	0.5387	0.0404	-0.8173	-0.1641	-1.0181	-0.8717	10.125	0.5462	0.9599	-7.7184	-1.0162	-6.3082	-0.7095	-0.365	-0.9512
-1.7813	3.7327	8.4405	-32.776	9.5381	-0.7874	0.7481	-0.2876	-1.4793	1.6989	2.0852	9.1761	0.5617	-0.0248	-0.1086	-0.1471	-1.0194	-0.9154	10.0068	0.0934	0.8996	-7.3753	-1.637	-6.1269	-0.7438	-0.3784	-0.8883
-1.8883	3.3373	8.8325	-36.0076	9.5401	-1.5069	0.7023	-0.1723	-1.5009	1.8128	2.143	9.1783	1.8326	0.037	1.3551	-0.1085	-0.9924	-0.8688	9.8297	0.2633	0.8375	-6.6989	-1.6765	-6.1652	-0.7262	-0.3738	-0.909
-2.0572	3.451	9.0548	-37.5952	9.0968	-0.9714	0.7589	-0.1994	-1.4769	1.9887	1.7948	9.4119	2.1021	0.1227	2.0386	-0.1446	-0.9696	-0.8693	9.8368	0.263	1.1878	-5.8349	-1.7533	-5.9588	-0.6911	-0.3647	-0.9505
-1.9945	3.508	9.282	-37.5381	8.3909	-0.4088	0.7416	-0.1974	-1.4555	1.9387	2.1435	9.8149	2.3399	0.2629	2.8774	-0.1632	-0.9242	-0.9126	9.5451	0.0366	1.2404	-4.5991	-2.1133	-5.6154	-0.7449	-0.3966	-0.9055
-2.465	3.5643	8.9337	-36.9619	7.8405	-0.1788	0.7571	-0.177	-1.4765	1.6959	1.9689	9.003	2.883	0.3948	3.7805	-0.1287	-1.0418	-0.8934	10.1216	0.2633	0.7851	-3.4307	-1.8243	-5.5469	-0.7267	-0.3471	-0.9348
-2.0458	2.7728	9.5616	-35.1046	7.4108	-0.0024	0.7416	-0.1974	-1.4555	1.9908	1.8529	9.5273	2.4273	0.5638	3.6259	-0.1266	-1.039	-0.8268	9.771	0.4898	0.8361	-2.254	-2.0037	-4.9455	-0.743	-0.3826	-0.8668
-2.52	2.8287	9.0439	-32.0616	6.3672	0.0952	0.7027	-0.1487	-1.434	1.8776	1.9693	9.5829	1.7916	0.3997	2.7829	-0.182	-0.9718	-0.8929	9.5999	0.5463	1.066	-1.1464	-2.0196	-4.9238	-0.7646	-0.3658	-0.9536
-1.8207	3.3381	9.2853	-28.8674	5.0969	0.3399	0.7895	-0.1354	-1.4743	1.6475	1.9695	9.4633	1.7613	0.4018	2.7518	-0.1811	-1.0169	-0.828	10.0175	0.0929	1.425	-0.0997	-2.0051	-4.8379	-0.7624	-0.3294	-0.9192
-2	2.6584	8.9981	-25.4878	4.2709	0.1991	0.7535	-0.132	-1.4757	1.8217	1.9694	9.6395	1.3366	0.1023	2.0929	-0.128	-1.0409	-0.8712	9.6	0.2632	1.0663	0.6689	-2.2286	-4.9487	-0.7278	-0.3653	-0.952
-1.9363	3.0552	9.2823	-22.8704	3.4183	1.0423	0.7391	-0.1753	-1.4773	1.6999	1.5049	9.1754	1.7088	0.3842	1.8558	-0.1262	-0.9921	-0.8473	9.0117	-0.1328	0.9381	1.381	-2.001	-4.477	-0.7448	-0.3249	-0.9399
-2.3498	2.6584	8.8779	-18.7895	2.5735	0.2551	0.7729	-0.133	-1.4307	1.8649	1.8524	8.8907	2.1112	0.4286	1.4284	-0.1643	-0.9721	-0.9144	9.4195	0.2635	0.8292	1.8764	-2.2257	-4.2758	-0.6916	-0.338	-0.9762
-1.9349	2.7156	9.3381	-14.4365	1.2572	0.7795	0.7369	-0.1296	-1.4322	2.6716	1.7355	9.3671	2.0519	0.614	1.4321	-0.1266	-1.039	-0.8268	9.9507	-0.2464	1.0155	2.2524	-2.4232	-3.7622	-0.7084	-0.3468	-0.934
-1.9398	2.885	9.1126	-10.5984	0.5556	0.9836	0.7678	-0.0888	-1.4742	2.2731	1.5041	9.3592	2.0841	0.5331	1.1836	-0.128	-1.0409	-0.8712	9.2543	0.2631	1.351	2.4748	-2.1616	-3.0681	-0.7643	-0.2717	-0.9922
-2.275	2.8297	9.6698	-7.521	0.115	1.3176	0.774	-0.1558	-1.4532	1.7075	2.0857	9.6375	1.9332	0.3692	0.808	-0.1849	-1.0685	-0.9185	9.6527	0.2635	0.7756	2.6642	-2.11	-2.6328	-0.744	-0.3292	-0.9184
-2.5194	2.0362	9.0424	-4.8394	-0.2066	1.9629	0.7207	-0.1504	-1.4333	2.0474	1.4466	9.4702	1.779	0.2782	0.8354	-0.1456	-1.0406	-0.8497	9.5941	0.2635	0.7744	2.6032	-1.7441	-2.4579	-0.747	-0.2896	-1.0087
-2.0495	2.829	9.3924	-2.827	-0.2442	2.2147	0.7516	-0.1096	-1.4754	1.6953	1.6787	8.9449	1.6593	0.2629	0.5562	-0.1463	-1.0415	-0.8719	9.9469	0.4331	0.8397	2.8209	-1.598	-2.2038	-0.7475	-0.3345	-1.0001
-1.8736	3.0556	9.5093	-0.6337	-0.6698	2.1146	0.7711	-0.1105	-1.4303	1.5895	1.9115	9.4045	1.6909	0.1206	0.3063	-0.1268	-0.993	-0.8695	9.893	0.4896	1.072	3.0067	-1.0538	-1.8973	-0.7078	-0.3736	-0.9083
-1.9941	2.942	9.2809	1.2582	-0.4433	2.0663	0.7891	-0.1122	-1.4296	1.757	1.4467	9.1765	1.388	0.1392	0.0261	-0.2003	-0.9724	-0.8935	9.832	0.4331	0.9541	3.01	-1.1497	-1.6545	-0.7621	-0.3786	-0.8891
-2.2268	2.8288	9.2194	1.1973	-0.4198	2.252	0.8244	-0.1159	-1.4502	1.5834	2.3754	9.1166	1.3574	0.169	0.0574	-0.1649	-0.996	-0.9152	9.8907	0.2066	0.9555	3.2271	-1.0332	-1.464	-0.7437	-0.3067	-0.9227
-1.53	3.338	9.3478	1.0139	-0.5024	2.1561	0.7506	-0.0867	-1.4528	1.7044	2.0275	9.4644	1.1146	0.1236	-0.1928	-0.1111	-1.0191	-0.9362	10.124	0.0367	0.902	3.1955	-0.6964	-1.4148	-0.7441	-0.4008	-0.884
-1.4756	3.1678	9.1793	-0.4769	0.1336	1.957	0.7405	-0.1746	-1.433	1.8732	1.4467	9.294	0.7783	-0.0168	-0.3534	-0.1262	-0.9921	-0.8473	9.5953	0.2634	0.8328	2.8902	-1.0306	-1.3373	-0.7638	-0.3701	-0.9321
-2.2874	3.2249	9.106	-1.6656	0.2388	1.7409	0.7164	-0.1058	-1.4547	1.8775	1.447	9.5247	0.227	-0.304	-0.5811	-0.1268	-0.993	-0.8695	9.5461	0.5461	1.2983	2.7413	-0.9742	-0.8992	-0.7454	-0.3698	-0.9313
-2.0532	2.8287	9.223	-2.5172	0.6432	1.5051	0.738	-0.1524	-1.4547	1.8224	2.2016	9.6975	0.2864	-0.5771	-0.6794	-0.1463	-1.0415	-0.8719	9.6526	0.6598	0.7752	2.4705	-1.2224	-0.4764	-0.7095	-0.365	-0.9512
-1.9977	2.8851	9.1114	-3.0956	0.837	1.0162	0.7567	-0.1538	-1.4318	1.9882	2.0849	9.4122	0.1042	-0.568	-0.8043	-0.182	-0.9718	-0.8929	9.8345	0.1499	1.0711	2.2892	-1.4071	-0.2679	-0.7265	-0.3246	-0.9391
-1.8141	2.5462	9.566	-2.5488	0.4575	0.9126	0.7193	-0.1511	-1.4776	1.6488	1.2152	9.4624	-0.2588	-0.367	-1.0191	-0.1446	-0.9696	-0.8693	10.014	-0.0202	1.25	2.4794	-1.3565	0.2293	-0.7273	-0.392	-0.9262
-2.1699	2.4324	9.1633	-1.8196	-0.0312	1.0526	0.7387	-0.1521	-1.4326	1.5921	1.6796	9.5195	-0.1332	-0.4713	-1.4524	-0.1283	-1.1109	-0.8294	9.9552	0.2629	1.2485	2.8445	-1.2647	-0.0786	-0.7448	-0.3249	-0.9399
-2.5704	2.603	9.381	-0.5377	0.1682	1.2792	0.738	-0.1524	-1.4547	1.9858	2.2008	9.297	-0.3163	-0.5836	-1.611	-0.147	-1.0424	-0.8941	9.8872	0.1501	0.7805	3.3076	-1.1517	0.1099	-0.7268	-0.4188	-0.9005
-1.9337	2.7157	9.3946	2.996	-0.489	0.7435	0.7549	-0.1313	-1.4314	1.9836	1.6204	9.1233	-0.9292	-0.7251	-1.6507	-0.2012	-1.0663	-0.8526	9.5988	0.2633	1.0079	3.493	-1.1859	0.1687	-0.7108	-0.334	-0.9985
-2.0605	2.8847	8.8844	8.0557	-0.9589	-0.0898	0.7549	-0.1313	-1.4314	1.8721	2.085	9.2947	-1.143	-1.2477	-2.2202	-0.1284	-1.0878	-0.8508	10.0643	0.0368	0.8425	4.325	-0.9253	0.3932	-0.7057	-0.3372	-0.8739
-2.0497	3.0555	9.3928	10.6773	-1.1724	-0.3665	0.8237	-0.1163	-1.4724	1.9868	1.6206	9.2963	-1.1388	-1.1701	-2.5579	-0.1255	-0.9911	-0.8251	9.9492	0.6595	0.9563	4.6945	-0.8395	0.4569	-0.6889	-0.3284	-0.9161
-1.7023	3.0552	9.4001	12.8086	-1.8075	-1.1835	0.7722	-0.1333	-1.4529	1.9889	1.6787	9.4117	-1.9959	-1.0996	-2.4406	-0.1824	-1.0188	-0.8724	9.8941	0.6027	1.1303	5.3673	-0.7827	0.1449	-0.7832	-0.3886	-0.9501
-2.573	2.8858	9.2686	17.5939	-2.3154	-2.9753	0.7575	-0.1534	-1.4097	1.7587	1.737	9.2921	-2.4865	-1.0385	-2.2585	-0.1446	-0.9696	-0.8693	9.5976	0.3765	0.9494	5.9244	-0.6428	0.4891	-0.7081	-0.3244	-0.9383
-1.8251	2.715	9.0583	21.0666	-3.0833	-3.7309	0.7189	-0.1279	-1.4329	1.7655	1.5053	9.6379	-2.3364	-1.1422	-2.0743	-0.1987	-1.0166	-0.8065	9.7733	0.7728	0.9526	6.4148	-0.4643	0.4019	-0.7268	-0.4188	-0.9005
-1.9363	2.9986	9.2822	18.7747	-3.8934	-2.8397	0.7858	-0.0905	-1.4735	1.8731	2.0851	9.3524	-2.6706	-1.0383	-2.1985	-0.1287	-1.0418	-0.8934	9.8883	0.4898	0.8385	6.6593	-0.2523	0.3493	-0.7832	-0.3886	-0.9501
-2.4006	2.8855	9.2158	17.2772	-4.4756	-2.031	0.7495	-0.0639	-1.4302	1.7584	1.9111	9.2923	-2.6987	-0.9674	-2.3823	-0.1457	-1.0175	-0.871	10.0066	0.7728	0.899	7.1185	0.1404	0.3047	-0.7475	-0.3345	-1.0001
-1.829	3.0543	8.8896	16.3308	-4.6401	-1.2681	0.7733	-0.1562	-1.4754	1.4857	1.6802	9.9211	-2.5156	-0.9136	-2.2868	-0.1811	-1.0169	-0.828	9.7686	0.6598	0.7192	7.149	0.7194	0.4903	-0.7638	-0.3701	-0.9321
-2.3454	3.2815	9.1049	15.3264	-4.2883	-0.3338	0.7747	-0.1554	-1.4311	1.8219	1.8534	9.6394	-2.7347	-1.0797	-1.9531	-0.1849	-1.0685	-0.9185	9.6467	0.5468	0.4835	6.8997	0.8187	0.2495	-0.7095	-0.365	-0.9512
-2.2317	2.885	8.9937	13.7743	-3.6926	0.3294	0.7186	-0.1047	-1.3882	1.7585	1.8531	9.2923	-2.6473	-1.3359	-1.7729	-0.1451	-1.0166	-0.8488	9.4803	0.7163	0.9467	6.4993	0.9774	0.261	-0.7065	-0.3329	-0.8954
-1.9967	3.2248	9.1685	12.4036	-3.3785	0.9836	0.8093	-0.1596	-1.4739	1.5878	2.3177	9.3473	-2.8081	-1.6041	-1.2558	-0.147	-1.0424	-0.8941	9.6539	0.3766	0.8339	5.9491	1.0413	0.5785	-0.7624	-0.3294	-0.9192
-2.2848	2.8855	9.2183	11.7957	-3.0048	1.2412	0.7524	-0.1092	-1.4532	1.7013	1.9692	9.2913	-3.1792	-1.7046	-0.9528	-0.1458	-0.9945	-0.8924	9.5976	0.3765	0.9494	5.6137	1.5295	1.01	-0.7076	-0.3511	-0.9126
-1.7061	3.3379	9.2313	11.5561	-2.2099	1.4832	0.7715	-0.1337	-1.475	2.0406	1.6203	9.1244	-3.3975	-1.5153	-0.3332	-0.1622	-0.9924	-0.8265	9.6538	0.4899	0.8338	5.0065	1.649	1.7339	-0.7432	-0.3334	-0.8969
-1.8821	3.168	9.1144	11.1618	-1.8355	2.235	0.7222	-0.1497	-1.389	1.7102	1.1573	9.6941	-3.6765	-1.7037	-0.1548	-0.162	-1.0154	-0.8052	9.586	-0.1324	0.3662	3.9322	1.9657	2.0378	-0.7273	-0.392	-0.9262
-2.1248	3.3936	8.6019	9.5789	-1.2944	2.7729	0.7067	-0.2169	-1.4796	1.7596	1.7951	9.3499	-3.9502	-1.633	-0.2483	-0.1463	-1.0415	-0.8719	9.6527	0.3767	0.7755	3.1333	2.1586	2.1782	-0.7445	-0.3024	-0.9442
-2.1235	3.3371	8.6582	5.6773	-0.9379	2.742	0.7174	-0.1287	-1.4772	2.1052	1.5626	9.5291	-3.5848	-1.6468	-0.0909	-0.1437	-1.0148	-0.8045	9.6503	0.3768	0.6588	2.2483	2.5575	2.919	-0.7262	-0.3738	-0.909
-1.9513	3.6765	8.6061	2.0543	0.1451	2.7982	0.7773	-0.1776	-1.4093	2.2155	1.8523	9.3586	-3.3089	-1.6779	-0.1817	-0.1456	-1.0406	-0.8497	9.2448	0.2069	0.8841	1.3606	2.5031	3.2638	-0.6908	-0.414	-0.9204
-1.8908	3.3937	8.7197	-1.7822	1.2079	2.7605	0.7743	-0.179	-1.498	1.8703	1.8527	9.1791	-3.1878	-1.8029	-0.1835	-0.1464	-1.0184	-0.8932	9.8214	0.4902	0.4287	0.2859	2.2414	3.32	-0.7273	-0.392	-0.9262
-2.0643	3.1107	8.7155	-4.9195	1.8547	2.6492	0.72	-0.1508	-1.4555	2.0514	1.6209	9.7011	-3.5261	-1.8936	-0.0961	-0.1628	-0.9933	-0.8487	9.8896	0.15	0.8972	-0.2345	1.9711	3.4336	-0.7638	-0.3701	-0.9321
-1.7652	3.3378	9.1736	-7.9366	2.1752	2.2188	0.7776	-0.2008	-1.454	1.9942	1.7371	9.7002	-3.4038	-1.808	-0.0004	-0.1832	-0.9966	-0.9159	9.8298	0.1501	0.8376	-0.5691	1.544	3.5993	-0.7473	-0.3838	-0.97
-2.1716	3.2248	9.1084	-9.8255	2.4783	2.1306	0.7247	-0.2185	-1.4788	2.048	1.6788	9.5282	-3.4672	-1.8173	0.2149	-0.1831	-1.0197	-0.8946	10.0056	0.2633	0.8411	-0.9353	1.4537	3.8143	-0.7087	-0.3693	-0.9298
-1.594	3.3375	9.0643	-10.1903	2.6893	1.7972	0.7549	-0.1313	-1.4314	2.2223	1.6787	9.7044	-3.1623	-1.827	0.3101	-0.1457	-1.0175	-0.871	9.593	0.0937	0.7162	-0.9967	1.2105	3.7398	-0.7256	-0.3289	-0.9176
-1.9414	3.3944	9.0572	-11.0437	2.7537	2.2287	0.6994	-0.127	-1.478	1.9268	2.1428	9.1805	-3.0731	-1.9866	0.3998	-0.1273	-1.04	-0.849	9.8836	0.2635	0.6052	-0.9961	1.2708	3.805	-0.7638	-0.3701	-0.9321
-1.589	3.1681	9.2898	-10.0986	2.7228	2.3231	0.6847	-0.147	-1.4348	1.8803	1.6793	9.698	-2.4892	-1.6911	0.4428	-0.1812	-0.9939	-0.8494	9.4815	0.6596	1.0052	-0.9649	1.1478	3.7982	-0.7456	-0.3206	-0.9614
-2.4165	3.0539	8.4823	-10.4952	2.6889	1.9814	0.7801	-0.2229	-1.4323	2.0399	1.3881	9.0664	-2.5781	-1.6469	0.196	-0.1648	-1.0191	-0.8939	9.6515	0.49	0.717	-0.936	1.1499	3.6431	-0.7643	-0.3434	-0.9579
-2.3415	2.9988	9.2737	-10.6781	2.6955	1.9502	0.7722	-0.1333	-1.4529	1.9315	1.9109	9.4109	-2.1781	-1.4959	0.1105	-0.1446	-0.9696	-0.8693	9.9482	0.0368	0.8985	-0.9376	0.9692	3.4476	-0.7257	-0.4006	-0.8833
-1.5323	3.0548	9.2344	-10.555	2.8989	1.4947	0.7153	-0.083	-1.4321	1.7634	1.5052	9.5226	-2.0249	-1.3801	0.2072	-0.1654	-1.02	-0.9161	9.8825	0.0371	0.5471	-0.9703	0.5152	3.1137	-0.727	-0.3696	-0.9305
-2.1099	2.9421	9.2785	-10.1913	2.5028	1.2048	0.7553	-0.1545	-1.4761	1.8791	1.0989	9.5819	-0.982	-1.0033	0.3179	-0.163	-0.9472	-0.8913	10.0677	0.2065	1.0174	-0.975	0.3084	2.6378	-0.7084	-0.3468	-0.934
-1.9938	2.4891	9.28	-9.4301	2.3076	0.9846	0.76	-0.1755	-1.3879	1.8774	2.0853	9.5831	0.8503	-0.256	1.4012	-0.1452	-0.9936	-0.8702	9.9468	0.6596	0.8395	-0.9747	-0.0882	2.5237	-0.7089	-0.3918	-0.9255
-2.291	3.1679	8.9365	-8.1193	2.2417	0.9555	0.7578	-0.1766	-1.4544	2.2177	1.2141	9.4155	2.3414	-0.0237	2.4387	-0.18	-0.946	-0.8476	9.2496	0.2633	1.1175	-1.0405	-0.4167	2.0418	-0.7437	-0.3067	-0.9227
-1.9365	3.3382	9.2829	-7.0548	1.7451	1.0655	0.7895	-0.1354	-1.4743	1.5881	1.5052	9.2886	2.5248	0.0316	2.5034	-0.1831	-1.0197	-0.8946	9.8249	0.6032	0.6037	-0.8549	-0.3902	2.1347	-0.7454	-0.3698	-0.9313
-1.9964	2.6587	9.1674	-6.3546	1.5322	1.2456	0.756	-0.1541	-1.454	1.5248	1.3889	8.9414	2.2568	0.2751	2.0126	-0.145	-1.0397	-0.8275	9.7113	0.4333	0.7766	-1.0678	-0.4515	2.3191	-0.7846	-0.4292	-0.963
-1.5962	3.0543	8.9509	-5.1366	1.2096	1.4853	0.7593	-0.1759	-1.4101	1.7036	1.8533	9.4065	2.3474	0.0921	1.9475	-0.106	-0.9426	-0.8227	9.7734	0.4331	0.9529	-1.0343	-0.608	2.4965	-0.6911	-0.3647	-0.9505
-1.9362	2.8287	9.2819	-4.3747	1.1208	1.608	0.7715	-0.1337	-1.475	1.8699	1.4465	9.1209	3.594	0.4764	3.1098	-0.1432	-0.9678	-0.8249	9.885	-0.1894	0.664	-0.9728	-0.5175	2.5318	-0.7668	-0.4022	-0.988
-1.8215	2.7719	9.2277	-3.8585	0.7317	1.7199	0.738	-0.1524	-1.4547	1.9173	2.0261	8.6613	3.0767	0.4681	2.8271	-0.1454	-0.9475	-0.9128	10.2976	-0.1897	0.7891	-1.1616	-0.6309	2.1243	-0.7624	-0.3294	-0.9192
-2.047	2.6594	9.5049	-2.6427	0.0121	1.2675	0.7873	-0.0897	-1.4292	1.817	1.5629	9.3507	1.984	0.4671	1.9528	-0.1634	-1.0172	-0.8495	9.4218	0.4332	0.9458	-1.0103	-0.7515	1.8687	-0.7268	-0.4188	-0.9005
-1.9914	2.4328	9.3928	-1.3932	-0.1338	1.0196	0.7387	-0.1521	-1.4326	1.7017	2.3755	9.3495	1.4053	0.3706	1.6058	-0.1273	-1.04	-0.849	9.5379	0.0935	0.8901	-0.7036	-0.9376	1.7325	-0.7078	-0.3019	-0.9426
-2.104	3.2256	9.5613	1.5001	-0.7918	0.235	0.7787	-0.1768	-1.365	2.1613	2.0848	9.5308	0.6128	0.1915	1.1315	-0.1628	-0.9933	-0.8487	9.9481	0.3199	0.8982	-0.4924	-0.9044	1.3917	-0.7829	-0.3661	-0.9544
-1.9372	2.6022	9.225	3.1126	-1.4887	0.9878	0.7542	-0.1317	-1.4536	1.6973	1.7949	9.0604	0.1594	0.3123	0.698	-0.1805	-0.993	-0.8272	10.0616	0.7729	0.7251	-0.4032	-0.6576	1.2182	-0.7673	-0.3755	-1.0138
-2.3981	2.8292	9.3286	4.7877	-1.8967	2.0899	0.7575	-0.1534	-1.4097	1.6483	2.1437	9.5212	-0.4496	0.1301	0.2252	-0.1819	-0.9948	-0.8715	9.8345	0.2631	1.071	-0.2561	-0.5287	0.697	-0.7092	-0.3425	-0.9555
-2.1037	2.7162	9.5603	12.1908	-3.2804	2.2512	0.7715	-0.1337	-1.475	1.7617	1.8533	9.4653	-0.8118	0.1586	-0.2404	-0.1642	-0.9951	-0.893	9.7678	-0.3592	0.6618	-0.2323	-0.3368	0.1801	-0.727	-0.3696	-0.9305
-1.9247	2.0939	9.7885	21.7291	-4.6863	1.647	0.7549	-0.1313	-1.4314	1.5861	2.0274	9.2316	-1.0867	0.0772	-0.3683	-0.1096	-1.0403	-0.8705	9.7698	0.6031	0.7777	0.1922	-0.0601	-0.2423	-0.764	-0.3209	-0.9622
-1.9891	2.716	9.5063	30.8096	-6.2914	0.973	0.7747	-0.1554	-1.4311	1.7666	1.5054	9.6956	-1.3628	-0.0102	-0.3728	-0.1446	-0.9696	-0.8693	9.7747	0.2632	1.0115	0.2432	0.5325	-0.924	-0.7281	-0.3878	-0.9477
-2.2811	2.7726	9.3874	38.9796	-7.1502	-0.6042	0.7567	-0.1538	-1.4318	1.8257	1.5634	9.8121	-1.6995	-0.152	-0.5026	-0.1824	-1.0188	-0.8724	10.0677	0.2631	1.0174	0.0849	0.6627	-1.2568	-0.7443	-0.3516	-0.9141
-1.5896	3.9606	9.2913	48.2452	-8.5792	-2.4749	0.7765	-0.1779	-1.4315	2.0404	1.7363	9.1245	-1.9725	-0.1077	-0.6892	-0.111	-1.0421	-0.9149	9.4218	0.2634	0.946	-0.3503	1.1321	-1.4765	-0.7256	-0.3289	-0.9176
-2.0667	3.1671	8.6027	51.4722	-9.7918	-3.4314	0.7373	-0.1528	-1.4769	1.7609	1.6791	9.4074	-2.3364	0.1182	-0.78	-0.1836	-1.0667	-0.8741	9.7066	0.2636	0.5433	-0.721	1.5967	-1.449	-0.7243	-0.3599	-0.8704
-1.8972	3.9026	8.4384	45.6511	-8.7756	-3.9087	0.7405	-0.1746	-1.433	1.8112	1.8527	9.0627	-2.5495	0.0679	-0.9374	-0.1629	-0.9703	-0.87	9.7724	0.0368	0.8949	-1.5809	1.5459	-1.3522	-0.7081	-0.3244	-0.9383
-1.7817	4.2987	8.4416	33.5511	-6.9197	-2.8653	0.7394	-0.1985	-1.522	1.7029	1.6792	9.3487	-2.3953	0.0711	-1.0594	-0.1458	-0.9945	-0.8924	10.1838	0.2631	0.9614	-2.5319	1.6776	-1.09	-0.7254	-0.3781	-0.8876
-1.3735	3.6194	8.5617	24.5324	-5.1246	-3.6039	0.7031	-0.1719	-1.4788	1.8141	2.027	9.2359	-2.7954	-0.08	-0.9739	-0.1824	-1.0188	-0.8724	9.776	-0.0765	1.0702	-3.6645	1.8079	-0.5785	-0.8183	-0.326	-0.943
-1.4819	3.4503	8.8976	17.1585	-3.84	-3.645	0.7625	-0.2444	-1.4777	1.7619	1.7372	9.4652	-3.2875	-0.3187	-0.953	-0.1445	-0.9927	-0.848	9.8837	0.0371	0.6055	-4.4293	1.691	-0.269	-0.7475	-0.3345	-1.0001
-2.0561	3.5644	9.1115	11.6116	-3.1617	-3.0222	0.8003	-0.2702	-1.4767	1.7059	1.7954	9.5218	-3.4687	-0.3929	-1.265	-0.1654	-1.02	-0.9161	9.9435	-0.0196	0.6651	-4.8894	1.6653	-0.1739	-0.7087	-0.3693	-0.9298
-1.8766	3.961	9.3982	8.8383	-2.83	-2.5568	0.747	-0.2648	-1.4567	1.8694	1.7366	9.1213	-3.7146	-0.4823	-1.2384	-0.1281	-1.0178	-0.8925	9.8262	0.1503	0.6625	-5.2877	1.6382	-0.0483	-0.7462	-0.3656	-0.9528
-1.9969	3.4512	9.169	7.0715	-2.4606	-2.1796	0.76	-0.2223	-1.4995	1.876	1.679	9.4673	-3.7494	-0.4424	-0.7748	-0.1837	-1.0436	-0.8954	9.7677	0.0371	0.6615	-5.4678	1.7261	0.3607	-0.744	-0.3292	-0.9184
-2.1174	3.2244	8.9403	6.0102	-1.3684	-1.2514	0.7643	-0.2668	-1.4781	1.9372	1.7372	9.6991	-3.6289	-0.6581	-0.8095	-0.1654	-1.02	-0.9161	9.9505	0.2631	1.015	-5.6781	1.8747	0.8351	-0.7646	-0.3658	-0.9536
-1.5991	3.6767	8.8392	5.0965	-1.1637	-0.5069	0.76	-0.2223	-1.4995	1.9847	1.6204	9.181	-2.9282	-0.3897	-0.2414	-0.1629	-0.9703	-0.87	9.831	0.0934	0.8961	-5.6454	2.2373	1.1331	-0.6889	-0.3284	-0.9161
-2.0623	3.7902	8.8297	3.2392	-0.6217	-0.4635	0.7607	-0.2219	-1.4773	1.8164	1.9111	9.3511	-2.3791	-0.0836	0.2336	-0.2185	-0.996	-0.8729	9.8297	0.2633	0.8375	-5.7052	2.2662	1.2901	-0.7467	-0.3388	-0.9786
-1.7126	3.96	8.9502	2.2063	0.0898	0.051	0.7412	-0.221	-1.5224	2.0488	1.8529	9.586	-1.9238	-0.3125	0.356	-0.1464	-1.0184	-0.8932	9.6527	0.2635	0.7756	-5.737	2.2682	1.1975	-0.7448	-0.3249	-0.9399
-2.1175	3.3942	8.9406	0.5631	0.7397	0.2838	0.7834	-0.2914	-1.5	1.7598	1.6791	9.3497	-1.4615	-0.3042	0.0209	-0.1433	-0.9448	-0.8463	9.8331	0.7161	1.0122	-5.644	2.1439	1.2211	-0.7062	-0.3821	-0.8653
-1.7761	3.2803	8.6654	-1.4801	0.7131	0.7394	0.761	-0.2451	-1.5221	2.0536	1.563	9.8164	-1.0008	-0.2741	-0.1286	-0.1649	-0.996	-0.9152	9.8394	-0.2466	1.305	-5.4888	1.8656	1.2361	-0.7278	-0.3653	-0.952
-1.4289	3.5064	8.6731	-3.2763	1.2519	0.8137	0.7423	-0.197	-1.4334	1.7039	1.6792	9.4063	-0.694	-0.2458	-0.1869	-0.126	-1.0151	-0.826	9.946	-0.2462	0.782	-5.1512	1.7399	1.1339	-0.7278	-0.3653	-0.952
-2.1079	3.5083	9.3925	-5.5009	1.4978	1.463	0.7445	-0.2427	-1.4785	2.1653	1.6788	9.7033	-0.8778	-0.4488	-0.3784	-0.1635	-0.9942	-0.8709	9.7734	0.5463	0.9528	-4.9628	1.4883	1.367	-0.7276	-0.3428	-0.9563
-1.6608	3.9028	8.669	-7.5407	2.0989	1.6621	0.7783	-0.2004	-1.4319	2.1607	1.8526	9.4728	-0.36	-0.5851	-0.2842	-0.1812	-0.9939	-0.8494	10.1826	0.2065	0.9031	-4.5287	1.2338	1.5672	-0.7445	-0.3024	-0.9442
-2.1752	3.1679	8.939	-9.5532	2.0878	1.7789	0.7787	-0.2236	-1.4766	1.8757	1.8531	9.4675	-0.9396	-0.4506	-0.3173	-0.1457	-1.0175	-0.871	9.6539	0.2068	0.834	-4.0391	1.1084	1.3088	-0.7276	-0.3428	-0.9563
-1.8922	3.7332	8.6639	-10.8925	2.5262	1.7587	0.7967	-0.2253	-1.4759	2.2751	1.5622	9.4747	-0.6007	-0.2692	-0.3717	-0.1294	-1.0197	-0.9369	9.8919	0.2632	1.0138	-3.514	0.8848	1.4169	-0.7286	-0.361	-0.9735
-1.8316	3.2805	8.7771	-11.8378	2.5092	1.385	0.7441	-0.2195	-1.4338	1.6992	1.9111	9.1759	-0.752	-0.1715	-0.4326	-0.1634	-1.0172	-0.8495	9.8885	-0.3028	0.8393	-3.2084	1.2184	1.3704	-0.71	-0.3383	-0.977
-2.2877	3.6211	9.1068	-12.659	2.8978	1.4573	0.7596	-0.1991	-1.4548	1.5345	1.3895	9.4605	-0.8442	-0.0544	-0.2765	-0.1287	-1.0418	-0.8934	9.7184	0.2631	1.127	-2.5634	1.1497	1.2688	-0.724	-0.3374	-0.8746
-1.6654	3.6194	8.4427	-13.0851	3.0491	1.1217	0.7247	-0.2185	-1.4788	1.707	1.7955	9.5795	-0.6296	0.1495	-0.1155	-0.1642	-0.9951	-0.893	10.1253	-0.2464	0.9607	-2.071	0.9596	1.224	-0.7284	-0.3385	-0.9778
-1.828	3.2808	8.9465	-13.4214	2.8802	0.9915	0.7647	-0.2433	-1.4113	2.2166	1.214	9.3578	0.2885	0.3119	0.0201	-0.2003	-0.9724	-0.8935	9.7724	0.0935	0.8949	-1.6744	1.1413	1.0137	-0.7078	-0.3736	-0.9083
-2.1153	3.7341	9.0542	-12.0822	2.4411	0.3947	0.7445	-0.2427	-1.4785	1.8781	1.6791	9.5826	0.5655	0.6084	0.1528	-0.1824	-1.0188	-0.8724	9.7736	-0.0198	0.9534	-1.2444	0.8009	0.8373	-0.7267	-0.3471	-0.9348
-2.1112	3.1118	9.2223	-9.0975	1.803	0.4132	0.7607	-0.2219	-1.4773	2.1579	1.5622	9.2995	0.6582	0.699	0.1557	-0.1825	-0.9957	-0.8937	9.5342	0.6032	0.7145	-0.8782	0.7998	0.5865	-0.7816	-0.3254	-0.9415
-2.1197	3.111	8.8272	-5.6884	0.702	-0.4155	0.7434	-0.2199	-1.4559	1.7653	1.6214	9.6381	1.0841	0.6227	0.3122	-0.1274	-1.0169	-0.8703	9.7125	0.2068	0.8352	-0.5378	0.4266	0.626	-0.7816	-0.3971	-0.9071
-2.0547	3.338	9.1675	-2.4603	-0.0702	-0.3082	0.7193	-0.1511	-1.4776	1.5334	1.3894	9.4028	0.9627	0.6293	0.2187	-0.1279	-1.0639	-0.8499	9.8883	0.2633	0.8387	-0.3827	0.4531	0.7503	-0.6916	-0.338	-0.9762
-1.8847	3.3376	9.0018	-0.0824	-0.2042	-0.182	0.7578	-0.1766	-1.4544	1.989	0.9823	9.3533	1.2402	0.6056	-0.0263	-0.1098	-0.9942	-0.9132	9.9434	0.2068	0.6648	0.0481	0.5992	0.8168	-0.7111	-0.3565	-0.9942
-2.173	3.3945	9.0523	0.8614	-0.4645	-0.4346	0.7945	-0.2264	-1.5423	1.757	1.4467	9.1765	1.0286	0.7965	-0.0856	-0.1629	-0.9703	-0.87	9.7686	0.6032	0.7193	0.0807	0.901	1.0805	-0.8186	-0.3484	-0.9387
-2.2323	3.7341	8.9953	1.0726	-0.8892	-0.0472	0.7761	-0.2015	-1.4984	2.2199	1.7946	9.5892	1.5456	0.8327	0.2595	-0.202	-1.0442	-0.8961	10.0103	0.2631	1.0746	0.2932	0.7494	0.7919	-0.7621	-0.307	-0.9235
-2.05	3.5083	9.3937	1.712	-1.0697	0.1338	0.7409	-0.1978	-1.4777	1.9879	1.6206	9.354	2.6156	1.0465	0.552	-0.1654	-1.02	-0.9161	9.947	0.2633	0.8399	-0.1739	0.8247	0.3345	-0.7265	-0.3963	-0.9048
-2.1089	3.2818	9.3356	1.2234	-1.2081	0.0967	0.7401	-0.1981	-1.4998	1.7006	1.0987	9.175	3.3501	1.1829	0.6544	-0.1458	-0.9945	-0.8924	9.9529	0.263	1.1318	-0.3012	0.4056	-0.1828	-0.7467	-0.3388	-0.9786
-1.7753	3.7898	8.7228	1.6202	-1.1308	-0.4548	0.7736	-0.1794	-1.5201	1.8223	1.6213	9.6391	3.8101	1.2978	0.6612	-0.1643	-0.9721	-0.9144	10.0677	0.2631	1.0174	-0.1104	0.0898	0.2329	-0.7278	-0.2936	-0.9864
-1.9366	3.4514	9.2831	2.26	-1.2409	-0.4565	0.7553	-0.1545	-1.4761	1.5883	2.0275	9.3469	3.9652	1.3932	0.5413	-0.1629	-0.9703	-0.87	9.4794	-0.2461	0.8893	-0.107	-0.1588	0.4366	-0.7448	-0.3249	-0.9399
-1.8851	4.0169	9.0031	4.1787	-1.6798	-1.3909	0.7769	-0.2011	-1.4762	1.6929	1.8526	8.8298	4.3085	1.7122	0.1814	-0.1444	-1.0157	-0.8267	9.6503	0.49	0.6587	-0.3543	0.0902	0.4208	-0.6897	-0.3241	-0.9376
-1.9978	3.0549	9.1117	4.8175	-1.9651	-1.5837	0.7401	-0.1981	-1.4998	2.0428	1.6204	9.2397	3.9156	1.8582	-0.1584	-0.1254	-1.0142	-0.8038	9.484	0.2632	1.1223	-0.5042	-0.2788	0.6192	-0.7451	-0.2757	-0.97
-1.9451	3.5072	8.888	4.2084	-1.8282	-1.5193	0.7452	-0.2423	-1.4563	1.7661	1.1571	9.6375	3.5206	1.8477	-0.4401	-0.1269	-0.9699	-0.8908	10.0092	0.1499	1.0163	-0.5039	-0.34	0.616	-0.6884	-0.3551	-0.8903
-2.2923	3.281	8.8803	5.1208	-2.2823	-1.5626	0.7365	-0.1532	-1.499	1.8185	1.9692	9.4665	3.6118	1.7847	-0.4407	-0.1268	-0.993	-0.8695	9.6013	-0.0765	1.125	-0.3754	-0.3493	1.0794	-0.7067	-0.3554	-0.8911
-1.7553	2.9425	9.6244	5.9424	-2.608	-1.6636	0.7967	-0.2253	-1.4759	1.8721	2.085	9.2947	3.642	1.8996	-0.2834	-0.13	-1.0436	-0.9378	10.1252	0.0367	0.9604	-0.4045	-0.1987	1.2736	-0.727	-0.3696	-0.9305
-1.8258	3.6773	9.0601	7.9224	-3.0096	-2.1338	0.7639	-0.2436	-1.4334	1.6475	1.3312	9.4049	3.7677	2.1184	-0.4007	-0.1284	-1.0878	-0.8508	9.5368	0.037	0.8318	-0.4359	-0.2279	1.2103	-0.7262	-0.3738	-0.909
-1.8895	3.3372	8.776	8.4408	-3.0241	-2.1327	0.7405	-0.1746	-1.433	1.7062	1.6213	9.5216	3.6127	1.9061	-0.407	-0.109	-1.0393	-0.8483	9.9482	0.2066	0.8983	-0.2824	-0.2602	1.1765	-0.7265	-0.3246	-0.9391
-1.6521	3.7338	9.0639	6.7948	-2.8821	-1.5777	0.7301	-0.286	-1.48	1.6495	2.0857	9.5788	3.6437	1.7023	-0.6583	-0.1465	-0.9954	-0.9145	9.6646	0.2629	1.3593	-0.1893	-0.2931	1.236	-0.7651	-0.4108	-0.945
-1.9427	3.5075	9.0009	5.637	-2.6834	-1.2043	0.7538	-0.1552	-1.5205	1.9883	2.0269	9.4121	3.4893	1.5221	-0.6947	-0.1437	-1.0148	-0.8045	9.8381	0.1497	1.2462	-0.3743	-0.3508	1.1723	-0.7089	-0.3201	-0.9598
-1.9365	3.3948	9.283	4.5401	-2.523	-0.7087	0.7614	-0.2215	-1.4552	1.9932	1.679	9.6424	3.0606	1.2927	-0.8891	-0.1643	-0.9721	-0.9144	9.7138	0.0935	0.8937	-0.3139	-0.2587	1.1148	-0.7456	-0.3206	-0.9614
-1.945	3.3374	8.8877	3.5057	-2.076	-0.45	0.7423	-0.197	-1.4334	1.9376	1.5051	9.6988	2.8743	1.1072	-0.8024	-0.1629	-0.9703	-0.87	9.8907	0.2632	0.9555	-0.1863	-0.2057	1.5196	-0.7638	-0.3701	-0.9321
-1.7197	3.6763	8.6109	3.8413	-2.0412	-0.7254	0.7448	-0.2659	-1.5232	1.9927	1.9691	9.6428	2.6028	1.2466	-1.0486	-0.1645	-1.0651	-0.8513	9.7197	0.0366	1.1856	-0.2135	-0.1797	1.8311	-0.7095	-0.365	-0.9512
-1.7086	3.4509	9.1186	3.2944	-1.682	-0.8384	0.7247	-0.2185	-1.4788	1.9321	1.5628	9.4105	2.5408	1.0093	-1.209	-0.1085	-0.9924	-0.8688	9.4829	0.15	1.064	-0.3942	-0.1214	2.1766	-0.7643	-0.3434	-0.9579
-2.3538	3.2241	8.7096	2.7767	-1.5491	-0.743	0.7787	-0.2236	-1.4766	1.4134	1.7954	9.1127	2.7896	1.1412	-1.4815	-0.1451	-1.0166	-0.8488	9.5415	0.0934	1.0653	-0.6397	0.125	2.3155	-0.7457	-0.3923	-0.927
-1.9957	3.4513	9.2254	2.3816	-1.3072	-0.4275	0.7074	-0.2165	-1.4574	1.7	1.4468	9.1754	2.6964	0.9308	-1.5489	-0.1275	-0.9939	-0.8917	9.5344	0.0371	0.7151	-1.072	-0.1105	2.0893	-0.7256	-0.3289	-0.9176
-1.8833	3.1679	9.0579	1.56	-0.9935	-0.0801	0.7401	-0.1981	-1.4998	1.6413	1.8531	9.1171	2.8824	1.0271	-1.6993	-0.1274	-1.0169	-0.8703	9.606	0.0365	1.3583	-1.2608	-0.0412	1.7535	-0.7262	-0.3022	-0.9434
-1.7703	3.6204	8.9483	0.8292	-0.7917	-0.0138	0.7258	-0.2414	-1.5014	1.8799	1.9114	9.6982	2.9114	0.9607	-1.608	-0.1642	-0.9951	-0.893	9.8321	0.3198	0.9542	-1.6623	-0.0637	1.6003	-0.7999	-0.3257	-0.9422
-1.7088	3.6773	9.119	0.6753	-1.0489	-0.3315	0.7203	-0.174	-1.5002	1.8757	1.8531	9.4675	3.1888	1.0247	-1.7583	-0.1275	-0.9939	-0.8917	9.6564	-0.0764	0.951	-2.0025	-0.0565	1.4483	-0.7081	-0.3244	-0.9383
-1.7726	3.4504	8.8351	1.2234	-1.1984	-0.7359	0.7236	-0.1957	-1.4563	1.6989	1.4468	9.1177	3.1892	0.9677	-1.8522	-0.1076	-1.0375	-0.804	9.7198	-0.1899	1.1858	-2.4668	0.0453	1.2403	-0.7273	-0.3203	-0.9606
-1.7111	3.4507	9.0057	1.256	-0.7954	-0.8148	0.7445	-0.2427	-1.4785	2.1032	1.5044	9.4137	2.9486	1.1666	-2.0659	-0.1819	-0.9948	-0.8715	9.7759	0.2065	1.0699	-2.4949	-0.1712	1.384	-0.7065	-0.3329	-0.8954
-1.8296	3.8468	8.8911	1.1025	-0.9987	-0.9764	0.782	-0.2453	-1.4327	1.7042	1.5051	9.4061	3.1305	1.1268	-1.9417	-0.2015	-0.9973	-0.9166	9.6646	0.2063	1.3594	-2.8959	0.0493	1.3677	-0.7262	-0.3022	-0.9434
-1.9465	3.7335	8.832	1.1633	-1.0251	-1.1005	0.7423	-0.2438	-1.545	2.1082	1.7369	9.7023	2.9479	1.1637	-2.0042	-0.1075	-0.9214	-0.8884	9.0678	0.1504	0.8222	-3.1085	0.0181	1.5847	-0.7065	-0.3329	-0.8954
-1.7699	3.0544	8.9472	1.408	-0.8874	-0.91	0.7239	-0.2189	-1.501	1.6416	1.621	9.1168	2.6103	1.1051	-1.9469	-0.1462	-1.0645	-0.8506	9.6049	0.0365	1.3	-2.8962	-0.0722	1.2993	-0.7081	-0.3244	-0.9383
-1.9997	3.9604	9.057	1.2859	-0.9162	-0.8805	0.7751	-0.1787	-1.4758	1.586	2.0854	9.2316	2.3687	1.3581	-2.0051	-0.1097	-1.0172	-0.8919	9.8261	0.5466	0.6622	-2.9615	0.0863	1.0293	-0.7435	-0.2842	-0.927
-1.8833	3.1679	9.0579	0.7373	-0.8513	-0.6332	0.7247	-0.2185	-1.4788	1.3634	2.0862	9.5157	1.8753	1.1135	-1.8609	-0.145	-1.0397	-0.8275	10.0114	0.5461	1.1327	-2.8997	0.085	1.0597	-0.7424	-0.3377	-0.8754
-1.8353	3.45	8.6081	0.3429	-0.4807	-0.4368	0.7247	-0.2185	-1.4788	2.3237	2.0839	9.0726	1.3841	1.0547	-1.7432	-0.128	-1.0409	-0.8712	9.715	0.0368	0.9521	-2.714	0.1723	1.1869	-0.727	-0.2979	-0.9649
-2.184	3.6199	8.5447	-0.388	-0.3261	-0.0328	0.7423	-0.197	-1.4334	1.5901	1.5634	9.4041	0.7363	0.7761	-1.4777	-0.1439	-0.9687	-0.8471	9.6001	0.0934	1.0664	-2.8399	0.178	0.9402	-0.7251	-0.284	-0.9262
-1.4796	3.5637	9.0107	-0.998	-0.3352	-0.1275	0.7092	-0.239	-1.4578	2.0435	1.7946	9.2976	0.3028	0.4953	-1.2411	-0.1455	-1.0636	-0.8284	9.7794	0.2064	1.245	-3.0868	0.3044	0.9178	-0.764	-0.3209	-0.9622
-1.9475	3.4504	8.775	-0.5102	-0.3548	-0.0032	0.7283	-0.2635	-1.4796	1.7617	1.8533	9.4653	-0.3129	0.2528	-1.098	-0.1636	-0.9712	-0.8922	10.0056	0.2633	0.8411	-3.1799	0.4287	0.8942	-0.7273	-0.3203	-0.9606
-1.7691	3.6205	9.0048	0.1296	-0.4574	-0.159	0.7265	-0.241	-1.4792	2.156	2.0264	9.2423	-1.0447	0.4514	-1.131	-0.164	-1.0412	-0.8504	9.7747	0.15	1.0116	-3.5458	0.3686	1.1417	-0.6919	-0.3605	-0.972
-1.7702	3.5072	8.9481	0.1303	-0.3451	0.0608	0.76	-0.2223	-1.4995	1.9346	1.9692	9.584	-0.9832	0.3348	-1.2874	-0.1463	-1.0415	-0.8719	9.4242	0.15	1.0628	-3.5768	0.3389	1.1094	-0.7089	-0.3201	-0.9598
-1.9381	3.8475	9.2274	0.2828	-0.3373	-0.1853	0.6876	-0.1923	-1.4577	1.7036	1.8533	9.4065	-1.2891	0.4571	-1.1639	-0.1273	-1.04	-0.849	10.1229	-0.0198	0.8437	-3.637	0.4597	1.2712	-0.7456	-0.2489	-0.9957
-2.2284	3.3382	9.1639	0.1322	0.0078	-0.2359	0.7387	-0.1521	-1.4326	2.3227	2.0258	9.0149	-1.1683	0.2429	-1.2295	-0.1463	-1.0415	-0.8719	9.5965	0.2068	0.8912	-3.8546	0.4964	1.0889	-0.7451	-0.2757	-0.97
-1.7691	3.6205	9.0048	-0.2953	-0.0964	0.2529	0.7085	-0.2393	-1.48	1.9329	1.7369	9.4684	-1.3217	0.0964	-1.3268	-0.1071	-0.9905	-0.8244	10.1921	0.2061	1.37	-3.9141	0.3421	1.2051	-0.7456	-0.3206	-0.9614
-2.119	3.7904	8.8849	-0.082	-0.1226	0.0368	0.7391	-0.1753	-1.4773	1.9337	1.9111	9.5263	-1.4731	0.2819	-1.2931	-0.1822	-1.0648	-0.8298	9.8967	0.2063	1.2474	-3.3284	0.0884	1.2181	-0.7451	-0.2757	-0.97
-1.8833	3.1679	9.0579	0.8922	-0.4159	-0.1861	0.7287	-0.2399	-1.4127	1.8097	2.0848	9.0052	-0.9892	0.1606	-0.8593	-0.1065	-0.9896	-0.8022	9.4242	0.2067	1.0628	-3.1424	-0.0075	1.3046	-0.7281	-0.3161	-0.9821
-1.4194	3.847	9.1254	1.2881	-0.5191	-0.1884	0.7427	-0.2202	-1.4781	1.8166	1.795	9.351	-1.0521	0.3297	-0.5165	-0.1096	-1.0403	-0.8705	9.8334	-0.0199	1.0129	-2.8376	-0.069	1.051	-0.7448	-0.3249	-0.9399
-1.8284	3.9035	8.9477	1.5317	-0.5769	-0.4055	0.7636	-0.2672	-1.5003	2.0427	1.6784	9.2398	-0.9615	0.176	-0.5501	-0.0901	-0.9918	-0.8681	9.5439	0.0367	1.1821	-2.748	0.0552	0.871	-0.7089	-0.3201	-0.9598
-1.709	3.9604	9.1196	1.5015	-0.5221	-0.2495	0.7614	-0.2215	-1.4552	1.6492	1.6214	9.5206	-0.6255	0.3734	-0.2955	-0.0913	-1.0396	-0.8698	9.7818	0.2629	1.3617	-2.1914	-0.0479	1.0783	-0.7102	-0.2891	-1.0071
-1.8776	3.6213	9.3411	1.3194	-0.3694	-0.1215	0.7052	-0.2176	-1.5239	1.82	1.7372	9.5239	-0.4089	0.4984	-0.4142	-0.1267	-1.016	-0.8482	9.7208	0.263	1.2438	-2.0391	0.1347	1.0248	-0.7084	-0.3468	-0.934
-1.4783	3.4506	9.067	1.6846	-0.501	-0.1557	0.7445	-0.2427	-1.4785	1.4735	1.8536	9.2869	0.0408	0.5369	0.5477	-0.1267	-1.016	-0.8482	9.7735	0.2633	0.9531	-1.915	-0.0512	1.045	-0.7454	-0.2982	-0.9657
-2.0005	3.4509	8.9996	1.6543	-0.4739	-0.0623	0.7247	-0.2185	-1.4788	1.757	2.0851	9.2349	0.4382	0.9393	0.9926	-0.1281	-1.0178	-0.8925	9.6622	0.2064	1.2426	-1.8276	-0.1067	0.6074	-0.7449	-0.3966	-0.9055
-1.9451	3.4506	8.8879	1.4109	-0.3734	-0.0905	0.7563	-0.1773	-1.4987	1.7065	2.0856	9.5798	0.3749	0.7546	1.0187	-0.1097	-1.0172	-0.8919	9.8358	-0.1332	1.1298	-1.3972	-0.1735	0.5696	-0.6886	-0.2342	-0.9547
-2.0007	3.6207	8.9999	1.5018	-0.4666	-0.1242	0.738	-0.1524	-1.4547	1.6985	2.3173	9.1764	0.2519	0.6661	0.9847	-0.1086	-0.9693	-0.8901	9.3036	-0.1894	0.8857	-1.0611	-0.2665	0.3451	-0.6894	-0.3016	-0.9418
-2.1161	3.1679	8.9966	1.4404	-0.5526	-0.2199	0.756	-0.1541	-1.454	1.5896	1.8535	9.4044	0.2504	0.571	1.0442	-0.1267	-1.016	-0.8482	9.7748	0.0367	1.0117	-0.7838	-0.2101	0.408	-0.7443	-0.28	-0.9485
-1.9463	3.4505	8.8315	1.5	-0.8	-0.228	0.7214	-0.1968	-1.5227	1.8202	1.6211	9.5238	0.6485	0.8009	1.2383	-0.1249	-0.9672	-0.8242	9.9554	-0.1334	1.2489	-0.6007	-0.2107	0.2826	-0.7448	-0.2532	-0.9743
-1.8272	3.9036	9.0041	1.4401	-0.6028	0.1795	0.7603	-0.1987	-1.4326	1.8251	1.9116	9.8125	0.5272	0.7198	1.0502	-0.1267	-1.016	-0.8482	9.83	-0.416	0.8382	-0.0458	-0.5553	0.2601	-0.7273	-0.3203	-0.9606
-1.9474	3.3372	8.7748	0.9518	-0.6813	0.1754	0.7416	-0.1974	-1.4555	1.9329	1.7369	9.4684	0.0382	0.5543	0.8258	-0.109	-1.0393	-0.8483	9.477	0.0937	0.7722	0.1981	-0.4643	0.1081	-0.71	-0.3383	-0.977
-1.828	3.3374	8.9466	0.4053	-0.2359	0.1887	0.7391	-0.1753	-1.4773	1.4214	2.1441	9.5745	-0.2063	0.3539	0.603	-0.1634	-1.0172	-0.8495	9.8908	0.15	0.9556	0.5038	-0.5574	-0.0852	-0.727	-0.2979	-0.9649
-2.0008	3.8471	9.0004	-0.3571	-0.2467	0.2168	0.7365	-0.1532	-1.499	1.9937	2.0272	9.7005	-0.6073	0.1984	0.7809	-0.1279	-1.0639	-0.8499	10.0701	0.1498	1.1342	0.9964	-0.7174	-0.0974	-0.7475	-0.2629	-1.0344
-2.1238	3.7333	8.659	-1.0875	0.012	0.3776	0.7592	-0.2226	-1.5217	1.8209	1.8533	9.5817	-0.9733	0.0045	0.4645	-0.13	-1.0436	-0.9378	10.3621	-0.1334	1.0821	1.1469	-0.8064	-0.4132	-0.7251	-0.3556	-0.8918
-2.1164	3.5076	8.9973	-1.1169	0.2189	0.5696	0.7419	-0.2206	-1.5002	1.3601	2.144	9.3427	-1.2519	-0.2409	0.549	-0.1642	-0.9951	-0.893	9.9483	-0.1897	0.8987	1.6077	-0.8731	-0.4823	-0.6897	-0.3241	-0.9376
-1.827	3.7338	9.0038	-1.2076	0.366	0.7593	0.7416	-0.1974	-1.4555	1.9274	1.7946	9.1801	-1.5234	-0.0137	0.3973	-0.1647	-1.0421	-0.8726	9.722	0.2629	1.3021	2.0107	-1.0353	-0.277	-0.764	-0.3209	-0.9622
-1.6507	3.4509	9.1198	-1.2382	0.3466	0.5426	0.7049	-0.1944	-1.4792	1.534	1.6796	9.4608	-1.7412	-0.3201	0.4501	-0.128	-1.0409	-0.8712	9.8334	0.0367	1.0129	2.2853	-1.1275	-0.501	-0.7443	-0.28	-0.9485
-1.8233	3.5077	9.1727	-1.1778	0.2348	0.9093	0.7419	-0.2206	-1.5002	2.1084	1.6208	9.7022	-1.9597	-0.5125	0.6906	-0.1438	-0.9918	-0.8258	9.7162	-0.0199	1.0105	2.7443	-1.405	-0.7982	-0.6873	-0.2652	-0.9074
-1.8814	3.904	9.1723	-0.4154	0.2472	0.8503	0.7459	-0.242	-1.4342	1.7005	1.7951	9.2335	-2.2961	-0.4774	0.7192	-0.1482	-1.0673	-0.9171	9.6587	-0.0199	1.0677	2.9265	-1.2519	-0.9464	-0.7418	-0.2211	-0.9184
-1.6522	3.7904	9.064	-0.0502	0.1096	0.9394	0.7761	-0.2015	-1.4984	2.0478	1.7948	9.5283	-2.3288	-0.7211	0.6825	-0.1263	-0.969	-0.8686	9.7115	-0.2461	0.7773	3.2368	-1.5037	-0.8072	-0.7289	-0.3118	-1.0036
-2.0066	3.3937	8.7172	-0.3846	0.2973	1.0681	0.747	-0.2648	-1.4567	1.6429	1.505	9.1744	-2.5775	-0.97	0.8289	-0.092	-1.0406	-0.892	9.8345	0.0933	1.0712	3.3315	-1.6607	-0.6613	-0.7819	-0.3479	-0.9372
-1.5968	3.96	8.9526	-0.109	0.5091	0.9835	0.7625	-0.2444	-1.4777	1.8113	1.7947	9.0626	-2.7035	-1.3072	0.8509	-0.1268	-0.993	-0.8695	9.7125	0.32	0.8351	2.9627	-1.9608	-0.7364	-0.7473	-0.3838	-0.97
-1.939	3.3946	9.1701	-0.1393	0.5451	0.8921	0.7643	-0.2668	-1.4781	1.5867	2.3176	9.2896	-3.3473	-1.4204	0.8733	-0.1832	-0.9966	-0.9159	9.361	-0.1894	0.8285	2.9929	-1.6861	-0.691	-0.7637	-0.2984	-0.9665
-1.5373	3.2808	9.009	-0.2929	0.3284	1.0077	0.7563	-0.1773	-1.4987	1.7606	1.8532	9.4076	-3.6828	-1.4393	0.7463	-0.092	-1.0406	-0.892	9.825	0.2636	0.6041	3.055	-2.0534	-0.7731	-0.7459	-0.3431	-0.9571
-2.4059	3.5644	8.9913	-0.5965	0.5797	1.077	0.7632	-0.244	-1.4556	1.93	2.143	9.3535	-3.8372	-1.7072	0.6153	-0.1267	-1.016	-0.8482	10.0079	0.2632	0.9578	3.2656	-1.8671	-1.1057	-0.7265	-0.3246	-0.9391
-2.0139	3.5063	8.3787	-0.3224	0.5121	1.0447	0.7401	-0.1981	-1.4998	1.8194	2.0854	9.5243	-3.8974	-1.7017	0.5223	-0.1096	-1.0403	-0.8705	9.5381	-0.3594	0.8906	3.4157	-1.7729	-1.3808	-0.7251	-0.284	-0.9262
-1.5373	3.3374	9.0091	-0.6868	0.7958	1.1148	0.7211	-0.1736	-1.478	1.8791	1.0989	9.5819	-3.8327	-1.5696	0.3098	-0.0924	-1.0875	-0.8716	9.477	0.0937	0.7722	3.7808	-1.7725	-1.7245	-0.7267	-0.3471	-0.9348
-1.6498	3.7906	9.1769	-0.6583	0.4338	0.9484	0.7769	-0.2011	-1.4762	1.8231	1.7954	9.697	-3.833	-1.6295	0.2776	-0.1071	-0.9905	-0.8244	9.654	0.0936	0.8341	3.8948	-1.7008	-2.4654	-0.7473	-0.3121	-1.0044
-1.9993	3.3378	9.0558	-1.0528	0.7813	0.9898	0.7067	-0.2169	-1.4796	1.9297	2.3171	9.3537	-3.8655	-1.6671	0.4308	-0.1831	-1.0197	-0.8946	9.7162	-0.1897	1.0107	4.1044	-1.5436	-2.8926	-0.7457	-0.3923	-0.927
-1.657	3.6767	8.838	-0.9902	1.0852	1.0311	0.7398	-0.1749	-1.4551	1.9322	1.5047	9.4105	-3.927	-1.6675	0.4611	-0.1464	-1.0184	-0.8932	9.7688	0.2635	0.7196	4.3769	-1.4501	-3.2306	-0.727	-0.3696	-0.9305
-1.4797	3.7336	9.0111	-0.685	1.1179	0.8172	0.7981	-0.2245	-1.4315	1.6001	2.0283	9.9813	-3.9614	-1.8016	0.7046	-0.1274	-1.0169	-0.8703	9.6506	-0.4158	0.6595	4.4363	-1.2652	-3.3452	-0.7475	-0.3345	-1.0001
-1.6572	3.9598	8.8385	-0.6249	0.9686	0.6889	0.7247	-0.2185	-1.4788	1.7593	1.9692	9.3501	-3.8096	-1.9564	0.6716	-0.1457	-1.0175	-0.871	9.3643	0.603	1.0028	4.5563	-0.8361	-3.4473	-0.7813	-0.3746	-0.9114
-1.5266	3.6214	9.5177	-0.5633	1.0725	0.4149	0.7409	-0.1978	-1.4777	2.0486	1.969	9.5862	-3.6895	-2.0858	0.7623	-0.1242	-0.9663	-0.8021	9.7712	-0.0197	0.8366	4.6144	-0.7104	-3.689	-0.7451	-0.3474	-0.9356
-1.8292	3.3939	8.8902	-0.5949	0.8846	0.501	0.76	-0.2223	-1.4995	1.9966	1.5631	9.8153	-3.7167	-1.7767	0.7383	-0.1274	-1.0169	-0.8703	9.5355	0.2069	0.7733	4.797	-0.5884	-3.8078	-0.7451	-0.3474	-0.9356
-1.5967	3.7335	8.9522	-0.7471	0.9255	0.3785	0.7658	-0.2661	-1.4338	1.8163	1.9691	9.3512	-3.5344	-1.932	0.7055	-0.1274	-1.0169	-0.8703	9.7055	-0.0194	0.4852	4.7042	-0.434	-3.7989	-0.8018	-0.3396	-0.9809
-1.9945	3.4514	9.2819	-0.4405	1.2227	0.4204	0.7463	-0.2652	-1.4789	2.1633	1.5626	9.5879	-3.6895	-2.0566	0.7939	-0.144	-0.9457	-0.8684	9.2342	0.0941	0.3589	4.8265	-0.3433	-3.826	-0.7456	-0.3206	-0.9614
-1.8885	3.6203	8.833	-0.1677	0.937	0.4424	0.7423	-0.197	-1.4334	1.8192	1.563	9.466	-3.6308	-2.2742	0.8203	-0.1452	-0.9936	-0.8702	9.9518	0.0366	1.0736	4.7941	-0.371	-3.9822	-0.7059	-0.3596	-0.8696
-2.1202	3.7337	8.8284	-0.2284	0.9889	0.0429	0.7449	-0.2191	-1.4116	1.9942	1.7371	9.7002	-3.4816	-2.4992	0.9708	-0.1275	-0.9939	-0.8917	9.9949	0.1505	0.3159	4.4535	-0.0585	-4.056	-0.7467	-0.3388	-0.9786
-2.1187	3.3941	8.8842	-0.4104	1.1679	0.2643	0.7776	-0.2008	-1.454	2.0518	1.3888	9.7009	-3.6042	-2.5571	0.9375	-0.163	-0.9472	-0.8913	9.7629	-0.0193	0.428	4.5437	0.0039	-4.2083	-0.7813	-0.303	-0.9457
-1.8787	3.508	9.2844	-0.5016	1.2236	-0.1968	0.7423	-0.2438	-1.545	1.9783	1.562	8.8349	-3.5412	-2.4908	0.8161	-0.1256	-0.9681	-0.8464	9.5343	0.2635	0.7149	4.4824	0.2483	-4.1019	-0.7267	-0.3471	-0.9348
-1.9426	3.4508	9.0008	-0.8061	1.2951	-0.2262	0.7438	-0.2431	-1.5006	1.8671	1.8525	9.0061	-3.4815	-2.7332	0.7185	-0.1438	-0.9918	-0.8258	9.6983	0.264	0.1347	4.3316	0.2464	-3.8529	-0.7443	-0.28	-0.9485
-2.1105	3.7911	9.2801	-1.2938	1.326	0.051	0.6509	-0.1893	-1.4814	1.7549	2.027	9.1195	-3.4528	-2.6548	0.9984	-0.2035	-1.023	-0.9618	9.9962	0.0373	0.3743	4.1773	0.4931	-3.8076	-0.7475	-0.3345	-1.0001
-1.6595	3.7897	8.7253	-1.1421	1.2018	-0.0144	0.7445	-0.2427	-1.4785	1.9815	1.6202	9.0079	-3.2091	-2.6635	1.093	-0.1819	-0.9948	-0.8715	9.6504	0.2636	0.6589	3.8114	0.4023	-3.5617	-0.7459	-0.3431	-0.9571
-1.9501	3.6766	8.6625	-0.442	0.9702	-0.0818	0.7769	-0.2011	-1.4762	1.8735	1.2726	9.2938	-2.904	-2.5256	1.315	-0.1083	-1.0384	-0.8262	9.6528	-0.0196	0.7759	3.2888	0.4397	-3.5247	-0.7267	-0.3471	-0.9348
-1.9343	3.6214	9.3963	-0.5341	0.8529	-0.1477	0.774	-0.1558	-1.4532	1.9901	1.6208	9.4693	-2.2002	-2.5656	1.2588	-0.1457	-1.0175	-0.871	9.5332	0.1504	0.6566	2.9202	0.7184	-3.3831	-0.7273	-0.3203	-0.9606
-1.476	3.6773	9.1803	0.3192	0.7541	0.1292	0.7078	-0.2397	-1.5021	2.2234	1.6207	9.762	-1.7085	-2.2991	1.3003	-0.1268	-0.993	-0.8695	9.8332	0.4896	1.0124	2.8255	0.5706	-3.6382	-0.7451	-0.3474	-0.9356
-2.0586	3.6207	8.9987	0.6244	0.7882	-0.1155	0.7441	-0.2195	-1.4338	2.0981	1.33	9.1251	-1.4613	-2.2623	1.0873	-0.163	-0.9472	-0.8913	9.5904	0.6033	0.599	2.2099	0.8237	-3.5891	-0.7087	-0.3693	-0.9298
-2.1164	3.5076	8.9973	0.6245	0.81	0.0704	0.7665	-0.2657	-1.4117	1.8747	1.795	9.4097	-0.9669	-2.0718	0.7875	-0.1072	-0.9675	-0.8458	9.7629	0.1505	0.4279	1.9323	0.9199	-3.6128	-0.707	-0.3778	-0.8868
-1.9459	2.9411	8.8305	0.7168	0.9565	0.1681	0.7758	-0.1783	-1.4536	1.929	2.1429	9.2958	-0.8113	-1.798	0.7952	-0.1066	-0.9666	-0.8236	9.7126	0.0369	0.8354	1.4712	1.1698	-3.503	-0.7459	-0.3431	-0.9571
-1.8861	3.6205	8.9459	0.3522	1.2065	0.2988	0.7639	-0.2436	-1.4334	2.1015	1.8525	9.3564	-0.473	-1.6781	0.7393	-0.1477	-1.0433	-0.9163	9.9338	0.7168	0.1974	0.8241	1.1196	-3.6248	-0.6889	-0.3284	-0.9161
-1.8851	3.9603	9.003	-0.2286	0.9462	0.2883	0.7596	-0.1991	-1.4548	2.102	1.5624	9.3561	-0.1628	-1.4873	0.4995	-0.1465	-0.9954	-0.9145	9.4135	0.2638	0.5374	0.2407	1.2482	-3.4895	-0.7443	-0.28	-0.9485
-1.9426	3.3376	9.0006	-0.5025	1.0566	0.0752	0.7445	-0.2427	-1.4785	1.814	1.4466	9.1775	-0.0061	-1.326	0.2886	-0.1452	-0.9936	-0.8702	9.7723	0.3765	0.8946	-0.1328	1.3507	-3.8222	-0.7448	-0.3249	-0.9399
-1.769	3.5073	9.0046	-1.1111	1.2811	0.2352	0.7596	-0.1991	-1.4548	2.0964	1.6781	9.0678	0.3649	-1.0793	0.1433	-0.163	-0.9472	-0.8913	9.948	0.7162	0.8978	-0.7748	1.2934	-3.5104	-0.7449	-0.3966	-0.9055
-1.9944	3.3948	9.2818	-1.5979	1.4761	0.3019	0.7232	-0.2193	-1.5231	1.9878	2.317	9.4125	0.7044	-0.8657	0.0587	-0.1441	-0.9227	-0.8898	9.4816	0.4331	1.0054	-1.3553	1.1439	-3.235	-0.7816	-0.3254	-0.9415
-1.948	4.1297	8.7763	-2.3908	1.4676	0.2992	0.7596	-0.1991	-1.4548	2.1004	1.8525	9.2987	0.8873	-0.8719	0.1219	-0.1444	-1.0157	-0.8267	9.8204	-0.0193	0.3708	-1.6901	1.1742	-2.9209	-0.747	-0.3613	-0.9743
-1.6595	3.7897	8.7253	-3.1518	1.7257	0.4907	0.7445	-0.2427	-1.4785	2.2783	1.6205	9.6478	1.225	-0.8426	0.0331	-0.1086	-0.9693	-0.8901	9.7125	0.3766	0.8351	-2.0587	1.0568	-2.9244	-0.7621	-0.307	-0.9235
-2.0647	3.7334	8.7167	-3.9433	1.9689	0.373	0.7452	-0.2423	-1.4563	2.27	1.4459	9.1862	1.1941	-0.902	0.0006	-0.1465	-0.9954	-0.9145	9.9458	0.2067	0.7816	-2.4577	1.0307	-2.8607	-0.7087	-0.3693	-0.9298
-1.4299	3.2233	8.6161	-5.3424	2.612	0.6063	0.7394	-0.1985	-1.522	1.8782	1.6211	9.5825	1.1938	-0.9327	-0.0001	-0.1274	-1.0169	-0.8703	9.6527	0.2635	0.7756	-2.8209	0.8144	-2.4355	-0.707	-0.3778	-0.8868
-1.6594	3.6765	8.7251	-7.1073	3.2976	0.8091	0.8291	-0.1837	-1.4736	1.9935	2.1433	9.7006	1.0724	-0.8384	0.0009	-0.089	-0.9439	-0.8664	9.7126	0.1502	0.8353	-3.0319	0.7506	-2.0964	-0.7619	-0.3562	-0.8934
-2.1127	3.5079	9.1666	-9.0227	4.3193	1.1462	0.7618	-0.2447	-1.4999	2.2717	1.6781	9.3018	1.1326	-0.9024	0.0309	-0.1825	-0.9957	-0.8937	10.0092	0.0933	1.0164	-3.4902	0.7224	-1.8464	-0.7284	-0.4102	-0.9434
-2.115	3.2246	9.0532	-11.1249	4.6329	0.9651	0.782	-0.2453	-1.4327	1.927	1.3884	9.1219	1.1043	-0.8623	-0.1537	-0.1263	-0.969	-0.8686	9.9505	0.2631	1.015	-3.5755	0.4093	-1.3665	-0.7627	-0.3519	-0.9149
-2.1767	3.4508	8.8831	-12.0979	5.1457	1.1028	0.7398	-0.1749	-1.4551	1.9279	1.5045	9.1798	1.2263	-0.8952	-0.1533	-0.126	-1.0151	-0.826	10.1227	0.3765	0.8434	-3.7258	0.3457	-1.0898	-0.7254	-0.3064	-0.9219
-1.997	3.621	9.1693	-13.1658	5.0085	1.3726	0.7571	-0.177	-1.4765	1.6515	1.5055	9.6358	1.564	-0.8366	-0.2106	-0.1452	-0.9936	-0.8702	10.0546	0.6034	0.375	-3.9667	0.1287	-0.7276	-0.7638	-0.3701	-0.9321
-1.9413	3.2811	9.0569	-13.1996	4.4055	1.1362	0.7516	-0.1096	-1.4754	1.7615	1.331	9.407	1.8385	-0.7859	-0.0835	-0.1643	-0.9721	-0.9144	9.8298	0.2067	0.8376	-3.9008	-0.061	-0.4282	-0.7254	-0.3064	-0.9219
-2.0006	3.5075	8.9997	-12.5618	3.9516	1.2463	0.7607	-0.2219	-1.4773	2.1068	1.9109	9.6449	2.6408	-0.3272	-0.3126	-0.1813	-0.9709	-0.8707	9.7101	0.4333	0.7183	-3.7429	-0.282	-0.1622	-0.7446	-0.3741	-0.9098
-1.7677	3.4508	9.0609	-11.6483	3.717	1.1178	0.7203	-0.174	-1.5002	1.7606	1.8532	9.4076	2.8536	-0.366	-0.219	-0.1842	-1.0676	-0.8963	9.5271	0.6602	0.3643	-3.5581	-0.1631	-0.0953	-0.7454	-0.3698	-0.9313
-2.1152	3.5077	9.0537	-10.2498	2.9637	1.251	0.7409	-0.1978	-1.4777	1.7088	1.3313	9.6366	3.5027	-0.0231	-0.5447	-0.2009	-0.9963	-0.8944	9.4182	0.6032	0.7705	-3.4367	-0.3149	-0.2903	-0.7454	-0.2982	-0.9657
-2.1688	2.659	9.2202	-9.0019	2.5332	1.7956	0.7387	-0.1521	-1.4326	1.5905	1.9696	9.4622	3.7478	0.2972	-0.2574	-0.1649	-0.996	-0.9152	9.471	0.2638	0.4802	-3.0669	-0.321	-0.2314	-0.6892	-0.2791	-0.9461
-2.0584	3.3943	8.9983	-8.5446	2.5174	1.8582	0.7387	-0.1521	-1.4326	1.7586	1.795	9.2922	3.9628	0.3857	-0.2534	-0.18	-0.946	-0.8476	10.1861	0.263	1.0781	-2.6364	-0.1137	-0.1617	-0.7438	-0.3784	-0.8883
-2.0065	3.2805	8.717	-8.9098	2.6595	1.6768	0.7581	-0.1998	-1.4991	1.8198	1.8532	9.5241	3.9943	0.4773	-0.251	-0.1432	-0.9678	-0.8249	9.8344	0.5462	1.0708	-2.2355	-0.2121	-0.108	-0.7437	-0.3067	-0.9227
-2.0595	3.281	8.9416	-9.1246	2.4003	2.0685	0.7791	-0.2	-1.4097	1.8146	1.7369	9.2355	4.1472	0.5039	-0.2181	-0.1634	-1.0172	-0.8495	9.8309	0.2633	0.8959	-1.7442	-0.0959	-0.1365	-0.7265	-0.3246	-0.9391
-2.2307	3.1115	9.0505	-9.216	2.4103	1.9142	0.7956	-0.2024	-1.4533	1.9885	1.2725	9.3536	4.9037	0.5999	0.717	-0.1836	-1.0667	-0.8741	10.179	0.2067	0.728	-1.4064	-0.2523	-0.2404	-0.7281	-0.3878	-0.9477
-1.9968	3.338	9.1687	-9.7653	2.347	1.6327	0.738	-0.1524	-1.4547	2.0467	1.8528	9.4707	5.6034	0.8638	1.3776	-0.1475	-1.0894	-0.8736	9.4208	-0.0763	0.8879	-1.0362	-0.1675	-0.1147	-0.7457	-0.3923	-0.927
-1.7098	3.3942	9.062	-9.8265	2.2993	1.3841	0.7578	-0.1766	-1.4544	1.7571	2.0271	9.2348	5.5098	0.7103	1.4041	-0.1824	-1.0188	-0.8724	9.4758	0.0371	0.7139	-0.9735	0.0129	0.0494	-0.7638	-0.3701	-0.9321
-1.8205	3.0551	9.2847	-9.7367	2	1.1584	0.7794	-0.2232	-1.4544	2.0971	1.9103	9.1258	5.5371	0.8998	1.9334	-0.1447	-0.9466	-0.8906	9.5472	0.6026	1.3566	-0.6015	-0.0877	0.2582	-0.7256	-0.3289	-0.9176
-2.3467	3.3946	9.0487	-9.7685	1.7701	0.842	0.7589	-0.1994	-1.4769	1.5871	1.4471	9.2309	5.5964	0.7144	1.9297	-0.1794	-0.9451	-0.8254	9.5942	0.0936	0.7746	-0.2946	-0.1216	0.1921	-0.7119	-0.3522	-1.0157
-2.1114	3.2816	9.2227	-8.3975	1.5549	0.6847	0.774	-0.1558	-1.4532	1.4808	2.0281	9.6908	5.0166	0.7596	1.8328	-0.1811	-1.0169	-0.828	10.4205	0.4328	1.0827	-0.2603	-0.2792	0.4314	-0.7465	-0.3163	-0.9829
-1.8808	3.0549	9.1706	-7.454	1.2318	0.4608	0.7632	-0.244	-1.4556	2.3282	1.9681	9.3032	4.6523	0.5439	1.3307	-0.1641	-1.0181	-0.8717	9.6442	0.8866	0.3664	0.3889	-0.2927	0.7047	-0.7078	-0.3736	-0.9083
-2.3528	3.4507	8.7665	-6.7226	1.1588	0.2754	0.7809	-0.2225	-1.4101	1.9908	1.8529	9.5273	4.2221	0.2779	1.259	-0.2015	-0.9973	-0.9166	9.6515	0.2635	0.7172	0.7285	-0.1467	0.8649	-0.7278	-0.3653	-0.952
-2.1726	2.8285	9.0512	-6.0246	0.5451	0.4729	0.72	-0.1508	-1.4555	1.9266	1.6205	9.1222	3.6175	0.2917	0.5438	-0.1641	-1.0181	-0.8717	9.5907	-0.1327	0.5997	0.8845	-0.2433	1.0135	-0.7278	-0.3653	-0.952
-1.883	2.715	9.0571	-4.5303	0.5602	0.5705	0.756	-0.1541	-1.454	2.0391	1.8523	9.067	3.4356	0.2438	0.325	-0.109	-1.0393	-0.8483	9.8908	0.15	0.9556	1.1599	-0.1844	0.9216	-0.7656	-0.3123	-1.0051
-1.7639	3.1115	9.2296	-3.9836	0.1703	0.6825	0.7585	-0.1762	-1.4322	1.9825	2.2587	9.124	3.2818	0.0958	0.2585	-0.143	-1.0139	-0.7823	9.7137	0.2633	0.8935	1.686	-0.2569	1.1617	-0.7437	-0.3067	-0.9227
-1.8809	3.1681	9.1708	-3.771	0.0047	0.801	0.7801	-0.2229	-1.4323	2.0459	1.6786	9.4128	3.685	0.4079	0.0224	-0.1983	-0.9696	-0.827	9.7182	0.8859	1.1264	1.5929	-0.346	1.0647	-0.7843	-0.3351	-1.0016
-1.993	2.9987	9.3374	-2.9488	-0.1876	0.4885	0.7758	-0.1783	-1.4536	1.9911	1.6789	9.5271	3.7484	0.4172	-0.1929	-0.1445	-0.9927	-0.848	9.7114	0.1502	0.7769	1.749	-0.5645	1.1758	-0.6913	-0.3155	-0.9805
-2.1112	3.1118	9.2223	-2.8273	-0.2787	0.3933	0.7647	-0.2433	-1.4113	1.8713	1.9108	9.2368	3.7204	0.4587	-0.4083	-0.162	-1.0154	-0.8052	10.0725	0.093	1.251	2.0855	-0.6887	0.9807	-0.7278	-0.3653	-0.952
-2.1618	3.0559	9.5597	-2.645	-0.3992	0.2355	0.7571	-0.177	-1.4765	2.1008	1.6204	9.2985	3.8455	0.6161	-0.527	-0.1463	-1.0415	-0.8719	9.5354	0.49	0.773	2.3955	-0.7573	1.1607	-0.7081	-0.396	-0.904
-2.2234	3.0556	9.3892	-2.6141	-0.3199	0.4851	0.7553	-0.1545	-1.4761	2.0403	1.7944	9.1246	3.4496	0.5134	-0.8108	-0.1823	-1.0418	-0.8511	9.8906	0.4897	0.9552	2.7349	-0.8549	1.2149	-0.7454	-0.3698	-0.9313
-2.0545	3.055	9.167	-2.0976	-0.6693	0.4132	0.738	-0.1524	-1.4547	1.6453	2.0274	9.348	3.6359	0.582	-1.0236	-0.1267	-1.016	-0.8482	9.9457	0.5464	0.7813	2.6097	-0.8501	1.0301	-0.7437	-0.3067	-0.9227
-1.8736	3.1688	9.5096	-1.3953	-0.5046	0.4209	0.7736	-0.1794	-1.5201	1.7601	1.505	9.3495	3.4511	0.6085	-0.8703	-0.1457	-1.0175	-0.871	9.7159	0.6595	1.0099	2.7669	-0.7961	1.3418	-0.7267	-0.3471	-0.9348
-1.7603	3.1685	9.3991	-0.7264	-0.8583	0.3493	0.7383	-0.1757	-1.4994	1.9926	1.3888	9.5844	3.1791	0.5404	-1.2756	-0.126	-1.0151	-0.826	9.8368	0.4329	1.1876	2.8585	-0.4916	1.3883	-0.7443	-0.28	-0.9485
-2.1726	2.8285	9.0512	0.2478	-1.162	0.3421	0.7387	-0.1521	-1.4326	1.3666	2.1444	9.6888	3.2691	0.3544	-1.279	-0.109	-1.0393	-0.8483	9.8848	0.2069	0.6637	2.5817	-0.305	1.4623	-0.784	-0.3843	-0.9716
-1.9364	3.1684	9.2825	1.0384	-1.582	0.2995	0.7405	-0.1746	-1.433	2.2761	1.6203	9.5324	2.9349	0.3999	-1.4662	-0.1456	-1.0406	-0.8497	10.1872	0.4894	1.1363	2.9863	-0.1951	1.899	-0.7273	-0.3203	-0.9606
-1.9288	2.7728	9.6205	1.4637	-1.8749	0.3835	0.7607	-0.2219	-1.4773	1.5889	1.6794	9.3465	3.2102	0.3366	-1.5269	-0.1812	-0.9939	-0.8494	9.6575	0.0368	1.0093	3.2024	-0.0163	2.0309	-0.7445	-0.3024	-0.9442
-1.9991	3.168	9.0555	2.103	-2.0816	0.4711	0.7193	-0.1511	-1.4776	2.157	2.0845	9.3001	2.9995	0.5905	-1.6156	-0.1262	-0.9921	-0.8473	9.477	0.0937	0.7722	3.0794	-0.1366	1.9944	-0.7462	-0.3656	-0.9528
-1.9892	2.7726	9.5064	3.9006	-2.3702	0.3126	0.7265	-0.241	-1.4792	1.6433	1.9112	9.2325	3.4298	0.6811	-1.7331	-0.1458	-0.9945	-0.8924	9.2436	0.2635	0.8257	2.8287	-0.2487	1.5564	-0.7462	-0.3656	-0.9528
-2.2268	2.8288	9.2194	5.2109	-2.559	0.2795	0.8089	-0.1363	-1.4292	2.042	2.0846	9.2403	3.2159	0.9495	-1.482	-0.1088	-1.0624	-0.827	9.5989	0.0368	1.0081	2.524	-0.3398	1.7708	-0.7465	-0.388	-0.9485
-1.8858	3.2809	8.9452	6.8853	-3.0824	-0.0415	0.7905	-0.1582	-1.4968	1.9281	2.0268	9.238	3.1538	0.8584	-1.4846	-0.1641	-1.0181	-0.8717	9.7795	0.0931	1.2451	2.3473	-0.1957	2.4927	-0.7262	-0.3022	-0.9434
-2.4611	3.225	9.1024	8.4683	-3.592	0.0387	0.7571	-0.177	-1.4765	1.8745	1.911	9.4098	3.6739	1.0847	-1.2586	-0.1647	-1.0421	-0.8726	9.5414	0.2632	1.0651	2.1323	-0.1625	2.5271	-0.7278	-0.3653	-0.952
-2.0569	2.9982	9.054	9.4132	-3.6724	-0.1153	0.738	-0.1524	-1.4547	1.5303	1.9695	9.2881	4.1007	1.2761	-0.9108	-0.126	-1.0151	-0.826	9.484	0.2632	1.1223	1.765	0.0534	2.7584	-0.7443	-0.3516	-0.9141
-1.8882	3.2241	8.8322	8.0419	-3.4924	0.1333	0.7913	-0.1579	-1.4747	2.1012	2.0266	9.3566	4.038	1.2405	-0.7888	-0.128	-1.0409	-0.8712	9.7747	0.2632	1.0115	1.4273	0.1791	2.8606	-0.7454	-0.3698	-0.9313
-1.8797	3.1116	9.2272	7.5858	-3.2444	0.3562	0.7585	-0.1762	-1.4322	1.5875	2.4917	9.3475	3.8258	1.3408	-0.881	-0.1437	-1.0148	-0.8045	9.3071	0.0369	1.0606	1.3068	0.3907	3.1518	-0.7256	-0.3289	-0.9176
-1.7112	3.6205	9.006	5.9097	-3.0274	0.019	0.7938	-0.18	-1.4529	1.4219	1.854	9.5742	3.5808	1.2559	-0.9469	-0.1445	-0.9927	-0.848	9.8895	0.2633	0.8971	0.9983	0.3352	3.0582	-0.7621	-0.307	-0.9235
-1.8799	3.5079	9.2279	4.6008	-2.5929	0.0605	0.7956	-0.2024	-1.4533	2.1617	1.8526	9.5305	3.5501	1.4611	-0.7264	-0.109	-1.0393	-0.8483	9.4805	0.0935	0.9473	0.57	0.3076	3.2459	-0.6516	-0.2829	-0.9231
-2.1738	2.8283	8.9948	5.333	-2.5325	-0.3363	0.7974	-0.2249	-1.4537	1.6437	1.6791	9.2322	3.6974	1.1687	-0.454	-0.1267	-1.016	-0.8482	9.9482	0.15	0.8984	0.2326	0.1587	3.2716	-0.7465	-0.388	-0.9485
-1.7096	3.1112	9.0615	9.8134	-2.9659	-2.2191	0.7913	-0.1579	-1.4747	1.6464	1.9695	9.4056	3.181	1.311	-0.6715	-0.1407	-0.9181	-0.7788	10.0115	0.0932	1.1331	-0.1357	-0.142	3.2274	-0.7816	-0.3254	-0.9415
-2.1605	2.9428	9.616	20.4221	-3.786	-5.3608	0.7743	-0.179	-1.498	1.8722	2.027	9.2946	3.3921	1.4109	-0.266	-0.1438	-0.9918	-0.8258	9.7183	0.6028	1.1267	-0.2562	-0.0218	3.4826	-0.7456	-0.3206	-0.9614
-2.1729	3.3379	9.0522	25.0232	-4.5877	-6.7002	0.7585	-0.1762	-1.4322	1.7603	1.3889	9.3494	3.5141	1.5535	-0.0765	-0.1634	-1.0172	-0.8495	9.1922	0.15	1.1748	-0.1012	-0.0561	3.5726	-0.7635	-0.3476	-0.9364
-1.8267	3.1677	9.0027	26.6384	-4.8307	-6.4258	0.7593	-0.1759	-1.4101	1.9255	2.2588	9.123	2.7502	1.4236	-0.3025	-0.1653	-1.043	-0.8948	10.1229	-0.1897	0.8439	0.1111	0.1583	3.3964	-0.7254	-0.3064	-0.9219
-2.052	2.942	9.2797	24.0428	-5.4046	-5.1574	0.7596	-0.1991	-1.4548	1.9271	1.9687	9.1803	2.1107	1.6527	-0.3648	-0.1066	-0.9666	-0.8236	9.5486	0.1497	1.4154	0.2949	0.4615	3.4422	-0.7073	-0.3286	-0.9168
-1.822	3.3946	9.2289	23.4312	-5.7044	-4.3364	0.7391	-0.1753	-1.4773	1.8789	1.8533	9.6405	1.3757	1.2795	-0.6578	-0.1652	-1.066	-0.8734	9.7186	-0.1332	1.1274	0.659	0.6156	3.0757	-0.727	-0.3696	-0.9305
-2.2936	3.3375	8.824	23.8846	-6.4618	-4.2063	0.756	-0.1541	-1.454	1.8735	1.8529	9.3521	0.6711	1.0519	-0.7929	-0.1262	-0.9921	-0.8473	9.8872	0.0369	0.7806	0.5908	1.1437	2.7014	-0.7454	-0.3698	-0.9313
-1.7087	3.5641	9.1188	23.8826	-6.8259	-4.3111	0.7189	-0.1747	-1.5445	1.7053	1.5052	9.4638	-0.0041	0.7886	-0.836	-0.1462	-1.0645	-0.8506	10.0642	0.2633	0.8423	0.3446	1.2997	2.7425	-0.7089	-0.3918	-0.9255
-1.1287	3.7337	9.1877	23.6668	-7.2349	-4.6341	0.7481	-0.2876	-1.4793	2.2666	1.5037	9.0132	-0.3398	0.622	-1.0898	-0.1633	-1.0403	-0.8282	9.8333	0.2066	1.0127	0.1275	1.3052	2.5895	-0.7435	-0.2842	-0.927
-1.9993	3.451	9.0561	22.294	-7.2976	-4.4553	0.7441	-0.2195	-1.4338	1.6973	2.3752	9.1188	-0.8007	0.3272	-1.1933	-0.1989	-0.9706	-0.8492	9.6012	0.2632	1.1247	-0.4929	1.5342	2.2344	-0.7646	-0.3658	-0.9536
-1.4735	3.6209	9.2931	19.9184	-6.6894	-3.5783	0.7769	-0.2011	-1.4762	1.6466	1.8534	9.4055	-1.1705	0.2911	-0.9506	-0.1273	-1.04	-0.849	10.1205	-0.0197	0.727	-0.919	1.8083	2.7172	-0.8186	-0.2768	-0.9731
-1.656	4.0165	8.8951	17.9094	-5.9753	-3.1902	0.7431	-0.1967	-1.4112	1.364	2.3764	9.5737	-1.5696	0.0567	-1.0522	-0.1268	-0.993	-0.8695	9.4231	0.1501	1.0045	-1.7169	1.8475	2.8803	-0.784	-0.3843	-0.9716
-2.0032	3.8469	8.8875	15.5341	-5.3094	-2.8666	0.7478	-0.2644	-1.4346	1.8105	2.2589	9.0631	-1.847	-0.0366	-0.9334	-0.1275	-0.9939	-0.8917	9.8323	-0.1897	0.9547	-2.5741	2.0673	3.3015	-0.7651	-0.3391	-0.9794
-1.7222	3.7327	8.4981	13.5269	-4.2732	-2.7761	0.7247	-0.2185	-1.4788	1.9296	2.3751	9.3538	-2.3054	-0.2025	-1.1574	-0.1088	-1.0624	-0.827	9.7137	0.3199	0.8935	-3.3458	2.5389	3.2394	-0.7259	-0.2797	-0.9477
-1.7776	3.733	8.6098	12.0336	-4.0793	-2.7434	0.7419	-0.2206	-1.5002	1.7619	1.7372	9.4652	-2.4293	-0.237	-1.0359	-0.1096	-1.0403	-0.8705	9.7138	0.0935	0.8937	-4.2662	2.8229	3.5405	-0.7449	-0.3966	-0.9055
-1.7763	3.5067	8.6658	10.2683	-3.438	-2.2644	0.7276	-0.2638	-1.5018	2.2719	2.2004	9.3601	-2.7073	-0.5087	-1.0446	-0.1633	-1.0403	-0.8282	9.5989	0.2066	1.008	-5.0661	2.9866	3.5863	-0.7635	-0.3476	-0.9364
-2.0007	3.6773	9	8.7168	-2.7367	-1.8753	0.7459	-0.242	-1.4342	1.6381	2.4332	9.0024	-3.1045	-0.588	-1.1735	-0.1805	-0.993	-0.8272	9.892	0.0933	1.014	-5.744	2.754	3.3931	-0.8205	-0.3624	-0.9774
-1.9431	4.0735	9.002	7.318	-2.0104	-1.4541	0.7445	-0.2427	-1.4785	1.5879	1.6213	9.2888	-3.2275	-0.5304	-1.0499	-0.109	-1.0393	-0.8483	9.8848	0.2069	0.6637	-5.9272	2.8766	3.556	-0.6716	-0.3463	-0.9325
-2.3023	3.733	8.4296	6.07	-1.5851	-1.2585	0.7268	-0.2642	-1.5239	2.0475	2.0269	9.5286	-3.6225	-0.5994	-1.3946	-0.1456	-1.0406	-0.8497	9.8848	0.2069	0.6637	-6.0462	2.8728	3.8976	-0.6892	-0.3508	-0.9118
-2.1839	3.3369	8.5441	5.1904	-0.7198	-0.831	0.729	-0.2631	-1.4575	1.4735	1.8536	9.2869	-3.3759	-0.5363	-1.5144	-0.1633	-1.0403	-0.8282	9.8358	-0.02	1.1297	-6.2636	2.6654	3.6403	-0.7462	-0.3656	-0.9528
-1.6064	3.7893	8.5007	3.9443	0.0546	-0.2225	0.7301	-0.286	-1.48	1.7533	1.7367	9.0038	-3.8949	-0.4936	-1.5799	-0.1438	-0.9918	-0.8258	9.8381	-0.0201	1.2464	-6.1402	2.4498	3.5969	-0.7065	-0.3329	-0.8954
-1.7135	3.3939	8.8927	3.367	0.429	0.0043	0.7852	-0.3138	-1.5004	1.8144	1.8529	9.2357	-4.8147	-0.5756	-1.4667	-0.1254	-1.0142	-0.8038	9.9471	-0.1896	0.8403	-6.2906	2.3254	3.8393	-0.7462	-0.2939	-0.9872
-2.123	4.2995	8.7166	2.3954	1.2227	0.0589	0.7128	-0.2839	-1.4586	1.8739	2.2592	9.4102	-5.95	-0.8368	-1.3904	-0.1462	-1.0645	-0.8506	9.5967	-0.3028	0.8917	-6.2584	2.1402	3.8912	-0.7097	-0.3875	-0.947
-1.4846	3.8463	8.7855	1.0851	1.395	0.4309	0.725	-0.2417	-1.5235	2.2169	1.6783	9.416	-7.0872	-1.1946	-1.2238	-0.1623	-0.9693	-0.8478	10.0572	-0.0761	0.4924	-6.0768	2.1417	3.642	-0.6902	-0.2973	-0.9633
-1.7718	4.0732	8.8928	-0.3467	1.6509	1.0521	0.7841	-0.291	-1.4778	1.7007	1.679	9.2333	-7.521	-1.5061	-0.9879	-0.1263	-0.969	-0.8686	9.8981	-0.4731	1.3064	-6.0142	2.0479	3.6985	-0.7081	-0.3244	-0.9383
-1.7692	3.847	9.0052	-2.2952	2.2172	1.2812	0.7265	-0.241	-1.4792	1.9908	1.8529	9.5273	-7.3412	-1.7317	-0.8371	-0.0705	-0.9893	-0.8231	9.5955	-0.2461	0.8333	-5.9489	1.8894	3.9685	-0.71	-0.3383	-0.977
-2.0032	3.7337	8.8872	-4.1844	2.4657	1.6848	0.7081	-0.2161	-1.4352	1.7649	1.8535	9.6383	-7.2511	-1.7114	-0.6506	-0.1077	-1.0145	-0.8253	9.6611	-0.02	1.1845	-5.6131	1.8882	3.7489	-0.7081	-0.3244	-0.9383
-2.2348	3.7905	8.8825	-6.256	2.8144	2.0296	0.779	-0.2468	-1.5213	1.9863	1.9107	9.2967	-6.7346	-1.7367	-0.3069	-0.1457	-1.0175	-0.871	9.7689	-0.2461	0.7201	-5.5812	1.7643	3.8041	-0.764	-0.3926	-0.9278
-1.6595	3.8463	8.7254	-7.7774	3.4085	2.0757	0.7823	-0.2685	-1.4774	1.9353	1.563	9.5835	-5.8783	-1.6054	-0.1418	-0.1817	-1.0178	-0.8502	9.7713	-0.3594	0.8369	-5.0602	1.4548	3.5357	-0.7246	-0.3107	-0.9004
-1.4172	4.1302	9.2389	-10.0632	3.6112	2.384	0.7427	-0.2202	-1.4781	1.8682	1.7946	9.0637	-5.2973	-1.5278	-0.0421	-0.1077	-1.0145	-0.8253	9.947	0.0935	0.8401	-4.6341	1.3027	3.0904	-0.6724	-0.2703	-0.9883
-1.6534	3.7337	9.0074	-11.8921	3.7283	2.2898	0.747	-0.2648	-1.4567	1.7542	1.8528	9.0616	-4.5309	-1.2691	0.0634	-0.1438	-0.9918	-0.8258	9.8933	-0.2464	1.0727	-4.233	0.8382	3.0317	-0.7276	-0.3428	-0.9563
-1.7619	3.7344	9.3437	-11.3452	3.3796	2.1872	0.7254	-0.2182	-1.4567	1.821	1.7953	9.5817	-3.8877	-1.2173	0.0396	-0.1279	-1.0639	-0.8499	9.9493	0.2632	0.9566	-3.9293	0.6869	2.6494	-0.7273	-0.3203	-0.9606
-1.7604	3.3949	9.3995	-10.5851	2.9709	1.9289	0.7243	-0.2421	-1.5457	1.9355	1.4469	9.5834	-3.585	-1.2959	0.2875	-0.1269	-0.9699	-0.8908	10.0057	-0.0198	0.8414	-3.3446	0.1907	2.4945	-0.7086	-0.2976	-0.9641
-1.6508	3.5075	9.1199	-9.095	2.2346	1.6619	0.7643	-0.2668	-1.4781	1.8726	1.7949	9.2944	-3.277	-1.2032	0.1689	-0.1653	-1.043	-0.8948	9.8826	-0.1327	0.5472	-2.7617	-0.1202	2.2566	-0.6886	-0.3059	-0.9204
-2.1127	3.3947	9.1664	-6.2634	1.4787	1.0281	0.7942	-0.2032	-1.4976	1.9336	1.9691	9.5263	-2.8801	-1.0961	0.3602	-0.0905	-1.0618	-0.8263	9.7127	-0.1329	0.8355	-2.0563	-0.371	1.9899	-0.7094	-0.2933	-0.9856
-1.7161	3.7333	8.7804	-2.1222	0.4096	0.3878	0.796	-0.2256	-1.498	1.5826	1.5629	9.0003	-2.6966	-1.0116	0.4564	-0.1463	-1.0415	-0.8719	9.7652	0.2636	0.5445	-1.5014	-0.4414	2.0749	-0.7089	-0.2484	-0.9942
-2.1635	3.6784	9.5045	-0.6603	0.063	0.3497	0.7614	-0.2215	-1.4552	1.7547	1.5627	9.0612	-2.5759	-0.9918	0.6432	-0.1649	-0.996	-0.9152	9.886	0.2634	0.722	-1.044	-0.5643	1.693	-0.6911	-0.2931	-0.9848
-1.8835	3.4509	9.0585	1.2274	-0.4769	0.2448	0.7974	-0.2249	-1.4537	1.8215	2.0855	9.6397	-2.3921	-0.9643	0.6455	-0.1444	-1.0157	-0.8267	9.6599	0.1499	1.1259	-0.4617	-0.6	1.5007	-0.7273	-0.3203	-0.9606
-1.7073	3.2812	9.1747	3.208	-0.7587	-0.1597	0.7449	-0.2191	-1.4116	2.0437	2.3169	9.3559	-2.2086	-0.9675	0.6471	-0.128	-1.0409	-0.8712	9.7806	0.2629	1.3033	-0.0642	-0.7547	1.2415	-0.7089	-0.3201	-0.9598
-2.1657	3.3952	9.391	3.9988	-1.1292	0.0463	0.7823	-0.2685	-1.4774	2.0407	1.5622	9.1243	-2.1789	-1.0602	0.6452	-0.1645	-1.0651	-0.8513	10.1779	0.1501	0.6696	0.179	-0.5714	1.0634	-0.71	-0.3383	-0.977
-1.7691	3.6772	9.0049	6.3446	-1.568	0.1313	0.7463	-0.2652	-1.4789	1.8784	1.505	9.5824	-1.9933	-0.8776	0.6202	-0.1447	-0.9466	-0.8906	9.7199	-0.4163	1.186	0.3906	-0.7521	0.6802	-0.727	-0.2979	-0.9649
-2.1188	3.5073	8.8844	8.3842	-2.232	-0.0391	0.7283	-0.2635	-1.4796	2.0393	1.7363	9.0668	-1.9627	-0.8781	0.6205	-0.1262	-0.9921	-0.8473	9.4805	0.0369	0.9474	0.3298	-0.6608	0.7785	-0.7278	-0.2936	-0.9864
-1.885	3.847	9.0028	11.2152	-3.1857	-0.4019	0.6854	-0.1934	-1.5242	1.6469	1.6793	9.4053	-1.3185	-0.822	0.5042	-0.1263	-0.969	-0.8686	9.7758	0.433	1.0697	0.2951	-0.6855	0.4365	-0.7632	-0.2535	-0.975
-1.8826	3.8473	9.1157	13.4372	-3.9852	-0.422	0.729	-0.2631	-1.4575	1.9284	1.8527	9.2378	-1.1032	-0.849	0.3512	-0.1452	-0.9936	-0.8702	9.6493	-0.2459	0.601	0.4152	-0.7746	0.1519	-0.7078	-0.3019	-0.9426
-1.656	4.0731	8.8952	14.776	-4.5524	-0.2827	0.6937	-0.2594	-1.4368	1.7566	1.6789	9.1767	-0.6769	-0.9238	0.4769	-0.1438	-0.9918	-0.8258	9.7653	0.0372	0.5447	0.5056	-0.6513	0.0338	-0.7637	-0.2984	-0.9665
-2.0019	3.6772	8.9436	14.8959	-4.9266	-0.8812	0.707	-0.2401	-1.5243	2.1084	1.6208	9.7022	-0.7639	-0.7247	0.2028	-0.1275	-0.9939	-0.8917	9.5402	0.2633	1.0067	0.2591	-0.3426	0.1141	-0.7059	-0.288	-0.9039
-1.6042	4.0159	8.614	14.3792	-4.6079	-0.8103	0.7081	-0.2161	-1.4352	2.1003	1.9105	9.2988	-0.7942	-0.7811	0.1086	-0.1811	-1.0169	-0.828	9.9483	-0.3029	0.8988	0.1969	-0.3408	0.0527	-0.7445	-0.3024	-0.9442
-1.6606	3.6764	8.6686	11.5149	-4.1531	-0.9272	0.7445	-0.2427	-1.4785	1.9967	1.5051	9.8153	-0.4556	-0.6305	0.0534	-0.1627	-1.0163	-0.8273	9.7688	0.037	0.7198	0.0071	-0.2092	-0.3418	-0.693	-0.307	-1.0235
-1.9514	3.9029	8.6065	9.2264	-4.361	-1.0338	0.7643	-0.2668	-1.4781	1.76	1.563	9.3496	-0.2727	-0.7243	0.0221	-0.1079	-0.9684	-0.8679	10.1873	0.2629	1.1365	0.0377	-0.3617	-0.4122	-0.7262	-0.3022	-0.9434
-1.5449	3.8462	8.6714	7.9791	-3.8144	-0.8033	0.6959	-0.3051	-1.4819	1.9906	1.3306	9.469	-0.3008	-0.4781	0.0275	-0.2015	-0.9973	-0.9166	9.6528	-0.0762	0.7759	0.3721	-0.3915	-0.7572	-0.7451	-0.2757	-0.97
-1.5436	3.6764	8.7275	5.4225	-2.8856	-0.7182	0.7312	-0.3088	-1.5026	1.9939	1.2728	9.642	0.1245	-0.5573	0.2456	-0.1652	-1.066	-0.8734	9.941	0.2636	0.5481	0.404	-0.3934	-0.6646	-0.69	-0.2749	-0.9676
-2.0105	3.8462	8.5487	3.8101	-2.1767	-0.4524	0.761	-0.2451	-1.5221	1.6473	1.4472	9.405	-0.0326	-0.5153	0.7081	-0.1093	-0.9702	-0.9123	9.7676	0.0937	0.6614	0.4003	-0.3884	-0.9742	-0.7097	-0.3158	-0.9813
-1.8873	3.677	8.8896	2.2905	-1.2402	-0.4872	0.7992	-0.2474	-1.4541	2.3301	1.504	9.3603	0.1792	-0.5586	0.8943	-0.1293	-1.0427	-0.9156	10.0068	0.0368	0.8997	0.6426	-0.3562	-1.2843	-0.7254	-0.3064	-0.9219
-2.4725	3.9033	8.5956	1.621	-0.9802	-0.388	0.7643	-0.2668	-1.4781	2.108	1.8529	9.7025	0.4264	-0.4926	0.7128	-0.1293	-1.0427	-0.9156	9.8872	0.0935	0.7805	0.7906	-0.0761	-1.6735	-0.7635	-0.3476	-0.9364
-2.3001	4.0163	8.543	1.1664	-0.4587	-0.0941	0.7276	-0.2638	-1.5018	1.361	1.6217	9.3421	0.7638	-0.494	0.6233	-0.1635	-0.9942	-0.8709	9.532	0.0372	0.5983	0.8841	0.1952	-1.4738	-0.7443	-0.28	-0.9485
-1.8321	3.9598	8.7784	0.0398	-0.1537	-0.0256	0.7067	-0.2169	-1.4796	2.0995	1.7944	9.241	1.433	-0.3757	1.126	-0.166	-1.0439	-0.917	10.19	-0.643	1.2541	1.037	0.3161	-1.4995	-0.7459	-0.2714	-0.9915
-1.8885	3.6769	8.8331	-0.8105	0.4815	0.0549	0.7034	-0.1951	-1.5235	1.8177	1.7951	9.4086	2.166	-0.2175	1.4141	-0.1627	-1.0163	-0.8273	9.483	-0.1331	1.0643	0.8461	0.5712	-1.9494	-0.7448	-0.2532	-0.9743
-1.7186	3.8463	8.6677	-1.6617	0.9811	-0.2394	0.7128	-0.2839	-1.4586	1.8154	1.911	9.2934	3.0744	-0.1286	2.443	-0.1439	-0.9687	-0.8471	9.5954	0.0936	0.833	0.7552	0.2964	-1.9323	-0.727	-0.2979	-0.9649
-1.8308	3.9599	8.8349	-2.9119	0.9749	-0.0275	0.7085	-0.2393	-1.48	2.4426	1.7358	9.3051	3.563	-0.0231	2.6351	-0.126	-1.0151	-0.826	10.4817	-0.0769	1.2011	0.8493	0.2926	-1.7783	-0.7262	-0.3022	-0.9434
-1.9971	3.7342	9.1695	-3.7962	0.9832	0.3094	0.7286	-0.2867	-1.5243	1.983	1.3302	9.0653	3.6561	-0.1065	2.4179	-0.2001	-1.0185	-0.8509	9.9481	0.2632	0.8983	0.8481	0.3247	-1.8695	-0.7067	-0.2837	-0.9254
-1.9439	3.5639	8.9446	-4.6493	1.112	0.6813	0.6879	-0.2155	-1.5025	1.754	1.9689	9.0617	3.3223	-0.2058	2.0422	-0.1642	-0.9951	-0.893	9.8332	0.3764	1.0125	0.9407	0.5363	-1.766	-0.6902	-0.2973	-0.9633
-2.2385	3.9599	8.7135	-4.5867	1.4115	0.815	0.7099	-0.2386	-1.4356	1.8721	1.4466	9.2363	2.9907	-0.1193	1.6399	-0.1444	-1.0157	-0.8267	9.892	-0.0199	1.0141	0.9378	0.7231	-1.942	-0.6905	-0.3198	-0.959
-1.9405	3.7907	9.1144	-4.3743	1.2114	0.377	0.7632	-0.244	-1.4556	2.0985	1.7363	9.1833	2.9939	-0.1046	1.3316	-0.1641	-1.0181	-0.8717	10.1204	0.2067	0.7268	1.1147	0.6091	-2.6313	-0.7254	-0.3064	-0.9219
-2.0107	4.0727	8.5492	-3.6123	1.1519	0.5316	0.7297	-0.2627	-1.4353	2.1022	2.0847	9.4144	3.214	0.0367	0.8739	-0.1266	-1.039	-0.8268	9.831	0.1501	0.896	1.4185	0.4577	-3.0136	-0.7273	-0.3203	-0.9606
-1.9405	3.7907	9.1144	-3.4617	0.8068	0.5821	0.7448	-0.2659	-1.5232	2.2138	1.5621	9.2429	3.5825	0.1254	0.8175	-0.1659	-1.067	-0.8956	9.6565	-0.3595	0.9513	1.4845	0.5116	-2.6083	-0.7624	-0.2578	-0.9535
-1.6561	4.1863	8.8954	-3.1551	1.1144	0.4083	0.6897	-0.238	-1.5029	1.8114	2.317	9.1209	4.2033	0.4207	0.2126	-0.1456	-1.0406	-0.8497	9.4828	0.2632	1.0639	1.3927	0.299	-2.6499	-0.7276	-0.3428	-0.9563
-1.662	3.9027	8.6126	-3.5524	0.9509	0.8335	0.7661	-0.2893	-1.4785	1.8715	1.7948	9.2367	4.6336	0.599	0.1897	-0.1096	-1.0403	-0.8705	9.6601	-0.3596	1.1264	1.214	0.2935	-2.1529	-0.7254	-0.3064	-0.9219
-1.8269	3.564	9.0035	-3.2166	1.0119	0.6515	0.7088	-0.2625	-1.5247	1.5907	1.8536	9.4621	4.4541	0.8846	0.0712	-0.1072	-0.9675	-0.8458	9.7208	0.263	1.2438	1.0896	0.3579	-2.2416	-0.7454	-0.2982	-0.9657
-1.4797	3.7336	9.0111	-3.0345	0.8562	0.5851	0.7823	-0.2685	-1.4774	1.7578	2.2593	9.2927	4.3025	0.8054	-0.1481	-0.1654	-1.02	-0.9161	9.954	0.3762	1.19	0.9067	0.1145	-2.1911	-0.7102	-0.2891	-1.0071
-1.7742	3.9597	8.7796	-3.0638	1.0721	0.5923	0.7596	-0.1991	-1.4548	1.5305	1.8535	9.288	3.8719	0.6256	-0.0944	-0.1262	-0.9921	-0.8473	9.538	0.0369	0.8902	1.1243	0.1999	-1.9713	-0.7265	-0.3246	-0.9391
-1.7679	3.6773	9.0613	-3.2466	1.1184	0.3773	0.6897	-0.238	-1.5029	2.1074	2.2011	9.7029	3.4098	0.4419	0.0515	-0.1823	-1.0418	-0.8511	9.8321	0.2632	0.9543	1.5256	0.1923	-1.8507	-0.7821	-0.2987	-0.9672
-1.9477	3.6768	8.7754	-3.0008	1.4584	0.2045	0.7647	-0.2433	-1.4113	2.0981	1.9684	9.1835	2.6765	0.253	-0.2373	-0.1446	-0.9696	-0.8693	9.5462	0.263	1.2986	1.711	0.2495	-1.7561	-0.7465	-0.3163	-0.9829
-1.5412	3.7333	8.8405	-3.2447	1.4593	0.3271	0.7481	-0.2876	-1.4793	2.0397	2.1425	9.125	2.3048	0.0325	0.0012	-0.1644	-1.0882	-0.8299	9.837	-0.1899	1.1882	1.9291	0.3644	-1.4727	-0.7638	-0.3701	-0.9321
-1.8885	3.6769	8.8331	-3.7008	1.7043	0.6117	0.7121	-0.2843	-1.4807	1.7619	1.7372	9.4652	1.7531	-0.0515	0.0251	-0.109	-1.0393	-0.8483	9.4852	0.1499	1.1808	2.2335	0.6388	-1.6464	-0.7445	-0.3024	-0.9442
-1.4883	3.9026	8.6162	-3.6687	1.9874	0.467	0.7445	-0.2427	-1.4785	2.4923	2.1995	8.9606	1.2616	-0.2288	0.0474	-0.1451	-1.0166	-0.8488	9.4195	0.037	0.8295	2.2385	0.6624	-1.2112	-0.7278	-0.2936	-0.9864
-1.8345	3.9596	8.6655	-4.1569	1.9441	0.3715	0.7632	-0.244	-1.4556	1.9276	2.3169	9.2384	0.5576	-0.2487	0.0714	-0.1078	-0.9914	-0.8466	9.7149	0.15	0.952	2.4242	0.7497	-1.084	-0.7278	-0.2936	-0.9864
-1.6547	3.8468	8.9512	-4.5832	2.0378	0.5893	0.7676	-0.2886	-1.4342	1.9884	1.9689	9.4121	0.226	-0.1622	-0.3309	-0.1065	-0.9896	-0.8022	9.6515	0.2635	0.7172	2.3357	0.7153	-0.7752	-0.7246	-0.3107	-0.9004
-1.9429	3.7905	9.0015	-5.2222	2.3044	0.5346	0.7294	-0.2863	-1.5022	2.1603	2.0847	9.4731	0.1939	-0.3738	-0.3978	-0.1641	-1.0181	-0.8717	9.8321	0.15	0.9544	2.1204	0.7183	-0.7734	-0.6708	-0.2789	-0.9454
-2.2235	3.282	9.3896	-5.4977	2.0956	0.5576	0.7639	-0.2436	-1.4334	2.0438	1.6205	9.2974	0.1989	-0.2332	-0.7649	-0.09	-1.0148	-0.8468	9.8334	0.0367	1.0129	2.1237	0.9272	-0.4214	-0.7251	-0.284	-0.9262
-1.4783	3.5639	9.0672	-4.919	1.9857	0.5865	0.7574	-0.2002	-1.5213	1.9937	2.0272	9.7005	0.2607	-0.0851	-0.6683	-0.1273	-1.04	-0.849	9.4865	-0.0766	1.2393	1.665	0.6861	-0.2757	-0.7092	-0.3425	-0.9555
-1.5994	4.1295	8.8401	-4.0658	1.8622	0.7393	0.6689	-0.191	-1.4806	2.1026	1.8526	9.4141	1.0241	0.2773	-0.1592	-0.1641	-1.0181	-0.8717	9.6516	-0.0196	0.7175	1.5436	0.6551	-0.1525	-0.7253	-0.2347	-0.9563
-1.5955	3.7336	9.0086	-3.0619	1.4332	0.7587	0.7621	-0.2212	-1.433	1.8111	1.9107	9.0627	2.2147	0.7156	0.5407	-0.1822	-1.0648	-0.8298	9.484	0.2066	1.1223	1.9499	0.6711	0.4032	-0.7475	-0.3345	-1.0001
-2.0033	3.9601	8.8877	-2.6372	1.0279	0.623	0.765	-0.2665	-1.456	1.7584	1.2727	9.2339	3.1285	0.9758	1.2032	-0.1983	-0.9696	-0.827	9.4135	0.2638	0.5374	1.8591	0.6704	0.5278	-0.7619	-0.3562	-0.8934
-1.7136	3.5637	8.893	-2.9703	1.4554	0.8832	0.7258	-0.2414	-1.5014	1.7053	2.1436	9.5222	3.7971	0.9449	1.6099	-0.1262	-0.9921	-0.8473	9.5344	-0.0761	0.7152	2.1369	0.6043	0.5842	-0.7459	-0.3431	-0.9571
-1.5399	3.6202	8.8967	-3.7016	1.5403	0.8221	0.7434	-0.2199	-1.4559	1.7533	2.3751	9.0622	3.4627	0.8719	1.3274	-0.1281	-1.0178	-0.8925	9.4219	0.2068	0.946	2.3216	0.3577	0.5077	-0.707	-0.3062	-0.9211
-2.0623	3.8468	8.8298	-4.6124	2.2724	0.844	0.7214	-0.1968	-1.5227	2.2169	2.3167	9.4745	2.6682	0.7424	1.1011	-0.1462	-1.0645	-0.8506	10.0068	0.0368	0.8997	2.4132	0.4488	0.4808	-0.7259	-0.3514	-0.9133
-2.2878	3.7909	9.1071	-5.4619	3.0642	0.868	0.7618	-0.2447	-1.4999	2.0513	1.679	9.7012	2.0854	0.539	1.0602	-0.1267	-1.016	-0.8482	10.1277	-0.1333	1.0773	2.0721	0.0915	0.1235	-0.7445	-0.3024	-0.9442
-1.4697	3.2816	9.4618	-5.9522	2.6298	1.2221	0.761	-0.2451	-1.5221	1.9327	1.853	9.4685	1.3512	0.2871	0.8008	-0.162	-1.0154	-0.8052	9.7161	0.2066	1.0103	1.8583	-0.2122	0.1399	-0.6919	-0.2888	-1.0063
-1.5854	3.2251	9.4593	-5.0086	2.3134	1.492	0.7992	-0.2474	-1.4541	2.1043	2.0849	9.5297	0.8617	0.0895	0.6067	-0.1431	-0.9908	-0.8036	9.8321	0.2066	0.9543	1.7355	-0.6679	-0.0074	-0.6913	-0.3155	-0.9805
-1.6494	3.2246	9.1758	-4.2494	1.7407	1.4442	0.782	-0.2453	-1.4327	2.0466	1.9108	9.4708	0.3122	-0.0427	0.3517	-0.128	-1.0409	-0.8712	9.8346	-0.0199	1.0713	2.1372	-0.798	0.1066	-0.7459	-0.3431	-0.9571
-2.1718	3.5078	9.109	-3.091	1.6686	1.6305	0.7438	-0.2431	-1.5006	1.7044	2.0275	9.4644	-0.3363	-0.4119	0.5843	-0.181	-1.04	-0.8067	9.6598	0.2631	1.1258	2.3841	-0.8331	0.1649	-0.7084	-0.3468	-0.934
-1.4251	3.337	8.8422	-2.1776	1.4182	1.1929	0.7794	-0.2232	-1.4544	1.8235	2.2017	9.7552	-0.6707	-0.4849	0.3017	-0.145	-1.0397	-0.8275	9.5929	0.2635	0.7161	2.4427	-0.6165	-0.01	-0.7797	-0.3115	-0.9028
-2.1149	3.1114	9.053	0.3801	0.7269	0.653	0.7974	-0.2249	-1.4537	1.9394	1.7373	9.8144	-0.7306	-0.5365	0.1148	-0.1443	-1.0387	-0.8053	9.7126	-0.0763	0.8355	2.596	-0.4961	-0.0048	-0.7835	-0.3394	-0.9801
-2.0598	3.6206	8.9423	1.1706	0.2912	0.3014	0.7441	-0.2195	-1.4338	1.0091	1.7378	8.8167	-1.1313	-0.5443	0.4197	-0.1652	-1.066	-0.8734	9.7794	0.263	1.2449	2.6901	-0.3779	0.1868	-0.7259	-0.2797	-0.9477
-1.8825	3.7341	9.1155	1.689	0.2931	-0.0363	0.7632	-0.244	-1.4556	2.039	1.9103	9.067	-1.5239	-0.2798	0.1752	-0.1633	-1.0403	-0.8282	9.4852	0.3198	1.1806	2.6268	-0.4052	0.0308	-0.7624	-0.2578	-0.9535
-1.8256	3.3377	9.0595	1.8401	0.0506	-0.1983	0.7488	-0.2873	-1.4571	2.1534	1.678	9.0689	-1.8578	-0.2914	-0.1059	-0.1439	-0.9687	-0.8471	9.661	0.2065	1.1843	2.3149	-0.5169	-0.3757	-0.7281	-0.3161	-0.9821
-1.775	3.3936	8.7221	2.4183	-0.1611	-0.6047	0.7247	-0.2185	-1.4788	1.9866	1.7366	9.2965	-2.1283	-0.1183	-0.4131	-0.1091	-1.0163	-0.8697	9.4219	0.0935	0.9461	2.3735	-0.4223	-0.5881	-0.7451	-0.3474	-0.9356
-2.173	3.4511	9.0524	3.6066	-0.351	-0.5458	0.778	-0.224	-1.4988	1.4111	1.8533	8.9974	-2.5838	-0.2125	-0.8515	-0.1096	-1.0403	-0.8705	9.8932	-0.1898	1.0726	2.0326	-0.5055	-0.8379	-0.7462	-0.3656	-0.9528
-1.9379	3.6777	9.2271	4.2456	-0.6042	-0.7683	0.7978	-0.2481	-1.4984	1.8677	2.0847	9.064	-2.6112	-0.1972	-1.1601	-0.1823	-1.0418	-0.8511	9.7783	0.1498	1.1867	1.8772	-0.5621	-0.9947	-0.7634	-0.276	-0.9707
-1.6545	3.677	8.9509	5.1909	-0.6262	-0.8587	0.7445	-0.2427	-1.4785	2.1072	1.6788	9.6446	-2.8281	-0.3237	-1.0106	-0.1445	-0.9927	-0.848	10.0582	0.4334	0.5503	1.5713	-0.4077	-0.7982	-0.7262	-0.3738	-0.909
-2.1142	3.904	9.111	6.8048	-1.0453	-1.3923	0.7467	-0.2416	-1.412	1.5886	1.8534	9.3467	-2.6727	-0.1684	-1.0983	-0.1444	-1.0157	-0.8267	9.7782	0.263	1.1866	1.0491	-0.4014	-0.7319	-0.73	-0.33	-1.0208
-1.6567	3.2805	8.8372	6.6513	-1.241	-1.7079	0.7841	-0.291	-1.4778	2.2637	1.9678	8.8984	-2.3032	-0.046	-1.2156	-0.1445	-0.9927	-0.848	9.7195	0.6027	1.1851	0.8334	-0.2759	-0.7236	-0.7067	-0.2837	-0.9254
-1.6559	3.8467	8.8947	8.2647	-1.7522	-2.2446	0.7096	-0.2622	-1.5025	1.9257	2.1427	9.1228	-1.753	-0.1155	-1.243	-0.1273	-1.04	-0.849	9.7173	0.0367	1.0689	0.3401	-0.1456	-0.7749	-0.7448	-0.3249	-0.9399
-1.9492	4.1296	8.7199	7.7748	-2.1072	-2.2581	0.7761	-0.2015	-1.4984	1.9272	1.9107	9.1802	-1.3517	0.2169	-1.2626	-0.1077	-1.0145	-0.8253	9.7723	0.2633	0.8947	0.1586	-0.0863	-0.4914	-0.7818	-0.2762	-0.9715
-2.1326	4.1288	8.2646	7.6539	-1.912	-2.4062	0.778	-0.224	-1.4988	1.9817	2.0845	9.0662	-0.986	0.2338	-1.1046	-0.164	-1.0412	-0.8504	9.5895	0.0372	0.5412	-0.1461	-0.2688	-0.3128	-0.7267	-0.3471	-0.9348
-2.0611	3.8469	8.8863	7.4095	-1.9928	-2.5022	0.7452	-0.2423	-1.4563	1.8673	1.7365	9.0059	-0.8007	0.4442	-1.0672	-0.145	-1.0397	-0.8275	9.7723	0.3765	0.8946	-0.2059	-0.3312	-0.1917	-0.7445	-0.3024	-0.9442
-2.2854	3.7911	9.22	6.8606	-1.9924	-2.1953	0.729	-0.2631	-1.4575	2.0465	1.9688	9.4708	-0.7083	0.4748	-1.0965	-0.166	-1.0439	-0.917	9.4805	0.0369	0.9474	-0.2381	-0.2374	-0.2795	-0.7843	-0.3351	-1.0016
-2.0043	3.5638	8.8305	6.5564	-1.858	-2.2535	0.7809	-0.2225	-1.4101	1.9303	1.9689	9.3533	-0.9522	0.7759	-0.8758	-0.1462	-1.0645	-0.8506	9.5307	0.4336	0.5396	-0.2711	-0.0205	-0.3916	-0.7089	-0.3201	-0.9598
-1.4794	3.2807	9.0102	5.8235	-2.0278	-2.138	0.7589	-0.1994	-1.4769	2.2146	2.3746	9.3592	-0.4045	0.6653	-0.6881	-0.1266	-1.039	-0.8268	9.8896	0.15	0.8972	-0.3932	-0.1725	-0.3678	-0.7273	-0.3203	-0.9606
-1.7765	3.8463	8.6665	5.3965	-2.054	-1.986	0.7448	-0.2659	-1.5232	1.7534	1.6787	9.0037	-0.3148	0.7718	-0.3762	-0.1432	-0.9678	-0.8249	9.947	0.0368	0.8401	-0.5455	0.1324	-0.1335	-0.7454	-0.2982	-0.9657
-1.5447	3.5065	8.6707	4.8786	-1.9444	-2.0456	0.7239	-0.2189	-1.501	1.9944	2.2594	9.7585	-0.0689	0.9489	-0.3082	-0.0887	-1.013	-0.8024	9.8238	0.3202	0.5456	-0.9419	0.2856	0.2187	-0.7443	-0.28	-0.9485
-1.7185	3.6198	8.6673	4.6342	-2.0357	-1.926	0.7423	-0.197	-1.4334	1.6467	1.7954	9.4054	0.663	1.1905	0.167	-0.1254	-1.0142	-0.8038	9.7807	0.0365	1.3035	-1.5237	0.3815	0.4761	-0.7276	-0.3428	-0.9563
-2.1117	3.7344	9.2235	3.9035	-1.8077	-1.7663	0.6725	-0.236	-1.4814	1.7561	1.969	9.1771	1.607	1.1255	0.5446	-0.1649	-0.996	-0.9152	9.6587	0.15	1.0676	-1.6732	0.4083	0.8506	-0.7445	-0.3024	-0.9442
-1.8872	3.5072	8.8892	3.385	-1.8224	-1.7993	0.7427	-0.2202	-1.4781	1.7683	1.7957	9.8113	2.4302	1.5102	1.2091	-0.1469	-1.0654	-0.8728	9.7113	0.2634	0.7768	-2.2216	0.1955	1.2154	-0.6919	-0.2888	-1.0063
-1.3615	3.8469	9.1266	3.0512	-1.5268	-1.3584	0.7978	-0.2481	-1.4984	1.818	2.2594	9.4668	2.7339	1.3483	1.2699	-0.1836	-1.0667	-0.8741	9.8274	0.037	0.721	-2.4684	0.2913	1.1914	-0.7265	-0.3246	-0.9391
-1.5953	3.5072	9.0082	1.9545	-1.3253	-1.0773	0.7096	-0.2622	-1.5025	1.9821	1.8524	9.0659	3.4664	1.6806	1.778	-0.1274	-1.0169	-0.8703	9.5403	0.0934	1.0069	-2.8057	0.1118	1.2154	-0.744	-0.3292	-0.9184
-1.826	3.9603	9.0607	1.4054	-1.3586	-0.7099	0.7448	-0.2659	-1.5232	1.7013	1.9692	9.2913	4.6258	2.0579	2.4763	-0.221	-1.0458	-0.919	10.1814	0.2632	0.8446	-2.9926	0.1786	1.0344	-0.6903	-0.369	-0.929
-1.767	4.1302	9.1187	0.5224	-1.1143	-0.797	0.7668	-0.289	-1.4564	2.0987	2.2586	9.2415	4.9306	2.1651	2.6976	-0.1641	-1.0181	-0.8717	9.8334	-0.0199	1.0129	-3.2658	0.0861	1.3105	-0.7448	-0.3249	-0.9399
-2.006	4.3561	8.7755	0.5835	-1.1078	-0.3338	0.7247	-0.2185	-1.4788	2.0513	1.679	9.7012	5.0281	2.1608	2.1119	-0.1647	-1.0421	-0.8726	9.6563	0.2067	0.9508	-3.5101	-0.1872	1.3598	-0.69	-0.3466	-0.9333
-2.1189	3.6772	8.8847	0.4912	-1.2483	-0.5548	0.7308	-0.2856	-1.4578	1.6419	2.0853	9.175	4.6953	2.0075	1.5806	-0.1836	-1.0667	-0.8741	9.2509	-0.0765	1.1762	-3.6089	-0.2075	0.8016	-0.724	-0.3374	-0.8746
-1.7728	3.7334	8.8356	0.401	-1.0105	-0.3311	0.76	-0.2223	-1.4995	2.1015	1.8525	9.3564	4.3299	2.0213	1.4233	-0.1658	-1.09	-0.8743	10.1802	0.2067	0.7863	-4.0019	-0.3636	1.3232	-0.7059	-0.288	-0.9039
-1.6559	3.9033	8.8949	-0.1165	-0.8454	-0.2654	0.7625	-0.2444	-1.4777	2.1536	2.2003	9.1272	3.8423	1.7447	0.9495	-0.1266	-1.039	-0.8268	9.8227	0.0372	0.4875	-3.7556	-0.1541	1.4254	-0.7078	-0.3019	-0.9426
-1.7138	3.8467	8.8935	-0.2081	-0.8676	-0.3898	0.7488	-0.2873	-1.4571	2.2698	1.5619	9.1863	3.6882	1.6245	0.9454	-0.126	-1.0151	-0.826	10.0081	-0.0765	0.9582	-3.5369	-0.2837	1.6648	-0.7445	-0.3024	-0.9442
-2.0006	3.5641	8.9998	-0.026	-1.0278	-0.3638	0.7668	-0.289	-1.4564	1.9884	1.9689	9.4121	3.1385	1.3739	0.5951	-0.1639	-1.0642	-0.8291	9.6001	-0.0199	1.0665	-3.3567	-0.1888	1.3276	-0.7267	-0.2754	-0.9692
-1.8198	3.8477	9.3427	0.3099	-0.951	-0.2368	0.6869	-0.1927	-1.4799	1.7571	2.0271	9.2348	3.3815	1.5377	0.9406	-0.1622	-0.9924	-0.8265	9.66	-0.1332	1.1262	-3.3649	-0.1471	0.6479	-0.7278	-0.2936	-0.9864
-1.7157	3.1672	8.7793	0.1857	-1.3499	-0.1889	0.7683	-0.2882	-1.4121	1.7621	2.2595	9.5234	3.021	1.926	0.6684	-0.1652	-1.066	-0.8734	9.8346	0.0367	1.0712	-3.2095	-0.1819	0.7689	-0.6716	-0.3463	-0.9325
-2.0609	3.5073	8.8856	0.1274	-0.8582	-0.1417	0.787	-0.2895	-1.3892	1.9347	1.9111	9.5839	3.0177	1.5881	0.6606	-0.1266	-1.039	-0.8268	10.014	-0.0202	1.25	-3.1174	-0.3353	0.698	-0.7437	-0.3067	-0.9227
-2.0092	3.6765	8.6049	-0.2074	-0.7417	-0.4473	0.7585	-0.1762	-1.4322	1.813	2.0269	9.1782	2.4722	1.8552	0.4148	-0.164	-1.0412	-0.8504	10.0619	-0.0197	0.7258	-3.3687	-0.2028	0.3041	-0.7072	-0.2569	-0.9512
-1.7066	3.9606	9.2325	0.1268	-0.9646	-0.4846	0.6872	-0.2159	-1.5246	1.9258	2.0847	9.1228	2.4398	1.613	0.3472	-0.1444	-1.0157	-0.8267	10.0153	-0.3599	1.3086	-3.2162	-0.2642	0.1757	-0.7635	-0.3476	-0.9364
-1.9489	3.6767	8.719	0.187	-1.1139	-0.6129	0.7067	-0.2169	-1.4796	2.1541	1.9102	9.1269	2.1989	1.7519	0.1013	-0.183	-1.0427	-0.8733	9.8909	-0.1331	0.9558	-3.372	-0.1069	0.0612	-0.7259	-0.2797	-0.9477
-2.2371	3.677	8.7694	0.0973	-0.7937	-0.8183	0.7301	-0.286	-1.48	1.583	1.9692	9.0585	2.0431	1.7705	0.409	-0.1633	-1.0403	-0.8282	9.7149	0.0934	0.9521	-3.3733	-0.5317	-0.2093	-0.7634	-0.276	-0.9707
-1.5412	3.7333	8.8405	0.0356	-0.9089	-0.9458	0.7085	-0.2393	-1.48	1.5919	2.434	9.5781	2.1934	1.8438	0.7515	-0.162	-1.0154	-0.8052	9.6036	0.263	1.2414	-3.1543	-0.5703	0.0969	-0.7656	-0.3123	-1.0051
-1.7113	3.7337	9.0062	0.1269	-0.9556	-0.6694	0.7499	-0.3101	-1.4797	1.706	2.3758	9.5802	2.258	2.0636	0.6337	-0.0893	-1.0369	-0.8033	9.7137	0.2633	0.8935	-2.8785	-0.4813	0.0376	-0.7462	-0.2939	-0.9872
-2.1213	3.6203	8.7717	0.4308	-1.1425	-0.7982	0.7103	-0.2618	-1.4804	1.7522	2.375	9.0045	2.0701	1.8415	0.843	-0.1633	-1.0403	-0.8282	9.715	0.0368	0.9521	-2.8181	-0.4806	-0.0559	-0.7254	-0.3064	-0.9219
-2.3483	3.9606	8.9933	0.4324	-0.8533	-0.4182	0.7646	-0.2901	-1.5229	1.9273	1.8526	9.1802	1.9778	1.7232	0.7777	-0.1266	-1.039	-0.8268	9.6505	-0.1894	0.6593	-2.5739	-0.4815	-0.2127	-0.7465	-0.3163	-0.9829
-2.1176	3.5075	8.9408	1.3156	-1.0593	-0.4841	0.76	-0.2223	-1.4995	2.0565	1.7954	9.9897	1.6692	1.452	0.7687	-0.1084	-1.0154	-0.8475	10.0726	-0.0768	1.2512	-2.3588	-0.4233	-0.2113	-0.781	-0.3522	-0.9157
-1.943	3.9037	9.0017	1.0412	-1.0636	-0.2383	0.7625	-0.2444	-1.4777	1.8779	1.7952	9.5827	1.3623	1.1883	0.6055	-0.1275	-0.9939	-0.8917	10.1837	0.3197	0.9613	-2.2962	-0.517	-0.1547	-0.7462	-0.3656	-0.9528
-1.6063	3.6194	8.5003	0.5245	-0.751	-0.0443	0.7441	-0.2663	-1.5454	2.3331	1.6202	9.5335	0.6571	0.8993	0.469	-0.1614	-1.0145	-0.783	9.6564	-0.0198	0.951	-2.019	-0.3386	-0.0544	-0.727	-0.2979	-0.9649
-1.8898	3.7334	8.7768	0.128	-0.7518	0.2013	0.7247	-0.2185	-1.4788	1.8182	2.1433	9.4667	0.4737	0.7855	0.3412	-0.1253	-1.0372	-0.7825	9.4828	0.2632	1.0639	-1.7682	-0.5313	0.2744	-0.744	-0.2575	-0.9528
-1.709	4.017	9.1197	-0.2668	-0.4523	-0.0366	0.7607	-0.2219	-1.4773	2.1079	1.911	9.7025	0.1954	0.4831	0.3318	-0.1443	-1.0387	-0.8053	9.8346	-0.0199	1.0713	-1.7398	-0.1933	0.1992	-0.7286	-0.361	-0.9735
-1.8331	3.6766	8.7214	-0.6633	-0.4689	-0.1001	0.7805	-0.2461	-1.477	1.759	1.5629	9.2919	-0.2352	0.2156	0.2909	-0.1267	-1.016	-0.8482	9.5942	-0.0196	0.7747	-1.3357	-0.2657	0.5332	-0.6889	-0.3284	-0.9161
-1.9465	3.7901	8.8321	-0.3272	-0.345	-0.3109	0.7816	-0.2689	-1.4996	1.9918	1.853	9.585	-0.3849	0.233	-0.0188	-0.1273	-1.04	-0.849	9.5368	-0.0762	0.8319	-0.9328	-0.2145	0.8119	-0.7097	-0.3158	-0.9813
-2.1214	3.7335	8.7719	-0.1741	-0.2429	0.0324	0.7416	-0.1974	-1.4555	1.7021	2.1434	9.3492	-0.3524	0.2413	-0.2035	-0.145	-1.0397	-0.8275	9.7711	0.3766	0.8362	-0.839	-0.2178	0.935	-0.7075	-0.2794	-0.9469
-2.0647	3.7334	8.7167	-0.2051	-0.3312	-0.0324	0.7232	-0.2193	-1.5231	1.5341	2.2599	9.5191	-0.3538	-0.1462	-0.4593	-0.1456	-1.0406	-0.8497	9.252	0.0933	1.2344	-0.5669	-0.0324	0.6018	-0.7259	-0.2797	-0.9477
-1.7751	3.62	8.7225	0.3127	-0.4483	0.1812	0.725	-0.2417	-1.5235	1.9347	1.9111	9.5839	-0.3507	0.044	-0.5784	-0.1623	-0.9693	-0.8478	9.892	-0.1331	1.0142	-0.1319	-0.1664	0.9323	-0.7467	-0.3388	-0.9786
-2.2216	4.0747	9.504	0.3434	-0.411	0.0283	0.7463	-0.2652	-1.4789	1.9284	1.8527	9.2378	-0.2599	0.038	-0.4851	-0.1437	-1.0148	-0.8045	10.0103	0.2631	1.0746	-0.0124	0.0197	0.6934	-0.764	-0.3209	-0.9622
-1.8873	3.5638	8.8893	0.5271	-0.276	0.3111	0.7585	-0.223	-1.5438	2.2124	1.7941	9.1855	-0.1996	-0.1722	-0.6128	-0.1633	-1.0403	-0.8282	9.66	-0.0766	1.1262	0.0185	0.08	0.7273	-0.7278	-0.2936	-0.9864
-1.8897	3.6202	8.7765	0.3129	-0.4026	-0.1257	0.6905	-0.2376	-1.4807	1.9853	1.9106	9.239	-0.2879	-0.0667	-0.8581	-0.126	-1.0151	-0.826	9.8286	0.1502	0.7793	-0.0417	0.3228	0.9267	-0.7821	-0.2987	-0.9672
-1.6608	3.9594	8.6692	0.5579	-0.2094	0.1901	0.7452	-0.2423	-1.4563	2.0986	2.3166	9.2416	-0.0994	0.1	-1.1921	-0.1803	-1.039	-0.7845	9.8334	-0.1331	1.013	0.0461	0.541	0.6277	-0.7465	-0.3163	-0.9829
-1.6524	4.0734	9.0645	0.4965	-0.2939	0.0636	0.6905	-0.2376	-1.4807	1.9944	1.621	9.7	-0.2812	-0.0064	-1.474	-0.0887	-1.013	-0.8024	9.4783	-0.2461	0.8309	0.2288	0.4496	0.4355	-0.7062	-0.3104	-0.8996
-1.5424	3.7332	8.784	0.1934	0.0376	0.3824	0.7258	-0.2414	-1.5014	1.8781	1.6791	9.5826	-0.6448	0.1331	-1.6902	-0.1431	-0.9908	-0.8036	9.8908	0.0934	0.9556	0.2294	0.2658	0.4257	-0.7451	-0.2757	-0.97
-1.828	3.3374	8.9466	0.2241	0.0802	0.7541	0.7294	-0.2863	-1.5022	1.9354	2.1433	9.6419	-0.9829	-0.1623	-1.8235	-0.1088	-1.0624	-0.827	9.6564	-0.1896	0.9512	0.0714	0.1213	0.0162	-0.727	-0.2979	-0.9649
-1.6532	3.5639	9.0071	0.074	0.5189	0.6759	0.7808	-0.2693	-1.5217	1.7034	1.9694	9.4067	-0.9238	-0.4661	-1.9225	-0.1645	-1.0651	-0.8513	9.7067	-0.1327	0.5437	-0.0197	-0.0923	0.0366	-0.7443	-0.28	-0.9485
-1.7139	4.0731	8.894	-0.2936	0.2116	0.8804	0.7052	-0.2176	-1.5239	1.8628	2.4326	8.8337	-1.4738	-0.3073	-1.8313	-0.1816	-1.0409	-0.8289	9.715	-0.0198	0.9522	-0.2667	-0.118	-0.0559	-0.7445	-0.3024	-0.9442
-2.1205	4.1865	8.8292	-0.4143	0.436	0.7642	0.7452	-0.2423	-1.4563	1.9318	1.7369	9.4107	-1.5075	-0.497	-1.7125	-0.1443	-1.0387	-0.8053	10.3034	0.1497	1.0806	-0.5784	0.0139	-0.3565	-0.727	-0.2979	-0.9649
-1.4799	4.1298	9.0118	-0.6581	0.472	0.7955	0.7027	-0.1955	-1.5456	1.7593	2.0272	9.3502	-1.6932	-0.5919	-1.5929	-0.1999	-1.0645	-0.8082	10.1254	-0.4162	0.9608	-0.6707	-0.0762	-0.3916	-0.7259	-0.2797	-0.9477
-1.9527	4.016	8.5503	-0.7792	0.6305	0.7696	0.7239	-0.2189	-1.501	1.4737	1.7375	9.2868	-1.8464	-0.5322	-1.5003	-0.1267	-1.016	-0.8482	10.1217	-0.0764	0.7854	-0.6734	0.0493	-0.5709	-0.7078	-0.3019	-0.9426
-1.9492	4.1862	8.72	-0.8094	0.6815	0.3701	0.7294	-0.2863	-1.5022	1.8243	1.7375	9.7546	-1.9775	-1.0392	-1.1427	-0.1444	-1.0157	-0.8267	9.7138	-0.0764	0.8939	-0.6498	0.0283	-1.1921	-0.7464	-0.2447	-1.0172
-2.0007	3.7339	9.0002	-0.1097	0.3929	0.2083	0.7283	-0.2635	-1.4796	2.0433	1.9106	9.2977	-1.9793	-1.1943	-1.1154	-0.1444	-1.0157	-0.8267	9.9553	0.1497	1.2486	-0.5941	0.1269	-1.6522	-0.7091	-0.2709	-0.9899
-1.8368	3.7895	8.5523	-0.1393	0.5429	0.3058	0.7942	-0.2032	-1.4976	2.2191	2.2588	9.5897	-2.6588	-1.4475	-0.7261	-0.1246	-1.0363	-0.7603	9.8848	0.2069	0.6637	-0.3176	0.0929	-1.6871	-0.7437	-0.3067	-0.9227
-1.8232	3.4511	9.1726	-0.1691	0.6681	0.2791	0.7272	-0.2406	-1.4571	1.5901	1.5634	9.4041	-2.9987	-1.4286	-0.3584	-0.1462	-1.0645	-0.8506	10.124	0.15	0.9019	-0.0435	0.428	-1.7953	-0.7086	-0.2976	-0.9641
-2.3547	4.4695	8.712	0.471	0.618	0.3102	0.7607	-0.2219	-1.4773	1.8677	2.0847	9.064	-3.6097	-1.5028	-0.52	-0.0894	-1.0139	-0.8246	9.6575	0.2066	1.0091	0.0179	0.6711	-1.7208	-0.7281	-0.3161	-0.9821
-1.6536	4.0733	9.0081	0.3804	0.7771	0.2536	0.7283	-0.2635	-1.4796	1.7613	2.0854	9.4656	-4.222	-1.5535	-0.5268	-0.1464	-1.0184	-0.8932	10.0081	-0.2464	0.9583	0.3903	0.6615	-1.4452	-0.7091	-0.2709	-0.9899
-2.1213	3.5637	8.7716	0.5016	0.6381	-0.1209	0.7301	-0.286	-1.48	1.992	1.737	9.5848	-4.3431	-1.5163	-0.6196	-0.1467	-1.1115	-0.8301	10.0033	0.0935	0.7245	0.0532	0.8168	-1.2794	-0.7621	-0.3786	-0.8891
-2.0633	3.4505	8.7726	0.9259	0.1759	-0.3512	0.761	-0.2451	-1.5221	1.8703	1.8527	9.1791	-4.9225	-1.645	-0.9365	-0.1262	-0.9921	-0.8473	10.0749	0.0363	1.3678	-0.069	0.6955	-1.2539	-0.7073	-0.3286	-0.9168
-1.8922	3.7332	8.6639	0.5017	0.662	-0.6137	0.7294	-0.2863	-1.5022	1.6481	2.2597	9.5213	-5.0436	-1.6369	-1.0609	-0.1262	-0.9921	-0.8473	9.6563	0.0934	0.9509	-0.4387	0.5796	-1.3503	-0.7273	-0.3203	-0.9606
-1.7777	3.7896	8.6099	0.1969	0.6998	-0.5826	0.7798	-0.2464	-1.4992	2.0489	1.7949	9.586	-4.8009	-1.4746	-0.6846	-0.1272	-1.063	-0.8277	10.0069	-0.0765	0.8998	-0.7765	0.6446	-1.2823	-0.7089	-0.3201	-0.9598
-1.8284	3.9035	8.9477	1.3261	0.854	-0.6047	0.7078	-0.2397	-1.5021	1.9898	2.4332	9.528	-3.4545	-1.6121	-0.8606	-0.126	-1.0151	-0.826	9.477	0.0937	0.7722	-0.929	0.5839	-1.1914	-0.6889	-0.2567	-0.9504
-1.8896	3.4504	8.7762	1.5076	0.5889	-0.9525	0.7106	-0.285	-1.5251	1.7025	1.9113	9.3489	-2.5345	-1.4115	-0.8785	-0.1494	-1.1152	-0.9189	9.6493	-0.1327	0.6009	-1.2714	0.7162	-1.4917	-0.7467	-0.3388	-0.9786
-1.9451	3.5072	8.888	1.4162	0.6027	-0.5512	0.7103	-0.2618	-1.4804	1.6527	1.4476	9.6934	-1.5831	-1.0902	-0.8625	-0.1097	-1.0172	-0.8919	9.6541	-0.1895	0.8344	-1.2696	0.805	-1.301	-0.7454	-0.2982	-0.9657
-2.3517	3.7338	8.8235	1.9958	0.6434	-0.4555	0.7492	-0.3105	-1.5018	1.8228	1.9695	9.6972	-1.0611	-0.8257	-0.7899	-0.1633	-1.0403	-0.8282	10.0093	-0.2464	1.0167	-1.5111	0.7718	-0.929	-0.7662	-0.3573	-0.9966
-1.8849	3.6772	9.0025	1.4759	0.3635	-0.0963	0.7312	-0.3088	-1.5026	1.9255	2.2588	9.123	-0.079	-0.5341	-0.8052	-0.1443	-1.0387	-0.8053	9.6529	-0.2461	0.7761	-1.5124	0.6212	-1.092	-0.7272	-0.2487	-0.995
-1.7088	3.7339	9.1191	0.8366	0.5747	-0.2763	0.747	-0.2648	-1.4567	1.3525	1.5632	8.8807	0.4089	-0.4023	-0.5199	-0.1096	-1.0403	-0.8705	9.2473	-0.1329	1.0012	-2.0034	0.6265	-0.995	-0.7435	-0.2842	-0.927
-2.056	3.4511	9.1113	0.0146	0.8053	-0.1168	0.7474	-0.288	-1.5014	1.7582	2.0272	9.2925	0.686	-0.252	-0.5448	-0.106	-0.9426	-0.8227	9.8885	-0.2462	0.8392	-2.1226	0.5619	-0.6875	-0.7286	-0.2893	-1.0079
-1.8839	4.017	9.0596	-0.4443	0.5477	-0.2503	0.7092	-0.239	-1.4578	2.047	1.6787	9.4705	0.8068	-0.2908	-0.4211	-0.1437	-1.0148	-0.8045	9.7712	-0.0197	0.8366	-2.3088	0.445	-0.8783	-0.727	-0.2979	-0.9649
-2.0043	3.5638	8.8305	-0.8414	0.4142	-0.4411	0.7103	-0.2618	-1.4804	2.2735	1.9103	9.4174	0.5877	-0.4276	-0.0559	-0.1449	-1.0627	-0.8062	9.7711	0.2634	0.8364	-2.1873	0.3539	-1.0391	-0.6897	-0.3241	-0.9376
-1.8308	3.9033	8.8348	-0.6277	0.4741	-0.531	0.7067	-0.2169	-1.4796	2.0444	1.9107	9.3554	1.4129	-0.1218	0.3291	-0.1255	-0.9911	-0.8251	9.8884	0.0369	0.8389	-2.1262	0.3536	-1.0706	-0.7262	-0.3022	-0.9434
-1.8925	4.0728	8.6645	-0.4466	0.1326	-0.5728	0.6919	-0.2369	-1.4364	1.7623	1.5051	9.4649	1.6222	-0.1185	0.8249	-0.1823	-1.0418	-0.8511	9.4817	0.1501	1.0056	-2.0078	0.4192	-1.4399	-0.7267	-0.3471	-0.9348
-1.5447	3.5065	8.6707	0.2832	-0.2378	-1.6012	0.7085	-0.2393	-1.48	2.1621	1.6205	9.5303	2.479	0.1912	1.1176	-0.1274	-1.0169	-0.8703	9.8344	0.433	1.0709	-1.9136	0.5067	-1.25	-0.7089	-0.2484	-0.9942
-2.0056	3.7335	8.7743	0.1926	-0.0838	-0.9175	0.7452	-0.2423	-1.4563	1.8171	1.5049	9.3506	2.4818	0.3507	0.9978	-0.1259	-1.0381	-0.8047	9.3106	0.0367	1.2357	-1.727	0.6232	-1.0282	-0.7448	-0.3249	-0.9399
-1.7742	4.0163	8.7797	0.376	-0.0208	-0.4212	0.7409	-0.1978	-1.4777	1.4154	1.8536	9.2281	2.8812	0.3819	0.8478	-0.1634	-1.0172	-0.8495	9.5965	0.2068	0.8912	-1.5692	0.7375	-0.6514	-0.727	-0.2979	-0.9649
-2.0587	3.7906	8.999	0.4051	-0.2763	-0.2446	0.7247	-0.2185	-1.4788	1.5315	1.9116	9.3457	2.9768	0.4565	0.5418	-0.1463	-1.0415	-0.8719	9.7137	0.2633	0.8935	-1.7862	0.5904	-0.8436	-0.7454	-0.2982	-0.9657
-1.9415	3.6208	9.0576	0.2227	-0.1663	0.1288	0.7607	-0.2219	-1.4773	1.8747	1.795	9.4097	2.9798	0.7344	0.5173	-0.1634	-1.0172	-0.8495	9.6588	-0.0765	1.0678	-1.8487	0.6841	-0.9001	-0.7254	-0.3064	-0.9219
-1.6606	3.6198	8.6685	0.3144	-0.1397	0.1608	0.7265	-0.241	-1.4792	1.5805	2.1431	8.9433	3.1941	0.9076	0.6775	-0.1437	-1.0148	-0.8045	10.124	0.2066	0.9019	-2.03	0.5908	-0.6557	-0.7645	-0.2941	-0.9879
-1.8285	4.1299	8.9481	-0.2358	-0.3655	0.0589	0.7297	-0.2627	-1.4353	1.8222	2.3177	9.6976	3.1009	0.6972	0.6101	-0.1451	-1.0166	-0.8488	9.3621	-0.0196	0.8867	-1.8439	0.4642	-0.5709	-0.8002	-0.2765	-0.9723
-1.9982	3.5643	9.1127	0.159	-0.668	0.3585	0.7059	-0.2172	-1.5017	1.4213	2.2022	9.5746	2.9184	0.734	0.5476	-0.1623	-0.9693	-0.8478	9.7162	-0.0199	1.0105	-2.2104	0.161	-0.4602	-0.6894	-0.3016	-0.9418
-1.8826	3.8473	9.1157	0.5256	-0.5449	0.1478	0.7621	-0.2212	-1.433	1.7086	1.4474	9.6368	2.397	0.5602	0.508	-0.1427	-0.9439	-0.8241	9.9483	-0.0764	0.8986	-2.4219	0.2197	-0.1146	-0.7627	-0.3519	-0.9149
-1.9981	3.4511	9.1125	0.7086	-0.5381	-0.0982	0.7092	-0.239	-1.4578	1.8141	2.027	9.2359	2.3699	0.6062	0.2001	-0.1468	-1.0885	-0.8514	9.8882	0.6596	0.8383	-2.3618	0.1903	-0.2406	-0.7427	-0.3602	-0.8711
-1.7726	3.507	8.8352	1.0129	-0.6492	0.1149	0.8003	-0.2702	-1.4767	1.9336	1.9691	9.5263	2.6501	0.8005	-0.1016	-0.1444	-1.0157	-0.8267	9.8416	0.2628	1.4212	-2.6369	0.2222	-0.0818	-0.7081	-0.3244	-0.9383
-2.0106	4.0161	8.5491	1.1337	-0.8722	0.2003	0.7812	-0.2457	-1.4548	2.0451	2.1429	9.4133	2.746	0.8181	-0.5015	-0.1456	-1.0406	-0.8497	10.0069	-0.1897	0.8999	-2.8257	0.5964	-0.3084	-0.7651	-0.2674	-1.0137
-1.7183	3.45	8.667	0.8606	-0.6203	0.2388	0.7445	-0.2427	-1.4785	2.1536	2.2003	9.1272	2.996	1.0729	-0.7712	-0.1274	-1.0169	-0.8703	9.5426	0.2066	1.1235	-2.6074	0.5893	-0.0625	-0.7281	-0.3161	-0.9821
-1.5402	3.9598	8.8974	0.3735	-0.4688	-0.0661	0.8208	-0.294	-1.4542	1.7628	1.8533	9.523	3.0578	1.0455	-0.8639	-0.1273	-1.04	-0.849	9.8345	0.1499	1.0711	-2.5457	0.5272	-0.0663	-0.6713	-0.2521	-0.9711
-2.1153	3.7341	9.0542	0.1919	-0.2164	-0.089	0.7258	-0.2414	-1.5014	1.8677	2.0847	9.064	3.0906	1.143	-0.9848	-0.1817	-1.0178	-0.8502	9.715	-0.133	0.9523	-2.7684	0.6623	-0.6463	-0.7618	-0.2845	-0.9278
-1.8296	3.8468	8.8911	0.0082	-0.3514	-0.3718	0.7427	-0.2202	-1.4781	1.5341	2.2599	9.5191	2.8406	0.976	-0.6205	-0.1462	-1.0645	-0.8506	9.661	0.2631	1.1842	-2.366	0.3484	-0.5421	-0.7075	-0.2794	-0.9469
-1.715	3.8466	8.8371	0.2499	-0.7725	-0.0767	0.7445	-0.2427	-1.4785	1.8185	1.9692	9.4665	2.3526	0.9319	-0.8112	-0.1468	-1.0885	-0.8514	9.7079	-0.1327	0.6021	-2.4215	0.1886	-0.0852	-0.7273	-0.3203	-0.9606
-1.4842	3.2237	8.7843	0.8001	-0.5317	-0.2828	0.7297	-0.2627	-1.4353	1.8169	2.2593	9.4092	2.3513	0.8383	-0.7825	-0.143	-1.0139	-0.7823	9.5977	0.0369	0.9498	-2.2656	0.2141	0.1009	-0.7456	-0.3206	-0.9614
-1.2539	3.3932	8.733	0.8292	-0.7842	-0.1679	0.7059	-0.2172	-1.5017	1.6476	2.5499	9.5216	2.1678	0.9877	-0.6264	-0.1449	-1.0627	-0.8062	9.8907	0.4331	0.9553	-2.2684	0.2789	-0.1126	-0.7459	-0.1997	-1.0258
-2.1792	3.6204	8.7705	0.8897	-0.8811	-0.1092	0.7636	-0.2672	-1.5003	1.5263	1.7952	9.0572	2.0758	0.9001	-0.691	-0.1628	-0.9933	-0.8487	9.77	0.2068	0.778	-2.1139	0.4891	0.0214	-0.7473	-0.3121	-1.0044
-1.4758	3.3377	9.1797	1.1948	-0.8559	-0.1691	0.7294	-0.2863	-1.5022	2.2763	2.1427	9.5907	2.5637	0.9734	-0.4688	-0.0913	-1.0396	-0.8698	9.7268	0.0929	1.5358	-2.1415	0.6376	0.3395	-0.7091	-0.2709	-0.9899
-2.1216	4.1298	8.7727	1.0129	-0.656	-0.3789	0.7103	-0.2618	-1.4804	1.6498	1.9116	9.5786	2.6601	1.2864	-0.6151	-0.1625	-1.0624	-0.7847	9.5919	-0.1327	0.6581	-2.0777	0.5117	0.4873	-0.7456	-0.3206	-0.9614
-1.6558	3.7901	8.8946	0.9812	-0.8761	-0.263	0.7085	-0.2393	-1.48	1.5341	1.6216	9.4607	3.3036	1.2811	-0.7328	-0.1084	-1.0154	-0.8475	9.5368	-0.0762	0.8319	-2.1383	0.4503	0.5465	-0.7278	-0.2936	-0.9864
-2.225	3.7347	9.334	0.4647	-0.5313	-0.0987	0.7258	-0.2414	-1.5014	1.8729	2.2011	9.3525	3.7364	1.6759	-0.7816	-0.1069	-1.0366	-0.7818	9.4278	0.2631	1.2378	-2.1092	0.5132	0.4256	-0.7634	-0.276	-0.9707
-1.5389	3.9033	8.9537	0.9217	-0.598	-0.2538	0.7614	-0.2215	-1.4552	2.1002	1.9685	9.2989	3.8579	1.4939	-0.8772	-0.1084	-1.0154	-0.8475	9.4828	0.2632	1.0639	-2.0153	0.3573	0.5096	-0.7465	-0.3163	-0.9829
-1.6633	4.0724	8.5565	0.495	-0.5703	0.0543	0.7463	-0.2652	-1.4789	1.7565	1.7369	9.1768	3.6135	1.5289	-0.8786	-0.1644	-1.0882	-0.8299	9.6038	-0.1899	1.2418	-1.8908	0.4449	0.6683	-0.7429	-0.311	-0.9012
-1.943	3.9037	9.0017	0.587	-0.4702	-0.158	0.7258	-0.2414	-1.5014	2.0385	2.2005	9.0674	3.3676	1.4103	-0.8836	-0.1096	-1.0403	-0.8705	9.5439	-0.0766	1.1822	-1.6108	0.2844	0.8746	-0.7443	-0.28	-0.9485
-1.8345	3.9596	8.6655	0.9217	-0.6085	-0.0382	0.7412	-0.221	-1.5224	1.6399	2.0271	9.0596	3	1.3845	-0.8567	-0.1664	-1.1139	-0.8752	9.8945	-0.2465	1.1311	-1.733	0.4372	1.0076	-0.7664	-0.3081	-1.0266
-1.4812	4.1297	8.9554	0.8609	-0.5761	-0.0373	0.7272	-0.2406	-1.4571	1.8139	2.1431	9.236	2.5402	1.0649	-1.0842	-0.143	-1.0139	-0.7823	10.0104	0.0932	1.0747	-1.3667	0.6189	0.8285	-0.7256	-0.2572	-0.952
-1.9465	3.7335	8.832	0.5875	-0.3856	-0.0009	0.7254	-0.2182	-1.4567	1.8134	2.4332	9.2363	2.1392	0.9094	-0.9063	-0.1267	-1.016	-0.8482	10.2319	-0.1893	0.4377	-1.2409	0.6438	1.0769	-0.7267	-0.2754	-0.9692
-1.5979	3.7334	8.8957	0.7387	-0.6049	-0.0078	0.711	-0.2614	-1.4582	1.5272	2.4916	9.1734	1.8942	0.8537	-0.9406	-0.1077	-1.0145	-0.8253	9.4734	-0.0194	0.5972	-0.8992	0.7259	1.3886	-0.7459	-0.2714	-0.9915
-2.0572	3.451	9.0548	0.4359	-0.2158	-0.2425	0.7258	-0.2414	-1.5014	1.4735	1.8536	9.2869	1.8022	0.6783	-1.0998	-0.1077	-1.0145	-0.8253	9.8934	-0.6427	1.0731	-0.8325	0.5046	1.7483	-0.7267	-0.2754	-0.9692
-1.8342	3.6199	8.6649	0.373	-0.5684	0.0848	0.7441	-0.2195	-1.4338	2.0993	1.9104	9.2411	1.5566	0.7367	-0.9464	-0.1456	-1.0406	-0.8497	9.7244	0.2628	1.4189	-0.7742	0.7824	1.5766	-0.7629	-0.231	-0.9793
-2.0597	3.564	8.9422	0.0706	-0.1051	0.2229	0.7049	-0.1944	-1.4792	1.7552	1.8529	9.1193	1.2786	0.4942	-0.9236	-0.1436	-1.0378	-0.7831	9.8275	-0.0196	0.7211	-0.5936	0.6634	1.197	-0.7089	-0.2484	-0.9942
-2.2361	4.0168	8.8265	0.1304	-0.3248	0.2774	0.7059	-0.2172	-1.5017	1.1881	2.0862	9.2818	0.9119	0.5313	-0.9261	-0.1444	-1.0157	-0.8267	9.8371	-0.5296	1.1885	-0.6543	0.4192	1.1845	-0.7994	-0.2808	-0.9508
-1.9983	3.7341	9.1131	0.3744	-0.3182	0.0007	0.6897	-0.238	-1.5029	1.817	2.2013	9.4091	0.4519	0.3872	-0.9645	-0.1279	-1.0639	-0.8499	9.892	-0.0765	1.0142	-0.4079	0.2326	1.1416	-0.7459	-0.3431	-0.9571
-1.7052	3.7909	9.2886	0.2525	-0.296	0.2479	0.6897	-0.238	-1.5029	1.9306	1.7948	9.3531	-0.044	0.1893	-0.5105	-0.1816	-1.0409	-0.8289	9.8955	0.263	1.1889	-0.2568	0.2646	0.9252	-0.7456	-0.2489	-0.9957
-2.1213	3.5637	8.7716	0.3756	-0.0889	0.3478	0.6937	-0.2594	-1.4368	1.9292	2.0269	9.2957	-0.0131	0.0733	-0.6672	-0.1091	-1.0163	-0.8697	9.6612	-0.1332	1.1846	-0.1938	0.2617	1.0486	-0.7465	-0.3163	-0.9829
-1.8849	3.7338	9.0026	0.4058	-0.1557	0.4382	0.7478	-0.2644	-1.4346	1.8172	2.0852	9.409	-0.0749	0.1299	-0.543	-0.1628	-0.9933	-0.8487	9.8393	-0.0202	1.3048	0.1459	0.4684	1.243	-0.7072	-0.2569	-0.9512
-1.5897	4.187	9.2918	0.7398	-0.4153	0.5231	0.7265	-0.241	-1.4792	1.8758	1.7951	9.4674	0.1691	0.2104	-0.3846	-0.109	-1.0393	-0.8483	10.0046	-0.3594	0.7833	0.2995	0.3141	1.1716	-0.7086	-0.2259	-0.9985
-1.648	2.9982	9.2318	0.8919	-0.475	0.3981	0.7276	-0.2638	-1.5018	1.8727	1.7368	9.2943	0.1356	0.1976	-0.1074	-0.1278	-1.0869	-0.8286	9.7162	-0.0765	1.0106	0.4837	0.4034	1.175	-0.7267	-0.2754	-0.9692
-2.0019	3.6772	8.9436	0.9535	-0.3756	0.2165	0.7438	-0.2431	-1.5006	1.8169	1.6209	9.3508	0.2289	0.3204	-0.1346	-0.147	-1.0424	-0.8941	9.4242	0.2633	1.0627	0.7656	-0.095	1.4253	-0.7086	-0.2976	-0.9641
-1.7076	3.6774	9.1755	0.984	-0.3705	0.0934	0.7114	-0.2846	-1.5029	1.8116	2.2009	9.1207	0.4758	0.4142	-0.2537	-0.1473	-1.1124	-0.8523	9.4804	0.2634	0.9472	0.8817	0.2176	0.9451	-0.7083	-0.2751	-0.9684
-1.8862	3.7903	8.9462	0.405	-0.2838	-0.0906	0.7258	-0.2414	-1.5014	1.873	2.1431	9.3524	0.3859	0.4246	-0.4395	-0.1648	-1.0191	-0.8939	10.1336	-0.0769	1.3691	1.3106	0.0615	0.7476	-0.7262	-0.3022	-0.9434
-2.1202	3.7903	8.8285	0.4347	-0.4323	-0.2189	0.7646	-0.2901	-1.5229	1.9226	2.0845	8.9497	0.2629	0.57	-0.2212	-0.164	-1.0412	-0.8504	9.661	0.3197	1.1842	1.2794	0.0931	0.7185	-0.7278	-0.2936	-0.9864
-1.826	3.9603	9.0607	0.494	-0.7381	-0.2907	0.7369	-0.1764	-1.5438	1.7628	1.8533	9.523	0.3861	0.7185	-0.155	-0.0702	-1.0354	-0.7804	9.3655	0.4331	1.0614	1.4951	0.0896	0.7476	-0.7083	-0.2751	-0.9684
-1.7138	3.8467	8.8935	0.2208	-0.5229	-0.1301	0.7258	-0.2414	-1.5014	1.641	1.3888	9.0589	1.0596	1.2668	0.3576	-0.1076	-1.0375	-0.804	9.8967	0.0365	1.2475	1.6511	-0.1289	0.8588	-0.7465	-0.3163	-0.9829
-2.2324	3.8473	8.9955	1.3468	-0.9373	-0.4799	0.7798	-0.2464	-1.4992	1.4771	2.26	9.5181	4.004	2.4907	3.9313	-0.1607	-1.0136	-0.7608	9.5452	-0.2465	1.2407	1.8047	-0.2832	0.7874	-0.7283	-0.2669	-1.0122
-1.827	3.6772	9.0037	2.6526	-1.9315	-1.0339	0.7276	-0.2638	-1.5018	1.6423	1.8531	9.1748	7.4859	4.1098	6.1299	-0.1293	-1.0427	-0.9156	10.3561	0.2066	0.7899	2.0518	-0.0748	0.9516	-0.7086	-0.2976	-0.9641
-1.6063	3.6194	8.5003	2.9265	-2.0298	-1.0672	0.7794	-0.2232	-1.4544	1.693	2.375	8.8881	9.5104	5.1584	6.6354	-0.0888	-0.9899	-0.8237	9.8942	0.5461	1.1303	2.2028	-0.1035	0.701	-0.7618	-0.2845	-0.9278
-1.6016	3.7897	8.7265	3.35	-2.6523	-1.7965	0.8057	-0.3376	-1.4779	1.6925	2.6651	8.8884	9.1849	5.713	6.0895	-0.1462	-1.0645	-0.8506	9.6504	0.2636	0.6589	2.4189	-0.1381	0.7595	-0.7838	-0.3618	-0.9759
-1.4859	3.9028	8.7291	2.5256	-2.8413	-1.8671	0.7686	-0.3114	-1.4568	1.7562	2.5493	9.2354	8.0957	5.4636	4.6231	-0.1077	-1.0145	-0.8253	9.1862	0.2069	0.8829	2.7889	-0.4797	0.7075	-0.7248	-0.2615	-0.9305
-1.5414	4.0163	8.841	1.6136	-2.3257	-1.8217	0.7308	-0.2856	-1.4578	1.6444	1.9113	9.2902	6.6636	4.6042	3.1705	-0.1303	-1.1367	-0.8747	9.483	-0.1331	1.0643	3.1582	-0.8508	0.592	-0.7837	-0.2901	-1.0102
-1.7692	3.7338	9.005	0.9447	-1.9548	-1.4719	0.7276	-0.2638	-1.5018	1.3578	2.2019	9.2275	4.9543	3.8578	2.0266	-0.0911	-1.0857	-0.8272	9.483	-0.3029	1.0644	3.3097	-1.0327	0.3332	-0.6908	-0.2706	-0.9891
-1.714	4.1863	8.8942	0.1563	-1.152	-1.077	0.7478	-0.2644	-1.4346	1.5791	2.3171	8.8859	3.3628	3.3518	1.5992	-0.1435	-1.0609	-0.7618	9.3108	-0.4728	1.2362	3.3988	-1.06	0.0521	-0.7443	-0.28	-0.9485
-1.7211	3.9027	8.5549	-0.3022	-1.352	-0.499	0.7456	-0.2655	-1.501	1.701	2.1433	9.2915	1.9557	2.73	0.9548	-0.1265	-1.0621	-0.8055	9.7199	-0.5295	1.1861	3.2714	-1.2657	-0.3918	-0.7089	-0.2484	-0.9942
-1.8886	3.7901	8.8333	-0.3921	-1.0587	-0.15	0.7427	-0.2202	-1.4781	1.8734	2.5493	9.4106	0.4632	2.7549	0.3244	-0.1086	-1.1084	-0.7844	9.7222	-0.3032	1.3027	3.2032	-0.9204	-0.8379	-0.7459	-0.2714	-0.9915
-1.5376	3.7902	9.01	-0.97	-0.8005	0.5665	0.7463	-0.2652	-1.4789	2.0372	2.3745	9.0099	-0.8799	2.7316	0.003	-0.1437	-1.0148	-0.8045	10.1851	-0.2465	1.0202	3.477	-0.7982	-1.0504	-0.7073	-0.3286	-0.9168
-1.9501	3.7332	8.6626	-1.8227	-0.593	1.2188	0.743	-0.2434	-1.5228	1.6321	2.1427	8.656	-1.7954	3.255	0.3153	-0.1451	-1.0166	-0.8488	10.3036	-0.4164	1.0811	3.526	-0.4772	-1.9945	-0.7294	-0.2851	-1.0294
-2.1806	3.9033	8.7146	-2.0957	-0.3419	1.9051	0.7434	-0.2199	-1.4559	1.5286	2.3176	9.2308	-2.5245	4.2579	0.8254	-0.11	-1.1103	-0.8287	10.4805	-0.2467	1.1429	3.2328	-0.5727	-3.4232	-0.7645	-0.2941	-0.9879
-1.7089	3.7905	9.1192	-2.9187	-0.2881	1.9044	0.7261	-0.2646	-1.5461	2.0546	2.2595	9.9326	-3.0134	5.2651	1.8009	-0.0885	-1.059	-0.7598	10.1935	-0.5299	1.4291	2.7127	-0.1922	-5.6616	-0.7111	-0.2848	-1.0286
-1.827	3.6206	9.0036	-3.9855	-0.193	2.4597	0.7085	-0.2393	-1.48	1.8194	2.0854	9.5243	-3.3811	5.8841	2.4907	-0.1247	-1.0133	-0.7816	9.6659	-0.0768	1.418	1.7033	-0.3878	-7.8651	-0.7426	-0.2885	-0.9055
-1.7076	3.734	9.1756	-3.706	0.7133	2.6454	0.747	-0.2648	-1.4567	1.3022	2.028	9.2839	-3.1332	6.5101	2.816	-0.1078	-0.9914	-0.8466	9.9626	-0.3035	1.5993	0.768	-0.9367	-9.127	-0.7097	-0.2441	-1.0157
-1.8224	4.0739	9.2303	-4.0681	1.409	3.0996	0.7232	-0.2193	-1.5231	1.8127	2.201	9.1784	-2.6382	7.3484	3.1175	-0.109	-1.0393	-0.8483	9.6039	-0.6428	1.2423	-0.1903	-1.2824	-9.665	-0.764	-0.3209	-0.9622
-1.7632	3.9607	9.2877	-4.946	2.577	3.6299	0.7419	-0.2206	-1.5002	1.5908	2.4339	9.5204	-2.4165	8.1127	3.137	-0.1609	-0.9675	-0.8034	9.6601	-0.4162	1.1265	-1.2987	-1.4789	-9.822	-0.7251	-0.284	-0.9262
-1.598	3.8466	8.896	-6.157	4.1709	4.4512	0.7419	-0.2206	-1.5002	1.8134	1.7948	9.1779	-2.1377	8.6519	3.3371	-0.1264	-1.0851	-0.7842	10.3095	-0.4167	1.373	-2.2605	-1.6674	-10.5997	-0.7648	-0.3166	-0.9837
-1.4156	3.5077	9.2941	-9.0398	6.7154	5.6697	0.7452	-0.2423	-1.4563	1.4709	2.1436	9.1719	-2.2599	8.9772	3.652	-0.1285	-1.0648	-0.8721	9.4948	-0.2468	1.6481	-3.0778	-1.7235	-12.1152	-0.8013	-0.2947	-0.9895
-1.5362	3.5073	9.0659	-12.5624	9.3453	6.7656	0.7639	-0.2436	-1.4334	1.7599	2.2594	9.4081	-2.8361	9.3618	3.5321	-0.0734	-1.086	-0.8487	9.7281	-0.1336	1.5944	-4.0196	-1.6845	-13.7177	-0.7259	-0.2797	-0.9477
-1.4225	2.9409	8.9543	-13.8624	11.3884	7.2624	0.7585	-0.223	-1.5438	1.7018	2.3175	9.3494	-3.7798	10.1315	3.8498	-0.1101	-1.0872	-0.8501	9.7902	-0.0772	1.7706	-5.0726	-1.6599	-14.3283	-0.6705	-0.2564	-0.9496
-1.7729	3.9598	8.8361	-17.8576	11.1961	8.4469	0.747	-0.2648	-1.4567	1.4753	2.0858	9.4025	-5.7616	10.6636	3.7204	-0.1468	-1.0885	-0.8514	9.6731	-0.3036	1.7684	-5.9634	-1.6797	-14.2296	-0.728	-0.2444	-1.0164
-2.1236	3.3937	8.6583	-18.9565	10.9833	7.7576	0.7805	-0.2461	-1.477	1.4178	2.3761	9.4018	-7.9032	10.7856	3.858	-0.0703	-1.0123	-0.8017	9.9624	0.0361	1.5989	-6.3933	-1.6441	-14.1624	-0.6919	-0.2888	-1.0063
-1.6579	3.337	8.7808	-17.8632	10.1989	6.8089	0.7045	-0.218	-1.546	1.3049	1.738	9.3989	-10.1654	11.0941	3.9987	-0.1633	-1.0403	-0.8282	9.6718	-0.1903	1.71	-7.384	-1.7739	-14.7507	-0.707	-0.3062	-0.9211
-1.5376	3.7902	9.01	-19.1696	11.0462	6.5866	0.7276	-0.2638	-1.5018	1.5916	1.9697	9.5199	-11.7563	11.2081	4.1103	-0.1095	-1.0633	-0.8492	9.2029	-0.0203	1.7003	-7.8527	-1.6355	-15.3287	-0.7262	-0.3022	-0.9434
-2.0644	3.2806	8.7158	-20.9983	11.1858	6.0303	0.7621	-0.2212	-1.433	1.7646	2.0276	9.6385	-12.2657	11.295	3.1199	-0.1285	-1.0648	-0.8721	9.5592	0.2624	1.9407	-8.3795	-1.6533	-15.6666	-0.7086	-0.2976	-0.9641
-2.2838	3.2252	9.2754	-21.3632	11.3684	5.0172	0.7016	-0.1726	-1.5231	1.6442	2.0274	9.2903	-12.3253	10.7464	2.3969	-0.1078	-0.9914	-0.8466	9.3798	0.2626	1.762	-8.2877	-1.4101	-15.6233	-0.7106	-0.3832	-0.9684
-1.9365	3.3382	9.2829	-22.3387	11.4054	4.1824	0.7603	-0.1987	-1.4326	1.4814	1.6219	9.6903	-11.6879	10.9178	3.0857	-0.1274	-1.0169	-0.8703	9.4373	0.0928	1.705	-7.8289	-1.2302	-15.7722	-0.7445	-0.3024	-0.9442
-1.8627	3.1698	10.0176	-21.2133	10.9235	3.9537	0.7272	-0.2406	-1.4571	1.4155	2.434	9.2865	-11.4716	10.4258	2.3664	-0.0723	-1.0381	-0.847	9.7889	0.3758	1.7118	-7.8116	-1.1512	-16.884	-0.7281	-0.3161	-0.9821
-1.9857	2.9994	9.6762	-16.3354	10.8259	4.4282	0.7783	-0.2004	-1.4319	1.4744	1.9697	9.3447	-11.5976	10.1178	2.42	-0.0901	-0.9918	-0.8681	9.6131	0.206	1.7084	-6.454	-0.6161	-18.9424	-0.7492	-0.326	-1.0431
-2.098	3.2262	9.8435	-15.1132	11.281	5.1261	0.7376	-0.176	-1.5216	1.4205	2.028	9.5167	-12.1534	9.7806	2.5924	-0.0899	-1.0378	-0.8255	9.6693	0.2627	1.5928	-4.9373	-0.0294	-20.5344	-0.7643	-0.2717	-0.9922
-2.2775	2.8861	9.557	-14.0365	13.0327	5.1884	0.7211	-0.1736	-1.478	1.5327	1.8536	9.4033	-12.5546	9.2142	2.3597	-0.1071	-0.9905	-0.8244	9.6729	0.2625	1.7679	-1.6787	0.8834	-22.9591	-0.7078	-0.3019	-0.9426
-2.3295	3.1697	9.8386	-13.5981	15.1344	5.384	0.7596	-0.1991	-1.4548	0.9586	1.7383	9.1617	-12.4679	8.4272	2.0647	-0.0899	-1.0378	-0.8255	9.6164	0.772	1.883	1.6605	1.7999	-23.7725	-0.7627	-0.3519	-0.9149
-1.9231	3.2828	9.9037	-14.5855	18.5858	3.9546	0.7765	-0.1779	-1.4315	1.4216	1.3897	9.516	-12.6316	7.5302	2.2279	-0.071	-1.0133	-0.8239	9.4408	0.2625	1.8799	4.746	2.8217	-25.1982	-0.7089	-0.3201	-0.9598
-2.1531	2.7736	9.9543	-15.8732	22.8978	2.0906	0.8136	-0.2041	-1.4526	1.3028	1.6798	9.2835	-12.9174	6.9585	2.7061	-0.0911	-1.0857	-0.8272	9.4394	0.8287	1.821	8.3	3.7969	-26.0411	-0.7091	-0.2709	-0.9899
-1.6744	3.1144	10.6986	-14.6877	27.8279	-0.6089	0.7596	-0.1991	-1.4548	1.1372	1.6804	9.5686	-12.8679	5.9656	2.869	-0.0888	-0.9899	-0.8237	9.559	0.7153	1.9402	11.2604	4.3854	-25.1954	-0.7289	-0.3835	-0.9692
-2.0833	3.1143	10.5207	-10.2052	33.4723	-2.1634	0.7535	-0.132	-1.4757	1.5361	1.0994	9.5178	-12.2284	5.0917	2.2684	-0.0698	-0.9884	-0.8009	9.2636	0.7722	1.8175	14.2209	5.5529	-24.133	-0.7443	-0.3516	-0.9141
-2.3205	4.1329	10.2921	-6.1856	38.0805	-3.6617	0.7593	-0.1759	-1.4101	0.9053	2.0868	9.3917	-10.8324	3.5212	1.8131	-0.1092	-0.9933	-0.891	9.3773	0.7723	1.6448	16.9819	5.9701	-21.9931	-0.7256	-0.3289	-0.9176
-1.8503	4.4729	10.6411	0.1189	42.2795	-5.0125	0.7963	-0.2021	-1.4311	1.3158	1.6806	9.9755	-9.4339	1.8456	0.985	-0.1443	-1.0387	-0.8053	9.4396	0.2626	1.8215	18.6255	5.6853	-20.9669	-0.7092	-0.3425	-0.9555
-2.4075	4.7017	11.6456	10.0233	46.6311	-6.5013	0.8295	-0.1601	-1.4067	1.0293	1.9131	9.9128	-7.6379	0.4555	0.4757	-0.0711	-0.9902	-0.8452	9.2483	0.603	1.0588	19.4367	5.049	-20.2321	-0.6903	-0.369	-0.929
-2.2472	4.6437	11.0281	25.0386	54.0419	-7.9947	0.7978	-0.2013	-1.3868	1.4216	2.0281	9.5744	-6.1521	-0.8607	0.4592	-0.1078	-0.9914	-0.8466	9.7314	0.3757	1.769	21.5998	4.1826	-19.7057	-0.746	-0.4148	-0.9227
-2.7471	3.8535	11.9754	31.0042	62.9083	-9.5286	0.8323	-0.2054	-1.4297	1.0208	1.8546	9.4513	-5.9551	-1.9106	1.1161	-0.1273	-1.04	-0.849	9.7792	0.8291	1.2444	23.7586	3.3222	-19.551	-0.6735	-0.3602	-0.9712
-2.5466	3.686	13.2207	38.4417	73.1218	-9.8404	0.876	-0.2751	-1.3629	1.1923	1.5641	9.4542	-5.8387	-2.0869	1.5452	-0.1078	-0.9914	-0.8466	10.1309	0.6592	1.2517	26.7945	2.5308	-20.6389	-0.7454	-0.3698	-0.9313
-2.5573	3.4586	12.7121	45.1239	84.6093	-11.8391	0.8305	-0.183	-1.4293	1.3644	1.5059	9.515	-5.4081	-1.7609	1.6492	-0.0928	-1.0184	-0.9355	10.0124	0.9423	1.1907	30.4111	2.4985	-21.7839	-0.7114	-0.4506	-0.9556
-2.5332	3.6872	13.8416	56.2371	97.4008	-14.6749	0.8705	-0.2077	-1.3617	0.9617	1.7965	9.3348	-5.2576	-1.4523	2.2132	-0.1287	-1.0418	-0.8934	9.8379	0.6593	1.2458	34.4938	2.6666	-22.4568	-0.7084	-0.3468	-0.934
-2.4729	3.744	13.9559	72.6871	109.5392	-19.1512	0.8911	-0.2315	-1.3392	1.413	2.0276	9.113	-5.2593	-1.3134	2.5251	-0.0901	-0.9918	-0.8681	9.7793	0.7159	1.2445	38.6721	3.6824	-22.5584	-0.7306	-0.4466	-0.9778
-2.4078	3.8578	14.296	99.0318	122.6032	-26.7736	0.9314	-0.2794	-1.3164	1.2969	1.9696	8.9954	-5.534	-1.1302	2.6502	-0.0896	-0.9678	-0.8673	9.5845	0.7168	0.307	42.3608	4.7929	-22.4033	-0.6933	-0.4011	-0.9849
-2.6753	3.0622	12.596	101.5405	134.8903	-27.5244	0.9278	-0.2345	-1.3156	1.4804	2.2602	9.6911	-6.2141	-1.4741	3.0065	-0.0907	-1.0157	-0.869	9.5928	0.49	0.7158	44.9592	6.0172	-20.7462	-0.7301	-0.4734	-0.9521
-2.9343	2.3239	11.2914	90.3649	144.9187	-23.3655	0.9671	-0.2596	-1.2702	1.4189	1.7378	9.401	-6.583	-2.0336	2.62	-0.1268	-0.993	-0.8695	9.0677	0.5467	0.8219	46.3385	6.8468	-18.2639	-0.7081	-0.396	-0.904
-3.0555	1.4744	11.005	78.6736	149.6873	-15.8994	0.9711	-0.281	-1.2041	0.8523	1.6809	9.5632	-6.4322	-2.3098	2.5533	-0.0907	-1.0157	-0.869	9.2459	0.4899	0.9422	46.4317	6.9854	-15.5297	-0.6738	-0.4543	-0.9325
-3.3338	0.5646	8.7967	59.8669	153.0232	-6.5594	1.0276	-0.3081	-1.1801	1.5995	1.1577	9.865	-5.6095	-3.1592	2.0167	-0.1077	-1.0145	-0.8253	9.4147	0.2637	0.5958	45.1722	6.7758	-12.8348	-0.7103	-0.4324	-0.9384
-4.5574	-0.5109	8.374	26.6458	147.0624	9.6436	1.0316	-0.3295	-1.114	1.4206	1.3316	9.4582	-3.92	-3.7701	0.6908	-0.0912	-1.0627	-0.8485	9.3527	-0.0192	0.4197	43.0175	6.0343	-10.5953	-0.6933	-0.4728	-0.9505
-3.7322	-0.5667	9.0683	15.4327	137.6395	28.6698	1.0705	-0.3782	-1.1355	1.7028	1.7372	9.3487	-1.5011	-4.239	-0.0078	-0.1274	-1.0169	-0.8703	9.1697	-0.0754	0.066	41.0061	5.6709	-9.1116	-0.655	-0.5525	-0.8716
-2.2137	-0.9115	7.0117	10.6229	127.9184	44.4679	1.0676	-0.3329	-1.1126	1.6032	1.5061	10.0961	0.3071	-4.6343	-0.7411	-0.1256	-0.9681	-0.8464	9.3373	-0.1317	-0.339	39.3759	5.7543	-9.0638	-0.6747	-0.5218	-0.9197
3.1605	-0.3499	6.674	-5.2059	93.9336	57.0397	1.1249	-0.3597	-1.0664	1.5978	1.5058	9.8077	2.6963	-4.5119	-0.9326	-0.0895	-0.9908	-0.8459	9.8672	-0.132	-0.2116	38.872	6.8743	-9.6513	-0.6925	-0.4771	-0.929
8.7496	0.2153	8.2593	-18.5662	48.5452	42.0739	1.072	-0.3307	-0.9796	1.7021	1.505	9.2908	3.8627	-4.1606	-0.9756	-0.108	-0.9454	-0.8893	10.0956	0.0946	-0.4989	39.3198	8.197	-10.3281	-0.7106	-0.5266	-0.8997
7.944	0.0465	8.4678	-7.6227	14.9677	3.4839	1.0576	-0.3739	-0.9811	1.3137	1.6224	9.8601	3.9254	-4.0081	-0.9715	-0.1627	-1.0163	-0.8273	9.8683	0.0378	-0.1534	39.941	9.4602	-9.3668	-0.6928	-0.4996	-0.9247
5.4835	-0.2941	7.0613	-12.8528	-15.6794	-11.2322	1.0867	-0.3106	-1.0228	1.5886	1.8534	9.3467	3.8902	-4.2636	-0.7616	-0.0921	-1.0175	-0.9134	9.8801	0.0939	0.4303	40.9526	10.1102	-6.8292	-0.6385	-0.5662	-0.9095
4.5589	-0.9727	7.097	-28.8973	-33.7482	-7.51	1.1451	-0.3602	-0.9992	1.7032	1.5051	9.3485	3.8483	-4.8133	-0.1881	-0.1457	-1.0175	-0.871	9.7629	0.2071	0.4278	41.9592	10.3098	-4.8736	-0.6542	-0.5568	-0.8501
3.5198	-0.066	7.2463	-38.873	-46.2917	6.9378	1.0925	-0.4012	-1.0687	1.6482	1.5633	9.4628	4.0827	-5.3049	0.3584	-0.1098	-0.9942	-0.9132	9.7688	0.2069	0.7197	42.5865	9.1875	-4.2562	-0.6371	-0.5255	-0.8966
3.1119	0.2171	7.1255	-46.5052	-59.6903	25.0068	1.1055	-0.3119	-0.9999	1.6536	2.202	9.8096	4.5054	-5.3667	0.8547	-0.1268	-0.993	-0.8695	9.8944	-0.02	1.1308	43.1007	8.2362	-2.7299	-0.6383	-0.6154	-0.8795
2.8845	1.18	7.3483	-54.5382	-74.013	42.7374	1.1058	-0.3351	-1.0446	1.078	1.7384	9.4522	4.6881	-5.6667	0.6334	-0.1274	-1.0169	-0.8703	9.9458	0.2634	0.7815	44.1063	6.9135	-1.4132	-0.6753	-0.5667	-0.9111
2.8278	1.2367	7.4036	-60.7642	-86.7697	55.7137	1.0507	-0.3073	-1.0243	1.0295	1.7971	9.9126	5.1123	-6.0735	0.628	-0.0716	-1.0372	-0.8248	9.4817	0.0935	1.0057	43.9979	5.798	-0.5729	-0.7101	-0.625	-0.8396
