1827_acc_x	1827_acc_y	1827_acc_z	1827_gyro_x	1827_gyro_y	1827_gyro_z	1827_mag_x	1827_mag_y	1827_mag_z	1828_acc_x	1828_acc_y	1828_acc_z	1828_gyro_x	1828_gyro_y	1828_gyro_z	1828_mag_x	1828_mag_y	1828_mag_z	1829_acc_x	1829_acc_y	1829_acc_z	1829_gyro_x	1829_gyro_y	1829_gyro_z	1829_mag_x	1829_mag_y	1829_mag_z
-1.1451	-0.2991	9.7091	-0.1907	-0.1877	0.319	-0.0994	0.6885	-0.8058	1.2476	-0.0639	9.608	-0.5279	0.3921	0.1409	-0.0306	-0.9043	-1.8328	9.9856	1.0741	-0.3526	-1.1301	0.6053	0.7572	-0.9531	0.3872	-0.2491
-0.7419	-0.5889	9.9445	-0.1024	-0.3422	0.2843	-0.1564	0.6977	-0.8595	1.07	0.2287	9.6055	-0.5886	0.4541	0.1719	0.0876	-0.3164	-1.6018	9.5327	0.7889	-0.1343	-1.3202	0.4517	0.6688	-1.0455	-0.0955	-0.4705
-0.984	-0.7649	9.1973	-0.2881	-0.3415	0.2895	-0.2136	0.7028	-0.8772	1.367	0.2283	9.7258	-0.7714	0.5163	0.204	0.0029	-0.3126	-1.6269	10.0352	0.8993	-0.808	-1.291	0.577	0.5148	-1.0615	-0.0966	-0.418
-0.9721	-0.3569	9.8265	-0.319	-0.3414	0.2903	-0.1374	0.6946	-0.8416	1.0093	-0.0053	9.4889	-0.4041	0.3321	0.2638	0.0012	-0.3768	-1.5662	9.8759	0.9028	-0.1276	-1.4496	0.6091	0.3339	-1.078	-0.1154	-0.3828
-1.083	-0.9946	9.9366	-0.0691	-0.2809	0.3146	-0.1174	0.6758	-0.8395	1.0144	0.2293	9.7766	-0.7408	0.2698	0.1747	0.0043	-0.3334	-1.626	9.6368	1.3623	-0.5856	-1.5951	0.7571	0.6444	-1.0256	-0.1516	-0.3807
-1.3693	-0.4144	9.8756	-0.0086	-0.3429	0.3123	-0.1386	0.7061	-0.7898	1.2393	0.1686	9.207	-0.7417	0.2997	0.1127	0.034	-0.3154	-1.5789	9.5868	1.3642	-0.1879	-1.5679	0.6977	0.5209	-1.0463	-0.149	-0.5046
-1.0287	-0.6469	9.8246	-0.1921	-0.2495	0.3184	-0.1348	0.6368	-0.7991	1.4879	-0.0637	9.8419	-0.5265	0.7325	0.2928	-0.0132	-0.3741	-1.6268	9.8155	0.9023	-0.2995	-1.346	0.7581	0.7006	-0.9918	-0.0967	-0.4162
-0.9184	-0.4155	9.6562	-0.3128	-0.1567	0.3533	-0.0812	0.7075	-0.826	1.3076	-0.0638	9.6664	-0.5888	0.5464	0.1712	-0.0335	-0.3734	-1.6293	9.41	0.7299	-0.5924	-1.2101	1.1542	0.9747	-1.0098	-0.0421	-0.4354
-1.4253	-0.1821	9.9323	-0.2874	-0.0305	0.0789	-0.063	0.7244	-0.8283	1.42	0.4026	9.4406	-0.9242	0.4238	0.1752	-0.0327	-0.3325	-1.6158	9.8147	1.1326	-0.2986	-1.4409	1.0683	0.4265	-1.0271	-0.0782	-0.4351
-1.0297	-0.7631	9.7671	-0.378	0.0626	0.0824	-0.1366	0.6747	-0.8214	1.48	-0.0065	9.4404	-0.8016	0.3625	0.2055	-0.0558	-0.2901	-1.6199	9.6456	1.2491	-0.1303	-1.2245	0.9463	0.4832	-1.0271	-0.1144	-0.4344
-0.8033	-0.6475	9.7149	-0.4695	0.0002	0.176	-0.0982	0.677	-0.8576	0.9598	-0.2374	9.9462	-0.863	0.5472	0.2046	0.026	-0.3549	-1.6227	9.4132	1.0187	-0.3633	-1.2221	0.9138	0.606	-1.0446	-0.0963	-0.4352
-0.8638	-0.3579	9.5433	-0.5633	0.0009	0.148	-0.0994	0.6885	-0.8058	0.7796	0.2301	9.8295	-0.5873	0.3938	0.265	0.0332	-0.3563	-1.5924	9.5823	1.4784	-0.4153	-1.2227	0.8213	0.6366	-1.0087	-0.1151	-0.3986
-0.8648	-0.5321	9.4857	-0.535	-0.154	0.1761	-0.1201	0.7315	-0.864	1.8381	0.0518	9.6768	-0.8639	0.3922	0.1132	-0.0074	-0.3547	-1.5973	10.0996	0.9583	-0.408	-1.4063	0.7256	0.794	-0.9927	-0.1141	-0.4511
-1.0935	-0.59	9.4239	-0.4429	-0.1852	0.1732	-0.1384	0.7104	-0.8258	1.1253	-0.1228	9.376	-0.3752	0.5461	0.1692	0.0956	-0.2769	-1.558	9.7043	1.1339	-0.0728	-1.3766	0.7886	0.7012	-0.9918	-0.0967	-0.4162
-1.0288	-0.5309	9.8249	-0.3174	-0.0306	0.1103	-0.1012	0.7263	-0.8281	1.2465	-0.0641	9.5506	-0.8011	0.3322	0.2366	0.0326	-0.2946	-1.5797	9.4138	1.4221	-0.2477	-1.3219	0.5767	0.5154	-0.9937	-0.0591	-0.4875
-1.1514	-0.7642	9.3652	-0.3483	-0.0305	0.1112	-0.0991	0.6949	-0.8598	1.3064	-0.0056	9.6092	-0.4967	0.2695	0.1724	0.0296	-0.3556	-1.6076	9.4688	0.9028	-0.4767	-1.4158	0.6076	0.456	-1.0271	-0.0963	-0.4347
-0.6341	-0.1837	9.6625	-0.2838	-0.0005	0.1708	-0.1357	0.6547	-0.8013	1.3007	0.0519	9.3225	-0.2204	-0.0066	0.2646	0.0129	-0.3555	-1.5949	9.7024	0.4997	-0.3033	-1.5991	0.7286	0.4908	-1.0606	-0.0793	-0.3831
-0.8055	-0.6478	9.6007	-0.5702	-0.2147	0.0848	-0.0791	0.676	-0.8577	1.0138	-0.0046	9.7185	-0.2221	0.2691	0.1699	-0.0313	-0.3533	-1.615	10.1123	0.9036	0.2754	-1.6579	0.8501	0.5537	-1.0103	-0.0237	-0.4534
-1.2039	-0.7054	9.5927	-0.3821	-0.0295	0.0204	-0.1184	0.6916	-0.8237	1.7809	0.2276	9.791	-0.2524	0.1768	0.1709	0.0101	-0.3139	-1.5965	9.8757	1.2485	-0.0692	-1.7108	1.0299	0.8316	-1.0455	-0.0955	-0.4705
-1.1404	-0.5305	9.9369	-0.3793	-0.0304	0.112	-0.1205	0.723	-0.792	1.1298	-0.122	9.6056	-0.284	0.2991	0.1085	0.0318	-0.3355	-1.5932	9.7003	1.6516	-0.1846	-1.6815	0.8144	0.8921	-0.9926	-0.1321	-0.4507
-1.024	-0.8783	10.0523	-0.3818	-0.2163	0.1712	-0.1381	0.7189	-0.8978	0.842	0.172	10.0026	-0.3135	0.2077	0.1712	-0.0436	-0.3129	-1.5736	9.8153	1.248	-0.2411	-1.5135	0.517	0.3044	-1.0093	-0.0425	-0.4178
-1.0284	-0.937	9.8237	-0.5308	-0.0931	0.2683	-0.0983	0.6749	-0.8396	1.1344	0.2879	9.8937	-0.5865	0.3946	0.3268	0.0471	-0.3148	-1.6068	9.6341	1.5346	-0.6988	-1.5875	0.524	-0.2163	-0.9912	-0.1513	-0.3974
-1.4877	-0.2989	9.6453	-0.5365	-0.2157	0.1755	-0.0974	0.6549	-0.8195	1.0707	-0.0635	9.6046	-0.7132	0.3285	-0.0422	0.0326	-0.2946	-1.5797	9.7562	0.902	-0.4145	-1.4765	0.7922	0.3962	-0.9918	-0.0967	-0.4162
-1.2584	-0.8211	9.7054	-0.2839	-0.125	0.2612	-0.1182	0.6958	-0.8597	1.0133	0.2292	9.7192	-0.4667	0.5155	0.1703	0.0463	-0.3557	-1.6203	9.641	1.3633	-0.3577	-1.6282	0.913	0.461	-1.0276	-0.0959	-0.4524
-0.9762	-0.7637	9.597	-0.3852	-0.1218	-0.011	-0.0985	0.6706	-0.8036	1.0133	0.2292	9.7192	-0.465	0.4863	0.294	0.0079	-0.334	-1.6109	9.9257	0.9585	-0.5251	-1.5189	0.6442	-0.0025	-1.0629	-0.1136	-0.4706
-0.9786	-0.532	9.4834	-0.6303	-0.215	0.1475	-0.1165	0.6558	-0.8194	1.3637	0.2278	9.5537	-0.6501	0.4846	0.1414	-0.0319	-0.2916	-1.6023	9.7003	1.3635	-0.2428	-1.4234	0.6742	0.0876	-1.0092	-0.1148	-0.4163
-0.8555	-0.8208	9.9416	-0.509	-0.1213	-0.0076	-0.1194	0.7073	-0.8079	1.2475	0.4621	9.667	-0.5277	0.3306	0.1414	0.034	-0.3154	-1.5789	9.9215	1.2456	-0.6948	-1.3539	0.6081	0.4547	-0.9927	-0.1141	-0.4511
-0.9734	-0.1251	9.7701	-0.6285	-0.06	0.088	-0.039	0.6405	-0.8716	1.2466	0.3451	9.6092	-0.6825	0.4519	-0.0125	0.0218	-0.2926	-1.6252	9.6385	1.1898	-0.5293	-1.3567	0.6098	0.3319	-1.0097	-0.0963	-0.4343
-1.0879	-0.5892	9.7094	-0.5978	-0.0289	0.057	-0.1344	0.6453	-0.8711	1.1265	0.345	9.4922	-0.772	0.4232	0.143	0.0115	-0.3347	-1.5957	10.0975	1.246	-0.4638	-1.191	0.5733	0.8199	-0.9908	-0.1336	-0.3801
-0.8626	-0.4157	9.6002	-0.5374	0.0647	-0.0659	-0.0602	0.6708	-0.8218	1.3051	0.0527	9.552	-0.5885	0.1769	0.1431	-0.0341	-0.3117	-1.6166	10.2701	1.3031	-0.4034	-0.9135	0.6999	0.6912	-1.0262	-0.1151	-0.3991
-0.9163	-0.2992	9.7707	-0.5117	0.0041	-0.1895	-0.1182	0.6958	-0.8597	1.3102	0.2873	9.8397	-0.5277	0.2999	0.1416	0.0362	-0.2953	-1.5645	9.2997	1.0193	-0.3084	-0.8219	0.6085	0.6892	-1.0101	-0.096	-0.4519
-0.856	-0.3567	9.943	-0.4716	0.032	0.0847	-0.0954	0.6234	-0.8512	1.4304	-0.2387	9.8977	-0.5573	0.2392	0.2041	0.0354	-0.3362	-1.5781	9.9244	1.0158	-0.5818	-0.7236	0.6368	0.9022	-0.9923	-0.0783	-0.4342
-0.9243	-0.1843	9.3714	-0.5342	0.0014	0.0861	-0.0631	0.7223	-0.8103	1.3676	-0.0054	9.7251	-0.1287	0.1475	0.2935	0.0254	-0.2933	-1.6101	9.7064	0.5582	-0.0752	-0.6664	0.6092	0.7166	-0.9918	-0.0787	-0.4166
-0.97	-0.1826	9.9412	-0.533	0.0944	0.0565	-0.1176	0.6716	-0.8035	1.1875	-0.0639	9.5495	-0.2221	0.2691	0.1699	0.0876	-0.3164	-1.6018	9.414	1.0765	-0.3061	-0.829	0.6128	0.3821	-1.0262	-0.079	-0.3998
-0.8112	-0.5326	9.3155	-0.5059	-0.029	0.0239	-0.1146	0.6201	-0.8151	1.7824	0.0525	9.8478	-0.2844	0.3295	0.0774	-0.0102	-0.3132	-1.599	9.8251	0.5587	0.1548	-0.7746	0.4321	0.1656	-1.0446	-0.0782	-0.4356
-1.0378	-0.5323	9.3681	-0.5328	-0.0613	0.1771	-0.1165	0.6558	-0.8194	1.0645	-0.2983	9.2596	-0.4024	0.2721	0.3877	0.0109	-0.273	-1.583	9.5896	0.9038	-0.1328	-0.4656	0.4967	0.0977	-0.9917	-0.1148	-0.4158
-1.4327	-0.7054	9.5311	-0.5043	-0.1229	0.145	-0.1336	0.6232	-0.833	1.1366	-0.1794	9.9497	-0.1289	0.2398	0.2928	0.0673	-0.3156	-1.6043	9.8124	1.4778	-0.3541	-0.7551	0.5323	-0.3876	-1.0092	-0.1148	-0.4163
-0.915	-0.531	9.8271	-0.3733	0.061	0.2351	-0.1184	0.6916	-0.8237	1.7841	0.2865	9.9633	-0.2805	0.3335	0.3861	0.0421	-0.2934	-1.6228	9.8134	0.9018	-0.4135	-0.6636	0.5339	-0.451	-1.0096	-0.1144	-0.4339
-0.7519	-0.7064	9.4303	-0.5056	-0.0602	0.0541	-0.1357	0.6547	-0.8013	1.1307	-0.0634	9.6631	-0.132	0.2059	0.046	0.0043	-0.3334	-1.626	9.4658	1.1327	-0.5897	-0.671	0.5694	-0.7888	-1.0115	-0.1129	-0.5045
-0.8526	-0.3562	10.1142	-0.3218	-0.0603	-0.0121	-0.1755	0.6987	-0.8594	1.0776	-0.1793	9.9486	-0.3133	0.3004	0.2014	-0.0088	-0.3339	-1.5982	9.4671	0.7872	-0.5911	-0.7255	0.6882	-0.5417	-1.0102	-0.0598	-0.4527
-0.9218	-0.416	9.4849	-0.5953	0.157	-0.0022	-0.1375	0.6925	-0.8236	1.4906	-0.7647	9.8972	-0.252	0.1465	0.202	0.031	-0.3764	-1.6067	9.8126	1.1321	-0.4125	-0.5689	0.8122	-0.5448	-0.9918	-0.0787	-0.4166
-1.0961	-0.1843	9.3109	-0.5662	0.1575	-0.0641	-0.1002	0.7106	-0.8439	1.1295	-0.0052	9.6059	-0.1296	0.2083	0.2313	0.0007	-0.3327	-1.6412	9.7018	0.9605	-0.2444	-0.9073	0.5606	-0.2922	-1.0969	-0.0962	-0.4366
-1.1392	-0.6463	9.9936	-0.5055	0.0643	-0.0362	-0.0766	0.616	-0.7973	1.5477	0.0532	9.9008	-0.4042	-0.0071	0.2046	0.029	-0.2939	-1.5949	10.0444	1.2471	-0.237	-0.8231	0.5046	-0.632	-1.0083	-0.0974	-0.3814
-1.5456	-0.4151	9.5868	-0.4735	0.0327	0.0236	-0.1374	0.6946	-0.8416	1.2535	-0.2383	9.8943	-0.4029	-0.0674	0.2977	-0.0102	-0.3132	-1.599	9.5781	1.1893	-0.7013	-1.3988	0.4306	-0.0361	-1.0096	-0.1325	-0.4335
-0.9173	-0.4733	9.7131	-0.3155	0.2489	-0.0395	-0.1563	0.6999	-0.8775	0.8998	0.2301	9.9465	-0.3759	0.1139	0.049	0.0051	-0.2925	-1.6125	10.046	1.0746	-0.1807	-1.398	0.3372	0.0559	-1.0629	-0.1316	-0.4702
-0.6329	-0.2416	9.7194	-0.5315	0.1562	0.0571	-0.1174	0.6758	-0.8395	1.4261	0.1698	9.7268	-0.4978	0.0218	0.0508	0.0137	-0.3146	-1.5814	9.4675	0.6721	-0.5916	-1.8353	0.6151	-0.2723	-1.0096	-0.1144	-0.4339
-1.4852	-0.6467	9.7585	-0.6279	0.1266	-0.0322	-0.1373	0.6968	-0.8596	1.3114	0.229	9.8969	-0.6493	0.0847	0.1444	0.0326	-0.2946	-1.5797	9.5831	1.8243	-0.2999	-1.8056	0.5232	-0.2731	-0.9922	-0.1325	-0.4331
-0.7401	-0.1825	10.0599	-0.408	0.0624	0.1138	-0.0985	0.6706	-0.8036	1.1881	0.17	9.6076	-0.6201	0.145	0.051	0.0109	-0.273	-1.583	9.4696	1.2487	-0.3613	-1.8032	0.6456	-0.2423	-0.9922	-0.0964	-0.4338
-1.3155	-0.705	9.7046	-0.5032	0.1258	-0.0051	-0.1003	0.7085	-0.8259	1.1929	-0.0046	9.8365	-0.4358	0.1152	0.1422	-0.0283	-0.2923	-1.5871	9.8722	1.0748	-0.2978	-1.8463	0.3432	-0.5797	-1.0451	-0.0778	-0.4532
-1.2137	-0.997	9.078	-0.5011	0.0939	0.0862	-0.0602	0.6708	-0.8218	1.0139	-0.063	9.7183	-0.1307	0.1148	0.1393	0.0535	-0.3571	-1.5899	10.0423	1.2466	-0.3509	-1.8046	0.6465	-0.3037	-0.9744	-0.0787	-0.4161
-0.7467	-0.2415	9.7172	-0.5618	0.0627	0.1486	-0.0801	0.6939	-0.8599	1.2509	-0.0633	9.7801	-0.4973	0.1456	0.1116	0.0165	-0.3562	-1.5797	9.8736	0.9599	-0.2413	-1.5842	0.7077	-0.1854	-1.0096	-0.1144	-0.4339
-1.0879	-0.5892	9.7094	-0.4126	-0.0917	0.0817	-0.0823	0.7211	-0.7922	1.0748	-0.4135	9.7757	-0.1923	0.2375	0.1081	-0.0196	-0.3319	-1.6437	9.5812	1.19	-0.5304	-1.1561	0.6833	-0.4096	-0.9744	-0.0787	-0.4161
-1.1423	-0.9369	9.8215	-0.5042	0.0016	0.0547	-0.1176	0.6694	-0.7855	1.019	-0.3544	9.9469	-0.4654	0.0545	0.2047	-0.0544	-0.3109	-1.6191	9.6495	1.3076	0.0978	-1.1937	0.4703	-0.5627	-0.9922	-0.0964	-0.4338
-0.8594	-0.2992	9.7718	-0.3488	-0.0926	0.1411	-0.1375	0.6925	-0.8236	1.3036	0.2278	9.4952	-0.3431	0.3627	0.263	-0.0102	-0.3132	-1.599	9.4167	0.6161	-0.251	-0.8827	0.4717	-0.5079	-1.0106	-0.0775	-0.4699
-0.9744	-0.2993	9.7125	-0.3512	-0.1541	0.1099	-0.0982	0.677	-0.8576	1.2455	-0.1227	9.493	-0.2544	0.1441	0.0167	0.0557	-0.337	-1.5756	9.7582	0.9025	-0.3006	-0.9201	0.5684	-0.8449	-1.0092	-0.0786	-0.417
-0.8635	-0.7059	9.5423	-0.2492	0.1538	0.1715	-0.1194	0.7094	-0.8259	1.4249	0.228	9.6696	-0.3454	0.0831	0.0489	-0.0283	-0.2923	-1.5871	9.4721	0.846	-0.306	-1.0079	0.8743	-0.8119	-0.9918	-0.0606	-0.4169
-0.9675	-0.4723	10.0546	-0.4137	-0.0602	0.021	-0.0973	0.657	-0.8375	1.0095	-0.0637	9.4888	-0.1911	0.023	0.1715	0.0304	-0.3147	-1.5941	9.8738	1.1904	-0.1834	-0.8753	0.684	-0.3234	-1.0619	-0.1324	-0.4349
-1.2109	-0.4164	9.2509	-0.3791	-0.0616	0.1422	-0.1004	0.7063	-0.8079	1.3645	-0.1228	9.5526	-0.3151	0.2061	0.0477	0.0115	-0.3347	-1.5957	9.5881	1.5949	-0.073	-1.0024	0.809	-0.5356	-1.0268	-0.0244	-0.4186
-1.2071	-0.822	9.421	-0.3484	-0.155	0.2015	-0.0812	0.7075	-0.826	1.485	0.2281	9.7281	-0.161	0.2383	0.1696	-0.0088	-0.3339	-1.5982	9.4738	0.9616	-0.1916	-0.8144	0.9638	-0.5394	-0.9913	-0.0971	-0.3985
-1.3112	-0.5303	9.9335	-0.2794	0.0292	0.2933	-0.118	0.7001	-0.8957	1.7774	0.2855	9.619	-0.2835	0.238	0.1398	-0.0102	-0.3132	-1.599	9.8744	1.0177	-0.1841	-0.8118	0.9003	-0.3859	-1.062	-0.0962	-0.4357
-1.2555	-0.4145	9.8779	-0.3814	-0.1231	0.1111	-0.1146	0.6201	-0.8151	1.1359	0.1127	9.9506	-0.1909	0.3314	0.2309	0.0565	-0.2961	-1.5621	9.3574	1.1921	-0.2497	-0.8136	0.8704	-0.4473	-0.9932	-0.0776	-0.4695
-0.8667	-0.8225	9.3707	-0.3776	0.0002	0.1429	-0.1357	0.6547	-0.8013	1.3036	-0.2398	9.4364	-0.2835	0.2688	0.1396	-0.0102	-0.3132	-1.599	9.9911	1.0177	-0.068	-0.8782	0.6858	-0.4462	-0.9762	-0.0953	-0.4863
-0.9204	-0.7639	9.541	-0.3796	-0.1237	0.1721	-0.0792	0.6739	-0.8397	0.77	0.0532	9.3125	-0.4682	0.2982	0.0175	0.0165	-0.3562	-1.5797	10.2724	1.246	-0.2898	-0.8173	0.8108	-0.5702	-0.957	-0.0607	-0.416
-0.9728	-0.7632	9.7683	-0.2866	0.0004	0.0792	-0.1182	0.6958	-0.8597	1.3033	-0.123	9.4367	-0.4672	0.3609	0.1097	0.0051	-0.2925	-1.6125	9.7016	0.73	-0.3023	-0.9721	0.8096	-0.5669	-1.0446	-0.0601	-0.436
-0.916	-0.6472	9.7697	-0.3169	0.0314	0.0804	-0.1004	0.7063	-0.8079	0.8359	-0.0628	9.6576	-0.4361	0.269	0.141	0.0051	-0.2925	-1.6125	9.6947	0.9013	-0.6434	-0.8787	0.748	-0.5076	-0.9917	-0.1148	-0.4158
-0.9797	-0.5321	9.4264	-0.4131	0.1263	-0.0992	-0.1182	0.6958	-0.8597	1.3606	0.1104	9.3812	-0.5268	0.0849	0.1741	0.0396	-0.3985	-1.5756	9.362	1.366	0.0358	-1.0682	0.687	-0.6265	-1.0092	-0.0967	-0.4166
-1.035	-1.054	9.4808	-0.5939	0.0943	0.0888	-0.1175	0.6737	-0.8215	1.1276	0.3452	9.5496	-0.2529	0.2072	0.1398	0.026	-0.3549	-1.6227	9.7035	1.3642	-0.0719	-1.2214	0.4991	-0.4392	-0.9931	-0.1137	-0.4687
-1.3163	-0.9952	9.6467	-0.5044	0.0328	0.0245	-0.1012	0.7263	-0.8281	1.4796	0.1688	9.441	-0.3449	0.0527	0.08	0.0137	-0.3146	-1.5814	9.353	1.2487	-0.4774	-1.3438	0.4973	-0.3751	-1.0276	-0.0959	-0.4524
-0.9082	-0.588	10.1696	-0.5911	0.0934	0.1803	-0.1194	0.7094	-0.8259	0.9515	-0.005	9.5452	-0.4046	-0.0075	0.1737	0.0948	-0.3177	-1.5715	9.6475	0.7309	-0.1325	-1.463	0.6174	-0.2495	-1.0102	-0.0779	-0.4523
-1.0355	-0.5899	9.4822	-0.5061	0.0022	-0.0063	-0.1357	0.6547	-0.8013	1.0106	0.4041	9.6049	-0.3442	0.0843	0.1415	0.0182	-0.2919	-1.6404	9.9313	1.4207	-0.1244	-1.3732	0.558	-0.3437	-1.0271	-0.1144	-0.4344
-1.4873	-0.763	9.644	-0.4968	0.1548	0.1784	-0.0792	0.6739	-0.8397	1.1943	-0.1213	9.8936	-0.3749	0.1766	0.1411	0.0143	-0.3763	-1.594	9.7618	0.7881	-0.1301	-1.3326	0.8311	-0.0984	-1.0281	-0.0775	-0.4704
-1.0946	-0.5902	9.3668	-0.3771	0.0623	0.113	-0.0984	0.6727	-0.8216	1.4304	0.2289	9.9565	-0.2528	0.1764	0.14	0.0087	-0.2932	-1.5973	9.9311	1.1902	-0.1823	-1.2487	0.8063	-0.4689	-0.9927	-0.096	-0.4515
-1.3164	-0.9372	9.6468	-0.5001	0.0936	0.1167	-0.1756	0.6966	-0.8414	1.4224	0.3445	9.5552	-0.4977	0.1452	0.0807	0.0246	-0.3342	-1.6236	9.4201	0.8474	-0.0222	-1.1266	0.6844	-0.4717	-1.0441	-0.0786	-0.4179
-1.0307	-0.8793	9.7097	-0.5015	0.1563	0.0258	-0.0973	0.657	-0.8375	1.066	0.0527	9.3755	-0.4969	0.1768	0.1423	0.0268	-0.314	-1.6092	9.1279	0.7319	-0.3697	-1.2134	0.5561	-0.1321	-1.0111	-0.0772	-0.4876
-1.0312	-0.3572	9.7112	-0.4996	0.1557	0.0868	-0.1373	0.6968	-0.8596	1.3063	0.0528	9.6094	-0.4674	0.2682	0.0795	-0.0088	-0.3339	-1.5982	9.9338	1.018	-0.0691	-1.2211	0.4679	-0.4085	-1.0276	-0.0959	-0.4524
-0.861	-0.9376	9.6558	-0.4989	0.1866	0.0871	-0.1165	0.6558	-0.8194	1.126	0.0527	9.434	-0.1924	0.0833	0.0784	-0.0313	-0.3533	-1.615	9.3603	1.2503	-0.0786	-1.0914	0.5272	-0.1961	-0.9918	-0.0787	-0.4166
-1.136	-0.4138	10.1656	-0.4101	0.0942	0.0226	-0.0801	0.6918	-0.8419	1.2536	0.2293	9.9531	-0.1634	0.0509	-0.0452	-0.0052	-0.3346	-1.583	9.7006	1.0179	-0.3011	-0.8358	0.5861	0.1057	-1.0092	-0.0967	-0.4166
-1.0944	-0.8222	9.3662	-0.2907	-0.0916	0.0172	-0.0821	0.7254	-0.8282	1.3694	-0.2973	9.7816	-0.404	0.0856	0.2347	0.0254	-0.2933	-1.6101	9.9325	1.6515	-0.0095	-0.5696	0.5648	-0.4223	-1.08	-0.0597	-0.4545
-0.9733	-0.2411	9.7698	-0.2897	0.0325	-0.0426	-0.0411	0.6698	-0.8219	0.9515	-0.005	9.5452	-0.2226	0.1452	0.1091	0.0304	-0.3147	-1.5941	9.4226	1.597	0.2657	-0.8188	0.6568	-0.5397	-1.0616	-0.0785	-0.4184
-1.2694	-1.1128	9.1336	-0.3198	-0.0921	0.0792	-0.1004	0.7063	-0.8079	0.9526	-0.0048	9.6026	-0.5265	-0.0689	0.1753	0.0021	-0.3535	-1.6404	9.697	1.1323	-0.4716	-0.6572	0.6848	-0.2666	-0.9922	-0.1144	-0.4334
-0.6363	-0.2421	9.5481	-0.3512	-0.1541	0.1099	-0.0803	0.6875	-0.8059	1.0185	-0.1207	9.9476	-0.3459	0.1442	0.0176	0.0346	-0.3771	-1.5916	9.4151	0.7886	-0.3073	-0.5978	0.8106	-0.452	-1.0785	-0.0969	-0.4008
-1.1499	-1.1701	9.4211	-0.2539	-0.1248	0.2298	-0.0783	0.6539	-0.8196	1.4843	0.0526	9.6701	-0.313	0.1466	0.2026	0.0354	-0.3362	-1.5781	9.5935	1.2505	0.1535	-0.5004	0.7776	-0.2391	-1.0436	-0.097	-0.3999
-1.0276	-0.6468	9.8817	-0.4074	-0.0312	0.2045	-0.0991	0.6949	-0.8598	1.0127	-0.0047	9.6611	-0.2555	0.1121	-0.0757	0.0376	-0.3161	-1.5637	9.7641	1.0191	0.0417	-0.8671	1.1125	-0.2308	-1.0262	-0.1151	-0.3991
-0.8647	-0.6481	9.4854	-0.3746	-0.0319	0.2647	-0.1176	0.6716	-0.8035	1.1278	0.2283	9.5493	-0.1318	0.1136	0.0467	0.029	-0.2939	-1.5949	10.0462	1.3052	-0.1228	-0.5871	0.9589	-0.0834	-0.9913	-0.0971	-0.3985
-1.4843	-0.4145	9.8163	-0.2814	0.061	0.202	-0.1003	0.7085	-0.8259	1.3051	0.0527	9.552	-0.2209	0.0853	0.233	-0.0032	-0.417	-1.5948	10.0463	1.0171	-0.1809	-0.6569	1.0562	-0.4811	-0.9936	-0.1314	-0.486
-0.9137	-0.6469	9.8839	-0.2837	-0.1562	0.2914	-0.1173	0.678	-0.8575	1.5961	0.2852	9.3862	-0.4054	0.1767	0.1414	0.0129	-0.3555	-1.5949	9.5866	1.1337	-0.2458	-0.6225	0.8995	-0.2363	-1.0285	-0.0952	-0.4877
-1.1538	-0.5325	9.2517	-0.2272	-0.1858	0.1367	-0.0991	0.6949	-0.8598	1.1302	0.1703	9.6638	-0.4981	0.1756	0.0496	0.0404	-0.3576	-1.5621	9.5288	1.0185	-0.3043	-0.5331	0.6545	-0.2386	-1.0437	-0.0789	-0.4003
-1.0905	-0.2415	9.5962	-0.381	-0.1855	0.1715	-0.1162	0.6644	-0.8914	1.3078	0.3453	9.7251	-0.2534	0.0834	0.0789	0.0268	-0.314	-1.6092	9.9808	1.2459	-0.5798	-0.5056	0.8118	-0.4847	-1.0799	-0.0778	-0.4541
-1.2094	-0.8223	9.3068	-0.2848	-0.2803	0.3512	-0.1586	0.7271	-0.8098	0.8325	-0.0049	9.4856	-0.3153	0.3291	0.0468	0.0012	-0.3768	-1.5662	10.0475	0.9597	-0.1242	-0.3801	0.6259	-0.3033	-0.9744	-0.0787	-0.4161
-0.8023	-0.5313	9.7723	-0.3164	-0.3111	0.3517	-0.1175	0.6737	-0.8215	1.078	0.1131	10.0068	-0.3142	0.3611	0.1392	0.0745	-0.317	-1.574	9.7616	0.8456	-0.1299	-0.6018	0.6273	-0.5137	-1.0266	-0.1509	-0.416
-1.088	-0.5312	9.7096	-0.2232	-0.3739	0.4096	-0.0992	0.6927	-0.8418	0.7756	0.0541	9.5994	-0.4044	0.3009	0.2331	0.0354	-0.3362	-1.5781	9.7053	1.4223	0.0423	-0.7576	0.2551	-0.3265	-1.0271	-0.0963	-0.4347
-0.9833	-0.3586	9.2556	-0.063	-0.3451	0.5582	-0.1193	0.7116	-0.8439	1.0683	0.4622	9.5489	-0.4681	0.2367	0.018	-0.0038	-0.3554	-1.5822	9.3555	1.134	-0.3639	-0.6219	0.5894	-0.0217	-1.0097	-0.0783	-0.4347
-0.8043	-0.7057	9.6576	-0.1603	-0.3744	0.4384	-0.0599	0.6772	-0.8758	1.306	-0.2979	9.551	-0.2503	0.3023	0.3552	0.0115	-0.3347	-1.5957	9.9894	0.9021	-0.1825	-0.5895	0.7436	-0.0529	-1.0101	-0.096	-0.4519
-0.9726	-0.9372	9.7678	-0.0672	-0.2815	0.3757	-0.099	0.697	-0.8778	1.3072	0.1114	9.667	-0.3426	0.2709	0.2945	0.029	-0.2939	-1.5949	9.877	0.903	-0.0706	-0.4976	0.621	-0.0243	-0.9918	-0.0967	-0.4162
-1.0826	-0.2983	9.9957	-0.1005	-0.3428	0.3454	-0.1382	0.7168	-0.8798	1.2419	-0.0064	9.3212	-0.4639	0.3026	0.3572	-0.0043	-0.3112	-1.6572	9.7662	1.5957	0.2719	-0.5303	0.6528	-0.1158	-1.0441	-0.1147	-0.4172
-1.4863	-0.6468	9.7014	-0.3147	-0.156	0.2922	-0.1174	0.6758	-0.8395	1.2447	0.2279	9.4941	-0.619	0.1769	0.1434	0.0318	-0.3355	-1.5932	9.0175	1.0213	-0.0858	-0.6496	0.6181	0.1018	-0.9757	-0.1137	-0.4683
-1.0846	-0.5887	9.8807	-0.1661	-0.2169	0.1347	-0.1002	0.7106	-0.8439	1.1847	0.1694	9.4354	-0.4972	0.2998	0.1413	0.0123	-0.2938	-1.5822	9.7572	1.1904	-0.2994	-0.5624	0.4675	-0.0539	-0.9395	-0.0968	-0.4148
-1.2604	-1.1115	9.5904	-0.2575	-0.1547	0.1379	-0.1383	0.7146	-0.8618	1.5993	0.3441	9.5585	-0.2237	0.0518	0.0171	0.0346	-0.3771	-1.5916	9.7622	0.961	-0.0725	-0.8654	0.4301	0.2597	-1.0106	-0.1137	-0.4692
-1.3836	-0.7066	9.1325	-0.3775	-0.1555	0.2634	-0.0993	0.6906	-0.8238	0.7211	0.0549	9.8278	-0.4098	0.203	-0.1985	0.0296	-0.3556	-1.6076	9.4721	1.4222	-0.1897	-0.8627	0.3666	0.4132	-1.0808	-0.0951	-0.489
-1.1545	-1.0547	9.1931	-0.1989	-0.2162	0.0745	-0.1175	0.6737	-0.8215	1.0711	-0.2388	9.6041	-0.4987	0.2675	0.0181	0.0151	-0.3354	-1.5805	9.5877	1.1339	-0.1888	-1.1326	0.5759	0.665	-1.0267	-0.0967	-0.4171
-1.0819	-0.9944	9.9937	-0.1675	-0.2787	0.134	-0.0602	0.6708	-0.8218	1.603	-0.2982	9.6713	-0.1302	0.0844	0.1704	0.0223	-0.3367	-1.5502	9.4757	1.0196	-0.0774	-1.1075	0.5178	0.4493	-1.0092	-0.1148	-0.4163
-0.9151	-0.415	9.8275	-0.1768	-0.4312	-0.0507	-0.0974	0.6549	-0.8195	1.0672	-0.0056	9.4327	-0.0415	0.1122	-0.0468	0.029	-0.2939	-1.5949	9.8732	0.7869	-0.2989	-1.3302	0.396	0.2696	-1.0276	-0.114	-0.452
-0.9718	-0.647	9.8257	-0.1432	-0.4011	0.0098	-0.0791	0.676	-0.8577	0.8939	-0.1215	9.6011	0.0501	0.0814	-0.0474	0.0137	-0.3146	-1.5814	9.9919	0.4994	-0.1271	-1.3329	0.4596	0.1161	-1.0096	-0.1144	-0.4339
-1.3739	-0.299	9.6476	-0.205	-0.2764	-0.0788	-0.1757	0.6944	-0.8234	1.3681	-0.2391	9.7244	-0.0087	0.1454	0.138	-0.0191	-0.3761	-1.5686	9.8165	1.4787	-0.1263	-1.7007	0.5165	0.2469	-1.0271	-0.1144	-0.4344
-1.1368	-0.762	10.1075	-0.0447	-0.2788	0.1001	-0.0995	0.6863	-0.7878	0.8878	0.5789	9.3737	0.0483	0.172	-0.1716	0.0521	-0.3363	-1.5908	9.5296	1.3644	-0.1889	-1.5253	0.2455	-0.0337	-1.0271	-0.0963	-0.4347
-0.9181	-0.8216	9.655	-0.1699	-0.3401	0.1029	-0.099	0.697	-0.8778	0.9522	0.1705	9.6031	-0.2255	0.3889	-0.0781	0.0232	-0.3134	-1.6244	9.8753	1.3636	-0.0687	-1.578	0.642	0.1216	-1.028	-0.1136	-0.4696
-0.8635	-0.7059	9.5423	-0.1676	-0.4031	0.2244	-0.08	0.696	-0.8779	1.1861	0.0527	9.4924	-0.2854	0.421	0.0149	-0.0088	-0.3339	-1.5982	9.5862	0.6726	-0.3616	-1.7089	0.4906	-0.0909	-1.0258	-0.0793	-0.3822
-0.695	-0.7064	9.4314	-0.0096	-0.3426	0.2818	-0.1182	0.6958	-0.8597	1.4907	0.1705	10.0148	-0.5001	0.3585	-0.0753	-0.0427	-0.2896	-1.6478	9.7049	0.9612	-0.0735	-1.6744	0.6435	-0.0299	-1.0097	-0.0783	-0.4347
-0.86	-0.8795	9.7131	-0.0765	-0.4341	0.1909	-0.0801	0.6918	-0.8419	1.8343	0.2265	9.5052	-0.6506	0.33	0.0808	-0.0044	-0.2937	-1.5695	9.7509	1.477	-0.583	-1.7969	0.7346	-0.0272	-1.0096	-0.1325	-0.4335
-0.694	-0.5323	9.489	-0.0817	-0.4946	0.0682	-0.0792	0.6739	-0.8397	1.479	-0.0651	9.3829	-0.3784	0.358	-0.1073	-0.0152	-0.2917	-1.615	9.586	1.3064	-0.2451	-1.7455	0.6487	-0.4278	-1.0096	-0.1325	-0.4335
-1.0879	-0.6472	9.7093	-0.141	-0.4641	0.1313	-0.1393	0.7304	-0.8459	1.1341	-0.0629	9.8353	-0.6493	0.3004	0.1736	-0.0132	-0.3741	-1.6268	9.8124	0.9016	-0.4704	-1.9891	0.5824	-0.2077	-1.0253	-0.0797	-0.3645
-1.0259	-0.0663	9.9975	-0.1947	-0.2798	0.257	-0.0965	0.637	-0.8173	1.2441	-0.006	9.436	-0.7134	0.0508	-0.1019	-0.0124	-0.3333	-1.6133	9.6339	1.304	-0.7567	-2.2628	0.5773	0.0132	-1.0441	-0.0966	-0.4176
-0.8622	-0.8798	9.5989	-0.0985	-0.0945	0.2258	-0.1192	0.7137	-0.8619	0.8911	0.1119	9.4871	-0.4053	0.1459	0.1416	0.0318	-0.3355	-1.5932	9.6406	0.9022	-0.4736	-2.1722	0.92	-0.2954	-0.9922	-0.1144	-0.4334
-0.7434	-0.183	9.8886	-0.2536	-0.0315	0.1697	-0.1182	0.6958	-0.8597	1.0761	-0.0042	9.8917	-0.6515	0.2057	-0.0109	0.0268	-0.314	-1.6092	9.8753	1.0755	-0.1269	-2.2931	0.6696	-0.0167	-1.0101	-0.114	-0.4515
-1.0358	-0.2419	9.4832	-0.158	0.2473	0.0478	-0.0986	0.6685	-0.7856	1.4294	-0.2973	9.8401	-0.5611	0.1737	-0.1042	0.0521	-0.3363	-1.5908	9.4642	1.017	-0.7041	-2.6065	0.6076	-0.133	-1.0282	-0.0233	-0.4715
-1.4899	-0.3573	9.531	-0.4162	0.034	-0.1307	-0.1585	0.7292	-0.8278	1.0141	0.3462	9.7769	-0.4373	0.0828	0.0189	0.034	-0.3154	-1.5789	9.4159	0.8464	-0.2501	-2.3351	0.5522	-0.4154	-1.0087	-0.0971	-0.399
-0.6282	-0.531	9.9469	-0.4089	0.1872	-0.007	-0.1555	0.6799	-0.8573	1.4865	0.053	9.7849	-0.3453	0.0523	0.0491	0.0318	-0.3355	-1.5932	9.4169	0.8467	-0.1931	-2.5959	0.6941	0.2663	-1.045	-0.0959	-0.4528
-0.8578	-0.8211	9.8274	-0.5704	0.2211	-0.2467	-0.0985	0.6706	-0.8036	1.1327	0.0538	9.7782	-0.2226	0.1145	0.1093	0.0115	-0.3347	-1.5957	10.1012	0.7859	-0.3517	-2.4767	0.5739	0.1407	-0.9221	-0.0427	-0.4155
-1.0303	-1.3434	9.7084	-0.628	0.2822	-0.1527	-0.1553	0.6841	-0.8933	0.9458	0.0526	9.2585	-0.2554	0.0506	-0.0752	-0.0102	-0.3132	-1.599	9.5292	1.4795	-0.1884	-2.4991	0.7233	0.4179	-0.9909	-0.0433	-0.382
-0.8621	-0.9958	9.5985	-0.6475	0.2475	0.2447	-0.1172	0.6801	-0.8755	1.1294	0.0532	9.6061	-0.375	0.0224	0.1114	0.0368	-0.3569	-1.5772	10.0419	1.0737	-0.4086	-1.9035	0.6921	0.7431	-1.0605	-0.1515	-0.3816
-0.8032	-0.7635	9.7145	-0.6542	0.2808	0.0008	-0.0803	0.6875	-0.8059	1.5456	-0.0056	9.7858	-0.3782	0.05	-0.1358	0.0282	-0.3348	-1.6084	9.3546	1.3643	-0.3629	-3.1407	0.8681	0.7082	-1.0266	-0.1147	-0.4167
-1.4905	-0.8795	9.4724	-0.4037	0.2477	0.1157	-0.1375	0.6925	-0.8236	1.5986	0.1687	9.5006	-0.3736	0.147	0.234	0.0507	-0.3155	-1.5916	9.98	1.1881	-0.637	-1.6876	0.7871	0.6464	-1.0271	-0.0963	-0.4347
-0.7526	-1.1126	9.3721	-0.4004	0.4645	0.0569	-0.0786	0.6475	-0.7656	1.0071	-0.0056	9.3742	-0.3455	-0.0711	0.0192	-0.008	-0.293	-1.5846	9.9869	0.7287	-0.3541	-1.0637	0.8198	0.8175	-0.9913	-0.079	-0.3989
-1.2621	-0.4735	9.5351	-0.5035	0.3126	-0.1558	-0.099	0.6991	-0.8958	1.7172	-0.1238	9.5019	-0.2504	-0.0369	0.296	0.029	-0.2939	-1.5949	9.4667	0.9024	-0.5906	-1.2171	1.0656	0.729	-0.9923	-0.0422	-0.435
-1.088	-0.5312	9.7096	-0.529	0.3421	-0.002	-0.1557	0.6735	-0.8033	0.8966	0.1712	9.7742	-0.3136	0.0535	0.1415	0.0332	-0.3563	-1.5924	9.6397	1.1325	-0.4726	-1.3184	0.8223	0.5157	-1.0257	-0.1155	-0.3814
-0.9714	-1.0531	9.8245	-0.7795	0.2195	0.0036	-0.1001	0.7127	-0.8619	1.1839	0.0524	9.3777	-0.3108	-0.1287	0.3282	0.0435	-0.3142	-1.6219	9.2361	1.0181	-0.6513	-1.2496	0.9114	0.7602	-1.0628	-0.1497	-0.4698
-1.2037	-0.8795	9.5922	-0.5897	0.3108	0.0604	-0.1202	0.7294	-0.846	1.0107	-0.122	9.546	-0.2532	-0.0397	0.0799	0.0507	-0.3155	-1.5916	9.7026	1.0183	-0.1872	-1.4151	0.855	0.3335	-1.078	-0.1154	-0.3828
-0.8055	-0.6478	9.6007	-0.6491	0.497	0.003	-0.1153	0.6444	-0.8712	1.0185	-0.1207	9.9476	-0.3143	-0.0088	0.0802	0.0029	-0.3126	-1.6269	9.5906	0.9041	-0.0758	-1.1722	0.9217	0.0826	-1.0096	-0.1686	-0.4328
-1.0324	-0.2994	9.6543	-0.5883	0.3726	0.0611	-0.099	0.697	-0.8778	1.4851	-0.298	9.6691	-0.2828	-0.0696	0.1421	-0.013	-0.2716	-1.6006	9.9261	1.1314	-0.4674	-0.8944	0.7694	0.1379	-0.9931	-0.1137	-0.4687
-1.1493	-0.6478	9.4798	-0.4668	0.4351	-0.0639	-0.1385	0.7082	-0.8078	1.5957	-0.0072	9.3279	-0.0984	0.024	0.2633	0.0115	-0.3347	-1.5957	9.8186	1.4792	-0.0123	-1.2107	0.6473	-0.0705	-1.0257	-0.1155	-0.3814
-1.1994	-0.7048	9.821	-0.4638	0.403	0.0579	-0.1011	0.7285	-0.8461	1.372	-0.0047	9.9546	-0.2827	-0.1311	0.1426	0.0745	-0.317	-1.574	9.9302	1.4205	-0.1814	-1.0235	0.6478	-0.0131	-1.0097	-0.0963	-0.4343
-1.0847	-0.4727	9.881	-0.401	0.4024	0.0868	-0.1558	0.6713	-0.7853	1.6001	-0.0064	9.5574	-0.0384	-0.0695	0.1708	0.0051	-0.2925	-1.6125	9.874	1.1328	-0.1836	-1.024	0.7101	-0.0744	-1.0615	-0.0966	-0.418
-1.0836	-0.4145	9.9383	-0.5562	0.341	0.1209	-0.1555	0.6799	-0.8573	1.3595	0.1102	9.3238	-0.313	-0.0384	0.1731	0.0093	-0.3548	-1.61	9.9838	1.0161	-0.4668	-1.1264	0.7462	-0.5023	-1.062	-0.1143	-0.4353
-1.3699	-0.9367	9.817	-0.5616	0.3116	-0.032	-0.1162	0.6622	-0.8734	1.1872	0.5205	9.6086	-0.4669	0.0221	0.0814	0.0051	-0.2925	-1.6125	9.6466	0.9612	-0.1315	-0.974	0.7798	-0.6284	-1.0267	-0.0605	-0.4179
-0.8111	-0.7067	9.315	-0.4644	0.2164	0.1782	-0.1183	0.6937	-0.8417	1.0689	0.2285	9.5481	-0.1295	-0.069	0.2025	-0.0044	-0.2937	-1.5695	9.6412	1.3057	-0.358	-0.6977	0.8143	-0.7571	-1.0436	-0.097	-0.3999
-0.9075	-0.1238	10.228	-0.5919	0.2182	0.0595	-0.1366	0.6747	-0.8214	1.3092	0.2287	9.7821	-0.2203	-0.2223	0.2354	0.0326	-0.2946	-1.5797	9.9309	0.9597	-0.2402	-0.7967	0.7864	-1.0008	-1.0092	-0.1148	-0.4163
-0.8061	-0.0677	9.6023	-0.3395	0.4646	0.0246	-0.1194	0.7094	-0.8259	0.8888	0.1699	9.3725	-0.1896	0.0553	0.2948	0.0579	-0.3168	-1.5613	9.8653	1.2461	-0.6389	-0.6723	0.8799	-1.0341	-0.9932	-0.0776	-0.4695
-0.5279	-0.3591	9.2645	-0.2758	0.3393	0.1743	-0.0801	0.6918	-0.8419	1.1348	0.1126	9.8932	-0.2528	-0.0393	0.1107	-0.0494	-0.3324	-1.6031	9.534	1.0197	-0.0194	-0.4884	0.8514	-1.0995	-1.0271	-0.0782	-0.4351
-1.0332	-0.5896	9.5964	-0.4929	0.4025	0.1199	-0.1366	0.6747	-0.8214	1.5443	0.0527	9.7286	-0.4067	0.052	0.0188	0.0151	-0.3354	-1.5805	10.1025	1.3047	-0.1787	-0.3444	0.7972	-1.5327	-1.0097	-0.0783	-0.4347
-0.9757	-1.2278	9.5956	-0.3711	0.5583	-0.0652	-0.0964	0.6391	-0.8353	1.3559	0.2266	9.152	-0.4651	-0.0993	0.2058	-0.0124	-0.3333	-1.6133	9.4725	1.307	-0.1902	-0.1945	0.5537	-1.5977	-0.9918	-0.0787	-0.4166
-1.0281	-1.285	9.8227	-0.5247	0.6831	-0.1207	-0.1192	0.7137	-0.8619	1.3043	0.4032	9.5531	-0.4013	-0.2508	0.3917	0.0485	-0.3356	-1.6059	10.036	1.2452	-0.6927	-0.0999	0.7701	-1.6609	-0.9918	-0.0967	-0.4162
-1.3104	-0.1241	9.9918	-0.5856	0.5273	0.0321	-0.1184	0.6916	-0.8237	1.4848	0.2865	9.7282	-0.0382	-0.131	0.1712	0.029	-0.2939	-1.5949	9.934	0.6723	-0.1275	-0.1017	0.6473	-1.661	-1.0446	-0.0601	-0.436
-1.0882	-0.2992	9.7103	-0.5246	0.5274	-0.0001	-0.1404	0.744	-0.8121	1.2413	-0.2402	9.2631	-0.0361	-0.0056	0.3556	-0.001	-0.3969	-1.5805	9.6972	1.0747	-0.4718	0.2025	0.622	-1.8826	-1.0101	-0.096	-0.4519
-1.3268	-0.5327	9.1342	-0.711	0.4973	0.0047	-0.1214	0.7409	-0.7942	1.1868	0.2282	9.5504	-0.282	0.0854	0.2336	0.039	-0.3368	-1.5629	9.7566	0.7869	-0.415	0.3296	0.6518	-1.7623	-1.0271	-0.1144	-0.4344
-0.972	-0.4149	9.8264	-0.4365	0.5286	-0.1554	-0.0983	0.6749	-0.8396	1.5446	-0.0642	9.7283	-0.1606	0.0537	0.171	0.0499	-0.3564	-1.6051	9.3551	1.2492	-0.3634	0.5214	0.5256	-1.4287	-1.0266	-0.1147	-0.4167
-1.0299	-0.5311	9.7678	-0.3691	0.402	0.1164	-0.0981	0.6791	-0.8756	1.0712	-0.2972	9.6039	-0.3405	0.0264	0.4199	0.0043	-0.3334	-1.626	9.7595	1.4214	-0.1275	0.3241	0.3146	-1.7934	-1.0092	-0.0786	-0.417
-1.0355	-0.5319	9.4823	-0.434	0.4344	-0.0037	-0.1366	0.6747	-0.8214	1.2438	0.1109	9.4364	0.267	-0.193	0.1689	0.0232	-0.3134	-1.6244	9.7587	0.7873	-0.301	0.4282	0.4012	-1.3654	-1.0266	-0.1147	-0.4167
-0.7408	-0.5887	10.0016	-0.5668	0.2511	-0.1548	-0.0976	0.6506	-0.7835	1.0748	0.0541	9.8345	0.0229	-0.1926	0.1711	0.0304	-0.3147	-1.5941	9.9284	1.3624	-0.2955	0.6796	0.4627	-1.2478	-1.0267	-0.0967	-0.4171
-1.0321	-0.5894	9.6534	-0.5007	0.3117	-0.0643	-0.1155	0.6401	-0.8352	1.1871	0.1114	9.55	-0.0075	-0.0384	0.2011	-0.0341	-0.3117	-1.6166	10.0975	1.246	-0.4638	0.5494	0.6205	-1.6135	-1.0275	-0.1321	-0.4516
-0.6862	-0.5311	9.8887	-0.5023	0.2811	-0.0951	-0.1175	0.6737	-0.8215	1.2516	0.1121	9.838	0.2054	-0.101	0.1378	0.0382	-0.3777	-1.5764	9.8159	0.7871	-0.3	0.3641	0.4951	-1.5175	-1.0097	-0.0963	-0.4343
-1.1988	-0.1825	9.8796	-0.5986	0.0959	-0.0639	-0.1335	0.6253	-0.851	1.1951	-0.0042	9.9513	0.1461	-0.1608	0.2624	-0.0052	-0.3346	-1.583	9.4667	0.9024	-0.5906	0.2169	0.4273	-1.1458	-1.0276	-0.0779	-0.4528
-0.5778	-0.648	9.6051	-0.6829	0.2179	0.1231	-0.1192	0.7137	-0.8619	1.3039	0.5785	9.5537	-0.0367	0.0863	0.324	0.0115	-0.3347	-1.5957	9.8134	0.9018	-0.4135	0.0608	0.4889	-1.2346	-1.061	-0.115	-0.4
-1.3147	-0.2988	9.7629	-0.4705	0.1562	0.0249	-0.0619	0.7108	-0.8621	1.3158	0.2297	10.1264	0.0216	-0.1323	0.078	0.0571	-0.3577	-1.5748	9.8178	1.1333	-0.1277	-0.0586	0.5472	-1.0783	-1.0087	-0.0971	-0.399
-0.9205	-0.6479	9.5413	-0.4655	0.2479	0.1174	-0.1577	0.7071	-0.7897	1.4254	-0.0057	9.6688	-0.038	-0.0691	0.2016	0.0101	-0.3139	-1.5965	9.6978	1.4782	-0.3562	0.1193	0.3985	-1.3281	-1.028	-0.0956	-0.47
-1.09	-0.7056	9.5949	-0.3159	0.0311	0.1109	-0.1184	0.6916	-0.8237	1.4276	0.5207	9.8426	-0.0074	0.085	0.2311	0.0471	-0.3148	-1.6068	9.9225	1.2459	-0.6378	-0.0563	0.6077	-1.0169	-0.9923	-0.0783	-0.4342
-0.6355	-1.0542	9.5457	-0.4067	-0.0003	0.2048	-0.1166	0.6537	-0.8014	1.0715	0.0536	9.6624	0.1147	0.0849	0.2299	0.0115	-0.3347	-1.5957	9.8711	0.7865	-0.4129	-0.1793	0.5134	-0.9222	-1.0615	-0.1147	-0.4176
-0.9772	-0.8219	9.5397	-0.2204	0.1855	0.0794	-0.1364	0.6789	-0.8574	1.476	0.2851	9.2692	-0.2212	0.0234	0.2026	-0.0558	-0.2901	-1.6199	9.4192	0.5015	-0.1376	-0.0916	0.4553	-1.1085	-0.9917	-0.1148	-0.4158
-0.7463	-0.7056	9.7158	-0.2839	0.1552	0.0503	-0.1163	0.6601	-0.8554	0.9544	0.1709	9.7179	-0.3152	0.2676	0.0472	0.0593	-0.3376	-1.5604	9.6358	1.074	-0.7007	-0.2669	0.7881	-0.8585	-1.0441	-0.0966	-0.4176
-0.8118	0.1055	9.3174	-0.4391	0.2182	-0.0059	-0.0973	0.657	-0.8375	0.8914	-0.005	9.4867	-0.1295	-0.069	0.2025	0.029	-0.2939	-1.5949	9.5856	1.4215	-0.2446	-0.4202	0.5383	-0.6405	-1.0106	-0.0956	-0.4696
-1.2038	-0.8215	9.5923	-0.4405	0.1564	-0.0065	-0.0982	0.677	-0.8576	0.9554	0.2295	9.7754	-0.406	0.2993	0.1096	-0.0038	-0.3554	-1.5822	9.9217	1.1881	-0.695	-0.4026	0.4539	-1.1633	-1.0097	-0.0963	-0.4343
-1.0323	-0.4154	9.654	-0.3078	0.2152	0.2349	-0.1383	0.7146	-0.8618	0.9475	0.2866	9.374	-0.3433	0.0543	0.2035	-0.0074	-0.3547	-1.5973	10.0523	1.3642	0.2192	-0.4559	0.51	-0.8242	-0.9747	-0.1506	-0.4322
-1.3166	-0.6472	9.6477	-0.4674	0.2486	0.0564	-0.079	0.6782	-0.8757	1.0113	0.1119	9.6041	-0.3152	0.2369	0.0475	0.0137	-0.3146	-1.5814	9.8161	1.3058	-0.1839	-0.6098	0.4154	-0.7288	-0.9917	-0.1329	-0.4154
-1.0924	-0.5319	9.4812	-0.3781	0.2182	-0.0381	-0.1374	0.6946	-0.8416	1.6034	-0.0059	9.7296	-0.4343	0.1783	0.2652	0.0593	-0.3376	-1.5604	9.59	1.0768	-0.0751	-0.7625	0.413	-0.6334	-1.0097	-0.0783	-0.4347
-0.915	-0.473	9.8273	-0.6245	0.1877	0.0295	-0.0819	0.7296	-0.8642	1.2412	0.2858	9.3221	-0.2823	0.0542	0.203	0.0304	-0.3147	-1.5941	9.1321	1.0209	-0.0837	-0.6369	0.5367	-0.6359	-1.0102	-0.0779	-0.4523
-1.0879	-0.6472	9.7093	-0.597	0.2821	-0.1536	-0.1183	0.6937	-0.8417	1.4814	0.3444	9.5563	-0.1605	-0.0386	0.1717	0.0585	-0.3785	-1.5739	9.5879	1.3644	-0.1309	-0.9511	0.4134	-0.7523	-1.0276	-0.0598	-0.4531
-1.2078	-0.1259	9.423	-0.495	0.3098	0.1189	-0.102	0.7484	-0.8663	1.3645	-0.1228	9.5526	-0.1595	0.0856	0.2634	0.0173	-0.3153	-1.5662	9.8713	0.7289	-0.4131	-0.979	0.628	-0.7514	-1.0248	-0.0981	-0.3465
-1.1472	-0.4155	9.5946	-0.5644	0.3126	-0.1236	-0.1384	0.7104	-0.8258	1.012	0.2874	9.662	-0.0695	-0.1318	0.1097	0.0268	-0.314	-1.6092	9.707	0.9617	0.0404	-0.9327	0.8046	-0.1991	-1.0092	-0.1148	-0.4163
-0.864	-0.1839	9.5438	-0.6273	0.3131	-0.1524	-0.1175	0.6737	-0.8215	1.0142	-0.1798	9.7179	-0.1323	-0.0718	-0.0137	-0.0038	-0.3554	-1.5822	9.7631	0.7307	-0.0734	-0.7702	0.6462	0.2273	-0.9574	-0.0964	-0.4329
-0.8638	-0.4159	9.5431	-0.2531	0.0306	0.1398	-0.1375	0.6925	-0.8236	1.1252	0.4033	9.435	0.0515	-0.0097	0.0459	-0.0138	-0.3125	-1.6142	9.8132	0.9594	-0.4132	-0.7452	0.774	-0.111	-1.0092	-0.0967	-0.4166
-1.3199	-0.7057	9.4762	-0.4687	0.1556	0.086	-0.1146	0.6201	-0.8151	1.31	0.3457	9.8398	-0.1292	0.2087	0.2621	0.0182	-0.2919	-1.6404	9.7605	0.8454	-0.1869	-0.5035	0.8104	-0.3926	-1.0092	-0.0786	-0.417
-0.6829	-0.4726	10.0602	-0.3796	0.1565	-0.0387	-0.0994	0.6885	-0.8058	1.5985	0.2271	9.5008	-0.3459	0.175	0.0173	0.0137	-0.3146	-1.5814	9.4178	1.1926	-0.0778	-0.7809	0.7457	-0.2946	-0.9748	-0.0964	-0.4334
-1.086	-0.2408	9.8246	-0.2537	0.1242	0.0491	-0.1181	0.698	-0.8777	1.1869	0.1698	9.5502	-0.2832	0.0842	0.141	-0.0313	-0.3533	-1.615	9.9284	1.0743	-0.3537	-0.6271	0.6236	-0.2673	-1.011	-0.1133	-0.4868
-1.0835	-0.4725	9.9381	-0.4669	0.0305	0.2373	-0.1174	0.6758	-0.8395	1.132	0.3459	9.7791	-0.3155	0.2057	0.0168	0.0276	-0.2732	-1.5957	9.9401	1.0194	0.2727	-0.9054	0.7452	-0.3227	-1.0096	-0.1325	-0.4335
-1.2575	-0.5889	9.7632	-0.3792	0.0941	0.0217	-0.1374	0.6946	-0.8416	0.9468	0.1112	9.316	-0.3451	-0.04	0.0498	0.0709	-0.3163	-1.5891	10.1031	1.132	-0.1794	-1.118	0.5862	-0.0419	-1.0262	-0.097	-0.3995
-0.7406	-0.8207	10.001	-0.3741	0.0301	0.2348	-0.0787	0.6454	-0.7476	1.5371	0.2853	9.3851	-0.1314	0.0832	0.0778	-0.0124	-0.3333	-1.6133	9.5227	0.9595	-0.6463	-1.3345	0.6464	-0.0679	-1.0087	-0.1151	-0.3986
-0.8648	-0.5321	9.4857	-0.5389	0.003	-0.0665	-0.0795	0.6675	-0.7857	1.3085	0.0532	9.7242	-0.436	0.0532	0.1117	-0.0074	-0.3547	-1.5973	9.8145	1.4782	-0.2402	-1.4968	0.3711	-0.2185	-0.9922	-0.1325	-0.4331
-0.9205	-0.6479	9.5413	-0.4742	0.0018	0.0233	-0.0975	0.6527	-0.8015	1.4243	-0.0059	9.6115	-0.1924	0.0525	0.0786	0.0426	-0.3375	-1.5477	9.47	1.4217	-0.3037	-1.6609	0.4686	-0.6756	-0.9922	-0.0964	-0.4338
-0.7386	-0.5884	10.1158	-0.5126	0.0044	-0.22	-0.1183	0.6937	-0.8417	1.0179	-0.3546	9.8895	-0.1921	0.3302	0.1383	-0.011	-0.354	-1.6125	9.4184	1.3079	-0.0203	-1.7218	0.5914	-0.7049	-1.028	-0.1136	-0.4696
-1.095	-0.2422	9.3679	-0.3132	0.1859	0.082	-0.0991	0.6949	-0.8598	1.4209	0.052	9.4395	-0.3459	0.175	0.0173	0.0557	-0.337	-1.5756	9.6991	1.1328	-0.3576	-1.8102	0.557	-0.488	-1.0092	-0.0786	-0.417
-1.0283	-1.053	9.8234	-0.4999	0.0624	0.1469	-0.1002	0.7106	-0.8439	0.955	-0.0628	9.7172	-0.5586	0.3303	0.1108	0.0115	-0.3347	-1.5957	9.8224	1.0191	0.0997	-1.8412	0.4019	-0.3954	-0.9922	-0.0964	-0.4338
-0.5767	-0.7059	9.6621	-0.5356	0.0641	-0.0049	-0.1184	0.6916	-0.8237	0.833	0.229	9.5437	-0.4369	0.2682	0.0792	-0.0102	-0.3132	-1.599	9.8774	1.3641	0.0452	-1.8348	0.398	-0.119	-1.045	-0.132	-0.4521
-1.1546	-0.8807	9.1936	-0.5347	-0.0607	0.116	-0.1183	0.6937	-0.8417	0.9508	-0.1804	9.4873	-0.4994	0.2359	-0.0435	0.0029	-0.3126	-1.6269	9.7635	0.9037	-0.0157	-1.746	0.4632	-0.3359	-1.0451	-0.0778	-0.4532
-1.1527	-0.5903	9.3086	-0.5686	0.096	-0.0953	-0.1162	0.6622	-0.8734	1.5452	0.1697	9.7864	-0.5295	0.2056	-0.0121	-0.0566	-0.331	-1.6334	9.9336	0.4993	-0.1852	-1.9059	0.4032	-0.5169	-0.9917	-0.1148	-0.4158
-1.1446	-0.8792	9.7075	-0.5069	0.127	-0.1272	-0.1005	0.7042	-0.7899	1.1326	0.1122	9.7784	-0.589	0.238	0.1118	0.0023	-0.2509	-1.6142	9.6502	1.423	0.1552	-1.6798	0.6158	-0.2449	-1.0969	-0.0781	-0.4369
-1.2094	-0.7643	9.307	-0.2873	0.094	-0.0114	-0.0976	0.6506	-0.7835	1.3056	-0.1226	9.5515	-0.6202	0.2065	0.0505	-0.0241	-0.3546	-1.5846	10.1039	1.1898	-0.1222	-1.5825	0.6757	-0.0933	-0.9917	-0.1148	-0.4158
-0.6816	-0.6464	10.1168	-0.3158	0.1556	0.0206	-0.0974	0.6549	-0.8195	1.5891	-0.0667	8.9834	-0.2544	-0.0101	-0.013	0.0015	-0.2918	-1.6277	9.9396	1.1345	0.2732	-1.6102	0.5496	0.1222	-1.01	-0.1502	-0.4508
-0.8622	-0.8798	9.5989	-0.3202	-0.0297	0.0187	-0.1403	0.7461	-0.8301	1.4808	-0.3571	9.4394	-0.1627	0.2982	0.0456	-0.0566	-0.331	-1.6334	9.4092	0.9601	-0.5914	-1.3036	0.4918	0.0234	-1.0272	-0.0602	-0.4355
-1.0278	-0.4147	9.8823	-0.3424	0.0609	0.2342	-0.1013	0.7242	-0.8101	0.5399	-0.0038	9.5948	-0.4983	0.2679	0.0489	0.026	-0.3549	-1.6227	9.0673	1.3651	-0.4251	-0.934	0.4647	-0.046	-1.0271	-0.1144	-0.4344
-0.8579	-0.6471	9.8279	-0.3812	-0.1543	0.1413	-0.1568	0.6892	-0.7875	1.1301	0.2287	9.664	-0.4685	0.2055	-0.0126	-0.0088	-0.3339	-1.5982	9.7024	1.0759	-0.187	-0.6658	0.3804	-0.4512	-0.9744	-0.0606	-0.4165
-1.3724	-0.6469	9.7037	-0.4395	0.0004	0.1446	-0.1173	0.678	-0.8575	1.2547	0.2295	10.0105	-0.375	0.0532	0.1112	0.0179	-0.3769	-1.5789	9.697	1.1323	-0.4716	-0.3785	0.5938	-0.2112	-1.0097	-0.0783	-0.4347
-0.9151	-0.415	9.8275	-0.2467	0.0596	0.3232	-0.1175	0.6737	-0.8215	1.178	-0.2993	9.0323	-0.4367	0.3609	0.1094	0.0065	-0.3133	-1.6117	9.589	0.5004	-0.2484	-0.2569	0.5342	-0.2754	-1.0275	-0.1321	-0.4516
-1.0926	-0.4158	9.4815	-0.3432	0.1857	0.1134	-0.1194	0.7094	-0.8259	1.1861	0.0527	9.4924	-0.528	0.2687	0.111	0.0485	-0.3356	-1.6059	9.4107	1.1333	-0.4768	-0.0715	0.6597	-0.3713	-1.0262	-0.1151	-0.3991
-0.9781	-1.1121	9.4818	-0.1938	0.0001	0.0767	-0.1354	0.6611	-0.8553	1.2488	0.3455	9.724	-0.4977	0.1452	0.0807	-0.0124	-0.3333	-1.6133	9.525	1.4786	-0.4163	0.0319	0.7468	0.026	-1.0102	-0.0598	-0.4527
-0.8023	-0.5313	9.7723	-0.254	0.0309	0.1092	-0.1374	0.6946	-0.8416	0.8939	0.3461	9.6599	-0.4065	0.1139	0.0492	0.0151	-0.3354	-1.5805	9.3578	1.0769	-0.2502	0.3708	0.6884	-0.012	-1.0096	-0.1325	-0.4335
-0.9757	-0.0674	9.6561	-0.0398	-0.0314	0.0721	-0.1194	0.7094	-0.8259	1.19	0.2872	9.7227	-0.5265	0.3318	0.234	0.0304	-0.3147	-1.5941	9.7555	1.0747	-0.4138	0.237	0.5388	-0.3473	-1.0272	-0.0421	-0.4359
-0.9698	-0.4146	9.9406	-0.1272	-0.0017	0.2276	-0.06	0.6751	-0.8578	1.1908	-0.0634	9.7216	-0.587	0.2708	0.2659	0.0043	-0.3334	-1.626	10.0933	1.245	-0.6916	-0.2313	0.5068	-0.491	-1.0451	-0.0778	-0.4532
-0.8646	-0.7061	9.4852	-0.4046	-0.0321	0.2961	-0.1013	0.7242	-0.8101	1.5392	-0.1235	9.4412	-0.557	0.3011	0.2345	-0.0255	-0.3338	-1.5855	10.0442	1.5928	-0.1786	-0.3174	0.6877	-0.3046	-1.0092	-0.1148	-0.4163
-1.3166	-0.6472	9.6477	-0.3847	-0.0597	-0.0409	-0.1175	0.6737	-0.8215	1.4865	0.053	9.7849	-0.5875	0.0854	0.2056	0.0346	-0.3771	-1.5916	10.1599	1.535	-0.1198	-0.0423	0.6919	-0.464	-1.0437	-0.0789	-0.4003
-0.9718	-0.647	9.8257	-0.1914	0.0615	0.1078	-0.1194	0.7073	-0.8079	1.3719	0.0538	9.9548	-0.5589	-0.1324	0.0216	0.039	-0.3368	-1.5629	9.5867	0.8456	-0.3039	-0.3182	0.6263	-0.3046	-1.0959	-0.115	-0.4009
-0.9692	-1.0527	9.9387	-0.3456	0.1242	0.0822	-0.0802	0.6896	-0.8239	1.249	0.287	9.7238	-0.4364	0.2071	0.1106	0.0296	-0.3556	-1.6076	9.4702	1.3641	-0.3039	-0.107	0.6932	-0.5855	-1.0083	-0.0974	-0.3814
-0.6882	-0.7634	9.7739	-0.2496	0.3407	0.0208	-0.0984	0.6727	-0.8216	1.0787	0.2885	10.0647	-0.6785	0.0244	0.2378	0.0237	-0.3575	-1.5494	9.4704	0.7304	-0.4204	-0.0136	0.8794	-0.6794	-1.0455	-0.0594	-0.4712
-1.0241	-0.8203	10.0524	-0.3797	0.3121	-0.1593	-0.1547	0.6578	-0.8192	1.1918	-0.4724	9.7204	-0.6503	0.2069	0.0817	-0.0138	-0.3125	-1.6142	9.3582	0.9618	-0.2507	0.2441	0.937	-0.2855	-1.0615	-0.1147	-0.4176
-0.8045	-0.5316	9.6581	-0.4376	0.2799	-0.0052	-0.1183	0.6937	-0.8417	1.3625	0.2861	9.4965	-0.3453	0.0523	0.0491	-0.0052	-0.3346	-1.583	9.2968	1.2491	-0.4214	-0.0699	0.8755	-0.4325	-0.9751	-0.1683	-0.4495
-0.8615	-0.4736	9.6571	-0.5015	0.1563	0.0258	-0.0992	0.6927	-0.8418	1.4851	0.1696	9.7279	-0.4962	0.0234	0.1743	0.0159	-0.2945	-1.567	9.813	1.017	-0.413	0.1833	1.0598	-0.3147	-1.0271	-0.1144	-0.4344
-1.0955	-0.8804	9.3089	-0.1559	0.2155	0.1391	-0.1176	0.6694	-0.7855	1.1292	0.1117	9.6063	-0.5275	-0.0082	0.1131	0.0485	-0.3356	-1.6059	9.6491	1.1346	0.0401	-0.1268	1.0268	-0.3081	-1.0093	-0.0425	-0.4178
-0.8052	-0.9379	9.5998	-0.4363	0.2172	0.0857	-0.1182	0.6958	-0.8597	0.9556	-0.355	9.7163	-0.3754	0.0528	0.0803	0.0137	-0.3146	-1.5814	9.4115	1.1911	-0.4196	-0.0357	0.9047	-0.3103	-1.0088	-0.0609	-0.3998
-0.9217	-0.532	9.4846	-0.3497	0.0322	0.0202	-0.1396	0.724	-0.7919	1.2456	0.2865	9.5517	-0.4645	0.0245	0.2667	0.0232	-0.3134	-1.6244	9.5912	1.3076	0.0398	0.1142	0.9089	-0.5285	-1.0266	-0.1509	-0.416
-0.8089	-0.5903	9.4295	-0.3122	0.0299	0.2331	-0.1384	0.7104	-0.8258	1.2557	-0.2379	10.0091	-0.7091	0.086	0.2376	0.0499	-0.3564	-1.6051	9.7014	1.3638	-0.1858	0.1384	0.6345	-0.6523	-1.0093	-0.0606	-0.4174
-1.1423	-0.8789	9.8217	-0.2228	0.124	0.0483	-0.0792	0.6739	-0.8397	1.367	-0.2393	9.667	-0.3754	0.022	0.0805	0.0087	-0.2932	-1.5973	9.5858	1.0758	-0.303	0.4256	0.7862	-0.3817	-1.0105	-0.1498	-0.4684
-1.0906	-0.1255	9.5966	-0.2515	0.2168	0.0501	-0.1567	0.6913	-0.8055	1.4826	-0.1815	9.5547	-0.5588	-0.0089	0.0516	0.0282	-0.3348	-1.6084	9.7641	0.731	-0.0164	0.5768	0.7895	-0.5385	-0.9917	-0.1148	-0.4158
-0.6257	-0.7047	10.0606	-0.1278	0.2163	0.0466	-0.1366	0.6747	-0.8214	1.0188	0.2301	10.0061	-0.4644	0.1787	0.2964	-0.0138	-0.3125	-1.6142	9.6416	0.9024	-0.4166	0.6061	0.6669	-0.5393	-1.0276	-0.0779	-0.4528
-1.0988	-0.8809	9.1376	-0.6563	0.3126	-0.0905	-0.1173	0.678	-0.8575	1.3079	0.2869	9.7249	-0.5281	-0.0705	0.0518	0.0129	-0.3555	-1.5949	9.6997	0.96	-0.3583	0.61	0.6954	-0.3858	-1.0097	-0.0783	-0.4347
-0.7988	-0.6468	9.9432	-0.3704	0.4647	0.0255	-0.0783	0.6539	-0.8196	1.1309	0.3457	9.7218	-0.3755	0.0835	0.0801	0.0087	-0.2932	-1.5973	9.9854	1.1317	-0.3524	0.4497	0.7596	-0.6588	-1.0271	-0.0782	-0.4351
-0.8624	-0.6478	9.5995	-0.3518	0.3441	-0.2819	-0.1182	0.6958	-0.8597	1.4117	0.1675	8.9808	-0.2816	0.1166	0.2643	0.0137	-0.3146	-1.5814	9.8088	1.016	-0.6408	0.5081	0.7623	-0.8136	-1.0441	-0.0966	-0.4176
-0.8598	-1.0535	9.7126	-0.4625	0.496	0.0284	-0.1194	0.7094	-0.8259	1.3677	0.4038	9.7838	-0.2212	0.0234	0.2026	0.0304	-0.3147	-1.5941	9.989	1.0173	-0.182	0.2717	1.0012	-0.4703	-0.9573	-0.1145	-0.4325
-1.0223	-0.3559	10.168	-0.3169	0.3116	-0.1305	-0.0995	0.6863	-0.7878	0.9557	0.1126	9.7751	-0.1305	0.0532	0.1398	0.0254	-0.2933	-1.6101	9.4757	1.0196	-0.0774	-0.0091	0.8457	-0.4645	-1.0087	-0.1151	-0.3986
-1.0301	-0.3571	9.7683	-0.3124	0.3412	-0.008	-0.1776	0.728	-0.8097	1.0701	-0.2974	9.5465	-0.008	-0.193	0.1405	-0.0024	-0.3762	-1.5813	9.9336	1.0755	-0.0689	-0.1864	1.0869	-0.2453	-1.0092	-0.0786	-0.417
-1.0276	-0.6468	9.8817	-0.3747	0.4039	-0.0667	-0.0783	0.656	-0.8376	1.0705	-0.0051	9.6048	-0.1915	-0.1624	0.1111	0.0513	-0.3772	-1.6043	9.4134	1.2492	-0.3054	-0.005	0.7812	-0.2497	-1.0271	-0.0963	-0.4347
-0.5748	-0.3575	9.7773	-0.3448	0.2796	-0.0078	-0.0982	0.677	-0.8576	1.0756	0.6972	9.9512	-0.3441	-0.1314	0.1123	0.0521	-0.3363	-1.5908	9.4686	0.9604	-0.4764	-0.02	0.8834	-0.9558	-1.0262	-0.1151	-0.3991
-0.6849	-0.7629	9.9451	-0.3133	0.3415	-0.0386	-0.0612	0.6887	-0.824	1.4248	0.2865	9.6697	-0.7107	0.0844	0.1141	0.0029	-0.3126	-1.6269	9.7597	1.3638	-0.1278	-0.0289	0.8579	-1.3243	-0.9913	-0.0971	-0.3985
-0.8034	-0.5315	9.7152	-0.5916	0.3114	-0.0006	-0.0985	0.6706	-0.8036	1.2563	-0.004	10.0672	-0.5875	0.1162	0.2053	0.0137	-0.3146	-1.5814	9.6447	1.1913	-0.1875	0.0218	0.9389	-0.5265	-1.0451	-0.0778	-0.4532
-1.1449	-0.4731	9.7086	-0.4312	0.4335	0.0879	-0.1758	0.6923	-0.8054	1.4813	-0.1232	9.4975	-0.1607	-0.1005	0.1412	0.0507	-0.3155	-1.5916	9.4119	1.076	-0.4201	-0.0777	1.1281	-0.9235	-1.0271	-0.0963	-0.4347
-0.5733	-0.7634	9.8332	-0.647	0.5897	0.0039	-0.1354	0.6611	-0.8553	1.1846	-0.2397	9.3768	-0.5567	0.1473	0.2357	0.031	-0.3764	-1.6067	9.3036	1.3659	-0.0222	-0.0176	1.2535	-1.0782	-1.0092	-0.0967	-0.4166
-1.0898	-0.9376	9.5942	-0.5316	0.3118	-0.0634	-0.1373	0.6968	-0.8596	1.4837	-0.1813	9.612	-0.6201	-0.04	0.0215	0.0179	-0.3769	-1.5789	9.4111	1.3063	-0.4191	-0.0438	1.0336	-0.74	-1.0083	-0.0794	-0.3817
-1.0308	-0.7633	9.71	-0.4088	0.3116	-0.0974	-0.0982	0.677	-0.8576	1.4203	0.2857	9.4402	-0.4359	-0.0083	0.1122	0.0593	-0.3376	-1.5604	9.701	1.4789	-0.1853	-0.2844	0.7796	-0.2744	-1.0624	-0.1139	-0.4529
-0.6349	-0.532	9.6044	-0.4688	0.3113	-0.0346	-0.1165	0.6558	-0.8194	1.2448	-0.2981	9.4351	-0.4045	0.1467	0.2034	0.0521	-0.3363	-1.5908	9.2976	1.0189	-0.4224	-0.2526	0.6864	-0.1831	-1.0102	-0.0598	-0.4527
-0.9828	-0.8807	9.2541	-0.8805	0.1915	-0.2384	-0.0982	0.677	-0.8576	1.3609	0.4612	9.4396	-0.3153	0.0826	0.0177	0.0513	-0.3772	-1.6043	9.5879	1.0763	-0.1891	-0.3717	0.4658	0.1571	-1.0441	-0.0966	-0.4176
-1.254	-0.8204	9.9338	-0.3157	-0.0001	0.1412	-0.1394	0.7282	-0.8279	1.0034	0.1691	9.2026	-0.4953	0.1476	0.266	0.0282	-0.3348	-1.6084	9.1306	0.8477	-0.1984	-0.1734	0.6453	0.5832	-0.9912	-0.1513	-0.3974
-1.0323	-0.4154	9.654	-0.0679	-0.0322	0.1645	-0.1184	0.6916	-0.8237	1.184	-0.006	9.3775	-0.4348	0.2087	0.2341	0.0123	-0.2938	-1.5822	9.6985	1.0174	-0.4151	-0.3936	0.5529	0.4956	-0.9734	-0.0794	-0.3808
-1.2004	-0.821	9.7636	-0.4485	-0.1834	-0.0099	-0.0782	0.6582	-0.8556	1.4199	-0.0066	9.3819	0.2084	0.1794	0.4137	0.0115	-0.3347	-1.5957	9.8228	0.9039	0.0992	-0.3346	0.6481	0.3102	-1.0436	-0.1331	-0.3991
-0.9196	-0.4157	9.5991	-0.2585	0.0012	-0.0132	-0.0973	0.657	-0.8375	1.3656	-0.1226	9.61	-0.2533	-0.0089	0.0796	0.0079	-0.334	-1.6109	9.7022	1.1335	-0.1867	-0.3375	0.7428	0.126	-1.0097	-0.0963	-0.4343
-0.9108	-0.2403	10.0564	-0.354	-0.1531	0.0183	-0.1194	0.7094	-0.8259	1.0622	0.2274	9.2039	-0.4679	0.1444	0.0187	0.0282	-0.3348	-1.6084	9.5923	1.0197	0.0386	-0.1589	0.5937	-0.093	-1.0437	-0.0609	-0.4007
-0.5822	-0.7647	9.3764	-0.4117	-0.0921	0.1123	-0.1192	0.7137	-0.8619	1.4906	-0.2971	9.956	-0.1604	0.1464	0.2011	0.0471	-0.3148	-1.6068	9.8195	1.8251	0.103	-0.1605	0.7805	-0.2771	-0.9733	-0.1336	-0.3797
-1.0926	-0.4158	9.4815	-0.1286	-0.2192	0.3475	-0.1558	0.6713	-0.7853	1.1868	0.2282	9.5504	-0.4044	0.3009	0.2331	-0.0074	-0.3547	-1.5973	9.8738	1.1904	-0.1834	-0.0094	0.722	-0.4033	-1.0092	-0.0967	-0.4166
-0.8669	-0.7065	9.371	-0.1023	-0.2178	0.194	-0.1172	0.6801	-0.8755	1.074	0.4047	9.8356	-0.2232	0.2064	0.0777	0.0607	-0.3584	-1.5596	9.3597	0.8469	-0.1942	-0.2942	0.6927	-0.643	-1.0454	-0.1317	-0.4697
-1.3794	-0.3579	9.3619	-0.2025	-0.3706	0.0729	-0.1575	0.7113	-0.8257	1.1327	0.0538	9.7782	-0.3448	0.1762	0.11	-0.0052	-0.3346	-1.583	9.5829	1.5938	-0.3578	-0.0462	0.8182	-0.7096	-0.9918	-0.0967	-0.4162
-1.09	-0.7636	9.5947	-0.2554	-0.1866	0.2291	-0.0992	0.6927	-0.8418	1.1885	-0.0053	9.607	-0.7112	0.3305	0.1122	0.0536	-0.2545	-1.5637	9.4142	1.307	-0.2482	-0.3899	0.9416	-0.9171	-1.0267	-0.0967	-0.4171
-0.6882	-0.8215	9.7737	-0.2938	-0.4641	0.1966	-0.1176	0.6716	-0.8035	1.242	-0.0648	9.3211	-0.7406	0.3625	0.2049	0.0948	-0.3177	-1.5715	9.7039	0.3848	-0.2468	-0.6069	0.9711	-0.9432	-1.0102	-0.0779	-0.4523
-1.1986	-0.3566	9.8791	-0.353	-0.3091	0.1694	-0.1356	0.6568	-0.8193	0.949	0.1115	9.4308	-0.8034	0.2683	0.0518	-0.0422	-0.3337	-1.5728	9.7518	0.9587	-0.6421	-0.5456	0.6312	-0.7606	-1.0262	-0.1151	-0.3991
-0.9741	-0.5893	9.7117	-0.0733	-0.3417	0.2224	-0.1001	0.7127	-0.8619	1.0705	-0.0051	9.6048	-0.8026	0.2383	0.1138	0.0143	-0.3763	-1.594	9.6987	0.9598	-0.4153	-0.6707	0.5382	-0.7581	-1.0445	-0.1324	-0.4344
-1.0387	-0.7645	9.3104	-0.324	-0.4331	0.1978	-0.0973	0.657	-0.8375	1.5488	-0.4142	9.8993	-0.7127	0.2981	-0.0111	0.039	-0.3368	-1.5629	9.4098	1.0755	-0.534	-0.8174	0.656	-0.4783	-1.0611	-0.0608	-0.4011
-1.3781	-0.5318	9.4185	-0.2295	-0.4029	0.2261	-0.0812	0.7075	-0.826	0.7717	0.2872	9.428	-0.743	0.3908	0.0194	-0.016	-0.3326	-1.6285	9.6997	1.2481	-0.3002	-0.9634	0.7733	-0.1678	-1.0445	-0.1143	-0.4348
-1.0231	-0.6461	10.11	-0.0427	-0.4351	0.2817	-0.1366	0.6747	-0.8214	1.5399	0.0519	9.4991	-0.6201	0.3299	0.0805	0.0123	-0.2938	-1.5822	9.3534	1.1335	-0.4778	-1.1156	0.9563	-0.1643	-1.0436	-0.097	-0.3999
-1.0331	-0.7636	9.5958	-0.1388	-0.3714	0.1322	-0.0618	0.7129	-0.8801	1.0642	0.3446	9.319	-0.4697	0.42	-0.076	0.0179	-0.3769	-1.5789	9.4165	1.2499	-0.1345	-1.1183	0.8651	-0.2258	-1.0451	-0.0778	-0.4532
-0.746	-0.9956	9.715	-0.35	-0.0611	0.0803	-0.0794	0.6696	-0.8037	1.3104	0.1704	9.8393	-0.5287	0.4221	0.0789	0.0326	-0.2946	-1.5797	9.9892	0.9597	-0.1822	-1.3395	0.8972	-0.4361	-0.9738	-0.1332	-0.3973
-0.8672	-0.3584	9.372	-0.4156	-0.0596	-0.0401	-0.0811	0.7096	-0.844	0.8931	0.2291	9.6022	-0.2537	0.2064	0.078	0.031	-0.3764	-1.6067	9.3572	1.2496	-0.2495	-1.2665	1.0767	-0.0687	-1.045	-0.114	-0.4525
-1.2007	-0.4729	9.7646	-0.4477	-0.028	-0.1	-0.0995	0.6863	-0.7878	1.4786	0.1101	9.3834	-0.0711	0.2365	0.0452	0.0268	-0.314	-1.6092	9.5248	1.2481	-0.4742	-1.202	1.1065	0.0221	-1.0431	-0.1154	-0.3819
-0.6305	-0.4153	9.8331	-0.3159	0.0311	0.1109	-0.1194	0.7094	-0.8259	1.2547	0.2295	10.0105	-0.3778	0.2661	-0.0757	0.0232	-0.3134	-1.6244	9.6997	0.96	-0.3583	-1.0487	1.2015	-0.1039	-1.0106	-0.1137	-0.4692
-1.203	-0.4152	9.6506	-0.3167	-0.1242	0.201	-0.0994	0.6885	-0.8058	1.1932	-0.1215	9.8362	-0.4051	0.2386	0.1718	0.0101	-0.3139	-1.5965	9.3492	0.8445	-0.7638	-0.9302	0.927	-0.1683	-1.0105	-0.1317	-0.4688
-1.0903	-0.4155	9.5957	-0.4703	-0.1551	0.266	-0.1366	0.6725	-0.8034	1.0682	0.053	9.4902	-0.527	0.1772	0.1734	0.0368	-0.3569	-1.5772	9.4615	1.4774	-0.7592	-0.9994	0.8691	-0.4434	-1.0106	-0.0956	-0.4696
-0.9766	-0.2416	9.5985	-0.2577	-0.1236	0.1077	-0.1183	0.6937	-0.8417	0.8965	-0.2964	9.7153	-0.5276	0.0534	0.1126	0.0571	-0.3577	-1.5748	9.3601	1.596	-0.0202	-1.1512	0.6802	-0.1947	-0.9922	-0.0964	-0.4338
-0.8009	-0.7632	9.8287	-0.3448	-0.0006	0.2031	-0.1172	0.6801	-0.8755	0.6596	-0.2961	9.6535	-0.467	0.0836	0.0809	0.0702	-0.3572	-1.6026	9.4623	1.2471	-0.7601	-0.8083	0.7433	-0.1404	-0.9748	-0.1145	-0.433
-1.0341	-0.8218	9.5386	-0.4438	-0.0604	0.0524	-0.0992	0.6927	-0.8418	0.9473	-0.1225	9.3153	-0.4063	-0.1633	0.0205	0.0101	-0.3139	-1.5965	9.6949	0.8437	-0.6436	-0.9021	0.929	-0.2918	-0.9743	-0.1329	-0.415
-1.2621	-0.5315	9.5349	-0.3714	0.1849	0.2058	-0.0801	0.6939	-0.8599	1.1918	-0.0048	9.7792	-0.2845	-0.0404	0.0184	0.0493	-0.2947	-1.5924	9.7616	0.8456	-0.1299	-0.935	0.7441	-0.2606	-0.9743	-0.1329	-0.415
-0.922	-0.184	9.4856	-0.2826	0.0925	0.1412	-0.0801	0.6939	-0.8599	1.0715	0.0536	9.6624	-0.282	0.1162	0.2334	0.0579	-0.3168	-1.5613	9.9315	1.0751	-0.1828	-1.089	0.6495	-0.1653	-1.0271	-0.1324	-0.434
-1.4929	-0.7639	9.3585	-0.5043	-0.1229	0.145	-0.1183	0.6937	-0.8417	1.5393	0.8117	9.5588	0.0218	0.1453	0.1377	0.0007	-0.3327	-1.6412	9.5854	1.191	-0.3025	-1.1457	0.8627	-0.0716	-1.0455	-0.0955	-0.4705
-0.7456	-0.2993	9.7741	-0.4998	-0.0932	0.2675	-0.1163	0.6601	-0.8554	1.3067	-0.1224	9.6089	0.0548	-0.0988	0.2937	0.0586	-0.276	-1.5477	9.418	1.4231	-0.0199	-1.147	0.9254	-0.1637	-1.061	-0.1512	-0.3992
-0.9784	-0.764	9.4828	-0.3478	0.0316	0.0813	-0.1366	0.6747	-0.8214	0.8368	0.0543	9.7153	-0.3177	0.111	-0.1678	0.0129	-0.3555	-1.5949	9.8168	1.133	-0.1846	-1.0157	1.0456	0.0795	-1.0625	-0.0959	-0.4533
-0.916	-0.6472	9.7697	-0.5659	-0.0294	0.0866	-0.1184	0.6916	-0.8237	1.2468	0.2867	9.609	-0.101	-0.0403	0.0476	-0.0088	-0.3339	-1.5982	9.6418	0.8449	-0.4168	-1.017	0.9535	0.0794	-0.9927	-0.096	-0.4515
-1.0837	-0.3565	9.9385	-0.4719	-0.0612	0.1448	-0.0993	0.6906	-0.8238	1.2999	-0.0651	9.2648	-0.1626	0.0209	0.0168	0.0215	-0.3776	-1.5637	9.7666	0.9044	0.1552	-0.8655	0.9257	-0.0468	-0.9923	-0.0783	-0.4342
-1.4891	-0.0671	9.5889	-0.4732	0.0015	0.0539	-0.1403	0.7461	-0.8301	1.4242	0.0526	9.6116	-0.2233	0.0522	0.048	-0.0355	-0.2909	-1.6174	10.0981	1.0732	-0.4645	-0.9907	0.9257	-0.1055	-1.0092	-0.0786	-0.417
-1.1468	-0.8795	9.5933	-0.446	0.0026	-0.0691	-0.1163	0.6601	-0.8554	1.5486	-0.3558	9.8995	-0.1025	0.2973	-0.0167	-0.0088	-0.3339	-1.5982	9.7653	0.9617	0.0984	-0.803	0.8639	0.0132	-0.9918	-0.0606	-0.4169
-0.753	-0.7066	9.3732	-0.4404	0.0007	0.1141	-0.1204	0.7251	-0.81	1.1874	0.4621	9.6085	-0.1605	-0.0386	0.1717	0.0015	-0.2918	-1.6277	9.6408	1.1327	-0.4156	-1.0147	1.1689	0.0489	-0.9926	-0.1682	-0.4499
-0.9185	-0.3575	9.6564	-0.3773	0.0935	0.0828	-0.1011	0.7285	-0.8461	1.3647	-0.1812	9.5524	0.0224	0.0534	0.1693	0.0354	-0.3362	-1.5781	9.8201	1.0762	-0.014	-0.776	0.9904	-0.2329	-1.0097	-0.0963	-0.4343
-0.9163	-0.2992	9.7707	-0.5044	0.0328	0.0245	-0.1175	0.6737	-0.8215	1.0689	0.2285	9.5481	0.0232	0.0542	0.231	0.0151	-0.3354	-1.5805	9.5923	1.0197	0.0386	-0.6812	1.0209	-0.1734	-1.0267	-0.0967	-0.4171
-0.9264	-0.3007	9.2569	-0.5015	-0.1238	0.2366	-0.1	0.7149	-0.8799	1.4297	0.0535	9.8986	-0.0408	0.1746	0.0145	-0.0283	-0.2923	-1.5871	9.4163	1.3075	-0.1343	-0.8999	0.8347	-0.1383	-1.0449	-0.1501	-0.4517
-1.1993	-0.7628	9.8209	-0.437	-0.0938	0.2963	-0.0973	0.6591	-0.8555	0.8957	0.0541	9.7164	-0.1598	0.2087	0.2624	-0.0044	-0.2937	-1.5695	9.984	1.2466	-0.4089	-0.8745	0.9932	-0.4766	-1.0441	-0.1147	-0.4172
-1.0379	-0.3582	9.3686	-0.5304	0.1246	0.1179	-0.0985	0.6706	-0.8036	1.1316	0.5212	9.7797	-0.2212	0.0234	0.2026	0.0585	-0.3785	-1.5739	9.5331	1.25	-0.0185	-0.746	1.0222	-0.295	-1.045	-0.0959	-0.4528
-0.7377	-0.3562	10.1736	-0.6905	0.0959	-0.0308	-0.1375	0.6925	-0.8236	1.3103	-0.2388	9.7807	0.0215	-0.0708	0.0776	0.0521	-0.3363	-1.5908	9.6353	1.7653	-0.5839	-0.7178	0.9312	-0.3571	-1.0092	-0.1148	-0.4163
-0.5235	-0.3004	9.4931	-0.5958	0.0949	0.0277	-0.0594	0.6487	-0.7837	1.0708	-0.1219	9.6044	-0.041	-0.1338	-0.0449	0.0346	-0.3771	-1.5916	9.5887	1.1341	-0.1319	-0.8394	1.0838	-0.3543	-0.9918	-0.0787	-0.4166
-1.3133	-0.6467	9.819	-0.6245	0.1877	0.0295	-0.061	0.6929	-0.86	1.0828	-0.0031	10.236	-0.101	0.1447	0.0771	0.0143	-0.3763	-1.594	9.5933	1.308	0.1537	-0.9629	0.9588	-0.2597	-0.9748	-0.0783	-0.4337
-0.7966	-0.5885	10.0576	-0.3794	0.1253	-0.0085	-0.081	0.7118	-0.862	1.1898	-0.122	9.664	-0.0406	-0.1642	-0.0138	0.0237	-0.3575	-1.5494	9.7066	1.0768	0.0409	-0.6513	0.8979	-0.1435	-1.0096	-0.1325	-0.4335
-1.2588	-0.473	9.7064	-0.4711	0.3743	-0.1561	-0.0802	0.6896	-0.8239	1.1295	0.4624	9.6647	-0.0092	0.0215	0.0771	-0.003	-0.3145	-1.5686	9.9231	1.6494	-0.5222	-0.7127	0.8352	-0.0809	-1.0257	-0.0974	-0.3818
-0.8592	-0.4732	9.7713	-0.4696	0.1559	0.0554	-0.0821	0.7254	-0.8282	1.2478	-0.1807	9.6076	-0.0712	-0.0719	-0.0142	-0.011	-0.354	-1.6125	9.7052	0.9036	-0.0737	-0.8104	0.7446	-0.2325	-1.0097	-0.0963	-0.4343
-0.9763	-0.6477	9.5973	-0.4107	0.1878	-0.0681	-0.0982	0.677	-0.8576	0.9575	-0.1793	9.8316	-0.0381	0.0232	0.2009	0.0051	-0.2925	-1.6125	9.8728	1.4783	-0.1822	-1.0279	0.7434	-0.2586	-1.0097	-0.0783	-0.4347
-0.9722	-0.1829	9.827	-0.3768	0.1555	0.0529	-0.083	0.7454	-0.8484	1.3068	0.2867	9.6675	-0.1639	-0.1037	-0.1058	-0.0066	-0.3138	-1.5838	9.7003	1.3635	-0.2428	-0.8771	0.809	-0.4768	-1.062	-0.0962	-0.4357
-0.8044	-0.6477	9.6578	-0.3816	0.0326	-0.0095	-0.0795	0.6675	-0.7857	1.1922	0.2875	9.8374	-0.0998	-0.0391	0.1402	0.0007	-0.3327	-1.6412	10.0947	1.1301	-0.6352	-1.0346	0.6237	-0.4737	-1.0267	-0.0967	-0.4171
-0.6917	-0.5899	9.6031	-0.4998	0.1869	0.0566	-0.1194	0.7073	-0.8079	1.5983	-0.1821	9.4421	-0.0077	0.0539	0.2004	-0.0146	-0.3534	-1.6277	9.2976	1.0189	-0.4224	-1.0346	0.6237	-0.4737	-1.0092	-0.0967	-0.4166
-0.9698	-0.4146	9.9406	-0.5052	0.1576	-0.0964	-0.1155	0.6401	-0.8352	1.363	0.0523	9.4958	0.0506	0.2052	0.0134	0.0093	-0.3548	-1.61	9.6475	1.019	-0.0743	-1.0265	0.8355	-0.2585	-1.0262	-0.1151	-0.3991
-0.9755	-0.2994	9.6554	-0.3766	0.1243	0.0831	-0.1182	0.6958	-0.8597	1.1959	-0.3548	9.9502	-0.1312	-0.0091	0.0785	0.0368	-0.3569	-1.5772	9.3498	1.5361	-0.5901	-0.6898	0.6236	-0.2967	-0.939	-0.1152	-0.3968
-1.2611	-0.3573	9.5925	-0.3832	0.002	-0.0403	-0.1345	0.6432	-0.8531	1.2569	0.2299	10.1253	-0.1595	0.0549	0.2636	0.0232	-0.3134	-1.6244	9.591	1.077	-0.0182	-0.7814	0.808	-0.356	-1.028	-0.1136	-0.4696
-0.9741	-0.5313	9.7118	-0.376	0.1864	0.0532	-0.1002	0.7106	-0.8439	1.2528	0.0539	9.8952	-0.04	-0.0404	0.047	0.0354	-0.3362	-1.5781	9.6508	1.2502	0.1545	-0.7503	0.87	-0.3872	-1.046	-0.0952	-0.4881
-0.8032	-0.7055	9.7147	-0.4074	0.2489	-0.0064	-0.1174	0.6758	-0.8395	1.2495	0.0533	9.7231	0.0212	0.083	0.0764	-0.0269	-0.313	-1.5863	9.7012	1.4213	-0.1855	-0.5358	0.7181	-0.392	-1.0266	-0.1147	-0.4167
-0.9684	-0.6465	9.997	-0.3738	0.1234	0.1747	-0.1736	0.663	-0.8551	1.3114	-0.2386	9.8381	0.1441	0.0529	0.1372	0.0093	-0.3548	-1.61	9.4178	1.1926	-0.0778	-0.2897	0.9068	-0.5813	-1.0263	-0.0609	-0.4002
-1.0881	-0.3572	9.7101	-0.3451	0.1863	0.0523	-0.0793	0.6718	-0.8217	0.8365	0.1711	9.7157	0.0214	0.1449	0.1068	0.0065	-0.3133	-1.6117	9.2919	1.709	-0.5904	-0.2937	0.7234	-0.643	-1.0262	-0.1151	-0.3991
-0.8559	-0.4147	9.9428	-0.5	0.2181	0.0264	-0.0994	0.6885	-0.8058	0.8955	0.171	9.7168	-0.2223	0.1456	0.1399	0.0065	-0.3133	-1.6117	10.0437	1.1317	-0.2944	-0.5458	0.6624	-0.7913	-1.0445	-0.1143	-0.4348
-0.9272	-0.6489	9.1988	-0.3743	0.0613	0.2046	-0.1001	0.7127	-0.8619	0.953	-0.1801	9.602	-0.0689	-0.0695	0.171	0.0093	-0.3548	-1.61	9.8769	1.4792	0.0457	-0.4261	0.5729	-0.9169	-0.9927	-0.0779	-0.4518
-0.748	-0.1256	9.6604	-0.4725	0.0324	0.0542	-0.1001	0.7127	-0.8619	1.0811	0.2305	10.1793	-0.2524	0.1768	0.1709	-0.011	-0.354	-1.6125	9.8168	1.133	-0.1846	-0.6409	0.5082	-0.7895	-0.9923	-0.0602	-0.4346
-0.9764	-0.5316	9.5976	-0.4735	0.0327	0.0236	-0.1175	0.6737	-0.8215	0.833	0.229	9.5437	-0.1589	-0.037	0.2952	0.0404	-0.3576	-1.5621	9.4178	0.6164	-0.1941	-0.7691	0.3551	-0.8792	-0.9748	-0.0964	-0.4334
-0.981	-0.4163	9.3696	-0.2232	-0.0937	0.1987	-0.1176	0.6716	-0.8035	1.1818	-0.0064	9.2627	-0.405	0.1771	0.1723	-0.0066	-0.3138	-1.5838	9.5833	1.4786	-0.3583	-0.6736	0.3852	-0.789	-1.0446	-0.0782	-0.4356
-1.2618	-0.8216	9.5341	-0.2538	-0.0003	0.1394	-0.1557	0.6735	-0.8033	1.4827	0.2277	9.6133	-0.2519	0.1157	0.2022	0.0282	-0.3348	-1.6084	9.8795	1.3645	0.1591	-0.4806	0.444	-0.5165	-1.0267	-0.0967	-0.4171
-0.8648	-0.4741	9.4859	-0.4984	-0.0315	0.2681	-0.0994	0.6885	-0.8058	0.9541	-0.1799	9.6594	-0.2236	0.2367	0.0466	0.0115	-0.3347	-1.5957	9.5302	0.9036	-0.2478	-0.7324	0.5066	-0.7261	-1.0285	-0.0952	-0.4877
-1.0847	-0.4147	9.8812	-0.405	0.0303	0.2356	-0.0803	0.6875	-0.8059	1.0815	-0.4124	10.12	-0.1292	0.2087	0.2621	-0.0046	-0.3963	-1.5957	9.8696	1.4776	-0.3531	-0.5679	0.5328	-0.3302	-1.0092	-0.1148	-0.4163
-0.9763	-0.6477	9.5973	-0.4049	0.1547	0.1453	-0.1376	0.6904	-0.8056	0.8352	0.2294	9.6585	-0.3468	0.2049	-0.0447	-0.0152	-0.2917	-1.615	9.7014	1.0757	-0.2439	-0.7228	0.6246	-0.3882	-0.9913	-0.079	-0.3989
-0.7485	-0.7639	9.6014	-0.5618	0.0627	0.1486	-0.1194	0.7094	-0.8259	1.2541	0.4632	10.0112	-0.2223	0.1456	0.1399	0.076	-0.3377	-1.5731	9.8153	0.9599	-0.2993	-0.9141	0.6886	-0.6605	-1.0793	-0.1685	-0.4346
-1.2041	-0.4154	9.5935	-0.5053	0.0331	-0.006	-0.1383	0.7125	-0.8438	0.7208	-0.2958	9.7694	-0.1622	0.0213	0.0477	-0.0124	-0.3333	-1.6133	9.4119	1.3641	-0.3619	-1.0954	0.4987	-0.3497	-1.0102	-0.0598	-0.4527
-1.2647	-0.1258	9.4219	-0.4003	0.3089	0.1774	-0.1003	0.7085	-0.8259	1.715	-0.1241	9.3871	-0.2206	-0.0685	0.2342	-0.0066	-0.3138	-1.5838	9.8699	1.1319	-0.4115	-0.9715	0.6544	-0.4443	-1.0276	-0.0959	-0.4524
-1.4864	-0.4728	9.7019	-0.3492	0.0943	-0.0097	-0.0973	0.657	-0.8375	1.5967	0.519	9.4443	-0.131	0.2686	0.1382	-0.0313	-0.3533	-1.615	9.6475	1.3071	-0.0162	-1.0353	0.6241	-0.5044	-1.0111	-0.0772	-0.4876
-0.7377	-0.3562	10.1736	-0.4715	0.1565	-0.0056	-0.1382	0.7168	-0.8798	1.1305	0.0534	9.6635	-0.1593	-0.0066	0.2641	0.0724	-0.3371	-1.5883	9.6987	1.2479	-0.3572	-1.0068	0.502	-0.5359	-1.0096	-0.1144	-0.4339
-0.9643	-0.2397	10.2265	-0.4396	0.1561	0.024	-0.1347	0.6389	-0.8171	1.0777	-0.2377	9.9484	-0.0697	-0.0395	0.109	0.0774	-0.3585	-1.5723	9.7605	0.8454	-0.1869	-1.0677	0.7177	-0.6265	-1.0097	-0.0963	-0.4343
-1.0882	-0.2992	9.7103	-0.2513	0.1856	0.0803	-0.0811	0.7096	-0.844	1.1872	0.0529	9.5498	-0.2853	0.1437	-0.0139	0.0709	-0.3163	-1.5891	9.8138	1.3629	-0.2976	-0.9759	0.5952	-0.5979	-0.9922	-0.0964	-0.4338
-0.862	-1.1118	9.5982	-0.4381	0.2179	0.0247	-0.0793	0.6718	-0.8217	1.1829	0.4614	9.3789	-0.2562	0.0806	-0.1372	0.0143	-0.3763	-1.594	9.7612	1.2489	-0.0713	-0.9428	0.7489	-0.5984	-0.9908	-0.0975	-0.3809
-0.8115	-0.1846	9.3165	-0.5333	0.2812	-0.0942	-0.0992	0.6927	-0.8418	1.4819	0.1107	9.5556	-0.0398	0.0523	0.0772	-0.0032	-0.417	-1.5948	9.9334	1.1331	-0.0686	-1.006	0.6563	-0.5972	-0.993	-0.1679	-0.4676
-0.9821	-0.3585	9.3127	-0.471	0.2186	-0.0355	-0.1182	0.6958	-0.8597	1.1316	0.0536	9.7209	-0.3418	-0.0983	0.2973	0.076	-0.3377	-1.5731	9.3062	0.9632	0.0331	-0.9736	0.6557	-0.5364	-1.0096	-0.1144	-0.4339
-1.0857	-0.5889	9.8236	-0.3531	0.1267	-0.162	-0.1186	0.6873	-0.7877	1.2423	0.286	9.3795	-0.2792	-0.0968	0.4203	-0.0052	-0.3346	-1.583	9.3022	0.9046	-0.195	-0.9396	0.623	-0.3836	-1.0449	-0.1682	-0.4513
-0.9776	-0.4158	9.5409	-0.4715	0.1565	-0.0056	-0.1174	0.6758	-0.8395	1.1858	0.1696	9.4928	-0.1611	-0.1317	0.1106	0.0593	-0.3376	-1.5604	9.7622	0.961	-0.0725	-0.8758	0.6533	-0.3234	-1.0097	-0.0783	-0.4347
-1.2627	-1.0538	9.4763	-0.5314	0.2806	-0.0332	-0.0993	0.6906	-0.8238	1.4292	0.2872	9.8993	-0.2527	-0.07	0.111	0.0043	-0.3334	-1.626	9.645	0.8456	-0.2459	-1.0269	0.7118	-0.1973	-1.0261	-0.1512	-0.3983
-1.2049	-0.8216	9.5352	-0.4393	0.2494	-0.0361	-0.1194	0.7094	-0.8259	1.6051	-0.2394	9.7862	-0.1636	0.1432	-0.0459	-0.0052	-0.3346	-1.583	9.7039	0.961	-0.1305	-1.0278	0.6504	-0.1973	-1.0606	-0.1154	-0.3823
-0.7498	-0.59	9.5449	-0.3472	0.2181	-0.039	-0.1173	0.678	-0.8575	1.2385	-0.0069	9.1491	-0.0684	-0.0998	0.2021	0.029	-0.2939	-1.5949	9.4067	1.3629	-0.6467	-0.934	0.7125	-0.1992	-1.0271	-0.0963	-0.4347
-1.0868	-0.589	9.7665	-0.3794	0.1253	-0.0085	-0.1383	0.7125	-0.8438	1.3164	-0.004	10.1257	-0.161	0.0225	0.1403	0.0093	-0.3548	-1.61	9.4182	1.0774	-0.0783	-0.9978	0.93	-0.4126	-1.063	-0.0774	-0.4713
-0.9739	-0.7633	9.7112	-0.3106	0.2161	0.1434	-0.0795	0.6675	-0.7857	1.2514	-0.2971	9.7794	-0.1931	0.021	0.0171	0.0065	-0.3133	-1.6117	9.8067	1.5917	-0.6385	-0.836	1.0198	-0.1702	-1.0445	-0.1505	-0.4341
-0.628	-0.647	9.9466	-0.3719	0.1228	0.2357	-0.1183	0.6937	-0.8417	1.0643	-0.1814	9.26	-0.3467	-0.0416	-0.0737	0.0179	-0.3769	-1.5789	9.9942	1.3066	0.161	-0.8098	0.9919	-0.3551	-1.0284	-0.1313	-0.4869
-1.1437	-0.647	9.7652	-0.3825	0.0329	-0.04	-0.0993	0.6906	-0.8238	1.0704	0.0534	9.605	-0.1898	-0.0066	0.2643	0.0493	-0.2947	-1.5924	9.413	1.0762	-0.3631	-0.8767	0.8397	-0.4768	-1.0441	-0.1147	-0.4172
-0.8033	-0.6475	9.7149	-0.3191	0.0944	-0.0411	-0.1193	0.7116	-0.8439	1.2483	0.1116	9.6659	-0.3142	-0.0704	0.0807	0.0514	-0.2746	-1.5781	9.808	1.2463	-0.6399	-0.8426	0.9619	-0.4159	-1.0088	-0.079	-0.3994
-1.0867	-0.647	9.7664	-0.3146	0.2486	-0.009	-0.1211	0.7473	-0.8482	1.2476	-0.0639	9.608	-0.1594	0.0241	0.2638	0.0115	-0.3347	-1.5957	9.9975	0.9616	0.2735	-0.8468	0.9645	-0.6001	-1.0092	-0.0967	-0.4166
-1.2023	-1.1694	9.6484	-0.2851	0.1867	-0.0105	-0.0991	0.6949	-0.8598	1.0182	-0.0038	9.948	-0.2229	-0.1324	0.0494	0.0368	-0.3569	-1.5772	9.5852	1.2486	-0.3023	-0.6957	0.906	-0.7263	-1.0092	-0.0967	-0.4166
-0.5791	-0.5322	9.5484	-0.4429	0.0949	-0.0376	-0.1011	0.7285	-0.8461	1.0712	-0.2972	9.6039	-0.3464	0.0204	-0.0433	-0.014	-0.415	-1.6404	9.6949	1.708	-0.4692	-0.6611	0.9659	-0.6041	-1.0445	-0.1143	-0.4348
-0.9686	-0.4144	9.9976	-0.3753	0.2173	0.0535	-0.1184	0.6916	-0.8237	0.8312	0.0534	9.4284	-0.4971	0.0533	0.1123	-0.0116	-0.2924	-1.5998	9.5818	1.0173	-0.5311	-0.5435	0.7229	-0.7298	-1.045	-0.132	-0.4521
-0.7418	-0.7629	9.944	-0.3759	0.3109	-0.0372	-0.1575	0.7113	-0.8257	1.4275	0.0531	9.7838	-0.3744	-0.0387	0.1428	-0.0285	-0.3948	-1.6133	9.6356	1.1316	-0.7005	-0.5741	1.0012	-0.8824	-1.0097	-0.0963	-0.4343
-1.2508	-0.6459	10.1056	-0.409	0.0627	0.0833	-0.1755	0.6987	-0.8594	1.0093	-0.0053	9.4889	-0.4645	0.0245	0.2667	-0.0074	-0.3547	-1.5973	9.641	1.3633	-0.3577	-0.4803	0.9703	-0.823	-1.0093	-0.0425	-0.4178
-1.2051	-0.5896	9.5359	-0.1944	0.0936	-0.014	-0.0993	0.6906	-0.8238	1.2505	0.1119	9.7806	-0.4067	0.0212	0.0191	0.0304	-0.3147	-1.5941	9.2938	1.1909	-0.5926	-0.6049	0.6602	-0.6672	-1.045	-0.132	-0.4521
-1.0893	-0.3573	9.653	-0.3138	-0.0007	0.2022	-0.0793	0.6718	-0.8217	1.1223	-0.2402	9.2035	-0.3134	-0.0388	0.1422	0.0304	-0.3147	-1.5941	9.7622	0.961	-0.0725	-0.5729	0.7836	-0.6984	-1.0276	-0.0959	-0.4524
-1.205	-0.6476	9.5357	-0.2177	0.0601	0.2613	-0.063	0.7244	-0.8283	1.3089	-0.1221	9.7237	-0.344	0.177	0.1717	-0.0088	-0.3339	-1.5982	9.7547	1.5931	-0.3547	-0.6634	0.9053	-0.6655	-1.0628	-0.1858	-0.469
-0.8602	-0.6474	9.7137	-0.3785	0.0005	0.1123	-0.1565	0.6956	-0.8415	1.4765	0.0514	9.2685	-0.2525	0.2076	0.1706	-0.0327	-0.3325	-1.6158	9.8707	1.1897	-0.3543	-0.6927	0.7183	-0.4809	-1.0092	-0.0967	-0.4166
-1.0856	-0.7049	9.8233	-0.2541	-0.0936	0.1996	-0.0993	0.6906	-0.8238	1.0701	0.1702	9.6053	-0.5588	0.0218	0.0514	0.0521	-0.3363	-1.5908	9.2972	1.134	-0.4219	-0.694	0.874	-0.6342	-1.0276	-0.0779	-0.4528
-1.0325	-0.1834	9.6546	-0.3806	0.0323	0.0211	-0.0992	0.6927	-0.8418	1.4216	0.2275	9.4974	-0.3135	0.0227	0.1417	-0.0466	-0.3739	-1.6014	9.8124	1.1897	-0.4123	-0.845	0.8395	-0.4467	-1.0087	-0.0971	-0.399
-0.9158	-0.8792	9.769	-0.2276	0.0011	-0.0141	-0.0603	0.6687	-0.8038	1.3663	0.0529	9.6679	-0.2542	0.0518	0.0174	0.026	-0.3549	-1.6227	9.2386	1.7677	-0.3634	-0.5913	1.1163	-0.3596	-1.0262	-0.097	-0.3995
-1.1504	-0.59	9.4228	-0.4411	0.0943	0.0234	-0.0981	0.6791	-0.8756	1.0134	0.6383	9.7778	-0.4049	-0.0694	0.1433	0.0404	-0.3576	-1.5621	9.6452	1.0761	-0.188	-0.9051	1.1167	-0.5372	-1.0267	-0.0605	-0.4179
-1.0347	-0.1837	9.5404	-0.3149	-0.1249	0.262	-0.0983	0.6749	-0.8396	1.0758	0.1127	9.8921	-0.3133	0.1154	0.1719	0.0043	-0.3334	-1.626	9.9284	1.3624	-0.2955	-0.7607	0.6906	-0.7252	-1.0106	-0.1137	-0.4692
-1.031	-0.5312	9.7107	-0.1205	0.2451	0.2606	-0.1011	0.7285	-0.8461	0.8967	0.1127	9.774	-0.3743	0.0847	0.1727	0.0535	-0.3571	-1.5899	10.4379	1.244	-0.6284	-0.9432	0.7182	-0.5984	-1.0091	-0.1689	-0.4151
-0.637	-0.6483	9.4898	-0.2518	0.1235	0.1102	-0.0983	0.6749	-0.8396	1.1899	0.3456	9.7229	-0.2832	-0.07	0.1113	-0.0291	-0.3331	-1.6006	9.5894	0.9614	-0.1326	-0.9725	0.686	-0.5057	-0.9738	-0.1332	-0.3973
-1.3168	-0.4731	9.6482	-0.374	0.1546	0.1444	-0.0994	0.6885	-0.8058	1.1324	0.1706	9.7786	-0.3441	0.0535	0.1418	0.0099	-0.4165	-1.6227	9.5254	1.3634	-0.4168	-1.1343	0.5962	-0.7481	-1.0451	-0.0778	-0.4532
-0.9766	-0.2996	9.5983	-0.3802	-0.0301	0.0815	-0.1356	0.6568	-0.8193	1.37	0.4042	9.8985	-0.1928	0.2679	0.077	0.0201	-0.3568	-1.5645	9.4667	0.9024	-0.5906	-1.0721	0.5655	-0.7188	-1.0794	-0.0962	-0.4361
-1.1506	-0.416	9.4233	-0.2169	0.091	0.2616	-0.0821	0.7254	-0.8282	1.6585	-0.2405	9.5004	-0.4057	0.1147	0.111	0.0051	-0.2925	-1.6125	9.8224	0.731	0.0416	-0.8467	0.8715	-0.5388	-0.9577	-0.1683	-0.449
-1.2609	-0.5894	9.5919	-0.3166	0.0002	0.1106	-0.0965	0.637	-0.8173	0.7225	0.4058	9.9437	-0.2824	0.3007	0.232	-0.0269	-0.313	-1.5863	9.5848	1.3637	-0.3018	-0.7531	0.8718	-0.5101	-0.9747	-0.1506	-0.4322
-1.2062	-0.5898	9.4788	-0.4389	0.187	0.0244	-0.1173	0.678	-0.8575	0.9516	-0.0634	9.545	-0.4044	0.0852	0.2039	0.0326	-0.2946	-1.5797	9.4104	1.479	-0.4184	-0.7194	0.7154	-0.296	-1.0101	-0.096	-0.4519
-0.9774	-0.6478	9.5402	-0.348	0.3429	-0.1598	-0.1184	0.6916	-0.8237	1.0057	-0.3566	9.2583	-0.5892	0.3303	0.1111	-0.0088	-0.3339	-1.5982	9.3003	1.1347	-0.251	-0.7463	0.8985	-0.2337	-1.0266	-0.1147	-0.4167
-1.0815	-0.2981	10.0528	-0.3796	0.1565	-0.0387	-0.0783	0.656	-0.8376	1.2481	0.17	9.6661	-0.3745	-0.008	0.1425	0.0268	-0.314	-1.6092	9.8099	1.0162	-0.5839	-0.9676	0.7759	-0.352	-1.0789	-0.1146	-0.4181
-1.1488	-1.1119	9.4784	-0.4043	0.3413	0.0251	-0.1162	0.6622	-0.8734	1.1276	0.3452	9.5496	-0.4046	-0.0383	0.1739	-0.0088	-0.3339	-1.5982	9.702	1.7672	-0.0702	-0.8474	0.6242	-0.4163	-1.0101	-0.114	-0.4515
-0.9731	-0.4731	9.7691	-0.5619	0.2184	0.0281	-0.1576	0.7092	-0.8077	1.3054	-0.5318	9.4929	-0.6509	0.1139	0.0206	-0.043	-0.3746	-1.5863	9.6987	0.9598	-0.4153	-0.9948	0.7423	-0.1672	-0.9913	-0.1152	-0.3982
-0.9187	-0.1835	9.6569	-0.5958	0.0949	0.0277	-0.1005	0.7042	-0.7899	1.3174	0.0546	10.1832	-0.2242	0.1129	-0.0142	0.0332	-0.3563	-1.5924	9.9294	1.0746	-0.2967	-1.0162	0.8601	0.1714	-0.9922	-0.0964	-0.4338
-0.7433	-0.299	9.8883	-0.4671	0.0617	0.2071	-0.1375	0.6925	-0.8236	1.0724	0.1706	9.7201	0.0822	0.0829	0.0758	0.0362	-0.2953	-1.5645	9.8157	0.8447	-0.2998	-1.0602	0.4963	-0.1661	-1.0097	-0.0783	-0.4347
-1.3183	-0.1252	9.5921	-0.3769	0.0311	0.1432	-0.1154	0.6422	-0.8532	0.9519	0.2874	9.6035	0.0499	-0.0421	-0.0774	0.034	-0.3154	-1.5789	9.4144	1.2494	-0.2484	-0.9652	0.7434	-0.2292	-0.9922	-0.1144	-0.4334
-0.866	-0.4742	9.4288	-0.4059	0.0306	0.2051	-0.082	0.7275	-0.8462	1.2403	-0.2989	9.2056	-0.0998	-0.0391	0.1402	-0.0224	-0.2904	-1.6453	9.5904	0.9616	-0.0756	-0.7198	0.437	-0.1428	-0.9743	-0.0968	-0.4157
-0.8044	-0.6477	9.6578	-0.3148	0.2798	-0.0392	-0.1356	0.6568	-0.8193	1.0164	-0.1795	9.8327	-0.1013	0.0828	0.0466	0.0115	-0.3347	-1.5957	9.8178	1.1333	-0.1277	-0.6938	0.688	-0.5116	-1.0105	-0.1317	-0.4688
-1.148	-0.8217	9.5363	-0.5308	0.187	0.0575	-0.1355	0.6589	-0.8373	0.8313	-0.005	9.4282	-0.1921	-0.0705	0.0795	0.0115	-0.3347	-1.5957	9.641	1.0752	-0.4159	-0.5389	0.751	-0.5455	-0.9743	-0.1148	-0.4153
-0.9187	-0.1835	9.6569	-0.3819	0.2195	-0.1602	-0.1182	0.6958	-0.8597	1.191	-0.1218	9.7214	-0.1029	-0.1038	-0.1064	0.0115	-0.3347	-1.5957	9.646	1.422	-0.0727	-0.8456	0.747	-0.4161	-1.0267	-0.0967	-0.4171
-1.3131	-0.8207	9.8185	-0.44	0.2185	-0.0364	-0.1001	0.7127	-0.8619	1.071	0.2873	9.6631	0.1424	0.082	0.0135	0.0767	-0.2969	-1.5596	9.6951	1.3623	-0.5276	-0.8438	0.7768	-0.3547	-1.0615	-0.1327	-0.4172
-0.81	-0.6485	9.3723	-0.4684	0.2489	0.0258	-0.079	0.6782	-0.8757	1.2481	-0.2976	9.6072	-0.0086	-0.0704	0.1087	0.0368	-0.3569	-1.5772	9.4071	0.9597	-0.7054	-1.0582	0.5879	-0.1353	-1.0092	-0.1148	-0.4163
-0.9718	-0.647	9.8257	-0.3854	-0.0906	-0.0412	-0.1554	0.682	-0.8753	1.1296	-0.0636	9.6057	0.0523	-0.0089	0.1077	0.0079	-0.334	-1.6109	9.8124	0.9016	-0.4704	-0.9297	0.8647	-0.1069	-1.0266	-0.1328	-0.4163
-0.9171	-0.7054	9.7124	-0.2855	-0.0311	0.14	-0.1366	0.6725	-0.8034	0.9502	0.0533	9.488	0.1144	0.0537	0.1993	-0.0138	-0.3125	-1.6142	9.645	1.1337	-0.1878	-1.1177	0.8028	-0.1645	-1.0446	-0.0963	-0.4352
-0.7423	-0.2408	9.9455	-0.4364	0.0928	0.1761	-0.0975	0.6527	-0.8015	1.2491	0.2286	9.7236	-0.0061	0.0555	0.3239	-0.0399	-0.3311	-1.6461	9.5248	1.2481	-0.4742	-1.1064	0.6293	-0.9023	-1.01	-0.1502	-0.4508
-1.1428	-0.3568	9.8232	-0.6242	0.0009	0.1803	-0.1186	0.6873	-0.7877	0.9496	0.3454	9.4889	-0.2569	0.0182	-0.1985	0.0346	-0.3771	-1.5916	9.6997	1.2481	-0.3002	-1.0772	0.3519	-0.8111	-1.0619	-0.1324	-0.4349
-1.0291	-0.2409	9.8257	-0.5273	0.0925	0.2397	-0.1002	0.7106	-0.8439	1.0686	-0.1223	9.4897	-0.192	0.0529	0.1095	0.0521	-0.3363	-1.5908	9.9334	1.1331	-0.0686	-1.1273	0.53	-0.4104	-1.01	-0.1682	-0.4504
-1.0894	-0.1833	9.6535	-0.5561	0.1853	0.2415	-0.0793	0.6718	-0.8217	1.195	0.0542	9.9515	-0.1303	0.1152	0.1702	0.0048	-0.3775	-1.551	9.4144	1.2494	-0.2484	-0.8815	0.9046	-0.7223	-1.0106	-0.0956	-0.4696
-0.6437	-0.6493	9.1473	-0.3437	0.1236	0.1433	-0.1395	0.7261	-0.8099	1.3612	0.3443	9.4393	-0.0696	0.0839	0.139	0.0187	-0.3361	-1.5654	10.0421	1.3042	-0.3507	-0.9102	0.9649	-0.6602	-1.0266	-0.1147	-0.4167
-1.2041	-0.4154	9.5935	-0.2576	0.0009	0.0173	-0.0801	0.6918	-0.8419	1.4199	-0.0066	9.3819	-0.0414	0.0815	-0.0466	0.0079	-0.334	-1.6109	9.3599	1.3655	-0.0781	-0.7506	0.7463	-0.326	-1.0455	-0.0594	-0.4712
-1.204	-0.5894	9.593	-0.1938	0.0001	0.0767	-0.1176	0.6716	-0.8035	1.0146	-0.3551	9.7174	-0.3442	0.115	0.1413	0.0209	-0.316	-1.551	9.534	1.0197	-0.0194	-0.5944	0.9014	-0.3598	-0.9749	-0.0603	-0.4341
-1.2554	-0.4725	9.8777	-0.2808	-0.0326	0.2926	-0.1183	0.6937	-0.8417	1.31	-0.1219	9.781	-0.3151	-0.0096	0.0184	-0.0219	-0.3345	-1.5703	9.5896	1.1919	-0.0746	-0.7551	0.7801	-0.5409	-1.0276	-0.114	-0.452
-1.2652	-0.7641	9.363	-0.1314	-0.2182	0.2559	-0.1356	0.6568	-0.8193	0.8892	-0.473	9.3131	-0.3756	-0.0707	0.0504	0.0268	-0.314	-1.6092	9.6999	1.1906	-0.3004	-0.5683	0.9047	-0.5754	-0.9927	-0.1141	-0.4511
-0.7522	-0.4163	9.4312	-0.2538	-0.0003	0.1394	-0.1175	0.6737	-0.8215	1.132	0.3459	9.7791	-0.3727	0.0863	0.2962	0.0368	-0.3569	-1.5772	9.9867	1.0744	-0.2957	-0.7486	0.838	-0.2952	-0.9739	-0.0971	-0.3981
-0.5792	-0.4162	9.5487	-0.3461	0.0621	0.1121	-0.0804	0.6854	-0.7879	1.0052	0.3448	9.3179	-0.4061	0.1451	0.0799	0.0029	-0.3126	-1.6269	9.4176	1.2501	-0.0775	-0.6822	0.8047	-0.0816	-1.0441	-0.0966	-0.4176
-0.9697	-0.5306	9.9402	-0.6023	0.0971	-0.186	-0.0803	0.6875	-0.8059	0.8992	-0.0037	9.8884	-0.5275	-0.0082	0.1131	-0.0074	-0.3547	-1.5973	9.4173	1.3077	-0.0773	-0.7393	0.7394	0.1653	-1.0091	-0.1509	-0.4155
-1.1414	-0.6467	9.8794	-0.3398	0.3713	0.0847	-0.1165	0.6558	-0.8194	1.4866	-0.0055	9.7847	-0.3761	-0.0096	0.019	0.0065	-0.3133	-1.6117	9.2959	1.4794	-0.4205	-0.6164	0.7719	0.1013	-1.0097	-0.0783	-0.4347
-0.6346	-0.822	9.6035	-0.468	0.3422	-0.0343	-0.1203	0.7273	-0.828	0.8352	0.2294	9.6585	-0.0986	-0.0379	0.2328	0.0051	-0.2925	-1.6125	9.7016	1.3062	-0.186	-0.6459	0.6778	0.2247	-1.0442	-0.0605	-0.4183
-1.2052	-0.5316	9.5361	-0.4353	0.4971	-0.0946	-0.1365	0.6768	-0.8394	1.4854	0.0528	9.7275	0.1451	-0.0386	0.1997	-0.0116	-0.2924	-1.5998	9.3505	1.3634	-0.5908	-0.5896	0.8365	-0.1142	-1.0271	-0.1324	-0.434
-1.2043	-0.2414	9.594	-0.3148	0.2798	-0.0392	-0.1001	0.7127	-0.8619	1.3633	0.4031	9.5542	0.2042	-0.0714	0.045	0.0354	-0.3362	-1.5781	9.696	1.1321	-0.5285	-0.78	0.8071	-0.2945	-1.0101	-0.1321	-0.4512
-0.9206	-0.4739	9.5418	-0.4068	0.4355	-0.1266	-0.0993	0.6906	-0.8238	1.2502	-0.2388	9.7222	0.2644	-0.0723	-0.0174	0.0318	-0.3355	-1.5932	9.5804	1.4203	-0.5294	-0.6198	0.5881	0.0704	-1.0267	-0.0967	-0.4171
-0.9182	-0.7056	9.6554	-0.343	0.4346	-0.0673	-0.1566	0.6935	-0.8235	1.078	0.1131	10.0068	0.3885	-0.1012	0.1361	0.0129	-0.3555	-1.5949	10.0414	1.1888	-0.4081	-0.4937	0.8973	-0.024	-1.0615	-0.1147	-0.4176
-1.2528	-0.8202	9.9909	-0.4987	0.4356	-0.0935	-0.0991	0.6949	-0.8598	1.0702	-0.3558	9.5463	0.2051	0.0528	0.1367	0.0247	-0.2316	-1.5974	9.3605	1.1928	-0.0788	-0.4663	0.7449	-0.0863	-0.9935	-0.1675	-0.4852
-0.7511	-0.4162	9.4883	-0.5917	0.4671	-0.1212	-0.0803	0.6875	-0.8059	1.4195	0.1687	9.3825	0.1444	-0.1317	0.1386	0.0376	-0.3161	-1.5637	9.5898	1.1344	-0.0749	-0.5057	0.6569	-0.3928	-1.062	-0.1143	-0.4353
-1.0794	-0.1238	10.1675	-0.6214	0.5602	-0.1499	-0.1011	0.7285	-0.8461	1.2451	0.0526	9.4936	0.0209	0.0211	0.046	0.0165	-0.3562	-1.5797	9.5864	0.9031	-0.3037	-0.6304	0.5946	-0.3902	-1.028	-0.1317	-0.4693
-1.194	-0.5299	10.107	-0.5887	0.435	0.0006	-0.1194	0.7073	-0.8079	1.0192	0.0548	10.0055	-0.1327	0.1435	-0.0153	-0.0088	-0.3339	-1.5982	9.9346	1.0758	-0.0119	-0.6323	0.8126	-0.6049	-1.0087	-0.0971	-0.399
-0.8079	-0.5321	9.4868	-0.5887	0.435	0.0006	-0.1183	0.6937	-0.8417	1.4854	0.0528	9.7275	0.1735	-0.1949	0.0153	0.0396	-0.3985	-1.5756	9.4121	1.3065	-0.3621	-0.7274	0.6584	-0.6031	-1.0087	-0.1513	-0.3979
-1.3179	-0.4733	9.5911	-0.4032	0.4655	-0.0347	-0.1537	0.642	-0.835	0.9501	0.1117	9.4882	-0.2538	0.0522	0.0483	0.0079	-0.334	-1.6109	9.7114	1.4813	0.3844	-0.5968	0.5313	-0.2374	-1.0286	-0.0591	-0.4884
-1.0344	-0.5318	9.5394	-0.3167	0.2804	-0.1002	-0.0813	0.7054	-0.808	1.1821	0.3444	9.3212	0.3266	-0.0712	0.0747	0.0565	-0.2961	-1.5621	9.6949	1.1318	-0.5855	-0.7211	0.5926	-0.2961	-1.0092	-0.0967	-0.4166
-1.0307	-0.9373	9.7095	-0.3757	0.2797	-0.0069	-0.082	0.7275	-0.8462	1.3618	0.1106	9.4386	0.5078	0.0808	-0.0517	0.0065	-0.3133	-1.6117	9.6483	1.0768	-0.0171	-0.717	0.9308	-0.3264	-0.9744	-0.0606	-0.4165
-0.7542	-0.6487	9.3163	-0.2232	0.1864	-0.0122	-0.1374	0.6946	-0.8416	1.0176	0.2883	9.9489	-0.1313	-0.1633	0.0488	-0.0038	-0.3554	-1.5822	9.7591	1.2484	-0.1852	-0.8745	0.5906	-0.2314	-1.0436	-0.1151	-0.3995
-1.1415	-0.5306	9.8798	-0.278	0.2466	0.1733	-0.0983	0.6749	-0.8396	1.5432	0.0525	9.6712	-0.2855	0.051	-0.0441	-0.0124	-0.3333	-1.6133	9.5906	1.1922	-0.0177	-0.939	0.5608	-0.3222	-1.0116	-0.0407	-0.506
-0.8025	-0.2993	9.773	-0.2522	0.0303	0.1703	-0.1001	0.7127	-0.8619	1.1342	-0.1213	9.8351	-0.0089	0.0834	0.1076	0.0093	-0.3548	-1.61	9.9248	0.9007	-0.5823	-0.6934	0.7187	-0.5116	-1.045	-0.114	-0.4525
-1.0847	-0.4147	9.8812	-0.2562	-0.0618	0.1083	-0.0993	0.6906	-0.8238	1.5987	0.1102	9.5004	-0.1292	-0.0071	0.2329	0.034	-0.3154	-1.5789	9.7003	1.0754	-0.3009	-0.721	0.6545	-0.3267	-1.0097	-0.0602	-0.435
-0.9684	-0.6465	9.997	-0.2785	0.1845	0.2032	-0.1367	0.6704	-0.7854	1.3665	-0.0055	9.6677	-0.4361	0.084	0.1115	0.0571	-0.3577	-1.5748	9.7049	1.2493	-0.0154	-0.6522	0.8365	-0.1436	-1.0271	-0.0963	-0.4347
-1.0891	-0.5314	9.6525	-0.2471	-0.0337	0.3834	-0.1193	0.7116	-0.8439	1.6051	0.2282	9.845	-0.4674	0.2682	0.0795	-0.0024	-0.3762	-1.5813	9.6995	1.3057	-0.3	-0.6	0.6571	-0.4522	-1.0266	-0.1147	-0.4167
-1.0889	-0.7634	9.6518	-0.229	-0.0607	-0.0147	-0.1355	0.6589	-0.8373	1.4228	-0.2984	9.4958	-0.2857	0.1741	-0.045	0.1005	-0.4009	-1.5682	9.7035	1.3642	-0.0719	-0.3504	0.6888	-0.396	-1.0445	-0.1324	-0.4344
-0.9191	-0.8798	9.5978	-0.097	-0.0327	0.2264	-0.0601	0.6729	-0.8398	1.0743	-0.1798	9.7764	-0.4986	0.2367	0.0183	0.0296	-0.3556	-1.6076	9.4677	1.1907	-0.4755	-0.3515	0.8133	-0.5187	-1.0446	-0.0963	-0.4352
-1.3145	-0.5888	9.762	-0.1911	-0.1253	0.2586	-0.1374	0.6946	-0.8416	1.6625	-0.0645	9.7305	-0.4345	0.0548	0.2353	0.0549	-0.3778	-1.5891	9.5248	1.5362	-0.4161	-0.6983	0.8766	-0.8185	-1.0441	-0.0966	-0.4176
-0.8648	-0.4741	9.4859	-0.1661	-0.2169	0.1347	-0.0814	0.7032	-0.79	1.3593	0.6947	9.383	-0.7104	0.3313	0.174	-0.0385	-0.3519	-1.6453	9.3549	1.0186	-0.4213	-0.4165	0.8458	-0.6709	-1.045	-0.0959	-0.4528
-1.1415	-0.5306	9.8798	-0.2522	0.0303	0.1703	-0.104	0.7799	-0.8346	1.0712	-0.2972	9.6039	-0.5298	-0.0106	-0.0722	-0.006	-0.3755	-1.5965	9.2963	1.3643	-0.421	-0.4756	0.8436	-0.5468	-0.9743	-0.1148	-0.4153
-1.371	-0.9368	9.7599	-0.1587	0.2165	0.0475	-0.1174	0.6758	-0.8395	1.0708	0.3457	9.6633	-0.5566	0.0858	0.2362	-0.0138	-0.3125	-1.6142	9.4094	1.4788	-0.4754	-0.6885	0.9635	-0.4499	-1.01	-0.1502	-0.4508
-1.2006	-0.6469	9.7641	-0.2212	0.3103	-0.0414	-0.1195	0.7052	-0.7899	1.0099	0.2286	9.547	-0.4978	0.0218	0.0508	-0.0024	-0.3762	-1.5813	9.7578	1.5938	-0.1838	-0.5618	0.9626	-0.3297	-0.9927	-0.0779	-0.4518
-1.0878	-0.7052	9.7091	-0.4139	0.0954	-0.0996	-0.1384	0.7104	-0.8258	1.0693	0.5208	9.6064	-0.5583	0.1457	0.1122	0.0173	-0.3153	-1.5662	9.9282	0.8438	-0.4116	-0.5587	1.1775	-0.3294	-1.0436	-0.1151	-0.3995
-1.6569	-0.8207	9.6976	-0.4406	0.3121	-0.127	-0.1175	0.6737	-0.8215	1.25	0.8133	9.8402	-0.4672	-0.009	0.0507	0.0282	-0.3348	-1.6084	9.5831	0.96	-0.4744	-1.0632	1.0866	-0.6568	-1.0271	-0.0782	-0.4351
-1.0902	-0.5315	9.5954	-0.6884	0.3442	-0.1504	-0.1376	0.6904	-0.8056	1.2456	0.2865	9.5517	-0.3783	0.0807	-0.1361	-0.0422	-0.3337	-1.5728	9.7045	1.0764	-0.073	-1.0868	1.0508	-0.3184	-1.0625	-0.0598	-0.4541
-0.9138	-0.5889	9.8841	-0.3712	0.4338	0.0252	-0.1544	0.6641	-0.8732	0.8938	-0.0631	9.6013	-0.1607	0.0844	0.1707	0.0274	-0.3757	-1.6219	9.6393	1.8238	-0.3558	-1.0193	1.2956	-0.2273	-1.0262	-0.1151	-0.3991
-0.8615	-0.4156	9.6573	-0.3777	0.1558	0.0223	-0.0982	0.677	-0.8576	1.3604	0.2273	9.3816	-0.4695	0.112	-0.1046	0.0571	-0.3577	-1.5748	9.8151	1.3055	-0.2409	-1.0246	1.175	-0.381	-1.0096	-0.1325	-0.4335
-0.8121	-0.7649	9.2578	-0.2867	0.1561	-0.0413	-0.1193	0.7116	-0.8439	1.0773	-0.0624	9.9489	-0.3755	0.0835	0.0801	0.0507	-0.3155	-1.5916	9.7607	1.364	-0.0708	-0.9006	1.0829	-0.3223	-0.9922	-0.1325	-0.4331
-0.8667	-0.8225	9.3707	-0.2206	0.2167	0.0492	-0.1362	0.6832	-0.8934	1.185	0.0526	9.4351	-0.4371	0.1755	0.0491	-0.0088	-0.3339	-1.5982	9.1795	1.4218	-0.5367	-0.8676	0.927	-0.1389	-1.0271	-0.0963	-0.4347
-0.8635	-0.6479	9.5424	-0.3753	0.2173	0.0535	-0.0821	0.7254	-0.8282	1.5442	0.1111	9.7288	-0.4688	-0.0414	-0.0725	0.0029	-0.3126	-1.6269	10.0383	1.1881	-0.579	-0.7471	0.992	-0.3257	-1.026	-0.1873	-0.3976
-0.8035	-0.4154	9.7155	-0.4078	0.3113	-0.0668	-0.0963	0.6413	-0.8533	1.4782	0.2854	9.384	-0.1902	0.1472	0.2632	0.0065	-0.3133	-1.6117	9.8755	1.0179	-0.1271	-1.0226	1.1118	-0.2582	-1.0266	-0.1328	-0.4163
-0.8582	-0.4151	9.8286	-0.2176	0.1846	0.171	-0.0621	0.7065	-0.8261	1.193	-0.063	9.8364	-0.1925	0.114	0.0781	0.0774	-0.3585	-1.5723	9.7597	1.6519	-0.0696	-1.1746	1.1089	-0.1321	-1.0106	-0.0775	-0.4699
-1.2082	-0.8801	9.3638	-0.4628	0.1226	0.2993	-0.0983	0.6749	-0.8396	1.1338	0.054	9.8356	-0.1633	-0.0106	-0.0447	0.0326	-0.2946	-1.5797	9.8176	0.9028	-0.1856	-1.1774	0.8629	-0.1017	-1.0105	-0.1317	-0.4688
-0.8578	-0.7631	9.8276	-0.255	0.0312	0.0787	-0.1382	0.7168	-0.8798	1.3119	-0.0047	9.8962	-0.1609	-0.0082	0.1405	0.0093	-0.3548	-1.61	9.8113	1.4775	-0.4111	-1.0803	1.1088	-0.0727	-1.0096	-0.1325	-0.4335
-0.6337	-0.5898	9.6613	-0.1591	-0.0013	0.1979	-0.1593	0.7492	-0.848	0.9449	0.4616	9.2597	-0.009	-0.1015	0.0781	-0.0088	-0.3339	-1.5982	9.5822	1.7665	-0.3571	-0.8014	0.9249	0.044	-1.0092	-0.1328	-0.4159
-1.4885	-0.6472	9.5872	-0.2749	0.0588	0.4157	-0.0591	0.6572	-0.8557	1.0137	0.5215	9.7775	-0.1283	0.1479	0.3244	-0.0102	-0.3132	-1.599	9.6443	1.5945	-0.1289	-0.7173	0.9619	-0.3571	-1.045	-0.0959	-0.4528
-1.0859	-0.2988	9.8245	-0.2843	-0.0626	0.2007	-0.1401	0.7504	-0.8661	1.1251	0.4617	9.4352	-0.1302	0.0844	0.1704	0.0477	-0.3765	-1.6194	9.3471	1.1321	-0.8196	-0.5909	0.9922	-0.2676	-0.9738	-0.1152	-0.3977
-1.1426	-0.5308	9.8227	-0.2579	-0.0924	0.0774	-0.1184	0.6916	-0.8237	1.312	0.4629	9.955	-0.1307	-0.0702	0.1098	0.0543	-0.3162	-1.5764	9.6995	1.0176	-0.3581	-0.593	0.9935	-0.3597	-1.0092	-0.0786	-0.417
-0.7467	-0.2415	9.7172	-0.2834	-0.0629	0.2313	-0.0994	0.6885	-0.8058	1.1392	0.1133	10.1227	-0.0688	0.0847	0.2008	0.0129	-0.3555	-1.5949	10.0943	1.5334	-0.5765	-0.6848	1.2709	-0.4802	-1.0794	-0.1143	-0.4357
-1.0793	-0.2398	10.1672	-0.0951	-0.0334	0.2875	-0.1004	0.7063	-0.8079	1.3644	0.4033	9.6116	-0.1314	-0.1018	0.0483	0.0449	-0.3349	-1.6211	9.1801	0.961	-0.5956	-0.7487	1.0858	-0.4484	-1.0286	-0.0591	-0.4884
-1.0868	-0.589	9.7665	-0.1353	-0.1858	0.1036	-0.1165	0.6558	-0.8194	1.188	-0.2976	9.5487	-0.0703	0.0524	0.0775	0.0043	-0.3334	-1.626	9.5321	1.2497	-0.0755	-0.7494	0.9314	-0.3872	-1.0266	-0.1147	-0.4167
-0.5747	-0.4735	9.7769	-0.1974	-0.1544	0.0751	-0.1394	0.7282	-0.8279	1.2424	0.2275	9.3793	-0.1632	-0.0722	-0.0443	-0.0241	-0.3546	-1.5846	9.9271	1.1317	-0.4104	-1.0072	0.8739	-0.7812	-0.9922	-0.1144	-0.4334
-0.8032	-0.7055	9.7147	-0.2884	-0.1546	0.1387	-0.0792	0.6739	-0.8397	0.9497	0.7546	9.5475	-0.1932	-0.1025	-0.0129	0.0354	-0.3362	-1.5781	10.0494	1.0178	-0.01	-1.0979	0.8719	-0.6871	-1.0451	-0.0778	-0.4532
-1.2027	-0.7633	9.6496	-0.4386	0.0001	0.1751	-0.0993	0.6906	-0.8238	1.0673	-0.064	9.4325	0.0509	0.0822	0.0143	0.0549	-0.3778	-1.5891	9.8184	1.2487	-0.0702	-1.0609	1.1471	-0.5953	-1.0101	-0.1321	-0.4512
-1.0301	-0.299	9.7685	-0.6529	0.2181	0.0917	-0.1403	0.7461	-0.8301	1.0642	0.3446	9.319	-0.0395	-0.1015	0.0784	-0.0241	-0.3546	-1.5846	9.8086	1.3617	-0.5825	-1.1645	0.9981	-0.962	-1.0271	-0.1324	-0.434
-0.9697	-0.4726	9.9404	-0.534	0.2504	-0.0946	-0.1165	0.6558	-0.8194	1.2463	-0.0056	9.5508	0.2334	-0.0419	-0.0482	-0.0016	-0.3353	-1.5678	9.8144	1.7663	-0.182	-1.1611	0.9341	-0.7778	-1.0092	-0.1328	-0.4159
-1.0325	-1.3437	9.5942	-0.5043	0.1573	-0.0658	-0.0984	0.6727	-0.8216	0.9557	0.1126	9.7751	0.4495	-0.1013	0.1356	0.0288	-0.3965	-1.6211	9.9309	1.2478	-0.1821	-1.1505	1.3302	-0.5624	-1.0275	-0.1321	-0.4516
-0.9218	-0.416	9.4849	-0.4997	0.3114	-0.0337	-0.1374	0.6946	-0.8416	1.7135	0.051	9.3303	0.5093	-0.1026	0.0424	-0.0074	-0.3547	-1.5973	9.8151	1.5936	-0.1828	-1.2214	1.1494	-0.8376	-1.0619	-0.1324	-0.4349
-1.1482	-0.5316	9.5372	-0.5664	0.1887	-0.0943	-0.1585	0.7292	-0.8278	1.1347	0.6386	9.9522	0.3607	-0.0984	0.3526	-0.0219	-0.3345	-1.5703	9.7008	1.5365	-0.1851	-1.1234	1.0541	-0.5634	-0.9917	-0.1148	-0.4158
-0.9172	-0.5894	9.7128	-0.6874	0.1883	0.0007	-0.0813	0.7054	-0.808	1.4238	0.2279	9.6122	0.4179	-0.1333	0.0435	-0.011	-0.354	-1.6125	9.9242	1.3615	-0.5234	-1.0988	0.8105	-0.6871	-1.0096	-0.1325	-0.4335
-1.4796	-0.6458	10.044	-0.626	0.1259	0.0289	-0.1373	0.6968	-0.8596	1.3102	0.2873	9.8397	0.2664	-0.0703	0.137	0.0332	-0.3563	-1.5924	9.7549	0.9594	-0.4712	-0.882	0.9669	-0.7837	-1.0436	-0.1151	-0.3995
-0.9208	-0.2998	9.5423	-0.3718	0.2473	0.1454	-0.1765	0.7144	-0.8436	1.3112	-0.1802	9.8382	0.3263	-0.1331	0.0443	-0.0074	-0.3547	-1.5973	9.4113	1.2487	-0.4193	-0.8889	0.7853	-0.9681	-1.0096	-0.1325	-0.4335
-1.0343	-0.6478	9.5391	-0.502	0.3744	-0.1552	-0.0602	0.6708	-0.8218	0.9593	-0.0037	9.9469	0.2338	-0.0415	-0.0173	0.0007	-0.3327	-1.6412	9.5877	1.422	-0.1307	-0.7148	0.67	-1.4021	-0.9908	-0.0975	-0.3809
-1.3133	-0.6467	9.819	-0.4915	0.3398	0.2108	-0.1366	0.6747	-0.8214	1.7225	0.4616	9.848	0.0223	0.115	0.1688	0.0115	-0.3347	-1.5957	9.6943	1.8807	-0.4685	-0.549	0.7882	-1.0061	-1.0611	-0.0608	-0.4011
-0.8624	-0.6478	9.5995	-0.5639	0.3746	-0.1535	-0.0819	0.7296	-0.8642	0.6608	0.1133	9.7695	-0.0681	-0.0379	0.2326	-0.0544	-0.3109	-1.6191	10.0442	1.3047	-0.2367	-0.4607	0.8227	-1.223	-1.044	-0.1508	-0.4164
-1.03	-0.4731	9.768	-0.526	0.31	0.1198	-0.1185	0.6894	-0.8057	1.2466	-0.1225	9.5504	0.0827	0.0218	0.1072	0.0296	-0.3556	-1.6076	9.8209	1.134	0.0432	-0.2233	0.9547	-1.7501	-1.0257	-0.1335	-0.381
-1.1995	-0.6468	9.8212	-0.584	0.4335	0.1533	-0.1373	0.6968	-0.8596	1.193	-0.063	9.8364	0.1747	-0.2244	0.1082	0.0043	-0.3334	-1.626	9.9298	0.9594	-0.2972	-0.0297	1.1061	-1.5083	-0.9757	-0.1137	-0.4683
-1.0364	-0.8221	9.4244	-0.4747	0.2198	-0.1576	-0.0984	0.6727	-0.8216	1.6633	0.5786	9.8472	0.0821	-0.0713	0.0461	-0.0146	-0.3534	-1.6277	9.5833	1.4786	-0.3583	-0.088	1.0105	-1.2921	-1.0101	-0.114	-0.4515
-1.1482	-0.5897	9.537	-0.4658	0.2791	0.0872	-0.0801	0.6918	-0.8419	1.0107	-0.122	9.546	0.3578	-0.0089	0.1357	0.0521	-0.3363	-1.5908	9.6366	1.4199	-0.5854	-0.0035	0.7686	-1.5093	-1.0083	-0.0974	-0.3814
-1.0355	-0.5319	9.4823	-0.3416	0.2163	0.1442	-0.1356	0.6568	-0.8193	1.3741	0.0541	10.0696	0.5123	0.0236	0.2885	-0.006	-0.3755	-1.5965	9.7568	1.3055	-0.2989	0.0336	0.9509	-1.3562	-1.0265	-0.187	-0.4152
-0.8047	-0.3576	9.6586	-0.4355	0.2481	0.086	-0.0992	0.6927	-0.8418	1.2447	0.2279	9.4941	0.3592	0.085	0.2585	-0.0002	-0.3561	-1.567	9.4769	1.2504	0.0374	0.089	0.4908	-1.3581	-1.062	-0.1143	-0.4353
-1.0256	-0.4144	9.9965	-0.5013	0.1251	0.056	-0.1401	0.7525	-0.8841	0.8375	0.2297	9.7732	0.1132	-0.1632	0.0774	0.0037	-0.2717	-1.6133	9.7612	1.2489	-0.0713	-0.1206	0.6397	-1.1383	-1.0271	-0.1324	-0.434
-0.9168	-0.9954	9.7116	-0.4081	0.2181	-0.0067	-0.0791	0.676	-0.8577	1.4811	-0.0064	9.4978	-0.0394	-0.1322	0.0786	-0.011	-0.354	-1.6125	9.5829	1.5938	-0.3578	0.1325	0.6692	-0.9286	-0.9757	-0.1137	-0.4683
-0.6349	-0.532	9.6044	-0.5052	0.1576	-0.0964	-0.1366	0.6725	-0.8034	1.5446	-0.0642	9.7283	0.0227	-0.1004	0.1704	0.0051	-0.2925	-1.6125	9.413	0.7881	-0.4212	-0.028	0.6715	-1.171	-1.028	-0.1136	-0.4696
-0.8042	-0.8217	9.6573	-0.4633	0.4651	0.028	-0.1164	0.658	-0.8374	1.0637	0.0523	9.2607	-0.2551	0.1125	-0.0448	0.0376	-0.3161	-1.5637	9.5868	1.3642	-0.1879	-0.221	0.7675	-1.5354	-1.0261	-0.1512	-0.3983
-1.0785	-1.0519	10.1648	-0.4982	0.4976	-0.1234	-0.1755	0.6987	-0.8594	1.3712	0.3459	9.9557	-0.0684	-0.0998	0.2021	0.0115	-0.3347	-1.5957	9.5283	1.7098	-0.1875	-0.2461	0.6708	-1.2278	-0.9922	-0.1144	-0.4334
-0.8593	-0.4152	9.7715	-0.6267	0.3752	-0.1823	-0.081	0.7118	-0.862	1.3697	0.0534	9.8401	-0.0354	0.0567	0.4169	-0.0102	-0.3132	-1.599	9.9808	1.2459	-0.5798	-0.3082	0.6085	-1.1958	-1.0441	-0.1147	-0.4172
-1.1399	-1.1106	9.9352	-0.2867	0.1561	-0.0413	-0.1364	0.6789	-0.8574	1.1823	-0.2401	9.262	-0.1607	0.0844	0.1707	-0.0369	-0.2701	-1.6183	9.6466	1.2493	-0.0734	-0.3044	0.73	-1.1036	-1.063	-0.0774	-0.4713
-1.0981	-0.4747	9.1959	-0.3243	0.0339	-0.1638	-0.1366	0.6725	-0.8034	1.3722	0.4045	10.0133	-0.2834	0.0223	0.1106	0.0093	-0.3548	-1.61	9.6485	1.5954	0.0989	-0.3946	0.6657	-0.9481	-1.028	-0.1136	-0.4696
-0.6863	-0.4151	9.8891	0.4156	-0.7884	-1.66	-0.0984	0.6727	-0.8216	0.7717	-0.1804	9.3692	-0.1929	0.1136	0.0473	0.0557	-0.337	-1.5756	9.7499	1.7649	-0.5819	-0.5294	0.5477	-1.3448	-1.0087	-0.1332	-0.3982
-0.8568	-0.7049	9.8849	1.7662	-1.3615	-3.6287	-0.1194	0.7094	-0.8259	1.3074	0.053	9.6668	-0.0404	0.7606	0.1336	-0.0074	-0.3547	-1.5973	9.5862	1.5369	-0.1872	-0.7168	0.5783	-1.4329	-1.0097	-0.0602	-0.435
-1.2018	-0.5311	9.7074	0.5071	-2.2312	-2.6254	-0.1375	0.6925	-0.8236	1.3104	-0.2972	9.7805	-0.2284	1.0333	-0.2065	-0.0508	-0.3116	-1.6039	10.0421	1.0161	-0.4088	-1.0302	0.6093	-1.6105	-1.0106	-0.0775	-0.4699
-1.3244	-0.7644	9.2477	0.0772	-3.0087	-1.9191	-0.0967	0.6327	-0.7813	1.5486	0.1118	9.9583	0.5652	1.4641	-0.1245	-0.0096	-0.3748	-1.6117	9.4163	1.0194	-0.1924	-1.3454	0.7653	-1.9415	-1.0101	-0.1321	-0.4512
-1.087	-0.357	9.7672	1.1818	-3.0201	-1.247	-0.0965	0.637	-0.8173	1.3121	-0.0631	9.896	2.218	1.7137	0.2907	0.0413	-0.3343	-1.6363	9.5914	1.5381	0.0977	-1.3293	1.3438	-1.6031	-0.9917	-0.1329	-0.4154
-0.696	-0.7646	9.3742	-0.1786	-2.3715	-0.6523	-0.0985	0.6706	-0.8036	1.0708	0.3457	9.6633	1.3645	1.8698	0.3901	-0.0241	-0.3546	-1.5846	9.4146	0.9038	-0.3068	-1.2019	1.4974	-1.5441	-1.0267	-0.0786	-0.4175
-0.8567	-0.821	9.8845	-0.2323	-1.6269	-0.9483	-0.1948	0.6933	-0.8053	0.946	0.4617	9.3171	-0.4114	1.9892	-0.0576	0.0029	-0.3126	-1.6269	9.4178	1.1926	-0.0778	-1.2091	1.8425	-2.0658	-0.9922	-0.1144	-0.4334
-0.6357	-0.8222	9.5464	-0.0292	-1.1665	-0.735	-0.0783	0.656	-0.8376	1.243	-0.0062	9.3786	-1.3443	1.6952	0.9108	0.0165	-0.3562	-1.5797	9.1897	0.9055	-0.0831	-0.765	1.7462	-1.5531	-1.028	-0.1317	-0.4693
-0.9103	-0.7624	10.0549	-0.2414	-0.9803	-0.7271	-0.0984	0.6727	-0.8216	0.9601	0.1133	10.0046	-1.1047	1.3206	0.5099	-0.048	-0.3531	-1.6023	9.8166	1.1906	-0.1844	-0.8132	1.9541	-1.0909	-1.0272	-0.0602	-0.4355
-0.6897	-0.4156	9.7178	-0.1999	-0.8905	-0.4523	-0.0983	0.6749	-0.8396	1.3096	0.521	9.8404	-1.4714	1.043	0.4227	0.0507	-0.3155	-1.5916	9.9348	1.0182	-0.0121	-0.8636	2.1633	-0.7209	-1.028	-0.1498	-0.4689
-1.0865	-0.9371	9.7655	-0.1079	-1.0463	-0.3649	-0.1565	0.6956	-0.8415	1.3053	-0.0058	9.5519	-1.3792	0.7045	0.4244	-0.0291	-0.3331	-1.6006	9.58	0.9593	-0.6453	-1.2115	2.6106	0.0245	-1.0267	-0.0786	-0.4175
-0.7988	-0.6468	9.9432	0.0712	-1.6051	-0.162	-0.1354	0.6611	-0.8553	1.2492	0.1702	9.7234	-2.2327	0.8606	0.5238	0.0107	-0.3756	-1.6092	9.8159	0.7871	-0.3	-1.0887	2.6431	-0.0395	-1.0275	-0.1321	-0.4516
-0.7444	-0.2991	9.8312	0.6021	-1.7644	0.0966	-0.1395	0.7261	-0.8099	1.1833	0.2861	9.3784	-2.5719	0.8575	0.249	0.0585	-0.3785	-1.5739	9.9303	0.8443	-0.2977	-0.9151	2.5901	-0.5348	-0.9743	-0.0968	-0.4157
-0.9193	-0.7057	9.5983	0.6891	-2.292	0.3024	-0.0983	0.6749	-0.8396	1.2459	0.6373	9.6101	-3.1502	0.7979	0.3475	0.0499	-0.3564	-1.6051	9.8111	0.9589	-0.5272	-1.0982	2.5251	-0.3774	-1.0446	-0.0782	-0.4356
-0.7472	-0.9378	9.658	0.6889	-2.8211	0.694	-0.0981	0.6791	-0.8756	1.6011	0.0522	9.615	-2.8194	1.0084	0.0031	0.0274	-0.3757	-1.6219	9.9863	0.6133	-0.4115	-1.2063	2.4099	-0.959	-1.0092	-0.1328	-0.4159
-0.7483	-0.9379	9.6009	0.7182	-3.132	0.8731	-0.0802	0.6896	-0.8239	1.3655	0.4034	9.669	-2.7551	1.3507	0.3088	0.031	-0.3764	-1.6067	9.4748	1.2499	-0.0765	-1.2755	2.352	-1.2341	-1.028	-0.1136	-0.4696
-1.0952	-1.1705	9.3081	0.859	-3.2836	0.5315	-0.2137	0.6985	-0.8412	1.2498	0.4041	9.7815	-2.8799	1.533	0.1233	-0.0146	-0.3534	-1.6277	9.9267	1.2468	-0.4099	-1.2871	2.2353	-1.6641	-1.0266	-0.1147	-0.4167
-0.8632	-0.996	9.5414	0.978	-3.1269	0.2548	-0.0973	0.6591	-0.8555	1.3728	-0.3552	9.9536	-2.392	1.6554	0.1178	0.0543	-0.3162	-1.5764	9.7597	1.0757	-0.1859	-0.8772	1.7884	-2.4109	-0.9739	-0.0971	-0.3981
-1.2552	-0.6465	9.8772	0.7223	-3.0299	-0.0732	-0.0992	0.6927	-0.8418	1.4285	0.1117	9.8413	-1.7197	1.933	0.233	-0.011	-0.354	-1.6125	9.9361	0.3847	-0.0717	-0.3052	1.555	-2.9764	-1.0266	-0.1147	-0.4167
-1.2016	-0.7631	9.7067	0.7459	-2.9031	-0.4086	-0.1373	0.6968	-0.8596	0.892	-0.2387	9.486	-0.8303	1.8439	0.5651	-0.011	-0.354	-1.6125	9.8669	0.7855	-0.6407	0.4031	1.1792	-4.2516	-1.0092	-0.1148	-0.4163
-1.1518	-0.3581	9.3664	0.3744	-2.7459	-0.5188	-0.0792	0.6739	-0.8397	1.3677	-0.0638	9.7249	-0.2803	1.6283	0.5925	0.0563	-0.3986	-1.5883	10.045	0.4982	-0.354	1.0728	1.2842	-4.8187	-1.0088	-0.079	-0.3994
0.0491	-0.3584	9.6754	0.2349	-3.0515	-0.7933	-0.1366	0.6747	-0.8214	1.0009	0.2856	9.0882	-0.4588	1.5406	0.9346	-0.0255	-0.3338	-1.5855	9.6452	0.788	-0.2462	1.6681	0.7963	-6.8905	-1.0262	-0.1151	-0.3991
-1.3797	-0.1259	9.3626	0.4102	-2.4986	-0.5477	-0.0993	0.6906	-0.8238	1.1177	0.2852	9.033	-0.6759	1.5066	0.6589	0.0282	-0.3348	-1.6084	9.637	0.4404	-0.7603	3.1332	0.708	-6.4303	-1.0266	-0.1328	-0.4163
-1.0867	-0.7051	9.7662	0.259	-2.1879	-0.6624	-0.1183	0.6937	-0.8417	0.8902	0.5208	9.4883	-0.8278	1.5998	0.7214	-0.0191	-0.3761	-1.5686	9.3561	0.6732	-0.4227	3.7307	0.9468	-3.5241	-1.0092	-0.0967	-0.4166
-0.6826	-0.7626	10.0593	0.0696	-1.3556	-0.4037	-0.0992	0.6927	-0.8418	1.5491	-0.0635	9.9578	-1.0405	1.3544	0.7561	0.0977	-0.3593	-1.5698	9.868	0.4976	-0.6419	4.5763	0.5637	-4.2186	-0.9394	-0.151	-0.4137
-0.6897	-0.4156	9.7178	-0.5552	0.0706	-0.646	-0.0602	0.6708	-0.8218	1.3642	-0.0059	9.553	-0.8569	0.8616	0.7272	-0.0044	-0.2937	-1.5695	9.8138	1.0748	-0.3558	5.5653	0.2004	-4.0866	-1.045	-0.132	-0.4521
-0.6908	-0.3577	9.6608	-0.9283	1.7123	-0.9234	-0.1365	0.6768	-0.8394	1.0786	0.347	10.0649	-0.2454	0.2456	0.7262	-0.0074	-0.3547	-1.5973	9.3569	1.3072	-0.2493	6.4209	0.2991	-1.9848	-1.0445	-0.1143	-0.4348
-1.1411	-0.9367	9.8786	-2.0614	2.46	-1.0673	-0.118	0.7001	-0.8957	0.8941	0.2877	9.6598	0.1274	-0.673	1.1003	0.0093	-0.3548	-1.61	9.4144	0.9613	-0.3066	7.2786	0.2299	-1.0201	-1.0266	-0.1147	-0.4167
-0.7384	-0.8204	10.1151	-3.2216	2.615	-0.6363	-0.1193	0.7116	-0.8439	1.3059	0.2281	9.61	0.0003	-1.1402	0.6418	0.0282	-0.3348	-1.6084	9.3568	0.5005	-0.4235	8.2448	-0.1077	-0.5497	-0.9921	-0.1505	-0.4327
-1.1485	-0.2416	9.538	-3.311	2.5209	-0.4515	-0.1182	0.6958	-0.8597	1.0712	-0.2972	9.6039	0.5848	-1.3519	0.9777	0.0274	-0.3757	-1.6219	9.5839	1.0178	-0.4172	9.4709	0.2614	0.0085	-1.0271	-0.0963	-0.4347
-1.0262	-0.8786	9.9381	-2.9599	2.6094	-0.1852	-0.1394	0.7282	-0.8279	1.0152	-0.1212	9.7755	1.3774	-1.3845	0.9088	0.0382	-0.3777	-1.5764	9.9863	0.9014	-0.3534	10.4029	0.545	-0.0417	-1.062	-0.1143	-0.4353
-0.915	-0.531	9.8271	-2.4955	2.5764	-0.1679	-0.1202	0.7294	-0.846	1.4252	0.1112	9.6692	1.9917	-1.2579	1.2419	0.0593	-0.3376	-1.5604	9.7089	0.4435	0.0383	11.8762	0.316	-0.4728	-1.0092	-0.1328	-0.4159
-1.2658	-0.126	9.3648	-2.3701	2.3263	0.0704	-0.0984	0.6727	-0.8216	1.431	0.4628	10.0146	2.1735	-1.1978	1.1471	-0.0241	-0.3546	-1.5846	9.9932	1.0182	0.0459	13.5603	0.1233	-1.1849	-0.9931	-0.1318	-0.4683
-1.2688	-0.5325	9.1924	-2.1432	1.3672	0.1149	-0.1004	0.7063	-0.8079	1.3031	0.4615	9.4959	2.5402	-1.2902	1.1753	0.0215	-0.3776	-1.5637	10.0506	1.2485	0.1048	15.6534	-1.1468	-3.6276	-0.9757	-0.0957	-0.4686
-1.2669	-0.1841	9.3076	-2.739	0.3239	-0.3383	-0.1175	0.6737	-0.8215	1.7204	-0.0648	9.6742	3.2387	-1.4177	0.8918	0.0079	-0.334	-1.6109	10.1041	1.1322	-0.1225	18.0172	-2.8862	-7.4594	-1.0276	-0.114	-0.452
-0.8626	-0.4157	9.6002	-3.459	-0.9367	-0.6376	-0.1544	0.6641	-0.8732	1.2564	-0.5301	10.0082	4.6673	-2.0724	0.3584	0.0304	-0.3147	-1.5941	10.2176	1.1316	-0.1773	19.2445	-3.1607	-9.1142	-0.9917	-0.1148	-0.4158
-1.147	-0.6475	9.5939	-4.0757	-1.952	-0.7844	-0.1365	0.6768	-0.8394	0.8391	-0.0038	9.8299	6.2202	-3.0333	-0.0503	0.0137	-0.3146	-1.5814	9.7024	1.0759	-0.187	19.4954	-2.0653	-8.3192	-1.0269	-0.2047	-0.4325
-0.9709	-0.3568	9.8836	-4.2875	-2.6586	-1.0917	-0.1183	0.6937	-0.8417	1.2549	0.1127	10.0102	8.1385	-4.3654	-0.5831	0.0774	-0.3585	-1.5723	9.8111	1.5351	-0.4109	19.5389	-2.22	-10.348	-1.0972	-0.1681	-0.4527
-1.2598	-0.5892	9.649	-4.9616	-3.364	-1.3252	-0.1573	0.7156	-0.8617	1.3686	0.0532	9.7827	10.0943	-6.0602	-0.6193	0.0012	-0.3768	-1.5662	9.814	1.8815	-0.1816	19.969	-2.2381	-13.1528	-0.9917	-0.1329	-0.4154
-1.0903	-0.4735	9.5956	-5.8814	-4.069	-1.4907	-0.0993	0.6906	-0.8238	1.3197	-0.0034	10.2978	12.9866	-7.5194	-1.3763	-0.006	-0.3755	-1.5965	9.4142	2.1713	-0.0738	20.08	-2.5507	-14.8454	-0.9926	-0.1682	-0.4499
-0.9226	-0.7642	9.4268	-5.8477	-4.1945	-1.3097	-0.0401	0.6541	-0.8378	1.5699	-0.4108	10.9896	15.7877	-9.7488	-2.2194	-0.0213	-0.3962	-1.583	9.2934	2.1703	-0.4177	18.9079	-3.1428	-16.9411	-1.0096	-0.1505	-0.4331
-0.9665	-0.2981	10.1122	-5.158	-4.418	-0.8728	-0.1365	0.6768	-0.8394	1.2795	-0.4094	11.2135	21.9428	-12.7252	-3.4277	-0.0394	-0.3753	-1.5711	9.1256	1.9414	-0.2508	16.0765	-3.6311	-18.5404	-1.0279	-0.1859	-0.4681
-0.86	-0.8795	9.7131	-4.9404	-4.6993	-0.6374	-0.1002	0.7106	-0.8439	1.478	-0.6401	12.3064	33.3493	-16.0766	-6.9675	0.0185	-0.4386	-1.5916	9.6903	2.3984	-0.5803	12.5625	-4.3596	-18.7124	-0.9747	-0.1686	-0.4318
-0.9192	-0.7637	9.5981	-4.4769	-5.0122	-0.4397	-0.1384	0.7104	-0.8258	1.8067	-1.3368	13.9738	47.9622	-14.8081	-14.5565	0.0585	-0.3785	-1.5739	9.0635	2.1133	-0.479	6.1526	-4.9016	-18.3308	-1.0443	-0.2408	-0.4322
-0.9168	-0.9954	9.7116	-4.3263	-5.385	-0.2951	-0.1165	0.6558	-0.8194	8.9035	-10.3701	7.9994	77.7271	-21.4116	-18.0878	0.0157	-0.3971	-1.5932	9.5139	1.937	-0.9271	0.301	-6.2144	-17.4399	-1.0441	-0.1147	-0.4172
-0.5781	-0.358	9.606	-3.4581	-6.1882	-0.664	-0.1393	0.7304	-0.8459	6.9474	-5.5551	14.1149	11.6766	-29.2446	-54.1092	-0.0104	-0.4157	-1.6252	9.2326	1.9969	-0.6473	-5.3447	-6.9382	-14.7093	-0.9906	-0.2239	-0.3782
-0.7498	-0.59	9.5449	-2.0976	-6.7224	-0.3407	-0.1165	0.6558	-0.8194	6.0095	-3.6232	14.6195	45.7308	-30.0643	-71.4704	-0.0235	-0.4163	-1.5973	9.117	1.7089	-0.7645	-9.3774	-6.8896	-13.6709	-1.043	-0.2057	-0.38
-0.2885	-0.9377	9.8383	-1.9093	-6.963	-1.0819	-0.1005	0.7042	-0.7899	5.1938	-5.4317	14.8853	62.9076	-41.9932	-93.0085	-0.0408	-0.3545	-1.5719	9.7007	1.8246	-0.1269	-12.1769	-6.3021	-13.211	-1.061	-0.1512	-0.3992
-1.3082	-0.1237	10.106	-1.4477	-6.9951	-1.1562	-0.1185	0.6894	-0.8057	6.2035	-5.2575	15.3064	59.7925	-44.7639	-114.799	-0.0611	-0.3537	-1.5744	9.2432	1.3654	-0.1941	-15.5129	-5.0386	-10.9261	-0.9907	-0.1878	-0.379
-0.6313	-0.7635	9.775	-0.6598	-6.4737	-1.1112	-0.1954	0.7197	-0.8795	5.9134	-5.373	15.53	88.3515	-49.5034	-131.2782	-0.0351	-0.4376	-1.5686	9.1995	1.3687	0.5454	-16.2579	-5.0739	-10.9717	-1.0439	-0.1869	-0.4157
-0.9192	-0.8217	9.5979	-0.8784	-5.922	-0.5797	-0.1184	0.6916	-0.8237	3.8461	-4.7843	15.3781	105.507	-51.6886	-146.3738	-0.1227	-0.3922	-1.5953	9.4863	1.2525	0.5501	-15.2525	-5.3659	-11.5158	-1.0454	-0.1678	-0.469
-0.5189	-0.4157	9.7211	-1.0435	-5.2121	-0.4452	-0.1376	0.6904	-0.8056	2.1358	-3.6699	15.4641	118.458	-44.9835	-152.4149	-0.1046	-0.4131	-1.6072	9.6096	1.1388	1.0075	-12.1855	-5.6348	-12.6568	-1.0788	-0.205	-0.4162
-0.9775	-0.5318	9.5405	-1.1876	-4.727	0.5419	-0.1384	0.7104	-0.8258	-0.035	-2.611	16.1148	160.9447	-36.0108	-151.6727	-0.133	-0.4344	-1.5658	9.3749	1.2537	0.7189	-7.1151	-4.683	-12.3027	-1.0092	-0.1328	-0.4159
-0.635	-0.3579	9.6049	-1.3713	-4.0522	1.1043	-0.1213	0.743	-0.8122	-4.7606	-3.2542	12.4675	203.7589	-33.8433	-141.8915	-0.1294	-0.435	-1.5506	10.1844	1.1372	1.1319	-1.9249	-3.5924	-10.8756	-1.0788	-0.205	-0.4162
-0.6324	-0.8217	9.7177	-2.3199	-3.4395	2.0234	-0.1555	0.6777	-0.8393	-6.079	-4.1019	2.1154	203.8211	-36.2167	-104.2772	-0.1477	-0.5167	-1.5649	10.2968	0.8482	0.9619	1.716	-2.0478	-9.7528	-1.026	-0.2054	-0.3972
-0.5712	-0.589	9.9479	-2.7393	-2.861	3.0497	-0.0831	0.7432	-0.8304	-8.0474	-5.8546	0.6962	86.3684	-23.5784	-68.1286	-0.1124	-0.5818	-1.5145	10.3474	0.9617	0.6216	4.8775	0.3076	-9.7553	-0.9911	-0.2235	-0.3959
-0.8611	-0.8796	9.656	-3.0818	-2.5577	3.7653	-0.1203	0.7273	-0.828	-9.1396	-6.4904	2.0503	5.8808	-15.9509	-30.6503	-0.0899	-0.5625	-1.4977	10.564	1.2462	0.0003	6.2094	2.8373	-9.9644	-1.01	-0.1682	-0.4504
-0.8623	-0.7638	9.5992	-3.6297	-2.2573	4.8532	-0.0812	0.7075	-0.826	-9.5538	-5.4279	5.1432	-49.9454	-12.3639	8.2948	-0.1276	-0.6025	-1.5009	10.6277	0.9017	0.2848	6.7239	3.5608	-10.9266	-1.0426	-0.17	-0.3631
-0.9171	-0.7054	9.7124	-3.4102	-1.8646	5.6459	-0.1384	0.7104	-0.8258	-9.398	-4.4869	7.214	-68.2605	-11.8028	45.12	-0.2022	-0.5391	-1.4678	10.7387	1.0157	0.1164	6.8807	4.304	-11.2976	-1.025	-0.2242	-0.3615
-0.635	-0.416	9.6047	-3.052	-1.5916	6.0056	-0.1366	0.6725	-0.8034	-8.6513	-4.0827	6.2542	-73.6169	-12.6488	74.2668	-0.1319	-0.5402	-1.5034	10.5656	0.7856	-0.0016	5.4641	5.2799	-11.5425	-1.0099	-0.2224	-0.4493
-0.4068	-0.9963	9.6075	-3.144	-1.3215	6.8362	-0.1175	0.6737	-0.8215	-8.4965	-4.1451	5.1097	-90.5133	-9.7646	95.8329	-0.1813	-0.6015	-1.478	10.5744	0.9604	0.5118	5.4196	6.1979	-11.3558	-1.0255	-0.2238	-0.3791
-0.5154	-0.5892	9.8919	-2.8709	-0.8017	7.262	-0.1547	0.6578	-0.8192	-7.7989	-3.2132	4.7243	-112.4268	-4.3044	109.1808	-0.1463	-0.52	-1.4764	10.2818	1.2482	0.2229	3.7779	7.7465	-10.9807	-1.0434	-0.2234	-0.3972
-0.6861	-0.5891	9.8886	-2.327	-0.405	7.5263	-0.0813	0.7054	-0.808	-7.2093	-2.6885	4.7944	-136.8701	2.0801	115.2884	-0.1442	-0.4999	-1.462	10.5052	1.0732	-0.1154	2.4322	8.7483	-10.8584	-1.0264	-0.2231	-0.4144
-0.799	-0.4148	9.9439	-1.6008	0.3655	7.3923	-0.0992	0.6927	-0.8418	-5.9969	-2.1013	6.5972	-160.2927	7.8574	114.9994	-0.21	-0.4761	-1.4854	10.5677	0.498	0.0542	0.6079	8.1332	-11.6806	-1.043	-0.1877	-0.3804
-0.7453	-0.5894	9.7732	0.6971	1.132	7.0009	-0.1603	0.7671	-0.8501	-5.3112	-0.8694	8.6789	-169.1038	14.3372	110.9255	-0.1434	-0.459	-1.4485	9.9388	0.5005	0.0997	-0.3507	6.8515	-14.8264	-1.0265	-0.205	-0.4148
-0.6973	-0.6488	9.3174	2.4141	2.0852	6.7193	-0.0984	0.6727	-0.8216	-4.2306	-0.0504	9.7916	-163.1671	23.2631	104.6886	-0.2084	-0.3943	-1.4584	9.8232	0.5007	0.0406	-1.1522	5.9488	-20.7707	-1.0091	-0.187	-0.4147
-0.9709	-0.3568	9.8836	4.525	2.7595	6.3626	-0.0995	0.6863	-0.7878	-3.8001	-0.0485	10.7174	-149.5967	32.6563	97.2345	-0.2114	-0.4553	-1.4863	9.8306	0.7904	0.4975	-1.223	5.2684	-24.7333	-0.9916	-0.2051	-0.4139
-0.9605	-0.7033	10.3965	5.1372	3.0806	4.8824	-0.0986	0.6685	-0.7856	-2.4928	0.4177	11.3171	-135.5873	40.3646	87.998	-0.1721	-0.3335	-1.456	10.0607	0.5017	0.5005	-0.9904	4.6484	-26.3367	-0.9746	-0.2228	-0.4307
-0.9122	-1.1108	9.9397	6.5309	3.4582	3.595	-0.1355	0.6589	-0.8373	-1.0068	0.0656	11.9176	-121.1657	46.5766	77.2865	-0.1468	-0.3557	-1.4375	9.1438	0.6778	0.4845	-0.0208	3.7588	-28.0483	-1.0095	-0.2228	-0.4316
-0.6289	-0.8792	9.8888	7.6787	4.5734	2.8114	-0.1194	0.7094	-0.8259	-0.0708	0.4129	11.5922	-105.9082	51.6892	64.9078	-0.1293	-0.315	-1.4367	8.8022	0.3915	0.5341	1.8584	3.3953	-29.5943	-0.9929	-0.2582	-0.4657
-0.6916	-0.7059	9.6027	9.2631	5.3221	1.4005	-0.1383	0.7125	-0.8438	1.2224	0.2339	11.3865	-93.4654	53.6498	51.1892	-0.0713	-0.2758	-1.4309	9.1509	0.449	0.8254	2.6138	2.8666	-28.7509	-1.0273	-0.2404	-0.4493
-0.6382	-0.5905	9.4329	9.8711	5.5411	0.8666	-0.0995	0.6863	-0.7878	1.5856	0.0009	11.8515	-85.3987	51.6844	37.973	-0.0756	-0.316	-1.4596	9.0315	0.6211	0.5961	4.8459	1.4876	-27.8174	-0.9755	-0.2402	-0.4656
-1.0902	-0.5315	9.5954	7.614	5.8196	1.7877	-0.0994	0.6885	-0.8058	2.5227	-0.1777	11.5245	-78.6909	46.343	25.258	0.0157	-0.2595	-1.3916	9.3747	0.4469	0.5447	6.0793	1.016	-26.4312	-0.9741	-0.2593	-0.4123
-0.8029	-1.0536	9.7137	5.5187	6.1573	2.8883	-0.0801	0.6939	-0.8599	2.4612	0.465	11.468	-73.3859	38.8454	14.5796	0.0621	-0.2416	-1.3571	9.3703	0.5036	0.3171	6.8548	-0.5277	-25.4361	-1.0109	-0.2036	-0.4849
-0.8046	-0.4156	9.6584	4.5623	6.4403	2.7956	-0.1394	0.7282	-0.8279	3.2843	0.5212	11.3689	-68.6234	30.1833	6.5709	0.112	-0.2244	-1.3075	9.6431	0.7875	-0.3601	5.5672	-1.1026	-24.5186	-0.9745	-0.259	-0.4299
-0.3454	0.2227	9.8976	4.2908	7.3317	3.3628	-0.1547	0.6578	-0.8192	2.9905	0.5805	11.4209	-64.975	21.0746	1.9732	0.1295	-0.1836	-1.3067	9.6523	0.5591	0.0947	3.7833	-1.9902	-23.4373	-1.0085	-0.2596	-0.3956
-0.3984	-0.4148	10.0659	2.9234	7.3702	3.1872	-0.1375	0.6925	-0.8236	3.3935	0.9287	10.9707	-60.9561	12.0314	0.0895	0.1345	-0.2051	-1.2907	9.7054	0.2699	-0.1903	2.8032	-3.6262	-23.2959	-0.9924	-0.2586	-0.448
-1.2053	-0.4156	9.5364	2.8185	7.499	2.7025	-0.1174	0.6758	-0.8395	3.5101	1.0451	10.9159	-60.7717	4.2034	1.4134	0.1656	-0.2079	-1.2428	10.2258	0.3267	0.1042	1.4223	-4.0776	-22.4684	-0.9914	-0.2954	-0.412
-0.9128	-0.4147	9.9417	2.2467	7.1948	2.4706	-0.1586	0.7271	-0.8098	3.977	2.1538	10.8135	-61.9309	-0.4499	5.4437	0.1656	-0.2079	-1.2428	9.9388	0.2124	0.0415	-0.6823	-3.927	-21.1637	-0.9388	-0.2236	-0.3945
-0.8015	-0.1831	9.8304	2.5362	7.5014	2.5881	-0.0812	0.7075	-0.826	4.5721	2.6793	11.1705	-59.4845	1.1255	10.9065	0.212	-0.19	-1.2083	9.9372	-0.1913	-0.131	-1.22	-3.5096	-20.5679	-0.957	-0.277	-0.4291
-1.2005	-0.763	9.7638	3.3886	7.5026	2.1062	-0.1183	0.6937	-0.8417	5.7412	4.1947	10.8531	-53.4022	8.4049	17.682	0.212	-0.19	-1.2083	9.7102	0.0981	0.0369	-1.274	-2.791	-19.3369	-1.0263	-0.3134	-0.4125
-1.0199	-0.5296	10.2817	4.3066	7.6579	1.6241	-0.1004	0.7063	-0.8079	6.7365	4.8926	10.5872	-48.0633	19.1566	24.0674	0.2481	-0.2143	-1.1443	9.715	-0.0737	0.264	0.2116	-1.6724	-17.4007	-0.9736	-0.2416	-0.395
-1.3667	-0.7621	9.9888	5.6701	8.0565	1.3462	-0.1557	0.6735	-0.8033	8.1989	5.1212	10.0419	-46.9263	31.3388	28.875	0.2567	-0.2364	-1.1132	9.3754	-0.302	0.4277	1.2894	-0.2632	-14.5337	-0.991	-0.2597	-0.3951
-1.0307	-0.8793	9.7097	6.283	8.8031	0.5734	-0.1379	0.684	-0.7516	10.2649	6.1104	10.3133	-43.9748	39.6501	29.5258	0.2653	-0.2585	-1.082	9.2635	-0.1857	0.597	3.3113	1.5036	-12.5773	-1.0093	-0.295	-0.4301
-0.6862	-0.5311	9.8887	8.0963	9.6715	-0.5369	-0.1365	0.6768	-0.8394	11.6839	6.3416	10.5702	-41.0236	41.7039	26.8577	0.2283	-0.2576	-1.0718	9.3158	-0.2447	0.313	3.4399	3.4761	-10.9182	-0.9927	-0.3485	-0.4638
-0.8562	-0.1247	9.9436	7.2428	10.8324	-1.9675	-0.1174	0.6758	-0.8395	12.1619	6.9845	10.9827	-25.1258	37.774	19.451	0.3725	-0.243	-1.0402	9.201	-0.1867	0.3111	3.5419	4.8572	-8.7064	-0.9744	-0.3131	-0.4288
-0.7413	-0.1246	10.003	4.9154	12.639	-2.4641	-0.1373	0.6968	-0.8596	12.9931	7.3927	11.3438	-1.1628	32.2393	7.6576	0.3565	-0.3046	-1.0402	8.8535	0.0442	0.1349	3.2885	7.0619	-6.3015	-0.9909	-0.35	-0.3932
-0.4401	-1.0507	10.8052	6.6402	16.5889	-2.7441	-0.0963	0.6413	-0.8533	13.5718	7.3311	10.7809	30.3968	26.9957	-7.0813	0.3072	-0.2633	-0.9885	8.7418	0.1029	0.304	2.6238	7.6779	-4.6274	-1.0078	-0.3503	-0.376
-4.219	-4.5895	9.4079	8.5999	19.6392	-2.7652	-0.1182	0.6958	-0.8597	12.597	6.5099	9.0392	57.0349	21.898	-22.8878	0.3289	-0.2849	-0.9852	8.6265	0.0455	0.2447	2.1155	8.1199	-1.4516	-0.9566	-0.2955	-0.4111
-1.6595	-2.7357	9.4636	22.4664	24.7014	4.1481	-0.0793	0.6718	-0.8217	10.9887	6.3356	8.148	75.1577	17.5483	-36.3665	0.3717	-0.2664	-0.966	8.0082	0.2809	0.9177	2.3334	10.1806	2.6635	-0.957	-0.3312	-0.428
-1.7041	-1.6314	10.1509	8.6789	30.1477	2.9079	-0.0382	0.6184	-0.8334	8.3615	5.5764	6.318	82.9841	16.4699	-42.8866	0.3325	-0.2856	-0.9701	8.0159	0.4555	1.3742	4.3309	12.3266	6.0035	-0.991	-0.2777	-0.3947
0.3915	-0.739	18.4133	1.5389	46.2686	0.2854	-0.0229	0.6889	-0.8422	5.129	4.9329	3.6739	86.9502	24.4139	-41.9953	0.3317	-0.3265	-0.9836	8.2504	0.1102	1.6048	7.3312	14.9487	10.8896	-0.9749	-0.3308	-0.4461
-1.9747	-2.2092	10.8287	21.9139	82.4551	2.9555	-0.0793	0.6718	-0.8217	2.2965	4.4618	0.407	73.4735	40.2006	-33.4029	0.3681	-0.2657	-0.9811	8.1411	-0.1763	1.8294	13.3203	17.1874	14.0217	-0.9396	-0.2951	-0.4283
-1.3927	-2.5474	14.3778	8.1164	100.403	12.0268	-0.0964	0.6391	-0.8353	10.3034	-28.3601	47.6623	-315.3781	-13.555	-77.2853	0.4215	-0.3517	-0.9426	8.0934	1.2089	2.6316	19.8256	15.2968	9.9172	-0.9566	-0.2593	-0.4118
-1.8149	0.5996	19.1157	2.8145	122.0458	15.6165	-0.0803	0.6875	-0.8059	-18.5151	-12.1482	-1.8723	423.1544	-22.7392	-183.4952	0.3891	-0.2256	-0.9652	9.9709	5.7512	2.9125	25.0877	8.4901	-7.3477	-1.0098	-0.2947	-0.4477
0.211	1.473	20.9274	33.4049	147.4716	24.2128	-0.0391	0.6363	-0.8356	-0.5565	-4.8005	25.4477	-174.0096	-98.8338	-121.1112	0.3339	-0.3064	-0.9693	10.2413	7.462	-0.72	39.0219	6.1047	-13.9462	-0.974	-0.2774	-0.4119
-1.9589	-1.7169	20.3617	14.7682	183.4258	26.4931	-0.0201	0.6353	-0.8357	-3.2437	8.5465	13.1064	290.2987	-10.638	25.7219	0.4578	-0.2909	-0.9401	11.9026	5.2533	-4.2296	24.135	20.8164	36.0392	-0.9566	-0.2413	-0.4122
-1.9371	-2.2358	21.4451	19.0401	218.2391	34.2998	-0.0028	0.6722	-0.8581	2.5859	-7.1128	-1.287	-18.2088	-4.4099	29.1261	0.3642	-0.35	-0.9348	14.1711	1.6805	-3.0072	10.8473	25.1921	62.596	-0.9919	-0.295	-0.4296
-1.3988	-2.5225	22.7675	13.8644	250.9756	40.6341	0.0381	0.6145	-0.8338	1.0518	5.6224	15.4152	-54.3443	-0.6844	54.4798	0.3331	-0.3472	-0.9828	11.3273	0.3126	-2.2675	-0.5963	10.4936	24.3239	-0.9924	-0.2766	-0.4477
-0.6586	-3.849	25.6319	20.6183	285.4025	45.8622	0.0784	0.5812	-0.8657	5.2368	-1.3622	8.4745	31.1592	-12.3066	22.5812	0.3809	-0.3502	-0.9475	10.7711	2.6809	-0.9011	7.4075	-2.0442	9.9108	-0.957	-0.277	-0.4291
-1.0346	-5.0636	26.7053	40.9676	316.8546	49.3067	0.1558	0.5616	-0.8819	2.5306	-0.6536	8.8273	55.9776	-16.7423	-15.8826	0.3534	-0.348	-0.9803	10.3884	2.8593	0.1177	11.9738	-6.185	18.3482	-0.9571	-0.2409	-0.4299
-0.0797	-5.8787	26.0369	60.1272	340.6355	51.1426	0.1748	0.5585	-0.864	1.3666	-0.064	9.6676	17.2366	1.6997	-4.1419	0.3837	-0.3917	-0.9458	10.3913	2.9176	0.2889	16.1714	-4.3078	7.263	-0.975	-0.2766	-0.4472
0.9352	-5.0023	28.5135	91.9424	348.8808	53.4072	0.2323	0.562	-0.9183	0.5214	0.2854	8.6776	20.8888	8.5585	3.1847	0.3809	-0.3502	-0.9475	9.3437	3.2057	-0.5833	18.1555	-1.7828	-0.8555	-0.9396	-0.2771	-0.4286
0.866	-3.8437	27.9448	153.734	346.0332	52.4298	0.2545	0.5138	-0.9659	0.726	-0.1781	10.0567	14.959	4.9811	-0.4085	0.3656	-0.3708	-0.934	9.2227	2.9742	-0.9851	16.7725	2.2308	1.146	-0.9589	-0.2756	-0.4997
1.1614	-3.5609	25.6114	191.7165	337.0059	49.2941	0.3898	0.4671	-0.9263	0.5527	-0.294	10.2251	13.8618	-0.0711	-1.0394	0.3845	-0.3508	-0.9323	10.4772	3.314	-1.1885	15.6105	5.8291	2.2513	-0.9745	-0.2951	-0.4292
3.1228	-3.1613	24.1102	235.4589	317.344	44.4473	0.4471	0.4642	-0.9265	1.2417	-0.4155	9.2626	7.713	0.0138	2.5689	0.3787	-0.3703	-0.9618	10.4666	2.2168	-1.9906	12.2174	10.0629	2.9135	-1.0103	-0.2582	-0.4661
5.7108	-2.4313	16.8579	279.5768	291.4137	23.6625	0.47	0.394	-0.936	0.9543	-0.2383	9.6592	3.8813	0.6484	1.3334	0.4251	-0.3524	-0.9274	10.4064	2.1588	-2.1627	7.3653	10.7534	1.6047	-0.9571	-0.259	-0.4295
21.1664	-2.8154	10.0266	325.1361	241.2191	15.9591	0.5301	0.3375	-0.9298	1.1928	0.0538	9.8367	6.8217	-0.423	-0.3536	0.3345	-0.368	-0.9819	10.4149	2.3912	-1.6491	2.5487	7.1012	-0.8479	-0.9217	-0.2775	-0.4105
41.477	-13.7887	-25.3909	298.2559	104.1649	-27.134	0.57	0.2956	-0.8897	1.0072	0.462	9.433	2.3343	-1.6211	-0.6426	0.33	-0.3907	-0.9229	10.3088	2.1054	-1.2536	0.3794	2.8785	5.6745	-0.9919	-0.295	-0.4296
19.6777	-16.8985	-5.6819	54.4338	4.2679	-82.4588	0.5709	0.2777	-0.8875	0.6526	-0.6479	9.2508	-6.463	-3.7465	-1.6565	0.344	-0.3668	-1.025	10.9325	1.8136	-1.6421	-4.2485	-1.2848	8.9929	-0.958	-0.2763	-0.4644
23.0526	-12.2578	-4.5175	-68.1497	-33.0884	-100.8929	0.5921	0.2453	-0.9193	0.7797	-0.296	9.7705	-8.9916	-5.9895	-1.6778	0.3809	-0.3502	-0.9475	10.4948	1.647	-0.5688	-8.6411	-4.9318	2.1381	-0.9754	-0.2582	-0.4652
19.8687	-7.9846	7.4177	-112.0784	-92.5617	-118.993	0.6283	0.2769	-0.9058	1.075	-0.0043	9.8343	-9.7377	-7.1431	-0.5502	0.3534	-0.348	-0.9803	10.487	2.6248	-0.7926	-11.0435	-8.4457	-4.4518	-0.9396	-0.2771	-0.4286
15.8039	-7.5695	9.0512	-61.9599	-118.1857	-117.2649	0.5675	0.3577	-0.9682	1.017	-0.4132	9.832	-13.3558	-9.0059	0.177	0.3403	-0.3486	-0.9524	10.7272	2.1655	-0.2776	-12.3015	-11.6284	0.6702	-0.9575	-0.2767	-0.4467
12.2764	-7.9806	6.1269	-26.8438	-136.6746	-102.852	0.5083	0.3942	-0.9542	1.371	-0.5309	9.8383	-14.0261	-9.8364	0.1277	0.3751	-0.3696	-0.977	9.9173	2.3971	-0.6901	-11.9177	-13.8353	9.1995	-0.9571	-0.2409	-0.4299
9.724	-8.1014	3.6222	-23.6934	-150.6353	-76.6273	0.4712	0.3825	-0.9879	1.0719	-0.1217	9.6618	-14.0867	-10.0516	0.1299	0.3737	-0.3488	-0.9778	9.234	1.5938	-0.6489	-12.5618	-14.3703	9.7962	-0.9933	-0.2759	-0.4829
8.0201	-7.171	3.8196	-46.2421	-168.1936	-44.2607	0.4674	0.4518	-0.9785	0.7182	-0.6469	9.5962	-12.926	-10.1443	0.2125	0.3439	-0.3493	-0.9373	9.6289	2.1096	-0.8674	-11.1151	-13.4639	11.5178	-0.9584	-0.294	-0.4816
7.6656	-6.2357	6.0983	-67.2846	-190.3949	-14.7363	0.3892	0.4935	-1.0004	0.8355	-0.3551	9.5993	-12.2969	-10.0952	-0.6894	0.3656	-0.3708	-0.934	8.6037	1.1351	-0.7762	-10.5285	-11.07	13.9666	-0.94	-0.2948	-0.4459
6.5636	-4.3726	8.0226	-72.4986	-215.3013	6.712	0.3501	0.5133	-1.0024	0.7735	0.4629	9.5433	-11.6701	-9.8635	0.6311	0.3164	-0.3471	-0.9701	8.6189	1.5419	0.1369	-8.1263	-9.4918	16.4062	-0.975	-0.2766	-0.4472
6.1563	-3.0886	10.5295	-66.607	-241.0516	18.2183	0.2698	0.5843	-0.9746	1.0164	-0.6471	9.7739	-6.2524	-8.0342	-2.5217	0.3237	-0.366	-1.0274	9.6968	0.9018	-0.5295	-6.2596	-8.4034	22.7581	-0.9735	-0.2958	-0.3939
4.7419	-2.6218	10.9597	-61.6963	-257.8586	19.3366	0.2689	0.6022	-0.9768	0.9565	-0.238	9.774	-5.5172	-7.5698	-4.6014	0.362	-0.3701	-0.9491	9.8107	1.0741	-0.5267	-4.904	-7.9399	27.4918	-0.9566	-0.2593	-0.4118
3.5478	-2.6785	10.9931	-64.5942	-266.3832	14.1907	0.1552	0.588	-0.9561	0.9539	0.4046	9.7186	-4.3558	-7.5078	-2.08	0.3289	-0.2849	-0.9852	9.8222	0.5005	-0.0163	-4.5576	-5.2935	20.7909	-0.9571	-0.2409	-0.4299
2.0711	-2.3865	11.1361	-74.5337	-267.2482	6.0223	0.1353	0.6089	-0.9761	0.4794	0.1714	9.5369	-3.6499	-7.227	-1.7181	0.3128	-0.3465	-0.9852	9.3676	0.0996	0.0876	-0.1678	-4.8631	1.5275	-0.9736	-0.2777	-0.3943
1.0627	-2.9052	11.9138	-86.3461	-263.9087	-4.7379	0.0548	0.6757	-0.9124	0.9486	-0.1808	9.3725	-2.6057	-6.8209	-1.144	0.3448	-0.3259	-1.0115	8.1182	0.1066	0.6343	3.1424	-5.322	-18.3287	-0.9571	-0.2229	-0.4302
-1.8143	-4.0009	13.1096	-90.353	-258.1931	-12.3574	-0.0036	0.6922	-0.8783	0.8914	-0.4726	9.4279	-0.7078	-5.8307	-2.8988	0.3359	-0.3888	-0.9811	7.368	1.0876	0.5108	7.4516	-4.5161	-25.301	-0.9731	-0.26	-0.377
-1.7773	-2.951	15.0539	-99.8786	-248.2692	-15.2256	0.015	0.6806	-0.7884	1.3635	-0.1814	9.4951	0.5182	-5.3337	-0.0416	0.3128	-0.3465	-0.9852	7.071	0.5676	-0.1801	11.4251	-4.0984	-22.4973	-0.9746	-0.2409	-0.4303
-3.1818	-3.4691	15.9379	-102.9147	-237.1927	-12.5159	-0.0079	0.7508	-0.7789	1.3067	-0.1224	9.6089	2.3309	-4.2754	-1.3019	0.3317	-0.3265	-0.9836	6.9544	0.8557	-0.238	13.8461	-2.9923	-14.9589	-0.9387	-0.2597	-0.3937
-3.8681	-3.4689	15.7532	-106.2404	-224.0342	-4.703	0.0327	0.6868	-0.7006	1.4879	-0.0637	9.8419	2.0118	-4.0733	-2.3506	0.3317	-0.3265	-0.9836	7.6448	0.5658	-0.1127	15.3481	-2.5418	-9.2453	-1.0099	-0.2585	-0.4485
-4.9963	-3.5823	16.2443	-109.5729	-208.5683	7.1686	0.0897	0.6775	-0.6469	0.77	-0.4144	9.2537	-0.2186	-4.8131	-5.0422	0.3648	-0.4117	-0.9475	7.339	1.0234	-1.0845	14.4698	-2.1269	-8.6422	-0.9736	-0.2597	-0.3947
-5.6111	-3.696	16.8026	-113.463	-189.3631	22.2437	0.167	0.6579	-0.6631	1.1885	-0.0053	9.607	-1.2368	-5.0698	-3.5791	0.3484	-0.3266	-0.9963	7.2882	0.6794	-0.8021	12.6366	-2.0241	-10.2927	-0.975	-0.2766	-0.4472
-5.8975	-2.9418	16.7421	-120.9018	-165.2598	37.1338	0.2043	0.6739	-0.6655	1.5933	-0.8843	9.0957	-0.5886	-5.2172	-3.0281	0.3737	-0.3488	-0.9778	7.9225	0.3323	-0.6212	11.3717	-1.7265	-10.2653	-0.991	-0.2777	-0.3947
-6.1201	-2.3607	17.0248	-128.8705	-138.2485	48.7393	0.2429	0.6826	-0.7557	1.6654	-0.3563	9.8444	-1.4869	-7.5723	-2.0444	0.3359	-0.3888	-0.9811	8.1506	0.6193	-0.6158	8.6347	-0.7788	-11.3423	-0.9396	-0.259	-0.429
-6.1552	-1.7191	18.1675	-136.7566	-112.1598	53.7014	0.201	0.756	-0.7641	1.4386	-0.4127	10.2988	0.1697	-8.9524	-3.9334	0.3484	-0.3266	-0.9963	8.2058	0.3306	-0.7868	5.2292	-0.0841	-14.3717	-0.9386	-0.332	-0.3922
-6.6652	0.6024	18.3925	-141.9805	-90.3285	50.7515	0.2022	0.7445	-0.8159	1.3266	-1.0544	10.5241	5.7243	-9.02	-3.8919	0.3295	-0.3466	-0.9979	8.0879	0.6759	-0.9014	3.2375	-0.7042	-17.0644	-0.9391	-0.2774	-0.411
-7.3398	2.4029	18.8981	-142.8263	-78.5148	40.5743	0.2422	0.7069	-0.8118	0.4924	-0.6448	10.1082	11.5962	-9.446	-2.9858	0.3245	-0.3251	-1.0139	8.207	-0.0149	-0.7883	1.2822	-1.9468	-19.1443	-0.9739	-0.3316	-0.4108
-8.7678	2.9837	18.6434	-133.5598	-77.4274	26.7316	0.2015	0.7688	-0.8721	1.2051	-0.9378	10.3501	12.4316	-10.4526	-2.2446	0.2811	-0.282	-1.0205	8.3078	0.6154	-1.4102	-2.0765	-4.2113	-17.0177	-0.9386	-0.3139	-0.3926
-11.3624	3.9094	16.94	-124.3234	-83.7494	15.4985	0.1788	0.8455	-0.9166	1.8422	-0.7658	9.7891	14.8588	-10.6858	1.3482	0.3172	-0.3062	-0.9565	8.7697	0.1536	-1.2898	-5.8707	-5.928	-12.6382	-0.9038	-0.2598	-0.3928
-13.011	5.1791	14.1717	-126.8787	-99.2515	6.6617	0.1406	0.8453	-0.8984	1.3728	-0.3552	9.9536	14.9298	-12.6794	1.8259	0.3353	-0.3271	-0.9684	8.5327	0.3255	-1.692	-8.2777	-7.8281	-9.7633	-0.9387	-0.2597	-0.3937
-16.283	7.2667	12.8007	-128.4394	-123.5274	0.5137	0.1213	0.842	-0.8623	1.1386	-1.0558	9.947	11.3813	-15.2727	0.7976	0.2939	-0.3665	-0.9869	9.2909	0.5564	-0.88	-12.8509	-9.8845	-12.0344	-0.957	-0.277	-0.4291
-20.0813	7.8528	13.5267	-110.0792	-156.6763	-4.1423	0.0438	0.8594	-0.8281	1.8024	-0.4119	10.8219	8.7968	-19.2671	0.9445	0.3506	-0.3065	-0.982	9.7457	0.8997	-0.9842	-15.777	-12.161	-15.2626	-0.9744	-0.3312	-0.4284
-23.2874	7.621	12.4927	-73.4458	-185.3439	-4.3659	0.1382	0.8703	-0.8128	1.6737	0.8237	13.4618	-25.623	-37.505	5.2943	0.3615	-0.326	-1.0242	10.0396	1.1308	-0.5223	-17.5993	-14.082	-19.1897	-0.9221	-0.3132	-0.4274
-26.275	7.5036	11.0068	-43.0174	-196.3606	0.0512	0.0809	0.8711	-0.7945	1.6127	-0.6474	10.1293	15.7532	-51.488	7.888	0.3251	-0.3868	-1.0266	10.8474	1.1868	-0.1656	-18.2474	-15.2957	-18.3482	-0.9551	-0.3327	-0.3574
-29.353	6.3456	10.6575	-26.4757	-185.0642	9.5556	0.0397	0.9223	-0.7648	0.6928	0.2353	11.4339	-18.6661	-63.7438	13.3041	0.3156	-0.388	-0.9836	11.2928	1.2399	-0.8406	-19.5211	-17.5706	-14.4534	-0.9556	-0.3323	-0.375
-30.3751	6.2309	10.7512	-18.2752	-149.5791	22.6696	0.0829	0.8396	-0.8262	1.2153	0.8758	11.1016	-24.6101	-76.6155	21.3016	0.3098	-0.4074	-1.0131	11.1139	2.0456	-1.0683	-22.2079	-21.3801	-9.1175	-0.8698	-0.2953	-0.4264
-32.9052	17.6868	38.9862	-28.3658	-39.3517	36.2131	0.0448	0.8415	-0.826	1.1262	0.4131	12.5325	-44.2207	-93.2621	26.3663	0.2512	-0.385	-1.0061	11.2836	1.4683	-1.2954	-26.6918	-26.5258	-5.65	-0.9387	-0.2959	-0.393
-26.0576	16.4538	16.7445	108.6915	-10.2968	25.9207	0.0418	0.893	-0.8144	1.7451	-0.2265	13.9761	-42.3631	-108.4944	23.8702	0.2859	-0.406	-1.0307	11.715	1.3453	-2.7687	-31.2835	-31.3533	-3.0093	-0.9395	-0.3313	-0.4275
-22.7412	15.516	14.6382	249.4577	39.7003	8.172	0.1009	0.8523	-0.7924	2.3951	-0.8611	17.0264	-44.1635	-126.5552	16.4263	0.2331	-0.3641	-0.9943	10.8529	0.7716	-3.0715	-40.0081	-34.0423	0.4293	-0.9551	-0.3146	-0.3578
-24.0643	10.9726	7.8643	228.8096	96.8025	-8.9724	0.1033	0.8293	-0.8961	1.7058	-1.5579	17.8717	-1.6378	-143.5945	1.706	0.2012	-0.4022	-1.0557	11.1307	-0.0381	-3.6962	-48.1705	-33.5023	10.0971	-0.8863	-0.3321	-0.3908
6.1175	-0.1441	5.8003	142.5216	115.4111	14.2755	0.1215	0.8462	-0.8983	1.6459	-2.61	17.6952	-4.5479	-169.4321	-7.7074	0.1239	-0.3147	-1.112	11.8039	0.0715	-4.4238	-58.0485	-32.9558	20.6002	-0.9207	-0.3143	-0.3745
6.2999	-0.0007	15.1072	88.9524	126.7541	-31.5752	0.1254	0.779	-0.9257	1.8493	-3.0153	19.017	15.2286	-197.688	-21.2053	0.1303	-0.3569	-1.0951	11.8565	1.3378	-4.4176	-66.3801	-25.5896	12.1863	-0.8858	-0.3144	-0.3736
