1757_acc_x	1757_acc_y	1757_acc_z	1757_gyro_x	1757_gyro_y	1757_gyro_z	1757_mag_x	1757_mag_y	1757_mag_z	1758_acc_x	1758_acc_y	1758_acc_z	1758_gyro_x	1758_gyro_y	1758_gyro_z	1758_mag_x	1758_mag_y	1758_mag_z	1759_acc_x	1759_acc_y	1759_acc_z	1759_gyro_x	1759_gyro_y	1759_gyro_z	1759_mag_x	1759_mag_y	1759_mag_z
-1.034498	0.840675	9.545733	1.132329	-2.52868	-1.516424	0.565464	0.42493	-1.436054	1.332125	0.607134	9.989378	-1.740286	1.603025	-0.006012	0.444268	-0.154338	-0.823916	9.068019	3.779595	-0.231801	-0.210941	2.016193	-5.744359	-0.535524	-0.515206	-0.311444
-0.913516	1.129248	9.890285	2.505724	-2.9438	-2.293831	0.332788	-0.335561	-0.843879	1.675207	0.550062	9.883304	-1.192839	0.992359	0.666575	-0.175748	0.123187	-0.900495	9.01437	3.839043	0.06688	-0.734756	1.951552	-5.589346	-0.479724	-0.646741	0.051836
-0.975183	1.070883	9.661518	0.173784	-3.072042	-2.779897	0.331245	-0.280477	-0.857542	1.046045	0.326068	10.039736	-0.57694	0.875325	1.005016	-0.189019	0.12204	-0.88587	9.367366	3.837985	0.013576	-1.41272	1.824232	-5.341791	-0.452046	-0.663351	0.068342
-1.142326	0.842206	9.884624	-0.957621	-2.865687	-2.466602	0.361015	-0.319011	-0.862069	1.454054	0.212842	10.274662	-0.483242	0.996342	1.437889	-0.163588	0.075157	-0.86906	9.132382	3.373917	0.007197	-2.217299	1.578522	-5.521074	-0.438485	-0.696358	0.085614
-0.91537	0.611791	9.774407	-0.01182	-3.474853	-2.57123	0.359115	-0.284754	-0.844165	1.392862	0.212808	10.103534	0.383237	1.129372	1.532394	-0.163142	0.10687	-0.885417	9.071705	3.141254	-0.114707	-2.776767	1.243506	-5.853625	-0.465678	-0.629518	0.035542
-0.91335	0.899482	9.88932	1.301323	-4.206277	-2.586897	0.361044	-0.35361	-0.827086	1.393963	0.269186	10.160221	0.201068	1.372741	1.473011	-0.201184	0.109861	-0.927639	9.376015	3.433184	0.431194	-3.494271	0.822158	-6.765856	-0.479236	-0.615182	0.06569
-1.029221	1.243972	9.831687	1.35826	-4.944612	-2.507055	0.360629	-0.30524	-0.865485	1.39133	0.381752	10.047036	1.100699	1.661096	1.322461	-0.20126	0.09454	-0.926636	9.136919	3.31683	0.246577	-4.116728	0.489444	-7.342676	-0.465674	-0.648189	0.082962
-0.914546	1.014123	9.832949	1.504095	-5.986717	-2.708422	0.374764	-0.322914	-0.848343	1.683885	0.437733	10.279687	1.663105	2.159187	1.26621	-0.189019	0.12204	-0.88587	8.777745	3.607031	0.001583	-4.958086	-0.148679	-8.039487	-0.465537	-0.63117	0.066597
-0.918669	0.553626	9.603606	3.244389	-7.242772	-2.365824	0.344237	-0.274137	-0.833156	1.27499	0.38192	9.987979	0.958117	2.580078	1.177344	-0.20148	0.108789	-0.91329	9.195105	3.200296	0.187276	-5.859281	-0.448963	-8.890493	-0.437929	-0.646955	0.067575
-1.257907	0.784606	9.825303	4.71119	-8.03739	-2.168282	0.361029	-0.33631	-0.844578	1.512528	1.001457	10.389814	0.869335	2.914198	1.488876	-0.188133	0.125256	-0.928919	9.131147	3.431746	-0.052463	-7.004358	-0.910645	-9.006385	-0.466163	-0.679748	0.069109
-0.913267	0.784598	9.888837	3.145674	-8.569581	-1.957746	0.361029	-0.33631	-0.844578	0.984099	0.720347	9.86894	0.808872	3.006213	1.36643	-0.189389	0.105648	-0.870516	9.01489	3.141883	0.004007	-8.338236	-1.36574	-9.824518	-0.43765	-0.631588	0.082266
-1.371385	0.899813	9.880412	3.879389	-8.717378	-2.176938	0.346895	-0.318636	-0.86172	1.557659	0.550183	9.767607	0.31827	3.305578	1.523153	-0.201109	0.125181	-0.928643	9.898897	3.197686	-0.039146	-9.390655	-1.765278	-10.002163	-0.452396	-0.677891	0.038123
-0.919	1.013158	9.605537	1.392922	-8.59213	-3.394483	0.33166	-0.328847	-0.819143	1.156687	0.776354	9.872614	-0.366118	2.928782	1.549684	-0.201775	0.107717	-0.89894	9.006356	3.023753	-0.475743	-10.537525	-2.285613	-10.362251	-0.438418	-0.678513	0.053721
-0.726946	0.672727	10.630785	3.393662	-7.919221	-2.285242	0.360629	-0.30524	-0.865485	1.331562	0.269104	9.932454	-0.080118	3.546401	1.432742	-0.189088	0.16693	-0.874531	9.368426	2.908522	-0.050286	-11.650167	-2.781235	-10.141934	-0.452046	-0.663351	0.068342
-0.287881	0.725736	9.673432	2.813731	-7.302764	-2.672243	0.318296	-0.338715	-0.829454	1.896899	0.60563	9.49171	-1.580762	4.540724	1.194797	-0.200814	0.126253	-0.942993	9.190703	3.199307	-0.052352	-12.520465	-3.609294	-10.226512	-0.452326	-0.678717	0.053651
-0.917887	1.0134	9.66239	1.408294	-6.915036	-2.20187	0.360258	-0.308768	-0.851409	1.568323	0.663271	10.277459	-2.406024	5.20636	0.954127	-0.215416	0.090178	-0.868961	9.553063	3.432779	0.434495	-13.454126	-4.589568	-10.401815	-0.452255	-0.679544	0.069179
-0.920031	0.898034	9.548201	1.440372	-6.825129	-1.985823	0.361058	-0.370909	-0.809594	1.046823	0.551438	10.096565	-1.295426	5.068962	0.676201	-0.188208	0.109936	-0.927915	9.663237	3.023999	-0.04429	-14.263405	-5.819773	-10.026288	-0.452463	-0.695736	0.070016
-1.092576	0.438385	9.486077	0.340466	-6.276744	-2.004413	0.346152	-0.325693	-0.833568	1.213259	0.663538	9.817088	-2.164598	4.77879	1.165866	-0.188353	0.139505	-0.915573	9.53393	3.137948	-0.645065	-14.547163	-6.957581	-9.530863	-0.451975	-0.664177	0.083869
-0.629263	0.84135	9.780939	0.218278	-6.309788	-1.851257	0.346509	-0.304865	-0.865136	1.45099	0.550731	10.161667	-1.028171	4.300453	1.501134	-0.163142	0.10687	-0.885417	9.249179	3.431476	-0.050262	-14.952152	-8.192947	-8.514999	-0.438626	-0.694706	0.054558
-0.801151	1.013799	9.778323	-0.14499	-5.855036	-1.444134	0.361044	-0.35361	-0.827086	1.150296	0.325426	9.532397	-0.511778	3.631297	1.679865	-0.202215	0.136214	-0.872248	9.136764	2.910051	0.184939	-15.112991	-9.360568	-8.050431	-0.465954	-0.663555	0.068271
-0.630501	1.013434	9.72481	-1.517071	-4.84904	-1.270494	0.360658	-0.339838	-0.830502	1.275876	0.550959	10.044761	-0.056162	3.02389	1.674192	-0.201775	0.107717	-0.89894	9.554123	2.503315	0.370633	-15.213148	-10.588188	-7.677478	-0.437929	-0.646955	0.067575
-1.142616	1.244297	9.886313	-0.374255	-4.05548	-0.310177	0.332417	-0.339089	-0.829803	1.097674	0.269393	9.757699	0.162865	3.241485	1.645703	-0.175452	0.124259	-0.914845	9.555379	2.910342	0.492177	-15.618931	-11.263184	-7.611665	-0.452326	-0.678717	0.053651
-0.570854	0.784109	9.838665	-3.531203	-3.69413	-0.939246	0.319039	-0.331658	-0.857606	1.392323	0.49446	10.103771	-0.664733	3.665838	0.786068	-0.187988	0.095687	-0.941261	9.549451	2.618478	0.131499	-15.836952	-11.75651	-7.302911	-0.4663	-0.696766	0.085473
-0.40371	1.012785	9.615558	-1.562446	-2.704321	-0.683482	0.332788	-0.335561	-0.843879	1.099206	0.100449	9.814196	-0.727651	3.601914	1.062835	-0.162772	0.123262	-0.900771	9.25273	2.85121	0.067079	-15.833515	-11.576768	-6.937047	-0.452251	-0.698215	0.116599
-0.512652	1.014074	9.897597	-3.70115	-1.763379	-0.508693	0.347666	-0.346178	-0.854889	1.386602	0.325232	9.820431	-0.77379	2.348106	0.464596	-0.175377	0.13958	-0.915848	9.192208	3.025326	0.006814	-15.025528	-11.213456	-6.299921	-0.466092	-0.680574	0.084636
-0.512403	0.669425	9.896149	-2.562289	-0.864422	-0.712038	0.359901	-0.329596	-0.819842	0.987594	0.157137	9.981745	-0.749679	1.797744	0.274174	-0.188428	0.124184	-0.914569	9.490996	2.851164	0.191295	-14.310741	-11.004359	-5.570033	-0.438209	-0.662321	0.052884
-0.681075	1.014923	10.064815	-3.567589	-0.010389	-0.541924	0.31791	-0.324944	-0.83287	1.216324	0.32565	9.930083	2.056616	1.492076	0.889955	-0.175603	0.093618	-0.912837	9.669009	2.909083	0.25475	-13.101338	-10.733888	-4.689417	-0.452188	-0.661699	0.037286
-0.915618	0.956441	9.775855	-3.802481	1.273292	0.000971	0.346909	-0.335936	-0.844228	1.270586	0.156408	9.761231	5.237187	1.438844	1.13861	-0.175528	0.108939	-0.913841	9.496768	2.736249	0.490335	-11.740318	-10.551158	-4.145106	-0.438418	-0.678513	0.053721
-0.91001	0.900205	10.059879	-3.582709	2.072969	0.044002	0.332017	-0.308019	-0.850711	1.611251	0.099241	9.541879	5.89168	1.906441	1.236271	-0.201555	0.093468	-0.912286	9.429643	2.908881	0.070628	-10.188043	-9.851871	-3.206644	-0.438347	-0.67934	0.069249
-0.908896	0.900447	10.116732	-3.148975	2.687518	0.236749	0.318282	-0.321415	-0.846946	1.275637	0.043937	9.987695	3.737588	2.495716	0.716319	-0.162477	0.124334	-0.91512	9.379296	2.96907	0.54903	-8.609448	-9.299105	-2.878816	-0.437926	-0.665626	0.114995
-0.907368	0.326272	10.171172	-3.021662	3.425646	0.248379	0.360629	-0.30524	-0.865485	1.093401	0.607234	9.588065	4.253816	1.825746	1.018354	-0.149576	0.109089	-0.914393	9.428833	3.257337	0.072111	-7.153916	-8.778314	-2.458702	-0.466163	-0.679748	0.069109
-1.029055	1.014206	9.830722	-2.894426	4.132693	0.290172	0.346152	-0.325693	-0.833568	1.276307	0.325637	10.044571	5.127004	0.057954	1.093962	-0.149576	0.109089	-0.914393	9.437617	2.79446	0.489482	-5.971871	-7.986695	-1.702702	-0.452184	-0.68037	0.084707
-0.509063	0.670149	10.066708	-2.826838	5.116381	0.305965	0.373621	-0.2989	-0.841098	1.558975	0.4939	9.8242	5.339633	-0.215891	1.183895	-0.162992	0.137511	-0.887425	9.380822	3.259945	0.67008	-5.099951	-6.913322	-1.68042	-0.438071	-0.645302	0.036519
-1.200611	0.727123	9.826175	-3.586817	6.22156	0.111439	0.332017	-0.308019	-0.850711	1.093855	1.001595	9.645036	5.043741	-1.572305	1.725076	-0.162477	0.124334	-0.91512	9.436786	2.67806	0.42908	-4.102422	-5.657545	-1.506651	-0.466092	-0.680574	0.084636
-0.681075	1.014923	10.064815	-4.71226	7.631283	0.014918	0.346952	-0.387834	-0.791753	1.510111	1.001362	10.276534	4.285381	-2.843822	2.4517	-0.188359	0.079295	-0.925908	10.021196	3.256481	0.202929	-2.918145	-4.435464	-0.966646	-0.45316	-0.743487	0.056999
-0.570895	0.84155	9.838906	-6.23475	9.410688	-0.319795	0.374378	-0.309143	-0.851758	0.92487	0.326047	9.75412	2.988974	-2.825795	1.8651	-0.188428	0.124184	-0.914569	9.386034	2.912477	0.908224	-1.67438	-3.084807	-1.008159	-0.438138	-0.663147	0.068412
-0.919616	0.323619	9.545788	-8.248336	10.908088	-0.381666	0.318654	-0.317887	-0.861022	1.223792	0.213273	10.269826	1.310372	-3.702577	1.392608	-0.200814	0.126253	-0.942993	9.723529	3.895746	0.14024	-0.521149	-1.614007	-0.866542	-0.466371	-0.69594	0.069946
-0.907534	0.556039	10.172137	-10.65723	12.707445	-0.130812	0.290041	-0.320666	-0.846247	1.214684	0.550925	9.873633	-0.644538	-4.516528	0.149816	-0.189025	0.061831	-0.896205	9.257712	3.549606	0.429487	0.656439	-0.410193	-1.518366	-0.438142	-0.644476	0.020991
-0.970356	0.554874	9.886758	-11.592898	15.196324	-0.455683	0.33166	-0.328847	-0.819143	1.505491	0.888511	10.049881	-2.104099	-5.204164	-0.690553	-0.174787	0.141723	-0.944548	9.201572	3.259855	0.546965	1.249088	0.541449	-1.647304	-0.480488	-0.712337	0.070713
-0.686186	0.381859	9.777895	-13.778145	18.253441	0.090982	0.332788	-0.335561	-0.843879	1.561955	0.832025	9.994403	-3.192074	-5.796712	-1.283053	-0.162997	0.077301	-0.89776	9.13858	3.549629	0.36738	1.34667	1.122038	-1.558741	-0.424372	-0.66129	0.037426
-1.24743	0.15492	10.334326	-17.339049	22.107214	0.28654	0.360258	-0.308768	-0.851409	1.573936	0.88883	10.560846	-3.879279	-6.417248	-1.505572	-0.175823	0.107867	-0.899491	8.960546	3.026855	0.242039	2.153979	2.138797	-1.994391	-0.424785	-0.712347	0.086521
-0.892934	0.38685	10.910503	-19.917346	26.460987	0.15005	0.346523	-0.322165	-0.847644	1.210734	0.719774	9.703857	-5.397335	-6.85934	-2.497685	-0.175748	0.123187	-0.900495	8.847361	3.783597	0.602494	2.401194	2.97696	-3.099527	-0.411019	-0.71049	0.055536
-0.89512	0.328926	10.796556	-20.371842	32.895845	-1.062774	0.359886	-0.312296	-0.837333	1.269054	0.325353	9.704734	-9.776803	-6.44575	-3.915179	-0.175753	0.062978	-0.91083	8.964292	3.783079	0.544788	2.770341	3.787188	-4.418895	-0.424159	-0.663769	0.08401
-1.006039	-0.014916	10.96344	-29.455515	43.315612	-4.915498	0.347652	-0.328879	-0.87238	1.33003	0.438048	9.875956	-10.941085	-5.722647	-4.217204	-0.188504	0.108864	-0.913565	8.662069	4.014575	0.180833	2.187	4.804961	-5.430175	-0.46658	-0.712133	0.070783
-0.636903	-0.009616	12.277742	-51.094997	56.171281	-9.244624	0.374378	-0.309143	-0.851758	1.326966	0.775936	9.762962	-10.320291	-5.49934	-4.337796	-0.150537	0.090553	-0.87034	8.956475	4.30428	0.187572	2.499034	5.97891	-6.445434	-0.438973	-0.727917	0.07176
-0.800214	0.624295	12.731881	-63.531991	81.231122	-15.763558	0.389256	-0.31976	-0.862768	1.622477	0.55036	10.108654	-10.179518	-4.148275	-4.355076	-0.18932	0.060759	-0.881855	8.892922	4.361502	-0.052909	2.134116	6.557855	-6.355191	-0.438205	-0.680992	0.100305
-1.698836	-0.405371	13.562518	-59.760706	108.526232	-20.636722	0.389228	-0.285161	-0.897751	0.99079	0.382601	10.151853	-6.616028	-5.755139	-4.923087	-0.188133	0.125256	-0.928919	8.890721	4.361008	-0.172723	2.997543	6.87128	-6.787671	-0.438902	-0.728743	0.087288
-2.568213	0.33982	13.037275	-51.272793	143.126498	-15.191082	0.402605	-0.292592	-0.869949	1.103048	-0.01207	9.98402	-5.859855	-4.609685	-5.126884	-0.189465	0.090328	-0.869513	9.486519	4.302818	0.137569	4.070264	6.483788	-7.40093	-0.42451	-0.678309	0.053791
-0.324083	-0.393779	16.544489	-42.517343	120.011092	3.115951	0.415968	-0.282724	-0.859638	1.563141	0.21239	9.993881	-4.140291	-2.935806	-4.553956	-0.214456	0.108714	-0.913014	9.373449	4.536628	0.435891	5.048025	5.29336	-7.307107	-0.424439	-0.679135	0.069319
-2.591908	-0.502179	17.636528	18.911916	140.024139	26.968724	0.430046	-0.231201	-0.912462	1.677386	0.043135	9.939517	-2.55406	-1.972837	-3.371646	-0.227802	0.092246	-0.897385	9.126671	4.883399	-0.106189	6.453817	4.111428	-7.887217	-0.424651	-0.676657	0.022736
-1.658212	-1.143426	15.606092	45.31413	183.893371	23.711809	0.458702	-0.28032	-0.874761	1.506784	0.212545	10.049312	-1.439484	-1.774533	-3.399606	-0.20185	0.092396	-0.897936	9.490921	4.303807	0.377196	8.250514	2.94986	-10.302472	-0.410878	-0.712142	0.086591
-2.216038	0.066639	16.395968	21.592016	190.470136	27.198676	0.502206	-0.305457	-0.883053	1.390768	0.043721	9.990112	-2.515254	-1.387189	-3.766554	-0.188648	0.138433	-0.901223	9.141766	4.073302	0.609232	11.155846	2.167565	-13.518056	-0.452255	-0.679544	0.069179
-1.995721	-0.222665	15.944391	41.688327	220.413937	24.561485	0.500692	-0.284972	-0.861733	1.452953	0.156464	10.217974	-1.915238	-0.309684	-3.262111	-0.214305	0.139355	-0.915021	8.674579	3.843067	0.839067	14.1966	2.294271	-15.852177	-0.42451	-0.678309	0.053791
-1.58817	-1.887553	16.229453	15.46407	225.215465	18.306295	0.51597	-0.326659	-0.851835	1.619713	0.099573	9.938356	-2.356182	-1.01765	-3.701096	-0.228022	0.106495	-0.884039	8.725757	3.899277	0.421067	16.966462	2.593745	-17.238783	-0.46686	-0.727499	0.056092
-0.411371	-1.077204	17.90384	43.889505	210.603389	15.870937	0.600307	-0.315136	-0.857346	1.392539	0.381799	10.103676	-4.025621	-1.187915	-4.351517	-0.176118	0.106795	-0.885142	9.081515	4.131266	0.548472	18.24235	3.818111	-16.88254	-0.466789	-0.728325	0.07162
-1.774207	-0.62661	15.549184	60.426309	211.971037	-11.295179	0.585829	-0.335589	-0.825429	1.564373	0.83212	10.107682	-3.962155	-1.063867	-4.442716	-0.20214	0.151534	-0.873251	8.607434	3.550844	0.357476	18.934187	6.123655	-17.751689	-0.439115	-0.726264	0.040705
-2.736288	-1.050516	10.243455	51.578358	227.642077	-34.662982	0.642326	-0.354387	-0.809334	1.208208	0.77601	9.590625	-5.322225	-1.142041	-4.506243	-0.215561	0.119747	-0.856619	8.253182	3.144875	0.289235	17.759308	10.227345	-18.622652	-0.397037	-0.729783	0.118554
-1.209856	-0.985949	12.205652	22.208439	202.010347	-28.707295	0.656832	-0.368532	-0.806267	1.384292	0.268806	9.707104	-6.091518	-0.935373	-4.782257	-0.201254	0.15475	-0.916301	8.075843	2.796576	0.224544	18.304428	14.971257	-21.64194	-0.438272	-0.698837	0.132197
0.445058	1.322132	14.975431	88.712759	133.621041	-29.949888	0.696922	-0.338928	-0.775334	1.156017	0.494654	9.815737	-6.284803	-1.608936	-5.313183	-0.175603	0.093618	-0.912837	8.008199	3.666368	-0.132289	18.571074	18.505102	-23.095964	-0.39704	-0.711112	0.071134
-1.159904	-0.125815	11.869267	167.083045	138.433193	-21.325044	0.725549	-0.353448	-0.772617	1.328044	0.212631	9.762487	-6.068613	-1.520638	-4.325641	-0.20207	0.106645	-0.88459	8.064049	3.607416	-0.311157	16.68995	21.638285	-22.034593	-0.439252	-0.743283	0.05707
-0.747743	-3.825365	6.462801	166.237236	111.741926	-22.155405	0.726306	-0.363691	-0.783277	1.853385	0.211946	10.113205	-4.900183	-1.93566	-4.236344	-0.201844	0.152606	-0.887601	8.065015	3.665739	-0.251003	14.469289	23.870472	-19.74537	-0.45253	-0.713581	0.101909
17.766637	-5.077959	-0.91129	161.722641	105.57723	-46.598002	0.754176	-0.367968	-0.7699	1.226772	0.551399	10.440029	-3.417277	-1.888394	-3.895575	-0.188949	0.077151	-0.897208	9.00184	3.545696	-0.653239	11.098601	25.277588	-17.93694	-0.425415	-0.742253	0.041612
28.068992	-7.396632	-3.903174	32.272579	52.34309	-87.343279	0.725206	-0.391575	-0.723558	1.274213	0.156551	9.93115	-1.215328	-3.552004	-3.108821	-0.227431	0.108639	-0.912738	9.473989	4.009471	-0.58255	10.113932	24.742275	-16.800151	-0.425482	-0.760098	0.073505
8.944477	-7.792941	7.316567	-100.189969	-7.571122	-140.230076	0.75269	-0.382081	-0.713596	1.271795	0.156456	9.817871	-1.036937	-4.044127	-2.52784	-0.189094	0.10672	-0.884866	10.113958	4.180236	-1.048959	8.297945	23.33221	-14.189326	-0.439111	-0.744936	0.088125
7.255717	-5.499867	5.929454	36.106406	-11.827632	-153.675863	0.822549	-0.391011	-0.68719	1.394071	0.212855	10.160173	1.607098	-4.907775	-1.301181	-0.188724	0.123112	-0.900219	10.597477	3.542544	-0.503713	6.284345	20.641298	-12.030018	-0.425203	-0.744732	0.088195
5.836311	-8.45111	0.547346	3.698004	-30.497116	-136.175379	0.793894	-0.341892	-0.724891	0.993639	0.157374	10.264943	1.050228	-4.947509	-0.993744	-0.176043	0.122115	-0.886145	10.650721	3.657325	-0.801652	5.82522	17.245191	-12.134391	-0.39704	-0.711112	0.071134
4.700938	-7.114368	3.997552	-44.210517	-62.038569	-101.594623	0.823692	-0.415025	-0.694434	1.733096	0.380963	9.884371	1.761417	-4.820661	-0.252037	-0.175672	0.138508	-0.901499	10.134286	3.487527	-0.033508	8.338506	13.522441	-15.120564	-0.439461	-0.759476	0.057907
5.235276	-5.731802	5.03672	-47.493648	-89.12943	-59.284513	0.810329	-0.424893	-0.704745	1.564134	0.325098	10.050616	1.50994	-5.132669	0.083767	-0.188944	0.137361	-0.886873	9.550862	3.432284	0.314681	10.959037	10.641531	-16.644256	-0.411507	-0.742049	0.041682
5.708361	-4.982016	5.844708	-46.827253	-117.102924	-24.556033	0.809558	-0.397351	-0.711577	1.508663	0.494292	10.162828	2.674785	-5.852549	-0.107422	-0.2017	0.123037	-0.899944	9.775247	3.719652	-0.27875	13.260192	8.560189	-15.72589	-0.397667	-0.75969	0.073645
5.595831	-4.636801	5.957636	-50.493125	-138.901929	-2.080848	0.823678	-0.397725	-0.711926	1.567868	0.26891	10.220487	2.480458	-6.531567	0.193951	-0.189389	0.105648	-0.870516	9.654744	3.835579	-0.40027	14.002809	7.098598	-13.15462	-0.43904	-0.745762	0.103653
6.461986	-4.003877	6.374964	-60.122109	-158.467508	5.295978	0.809915	-0.376523	-0.743145	1.215546	0.10028	9.873254	3.516268	-7.653696	0.306939	-0.20207	0.106645	-0.88459	9.000895	3.952228	-0.651508	13.758298	6.689944	-12.173871	-0.411015	-0.729161	0.102956
7.004325	-2.90683	7.810898	-74.621927	-176.577919	-3.819429	0.795423	-0.379677	-0.728719	1.455047	0.325551	10.331396	4.092803	-8.416531	0.854724	-0.214971	0.12189	-0.885318	9.545515	3.837827	0.076784	14.001207	6.5117	-12.601738	-0.438902	-0.728743	0.087288
6.234847	-2.612045	9.445255	-78.044435	-191.129432	-23.951063	0.824035	-0.376898	-0.743494	1.494911	0.09941	9.482821	4.047952	-9.549171	0.473489	-0.228167	0.136064	-0.871696	9.778839	4.069097	-0.037639	15.383082	6.775917	-14.013746	-0.424923	-0.729365	0.102886
4.083261	-2.030748	10.656123	-78.872678	-201.776647	-45.593645	0.811058	-0.400537	-0.750389	1.622262	0.663021	10.108749	4.620859	-10.645929	0.493873	-0.215416	0.090178	-0.868961	9.717197	3.77811	-0.219696	16.4909	7.15677	-14.966914	-0.425132	-0.745558	0.103723
1.304476	-1.965485	11.966278	-76.361492	-207.879545	-59.750354	0.838899	-0.370215	-0.771995	1.614639	-0.407638	9.654731	6.221166	-11.001197	1.663098	-0.215416	0.090178	-0.868961	9.606982	3.257179	0.135319	17.568732	7.47381	-15.675189	-0.439252	-0.743283	0.05707
-1.138618	-1.844719	12.885383	-72.903624	-211.826917	-62.892349	0.812201	-0.42455	-0.757633	1.911274	0.042846	10.114272	5.302409	-12.907083	0.595251	-0.214896	0.137211	-0.886322	8.897843	3.665332	0.123845	18.585877	7.850864	-16.291851	-0.397737	-0.758863	0.058117
-4.269055	-1.321364	13.792815	-71.25684	-212.665522	-56.100003	0.881646	-0.38511	-0.769627	1.570394	0.212674	10.333719	5.778448	-14.59967	-2.257375	-0.2017	0.123037	-0.899944	8.721045	3.084729	0.058164	18.44038	7.585408	-14.334273	-0.425553	-0.759272	0.057977
-6.59228	-0.912266	14.999619	-64.026877	-210.067079	-46.292533	0.870512	-0.373809	-0.864393	1.610496	0.493555	9.542211	5.87354	-14.528705	-3.551365	-0.176709	0.104651	-0.856442	8.135825	2.854764	0.285798	18.329381	7.250999	-11.612461	-0.411504	-0.76072	0.089103
-10.255042	0.067375	15.046165	-53.759359	-202.126784	-28.892505	0.859007	-0.366035	-0.945084	1.786149	0.211674	9.658879	7.08297	-14.346392	-5.64487	-0.241218	0.120668	-0.870417	8.302159	3.20059	-0.248579	17.383115	6.825609	-9.25386	-0.424994	-0.728539	0.087358
-13.283918	0.013336	15.271174	-41.86966	-190.378139	-10.332989	0.90134	-0.33256	-0.981115	2.022778	0.042488	9.946771	7.67691	-13.987712	-7.767936	-0.20266	0.104501	-0.855891	7.886845	3.201041	-0.376096	16.132769	6.577295	-6.375416	-0.412271	-0.807645	0.060558
-15.481115	0.527301	14.150824	-29.423105	-171.27874	5.735579	0.860464	-0.317323	-1.036371	1.682029	0.775669	10.223332	7.968436	-15.764198	-12.224521	-0.228537	0.119672	-0.856343	7.943796	3.142336	-0.495056	14.491283	6.619576	-2.152141	-0.384038	-0.774852	0.059025
-16.407912	1.502299	13.625433	-19.417461	-148.473955	11.25977	0.848573	-0.295779	-1.120478	1.903805	0.155223	9.774529	10.213137	-16.649379	-13.187162	-0.253974	0.106345	-0.883487	7.650376	3.375809	-0.379756	11.905408	7.195496	3.386384	-0.411783	-0.776086	0.074412
-16.031918	1.898792	12.384149	0.889951	-128.620868	7.230508	0.806168	-0.242757	-1.171906	1.846802	0.493361	9.830244	12.216587	-17.363829	-17.292665	-0.228537	0.119672	-0.856343	7.826283	2.445446	-0.560131	8.212461	8.693352	8.130074	-0.453369	-0.75968	0.057836
-9.893897	2.164055	21.881677	1.712254	-141.45739	3.247603	0.779399	-0.210595	-1.245003	2.14363	0.211502	10.232529	15.642078	-15.173753	-17.298962	-0.215561	0.119747	-0.856619	7.83057	2.969367	-0.258371	3.265842	9.138791	10.682774	-0.425486	-0.741427	0.026084
-28.290883	6.584634	17.84849	138.548027	-90.953989	28.451259	0.764864	-0.161851	-1.283053	1.848442	0.268086	9.886694	13.302666	-17.640154	-24.538838	-0.20222	0.076004	-0.882583	7.879122	2.734455	-0.857329	-0.303597	9.08115	12.071432	-0.452948	-0.745966	0.103583
-26.612237	2.598411	12.806433	274.935857	-57.035563	18.735567	0.668693	-0.221028	-1.291681	2.133528	0.436444	9.779602	18.659474	-13.967614	-22.401802	-0.201995	0.121965	-0.885594	8.056481	3.547609	-0.730752	-3.723362	8.597995	13.247631	-0.411157	-0.727509	0.071901
-26.357309	6.543052	8.452076	209.5602	-14.356912	18.176211	0.671322	-0.230928	-1.355229	1.915224	-0.126003	10.284048	16.076229	-13.309755	-24.863471	-0.241444	0.074707	-0.867406	8.057446	3.605932	-0.670598	-6.403617	8.180577	14.237451	-0.480976	-0.743896	0.056859
-35.464135	20.399268	23.279741	216.608344	-26.200303	8.303818	0.627474	-0.243918	-1.297878	2.810931	1.110643	9.228282	19.241531	-14.644384	-25.644857	-0.203326	0.087037	-0.826188	8.80817	4.065324	-1.493011	-7.861129	7.601388	13.54247	-0.425691	-0.77629	0.074342
-24.147739	13.303091	4.65908	453.66854	-68.463677	-11.743643	0.62826	-0.288759	-1.273555	1.798238	0.212148	10.225275	16.421509	-7.772633	-22.187876	-0.203257	0.042148	-0.837526	9.3354	5.748313	-1.475938	-7.151565	5.860998	10.522191	-0.425553	-0.759272	0.057977
3.559369	10.334952	-12.659246	259.489392	0.585312	97.769392	0.62946	-0.38197	-1.210832	1.633272	1.2268	10.675619	10.968064	-14.061195	-23.025455	-0.228688	0.089031	-0.854336	10.105796	6.270231	-1.219779	-5.300003	5.305674	11.618496	-0.410811	-0.694297	0.054699
9.233802	7.132201	5.168718	-230.261465	29.182555	48.143636	0.615754	-0.429965	-1.172083	0.377765	2.076988	13.933622	8.393486	-16.513531	-14.050439	-0.229058	0.072638	-0.838982	10.706111	5.690098	-0.731992	-5.041519	4.352599	15.137215	-0.410948	-0.711316	0.071064
-0.156473	-0.177447	13.422988	-72.495537	28.282706	-11.231225	0.588999	-0.415103	-1.227689	2.820368	0.212023	12.284852	9.633517	-68.096811	1.992259	-0.241444	0.074707	-0.867406	11.363107	5.167412	-0.362671	-6.915487	1.193603	15.311914	-0.453298	-0.760506	0.073364
0.179523	2.266152	7.302139	-43.982102	24.011869	-34.877591	0.602362	-0.405235	-1.217378	0.827755	2.52639	13.490556	26.261756	-87.633834	-8.546709	-0.254275	0.045063	-0.879473	10.905378	4.18392	0.283299	-7.101371	-3.40385	16.159833	-0.438973	-0.727917	0.07176
-2.478983	-0.125344	11.72995	-116.165935	16.32545	-31.604725	0.60272	-0.384407	-1.248945	1.964187	1.453291	12.720879	11.839023	-93.865779	1.645436	-0.267911	0.087734	-0.839159	10.851209	4.940526	0.644854	-5.111817	-8.401992	15.106649	-0.439323	-0.742457	0.041542
-1.492373	-1.559434	12.368231	-34.841844	10.106937	-19.180028	0.630203	-0.374914	-1.238984	2.759762	1.169702	12.22781	12.925833	-115.210733	2.359043	-0.255826	0.024383	-0.80672	10.561745	4.419506	0.876754	-6.078348	-12.393375	13.295221	-0.452743	-0.711102	0.055325
-1.123599	-0.417648	10.788965	-7.759005	11.628382	-9.480012	0.601176	-0.329323	-1.262609	2.477201	0.945109	12.448134	15.556311	-136.773042	1.345381	-0.268212	0.026452	-0.835144	10.139539	4.06977	0.328405	-8.315398	-14.231536	12.823041	-0.425482	-0.760098	0.073505
-1.211953	1.011918	9.258851	-2.125489	10.174351	-0.932572	0.672579	-0.393337	-1.222539	2.715278	1.282993	12.849732	4.243577	-147.190909	0.369587	-0.294383	0.04055	-0.821247	9.546521	4.825862	0.260708	-9.860523	-14.385601	12.401449	-0.424994	-0.728539	0.087358
-1.497935	0.610034	9.251594	-10.861134	10.797607	5.573544	0.645081	-0.385531	-1.249993	1.973858	1.45367	13.173996	5.362434	-158.836374	-0.022657	-0.333236	0.055646	-0.821423	9.771176	4.997077	-0.333218	-9.38076	-14.20284	9.678503	-0.439323	-0.742457	0.041542
-1.261538	1.185973	9.656433	-5.669616	5.993851	8.485862	0.644695	-0.37176	-1.253409	3.272912	0.832896	14.6727	5.60927	-173.585941	-1.617894	-0.334047	0.067751	-0.779377	10.477865	5.169438	-0.379177	-6.83031	-13.152748	6.607766	-0.439111	-0.744936	0.088125
-0.984008	0.954069	9.20621	-10.081692	2.708777	6.359847	0.64431	-0.357989	-1.256825	2.756572	0.552261	14.718222	0.186552	-187.04124	-1.108518	-0.334342	0.066679	-0.765028	10.236973	4.878362	-0.68435	-4.269434	-11.594643	4.69607	-0.453156	-0.762159	0.10442
0.005072	0.726976	10.020118	-19.109662	4.128464	7.574235	0.658816	-0.372134	-1.253758	2.951913	0.72183	15.798143	17.420203	-192.070145	-1.29874	-0.373495	0.020492	-0.76119	9.886447	4.763761	-0.511726	-3.685897	-10.346344	2.487408	-0.411712	-0.776912	0.08994
-1.130368	1.24695	10.511697	-17.930622	2.3973	6.224041	0.629074	-0.368199	-1.214248	2.420873	1.17297	15.221247	32.734187	-199.967693	-3.152877	-0.413749	0.045549	-0.690621	9.365321	4.24427	-0.0446	-3.238039	-10.13058	-0.479866	-0.410948	-0.711316	0.071064
-1.12422	0.443975	10.792585	-11.021052	0.727439	4.521001	0.644324	-0.375288	-1.239333	2.425015	0.271777	15.333767	51.634204	-204.85762	-2.631329	-0.451721	0.00365	-0.744182	9.431095	4.652398	0.377579	-3.722647	-11.549366	-2.457904	-0.425203	-0.744732	0.088195
-0.905265	0.49908	10.285602	-3.333791	0.153934	4.029548	0.600819	-0.350151	-1.231041	3.782005	0.72127	16.94786	66.968561	-205.636726	0.795186	-0.466538	0.042033	-0.646469	9.145628	4.306595	0.849849	-6.569911	-12.998426	-2.318427	-0.453019	-0.74514	0.088055
-0.911372	1.244613	10.004474	0.107753	0.801421	5.256847	0.615683	-0.343469	-1.259542	5.486005	0.325158	18.568496	72.320471	-226.151021	7.378006	-0.466914	-0.034569	-0.641451	8.262181	4.483343	0.953898	-9.415459	-15.257858	-0.708087	-0.425065	-0.727713	0.07183
-1.084083	1.01473	9.943315	-2.04791	-0.587357	4.872478	0.645053	-0.350932	-1.284977	4.953415	-0.066418	20.538461	57.862441	-240.191105	18.078717	-0.480405	-0.021468	-0.613479	7.725379	4.076542	0.582822	-11.026701	-17.576834	1.173156	-0.425553	-0.759272	0.057977
-0.631449	0.783426	9.666992	-0.9783	-1.293356	5.22593	0.62906	-0.3509	-1.231739	0.471259	0.843657	20.898041	70.829413	-239.319738	3.916571	-0.531568	0.011017	-0.643083	7.071394	4.251267	0.331831	-10.883725	-20.038604	2.681993	-0.397178	-0.728131	0.087499
-0.633593	0.668061	9.552803	-6.733552	-0.557173	5.714463	0.631304	-0.347029	-1.298703	1.62334	1.458848	18.318528	133.865285	-245.016244	6.839448	-0.533345	-0.055624	-0.56732	7.540337	3.726513	0.098782	-9.377192	-21.080649	3.415037	-0.411437	-0.742875	0.05721
-1.148225	1.300532	9.602289	-6.365715	-0.242574	5.227847	0.62906	-0.3509	-1.231739	0.182626	0.39112	18.117486	183.989954	-200.908208	16.998074	-0.534306	-0.07416	-0.523267	7.416958	4.132327	-0.141316	-7.477729	-22.0131	2.556827	-0.425274	-0.743905	0.072668
-1.090556	0.726075	9.60099	-5.688367	-0.123104	5.81051	0.587799	-0.321892	-1.290411	3.410627	2.29827	15.865782	248.578779	-194.662697	37.30562	-0.573825	-0.076529	-0.49374	7.363984	3.901394	0.156129	-4.987857	-21.275754	0.129797	-0.425203	-0.744732	0.088195
-0.799416	0.152417	9.831556	-4.859858	0.378727	5.264276	0.659559	-0.365078	-1.28191	0.885448	-0.457088	15.923546	303.755115	-166.28647	48.669355	-0.600743	-0.155425	-0.459471	7.954841	4.074519	0.227782	-3.1443	-20.139335	-2.663498	-0.466856	-0.74617	0.103513
-1.027403	0.267707	9.884438	-7.103129	0.041009	4.314566	0.630561	-0.354086	-1.270551	0.363463	-8.676412	20.377852	216.127169	-145.418798	85.157285	-0.600743	-0.155425	-0.459471	8.296137	3.896514	-0.48524	-2.551502	-18.101536	-4.32572	-0.3976	-0.741845	0.041752
-0.573863	0.323852	9.666175	-7.18371	1.416209	4.981156	0.603448	-0.360051	-1.294589	1.797659	-11.733207	6.421577	199.2437	-281.368853	114.226705	-0.614755	-0.189357	-0.414139	8.242644	4.362741	-0.124921	-1.373739	-16.277287	-5.836212	-0.452881	-0.728121	0.07169
-1.076739	0.097113	10.280572	-0.372633	2.397874	5.222841	0.629789	-0.326544	-1.277383	-14.522092	-24.675021	-12.615266	383.854982	-299.049331	-12.23899	-0.653903	-0.175333	-0.399966	8.951377	4.128816	-0.112705	-0.870257	-14.37	-6.733417	-0.439178	-0.762781	0.120018
-0.851393	0.555756	10.116398	-1.565586	3.042871	4.776752	0.631318	-0.364329	-1.281211	-15.349111	-9.074347	-17.600922	219.041521	-60.190911	-186.332153	-0.681406	-0.196163	-0.326662	8.727148	4.248228	0.542364	-0.61496	-12.336502	-8.088734	-0.425412	-0.760924	0.089032
-1.085072	0.842164	9.885738	0.130877	4.740968	4.799466	0.616454	-0.371011	-1.25271	-7.419024	2.811061	-0.835937	-253.855218	183.016348	-170.179862	-0.629948	-0.227576	-0.311408	9.081109	4.305494	0.549214	-2.170799	-9.827999	-8.675727	-0.439532	-0.758649	0.042379
-1.142036	0.440115	9.882935	-0.405709	6.541449	5.719614	0.600819	-0.350151	-1.231041	-5.821545	-7.433614	11.077554	-148.981732	213.679834	-33.0339	-0.641668	-0.208043	-0.369535	9.198892	4.886231	0.613794	-4.004489	-8.220118	-8.034982	-0.425203	-0.744732	0.088195
-1.373488	0.727006	9.765981	-4.870225	5.077591	2.887297	0.629818	-0.361142	-1.242399	-8.20966	-6.634506	17.878417	-49.693908	101.801735	-116.33531	-0.653613	-0.234471	-0.42465	9.496829	4.130815	0.675989	-4.738042	-7.024171	-8.588128	-0.411641	-0.777739	0.105468
-0.914132	0.439708	9.830536	-3.981701	5.207794	2.610849	0.616826	-0.367482	-1.266786	-8.430694	-1.68572	7.97066	47.69519	81.064977	-74.021033	-0.614541	-0.263815	-0.43782	9.304374	4.127759	-0.166009	-6.252774	-6.463256	-10.113349	-0.411362	-0.762372	0.120158
-0.74472	0.611426	9.720894	-2.636456	5.004534	2.112993	0.644324	-0.375288	-1.239333	-7.65864	-4.451326	3.455302	-12.181681	133.350937	-18.125205	-0.61336	-0.259528	-0.495219	9.546211	4.012303	0.137433	-7.174392	-5.914102	-10.295994	-0.467064	-0.762363	0.10435
-1.02398	0.153548	10.054515	-3.403271	5.002695	1.961833	0.615311	-0.346997	-1.245466	-4.903788	-6.200835	5.662956	-49.959211	155.857119	-14.756427	-0.665559	-0.2609	-0.479766	9.139005	3.840256	0.428523	-8.976102	-4.804946	-8.736175	-0.41185	-0.793931	0.106305
-0.683876	0.267459	9.891119	-1.965256	4.891362	1.526538	0.61494	-0.350525	-1.23139	-4.343859	-4.059444	7.827943	-66.960084	182.351809	-10.067253	-0.638276	-0.225821	-0.539724	9.016011	3.606986	0.125798	-11.370929	-4.242814	-7.721676	-0.397525	-0.761342	0.104701
-0.73808	0.670315	10.062254	-4.629492	5.623764	0.902088	0.631318	-0.364329	-1.281211	-3.111609	-4.905811	8.872131	-75.145115	204.906863	-4.63943	-0.637691	-0.283887	-0.578759	8.785448	3.608762	0.420931	-13.035592	-4.218213	-7.715764	-0.425203	-0.744732	0.088195
-0.919575	0.266177	9.545547	-3.58338	6.242904	0.939807	0.615283	-0.312398	-1.28045	-2.217673	-4.007243	7.702801	-80.524495	223.096938	-15.159789	-0.661947	-0.292927	-0.663302	8.432161	3.261116	0.412845	-13.899669	-4.002469	-8.172079	-0.42562	-0.777116	0.08987
-0.800695	0.381942	9.775669	-6.947006	7.613189	0.695749	0.671793	-0.348495	-1.246863	-0.883304	-3.107959	8.297761	-101.543473	231.661438	-21.750042	-0.622353	-0.275237	-0.693832	8.430521	3.493173	0.353927	-14.94757	-3.789596	-8.413786	-0.41185	-0.793931	0.106305
-0.910874	0.555315	10.001578	-7.249978	8.697073	-0.144463	0.63016	-0.323015	-1.291459	1.164794	-2.828751	9.926219	-116.996407	228.536129	-27.989726	-0.581064	-0.266437	-0.809458	8.604444	4.363661	0.30103	-15.468941	-3.548347	-8.260245	-0.453086	-0.762985	0.119948
-0.970356	0.554874	9.886758	-8.835395	10.51213	-0.938437	0.601548	-0.325795	-1.276685	1.74995	-1.477422	10.505842	-127.38733	225.213487	-31.699488	-0.55378	-0.231359	-0.869415	8.722726	3.782383	0.240852	-16.145688	-3.398473	-8.197388	-0.398222	-0.809093	0.091684
-0.916442	0.554109	9.717312	-8.648643	11.475021	-1.751365	0.615297	-0.329698	-1.262958	2.407478	-0.914307	11.709046	-138.82973	227.059182	-31.751965	-0.486759	-0.20816	-0.972246	8.422278	3.723746	-0.064432	-16.359921	-3.091784	-8.35088	-0.453578	-0.775872	0.058673
-0.913842	0.037617	9.828847	-9.320235	12.371746	-2.501566	0.61684	-0.384782	-1.249295	3.515727	-0.915786	12.41169	-144.338058	221.404251	-34.587041	-0.498404	-0.173306	-1.031376	8.544577	3.782541	0.177643	-16.860394	-3.576675	-8.957968	-0.440087	-0.808053	0.060418
-0.732264	0.326872	10.345072	-9.254388	13.579552	-3.279505	0.628303	-0.340657	-1.221079	4.779209	-0.636599	12.325244	-150.103565	216.913509	-42.743548	-0.419216	-0.137928	-1.092437	8.481834	3.491307	-0.064321	-16.682328	-4.09066	-9.475691	-0.439386	-0.778973	0.120855
-1.083793	0.612639	9.941626	-8.419606	14.657927	-3.172375	0.659173	-0.351307	-1.285326	5.553123	1.165715	13.701828	-156.350021	216.166039	-48.273738	-0.340695	-0.120013	-1.123794	8.7212	3.491509	0.119802	-16.969882	-5.283352	-9.5912	-0.438969	-0.746588	0.119181
-1.022783	0.038906	10.110885	-8.930314	16.691319	-3.812564	0.658416	-0.341064	-1.274666	5.341448	1.561218	14.603558	-154.247624	211.669776	-44.987687	-0.28827	-0.07268	-1.142258	8.830024	3.663489	-0.356511	-17.37413	-6.830602	-7.993194	-0.453365	-0.778351	0.105257
-0.967963	0.32559	9.999499	-10.759614	18.751705	-4.663202	0.643924	-0.344218	-1.26024	4.870823	1.787023	14.140959	-149.996428	204.273997	-34.330569	-0.196623	-0.02405	-1.175898	8.654771	3.838617	-0.239257	-17.800419	-7.711632	-5.756478	-0.439946	-0.809706	0.091474
-1.487707	0.324998	9.762065	-15.251495	21.50779	-5.617548	0.643924	-0.344218	-1.26024	4.697565	1.449316	14.080409	-151.281261	199.299855	-20.725027	-0.157544	0.006816	-1.178733	8.966608	3.260642	0.60247	-18.315833	-7.761127	-4.104045	-0.453574	-0.794543	0.106094
-0.621096	0.326065	10.176739	-17.438517	25.727868	-7.352137	0.672894	-0.320611	-1.306583	6.199101	1.446703	14.338399	-155.402703	189.917338	-8.244245	-0.143897	0.084565	-1.198376	8.658457	3.200275	-0.122162	-18.466523	-8.047691	-3.063024	-0.41213	-0.809297	0.091614
-1.202838	0.72664	9.712469	-19.012532	28.824008	-7.29728	0.657644	-0.313522	-1.281497	7.33625	1.89467	13.739921	-158.006412	175.585948	0.396938	-0.065451	0.087159	-1.22873	8.898788	3.2588	0.122114	-18.061759	-7.991693	-2.422951	-0.398151	-0.809919	0.107212
-1.022659	-0.133418	10.110161	-23.39431	32.215754	-4.653339	0.658402	-0.323765	-1.292157	9.053541	1.891057	13.323071	-164.774052	166.090245	1.375963	-0.05321	0.114659	-1.187964	8.841278	3.084954	0.180179	-18.179912	-7.78464	-1.781701	-0.425616	-0.795788	0.13729
-1.25844	-0.019817	9.765071	-27.413808	36.000496	-3.997544	0.672136	-0.310368	-1.295922	10.031037	4.36791	13.515628	-170.813689	157.349863	-4.11079	-0.014427	0.144454	-1.176449	8.787629	3.144401	0.47886	-18.320815	-7.065264	-0.409307	-0.355592	-0.744537	0.104074
-1.241904	0.213568	10.618833	-29.003767	40.148869	-1.901418	0.67025	-0.293411	-1.260526	12.693229	4.532513	14.251055	-163.14513	144.494911	-14.467299	0.01197	0.176316	-1.193357	8.842243	3.143277	0.240333	-18.301521	-6.325776	2.03214	-0.426108	-0.808675	0.076016
-1.638308	-1.221457	10.775565	-29.444109	44.19513	4.237828	0.685514	-0.317799	-1.26812	13.524333	5.656321	12.854147	-145.820948	129.769827	-29.520045	0.037702	0.190715	-1.180563	8.317295	3.320204	0.590612	-17.997276	-5.661593	5.940041	-0.39836	-0.826112	0.108049
-1.931925	-0.303632	10.43274	-27.216274	49.532998	8.672859	0.672151	-0.327668	-1.278431	14.354121	6.836412	11.400647	-139.933566	115.10598	-43.502022	0.076786	0.281791	-1.173062	8.557627	3.378729	0.834889	-17.382098	-4.877097	10.152017	-0.398568	-0.842304	0.108886
-1.640043	-0.360075	10.722332	-30.635297	59.87572	11.150774	0.685485	-0.283201	-1.303103	15.041626	7.285668	11.302254	-135.095278	100.208902	-61.555584	0.114973	0.249231	-1.143182	8.390057	3.090731	1.309606	-16.586093	-4.363447	13.997976	-0.398151	-0.809919	0.107212
-2.219393	-0.188783	10.370802	-24.766814	64.030305	15.709241	0.712983	-0.291006	-1.27565	15.705455	9.367703	10.242364	-126.022408	80.635847	-78.264542	0.141666	0.282166	-1.174441	8.137351	3.145639	0.406848	-15.140764	-4.037304	18.453943	-0.412409	-0.824664	0.076923
-1.521246	-0.129426	10.952936	-18.165135	70.322628	16.313828	0.727861	-0.301624	-1.286659	11.727721	9.205911	9.875608	-124.129163	67.79037	-92.815866	0.12825	0.310588	-1.147473	8.263201	2.624168	0.766266	-13.332624	-3.851426	21.808964	-0.411708	-0.795584	0.13736
-1.617406	0.678939	11.92059	-15.904494	64.722334	23.330406	0.727475	-0.287853	-1.290075	17.679228	15.343269	19.68704	-107.730555	64.090126	-123.352697	0.11572	0.342226	-1.163554	8.382084	3.205153	0.890753	-11.871473	-4.086498	24.34198	-0.439737	-0.793513	0.090636
-2.137766	-0.011192	11.623408	-4.622309	87.41516	26.518493	0.713355	-0.287478	-1.289726	12.819584	14.219948	12.960128	18.797721	31.626616	-93.091374	0.154868	0.328202	-1.177727	8.442606	3.031037	0.951018	-8.999343	-4.644119	26.015534	-0.440221	-0.843743	0.124203
-1.570706	-0.127696	11.349794	1.111831	89.722691	31.292205	0.767594	-0.292847	-1.224159	13.32697	16.02127	12.632688	91.249447	36.777908	-65.02519	0.153687	0.323915	-1.120328	8.796297	3.204455	0.958363	-5.92284	-5.675876	26.284438	-0.439528	-0.777321	0.089799
-2.25632	0.964673	11.454724	16.162401	98.90397	40.627186	0.741267	-0.343654	-1.223873	14.029351	17.54147	13.328151	134.482503	23.038615	-36.428977	0.089322	0.310363	-1.146645	8.794252	3.61074	0.900186	-1.961576	-7.835227	26.463813	-0.439319	-0.761128	0.088962
-2.70495	0.277636	11.897745	14.811362	107.488338	41.690422	0.768722	-0.299561	-1.248895	19.696414	23.564464	20.58587	228.138536	10.748221	9.117716	0.167988	0.298708	-1.190345	8.862996	2.741195	1.316926	2.500879	-9.666083	27.587459	-0.426041	-0.79083	0.044123
-2.01798	0.392022	11.911589	25.906778	123.067068	40.593334	0.769523	-0.361702	-1.207079	2.278439	1.44669	5.877158	360.845986	-55.809719	147.588442	0.14129	0.205564	-1.169422	9.680304	3.260258	0.915209	6.060352	-11.793714	27.523583	-0.439528	-0.777321	0.089799
-2.587759	-0.353821	12.011023	28.764562	135.513743	30.515888	0.781714	-0.293221	-1.224508	1.942453	10.916676	12.558927	111.241686	-111.900955	-31.346386	0.140769	0.158531	-1.152062	10.744762	5.640676	1.364502	2.518419	-11.910434	22.798771	-0.425829	-0.793309	0.090707
-2.990648	1.024824	11.952167	10.178156	147.777418	22.336433	0.797364	-0.331381	-1.228685	6.138228	3.028786	19.716862	108.766385	-108.534347	35.736474	0.088865	0.158231	-1.150959	12.277352	7.844796	1.582229	-7.409463	-11.639549	16.842165	-0.411504	-0.76072	0.089103
-2.440798	0.974489	13.724393	4.196323	166.513797	6.467053	0.867223	-0.34031	-1.20228	-1.175768	3.253492	3.258568	126.525001	-117.606412	64.117784	0.128164	0.174848	-1.167139	12.682607	7.43534	1.108946	-15.839612	-9.53038	17.015469	-0.439595	-0.795166	0.121692
-4.465492	-1.716293	15.435412	-2.402014	188.04424	-6.995049	0.850459	-0.312736	-1.155874	2.362145	1.053265	7.067467	3.457715	-49.337596	71.912071	0.089155	0.099093	-1.175644	13.379195	6.268986	0.338417	-13.793739	-3.579596	16.062646	-0.410874	-0.730814	0.134012
-3.951854	-0.970167	15.391717	5.862444	190.281138	2.248723	0.906213	-0.33859	-1.111627	1.945399	-1.364184	11.585716	35.112356	-23.860263	36.025597	0.063133	0.143832	-1.163754	12.594007	4.05866	-0.943328	-7.990413	-1.401987	8.60372	-0.425203	-0.744732	0.088195
-4.580498	-1.026911	15.436081	13.205778	206.039003	5.029263	0.906227	-0.355889	-1.094135	0.828607	2.8597	8.169136	31.880452	-39.096465	19.439229	0.101836	0.098096	-1.16157	10.919546	4.057496	-2.172278	-1.766411	-0.909315	1.549079	-0.425061	-0.746384	0.119251
-4.163631	-1.713122	16.236923	13.208727	223.470247	8.80878	0.919204	-0.33225	-1.08724	1.889238	1.450351	9.209224	-3.483751	-30.718074	29.63701	0.088564	0.096949	-1.146944	9.904227	5.451638	-2.664307	3.387615	1.525046	4.544593	-0.397801	-0.795379	0.137431
-4.993543	-0.097624	17.76201	20.441429	236.870866	10.72324	1.019191	-0.358886	-1.096929	2.198947	-1.140728	10.006041	-19.243872	-10.274995	19.438015	0.037477	0.144754	-1.177552	8.836455	5.917688	-2.921765	5.004933	1.659488	6.891543	-0.467131	-0.780208	0.136242
-3.722836	-4.69217	18.165174	41.838236	263.873172	23.826757	0.9742	-0.347862	-1.032333	2.553733	0.267362	10.580876	1.40537	-3.975853	-3.542517	0.049712	0.112044	-1.147121	7.665745	5.57391	-2.466002	6.274088	1.371791	2.609354	-0.453294	-0.779177	0.120785
-5.271524	-0.785026	18.151519	52.269454	284.287774	25.631328	1.031454	-0.376902	-1.026899	1.197113	0.888244	9.080963	7.929791	-11.360135	-10.516085	0.0882	0.140766	-1.121256	7.87152	5.057002	-0.967253	6.852819	1.725602	-4.790582	-0.397592	-0.779187	0.136593
-3.495517	-2.337233	18.179522	37.639209	314.32772	4.757936	1.044074	-0.374091	-0.988436	1.540435	1.338194	9.031957	-8.233486	-2.504881	-12.783923	0.010784	0.111819	-1.146294	7.11491	5.235457	-0.381748	3.999845	2.89514	-9.431125	-0.481039	-0.780412	0.136172
-4.526694	-0.600654	21.121965	25.645733	301.975164	-1.818077	1.043346	-0.398447	-0.942792	1.665775	1.056705	9.487254	-22.519037	1.325939	-12.079124	0.037176	0.083472	-1.173537	7.662426	5.296027	0.527006	0.475595	5.85311	-9.768643	-0.43904	-0.745762	0.103653
-3.533445	1.745983	19.332603	35.897803	281.714058	-11.286011	1.111305	-0.37312	-0.898482	1.401886	0.55117	10.556935	-15.731952	-1.6646	-10.469547	0.049637	0.096724	-1.146117	7.895305	4.771813	0.289555	-2.379082	7.122561	-9.275394	-0.453156	-0.762159	0.10442
-3.772586	-0.566512	15.794718	46.686883	250.383472	-22.009628	1.097213	-0.407344	-0.863149	1.737069	0.831797	10.111309	-7.665303	-3.884024	-11.779877	0.02413	0.128286	-1.161923	8.777786	4.536742	0.125352	-5.959415	6.526897	-9.106783	-0.425341	-0.76175	0.10456
-2.713916	1.264799	14.402269	56.351531	216.111588	-17.902282	1.137688	-0.39151	-0.8288	1.330485	0.832409	9.932928	-7.008519	-3.31878	-12.544412	0.062172	0.125296	-1.119701	8.597976	4.304102	-0.058659	-10.260797	5.734097	-10.829367	-0.425128	-0.764229	0.151144
1.323602	0.853734	13.058311	64.044073	177.822251	-10.143541	1.179721	-0.44806	-0.763297	1.49485	1.395106	9.597191	-6.527796	-4.213687	-10.734108	0.049341	0.095652	-1.131767	9.009313	4.593289	-0.109626	-15.528996	4.679572	-14.197397	-0.439457	-0.778147	0.105327
2.424886	-0.810204	13.697853	109.640934	162.166441	-19.393322	1.192284	-0.376051	-0.794801	1.439918	1.282648	9.709167	-5.765625	-4.772376	-8.211194	0.036956	0.097721	-1.160191	8.297663	4.187388	-0.36419	-18.66793	3.908647	-17.635516	-0.425829	-0.793309	0.090707
14.805523	-5.252329	11.53307	144.472306	140.374275	-20.246827	1.177092	-0.43816	-0.699749	1.386972	1.395606	9.934611	-5.805007	-5.217789	-5.811097	0.011154	0.128211	-1.161647	7.885806	4.59536	-0.250348	-18.769273	3.148921	-18.151018	-0.453712	-0.811562	0.122459
37.963903	-2.382904	1.822977	210.999187	150.217318	-51.044976	1.175563	-0.400375	-0.69592	1.38507	0.494176	9.763933	-6.977339	-5.109417	-5.903446	0.062392	0.111047	-1.133047	7.590165	4.363484	-0.316746	-19.557983	3.649362	-16.530942	-0.411712	-0.776912	0.08994
16.36172	-6.585018	9.114014	2.592157	-48.084104	-101.164979	1.162971	-0.437785	-0.699399	0.877107	0.889886	10.263141	-8.858011	-4.969733	-7.475782	0.010193	0.109675	-1.117594	8.017739	4.772532	0.531384	-21.462996	3.909602	-15.730753	-0.453853	-0.80991	0.091403
5.571048	-4.604831	13.458903	44.931801	-46.66786	-105.713524	1.175963	-0.431445	-0.675013	1.681359	0.493969	10.166455	-7.453651	-3.733315	-6.260079	0.037326	0.114113	-1.175545	8.648074	4.82492	-0.474681	-20.94191	3.420468	-15.57751	-0.453156	-0.762159	0.10442
6.055954	-8.440861	2.99537	176.437704	-22.923859	-99.047447	1.161428	-0.382701	-0.713063	1.675315	0.493732	9.883257	-6.516158	-2.86433	-6.03489	0.02354	0.126143	-1.133223	8.770082	4.535012	-0.293996	-21.638011	2.799911	-17.925055	-0.453015	-0.763811	0.135475
6.298184	-9.140017	0.723918	26.205343	-79.689644	-69.835788	1.132444	-0.389009	-0.684212	0.98915	0.607876	10.095403	-7.547844	-1.548782	-7.59485	0.049197	0.125221	-1.119425	9.069275	4.186622	-0.110256	-22.795551	2.796741	-20.97666	-0.439595	-0.795166	0.121692
6.814674	-5.898008	6.771653	-19.779617	-126.015285	-38.367144	1.147693	-0.396098	-0.709298	1.741558	0.381295	10.280848	-0.486091	-4.980938	-8.270675	-0.001822	0.128136	-1.161371	8.478438	4.478352	-0.120025	-19.970888	3.046607	-23.463234	-0.454062	-0.826102	0.09224
6.259739	-5.606526	7.671374	5.717198	-159.010525	-17.474755	1.174005	-0.327992	-0.727075	1.332471	1.057826	10.046397	-1.205218	-3.27045	-8.655004	0.036591	0.141538	-1.134503	8.480369	4.594999	0.000284	-17.072311	3.118211	-23.474072	-0.426175	-0.82652	0.107909
6.366412	-5.550856	7.275871	5.395412	-196.048277	-0.961726	1.091526	-0.321874	-0.791944	0.995648	1.002474	10.435573	0.446427	-4.481344	-7.833371	0.023169	0.10975	-1.11787	8.539925	4.36256	0.000395	-13.799733	2.77992	-22.170345	-0.439107	-0.763607	0.135546
5.951114	-5.49626	6.529228	2.884948	-226.261175	9.196412	1.093412	-0.338831	-0.82734	1.897246	1.056321	9.548729	2.953538	-6.446916	-7.17269	0.062763	0.12744	-1.1484	8.1761	5.23278	-0.421847	-10.160354	2.759578	-21.908409	-0.41185	-0.793931	0.106305
5.601688	-5.037686	6.240212	-14.001594	-248.294949	13.609821	1.078934	-0.359284	-0.795423	1.156017	0.494654	9.815737	0.480759	-4.062098	-6.226136	0.036736	0.111969	-1.146845	7.710938	4.131404	-0.195721	-6.08336	2.977943	-20.915812	-0.425829	-0.793309	0.090707
5.102811	-4.631603	7.084676	-31.241111	-263.204795	10.872131	1.052536	-0.323594	-0.882596	1.567999	0.832263	10.277601	1.292011	-5.946155	-7.26153	0.023615	0.141463	-1.134227	7.875341	4.360584	-0.850406	-2.395835	3.794375	-18.732883	-0.453645	-0.793717	0.090566
4.488186	-4.053354	7.870784	-43.637406	-273.991576	1.931333	0.967813	-0.321346	-0.880501	1.847903	0.549739	9.886931	2.523208	-6.269212	-7.047958	0.010934	0.14246	-1.148301	7.822253	4.652582	-0.490829	-0.161593	3.713123	-16.020868	-0.398151	-0.809919	0.107212
3.818783	-3.819231	8.768037	-53.356343	-281.319938	-9.721751	0.953664	-0.286373	-0.915135	1.907132	0.94404	10.001751	0.959817	-5.366606	-7.441001	-0.002557	0.155562	-1.120329	8.710931	4.593223	-0.294849	2.43072	4.05956	-16.093026	-0.411988	-0.81095	0.12267
2.926013	-3.698618	9.944618	-56.918276	-284.495337	-21.479299	0.912031	-0.260893	-0.959731	1.398583	0.382037	10.386874	1.247934	-7.13206	-8.876392	0.037326	0.114113	-1.175545	8.953848	4.013159	0.006615	2.493898	4.677891	-16.707383	-0.439319	-0.761128	0.088962
0.594128	-3.6361	10.69515	-59.549454	-285.405944	-26.363411	0.87117	-0.262956	-0.997496	1.866598	0.888481	10.793449	4.588519	-6.724952	-8.376416	0.037176	0.083472	-1.173537	9.077383	4.014125	0.30835	1.3137	4.317312	-17.740383	-0.454129	-0.843947	0.124133
-0.939327	-3.862093	11.289505	-64.273993	-286.29679	-25.720152	0.870784	-0.249185	-1.000912	1.911513	0.549868	10.171338	4.848606	-5.76674	-9.044885	0.036221	0.125146	-1.119149	9.192249	3.955037	0.130583	1.671786	3.192482	-18.286365	-0.426175	-0.82652	0.107909
-2.402871	-3.108727	12.571312	-70.704452	-281.676577	-23.3262	0.800924	-0.240255	-1.027318	1.448572	0.550636	10.048388	5.883621	-7.064809	-10.166749	0.062618	0.157009	-1.136058	8.594519	3.89658	-0.300017	1.760361	2.268811	-17.671109	-0.412197	-0.827142	0.123507
-2.990191	-3.32887	14.718516	-74.23224	-275.885848	-25.277078	0.744799	-0.217929	-1.057488	1.67456	0.888046	9.883589	7.007935	-6.271565	-12.069257	0.050157	0.143757	-1.163478	8.002717	4.129988	-0.369939	1.269601	1.548025	-16.168514	-0.425758	-0.794135	0.106234
-3.142534	-2.46278	15.742151	-60.688642	-270.659363	-35.598841	0.68866	-0.178304	-1.105151	2.073568	1.05614	9.722275	6.818196	-6.89818	-15.096711	-0.002707	0.124921	-1.118322	8.478263	3.606718	-0.243547	2.066299	0.132123	-15.033957	-0.412476	-0.842509	0.108816
-3.994286	-2.358173	13.168655	-45.936577	-258.60071	-45.568361	0.659619	-0.115414	-1.146268	1.510649	0.719709	10.276297	7.571425	-8.419685	-15.419504	0.010709	0.096499	-1.14529	8.238471	3.315889	-0.488812	3.738136	-1.427292	-11.548772	-0.426872	-0.874271	0.094892
-8.345716	-2.859651	15.980252	-84.265741	-263.405212	-39.155519	0.631006	-0.118193	-1.131494	1.676093	0.719101	9.940086	10.640971	-7.75024	-18.061506	0.036441	0.110897	-1.132495	7.479235	3.203223	-0.084264	1.998199	-2.150074	-7.321663	-0.38431	-0.82756	0.139175
-10.89264	-2.104533	17.468316	-76.191685	-261.103396	-32.638376	0.56229	-0.133278	-1.165144	2.131349	0.943372	9.723389	10.05212	-8.225806	-21.519318	0.023169	0.10975	-1.11787	7.418153	3.144787	-0.205426	0.852724	-2.887138	-1.507256	-0.425687	-0.794961	0.121762
-14.218757	-2.390543	17.118261	-65.985839	-257.957562	-15.593502	0.502392	-0.077037	-1.124522	1.798584	0.66284	10.282294	10.415802	-9.088291	-24.918534	0.010633	0.081178	-1.144286	7.302051	3.261704	-0.087318	0.415078	-2.873961	2.987036	-0.39808	-0.810746	0.12274
-18.427737	-1.761933	15.561451	-56.767595	-245.102496	7.620856	0.475294	-0.100302	-1.131068	1.688289	0.663245	10.506435	16.704592	-7.628325	-24.960611	0.011004	0.09757	-1.15964	7.058553	3.144361	-0.511563	-0.506895	-2.382906	8.428472	-0.38466	-0.8421	0.108956
-21.148926	-1.536733	13.975049	-59.498347	-219.879567	28.552834	0.446281	-0.072011	-1.137201	1.847796	0.60607	9.886979	19.939421	-8.492264	-27.247758	0.022874	0.108678	-1.10352	6.943532	2.796669	-0.395433	-1.170671	-1.602409	15.548984	-0.4115	-0.779391	0.136523
-23.009651	-0.50749	12.522433	-82.269124	-193.227842	42.572708	0.432132	-0.037038	-1.171836	1.388612	1.170332	9.991061	14.25182	-11.635377	-31.260176	0.035624	0.062792	-1.100785	7.112358	3.491693	-0.748607	-1.188356	-0.847962	22.453707	-0.426597	-0.840234	0.062162
-23.977657	-0.16093	12.789217	-96.913063	-167.244615	50.82416	0.401619	-0.00556	-1.139157	2.080044	0.831055	10.005283	18.810489	-12.477377	-29.63109	0.010269	0.124996	-1.118598	7.12002	2.563713	-0.453028	-1.949765	0.28351	28.136909	-0.412126	-0.827969	0.139034
-33.721997	10.222146	21.224836	-145.162803	-166.682708	79.114206	0.331788	-0.031229	-1.130579	1.90888	0.662435	10.058154	25.264795	-14.885965	-28.601749	0.010564	0.126068	-1.132947	7.290061	2.736053	-0.808426	-3.094472	1.283722	31.590712	-0.426246	-0.825694	0.092381
-28.604557	3.52158	13.396706	117.046676	-105.283803	65.746075	0.30239	0.010833	-1.140128	1.68112	-0.013053	10.109389	17.416755	-15.07975	-28.2709	0.023685	0.096574	-1.145566	7.466144	2.677324	-0.865279	-4.150336	2.694865	33.788903	-0.39808	-0.810746	0.12274
-29.989923	7.414324	10.033172	101.918703	-75.574072	80.557077	0.289784	-0.009278	-1.161099	1.903098	1.788903	9.889183	23.322395	-17.457387	-33.067849	-0.002342	0.081103	-1.144011	7.767443	3.317216	-0.437709	-5.863335	4.308355	33.940262	-0.397178	-0.728131	0.087499
-28.049696	12.594516	12.877437	121.820383	-21.903888	78.42873	0.288655	-0.002564	-1.136363	1.907455	0.775048	10.001609	22.755507	-15.642068	-30.399209	-0.041641	0.064486	-1.12783	8.36021	3.142132	-0.307633	-7.800315	5.78137	32.809119	-0.439737	-0.793513	0.090636
-24.333641	24.46278	21.922118	205.004083	53.023054	4.564815	0.303904	-0.009653	-1.161449	0.11849	2.076281	12.569436	20.759391	-13.097442	-38.914307	-0.041936	0.063414	-1.11348	8.709115	3.953645	-0.477289	-9.24439	7.629568	31.062999	-0.42562	-0.777116	0.08987
-33.04052	31.567139	15.986002	386.88044	78.231882	-27.600046	0.289855	-0.095775	-1.07364	2.353674	4.555151	17.770456	3.642047	-53.577041	-25.551216	-0.003014	0.003429	-1.124643	9.999848	5.808365	-0.624889	-9.65133	9.005969	27.970324	-0.411571	-0.778565	0.120995
-7.422957	4.382783	-9.65862	548.207302	84.945704	-63.050318	0.318468	-0.092996	-1.088415	0.791925	1.907668	14.451699	22.760786	-102.402418	-27.685708	-0.029406	0.031776	-1.097399	10.986042	8.417019	-1.194125	-5.160583	10.688262	23.605203	-0.453853	-0.80991	0.091403
-2.747144	21.078028	13.519019	40.753092	22.284509	-10.55058	0.292542	-0.174873	-1.067221	1.005286	2.526256	13.720741	28.902935	-121.687955	-22.539403	-0.042156	0.077662	-1.100134	13.235724	9.633709	-0.607954	-1.174907	12.863755	27.584938	-0.4259	-0.792483	0.075179
1.124222	8.258992	11.949038	-11.538164	-0.228938	-46.807004	0.336061	-0.217309	-1.058022	2.75323	2.298507	14.719692	30.253002	-148.876076	-19.972369	-0.042086	0.032773	-1.111473	14.317567	6.904672	0.119116	-2.99892	11.348361	34.477133	-0.439946	-0.809706	0.091474
0.51914	3.688872	4.245899	-24.543154	85.230947	-0.32268	0.308205	-0.230331	-1.053907	1.468748	1.232176	16.446814	34.472608	-173.308275	-11.4876	-0.093695	0.033545	-1.12472	12.822621	3.663095	1.81396	-15.038928	10.865556	26.727613	-0.411362	-0.762372	0.120158
-2.321778	-0.013722	10.994683	-95.443129	18.105431	-36.45126	0.350167	-0.200385	-1.075863	2.029011	1.061491	15.722446	66.50017	-183.495685	8.074412	-0.133509	0.030104	-1.080843	10.992371	5.410304	1.966984	-11.372321	7.299014	9.032917	-0.453645	-0.793717	0.090566
-0.373776	2.742787	11.214684	-0.871983	32.353617	-29.252767	0.378408	-0.201134	-1.076561	1.678984	3.484349	15.717232	64.319778	-194.713052	34.073734	-0.134099	0.02796	-1.052144	10.093404	6.106522	1.294468	-4.918929	-3.82806	-1.237362	-0.411992	-0.792279	0.075249
0.849253	3.123659	6.466324	-57.438585	50.668909	-30.632582	0.34941	-0.190142	-1.065202	-0.591453	4.846689	22.690906	19.704603	-174.703723	56.064847	-0.187259	0.008052	-0.992638	8.965879	5.46852	0.851492	-9.046797	-12.57737	6.399097	-0.454204	-0.82445	0.061185
-3.318191	-1.971337	9.716781	-101.507024	36.883894	-33.551879	0.376165	-0.205004	-1.009597	0.309649	2.874832	24.293289	38.658653	-198.352314	71.38452	-0.199569	0.025441	-1.022066	8.598847	5.350212	0.125512	-13.579671	-17.401201	18.817755	-0.439182	-0.744109	0.072597
-1.360173	-1.383332	13.280831	-58.855536	12.781844	-18.23931	0.404749	-0.167627	-1.059355	2.84159	1.853662	21.514856	55.703451	-260.408084	86.198407	-0.226482	0.006755	-0.977461	8.708055	4.883108	-0.413427	-15.829755	-20.297604	23.088685	-0.453645	-0.793717	0.090566
-1.861634	-1.392409	11.054653	-6.050973	26.171869	-3.912105	0.347866	-0.135058	-1.078866	1.229819	0.560983	21.366637	35.906014	-263.017988	85.200722	-0.304268	-0.038585	-0.987146	8.515061	5.112356	-1.254436	-13.275658	-24.694068	17.323103	-0.467202	-0.779381	0.120715
0.681488	0.034768	9.462053	-16.979537	16.092265	7.76254	0.376893	-0.180648	-1.055241	-2.733521	2.207199	27.229337	53.674955	-223.198293	59.680274	-0.318199	0.003014	-0.932482	8.692784	4.821571	-1.252371	-8.348233	-26.938468	8.329562	-0.425553	-0.759272	0.057977
-1.148634	0.323784	9.541334	-13.367111	9.794288	8.999109	0.36313	-0.159446	-1.086459	-5.178753	3.792753	31.425443	175.493983	-201.597488	68.471702	-0.293133	-5.1e-05	-0.889984	8.184478	4.94413	-0.003735	-7.566725	-27.956144	0.537779	-0.467064	-0.762363	0.10435
-0.583719	0.091915	9.153532	-10.240811	9.652449	9.233136	0.377251	-0.159821	-1.086808	-5.195588	1.364966	25.025547	323.712386	-219.686809	104.424856	-0.319531	-0.031914	-0.873076	8.127663	4.94476	0.114978	-8.06907	-26.202323	-3.625273	-0.452948	-0.745966	0.103583
-1.254277	0.383239	9.994173	-12.340986	7.529246	8.591349	0.348624	-0.145301	-1.089526	2.079425	-10.027379	25.16829	377.798451	-220.855436	106.707762	-0.35979	-0.067068	-0.812842	7.8399	5.586249	0.591451	-6.204961	-24.484182	-3.517977	-0.42527	-0.762577	0.120088
-0.617181	1.07377	10.407289	-8.429258	7.455579	5.849565	0.420741	-0.167659	-1.112592	-8.932859	-7.531108	21.655587	295.710595	-354.758651	80.953415	-0.360531	-0.099852	-0.782136	8.195867	4.307519	0.532707	-2.949179	-22.613781	-2.86633	-0.411295	-0.744527	0.088266
-0.974975	0.783675	9.660311	-7.934662	9.261116	4.037464	0.363502	-0.155918	-1.100535	-6.718571	-24.115497	-0.108992	288.962754	-462.979528	165.998357	-0.387513	-0.073649	-0.726193	8.086503	4.367843	1.010009	0.242402	-20.707637	-2.734175	-0.45246	-0.714407	0.117436
-1.140923	0.440356	9.939788	-11.990899	9.366405	1.229446	0.390628	-0.167252	-1.059006	-17.065486	-19.269654	-20.759742	368.934772	-321.736914	-1.100772	-0.454245	-0.155986	-0.648047	8.564405	4.251847	1.317852	3.711415	-17.279059	-4.810753	-0.453298	-0.760506	0.073364
-1.143564	1.014289	9.828495	-12.725534	9.610555	1.082189	0.377265	-0.17712	-1.069317	-20.053784	-5.745876	-22.056086	57.97248	-55.859555	-157.758472	-0.481823	-0.192136	-0.57374	9.151285	4.71461	1.211021	7.408829	-12.817871	-6.098458	-0.452668	-0.7306	0.118273
-0.794014	0.38339	10.116787	-12.934903	9.751039	2.158442	0.378437	-0.235733	-1.041577	-7.749474	2.194977	2.496816	-266.105562	163.440416	-9.953201	-0.481754	-0.237026	-0.585079	9.26341	4.887332	0.914429	9.751849	-8.117369	-7.321264	-0.424644	-0.713999	0.117577
-1.194712	0.268797	10.10851	-9.872901	9.523674	1.777923	0.406263	-0.188112	-1.080675	-7.930853	-8.724517	11.881327	-92.852658	178.235298	49.648979	-0.454615	-0.172378	-0.632694	9.204374	4.422612	0.851444	10.984319	-3.637054	-8.32506	-0.410944	-0.729987	0.118484
-0.905964	-0.075577	10.226336	-8.890763	10.025158	1.323232	0.392886	-0.180681	-1.108478	-5.940901	-4.497059	19.230078	-16.895554	135.080999	-62.469834	-0.442085	-0.204016	-0.616612	9.088252	4.074673	0.907666	11.766423	0.691074	-12.504751	-0.480413	-0.731834	0.133661
-1.084865	0.554957	9.884531	-7.200838	10.02086	2.391664	0.406992	-0.163756	-1.126319	-6.575735	-1.463325	8.632571	68.345366	79.69179	-1.73167	-0.415248	-0.20065	-0.660213	9.192114	4.013113	0.13083	9.118463	4.959065	-17.955058	-0.466852	-0.764841	0.150933
-0.967305	0.957688	10.059007	-2.632843	10.226216	2.41252	0.404749	-0.167627	-1.059355	-6.23395	-5.750286	2.69148	11.305707	101.365862	45.946263	-0.428663	-0.172228	-0.633245	8.484501	4.71214	0.240406	5.747485	8.602292	-19.427034	-0.439733	-0.812184	0.138057
-1.137375	0.153872	10.109141	-4.686308	10.216629	2.418275	0.392114	-0.153139	-1.11531	-3.507056	-8.683922	3.482147	-41.560435	150.04516	5.014756	-0.376024	-0.199353	-0.67539	8.826763	4.592458	-0.412462	3.236348	10.050856	-18.385872	-0.494951	-0.761945	0.088681
-0.918544	0.381301	9.602882	-3.123022	10.598951	1.867974	0.419612	-0.160944	-1.087856	-2.461602	-5.077708	6.96075	-64.632753	184.994208	-16.235362	-0.375654	-0.182961	-0.690743	8.186524	4.537845	0.054441	1.496421	10.352668	-15.630727	-0.41122	-0.764025	0.151214
-0.228565	0.955943	9.789217	-1.681881	11.511463	0.590613	0.390985	-0.146424	-1.090574	-2.283208	-5.528486	7.190555	-78.495184	190.498122	-18.318788	-0.349482	-0.197059	-0.704641	8.178976	4.942894	-0.30327	0.942625	9.820531	-14.648289	-0.439453	-0.796818	0.152748
-0.912853	0.210183	9.886424	-5.169573	12.41602	0.707357	0.418841	-0.133402	-1.094688	-1.760153	-4.965914	7.485108	-86.163097	211.918649	-44.776333	-0.310479	-0.181514	-0.706472	8.07824	4.133561	0.529765	-0.419346	8.459554	-13.658962	-0.439107	-0.763607	0.135546
-1.02963	0.267225	9.770732	-7.346084	13.65906	-1.382267	0.391743	-0.156667	-1.101234	-1.125462	-3.840347	7.669273	-103.548541	228.280606	-61.365299	-0.309298	-0.177226	-0.763871	8.668807	3.957983	0.540027	-1.813126	6.355159	-11.779727	-0.42527	-0.762577	0.120088
-1.257824	0.669723	9.82482	-8.435681	15.961444	-1.587055	0.448611	-0.171936	-1.099215	-0.246135	-3.277994	8.480835	-117.17224	229.932285	-73.504441	-0.295952	-0.160759	-0.7795	8.192856	4.655481	0.414377	-2.963492	4.351014	-10.635272	-0.411571	-0.778565	0.120995
-0.7401	0.382625	9.947341	-12.534105	17.450813	-1.796397	0.377265	-0.17712	-1.069317	0.352534	-2.038805	9.683399	-127.35794	230.163409	-81.8018	-0.243307	-0.127674	-0.81131	8.475137	4.477611	-0.299745	-3.378089	2.32653	-10.226826	-0.425341	-0.76175	0.10456
-0.911449	-0.191666	9.941588	-12.148527	19.122496	0.008413	0.404363	-0.153855	-1.062771	0.767041	-1.757432	10.258495	-134.971404	229.302759	-82.001428	-0.229075	-0.107991	-0.869988	8.898849	4.653366	0.307768	-3.080368	0.578035	-9.638912	-0.411362	-0.762372	0.120158
-1.192693	0.556487	10.223423	-15.200848	21.137023	-0.011395	0.405849	-0.139742	-1.119075	1.2321	-0.96943	10.552028	-145.225762	225.234938	-79.152796	-0.178132	-0.126227	-0.827038	8.541701	4.072427	0.059066	-2.128958	-0.062168	-9.51706	-0.439107	-0.763607	0.135546
-1.429173	0.095432	9.819067	-17.98266	22.229211	0.106368	0.419627	-0.178244	-1.070364	2.911707	-1.253829	11.039966	-156.673724	217.149558	-77.701329	-0.16346	-0.135041	-0.912409	8.361621	3.955938	-0.124451	-0.564997	-0.474992	-10.468127	-0.4115	-0.779391	0.136523
-1.193267	-0.190494	10.163433	-14.824932	24.406582	4.518122	0.405849	-0.139742	-1.119075	3.801267	-0.353067	12.361569	-172.993956	212.575148	-74.739295	-0.097839	-0.101881	-0.944494	8.480619	4.013991	-0.062096	0.57993	0.049131	-10.474774	-0.453015	-0.763811	0.135475
-1.607369	-0.250541	9.47316	-8.403234	22.857068	10.975755	0.433704	-0.12672	-1.123189	4.196377	0.831267	14.805322	-184.898609	208.490936	-63.230582	-0.085083	-0.087558	-0.931424	8.363822	3.956433	-0.004637	1.446938	0.262579	-10.112208	-0.424919	-0.748037	0.150307
-1.31656	-0.364666	9.705657	-9.709681	23.099318	13.467372	0.418841	-0.133402	-1.094688	3.641296	1.452834	15.813267	-184.805205	208.650688	-35.825455	-0.085083	-0.087558	-0.931424	7.782599	3.901685	0.463367	1.646153	0.764038	-8.251124	-0.439178	-0.762781	0.120018
-1.272999	0.09193	9.026464	-1.9129	18.276188	16.46373	0.419226	-0.147173	-1.091272	4.352093	1.733999	16.790884	-177.881482	212.106022	1.977649	-0.032439	-0.054473	-0.963233	7.788776	3.612541	0.761665	1.636948	1.095382	-4.799247	-0.425616	-0.795788	0.13729
-1.422907	0.671295	10.162598	-9.132852	20.520227	16.183665	0.43409	-0.140491	-1.119773	5.565455	1.281234	16.985811	-174.640451	206.075451	45.605698	-0.032508	-0.009584	-0.951894	7.670184	3.38026	0.698568	1.203738	1.969485	-0.737077	-0.439036	-0.764433	0.151074
-1.939719	-0.305321	10.034768	-2.52433	18.456661	16.560417	0.446724	-0.154979	-1.063818	7.980068	-0.244454	16.752106	-169.786823	188.135057	87.054419	0.046534	0.055364	-1.000613	7.726979	2.914775	0.51797	0.035876	2.020147	-0.121834	-0.439457	-0.778147	0.105327
-0.729131	0.614803	10.516837	-1.681783	19.168136	19.206714	0.405106	-0.146799	-1.090923	12.641157	-1.886959	16.622095	-168.152609	178.523115	117.671096	0.059284	0.009478	-0.997877	7.849993	3.6129	0.882579	-1.458232	1.482806	-1.917054	-0.425479	-0.778769	0.120925
-1.803894	1.020577	11.179607	-0.363567	26.157854	15.882069	0.419598	-0.143645	-1.105348	17.76117	-1.673708	13.899106	-164.994328	155.760214	129.133737	0.072636	0.086155	-1.003171	7.552172	3.845385	0.758252	-3.70779	1.161879	-1.235	-0.439316	-0.779799	0.136383
-1.746716	-0.415745	11.117835	-2.864777	40.742212	18.76347	0.420355	-0.153888	-1.116008	22.700742	0.0606	10.947213	-165.704478	131.063609	123.706891	0.098588	0.086305	-1.003723	7.964319	3.786117	0.705801	-6.613773	0.517499	3.882654	-0.439528	-0.777321	0.089799
-1.755707	-0.302792	10.663493	-5.087738	45.671091	22.223034	0.434862	-0.168033	-1.112941	24.593086	1.352456	10.761639	-192.197243	113.18132	89.219467	0.099034	0.118018	-1.02008	7.91009	3.148157	0.881702	-9.986683	0.907936	12.298343	-0.467553	-0.793921	0.090496
-2.022144	-0.011034	11.682488	4.336448	51.277787	24.862779	0.461217	-0.151825	-1.078244	25.626531	4.674159	10.956116	-185.599277	109.89456	42.111385	0.149832	0.129351	-0.964787	7.673465	2.916146	0.816404	-10.185887	0.347734	16.122532	-0.466714	-0.747823	0.134568
-1.404718	0.158181	11.070076	9.066097	65.34168	35.80957	0.448211	-0.140866	-1.120122	23.361931	7.945011	10.288684	-171.927159	103.131932	-12.728043	0.16429	0.194995	-1.026477	7.83057	2.969367	-0.258371	-8.993276	-0.809078	16.001466	-0.424923	-0.729365	0.102886
-1.151369	0.393089	12.326263	20.988825	71.786055	41.429605	0.46196	-0.144769	-1.106395	22.655561	20.463837	24.155363	-230.971239	102.503608	-73.538691	0.151319	0.25513	-1.015866	8.070476	2.737264	-0.075238	-3.488509	-3.742799	17.646147	-0.481181	-0.778759	0.105117
-1.673381	0.449456	11.975365	19.912328	85.513098	41.686472	0.51887	-0.211936	-1.051901	18.793117	14.435924	15.180501	-16.462384	75.968871	-98.874017	0.151319	0.25513	-1.015866	7.950419	3.608675	-0.07373	4.148658	-7.919765	21.94847	-0.439316	-0.779799	0.136383
-1.496341	0.852628	12.26466	26.852668	104.353617	38.569416	0.475737	-0.18327	-1.057685	14.918106	17.989157	11.875243	99.040747	85.002442	-103.283693	0.22888	0.254508	-1.00317	8.17822	3.373852	-0.549573	11.996799	-10.903043	29.209736	-0.411224	-0.745354	0.103793
-1.606354	0.796235	12.489604	22.450757	122.557222	35.382632	0.502849	-0.177305	-1.033648	15.497021	21.823702	17.778658	167.92674	61.318708	-78.405123	0.215458	0.22272	-0.986538	8.015437	2.447761	0.102146	19.483097	-12.753987	36.283899	-0.467064	-0.762363	0.10435
-2.577411	0.73998	12.584139	18.61958	140.795228	29.281809	0.503978	-0.18402	-1.058384	19.548944	60.826705	52.093119	385.484255	-32.088959	14.799329	0.151759	0.226633	-1.042558	8.073933	3.144785	0.16612	27.521814	-16.122061	39.41979	-0.411291	-0.763199	0.135686
-2.683509	1.431292	13.039633	18.606948	158.422618	13.469862	0.546326	-0.167844	-1.076923	7.022426	-2.401448	-4.047309	527.805915	-28.367071	135.630376	0.190085	0.104294	-1.035356	8.502628	4.018936	1.136042	35.808663	-19.494768	37.174101	-0.480484	-0.731008	0.118133
-1.93871	2.292617	13.114581	2.236147	167.184196	-1.980637	0.517699	-0.153324	-1.07964	-8.801044	25.406229	3.853944	335.520894	-106.505103	72.536176	0.202396	0.086905	-1.005929	10.934131	7.444336	2.274071	29.788429	-19.261444	24.355226	-0.452597	-0.731426	0.133801
-1.104567	1.896943	14.77722	-12.173696	186.654203	-26.526964	0.589073	-0.182739	-1.074555	4.441256	4.321797	13.115118	-48.434292	-128.808397	100.032931	0.19008	0.044085	-1.045691	13.167212	9.645105	2.085655	8.704714	-18.644666	13.63831	-0.466297	-0.715438	0.132894
-1.40302	2.711264	17.104894	-53.91077	205.404445	-53.065318	0.588702	-0.186267	-1.060479	1.02099	7.249527	4.100828	81.617239	-173.516422	22.891162	0.150046	0.054892	-0.988469	14.036177	8.593508	1.079294	2.650844	-4.444991	13.714723	-0.452527	-0.732252	0.149329
-0.448884	2.431596	19.054509	-70.714326	221.881573	-72.199598	0.630692	-0.190919	-1.047451	-1.094658	6.355085	7.339228	-107.902206	-158.829218	27.694008	0.124239	0.025173	-1.00026	13.745701	3.77239	0.69383	15.707541	-0.795133	5.397406	-0.438201	-0.699663	0.147725
-1.841499	0.302911	17.995501	-34.23178	240.267528	-78.233801	0.644426	-0.177523	-1.051216	5.96334	-4.524565	13.535582	-103.614293	-78.485374	62.194001	0.072781	0.056586	-1.015514	11.923611	3.241889	-2.216939	21.930365	2.081569	-22.204717	-0.466647	-0.729978	0.102675
-1.169082	-1.022119	17.207369	-13.236969	262.097703	-74.93211	0.728792	-0.200598	-1.021743	1.643721	1.452549	11.185565	-27.238554	-37.522012	34.452232	0.097477	0.037128	-0.957663	10.198343	5.39264	-2.718959	24.294211	15.254316	-26.24853	-0.465946	-0.700898	0.163113
-1.102345	-0.273249	17.723298	-5.394791	281.556948	-68.440374	0.784889	-0.188325	-1.026556	1.408062	1.11476	10.897247	-3.881485	-55.942892	68.695588	0.098438	0.055664	-1.001715	8.355812	6.265494	-3.348433	22.611196	23.192999	-1.71051	-0.479858	-0.682431	0.115622
-2.792058	-0.380858	19.110738	11.069391	294.917674	-64.926168	0.797509	-0.185513	-0.988093	3.56581	-3.566286	9.126782	-31.89731	-48.344264	43.55921	0.099323	0.05888	-1.044765	6.718611	5.865956	-2.602187	20.422029	25.520483	6.171675	-0.451971	-0.682849	0.13129
-3.518757	-0.089251	20.007118	17.018702	308.521845	-54.751205	0.852862	-0.180297	-0.964754	3.035661	-3.338084	11.267188	-44.199498	3.165643	2.164166	0.071971	0.068691	-0.973468	6.91008	5.345834	-1.882228	17.141116	25.221702	4.351133	-0.452456	-0.733079	0.164857
-1.326806	2.038371	20.968009	45.803979	287.810327	-49.37317	0.925008	-0.237254	-0.952836	2.077369	-0.687722	12.438297	-5.549692	1.780533	-15.852701	0.085612	0.08623	-1.003447	6.753805	5.409012	-0.747051	14.966747	25.244205	1.424796	-0.438619	-0.732048	0.149399
-0.070124	2.081832	17.923793	96.528674	274.773633	-37.798506	0.922722	-0.189227	-0.938348	1.317403	0.719226	9.309797	30.648224	-20.495687	-18.418743	0.12395	0.084311	-0.975575	7.769029	5.002657	-0.131005	13.566865	25.107367	-0.617201	-0.424364	-0.698633	0.132268
-1.552182	2.256681	18.236685	116.41903	236.949619	-43.62478	0.949491	-0.221388	-0.865251	1.552392	0.775315	9.541239	15.934819	-3.884572	-12.778196	0.047495	0.0739	-1.044665	8.304016	4.769879	0.057631	11.436695	24.452512	-0.14792	-0.45218	-0.699041	0.132127
0.651956	2.019026	16.800966	195.380039	200.790308	-64.258611	0.977747	-0.239437	-0.848457	1.382591	1.789778	9.765024	18.352571	-3.439243	-15.238001	0.072781	0.056586	-1.015514	8.716859	4.885086	0.065828	8.079802	25.209057	-0.506127	-0.45246	-0.714407	0.117436
1.622122	0.856181	13.689262	242.85739	166.860144	-78.109744	0.962883	-0.246119	-0.819956	1.312506	2.014733	9.197609	16.151262	-10.748014	-8.437941	0.085022	0.084086	-0.974748	8.949602	4.418949	-0.171375	1.895876	26.399583	-5.348796	-0.479508	-0.667891	0.14584
7.412735	-6.397502	10.986632	268.263156	156.026744	-82.102569	1.034243	-0.258235	-0.832362	1.649737	1.22508	8.751082	-0.046871	-6.590019	-5.172725	0.059365	0.085008	-0.988546	8.829213	4.011945	-0.355027	-1.534901	26.865506	-13.131553	-0.46623	-0.697593	0.101001
24.41331	-9.780145	2.210188	255.090835	203.213801	-53.132257	1.0328	-0.324246	-0.723583	1.914816	0.719002	10.341399	-4.272539	-5.977922	-3.813615	0.033188	0.038897	-0.984983	8.47004	4.302147	-0.600022	-3.054789	25.725016	-18.74346	-0.451971	-0.682849	0.13129
10.81437	-6.009903	-5.255898	157.56219	30.67903	-95.850593	1.016765	-0.272315	-0.722821	1.445077	1.113846	9.935583	2.122992	-10.253175	1.235644	0.058624	0.052223	-0.957839	8.589712	4.06982	-0.538903	-3.778476	24.476936	-19.590514	-0.521723	-0.68139	0.084356
8.443166	-7.100133	8.048531	-94.004546	-66.455245	-33.50476	1.046177	-0.331677	-0.69578	1.90262	0.774859	9.775051	-3.34951	-8.093544	2.670812	0.085091	0.039197	-0.986086	9.005877	4.650624	-0.2891	-3.57218	23.039717	-13.655994	-0.438414	-0.697184	0.101142
2.840667	-5.530633	11.355997	22.176655	-16.32133	-12.627405	1.075547	-0.339141	-0.721215	1.437369	0.719201	9.538774	-9.744674	-5.837399	1.609112	0.020142	0.083711	-0.973369	9.187462	4.593131	-0.046418	-0.968843	20.756755	-7.939765	-0.466159	-0.698419	0.116529
6.882671	-7.804035	4.321234	71.057323	-35.56924	13.170774	1.030914	-0.307289	-0.688187	1.902297	0.94385	9.775193	-7.583073	-6.130581	-0.950798	0.084947	0.068766	-0.973744	9.072691	3.664432	0.007332	-0.516912	18.48066	-6.585852	-0.480071	-0.679952	0.069038
9.854701	-6.773208	4.156067	-2.657436	-101.464535	35.248766	1.059169	-0.325337	-0.671394	1.851207	0.718873	10.056992	-5.583364	-6.865113	-1.973816	0.05966	0.08608	-1.002896	9.131342	4.768236	0.132944	-0.512151	16.263587	-8.133905	-0.480488	-0.712337	0.070713
8.50447	-5.905282	5.383731	-14.189817	-139.38627	47.236834	1.031285	-0.30376	-0.702263	1.67322	0.324645	9.769836	-4.255777	-4.659288	-3.80049	0.046019	0.068541	-0.972917	9.080164	4.712026	0.550944	1.614892	15.399291	-12.568734	-0.480208	-0.696971	0.085403
8.387776	-5.963124	5.267556	-25.701251	-173.372362	50.734436	1.045792	-0.317906	-0.699196	1.514384	0.663521	10.446169	0.108397	-4.103908	-5.240364	0.046094	0.083861	-0.97392	8.2461	4.770262	0.116437	3.536291	14.60803	-15.26115	-0.480067	-0.698623	0.116459
8.731012	-5.561281	5.275926	-43.835561	-209.339854	49.528191	1.003787	-0.295955	-0.729716	1.905577	0.493301	9.888093	4.924385	-6.769824	-5.540447	0.033558	0.055289	-1.000337	8.47004	4.302147	-0.600022	6.732043	15.044059	-17.872303	-0.452672	-0.711929	0.070853
7.487542	-6.303732	6.044236	-54.24356	-242.337825	44.208968	1.032771	-0.289647	-0.758567	1.722671	0.774897	9.431586	3.391188	-6.185633	-8.772775	0.046163	0.038972	-0.985259	8.707745	4.06955	-0.536702	9.166893	14.899543	-17.849871	-0.466509	-0.712959	0.086311
6.29621	-6.128125	6.590107	-69.439793	-267.192113	40.17004	0.949591	-0.342484	-0.742808	1.789822	1.451183	9.943121	3.576746	-6.153621	-8.61817	0.058844	0.037975	-0.971185	8.472376	4.244565	-0.480455	13.077938	14.736695	-18.504983	-0.480555	-0.730182	0.102605
5.396178	-5.204778	7.428949	-78.601133	-282.189512	34.801921	0.936557	-0.296926	-0.81967	1.440241	1.113656	9.709024	5.141357	-9.243421	-6.674665	0.033043	0.068466	-0.972641	8.709696	4.651052	-0.354509	15.027404	14.761663	-17.289821	-0.438488	-0.677687	0.038193
3.874349	-4.566495	8.652307	-91.267196	-289.585823	30.609613	0.92205	-0.28278	-0.822737	1.44145	1.113704	9.765664	2.413182	-7.592054	-6.598785	0.033043	0.068466	-0.972641	9.125125	4.127669	-0.289124	16.952547	14.991524	-15.189324	-0.45309	-0.744314	0.072527
2.698191	-3.813094	9.996535	-101.651713	-292.241483	29.891145	0.881904	-0.243187	-0.923637	1.684016	1.001086	10.336801	2.61548	-8.750206	-7.288346	0.059585	0.070759	-1.001892	8.765235	3.77854	-0.656651	17.60664	14.608777	-13.447982	-0.494742	-0.745752	0.087844
0.88271	-3.750708	10.813941	-101.76601	-290.631776	37.123115	0.854034	-0.23891	-0.937014	1.795281	0.493706	10.112233	3.201367	-8.891663	-7.967489	0.05929	0.069688	-0.987542	9.012729	4.0711	0.007962	18.642147	13.426079	-14.087838	-0.480767	-0.727703	0.056022
-1.330294	-3.572424	11.794594	-106.941238	-284.614782	52.504175	0.810901	-0.210244	-0.942798	1.791116	0.775216	9.942552	4.866192	-9.174746	-8.338895	0.072191	0.054442	-0.986814	9.128831	3.954183	-0.110145	18.318395	11.963815	-14.782554	-0.508654	-0.727285	0.040354
-3.368982	-2.302152	12.953733	-107.104503	-278.95756	71.78742	0.768911	-0.205592	-0.955827	1.903937	0.718575	9.831643	4.058858	-9.664534	-10.039929	0.046019	0.068541	-0.972917	8.366273	3.37592	0.052798	17.400722	9.862714	-16.022129	-0.494329	-0.694696	0.03875
-3.342797	-1.549622	14.321344	-105.143851	-274.352402	87.029905	0.70058	-0.234447	-0.986061	1.901519	0.718481	9.718364	4.743754	-9.772006	-15.743497	0.032968	0.053145	-0.971637	8.066966	4.247241	-0.06881	15.769547	7.363614	-17.471119	-0.481185	-0.760088	0.057696
-4.775318	0.059777	14.300263	-96.645234	-262.86704	100.586174	0.685302	-0.19276	-0.995959	2.200249	1.338052	10.291326	7.417972	-8.359104	-15.603988	0.033413	0.084858	-0.987994	8.002292	3.83936	-0.431082	16.470827	5.145672	-15.721223	-0.49516	-0.778137	0.089518
-7.596717	-0.101549	16.347429	-112.143718	-270.269643	109.368079	0.614656	-0.138989	-1.046689	2.025219	0.662266	10.117211	7.635616	-8.492382	-18.256265	0.0716	0.052298	-0.958115	8.408377	3.546304	-0.843964	14.600299	3.877153	-12.010699	-0.453023	-0.726469	0.040634
-7.022733	0.989908	16.476855	-103.528554	-273.485976	106.195671	0.571509	-0.093023	-1.069964	1.795628	0.944398	10.169252	12.268553	-6.187891	-19.370221	0.071895	0.05337	-0.972465	8.17849	3.2577	-0.550067	12.304645	3.30877	-8.1185	-0.522629	-0.745334	0.072176
-8.165885	1.393311	16.569981	-114.753354	-269.965388	100.492413	0.54251	-0.082032	-1.058606	2.137394	0.943609	10.006587	7.248175	-7.736525	-22.071591	0.046094	0.083861	-0.97392	8.466698	3.371694	-0.903512	11.205	3.129761	-5.974383	-0.452672	-0.711929	0.070853
-10.101442	1.454574	17.100894	-111.440902	-257.411812	88.334403	0.500134	-0.063609	-1.07505	2.41883	0.492141	9.672414	12.793125	-6.585393	-23.227098	0.058995	0.068616	-0.973192	7.983024	3.602606	-1.510395	7.555184	3.172714	-2.507883	-0.46693	-0.726673	0.040564
-12.749005	2.142884	16.370332	-111.81881	-233.996171	71.764262	0.514255	-0.063983	-1.075399	2.192949	0.098401	9.837166	15.045713	-4.433774	-24.344478	0.032672	0.052073	-0.957288	7.756438	3.314744	-1.036778	4.498088	3.422132	1.903042	-0.480421	-0.694492	0.03882
-16.380614	2.25507	15.049897	-119.023683	-204.223185	55.836521	0.443652	-0.06211	-1.073653	2.191956	-0.014308	9.780431	19.014297	-3.650112	-28.649198	0.00635	0.035531	-0.941383	7.806786	3.254555	-1.51518	2.12726	3.907363	7.410835	-0.466651	-0.711306	0.055255
-19.471447	2.544757	15.047828	-131.300291	-174.034509	44.251736	0.428746	-0.016894	-1.097627	1.916241	0.606389	10.397944	22.677464	-2.33631	-30.205328	0.007456	0.024498	-0.997778	7.103129	3.199088	-1.289005	1.559717	4.991604	14.774023	-0.480559	-0.711511	0.055185
-22.883899	3.976003	13.282573	-119.253088	-146.402882	37.245943	0.413482	0.007494	-1.090034	2.135407	0.718192	9.893118	20.832796	-1.454764	-27.9169	0.020067	0.068391	-0.972365	7.222376	2.676134	-1.289029	-1.368809	6.818524	23.457095	-0.481047	-0.743069	0.041331
-20.55854	3.06276	15.085697	-112.915452	-126.403141	33.535862	0.355485	0.029478	-1.067317	1.978749	0.55014	10.625664	17.451429	-0.036222	-26.333369	0.020287	0.054142	-0.985711	7.286469	2.386608	-1.049537	-5.214157	8.002347	28.937275	-0.481118	-0.742243	0.025803
-26.518515	15.614981	21.0467	-81.361734	-120.934052	63.058595	0.32723	0.047526	-1.08411	0.282355	1.005251	12.062406	23.021126	-2.856271	-39.149748	0.007606	0.055139	-0.999785	7.516647	3.023915	-1.282044	-8.985156	9.096931	31.238479	-0.466304	-0.678095	0.038053
-29.236595	7.810229	22.211203	95.41434	-90.235418	39.594692	0.341736	0.033381	-1.081044	2.321953	3.199507	13.465917	2.630396	-36.81541	-34.633285	0.033188	0.038897	-0.984983	7.879932	2.385999	-0.858812	-13.990967	10.345403	33.023757	-0.48126	-0.740591	-0.005252
-24.199107	17.133481	13.880753	231.79874	37.160287	48.476576	0.285254	0.034879	-1.079647	1.534334	2.241677	11.523649	20.834005	-67.188621	-30.820676	0.020356	0.009253	-0.99705	8.470384	2.733352	-0.786417	-18.602976	11.484624	33.677019	-0.508654	-0.727285	0.040354
-24.694763	16.161449	14.833132	230.702583	56.854964	18.597974	0.327616	0.033755	-1.080694	1.692899	2.919182	13.622301	15.558738	-69.584427	-35.904202	0.01888	0.003893	-0.925301	8.243143	3.200726	-0.249679	-23.316327	12.578414	32.771744	-0.508375	-0.711919	0.055044
-34.601544	25.972164	23.717822	250.181405	84.978886	-60.747612	0.344008	0.002653	-1.113024	1.553676	2.242435	12.429882	25.295481	-82.196113	-21.040109	-0.007517	-0.02797	-0.908393	9.527118	4.647183	-0.818358	-24.784841	12.703438	29.046875	-0.480767	-0.727703	0.056022
-8.846959	3.7209	-3.494593	629.889652	57.839187	-45.412452	0.360086	-0.101176	-1.061311	1.20498	2.073948	12.252568	27.837842	-103.243777	-20.507384	-0.019683	-0.040149	-0.950163	10.811485	8.766622	-1.016222	-19.132013	11.702726	21.26664	-0.522495	-0.709644	0.008391
9.732346	15.815675	7.601894	107.797808	48.341482	6.363455	0.376508	-0.166877	-1.058657	1.791322	2.805641	12.83167	20.31908	-119.626991	-2.395588	-0.032584	-0.024904	-0.950891	12.86188	11.024636	-1.507227	-7.929951	11.444014	23.519922	-0.522562	-0.727489	0.040283
-2.809476	7.416192	15.619778	46.834041	29.76826	-41.916676	0.375393	-0.177462	-1.016429	1.717569	1.399111	14.640533	22.725428	-120.948033	11.95925	-0.058755	-0.010806	-0.936993	14.481005	7.075529	-0.595723	-2.900438	9.163797	38.706116	-0.438701	-0.675208	-0.00839
-0.29551	7.937955	3.736489	69.587594	95.479015	20.425886	0.402505	-0.171497	-0.992391	2.938376	0.214287	15.118041	49.072252	-140.307355	10.986549	-0.085373	-0.02842	-0.906739	13.232858	3.952036	1.703085	-11.064994	9.119679	34.241851	-0.480771	-0.709032	0.008601
-3.229582	-1.574878	8.413076	-127.016421	20.427731	-21.078082	0.389514	-0.177837	-1.016778	2.005203	2.130917	14.703834	61.01612	-140.60636	14.230222	-0.059126	-0.027198	-0.92164	12.074294	4.540688	2.941594	2.040015	5.052569	17.92038	-0.494888	-0.725428	0.009368
0.462475	0.968756	12.928385	1.490448	22.989261	-29.105069	0.431889	-0.19626	-1.000334	1.005821	3.995713	19.270237	39.399047	-124.131513	33.860813	-0.059346	-0.012949	-0.908294	10.707214	5.878059	2.562529	10.286449	-6.076119	8.437572	-0.522149	-0.676433	-0.008811
-0.567508	2.955507	7.176853	-3.796919	39.49298	-28.576161	0.404792	-0.219525	-1.00688	1.186914	1.744695	22.159378	38.94481	-160.678106	51.348309	-0.085518	0.001149	-0.894396	8.583828	4.895381	2.458803	4.808863	-14.415987	5.593581	-0.522353	-0.711297	0.039446
-1.135593	1.405723	7.329762	-70.970771	35.762667	-25.192135	0.418126	-0.175058	-1.031552	0.871733	2.530481	18.247074	67.60473	-216.604784	50.322536	-0.138087	-0.016615	-0.86359	7.808064	4.314151	1.902863	-2.101633	-17.786402	9.730374	-0.522495	-0.709644	0.008391
-1.50994	-1.907943	11.457133	-82.013512	18.521344	-29.704187	0.376522	-0.184177	-1.041165	2.104329	2.134805	19.348281	54.44549	-224.877184	69.098831	-0.16515	-0.065942	-0.816979	7.907814	4.600305	0.947789	-5.924782	-19.942418	12.841642	-0.508587	-0.70944	0.008461
-2.077906	-2.078888	11.672687	-36.662399	13.210391	-11.732687	0.431489	-0.16519	-1.021241	1.464832	1.236755	21.655239	38.219212	-227.847175	73.866144	-0.190286	-0.017987	-0.848137	7.656188	4.190604	0.043054	-5.88305	-21.487566	11.442838	-0.536053	-0.695308	0.038539
-1.30138	-1.338036	10.440645	0.587985	14.088094	4.674059	0.37425	-0.153449	-1.009184	-1.44619	3.048303	25.615305	58.584316	-254.598199	62.671415	-0.217274	-0.051994	-0.802529	7.65976	4.075194	0.22228	-5.603334	-22.083996	7.104421	-0.535426	-0.646731	0.036028
-0.971138	0.0951	9.827975	7.829668	4.669661	14.221332	0.418126	-0.175058	-1.031552	-4.750635	4.689609	27.302391	128.930809	-241.335181	68.409532	-0.257157	-0.010545	-0.747314	8.189825	4.538587	0.234162	-5.163988	-20.920739	1.22901	-0.494471	-0.693043	0.007694
-0.557492	0.787004	10.520902	10.797893	1.467517	10.511536	0.431461	-0.130591	-1.056225	-3.912577	1.304544	23.127558	248.579288	-228.308943	93.517553	-0.322043	-0.07113	-0.756271	8.065501	5.350932	-0.004206	-5.04937	-18.76165	-3.457789	-0.522216	-0.694278	0.023081
-0.871477	0.608855	9.093283	13.566795	5.147653	15.071212	0.418112	-0.157758	-1.049044	2.072906	-2.197105	25.571359	287.388116	-251.359853	87.769834	-0.270874	-0.043405	-0.716332	8.606955	5.177714	0.544119	-5.156388	-15.564412	-5.092439	-0.480421	-0.694492	0.03882
-0.85057	0.958088	10.17494	4.088066	6.068484	11.310938	0.402848	-0.13337	-1.041451	-4.73869	-3.933871	21.690233	264.783348	-348.113468	57.006883	-0.322928	-0.074346	-0.713222	8.784233	4.131446	0.423156	-3.537439	-13.446267	-5.29178	-0.507886	-0.68036	0.068898
-0.284872	1.185992	9.845921	1.309807	9.0607	9.22094	0.445596	-0.148265	-1.039082	-9.118243	-12.610874	9.814851	221.705449	-416.251266	81.94864	-0.351097	-0.11264	-0.610215	8.432472	4.074675	0.53612	0.775074	-12.58472	-7.267436	-0.536194	-0.693656	0.007483
-0.863067	1.300083	9.551004	-4.005675	9.857057	4.58785	0.41734	-0.130216	-1.055876	-7.471612	-28.80426	-16.943352	296.079163	-413.122023	30.242586	-0.365109	-0.146571	-0.564882	8.38527	3.728826	1.132605	4.182779	-12.699501	-9.785214	-0.522775	-0.72501	-0.0063
-1.550985	0.95569	9.479341	-13.770063	9.362278	0.866486	0.418498	-0.171529	-1.045628	-23.169981	-8.442058	-20.029187	250.470906	-118.814111	-149.075881	-0.43073	-0.179731	-0.532797	8.617764	3.843696	0.957781	8.127389	-12.122446	-10.994105	-0.494538	-0.710888	0.039587
-1.544878	0.210156	9.760469	-16.140534	10.669543	3.869302	0.445967	-0.144736	-1.053158	-8.77891	6.645261	0.497625	-248.044273	121.202097	-154.949722	-0.456977	-0.180953	-0.517896	8.851648	4.307517	0.904253	12.054626	-11.446792	-9.911379	-0.508308	-0.694074	0.023152
-0.908647	0.555797	10.115284	-11.202591	11.403206	3.529674	0.460874	-0.189952	-1.029184	-8.340082	-2.529552	9.443787	-86.546647	162.039074	56.090731	-0.418124	-0.196049	-0.517719	8.904756	4.480374	0.606561	15.104355	-9.688327	-7.363711	-0.536403	-0.709848	0.00832
-0.907327	0.268831	10.170931	-10.825454	12.348179	4.371961	0.431861	-0.161661	-1.035317	-9.952589	-13.840381	19.137582	-1.563851	93.667166	-20.422784	-0.43051	-0.19398	-0.546143	9.197326	3.665646	0.368974	18.480503	-7.376475	-7.937068	-0.536194	-0.693656	0.007483
-0.344679	0.093921	9.669664	-10.368291	12.232619	3.90876	0.418498	-0.171529	-1.045628	-6.871157	-2.305739	10.89019	91.44218	65.705515	-20.996024	-0.416793	-0.16112	-0.577126	8.888365	3.953734	-0.354174	17.322935	-4.240814	-9.873164	-0.508166	-0.695726	0.054207
-0.968004	0.383032	9.99974	-8.854735	13.363788	5.057471	0.44561	-0.165564	-1.021591	-8.773557	-3.492418	2.526905	38.831471	97.111032	47.097654	-0.404558	-0.19383	-0.546695	9.003636	3.720418	-0.532683	13.573031	-0.178761	-13.546172	-0.494471	-0.693043	0.007694
-1.075708	0.212237	10.337908	-6.742254	13.50562	4.256352	0.432975	-0.151076	-1.077545	-5.158081	-8.173063	4.353749	-13.003246	133.470803	51.302496	-0.378016	-0.191536	-0.575946	8.59537	4.477835	-0.177731	9.738696	3.619423	-15.383972	-0.522353	-0.711297	0.039446
-1.078142	0.498963	10.225408	-5.024199	13.665198	4.438003	0.431461	-0.130591	-1.056225	-3.651265	-5.638039	7.784482	-33.470424	174.305885	34.889728	-0.351618	-0.159673	-0.592854	8.893036	3.838571	-0.115041	7.374474	5.796352	-16.699834	-0.508721	-0.74513	0.072246
-0.740266	0.612391	9.948307	-6.55292	14.241917	4.451776	0.431461	-0.130591	-1.056225	-2.487521	-5.189029	8.432075	-43.822069	186.787263	40.58596	-0.351248	-0.143281	-0.608207	8.066966	4.247241	-0.06881	5.870308	6.212881	-16.085197	-0.46686	-0.727499	0.056092
-0.739028	0.440307	10.004436	-5.331078	14.290886	3.345036	0.444438	-0.106952	-1.04933	-1.512452	-5.867017	8.225499	-47.267374	203.733517	27.61824	-0.337386	-0.13999	-0.651532	8.605098	3.608425	0.237909	4.797619	5.730912	-14.214904	-0.494679	-0.709236	0.008531
-1.149955	0.610751	9.485687	-8.403463	14.047771	1.847223	0.446753	-0.189578	-1.028835	-1.011109	-4.065932	7.614861	-60.704089	221.859141	11.32506	-0.298314	-0.169334	-0.664702	8.432742	3.958523	0.535626	3.407644	4.581783	-13.012564	-0.48035	-0.695318	0.054348
-0.915453	0.726674	9.774889	-10.516299	14.407703	1.767151	0.445996	-0.179335	-1.018175	-0.292305	-4.178795	8.931984	-75.164821	230.417963	-0.439467	-0.297497	-0.121229	-0.696412	8.312644	3.900222	0.413364	1.916067	2.362941	-11.926981	-0.522566	-0.708818	-0.007137
-0.73981	-0.019466	9.945652	-11.695486	13.724327	-0.785993	0.418483	-0.15423	-1.06312	0.769197	-2.884043	10.257546	-83.841538	232.278726	-11.556726	-0.298088	-0.123373	-0.667713	8.726722	3.9576	0.481221	0.828557	0.512013	-10.783487	-0.508863	-0.743478	0.041191
-1.136303	0.211555	10.166235	-13.012802	14.373589	-1.661025	0.47498	-0.173028	-1.047025	1.23732	-2.433929	10.664074	-88.110233	231.604155	-15.019531	-0.257313	-0.101396	-0.755642	8.616663	3.843449	0.897874	0.360156	-1.155033	-9.459738	-0.480559	-0.711511	0.055185
-0.96586	0.498397	10.113929	-12.978893	15.303282	-2.320715	0.403234	-0.147141	-1.038035	1.413451	-1.701766	10.894876	-96.086303	233.623743	-16.238922	-0.244118	-0.115569	-0.769264	9.200762	3.608311	0.548448	0.417355	-2.232996	-8.721345	-0.481189	-0.741417	0.010275
-1.134159	0.326921	10.280424	-9.28598	18.031629	-2.900367	0.446353	-0.158508	-1.049742	2.353947	-1.759062	11.820405	-105.689802	241.003578	-20.951338	-0.21713	-0.081563	-0.814872	8.540425	3.200545	-0.124363	0.691057	-1.945349	-9.823891	-0.522353	-0.711297	0.039446
-1.136427	0.38388	10.166959	-10.558191	21.988186	-5.408566	0.404363	-0.153855	-1.062771	4.080023	-1.931334	11.79989	-116.992641	248.08069	-29.552213	-0.191473	-0.082485	-0.801074	8.601797	3.607684	0.058188	0.747482	-1.500487	-11.415353	-0.480909	-0.726051	0.024966
-1.076822	0.211996	10.281055	-15.678662	25.511325	-3.803124	0.475723	-0.165971	-1.075177	2.580539	1.906854	17.376586	-114.75628	263.181748	-59.362282	-0.15225	-0.081188	-0.816251	8.547453	3.492656	0.296221	1.728616	-1.23804	-12.795354	-0.48063	-0.710684	0.039657
-3.223357	-4.663411	11.525852	-36.812996	38.629472	17.753568	0.446353	-0.158508	-1.049742	-0.678084	14.593934	24.905637	-20.760697	301.878053	-117.125315	-0.138533	-0.048328	-0.847233	8.713497	3.489778	-0.299547	2.986169	-0.941484	-14.420979	-0.495305	-0.757813	0.011042
1.571763	17.263671	8.870025	-60.607283	97.375971	138.417458	0.460088	-0.145111	-1.053508	10.394729	-12.485572	2.072338	-108.709291	140.711255	145.742614	-0.085894	-0.075453	-0.889378	8.603728	3.72433	0.178497	4.247931	-1.24283	-14.42411	-0.466863	-0.708828	0.008671
-5.55667	-5.073253	9.262353	43.853786	28.679236	-96.107765	0.446353	-0.158508	-1.049742	9.276147	-4.313594	4.32062	-116.697949	211.970203	-93.347918	-0.04637	-0.012874	-0.908569	8.250731	3.725388	0.231801	4.828672	-1.758848	-14.607107	-0.46721	-0.742039	0.025873
-2.106426	-3.591227	7.232985	-100.757832	39.07966	27.787909	0.447482	-0.165222	-1.074479	4.381184	6.748933	18.607572	-357.535426	255.000739	-88.458878	-0.020719	-0.074006	-0.905106	8.602513	4.247014	0.180722	4.682084	-1.929054	-12.98611	-0.508863	-0.743478	0.041191
-2.977286	1.027719	12.634404	-15.928116	37.435404	6.941077	0.489858	-0.183645	-1.058034	4.607227	-1.3028	23.077737	-222.277613	247.009211	-36.891652	-0.020418	-0.012724	-0.909121	8.598381	4.129873	-0.0594	5.243102	-2.124778	-11.612014	-0.495164	-0.759466	0.042098
-1.071751	0.902501	10.568216	-18.645413	52.866806	8.150387	0.459688	-0.114041	-1.074415	5.814534	4.325983	20.843491	-75.909886	179.467905	-50.300566	0.0191	-0.010355	-0.938648	8.660658	3.200769	-0.002349	6.545565	-2.413705	-9.842857	-0.480838	-0.726877	0.040494
-1.954645	-1.227763	9.234964	-22.060597	52.674005	12.910311	0.473837	-0.149014	-1.039781	7.350803	-2.163227	11.358852	-106.690588	160.433296	9.412585	0.046459	0.040044	-0.999609	8.193491	3.43539	0.289371	7.72298	-2.79295	-8.256156	-0.45344	-0.758854	0.042309
-0.396698	0.554701	9.954746	-5.248688	43.721057	23.38769	0.486443	-0.128903	-1.01881	7.900715	-0.472906	13.013703	-154.697616	174.173946	-16.230536	0.071675	0.067619	-0.959118	8.252507	3.435255	0.290472	8.164962	-3.27671	-5.68831	-0.508725	-0.726459	0.024826
-1.81276	0.961205	10.724541	3.035653	36.05515	22.564656	0.486457	-0.146202	-1.001318	8.315485	0.935172	13.703026	-177.210526	150.70839	1.336179	0.097778	0.09841	-0.961677	8.425849	3.608336	0.114794	8.555031	-3.313521	-1.991552	-0.453861	-0.772567	-0.003438
-2.132696	0.679312	11.910569	-23.491512	62.63683	22.582413	0.516198	-0.150138	-1.040828	10.265141	4.25496	13.690288	-175.359302	138.066056	-1.316055	0.111495	0.131269	-0.99266	7.84146	3.49477	0.40283	8.120237	-3.150552	2.807632	-0.508654	-0.727285	0.040354
-2.137399	1.022996	11.684604	0.317858	66.493728	22.791229	0.515798	-0.119067	-1.061736	11.822434	5.829542	14.007454	-173.053562	119.85231	-3.992513	0.099109	0.133338	-1.021083	8.371775	3.377156	0.352332	6.151316	-2.417611	8.160003	-0.481047	-0.743069	0.041331
-2.140449	0.620182	11.512356	3.556042	78.476516	24.203229	0.529547	-0.12297	-1.048009	16.189459	6.278815	21.855709	-200.423852	123.649113	-56.905352	0.137898	0.223342	-0.999233	8.029898	2.857754	0.942573	4.89273	-1.622198	13.631997	-0.467627	-0.774424	0.027548
-2.878816	0.104953	11.779974	2.495568	83.885855	26.348649	0.530705	-0.164283	-1.037762	15.591392	10.9477	13.128684	-82.36645	46.300116	-48.579012	0.17653	0.222495	-0.98571	8.082851	2.623832	0.583244	3.288424	-1.126014	18.342724	-0.46721	-0.742039	0.025873
-1.800755	-0.242655	11.288005	10.112881	101.347064	25.935979	0.529947	-0.154041	-1.027102	18.225368	12.348194	9.958231	-68.622222	53.687595	-68.900288	0.189431	0.20725	-0.984982	8.080515	2.681413	0.463677	2.449879	-1.207307	22.961907	-0.453093	-0.725642	0.025107
-2.949267	-0.127667	11.095658	8.74406	112.521959	26.121584	0.559317	-0.161504	-1.052536	16.182914	16.068974	8.956176	-96.968342	31.940806	-84.458561	0.176826	0.223567	-1.00006	7.906478	2.333857	0.578706	2.45634	-1.90265	25.135584	-0.45316	-0.743487	0.056999
-3.04827	-0.009323	11.889857	9.158293	122.530949	29.564029	0.572681	-0.151636	-1.042225	15.426421	17.652161	14.093574	-72.805963	29.483894	-83.785457	0.176675	0.192926	-0.998053	7.603154	2.565105	0.154845	3.400449	-4.515973	26.764808	-0.453231	-0.742661	0.041471
-2.940317	-0.183178	11.550242	8.300504	131.827772	30.238902	0.598664	-0.138956	-0.993451	16.490669	18.38604	18.192793	19.988729	23.714541	-62.130018	0.189877	0.238963	-1.001339	7.894933	2.563688	-0.019374	6.751432	-7.527707	29.304334	-0.481535	-0.774628	0.027477
-3.666561	-0.523428	12.443968	15.132281	144.921609	24.268877	0.587187	-0.165782	-1.039159	21.050289	18.206624	16.137059	197.782399	-64.745422	-4.296869	0.17631	0.236744	-0.972364	8.608899	2.447152	0.292871	12.197418	-11.397752	32.757544	-0.481327	-0.758435	0.02664
-3.781484	0.05107	12.444154	13.229453	148.898794	24.921625	0.62842	-0.160191	-1.01547	34.419416	26.296736	20.501198	338.231041	-97.94585	63.805392	0.17697	0.193998	-1.012403	8.54164	2.677861	-0.126588	17.923835	-14.123337	35.073221	-0.522629	-0.745334	0.072176
-3.587575	0.228095	13.58528	18.548867	157.448277	23.512152	0.67041	-0.164843	-1.002442	7.89792	1.42817	-3.119717	428.742589	-68.797504	150.289393	0.177335	0.150181	-1.038091	9.019467	4.014507	0.367157	21.234576	-14.726263	32.404419	-0.509072	-0.75967	0.042028
-2.334286	-0.291238	13.266487	15.582268	170.690186	19.320399	0.670438	-0.199442	-0.967458	0.212465	28.782637	19.388667	78.87034	-128.825386	-72.938403	0.164134	0.104144	-1.034805	10.740245	6.162618	1.187007	14.936304	-12.595114	22.298533	-0.508233	-0.713571	0.0861
-4.088887	0.920903	14.317245	-3.062154	187.259456	13.173212	0.670796	-0.178614	-0.999026	2.140303	4.720517	13.180373	101.254811	-134.538526	103.364905	0.150938	0.118318	-1.021183	13.320456	9.465033	0.770263	-1.575707	-8.588226	13.627543	-0.494329	-0.694696	0.03875
-2.412977	1.912171	18.104829	-13.000473	212.334495	-5.64937	0.668924	-0.178956	-0.946138	0.326339	6.743656	3.859336	172.843784	-159.126971	50.947379	0.125646	0.075422	-1.06067	14.375158	8.93794	0.308591	-7.20373	1.716544	23.808271	-0.522141	-0.713775	0.08603
-2.433481	0.369011	19.916499	-2.359357	237.124493	-12.821454	0.740284	-0.191072	-0.958544	5.086157	-0.131741	10.577097	9.672959	-129.059664	44.671093	0.099254	0.103769	-1.033426	14.313644	5.276813	-0.307154	5.728229	11.77414	22.918637	-0.508721	-0.74513	0.072246
-3.830556	-0.209476	18.693447	28.540178	266.130302	-18.173924	0.725792	-0.194225	-0.944119	1.235826	-4.180365	10.436046	-3.65132	-24.423376	56.337225	0.046019	0.068541	-0.972917	11.977705	3.937925	-2.392592	8.73919	14.148562	-10.44936	-0.508583	-0.728111	0.055881
-3.727141	-0.269413	18.126902	36.193132	295.795608	-21.087106	0.783046	-0.223266	-0.938684	0.643204	3.425238	10.317079	53.773325	-52.806822	5.72502	0.085167	0.054517	-0.98709	9.554937	5.279209	-2.432024	8.511117	21.747663	-23.594481	-0.494258	-0.695522	0.054277
-3.185039	-1.930041	19.437546	19.684882	324.199664	-25.822262	0.838399	-0.21805	-0.915345	1.737757	2.125157	7.564826	25.730615	-49.642634	39.73884	0.034368	0.043184	-1.042382	8.200503	6.386996	-2.153102	7.296857	26.654374	-10.381567	-0.466789	-0.728325	0.07162
-4.37965	0.612773	22.834853	9.006445	321.412693	-17.218076	0.866654	-0.236098	-0.898552	3.003092	-1.480315	9.909402	-46.417488	-24.010298	17.861439	0.034218	0.012543	-1.040375	6.957862	6.389089	-2.355932	4.625493	23.518166	-3.847407	-0.522074	-0.69593	0.054137
-2.309381	1.877166	23.391925	43.50182	305.166853	-24.206887	0.90753	-0.251335	-0.843295	2.463703	-1.477815	11.596501	-17.036501	8.174046	-3.035777	0.034148	0.057433	-1.029036	7.384565	5.752027	-1.691973	1.853	19.556387	-3.298908	-0.536541	-0.726867	0.024685
-3.807571	-0.561645	16.930667	78.985802	295.549076	-22.471903	0.935028	-0.259141	-0.815842	1.27044	2.128119	9.93281	12.198115	-16.669596	-20.337644	0.058919	0.053295	-0.972189	7.286611	5.640596	-0.616344	-2.599564	18.198112	-3.643045	-0.466651	-0.711306	0.055255
-4.618829	0.528394	16.464838	64.304499	250.71336	-22.239028	0.948034	-0.2701	-0.773963	1.588891	1.675737	8.636973	-3.195305	-9.611239	-13.528728	0.058839	-0.022235	-0.98152	8.235231	4.709713	-0.482879	-5.66916	17.226136	-5.369312	-0.564006	-0.712735	0.054763
1.342681	1.55972	16.982956	92.120166	207.958973	-15.561555	0.975903	-0.274378	-0.760586	1.79485	0.719028	10.112423	-15.627349	3.873758	-13.219683	0.033628	0.0104	-1.011676	8.766531	5.115277	-0.411337	-9.298014	17.00562	-8.96133	-0.466442	-0.695114	0.054418
2.522387	0.519836	15.808081	162.167309	165.298104	-22.162166	1.003016	-0.268413	-0.736548	1.744753	0.606759	10.450957	-9.58501	-2.051681	-14.383521	0.058769	0.022654	-0.970182	9.241111	4.533684	-0.345099	-13.404317	17.93324	-11.334596	-0.49412	-0.678503	0.037912
10.114207	-9.257251	14.380119	194.057052	127.917076	-50.039752	1.030142	-0.279747	-0.695019	1.906916	1.056701	10.001846	-1.533759	-5.409771	-15.088632	0.007681	0.070459	-1.000789	9.363275	4.650555	-0.102776	-15.790225	18.847833	-14.814123	-0.522286	-0.693452	0.007554
27.150419	-6.739663	1.8216	224.824781	194.930569	-1.342484	1.043562	-0.339076	-0.614741	1.213929	0.945238	9.873965	-11.64079	-3.281151	-13.225965	0.020582	0.055214	-1.000061	9.302173	4.127264	-0.285823	-16.740458	18.985781	-19.609051	-0.522704	-0.725837	0.009228
19.205456	-6.788449	2.348821	106.658779	-19.055481	-64.878717	1.030556	-0.328116	-0.656619	1.20208	1.451786	9.364636	-12.307193	-7.006405	-12.215413	0.020142	0.083711	-0.973369	8.70653	4.592234	-0.534477	-17.846704	17.884643	-22.961135	-0.509351	-0.775036	0.027337
8.172196	-3.337434	14.82194	-93.694956	-59.788465	-35.667204	1.029456	-0.356001	-0.5969	1.776717	0.718317	9.262829	-10.604224	-6.50727	-10.205299	0.046754	0.041115	-1.013959	8.471025	4.825325	-0.477983	-18.495218	16.083355	-20.566703	-0.55024	-0.710879	0.023778
7.347728	-6.456591	10.587305	169.645409	-8.11747	-52.242796	1.099259	-0.295733	-0.640461	1.451229	1.057753	10.218733	-11.345028	-3.889868	-8.638494	0.020657	0.070534	-1.001065	8.233995	4.767542	-0.542539	-19.758491	14.15214	-17.649885	-0.494888	-0.725428	0.009368
11.539614	-10.183567	-0.542459	122.653914	-58.067307	-39.298986	1.043934	-0.335548	-0.628816	1.222391	0.94557	10.270442	-7.687236	-5.315381	-8.618898	0.007901	0.056211	-1.014135	8.723016	4.131087	0.302242	-22.088913	10.94904	-16.342696	-0.523196	-0.738724	-0.052047
10.401661	-5.904961	5.818447	-24.726194	-134.048442	-20.846227	1.029813	-0.335173	-0.628467	1.564349	0.212437	10.050521	-4.673529	-6.380742	-8.657893	0.00672	0.051923	-0.956736	8.609001	4.771429	0.602295	-19.997594	6.522879	-16.512503	-0.495097	-0.741621	0.010205
9.065537	-6.068089	7.724005	15.088427	-158.853932	-19.308798	1.072175	-0.336297	-0.629515	2.082677	0.718489	10.118468	-2.622911	-5.492801	-9.171483	0.007386	0.069387	-0.986439	8.85879	4.076696	1.262706	-16.378002	1.910318	-18.826051	-0.494888	-0.725428	0.009368
9.312097	-6.593955	5.680689	10.197214	-192.932669	-16.01434	1.045063	-0.342262	-0.653553	1.57007	0.381666	10.333861	-1.359465	-8.345878	-11.20262	0.020212	0.038822	-0.984708	8.562339	4.193276	1.197791	-15.540661	-1.949359	-17.98559	-0.481327	-0.758435	0.02664
9.022816	-7.054004	5.502632	-5.248126	-232.614997	-14.344676	1.032071	-0.348602	-0.677939	1.631262	0.3817	10.504989	5.355657	-7.458259	-11.989903	0.007681	0.070459	-1.000789	8.092681	4.078699	1.308307	-14.445672	-4.307645	-17.306014	-0.46756	-0.756579	-0.004345
8.228841	-6.764527	5.886221	-28.118614	-269.903657	-10.283773	1.018308	-0.3274	-0.709158	1.575014	0.325525	10.560372	8.545758	-11.99235	-15.824168	0.020507	0.039894	-0.999057	7.551247	4.716773	0.821867	-11.007076	-5.199014	-18.658786	-0.411649	-0.740396	0.010626
6.370498	-6.58408	7.442087	-48.774408	-295.299222	-7.078949	1.005302	-0.31644	-0.751037	1.620622	0.888296	10.052299	11.886594	-11.612073	-15.91018	0.020136	0.023501	-0.983704	8.192431	4.364853	0.353234	-5.896523	-5.073081	-20.205799	-0.495305	-0.757813	0.011042
5.297755	-5.890616	8.219769	-55.63309	-308.753108	-6.664227	1.005645	-0.278313	-0.800096	1.901627	0.66215	9.718316	9.566253	-9.608591	-17.310173	0.033118	0.083786	-0.973645	8.296698	4.129065	-0.424344	-2.409457	-4.724707	-20.158973	-0.481189	-0.741417	0.010275
4.508027	-5.312967	8.831978	-65.620892	-315.255137	-9.991995	0.935771	-0.252084	-0.843994	1.906785	0.493348	9.944732	9.272976	-8.729289	-21.062549	0.007971	0.011321	-1.025474	8.535773	3.780563	-0.301612	0.729312	-2.742259	-18.529658	-0.467419	-0.758231	0.026711
2.984552	-5.479347	9.938251	-75.596087	-313.861332	-14.847901	0.895295	-0.267918	-0.878342	1.215808	1.226986	9.987481	12.664965	-6.753979	-21.13266	0.033043	0.068466	-0.972641	8.007254	4.0729	-0.130559	4.267649	-0.134896	-18.03542	-0.495305	-0.757813	0.011042
1.523649	-5.299914	11.331352	-77.525597	-305.974045	-19.130941	0.881904	-0.243187	-0.923637	1.919975	0.5502	10.567815	14.708329	-6.790921	-25.601248	-0.018641	0.053917	-0.984884	8.480214	4.18822	-0.061354	7.218459	2.784182	-18.304501	-0.509355	-0.756365	-0.020084
0.577705	-4.661321	12.736404	-83.056444	-308.259161	-26.114687	0.781888	-0.181953	-0.948932	1.895282	1.450588	9.492422	25.390646	-2.300336	-25.732963	-0.006256	0.051848	-0.95646	8.35915	4.071596	-0.24377	8.588616	5.092151	-19.176108	-0.495794	-0.789372	-0.002811
0.580761	-5.809669	12.845284	-89.691034	-318.829436	-27.555459	0.796766	-0.19257	-0.959941	1.330508	1.452092	9.990089	14.188409	-0.92237	-19.038879	-0.006256	0.051848	-0.95646	8.893421	3.199487	-0.177668	8.986425	4.261034	-18.531859	-0.496353	-0.820104	-0.032193
-1.085449	-4.533373	15.489284	-111.781828	-327.054951	-25.018246	0.769254	-0.167465	-1.004886	2.020515	1.225429	9.947767	11.467549	-9.210986	-27.569984	0.007311	0.054067	-0.985436	8.309478	3.841405	0.233396	8.160248	4.059683	-17.091656	-0.467419	-0.758231	0.026711
-3.792546	-4.407574	17.539883	-104.146331	-327.299008	-24.798795	0.697451	-0.072381	-1.065863	2.074993	0.943527	9.77882	16.176136	-5.372528	-23.952157	-0.019232	0.051773	-0.956185	8.074358	3.435413	0.227263	3.76171	3.650894	-14.567939	-0.481886	-0.789168	-0.002741
-7.124153	-3.258511	16.968449	-96.677082	-328.003839	-19.310769	0.614256	-0.107918	-1.067596	2.246349	0.379803	9.668693	14.903031	-6.195849	-27.136498	0.007386	0.069387	-0.986439	8.012446	3.260578	0.045701	0.777012	1.858682	-10.881407	-0.481606	-0.773802	0.01195
-7.866353	-4.636328	17.005035	-110.490443	-296.666256	12.182249	0.61347	-0.063077	-1.09192	1.858521	-0.576539	10.28246	26.722942	0.303066	-27.401461	0.020136	0.023501	-0.983704	7.359582	3.900405	-0.083499	1.038662	0.154455	-5.709438	-0.46756	-0.756579	-0.004345
-17.362531	-0.995873	20.302324	-137.629954	-293.417177	61.76943	0.544382	-0.081689	-1.111494	2.203552	1.507185	10.461387	31.628763	-5.913543	-37.878539	0.032892	0.037825	-0.970634	7.178226	2.912034	-0.450444	-3.30597	-0.949862	1.982734	-0.481677	-0.772975	-0.003578
-20.461076	-0.822758	19.901801	-105.191836	-284.554318	91.186382	0.528361	-0.047058	-1.09324	1.43422	1.733102	9.482988	20.003965	-12.045836	-41.771241	0.00694	0.037675	-0.970082	6.883166	3.377565	-0.394062	-4.285069	-2.082131	10.580285	-0.481189	-0.741417	0.010275
-22.020396	0.841511	19.25335	-101.732097	-275.336712	128.961336	0.485599	-0.014864	-1.1131	1.848573	0.831439	9.943808	19.202048	-16.436807	-37.71573	-0.006036	0.0376	-0.969806	6.405109	3.086781	-0.763543	-4.772019	-3.148288	18.870652	-0.468045	-0.806809	0.029222
-7.5013	-2.776268	35.717183	-90.154908	-255.809735	148.212485	0.430632	-0.033851	-1.133024	2.3824	1.450769	10.748164	24.969016	-18.361976	-51.046784	0.019766	0.007109	-0.968351	6.517369	3.201427	-1.060382	-4.306683	-3.334972	25.258627	-0.481468	-0.756783	-0.004415
-45.959755	16.660991	33.68712	-29.583796	-209.536846	210.579567	0.414239	-0.002749	-1.100694	2.210613	2.239814	10.858481	21.051108	-24.449995	-42.078669	-0.006186	0.006959	-0.967799	6.874477	2.852655	-0.935449	-4.914858	-2.791089	31.616758	-0.481256	-0.759262	0.042168
-34.868743	12.520636	21.212219	238.200161	-66.472926	160.512404	0.344394	-0.011119	-1.109608	2.894543	3.536317	13.365012	5.596374	-47.501317	-45.71104	0.007305	-0.006143	-0.995771	7.641302	3.489984	-0.858517	-5.498697	-2.452075	37.089513	-0.495794	-0.789372	-0.002811
-28.893206	10.263094	4.781283	365.002363	-26.468959	119.67475	0.345194	-0.073259	-1.067793	1.72745	1.678807	12.433035	27.354554	-63.219975	-43.445391	0.019691	-0.008212	-0.967347	7.819897	4.245309	-0.672281	-5.263273	-1.588172	39.408025	-0.495589	-0.754508	-0.051069
-36.146499	22.33687	6.05502	88.67498	7.176221	53.858842	0.318082	-0.079225	-1.091831	0.41923	3.540952	13.313029	28.037237	-74.683144	-38.811634	-0.032508	-0.009584	-0.951894	8.885219	4.359772	-0.472257	-5.278901	0.338846	39.398882	-0.467631	-0.755753	-0.019873
-39.975438	30.651401	15.449437	96.201233	22.429179	-3.347296	0.318839	-0.089467	-1.102491	0.420008	3.766321	13.369858	29.627197	-97.221774	-32.468423	-0.006481	0.005887	-0.953449	9.303543	4.011359	-0.22641	-6.986799	4.240246	37.185244	-0.481397	-0.757609	0.011112
-39.935768	38.678175	11.960556	324.376435	55.945013	-98.437037	0.334103	-0.113856	-1.110084	0.582256	3.540249	12.863539	32.346101	-124.784972	-16.155408	-0.04578	-0.01073	-0.937269	10.594661	5.226996	-0.436636	-6.7923	8.197174	33.221929	-0.481539	-0.755957	-0.019943
-6.821819	3.973964	-11.126241	339.641219	33.90115	-85.921279	0.362401	-0.183802	-1.040816	0.940622	3.709115	13.49397	33.374772	-134.696428	-0.037743	-0.097388	-0.009959	-0.950516	11.714814	7.141682	-0.227849	-4.394256	11.386028	27.389666	-0.495376	-0.756987	-0.004486
-2.317978	2.712169	17.143932	-13.100654	-25.572294	-21.75484	0.335675	-0.203538	-1.061437	1.631168	3.2008	13.45141	32.013839	-135.599387	18.141095	-0.085373	-0.02842	-0.906739	13.183385	8.182685	-0.435515	2.54974	10.618852	24.097273	-0.467493	-0.738734	-0.036238
4.425211	11.317293	2.364966	123.539382	33.603644	14.327731	0.335675	-0.203538	-1.061437	1.989812	1.961309	13.967377	30.660074	-160.426478	34.263916	-0.072102	-0.027273	-0.921364	13.56103	5.630486	0.51872	2.720687	6.9236	32.459845	-0.537104	-0.738928	-0.052117
-0.986686	3.756118	6.262787	-85.642888	65.326353	-6.910862	0.363201	-0.245943	-0.999	2.900733	1.564844	13.476631	48.498195	-174.717822	48.441713	-0.12349	-0.04075	-0.947957	12.056937	3.955725	1.920704	-11.295074	4.699207	26.804623	-0.509005	-0.741825	0.010135
-1.94827	0.107426	12.53688	-101.225171	7.939856	-47.612446	0.378451	-0.253032	-1.024086	0.629598	2.417777	17.675747	58.000025	-151.037514	50.25701	-0.149518	-0.05622	-0.946402	10.930864	5.061241	1.784679	-4.747017	-2.612634	11.440326	-0.49475	-0.70841	-0.006997
-0.908647	0.555797	10.115284	-19.422704	28.971292	-25.849647	0.390642	-0.184551	-1.041514	-0.894433	5.184642	22.005471	10.973985	-151.379599	62.856712	-0.189551	-0.045412	-0.889179	9.509149	5.93488	1.582257	0.433693	-11.022705	1.283746	-0.49503	-0.723776	-0.021688
-0.590944	2.38837	8.878919	-46.20865	35.443349	-19.440902	0.404763	-0.184926	-1.041863	0.689849	3.152493	20.564983	30.530658	-188.274522	105.950008	-0.163744	-0.015693	-0.877388	8.085714	5.181155	1.073377	0.564358	-16.410482	4.762677	-0.536474	-0.709022	-0.007207
-1.833005	-0.307093	9.639024	-52.537816	26.524091	-24.137798	0.377679	-0.22549	-1.030917	1.226732	0.279188	21.196481	32.889492	-220.367162	117.042047	-0.215503	-0.045562	-0.888628	7.829281	4.944693	-0.070245	-0.392684	-18.333048	12.90562	-0.550728	-0.742437	0.009924
-1.195328	-0.420743	10.048761	-61.094967	23.874986	-5.447139	0.405878	-0.174341	-1.084091	0.926891	1.746325	23.456044	39.830266	-244.399242	100.836518	-0.255907	-0.051147	-0.816052	7.648101	4.827957	-0.313668	-2.826486	-19.773661	15.336053	-0.48133	-0.739764	-0.02078
-1.567941	-0.873954	11.460364	-25.632668	17.487252	3.179411	0.391786	-0.208565	-1.048758	-1.568504	4.907283	25.444534	62.638935	-257.00306	81.458645	-0.269103	-0.036974	-0.80243	7.765707	4.53706	-0.37261	-3.535327	-20.338962	10.603581	-0.522775	-0.72501	-0.0063
-1.851069	0.033697	8.730822	8.612327	17.750098	12.959715	0.433761	-0.195918	-1.053222	-4.446939	5.872723	28.159026	153.516623	-235.51454	94.880288	-0.334203	-0.0231	-0.787705	7.942216	4.768959	-0.36832	-2.8789	-19.549827	5.493108	-0.480842	-0.708206	-0.006927
-1.78153	1.53003	9.420447	-13.320208	10.748956	11.55977	0.376893	-0.180648	-1.055241	-4.213542	2.09562	25.273273	267.215999	-231.02325	117.649101	-0.321968	-0.05581	-0.757274	7.937254	4.535419	-0.668844	-2.467433	-18.95108	0.965337	-0.522562	-0.727489	0.040283
-0.737008	0.727998	10.119348	-14.373032	10.618598	9.076733	0.419269	-0.199071	-1.038797	-0.028002	-2.191979	26.88598	249.370674	-305.759	80.446607	-0.322263	-0.056882	-0.742925	7.775882	4.423133	0.166057	-3.0703	-16.992631	0.652542	-0.50817	-0.677055	0.006787
-0.626746	0.439742	9.892956	-11.254514	10.499356	7.317834	0.375779	-0.191233	-1.013013	-7.251524	-5.170072	19.7681	265.569001	-401.866695	68.714438	-0.349471	-0.07664	-0.683971	7.890903	4.770825	0.049928	-3.880091	-15.548593	2.696323	-0.508378	-0.693248	0.007624
-0.622541	0.785356	10.121817	-14.481049	11.603704	3.481034	0.43299	-0.168376	-1.060053	-5.35401	-18.144901	2.359343	273.907974	-477.034908	170.102517	-0.442299	-0.129558	-0.592931	8.017718	4.307677	0.469499	-2.470922	-15.805533	1.408783	-0.480771	-0.709032	0.008601
-1.043365	0.781304	9.090667	-13.975337	11.900999	-0.839733	0.405878	-0.174341	-1.084091	-12.712895	-27.557565	-19.769811	302.139147	-355.738837	8.280569	-0.469427	-0.073785	-0.524646	7.791943	3.671359	0.941633	-0.3361	-16.001489	-2.571168	-0.509422	-0.77421	0.011809
-0.91409	0.382266	9.830295	-17.163929	13.14071	-3.049192	0.418883	-0.1853	-1.042212	-21.761901	-7.767588	-18.696894	135.862709	-16.125062	-215.883243	-0.483664	-0.153678	-0.476302	8.966763	3.667422	0.664107	3.806696	-16.073249	-6.039315	-0.522704	-0.725837	0.009228
-1.251143	0.67117	10.165939	-20.167014	14.219974	-4.587107	0.420384	-0.188487	-1.081024	-7.101239	6.982834	3.646937	-259.95229	191.143372	-103.68753	-0.469878	-0.165708	-0.518624	8.916571	4.13439	1.204147	7.627727	-14.844243	-8.228859	-0.494888	-0.725428	0.009368
-0.568378	0.439942	9.950923	-20.46806	15.016482	-4.481288	0.418898	-0.2026	-1.024721	-8.261244	-6.697597	10.064523	4.558362	172.444506	65.547999	-0.469507	-0.149316	-0.533977	9.328199	4.772281	1.214569	11.698772	-14.520903	-8.520192	-0.494262	-0.676851	0.006857
-0.915163	0.324584	9.7732	-15.526462	16.052912	-4.417328	0.419284	-0.216371	-1.021305	-11.019128	-12.259893	20.53193	-54.904469	107.091807	-68.296394	-0.456902	-0.165633	-0.518899	9.271498	4.249979	1.271151	13.064216	-12.856134	-9.327659	-0.466655	-0.692635	0.007834
-1.370805	0.095632	9.877033	-16.110604	15.085049	-3.327307	0.434133	-0.192389	-1.067298	-6.678303	-3.995314	11.685348	85.246188	90.302526	-26.366772	-0.430064	-0.162267	-0.5625	9.379066	4.014933	0.673294	12.170315	-10.283091	-12.97336	-0.480771	-0.709032	0.008601
-0.901884	0.442362	10.45592	-13.802745	15.726857	-2.066112	0.418869	-0.168001	-1.059704	-8.491277	-5.40619	4.795713	26.505496	119.758515	32.021152	-0.456236	-0.148169	-0.548603	8.951647	4.012664	-0.113199	10.208363	-5.810171	-17.327003	-0.508308	-0.694074	0.023152
-0.846898	0.499279	10.343569	-10.949979	16.422131	-2.584385	0.419241	-0.164473	-1.07378	-3.986939	-9.695479	5.169602	-18.038516	150.085411	21.126766	-0.429184	-0.219261	-0.615885	9.485824	4.128343	0.07692	6.625217	-1.274567	-19.413642	-0.466304	-0.678095	0.038053
-1.024927	-0.076459	9.996696	-10.174861	17.620693	-2.260451	0.418912	-0.219899	-1.007229	-2.442522	-6.203655	7.752755	-42.225091	187.619618	5.203259	-0.429179	-0.159051	-0.605549	8.958115	4.072223	0.24649	4.471641	2.251447	-18.016987	-0.522704	-0.725837	0.009228
-1.370847	0.153073	9.877275	-7.336175	20.552466	-2.159634	0.433361	-0.164847	-1.074129	-2.150099	-6.711026	7.928292	-53.845457	194.550327	4.707996	-0.403007	-0.17315	-0.619447	8.954834	4.536337	0.128654	5.171126	4.6355	-17.603077	-0.494746	-0.727081	0.040424
-1.137251	-0.018452	10.108417	-11.924523	22.664183	-3.246835	0.392143	-0.187737	-1.080326	-1.477901	-7.107392	7.036233	-64.586065	210.618713	-14.747144	-0.38922	-0.18518	-0.661768	8.830044	4.128344	-0.294626	5.892699	5.825403	-17.061312	-0.480838	-0.726877	0.040494
-1.422409	-0.018004	10.159703	-12.891893	25.562722	-4.485021	0.418483	-0.15423	-1.06312	-1.077661	-6.319566	6.98872	-92.129748	229.913312	-31.2236	-0.362157	-0.135853	-0.70838	8.660273	3.839853	0.060278	5.766953	5.860593	-17.549963	-0.466863	-0.708828	0.008671
-0.621961	-0.018825	10.118438	-16.482988	28.663812	-2.982854	0.433361	-0.164847	-1.074129	-1.106514	-5.529646	8.404165	-119.777085	246.20118	-47.267134	-0.33547	-0.163128	-0.749973	9.021668	4.015001	0.48697	5.176824	4.717814	-16.686729	-0.467627	-0.774424	0.027548
-1.471994	0.156051	10.557285	-18.263574	33.770129	-4.121471	0.447868	-0.178993	-1.071063	0.187105	-4.57326	9.790918	-138.46013	250.950505	-60.705289	-0.295946	-0.100549	-0.769165	8.667456	4.538743	0.5425	4.841976	4.304735	-15.308392	-0.480976	-0.743896	0.056859
-1.536877	-0.075362	10.157234	-22.186666	36.760327	-1.117408	0.404363	-0.153855	-1.062771	1.470061	-3.729962	10.667819	-146.788776	242.002902	-66.349429	-0.320717	-0.096412	-0.826012	8.787129	4.306416	0.603619	5.084694	3.8474	-15.368207	-0.494955	-0.743273	0.041261
-1.18844	-0.706503	10.388673	-20.992875	36.963401	5.843979	0.446753	-0.189578	-1.028835	2.29722	-2.829282	11.761655	-151.022877	229.772117	-67.73839	-0.255837	-0.096036	-0.827391	8.843654	3.957083	0.423515	5.507892	3.244085	-16.03916	-0.495514	-0.774006	0.011879
-1.708557	-0.190121	10.153411	-23.850878	41.33154	12.424448	0.461245	-0.186424	-1.04326	2.301432	-1.871426	12.045659	-160.440624	225.442209	-70.03921	-0.293434	-0.061333	-0.88597	9.138465	4.07256	0.429512	6.523387	3.034245	-16.102954	-0.439465	-0.740804	0.010486
-1.379423	-0.308389	9.420519	-9.328573	38.100233	16.040637	0.447496	-0.182521	-1.056987	3.529193	-2.267291	12.920308	-172.096851	224.68672	-75.450234	-0.241235	-0.059961	-0.901423	8.601392	3.781912	0.05893	6.805958	3.336099	-15.616473	-0.494329	-0.694696	0.03875
-1.445301	0.838794	9.02626	-8.801649	32.760181	18.313517	0.461617	-0.182896	-1.057336	3.787736	-1.252588	14.341988	-180.263025	226.20777	-80.404206	-0.176575	-0.045337	-0.889455	8.785738	3.957465	0.482321	6.320607	3.878012	-14.945	-0.453932	-0.771741	-0.018966
-0.668661	0.78781	10.689234	-6.063075	20.807196	24.642807	0.448211	-0.140866	-1.120122	4.048781	-0.913803	15.819738	-182.230289	225.08094	-75.76269	-0.162193	0.004986	-0.950141	8.492163	3.78416	0.535984	6.908833	3.968737	-14.641971	-0.481189	-0.741417	0.010275
-2.067689	0.738401	12.309895	-2.663282	34.735766	17.34669	0.474966	-0.155728	-1.064517	4.06957	-0.405974	16.839677	-184.536212	213.004201	-59.609742	-0.084036	0.066718	-0.95581	8.432047	3.784047	0.474977	8.068519	4.589071	-12.112683	-0.453582	-0.757201	0.011253
-1.854835	-0.012123	11.458416	-6.804763	54.244874	16.111791	0.460473	-0.158882	-1.050092	4.715141	0.72002	17.533599	-183.480876	198.733536	-34.042734	-0.070765	0.067865	-0.970435	8.257874	3.494567	0.590253	10.176445	4.885807	-10.502046	-0.452885	-0.70945	0.024269
-2.097421	0.272355	10.772931	0.882381	60.722415	19.813379	0.475337	-0.1522	-1.078593	5.782527	1.223951	16.367563	-186.181698	191.108955	-1.844951	-0.056533	0.087548	-1.029113	8.72284	3.259452	0.17872	12.493884	5.040141	-9.838846	-0.439394	-0.741631	0.026014
-1.86267	0.043629	11.060685	-6.632384	68.662787	21.067983	0.517313	-0.139553	-1.083056	7.505671	1.952919	16.291168	-202.258214	186.769155	31.332584	-0.017009	0.150127	-1.048305	8.365287	2.852741	-0.069241	12.770733	5.0424	-9.962101	-0.453093	-0.725642	0.025107
-2.094247	0.502845	10.944456	4.948029	71.238597	23.560292	0.489843	-0.166346	-1.075526	10.513902	1.778892	17.033564	-203.151011	168.99106	45.737698	-0.018115	0.16116	-0.99191	8.082446	2.79806	0.583985	12.488165	3.995343	-9.375432	-0.509422	-0.77421	0.011809
-1.75839	0.328583	10.552441	10.479884	83.182954	23.861178	0.502849	-0.177305	-1.033648	12.147473	4.703768	15.655099	-187.561062	150.892986	51.674639	0.035416	0.19746	-1.066768	7.839239	3.02942	0.221131	11.663159	2.642931	-6.065403	-0.480701	-0.709858	0.024129
-2.445733	0.731171	10.540768	7.080213	93.090034	24.001344	0.503207	-0.156477	-1.065215	14.316957	5.262314	14.908557	-178.710406	138.917433	44.93388	0.047657	0.224961	-1.026002	7.552712	3.613081	0.757263	11.040267	1.134476	0.57605	-0.467001	-0.725846	0.025036
-2.337947	0.787082	10.202118	-0.452743	99.518423	23.023635	0.503964	-0.16672	-1.075875	15.614975	6.836188	13.861537	-161.943977	126.135366	26.753595	0.060633	0.225036	-1.026278	7.184444	3.552601	-0.028376	10.699878	0.238507	7.244474	-0.438768	-0.693053	0.023503
-2.90018	0.387577	10.700972	-0.18015	110.959243	19.406503	0.546726	-0.198914	-1.056015	15.49311	9.481507	11.087217	-155.211486	109.5136	9.175107	0.061593	0.243572	-1.070331	7.554757	3.206796	0.815439	10.146802	-0.322696	14.004126	-0.41144	-0.724204	0.009789
-2.718478	0.504507	11.216473	2.593343	119.31802	17.633215	0.544811	-0.147358	-1.055603	15.833391	10.889028	10.982377	-160.001373	97.544312	-16.134213	0.112762	0.271297	-1.030392	7.499022	2.742817	0.932175	10.830552	-0.761832	21.2176	-0.467072	-0.72502	0.009509
-2.760594	-0.41138	11.950589	6.47862	125.430694	13.888287	0.57421	-0.189421	-1.046054	19.714848	17.478668	18.203094	-131.892097	94.832217	-57.876743	0.087701	0.334572	-1.062554	7.194557	2.044108	0.324637	12.881794	-2.182409	26.199645	-0.495514	-0.774006	0.011879
-2.873083	-0.123607	12.063274	6.548243	129.572797	17.083271	0.602422	-0.155571	-1.081736	13.198833	17.375376	14.839144	-44.528509	63.158274	-40.705397	0.100307	0.318255	-1.047477	7.544678	2.332936	0.152755	17.19166	-4.69944	28.549906	-0.481189	-0.741417	0.010275
-3.224404	-0.125047	11.658622	11.731279	133.470267	19.554221	0.587558	-0.162253	-1.053235	15.815622	17.648501	10.761509	41.497909	61.982741	-26.745346	0.100382	0.333576	-1.04848	7.657363	2.738209	-0.082941	24.235965	-8.243091	30.558933	-0.48098	-0.725224	0.009438
-3.219992	-0.06664	11.886275	12.244621	141.383406	12.751126	0.631478	-0.23576	-1.023127	18.953415	16.007755	9.353994	82.550923	33.191127	-6.65281	0.153096	0.321771	-1.091629	7.305042	2.448887	-0.030873	31.656793	-12.418199	34.617908	-0.466371	-0.69594	0.069946
-4.882887	0.33617	11.741967	7.126189	147.877849	17.65522	0.658204	-0.216024	-1.002505	24.447895	22.941897	27.478813	138.846544	-46.48826	16.183946	0.140196	0.337016	-1.092357	7.489773	1.985357	0.329892	38.566907	-16.465164	40.910054	-0.480492	-0.693666	0.023292
-4.301352	0.222802	12.207444	5.533894	157.980636	17.302777	0.672696	-0.21287	-1.01693	39.014474	21.107284	22.348166	405.480982	-150.624426	62.133651	0.100747	0.289758	-1.074169	7.846901	2.10144	0.51671	44.771172	-19.527327	46.374865	-0.453093	-0.725642	0.025107
-3.773073	0.742298	12.901875	7.688075	169.548746	16.534078	0.685316	-0.210059	-0.978468	15.179797	-1.450261	6.202175	551.273384	-107.737984	160.393375	0.112982	0.257049	-1.043738	8.267758	3.031937	1.067531	47.433615	-21.71386	45.794752	-0.466025	-0.662729	0.052744
-3.598342	1.259872	13.077946	9.514483	181.775768	17.064969	0.713543	-0.193509	-0.996658	-10.80134	30.663898	21.140507	180.157963	-158.632964	-99.999595	0.101251	0.156162	-1.122535	10.80818	5.641529	1.60523	39.366263	-18.69962	32.479996	-0.480626	-0.729356	0.087077
-3.103728	1.497267	14.963971	10.565618	197.903305	9.105868	0.726949	-0.235539	-0.933872	-2.635072	-0.396899	12.73588	141.664381	-103.430638	154.771121	0.074703	0.093658	-1.103619	13.438394	10.452549	0.896481	17.713417	-16.793434	6.291737	-0.494538	-0.710888	0.039587
-1.67288	3.117181	17.953812	-1.124211	219.513318	-5.566779	0.741441	-0.232385	-0.948297	3.334585	4.034566	4.37304	214.751611	-137.645841	52.859449	0.034959	0.045328	-1.071082	15.182974	12.592614	-0.19959	-26.987896	4.698126	15.581863	-0.479933	-0.662933	0.052673
-3.236654	1.058649	19.846953	19.5697	247.528722	-25.04522	0.783817	-0.250808	-0.931853	2.837924	1.050635	5.095961	54.291775	-64.309476	44.45644	0.048085	0.076044	-1.073365	15.391132	6.788562	0.737499	-4.189866	17.566734	33.228919	-0.479933	-0.662933	0.052673
