1818_acc_x	1818_acc_y	1818_acc_z	1818_gyro_x	1818_gyro_y	1818_gyro_z	1818_mag_x	1818_mag_y	1818_mag_z	1819_acc_x	1819_acc_y	1819_acc_z	1819_gyro_x	1819_gyro_y	1819_gyro_z	1819_mag_x	1819_mag_y	1819_mag_z	1820_acc_x	1820_acc_y	1820_acc_z	1820_gyro_x	1820_gyro_y	1820_gyro_z	1820_mag_x	1820_mag_y	1820_mag_z
-0.4193	-0.2311	9.8019	0.4906	0.4076	-0.0096	0.5464	-0.1741	-0.2822	2.7107	1.8037	8.9497	-0.9776	0.4453	0.2842	0.0026	-0.9916	-0.9607	9.5506	-2.4232	-0.3169	-0.3263	2.2469	-1.6864	-1.1877	0.0545	0.646
-0.7677	-0.0583	9.6773	0.3612	0.3511	-0.1898	0.4383	-0.1201	-0.2462	2.7663	1.6889	8.8318	-1.223	0.4804	0.2226	0.2172	-0.9642	-0.8534	9.6212	-2.3061	0.3849	-0.5641	2.2465	-1.4042	-1.1928	0.7974	0.5127
-0.1913	-0.0593	9.6886	0.3943	0.2891	-0.0689	0.4563	-0.1201	-0.2522	2.6508	1.7464	8.8295	-1.2546	0.45	0.2838	0.2308	-0.927	-0.837	9.2709	-2.2496	-0.0303	-0.9276	2.3085	-1.241	-1.2105	0.8326	0.5087
-0.4129	-0.6903	10.0963	0.4591	0.3173	0.0212	0.4383	-0.1201	-0.2702	2.7653	1.5743	8.7721	-1.0671	0.5402	-0.0231	0.2153	-0.8698	-0.8215	9.6142	-2.2499	0.035	-1.2024	2.6476	-1.0101	-1.1583	0.8167	0.4931
-0.254	-0.4048	9.3911	0.2403	0.3566	-0.0953	0.4563	-0.1141	-0.2582	2.7703	1.9755	9.07	-0.943	0.5693	-0.1459	0.3006	-0.8516	-0.8573	9.8938	-1.5629	-0.1903	-1.5053	2.5557	-0.9758	-1.157	0.8089	0.5664
-0.415	-0.1155	10.0386	0.2411	0.3567	-0.0648	0.4563	-0.1141	-0.2762	2.663	1.6331	9.4235	-0.8532	0.4748	0.0688	0.1875	-0.9073	-0.8202	9.8408	-1.9637	-0.0178	-1.5411	2.6797	-1.1257	-1.193	0.8325	0.509
-0.8796	-0.0576	9.8524	0.0537	0.5777	-0.2725	0.4503	-0.1201	-0.2642	2.1417	1.1761	9.2336	-0.6408	0.3175	0.0972	0.2297	-0.8709	-0.8036	9.5547	-2.1355	-0.0825	-1.424	2.5571	-1.4398	-1.2282	0.7663	0.4792
-0.3628	-0.2313	9.7439	0.0255	0.4878	-0.1198	0.4383	-0.1141	-0.2522	2.7145	1.6896	9.1277	-0.4235	0.4061	0.0683	0.2297	-0.8871	-0.8742	9.6125	-1.8486	-0.0219	-1.1746	2.5557	-1.1982	-1.1751	0.8129	0.5295
-0.8263	-0.1158	9.617	0.239	0.4785	-0.2166	0.4503	-0.1141	-0.2462	2.9425	1.8033	9.0138	-0.3056	0.1578	0.2185	0.2303	-0.907	-0.8556	9.5564	-1.7336	0.0357	-1.9674	2.5883	-1.1506	-1.2108	0.8345	0.4904
-0.2429	0.2866	10.0429	0.1486	0.5131	-0.1532	0.4443	-0.1201	-0.2522	3.0588	1.4024	9.0154	-0.6443	0.1334	0.0939	0.2585	-0.8887	-0.8561	9.7767	-1.8501	-0.3687	-1.8139	2.5263	-1.1554	-1.1762	0.9045	0.4835
-0.7062	0.2872	9.9157	0.1793	0.6033	-0.2144	0.4383	-0.1261	-0.2522	2.5444	1.5185	9.2426	-0.5513	0.2226	0.4045	0.2174	-0.9657	-0.8177	9.8433	-2.1354	0.0983	-1.7823	2.6798	-0.9976	-1.175	0.7953	0.5313
-0.5431	0.1131	9.3867	0.6352	0.5221	-0.4395	0.4323	-0.1261	-0.2702	2.999	1.803	8.9556	-0.3622	0.3747	-0.0248	0.2576	-0.8503	-0.8577	9.5565	-1.7909	0.0355	-1.9574	2.556	-0.7202	-1.1935	0.8695	0.4869
-0.0755	0.2281	9.7506	0.3353	0.597	-0.1572	0.4563	-0.1201	-0.2522	2.3626	1.7471	8.8236	-0.3294	0.5266	0.225	0.2442	-0.8883	-0.8563	9.1589	-2.0769	0.0848	-1.9494	2.3395	-0.5107	-1.1928	0.7974	0.5127
-0.6447	0.0575	10.0936	0.5754	0.5859	-0.4072	0.4443	-0.1081	-0.2642	2.654	1.9184	9.0081	-0.453	0.4981	0.1934	0.2732	-0.9083	-0.8553	9.3813	-1.3898	-0.1416	-1.6758	2.585	-0.3859	-1.1756	0.7992	0.4947
-0.4221	0.0561	9.6843	0.4557	0.561	-0.2519	0.4563	-0.1081	-0.2522	2.4295	1.3471	9.2399	-0.1175	0.3087	0.0671	0.2149	-0.8667	-0.893	9.8375	-2.079	-0.1933	-2.052	2.5875	-0.8407	-1.1755	0.8324	0.5093
-0.3013	0.1141	9.9823	0.5471	0.5875	-0.315	0.4383	-0.1141	-0.2462	2.3633	1.4609	8.823	-0.7036	0.2571	0.1269	0.2154	-0.8867	-0.8743	9.4984	-1.8484	-0.0242	-1.4703	2.6165	-0.7282	-1.1929	0.8149	0.5109
-0.6509	-0.2883	9.7381	0.4172	0.653	-0.586	0.4563	-0.1261	-0.2582	2.7143	1.804	9.1279	-0.735	0.2269	0.1263	0.2018	-0.9239	-0.8908	9.6189	-1.5605	0.3292	-1.6795	2.6471	-0.5074	-1.1578	0.8303	0.5279
-0.017	-0.2319	9.7506	0.5498	0.4048	-0.1026	0.4503	-0.1261	-0.2522	2.5387	1.9187	9.0058	-0.673	0.2563	0.1887	0.244	-0.8706	-0.8213	9.3328	-1.675	0.2647	-1.3082	2.4301	-0.4285	-1.2106	0.7994	0.4941
-0.3664	-0.1167	9.5668	0.4267	0.3795	-0.0692	0.4563	-0.1381	-0.2582	3.0064	1.1741	9.2514	-0.3687	0.067	0.155	0.2304	-0.9078	-0.8377	9.8987	-1.7915	0.0423	-0.9777	2.4915	-0.6183	-1.1578	0.8303	0.5279
-0.1933	0.4005	9.6306	0.4548	0.5609	-0.2824	0.4563	-0.1381	-0.2402	2.7646	1.4025	8.7124	-0.4282	0.1305	-0.0911	0.2152	-0.869	-0.8394	9.7237	-2.251	-0.1962	-0.9547	2.3081	-1.0864	-1.1409	0.8341	0.4915
-0.4772	-0.116	9.801	0.3594	0.4425	-0.3113	0.4443	-0.1201	-0.2642	2.4899	1.6907	9.42	-0.4289	0.1596	0.2801	0.2015	-0.9054	-0.8737	9.6187	-2.1918	0.2686	-0.5619	2.3692	-1.2158	-1.1586	0.8693	0.4875
-0.3601	0.1141	9.922	0.2731	0.569	-0.1559	0.4323	-0.1381	-0.2462	2.825	1.2309	8.832	-0.3965	0.221	0.1577	0.215	-0.8675	-0.8751	9.8519	-1.7322	0.5666	-0.7813	2.3091	-1.5214	-1.193	0.8325	0.509
-0.8847	0.2868	9.6168	0.2171	0.9078	-0.1526	0.4503	-0.1081	-0.2582	2.8321	1.7468	9.249	-0.4311	-0.023	-0.0938	0.2298	-0.8878	-0.8564	9.3245	-2.2503	-0.2042	-1.0243	2.3403	-1.454	-1.1583	0.8167	0.4931
-0.3638	-0.2889	9.6846	0.8514	0.8182	-0.6261	0.4623	-0.1261	-0.2582	2.7196	1.5756	9.3651	-0.5814	0.1938	0.0642	0.214	-0.8283	-0.8945	9.3878	-1.8476	0.1485	-1.2014	2.0323	-1.3976	-1.1757	0.8168	0.4928
-0.1914	-0.0018	9.6887	0.5439	0.6482	-0.4671	0.4383	-0.1081	-0.2582	2.6566	1.8042	9.1267	-0.8886	0.2598	0.2193	0.2164	-0.9258	-0.855	9.9611	-1.5611	0.3361	-1.8685	1.818	-1.3595	-1.1751	0.8129	0.5295
-0.7632	-0.0577	9.9137	0.8579	0.7579	-0.3521	0.4443	-0.1201	-0.2642	2.018	1.6908	8.8758	-0.3943	0.3737	0.3457	0.187	-0.8873	-0.8389	9.6652	-2.0216	-0.2548	-1.5023	1.6633	-1.4637	-1.141	0.8009	0.477
-0.4275	-0.0596	9.3885	0.2753	0.7523	-0.1854	0.4563	-0.1081	-0.2582	2.8317	2.3764	9.3097	-0.6107	0.3162	0.2825	0.2301	-0.9063	-0.8735	9.6082	-2.0215	-0.256	-1.5025	1.5403	-1.5597	-1.1933	0.8344	0.4907
-0.4212	0.1712	9.7437	0.3031	0.5677	-0.1871	0.4383	-0.1141	-0.2642	3.0013	1.8032	9.0744	-0.7948	0.32	0.1279	0.2308	-0.927	-0.837	9.6708	-1.2173	0.0982	-1.1918	1.6617	-1.2234	-1.2112	0.8033	0.4575
-0.3736	0.1699	9.2129	0.6039	0.4929	-0.4389	0.4563	-0.1141	-0.2402	2.8855	1.5172	9.0121	-0.8255	0.3205	0.1278	0.1863	-0.8666	-0.8753	9.6765	-1.9622	0.3289	-1.2804	1.7845	-1.0023	-1.2108	0.8345	0.4904
-0.363	-0.1163	9.7442	0.6998	0.4894	-0.3193	0.4383	-0.1261	-0.2462	2.7173	1.5181	9.2462	-0.7978	0.1664	0.156	0.2294	-0.8687	-0.8571	9.6707	-1.9059	0.0373	-1.3489	1.8781	-1.2757	-1.1578	0.8303	0.5279
-0.5883	-0.5178	9.9751	0.5438	0.4956	-0.3764	0.4383	-0.1141	-0.2702	2.9985	1.9747	8.9559	-0.1786	0.3404	0.0984	0.2303	-0.907	-0.8556	9.2663	-1.5045	-0.2026	-0.954	2.1234	-1.1841	-1.192	0.7584	0.5531
-0.5361	-0.001	9.7411	0.5493	0.7708	-0.3445	0.4383	-0.1201	-0.2402	3.5274	1.7455	9.4415	-0.2771	0.0346	0.1854	0.2583	-0.8872	-0.8919	9.6044	-1.7927	-0.4302	-1.0739	1.9389	-1.2178	-1.2097	0.7936	0.5491
-0.3636	-0.4039	9.6844	0.8239	0.5758	-0.3523	0.4503	-0.1141	-0.2642	2.9956	2.2034	8.8376	-0.3972	0.1603	0.0022	0.2006	-0.8501	-0.8224	9.6743	-1.9626	0.2122	-0.5584	2.1841	-1.1903	-1.1577	0.8128	0.5298
-0.4144	0.1721	10.0984	0.5773	0.6472	-0.3764	0.4683	-0.1141	-0.2582	2.7683	1.3456	8.8905	-0.3707	-0.0253	0.2151	0.2289	-0.8487	-0.8758	9.5006	-1.7907	0.0927	-0.2252	2.0606	-1.3855	-1.2621	0.7939	0.5482
-0.6475	-0.2879	9.9154	0.7642	0.7921	-0.4106	0.4443	-0.1201	-0.2522	2.8322	1.6895	9.2489	0.1515	-0.0654	0.3388	0.2168	-0.9288	-0.7835	9.5503	-1.5052	-0.2553	-0.3078	1.9672	-1.0474	-1.1753	0.7973	0.513
-0.4804	-0.1739	9.6236	0.7595	0.7611	-0.5632	0.4563	-0.1261	-0.2522	2.9353	2.3177	8.7178	0.4318	0.0538	0.0635	0.2438	-0.8698	-0.8392	9.6132	-1.5616	0.0375	0.1169	1.9357	-1.1801	-1.1403	0.8303	0.5282
-0.2439	0.229	9.9837	0.4839	0.895	-0.5557	0.4623	-0.1021	-0.2582	2.3656	1.4612	8.9418	0.5251	0.0834	-0.0594	0.2013	-0.8878	-0.8387	9.5596	-1.5609	0.2114	0.358	1.8126	-1.4042	-1.1753	0.848	0.5257
-0.486	-0.1746	9.328	0.4565	0.9577	-0.4632	0.4383	-0.1021	-0.2462	2.9451	2.2042	9.1929	0.6775	0.0491	0.1874	0.2581	-0.8695	-0.8569	9.5544	-1.9061	-0.0817	0.4171	1.8435	-1.4661	-1.193	0.8325	0.509
-0.7138	0.1712	9.5017	0.6693	0.8568	-0.5299	0.4443	-0.1081	-0.2642	2.6032	2.0337	9.3637	0.3092	0.0864	0.0947	0.2301	-0.8894	-0.8207	9.609	-1.7919	-0.1968	0.6939	1.9655	-1.2832	-1.1571	0.8265	0.5645
-0.3596	-0.1159	9.9215	1.0415	0.811	-0.4477	0.4383	-0.1081	-0.2762	2.7138	1.9757	9.1283	0.128	0.2437	-0.0572	0.1866	-0.8681	-0.8396	9.5555	-1.9059	-0.0233	0.6349	1.873	-1.2539	-1.1584	0.8849	0.504
-1.0583	0.057	9.5538	0.9483	0.7233	-0.4155	0.4323	-0.1201	-0.2582	2.8835	1.8605	8.9533	-0.1818	0.1865	0.1883	0.2579	-0.8688	-0.8748	9.159	-1.4457	0.1454	0.5796	1.7185	-1.1031	-1.1928	0.8481	0.5255
-0.1901	-0.1166	9.7475	1.075	0.7185	-0.2966	0.4323	-0.1201	-0.2522	2.6591	1.7472	9.2455	0.0644	0.1823	0.1887	0.2163	-0.925	-0.8728	9.7755	-1.793	-0.4268	0.1297	1.6262	-0.8193	-1.1749	0.8285	0.5459
-0.4751	-0.6333	9.8589	0.6736	0.7657	-0.317	0.4263	-0.1201	-0.2642	2.5987	1.9188	9.1258	-0.395	0.3128	0.2211	0.2152	-0.869	-0.8394	10.066	-1.5629	-0.1285	0.2551	1.7176	-0.6034	-1.2106	0.8501	0.5068
-0.4786	0.0564	9.7423	0.6497	0.8288	-0.1025	0.4563	-0.1201	-0.2642	2.6564	1.4035	9.0665	-0.2112	0.2487	0.1276	0.187	-0.8873	-0.8389	9.7869	-1.7909	0.1568	0.662	1.6535	-0.1818	-1.1922	0.7935	0.5494
-0.4217	-0.1739	9.6838	0.4939	0.8961	-0.1899	0.4563	-0.1081	-0.2522	2.6612	1.8619	9.3645	-0.4308	0.0674	0.3093	0.2015	-0.9054	-0.8737	9.6157	-1.7333	0.1535	0.533	1.7164	-0.4549	-1.1928	0.7974	0.5127
-0.5349	-0.0584	9.8	0.2768	0.6915	-0.0943	0.4503	-0.1321	-0.2702	2.5974	1.9759	9.0665	-0.4611	0.0685	0.1857	0.2146	-0.8483	-0.8759	9.5577	-1.8481	0.0936	0.8901	1.7169	-0.8627	-1.1759	0.8011	0.4764
-0.1322	-0.2892	9.7482	0.2777	0.8441	-0.1544	0.4383	-0.1381	-0.2402	2.7164	1.9187	9.247	-0.5524	0.1613	0.3725	0.2291	-0.8502	-0.84	9.8477	-2.0198	0.3321	0.9418	1.749	-1.2636	-1.1928	0.7974	0.5127
-0.5373	0.0563	9.6821	0.3036	0.8423	-0.3381	0.4563	-0.1261	-0.2522	2.899	1.862	9.7258	-0.2791	-0.0877	0.0906	0.2437	-0.8691	-0.857	9.4998	-2.0203	0.0335	1.1864	1.8405	-1.1734	-1.176	0.8694	0.4872
-0.1831	-0.2883	10.1017	0.3354	0.7496	-0.2479	0.4503	-0.1321	-0.2702	2.9504	1.9758	9.4301	0.0012	0.0914	0.1561	0.1878	-0.9257	-0.8373	10.0803	-1.962	0.5703	1.1446	1.7809	-1.7291	-1.2283	0.7839	0.4774
-0.3622	0.0563	9.8037	0.1568	0.8495	-0.0599	0.4443	-0.1141	-0.2702	2.4255	2.0337	9.1225	0.2775	0.026	0.0009	0.1858	-0.8467	-0.894	9.5564	-1.7336	0.0357	1.019	1.6587	-1.9767	-1.1406	0.8322	0.5099
-0.5349	-0.0584	9.8	0.1225	0.6979	-0.0905	0.4503	-0.1201	-0.2642	2.66	1.8618	9.3051	0.1837	-0.0342	0.0924	0.2144	-0.8475	-0.8937	9.9014	-2.0779	0.158	1.6508	1.5969	-2.4226	-1.2272	0.8113	0.5469
-0.5402	-0.2316	9.5041	0.581	0.6171	-0.2241	0.4623	-0.1081	-0.2702	2.66	1.8618	9.3051	-0.1842	0.0637	0.1861	0.2012	-0.887	-0.8566	9.9589	-1.6189	0.2192	1.5577	1.6589	-2.4498	-1.1759	0.8011	0.4764
-0.3656	0.0559	9.6264	0.1765	0.6335	-0.3362	0.4443	-0.1261	-0.2582	2.597	1.6324	9.0064	-0.3053	0.2181	0.4666	0.2449	-0.9097	-0.8019	9.6089	-1.7345	-0.1966	1.1391	1.7817	-1.9755	-1.1926	0.8637	0.5419
-1.0539	0.115	9.7903	0.0916	0.7907	-0.1502	0.4503	-0.1321	-0.2762	2.8269	1.918	9.0117	-0.3643	0.2822	0.0662	0.2303	-0.907	-0.8556	9.5558	-2.078	-0.0239	0.7811	1.6583	-1.6945	-1.2268	0.7918	0.5671
-0.243	-0.231	9.9825	0.515	0.4666	-0.2844	0.4443	-0.1321	-0.2822	3.0574	1.9747	9.0166	-0.7657	0.2274	0.1263	0.2161	-0.9074	-0.8379	9.6165	-1.5036	0.2127	0.6227	1.5981	-2.0013	-1.2101	0.8131	0.5289
-0.2386	0.4022	10.2796	0.6095	0.4325	-0.1954	0.4443	-0.1261	-0.2462	2.4888	1.6334	9.3605	-0.7622	0.4116	0.1296	0.2011	-0.8862	-0.8745	9.616	-1.9053	0.1529	1.0807	1.3816	-2.1399	-1.2103	0.7975	0.5124
-0.6548	0.0562	9.5616	0.546	0.3738	-0.2247	0.4443	-0.1321	-0.2582	3.1796	1.5744	9.3152	-0.828	0.2576	0.4973	0.1571	-0.8289	-0.8414	9.8444	-2.0778	0.1569	1.0183	1.4742	-2.136	-1.1585	0.801	0.4767
-0.4202	0.2864	9.8031	0.1831	0.4817	-0.0017	0.4443	-0.1201	-0.2522	2.8248	1.8033	8.8926	-0.7641	0.3494	0.3138	0.2144	-0.8475	-0.8937	9.4949	-1.7917	-0.1991	0.7802	1.3509	-1.9498	-1.1756	0.8499	0.5074
-0.5351	0.0566	9.8003	0.4031	0.6561	0.0245	0.4503	-0.1321	-0.2582	2.6566	1.8042	9.1267	-0.6407	0.3476	0.2522	0.2148	-0.8498	-0.8402	9.6713	-1.5615	0.0969	0.9273	1.2591	-2.2637	-1.2632	0.8348	0.4895
-0.5878	-0.1727	10.035	0.6087	0.4324	-0.2259	0.4503	-0.1021	-0.2642	3.009	1.575	9.4305	-0.7673	0.1655	0.2487	0.2288	-0.8318	-0.823	9.9582	-1.9059	0.1598	1.2261	1.167	-2.6113	-1.1758	0.885	0.5037
0.0396	0.3429	9.7531	0.7982	0.7302	-0.2593	0.4443	-0.1201	-0.2402	2.3139	1.9771	9.2982	-0.9523	0.1382	0.1861	0.2452	-0.9282	-0.819	9.6176	-2.192	0.2102	1.8621	1.3815	-2.6796	-1.1572	0.7933	0.55
-0.8281	0.229	9.5587	0.7978	0.6081	-0.1989	0.4683	-0.1141	-0.2402	2.766	1.2881	8.7715	-0.7009	0.3802	0.0364	0.2291	-0.8502	-0.84	9.779	-1.8497	-0.2519	1.5932	1.3197	-2.4602	-1.1755	0.7817	0.4966
-0.5935	-0.1159	9.7397	0.8328	0.6073	-0.0473	0.4563	-0.1141	-0.2582	2.8264	1.6317	8.9517	-0.5187	0.2842	0.2204	0.2588	-0.891	-0.8026	9.6101	-1.7917	-0.1384	1.3456	1.1979	-2.7053	-1.1763	0.8538	0.4708
-0.7085	-0.2882	9.737	0.5515	0.649	-0.1927	0.4443	-0.1321	-0.2642	2.7145	1.6896	9.1277	-1.0747	0.2012	0.3106	0.1869	-0.8866	-0.8567	9.6692	-1.6766	-0.0202	1.2261	1.2593	-2.5471	-1.175	0.7953	0.5313
-0.1913	-0.0593	9.6886	0.8266	0.4846	-0.2003	0.4503	-0.1261	-0.2462	2.5976	1.8614	9.0662	-0.8597	0.1671	0.2486	0.2308	-0.927	-0.837	9.4926	-1.7921	-0.3158	1.527	1.1669	-2.8023	-1.1758	0.8343	0.491
-0.7062	0.2872	9.9157	1.129	0.41	-0.3912	0.4503	-0.1021	-0.2702	2.7192	1.7473	9.3655	-0.8271	0.2887	0.4052	0.2158	-0.9059	-0.8736	9.7226	-1.5052	-0.1935	1.906	1.164	-2.2243	-1.1754	0.8148	0.5112
-0.711	-0.116	9.6192	1.1056	0.5036	-0.1765	0.4503	-0.1261	-0.2522	2.4816	2.1479	9.0645	-0.8587	0.2282	0.3114	0.2298	-0.8878	-0.8564	9.3269	-1.5613	-0.0266	1.9096	1.2865	-1.9743	-1.2103	0.7975	0.5124
-0.5969	-0.1163	9.5623	1.0782	0.4137	0.0067	0.4563	-0.1021	-0.2522	2.7692	2.4333	9.071	-1.075	0.1709	0.2174	0.2002	-0.8479	-0.876	9.3801	-1.3326	-0.1997	1.8308	1.4385	-1.2902	-1.1764	0.8206	0.4562
-0.5416	-0.0592	9.4454	0.9198	0.4197	-0.142	0.4623	-0.1201	-0.2762	2.5949	1.5177	8.8873	-0.953	0.1374	0.3714	0.2434	-0.8507	-0.8399	9.4948	-1.7343	-0.1989	1.5254	1.4701	-1.2832	-1.1576	0.7952	0.5316
-0.3556	0.1146	10.1584	0.9511	0.449	-0.1426	0.4443	-0.1261	-0.2522	2.5978	1.8042	9.0661	-1.2278	0.2648	0.4041	0.2012	-0.887	-0.8566	9.2621	-0.9889	-0.3758	1.8629	1.4689	-1.1975	-1.2101	0.8131	0.5289
-0.7677	-0.0583	9.6773	0.9525	0.4797	-0.1119	0.4563	-0.1261	-0.2642	2.5339	1.9182	8.7681	-1.0421	0.3229	0.4363	0.2436	-0.8683	-0.8749	9.7231	-1.8494	-0.1947	2.012	1.4691	-1.3546	-1.1756	0.7992	0.4947
-0.3599	0.0566	9.9219	0.6145	0.5245	-0.0729	0.4383	-0.1141	-0.2582	2.8236	1.8032	8.8332	-0.6133	0.2231	0.528	0.2295	-0.8694	-0.8393	9.4983	-1.7911	-0.024	1.6501	1.3771	-1.2267	-1.1573	0.8109	0.5481
-0.5962	0.1138	9.622	0.5542	0.4663	0.0197	0.4443	-0.1261	-0.2462	2.5963	1.9185	9.0069	-0.4581	0.222	0.1576	0.273	-0.8906	-0.8203	9.3238	-1.7914	-0.2025	1.5311	1.4077	-1.0693	-1.1564	0.7544	0.5903
-0.4219	-0.0589	9.6841	0.7728	0.61	0.0152	0.4443	-0.1141	-0.2522	2.5455	2.0338	9.3625	-0.4891	0.2523	0.3743	0.2307	-0.9262	-0.8548	9.5516	-1.5623	-0.1971	1.4391	1.4387	-1.0666	-1.1921	0.776	0.5512
-0.5946	-0.1736	9.6804	1.138	0.3499	-0.0257	0.4323	-0.1141	-0.2762	2.894	1.4608	9.4279	-0.6117	0.2249	0.0956	0.2008	-0.8678	-0.8574	9.6156	-1.6759	0.1537	0.9773	1.502	-1.2097	-1.193	0.8325	0.509
-0.7621	-0.0001	9.973	1.2938	0.5267	-0.0894	0.4443	-0.1261	-0.2642	3.0027	1.7461	9.1337	-0.7003	0.4409	0.192	0.2017	-0.9069	-0.838	9.8981	-1.3899	0.0438	1.1248	1.6562	-1.3315	-1.2103	0.7975	0.5124
-0.5969	-0.1163	9.5623	1.6866	0.1734	-0.1926	0.4383	-0.1021	-0.2281	3.23	1.6308	8.96	-0.7348	0.2571	0.2504	0.2442	-0.8883	-0.8563	9.6705	-1.7338	0.038	0.4417	1.4706	-0.6142	-1.1753	0.7973	0.513
-0.3614	0.2289	9.8632	1.4144	0.3077	-0.0631	0.4563	-0.1261	-0.2582	3.0048	1.3456	9.1924	-0.6359	0.5933	0.1948	0.1856	-0.829	-0.859	9.5011	-1.3889	0.1525	0.502	1.5628	-0.5819	-1.2101	0.8131	0.5289
-0.5935	0.5166	9.8003	1.3503	0.2185	-0.0926	0.4623	-0.1201	-0.2582	2.782	1.5759	9.604	-0.7623	0.4114	0.1604	0.2448	-0.909	-0.8198	9.6694	-1.7913	-0.0206	0.2621	1.7473	-0.2636	-1.1758	0.7836	0.4782
-0.6514	-0.0008	9.7388	1.288	0.4345	-0.2424	0.4563	-0.1261	-0.2702	3.0053	1.6319	9.2524	-0.3954	0.3423	0.4996	0.2008	-0.8678	-0.8574	9.6142	-1.504	0.096	0.0477	1.9017	-0.1933	-1.1752	0.7797	0.5149
-0.5373	0.0563	9.6821	0.9777	0.5388	-0.3562	0.4563	-0.1201	-0.2582	2.8321	1.7468	9.249	-0.6088	0.3784	0.0983	0.2009	-0.8686	-0.8395	9.7259	-2.1932	-0.0793	0.2876	2.0863	-0.2544	-1.1579	0.7972	0.5133
-0.1335	-0.1744	9.6894	0.8545	0.605	-0.3834	0.4503	-0.1321	-0.2642	2.6606	1.6328	9.3047	-0.4885	0.223	0.0649	0.2437	-0.8691	-0.857	9.6146	-1.7335	0.0952	0.2882	2.1785	-0.1593	-1.2102	0.8306	0.527
-0.4204	-0.2312	9.7428	1.0772	0.7492	-0.2354	0.4443	-0.1081	-0.2762	2.7637	1.7459	8.7131	-0.6414	0.2568	-0.0583	0.2156	-0.8882	-0.8386	9.0954	-1.619	-0.2065	0.3239	2.4237	0.2477	-1.1931	0.7993	0.4944
-0.4199	0.1139	9.8027	0.9493	0.7844	-0.4152	0.4503	-0.1201	-0.2642	2.9437	1.8034	9.0733	-0.3993	0.0977	0.279	0.2299	-0.8886	-0.8385	10.0063	-1.3338	-0.2455	0.4139	2.3929	0.1525	-1.1926	0.813	0.5292
-0.5915	-0.0007	9.8581	0.7593	0.8526	-0.6237	0.4443	-0.1261	-0.2582	2.7152	1.4034	9.1271	-0.2728	0.1896	-0.1824	0.2003	-0.8486	-0.8581	9.7247	-1.3901	-0.0764	0.4667	2.5786	-0.0898	-1.1936	0.8363	0.4724
-0.594	0.1141	9.7402	0.7314	0.7322	-0.4407	0.4383	-0.1141	-0.2642	2.945	1.7463	9.1326	-0.4916	0.0694	0.093	0.2297	-0.8871	-0.8742	9.4928	-1.1609	-0.2552	0.2202	2.3335	-0.3693	-1.1744	0.8422	0.5807
-0.8248	0.2869	9.7361	0.6065	0.7982	-0.5288	0.4563	-0.1201	-0.2402	3.008	1.5177	9.371	-0.333	0.3423	0.2526	0.2001	-0.8471	-0.8939	10.1218	-1.5059	-0.1855	-0.1078	2.3332	-0.0237	-1.1755	0.7817	0.4966
-0.7068	-0.0004	9.8559	0.7009	0.703	-0.4096	0.4503	-0.1201	-0.2702	2.3061	1.7473	8.8818	-0.5484	0.346	0.2523	0.2014	-0.8885	-0.8209	10.0124	-1.5622	0.0455	0.0422	2.1794	-0.2469	-1.1763	0.8031	0.458
-0.4266	0.0556	9.4479	0.6984	0.7028	-0.501	0.4443	-0.1141	-0.2642	2.9431	2.0323	9.0737	-0.5207	0.1618	0.1255	0.2016	-0.9062	-0.8558	9.6142	-1.504	0.096	0.4325	2.3639	-0.4035	-1.1929	0.8149	0.5109
-0.3684	0.4006	9.509	0.9151	0.5413	-0.3852	0.4443	-0.1321	-0.2582	2.6056	1.5188	9.4221	-0.3956	0.2821	0.2205	0.2303	-0.907	-0.8556	9.4994	-1.7335	0.0345	0.5627	2.1778	-0.1648	-1.2104	0.815	0.5106
-0.5385	0.0562	9.623	0.7654	0.5177	-0.1987	0.4563	-0.1261	-0.2642	2.7181	1.6899	9.306	-0.5184	0.2846	0.1277	0.2149	-0.8667	-0.893	9.8418	-1.9061	0.0408	1.0168	2.1772	-0.3281	-1.1574	0.8284	0.5462
-1.0503	0.0004	9.9674	0.6056	0.6456	-0.4686	0.4563	-0.0961	-0.2522	2.6004	1.69	9.1847	-0.549	0.3153	0.2518	0.2295	-0.8694	-0.8393	9.6648	-1.7348	-0.2538	1.4975	2.3002	-0.5808	-1.2284	0.8014	0.4755
-0.8185	-0.1148	10.0307	0.6425	0.706	-0.2861	0.4383	-0.1261	-0.2522	2.9484	1.8038	9.3109	-0.4259	0.3132	0.2519	0.1887	-0.9641	-0.8358	9.5551	-1.6191	-0.0223	1.467	2.3003	-0.5802	-1.1753	0.7973	0.513
-0.4204	0.4014	9.8034	0.5232	0.5591	-0.04	0.4383	-0.1141	-0.2522	2.4264	1.633	9.1216	-0.6698	0.4101	0.0988	0.2446	-0.9075	-0.8555	9.8459	-1.5611	0.2754	1.7936	2.3931	-0.9231	-1.1755	0.8324	0.5093
-0.4812	0.2861	9.6247	0.5203	0.4367	-0.0712	0.4503	-0.1141	-0.2702	3.2959	1.6314	9.3771	-0.5157	0.4378	0.1922	0.2585	-0.8887	-0.8561	9.7797	-1.5627	-0.1925	1.6685	2.3324	-1.1073	-1.193	0.8325	0.509
-0.648	-0.0004	9.9161	0.3042	0.5373	-0.1263	0.4563	-0.1381	-0.2582	3.0054	1.5747	9.2522	-0.4559	0.3146	0.0357	0.2163	-0.925	-0.8728	9.504	-1.79	0.2678	1.2718	2.1181	-1.2596	-1.1751	0.8129	0.5295
-0.4816	-0.1165	9.5646	0.2993	0.4452	-0.2488	0.4383	-0.1081	-0.2522	2.7156	1.7469	9.1872	-1.0427	0.2622	0.2808	0.2148	-0.8498	-0.8402	9.7212	-1.3907	-0.2514	1.1479	2.2417	-1.2536	-1.1759	0.8011	0.4764
-0.7037	0.1724	10.0336	0.4597	0.5004	-0.0693	0.4683	-0.1141	-0.2462	2.9488	1.1742	9.2502	-0.424	0.4054	0.2227	0.2146	-0.8483	-0.8759	9.8498	-1.9047	0.4493	1.5729	2.1487	-1.4189	-1.1592	0.8225	0.4382
-0.2529	0.2279	9.5108	0.459	0.5614	-0.13	0.4563	-0.0961	-0.2462	2.84	1.9193	9.6653	-0.3939	0.4041	0.408	0.2303	-0.907	-0.8556	9.3284	-1.848	0.0307	2.248	1.9619	-1.3761	-1.176	0.8187	0.4745
-0.5373	0.0563	9.6821	0.4263	0.5014	-0.16	0.4443	-0.1141	-0.2522	2.7728	1.9185	9.1888	-0.7937	0.4113	0.3148	0.2296	-0.8863	-0.8921	9.954	-1.4476	-0.0136	1.8845	2.0239	-1.2129	-1.1925	0.7954	0.531
-0.0751	-0.0019	9.75	0.3966	0.4724	-0.0984	0.4623	-0.1201	-0.2342	3.1738	1.5166	9.018	-0.7915	0.5039	0.1929	0.2294	-0.8687	-0.8571	9.6131	-1.5042	0.0377	2.2767	1.8083	-1.566	-1.2277	0.7976	0.5121
-0.5321	0.287	9.9782	0.4559	0.378	-0.1309	0.4623	-0.1021	-0.2642	2.4822	1.9189	9.064	-0.7609	0.5031	0.2547	0.2444	-0.9059	-0.8912	9.8469	-2.2495	0.2729	2.0336	1.7472	-1.5629	-1.1755	0.8324	0.5093
-0.713	-0.2887	9.5006	0.0911	0.5161	0.0008	0.4503	-0.1201	-0.2522	2.8282	1.8609	9.071	-0.7928	0.4424	0.2227	0.2303	-0.907	-0.8556	9.7928	-1.9046	0.4481	2.4326	1.8996	-1.3507	-1.1579	0.7972	0.5133
-0.5953	0.2289	9.6814	0.3029	0.5066	-0.157	0.4563	-0.1201	-0.2522	2.8853	1.6317	9.0123	-0.7928	0.4424	0.2227	0.187	-0.8873	-0.8389	9.4372	-1.3901	-0.1988	2.6532	1.5597	-1.2723	-1.1931	0.7993	0.4944
-0.5366	0.2864	9.7418	0.2096	0.6629	-0.2758	0.4563	-0.1141	-0.2582	3.0618	2.0896	9.2545	-0.7043	0.2563	0.3122	0.23	-0.9055	-0.8913	9.5089	-1.9613	0.5006	2.8375	1.2822	-1.4073	-1.1757	0.8168	0.4928
-0.7093	0.1718	9.7381	0.209	0.4798	-0.1854	0.4503	-0.1261	-0.2522	2.831	1.6894	9.1895	-0.8853	0.4437	0.2843	0.2163	-0.925	-0.8728	9.6082	-1.333	-0.1951	2.5915	1.3754	-1.4305	-1.2104	0.815	0.5106
-0.6532	-0.2311	9.6201	0.0578	0.6697	-0.1806	0.4503	-0.1261	-0.2582	2.3689	1.576	9.1203	-1.0708	0.3858	0.1903	0.2163	-0.925	-0.8728	9.7221	-1.907	-0.2533	2.7422	1.3138	-1.5586	-1.1405	0.8146	0.5117
-0.4741	0.0569	9.9787	0.2102	0.358	-0.0641	0.4323	-0.1081	-0.2702	2.715	1.5179	9.1273	-0.9495	0.3516	0.5297	0.2155	-0.8874	-0.8565	9.8426	-1.6765	0.1	2.8086	1.5896	-1.1205	-1.1751	0.8129	0.5295
-0.5947	-0.1161	9.6806	-0.0011	0.6421	-0.0573	0.4623	-0.1141	-0.2582	2.8277	2.0898	9.0715	-0.9507	0.2902	0.5286	0.2158	-0.9059	-0.8736	9.391	-1.7323	0.324	2.5683	1.3436	-1.1227	-1.1582	0.7991	0.495
-0.3565	-0.0005	10.0991	0.1521	0.4219	0.0292	0.4563	-0.1021	-0.2522	2.7111	1.632	8.9493	-1.286	0.4497	0.4691	0.2145	-0.8314	-0.8231	9.6243	-2.076	0.5608	2.9042	1.3119	-1.1303	-1.1917	0.8072	0.5842
-0.6496	0.2869	9.8577	0.3364	0.5666	-0.0964	0.4563	-0.1141	-0.2522	2.7153	1.8614	9.1875	-1.1643	0.386	0.5299	0.2156	-0.8882	-0.8386	9.7307	-1.5611	0.2148	3.2317	1.4354	-1.4108	-1.1577	0.7621	0.517
-0.4191	0.2865	9.8622	0.1215	0.6368	-0.0908	0.4503	-0.1201	-0.2642	2.8325	2.5482	9.3695	-1.1616	0.5093	0.4086	0.2442	-0.8883	-0.8563	9.6706	-1.1026	0.0986	3.229	1.2513	-1.6626	-1.176	0.8187	0.4745
-0.8244	0.057	9.7356	0.2164	0.3281	0.1797	0.4263	-0.1201	-0.2582	2.7792	1.7474	9.4855	-0.9781	0.4147	0.2528	0.2301	-0.9063	-0.8735	9.6782	-1.5602	0.4471	3.5295	1.3742	-1.7884	-1.1927	0.8305	0.5273
-0.5365	-0.4036	9.681	-0.0054	0.3365	-0.0284	0.4503	-0.1441	-0.2582	2.8809	1.9747	8.8347	-0.9744	0.5691	0.0393	0.2148	-0.866	-0.9108	9.8516	-1.5601	0.5672	3.56	1.2819	-1.8533	-1.193	0.7818	0.4963
-0.1384	0.055	9.4535	0.0928	0.5163	0.0617	0.4503	-0.1321	-0.2582	2.9943	1.2874	8.6575	-0.8553	0.4122	0.3456	0.23	-0.9055	-0.8913	9.5102	-1.3299	0.6196	3.8019	1.3739	-1.8863	-1.1585	0.801	0.4767
-0.1383	-0.0025	9.4534	-0.1512	0.4964	0.1896	0.4383	-0.1261	-0.2582	2.7145	1.6896	9.1277	-0.517	0.3763	0.222	0.2002	-0.8479	-0.876	9.5009	-1.9627	0.0921	3.836	1.4963	-1.6369	-1.1933	0.7837	0.4779
-0.6016	-0.0019	9.3262	-0.2187	0.4069	0.0382	0.4443	-0.1201	-0.2642	2.9515	1.5179	9.4292	-0.3313	0.4344	0.2543	0.2443	-0.889	-0.8384	9.4412	-1.7336	-0.025	3.6257	1.3733	-1.5745	-1.1586	0.7679	0.4621
-0.3587	-0.0008	9.9809	-0.1856	0.4363	0.0985	0.4383	-0.1261	-0.2582	2.5397	1.976	9.0653	0.0055	0.3065	0.0981	0.2149	-0.8667	-0.893	9.8532	-1.8467	0.6245	3.7807	1.3418	-1.4861	-1.2106	0.7994	0.4941
-0.942	0.1144	9.6153	-0.0061	0.3975	-0.0891	0.4503	-0.1201	-0.2522	2.5966	1.8041	9.0067	-0.0248	0.3376	0.1295	0.1868	-0.8858	-0.8746	9.3831	-1.7911	-0.0847	3.9649	1.3104	-1.4598	-1.2286	0.8365	0.4718
-0.2435	-0.001	9.9831	-0.3715	0.5965	-0.018	0.4383	-0.1261	-0.2462	2.7155	1.8042	9.1873	-0.2435	0.1874	0.2191	0.2162	-0.9081	-0.82	9.6109	-1.562	-0.0793	4.0782	1.3422	-1.8311	-1.1921	0.776	0.5512
-0.646	-0.5177	9.974	-0.2137	0.6515	0.07	0.4503	-0.1201	-0.2462	2.7737	1.5751	9.1881	-0.3352	0.2497	0.3745	0.2144	-0.8306	-0.8409	9.7276	-1.0453	0.1	4.0923	1.3092	-1.2158	-1.1753	0.7973	0.513
-0.413	-0.0003	10.157	0.0242	0.4571	-0.1505	0.4323	-0.1201	-0.2642	2.7764	1.4036	9.3066	-0.3933	0.4049	0.2227	0.2308	-0.927	-0.837	9.4463	-2.077	0.2072	4.0716	1.2463	-0.8164	-1.2111	0.7857	0.4593
-0.8947	0.228	9.0847	-0.1813	0.7419	0.0697	0.4503	-0.1141	-0.2702	2.7731	1.804	9.1885	-0.4256	0.2836	0.0043	0.244	-0.8875	-0.8741	9.7801	-1.8495	-0.1936	4.1633	1.1845	-0.8509	-1.1402	0.8127	0.5301
-0.19	-0.1741	9.7474	-0.0906	0.6768	0.0366	0.4563	-0.1201	-0.2582	3.1218	1.6317	9.3142	-0.8263	0.3196	0.344	0.2298	-0.8878	-0.8564	9.9067	-1.79	0.4508	4.2944	1.029	-0.5497	-1.1754	0.8148	0.5112
-0.2492	0.0558	9.6877	-0.1235	0.5558	0.0367	0.4443	-0.1141	-0.2642	2.8277	1.5746	9.011	-0.9499	0.3212	0.4674	0.2144	-0.8475	-0.8937	9.6799	-1.9042	0.5042	3.8463	0.9056	-0.2052	-1.2281	0.7995	0.4938
-0.5306	0.0572	10.0367	0.1292	0.5461	0.2441	0.4383	-0.1201	-0.2522	2.3122	1.6907	9.1788	-0.9474	0.4141	0.2837	0.202	-0.9085	-0.8023	9.617	-1.8478	0.2115	3.9705	1.3048	0.1737	-1.2107	0.817	0.4922
-0.4814	0.401	9.6249	-0.0953	0.4017	0.0351	0.4443	-0.1141	-0.2642	2.7682	1.8608	8.951	-0.6724	0.347	0.4992	0.2576	-0.8503	-0.8577	9.3885	-1.5606	0.2079	4.0244	1.5519	0.0255	-1.2283	0.8346	0.4901
-0.4221	0.6887	9.745	-0.2406	0.4396	0.3439	0.4383	-0.1141	-0.2582	2.8872	1.8036	9.1315	-0.7293	0.5636	0.3485	0.1866	-0.8681	-0.8396	9.9031	-1.6759	0.2762	4.3586	1.3667	-0.1714	-1.1929	0.8149	0.5109
-0.3561	0.4021	10.1591	-0.2795	0.5621	-0.0205	0.4263	-0.1261	-0.2822	2.6632	1.5186	9.4233	-0.826	0.35	0.4063	0.2155	-0.8874	-0.8565	9.6764	-1.9048	0.3291	4.3765	1.5223	-0.6297	-1.1931	0.7993	0.4944
-0.1927	0.0556	9.6297	-0.0609	0.4618	0.1262	0.4443	-0.1261	-0.2582	2.6034	2.4344	9.4239	-0.425	0.3443	0.1598	0.2587	-0.8902	-0.8204	9.5004	-1.6759	0.0931	4.4633	1.5229	-0.8472	-1.2454	0.782	0.4954
-0.7113	-0.5761	9.559	-0.3962	0.568	0.2264	0.4263	-0.1201	-0.2462	3.0577	2.3182	9.0767	-0.7319	0.4105	0.2531	0.2293	-0.8679	-0.875	9.9031	-0.9874	0.337	4.4976	1.4914	-0.6947	-1.1584	0.8342	0.4913
-0.5859	0	10.1537	-0.1805	0.3454	0.3419	0.4503	-0.1141	-0.2462	2.7194	2.148	9.4257	-0.6386	0.5001	0.4711	0.2295	-0.8856	-0.91	9.791	-1.5032	0.3912	4.4671	1.4915	-0.6941	-1.1752	0.7797	0.5149
-0.3586	-0.0583	9.9807	-0.4585	0.3875	0.3184	0.4443	-0.1201	-0.2582	2.8388	1.404	9.5454	-0.6704	0.4394	0.4391	0.259	-0.9086	-0.8375	9.5514	-2.1935	-0.2578	4.529	1.6142	-0.5685	-1.2103	0.7975	0.5124
-0.6488	-0.173	9.8566	-0.2106	0.4383	0.3127	0.4263	-0.1081	-0.2522	3.1776	1.9176	9.2565	-0.6084	0.4388	0.3156	0.2284	-0.8295	-0.8765	9.6212	-1.5601	0.4459	4.2268	1.7068	-0.3748	-1.1582	0.8498	0.5077
-0.1923	0.4582	9.6898	-0.4892	0.6938	0.1379	0.4443	-0.1261	-0.2762	2.4896	1.8052	9.4203	-0.698	0.5337	0.0392	0.2147	-0.8491	-0.858	9.6718	-1.8483	0.0959	4.2154	1.8316	-0.8026	-1.2098	0.7604	0.5345
-0.421	0.0563	9.7434	-0.4325	0.2941	0.1952	0.4383	-0.1081	-0.2702	2.6021	1.9764	9.3042	-0.6352	0.6242	0.1645	0.2151	-0.8682	-0.8573	9.2151	-1.5607	0.0878	3.9457	1.647	-0.71	-1.2281	0.7995	0.4938
-0.7689	-0.0009	9.6184	-0.4631	0.509	0.0752	0.4623	-0.1201	-0.2462	3.1797	1.5171	9.3151	-0.5154	0.4681	0.2854	0.2158	-0.9059	-0.8736	9.7285	-1.6189	0.0979	3.9373	1.6176	-1.1114	-1.1575	0.727	0.5208
-0.6482	0.1146	9.9164	-0.4901	0.5412	0.1981	0.4383	-0.1141	-0.2522	2.5413	1.8045	9.1244	-0.6927	0.81	0.0132	0.2156	-0.8882	-0.8386	9.5538	-1.5045	-0.0802	4.2448	1.4934	-1.0903	-1.1407	0.7483	0.4825
-0.5386	0.1137	9.6231	-0.7047	0.5809	0.234	0.4443	-0.1081	-0.2642	2.8345	1.747	9.3679	-0.5115	0.6828	0.3201	0.2433	-0.8499	-0.8578	9.9512	-1.8498	-0.1902	3.6136	1.2782	-0.8064	-1.1756	0.7992	0.4947
-0.5915	-0.0007	9.8581	-0.1568	0.4653	0.0065	0.4503	-0.1201	-0.2582	2.7221	1.5186	9.4839	-0.9406	0.7221	0.0112	0.2294	-0.8687	-0.8571	9.7814	-1.2181	-0.0746	3.2816	1.1862	-0.7099	-1.2119	0.8247	0.419
-0.1326	-0.0592	9.7488	-0.2708	0.5325	0.3147	0.4443	-0.1201	-0.2642	2.6475	1.6316	8.651	-0.8435	0.9662	-0.0151	0.2453	-0.9451	-0.8718	9.7314	-1.3315	0.274	3.5936	1.0306	-0.5048	-1.175	0.7953	0.5313
-0.5941	0.1715	9.7404	-0.6454	0.4865	0.2015	0.4503	-0.1321	-0.2522	2.8381	2.2053	9.6065	-0.7839	0.9029	0.2001	0.2018	-0.9077	-0.8201	9.2154	-1.7902	0.087	3.4687	1.1852	-0.5287	-1.158	0.8147	0.5114
-0.6458	-0.0001	10.0343	-0.3328	0.8096	0.1348	0.4563	-0.1021	-0.2402	2.7726	1.5178	9.1285	-1.2123	1.0331	0.1707	0.2434	-0.8668	-0.9106	9.6198	-1.3882	0.3882	3.4685	0.8776	-0.7533	-1.1927	0.7798	0.5146
-0.3055	-0.0589	9.7454	-0.4594	0.4789	0.2275	0.4323	-0.1261	-0.2582	2.3076	1.633	8.941	-1.0882	1.0622	0.0479	0.2157	-0.8889	-0.8208	10.0755	-1.7907	0.3375	4.0652	0.9397	-1.3183	-1.1924	0.7779	0.5329
-0.6498	-0.2307	9.7974	-0.4228	0.5697	0.3796	0.4443	-0.1141	-0.2582	3.2913	1.5737	9.1393	-1.1476	1.2158	0.2668	0.2431	-0.8484	-0.8935	9.6148	-1.8482	0.0948	3.6087	0.6946	-1.4394	-1.1747	0.7934	0.5497
-0.5931	0.2867	9.7997	-0.2404	0.6532	0.2231	0.4503	-0.1141	-0.2462	2.6048	1.3469	9.3623	-1.0862	1.1245	-0.1671	0.2156	-0.8882	-0.8386	9.7882	-1.9054	0.2147	3.8226	0.8478	-1.316	-1.1756	0.7992	0.4947
-0.3018	-0.231	9.9223	-0.7409	0.6121	0.0215	0.4443	-0.1141	-0.2642	2.6051	1.2325	9.3621	-0.5989	0.9001	0.1077	0.2154	-0.8705	-0.8037	9.274	-1.2736	0.2067	3.6562	0.6919	-0.6698	-1.1232	0.7989	0.4956
-0.826	0.3443	9.6772	-0.3948	0.5986	0.2571	0.4443	-0.1321	-0.2522	2.8362	1.5182	9.4268	-0.5088	0.836	0.3846	0.2441	-0.8714	-0.8034	9.5055	-2.0193	0.3253	3.661	0.7834	-0.3899	-1.2273	0.7781	0.5323
-0.4259	-0.2894	9.4471	-0.4294	0.4775	0.1962	0.4563	-0.1141	-0.2522	2.6529	1.8611	8.9486	0.0734	0.613	-0.0507	0.215	-0.8675	-0.8751	9.381	-1.9062	-0.2018	3.4787	0.6915	-0.4197	-1.1752	0.7797	0.5149
-0.5945	-0.231	9.6803	-0.3028	0.5642	0.2547	0.4323	-0.1261	-0.2522	2.2542	1.8053	9.1778	0.0416	0.5823	0.0722	0.2294	-0.8687	-0.8571	9.613	-1.4469	0.0379	3.0296	0.5375	-0.1377	-1.2453	0.8152	0.51
-0.531	-0.3454	9.9766	-0.3629	0.6585	0.2567	0.4443	-0.1261	-0.2462	2.8332	1.2889	9.2481	0.1931	0.4568	0.1011	0.2019	-0.9246	-0.8729	9.6199	-2.1915	0.3269	2.7092	0.3514	0.4182	-1.175	0.7953	0.5313
-0.8757	-0.3447	10.029	-0.2755	0.7456	0.011	0.4563	-0.1141	-0.2462	3.0644	2.0326	9.3732	0.2848	0.4246	0.1007	0.2163	-0.925	-0.8728	9.6147	-1.7908	0.095	2.3882	0.0117	0.8465	-1.1577	0.7621	0.517
-0.6495	0.2294	9.8576	-0.5197	0.6647	0.169	0.4383	-0.1201	-0.2642	2.7685	1.7463	8.9507	0.0668	0.3352	0.3149	0.2022	-0.943	-0.89	9.6159	-1.848	0.1531	2.3703	-0.0517	1.3691	-1.1582	0.7991	0.495
-0.6512	-0.1158	9.7385	-0.3656	0.7497	0.1047	0.4503	-0.1321	-0.2702	3.1863	1.7468	9.6721	0.0344	0.2438	0.2824	0.2022	-0.9261	-0.8372	9.6625	-1.7352	-0.3705	2.3771	-0.2373	1.5486	-1.1763	0.8031	0.458
-0.4789	0.2288	9.7427	-0.4234	0.7832	0.2283	0.4443	-0.1381	-0.2582	2.6584	2.0333	9.246	-0.2123	0.2173	0.2815	0.2146	-0.8483	-0.8759	9.3885	-1.5606	0.2079	2.3855	-0.1156	2.0143	-1.1929	0.8149	0.5109
-0.243	-0.231	9.9825	-0.6201	0.6982	-0.1334	0.4503	-0.1201	-0.2582	2.9401	1.803	8.895	-0.2119	0.2479	0.3129	0.2582	-0.8703	-0.8391	9.2185	-1.5601	0.2629	2.502	0.0695	1.8939	-1.2098	0.7604	0.5345
-0.0824	0.3423	9.3963	-0.3979	0.8119	0.0143	0.4383	-0.1141	-0.2522	2.7162	1.976	9.2471	-0.3033	0.2505	0.0657	0.2156	-0.8882	-0.8386	9.7283	-1.5042	0.0983	2.9567	0.3456	1.9544	-1.1751	0.7622	0.5167
0.0379	0.0552	9.6342	-0.2411	0.8057	0.102	0.4443	-0.1201	-0.2642	2.4813	1.8044	9.0043	-0.3381	0.0662	0.2168	0.2298	-0.8878	-0.8564	9.9567	-1.6766	0.1022	3.7868	0.6809	2.4714	-1.1928	0.7467	0.5
-0.2443	-0.1736	9.9236	-0.1531	0.8318	-0.083	0.4443	-0.1081	-0.2522	2.6627	1.7475	9.4237	-0.2732	0.2492	0.2511	0.2164	-0.9258	-0.855	9.3942	-1.5596	0.4997	3.9754	1.0795	3.003	-1.1749	0.7778	0.5332
-0.7067	-0.0579	9.8558	-0.1504	0.7406	0.0689	0.4563	-0.1201	-0.2402	2.8374	1.5183	9.4862	-0.2411	0.3102	0.2213	0.2444	-0.8898	-0.8205	9.9094	-1.3305	0.6276	4.3088	1.3558	3.0967	-1.2103	0.7467	0.4997
-0.5332	0.2294	9.9189	0.056	0.761	-0.302	0.4443	-0.1021	-0.2582	2.8876	1.6319	9.1311	-0.0256	0.3066	0.1907	0.2156	-0.8882	-0.8386	10.0092	-1.7349	-0.1302	4.4274	1.5405	3.0688	-1.1753	0.7973	0.513
-0.5307	0.1146	10.0369	0.0924	0.7908	-0.1197	0.4443	-0.1141	-0.2462	2.3189	1.3479	9.4752	-0.151	0.186	0.1884	0.2153	-0.8859	-0.8922	9.623	-2.0188	0.5026	4.7906	1.6323	3.0025	-1.1927	0.8305	0.5273
-0.3588	-0.5759	9.9204	0.2453	0.7537	-0.1542	0.4503	-0.1261	-0.2642	2.5999	1.4037	9.1247	-0.5204	0.2222	0.3737	0.2016	-0.9062	-0.8558	10.0199	-1.9625	0.3941	5.2308	1.7877	2.32	-1.1759	0.8011	0.4764
-0.4213	0.2287	9.7439	-0.0062	0.733	-0.3007	0.4503	-0.1141	-0.2642	2.8368	1.7472	9.4867	-0.4266	0.2523	0.1273	0.2011	-0.8862	-0.8745	9.6728	-1.7907	0.1545	5.5206	2.1277	1.8615	-1.2112	0.8033	0.4575
-0.4165	0.0568	9.9799	0.2677	0.599	-0.3691	0.4503	-0.1321	-0.2522	2.7128	1.9184	9.0687	-0.4301	0.0982	0.279	0.2434	-0.8668	-0.9106	9.5621	-1.7325	0.3275	5.7912	1.7892	1.4457	-1.1929	0.7642	0.4981
-0.1267	-0.231	10.0439	0.2517	0.7849	0.0594	0.4323	-0.1261	-0.2582	2.4772	1.5178	8.7661	-0.4581	0.2521	0.3126	0.2158	-0.9059	-0.8736	9.62	-1.5603	0.3876	5.8477	2.0974	1.4534	-1.1927	0.7798	0.5146
-0.7102	0.0566	9.6787	0.0907	0.7906	-0.1807	0.4443	-0.1201	-0.2522	2.7656	1.4598	8.7719	-0.3992	0.1279	0.4031	0.2301	-0.9063	-0.8735	9.622	-1.3305	0.5051	6.1085	2.1911	0.896	-1.1751	0.7622	0.5167
-0.5375	0.1713	9.6824	0.0985	0.8525	0.0635	0.4563	-0.1201	-0.2462	2.7755	1.8043	9.3074	-0.4271	0.2518	0.2508	0.2	-0.8302	-0.841	9.6651	-1.2183	-0.1936	6.2806	2.1923	0.3994	-1.1752	0.7797	0.5149
-0.5942	0.229	9.7405	-0.0009	0.7031	-0.0875	0.4383	-0.1381	-0.2582	3.1695	1.8024	8.8403	-0.3949	0.3129	0.1902	0.2017	-0.9069	-0.838	9.3838	-1.5041	-0.0253	6.1197	2.1633	0.0011	-1.1932	0.8169	0.4925
-0.7637	-0.4028	9.8538	0.0292	0.8543	-0.2093	0.4503	-0.1141	-0.2522	2.714	1.9185	9.1282	-0.1191	0.2168	0.0345	0.2293	-0.8679	-0.875	9.9511	-1.7924	-0.1899	6.279	2.0696	0.2418	-1.1933	0.7837	0.4779
-0.5309	0.2296	10.0371	-0.0912	0.7377	-0.024	0.4503	-0.1261	-0.2522	2.7727	1.9757	9.1889	-0.0258	0.3665	0.5624	0.1995	-0.8103	-0.8597	9.7328	-1.446	0.3319	6.1914	2.223	0.5254	-1.1755	0.8324	0.5093
-0.537	-0.1162	9.6817	-0.2762	0.654	0.041	0.4443	-0.1201	-0.2582	2.7684	1.8036	8.9509	-0.3639	0.3427	0.2834	0.2154	-0.8867	-0.8743	9.844	-1.8483	0.1577	6.5646	1.8211	0.5681	-1.1755	0.7817	0.4966
-0.4791	-0.2887	9.6824	-0.3091	0.6855	-0.0495	0.4503	-0.1141	-0.2642	2.3623	1.8615	8.8238	-0.764	0.3195	0.1279	0.259	-0.9086	-0.8375	9.8449	-1.676	0.2167	7.29	1.6665	0.1484	-1.2109	0.8013	0.4758
-0.4739	-0.0581	9.9785	-0.3328	0.8096	0.1348	0.4563	-0.1141	-0.2642	2.2556	1.7482	9.2371	-0.797	0.2573	0.4356	0.2294	-0.8687	-0.8571	10.0718	-1.6192	0.1631	7.2609	1.3896	0.0178	-1.1932	0.8169	0.4925
-0.417	-0.2883	9.9199	-0.2444	0.5613	0.1312	0.4503	-0.1201	-0.2642	2.7653	1.5743	8.7721	-0.8898	0.2283	0.404	0.201	-0.8693	-0.8216	9.8524	-2.0763	0.5654	7.6633	1.0801	0.0626	-1.1936	0.7856	0.4596
-0.8247	0.2295	9.736	-0.4295	0.7215	0.0451	0.4503	-0.1141	-0.2642	3.005	1.7464	9.2526	-1.3213	0.205	0.4029	0.2142	-0.8299	-0.8588	9.9555	-1.6768	0.0439	8.541	0.9867	-0.3275	-1.1756	0.7992	0.4947
-0.4214	0.2862	9.744	-0.7025	0.7642	0.2045	0.4623	-0.1321	-0.2402	2.4878	1.576	9.301	-0.8563	0.3511	0.2827	0.2295	-0.8694	-0.8393	9.6661	-1.8493	-0.1959	9.4791	1.2008	-0.5251	-1.1589	0.8205	0.4565
-0.357	-0.3456	10.0391	-0.6671	0.7329	0.3865	0.4443	-0.1201	-0.2462	2.7709	1.7466	9.0696	-0.9199	0.2296	0.2187	0.2154	-0.8867	-0.8743	9.3872	-2.192	0.0889	9.7154	1.0784	-0.9649	-1.1764	0.8206	0.4562
-0.3566	0.057	10.0992	-0.7913	0.8905	0.2684	0.4383	-0.1261	-0.2642	2.831	1.6894	9.1895	-1.8759	0.2136	0.5874	0.2017	-0.9069	-0.838	9.726	-1.5046	-0.0184	9.993	0.9542	-0.9123	-1.1583	0.8167	0.4931
-0.8827	-0.173	9.6748	-0.7556	0.8287	0.4807	0.4443	-0.1261	-0.2462	2.715	1.5179	9.1273	-1.1	0.5082	0.4087	0.2448	-0.909	-0.8198	9.5003	-1.6186	0.0933	9.8515	0.8606	-0.4806	-1.1752	0.7797	0.5149
-0.7677	-0.0583	9.6773	-0.766	0.7056	0.1752	0.4563	-0.1321	-0.2582	2.5981	1.6897	9.0659	-1.2599	0.2037	0.4647	0.2149	-0.8506	-0.8223	9.7827	-2.0212	-0.0775	10.1271	0.9213	-0.3919	-1.1757	0.8168	0.4928
-0.825	0.4019	9.7364	-0.6669	0.7939	0.3564	0.4563	-0.1201	-0.2702	2.6011	1.4038	9.1842	-1.1355	0.2931	0.5901	0.2429	-0.8307	-0.8586	9.7862	-1.332	0.1584	10.3492	0.7041	-0.156	-1.2278	0.8151	0.5103
-0.4765	0.1716	9.8608	-0.7903	0.7991	0.3594	0.4323	-0.1261	-0.2642	2.8314	1.5177	9.1891	-0.8277	0.258	0.4047	0.2297	-0.8871	-0.8742	9.5075	-1.8468	0.4426	10.5072	0.5183	-0.0411	-1.2099	0.778	0.5326
-0.4173	-0.1158	9.9203	-0.4829	0.8165	0.291	0.4503	-0.1261	-0.2522	2.6015	1.2321	9.1838	-1.0413	0.3838	0.561	0.2013	-0.9039	-0.9094	9.213	-1.6759	-0.0293	11.3372	0.3	0.0902	-1.158	0.8147	0.5114
-0.6533	0.459	9.6808	-0.3062	0.8079	-0.0184	0.4503	-0.1261	-0.2702	2.6555	1.2889	9.0069	-1.2909	0.2039	0.5264	0.2018	-0.9077	-0.8201	9.2851	-1.8454	0.7298	11.5227	0.3607	0.2423	-1.1575	0.7777	0.5335
-0.0262	-0.1181	9.2781	-0.3598	0.8419	0.2576	0.4503	-0.1321	-0.2642	2.8834	1.9177	8.9535	-1.1363	0.2323	0.4654	0.2431	-0.8484	-0.8935	9.2152	-1.6181	0.0876	12.0138	0.3282	0.3549	-1.1926	0.7623	0.5165
-0.421	0.0563	9.7434	0.0034	0.612	0.1255	0.4323	-0.1141	-0.2642	2.4963	1.9776	9.7771	-1.1962	0.3253	0.4979	0.1864	-0.8674	-0.8575	9.3847	-1.3318	0.0337	11.9781	0.2676	0.0764	-1.1414	0.8204	0.4568
-0.4791	-0.2887	9.6824	-0.21	0.6214	0.2222	0.4443	-0.1261	-0.2522	2.5999	1.4037	9.1247	-1.6884	0.3338	0.4663	0.201	-0.8693	-0.8216	9.8492	-1.5031	0.4507	12.5726	0.2638	0.7426	-1.1753	0.7973	0.513
-0.3652	-0.1741	9.6258	0.0621	0.5786	0.0323	0.4443	-0.1141	-0.2582	2.4842	1.5757	9.1227	-0.8925	0.1052	0.4945	0.2299	-0.8886	-0.8385	8.9847	-1.5608	-0.0335	12.7924	0.3854	1.1116	-1.1925	0.7447	0.5183
-0.5371	-0.0587	9.6818	0.036	0.7635	0.095	0.4623	-0.0961	-0.2582	2.5972	2.0331	9.0666	-0.6173	0.0084	0.4932	0.2008	-0.8678	-0.8574	9.2691	-1.8483	-0.0872	12.2471	0.4169	1.3083	-1.1754	0.7641	0.4984
-0.4749	0.5169	9.9799	0.3784	0.8716	0.1178	0.4503	-0.1261	-0.2642	2.6555	1.2889	9.0069	-0.4585	0.2516	0.4361	0.2009	-0.8686	-0.8395	9.6125	-1.8486	-0.0219	11.9114	0.2947	1.2191	-1.1404	0.7971	0.5136
-0.418	0.2866	9.9213	-0.1246	0.7387	-0.1147	0.4503	-0.1141	-0.2582	2.3221	1.5199	9.6538	-0.5504	0.2537	0.3124	0.1868	-0.8858	-0.8746	9.6146	-1.7335	0.0952	11.7937	0.0483	1.2452	-1.2102	0.7799	0.5143
-0.4208	-0.0012	9.7433	-0.0254	0.9796	-0.0243	0.4563	-0.1201	-0.2522	2.8329	1.4034	9.2483	-0.0258	0.3064	0.2525	0.2436	-0.8683	-0.8749	9.4489	-1.5601	0.3842	11.5548	-0.1057	1.3689	-1.2105	0.7819	0.496
-0.3083	0.2857	9.628	0.1888	0.6653	0.0908	0.4563	-0.1201	-0.2582	2.7136	1.575	9.068	-0.2446	0.126	0.218	0.2442	-0.8883	-0.8563	9.8413	-1.5619	0.042	11.4342	-0.1056	1.4329	-1.193	0.7818	0.4963
-0.5978	0.4011	9.5636	0.1575	0.9411	-0.0899	0.4503	-0.1201	-0.2462	2.6523	1.632	8.8887	-0.2138	0.1856	0.528	0.2149	-0.8506	-0.8223	9.4936	-1.6772	-0.257	11.0229	-0.1993	2.0858	-1.1753	0.7973	0.513
-0.3662	-0.2317	9.5666	-0.1491	0.7712	0.0996	0.4503	-0.1201	-0.2642	2.712	1.7466	9.009	-0.2715	0.3413	0.2527	0.2289	-0.8487	-0.8758	9.674	-1.7905	0.2128	10.811	-0.1682	2.1834	-1.228	0.8502	0.5066
-0.1908	-0.3468	9.6879	0.0651	0.6095	0.1239	0.4503	-0.1081	-0.2402	3.1267	1.575	9.5517	-0.2429	0.2181	0.2197	0.2301	-0.8894	-0.8207	9.6649	-1.8495	-0.2542	10.9343	-0.1687	2.2426	-1.1575	0.7777	0.5335
0.0382	0.5152	9.6944	0.0041	0.5511	0.1861	0.4443	-0.1201	-0.2702	3.1808	1.5745	9.3746	-0.5491	0.3152	0.2826	0.1999	-0.8294	-0.8589	9.6076	-1.6774	-0.2547	10.173	-0.0133	2.4164	-1.1937	0.8032	0.4578
-0.591	-0.2881	9.8575	-0.1804	0.742	0.1002	0.4383	-0.1201	-0.2462	2.2558	1.1757	9.1766	-0.9809	0.2614	0.2192	0.2295	-0.8694	-0.8393	9.7199	-2.0221	-0.3704	9.8118	0.0792	2.7036	-1.2106	0.7994	0.4941
-0.3682	0.2856	9.5087	-0.2127	0.5601	0.1609	0.4443	-0.1141	-0.2522	3.1743	1.2876	9.0175	-0.9156	0.5349	0.6257	0.215	-0.8675	-0.8751	9.8972	-1.5622	-0.0152	9.7754	0.2032	2.523	-1.1571	0.7758	0.5518
-0.4212	0.1712	9.7437	0.0941	0.547	0.0924	0.4623	-0.1201	-0.2462	2.5982	1.6325	9.0658	-0.3915	0.5871	0.6893	0.2293	-0.8679	-0.875	9.4488	-2.1913	0.3235	9.7749	0.4186	2.6524	-1.1753	0.7466	0.5003
-0.4802	0.3437	9.6839	0.1265	0.6373	0.0921	0.4563	-0.1201	-0.2522	2.7189	1.3466	9.3053	-0.8904	0.1976	0.4035	0.2161	-0.9074	-0.8379	9.2177	-1.7898	0.2037	9.4272	0.6059	2.2332	-1.2103	0.7975	0.5124
-0.3077	0.5733	9.6878	-0.1191	0.6173	0.159	0.4503	-0.1081	-0.2642	2.2537	2.0342	9.1783	-1.1962	0.2952	0.3429	0.2161	-0.9074	-0.8379	9.8463	-1.8479	0.2744	9.3757	0.6968	2.73	-1.2096	0.7761	0.5509
-0.6548	0.0562	9.5616	0.0938	0.5774	0.0621	0.4443	-0.1321	-0.2522	2.8317	1.9185	9.2494	-0.5797	0.3759	0.5616	0.2287	-0.831	-0.8408	9.7857	-1.7337	0.0986	8.9711	0.6068	2.304	-1.2107	0.7662	0.4795
-0.6449	0.1725	10.0939	-0.2431	0.5919	0.1618	0.4623	-0.1381	-0.2522	2.6068	1.5189	9.4815	-0.7052	0.1952	0.2493	0.201	-0.8693	-0.8216	10.0134	-2.1932	0.0432	8.5757	0.6691	2.4061	-1.2099	0.778	0.5326
-0.9426	-0.1732	9.5555	-0.1482	0.7713	0.1301	0.4383	-0.1261	-0.2582	3.1176	1.4024	9.076	-0.3344	0.2807	0.3133	0.1871	-0.8881	-0.821	9.7833	-1.6768	-0.0179	8.4758	0.7321	2.0708	-1.1933	0.7837	0.4779
-0.0212	0.2276	9.5744	-0.1861	0.5583	0.0077	0.4443	-0.1321	-0.2642	2.6577	1.8615	9.1863	-0.3042	0.2795	0.4677	0.2293	-0.8518	-0.8043	9.4989	-2.1926	-0.0255	7.9255	0.7337	2.0202	-1.2282	0.8171	0.492
-0.3616	0.3439	9.8635	-0.3132	0.441	-0.0509	0.4443	-0.1081	-0.2522	2.3152	1.4048	9.2971	-0.7657	0.2575	0.2812	0.1716	-0.847	-0.8762	9.546	-1.6781	-0.4893	7.435	0.8583	2.0028	-1.1755	0.8324	0.5093
-0.2482	0.1134	9.747	-0.0895	0.4939	0.1881	0.4383	-0.1381	-0.2642	2.8913	1.1171	9.2489	-0.6086	0.4387	0.3465	0.2292	-0.851	-0.8222	9.7304	-2.135	0.1544	7.0324	1.0448	1.862	-1.1571	0.7758	0.5518
-0.3046	0.0562	9.8048	-0.2416	0.5311	0.253	0.4323	-0.1321	-0.2522	2.5995	1.5754	9.1251	-0.7315	0.4409	0.3154	0.2151	-0.8682	-0.8573	9.4995	-1.7909	0.0343	6.9122	1.1063	1.9895	-1.193	0.7818	0.4963
-0.4722	-0.3454	10.0369	-0.2453	0.5612	0.1007	0.4503	-0.1201	-0.2642	2.9973	1.5166	8.8362	-0.7313	0.4412	0.2537	0.1581	-0.885	-0.8748	9.266	-2.021	-0.2629	6.3027	1.2615	2.1294	-1.1926	0.813	0.5292
-0.8741	0.058	10.1482	0.1196	0.423	-0.031	0.4443	-0.1261	-0.2522	2.8358	1.1747	9.3667	-0.2706	0.4023	0.3464	0.2442	-0.8883	-0.8563	9.2676	-1.619	-0.1447	6.2974	1.2008	1.8504	-1.1754	0.7641	0.4984
-0.5878	-0.1727	10.035	-0.1525	0.6183	0.0683	0.4503	-0.1081	-0.2702	2.7114	1.5175	8.9491	-0.7042	0.2564	0.2813	0.2151	-0.8682	-0.8573	9.835	-1.1614	-0.2483	6.0157	1.1411	1.4844	-1.1569	0.7407	0.5555
-0.2441	-0.2886	9.9233	0.027	0.4269	-0.0287	0.4443	-0.1201	-0.2582	2.8322	1.6895	9.2489	-0.7018	0.3792	0.2835	0.245	-0.9266	-0.8547	9.6207	-1.2733	0.447	5.1663	1.1117	1.6855	-1.1759	0.8519	0.4891
-0.471	0.2298	10.1565	-0.0912	0.4937	0.1271	0.4563	-0.1321	-0.2522	2.7681	1.918	8.9511	-1.0069	0.5676	0.5025	0.1722	-0.8677	-0.8397	9.7273	-1.6191	0.0395	4.7438	1.1736	1.9423	-1.1926	0.813	0.5292
0.0464	0.2862	10.1076	0.0227	0.2739	-0.0905	0.4563	-0.1141	-0.2582	2.4838	1.7474	9.1231	-1.0392	0.4463	0.2841	0.229	-0.8495	-0.8579	9.6703	-1.619	0.0384	4.4987	1.2974	1.9815	-1.1924	0.7779	0.5329
-0.4772	-0.116	9.801	-0.1623	0.4342	-0.1766	0.4383	-0.1261	-0.2642	2.7222	1.9765	9.5442	-0.8528	0.5653	0.441	0.2436	-0.8683	-0.8749	9.4481	-1.7897	0.325	4.9243	1.2043	1.8471	-1.1409	0.7834	0.4788
-0.4222	0.1136	9.6845	-0.0347	0.4295	-0.0272	0.4503	-0.1201	-0.2582	2.7706	1.861	9.0698	-1.1601	0.571	0.317	0.2003	-0.8486	-0.8581	9.788	-1.7907	0.2151	5.197	1.3269	1.8451	-1.1928	0.7974	0.5127
-0.0781	-0.1748	9.5723	0.1199	0.3926	-0.0007	0.4263	-0.1021	-0.2582	2.8854	1.5745	9.0122	-1.2526	0.5724	0.3787	0.2442	-0.8883	-0.8563	9.4432	-1.5611	0.0924	5.0971	1.39	1.5099	-1.1752	0.7797	0.5149
-0.8843	0.0568	9.6163	-0.0022	0.4284	0.033	0.4323	-0.1141	-0.2342	3.0048	1.3456	9.1924	-0.9761	0.5371	0.3476	0.202	-0.9254	-0.8551	9.7914	-1.7327	0.3904	5.0297	1.5449	1.3307	-1.1758	0.8343	0.491
-0.6413	0.0004	10.2708	-0.0632	0.5226	0.0045	0.4563	-0.1141	-0.2702	2.7149	1.0599	9.067	-0.9162	0.4441	0.3152	0.2296	-0.8863	-0.8921	9.3258	-1.6189	-0.0852	4.4693	1.671	0.9139	-1.2104	0.815	0.5106
-0.5321	-0.3456	9.9175	-0.3704	0.4136	0.1334	0.4563	-0.1141	-0.2582	2.5969	1.6896	9.0065	-0.6654	0.6853	0.3508	0.2442	-0.8883	-0.8563	9.6207	-2.0192	0.3859	4.5556	1.6101	0.633	-1.2273	0.7781	0.5323
-0.7051	0.3448	9.9749	-0.4331	0.5076	0.044	0.4323	-0.1141	-0.2582	2.9459	1.8608	9.1922	-0.6047	0.6533	0.4121	0.2447	-0.9082	-0.8376	9.3845	-1.963	-0.0269	4.46	1.5187	0.3857	-1.1581	0.7816	0.4968
-0.5317	0.057	9.9776	-0.2825	0.5313	-0.1121	0.4383	-0.1321	-0.2582	2.8281	1.9181	9.0711	-0.6686	0.5316	0.4098	0.2141	-0.8291	-0.8767	9.5651	-2.191	0.4425	4.3688	1.3651	0.2907	-1.2281	0.7995	0.4938
-0.5944	0.344	9.7408	-0.6147	0.5768	0.1403	0.4563	-0.1081	-0.2462	2.7742	1.3462	9.1876	-0.5744	0.5922	0.2258	0.2436	-0.8683	-0.8749	9.7285	-1.6189	0.0979	4.1833	1.3967	0.2028	-1.1933	0.7837	0.4779
-0.4836	-0.2893	9.446	-0.4656	0.5087	-0.0163	0.4503	-0.1141	-0.2702	2.8861	1.2883	9.0116	-0.3904	0.5882	0.4113	0.2307	-0.9262	-0.8548	9.7347	-1.9621	0.3884	3.9395	1.2435	0.1109	-1.1573	0.7426	0.5372
-0.7108	-0.231	9.6189	-0.5845	0.4839	0.1695	0.4443	-0.1321	-0.2642	2.5991	1.7471	9.1254	-0.2669	0.5566	0.133	0.2139	-0.8114	-0.8417	9.6779	-2.0767	0.3869	3.7632	1.0276	0.2624	-1.1932	0.7661	0.4798
-0.5362	0.0565	9.7412	-0.7159	0.3662	-0.0415	0.4323	-0.1201	-0.2582	2.1956	1.2329	9.0567	-0.5436	0.5916	0.2258	0.2297	-0.8871	-0.8742	9.5622	-2.5358	0.2662	3.6746	1.1504	0.4834	-1.2108	0.7838	0.4777
-0.7157	-0.0016	9.3831	-0.4101	0.2919	-0.1104	0.4443	-0.1261	-0.2642	2.8282	1.8609	9.071	-0.7307	0.4719	0.2542	0.2582	-0.8703	-0.8391	9.6158	-2.5366	0.0923	3.58	0.7205	0.0415	-1.2106	0.7994	0.4941
-0.8244	0.057	9.7356	-0.5394	0.2965	-0.3207	0.4503	-0.1081	-0.2522	2.7714	1.5176	9.0691	-0.6373	0.5916	0.5963	0.2011	-0.8701	-0.8038	9.6122	-1.6765	-0.0213	3.1803	0.7527	-0.0729	-1.1762	0.7855	0.4599
-0.4225	-0.3465	9.6243	-0.5344	0.3885	-0.1983	0.4503	-0.1261	-0.2522	2.7751	1.4608	9.2473	-0.7899	0.5658	0.0705	0.2434	-0.8668	-0.9106	9.4414	-1.8483	-0.0254	3.0847	0.6613	-0.3202	-1.1929	0.8149	0.5109
-0.0772	-0.0596	9.6317	-0.7148	0.1832	0.11	0.4503	-0.1201	-0.2702	2.7088	2.0897	8.8908	-0.5406	0.7753	0.3526	0.2159	-0.9066	-0.8557	9.62	-2.2489	0.3267	3.1471	0.7532	-0.1955	-1.1929	0.8149	0.5109
-0.4803	0.4012	9.6841	-0.6581	0.3326	-0.1651	0.4443	-0.1201	-0.2402	2.8921	1.7469	9.3691	-0.7278	0.6253	0.257	0.2011	-0.8862	-0.8745	9.3418	-1.616	0.7318	3.2914	0.8464	-0.504	-1.1921	0.776	0.5512
-0.822	-0.0002	9.8537	-0.7471	0.2454	0.0196	0.4443	-0.1201	-0.2642	2.4809	1.9761	9.0047	-0.9151	0.5053	0.3472	0.2162	-0.9081	-0.82	9.8468	-1.4462	0.3342	3.2936	0.8768	-0.3799	-1.1586	0.8186	0.4748
-0.5884	-0.4603	9.9752	-0.8382	0.3409	0.0223	0.4383	-0.1141	-0.2522	2.8903	1.5177	9.2497	-1.0073	0.5371	0.4711	0.2447	-0.9082	-0.8376	9.8431	-2.7092	0.0379	3.5101	0.722	-0.3578	-1.1575	0.7777	0.5335
-0.4168	0.2293	9.9803	-0.8957	0.588	0.0252	0.4383	-0.1261	-0.2582	2.7799	1.4612	9.4849	-0.729	0.564	0.2559	0.2294	-0.8687	-0.8571	9.7286	-1.7336	0.0975	3.2611	0.6926	-0.6003	-1.1755	0.8324	0.5093
-1.0513	-0.0572	9.9081	-0.8334	0.372	0.1749	0.4383	-0.1141	-0.2522	2.7783	1.6328	9.4259	-0.8566	0.3207	0.2204	0.2009	-0.8686	-0.8395	9.5043	-1.9621	0.2671	3.4712	0.9695	-0.5657	-1.193	0.731	0.4835
-0.2486	0.3434	9.7475	-0.9212	0.5594	0.2392	0.4503	-0.1201	-0.2582	2.4742	2.2616	8.7082	-0.6065	0.5312	0.2555	0.2147	-0.8491	-0.858	9.5573	-1.5613	0.0947	3.2911	0.9079	-0.4714	-1.1756	0.7992	0.4947
-0.2464	-0.2314	9.8052	-0.7385	0.4599	0.2036	0.4443	-0.1261	-0.2642	2.8917	1.4034	9.3089	-0.3959	0.3418	0.6231	0.2292	-0.8671	-0.8929	9.7222	-2.0217	-0.2537	2.8366	0.7548	-0.4359	-1.1919	0.7409	0.555
-0.2478	-0.059	9.7465	-0.5212	0.4815	0.229	0.4503	-0.1201	-0.2522	2.7147	1.6324	9.1276	-0.336	0.1887	0.2807	0.2443	-0.889	-0.8384	9.8513	-2.1339	0.5068	2.8368	0.8778	-0.3399	-1.1754	0.8148	0.5112
-0.4226	-0.289	9.6244	-0.5195	0.7257	0.1388	0.4263	-0.1261	-0.2582	2.5995	1.5754	9.1251	-0.4308	0.0974	0.4643	0.2159	-0.9066	-0.8557	9.6147	-1.7908	0.095	2.7153	0.755	-0.4026	-1.1927	0.7798	0.5146
-0.1915	0.0557	9.6888	-0.5457	0.758	0.2922	0.4503	-0.1141	-0.2462	2.6603	1.7473	9.3049	-0.3029	0.341	0.4379	0.2006	-0.8501	-0.8224	9.5005	-1.7333	0.0929	2.3771	0.9408	-0.3906	-1.1929	0.7642	0.4981
-0.5351	0.0566	9.8003	-0.6419	0.5479	0.2933	0.4323	-0.1201	-0.2462	2.9543	1.3465	9.5477	-0.2133	0.1562	0.2186	0.2297	-0.8709	-0.8036	9.9067	-1.79	0.4508	2.2025	0.6016	-0.2426	-1.2446	0.7431	0.5358
-0.8831	0.0569	9.6754	-0.4223	0.7528	0.2892	0.4383	-0.1141	-0.2642	2.7716	1.4604	9.069	-0.1804	0.2481	0.1277	0.2155	-0.8874	-0.8565	9.5584	-1.5611	0.153	2.4481	0.8161	-0.0256	-1.2102	0.7799	0.5143
-0.1937	-0.0021	9.5705	-0.4581	0.7536	0.107	0.4323	-0.1321	-0.2462	2.4273	1.7476	9.1813	-0.2731	0.2493	0.2202	0.1863	-0.8666	-0.8753	9.6134	-2.4222	-0.024	2.4768	0.847	-0.087	-1.1748	0.7602	0.5351
-0.8205	0.4025	9.9728	-0.362	0.5671	0.3476	0.4563	-0.1141	-0.2582	2.7118	1.861	9.0092	-0.6722	0.3473	0.4374	0.2141	-0.8291	-0.8767	9.672	-1.963	0.0955	2.3914	0.9386	0.2564	-1.1756	0.7992	0.4947
-0.7092	0.1143	9.738	-0.3608	0.5367	0.4084	0.4563	-0.1201	-0.2522	2.4264	1.633	9.1216	-0.4274	0.2514	0.3435	0.2155	-0.8874	-0.8565	9.6185	-2.0197	0.2692	2.6053	1.0918	0.3798	-1.1582	0.7991	0.495
-0.3725	0.17	9.272	-0.3613	0.6587	0.3176	0.4563	-0.1081	-0.2582	2.3679	1.5186	9.0608	-0.5536	0.0699	0.2165	0.2013	-0.9039	-0.9094	9.4566	-2.0751	0.7324	2.578	1.1529	0.567	-1.1581	0.7816	0.4968
-0.306	0.2285	9.7461	-0.3937	0.5683	0.3179	0.4383	-0.1321	-0.2642	2.655	1.9758	9.0677	-0.5209	0.1916	0.3422	0.2571	-0.8304	-0.8763	9.2117	-2.3073	-0.1483	2.6656	1.2763	0.4763	-1.1414	0.7697	0.444
-0.4781	-0.2311	9.7416	-0.3619	0.9636	0.1059	0.4443	-0.1201	-0.2522	2.7753	1.8615	9.3075	-0.5512	0.2227	0.3736	0.1876	-0.908	-0.8024	9.7271	-2.193	-0.0209	2.697	1.3991	0.6025	-1.1931	0.7993	0.4944
-0.7631	-0.1152	9.9136	-0.1771	0.7423	0.2221	0.4563	-0.1141	-0.2522	3.0057	1.9754	9.3125	-0.3356	0.2193	0.3122	0.2151	-0.8682	-0.8573	9.4422	-1.6187	0.0338	2.6128	1.2752	0.8473	-1.2457	0.784	0.4771
-0.7642	-0.1153	9.8545	-0.0558	0.8589	0.0673	0.4443	-0.1261	-0.2642	2.7159	1.6325	9.187	-0.2458	0.0947	0.3719	0.1872	-0.905	-0.8738	9.7301	-1.9629	0.155	2.3663	1.2146	0.6963	-1.2107	0.7662	0.4795
-0.4224	0.2286	9.6848	-0.0261	0.888	0.0057	0.4443	-0.1081	-0.2522	2.6027	1.2323	9.2432	0.0308	0.0595	0.31	0.2155	-0.8874	-0.8565	9.5099	-1.9037	0.5591	2.0231	1.3704	0.4611	-1.175	0.7446	0.5186
-0.7061	0.2297	9.9156	-0.1875	0.7717	-0.174	0.4323	-0.1261	-0.2702	2.4923	1.1758	9.4784	0.0334	0.1826	0.2504	0.2295	-0.8694	-0.8393	9.669	-1.5045	-0.0196	1.4875	1.1544	0.928	-1.1755	0.7817	0.4966
-0.3068	0.0559	9.6866	-0.0633	0.8581	-0.2071	0.4503	-0.1321	-0.2522	2.7132	1.7467	9.0684	0.0661	0.2744	0.1903	0.2163	-0.9089	-0.8021	9.6155	-1.5612	0.1542	1.9489	1.2142	1.1362	-1.1587	0.8361	0.4729
-0.4147	-0.288	10.0381	-0.1251	0.7082	-0.1149	0.4503	-0.1261	-0.2582	2.9594	1.6904	9.8455	0.3715	0.1464	0.1886	0.215	-0.8513	-0.8044	9.6698	-2.0208	-0.0214	1.6505	1.0909	1.3544	-1.1753	0.7466	0.5003
-0.3057	0.056	9.7457	0.0648	0.884	-0.0575	0.4323	-0.1321	-0.2702	2.6603	1.7473	9.3049	0.1859	0.1183	0.3113	0.172	-0.8662	-0.8755	9.7429	-1.3294	0.8575	1.3858	1.1208	1.823	-1.21	0.7448	0.518
-0.3083	-0.3468	9.5674	-0.0591	0.8586	-0.0546	0.4443	-0.1201	-0.2522	2.6563	1.4607	9.0666	0.0935	0.0598	0.0012	0.2013	-0.8878	-0.8387	9.6758	-1.5033	0.3306	1.5717	1.1506	1.9742	-1.1922	0.7428	0.5366
-0.5884	-0.4603	9.9752	0.0345	0.9158	-0.0566	0.4683	-0.1261	-0.2582	2.4317	1.4046	9.3589	0.093	0.0593	0.1248	0.2294	-0.8687	-0.8571	10.0709	-1.7915	0.1041	1.6903	1.3354	1.9463	-1.1936	0.7856	0.4596
-0.534	0.0567	9.8594	-0.0346	0.7346	-0.2085	0.4443	-0.1321	-0.2582	2.4838	1.7474	9.1231	-0.0316	-0.0004	0.2161	0.2151	-0.8682	-0.8573	9.9599	-1.5613	0.2777	1.6261	1.3668	1.8252	-1.2112	0.8033	0.4575
-0.3673	0.4007	9.5681	-0.0012	0.7336	-0.1178	0.4383	-0.1381	-0.2582	2.7739	1.0027	9.1275	-0.3421	-0.1184	0.337	0.2296	-0.8702	-0.8214	9.7287	-1.791	0.0973	2.0044	1.364	2.3724	-1.1752	0.7797	0.5149
-0.6442	-0.23	10.0929	-0.1167	0.8616	0.0993	0.4503	-0.1081	-0.2702	2.4853	1.633	9.1822	-0.6457	0.1016	0.3404	0.2162	-0.9081	-0.82	9.8449	-1.676	0.2167	2.3995	1.271	2.2385	-1.1757	0.766	0.4801
-0.763	-0.1727	9.9135	0.3697	0.9012	-0.2173	0.4503	-0.1201	-0.2462	2.7125	1.0597	8.9482	-0.3359	0.1889	0.2499	0.2153	-0.8698	-0.8215	9.6145	-1.6761	0.0954	3.0475	1.2683	2.5646	-1.1925	0.7447	0.5183
-0.5921	0.3443	9.859	-0.0629	0.7362	-0.1163	0.4503	-0.1141	-0.2522	2.7251	1.2327	9.6021	-0.6753	0.1336	0.1556	0.2289	-0.8487	-0.8758	9.9657	-1.6176	0.5693	3.7107	1.6061	2.4377	-1.1934	0.8012	0.4761
-0.1942	-0.3472	9.5106	0.1832	0.6342	-0.0923	0.4443	-0.1081	-0.2582	2.4355	1.8057	9.5973	-0.3992	0.0978	0.2481	0.2433	-0.8499	-0.8578	9.6154	-1.5038	0.1544	4.2273	1.7282	2.4308	-1.1578	0.7796	0.5152
-0.4204	-0.2312	9.7428	-0.2095	0.896	0.0713	0.4503	-0.1261	-0.2642	2.9515	1.5179	9.4292	-0.2769	0.0648	0.3095	0.2295	-0.8694	-0.8393	9.6813	-1.3301	0.623	4.3031	2.0995	1.9775	-1.1583	0.8167	0.4931
-0.994	0.1152	9.9097	0.0929	0.8214	-0.1196	0.4563	-0.1201	-0.2462	2.8852	2.1469	9.0728	-0.2774	0.0342	0.2781	0.2139	-0.8114	-0.8417	9.3928	-2.1336	0.3809	4.6343	2.3454	1.9471	-1.1755	0.7817	0.4966
-0.5368	0.4014	9.742	-0.0623	0.5227	0.035	0.4503	-0.1321	-0.2642	2.7118	1.3459	8.9487	-0.2785	0.0029	0.432	0.2432	-0.8491	-0.8757	9.6138	-1.9631	0.036	4.1144	2.5314	2.0245	-1.1584	0.7835	0.4785
-0.4789	0.2288	9.7427	-0.0629	0.7362	-0.1163	0.4503	-0.1201	-0.2702	2.7718	1.346	9.0688	-0.4311	0.067	0.402	0.2438	-0.8698	-0.8392	9.6618	-2.0222	-0.4299	4.347	2.6556	1.5918	-1.1585	0.801	0.4767
-0.017	-0.2319	9.7506	0.2176	0.6943	-0.0013	0.4503	-0.1201	-0.2522	2.826	1.8034	8.952	-0.3392	0.035	0.3398	0.2298	-0.8878	-0.8564	9.6119	-2.193	-0.0815	4.0621	2.7194	1.1678	-1.1763	0.8031	0.458
-0.3062	-0.2891	9.6858	-0.1302	0.5551	-0.2072	0.4443	-0.1321	-0.2642	2.7743	1.289	9.1875	-0.2501	-0.1805	0.1199	0.1719	-0.8654	-0.8933	9.6823	-1.9611	0.6207	4.2396	2.5353	0.7891	-1.2099	0.778	0.5326
-0.4688	0.2301	10.2747	0.2134	0.5413	-0.0631	0.4443	-0.1201	-0.2522	2.8321	1.7468	9.249	-0.4642	-0.0552	0.3997	0.2149	-0.8506	-0.8223	9.5024	-1.5034	0.2104	3.8655	2.722	0.5553	-1.1758	0.7836	0.4782
-0.3083	0.2857	9.628	-0.287	0.5613	-0.2949	0.4383	-0.1261	-0.2582	2.4244	1.9763	9.0629	-0.4318	0.0062	0.2773	0.201	-0.8693	-0.8216	9.6096	-2.1934	-0.1983	3.7398	2.6921	0.372	-1.1938	0.8207	0.4559
-0.6433	-0.1148	10.1523	0.0923	0.6383	-0.0291	0.4443	-0.1321	-0.2582	2.8866	1.5746	9.0716	-0.6459	0.1015	0.3713	0.2009	-0.8847	-0.9102	9.8416	-1.734	0.0414	3.0841	2.7576	-0.2604	-1.1937	0.8032	0.4578
-0.3023	0.0565	9.923	0.1772	0.7251	-0.3662	0.4503	-0.1201	-0.2522	2.2512	1.576	8.9991	-0.3992	0.0978	0.2481	0.2294	-0.8687	-0.8571	9.5022	-2.0773	0.15	3.0725	2.7594	-0.7841	-1.1759	0.8011	0.4764
-0.4179	-0.4034	9.8605	0.2128	0.5108	-0.0632	0.4503	-0.1321	-0.2402	2.7766	1.3464	9.3064	-0.6426	0.2554	0.2814	0.2296	-0.8863	-0.8921	9.6173	-2.0199	0.2109	3.007	2.791	-0.9668	-1.1589	0.8205	0.4565
-0.3091	0.0556	9.5684	-0.0645	0.6445	-0.1167	0.4323	-0.1141	-0.2522	2.8257	1.9179	8.9523	-0.3336	0.3116	0.2521	0.1998	-0.8287	-0.8768	10.0747	-2.0204	0.2784	2.5067	2.7018	-1.5759	-1.1751	0.7622	0.5167
-0.4793	-0.1738	9.6827	0.1518	0.4524	-0.0011	0.4503	-0.1261	-0.2462	2.8282	1.4029	9.0106	-0.5802	0.2853	0.2203	0.2022	-0.9261	-0.8372	9.6698	-2.0208	-0.0214	2.3126	2.6732	-2.0969	-1.1584	0.7835	0.4785
-0.364	-0.174	9.6849	-0.2252	0.4672	-0.2359	0.4563	-0.1261	-0.2522	2.7781	1.69	9.426	-0.5187	0.2842	0.2204	0.2134	-0.7915	-0.8603	9.4917	-1.9644	-0.3748	1.6703	2.5213	-2.2733	-1.1409	0.7834	0.4788
-0.5971	-0.0013	9.5626	-0.3516	0.4415	-0.3245	0.4563	-0.1381	-0.2642	2.6015	1.7473	9.2443	-0.4555	0.3451	0.098	0.215	-0.8675	-0.8751	9.7377	-2.4206	0.5035	1.4295	2.2138	-2.3389	-1.1939	0.8383	0.454
-0.4205	-0.1737	9.7429	-0.5255	0.5725	0.0161	0.4383	-0.1261	-0.2462	3.0614	1.8033	9.1945	-0.3637	0.3129	0.0667	0.2427	-0.813	-0.8236	10.0083	-1.8499	-0.189	1.4473	2.3388	-2.8289	-1.1405	0.7639	0.499
-0.5909	-0.3456	9.8573	-0.2445	0.6528	0.0707	0.4563	-0.1261	-0.2642	2.7694	1.8609	9.0104	-0.6691	0.471	0.2234	0.2144	-0.8475	-0.8937	9.4992	-1.6188	0.035	0.1304	1.9737	-3.3062	-1.1575	0.7777	0.5335
-0.4142	0.0571	10.0981	-0.5246	0.5726	0.0466	0.4443	-0.1141	-0.2642	2.8273	1.7463	9.0113	-0.6094	0.3777	0.2528	0.2294	-0.8687	-0.8571	9.9021	-1.7909	0.2174	0.1862	2.0051	-3.5222	-1.2445	0.7763	0.5504
-0.2499	-0.1743	9.6281	-0.675	0.366	0.3236	0.4563	-0.1261	-0.2522	2.7188	1.4038	9.3054	-0.4553	0.3453	0.0363	0.2144	-0.8475	-0.8937	9.5585	-2.3644	0.0918	-0.3589	1.7906	-3.4866	-1.1925	0.7954	0.531
-0.4228	0.4586	9.6853	-0.7086	0.55	0.1119	0.4443	-0.1201	-0.2642	2.8907	1.346	9.2494	-0.2717	0.341	0.3145	0.2298	-0.8878	-0.8564	9.2712	-1.7331	0.03	-0.9737	1.7928	-3.69	-1.1931	0.7993	0.4944
-0.6534	-0.1161	9.6203	-1.0424	0.5953	0.3033	0.4503	-0.1201	-0.2522	3.1741	1.8601	9.0781	-0.4262	0.2529	0.0038	0.2294	-0.8687	-0.8571	9.7345	-2.5359	0.328	-1.1248	1.7007	-3.6897	-1.1407	0.799	0.4953
-0.6511	-0.1733	9.7384	-0.9569	0.6212	0.0268	0.4383	-0.1261	-0.2582	2.8354	1.3464	9.3671	-0.3974	0.2199	0.4047	0.2013	-0.8878	-0.8387	9.608	-1.9068	-0.2556	-1.1034	1.6713	-4.1225	-1.2106	0.7994	0.4941
-0.4215	-0.2888	9.6835	-1.2657	0.8171	-0.0865	0.4443	-0.1321	-0.2462	2.6026	1.2895	9.2433	-0.4575	0.2527	0.1581	0.2293	-0.8518	-0.8043	9.4444	-2.3068	0.0897	-1.0811	1.7648	-4.4285	-1.1409	0.7327	0.4661
-0.4784	-0.0586	9.742	-1.0797	0.5654	0.0905	0.4443	-0.1201	-0.2582	2.4821	1.461	9.0036	-0.4266	0.2523	0.1273	0.2432	-0.8491	-0.8757	9.6223	-1.5599	0.5043	-0.7993	1.6399	-4.1911	-1.1401	0.7444	0.5192
-0.5259	-0.0573	10.2729	-1.1445	0.3846	0.0911	0.4383	-0.1141	-0.2522	2.7791	1.2894	9.4252	-0.5785	0.3473	0.067	0.2157	-0.8889	-0.8208	9.7876	-1.5039	0.2162	-0.5938	1.7637	-4.4691	-1.1928	0.7467	0.5
-0.4145	0.2296	10.0985	-0.9303	0.4669	-0.0357	0.4503	-0.1141	-0.2702	2.6605	1.1749	9.2443	-0.518	0.285	0.0351	0.2151	-0.8682	-0.8573	9.495	-1.8491	-0.1993	-0.4067	1.8549	-4.2236	-1.1589	0.8205	0.4565
-0.5379	-0.2313	9.6223	-0.7152	0.4577	-0.0715	0.4383	-0.1201	-0.2522	2.8277	1.5746	9.011	-0.6381	0.4407	0.0068	0.2152	-0.869	-0.8394	9.6191	-1.7326	0.3286	-0.3118	1.9464	-4.0072	-1.1748	0.7602	0.5351
-0.3633	0.0561	9.7446	-0.5596	0.3294	0.046	0.4323	-0.1141	-0.2462	2.6603	1.7473	9.3049	-0.3933	0.4049	0.2227	0.2587	-0.9064	-0.8911	9.5648	-1.9616	0.4433	-0.1903	1.9769	-4.0087	-1.1762	0.7855	0.4599
-0.4218	-0.1164	9.6839	-0.2757	0.4405	0.1923	0.4323	-0.1141	-0.2642	3.007	1.4031	9.3113	-0.2401	0.3414	0.0983	0.2144	-0.8306	-0.8409	9.4423	-1.7334	0.0334	-0.6123	1.9157	-3.8171	-1.141	0.8009	0.477
-0.3623	0.1138	9.8038	-0.3803	0.2295	-0.1115	0.4443	-0.1321	-0.2642	2.5884	1.7461	8.5907	-0.2983	0.4664	-0.1775	0.2151	-0.8682	-0.8573	9.3911	-1.7896	0.3238	-0.1507	1.8216	-3.7057	-1.2273	0.7781	0.5323
-0.4827	0.4584	9.566	-0.3142	0.2884	0.0093	0.4323	-0.1321	-0.2642	2.832	1.2888	9.1887	-0.241	0.3103	0.1904	0.1866	-0.8851	-0.8924	9.7295	-1.5613	0.1564	0.1621	1.5736	-3.5341	-1.141	0.8009	0.477
-0.3057	0.056	9.7457	-0.3398	0.5953	0.0117	0.4383	-0.1261	-0.2462	2.7685	1.7463	8.9507	0.0058	0.3069	0.0055	0.2158	-0.9059	-0.8736	9.7295	-1.5613	0.1564	-0.2549	1.8192	-2.9022	-1.1233	0.7657	0.481
-0.6513	-0.0583	9.7387	0.3941	0.4721	-0.1899	0.4563	-0.1381	-0.2522	2.8437	1.3472	9.783	0.1317	0.4281	-0.1157	0.2441	-0.8714	-0.8034	9.7288	-1.8484	0.0971	-0.4976	1.8196	-2.8357	-1.1577	0.7621	0.517
-0.5989	-0.2316	9.4439	0.0287	0.5796	-0.0584	0.4443	-0.1201	-0.2642	2.7145	1.6896	9.1277	0.2543	0.4554	0.1939	0.2579	-0.8688	-0.8748	9.4472	-1.2161	0.327	-0.1357	1.727	-3.0922	-1.1762	0.7855	0.4599
-0.5871	0.0574	10.0947	0.0798	0.3929	-0.3352	0.4383	-0.1141	-0.2582	3.0068	1.5176	9.3115	0.3431	0.2396	0.0358	0.2144	-0.8475	-0.8937	9.5646	-1.8469	0.4438	-0.4081	1.7274	-2.9942	-1.2287	0.8034	0.4572
-0.7125	0.0564	9.5605	0.332	0.3526	-0.1281	0.4323	-0.1321	-0.2642	2.5389	1.3463	8.9452	0.3142	0.3324	0.0065	0.1863	-0.8666	-0.8753	9.6126	-1.9633	-0.0224	-1.3472	1.7595	-2.6663	-1.1929	0.7642	0.4981
-0.8814	-0.2879	9.7336	0.0177	0.2734	-0.2734	0.4383	-0.1381	-0.2642	2.6048	1.3469	9.3623	0.408	0.4226	0.07	0.2017	-0.9069	-0.838	9.381	-1.9062	-0.2018	-1.2958	1.5408	-1.8721	-1.1931	0.7993	0.4944
-0.711	0.4591	9.6797	0.3234	0.0466	-0.2516	0.4563	-0.1261	-0.2462	2.9489	1.117	9.2501	0.3494	0.4871	-0.4231	0.2435	-0.8514	-0.8221	9.274	-2.0195	0.1456	-1.111	1.6016	-1.7508	-1.1932	0.7661	0.4798
-0.416	-0.1732	9.9793	0.8431	0.0851	-0.4776	0.4563	-0.1141	-0.2462	2.7751	1.4608	9.2473	0.1945	0.4886	-0.1454	0.2147	-0.8491	-0.858	9.6067	-1.7923	-0.3135	-1.4711	1.6631	-1.4335	-1.1583	0.7659	0.4804
-0.6984	0.3456	10.3296	1.1839	0.1016	-0.4553	0.4383	-0.1141	-0.2522	2.5388	1.8615	9.0056	0.4054	0.2695	-0.0254	0.2151	-0.8682	-0.8573	9.2743	-1.5031	0.2059	-2.1077	1.7256	-1.2033	-1.1406	0.7815	0.4971
-0.2439	0.229	9.9837	1.3007	0.0042	-0.6417	0.4443	-0.1321	-0.2522	2.5981	1.6897	9.0659	0.2847	0.3944	-0.0234	0.2007	-0.8671	-0.8752	9.4412	-1.7336	-0.025	-1.9234	1.6327	-1.2096	-1.1919	0.7916	0.5677
-0.6468	-0.0578	9.9751	1.1149	0.0729	-0.6978	0.4503	-0.1201	-0.2702	2.828	1.4602	9.0108	0.0698	0.4288	-0.0231	0.2161	-0.9074	-0.8379	9.8496	-1.7326	0.4499	-1.8332	1.8172	-1.1445	-1.1579	0.7465	0.5006
-0.7046	0.0573	9.9743	0.7453	0.2715	-0.7792	0.4443	-0.1141	-0.2582	2.9539	1.5182	9.548	0.0706	0.4597	-0.0843	0.2153	-0.8698	-0.8215	9.7237	-2.251	-0.1962	-1.7397	1.8167	-1.0539	-1.1923	0.7603	0.5348
-0.1888	-0.2315	9.8064	0.5527	0.0344	-0.8979	0.4443	-0.1321	-0.2582	2.889	1.5748	9.1904	0.0376	0.3376	-0.1175	0.2299	-0.8886	-0.8385	9.7307	-1.6185	0.2146	-1.3177	1.7856	-1.3098	-1.1928	0.7974	0.5127
-0.7079	-0.0006	9.7968	0.4078	0.1029	-0.5889	0.4443	-0.1201	-0.2402	3.1858	1.4605	9.6121	0.129	0.3049	-0.0252	0.2017	-0.9069	-0.838	9.6728	-1.7333	0.1547	-1.6182	2.0317	-0.9269	-1.1573	0.7426	0.5372
-0.6449	0.1725	10.0939	0.0104	0.3336	-0.5779	0.4443	-0.1261	-0.2582	2.5979	1.747	9.066	0.4996	0.3301	-0.2094	0.1715	-0.8301	-0.8234	9.8451	-1.7908	0.2163	-1.4909	1.9076	-0.7788	-1.1582	0.7484	0.4823
-1.0548	-0.0001	9.731	-0.2015	0.5871	-0.5713	0.4443	-0.1201	-0.2582	2.836	2.0906	9.4874	0.4399	0.4534	-0.0838	0.2159	-0.9066	-0.8557	9.3291	-1.5036	0.0903	-1.15	1.9982	-0.4748	-1.1752	0.7797	0.5149
-0.829	0.1139	9.4993	-0.7582	0.5797	-0.5883	0.4323	-0.1141	-0.2582	2.8894	1.4031	9.1901	0.3454	0.3624	0.038	0.2286	-0.8303	-0.8587	9.6787	-1.9044	0.4458	-1.2431	2.1525	-0.4377	-1.1742	0.7564	0.5717
-0.2474	-0.289	9.746	-0.3825	0.4428	-0.3237	0.4383	-0.1321	-0.2762	2.6025	1.8047	9.3038	0.5321	0.4517	-0.0528	0.2148	-0.8498	-0.8402	9.6228	-1.9041	0.503	-0.9483	2.061	-0.9703	-1.1755	0.7817	0.4966
-0.6548	0.0562	9.5616	-0.352	0.472	-0.3548	0.4503	-0.1261	-0.2522	2.8309	1.2315	9.1291	0.4415	0.5153	-0.2062	0.2152	-0.869	-0.8394	9.8419	-1.9635	0.0406	-0.4863	2.0284	-0.7955	-1.1571	0.7758	0.5518
-0.8785	-0	9.9116	-0.686	0.7003	-0.2843	0.4443	-0.1201	-0.2522	2.5992	1.6899	9.1253	0.4985	0.2989	-0.0865	0.2443	-0.889	-0.8384	9.5052	-1.7898	0.3261	-1.0653	2.0913	-0.7204	-1.1401	0.7444	0.5192
-0.1788	-0.1727	10.3384	-0.4704	0.3252	-0.0782	0.4443	-0.1321	-0.2642	2.2633	1.5199	9.5932	0.4397	0.4532	-0.022	0.1863	-0.8666	-0.8753	9.6141	-1.4466	0.0962	-0.8532	1.9987	-0.8506	-1.1757	0.8168	0.4928
-0.8276	-0.0009	9.5581	-0.7125	0.7631	-0.1613	0.4443	-0.1381	-0.2582	2.7175	1.4609	9.2461	0.4072	0.3916	0.1312	0.1864	-0.8505	-0.8047	9.4457	-1.6754	0.2087	-0.5434	1.905	-0.7054	-1.1754	0.8148	0.5112
-0.3034	0.0563	9.8639	-0.9845	0.7143	0.0891	0.4563	-0.1261	-0.2582	2.9426	1.746	9.0137	0.3477	0.4852	0.0401	0.1866	-0.8681	-0.8396	9.3909	-1.6749	0.3242	-0.2712	1.8739	-0.835	-1.1928	0.7974	0.5127
-0.4736	-0.2306	9.978	-1.2315	0.8162	0.0346	0.4443	-0.1201	-0.2522	2.7821	1.5187	9.6039	0.2281	0.6414	-0.1117	0.2019	-0.9246	-0.8729	9.6737	-1.6184	0.2135	0.1638	1.7486	-0.5699	-1.1402	0.8127	0.5301
-0.5327	-0.0006	9.9184	-1.7268	0.8367	-0.0142	0.4503	-0.1261	-0.2462	2.9475	1.6893	9.2513	0.2219	0.364	0.1613	0.2578	-0.868	-0.8926	9.73	-1.8482	0.1554	1.1329	1.8395	-0.8332	-1.1581	0.7816	0.4968
-0.3593	-0.2884	9.9211	-2.1265	1.0367	-0.0643	0.4443	-0.1081	-0.2702	2.7135	1.6322	9.0682	0.1307	0.4269	0.1623	0.2428	-0.83	-0.8764	9.447	-1.7899	0.2666	1.3153	1.7469	-0.932	-1.1395	0.7406	0.5558
-0.7686	-0.1734	9.6179	-2.3645	0.9259	0.3374	0.4383	-0.1261	-0.2462	2.7175	1.4609	9.2461	0.0676	0.3362	0.0988	0.2436	-0.8683	-0.8749	9.5118	-1.6165	0.6769	2.0154	1.6531	-1.072	-1.1927	0.7291	0.5019
-0.5947	-0.1161	9.6806	-2.5131	1.116	0.4336	0.4383	-0.1261	-0.2582	2.8313	1.575	9.1893	0.3161	0.4247	-0.0536	0.1857	-0.8298	-0.8412	9.6157	-1.7333	0.1535	2.1711	1.6215	-0.9527	-1.1927	0.7798	0.5146
-0.7118	0.2865	9.6202	-2.4572	1.0213	0.2792	0.4383	-0.1141	-0.2522	2.2443	1.5181	8.6425	-0.0506	0.554	-0.1137	0.1857	-0.8459	-0.9118	9.497	-1.6765	-0.082	2.3903	1.374	-0.8717	-1.2099	0.778	0.5326
-0.4737	-0.1731	9.9782	-2.3284	0.9862	0.4894	0.4383	-0.1141	-0.2522	2.4956	1.2906	9.6569	-0.3313	0.4643	0.4401	0.2013	-0.8878	-0.8387	9.5096	-1.6743	0.56	2.3925	1.4967	-0.6833	-1.1577	0.8128	0.5298
-0.3689	0.0555	9.449	-2.6675	0.9699	0.528	0.4503	-0.1261	-0.2582	2.3129	1.4045	9.1782	-0.2073	0.4933	0.3482	0.2152	-0.869	-0.8394	9.7358	-1.9045	0.447	2.6122	1.4029	-0.4745	-1.1405	0.7639	0.499
-0.474	-0.0006	9.9786	-2.6638	0.9398	0.6803	0.4503	-0.1261	-0.2522	2.608	1.9769	9.6013	0.0043	0.3051	0.4378	0.2157	-0.8889	-0.8208	9.5119	-1.7312	0.6765	2.9825	1.3399	-0.3296	-1.1579	0.7465	0.5006
-0.3026	0.2289	9.9234	-2.914	0.9498	0.5644	0.4503	-0.0961	-0.2462	2.4332	1.2902	9.418	-0.2396	0.402	0.2847	0.215	-0.8513	-0.8044	9.6222	-1.5026	0.5045	3.282	1.1554	-0.7108	-1.1581	0.7816	0.4968
-0.0834	0.2846	9.337	-3.0365	0.8636	0.6584	0.4263	-0.1321	-0.2582	2.551	1.7482	9.5996	-0.0513	0.5532	0.0716	0.2154	-0.8867	-0.8743	9.7401	-1.7316	0.681	3.5517	1.2478	-0.8677	-1.1752	0.7797	0.5149
-0.8177	0.1153	10.0904	-3.4293	0.9728	0.9127	0.4323	-0.1141	-0.2462	2.9503	1.5178	9.3698	0.0999	0.4274	0.1622	0.2001	-0.831	-0.8232	9.7899	-1.5034	0.3329	3.7416	1.0617	-0.6918	-1.1922	0.7428	0.5366
-0.1262	-0.461	10.0433	-3.7389	0.9246	0.9199	0.4623	-0.1261	-0.2582	3.0073	1.8038	9.3715	0.0358	0.2754	0.0667	0.1994	-0.7933	-0.8069	9.734	-1.5032	0.3901	4.2329	1.1523	-0.4833	-1.1928	0.7974	0.5127
-0.0823	0.2848	9.3961	-3.7962	1.2327	0.8926	0.4383	-0.1141	-0.2582	2.3164	1.4049	9.3565	0.2496	0.2399	0.3444	0.2152	-0.869	-0.8394	9.6142	-1.504	0.096	4.5341	1.0906	-0.7068	-1.1576	0.7445	0.5189
0.0426	-0.0593	9.8704	-3.4883	1.0367	0.9755	0.4383	-0.1321	-0.2762	2.9548	1.6327	9.6077	-0.0902	0.1841	0.3737	0.2431	-0.8322	-0.8228	9.2788	-2.1908	0.3784	5.106	1.2749	-0.9288	-1.1581	0.7816	0.4968
-0.1312	-0.2316	9.8075	-3.3043	1.0593	0.9101	0.4563	-0.1201	-0.2522	2.9451	1.689	9.1324	0.3103	0.1779	0.2508	0.2006	-0.8501	-0.8224	9.2754	-1.4455	0.2644	5.3446	1.1829	-1.2444	-1.2281	0.7488	0.4811
-0.3602	-0.4035	9.8617	-3.1295	0.9894	0.5699	0.4443	-0.1201	-0.2522	2.9477	1.632	9.2512	0.3122	0.24	0.0666	0.2149	-0.8667	-0.893	9.5057	-1.3881	0.3859	5.6188	1.2437	-1.2174	-1.1925	0.7447	0.5183
-0.6511	-0.1733	9.7384	-2.4814	0.8708	0.6145	0.4503	-0.1201	-0.2522	2.8285	1.7464	9.0708	0.4044	0.2383	0.0976	0.2153	-0.8698	-0.8215	9.7347	-1.9621	0.3884	5.6245	1.1813	-1.0035	-1.1585	0.801	0.4767
-0.8201	-0.4601	9.9116	-1.9919	0.8497	0.4499	0.4263	-0.1081	-0.2522	2.7138	1.5178	9.0679	0.4031	0.2068	0.2824	0.2437	-0.8691	-0.857	9.7312	-1.9053	0.2136	5.8161	1.1488	-0.6383	-1.1925	0.7447	0.5183
-0.4149	-0.173	10.0384	-1.5565	0.7404	0.6217	0.4383	-0.1201	-0.2582	2.7198	1.9763	9.4254	0.0625	0.1201	0.3729	0.2151	-0.8682	-0.8573	9.7878	-1.6186	0.2157	6.2755	1.0243	-0.6511	-1.14	0.7269	0.5211
-0.8245	0.1145	9.7357	-1.2157	0.5128	0.7952	0.4563	-0.1081	-0.2702	2.7168	1.2319	9.1862	-0.1496	0.3077	0.4376	0.1999	-0.8294	-0.8589	9.9649	-1.1013	0.5712	6.0356	0.932	-0.5256	-1.1753	0.7973	0.513
-0.5278	-0.23	10.1542	-0.8236	0.5561	0.4198	0.4443	-0.1201	-0.2522	2.6519	1.8037	8.8891	-0.3956	0.3122	0.3755	0.2291	-0.8502	-0.84	9.3843	-1.1023	0.0345	5.4613	0.9019	-0.2992	-1.1399	0.76	0.5356
-0.531	-0.3454	9.9766	-0.6346	0.5792	0.5374	0.4443	-0.1081	-0.2522	2.7772	1.5755	9.3663	-0.5181	0.3449	0.3759	0.2003	-0.8486	-0.8581	9.2726	-1.8477	0.0879	5.0038	1.0876	-0.1615	-1.1584	0.7835	0.4785
-0.3598	0.5741	9.9822	-0.7934	0.6157	0.3584	0.4503	-0.1381	-0.2582	2.5912	1.5746	8.7091	-0.7349	0.287	0.4362	0.2433	-0.8499	-0.8578	9.3361	-1.617	0.44	4.9394	1.1805	-0.25	-1.1752	0.7797	0.5149
-0.6514	-0.0008	9.7388	-0.8845	0.5587	0.4518	0.4563	-0.1081	-0.2582	2.8329	1.4034	9.2483	-0.5191	0.3137	0.4989	0.2585	-0.8726	-0.7855	9.8403	-1.6769	-0.0167	4.6631	1.489	-0.1124	-1.1405	0.8146	0.5117
-0.1863	-0.3462	9.9243	-0.7626	0.6144	0.3576	0.4443	-0.1081	-0.2402	2.4324	1.6336	9.4187	-0.3058	0.1575	0.2802	0.2158	-0.9059	-0.8736	10.011	-2.1363	-0.0733	5.1543	1.3643	-0.0641	-1.158	0.764	0.4987
-0.6499	-0.1732	9.7975	-0.6741	0.7626	0.1123	0.4503	-0.1141	-0.2522	3.0607	1.5743	9.1346	-0.1519	0.095	-0.0603	0.1582	-0.8857	-0.8569	9.4457	-1.6754	0.2087	4.9929	1.6429	-0.2687	-1.141	0.7502	0.4642
-0.6464	-0.2877	9.9745	-0.4255	0.661	0.2277	0.4443	-0.1141	-0.2522	2.5991	1.7471	9.1254	0.0313	0.0601	0.1864	0.2144	-0.8306	-0.8409	9.506	-1.6175	0.3851	4.7464	1.6746	-0.3553	-1.1397	0.7249	0.5394
-0.1894	0.1135	9.8072	-0.331	0.7183	0.2562	0.4443	-0.1141	-0.2522	2.5438	1.7475	9.2431	0.3354	-0.1294	0.2145	0.2297	-0.8709	-0.8036	9.6174	-1.3313	0.2717	4.6	1.7663	-0.0107	-1.1406	0.7815	0.4971
-0.0688	0.2864	10.1054	-0.2123	0.6821	0.1006	0.4383	-0.1261	-0.2642	2.7677	1.5745	8.891	0.3362	-0.0985	0.1533	0.2431	-0.8484	-0.8935	9.788	-1.7907	0.2151	4.2656	1.9208	0.1545	-1.2104	0.7643	0.4978
-0.419	-0.4036	9.8014	-0.3352	0.4738	0.2549	0.4503	-0.1321	-0.2522	3.1806	1.1738	9.3144	0.0628	0.1204	0.3111	0.2295	-0.8694	-0.8393	9.5648	-2.0189	0.4431	4.0467	2.0144	-0.0234	-1.2278	0.7468	0.4994
-0.3599	0.0566	9.9219	-0.0856	0.6773	0.2195	0.4323	-0.1081	-0.2702	2.7192	2.2052	9.4258	-0.0285	0.1532	0.188	0.2435	-0.8514	-0.8221	9.6702	-1.5617	0.0386	3.7963	2.0775	-0.2632	-1.1582	0.7991	0.495
-0.5398	0.171	9.5642	-0.1743	0.7121	0.3439	0.4503	-0.1141	-0.2582	2.3106	1.8622	9.1197	-0.5214	0.1611	0.3108	0.229	-0.8495	-0.8579	9.2118	-1.6761	-0.0877	3.6092	2.1709	-0.3801	-1.1922	0.7428	0.5366
-0.5297	-0.4603	10.0355	-0.1509	0.466	0.2199	0.4563	-0.1321	-0.2522	2.5991	1.7471	9.1254	-0.5243	0.0076	0.3081	0.2573	-0.8319	-0.8406	9.6762	-1.7327	0.3297	3.0616	2.2643	-0.2432	-1.14	0.7776	0.5338
-0.699	0.058	10.2698	0.2457	0.4792	0.0273	0.4563	-0.1141	-0.2281	2.2515	1.9767	9.0594	-0.5213	0.1612	0.2799	0.2284	-0.8295	-0.8765	9.5591	-2.02	0.1514	2.814	2.5115	-0.2312	-1.1746	0.7759	0.5515
-0.1327	-0.0018	9.7489	0.1794	0.3592	-0.0633	0.4443	-0.1261	-0.2642	2.5986	1.4608	9.0654	-0.4613	0.0682	0.2475	0.2286	-0.8303	-0.8587	9.7813	-1.8493	-0.1352	2.7885	2.4493	-0.0475	-1.1748	0.7602	0.5351
-0.6464	-0.2877	9.9745	0.0508	0.4554	-0.3037	0.4443	-0.1261	-0.2582	3.115	1.9745	9.0177	-0.3343	0.2808	0.2824	0.2305	-0.9086	-0.8199	9.7309	-1.7332	0.2142	2.6558	2.6666	-0.3777	-1.1752	0.7797	0.5149
-0.7634	-0.5753	9.8534	0.2822	0.8141	0.0283	0.4383	-0.1201	-0.2702	2.9389	1.8029	8.8356	-0.3081	0.0349	0.2472	0.2436	-0.8683	-0.8749	9.6203	-1.7324	0.387	2.3861	2.5742	-0.2208	-1.1585	0.7503	0.4639
-0.4196	-0.0586	9.8023	0.1828	0.7562	-0.1831	0.4323	-0.1321	-0.2522	2.8854	1.5745	9.0122	-0.1816	0.1868	0.1266	0.2293	-0.8679	-0.875	9.7869	-1.7909	0.1568	2.1043	2.5145	-0.5868	-1.1754	0.7641	0.4984
-0.368	0.1706	9.5084	0.3623	0.5648	-0.2801	0.4443	-0.1141	-0.2582	2.8893	1.9183	9.2506	-0.1841	0.0338	0.0003	0.2568	-0.812	-0.8592	9.8486	-1.8475	0.3911	2.2841	2.7298	-0.5842	-1.1755	0.7817	0.4966
-0.0144	0.1709	9.9289	0.3695	0.5961	-0.0361	0.4503	-0.1201	-0.2582	2.938	1.6883	8.7759	-0.0906	0.1237	0.1565	0.2295	-0.8694	-0.8393	9.4548	-1.6738	0.6755	1.955	2.4836	-0.4614	-1.1931	0.7993	0.4944
-0.4826	-0.2317	9.5052	0.4975	0.7134	0.053	0.4443	-0.1201	-0.2402	2.6022	1.9191	9.304	-0.2731	0.2193	0.0652	0.2152	-0.869	-0.8394	10.0768	-1.9052	0.3955	2.196	2.545	-0.5569	-1.2105	0.7819	0.496
-0.764	-0.2303	9.8542	0.3403	0.5976	0.0257	0.4503	-0.1381	-0.2522	2.9448	1.3455	9.0723	-0.3356	0.1893	0.1572	0.1856	-0.829	-0.859	9.7266	-1.9062	-0.0199	1.5815	2.578	-0.7286	-1.1929	0.7642	0.4981
-0.536	-0.0585	9.7409	0.3423	0.8113	-0.0342	0.4503	-0.1141	-0.2462	2.6601	1.3466	9.2447	-0.2418	0.2794	0.2516	0.2159	-0.8897	-0.8029	9.8497	-1.7899	0.4497	1.2483	2.6092	-0.5978	-1.2104	0.7643	0.4978
-0.3618	-0.1737	9.8031	0.5216	0.5589	-0.101	0.4503	-0.1141	-0.2522	2.7167	1.2891	9.1863	-0.3342	0.2509	0.0965	0.2298	-0.8878	-0.8564	9.7867	-1.6762	0.1572	0.7598	2.4567	-0.7157	-1.158	0.764	0.4987
-0.3101	-0.002	9.5091	0.5216	0.5589	-0.101	0.4563	-0.1201	-0.2462	2.603	2.0909	9.3638	-0.5196	0.2531	0.3125	0.2008	-0.8678	-0.8574	9.3938	-2.0187	0.4397	0.644	2.1792	-0.6288	-1.1583	0.7659	0.4804
-0.3634	-0.5189	9.6841	0.2795	0.7528	-0.033	0.4323	-0.1201	-0.2462	2.5408	1.5182	9.0644	-0.4544	0.4064	0.0991	0.1866	-0.8681	-0.8396	9.9014	-2.0779	0.158	0.0051	2.2113	-0.5226	-1.1749	0.7778	0.5332
-0.7623	-0.5176	9.9126	0.0934	0.6994	-0.0288	0.4383	-0.1021	-0.2642	3.355	2.0321	9.498	-0.4249	0.3444	0.1289	0.2294	-0.8687	-0.8571	9.7273	-1.6191	0.0395	0.1298	2.1183	-0.4661	-1.175	0.7446	0.5186
-0.6486	0.3445	9.917	0.1817	0.6951	-0.1835	0.4383	-0.1261	-0.2522	2.7246	1.4616	9.6026	-0.3633	0.3734	0.284	0.2013	-0.8878	-0.8387	9.6269	-1.5591	0.7377	-0.0843	2.2112	-0.4284	-1.1401	0.7951	0.5319
-0.4157	-0.3456	9.9789	-0.0002	0.7947	-0.1174	0.4503	-0.1201	-0.2522	2.8907	1.346	9.2494	-0.5476	0.3469	0.0361	0.2141	-0.8291	-0.8767	9.6745	-1.3887	0.2726	0.0907	2.0582	-0.8986	-1.1586	0.7679	0.4621
-0.3567	-0.5181	10.0387	0.3703	0.5962	-0.0056	0.4383	-0.1201	-0.2462	2.4858	1.9193	9.2422	-0.8278	0.2278	0.2806	0.2299	-0.8886	-0.8385	9.8532	-1.8467	0.6245	0.5138	1.9962	-1.1246	-1.158	0.764	0.4987
0.0496	-0.8635	10.1639	0.6791	0.6443	-0.0433	0.4263	-0.1261	-0.2522	2.7664	1.6316	8.8317	-0.9204	0.169	0.0323	0.2002	-0.8479	-0.876	9.4503	-1.7319	0.4419	0.4586	1.6571	-1.1024	-1.1929	0.8149	0.5109
-0.363	-0.1163	9.7442	1.0399	0.5668	-0.3576	0.4443	-0.1321	-0.2522	2.9462	1.7464	9.192	-0.6453	0.1022	0.2169	0.2159	-0.8897	-0.8029	9.8401	-1.5048	-0.0161	0.3916	1.8735	-1.2182	-1.1409	0.7327	0.4661
-0.6473	-0.4029	9.9152	1.7498	0.354	-0.2541	0.4383	-0.1201	-0.2462	2.8942	1.8616	9.4881	-0.5834	0.1315	0.2793	0.2738	-0.9283	-0.8366	9.6187	-1.4458	0.3296	0.2057	2.0282	-1.2409	-1.1752	0.7797	0.5149
-0.4752	0.0568	9.9196	2.4614	0.294	-0.1802	0.4383	-0.1201	-0.2642	2.8316	1.4605	9.189	-0.2761	0.0957	0.2483	0.2287	-0.831	-0.8408	9.4579	-1.4437	0.8514	0.5723	2.0272	-1.2174	-1.1762	0.7855	0.4599
-0.3609	-0.0586	9.8625	3.4022	0.0692	-0.662	0.4563	-0.1201	-0.2522	2.6071	1.8624	9.5416	-0.5236	0.0384	0.2777	0.2296	-0.8863	-0.8921	9.8494	-1.6178	0.4503	0.146	2.1204	-1.1137	-1.1405	0.7639	0.499
-0.4175	-0.0008	9.9206	4.3278	0.0305	-0.6847	0.4383	-0.1201	-0.2462	3.011	1.7469	9.5497	-0.5212	0.1313	0.0941	0.187	-0.8873	-0.8389	9.7894	-1.2166	0.3339	0.0539	1.9362	-1.2713	-1.1579	0.7972	0.5133
-0.4163	-0.6333	9.9191	4.9996	0.0318	-0.9756	0.4443	-0.1321	-0.2522	2.7077	1.5744	8.7709	-0.3961	0.2516	0.1891	0.2144	-0.8306	-0.8409	9.6721	-2.0204	0.0953	-0.0397	1.8445	-1.4262	-1.2268	0.7411	0.5544
-0.483	-0.0017	9.5058	6.7237	-0.2545	-1.0192	0.4383	-0.1261	-0.2522	3.1767	1.2879	9.1364	-0.4278	0.221	0.2812	0.2154	-0.8867	-0.8743	9.844	-1.8483	0.1577	-0.0995	1.906	-1.3307	-1.1576	0.7445	0.5189
-0.59	-0.2305	9.9167	6.9813	-0.5124	-1.6065	0.4563	-0.1081	-0.2462	3.0059	1.8609	9.3122	-0.6446	0.1931	0.4965	0.2157	-0.9051	-0.8914	10.0744	-1.7909	0.2792	0.294	1.7824	-1.5579	-1.1757	0.766	0.4801
-0.3633	0.0561	9.7446	8.2138	-0.5642	-1.6978	0.4443	-0.1261	-0.2642	2.7762	1.5181	9.3068	-0.5213	0.1612	0.2799	0.2151	-0.8682	-0.8573	9.3865	-1.7905	0.0904	0.4444	2.0592	-1.4605	-1.1932	0.7661	0.4798
-0.2447	0.0564	9.9241	8.7353	-0.617	-1.8023	0.4443	-0.1261	-0.2462	2.8367	1.2893	9.4264	-0.5213	0.1312	0.125	0.2299	-0.8886	-0.8385	9.6172	-1.9625	0.2111	0.3265	1.9666	-1.3375	-1.1227	0.7619	0.5176
-0.4247	0.2858	9.5667	8.2977	-0.7826	-1.8841	0.4383	-0.1381	-0.2582	2.8272	1.8035	9.0115	-0.4905	0.1907	0.4349	0.2298	-0.8878	-0.8564	9.2776	-2.1336	0.3203	-0.2739	2.1511	-0.7654	-1.2099	0.7273	0.5199
-0.5971	-0.0013	9.5626	7.6784	-0.7875	-1.9301	0.4443	-0.1201	-0.2462	2.5462	1.7477	9.3619	-0.5221	0.1302	0.3412	0.2006	-0.8501	-0.8224	9.6648	-1.0462	-0.193	-0.3941	2.3972	-0.5094	-1.1751	0.7622	0.5167
-0.3644	0.056	9.6855	6.7798	-0.7809	-2.0302	0.4503	-0.1321	-0.2582	2.7743	1.289	9.1875	-0.2795	-0.1183	0.0592	0.2433	-0.8499	-0.8578	9.6169	-1.7331	0.2119	-1.0276	2.613	-0.0282	-1.1757	0.766	0.4801
-0.531	0.2871	10.0373	5.5418	-0.7602	-2.122	0.4503	-0.1261	-0.2462	2.6617	1.175	9.3037	-0.4628	-0.0235	0.1532	0.2294	-0.8687	-0.8571	9.3897	-1.6178	0.2661	-1.0552	2.7356	0.1917	-1.1752	0.7797	0.5149
-0.6031	0.2279	9.2677	5.7314	-0.798	-1.9438	0.4383	-0.1141	-0.2642	2.7141	1.8613	9.128	-0.6462	0.041	0.154	0.2576	-0.8503	-0.8577	9.8443	-2.0204	0.1571	-1.4541	3.1723	-0.9901	-1.1402	0.762	0.5173
-0.5946	-0.1736	9.6804	4.5169	-0.7183	-2.3409	0.4383	-0.1381	-0.2582	2.5514	1.5765	9.5993	-0.429	0.0995	-0.0299	0.229	-0.8495	-0.8579	9.7332	-1.7328	0.3309	-1.4828	3.3258	-0.8002	-1.1742	0.7057	0.559
-0.5382	0.5163	9.6832	4.7166	-0.5109	-1.948	0.4563	-0.1201	-0.2582	2.9475	1.6893	9.2513	-0.6135	0.1629	0.2489	0.157	-0.8282	-0.8592	9.9086	-1.5602	0.5684	-1.4589	3.2653	-1.1414	-1.2106	0.7487	0.4814
-0.5998	0.2283	9.445	3.9069	-0.7222	-2.0515	0.4323	-0.1261	-0.2522	2.7099	2.1471	8.9504	-0.6738	0.2554	0.4049	0.2284	-0.8126	-0.8237	9.4378	-1.7342	-0.2	-1.529	3.3284	-1.5081	-1.1754	0.8148	0.5112
-0.5962	0.1138	9.622	4.1595	-0.6404	-1.9047	0.4443	-0.1261	-0.2522	2.6585	1.5182	9.1856	-0.5532	0.0703	0.1238	0.2437	-0.8691	-0.857	9.9606	-2.0202	0.2761	-1.2887	3.3898	-1.6345	-1.1409	0.7327	0.4661
-0.7692	0.1716	9.6188	3.5486	-0.6444	-1.6458	0.4263	-0.1441	-0.2642	2.5965	1.3461	8.9464	-0.5533	0.0702	0.1547	0.2292	-0.851	-0.8222	9.452	-1.33	0.5601	-1.3305	3.5147	-2.0616	-1.2098	0.7604	0.5345
-0.2491	-0.0017	9.6876	3.3053	-0.5726	-1.548	0.4383	-0.1201	-0.2702	3.1259	1.4032	9.4919	-0.677	0.0716	0.309	0.2449	-0.9097	-0.8019	9.3343	-1.9043	0.3223	-1.4562	3.4848	-2.2449	-1.1932	0.8169	0.4925
-0.1953	0.2853	9.5121	3.4901	-0.5499	-1.5828	0.4323	-0.1321	-0.2642	2.5379	1.7469	8.946	-0.8017	-0.0483	0.1213	0.215	-0.8675	-0.8751	9.849	-1.3884	0.4511	-1.7348	3.4861	-2.4243	-1.1403	0.7795	0.5155
-0.5383	-0.0588	9.6227	3.4576	-0.5488	-1.643	0.4383	-0.1321	-0.2522	2.7792	1.7474	9.4855	-0.8654	-0.1397	0.2122	0.2011	-0.8862	-0.8745	9.8416	-1.734	0.0414	-1.9182	3.4251	-2.484	-1.1747	0.7427	0.5369
-0.3677	0.6307	9.5686	2.454	-0.3826	-1.1601	0.4443	-0.1021	-0.2582	2.372	1.29	9.2386	-0.2798	-0.1486	-0.034	0.2596	-0.9286	-0.8189	9.6173	-1.2739	0.2719	-2.2801	3.4254	-2.2918	-1.1412	0.7853	0.4605
-0.248	-0.0015	9.7467	2.3601	-0.1653	-1.3396	0.4503	-0.1141	-0.2522	2.3691	1.5187	9.1202	-0.4941	-0.0536	0.1526	0.2428	-0.83	-0.8764	9.6722	-1.3892	0.1559	-2.0869	3.0543	-2.0905	-1.1403	0.7288	0.5027
-0.1333	0.3432	9.7498	1.4624	-0.2502	-1.3488	0.4383	-0.1201	-0.2522	2.5416	1.69	9.1241	-0.5223	0.0699	0.093	0.215	-0.8513	-0.8044	9.7304	-1.389	0.2154	-2.0277	3.2697	-2.0239	-1.1751	0.7622	0.5167
-0.6011	0.3432	9.3861	1.3112	-0.2129	-1.2534	0.4503	-0.1261	-0.2462	2.7754	1.3463	9.247	0.0899	-0.0944	0.1838	0.2006	-0.8501	-0.8224	9.6191	-1.7326	0.3286	-1.9942	3.1154	-1.9981	-1.1925	0.7447	0.5183
-0.4212	0.1712	9.7437	0.6631	-0.0942	-1.2979	0.4443	-0.1261	-0.2642	2.709	1.5173	8.8302	-0.0032	-0.1238	0.2449	0.2289	-0.8326	-0.8051	9.9111	-2.4204	0.6236	-1.4174	3.0221	-2.1973	-1.1926	0.7623	0.5165
-0.5432	0.1706	9.3869	0.363	0.0721	-1.0761	0.4383	-0.1261	-0.2462	2.7776	1.4038	9.366	-0.0341	-0.1535	0.1207	0.1866	-0.8681	-0.8396	9.2245	-1.7312	0.554	-0.898	3.0514	-2.1452	-1.1921	0.7252	0.5385
-0.5977	0.3436	9.5635	-0.0953	0.0615	-0.882	0.4323	-0.1261	-0.2582	2.6065	1.6333	9.4817	-0.095	-0.0915	0.2453	0.2146	-0.8321	-0.8052	9.6169	-1.7331	0.2119	-0.2361	3.0205	-2.5908	-1.1234	0.7833	0.4791
-0.7681	0.1717	9.6779	0.4956	0.1595	-0.8043	0.4503	-0.1141	-0.2582	2.9439	1.231	9.0127	0.4567	-0.2236	0.213	0.2294	-0.8687	-0.8571	9.5514	-1.4476	-0.1967	0.1765	3.2062	-3.1178	-1.1402	0.762	0.5173
-0.2447	0.0564	9.9241	-0.1459	0.3703	-0.6655	0.4443	-0.1381	-0.2582	2.0771	1.5763	8.9361	0.3978	-0.0995	0.1533	0.2013	-0.8878	-0.8387	9.903	-1.6186	0.2764	0.5617	3.1455	-3.6821	-1.1756	0.7485	0.482
-0.0729	0.0559	9.8684	-0.5626	0.4511	-0.1363	0.4443	-0.1321	-0.2522	2.5936	1.5748	8.828	-0.1249	-0.0601	0.184	0.1861	-0.849	-0.8404	9.6146	-1.7335	0.0952	1.0426	3.0223	-4.096	-1.1404	0.7464	0.5009
-0.4232	0.056	9.6252	-0.8137	0.5525	-0.3431	0.4323	-0.1381	-0.2642	2.7673	1.7462	8.8913	-0.0339	-0.0931	0.3689	0.2281	-0.8111	-0.8594	9.5039	-1.7327	0.268	0.9147	2.8697	-4.4677	-1.1934	0.7505	0.4634
-0.3599	0.0566	9.9219	-1.2361	0.9377	-0.2086	0.4563	-0.1201	-0.2462	2.6644	1.5187	9.4827	0.1503	-0.0968	0.4927	0.2293	-0.8679	-0.875	9.67	-1.4469	0.039	0.874	2.9637	-4.8649	-1.1408	0.7658	0.4807
-0.6586	0.2858	9.3849	-2.3385	1.2292	-0.0276	0.4443	-0.1261	-0.2522	2.825	1.7461	8.8925	0.2126	-0.127	0.1216	0.1858	-0.8305	-0.8233	9.7263	-1.6767	-0.019	0.7427	3.0885	-5.1978	-1.1936	0.7349	0.4469
-0.3079	0.0558	9.6275	-2.5269	0.9925	0.0062	0.4263	-0.1321	-0.2582	2.6521	1.6893	8.8888	0.1821	-0.0961	0.2148	0.2007	-0.8509	-0.8046	9.6087	-1.6198	-0.1962	1.0067	3.0587	-5.6972	-1.141	0.7502	0.4642
-0.3111	0.5729	9.5105	-2.7122	1.3358	-0.2009	0.4263	-0.1321	-0.2702	2.3622	1.4036	8.7635	0.4278	-0.1609	0.0288	0.2298	-0.8878	-0.8564	9.4438	-1.9627	0.0909	1.1927	2.9962	-5.6102	-1.1581	0.7308	0.4841
-0.4789	0.2288	9.7427	-3.324	0.9351	0.2693	0.4443	-0.1141	-0.2462	2.5434	1.9192	9.2434	0.3365	-0.0382	0.4014	0.2435	-0.8514	-0.8221	9.6742	-1.9052	0.2124	1.2835	2.9038	-5.7071	-1.1585	0.7503	0.4639
-0.6478	0.5172	9.9765	-3.2795	1.1489	0.6355	0.4443	-0.1261	-0.2462	2.5456	1.5187	9.302	0.3677	-0.0682	0.123	0.2855	-0.8136	-0.8411	9.6223	-1.5599	0.5043	1.7451	2.8098	-5.5957	-1.1408	0.7658	0.4807
-0.5368	0.4014	9.742	-3.1088	0.682	0.3846	0.4383	-0.1321	-0.2582	2.8857	1.46	9.012	0.5203	-0.1023	0.3079	0.2005	-0.8494	-0.8403	9.62	-1.5603	0.3876	1.8718	2.8088	-5.3825	-1.1579	0.7972	0.5133
-0.7016	0.2302	10.152	-1.8619	0.9367	0.6303	0.4263	-0.1201	-0.2462	2.6021	1.9764	9.3042	0.2411	-0.2502	0.1195	0.173	-0.9053	-0.8561	9.5572	-1.5039	0.0949	2.1775	2.7156	-5.4221	-1.1938	0.8207	0.4559
-0.5956	0.4014	9.6818	-3.493	1.4022	0.5811	0.4383	-0.1081	-0.2582	2.7688	1.6319	8.9505	0.4267	-0.1923	0.1826	0.2419	-0.7916	-0.878	9.8436	-1.5615	0.1587	2.7299	2.4369	-5.472	-1.1931	0.7486	0.4817
-0.138	0.4576	9.5136	-3.0517	0.8009	0.1398	0.4323	-0.1261	-0.2462	2.4891	1.5189	9.3603	0.242	-0.1891	0.1824	0.2428	-0.83	-0.8764	9.3909	-1.6749	0.3242	2.8845	2.5285	-5.3183	-1.1755	0.7309	0.4838
-0.5381	-0.1738	9.6224	-3.3543	0.7229	0.4213	0.4563	-0.1261	-0.2462	2.482	1.5182	9.0038	0.7332	-0.229	0.3678	0.2299	-0.8886	-0.8385	9.8387	-1.3903	-0.0741	3.5031	2.5872	-4.8974	-1.1753	0.7466	0.5003
-0.8295	0.4014	9.5	-3.3535	0.5705	0.5424	0.4383	-0.1201	-0.2522	2.8263	1.689	8.9518	0.8855	-0.2934	0.4596	0.2435	-0.8514	-0.8221	9.4963	-1.2176	-0.0803	3.8117	2.7089	-4.6535	-1.1922	0.7428	0.5366
-0.2959	-0.4028	10.2174	-3.2978	0.4147	0.4182	0.4383	-0.1141	-0.2402	2.5967	1.7469	9.0066	0.7027	-0.2581	0.1202	0.2008	-0.8517	-0.7867	9.5591	-1.2741	0.2124	4.1804	2.8921	-4.409	-1.1573	0.6919	0.5245
0.0383	-0.1748	9.6337	-4.4536	0.9537	0.7544	0.4323	-0.1321	-0.2522	3.0098	1.2316	9.4298	0.6689	-0.3811	0.3032	0.2289	-0.8487	-0.8758	9.2185	-1.5601	0.2629	4.5147	3.0145	-4.3814	-1.1754	0.7134	0.4857
-0.1844	-0.1734	10.0429	-4.6423	0.7476	0.7578	0.4443	-0.1381	-0.2582	2.4268	1.4614	9.1213	0.578	-0.2578	0.5523	0.2437	-0.8691	-0.857	9.5599	-1.0444	0.2716	4.4963	2.982	-3.8579	-1.1582	0.7991	0.495
-0.4761	-0.0584	9.8603	-3.9985	0.4759	0.7406	0.4443	-0.1201	-0.2582	2.4267	1.5186	9.1214	0.7033	-0.1673	0.4306	0.2011	-0.8862	-0.8745	9.9003	-1.3322	0.1607	5.0213	3.0412	-3.5277	-1.1936	0.7349	0.4469
-0.7093	0.1718	9.7381	-4.1195	0.5729	0.7746	0.4503	-0.1261	-0.2582	2.8293	1.9182	9.1305	0.6377	-0.4112	0.2717	0.2154	-0.8867	-0.8743	9.28	-1.502	0.4976	5.1829	3.1624	-3.0342	-1.141	0.7502	0.4642
-0.6546	-0.0587	9.5614	-3.8375	0.4702	0.9807	0.4443	-0.1441	-0.2342	2.7804	2.2054	9.6053	0.9382	-0.785	0.3274	0.2008	-0.8678	-0.8574	9.211	-1.1598	-0.0858	5.6854	3.0052	-2.4939	-1.1583	0.7152	0.4677
-0.425	-0.1743	9.5065	-3.7713	0.4376	1.162	0.4443	-0.1081	-0.2522	2.9521	1.747	9.4891	0.9404	-0.6323	0.5154	0.2157	-0.8889	-0.8208	9.6237	-1.7318	0.562	5.9033	3.0348	-2.2816	-1.1925	0.694	0.5056
-0.3079	0.0558	9.6275	-4.0833	0.2976	1.1382	0.4383	-0.1381	-0.2402	2.7707	1.8038	9.0697	1.3688	-0.7926	0.3897	0.2429	-0.8307	-0.8586	9.3356	-1.2729	0.4413	6.0389	3.2169	-1.5393	-1.1575	0.727	0.5208
-0.5331	0.1719	9.9188	-3.7123	0.3737	1.0991	0.4443	-0.1201	-0.2402	2.7779	1.2893	9.3658	1.3941	-1.0395	0.6016	0.2431	-0.8322	-0.8228	9.4506	-1.1581	0.5023	6.0509	3.2765	-0.9522	-1.2104	0.7643	0.4978
-0.2431	-0.1735	9.9827	-2.9797	-0.0242	1.018	0.4323	-0.1321	-0.2462	2.4319	1.8053	9.4191	2.4096	-1.0568	0.603	0.2157	-0.8889	-0.8208	9.6112	-1.0455	-0.019	6.1201	3.4597	-0.4551	-1.2284	0.7	0.45
-0.5968	-0.1738	9.5622	-3.1713	-0.2002	0.8996	0.4383	-0.1261	-0.2522	2.6003	1.7472	9.1849	2.6835	-1.2152	0.6625	0.2144	-0.8306	-0.8409	9.4976	-1.3322	-0.0224	6.2382	3.583	-0.5464	-1.1404	0.7971	0.5136
-0.2981	0.2295	10.1598	-3.5037	0.0283	1.0311	0.4383	-0.1261	-0.2522	2.8377	1.4039	9.486	3.0799	-1.3763	0.8456	0.1717	-0.8478	-0.8584	9.4364	-1.5624	-0.2578	6.7901	3.7965	-0.274	-1.2105	0.7311	0.4832
-0.0784	-0.0023	9.5727	-2.6328	-0.1338	0.2158	0.4503	-0.1321	-0.2402	2.9472	1.8037	9.2515	3.4997	-1.9367	0.9907	0.2014	-0.8885	-0.8209	9.4968	-1.5618	-0.0815	6.6137	4.042	0.199	-1.1583	0.7659	0.4804
-0.0639	0.057	10.3412	-3.8813	0.104	0.7356	0.4383	-0.1261	-0.2582	2.8883	1.861	9.191	3.8613	-2.3121	1.17	0.2296	-0.8702	-0.8214	9.7812	-1.046	-0.074	6.7745	4.3479	0.7901	-1.1581	0.7816	0.4968
-0.3613	0.1714	9.8631	-3.819	0.2845	0.6436	0.4443	-0.1321	-0.2582	3.0059	1.8609	9.3122	3.9496	-2.5284	1.1354	0.202	-0.9254	-0.8551	9.2796	-1.2152	0.4987	6.7452	4.5938	1.0135	-1.2108	0.7331	0.4649
-0.6481	0.0571	9.9163	-3.6071	0.1835	0.5464	0.4443	-0.1321	-0.2522	2.8317	1.9185	9.2494	4.3079	-3.0877	1.2805	0.2443	-0.889	-0.8384	9.4474	-1.3308	0.3266	6.774	4.7478	1.0482	-1.1406	0.7307	0.4844
-0.5948	-0.0586	9.6807	-2.3199	0.3114	0.0887	0.4383	-0.1321	-0.2642	2.9539	1.9761	9.6084	4.5131	-3.5535	1.674	0.2285	-0.8134	-0.8059	9.7286	-0.9877	0.1585	6.3407	4.9036	0.8763	-1.1753	0.7466	0.5003
-0.3648	0.2285	9.6859	-3.4941	0.4518	-0.0039	0.4383	-0.1201	-0.2642	3.0118	1.4036	9.549	4.6599	-3.8945	1.8535	0.2287	-0.831	-0.8408	10.1264	-1.505	0.0479	6.1247	4.9353	0.7891	-1.1577	0.7114	0.5043
-0.3632	-0.0013	9.7444	-3.4296	0.663	-0.0348	0.4443	-0.1261	-0.2642	2.608	1.9769	9.6013	5.8719	-4.8678	2.0544	0.2448	-0.909	-0.8198	9.7354	-1.675	0.4478	5.5534	5.3399	0.0723	-1.1754	0.7134	0.4857
-0.4128	-0.1153	10.1568	-4.1649	0.7556	0.1361	0.4323	-0.1201	-0.2522	3.0065	1.632	9.3118	5.7966	-5.6331	1.8245	0.2438	-0.8698	-0.8392	9.9656	-1.5029	0.5697	5.1918	5.4063	-1.0592	-1.2106	0.7487	0.4814
-1.0603	-0.0583	9.4353	-4.1052	0.7833	0.0433	0.4563	-0.1381	-0.2522	2.6679	2.5494	9.7819	4.435	-8.8429	3.9577	0.2155	-0.8874	-0.8565	9.853	-1.732	0.625	4.7525	5.5016	-1.5409	-1.1576	0.6938	0.5062
-0.5316	-0.0005	9.9775	-4.0877	0.6327	0.7742	0.4623	-0.1381	-0.2642	2.8909	2.2619	9.3701	2.8565	-10.6938	5.0956	0.2153	-0.8698	-0.8215	9.9561	-1.3325	0.1035	3.971	5.5987	-2.3239	-1.1925	0.694	0.5056
-0.4785	-0.0011	9.7422	-4.0284	0.7824	0.5906	0.4323	-0.1201	-0.2582	3.0565	1.8601	8.9569	1.4891	-11.1965	6.0417	0.2429	-0.8307	-0.8586	10.1891	-1.5041	0.3409	3.4996	5.7557	-2.834	-1.1759	0.7329	0.4655
-0.4792	-0.2313	9.6825	-4.3057	0.5195	0.7788	0.4503	-0.1201	-0.2582	2.7627	1.6885	8.6535	1.2164	-10.8867	6.4791	0.1726	-0.8861	-0.8568	10.1975	-0.9861	0.8096	3.2072	5.8207	-3.597	-1.158	0.764	0.4987
-0.8221	0.0573	9.8538	-4.2405	0.8224	0.718	0.4263	-0.1201	-0.2582	2.9047	-0.2612	6.8705	-1.2369	-10.2946	7.0105	0.2011	-0.8701	-0.8038	9.9666	-1.4453	0.6283	2.9687	6.0404	-4.5724	-1.1759	0.7329	0.4655
-0.8276	-0.0009	9.5581	-4.3275	0.6133	1.0545	0.4383	-0.1381	-0.2582	3.0124	1.1746	9.5485	-10.4648	-10.1915	5.2976	0.2429	-0.8307	-0.8586	9.793	-1.2734	0.5088	2.1532	6.0458	-5.5732	-1.1229	0.6955	0.4884
-0.7705	0.2864	9.56	-3.9894	0.5684	1.0155	0.4563	-0.1081	-0.2582	3.8246	1.5167	9.863	-5.88	-9.424	1.4277	0.1724	-0.8685	-0.8219	9.6201	-1.6177	0.3874	1.5355	6.0178	-5.9315	-1.1762	0.7348	0.4472
-0.418	0.2866	9.9213	-4.0461	0.3275	1.351	0.4323	-0.1201	-0.2582	2.7489	2.7233	10.9718	0.5605	-8.1968	-2.4307	0.1732	-0.9069	-0.8203	9.972	-1.2148	0.9209	1.4265	6.0515	-6.699	-1.1764	0.7192	0.4307
-0.4171	-0.2308	9.9201	-4.2013	0.4254	1.2639	0.4203	-0.1141	-0.2522	3.1962	1.576	10.1471	7.3059	-12.8852	-2.7188	0.2443	-0.889	-0.8384	9.7337	-1.3311	0.3907	0.5964	5.993	-7.0232	-1.141	0.7502	0.4642
-0.1289	0.4013	9.9863	-4.337	0.3987	0.8399	0.4563	-0.1201	-0.2702	2.9508	1.8041	9.4298	4.0997	-14.5546	-1.6423	0.2137	-0.7938	-0.8067	10.541	-1.8471	0.8133	0.1856	6.0885	-7.598	-1.1584	0.7328	0.4658
-0.7644	-0.0003	9.8548	-4.1115	0.2077	1.2909	0.4503	-0.1021	-0.2522	3.074	1.9763	9.8484	4.8117	-15.7685	-0.6127	0.2	-0.8302	-0.841	9.856	-1.4445	0.8011	0.3424	6.1536	-8.7398	-1.193	0.731	0.4835
-0.3617	-0.2312	9.803	-3.9902	0.3243	1.1361	0.4563	-0.1201	-0.2522	3.1218	1.6317	9.3142	4.3452	-17.5134	0.0349	0.1865	-0.8512	-0.7868	10.0838	-1.2728	0.8063	-0.0461	6.3425	-9.6206	-1.1755	0.7309	0.4838
-0.5373	0.0563	9.6821	-4.5317	0.6236	1.4866	0.4323	-0.1081	-0.2702	3.4121	1.7457	9.4392	0.8987	-19.0217	0.2799	0.2135	-0.7922	-0.8425	10.1374	-1.2735	0.6323	-0.2602	6.5631	-10.874	-1.1747	0.692	0.5242
-1.0547	-0.0576	9.7308	-3.9177	0.4144	1.4704	0.4323	-0.1201	-0.2522	2.6115	1.5193	9.7192	3.3533	-19.3422	0.8344	0.1875	-0.9073	-0.8202	9.7393	-1.2153	0.6829	-0.7099	6.4447	-11.9781	-1.1403	0.7288	0.5027
-0.4784	-0.0586	9.742	-2.7168	0.2722	1.4099	0.4563	-0.1201	-0.2522	2.9509	1.7468	9.4297	4.6285	-20.2846	0.758	0.2006	-0.8501	-0.8224	9.9169	-1.7308	0.9762	-1.4317	6.6648	-12.7281	-1.1584	0.682	0.4531
-0.1967	0.4001	9.4533	-2.7443	0.2739	1.5326	0.4323	-0.1321	-0.2582	3.0042	0.6014	9.072	3.9756	-20.6716	0.5029	0.1717	-0.8478	-0.8584	9.6839	-1.5592	0.7389	-1.7953	6.6393	-14.0163	-1.1582	0.6977	0.4695
-0.3052	-0.2314	9.745	-3.235	0.1729	1.727	0.4383	-0.1201	-0.2402	3.462	1.5159	9.0239	1.9444	-20.9072	-0.9255	0.2006	-0.8501	-0.8224	9.6902	-1.2137	1.0902	-2.1438	7.0112	-14.3378	-1.1751	0.7115	0.504
-0.1847	-0.001	10.0433	-3.2609	0.1747	1.9107	0.4503	-0.1141	-0.2582	3.5158	0.6567	8.7263	-2.8879	-21.186	-2.6376	0.1866	-0.8681	-0.8396	9.3419	-1.6734	0.7316	-3.3188	7.1703	-14.9264	-1.1579	0.7465	0.5006
-0.536	-0.0585	9.7409	-3.683	0.1328	2.3173	0.4323	-0.1321	-0.2642	4.2078	0.5978	8.7404	-5.6569	-19.901	-4.9049	0.1867	-0.8689	-0.8218	9.5674	-1.4447	0.6203	-2.9177	7.0456	-14.8146	-1.1585	0.6996	0.4512
-0.7585	-0.1721	10.1499	-3.622	0.2827	2.1946	0.4323	-0.1141	-0.2462	4.657	0.6528	8.1558	-8.6568	-18.0536	-8.5216	0.1579	-0.8673	-0.8399	8.9494	-1.6141	1.0739	-2.3639	7.1357	-14.5457	-1.1401	0.6937	0.5065
-0.4227	-0.2315	9.6245	-3.9247	0.2963	2.4156	0.4323	-0.1141	-0.2462	4.5507	-0.1475	8.5084	-11.7728	-15.9858	-12.9684	0.157	-0.8282	-0.8592	9.1783	-1.3275	1.1379	-2.7153	6.8315	-15.4722	-1.1755	0.7309	0.4838
-0.4207	-0.0587	9.7432	-4.1058	0.2434	2.6028	0.4563	-0.1141	-0.2642	4.6514	0.4805	7.8584	-16.5285	-14.47	-18.1999	0.1435	-0.8661	-0.8578	9.1756	-1.0984	1.022	-2.3095	6.5215	-15.2733	-1.1056	0.713	0.4869
-0.5361	-0.001	9.7411	-4.0803	0.2721	2.3888	0.4203	-0.1261	-0.2522	4.5392	0.1949	7.9743	-21.0383	-12.9585	-23.4001	0.1713	-0.8286	-0.8591	9.4066	-1.4425	1.1421	-2.411	6.2418	-14.5394	-1.1935	0.6666	0.436
-0.4132	-0.5178	10.0967	-4.1016	0.3964	2.6646	0.4443	-0.1141	-0.2762	4.524	0.0789	7.2016	-27.97	-10.8235	-28.3772	0.1721	-0.867	-0.8576	9.5762	-1.2136	1.088	-1.7275	5.7722	-12.9326	-1.1755	0.7309	0.4838
-0.4248	-0.2893	9.5062	-4.352	0.1928	2.6695	0.4383	-0.1141	-0.2522	4.5335	0.595	7.7374	-33.3547	-8.0448	-32.0739	0.1725	-0.8692	-0.804	9.0107	-1.3839	1.3093	-1.3902	5.5204	-11.6518	-1.1411	0.717	0.4496
-0.7605	-0.2874	10.0314	-4.7561	0.3313	2.4971	0.4263	-0.1201	-0.2642	4.823	1.0524	7.8631	-33.2089	-8.657	-33.0728	0.1432	-0.8477	-0.8407	8.959	-1.1533	1.6008	-1.0945	5.1473	-10.9594	-1.1588	0.7015	0.4329
-0.5299	-0.3453	10.0358	-5.3948	0.3595	2.8483	0.4383	-0.1141	-0.2402	4.1069	1.2807	6.6609	-37.6582	-9.8971	-26.9569	0.1565	-0.809	-0.86	9.0702	-1.4983	1.4268	-0.7775	4.6172	-9.4087	-1.1583	0.7152	0.4677
-0.2403	0.1144	10.1607	-5.2743	0.476	2.663	0.4503	-0.1141	-0.2582	4.1111	0.5369	6.7783	-45.532	-7.4724	-17.0136	0.1574	-0.8474	-0.8585	9.3522	-1.6715	1.2568	-0.5028	4.0582	-8.4128	-1.1928	0.6959	0.4873
-0.1871	0.0563	9.9253	-6.0758	0.6012	2.6527	0.4323	-0.1201	-0.2582	3.9534	1.1112	7.6077	-46.6612	-4.9204	-6.2532	0.1709	-0.8263	-0.9127	9.5862	-1.0396	1.6138	0.4978	3.4984	-7.709	-1.1929	0.6628	0.4727
-0.5947	-0.1161	9.6806	-6.1359	0.848	2.5641	0.4563	-0.1081	-0.2462	4.4789	1.2824	7.9753	-43.587	-0.6141	1.1796	0.1852	-0.8098	-0.8598	9.2407	-1.0971	1.4317	1.1861	3.028	-5.8866	-1.1237	0.717	0.4499
-0.7628	-0.2877	9.9132	-5.8687	0.7132	2.2518	0.4323	-0.1261	-0.2462	4.6087	1.169	8.6905	-31.9933	8.6946	3.9601	0.184	-0.753	-0.8442	9.3517	-1.3847	1.2578	1.8992	2.2509	-4.5359	-1.176	0.6997	0.4509
-0.3601	-0.461	9.8615	-5.9904	0.9626	2.1646	0.4203	-0.1141	-0.2462	5.1132	1.2236	7.9882	-23.6832	13.342	4.1501	0.1419	-0.7901	-0.843	9.1256	-1.2118	1.3706	2.7372	1.816	-4.1951	-1.1224	0.7092	0.5232
-0.5882	-0.5753	9.975	-5.7858	0.8303	1.8233	0.4383	-0.1201	-0.2582	6.2107	0.8205	8.0694	-22.9082	6.7672	2.0884	0.1561	-0.7898	-0.8608	8.8451	-1.2679	1.5981	3.3345	1.4427	-3.6629	-1.1575	0.6763	0.508
-0.179	-0.6903	10.2781	-5.6595	1.1915	1.7003	0.4383	-0.1261	-0.2702	6.1649	-0.1513	8.5416	-23.7968	-11.5299	-1.9766	0.1991	-0.7911	-0.8604	9.3014	-1.2686	1.6072	3.7947	0.6676	-2.7078	-1.1932	0.6647	0.4544
-0.1909	-0.2893	9.688	-5.5906	1.4643	1.7917	0.4383	-0.1141	-0.2402	3.3425	3.0098	11.8756	-22.2574	-6.0917	-16.0838	0.1558	-0.7714	-0.8437	9.0044	-1.0408	1.0188	4.178	-0.0434	-2.4275	-1.1583	0.6645	0.4549
-0.417	-0.2883	9.9199	-5.1629	1.2932	1.7193	0.4623	-0.1141	-0.2642	3.5834	1.4589	9.3233	30.769	22.9703	-30.0811	0.1846	-0.7899	-0.8784	8.8984	-1.7851	1.3639	5.2837	-0.9747	-1.3665	-1.1415	0.7365	0.4294
-0.7132	-0.1738	9.5009	-4.6719	1.3638	1.5553	0.4563	-0.1081	-0.2462	2.8385	-0.6626	6.3932	0.8532	12.0567	-36.875	0.1996	-0.811	-0.8418	9.417	-1.498	1.667	5.7986	-1.6875	-0.6573	-1.1402	0.6605	0.4919
-0.3058	-0.519	9.6852	-4.2698	1.4996	1.4853	0.4383	-0.1081	-0.2642	0.7396	-0.0244	8.1331	-21.9946	13.3766	-46.3104	0.1556	-0.7698	-0.8794	9.0078	-0.9828	1.1941	6.3084	-2.6503	1.0312	-1.1757	0.6978	0.4692
-0.1848	-0.576	9.9828	-3.3456	1.6742	1.2807	0.4323	-0.1141	-0.2402	1.7453	-0.3105	9.4006	-21.9055	20.9724	-56.6437	0.1846	-0.7899	-0.8784	8.9544	-1.1542	1.3674	7.0424	-3.3337	2.0142	-1.1589	0.7191	0.431
-0.3641	-0.1165	9.6851	-2.8821	1.7464	1.2394	0.4443	-0.0961	-0.2522	0.4055	-1.4535	8.539	-33.5735	17.9526	-65.0558	0.1704	-0.7902	-0.8607	9.2972	-1.4989	1.373	7.9968	-4.2033	3.1725	-1.1937	0.6335	0.4214
-0.1356	-0.2321	9.5711	-3.7129	1.8121	1.321	0.4383	-0.1321	-0.2402	-0.5427	0.0975	10.3046	-40.103	22.9182	-72.9767	0.1986	-0.788	-0.9319	9.2961	-1.5565	1.3144	8.0976	-4.7326	4.6041	-1.1751	0.6607	0.4913
-0.3113	0.0554	9.4502	-3.927	2.0349	1.2665	0.4503	-0.1201	-0.2462	1.2114	0.7254	11.6487	-27.6703	21.3801	-78.6645	0.1992	-0.7918	-0.8426	9.1723	-1.1564	0.8467	8.2483	-5.291	5.5099	-1.2107	0.7155	0.4668
-0.3007	-0.2309	9.9814	-4.6425	2.308	0.9193	0.4203	-0.1021	-0.2522	1.639	2.3238	10.176	-19.6822	15.8347	-77.329	0.2135	-0.7922	-0.8425	9.1808	-1.4991	1.254	9.1488	-5.4187	6.1355	-1.1398	0.6918	0.5248
-0.8865	-0.576	9.4374	-5.5028	2.3141	1.0928	0.4383	-0.1141	-0.2462	1.6217	3.1235	9.4051	-21.0615	17.2756	-71.3767	0.1831	-0.7308	-0.9164	9.3456	-1.0989	0.9671	8.2066	-6.0367	7.2464	-1.1581	0.6801	0.4714
-0.3549	-0.8629	10.097	-5.7309	2.1998	0.7317	0.4443	-0.1141	-0.2462	-2.7465	4.7439	13.0604	78.8184	37.2542	-65.0101	0.2114	-0.7125	-0.917	9.2847	-1.5586	0.7309	8.8151	-5.9811	8.5921	-1.1929	0.7135	0.4854
-0.5934	-0.1734	9.7395	-5.2418	2.4531	0.3856	0.4443	-0.1081	-0.2702	-2.2103	6.9653	8.4432	46.0964	30.381	-43.4489	0.2421	-0.7931	-0.8422	9.2797	-1.2726	0.4985	8.7509	-6.0774	9.7619	-1.1227	0.7112	0.5049
-0.2453	-0.8638	9.8037	-5.6813	2.4704	0.1219	0.4383	-0.1081	-0.2462	-2.2689	6.8509	8.3824	23.0241	18.7042	-21.1836	0.2286	-0.8303	-0.8587	9.7322	-1.1018	0.3332	6.5664	-6.1046	10.2979	-1.1585	0.6996	0.4512
-0.1356	-0.8647	9.5104	-5.4158	2.427	-0.3119	0.4263	-0.1081	-0.2642	1.3718	3.2367	8.4499	-24.5955	7.7996	-2.8377	0.228	-0.8103	-0.8773	10.0717	-1.5619	0.1633	5.2832	-5.855	10.3924	-1.2109	0.6999	0.4503
-0.8167	-0.4596	10.089	-4.4409	2.4453	-0.8236	0.4383	-0.1021	-0.2522	2.8464	1.233	9.9016	-35.2194	2.6393	4.0318	0.2421	-0.7931	-0.8422	9.7813	-1.1034	-0.0742	3.0388	-5.1393	10.1186	-1.1582	0.6977	0.4695
-0.3596	-0.7485	9.8608	-2.5101	2.0879	-1.1777	0.4263	-0.1141	-0.2582	3.9025	0.4881	10.7534	-28.0648	-1.5987	4.4937	0.2416	-0.7732	-0.8609	10.1762	-1.2769	-0.3002	1.2621	-4.2986	9.0068	-1.1582	0.6977	0.4695
-0.5856	-0.1724	10.1533	0.1682	1.8223	-1.3664	0.4443	-0.1021	-0.2342	3.4975	0.6034	10.6859	-10.6347	-5.2001	1.8963	0.242	-0.7923	-0.8601	10.056	-1.0483	-0.5934	-1.9181	-3.3314	7.9884	-1.1928	0.7467	0.5
-0.0729	-0.5767	9.8078	1.7395	1.5732	-1.3755	0.4443	-0.1021	-0.2582	3.3015	1.2885	9.6141	-0.6619	-7.4155	-0.782	0.2419	-0.7916	-0.878	9.948	-1.2192	-0.3046	-5.199	-2.4287	7.8948	-1.1927	0.6784	0.4891
-0.5873	-0.4602	10.0344	2.8197	1.4975	-1.3717	0.4443	-0.1081	-0.2522	2.8252	1.6316	8.8923	-1.089	-8.7608	-0.4053	0.2421	-0.7931	-0.8422	9.9518	-1.5054	-0.1306	-8.884	-1.3393	7.5989	-1.1761	0.7172	0.449
-0.3601	-0.461	9.8615	3.2461	1.4483	-1.5654	0.4443	-0.0901	-0.2582	2.5366	1.2888	8.8262	-4.6577	-8.3684	1.0162	0.2414	-0.7716	-0.8966	9.618	-1.7328	0.2702	-11.4124	-0.2216	7.1881	-1.175	0.6432	0.4932
-0.4171	-0.2308	9.9201	3.9898	1.3566	-1.4315	0.4383	-0.0961	-0.2402	3.2379	1.2881	9.3158	-3.5963	-5.9914	0.9678	0.2272	-0.772	-0.8788	9.3961	-1.3297	0.6173	-12.6366	0.4633	6.1225	-1.1932	0.7154	0.4671
-0.8241	-0.1155	9.7352	4.1511	1.4729	-1.2517	0.4383	-0.1081	-0.2642	3.4717	0.9444	9.4387	2.9709	-2.5346	-0.6886	0.2411	-0.7532	-0.8795	9.635	-1.615	1.146	-13.4716	1.1438	6.097	-1.1757	0.6978	0.4692
-0.357	-0.3456	10.0391	4.3408	1.5877	-1.1641	0.4503	-0.1201	-0.2642	3.1184	1.059	9.0753	10.8621	0.8112	-3.1787	0.1994	-0.8095	-0.8775	9.2897	-1.0986	1.0243	-13.1782	1.5139	5.8242	-1.1758	0.7153	0.4674
-0.3006	-0.2884	9.9813	4.332	1.3122	-1.318	0.4323	-0.1081	-0.2642	3.0042	1.1166	9.1325	14.4525	3.1224	-5.0769	0.199	-0.7903	-0.8783	9.2923	-1.3276	1.1402	-12.7749	1.4196	6.0601	-1.1584	0.7328	0.4658
-0.2515	0.113	9.5696	3.7496	1.3677	-1.1815	0.4323	-0.1201	-0.2402	2.7098	1.1739	8.8295	14.0464	4.3889	-5.2712	0.2417	-0.7739	-0.843	9.1732	-1.0415	0.9055	-12.5461	1.263	6.6367	-1.1754	0.7134	0.4857
-0.5332	-0.3457	9.8584	3.2286	1.5425	-1.1374	0.4323	-0.1141	-0.2462	2.6452	1.6313	8.5322	11.1038	5.1427	-4.6761	0.2268	-0.7528	-0.8796	9.1226	-1.4419	1.1947	-12.2919	0.764	8.1277	-1.1753	0.6958	0.4876
-0.5911	-0.2306	9.8576	2.3932	1.6382	-1.2385	0.4323	-0.1201	-0.2582	3.0683	1.4033	9.4908	8.1265	5.6823	-4.1466	0.2552	-0.736	-0.8444	9.402	-1.4434	0.9086	-11.6727	0.3873	9.6458	-1.1748	0.7095	0.5223
-0.4116	-0.1726	10.2157	1.4627	1.7374	-1.4288	0.4443	-0.1141	-0.2402	2.6586	1.4609	9.1855	6.8389	5.95	-4.175	0.2125	-0.7531	-0.8619	9.0038	-1.3852	0.9592	-10.1955	0.1002	11.3958	-1.1758	0.7153	0.4674
-0.4736	-0.8631	9.9174	1.1578	1.8117	-1.3295	0.4323	-0.1261	-0.2702	3.2891	1.0011	8.9599	5.797	6.213	-4.0794	0.2411	-0.7532	-0.8795	9.6196	-1.2735	0.3886	-8.7492	-0.2483	13.083	-1.1749	0.7271	0.5205
-0.3086	-0.1743	9.5678	1.1307	2.088	-1.3577	0.4263	-0.0961	-0.2582	2.888	1.9754	9.1913	4.1601	5.9037	-4.2113	0.2136	-0.8092	-0.8953	9.7431	-1.5015	0.8569	-8.3013	-0.3756	13.9334	-1.1403	0.7288	0.5027
-0.2465	-0.1739	9.8054	1.8117	2.0903	-1.3133	0.4383	-0.1141	-0.2462	2.6623	1.404	9.3636	2.3794	3.2851	-2.2536	0.2416	-0.7732	-0.8609	9.8531	-1.7893	0.6247	-7.9644	-0.5612	13.8598	-1.1579	0.7465	0.5006
-0.418	-0.3459	9.8607	2.3681	2.1282	-1.3266	0.4323	-0.1261	-0.2642	2.8858	1.4028	9.0118	-0.1298	2.648	-1.2502	0.228	-0.8103	-0.8773	9.6294	-0.9848	0.9149	-8.0536	-0.7151	13.8572	-1.1933	0.733	0.4652
-0.5391	-0.2314	9.5632	3.116	2.1895	-1.1309	0.4323	-0.1021	-0.2342	2.7235	1.4042	9.5431	-1.7126	2.0291	-0.986	0.213	-0.7723	-0.8611	9.7896	-1.3314	0.3335	-8.1547	-0.9902	13.2349	-1.2101	0.7116	0.5034
-0.1288	-0.2888	9.9255	3.7984	2.2225	-1.0558	0.4443	-0.1261	-0.2522	2.602	1.5184	9.2438	-1.7149	1.9364	-0.8332	0.2425	-0.8115	-0.8593	9.6161	-1.2741	0.2136	-7.823	-0.9597	13.075	-1.1579	0.7465	0.5006
-0.1847	-0.001	10.0433	4.3228	2.292	-1.1291	0.4503	-0.1201	-0.2462	3.0019	1.5743	9.074	-2.2143	1.6364	-0.4997	0.2419	-0.7916	-0.878	9.7314	-1.2741	0.2742	-8.8985	-0.9251	12.7584	-1.1576	0.6938	0.5062
-0.3626	0.2863	9.8042	4.1956	2.1748	-1.1877	0.4323	-0.1201	-0.2462	2.7144	1.7468	9.1278	-2.9809	1.8629	-0.1573	0.242	-0.7923	-0.8601	9.7395	-1.3874	0.6823	-10.1085	-0.7344	11.9867	-1.175	0.7446	0.5186
-0.4133	0.1722	10.1575	4.2004	2.3583	-1.1258	0.4443	-0.1201	-0.2462	2.4289	1.5761	9.2404	-3.7535	1.6621	-0.3784	0.2129	-0.7715	-0.879	9.9613	-1.6758	0.3357	-11.1333	-0.7907	11.1425	-1.1767	0.7718	0.4251
-0.4194	0.459	9.8626	3.9816	2.3975	-1.2423	0.4383	-0.1081	-0.2462	2.4867	1.5187	9.2414	-4.6505	1.492	-0.105	0.2718	-0.8331	-0.8226	9.7853	-1.5043	0.0994	-11.9372	-0.6947	10.7298	-1.1939	0.7368	0.4286
-0.1803	-0.5755	10.2193	4.0214	2.5803	-1.0286	0.4323	-0.1261	-0.2462	3.0565	1.3449	8.8964	-4.3423	1.4572	-0.3831	0.2126	-0.77	-0.9147	9.8469	-1.5035	0.334	-13.0712	-0.6911	10.506	-1.1754	0.7134	0.4857
-0.761	0.0001	10.0321	3.529	2.4791	-0.8952	0.4563	-0.1081	-0.2462	2.7134	1.6895	9.0683	-4.4702	1.2136	-0.3567	0.2692	-0.7341	-0.8979	9.7931	-1.3881	0.5083	-13.0065	-1.2147	10.3048	-1.1937	0.7524	0.445
-0.5944	-0.2885	9.6801	3.7728	2.4379	-0.9929	0.4443	-0.1081	-0.2462	2.8907	1.346	9.2494	-3.18	1.0689	-0.3571	0.2277	-0.7919	-0.8602	9.6788	-1.2158	0.5067	-13.1112	-1.1509	9.7539	-1.1403	0.7795	0.5155
-0.3581	-0.3457	9.98	3.4991	2.633	-0.9546	0.4443	-0.1021	-0.2402	2.6055	1.0608	9.3617	-4.3259	0.7498	-0.1486	0.2273	-0.7727	-0.861	10.1927	-1.6182	0.5155	-13.894	-1.1152	8.8767	-1.1405	0.7639	0.499
-0.4732	-0.4605	9.9775	3.4622	2.5726	-1.1371	0.4383	-0.1321	-0.2702	2.5964	1.4034	8.9465	-4.8512	0.6961	0.1275	0.2289	-0.8487	-0.8758	9.5054	-1.9045	0.3257	-13.4932	-0.8661	7.8586	-1.1578	0.7796	0.5152
-0.3055	-0.0589	9.7454	3.5762	2.5054	-1.4453	0.4323	-0.1141	-0.2522	2.7688	1.6319	8.9505	-5.4649	0.8288	0.2524	0.2279	-0.8096	-0.8952	9.799	-1.5018	0.7997	-14.0213	-0.4942	7.6948	-1.1231	0.7306	0.4847
-0.4171	-0.2308	9.9201	3.8821	2.7362	-1.6955	0.4443	-0.1021	-0.2522	2.6024	1.3467	9.2435	-6.0772	1.0531	0.5024	0.2134	-0.7915	-0.8603	9.5592	-1.3314	0.2122	-13.6823	-0.4956	7.8421	-1.1581	0.7816	0.4968
-0.6468	-0.0578	9.9751	4.7946	2.9096	-2.3268	0.4563	-0.1201	-0.2522	2.7131	1.2887	9.008	-6.1735	0.87	0.6225	0.2284	-0.8295	-0.8765	9.6767	-1.331	0.3896	-13.0127	-0.497	7.7671	-1.1752	0.7797	0.5149
-0.191	-0.2318	9.6881	4.7284	3.3388	-2.7498	0.4383	-0.1261	-0.2522	2.6026	1.2895	9.2433	-6.2642	0.9635	0.6549	0.2556	-0.7713	-0.9143	9.3926	-1.273	0.4424	-12.7834	-0.4646	7.1161	-1.1404	0.7464	0.5009
-0.7738	0.2285	9.3825	4.9331	3.4505	-3.2422	0.4503	-0.1141	-0.2462	2.7225	1.3469	9.4835	-6.6633	1.0015	0.5313	0.2258	-0.7136	-0.899	9.9704	-1.6741	0.8025	-12.0916	-0.5878	6.5748	-1.1938	0.77	0.4432
-0.5362	-0.5761	9.6806	4.6708	3.3372	-3.7246	0.4443	-0.1141	-0.2462	2.7113	1.5748	8.9492	-5.7967	1.2325	0.5061	0.2272	-0.772	-0.8788	9.2797	-2.0185	0.4374	-11.3143	-0.3105	6.0431	-1.2103	0.7467	0.4997
-0.3	-0.0008	10.0411	5.2438	3.3722	-4.2569	0.4383	-0.1141	-0.2582	2.8361	1.0602	9.3665	-4.9393	0.9727	0.4103	0.2277	-0.7919	-0.8602	9.3884	-1.5032	0.2082	-11.7741	-0.1198	4.7015	-1.1576	0.7445	0.5189
-0.8252	-0.1156	9.6761	5.2633	3.8883	-4.9865	0.4443	-0.1141	-0.2582	2.895	1.0602	9.4271	-4.2606	1.0832	0.5987	0.2553	-0.7529	-0.8972	9.687	-2.075	0.8537	-11.843	0.3168	3.2666	-1.1577	0.7621	0.517
-0.9362	0.0001	9.9105	4.9558	4.6029	-5.3715	0.4383	-0.1201	-0.2462	2.3734	1.1757	9.2978	-3.5478	1.257	0.2016	0.2565	-0.7935	-0.8421	9.5579	-1.2169	0.1543	-10.6464	0.5635	2.3558	-1.1756	0.7992	0.4947
-0.3057	0.056	9.7457	5.3364	4.7059	-6.2038	0.4443	-0.1261	-0.2522	2.7776	0.9458	9.3056	-3.1556	0.8808	0.4426	0.2554	-0.7536	-0.8794	9.6724	-1.5039	0.1555	-10.9894	0.6932	0.7327	-1.1408	0.7658	0.4807
-0.5337	-0.1157	9.859	3.8948	5.129	-7.2035	0.4383	-0.1261	-0.2522	2.7773	1.0603	9.3059	-2.6674	0.6575	0.4704	0.2709	-0.8109	-0.8948	10.4133	-1.9068	0.1106	-10.9859	0.5435	-0.5971	-1.1753	0.7973	0.513
-0.1915	0.0557	9.6888	4.2131	6.4289	-7.6613	0.4383	-0.1261	-0.2582	3.0011	1.4025	9.0142	-2.0503	0.7089	0.3488	0.2268	-0.7528	-0.8796	9.9052	-1.5608	0.3933	-10.5848	0.6388	-1.7121	-1.1581	0.7816	0.4968
-0.024	0.5148	9.4569	0.9501	6.7145	-8.5259	0.4443	-0.1321	-0.2462	2.8927	1.0028	9.3081	-1.8069	0.5514	0.3155	0.27	-0.7725	-0.8964	10.2926	-1.334	-0.1814	-10.6872	0.5484	-2.2675	-1.1065	0.8202	0.4573
-0.5814	-0.632	10.3295	0.2109	7.2245	-11.0064	0.4383	-0.1201	-0.2642	2.9638	1.3474	10.0231	-1.687	0.3355	0.0648	0.2263	-0.7336	-0.8804	9.4403	-1.16	-0.0229	-11.2139	0.1819	-2.884	-1.1225	0.7775	0.5341
-0.5938	-0.576	9.6794	-3.8468	7.9411	-11.8187	0.4443	-0.1141	-0.2462	2.949	1.5749	9.3105	-1.2544	0.4502	0.222	0.2412	-0.754	-0.8616	10.3527	-1.85	-0.0654	-10.1226	0.088	-3.2784	-1.1403	0.7288	0.5027
-0.6515	0.0567	9.739	-10.2941	11.9728	-11.6692	0.4443	-0.1261	-0.2582	3.1264	1.6894	9.5519	-1.0697	0.4171	0.0674	0.2552	-0.736	-0.8444	9.8514	-1.4453	0.5676	-9.3241	-0.1562	-4.596	-1.1929	0.7642	0.4981
-1.0565	-0.9204	9.5514	-16.0348	15.7959	-10.4095	0.4383	-0.1261	-0.2522	2.7844	1.061	9.6624	-1.2854	0.3904	-0.0262	0.1986	-0.7719	-0.8612	10.1891	-1.5041	0.3409	-8.3865	-0.2188	-5.0173	-1.158	0.8147	0.5114
-0.2265	1.6185	14.0641	-9.8734	20.0228	-5.7763	0.4443	-0.1021	-0.2402	2.7753	1.4035	9.2471	-1.3206	0.1457	-0.0924	0.2122	-0.7347	-0.8448	9.9043	-1.7331	0.3343	-7.8957	-0.5895	-5.161	-1.1922	0.7935	0.5494
-0.7815	-1.0951	8.8474	6.7795	23.1161	-6.56	0.4503	-0.1201	-0.2522	3.0033	1.9752	9.1936	-1.7235	-0.0008	-0.1266	0.2266	-0.752	-0.8975	10.0768	-1.1593	0.4565	-6.6527	-0.776	-5.6535	-1.1586	0.8186	0.4748
-0.4084	-0.0572	10.3933	-3.6223	24.8767	-3.887	0.4503	-0.1201	-0.2462	2.8964	1.4611	9.5467	-2.0006	0.0338	0.0589	0.2408	-0.7517	-0.9152	10.3003	-1.1031	0.2279	-6.0585	-1.1749	-6.6632	-1.1764	0.7699	0.4435
-0.6896	-0.1708	10.7421	2.2182	26.1587	-4.6318	0.4503	-0.1081	-0.2342	2.596	1.5751	8.9468	-1.9348	0.2177	-0.123	0.2416	-0.7732	-0.8609	10.2493	-1.3314	0.5177	-4.8471	-1.6994	-7.4423	-1.1925	0.7954	0.531
-0.6466	0.4598	10.0355	-0.1944	27.8192	-4.6245	0.4623	-0.1141	-0.2462	3.0636	1.3456	9.253	-2.6731	0.2907	0.0932	0.2555	-0.7544	-0.8615	10.2005	-1.4446	0.9246	-3.4538	-2.1935	-8.2549	-1.1585	0.801	0.4767
-0.5285	0.1149	10.1551	-1.5089	29.1878	-4.9508	0.4683	-0.1261	-0.2342	2.8338	1.518	9.308	-2.6111	0.2902	-0.0302	0.2132	-0.79	-0.896	9.9064	-1.6179	0.4514	-2.1614	-2.4706	-9.3367	-1.1927	0.7798	0.5146
-0.7021	-0.1149	10.092	-0.5766	30.1869	-5.3643	0.4503	-0.1081	-0.2342	3.0662	1.2886	9.3717	-2.6123	0.1688	-0.3413	0.2122	-0.7508	-0.9154	9.9569	-1.1028	0.1627	-0.3339	-2.5362	-9.5293	-1.1054	0.7286	0.5033
-1.0492	0.0006	10.0265	-1.0302	31.1881	-4.4933	0.4503	-0.1141	-0.2522	2.7151	1.4607	9.1272	-2.7946	0.3547	-0.0294	0.2124	-0.7524	-0.8797	9.9593	-1.9057	0.2181	1.3147	-2.6943	-9.5976	-1.1408	0.7658	0.4807
-1.1713	0.0575	9.6697	-0.2622	32.1362	-4.11	0.4503	-0.1201	-0.2462	2.949	1.0597	9.25	-3.3246	-0.0346	-0.2226	0.2696	-0.7533	-0.8971	9.5024	-1.5034	0.2104	2.1693	-2.3274	-9.3268	-1.1579	0.7465	0.5006
-1.0443	-0.2288	10.2623	-1.5684	32.2198	-4.4743	0.4563	-0.1081	-0.2462	2.8296	1.2886	9.0698	-3.509	0.089	0.3352	0.2125	-0.7531	-0.8619	10.0192	-1.5036	0.3958	1.9055	-2.2668	-8.7957	-1.1229	0.7463	0.5012
-1.0593	-0.0007	9.4945	-0.7386	32.0367	-3.3973	0.4563	-0.1141	-0.2582	3.0133	1.2892	9.6082	-3.0152	0.0822	-0.0347	0.2415	-0.7724	-0.8787	10.07	-1.2179	0.1062	2.5977	-2.2363	-9.2094	-1.1406	0.7815	0.4971
-1.2883	-0.2301	9.5486	-1.4759	31.1788	-3.8419	0.4443	-0.1141	-0.2402	2.7196	1.0604	9.3047	-2.8005	0.0777	0.1509	0.2129	-0.7715	-0.879	9.8389	-1.505	-0.0745	3.471	-2.2675	-9.7518	-1.1926	0.7116	0.5037
-1.2291	0.1725	9.6689	-3.1484	30.2366	-4.5388	0.4623	-0.1081	-0.2462	2.6094	1.4046	9.6001	-3.1972	0.2385	0.0296	0.2137	-0.8099	-0.8774	9.7279	-1.2747	0.0991	3.989	-2.238	-9.7613	-1.1575	0.7777	0.5335
-1.4105	-0.1157	9.192	-3.635	28.6062	-4.3838	0.4743	-0.1201	-0.2402	2.9589	1.4042	9.7855	-2.8308	0.1088	0.1823	0.2255	-0.6952	-0.8819	9.6126	-1.2174	0.0387	4.4445	-1.962	-9.6701	-1.1936	0.7856	0.4596
-1.0085	0.0559	9.1412	-7.1462	26.3655	-4.8604	0.4803	-0.1021	-0.2462	3.0676	1.1743	9.4309	-2.7012	0.3243	-0.4622	0.2553	-0.7529	-0.8972	9.787	-1.1023	0.2176	4.982	-1.4694	-9.8517	-1.1744	0.7408	0.5553
-1.1267	0.4583	9.0217	-8.1405	23.5903	-5.6148	0.4563	-0.1141	-0.2462	2.9528	1.4608	9.4885	-2.3349	0.2245	-0.1236	0.2429	-0.8307	-0.8586	9.727	-0.7011	0.1012	4.832	-1.4079	-9.6928	-1.1574	0.7601	0.5354
0.3143	0.3407	9.0495	0.0024	16.8549	-6.4922	0.4803	-0.1021	-0.2402	2.7765	0.8885	9.2461	-2.3671	0.1634	-0.063	0.2688	-0.7149	-0.8987	9.5577	-1.1022	0.1547	4.3083	-1.1905	-9.7686	-1.1921	0.7252	0.5385
0.5281	-0.3518	8.1066	0.858	10.5363	-9.7219	0.4863	-0.1201	-0.2402	2.6605	1.1749	9.2443	-1.9599	0.4649	-0.3966	0.2406	-0.734	-0.8803	9.6678	-1.5047	-0.0779	4.6032	-0.6976	-9.8838	-1.193	0.731	0.4835
1.1662	-0.1799	8.3558	-2.5279	3.4872	-10.5647	0.4563	-0.1021	-0.2582	2.6579	1.7471	9.186	-1.838	0.4014	-0.3975	0.2402	-0.7148	-0.881	9.8358	-0.9891	-0.1893	4.6699	-0.2065	-9.2854	-1.1583	0.7659	0.4804
1.3369	-0.1805	8.241	-3.37	-5.2269	-11.1435	0.4683	-0.1261	-0.2462	2.7205	1.175	9.3643	-1.3125	0.5453	-0.2396	0.2276	-0.7912	-0.8781	9.4963	-1.2176	-0.0803	4.1045	-0.0534	-8.5299	-1.1752	0.7797	0.5149
1.6875	-0.3531	8.4837	-3.8038	-12.9809	-12.0622	0.4623	-0.1201	-0.2342	2.9406	1.1162	8.8342	-1.0324	0.6943	-0.2983	0.2112	-0.6948	-0.882	9.6128	-1.3321	0.0383	4.4595	0.4087	-8.7087	-1.1231	0.7306	0.4847
1.2787	-0.5255	8.1799	-3.5759	-19.9065	-13.0227	0.4623	-0.1141	-0.2342	2.4865	1.118	9.1812	-0.8507	0.5077	-0.4557	0.2555	-0.7544	-0.8615	9.7793	-1.3332	-0.1917	4.0293	0.8101	-8.5654	-1.1402	0.7113	0.5046
1.2247	-0.64	8.3558	-3.8626	-26.6261	-13.7255	0.4683	-0.1141	-0.2342	2.7201	1.3467	9.3647	-1.1271	0.573	-0.2697	0.2411	-0.7532	-0.8795	9.8267	-0.9908	-0.6562	3.6713	0.8713	-8.1557	-1.2099	0.7273	0.5199
1.4013	-0.8699	8.536	-6.6671	-32.6025	-15.4304	0.4623	-0.1141	-0.2402	3.189	1.1173	9.7302	-0.7229	0.8112	-0.1412	0.2265	-0.7513	-0.9153	9.6087	-1.6198	-0.1962	3.2276	0.9933	-7.4343	-1.1928	0.7467	0.5
0.9478	-0.6956	8.9411	-6.3878	-36.4461	-17.5335	0.4503	-0.0961	-0.2281	2.8252	1.6316	8.8923	-0.139	0.7102	-0.3891	0.2562	-0.792	-0.8778	9.5485	-1.0465	-0.312	3.1937	1.1784	-7.4592	-1.1404	0.6956	0.4881
0.6017	-1.155	8.8742	-7.5509	-38.8857	-20.1425	0.4623	-0.1201	-0.2522	2.7149	1.0599	9.067	0.6021	0.8507	-0.2926	0.2268	-0.7528	-0.8796	9.4376	-0.8736	-0.1386	3.3847	1.146	-7.1249	-1.1923	0.7096	0.522
-0.3779	-0.5782	8.9156	-9.1585	-40.5154	-23.6815	0.4443	-0.1261	-0.2402	3.2374	1.0018	9.2558	0.8215	1.0017	-0.5675	0.2271	-0.7712	-0.8967	9.4982	-0.9878	0.0372	3.6999	1.1437	-6.6688	-1.2446	0.6924	0.523
-1.2318	-0.8629	9.43	-7.7551	-41.6537	-25.8878	0.4563	-0.1141	-0.2402	3.1246	0.9451	9.3722	0.6687	1.0956	-0.3808	0.2843	-0.7729	-0.8962	9.6137	-1.1598	0.0973	4.7521	1.2618	-5.9158	-1.1576	0.7445	0.5189
-1.9174	-0.4009	9.7722	-9.4924	-40.6624	-25.6263	0.4503	-0.1141	-0.2402	2.7807	1.1178	9.4842	0.7599	1.0626	-0.2268	0.2549	-0.7337	-0.898	9.5589	-1.1593	0.2128	5.019	1.3192	-4.8406	-1.1584	0.7328	0.4658
-3.0064	-0.6282	10.0459	-10.3576	-38.0497	-23.8517	0.4623	-0.1081	-0.2402	2.6593	1.1748	9.1849	0.5443	1.0961	-0.0104	0.2271	-0.7551	-0.826	9.8408	-1.2178	0.0433	5.4871	1.3779	-4.3243	-1.1575	0.6763	0.508
-3.6366	-0.2241	10.2709	-8.5369	-35.6667	-20.893	0.4503	-0.1201	-0.2522	2.8984	1.1178	9.6055	0.5726	0.9727	0.0183	0.2267	-0.7359	-0.8268	9.8419	-1.2176	0.1016	6.1863	1.7149	-4.2053	-1.1928	0.7467	0.5
-3.6887	-0.1658	10.5654	-5.2413	-31.6332	-18.1132	0.4503	-0.1141	-0.2462	2.9494	1.4032	9.3101	0.6649	0.9711	0.0185	0.2404	-0.7325	-0.916	9.6164	-1.4462	0.2129	6.2939	1.7736	-3.4352	-1.1397	0.7249	0.5394
-3.8057	-0.4533	10.4443	-3.8505	-27.5798	-14.9514	0.4503	-0.1021	-0.2462	2.7192	1.2321	9.305	0.4518	1.1276	0.1753	0.227	-0.7704	-0.9146	9.445	-1.2165	0.2103	7.4117	1.5833	-2.6923	-1.1576	0.7445	0.5189
-5.2423	-0.2777	10.653	-2.8635	-23.5146	-12.9998	0.4383	-0.1261	-0.2462	2.6549	1.0599	8.947	0.1763	1.254	0.4242	0.2262	-0.7328	-0.8982	9.6145	-0.9302	0.1564	8.0571	1.7963	-2.3292	-1.1222	0.7756	0.5524
-5.7608	-0.3918	10.6427	0.3952	-18.4646	-8.8099	0.4443	-0.0961	-0.2342	2.654	1.4032	8.9477	0.2361	1.1609	0.4226	0.2551	-0.7352	-0.8623	9.6682	-1.0456	-0.0179	8.4299	1.6098	-2.157	-1.1753	0.7466	0.5003
-5.7562	-0.4487	10.8789	0.9863	-13.3965	-5.0125	0.4383	-0.1081	-0.2402	2.8313	1.575	9.1893	0.3598	1.1895	0.4234	0.2265	-0.7513	-0.9153	8.7616	-1.1579	0.2552	8.7574	1.5133	-1.2108	-1.1403	0.7288	0.5027
-3.404	-0.1092	10.3939	2.721	-8.5943	-2.1595	0.4443	-0.1261	-0.2402	2.884	1.1736	8.8925	0.0815	1.1327	0.4527	0.2272	-0.772	-0.8788	9.9094	-1.3305	0.6276	9.2888	1.6023	-0.5715	-1.1584	0.7835	0.4785
-0.7206	-0.4047	9.0866	2.2852	-15.8864	-2.3129	0.4443	-0.1081	-0.2462	2.8914	1.0599	9.2488	0.0192	1.1628	0.8238	0.2405	-0.7333	-0.8981	9.2196	-1.5026	0.3214	10.1289	1.4439	0.0545	-1.192	0.7077	0.5404
0.2648	-1.0958	9.3404	6.6602	-19.2996	0.4591	0.4443	-0.1021	-0.2402	3.0651	1.2313	9.3122	0.0225	1.2867	0.5789	0.213	-0.7723	-0.8611	9.6104	-1.2752	-0.0782	9.9342	1.4107	0.8897	-1.2091	0.7566	0.5711
0.1839	4.6665	14.7295	1.227	-25.1302	22.2185	0.4203	-0.1201	-0.2462	2.9543	0.8313	9.4872	0.149	1.5587	1.0782	0.2554	-0.7536	-0.8794	9.6646	-0.8741	-0.1923	10.4666	1.1612	1.3343	-1.2102	0.7292	0.5016
-1.0644	-1.554	9.0771	15.8779	-20.0276	13.6845	0.4263	-0.1081	-0.2582	2.6601	1.3466	9.2447	-0.1596	1.5029	0.984	0.1975	-0.7312	-0.9163	9.7339	-1.4458	0.3903	10.5348	1.406	1.8331	-1.1749	0.7271	0.5205
-0.1189	-1.4377	10.3365	43.1784	-12.2919	15.3226	0.4263	-0.1081	-0.2342	2.3137	1.0611	9.1775	-0.1928	1.4106	1.1676	0.2556	-0.7552	-0.8437	9.9052	-1.5608	0.3933	9.8172	1.4979	2.5591	-1.1931	0.7486	0.4817
0.1602	1.1484	10.1119	18.5765	-3.1322	7.0958	0.4323	-0.1141	-0.2281	3.1783	1.6315	9.2559	0.0249	1.5296	1.201	0.2115	-0.7132	-0.8991	9.8445	-1.3892	0.2177	9.2865	1.3165	1.8864	-1.1404	0.7464	0.5009
-0.0276	0.0543	9.2194	13.3793	-0.3846	5.1636	0.4383	-0.1201	-0.2462	2.7754	1.3463	9.247	0.1433	1.2519	1.0418	0.2123	-0.7516	-0.8976	10.4126	-0.702	0.1733	10.7063	0.8537	0.92	-1.1926	0.7623	0.5165
-0.2529	-0.3472	9.4503	4.858	1.4051	4.2829	0.4383	-0.1321	-0.2522	2.7765	0.8885	9.2461	0.545	1.307	0.9199	0.2415	-0.7724	-0.8787	10.3619	-1.1024	0.4625	10.9658	-0.1596	-0.4704	-1.1574	0.7094	0.5226
-0.3004	0.2292	10.0416	0.7885	2.8526	2.5903	0.4383	-0.1261	-0.2582	2.7699	1.174	8.9496	0.7499	0.7809	1.0653	0.2124	-0.7524	-0.8797	10.1901	-1.3891	0.3996	12.6333	-0.9619	-1.513	-1.2102	0.7292	0.5016
-0.4711	-0.3453	10.096	-1.6207	3.8378	2.0139	0.4323	-0.1261	-0.2462	2.6101	1.1185	9.5995	0.9996	0.9609	1.069	0.2408	-0.7517	-0.9152	9.9613	-0.9872	0.3965	14.8255	-1.828	-2.3214	-1.1936	0.7349	0.4469
-0.3021	-0.0585	9.9227	-2.0635	4.0072	1.5375	0.4263	-0.1261	-0.2642	2.6067	1.0609	9.4211	1.1185	0.7138	0.9412	0.2691	-0.7334	-0.9158	9.6794	-1.6174	0.5052	16.7828	-2.3873	-2.4998	-1.1748	0.7602	0.5351
-0.4767	-0.346	9.8005	-2.7897	3.303	1.3986	0.4203	-0.1201	-0.2522	2.826	1.8034	8.952	1.2443	0.8348	0.851	0.2552	-0.7521	-0.9151	9.5649	-1.3304	0.504	18.6476	-2.7001	-2.546	-1.1748	0.7095	0.5223
-0.5961	0.0563	9.6219	-4.3172	2.2969	1.5215	0.4323	-0.1141	-0.2462	2.256	1.5765	9.2368	0.8444	0.8419	0.7886	0.2278	-0.8088	-0.913	9.6201	-0.8718	0.4484	19.8406	-2.6728	-2.3841	-1.1579	0.7465	0.5006
-0.3079	-0.5768	9.5669	-4.5294	0.9594	1.3664	0.4263	-0.1321	-0.2342	2.4291	1.5188	9.2402	0.3209	0.7904	0.5706	0.2556	-0.7713	-0.9143	9.5033	-1.3311	0.2694	20.154	-2.4596	-1.8603	-1.1751	0.7115	0.504
-0.4698	-0.4601	10.1548	-4.4758	0.7729	1.181	0.4143	-0.1201	-0.2582	2.8342	0.8883	9.2473	-0.2645	0.8296	0.91	0.2418	-0.7908	-0.8958	9.3921	-0.9861	0.4434	20.5615	-1.9702	-1.0222	-1.1754	0.7641	0.4984
-0.4785	-0.6337	9.6816	-2.0388	-0.2444	1.665	0.4203	-0.1141	-0.2522	2.1993	1.176	9.2348	-0.3608	0.5864	0.7202	0.2408	-0.7517	-0.9152	9.615	-1.2743	0.1552	20.2123	-1.449	0.1094	-1.1757	0.766	0.4801
-0.4202	-0.3462	9.7425	0.4154	-1.0814	1.5395	0.4323	-0.1021	-0.2462	2.421	1.4036	8.8241	-0.7571	0.7776	0.6611	0.2276	-0.7912	-0.8781	10.1261	-1.3329	0.0486	19.0368	-1.1406	0.974	-1.158	0.764	0.4987
-0.6459	-0.5752	9.9738	1.3393	-1.2729	1.5464	0.4263	-0.1261	-0.2462	2.4361	1.0616	9.5364	-0.7281	0.7451	0.9695	0.2127	-0.7708	-0.8968	9.7269	-1.3323	0.0406	17.9376	-0.8609	1.1272	-1.1409	0.7327	0.4661
-0.1306	-0.5191	9.8068	2.5364	-1.5375	1.4243	0.4323	-0.1141	-0.2402	2.4264	0.6599	9.0008	-0.9456	0.6263	0.9052	0.2404	-0.7325	-0.916	9.7821	-0.9311	-0.0152	17.7762	-0.3978	1.0512	-1.1921	0.7252	0.5385
-0.4204	-0.2312	9.7428	1.9832	-1.4835	1.499	0.4143	-0.1081	-0.2281	2.665	1.2898	9.4822	-0.6374	0.5915	0.6271	0.2418	-0.7908	-0.8958	9.4972	-1.1027	-0.0215	16.6414	0.0366	1.0863	-1.2096	0.7253	0.5382
-0.2492	0.0558	9.6877	0.5209	-1.4546	1.1077	0.4203	-0.1081	-0.2522	2.2055	1.5773	9.5921	-0.4229	0.5868	0.8745	0.197	-0.712	-0.9171	9.6698	-1.3322	0.0394	15.952	0.3748	1.8803	-1.1579	0.7465	0.5006
-0.5341	-0.5183	9.7989	-0.171	-1.1179	1.584	0.4443	-0.1321	-0.2462	2.4888	1.6334	9.3605	-0.3954	0.4324	0.9645	0.256	-0.7743	-0.8429	10.0747	-1.2744	0.3394	16.1654	0.6511	2.0689	-1.1752	0.729	0.5022
-0.3594	-0.2309	9.9212	-0.8535	-0.8153	1.2973	0.4263	-0.1201	-0.2522	2.3192	1.2334	9.475	-0.0835	0.552	0.473	0.2122	-0.7508	-0.9154	9.6713	-1.5615	0.0969	15.3117	0.8685	2.2463	-1.1924	0.6764	0.5075
-0.5831	-0.2871	10.2712	-1.101	-0.744	1.2427	0.4203	-0.1141	-0.2402	2.7743	1.289	9.1875	0.4086	0.5733	0.7213	0.241	-0.7524	-0.8974	9.611	-0.9308	-0.0186	14.6727	0.7775	2.2565	-1.1573	0.6919	0.5245
-0.6511	0.4593	9.799	-1.6247	-0.4779	1.135	0.4323	-0.1261	-0.2582	2.4311	1.1756	9.299	0.5896	0.3558	0.5942	0.2413	-0.7709	-0.9144	9.6091	-1.1607	-0.1362	14.4852	0.8095	2.0762	-1.1757	0.766	0.4801
-0.016	-0.1743	9.8099	-1.9641	-0.0671	0.9016	0.4323	-0.1261	-0.2522	3.0038	1.2883	9.1328	0.6246	0.5103	0.2264	0.2544	-0.7145	-0.8988	9.5604	-1.3886	0.2704	14.116	1.0262	2.0898	-1.2106	0.7487	0.4814
-0.1818	-0.3456	10.1607	-1.9313	0.1453	0.841	0.4443	-0.1381	-0.2522	2.602	1.5184	9.2438	0.7207	0.7232	0.323	0.1979	-0.7504	-0.9156	9.9012	-1.2172	0.2195	13.5204	0.9332	2.6847	-1.1567	0.7056	0.5593
-0.0756	-0.347	9.6901	-0.8257	0.0372	0.6609	0.4383	-0.1081	-0.2642	2.5416	1.69	9.1241	0.8459	0.7536	-0.1086	0.2259	-0.7306	-0.9518	9.6128	-1.3321	0.0383	12.9461	1.3644	3.2325	-1.1403	0.7288	0.5027
-0.4827	-0.1742	9.5054	-0.4846	0.4198	0.4718	0.4323	-0.1081	-0.2642	2.6721	1.2905	9.8387	0.8428	0.66	0.2603	0.2401	-0.7141	-0.8989	9.2147	-1.3313	0.0886	12.2531	1.5801	3.7765	-1.2271	0.743	0.5361
-0.4124	-0.3452	10.1562	-0.1984	0.7141	0.5886	0.4263	-0.1201	-0.2462	2.7173	1.5181	9.2462	0.7835	0.7236	-0.0166	0.2557	-0.7721	-0.8965	9.4424	-1.0448	0.0942	11.6226	2.0107	4.5412	-1.1923	0.7096	0.522
-0.3648	-0.3466	9.6254	-0.2256	1.0819	0.4998	0.4263	-0.1321	-0.2462	3.1787	1.4598	9.2556	0.6903	0.6942	0.0445	0.255	-0.7344	-0.8801	9.6171	-1.1592	0.2723	10.8911	2.1662	4.6836	-1.1583	0.7659	0.4804
-0.6516	-0.5184	9.6785	-0.6822	1.0715	0.7549	0.4383	-0.1261	-0.2462	2.9428	1.1736	8.9531	0.8693	0.4143	0.1633	0.2401	-0.7141	-0.8989	9.6222	-1.5026	0.5045	11.29	2.2264	4.8314	-1.1925	0.7447	0.5183
