1546_acc_x	1546_acc_y	1546_acc_z	1546_gyro_x	1546_gyro_y	1546_gyro_z	1546_mag_x	1546_mag_y	1546_mag_z	1548_acc_x	1548_acc_y	1548_acc_z	1548_gyro_x	1548_gyro_y	1548_gyro_z	1548_mag_x	1548_mag_y	1548_mag_z	1549_acc_x	1549_acc_y	1549_acc_z	1549_gyro_x	1549_gyro_y	1549_gyro_z	1549_mag_x	1549_mag_y	1549_mag_z
-1.0936	0.0886	9.6549	0.1843	0.0225	-0.0898	-0.1691	0.1842	-1.6487	2.6602	-0.6536	9.2668	-0.0295	0.059	0.0661	1.4607	-1.0209	0.8116	9.9933	1.7393	-1.4116	-1.2186	-0.437	0.182	0.4743	-0.6544	0.1681
-1.2747	-0.0272	9.3061	-0.0292	0.087	-0.0877	0.2159	0.595	-0.8284	2.2552	-0.3644	9.3179	0.095	0.1169	0.1003	0.4461	-0.303	-1.7564	9.5866	1.5074	-1.1921	-1.4319	-0.3409	0.1272	-0.1321	-0.3903	-0.3122
-0.9241	0.2606	9.4288	0.1232	0.0233	-0.0902	0.2161	0.5707	-0.8056	2.6109	-0.0755	9.7886	-0.0893	0.246	0.0475	0.3901	-0.3966	-1.8207	9.8703	1.6223	-1.6989	-1.2506	-0.4308	-0.0019	-0.1501	-0.3722	-0.3002
-0.9801	-0.2003	9.484	-0.2726	0.1561	-0.1778	0.2535	0.5699	-0.7603	2.78	-0.4225	9.5012	-0.1492	0.3685	0.0867	0.4643	-0.3264	-1.6918	9.3959	1.3312	-1.9364	-1.1288	-0.4944	0.0245	-0.1501	-0.3903	-0.3002
-0.6282	-0.0276	9.6638	-0.0899	-0.0256	-0.3093	0.2173	0.5933	-0.7618	2.3159	-0.0755	9.4933	-0.0897	0.1507	0.1034	0.4104	-0.3272	-1.7569	9.3457	1.6816	-1.481	-0.8504	-0.3566	0.4599	-0.1381	-0.3662	-0.3242
-1.0382	-0.2579	9.4827	0	-0.2133	-0.288	0.2165	0.6182	-0.8067	2.4879	-0.2491	9.3802	0.0313	0.127	-0.085	0.41	-0.327	-1.7783	9.5202	1.3319	-1.5924	-0.7285	-0.3894	0.4879	-0.1441	-0.3722	-0.2942
-1.0358	-0.3152	9.5976	-0.0311	-0.1584	-0.1316	0.1989	0.6413	-0.7856	2.1978	-0.0178	9.3753	-0.0878	0.1739	0.2601	0.4097	-0.3738	-1.7351	9.9348	1.5065	-1.4133	-0.3941	-0.2335	0.3396	-0.1441	-0.3722	-0.3122
-1.0966	-0.1424	9.4818	0.0615	-0.1244	-0.2214	0.1979	0.5705	-0.8061	2.7222	-0.5379	9.5	-0.1196	0.179	0.1674	0.4127	-0.3053	-1.6504	9.4634	1.5651	-1.479	-0.2447	-0.1296	-0.056	-0.1441	-0.3903	-0.3002
-0.7975	-0.2574	9.8899	0.2447	-0.0414	-0.0621	0.1983	0.6181	-0.8072	2.7841	-0.3645	9.7334	-0.0572	0.4023	-0.0046	0.4461	-0.303	-1.7564	9.5209	1.7395	-1.5345	-0.1832	-0.0071	-0.0501	-0.1381	-0.3722	-0.3122
-0.9222	-0.0851	9.4854	0.0929	0.084	-0.0564	0.2347	0.6184	-0.8063	2.4899	-0.1912	9.4963	0.005	0.3337	0.1148	0.4455	-0.3496	-1.7346	9.285	1.4486	-1.5966	0.059	0.1218	-0.2914	-0.1321	-0.3843	-0.3002
-1.0337	-0.1997	9.7129	0.1559	0.1535	-0.2367	0.2347	0.6184	-0.8063	2.2033	-0.2484	9.6651	-0.1171	0.3297	0.2393	0.4275	-0.3499	-1.7563	9.174	1.566	-1.2567	0.2149	0.1375	0.1386	-0.1381	-0.3843	-0.3062
-1.2666	-0.0262	9.7087	0.2135	-0.1615	-0.1302	0.2332	0.5482	-0.8489	2.2001	-0.1908	9.4911	-0.2732	0.3736	0.0255	0.4631	-0.349	-1.7343	9.8682	1.5056	-1.8131	0.3988	-0.119	0.4005	-0.1501	-0.3662	-0.2882
-0.8051	-0.4889	9.4868	0.2444	-0.1017	-0.0961	0.1801	0.6179	-0.8077	2.4899	-0.1912	9.4963	-0.2723	0.3368	0.1473	0.4632	-0.3256	-1.7558	9.2839	1.3902	-1.6537	0.5191	-0.1142	0.2153	-0.1561	-0.3782	-0.3002
-1.2171	0.2609	9.308	0.1817	-0.1404	0.0859	0.2528	0.5948	-0.8052	2.5503	0.3286	9.6721	-0.3921	0.5496	0.2549	0.4636	-0.3259	-1.7345	9.8719	1.2149	-1.6429	0.5138	-0.156	-0.4018	-0.1501	-0.3843	-0.3182
-1.0401	-0.4311	9.3673	0.1494	-0.3839	0.0112	0.2535	0.5699	-0.7603	2.5447	-0.1338	9.3234	-0.4209	0.6378	0.3539	0.4273	-0.3733	-1.7348	9.5222	1.565	-1.4779	0.6942	-0.2737	-0.6246	-0.1441	-0.3602	-0.3062
-1.1507	-0.4302	9.6525	0.2421	-0.1749	0.1459	0.1976	0.5948	-0.8288	2.7806	-0.1338	9.5596	-0.2992	0.611	0.2274	0.4455	-0.3496	-1.7346	9.5786	1.6811	-1.5904	0.7534	-0.2991	-0.8109	-0.1441	-0.3843	-0.3182
-1.2083	-0.084	9.7097	0.0595	-0.1962	-0.0101	0.2173	0.6652	-0.7857	2.3757	-0.7106	9.5516	-0.3299	0.6761	0.1697	0.4293	-0.2806	-1.7357	9.4079	1.682	-1.309	0.692	-0.2966	-0.8718	-0.1321	-0.3903	-0.3002
-1.1531	-0.3728	9.5376	0.1223	0.0176	0.0325	0.2726	0.689	-0.7626	2.7205	-0.0184	9.4427	-0.2694	0.5183	0.2212	0.427	-0.3731	-1.7561	9.6983	1.7395	-1.4741	0.8169	-0.4345	-0.4495	-0.1381	-0.3782	-0.3122
-0.7405	-0.2576	9.8335	0.1228	-0.0664	-0.1564	0.2339	0.5714	-0.8273	2.5978	-0.4229	9.034	-0.1801	0.3045	0.1448	0.4464	-0.3032	-1.7351	9.356	1.45	-0.9688	0.6944	-0.4623	-0.5114	-0.1501	-0.3782	-0.3002
-1.2665	-0.0839	9.7085	0.0004	-0.0074	-0.0619	0.2354	0.6416	-0.7846	2.4955	-0.4795	9.786	-0.2737	0.2461	0.1104	0.4104	-0.3272	-1.7569	9.3967	1.6224	-1.8788	0.7548	-0.6802	-0.4618	-0.1621	-0.3782	-0.3122
-1.1558	-0.1425	9.4232	0.0945	0.1529	-0.2064	0.2351	0.666	-0.8074	2.7254	-0.5954	9.674	-0.1813	0.1477	0.1967	0.4099	-0.3504	-1.7567	9.3415	1.4482	-1.7094	0.9402	-0.7233	-0.1273	-0.1441	-0.3722	-0.3122
-0.9745	-0.142	9.7717	0.0318	-0.002	-0.1843	0.1254	0.6173	-0.8091	2.7244	-0.6533	9.6159	-0.2115	0.1775	0.2298	0.3927	-0.3278	-1.7573	9.2238	1.623	-1.7112	0.9428	-0.6706	0.1522	-0.1441	-0.3662	-0.3062
-1.2684	-0.2571	9.5931	0.1198	-0.2895	-0.0147	0.2174	0.6171	-0.7623	2.6057	-0.1336	9.4985	-0.3374	0.1594	0.0119	0.4452	-0.3259	-1.7775	9.3359	1.4475	-1.9942	0.9701	-0.4397	-0.328	-0.1501	-0.3662	-0.3122
-1.2684	-0.2571	9.5931	-0.123	-0.0998	-0.0369	0.2168	0.5939	-0.784	2.6676	0.0398	9.7318	-0.1785	0.3292	0.2706	0.4631	-0.349	-1.7343	9.756	1.7392	-1.53	0.6962	-0.4067	-0.3241	-0.1501	-0.3782	-0.3182
-1.2665	-0.6605	9.6496	-0.0304	-0.0084	-0.0314	0.1796	0.6184	-0.8299	2.6642	-0.5379	9.499	-0.2433	0.1826	0.1372	0.4297	-0.2808	-1.7143	9.8106	1.4476	-1.7574	0.5745	-0.4374	-0.2939	-0.1441	-0.3843	-0.3122
-0.5678	0.0302	9.7801	-0.0295	0.0267	-0.1217	0.2536	0.6418	-0.7842	2.6057	-0.0759	9.4986	-0.2428	0.0505	0.3149	0.4622	-0.372	-1.7554	9.8699	1.9715	-1.6981	0.3912	-0.4339	-0.3537	-0.1261	-0.3662	-0.3062
-0.6361	-0.0863	9.2612	0.0603	-0.1036	-0.0052	0.2351	0.666	-0.8074	2.2662	-0.0171	9.9565	-0.1507	0.181	0.1367	0.4455	-0.3496	-1.7346	9.5179	1.3898	-1.7062	0.2393	-0.1835	-0.4317	-0.1381	-0.3903	-0.3062
-0.9146	0.1464	9.8885	-0.0321	-0.1935	-0.0413	0.217	0.6177	-0.7845	2.322	0.0404	9.8416	-0.2127	0.2481	0.0482	0.3945	-0.2819	-1.7151	9.695	1.739	-1.645	-0.0368	-0.3926	-0.5633	-0.1441	-0.3782	-0.3002
-1.2669	0.1467	9.7091	0.0311	-0.0358	-0.1247	0.1986	0.5937	-0.7844	2.3762	-0.2486	9.6102	-0.2118	0.1467	0.2278	0.4266	-0.3728	-1.7775	9.5778	1.3899	-1.6481	0.0257	-0.399	-0.3797	-0.1321	-0.3782	-0.3062
-0.802	-0.3156	9.6597	0.0918	-0.0394	-0.063	0.1805	0.6173	-0.7855	2.6681	-0.3066	9.7314	-0.0566	0.1396	0.3198	0.4429	-0.4184	-1.798	9.4601	1.5064	-1.6501	0.0571	-0.1839	-0.3688	-0.1381	-0.3662	-0.3122
-1.1997	-0.3713	10.1115	0.1532	-0.0094	-0.061	0.2711	0.6669	-0.8287	2.2594	-0.3641	9.5499	-0.1491	0.2057	0.2624	0.4089	-0.3968	-1.7562	9.7562	1.5064	-1.5305	-0.0619	-0.0687	-0.0851	-0.1501	-0.3782	-0.2942
-1.0385	-0.0849	9.4831	0.0613	-0.0096	-0.0309	0.2352	0.6179	-0.7841	2.4932	-0.3065	9.6702	0.0653	0.2419	0.0775	0.4091	-0.3499	-1.7994	9.881	1.0414	-1.1876	-0.0896	-0.2043	0.3078	-0.1441	-0.3722	-0.3182
-0.6311	-0.3163	9.4906	-0.0005	-0.1588	-0.1314	0.2343	0.619	-0.8285	2.554	-0.1331	9.8455	0.1285	0.3961	0.0562	0.4107	-0.3275	-1.7356	9.8208	1.2742	-1.2451	0.0314	-0.2649	0.2422	-0.1321	-0.3843	-0.3122
-1.0961	0.2036	9.5402	0.0643	0.1267	-0.3002	0.2168	0.5939	-0.784	2.8456	0.0977	9.9671	-0.0575	0.2087	0.1691	0.4446	-0.3725	-1.7557	9.1705	1.7402	-1.4272	-0.2125	-0.3244	0.2411	-0.1381	-0.3722	-0.3002
-1.2177	-0.0275	9.2498	-0.1198	0.0954	-0.2416	0.2529	0.6186	-0.8058	2.7249	-0.249	9.6745	0.128	0.3009	0.1121	0.4275	-0.3499	-1.7563	9.58	1.3902	-1.5342	-0.4248	-0.3573	0.3641	-0.1501	-0.3782	-0.3122
-0.6288	-0.316	9.6056	-0.2124	0.004	-0.247	0.2166	0.5701	-0.7834	2.2604	-0.364	9.608	0.0934	-0.0384	0.1213	0.4272	-0.3262	-1.7993	9.8103	1.6804	-1.7569	-0.2757	-0.44	0.0204	-0.1561	-0.3782	-0.3062
-0.9188	-0.0847	9.6579	-0.153	-0.1245	-0.1613	0.199	0.5931	-0.7622	2.8963	0.0393	9.5619	0.0336	0.1487	0.1027	0.4288	-0.3037	-1.7354	9.6959	1.9138	-1.5876	-0.3966	-0.3487	0.0876	-0.1501	-0.3843	-0.3002
-1.0364	0.0307	9.5984	-0.087	0.2844	-0.3234	0.2542	0.665	-0.7625	2.7829	-0.2491	9.6755	0.1255	0.1502	0.0402	0.4275	-0.3499	-1.7563	9.5819	1.7397	-1.4194	-0.3949	-0.4181	0.33	-0.1441	-0.3782	-0.2942
-0.9742	-0.3149	9.7712	-0.0887	0.1567	-0.2381	0.1983	0.6181	-0.8072	2.603	-0.4803	9.324	0.005	0.3337	0.1148	0.4292	-0.304	-1.7141	9.461	1.7394	-1.5925	-0.4847	-0.3607	0.4874	-0.1441	-0.3542	-0.3062
-1.2132	-0.5459	9.4211	-0.0575	0.1312	-0.3622	0.2352	0.6179	-0.7841	2.6737	-0.5949	10.0211	0.1287	0.3624	0.1161	0.4459	-0.3264	-1.7348	9.5785	1.7975	-1.5902	-0.3628	-0.5811	0.598	-0.1381	-0.3602	-0.3002
-1.1501	-0.7184	9.6518	-0.2743	-0.029	-0.1877	0.1979	0.5705	-0.8061	2.718	-0.5382	9.268	0.0007	0.0615	0.004	0.4095	-0.3502	-1.778	9.5161	2.03	-1.7616	-0.1807	-0.4863	0.4784	-0.1501	-0.3843	-0.3062
-1.0993	-0.4888	9.3085	-0.0926	-0.1884	-0.1336	0.2343	0.619	-0.8285	2.489	-0.3068	9.4382	-0.2761	0.1276	0.0096	0.4441	-0.3957	-1.7555	9.5197	1.7976	-1.5913	-0.3958	-0.3834	0.2088	-0.1321	-0.3782	-0.3062
-0.6951	-0.2592	9.2021	-0.1534	-0.1274	-0.1	0.2173	0.5933	-0.7618	2.959	-0.3646	9.7945	0.1543	0.0619	-0.0588	0.428	-0.3267	-1.7566	9.4	1.681	-1.7077	-0.4554	-0.3253	0.3353	-0.1381	-0.3782	-0.3122
-1.2621	0.032	9.9388	-0.3058	-0.0931	-0.1299	0.2001	0.6639	-0.7418	2.6079	-0.1912	9.6144	0.097	0.2046	0.1992	0.4088	-0.3497	-1.8207	9.523	1.798	-1.4204	-0.4572	-0.4434	0.1754	-0.1321	-0.3722	-0.3062
-1.2231	-0.2011	8.9618	-0.3374	-0.1867	-0.1044	0.216	0.6188	-0.8289	2.724	-0.3646	9.6163	-0.0601	0.2208	-0.0785	0.3928	-0.3749	-1.6928	9.5765	1.5062	-1.7048	-0.5484	-0.4119	0.1778	-0.1381	-0.3722	-0.3062
-1.039	-0.431	9.4248	-0.4886	-0.0865	-0.2229	0.2338	0.6195	-0.8506	2.5625	-0.1902	10.3096	0.0376	0.4546	0.1536	0.4647	-0.2561	-1.7565	9.7522	2.0881	-1.7	-0.4279	-0.5956	0.1058	-0.1321	-0.3782	-0.3062
-0.8606	-0.0848	9.6591	-0.2432	0.0029	-0.2166	0.253	0.4986	-0.7585	2.0812	-0.2487	9.3149	0.1278	0.3992	-0.0057	0.3927	-0.3278	-1.7573	9.9277	1.8549	-1.7542	-0.2766	-0.5304	-0.0458	-0.1621	-0.3843	-0.3002
-1.0375	-0.0271	9.5408	-0.1223	-0.0661	-0.0965	0.2339	0.5714	-0.8273	2.7867	0.0399	9.9079	0.1865	0.0876	0.0359	0.4452	-0.3259	-1.7775	9.9895	1.0984	-1.641	0.0887	-0.4392	-0.1056	-0.1501	-0.3722	-0.3062
-1.1449	-0.4295	9.94	-0.1215	-0.0029	-0.1239	0.2529	0.6186	-0.8058	2.6038	-0.2492	9.3823	0.0057	0.3952	0.1188	0.4285	-0.3035	-1.7568	9.3443	1.9726	-1.5372	-0.1528	-0.4768	0.1712	-0.1381	-0.3782	-0.3122
-0.9174	-0.1999	9.7152	-0.1808	0.2138	-0.1127	0.2523	0.5954	-0.8274	2.3797	-0.5949	9.7838	0.003	0.0831	0.1917	0.3932	-0.3046	-1.7575	9.4624	1.4485	-1.5363	-0.0891	-0.2062	0.3692	-0.1561	-0.3602	-0.3122
-1.2134	-0.4306	9.4213	0.0014	0.0866	-0.0876	0.2341	0.5952	-0.8279	2.7344	-0.3638	10.1964	0.0025	0.183	0.0429	0.4099	-0.3504	-1.7567	10.0418	1.9126	-1.9227	0.0596	-0.5381	0.1048	-0.1441	-0.3782	-0.3002
-1.2735	-0.0271	9.3636	-0.1526	-0.151	-0.255	0.1986	0.5937	-0.7844	2.4286	-0.0181	9.3215	0.0337	0.1809	0.0737	0.4475	-0.3039	-1.671	9.6961	1.681	-1.5882	0.1806	-0.3794	-0.0724	-0.1501	-0.3602	-0.2942
-1.1532	-0.3151	9.5378	-0.0921	-0.1561	-0.1626	0.2719	0.5939	-0.7604	2.7784	-0.8269	9.3847	0.005	0.3337	0.1148	0.4464	-0.3032	-1.7351	9.3458	1.6234	-1.4811	0.0571	-0.4032	-0.2572	-0.1501	-0.3782	-0.3062
-1.1591	-0.2582	9.2504	-0.0935	-0.3398	-0.2032	0.2534	0.618	-0.7836	2.5489	-0.1912	9.5554	0.0633	-0.0086	0.1544	0.4081	-0.3963	-1.7989	9.7517	1.564	-1.7583	0.1468	-0.4289	-0.4437	-0.1381	-0.3843	-0.3062
-0.8057	-0.2007	9.4875	-0.0905	0.0289	-0.1527	0.2886	0.6439	-0.8498	2.5518	-0.0178	9.7296	-0.0264	0.1421	0.2578	0.4446	-0.3725	-1.7557	9.6373	1.7392	-1.5892	-0.1009	-0.5986	-0.8503	-0.1321	-0.3722	-0.3122
-0.9153	-0.0843	9.8305	-0.0604	0.0831	0.0041	0.2352	0.6179	-0.7841	2.2556	0.1554	9.3766	0.0001	0.0968	-0.0868	0.5153	-0.3941	-1.7113	9.2867	1.9145	-1.4815	-0.1592	-0.4204	-0.6253	-0.1441	-0.3662	-0.3002
-0.8627	-0.2004	9.5438	-0.1504	0.1252	-0.2094	0.1612	0.5945	-0.8298	3.0116	-0.3073	9.5056	0.1599	0.3926	0.118	0.4627	-0.3488	-1.7556	9.6918	1.564	-1.8164	-0.2202	-0.6075	-0.5423	-0.1561	-0.3782	-0.3062
-0.8002	-0.0847	9.7753	-0.0876	0.1933	-0.359	0.2158	0.5231	-0.8044	2.7243	0.2129	9.6751	0.0645	0.1482	0.1025	0.4457	-0.3027	-1.7778	9.9927	1.2734	-1.4697	-0.404	-0.5077	-0.7201	-0.1321	-0.3843	-0.3002
-1.5004	0.0317	9.6467	0.0933	0.0574	-0.15	0.1622	0.5452	-0.762	2.6623	-0.6535	9.3828	0.0344	0.2102	0.1067	0.4469	-0.28	-1.7353	9.5107	1.7965	-2.047	-0.339	-0.5557	-0.2004	-0.1441	-0.3662	-0.3122
-0.6407	-0.0868	9.0312	-0.0565	0.3414	-0.228	0.2162	0.6426	-0.8295	2.439	-0.0174	9.9016	-0.0884	0.1447	0.2272	0.4099	-0.3504	-1.7567	9.4024	1.5649	-1.5941	-0.2468	-0.5594	-0.1091	-0.1501	-0.3722	-0.3002
-0.9766	-0.2576	9.6564	0.094	0.1206	-0.1774	0.2525	0.6192	-0.828	2.6664	-0.5955	9.615	0.0984	0.2308	0.294	0.3767	-0.3058	-1.6938	9.5821	1.5651	-1.4198	0.0276	-0.2501	-0.2182	-0.1381	-0.3782	-0.3062
-1.1603	-0.2007	9.193	0.0939	0.0323	-0.2743	0.2165	0.6182	-0.8067	2.4388	-0.6526	9.8428	0.0062	0.2631	0.2965	0.4628	-0.3254	-1.7772	9.5787	1.5647	-1.5907	0.152	-0.3235	0.1152	-0.1321	-0.3662	-0.2882
-1.2766	-0.2004	9.1907	0.0653	0.3075	-0.1983	0.2358	0.5692	-0.7385	2.3175	-0.5373	9.5508	0.0329	0.0549	0.1276	0.447	-0.3271	-1.6708	10.0584	1.0996	-1.1272	0.0567	-0.2762	-0.3736	-0.1501	-0.3782	-0.3002
-1.2704	0.1463	9.5366	0.0946	0.1823	-0.174	0.1799	0.5941	-0.8071	2.6062	-0.5378	9.498	0.1874	0.0508	0.1577	0.4101	-0.3035	-1.7999	9.9913	1.5061	-1.5261	-0.0025	-0.1258	-0.2423	-0.1441	-0.3903	-0.3062
-1.04	-0.4887	9.3671	0.0953	0.3322	-0.0738	0.1801	0.6179	-0.8077	2.8351	-0.6538	9.3279	0.062	-0.0348	0.0596	0.374	-0.3981	-1.7356	9.4083	1.2745	-1.3099	-0.2154	-0.0625	-0.2372	-0.1501	-0.3843	-0.3242
-1.0911	-0.5455	9.7109	0.0343	0.2182	-0.2647	0.1604	0.6194	-0.8747	2.7215	-0.0183	9.5007	0.3083	-0.1342	0.1141	0.4451	-0.3493	-1.756	9.344	1.2157	-1.596	-0.3961	0.1188	-0.0726	-0.1321	-0.3843	-0.3002
-1.035	-0.1421	9.6555	0.1908	0.5011	-0.4022	0.2357	0.6173	-0.7619	2.4953	-0.3063	9.7862	0.2458	-0.1947	0.1104	0.4459	-0.3264	-1.7348	9.348	1.6819	-1.367	-0.2443	-0.0999	-0.0237	-0.1381	-0.3722	-0.3002
-1.2661	-0.2568	9.7081	0.1906	0.7041	-0.1148	0.2345	0.5946	-0.8057	2.4357	-0.6528	9.6687	-0.0635	-0.1204	-0.0386	0.4444	-0.3488	-1.7987	9.4632	1.7397	-1.4786	-0.369	-0.1813	-0.3344	-0.1501	-0.3843	-0.3242
-1.2118	-0.0844	9.5372	0.4023	0.4531	-0.0961	0.1804	0.5935	-0.7849	2.4363	-0.3063	9.7272	0.0307	-0.1296	0.1156	0.4105	-0.3743	-1.6924	9.5143	1.6222	-1.8765	-0.5486	-0.2858	0.0921	-0.1501	-0.3843	-0.3182
-0.919	-0.5461	9.5993	0.313	0.7025	-0.1141	0.2173	0.5933	-0.7618	2.088	-0.7101	9.6624	0.0639	-0.0116	0.2163	0.4106	-0.3509	-1.714	9.5187	1.681	-1.6485	-0.3348	-0.3214	0.1808	-0.1261	-0.3602	-0.3002
-0.9189	-0.0271	9.6581	0.4337	0.5158	-0.1233	0.2358	0.6411	-0.7624	2.3141	-0.3066	9.377	0.2467	-0.0687	0.0565	0.4447	-0.3491	-1.7773	9.6406	1.7397	-1.4183	-0.1223	-0.352	0.1159	-0.1381	-0.3662	-0.2942
-1.0883	-0.2568	9.8841	0.2199	0.5494	-0.1228	0.1792	0.5709	-0.8287	2.2623	-0.2484	9.7241	0.1548	-0.0379	0.09	0.4104	-0.3272	-1.7569	9.522	1.6814	-1.4776	-0.1232	-0.3173	-0.0052	-0.1621	-0.3722	-0.3002
-0.8661	-0.2585	9.3712	0.0967	0.3996	-0.1931	0.2534	0.618	-0.7836	2.5554	-0.4217	9.9032	0.2785	-0.0415	0.1202	0.4286	-0.3506	-1.6923	9.5777	1.5063	-1.6478	-0.2735	-0.2296	0.185	-0.1441	-0.3662	-0.3002
-0.8608	-0.0272	9.6592	-0.0573	0.2488	-0.2329	0.2166	0.5701	-0.7834	2.2627	-0.5371	9.7238	0.2464	-0.23	0.2013	0.4273	-0.3733	-1.7348	9.8136	1.739	-1.5858	-0.4288	-0.6234	0.0121	-0.1501	-0.3903	-0.2882
-1.0322	-0.3725	9.77	0.2204	0.4655	-0.3118	0.2349	0.6422	-0.8068	2.4967	-0.6527	9.8438	0.1546	-0.1992	0.2347	0.4791	-0.371	-1.7977	9.579	1.3318	-1.5913	-0.3992	-0.3388	-0.2193	-0.1441	-0.3782	-0.2882
-1.2708	-0.2574	9.4781	0.2509	0.5225	-0.2163	0.2703	0.5718	-0.8264	2.9536	-0.2495	9.5046	0.0304	-0.0958	0.0557	0.41	-0.327	-1.7783	9.8101	1.855	-1.7565	-0.3697	-0.3351	-0.3424	-0.1381	-0.3662	-0.3182
-1.2176	-0.6618	9.1908	0.0973	0.404	-0.2851	0.2	0.592	-0.7178	2.3204	-0.3062	9.7251	-0.0308	-0.1946	0.2048	0.4095	-0.3502	-1.778	9.7561	1.6228	-1.5303	-0.1268	-0.2092	-0.4916	-0.1441	-0.3722	-0.3182
-1.0906	-0.2571	9.7691	0.3404	0.3613	-0.1014	0.1989	0.6413	-0.7856	2.6027	-0.1916	9.3244	0.1856	-0.1029	0.1477	0.4119	-0.3048	-1.6931	9.4588	1.6809	-1.7066	-0.1846	-0.0954	-0.1777	-0.1321	-0.3963	-0.3122
-0.5693	0.203	9.7231	0.216	0.1455	-0.083	0.161	0.5707	-0.8292	2.4922	-0.3643	9.6121	0.0322	0.0257	0.0947	0.4439	-0.372	-1.7984	9.3401	1.7391	-1.7657	-0.0323	0.0283	-0.234	-0.1321	-0.3722	-0.3122
-1.4957	-0.0254	9.8766	0.0333	0.1242	-0.239	0.1983	0.6181	-0.8072	2.5461	-0.4224	9.381	0.1868	0.0538	0.0958	0.3744	-0.3278	-1.8004	9.4626	1.2739	-1.5367	0.0856	-0.208	-0.5855	-0.1381	-0.3662	-0.2882
-0.5722	-0.0857	9.5498	-0.2117	0.0377	-0.3067	0.2347	0.6184	-0.8063	2.8971	0.2126	9.6202	0.1247	-0.0081	0.1231	0.4451	-0.3493	-1.756	9.4596	1.9721	-1.6489	-0.0672	-0.2673	-0.6181	-0.1441	-0.3843	-0.2942
-0.7446	-0.5464	9.6028	-0.1225	-0.0381	-0.0336	0.2345	0.5946	-0.8057	2.4953	-0.3641	9.7862	-0.1485	0.1704	0.3533	0.4111	-0.3277	-1.7142	9.6432	1.4489	-1.305	-0.2483	-0.0841	-0.5148	-0.1261	-0.3662	-0.3002
-0.9082	-0.7754	10.1163	-0.0902	0.0304	-0.1834	0.2159	0.595	-0.8284	2.49	-0.2489	9.4963	-0.1224	0.0298	0.0646	0.427	-0.3731	-1.7561	9.5199	1.5647	-1.5918	-0.1274	-0.1755	-0.5821	-0.1261	-0.3782	-0.3002
-1.0947	-0.4882	9.5385	-0.2131	0.1159	0.0048	0.2344	0.6428	-0.829	2.6616	-0.1338	9.3835	-0.028	0.1497	0.103	0.4112	-0.3043	-1.7358	9.6374	1.6228	-1.5895	-0.3135	-0.2237	-0.952	-0.1321	-0.3782	-0.3122
-1.0969	0.0305	9.4822	-0.1514	0.0606	-0.1514	0.2347	0.6184	-0.8063	2.3791	-0.0752	9.7845	-0.0267	0.1759	0.1979	0.4275	-0.3499	-1.7563	9.6987	1.3902	-1.475	-0.0978	-0.0785	-0.731	-0.1501	-0.3722	-0.3182
-1.0306	-0.0263	9.8858	-0.0882	0.2184	-0.2348	0.1999	0.6401	-0.7412	2.4327	0.0399	9.5536	-0.1799	0.2062	0.2626	0.3746	-0.3515	-1.7574	9.6383	1.8558	-1.5319	-0.1901	-0.1055	-0.8239	-0.1441	-0.3843	-0.3122
-0.8647	0.203	9.4873	0.0655	0.3089	-0.2289	0.2352	0.6179	-0.7841	2.2614	-0.3639	9.666	-0.3312	0.4548	0.2795	0.4104	-0.3272	-1.7569	9.348	1.6237	-1.3672	0.2687	-0.023	-0.6389	-0.1441	-0.3843	-0.2942
-0.8081	-0.1433	9.3726	0.0339	0.1859	-0.2357	0.2165	0.6182	-0.8067	2.6092	-0.3643	9.6722	-0.1192	0.242	0.1405	0.4282	-0.3504	-1.7136	9.5195	1.9722	-1.5909	0.6035	-0.0566	-0.6433	-0.1501	-0.3782	-0.2942
-0.3989	-0.0862	9.4958	0.1554	0.2668	-0.0155	0.1976	0.5948	-0.8288	2.493	-0.1332	9.6704	-0.028	0.1497	0.103	0.3915	-0.3504	-1.7998	9.5819	1.6815	-1.4195	0.4817	-0.0556	-0.6423	-0.1381	-0.3843	-0.3062
-0.6337	-0.1436	9.376	0.3108	0.4263	-0.1596	0.2345	0.5946	-0.8057	2.6661	-0.3645	9.6153	0.0667	0.1375	0.3191	0.4109	-0.304	-1.7572	9.7009	1.4487	-1.3609	0.6023	-0.2085	-0.7127	-0.1381	-0.3843	-0.3062
-0.8684	-0.2588	9.2561	0.0948	0.1837	-0.2047	0.216	0.6188	-0.8289	2.8356	-0.2495	9.3865	0.1582	0.076	0.2837	0.4109	-0.304	-1.7572	9.5231	1.7398	-1.4205	0.9086	-0.0611	-0.5846	-0.1501	-0.3782	-0.3122
-0.9168	0.0885	9.7734	0.094	0.1206	-0.1774	0.1617	0.5939	-0.8076	2.7222	-0.5379	9.5	0.0344	0.0151	0.3113	0.4275	-0.3499	-1.7563	9.3474	2.1476	-1.3659	0.6951	-0.1209	-0.5859	-0.1501	-0.3722	-0.2942
-1.2731	-0.2577	9.3631	-0.0901	0.0892	-0.1187	0.1986	0.6656	-0.8083	2.2607	-0.5949	9.6077	-0.0262	0.3357	0.0841	0.4117	-0.2811	-1.736	9.4066	1.7983	-1.3656	0.42	-0.3022	-0.6239	-0.1681	-0.3782	-0.3182
-0.7442	-0.1427	9.6613	-0.0603	0.0257	-0.0912	0.1804	0.5935	-0.7849	2.7279	-0.1333	9.8486	-0.2752	0.0908	0.1314	0.4814	-0.349	-1.6912	9.9391	1.6817	-1.185	0.2655	-0.167	-0.9538	-0.1501	-0.3662	-0.3002
-1.0942	-0.7188	9.538	0.0919	-0.01	-0.0307	0.2169	0.6658	-0.8079	2.7257	-0.0757	9.7327	-0.1517	0.1533	0.0728	0.4266	-0.3728	-1.7775	9.5275	1.7986	-1.1925	0.3284	-0.2379	-0.6813	-0.1501	-0.3722	-0.3122
-0.8581	-0.1999	9.7738	0.064	0.1827	-0.1742	0.236	0.6649	-0.763	2.493	-0.191	9.6704	-0.1214	-0.007	0.1864	0.4278	-0.3501	-1.735	9.4551	2.0298	-1.8767	0.3609	-0.3403	-0.3794	-0.1501	-0.3843	-0.2942
-0.6285	0.1453	9.6643	-0.0289	0.031	-0.2137	0.1798	0.6422	-0.8304	2.3185	-0.4795	9.6089	-0.2125	0.1498	0.166	0.4452	-0.3964	-1.6915	9.6983	1.7395	-1.4741	0.2721	-0.3494	-0.0716	-0.1381	-0.3843	-0.3062
-0.9739	0.1464	9.8299	0.1828	-0.1038	-0.0351	0.2351	0.666	-0.8074	2.8394	0.0395	9.6189	0.0044	0.1416	0.2576	0.4441	-0.3957	-1.7555	9.6934	2.0882	-1.7012	0.5148	-0.5043	-0.1124	-0.1501	-0.3602	-0.3182
-0.9768	-0.1423	9.6567	0.0001	-0.0383	-0.0635	0.1605	0.5713	-0.8514	2.8407	-0.1337	9.6767	-0.089	0.2122	0.1074	0.4281	-0.3033	-1.7781	9.6963	1.5063	-1.5886	0.7881	-0.5037	-0.2069	-0.1321	-0.3843	-0.2942
-1.0983	0.1457	9.425	0.1237	-0.0312	-0.2468	0.236	0.6649	-0.763	2.3762	-0.3064	9.6101	-0.0558	0.2656	0.2659	0.4454	-0.3025	-1.7991	9.9255	1.7964	-1.8683	0.7544	-0.5532	-0.5781	-0.1441	-0.3722	-0.3122
-0.8628	-0.1428	9.5439	0.0925	-0.0057	-0.1227	0.2716	0.6182	-0.7831	2.4334	-0.4798	9.5529	0.0039	0.0141	0.3424	0.4283	-0.3269	-1.7352	9.641	1.3904	-1.4191	0.721	-0.6979	-0.8621	-0.1501	-0.3662	-0.2942
-0.7478	-0.0855	9.4889	-0.0595	0.1182	-0.0863	0.2347	0.6184	-0.8063	2.4943	-0.3641	9.7282	0.0017	0.0892	0.0679	0.4808	-0.3251	-1.7555	9.7011	1.274	-1.3613	0.5411	-0.7389	-0.4938	-0.1381	-0.3903	-0.3002
-1.5016	0.0316	9.5892	0.0356	0.4298	-0.1612	0.2169	0.6658	-0.8079	2.6081	-0.3644	9.6142	-0.028	0.1497	0.103	0.4104	-0.3272	-1.7569	9.6374	1.6228	-1.5895	0.1466	-0.6472	-0.3628	-0.1381	-0.3782	-0.3122
-0.9783	0.0306	9.5996	0.0062	0.5257	-0.2177	0.1992	0.6169	-0.7628	2.959	-0.4224	9.7944	-0.1798	0.2707	0.2047	0.4267	-0.3494	-1.799	9.9298	1.9716	-1.64	-0.1296	-0.7303	-0.5801	-0.1381	-0.3662	-0.3002
-0.4567	-0.259	9.4942	0.0669	0.522	-0.156	0.2357	0.6173	-0.7619	2.2066	-0.3636	9.839	0.0339	0.0826	0.1915	0.4439	-0.372	-1.7984	9.2273	1.4488	-1.5407	0.2067	-0.5505	-0.512	-0.1321	-0.3722	-0.2942
-0.8026	-0.604	9.6015	0.3101	0.422	-0.0676	0.2163	0.5945	-0.8062	2.9021	-0.4222	9.8514	-0.0884	-0.0182	0.4029	0.4452	-0.3259	-1.7775	9.1087	1.4488	-1.5999	0.2968	-0.4838	-0.6938	-0.1561	-0.3662	-0.3122
-1.1552	-0.4884	9.4223	0.3703	0.211	-0.2015	0.2521	0.5716	-0.8268	2.549	-0.2489	9.5553	-0.1522	0.0258	0.1576	0.3921	-0.3744	-1.7355	9.6961	1.681	-1.5882	0.6031	-0.4933	-0.4816	-0.1381	-0.3782	-0.3002
-1.0964	-0.2001	9.4817	0.2453	0.0203	-0.0588	0.2353	0.5697	-0.7607	2.4912	-0.3643	9.5541	-0.0325	-0.0564	-0.0967	0.4097	-0.3738	-1.7351	9.7506	1.5639	-1.8152	0.9115	-0.2288	-0.1628	-0.1561	-0.3782	-0.3002
-0.9788	-0.3155	9.5412	0.126	0.2744	-0.1689	0.2166	0.5701	-0.7834	2.7782	-0.6536	9.3849	-0.1236	-0.127	0.1165	0.428	-0.3267	-1.7566	9.6397	1.5649	-1.4757	0.8214	-0.1079	-0.0636	-0.1441	-0.3843	-0.3122
-1.0344	-0.4304	9.6548	0.1566	0.3034	-0.1364	0.2328	0.5488	-0.8711	2.6594	-0.0762	9.2675	0.0635	-0.0747	0.2432	0.4444	-0.3488	-1.7987	9.5771	1.0405	-1.7059	0.6992	-0.1991	-0.0673	-0.1381	-0.3782	-0.3122
-1.1537	-0.0845	9.5383	0.0637	0.0062	-0.3681	0.1804	0.5935	-0.7849	2.3186	-0.595	9.6087	-0.0614	-0.0327	0.0602	0.3926	-0.3512	-1.7357	9.4	1.7392	-1.7076	0.3614	-0.0604	-0.4571	-0.1381	-0.3843	-0.3062
-1.0328	-0.0842	9.7706	0.1562	0.1844	-0.235	0.2173	0.5933	-0.7618	2.6089	-0.1334	9.6725	-0.3046	0.1821	0.1685	0.4825	-0.2792	-1.7132	9.2223	1.9721	-1.7673	0.2069	-0.2696	-0.6204	-0.1381	-0.3903	-0.3062
-0.802	0.2611	9.7186	0.0318	-0.0314	-0.2166	0.2178	0.6647	-0.7635	2.9596	-0.0759	9.8529	0.158	0.1421	0.1948	0.3926	-0.3512	-1.7357	9.2833	1.9141	-1.6524	-0.0366	-0.1743	-0.6442	-0.1321	-0.3722	-0.3062
-0.9224	-0.6041	9.4267	0.0031	0.0687	-0.3651	0.2167	0.642	-0.8073	2.6609	-0.3649	9.3252	-0.1518	0.121	0.1017	0.3925	-0.3746	-1.7141	9.5169	1.2732	-1.7634	-0.2781	-0.2119	-0.3675	-0.1381	-0.3782	-0.3002
-1.037	-0.2577	9.5402	0.0316	0.0259	-0.1214	0.1985	0.6418	-0.8078	2.1984	-0.4797	9.3747	-0.0293	0.1558	-0.0208	0.4091	-0.3499	-1.7994	9.5707	1.7383	-1.9891	-0.4606	-0.3989	-0.2527	-0.1381	-0.3843	-0.3062
-0.8001	-0.1423	9.7751	0.0328	0.0919	-0.21	0.2352	0.6179	-0.7841	2.6675	-0.6531	9.6729	-0.1503	0.2763	0.0808	0.41	-0.327	-1.7783	9.7529	1.4478	-1.7016	-0.4605	-0.4306	-0.2236	-0.1441	-0.3843	-0.3062
-0.7973	0.204	9.9485	-0.1799	0.2195	-0.2353	0.198	0.6424	-0.83	2.6658	-0.1913	9.6155	0.0955	0.2767	-0.0135	0.4102	-0.3506	-1.7354	9.6433	1.3325	-1.3053	-0.5198	-0.2484	-0.1214	-0.1441	-0.3722	-0.3002
-0.686	-0.2005	9.6623	0.0648	0.2458	-0.2016	0.2545	0.6407	-0.7398	2.3215	-0.3638	9.783	0.249	0.2126	-0.0183	0.427	-0.3731	-1.7561	9.403	1.041	-1.5953	-0.4878	-0.2546	0.0625	-0.1561	-0.3722	-0.3062
-1.1515	-0.0266	9.6535	0.096	0.2497	-0.2934	0.1614	0.6183	-0.8303	2.486	-0.3647	9.264	-0.0915	0.0293	0.0644	0.3927	-0.3278	-1.7573	9.466	1.2161	-1.3659	-0.6106	-0.3439	-0.0026	-0.1441	-0.3722	-0.3122
-0.9761	-0.4882	9.6558	-0.1801	0.2475	-0.1723	0.2355	0.5935	-0.7613	2.7218	-0.2492	9.5004	-0.1552	-0.2525	0.1706	0.4455	-0.3496	-1.7346	9.3528	1.3914	-1.1399	-0.5517	-0.3991	-0.2212	-0.1501	-0.3843	-0.2882
-0.799	-0.0845	9.8328	-0.0911	-0.0916	-0.2206	0.1797	0.5703	-0.8065	2.6117	0.0978	9.8469	-0.0586	0.1487	0.1341	0.4096	-0.3267	-1.7996	9.3956	1.6804	-1.9356	-0.5794	-0.3471	0.0892	-0.1441	-0.3903	-0.3002
-0.9765	0.2614	9.7151	-0.0281	0.2104	-0.0811	0.2525	0.6192	-0.828	2.6658	-0.1913	9.6155	-0.1516	0.055	0.1906	0.4261	-0.396	-1.7772	9.6913	2.0297	-1.8152	-0.4884	-0.5027	0.1111	-0.1321	-0.3782	-0.3062
-0.8099	0.1448	9.3158	0.0017	0.0012	-0.2458	0.2174	0.6171	-0.7623	2.5525	-0.5952	9.7289	0.033	0.184	0.0118	0.4285	-0.3035	-1.7568	9.9333	1.7974	-1.4695	-0.6062	-0.2981	0.4917	-0.1621	-0.3903	-0.2942
-1.15	-0.1994	9.7106	0.0615	-0.1244	-0.2214	0.251	0.5489	-0.8707	2.3764	0.3866	9.669	0.093	0.0937	-0.0564	0.4085	-0.3965	-1.7776	9.5877	1.5076	-1.1351	-0.423	-0.3016	0.5515	-0.1381	-0.3782	-0.3182
-1.0925	-0.4303	9.6537	0.1253	0.2407	-0.1093	0.2521	0.5716	-0.8268	2.3216	-0.4793	9.7829	0.0624	0.0605	0.0036	0.4644	-0.3029	-1.7134	9.4619	1.9142	-1.5351	-0.4531	-0.2091	0.5566	-0.1621	-0.3542	-0.3062
-0.7446	-0.5464	9.6028	0.1552	0.1492	-0.1447	0.2337	0.5476	-0.8267	2.8358	-0.365	9.3863	0.0932	0.0277	0.0324	0.4806	-0.3719	-1.7123	9.6966	1.2735	-1.5892	-0.118	-0.1494	0.5262	-0.1321	-0.3722	-0.3062
-0.8631	-0.0275	9.5442	0.061	-0.0405	-0.0325	0.2174	0.6171	-0.7623	2.6102	-0.3643	9.7302	0.153	-0.1916	0.08	0.444	-0.3486	-1.82	9.4101	1.6823	-1.195	-0.0601	-0.2324	0.2139	-0.1381	-0.3903	-0.3182
-1.2709	-0.1997	9.4782	0.0934	0.0001	-0.2453	0.2352	0.6179	-0.7841	2.6022	-0.6536	9.2658	-0.2481	-0.0543	-0.0645	0.4109	-0.304	-1.7572	9.6915	1.7968	-1.8158	0.0313	-0.2957	0.2406	-0.1381	-0.3782	-0.3002
-0.7456	-0.0276	9.604	-0.0576	0.2474	-0.2023	0.1791	0.619	-0.8521	2.2616	-0.4794	9.6658	-0.4265	0.0798	0.4108	0.4095	-0.3502	-1.778	9.4582	1.2151	-1.7647	-0.0298	-0.3259	0.2395	-0.1381	-0.3662	-0.3062
-1.0866	-0.4872	9.941	-0.1817	0.0624	-0.1822	0.2165	0.6182	-0.8067	2.8448	-0.0756	9.9088	-0.0582	0.2117	0.1072	0.4271	-0.3496	-1.7777	9.6426	1.9728	-1.3038	-0.0003	-0.2597	0.089	-0.1501	-0.3782	-0.3062
-0.8002	-0.0847	9.7753	0.0317	0.0553	-0.089	0.2349	0.6422	-0.8068	2.4275	0.0395	9.2635	0.002	0.0232	0.1567	0.4456	-0.3262	-1.7562	9.6922	2.2044	-1.7578	0.121	-0.1962	-0.0009	-0.1321	-0.3722	-0.3122
-0.5046	-0.2	10.0108	-0.0606	-0.0052	-0.0929	0.1805	0.6173	-0.7855	2.49	-0.2489	9.4963	-0.3026	0.2698	0.2673	0.4637	-0.3024	-1.7561	9.4587	1.7974	-1.7063	0.2141	-0.1096	0.1565	-0.1501	-0.3662	-0.2882
-0.6912	0.0872	9.4329	-0.0614	0.0185	0.0621	0.2173	0.5933	-0.7618	2.3129	-0.1335	9.3192	-0.1178	0.2682	0.2353	0.4091	-0.3499	-1.7994	9.696	1.7974	-1.5879	0.272	-0.3176	-0.1007	-0.1501	-0.3722	-0.3122
-0.8053	-0.4313	9.4869	-0.1243	-0.2247	-0.0128	0.2157	0.5712	-0.8278	2.7764	-0.0763	9.3276	0.038	0.5176	0.1266	0.411	-0.2806	-1.7787	9.3313	1.6216	-2.2217	0.4528	-0.4681	-0.2638	-0.1441	-0.3843	-0.2882
-0.9747	-0.0267	9.7719	-0.0327	-0.3141	-0.1092	0.2347	0.6184	-0.8063	2.4867	-0.1337	9.3224	0.0983	0.3936	0.1183	0.4827	-0.2558	-1.7348	9.457	1.2732	-1.8215	0.1788	-0.4976	-0.2323	-0.1441	-0.3602	-0.2942
-0.8128	-0.1438	9.1426	-0.1851	-0.3092	-0.1714	0.2343	0.619	-0.8285	2.6698	-0.0178	9.8478	-0.2425	0.2441	0.1412	0.4458	-0.3498	-1.7133	9.2825	1.6229	-1.7101	-0.0068	-0.6728	-0.4859	-0.1441	-0.3662	-0.3122
-0.9725	0.0312	9.8871	-0.2768	-0.2492	-0.1073	0.2167	0.642	-0.8073	2.262	-0.0174	9.7244	-0.3637	0.4306	0.1539	0.4275	-0.3499	-1.7563	9.5201	1.3901	-1.5923	-0.0061	-0.5814	-0.4504	-0.1201	-0.3782	-0.3002
-0.9762	-0.4305	9.656	-0.2766	-0.2772	-0.1703	0.1804	0.5935	-0.7849	2.9052	-0.422	10.0254	-0.1469	0.5853	0.0698	0.4455	-0.3496	-1.7346	9.6328	1.7387	-1.8171	-0.0681	-0.7646	-0.4902	-0.1561	-0.3782	-0.3062
-0.6315	-0.0857	9.4912	-0.0607	-0.064	-0.1575	0.1973	0.5473	-0.8277	2.3212	-0.1329	9.7833	0.0377	0.2918	0.3293	0.394	-0.3051	-1.7148	9.6907	1.5638	-1.8733	-0.2516	-0.6975	-0.6082	-0.1321	-0.3722	-0.3002
-1.3286	-0.4302	9.4765	-0.242	0.069	-0.3052	0.2157	0.5712	-0.8278	2.5502	-0.3643	9.6132	0.0652	0.1774	0.1354	0.409	-0.3733	-1.7778	9.4675	1.9149	-1.2503	-0.0061	-0.644	-0.4229	-0.1501	-0.3602	-0.3002
-0.97	-0.0838	10.0018	0.1235	-0.0326	-0.2161	0.2173	0.5933	-0.7618	2.3741	-0.2488	9.4942	-0.1844	0.0323	0.034	0.4458	-0.2793	-1.7994	9.7038	1.7984	-1.1892	-0.009	-0.8207	-0.6781	-0.1381	-0.3662	-0.3122
-0.8013	-0.0848	9.7178	-0.2146	-0.1266	-0.1004	0.2721	0.6176	-0.7609	2.2675	-0.1902	10.0143	-0.2423	0.2103	0.2011	0.3746	-0.3515	-1.7574	9.809	1.9131	-1.8133	0.2673	-0.7376	-0.4608	-0.1441	-0.3722	-0.3002
-0.5725	0.0296	9.5501	-0.2764	-0.3052	-0.2333	0.2528	0.6667	-0.8291	2.4956	0.2712	9.845	-0.0565	0.2687	0.204	0.4105	-0.3743	-1.6924	9.636	1.9137	-1.6457	0.1469	-0.7733	-0.2771	-0.1441	-0.3782	-0.3062
-1.1485	-0.3722	9.7677	-0.1229	-0.1572	-0.1321	0.1633	0.6879	-0.7655	2.6062	-0.5378	9.498	-0.2423	0.2103	0.2011	0.4464	-0.3032	-1.7351	9.8185	1.3321	-1.3589	0.1149	-0.7046	-0.4886	-0.1561	-0.3782	-0.2942
-1.096	-0.4307	9.4811	-0.1534	-0.098	-0.0677	0.1604	0.6194	-0.8747	2.3184	-0.4218	9.6089	-0.3003	0.4865	0.2504	0.4615	-0.3715	-1.7981	9.7571	1.6812	-1.4732	-0.0038	-0.5278	-0.2017	-0.1441	-0.3782	-0.2882
-0.6878	-0.4314	9.5467	-0.1223	-0.0661	-0.0965	0.1983	0.6181	-0.8072	2.3159	-0.0755	9.4933	-0.057	0.3362	0.0842	0.4646	-0.2795	-1.7349	9.9345	1.7975	-1.4126	0.3014	-0.3765	-0.1963	-0.1381	-0.3963	-0.3122
-0.5657	0.0881	9.8953	-0.0305	-0.0379	-0.0637	0.1973	0.6192	-0.8516	2.8426	-0.0181	9.7929	-0.1801	0.3368	0.1159	0.4099	-0.3504	-1.7567	9.7572	1.623	-1.4733	0.2062	-0.6111	-0.5459	-0.1321	-0.3843	-0.3062
-1.4507	-0.373	9.1868	-0.1536	-0.1288	-0.0694	0.1804	0.5935	-0.7849	2.666	-0.3068	9.6153	-0.0585	0.2132	0.0762	0.4252	-0.4189	-1.7983	9.99	1.6806	-1.5826	0.1451	-0.5788	-0.5745	-0.1441	-0.3782	-0.2882
-0.9819	-0.4889	9.3683	0.1236	0.0262	-0.1515	0.2345	0.5946	-0.8057	2.4369	-0.826	9.7265	0.1492	-0.8232	0.3804	0.4981	-0.3243	-1.7764	9.6976	1.3318	-1.5321	0.2345	-0.791	-0.7093	-0.1501	-0.3782	-0.3002
-0.4505	-0.4889	9.7812	-0.1505	0.0369	-0.3064	0.2168	0.5939	-0.784	2.7805	-0.0183	9.5598	1.6512	-1.4867	0.1752	0.4275	-0.3499	-1.7563	9.7004	1.8562	-1.3599	0.0856	-1.0219	-0.1973	-0.1381	-0.3843	-0.3002
-0.8605	-0.1425	9.659	-0.2129	-0.0283	-0.218	0.2537	0.5937	-0.7608	2.3218	-0.5948	9.7827	1.9219	-1.8159	-0.1269	0.4437	-0.3955	-1.7769	10.052	1.7974	-1.4103	-0.0965	-0.9915	-0.1328	-0.1441	-0.3782	-0.2942
-1.2063	-0.5451	9.7661	-0.09	0.0318	-0.214	0.2157	0.5712	-0.8278	2.8396	-0.076	9.6188	1.3402	-1.6968	0.163	0.4446	-0.3725	-1.7557	9.8091	1.7967	-1.8136	-0.0653	-0.7754	-0.1525	-0.1501	-0.3662	-0.3062
-1.2703	-0.488	9.4775	-0.1198	0.0954	-0.2416	0.2349	0.6422	-0.8068	1.9133	-0.017	9.6602	1.5283	-1.649	0.3826	0.4091	-0.3499	-1.7994	9.6922	1.2147	-1.8172	-0.127	-0.5526	-0.3557	-0.1441	-0.3782	-0.3002
-1.2697	-0.1996	9.5357	-0.0893	0.0656	-0.2737	0.2701	0.548	-0.8258	2.5502	-0.4221	9.6131	1.0959	-1.5742	0.2652	0.4611	-0.3712	-1.8194	9.4608	1.8559	-1.5923	-0.4301	-0.5559	-0.1689	-0.1441	-0.3843	-0.3122
-0.9776	-0.3154	9.5987	-0.0262	0.1939	-0.3894	0.236	0.6649	-0.763	2.7779	-0.4227	9.3852	0.6329	-1.5972	0.2658	0.4638	-0.3495	-1.6916	9.6971	1.7975	-1.531	-0.6717	-0.3424	-0.0328	-0.1501	-0.3843	-0.3122
-0.8613	-0.3156	9.601	-0.1193	0.1571	-0.2382	0.2342	0.5471	-0.8045	2.4899	-0.1912	9.4963	0.948	-0.9521	0.2132	0.4608	-0.4181	-1.7763	9.4589	1.5645	-1.7069	-1.0095	-0.1412	-0.4501	-0.1441	-0.3782	-0.3002
-0.7486	-0.2586	9.431	-0.0892	0.1244	-0.2091	0.2166	0.5701	-0.7834	2.6099	-0.1333	9.7305	1.1918	-0.812	-0.2135	0.4113	-0.2809	-1.7574	9.99	1.6806	-1.5826	-1.4057	0.0825	-0.589	-0.1441	-0.3782	-0.3002
-0.915	-0.2573	9.83	0.0337	0.0977	-0.3326	0.2347	0.6184	-0.8063	2.6629	-0.3647	9.4412	0.8242	-0.6228	-0.1685	0.4106	-0.3509	-1.714	9.8088	2.0295	-1.813	-1.7411	-0.007	-0.5909	-0.1501	-0.3722	-0.3002
-0.974	-0.3726	9.7711	-0.0876	0.1639	-0.3914	0.2345	0.5946	-0.8057	2.6692	-0.3643	9.7893	0.6737	-0.4756	0.0281	0.4453	-0.373	-1.713	9.5753	1.6225	-1.7615	-2.1094	0.0069	-0.9254	-0.1561	-0.3903	-0.3122
-1.0379	0.2035	9.5413	-0.2734	-0.0232	-0.3104	0.2344	0.5708	-0.8051	2.6663	-0.5377	9.615	0.5844	-0.0022	-0.158	0.4288	-0.3037	-1.7354	9.3941	1.9714	-1.9919	-2.5686	0.0514	-1.2268	-0.1381	-0.3662	-0.3122
-0.8558	-0.1996	9.8888	-0.152	-0.0893	-0.2516	0.198	0.6424	-0.83	2.6629	-0.307	9.4413	0.3684	-0.0632	-0.0989	0.4473	-0.2803	-1.714	9.3423	1.7394	-1.6517	-2.8123	-0.0716	-1.1697	-0.1381	-0.3782	-0.3182
-0.8603	-0.2578	9.6587	-0.0002	-0.2147	-0.2574	0.2347	0.6184	-0.8063	2.7201	-0.5958	9.3839	0.1228	0.0655	-0.1205	0.4442	-0.3723	-1.7771	9.3992	1.3898	-1.7654	-3.1176	-0.2229	-1.1751	-0.1321	-0.3722	-0.2942
-0.871	-0.0861	9.1416	-0.0918	-0.2415	-0.3209	0.181	0.6167	-0.7633	2.4946	-0.5951	9.7279	0.1591	0.4939	-0.0617	0.4097	-0.3738	-1.7351	9.2305	1.6238	-1.3694	-2.812	-0.2294	-1.0549	-0.1441	-0.3782	-0.3122
-1.2792	-0.0854	9.076	-0.2763	-0.3625	-0.3285	0.2341	0.5952	-0.8279	2.376	-0.1332	9.6103	0.0061	0.6855	-0.1417	0.3919	-0.3507	-1.7784	9.584	1.7982	-1.3053	-2.6294	-0.3243	-1.0306	-0.1381	-0.3903	-0.3122
-0.9721	-0.1994	9.8865	-0.3077	-0.3091	-0.1415	0.2167	0.642	-0.8073	2.4364	-0.4218	9.727	0.0065	0.7163	-0.1397	0.4446	-0.3725	-1.7557	9.6996	1.565	-1.4176	-2.3557	-0.3564	-1.0652	-0.1321	-0.3782	-0.3002
-1.0429	-0.2008	9.2528	-0.2778	-0.4888	-0.2738	0.2352	0.6179	-0.7841	2.4363	-0.3641	9.7271	-0.1768	0.8086	-0.0708	0.4095	-0.3502	-1.778	9.4675	1.9149	-1.2503	-1.8987	-0.2669	-1.0951	-0.1381	-0.3782	-0.3002
-1.0353	-0.5458	9.597	-0.1534	-0.2436	-0.2599	0.217	0.6177	-0.7845	2.6102	-0.3643	9.7302	-0.2086	0.6186	0.0412	0.4476	-0.2334	-1.7571	9.5762	1.7972	-1.7041	-1.7741	-0.2163	-0.786	-0.1441	-0.3903	-0.3182
-0.9199	-0.6615	9.5416	-0.0291	0.0002	-0.2153	0.2712	0.6188	-0.8053	2.7845	-0.7109	9.7329	-0.3324	0.5576	0.0688	0.4452	-0.3259	-1.7775	9.636	1.8555	-1.6459	-1.0703	-0.36	-0.338	-0.1441	-0.3722	-0.3122
-1.0268	-0.1988	10.0579	-0.2447	-0.1233	-0.1619	0.2159	0.595	-0.8284	2.8378	-0.3649	9.5024	-0.3636	0.4951	0.096	0.392	-0.3273	-1.8	9.348	1.6237	-1.3672	-0.7348	-0.4273	-0.252	-0.1441	-0.3903	-0.3062
-0.8611	-0.4309	9.6008	-0.3084	-0.3722	-0.1141	0.1975	0.5711	-0.8283	2.4901	-0.3644	9.4961	-0.3314	0.5853	0.1327	0.3746	-0.3515	-1.7574	9.6958	1.972	-1.5875	-0.5824	-0.4604	-0.2242	-0.1501	-0.3782	-0.3182
-0.7455	-0.0852	9.6039	-0.5831	-0.307	-0.1124	0.2341	0.5952	-0.8279	2.2577	0.0978	9.4925	-0.3013	0.6862	-0.0471	0.4468	-0.3035	-1.7137	9.5773	1.8556	-1.647	-0.3987	-0.4658	-0.103	-0.1441	-0.3782	-0.3182
-1.1465	-0.7757	9.8242	-0.5827	-0.3335	-0.206	0.2341	0.5952	-0.8279	2.493	-0.191	9.6704	-0.1154	0.5817	0.1315	0.41	-0.3975	-1.6922	9.8095	1.3892	-1.8145	-0.3375	-0.6241	0.0113	-0.1441	-0.3722	-0.3002
-1.209	-0.3148	9.6516	-0.2146	-0.156	-0.1327	0.2165	0.6182	-0.8067	2.5545	-0.4795	9.8451	-0.2679	0.9331	-0.0623	0.4459	-0.3264	-1.7348	9.5862	1.8567	-1.1913	-0.1218	-0.479	0.2323	-0.1561	-0.3782	-0.3062
-0.7399	-0.6035	9.8327	-0.3076	-0.2503	-0.0769	0.1975	0.643	-0.8522	2.5522	-0.3065	9.7293	-0.3267	1.1156	0.012	0.4451	-0.3493	-1.756	9.6986	1.4484	-1.4748	0.1531	-0.7036	0.4336	-0.1441	-0.3903	-0.2882
-1.0873	-0.1413	9.9419	-0.1844	-0.2461	-0.1988	0.2352	0.6179	-0.7841	2.3195	-0.4795	9.6669	-0.6338	1.3744	-0.1251	0.4447	-0.3491	-1.7773	9.6422	1.3905	-1.3622	0.7921	-0.8321	0.4217	-0.1441	-0.3722	-0.3002
-0.8702	0.087	9.1995	-0.3703	-0.3757	-0.0225	0.2168	0.5939	-0.784	2.7196	-0.1339	9.3845	-0.7857	1.4309	0.0346	0.4277	-0.3735	-1.7134	9.4613	1.4484	-1.5932	0.9171	-0.8141	0.7906	-0.1441	-0.3722	-0.3002
-0.6326	-0.1435	9.4335	-0.2157	-0.3088	-0.1716	0.1804	0.5935	-0.7849	2.5479	-0.1913	9.4974	-0.8782	1.692	-0.2275	0.3751	-0.3283	-1.7577	9.4577	1.6226	-1.7637	1.0377	-1.1546	0.8027	-0.1561	-0.3782	-0.3062
-0.8602	-0.3154	9.6585	-0.2454	-0.1276	-0.0699	0.217	0.6177	-0.7845	2.8378	-0.3649	9.5024	-0.9677	1.7767	-0.0353	0.4644	-0.3029	-1.7134	9.2839	1.4484	-1.6536	1.1894	-1.2165	0.7675	-0.1381	-0.3722	-0.2942
-0.566	-0.3156	9.8368	-0.0007	0.0148	0.1237	0.2338	0.6195	-0.8506	2.783	-0.3646	9.6754	-0.5986	1.4832	0.1613	0.4451	-0.3493	-1.756	9.3459	1.507	-1.4814	1.4669	-1.3884	1.2483	-0.1381	-0.3602	-0.3062
-1.0314	-0.1994	9.8279	0.156	0.3285	-0.0121	0.2155	0.5475	-0.8272	2.1439	-0.7103	9.5474	-0.6652	0.9877	0.2225	0.4112	-0.3043	-1.7358	9.5787	1.6229	-1.5906	1.5944	-1.3178	1.8966	-0.1441	-0.3782	-0.2942
-0.7506	-0.4318	9.3155	0.246	0.229	0.1061	0.2341	0.5952	-0.8279	2.6057	-0.1336	9.4985	-1.1281	0.8341	0.3699	0.4447	-0.3491	-1.7773	9.6384	1.7394	-1.5322	2.0509	-1.2263	1.8054	-0.1321	-0.3722	-0.3062
-0.7938	-0.3722	10.0621	0.3675	0.1055	0.0695	0.1821	0.6394	-0.7195	2.2585	-0.4796	9.4918	-0.9113	0.7937	0.4905	0.428	-0.3267	-1.7566	9.5279	1.4493	-1.1933	2.4756	-1.0672	1.5335	-0.1501	-0.3782	-0.3122
-1.0321	-0.4301	9.7698	0.2776	0.177	-0.1117	0.2168	0.5939	-0.784	2.3156	0.1555	9.4936	-1.0051	0.8013	0.3672	0.4456	-0.3262	-1.7562	9.5799	1.5066	-1.5339	2.6284	-0.7886	1.4545	-0.1381	-0.3602	-0.3002
-0.7433	-0.0273	9.719	0.3968	-0.0197	0.0937	0.2161	0.5707	-0.8056	2.4342	-0.3065	9.6112	-0.791	0.8713	0.1224	0.4094	-0.3736	-1.7565	9.5877	1.5076	-1.1351	2.6905	-0.4497	1.4408	-0.1561	-0.3963	-0.3182
-1.0361	-0.1423	9.598	0.2144	-0.0396	-0.0929	0.2343	0.619	-0.8285	2.8396	-0.1338	9.6187	-0.8514	0.8986	0.2176	0.4459	-0.3264	-1.7348	9.6391	1.1573	-1.5336	2.9011	-0.6292	1.2145	-0.1501	-0.3662	-0.3122
-0.8634	0.1455	9.5446	0.0923	0.1385	0.1002	0.1983	0.6181	-0.8072	2.5489	-0.1912	9.5554	-0.7876	1.0175	0.2871	0.4282	-0.3504	-1.7136	10.1066	1.5639	-1.6376	2.7181	-0.3448	1.0463	-0.1501	-0.3843	-0.3062
-0.864	-0.1429	9.4864	0.095	0.1851	-0.2354	0.2353	0.5697	-0.7607	2.2557	0.0399	9.3764	-0.4847	0.5189	0.2843	0.4276	-0.3264	-1.7779	9.4578	1.5644	-1.7639	2.3829	-0.4978	1.1026	-0.1441	-0.3843	-0.2882
-1.2085	-0.0264	9.7098	0.2484	0.3611	-0.0713	0.2713	0.5706	-0.782	2.843	-0.3067	9.7925	-0.487	0.4972	0.0967	0.41	-0.327	-1.7783	9.6896	1.5055	-1.9304	2.1375	-0.4889	0.8898	-0.1261	-0.3782	-0.2942
-1.1575	-0.4886	9.3073	0.4036	0.5485	-0.1525	0.217	0.6177	-0.7845	2.779	-0.4803	9.4432	-0.5173	0.4302	0.2166	0.4099	-0.3504	-1.7567	9.5826	2.0891	-1.3616	2.1362	-0.3272	0.6523	-0.1561	-0.3722	-0.2822
-0.6872	-0.143	9.6049	0.4947	0.543	-0.06	0.2167	0.642	-0.8073	2.4888	-0.1335	9.4384	-0.2717	0.2693	0.2671	0.4456	-0.3262	-1.7562	10.0478	1.564	-1.6387	1.5538	-0.245	0.1693	-0.1501	-0.3782	-0.3242
-1.1529	-0.4881	9.5374	0.6171	0.6003	0.0054	0.2172	0.6415	-0.7851	2.1409	0.0401	9.4324	-0.241	0.2042	0.3249	0.4628	-0.3254	-1.7772	9.4046	1.5651	-1.4801	1.1583	-0.3687	0.2891	-0.1441	-0.3843	-0.3002
-0.9769	-0.6613	9.5979	0.7089	0.5417	-0.0894	0.1973	0.5473	-0.8277	2.4877	-0.1336	9.3804	-0.3038	0.113	0.3192	0.4113	-0.2809	-1.7574	9.5788	1.5065	-1.5909	1.28	-0.3379	0.259	-0.1561	-0.3963	-0.3002
-1.2096	-0.0265	9.6523	0.4031	0.4	-0.2833	0.2163	0.5945	-0.8062	3.2416	-0.481	9.3935	-0.1499	0.3393	0.0538	0.4459	-0.3264	-1.7348	9.5207	1.9141	-1.534	1.035	-0.2992	0.0785	-0.1561	-0.3722	-0.2942
-0.6357	-0.3169	9.2606	0.2453	0.0203	-0.0588	0.1799	0.5941	-0.8071	2.8363	0.0392	9.4449	-0.0883	0.2415	0.1403	0.4469	-0.28	-1.7353	9.3401	1.6809	-1.7658	0.7304	-0.2024	0.0245	-0.1381	-0.3843	-0.3062
-0.9796	0.0881	9.5422	0.0932	0.028	-0.1823	0.2345	0.5946	-0.8057	2.5461	-0.4224	9.381	-0.3327	0.5269	0.0668	0.4795	-0.3712	-1.7764	9.5199	1.5647	-1.5918	0.6061	-0.129	-0.3089	-0.1561	-0.3782	-0.3062
-0.9766	-0.2576	9.6564	0.002	0.0615	-0.2118	0.1989	0.6413	-0.7856	3.1319	-0.4804	9.7395	-0.4873	0.4987	0.0657	0.4637	-0.3024	-1.7561	9.2748	1.5055	-2.1092	0.3571	-0.3881	-0.8123	-0.1381	-0.3782	-0.3122
-0.8584	-0.0269	9.7742	0.1844	-0.0349	-0.1851	0.2709	0.6431	-0.8281	2.2535	0.1552	9.2606	-0.4552	0.4599	0.2183	0.394	-0.3051	-1.7148	9.2249	1.6231	-1.6543	-0.0094	-0.2868	-0.9885	-0.1441	-0.3843	-0.3062
-0.7461	-0.3736	9.5457	0.1237	0.1144	-0.0545	0.2173	0.5933	-0.7618	2.8396	-0.076	9.6188	-0.1512	0.3454	-0.07	0.4275	-0.3499	-1.7563	9.5186	1.7392	-1.6484	-0.0403	-0.3163	-1.0206	-0.1321	-0.3963	-0.2882
-0.8006	-0.4307	9.7169	0.2472	0.1495	-0.1748	0.2344	0.5708	-0.8051	2.6074	-0.5955	9.5559	-0.2125	0.3449	-0.0387	0.4293	-0.2806	-1.7357	9.1025	1.972	-1.8835	0.1123	-0.1935	-1.0462	-0.1261	-0.3722	-0.2942
-1.0991	-0.0274	9.3671	0.2783	0.1813	-0.2036	0.2334	0.572	-0.8495	2.8394	0.0395	9.6189	-0.305	0.1191	0.1954	0.4095	-0.3502	-1.778	9.4568	1.506	-1.821	0.1124	-0.2253	-1.0171	-0.1441	-0.3903	-0.3122
-1.0328	-0.6609	9.7118	0.0619	-0.0347	-0.1551	0.217	0.6177	-0.7845	2.6122	-0.3064	9.8463	-0.2724	0.2723	0.2052	0.4796	-0.3478	-1.7979	9.5792	2.1469	-1.5324	0.4446	-0.2173	-1.3576	-0.1441	-0.3722	-0.3062
-1.0944	-0.0845	9.597	0.1228	-0.0369	-0.1241	0.216	0.6188	-0.8289	2.8409	-0.3069	9.6765	-0.4276	0.2149	0.1712	0.4099	-0.3504	-1.7567	9.1096	1.6235	-1.5426	0.7501	-0.192	-1.2666	-0.1381	-0.3722	-0.2942
-1.1569	-0.2003	9.3655	0.2144	-0.0396	-0.0929	0.2355	0.5935	-0.7613	2.7207	-0.2493	9.4424	-0.5463	0.5521	0.2557	0.4102	-0.3506	-1.7354	9.5265	1.682	-1.2498	0.8118	-0.0705	-1.23	-0.1381	-0.3843	-0.3062
-1.1422	-0.6022	10.0546	0.2143	-0.0984	-0.1576	0.2332	0.5482	-0.8489	2.552	-0.1332	9.7295	-0.2697	0.3247	0.3949	0.4641	-0.3027	-1.7347	9.3912	1.5635	-2.1637	0.8452	0.0118	-0.9185	-0.1441	-0.3782	-0.2942
-0.9262	-0.4316	9.2546	0.43	-0.0028	-0.274	0.1975	0.5711	-0.8283	2.5487	-0.018	9.5556	-0.4859	0.3621	0.3362	0.4629	-0.3725	-1.7127	9.3536	1.6826	-1.0822	0.9658	-0.0161	-1.0439	-0.1501	-0.3843	-0.3002
-1.1518	-0.4303	9.595	0.215	0.0809	-0.025	0.2171	0.5695	-0.7612	2.7856	0.0398	9.8499	-0.2412	0.3025	0.2071	0.4278	-0.3501	-1.735	9.642	1.5652	-1.3617	0.9981	0.1018	-0.8843	-0.1441	-0.3843	-0.2942
-0.9775	-0.373	9.5986	0.154	-0.0624	-0.2482	0.2528	0.5948	-0.8052	2.8407	-0.1337	9.6767	-0.1465	0.4532	0.2475	0.4301	-0.2811	-1.693	9.9258	1.5054	-1.869	0.7521	-0.0749	-1.076	-0.1621	-0.3782	-0.3002
-0.8625	-0.3157	9.5435	0.0308	0.0202	0.0013	0.2344	0.6428	-0.829	2.3211	-0.0751	9.7834	-0.2099	0.1376	0.4135	0.4283	-0.3269	-1.7352	9.4547	1.3893	-1.9352	0.662	-0.2041	-0.8667	-0.1681	-0.3782	-0.3122
-1.0955	-0.0847	9.5395	0.2142	0.0178	0.0023	0.1981	0.5943	-0.8066	2.3208	-0.6526	9.7247	-0.2423	0.1457	0.259	0.3924	-0.3275	-1.7786	9.3426	1.5066	-1.6523	0.5121	-0.3059	-0.5326	-0.1441	-0.3662	-0.2942
-0.63	-0.2585	9.5483	0.2454	0.0791	0.0058	0.1972	0.6673	-0.8749	2.7739	0.27	9.2121	-0.0897	0.1507	0.1034	0.4992	-0.325	-1.7124	10.1047	2.2041	-1.6931	0.5122	-0.2752	-0.531	-0.1441	-0.3782	-0.3002
-0.4489	-0.1427	9.897	0.1244	0.1481	-0.1142	0.198	0.6424	-0.83	2.8398	-0.2492	9.6185	-0.1494	0.1749	0.2604	0.4464	-0.3032	-1.7351	9.5206	1.9724	-1.5339	0.4218	-0.184	-0.464	-0.1501	-0.3843	-0.2882
-0.7471	-0.4314	9.4881	0.1244	0.0893	-0.1788	0.2344	0.6428	-0.829	2.6134	-0.4218	9.9042	-0.2459	-0.0649	0.1521	0.427	-0.3731	-1.7561	9.5226	1.2157	-1.4787	0.7245	-0.2422	-0.654	-0.1501	-0.3722	-0.3062
-0.5083	-0.0851	9.8385	0.2466	0.204	-0.0182	0.2176	0.6409	-0.7629	2.5509	-0.1333	9.6715	-0.0302	0.0297	0.0331	0.3922	-0.3509	-1.7571	9.6965	1.3899	-1.5889	0.8157	0.0081	-0.7955	-0.1441	-0.3963	-0.3182
-0.9804	-0.6617	9.4254	0.2789	0.2725	-0.168	0.199	0.5931	-0.7622	2.9585	-0.8266	9.7359	-0.002	-0.2505	0.0769	0.4099	-0.3504	-1.7567	9.4005	1.2735	-1.7087	0.7233	-0.1748	-0.835	-0.1441	-0.3843	-0.3062
-0.9743	-0.2573	9.7714	0.1556	0.0933	-0.2706	0.1807	0.6411	-0.786	2.4364	-0.4218	9.727	0.275	-0.2521	0.0134	0.4458	-0.3498	-1.7133	9.8092	1.6803	-1.8138	0.7542	-0.0202	-0.8579	-0.1441	-0.3843	-0.3062
-1.0329	-0.0266	9.7708	-0.1823	0.2331	0.1342	0.2157	0.6431	-0.8517	2.8384	0.0394	9.5609	-0.0015	-0.3826	0.2546	0.4466	-0.2798	-1.7567	9.6969	1.9722	-1.5305	0.4763	-0.0657	-1.2885	-0.1501	-0.3843	-0.3122
-0.8047	-0.1429	9.5451	0.0333	0.2404	-0.0791	0.2159	0.595	-0.8284	2.6661	-0.4222	9.6152	-0.0609	-0.1648	0.2379	0.4459	-0.3264	-1.7348	9.9865	1.8548	-1.7531	0.416	-0.1614	-1.17	-0.1381	-0.3963	-0.3062
-0.9168	-0.4881	9.7145	0.3399	0.2128	-0.2323	0.2332	0.5482	-0.8489	2.614	-0.0753	9.9627	0.0297	-0.3524	0.2564	0.4099	-0.3504	-1.7567	9.5706	1.7965	-1.9889	0.0531	-0.325	-0.7758	-0.1501	-0.3843	-0.3002
-0.8021	-0.2579	9.6598	0.2479	0.1832	-0.2345	0.2154	0.5956	-0.8505	2.377	-0.0754	9.6684	0.094	-0.0737	0.2121	0.4276	-0.3264	-1.7779	9.6386	1.5647	-1.5326	-0.157	-0.335	-0.4056	-0.1441	-0.3782	-0.3122
-0.9161	-0.2574	9.7725	0.2488	0.3051	-0.1972	0.27	0.5961	-0.8491	2.893	-0.5961	9.3291	-0.0324	-0.187	0.0501	0.4266	-0.3728	-1.7775	9.8038	1.5631	-2.099	-0.582	-0.6499	-0.0803	-0.1441	-0.3843	-0.3122
-0.799	-0.0845	9.8328	0.1553	0.0624	-0.2723	0.2708	0.5712	-0.8042	2.8401	-0.5379	9.6182	0.1838	-0.2244	0.1088	0.4458	-0.3498	-1.7133	9.806	1.5634	-1.985	-0.8579	-0.7658	-0.2378	-0.1381	-0.3722	-0.2942
-0.8559	-0.1419	9.889	0.3087	0.2089	-0.1405	0.2347	0.6184	-0.8063	2.5522	-0.3065	9.7293	0.2712	-0.3968	-0.1823	0.429	-0.2803	-1.757	9.8138	1.5644	-1.5863	-0.8586	-0.6378	-0.3849	-0.1501	-0.3963	-0.2942
-1.2706	-0.3151	9.478	0.1246	0.1202	-0.1772	0.2172	0.6415	-0.7851	2.3792	-0.1907	9.7843	-0.033	-0.1194	-0.0697	0.4097	-0.3738	-1.7351	9.5745	1.3313	-1.8192	-0.8911	-0.6296	-0.6302	-0.1441	-0.3782	-0.3002
-1.0915	-0.3725	9.7113	-0.0277	0.1838	-0.1748	0.1982	0.5461	-0.7833	2.6653	-0.5955	9.5569	-0.2168	-0.1547	0.0841	0.4442	-0.3723	-1.7771	9.8679	1.7966	-1.8124	-0.8623	-0.4672	-0.8987	-0.1321	-0.3662	-0.3122
-1.2102	-0.3149	9.5941	-0.4584	-0.0309	-0.0968	0.1967	0.596	-0.8732	2.3204	-0.3639	9.725	-0.032	-0.1563	0.0521	0.3931	-0.328	-1.7359	9.4654	1.74	-1.3647	-0.7436	-0.7065	-1.1581	-0.1441	-0.3903	-0.3002
-1.1485	-0.3722	9.7677	-0.0907	-0.0019	-0.1544	0.217	0.6177	-0.7845	2.3186	-0.595	9.6087	0.2473	-0.0394	0.0895	0.4275	-0.3499	-1.7563	9.4565	1.7389	-1.8204	-0.7411	-0.4345	-0.9902	-0.1501	-0.3903	-0.2882
-1.0371	-0.2001	9.5404	0.0624	0.1432	0.0081	0.1617	0.5939	-0.8076	2.3196	0.2712	9.7258	0.2145	-0.0621	-0.0671	0.4442	-0.3723	-1.7771	9.7502	1.9132	-1.8144	-0.7717	-0.2457	-1.1032	-0.1441	-0.3722	-0.3002
-0.8647	-0.3736	9.4284	0.0649	0.2178	-0.2645	0.2334	0.572	-0.8495	2.432	-0.2489	9.4952	0.0333	0.1179	0.1007	0.4451	-0.3493	-1.756	9.5144	1.5058	-1.8768	-1.0141	-0.2485	-0.9476	-0.1501	-0.3782	-0.3122
-0.9801	-0.2003	9.484	0.3086	0.2663	-0.0452	0.2708	0.5712	-0.8042	2.138	-0.1911	9.258	0.2795	-0.046	0.2131	0.4464	-0.3032	-1.7351	8.9933	1.4492	-1.4882	-1.1948	-0.0355	-0.8121	-0.1501	-0.3963	-0.2942
-1.0348	-0.1998	9.6554	0.2796	0.4518	-0.0355	0.2181	0.6403	-0.7407	2.7833	-0.5955	9.6751	0.3073	-0.0974	-0.0077	0.3924	-0.3275	-1.7786	9.4652	1.9728	-1.3641	-1.2846	-0.1975	-0.543	-0.1441	-0.3722	-0.3062
-1.0938	-0.3728	9.5963	0.1878	0.3074	-0.2282	0.2354	0.6416	-0.7846	2.3121	-0.3645	9.2609	0.1838	0.003	-0.1248	0.3545	-0.3974	-1.8427	9.5798	1.5648	-1.5338	-1.2264	-0.2814	-0.8246	-0.1381	-0.3903	-0.3002
-0.7449	-0.3735	9.6032	-0.0277	0.1838	-0.1748	0.1786	0.5477	-0.8503	2.549	-0.3067	9.5552	0.0918	-0.063	-0.0045	0.4461	-0.303	-1.7564	9.58	1.3902	-1.5342	-1.1048	-0.4383	-0.7722	-0.1381	-0.3782	-0.3062
-0.8011	-0.2001	9.7175	0.065	0.2766	-0.1999	0.2518	0.5959	-0.8496	2.2583	-0.3641	9.4919	0.1541	-0.0994	0.086	0.427	-0.3731	-1.7561	9.3967	1.6224	-1.8788	-0.9204	-0.4775	-0.5605	-0.1381	-0.3843	-0.2942
-0.6351	-0.6051	9.2599	-0.3315	0.3758	-0.2279	0.1972	0.5954	-0.851	2.6078	-0.0757	9.6146	0.275	-0.2199	-0.0156	0.4102	-0.3506	-1.7354	9.3987	1.8555	-1.7643	-1.1345	-0.2842	-0.764	-0.1501	-0.3782	-0.3122
-0.9743	-0.2573	9.7714	-0.0582	0.2725	-0.078	0.2539	0.6175	-0.7614	2.4343	-0.3642	9.6111	0.1847	-0.0016	-0.032	0.4635	-0.2788	-1.799	9.4047	1.5069	-1.4803	-1.1324	-0.2613	-0.5168	-0.1441	-0.3843	-0.3122
-1.0443	-0.0856	9.1956	0.0942	0.2088	-0.0804	0.2525	0.6192	-0.828	2.0284	-0.2482	9.6039	-0.0011	-0.0922	-0.006	0.3922	-0.3509	-1.7571	9.8099	2.0879	-1.7559	-0.921	-0.4438	-0.651	-0.1381	-0.3843	-0.3122
-0.803	0.1457	9.6608	0.0659	0.253	-0.3549	0.2168	0.5939	-0.784	2.6037	-0.1338	9.3825	-0.0296	-0.0055	0.124	0.4487	-0.2342	-1.6931	9.6938	1.7971	-1.7019	-1.1036	-0.3489	-0.6754	-0.1381	-0.3843	-0.3122
-0.8686	-0.1435	9.2564	0.0958	0.1321	-0.4226	0.1976	0.5948	-0.8288	2.0271	-0.0173	9.5462	0.091	-0.1891	0.0494	0.4104	-0.3272	-1.7569	9.4703	1.3913	-1.1376	-1.072	-0.3849	-0.5237	-0.1561	-0.3782	-0.3122
-1.2072	-0.0839	9.7672	0.1277	0.4315	-0.222	0.2162	0.6426	-0.8295	2.8348	-0.4228	9.3282	0.1515	-0.3146	0.072	0.4641	-0.3027	-1.7347	9.7496	1.4473	-1.8725	-1.1646	-0.3167	-0.7039	-0.1321	-0.3963	-0.3002
-0.6827	-0.0848	9.8351	0.0651	0.3355	-0.1353	0.1802	0.5697	-0.7843	2.7274	-0.5953	9.79	0.2445	-0.1886	-0.0134	0.3915	-0.3504	-1.7998	9.2854	2.089	-1.5381	-1.1643	-0.2551	-0.7007	-0.1381	-0.3843	-0.3122
-0.9746	-0.661	9.7129	0.311	0.4277	-0.1902	0.2171	0.5695	-0.7612	2.8368	-0.3649	9.4443	0.1519	-0.2839	0.074	0.4657	-0.2802	-1.6709	9.5254	1.6819	-1.3067	-1.1608	-0.3939	-0.216	-0.1441	-0.3843	-0.3062
-1.0869	-0.3719	9.9413	0.3406	0.3628	-0.1321	0.2529	0.6186	-0.8058	2.6075	0.0975	9.6148	0.2465	-0.1655	0.1434	0.409	-0.3733	-1.7778	9.5197	1.7394	-1.5914	-1.0992	-0.4599	-0.0969	-0.1381	-0.3843	-0.3122
-0.9712	-0.6606	9.8854	0.218	0.3335	-0.1344	0.2344	0.6428	-0.829	2.9557	-0.2494	9.6206	0.1213	-0.3494	0.163	0.4293	-0.2806	-1.7357	9.3482	1.4491	-1.3676	-0.9176	-0.4258	-0.2504	-0.1381	-0.3963	-0.3002
-0.977	-0.027	9.6569	0.3707	0.3301	-0.1029	0.2164	0.6664	-0.8301	2.4291	-0.4223	9.3209	0.0609	-0.3222	0.2582	0.4285	-0.3035	-1.7568	9.6932	1.2731	-1.7601	-0.8878	-0.4548	-0.3136	-0.1441	-0.3843	-0.3182
-1.1014	-0.6043	9.1932	0.1858	0.1488	-0.1445	0.2515	0.5484	-0.8485	3.0108	-0.4806	9.4473	-0.0332	-0.2808	0.075	0.3922	-0.3509	-1.7571	9.5187	1.681	-1.6485	-0.7357	-0.205	-0.4556	-0.1621	-0.3963	-0.3062
-0.6249	0.0881	9.8366	0.1878	0.3074	-0.2282	0.1791	0.5471	-0.8282	2.4854	0.0395	9.2646	0.0321	-0.0066	0.1236	0.428	-0.3267	-1.7566	9.7518	1.5058	-1.7584	-0.9195	-0.0428	-0.6609	-0.1681	-0.3782	-0.2942
-0.9166	-0.0268	9.7731	0.3694	0.0891	-0.2387	0.1989	0.6413	-0.7856	2.6092	-0.4221	9.6722	0.0929	0.0292	0.0015	0.4456	-0.3262	-1.7562	9.5852	1.7984	-1.2484	-0.4952	-0.1635	-0.8552	-0.1261	-0.3782	-0.3242
-0.9203	-0.4886	9.542	0.1568	0.3049	-0.1671	0.2698	0.6205	-0.8719	3.0156	-0.1916	9.7378	0.0333	0.1179	0.1007	0.4627	-0.3488	-1.7556	9.3992	1.448	-1.7653	-0.5584	-0.2167	-1.1034	-0.1501	-0.3722	-0.3002
-1.2098	0.0888	9.6526	0.1868	0.2134	-0.2025	0.2157	0.6431	-0.8517	2.3142	-0.3644	9.3769	0.2158	-0.0681	0.0567	0.3929	-0.3043	-1.7789	9.4565	1.7389	-1.8204	-0.4652	0.1826	-1.0834	-0.1561	-0.3903	-0.3122
-0.8663	-0.1432	9.3714	0.1587	0.3752	-0.3477	0.2162	0.6426	-0.8295	2.4943	-0.3641	9.7282	0.4919	-0.1958	0.0471	0.4091	-0.3499	-1.7994	9.6406	1.7979	-1.4181	-0.4671	-0.0606	-1.1883	-0.1441	-0.3722	-0.2942
-1.0368	-0.373	9.5399	0.1248	0.1216	-0.2078	0.1978	0.6186	-0.8294	2.6658	-0.1335	9.6156	0.3053	-0.1851	-0.1066	0.4796	-0.3478	-1.7979	9.5921	1.6246	-0.907	-0.4371	-0.0589	-1.2499	-0.1441	-0.3782	-0.3122
-0.744	-0.258	9.661	0.156	0.2123	-0.172	0.2152	0.5718	-0.85	2.3223	-0.1905	9.8413	0.3689	-0.163	0.0498	0.3917	-0.3741	-1.7568	9.8149	1.5645	-1.5293	-0.3168	-0.2734	-1.3236	-0.1441	-0.3782	-0.3002
-1.266	-0.3145	9.708	0.3082	0.1766	-0.1115	0.1984	0.5699	-0.7839	2.3186	-0.595	9.6087	0.0905	-0.2843	0.1053	0.4281	-0.3033	-1.7781	9.7528	1.5642	-1.7013	-0.2845	-0.0304	-1.219	-0.1321	-0.3782	-0.3062
-0.858	-0.2575	9.7737	0.1545	0.0861	-0.1173	0.2357	0.6173	-0.7619	2.6086	0.0398	9.6727	-0.0928	-0.192	0.1742	0.4276	-0.3264	-1.7779	9.4077	1.7984	-1.3087	-0.4073	-0.1505	-1.2857	-0.1441	-0.3903	-0.3062
-0.9142	-0.0842	9.888	-0.0291	0.0296	-0.183	0.2361	0.5448	-0.7158	2.8411	-0.4801	9.6762	-0.6754	-0.0683	0.3712	0.4647	-0.3266	-1.6704	9.4014	1.4483	-1.6513	-0.2242	-0.1848	-1.2275	-0.1441	-0.3662	-0.3002
-1.0952	-0.2576	9.5391	-0.0303	-0.0364	-0.0944	0.2539	0.6175	-0.7614	2.7169	-0.4806	9.2101	0.4312	0.0281	-0.0933	0.4272	-0.3262	-1.7993	9.4634	1.5651	-1.479	-0.4995	0.01	-1.4611	-0.1501	-0.3843	-0.3062
-0.804	-0.4888	9.5443	0.0018	-0.0267	-0.3088	0.2341	0.5952	-0.8279	2.8411	0.3283	9.7353	0.3392	0.1894	-0.2066	0.3927	-0.3278	-1.7573	9.6939	1.6807	-1.7021	-0.4388	-0.1463	-1.4082	-0.1441	-0.3903	-0.2942
-1.087	-0.3143	9.9415	0.1236	0.1424	0.0084	0.2713	0.5706	-0.782	2.6634	-0.7112	9.4408	0.1227	0.001	-0.0626	0.4447	-0.3491	-1.7773	9.5802	1.2155	-1.5346	-0.7436	-0.1428	-1.4363	-0.1381	-0.3782	-0.2882
-0.9812	-0.2581	9.4264	0.0932	-0.0014	-0.2146	0.1981	0.5943	-0.8066	2.6047	-0.1337	9.4405	-0.0289	-0.0086	0.1859	0.4457	-0.3027	-1.7778	9.9888	1.7387	-1.6394	-0.5014	-0.1082	-1.621	-0.1261	-0.3782	-0.2942
-1.21	0.1465	9.6527	0.0632	0.1195	-0.1469	0.2164	0.5463	-0.7828	2.6649	-0.2491	9.5574	-0.0895	0.0524	0.2212	0.4456	-0.3262	-1.7562	9.2133	1.971	-2.2231	-0.4083	-0.2409	-1.3519	-0.1381	-0.3782	-0.2882
-1.0966	-0.7191	9.4229	0.1853	0.1165	-0.1155	0.2354	0.6416	-0.7846	2.5522	-0.3642	9.7292	0.0634	0.0882	0.0675	0.4641	-0.3027	-1.7347	9.467	1.3326	-1.3087	-0.1944	0.0362	-1.4007	-0.1381	-0.3963	-0.3062
-0.9234	-0.0853	9.4279	0.0321	0.0582	-0.1504	0.1976	0.5948	-0.8288	2.6071	-0.4222	9.5561	0.0354	0.2379	0.1706	0.4285	-0.3035	-1.7568	9.4056	1.7399	-1.4228	-0.1941	-0.0273	-1.3425	-0.1441	-0.3903	-0.3002
-1.1561	-0.0272	9.4235	-0.5183	0.2109	0.0387	0.216	0.6188	-0.8289	2.321	0.0403	9.7836	0.0022	-0.0106	0.2166	0.427	-0.3731	-1.7561	9.633	1.6223	-1.8173	0.0516	0.0879	-1.1541	-0.1381	-0.3782	-0.3002
-0.5743	-0.2013	9.4346	-0.3336	0.1584	-0.2088	0.2164	0.5463	-0.7828	2.433	-0.1911	9.5533	0.3064	-0.288	0.1041	0.3927	-0.3278	-1.7573	9.4604	1.2154	-1.6508	-0.2232	-0.0637	-1.1597	-0.1441	-0.3843	-0.3062
-0.7989	-0.1422	9.8326	0.1242	0.1173	-0.1159	0.2533	0.6662	-0.8069	2.8378	-0.3071	9.5024	0.0925	-0.2612	0.262	0.4276	-0.3264	-1.7779	9.6414	2.0309	-1.3606	-0.2227	-0.0031	-1.1258	-0.1561	-0.3963	-0.3182
-0.9151	-0.1996	9.8302	0.0643	0.2135	-0.1726	0.1979	0.5705	-0.8061	2.3185	-0.4795	9.6089	-0.1544	-0.1587	0.1456	0.4285	-0.3035	-1.7568	9.8161	1.5647	-1.4723	0.021	0.1199	-1.1829	-0.1621	-0.3903	-0.3002
-0.978	-0.719	9.5403	-0.0583	0.2136	-0.1426	0.2339	0.5714	-0.8273	2.3785	-0.4217	9.726	-0.0321	-0.1885	0.081	0.4099	-0.3504	-1.7567	9.5742	1.5641	-1.8186	-0.0408	-0.0325	-1.2211	-0.1441	-0.3903	-0.2942
-1.0888	0.0315	9.8848	0.1869	0.156	-0.2978	0.217	0.6177	-0.7845	2.3779	-0.826	9.6675	0.1855	-0.1352	0.1767	0.4459	-0.3264	-1.7348	9.3412	1.7393	-1.7087	-0.1902	-0.0113	-0.8805	-0.1441	-0.3843	-0.3122
-0.9849	-0.1432	9.2541	0.0932	0.1442	-0.0224	0.2163	0.5945	-0.8062	2.6647	-0.0759	9.5576	0.0919	-0.2259	0.1712	0.4456	-0.3262	-1.7562	9.6388	1.3901	-1.5331	-0.0356	0.1662	-0.688	-0.1561	-0.3843	-0.3122
-0.8598	-0.4884	9.6581	0.2479	0.2994	-0.0746	0.1792	0.5709	-0.8287	2.2578	0.04	9.4925	0.0012	-0.0706	0.1817	0.409	-0.3733	-1.7778	9.4633	1.6233	-1.4789	-0.2796	0.0134	-0.6632	-0.1501	-0.3963	-0.3182
-1.4971	0.0898	9.8193	0.1866	0.3575	0.0203	0.2708	0.5712	-0.8042	2.3773	-0.3641	9.6681	-0.0274	0.1467	0.1649	0.3748	-0.328	-1.779	9.8664	2.0875	-1.8687	-0.5534	-0.1421	-0.5461	-0.1441	-0.3782	-0.3002
-0.6972	-0.3748	9.0868	0.4026	0.3383	-0.2867	0.2352	0.6179	-0.7841	2.6684	-0.5376	9.7311	-0.1831	-0.006	0.1867	0.411	-0.2806	-1.7787	9.9212	1.6212	-2.0966	-0.4024	-0.2635	-0.6459	-0.1261	-0.3843	-0.3002
-1.2025	-0.141	9.9971	0.2786	0.271	-0.1374	0.2164	0.5463	-0.7828	2.9593	-0.6533	9.7941	-0.1498	0.1442	0.2584	0.4457	-0.3027	-1.7778	10.0517	2.0885	-1.4096	-0.37	-0.3342	-0.3731	-0.1561	-0.3843	-0.3182
-0.7412	-0.4884	9.7754	0.278	0.2667	-0.0454	0.2714	0.5944	-0.7826	2.4918	-0.0756	9.6125	0.0666	0.3004	0.1434	0.4457	-0.3027	-1.7778	9.4608	1.9141	-1.5921	-0.4907	-0.212	-0.3043	-0.1441	-0.3963	-0.3122
-1.1504	-0.5455	9.6522	0.2497	0.3697	-0.2552	0.271	0.595	-0.8047	2.4933	-0.3642	9.6701	0.155	0.0912	-0.0258	0.4457	-0.3027	-1.7778	9.5791	2.2051	-1.5322	-0.1876	-0.3655	-0.407	-0.1321	-0.3903	-0.2882
-0.6251	-0.4309	9.7779	0.2482	0.2434	-0.2005	0.235	0.5941	-0.7835	2.5502	-0.3643	9.6132	0.128	0.3331	0.0832	0.4451	-0.3493	-1.756	9.7604	1.7398	-1.3021	-0.1248	-0.2171	-0.246	-0.1441	-0.3843	-0.3062
-0.8073	0.0298	9.4305	0.0955	0.188	-0.2967	0.2529	0.6186	-0.8058	2.6626	-0.076	9.4416	-0.1525	0.0918	0.0688	0.4096	-0.3973	-1.7135	9.6393	1.9142	-1.4748	-0.0351	-0.3052	-0.4051	-0.1381	-0.3782	-0.3062
-1.0398	0.5493	9.4846	0.1544	0.1728	0.0102	0.217	0.6177	-0.7845	2.6661	-0.3645	9.6153	-0.1824	0.0878	0.1618	0.4458	-0.3498	-1.7133	9.5742	1.6223	-1.8185	0.0552	-0.0827	-0.6402	-0.1321	-0.3843	-0.3002
-0.9247	-0.0278	9.3706	-0.0574	0.3356	-0.1053	0.216	0.6188	-0.8289	2.2004	-0.3641	9.4909	0.0035	0.2107	0.1068	0.4646	-0.2795	-1.7349	9.6426	2.031	-1.3036	0.1761	-0.3617	-0.625	-0.1561	-0.3722	-0.3002
-1.5044	0.2619	9.4747	0.2158	0.0279	-0.2123	0.2526	0.571	-0.8046	2.5441	-0.4803	9.2649	-0.0582	0.1472	0.1651	0.427	-0.3731	-1.7561	9.574	1.797	-1.818	0.21	-0.2189	-0.2796	-0.1561	-0.3903	-0.3182
-1.5051	0.0312	9.4167	-0.153	-0.0377	-0.0337	0.1976	0.5948	-0.8288	2.3729	-0.1334	9.4363	0.0058	0.2323	0.2945	0.4459	-0.3264	-1.7348	9.6326	1.9133	-1.8166	0.5171	-0.4507	0.1363	-0.1381	-0.4023	-0.3062
-1.1507	-0.4302	9.6525	-0.0927	-0.1311	-0.0383	0.2157	0.5712	-0.8278	2.435	-0.1332	9.6694	0.0643	0.2465	-0.0153	0.394	-0.3051	-1.7148	9.93	1.7388	-1.6406	0.425	-0.3844	0.0175	-0.1441	-0.3722	-0.3122
-1.5055	0.2618	9.4172	-0.031	-0.0996	-0.067	0.2336	0.5958	-0.8501	2.6139	-0.0175	9.9627	0.0666	0.2681	0.1724	0.41	-0.327	-1.7783	9.3432	1.9724	-1.5942	0.4513	-0.7441	-0.3089	-0.1381	-0.3903	-0.3182
-0.7377	-0.5456	9.9478	0.1549	0.1757	-0.0511	0.2522	0.6435	-0.8508	2.8974	0.0394	9.6199	0.0654	0.1113	0.2243	0.4447	-0.3491	-1.7773	9.6362	1.6809	-1.6463	0.0506	-0.8788	-0.8046	-0.1441	-0.3782	-0.3002
-1.0908	-0.1418	9.7694	-0.0294	0.0855	-0.0571	0.2528	0.5948	-0.8052	2.8918	-0.4807	9.2712	0.0024	0.1184	0.1008	0.4099	-0.3504	-1.7567	9.2206	1.4479	-1.8825	0.2048	-1.2006	-0.4228	-0.1441	-0.3662	-0.3002
-0.9815	-0.6618	9.3679	-0.1523	0.0254	-0.0611	0.1994	0.6407	-0.7634	2.5504	-0.5376	9.6129	-0.0274	0.1789	0.136	0.4457	-0.3027	-1.7778	9.5802	2.2635	-1.4751	0.3598	-1.4003	-0.004	-0.1441	-0.3722	-0.3002
-1.2141	-0.0847	9.4222	-0.0903	0.2334	0.1041	0.1975	0.5711	-0.8283	2.3107	-0.0759	9.2033	0.0346	0.1764	0.1666	0.4464	-0.3032	-1.7351	9.9369	1.6232	-1.299	0.2998	-1.4345	0.1177	-0.1381	-0.3782	-0.3122
-1.2799	-0.3162	9.0179	-0.1204	0.0042	-0.2772	0.1776	0.5488	-0.8947	2.3747	-0.7107	9.4936	0.0039	0.2414	0.1088	0.4436	-0.3484	-1.8414	9.6359	1.9719	-1.6456	0.2107	-1.0982	0.2282	-0.1501	-0.3782	-0.3002
-1.5001	-0.1412	9.6463	-0.0305	-0.0673	-0.096	0.2174	0.6171	-0.7623	2.6704	-0.4797	9.8472	-0.0874	0.2047	0.2621	0.4798	-0.3715	-1.755	9.4609	1.7976	-1.5924	0.2711	-0.7524	-0.0003	-0.1441	-0.3782	-0.2942
-1.2063	-0.5451	9.7661	0.0025	0.1232	-0.2085	0.2344	0.5708	-0.8051	2.5502	-0.3643	9.6132	0.0995	0.323	0.3	0.4446	-0.3725	-1.7557	9.6424	2.1474	-1.3034	0.1764	-0.4569	-0.5377	-0.1441	-0.3963	-0.3122
-0.9684	0.2624	10.1177	-0.0283	0.0927	-0.2104	0.2162	0.6426	-0.8295	2.9518	-0.4806	9.3883	0.1001	0.5474	0.1283	0.429	-0.2803	-1.757	9.3398	1.972	-1.7651	0.5091	-0.1691	-0.9559	-0.1381	-0.3843	-0.2882
-0.804	0.0879	9.6032	0.0974	0.4628	-0.2205	0.235	0.5941	-0.7835	2.4382	-0.1907	9.8434	0.1292	0.4899	0.0313	0.4977	-0.3241	-1.7978	9.6997	1.4485	-1.4179	0.4756	-0.157	-1.324	-0.1321	-0.3843	-0.3122
-0.8602	-0.3154	9.6585	0.0991	0.6773	-0.1783	0.2343	0.619	-0.8285	2.7268	-0.0756	9.7907	0.2793	0.0846	0.0663	0.4277	-0.3735	-1.7134	9.1732	2.3227	-1.2549	0.3834	-0.2783	-1.3603	-0.1501	-0.3843	-0.3182
-0.3872	-0.2001	10.0706	0.1299	0.7077	-0.1764	0.2165	0.6182	-0.8067	2.7825	0.0396	9.6759	0.4645	0.1782	-0.0216	0.4631	-0.349	-1.7343	9.1628	1.5646	-1.8264	0.5366	-0.3768	-1.2129	-0.1501	-0.3843	-0.3002
-1.0971	-0.4308	9.4236	-0.0228	0.6523	-0.2726	0.1796	0.6184	-0.8299	2.2614	-0.3639	9.666	0.249	-0.0147	0.2152	0.3914	-0.3739	-1.7782	9.5197	1.7394	-1.5914	0.3875	-0.6384	-0.7026	-0.1561	-0.3903	-0.3062
-0.6887	0.0298	9.5478	0.0983	0.5847	-0.1832	0.2345	0.5946	-0.8057	2.3742	-0.3643	9.494	-0.0302	-0.0348	0.091	0.4111	-0.3277	-1.7142	9.5742	1.6223	-1.8185	0.1487	-0.53	-0.1723	-0.1501	-0.3782	-0.3062
-1.1534	-0.1998	9.538	0.4975	0.5323	-0.4908	0.1988	0.6175	-0.785	2.3181	-0.1908	9.6092	0.0001	-0.1628	0.1757	0.3749	-0.3751	-1.7145	9.5288	1.6823	-1.1358	0.1209	-0.5714	0.164	-0.1441	-0.3963	-0.3182
-1.0383	-0.2002	9.4828	0.2789	0.1857	-0.2956	0.2346	0.5465	-0.7823	2.7175	-0.1918	9.2684	0.0633	0.0236	0.1254	0.4107	-0.3275	-1.7356	9.4494	2.0873	-2.1614	0.0914	-0.3557	0.1755	-0.1381	-0.3843	-0.3122
-0.6222	-0.1423	9.9511	0.0346	0.2491	-0.2631	0.2534	0.618	-0.7836	2.4964	-0.364	9.8442	-0.0001	-0.0968	0.0868	0.4114	-0.328	-1.6929	9.5217	1.9725	-1.4769	0.15	-0.4724	-0.0463	-0.1381	-0.3782	-0.3122
-0.8613	-0.3156	9.601	0.1862	0.1223	-0.2381	0.2521	0.5716	-0.8268	2.6019	-0.3649	9.2661	0.0016	-0.0076	0.1547	0.4445	-0.3254	-1.8202	9.6464	1.5657	-1.1339	0.1196	-0.4097	-0.0735	-0.1321	-0.3963	-0.3122
-0.8117	-0.0861	9.2002	0.2466	0.0583	-0.2104	0.2352	0.6179	-0.7841	2.7852	-0.4222	9.7913	-0.0922	0.0323	0.0025	0.4455	-0.3496	-1.7346	9.5276	1.6821	-1.1928	0.24	-0.3115	-0.2846	-0.1561	-0.3843	-0.3062
-0.6883	-0.2008	9.5473	0.2197	0.4318	-0.2521	0.2528	0.5948	-0.8052	2.1996	-0.5951	9.4326	0.0632	-0.0409	0.1833	0.4641	-0.3027	-1.7347	9.4641	1.9145	-1.4212	0.2399	-0.2172	-0.3412	-0.1261	-0.3843	-0.2822
-1.0286	-0.4297	9.9423	0.2188	0.426	-0.1295	0.2714	0.5944	-0.7826	2.613	-0.0753	9.9047	0.0935	-0.0061	0.0923	0.4815	-0.3256	-1.7128	9.5864	1.6821	-1.1917	0.3288	-0.2081	-0.649	-0.1441	-0.3843	-0.3062
-0.9124	-0.3723	9.9448	0.0972	0.4613	-0.1898	0.2341	0.5952	-0.8279	2.7216	-0.076	9.5006	-0.1235	-0.0947	0.0875	0.4477	-0.2805	-1.6926	9.7531	2.3211	-1.6425	0.5734	-0.2766	-0.5008	-0.1441	-0.3662	-0.2822
-0.7411	0.0306	9.8342	-0.0554	0.4942	-0.1891	0.2168	0.5939	-0.784	2.3069	-0.3649	8.9709	-0.0887	-0.0166	0.3719	0.4109	-0.304	-1.7572	9.2823	1.8558	-1.7095	0.9397	-0.0951	-0.4943	-0.1321	-0.3722	-0.3002
-0.9746	-0.0843	9.7718	-0.0886	0.2155	-0.1735	0.2343	0.619	-0.8285	2.6025	-0.0184	9.3246	-0.1208	0.0222	0.2193	0.4451	-0.3493	-1.756	9.4564	1.7971	-1.8203	0.6623	-0.0175	-0.9185	-0.1381	-0.3903	-0.2882
-1.0949	0.2037	9.5977	0.0043	0.3965	-0.1017	0.2721	0.6176	-0.7609	2.7837	-0.0758	9.7337	0.0627	-0.0056	0.0925	0.4464	-0.3032	-1.7351	9.5783	1.9139	-1.5899	0.7862	0.0987	-0.729	-0.1501	-0.3903	-0.2942
-0.9173	-0.2575	9.715	0.0957	0.2189	-0.295	0.199	0.5931	-0.7622	2.611	-0.191	9.7885	-0.1511	0.118	0.1636	0.4637	-0.3024	-1.7561	9.5782	2.0304	-1.5896	0.7542	0.0423	-0.8854	-0.1261	-0.3782	-0.3002
-0.9199	-0.0849	9.6004	0.0973	0.404	-0.2851	0.2146	0.5486	-0.8716	2.7231	-0.4224	9.5582	-0.1843	-0.1628	0.2386	0.4634	-0.3493	-1.7129	9.5783	1.9139	-1.5899	0.6907	-0.1974	-1.0819	-0.1381	-0.3903	-0.3002
-1.0892	-0.3722	9.8263	0.2171	0.1821	-0.204	0.1975	0.5711	-0.8283	2.8948	-0.365	9.4454	0.2441	-0.2516	0.0136	0.3922	-0.3509	-1.7571	9.7546	1.972	-1.5864	0.631	-0.1393	-0.9554	-0.1261	-0.4023	-0.3062
-1.0977	-0.1426	9.4243	0.3086	0.1795	-0.1728	0.2162	0.6426	-0.8295	2.3178	0.0401	9.6095	0.1545	-0.0364	0.059	0.4271	-0.3496	-1.7777	9.7567	2.0887	-1.4722	0.4167	-0.1643	-1.0779	-0.1441	-0.3722	-0.3062
-0.8065	-0.3738	9.4295	0.0951	0.2146	-0.2031	0.2168	0.5939	-0.784	2.5499	-0.1911	9.6134	-0.1529	-0.2308	0.3583	0.411	-0.3511	-1.6927	9.7526	1.7388	-1.7009	0.3557	-0.0696	-1.134	-0.1441	-0.3903	-0.3002
-1.2681	-0.4301	9.5927	0.2164	0.1484	-0.1443	0.2161	0.5707	-0.8056	2.6668	-0.1335	9.6736	0.337	-0.2224	0.015	0.4285	-0.3035	-1.7568	9.8732	2.0302	-1.527	0.1123	-0.006	-1.1287	-0.1501	-0.3782	-0.3002
-0.8628	-0.1428	9.5439	0.1255	0.2421	-0.1399	0.2162	0.6426	-0.8295	3.0162	-0.5957	9.7372	0.1563	0.0851	0.098	0.4083	-0.3729	-1.8205	9.4009	1.914	-1.6502	0.0841	0.0797	-0.9088	-0.1441	-0.3963	-0.3002
-0.8579	-0.3152	9.7736	-0.0252	0.2585	-0.4474	0.1983	0.6181	-0.8072	2.8389	-0.3648	9.5604	0.0299	-0.2233	0.1406	0.4102	-0.3506	-1.7354	9.8122	1.9717	-1.6422	-0.19	0.082	-0.9064	-0.1381	-0.3903	-0.3002
-0.8666	0.0298	9.3718	0.0957	0.1895	-0.3273	0.2159	0.595	-0.8284	2.952	-0.5961	9.3881	-0.1838	-0.0352	0.1538	0.4273	-0.3733	-1.7348	9.8179	1.9142	-1.3575	-0.3423	0.0208	-0.8776	-0.1441	-0.3662	-0.2942
-0.9746	-0.0843	9.7718	-0.0273	0.2161	-0.2038	0.1995	0.5926	-0.74	2.4385	-0.4216	9.8431	-0.0924	-0.129	0.1473	0.4786	-0.3941	-1.7975	9.402	1.9141	-1.5932	-0.28	-0.0164	-0.6955	-0.1441	-0.3903	-0.3062
-0.5702	-0.5468	9.6063	0.0021	0.1203	-0.1472	0.1982	0.5461	-0.7833	2.7217	-0.1915	9.5005	0.001	0.0277	0.0639	0.4445	-0.3254	-1.8202	9.5265	1.682	-1.2498	-0.2508	0.0508	-0.8768	-0.1441	-0.3963	-0.3002
-0.8571	-0.1421	9.8315	-0.0295	0.0267	-0.1217	0.2536	0.6418	-0.7842	2.8388	-0.307	9.5604	0.095	0.1492	0.0714	0.4644	-0.3029	-1.7134	9.6385	1.623	-1.5325	-0.3711	0.0459	-0.6916	-0.1381	-0.3903	-0.2942
-1.0894	-0.2569	9.8266	-0.059	0.0637	-0.2429	0.198	0.6424	-0.83	2.9524	-0.1341	9.4467	0.2163	0.0271	0.0008	0.4461	-0.303	-1.7564	9.4577	1.6808	-1.7636	-0.37	0.2295	-0.6513	-0.1441	-0.3903	-0.2882
-0.9146	-0.4302	9.8296	-0.0273	0.2161	-0.2038	0.2354	0.6416	-0.7846	2.3215	-0.3638	9.783	0.0937	-0.0721	0.1812	0.428	-0.3267	-1.7566	9.7556	2.0885	-1.5291	-0.554	-0.1084	-0.6366	-0.1441	-0.3903	-0.2942
-1.0883	-0.2568	9.8841	-0.1808	0.2138	-0.1127	0.2535	0.5699	-0.7603	2.7226	-0.0759	9.5587	0.0912	-0.06	-0.0664	0.4464	-0.3032	-1.7351	9.2768	1.7386	-1.9947	-0.7979	0.0822	-0.7477	-0.1561	-0.3903	-0.2942
-1.1534	-0.1998	9.538	0.0356	0.3136	-0.3211	0.1805	0.6173	-0.7855	2.5987	-0.3651	9.0921	0.0295	-0.2541	0.1386	0.4637	-0.3024	-1.7561	9.6961	1.7392	-1.5881	-0.8281	-0.1686	-0.6067	-0.1561	-0.3782	-0.2882
-0.9723	-0.0841	9.8868	0.0661	0.4295	-0.161	0.2163	0.5945	-0.8062	2.6048	-0.2492	9.4403	0.0935	-0.2335	0.3259	0.4624	-0.3957	-1.7124	9.5771	2.0302	-1.6466	-0.764	-0.0876	-0.2648	-0.1381	-0.3782	-0.3002
-0.8023	-0.2003	9.66	0.0337	0.0977	-0.3326	0.2167	0.642	-0.8073	2.8948	-0.4227	9.4453	-0.0889	0.0817	0.2541	0.4994	-0.2782	-1.7556	9.8137	1.6808	-1.586	-0.6116	0.0044	-0.292	-0.1261	-0.3963	-0.2882
-1.0351	-0.0845	9.6556	0.0335	0.1257	-0.2697	0.1989	0.5694	-0.7617	2.5458	-0.1914	9.3813	-0.0264	0.2067	0.1999	0.392	-0.3273	-1.8	9.7002	2.089	-1.3594	-0.6127	-0.1792	-0.3323	-0.1561	-0.3843	-0.3062
-0.8059	-0.0854	9.4877	-0.0291	0.0002	-0.2153	0.2165	0.6182	-0.8067	2.893	-0.6539	9.329	1.884	0.1514	0.0323	0.4294	-0.3277	-1.6712	9.1625	1.8556	-1.8257	-0.6729	-0.2442	-0.2122	-0.1501	-0.3843	-0.3122
-1.0367	0.146	9.5987	0.0018	0.0895	-0.1489	0.2166	0.5701	-0.7834	2.6016	-0.1339	9.2664	0.2248	0.5715	0.2224	0.4275	-0.3499	-1.7563	9.7016	1.7981	-1.3031	-0.5546	-0.419	-0.5605	-0.1381	-0.3963	-0.3002
-0.9243	-0.2007	9.3701	-0.0281	0.1236	-0.2087	0.1976	0.5948	-0.8288	2.2606	-0.5372	9.6077	-0.145	0.5762	0.2555	0.4631	-0.349	-1.7343	9.5231	1.7398	-1.4205	-0.2487	-0.3332	-0.4355	-0.1441	-0.3782	-0.2942
-0.9784	-0.4884	9.5408	0.0334	0.1831	-0.1744	0.1978	0.6186	-0.8294	2.4333	0.3864	9.6121	-0.1475	0.3932	0.2125	0.4266	-0.3728	-1.7775	9.5203	2.2634	-1.5332	0.0542	-0.4857	-0.5689	-0.1321	-0.3722	-0.3062
-0.8033	-0.258	9.6023	-0.1513	0.09	-0.1191	0.2528	0.6667	-0.8291	2.4249	-0.3649	9.089	-0.0253	0.494	0.0012	0.4808	-0.3251	-1.7555	9.5825	1.1576	-1.4208	0.1182	-0.4355	-0.2286	-0.1441	-0.3963	-0.3062
-0.6237	0.0306	9.894	0.0952	0.1572	-0.2983	0.2346	0.6665	-0.8296	2.7265	-0.6531	9.732	-0.2451	0.0288	0.1272	0.4104	-0.3272	-1.7569	9.6959	1.8556	-1.5878	0.5146	-0.7227	-0.0315	-0.1381	-0.3963	-0.3302
-0.8034	-0.2004	9.6025	-0.0591	0.0917	-0.1799	0.2356	0.5454	-0.738	2.6678	-0.0756	9.7317	-0.0257	0.2036	0.2618	0.4285	-0.3035	-1.7568	9.6907	1.5638	-1.8733	0.6974	-0.6617	-0.0606	-0.1381	-0.3903	-0.3182
-1.3219	-0.3141	9.8218	-0.1216	-0.0618	-0.1885	0.2333	0.5001	-0.8256	2.5522	-0.3642	9.7292	0.0078	0.4829	0.2177	0.4267	-0.3494	-1.799	9.3467	1.7982	-1.4237	0.8804	-0.6017	-0.059	-0.1501	-0.4023	-0.2942
-1.2679	0.0313	9.6513	-0.0282	0.0354	-0.3056	0.2534	0.618	-0.7836	2.6647	-0.942	9.4985	-0.6675	0.7387	0.2684	0.4104	-0.3272	-1.7569	9.5785	1.7393	-1.5903	1.1267	-0.1759	0.0534	-0.1441	-0.3903	-0.3122
-0.6872	-0.7196	9.546	-0.0616	-0.0698	-0.0349	0.2355	0.5935	-0.7613	2.8412	-0.5379	9.6762	-0.116	0.6493	0.0117	0.4115	-0.2574	-1.779	9.9908	1.9718	-1.5249	1.3069	-0.1676	-0.2551	-0.1501	-0.3722	-0.2882
-1.0991	-0.0274	9.3671	-0.0586	0.2696	-0.0167	0.2533	0.5461	-0.7597	2.5505	-0.5953	9.6129	-0.5381	1.1303	0.4175	0.4291	-0.2569	-1.7786	9.4651	2.0893	-1.3638	1.2144	-0.0061	-0.4612	-0.1321	-0.3782	-0.2822
-0.8663	-0.1432	9.3714	0.1266	0.3949	-0.101	0.2163	0.5945	-0.8062	2.8385	-0.0761	9.5607	-0.6634	1.1414	0.2325	0.4276	-0.3264	-1.7779	9.3432	1.9142	-1.5944	1.3344	-0.2503	-0.5671	-0.1441	-0.3843	-0.3062
-1.1431	-0.1986	10.0556	0.0965	0.457	-0.0979	0.2159	0.595	-0.8284	2.4297	-0.0758	9.3794	-0.7236	1.0704	0.4455	0.4087	-0.4202	-1.7347	9.3434	1.7978	-1.5946	1.3618	-0.6457	-0.7417	-0.1381	-0.3963	-0.2942
-0.9759	-0.0268	9.7144	0.0066	0.6153	-0.1514	0.253	0.5705	-0.7824	2.6688	-0.0756	9.7897	-0.8826	0.6087	0.4783	0.4092	-0.397	-1.7349	9.524	1.9728	-1.363	1.9114	-0.9063	-0.4522	-0.1561	-0.3782	-0.3002
-1.0353	0.0308	9.6559	0.0667	0.4912	-0.1577	0.2341	0.6671	-0.8518	2.4943	-0.3641	9.7282	-0.5454	0.3202	0.5822	0.4105	-0.3038	-1.7785	9.515	1.9717	-1.8187	2.0623	-1.2153	-0.4695	-0.1381	-0.3903	-0.3182
-0.9167	-0.5458	9.7143	0.0055	0.6081	0.0019	0.2722	0.5695	-0.7376	2.488	-0.3068	9.3802	-0.486	0.0379	0.6567	0.4464	-0.3032	-1.7351	9.4497	1.8545	-2.1619	2.4572	-1.434	-0.4841	-0.1561	-0.3782	-0.2942
-1.3794	-0.0256	9.8789	0.1256	0.2142	-0.2029	0.2352	0.6179	-0.7841	2.6648	-0.1913	9.5575	-0.2719	-0.1194	0.6455	0.4447	-0.3491	-1.7773	9.7571	1.7394	-1.473	2.825	-1.3209	-0.266	-0.1441	-0.3782	-0.3002
-0.9798	-0.3733	9.4836	0.1255	0.2715	-0.1076	0.216	0.6188	-0.8289	2.7179	0.3279	9.3271	-0.2748	-0.0735	0.338	0.4293	-0.2806	-1.7357	9.3365	1.9134	-1.9362	2.8587	-1.1146	0.0212	-0.1441	-0.3782	-0.3062
-1.385	-0.1416	9.5911	0.1587	0.5208	-0.1555	0.2708	0.5712	-0.8042	2.547	-0.3646	9.4391	-0.1838	-0.0352	0.1538	0.4099	-0.3504	-1.7567	9.4036	1.5068	-1.5372	2.9238	-0.9751	0.4584	-0.1321	-0.4023	-0.3062
-0.627	-0.0275	9.7213	0.1271	0.4272	-0.13	0.216	0.6188	-0.8289	2.951	0.1545	9.3891	-0.2456	-0.131	0.241	0.4454	-0.3025	-1.7991	9.461	1.7394	-1.5925	2.6518	-0.5738	0.5122	-0.1321	-0.3903	-0.3062
-0.9211	-0.085	9.5429	-0.0254	0.4027	-0.2245	0.2157	0.5712	-0.8278	2.7831	-0.4223	9.6753	-0.1845	-0.0645	0.1208	0.3936	-0.3048	-1.7362	9.3434	1.7978	-1.5946	2.4373	-0.4728	0.304	-0.1441	-0.3903	-0.2882
-0.981	0.2032	9.485	-0.2379	0.5905	-0.2158	0.2164	0.5463	-0.7828	2.954	-0.596	9.5041	-0.0599	0.1548	0.0103	0.4107	-0.3275	-1.7356	9.5194	2.0304	-1.5907	2.1334	-0.2538	0.2871	-0.1321	-0.3963	-0.3062
-1.0364	0.0307	9.5984	-0.1458	0.6496	-0.1813	0.1983	0.6181	-0.8072	3.0096	-0.3652	9.3895	-0.0639	-0.1835	-0.0116	0.4288	-0.3037	-1.7354	9.6401	2.2054	-1.4172	1.5817	-0.1104	-0.1929	-0.1441	-0.3843	-0.3002
-1.0429	-0.2008	9.2528	-0.1452	0.6245	-0.3056	0.2336	0.5958	-0.8501	2.6087	-0.0179	9.6727	0.0003	-0.2289	0.2645	0.4641	-0.3027	-1.7347	9.9288	1.8551	-1.6972	0.88	-0.0995	-0.3403	-0.1501	-0.3782	-0.3002
-1.2726	-0.4883	9.3625	-0.1431	0.8713	-0.2924	0.2156	0.6194	-0.8511	2.9557	-0.2494	9.6206	0.1527	-0.4175	0.2826	0.4459	-0.3264	-1.7348	9.6924	2.0298	-1.7583	0.4256	-0.0112	-0.0861	-0.1441	-0.3963	-0.2942
-0.9158	0.1463	9.831	0.0985	0.47	-0.3738	0.2345	0.5946	-0.8057	2.4918	-0.0178	9.6126	0.3017	-0.6554	0.0491	0.4267	-0.3494	-1.799	9.5777	1.5063	-1.6478	-0.1833	-0.0378	-0.0517	-0.1501	-0.3843	-0.3002
-1.0377	-0.4885	9.4822	0.0992	0.6199	-0.2735	0.181	0.6167	-0.7633	2.6101	-0.2488	9.7304	0.3023	-0.6584	0.111	0.4627	-0.3488	-1.7556	9.4019	1.9723	-1.5931	-0.7633	-0.028	-0.2002	-0.1501	-0.3843	-0.3002
-1.3289	-0.2573	9.4769	0.0381	0.5339	-0.4015	0.2355	0.5935	-0.7613	2.4971	-0.0752	9.9026	0.3621	-0.6826	-0.0461	0.4104	-0.3272	-1.7569	9.5194	2.0304	-1.5907	-1.1266	-0.1271	0.1051	-0.1321	-0.3782	-0.3062
-0.98	-0.258	9.4839	-0.1466	0.4703	-0.3139	0.2336	0.5958	-0.8501	2.5995	-0.1341	9.1504	0.459	-0.3152	-0.0226	0.4091	-0.3499	-1.7994	9.7569	1.8558	-1.4727	-1.8914	0.1114	-0.399	-0.1561	-0.3843	-0.3182
-1.2744	-0.1425	9.3059	-0.0236	0.4436	-0.4374	0.1981	0.5943	-0.8066	2.8393	0.1549	9.6191	0.5185	-0.4685	-0.0639	0.4269	-0.326	-1.8206	9.756	1.7392	-1.53	-2.1327	0.2297	-0.1756	-0.1321	-0.3782	-0.3062
-0.6243	-0.2578	9.8358	-0.9748	0.2312	-0.2705	0.2341	0.5952	-0.8279	2.5524	-0.4797	9.729	0.2739	-0.3444	0.0074	0.3919	-0.3507	-1.7784	9.8076	2.1458	-1.8697	-2.4707	0.3068	-0.5686	-0.1381	-0.3843	-0.3122
-1.0906	-0.2571	9.7691	-0.2093	0.2859	-0.3241	0.2168	0.5939	-0.784	2.721	-0.4225	9.4422	0.2433	-0.1826	-0.1372	0.429	-0.2803	-1.757	9.6337	1.9717	-1.7595	-2.8678	0.6277	-0.8562	-0.1441	-0.3903	-0.3122
-0.9777	-0.2577	9.5989	0.0054	0.2581	-0.4472	0.1981	0.5943	-0.8066	2.3204	-0.3639	9.725	0.3665	-0.2492	-0.08	0.4104	-0.3272	-1.7569	9.5087	1.6215	-2.1614	-2.8993	0.5069	-0.9237	-0.1381	-0.3843	-0.3062
-0.8018	-0.4309	9.6594	0.2833	0.7087	-0.2369	0.2159	0.595	-0.8284	2.2626	-0.4793	9.7238	0.3039	-0.2113	-0.2014	0.4283	-0.3269	-1.7352	9.6383	1.8558	-1.5319	-3.3568	0.3251	-0.8986	-0.1441	-0.3782	-0.3122
-0.9754	-0.2574	9.7139	-1.2518	0.0776	-0.2191	0.1789	0.5952	-0.8515	2.4326	0.1554	9.5537	0.3053	-0.1851	-0.1066	0.4608	-0.4181	-1.7763	9.3967	1.6224	-1.8788	-3.6028	0.3053	-1.1744	-0.1321	-0.3903	-0.3002
-0.8056	-0.2583	9.4873	-0.1766	0.4161	-0.4706	0.2357	0.6173	-0.7619	2.8496	-0.595	10.1402	0.4313	-0.1025	0.0535	0.3919	-0.3507	-1.7784	9.5773	1.8556	-1.647	-3.6952	0.31	-1.2964	-0.1441	-0.3782	-0.2822
-0.8636	-0.3159	9.486	-0.2697	0.2337	-0.5117	0.1984	0.5699	-0.7839	2.6719	-0.826	9.9047	0.3687	-0.0647	-0.068	0.4288	-0.3037	-1.7354	9.6326	1.9715	-1.8165	-3.8185	0.2852	-1.4504	-0.1441	-0.3963	-0.3062
-0.6898	-0.0279	9.4902	-0.2084	0.3211	-0.4145	0.1989	0.6413	-0.7856	2.7237	-0.942	9.5575	0.2422	-0.2748	-0.1432	0.4459	-0.3264	-1.7348	9.632	1.4475	-1.8747	-3.5431	0.2154	-1.2718	-0.1381	-0.3782	-0.2882
-1.2044	-0.3142	9.8816	-0.2368	0.4815	-0.529	0.2352	0.6179	-0.7841	2.5495	-0.6531	9.5548	0.1836	-0.0938	-0.038	0.4456	-0.3262	-1.7562	9.5748	2.0299	-1.7605	-3.237	0.2695	-1.1178	-0.1501	-0.4023	-0.3002
-1.3862	-0.0841	9.5337	-0.2395	0.2892	-0.3856	0.1988	0.6175	-0.785	2.8378	-0.3649	9.5024	0.2765	-0.0646	-0.0365	0.429	-0.2803	-1.757	9.2915	1.624	-1.2544	-2.6271	0.1363	-0.9759	-0.1381	-0.3903	-0.2762
-0.867	0.2027	9.3723	0.0674	0.3793	-0.4096	0.2525	0.6192	-0.828	2.6084	-0.5954	9.6139	0.4645	0.146	0.0074	0.4277	-0.303	-1.7995	9.7573	1.5647	-1.4734	-2.4446	-0.0836	-0.8966	-0.1321	-0.3963	-0.2882
-1.4968	-0.0832	9.8189	0.0361	0.3753	-0.3178	0.2349	0.6422	-0.8068	2.8415	0.0396	9.7349	0.0914	0.1013	-0.2112	0.4642	-0.2793	-1.7563	9.4608	1.9141	-1.5921	-1.9884	-0.0537	-0.991	-0.1501	-0.3843	-0.2882
-1.5059	-0.1419	9.3588	-0.0869	0.227	-0.4187	0.2165	0.6182	-0.8067	2.3158	0.04	9.4935	0.0936	0.0907	0.0055	0.4292	-0.304	-1.7141	9.2273	1.507	-1.5406	-1.5309	-0.3731	-0.7654	-0.1441	-0.3963	-0.2942
-1.1478	-0.1415	9.8257	-0.0003	-0.1279	-0.1298	0.217	0.6177	-0.7845	2.61	-0.1911	9.7305	0.0348	0.2732	0.0797	0.4468	-0.3035	-1.7137	9.2272	1.5652	-1.5405	-1.3163	-0.4741	-0.5571	-0.1561	-0.3843	-0.3002
-1.0972	-0.3732	9.4238	-0.0295	0.0267	-0.1217	0.2159	0.595	-0.8284	2.8972	-0.6536	9.561	0.0963	0.1431	0.1952	0.4116	-0.3045	-1.7145	9.3566	1.9741	-0.9106	-1.0129	-0.5661	-0.6566	-0.1441	-0.3782	-0.3062
-0.6243	-0.2578	9.8358	-0.0603	0.0551	-0.0589	0.2535	0.5699	-0.7603	2.5512	-0.3643	9.6712	0.0946	0.0861	0.0983	0.4113	-0.2809	-1.7574	9.5295	1.9735	-1.0782	-0.5244	-0.4183	-0.5914	-0.1501	-0.3722	-0.3182
-1.1593	-0.1429	9.2507	-0.0603	0.0257	-0.0912	0.216	0.6188	-0.8289	2.6075	0.0975	9.6148	0.0041	0.4027	-0.0359	0.3919	-0.3507	-1.7784	9.4601	1.5647	-1.6499	0.0249	-0.3336	-0.4993	-0.1501	-0.3843	-0.3002
-1.0306	-0.0263	9.8858	-0.0894	0.1523	-0.1461	0.2357	0.6173	-0.7619	2.2066	-0.3636	9.839	-0.1808	0.2753	0.1119	0.4123	-0.305	-1.6718	9.344	2.2054	-1.5367	0.4844	-0.5041	-0.1122	-0.1261	-0.3903	-0.3062
-1.2676	-0.084	9.651	-0.1192	0.2159	-0.1736	0.1986	0.5937	-0.7844	2.6592	0.1547	9.2678	0.0043	0.2722	0.1108	0.4451	-0.3493	-1.756	9.9353	2.0305	-1.355	0.7865	-0.5285	-0.3926	-0.1441	-0.4023	-0.3122
-1.0442	0.4334	9.2543	-0.2106	0.3067	-0.1079	0.2172	0.6415	-0.7851	2.6053	-0.5956	9.4399	-0.119	0.1437	0.2583	0.3934	-0.2811	-1.7791	9.4581	2.2631	-1.7052	0.8482	-0.407	-0.3561	-0.1501	-0.3843	-0.3062
-1.2095	-0.0841	9.6522	-0.1501	0.156	-0.2078	0.2154	0.5956	-0.8505	2.717	-0.596	9.2099	0.0023	0.0217	0.1877	0.4275	-0.3499	-1.7563	9.6924	2.0298	-1.7583	1.1844	-0.5398	-0.1505	-0.1321	-0.3722	-0.3002
-1.0428	-0.2584	9.2527	-0.0905	0.1451	0.0072	0.2173	0.5933	-0.7618	2.5489	-0.1912	9.5554	-0.2748	0.1216	0.1334	0.4123	-0.305	-1.6718	9.4649	2.2057	-1.3635	1.4575	-0.4756	-0.3031	-0.1561	-0.3843	-0.2942
-1.2643	-0.6026	9.7648	-0.0595	0.2638	0.1059	0.236	0.6649	-0.763	2.7254	-0.6532	9.6739	-0.2109	0.3696	0.0871	0.4277	-0.303	-1.7995	9.1679	2.031	-1.5405	1.4878	-0.5066	-0.305	-0.1321	-0.3782	-0.3062
-0.8072	-0.0279	9.4304	0.0613	-0.0096	-0.0309	0.2525	0.6192	-0.828	2.3761	-0.1909	9.6103	-0.1464	0.4854	0.2185	0.428	-0.3267	-1.7566	9.8085	2.3206	-1.8123	1.5516	-0.4555	0.0046	-0.1501	-0.3782	-0.3062
-1.0315	-0.1417	9.828	0.2153	0.025	-0.151	0.2343	0.619	-0.8285	2.4937	0.0978	9.7288	0.0698	0.4803	0.2483	0.4442	-0.3723	-1.7771	9.454	1.9714	-1.9338	1.4904	-0.454	-0.0255	-0.1561	-0.3963	-0.3002
-0.9248	-0.5468	9.3118	0.0043	0.3965	-0.1017	0.252	0.6197	-0.8502	2.6053	-0.5956	9.4399	0.1282	0.4299	-0.0037	0.3741	-0.3747	-1.7572	9.5763	1.739	-1.7042	1.2753	-0.2567	-0.3517	-0.1381	-0.3963	-0.3002
-0.8651	-0.143	9.4289	0.0954	0.3042	-0.1368	0.2345	0.5946	-0.8057	2.2622	-0.1329	9.7243	-0.0275	0.0821	0.2228	0.4459	-0.3264	-1.7348	9.8095	2.379	-1.7552	0.9369	-0.5537	-0.6104	-0.1381	-0.3963	-0.2942
-1.2071	-0.1415	9.7671	0.1592	0.5531	-0.1845	0.2166	0.5701	-0.7834	2.4955	-0.4795	9.786	-0.0576	0.1442	0.227	0.3936	-0.3048	-1.7362	9.4022	1.7395	-1.5937	0.9348	-0.6709	-0.801	-0.1501	-0.3843	-0.3002
-1.2074	-0.5452	9.7086	0.1596	0.7016	-0.0536	0.1975	0.5711	-0.8283	2.493	-0.191	9.6704	-0.1494	0.0121	0.4361	0.445	-0.3728	-1.7344	9.6372	1.7974	-1.589	0.9056	-0.9574	-0.5082	-0.1381	-0.3963	-0.3062
-0.985	-0.0856	9.2543	0.0676	0.5557	-0.2157	0.2352	0.6179	-0.7841	2.253	-0.249	9.202	-0.3983	-0.2005	0.4545	0.4099	-0.3504	-1.7567	9.3966	1.7388	-1.8785	0.7549	-1.1814	-0.2111	-0.1321	-0.3963	-0.3002
-1.0945	-0.6035	9.5382	-0.0538	0.5337	-0.3713	0.216	0.5469	-0.805	2.8417	-0.1336	9.7347	-0.2742	0.1185	0.1952	0.4451	-0.3493	-1.756	9.8206	1.507	-1.2446	0.9982	-1.0881	-0.3005	-0.1501	-0.3903	-0.3002
-1.275	-0.4309	9.2477	0.1605	0.6779	-0.2086	0.1987	0.5456	-0.7611	2.608	-0.2489	9.6144	-0.2747	-0.0413	0.3091	0.4099	-0.3504	-1.7567	9.5194	2.0886	-1.5906	0.9435	-0.7986	0.2993	-0.1441	-0.3843	-0.3122
-1.0348	-0.1998	9.6554	0.1864	0.2399	-0.1089	0.2342	0.5471	-0.8045	3.0726	-0.1917	9.6808	-0.4253	0.2365	0.3589	0.4283	-0.3269	-1.7352	9.6905	1.7385	-1.8729	1.0041	-0.7039	0.2114	-0.1381	-0.3843	-0.3122
-0.9828	-0.0276	9.3694	0.1583	0.5473	-0.0619	0.1439	0.5932	-0.7858	2.8355	-0.1341	9.3866	-0.4567	0.3369	0.2103	0.3901	-0.3966	-1.8207	9.3996	2.0885	-1.7067	1.1565	-0.2675	0.0176	-0.1381	-0.3662	-0.2882
-0.8597	-0.546	9.658	0.0651	0.4517	0.0246	0.2165	0.6182	-0.8067	2.5493	-0.5376	9.5549	-0.2709	0.363	0.2422	0.4639	-0.3261	-1.7131	9.4541	1.855	-1.9341	1.2174	0.0138	-0.122	-0.1381	-0.4023	-0.3062
-0.8025	-0.085	9.6602	-0.0565	0.3708	-0.1957	0.1794	0.5947	-0.8293	2.8966	-0.1916	9.5616	-0.3367	0.2209	0.0159	0.3941	-0.2816	-1.7364	9.5108	1.7382	-2.0472	0.8815	0.239	-0.3228	-0.1381	-0.3963	-0.2942
-1.0351	-0.0845	9.6556	-0.0249	0.4644	-0.2212	0.2153	0.6437	-0.8739	3.0118	-0.4228	9.5054	0.0005	-0.0998	0.1487	0.4283	-0.3269	-1.7352	9.642	1.5069	-1.3619	0.6354	0.0315	-0.516	-0.1381	-0.3963	-0.3002
-0.9191	0.0882	9.6584	0.2504	0.374	-0.3472	0.216	0.6188	-0.8289	2.5482	-0.48	9.497	0.1243	-0.0066	0.0922	0.41	-0.327	-1.7783	9.3461	2.3803	-1.4223	0.5142	-0.0012	-0.4245	-0.1501	-0.3903	-0.3002
-1.2283	-1.0667	8.6147	1.6289	0.4884	-0.5166	0.2361	0.6167	-0.7397	2.782	-0.4224	9.6173	-0.2162	-0.19	0.1749	0.3936	-0.3048	-1.7362	9.3997	1.9721	-1.707	0.2399	-0.2172	-0.3412	-0.1441	-0.3782	-0.3122
-1.1541	-0.4306	9.48	0.3142	0.5067	-0.5548	0.2163	0.5945	-0.8062	2.8355	-0.1341	9.3866	-0.371	-0.1843	0.1139	0.4111	-0.3277	-1.7142	9.7559	1.7975	-1.5298	0.089	-0.3151	-0.1299	-0.1261	-0.3903	-0.2942
-1.0275	-0.4296	9.9998	0.4058	0.5629	-0.459	0.2529	0.6186	-0.8058	2.6607	-0.2494	9.3253	-0.0629	-0.188	0.0812	0.41	-0.327	-1.7783	9.5249	2.1476	-1.3056	0.0884	-0.2189	-0.2478	-0.1441	-0.4023	-0.3062
-1.0917	-0.2572	9.7116	0.3435	0.4109	-0.4983	0.2347	0.6184	-0.8063	2.731	-0.0753	10.0228	-0.2453	-0.1002	0.243	0.4809	-0.3017	-1.777	9.2242	2.2052	-1.6529	-0.274	-0.2901	0.1511	-0.1501	-0.3903	-0.2942
-1.2691	-0.4879	9.5351	0.221	0.3242	-0.5959	0.2345	0.5946	-0.8057	2.3175	-0.4796	9.5508	-0.3369	0.0596	0.1607	0.4459	-0.3264	-1.7348	9.6325	2.0297	-1.8164	0.0299	-0.3215	0.0855	-0.1441	-0.3722	-0.2942
-1.2636	0.2048	9.8817	-0.1778	0.2045	-0.5742	0.2357	0.6173	-0.7619	2.6037	-0.1915	9.3824	-0.3976	0.1206	0.1959	0.3919	-0.3507	-1.7784	9.6411	2.3219	-1.3599	-0.0319	-0.2863	-0.0351	-0.1441	-0.3903	-0.3062
-0.8694	-0.3165	9.1985	-0.2395	0.1436	-0.5778	0.1801	0.6179	-0.8077	2.72	-0.4803	9.3841	-0.8253	0.271	0.425	0.4262	-0.3726	-1.7988	9.8065	2.0875	-1.9268	-0.0366	-0.2368	-0.6167	-0.1441	-0.3963	-0.3002
-1.2657	-0.4875	9.7076	-0.3606	0.3274	-0.5073	0.2153	0.6437	-0.8739	2.3149	-0.1333	9.4353	-0.3045	0.2789	0.0816	0.4102	-0.3506	-1.7354	9.6949	1.7972	-1.6449	0.0503	-0.0948	-1.225	-0.1441	-0.3903	-0.3002
-0.6231	-0.2577	9.8933	-0.0219	0.4551	-0.6827	0.1802	0.6417	-0.8082	2.2646	-0.4214	9.8399	-0.1506	0.2778	0.0498	0.3749	-0.3046	-1.8006	9.6925	1.9134	-1.7585	-0.2558	0.0387	-1.4616	-0.1321	-0.3843	-0.2882
-1.3256	-0.1992	9.6496	-0.0502	0.7905	-0.5727	0.2721	0.6176	-0.7609	2.3158	0.04	9.4935	0.0287	-0.3478	0.1635	0.4099	-0.3504	-1.7567	9.9287	1.9715	-1.697	-0.653	0.047	-1.6117	-0.1441	-0.3903	-0.3002
-1.3188	-0.1407	9.9948	0.0145	1.0452	-0.7431	0.2528	0.5948	-0.8052	2.6124	-0.4796	9.8461	0.7615	-1.072	0.2062	0.3911	-0.3502	-1.8211	9.7546	1.9137	-1.5865	-0.9522	0.0289	-0.9644	-0.1501	-0.3782	-0.3062
-0.9805	-0.0274	9.4844	0.1708	1.4148	-0.753	0.2341	0.5952	-0.8279	2.3789	0.0403	9.7846	2.0465	-1.8241	-0.0038	0.3927	-0.3278	-1.7573	9.7489	2.0877	-1.8709	-1.1046	-0.345	-0.7981	-0.1501	-0.3963	-0.2882
-1.0956	-0.6037	9.4807	-0.3825	1.0252	-0.8697	0.2178	0.6647	-0.7635	2.4332	-0.3643	9.5531	1.6193	-1.8058	0.403	0.4102	-0.3506	-1.7354	9.7502	1.855	-1.8145	-1.1035	-0.3807	-0.6463	-0.1381	-0.3903	-0.3002
-1.212	0.0309	9.5374	-0.2903	1.0269	-0.9305	0.2349	0.6422	-0.8068	3.1171	0.5002	8.9866	1.8345	-1.8386	0.3688	0.4091	-0.3499	-1.7994	9.4594	2.1468	-1.6485	-1.012	-0.4757	-0.5904	-0.1501	-0.3903	-0.3002
-1.0989	-0.1427	9.3668	-0.0159	0.9014	-0.9661	0.2716	0.6182	-0.7831	2.7272	-0.4221	9.7903	1.2553	-1.3091	0.468	0.4109	-0.304	-1.7572	9.6393	1.9724	-1.4747	-0.6765	-0.418	-0.5594	-0.1201	-0.3903	-0.3002
-0.9821	-0.3736	9.3686	0.1647	0.8803	-0.5665	0.2165	0.6182	-0.8067	2.8399	-0.307	9.6185	0.9406	-1.2091	-0.2071	0.4653	-0.28	-1.6922	9.5803	2.1471	-1.4754	-0.5825	-0.116	-0.3908	-0.1381	-0.3843	-0.3122
-0.9787	-0.3731	9.5411	0.0727	0.7344	-0.7286	0.2157	0.6431	-0.8517	2.4914	-0.5376	9.5539	1.3444	-1.0021	-0.1644	0.4284	-0.374	-1.6707	9.922	1.9706	-2.0388	-0.6141	0.0768	-0.6265	-0.1261	-0.3963	-0.2882
-0.7526	0.0293	9.2591	0.1617	0.5116	-0.617	0.2167	0.642	-0.8073	2.832	-0.654	9.1539	0.8252	-0.8225	0.129	0.4286	-0.3506	-1.6923	9.58	1.3902	-1.5342	-0.6131	-0.0522	-0.4487	-0.1441	-0.3782	-0.3062
-0.8633	0.0878	9.5445	0.3116	0.2865	-0.4744	0.199	0.5931	-0.7622	2.4376	-0.5372	9.7849	0.6155	-0.5558	0.4268	0.463	-0.3019	-1.7988	9.7548	1.7973	-1.5868	-0.7656	0.1376	-0.5606	-0.1501	-0.3843	-0.3122
-1.1507	-0.4302	9.6525	0.0351	0.1652	-0.452	0.234	0.6433	-0.8512	2.6071	-0.4222	9.5561	0.3347	-0.4714	0.061	0.393	-0.3514	-1.7144	9.5195	1.9722	-1.5909	-1.0104	-0.0122	-0.6279	-0.1441	-0.3782	-0.3062
-1.1572	-0.604	9.3071	0.0976	0.3186	-0.4434	0.1603	0.5956	-0.8742	3.0648	-0.6542	9.2161	0.0905	-0.2843	0.1053	0.3926	-0.3512	-1.7357	8.9837	2.0884	-1.9424	-1.2883	0.0674	-1.1134	-0.1381	-0.3782	-0.3122
-1.504	-0.4877	9.4154	0.0362	0.2886	-0.4454	0.1972	0.5954	-0.851	2.5467	-0.0759	9.4395	0.0635	0.1204	0.0386	0.4439	-0.372	-1.7984	8.9883	1.9725	-1.7149	-1.7125	0.2189	-0.9176	-0.1381	-0.3963	-0.3122
-1.0397	-0.085	9.4256	0.2209	0.4978	-0.3408	0.2355	0.5935	-0.7613	2.6032	-0.5958	9.3238	0.3406	0.2801	-0.1696	0.409	-0.3733	-1.7778	9.4052	2.031	-1.4221	-1.9554	0.1555	-0.7959	-0.1441	-0.4023	-0.3002
-1.2635	-0.4295	9.8227	0.2223	0.5653	-0.4601	0.2343	0.619	-0.8285	2.8439	-0.1912	9.8507	0.3109	0.1455	0.0702	0.4296	-0.3042	-1.6927	9.2211	2.0302	-1.8242	-1.8321	-0.039	-0.5303	-0.1501	-0.3843	-0.3002
-1.0375	-0.0271	9.5408	-0.0202	0.6696	-0.6405	0.2181	0.6403	-0.7407	2.8979	-0.4225	9.6194	0.2215	0.2948	0.2045	0.3919	-0.3507	-1.7784	9.5795	1.8559	-1.5331	-1.5257	-0.2053	-0.234	-0.1381	-0.3782	-0.3062
-0.9763	0.2038	9.715	-0.1422	0.7314	-0.6072	0.2344	0.5708	-0.8051	2.6053	0.2128	9.4989	-0.6022	0.5259	0.8132	0.4109	-0.304	-1.7572	9.5226	2.1473	-1.4195	-1.3135	-0.3599	-0.2745	-0.1441	-0.3843	-0.3122
-0.9147	-0.3726	9.8298	-0.0829	0.5441	-0.5861	0.2168	0.5939	-0.784	2.7266	0.0976	9.7909	-1.1594	0.7394	0.426	0.3937	-0.2814	-1.7578	9.1716	1.6821	-1.3704	-0.7964	-0.4556	-0.3144	-0.1441	-0.3782	-0.2942
-1.0967	-0.6614	9.4231	-0.2054	0.5737	-0.5239	0.2542	0.5931	-0.7386	2.662	-0.4225	9.3831	-0.6367	1.1606	-0.17	0.3922	-0.3509	-1.7571	9.4081	1.4491	-1.3095	-0.1286	-0.3274	-0.6514	-0.1561	-0.3963	-0.3062
-0.8106	-0.0859	9.2577	-0.8831	0.1712	-0.3346	0.1975	0.643	-0.8522	2.7171	-0.6538	9.2098	-0.5648	2.0205	-0.1144	0.4285	-0.3035	-1.7568	9.2292	1.7983	-1.426	0.1763	0.1068	-0.8159	-0.1381	-0.4083	-0.3062
-0.9165	-0.6611	9.7141	-1.5847	0.308	-0.424	0.2341	0.5952	-0.8279	2.8425	0.0397	9.7929	-1.0478	2.5963	0.2668	0.3926	-0.3512	-1.7357	9.2771	1.5058	-1.9952	0.2658	0.364	-1.1722	-0.1501	-0.3903	-0.3002
-1.2589	-0.429	10.0527	-2.0681	0.8473	-0.5827	0.1988	0.6175	-0.785	2.0339	-0.4211	9.8938	-0.957	2.4733	0.2273	0.4107	-0.3275	-1.7356	9.5883	2.0316	-1.0769	0.6033	0.8207	-1.0897	-0.1321	-0.3963	-0.2942
-1.1451	-0.3142	9.9403	0.2772	2.2955	-1.7502	0.2525	0.6192	-0.828	2.8938	-0.4228	9.3873	-1.6346	2.4801	0.324	0.445	-0.3728	-1.7344	9.7529	2.4375	-1.6422	1.3672	0.867	-0.8168	-0.1441	-0.3782	-0.2882
-1.2569	-0.2557	10.1682	0.1885	3.5965	-0.4517	0.2335	0.6439	-0.8734	2.6108	-0.0178	9.7887	-1.2648	2.0207	0.7582	0.3948	-0.2821	-1.6937	9.5238	2.1474	-1.3626	2.4079	0.9944	-0.2652	-0.1381	-0.3963	-0.2822
-0.9698	-0.1991	10.0015	2.187	5.0387	-0.085	0.2159	0.595	-0.8284	2.5439	-0.3648	9.2651	-1.1146	1.4526	0.9689	0.4449	-0.3257	-1.7989	9.4708	1.9735	-1.0793	3.4466	0.9729	0.1249	-0.1441	-0.3963	-0.3062
-0.966	-0.3716	10.1736	2.3547	7.1408	0.5511	0.2712	0.6907	-0.8292	2.5503	-0.4798	9.613	-1.3921	1.2944	1.1462	0.3901	-0.3966	-1.8207	9.818	1.856	-1.3577	4.7861	0.3373	0.3577	-0.1321	-0.3963	-0.2942
-0.74	0.0308	9.8917	2.2714	7.8953	0.3143	0.1964	0.6203	-0.896	2.7783	0.0971	9.4439	-2.2264	1.1531	1.1718	0.3932	-0.3046	-1.7575	9.7737	1.9161	-0.6181	6.2416	0.2235	-0.3366	-0.1381	-0.4023	-0.3062
-0.332	-0.4312	9.8987	1.7021	9.3763	0.5436	0.2516	0.5722	-0.849	2.3182	-0.2486	9.6092	-2.0098	1.1787	1.2036	0.41	-0.327	-1.7783	9.8192	1.7397	-1.301	7.6118	0.1812	-0.35	-0.1501	-0.3903	-0.2942
-0.6905	0.318	9.491	1.3724	9.7151	0.0064	0.2524	0.5472	-0.8041	2.1417	-0.595	9.4315	-2.4084	1.4667	1.131	0.4266	-0.3728	-1.7775	9.5885	1.857	-1.0773	8.7993	0.3905	-0.4718	-0.1381	-0.3903	-0.3122
-1.2096	-0.0265	9.6523	3.1557	9.9012	-1.1401	0.2157	0.5712	-0.8278	2.956	-0.4803	9.6203	-2.4408	1.5393	0.9185	0.4283	-0.3269	-1.7352	10.1106	1.972	-1.4088	9.0144	0.6002	-0.3397	-0.1261	-0.4023	-0.3002
-1.0295	0.0315	9.9434	0.2466	10.1156	-0.3175	0.2521	0.5716	-0.8268	2.5512	-0.3643	9.6712	-2.5057	1.5232	0.6383	0.4112	-0.3043	-1.7358	9.5176	1.6227	-1.7056	8.4394	1.3425	-0.2656	-0.1441	-0.3843	-0.3062
-1.5727	-0.4312	8.8969	0.2159	10.3484	0.0021	0.1969	0.6197	-0.8738	3.0154	0.0394	9.7381	-1.8587	1.4832	0.6017	0.4283	-0.3269	-1.7352	9.5676	1.5051	-2.1605	7.349	1.611	0.3107	-0.1321	-0.3963	-0.3122
-1.2166	-0.5463	9.2485	2.9711	10.3037	-0.4436	0.1984	0.5699	-0.7839	2.498	0.0404	9.9607	-1.5859	1.0465	0.6031	0.4461	-0.303	-1.7564	9.6299	2.3205	-1.9296	6.1051	2.3551	0.5133	-0.1381	-0.3782	-0.3062
-1.5001	-0.1412	9.6463	0.3976	9.6653	-0.648	0.1972	0.5954	-0.851	2.7251	-0.3645	9.6743	-1.1314	0.2978	0.6144	0.428	-0.3267	-1.7566	9.694	1.5643	-1.7024	5.2193	2.3417	0.2124	-0.1561	-0.3843	-0.3062
-1.2087	0.0889	9.7101	-1.3005	7.9802	-0.534	0.2167	0.642	-0.8073	2.5452	-0.5379	9.3229	0.7697	-0.5261	0.397	0.3926	-0.3512	-1.7357	9.6929	1.5641	-1.7594	4.8901	1.6648	1.2253	-0.1261	-0.3782	-0.3062
-1.2765	-0.2581	9.1906	0.0337	6.2304	-1.1723	0.1967	0.596	-0.8732	2.6617	-0.1916	9.3834	0.3682	-0.6792	0.513	0.4094	-0.3736	-1.7565	9.6884	1.5636	-1.9873	4.6505	1.1192	1.9676	-0.1381	-0.3963	-0.3002
-1.6895	-0.1427	8.8953	0.2944	4.7934	-0.9402	0.2157	0.5712	-0.8278	2.6623	-0.6535	9.3828	-0.9575	-0.7245	0.6403	0.4455	-0.3496	-1.7346	9.5788	1.5065	-1.5909	4.4625	0.2333	1.7694	-0.1441	-0.3662	-0.3002
-1.0989	-0.1427	9.3668	-0.0641	2.5873	-0.6303	0.2707	0.6193	-0.8275	2.5474	0.1552	9.4978	-1.2892	-0.1377	0.7421	0.4278	-0.3501	-1.735	9.2238	1.5648	-1.7114	4.5752	-0.4211	0.9964	-0.1381	-0.3903	-0.3002
-1.2669	-0.4299	9.6502	0.4739	1.7716	0.1286	0.1969	0.6197	-0.8738	2.6133	-0.3063	9.9044	-1.5615	0.3942	0.6848	0.4286	-0.2801	-1.7784	9.5764	1.6808	-1.7044	3.897	-0.3522	-0.0091	-0.1441	-0.3843	-0.3182
-1.3747	-0.6594	10.0499	1.4434	1.5544	1.199	0.2346	0.6665	-0.8296	2.7795	-0.0183	9.5018	-1.836	0.7739	0.5865	0.4993	-0.3016	-1.734	10.2815	1.7965	-1.6907	3.0159	-0.2901	0.2165	-0.1381	-0.3903	-0.3062
-1.2079	-0.3146	9.7091	2.4527	2.1532	2.0059	0.2516	0.5722	-0.849	2.5513	-0.422	9.6711	-1.9593	0.6132	0.7629	0.4456	-0.3262	-1.7562	9.4558	1.3895	-1.8782	2.1367	0.2971	0.408	-0.1501	-0.3903	-0.2942
-1.3154	-0.0827	10.1674	3.0355	2.9721	2.8526	0.2341	0.5952	-0.8279	2.4358	0.0979	9.7277	-2.1387	0.9146	0.9696	0.4648	-0.3032	-1.692	9.8771	1.5067	-1.3574	1.9252	0.7932	0.374	-0.1561	-0.3843	-0.3002
-1.0343	0.0886	9.7136	3.173	4.5539	2.723	0.235	0.5941	-0.7835	2.4877	-0.1336	9.3804	-2.972	0.8011	1.0592	0.4282	-0.3504	-1.7136	9.7545	2.0302	-1.5862	2.2923	0.815	0.5566	-0.1441	-0.4023	-0.2942
-1.147	0.0316	9.8836	3.2158	5.6225	2.3502	0.2168	0.5939	-0.784	2.3224	-0.306	9.8411	-3.3088	0.9575	1.133	0.376	-0.3053	-1.7365	9.6341	1.5642	-1.7605	2.994	0.8042	0.7041	-0.1381	-0.3963	-0.3002
-1.2507	0.091	10.514	2.9666	8.008	1.6772	0.2153	0.6437	-0.8739	2.3087	-0.1338	9.0872	-3.4918	1.0483	1.2329	0.4088	-0.3497	-1.8207	9.5913	2.3231	-0.9053	3.7227	0.9001	0.3956	-0.1261	-0.3843	-0.2942
-1.2523	-0.2552	10.3982	3.3233	10.5512	2.0922	0.2156	0.6194	-0.8511	2.6084	-0.5954	9.6139	-3.2743	1.2644	1.1528	0.4458	-0.3498	-1.7133	9.8221	2.1476	-1.1291	4.4523	0.8364	0.2634	-0.1381	-0.3963	-0.3002
-1.4825	-0.3121	10.5084	4.2037	13.4916	2.4704	0.1976	0.5948	-0.8288	2.313	-0.2489	9.3191	-3.1758	1.5597	1.3889	0.4283	-0.3269	-1.7352	9.4603	2.3798	-1.591	5.0593	0.3697	0.2341	-0.1381	-0.3843	-0.3182
-1.481	0.0917	10.6244	2.4487	16.1386	3.2155	0.2159	0.595	-0.8284	2.5505	-0.5953	9.6129	-3.8537	1.6326	1.3967	0.4275	-0.3499	-1.7563	9.8088	2.0295	-1.813	5.2663	-0.203	-0.2278	-0.1441	-0.3843	-0.3062
-1.0715	-0.5431	10.6885	-1.8311	17.9482	5.344	0.2336	0.5958	-0.8501	2.6644	-0.7111	9.4988	-4.2884	1.6535	1.1206	0.4099	-0.3504	-1.7567	9.6361	1.7973	-1.646	5.227	-0.857	-0.9687	-0.1501	-0.3782	-0.3062
-1.4881	-0.3705	10.2208	4.3809	20.8612	4.2184	0.2143	0.5729	-0.8944	2.6042	-0.5957	9.3819	-4.4389	1.7362	1.3751	0.4623	-0.3486	-1.7769	9.8686	2.0878	-1.7548	5.1643	-1.3816	-0.934	-0.1321	-0.3903	-0.3122
-2.177	-0.7717	10.6085	3.6367	22.8082	3.7953	0.2524	0.5472	-0.8041	2.5506	-0.7108	9.6127	-3.5464	1.9576	0.9507	0.4644	-0.3029	-1.7134	10.097	2.0867	-2.0921	4.7324	-1.5131	-1.5215	-0.1261	-0.3963	-0.2882
-1.1964	-0.3132	10.2842	2.7912	24.4605	4.4008	0.2341	0.5952	-0.8279	2.664	-0.3646	9.4992	-3.0807	2.2604	0.9062	0.4094	-0.3736	-1.7565	9.2224	1.8557	-1.7676	4.5176	-1.5987	-1.678	-0.1321	-0.3963	-0.3002
-2.1758	-0.1949	10.7249	2.0874	25.2227	5.482	0.2518	0.5959	-0.8496	2.0299	-0.5368	9.6616	-2.5889	2.1952	0.8066	0.4112	-0.3043	-1.7358	9.576	1.9719	-1.7037	3.9429	-1.9222	-1.0444	-0.1261	-0.3903	-0.3062
-2.833	-0.5994	9.7912	3.0588	28.0988	5.8881	0.2527	0.6429	-0.8286	2.6135	-0.5373	9.9041	-3.2039	2.1642	1.0247	0.4291	-0.2569	-1.7786	9.9273	2.2042	-1.7534	3.2997	-1.777	-1.5543	-0.1501	-0.3843	-0.3122
-3.4047	-0.3087	10.2979	1.7392	29.1327	7.9326	0.2705	0.5956	-0.8269	2.7815	-0.8266	9.5587	-3.887	1.6775	1.1203	0.4627	-0.3488	-1.7556	9.7522	2.1463	-1.6999	2.9919	-1.2922	-2.1723	-0.1321	-0.3843	-0.3122
-1.6016	-0.0239	10.3918	3.0481	31.6042	7.6431	0.214	0.5973	-0.9171	2.544	-0.4225	9.265	-4.3503	1.4932	1.2657	0.4817	-0.3021	-1.7343	9.5177	1.5644	-1.7058	2.8124	-0.2078	-2.2989	-0.1561	-0.3843	-0.2942
-1.8637	-0.2576	8.8915	0.5766	34.0577	10.0634	0.2341	0.5952	-0.8279	2.8413	-0.5956	9.6761	-4.4752	1.3077	1.3163	0.4285	-0.3035	-1.7568	9.5766	1.448	-1.7049	2.5037	0.531	-3.1497	-0.1561	-0.3903	-0.3062
-1.608	0.2637	10.105	2.8577	35.1953	8.9404	0.2694	0.5729	-0.8708	2.7254	-0.6532	9.6739	-3.8631	1.125	1.0532	0.4276	-0.3264	-1.7779	9.6965	2.3214	-1.5297	2.4993	1.4559	-4.1163	-0.1441	-0.4023	-0.3182
-2.0428	-1.0581	11.4727	1.2783	36.4498	8.9974	0.2514	0.5965	-0.8718	2.3186	-0.595	9.6087	-3.4008	1.3462	0.7861	0.4099	-0.3504	-1.7567	9.5735	2.2044	-1.817	2.835	1.5444	-4.0837	-0.1441	-0.4023	-0.3122
-2.8415	-0.9464	9.3303	1.1357	38.8756	10.7244	0.2501	0.5501	-0.9151	2.3188	-0.7105	9.6086	-3.3415	1.259	0.656	0.428	-0.3267	-1.7566	9.3864	1.9122	-2.3908	2.7167	1.751	-3.7645	-0.1561	-0.3963	-0.3122
-1.0219	0.2631	10.3465	2.5838	40.3249	11.0879	0.3053	0.622	-0.9154	2.7222	-0.5379	9.5	-2.6033	1.3862	0.3193	0.4266	-0.3728	-1.7775	9.3361	2.2626	-1.9353	2.5673	1.7722	-3.4239	-0.1441	-0.3903	-0.3062
-3.8225	-0.0786	9.7728	1.927	41.3109	10.0301	0.287	0.6218	-0.9158	2.2646	-0.4214	9.8399	-3.1534	1.5986	0.5841	0.4295	-0.2571	-1.7572	9.7439	2.4946	-2.0978	2.1399	1.9991	-3.6546	-0.1501	-0.4023	-0.3002
-0.7341	-1.1795	10.0613	5.243	43.2182	10.676	0.2494	0.5268	-0.9367	2.7898	-0.7683	10.0229	-3.432	1.511	0.5796	0.4122	-0.2579	-1.7363	9.809	1.8549	-1.8134	2.1396	2	-3.6853	-0.1321	-0.3963	-0.3062
-1.4963	0.2629	9.8773	7.7337	43.655	9.271	0.3047	0.5506	-0.9136	2.8378	-0.3071	9.5024	-3.4327	1.2544	0.7803	0.4468	-0.3035	-1.7137	9.3975	1.9718	-1.821	1.8682	2.0233	-3.3744	-0.1381	-0.4083	-0.3122
-3.301	0.8428	9.7854	4.0558	43.3857	10.0627	0.3238	0.5978	-0.8921	2.2077	-0.4213	9.8969	-3.342	1.3588	0.5072	0.4461	-0.303	-1.7564	9.3428	2.2635	-1.5935	1.7161	2.0553	-3.3715	-0.1381	-0.3963	-0.3122
-3.595	-1.5789	9.3713	6.168	43.7804	10.3125	0.3049	0.5744	-0.9142	2.5491	-0.3644	9.5552	-2.6936	1.3772	0.5365	0.4104	-0.3272	-1.7569	9.0484	1.798	-1.6572	1.0406	1.8633	-3.9295	-0.1441	-0.3903	-0.3002
-2.7202	-0.6	9.621	6.9324	44.3809	11.1486	0.3222	0.5757	-0.9581	2.1446	-0.4216	9.6058	-2.5999	1.5324	0.4841	0.4104	-0.3272	-1.7569	9.3988	1.7391	-1.7646	0.6168	2.1072	-3.7288	-0.1441	-0.3963	-0.3062
-2.72	-0.7153	9.6207	7.3152	42.5041	10.8355	0.3049	0.5744	-0.9142	2.3181	-0.1331	9.6093	-2.6019	1.4447	0.3852	0.4462	-0.2795	-1.778	9.3952	2.0297	-1.9348	0.0097	2.3238	-3.5896	-0.1501	-0.3903	-0.3062
-2.7779	-1.4072	9.5604	7.0212	42.1809	13.1827	0.3217	0.5763	-0.9803	2.3753	-0.4219	9.552	-3.0022	1.708	0.1868	0.4286	-0.2801	-1.7784	9.2194	1.506	-1.9394	-0.4752	3.1011	-3.6682	-0.1441	-0.3903	-0.3002
-2.3642	-1.2918	9.9138	10.3022	40.9206	14.7652	0.342	0.6699	-0.9156	2.3195	-0.4217	9.6669	-3.1908	1.5327	0.0521	0.4265	-0.3257	-1.842	9.4595	2.0304	-1.6488	-0.896	4.4606	-3.6556	-0.1321	-0.3903	-0.3062
-3.1227	-1.1177	9.7842	12.5039	38.568	16.19	0.3051	0.5982	-0.9148	2.6105	-0.5952	9.7299	-3.5952	1.3287	-0.0525	0.4285	-0.3035	-1.7568	8.9287	1.7396	-1.7735	-0.984	5.45	-3.7264	-0.1321	-0.3963	-0.2942
-3.9439	-1.0016	9.4233	14.6531	37.4944	18.0517	0.3042	0.5512	-0.9358	2.4324	-0.5376	9.4948	-3.9914	1.54	0.1804	0.4466	-0.2798	-1.7567	9.3379	1.6806	-1.8797	-1.3166	5.7566	-3.5848	-0.1381	-0.3963	-0.3122
-3.3744	-0.1969	8.9192	16.3634	35.1042	19.7479	0.3404	0.5759	-0.9577	2.3703	-0.5955	9.2617	-4.3954	1.4314	0.0199	0.4635	-0.2788	-1.799	9.5708	1.6219	-1.9894	-1.9515	5.8376	-3.0527	-0.1501	-0.4023	-0.3062
-3.3175	-0.1395	8.863	16.1423	31.7762	20.859	0.3771	0.5519	-0.9339	2.426	-1.2887	9.0878	-4.6121	1.5686	-0.1875	0.4281	-0.3033	-1.7781	9.453	1.9131	-1.9909	-2.2562	5.6218	-2.9691	-0.1321	-0.4023	-0.2882
-3.14	0.0336	9.0394	18.838	28.8076	20.7789	0.267	0.5038	-0.9578	2.6036	-0.8844	9.3235	-4.2913	1.2929	-1.6041	0.3935	-0.2577	-1.8007	9.2137	1.6217	-2.2239	-2.4631	5.8808	-2.339	-0.1381	-0.4083	-0.3002
-0.2143	-0.8997	7.0258	15.8359	22.2715	21.7926	0.3387	0.4819	-0.9998	1.928	-0.9399	10.4131	-4.9805	1.9236	-0.3801	0.3937	-0.2814	-1.7578	9.571	1.5055	-1.9896	-3.3475	5.924	-2.4833	-0.1381	-0.4023	-0.2942
1.4282	-1.2472	7.7473	13.8955	12.6974	20.0386	0.3575	0.5534	-1.001	2.2565	-0.5375	9.3757	-2.8537	1.765	-0.4	0.3581	-0.2822	-1.7798	9.3382	1.3896	-1.8804	-3.9845	5.4809	-1.9476	-0.1381	-0.3903	-0.3122
3.0454	-1.021	7.2626	19.339	2.8308	15.9502	0.3196	0.4828	-1.0446	2.8434	-0.6532	9.7921	-2.6993	1.6963	-0.3121	0.463	-0.3019	-1.7988	9.8095	1.3892	-1.8145	-4.68	5.6864	-1.4393	-0.1501	-0.3963	-0.3062
4.5957	-2.1798	6.1983	17.0446	-9.0393	9.1844	0.3758	0.5055	-0.9772	2.5464	-0.7111	9.3807	-2.4842	1.8263	-0.5219	0.4641	-0.3027	-1.7347	9.277	1.564	-1.9951	-5.0741	5.5261	-1.1369	-0.1261	-0.3782	-0.2942
4.7003	-3.277	5.508	7.7276	-21.5057	-0.1178	0.2841	0.4813	-1.0012	2.9047	-0.8263	9.9669	-3.2857	1.9028	-0.5444	0.4456	-0.3262	-1.7562	9.9811	1.6213	-2.0385	-5.1076	5.5381	-1.505	-0.1321	-0.3963	-0.3062
5.2874	-3.2198	5.8071	-12.2635	-39.9216	-8.302	0.3746	0.5309	-1.0444	2.6042	-0.5957	9.3819	-2.4198	1.9099	-0.3615	0.4119	-0.3048	-1.6931	9.5709	1.5637	-1.9895	-5.0514	5.5246	-2.0597	-0.1261	-0.4083	-0.2942
4.1809	-1.9998	8.7197	-17.1441	-53.5608	-14.9041	0.3209	0.5293	-1.0014	2.267	-0.6522	9.9557	-2.7269	1.909	-0.236	0.4113	-0.2809	-1.7574	9.6895	1.6219	-1.9301	-5.1134	5.6858	-2.266	-0.1321	-0.3963	-0.3002
3.2454	-2.2869	8.4131	-13.6055	-57.6485	-19.0349	0.356	0.4832	-1.0437	3.0175	-0.8266	9.795	-3.0367	1.8557	-0.3002	0.4105	-0.3038	-1.7785	9.5831	1.6234	-1.3627	-4.5734	5.9013	-3.3662	-0.1321	-0.4083	-0.3182
2.8296	-3.0945	7.8855	-18.6236	-61.6743	-19.5595	0.3204	0.5298	-1.0236	2.492	-1.0572	9.5532	-2.5426	1.8444	-0.241	0.4292	-0.2335	-1.8002	9.3459	1.5652	-1.4813	-3.8186	6.2648	-4.3374	-0.1441	-0.3903	-0.3242
2.1506	-2.6295	8.8504	-29.0423	-68.8629	-17.1526	0.3011	0.5789	-1.0918	2.2069	-0.5946	9.8387	-2.8533	1.4055	0.0113	0.4822	-0.279	-1.7346	9.7583	1.6813	-1.4162	-3.0926	6.8103	-5.2067	-0.1501	-0.4023	-0.3062
1.6956	-2.5121	9.359	-33.1969	-76.1051	-13.9705	0.3218	0.5281	-0.957	2.2647	-1.2876	9.7808	-1.9304	1.0442	0.1388	0.4462	-0.2795	-1.778	9.3472	1.3907	-1.4247	-1.6684	7.1395	-6.2467	-0.1441	-0.4203	-0.3062
1.9428	-2.3378	10.1116	-32.4571	-80.0846	-11.1048	0.2839	0.5776	-1.0479	2.5512	-0.3643	9.6712	-1.5939	0.662	0.2676	0.4656	-0.2331	-1.7354	9.1671	1.7398	-1.5981	-0.2595	7.9418	-5.6937	-0.1321	-0.3963	-0.3062
1.0087	-2.1634	9.921	-32.8201	-80.9531	-8.3257	0.2295	0.5527	-1.0265	2.5502	-0.4221	9.6131	-1.4731	0.4447	0.253	0.4118	-0.2577	-1.7576	9.7053	1.5074	-1.1329	1.3314	8.5579	-5.152	-0.1441	-0.4023	-0.3242
0.8943	-2.509	9.9754	-36.5076	-80.7327	-5.4483	0.2468	0.554	-1.0704	2.3181	-0.9993	9.5502	-1.223	0.5544	0.4453	0.4291	-0.2569	-1.7786	9.8724	1.739	-1.5847	2.6419	9.2317	-5.3736	-0.1441	-0.4023	-0.3122
0.604	-2.1623	10.028	-39.6395	-80.1068	-2.7917	0.2106	0.5293	-1.0486	2.4366	-0.595	9.7268	-1.2863	0.563	0.2909	0.4122	-0.2579	-1.7363	10.0435	1.3888	-1.867	3.3469	10.0219	-5.2153	-0.1501	-0.4083	-0.3122
0.9071	-1.4118	10.7256	-40.102	-79.2532	-1.0892	0.2276	0.555	-1.1153	2.4886	-0.8265	9.3795	-0.7943	0.6269	0.0754	0.4481	-0.2102	-1.7573	9.5209	1.7395	-1.5345	3.3488	10.2652	-5.1104	-0.1441	-0.4083	-0.3182
0.5569	-1.3536	10.6613	-38.6156	-77.1141	-0.9344	0.2115	0.6482	-1.0514	2.0857	-0.5371	9.5466	-0.4217	0.544	0.3788	0.429	-0.2803	-1.757	9.2217	1.4481	-1.8256	3.0727	10.463	-5.4361	-0.1261	-0.4143	-0.3122
0.557	-0.8346	10.7201	-37.6301	-73.5929	-1.7538	0.2113	0.6244	-1.0509	2.488	-0.3646	9.3801	-0.179	0.3968	0.1508	0.501	-0.2557	-1.6917	9.4587	1.7392	-1.7065	2.3131	10.3374	-5.1597	-0.1381	-0.4083	-0.3242
0.385	-1.4683	10.7726	-36.8986	-68.387	-3.4683	0.1939	0.5994	-1.0064	2.6039	-0.3647	9.3822	0.0693	0.5801	0.0995	0.4104	-0.3272	-1.7569	9.3992	1.448	-1.7653	1.6149	10.0844	-4.7674	-0.1441	-0.4023	-0.3122
0.3188	-0.8925	10.4278	-37.4158	-63.0731	-5.8306	0.1571	0.6715	-1.0534	2.7817	-0.9421	9.5586	0.069	0.5817	0.0686	0.4636	-0.2553	-1.8206	9.4526	1.2726	-2.0494	0.9146	9.7766	-4.5932	-0.1621	-0.4083	-0.3122
0.3216	-0.5461	10.6011	-38.2843	-59.9487	-8.8964	0.1393	0.6707	-1.0317	2.6657	-0.0758	9.6156	0.0065	0.4889	0.0939	0.4471	-0.2566	-1.7569	9.8613	1.6794	-2.1545	0.3659	9.4388	-4.4833	-0.1441	-0.4023	-0.3302
0.6692	-0.4893	10.5507	-39.2299	-58.9053	-12.4124	0.1202	0.6717	-1.0766	2.4883	-0.5955	9.3798	0.1878	0.5685	-0.3365	0.4452	-0.3259	-1.7775	9.6896	1.5637	-1.9303	-0.4611	9.1508	-4.8913	-0.1381	-0.4083	-0.3182
0.3766	-0.7196	10.4293	-38.5899	-57.6508	-14.9232	0.0848	0.694	-1.0337	2.3786	-0.5372	9.7258	0.7761	0.5481	-0.1231	0.4466	-0.2798	-1.7567	9.8638	1.4468	-2.0412	-1.1921	9.2513	-4.9416	-0.1501	-0.3963	-0.3182
-0.2552	-0.5444	10.8196	-36.8406	-55.0454	-16.8628	0.066	0.6706	-1.0558	2.377	-0.0754	9.6684	1.2065	0.4824	-0.1914	0.4466	-0.2798	-1.7567	9.6975	1.4483	-1.5318	-1.6797	9.2564	-4.9681	-0.1321	-0.3963	-0.3182
-0.6703	-0.5446	10.409	-34.9939	-50.7755	-17.3908	0.0857	0.741	-1.0126	2.2622	-0.9413	9.6652	1.6995	0.574	-0.343	0.4106	-0.2804	-1.8001	9.8062	1.3888	-1.9854	-2.1604	9.1098	-4.1108	-0.1441	-0.4023	-0.3062
-1.1926	0.0909	10.5152	-33.8354	-44.9425	-18.0855	0.0294	0.7183	-1.0801	2.3199	-0.7682	9.6665	2.9265	0.3578	-0.7662	0.4824	-0.2321	-1.7777	9.5183	1.0405	-1.707	-2.4919	9.0363	-3.6507	-0.1381	-0.4023	-0.3122
-1.9441	0.2659	10.7306	-31.8817	-39.1184	-18.8063	-0.0414	0.7391	-0.9937	2.6696	-0.7107	9.7888	4.062	-0.0243	-0.9204	0.4633	-0.3022	-1.7774	9.3965	0.8655	-1.9376	-2.8232	9.0562	-3.2164	-0.1321	-0.4023	-0.3362
-1.5999	0.2646	10.5075	-28.8668	-33.8333	-18.8728	0.0132	0.7878	-1.0157	2.3183	-0.3063	9.6091	3.9679	-0.2425	-0.8411	0.4642	-0.2793	-1.7563	9.0479	1.2157	-1.7156	-2.9097	9.069	-2.6308	-0.1321	-0.3903	-0.3302
-2.2502	0.4376	9.9777	-24.7919	-29.5901	-18.7731	-0.0423	0.8122	-1.062	2.436	-0.9415	9.6684	4.1816	-0.4306	-0.8543	0.4295	-0.2571	-1.7572	8.9238	1.0986	-2.0599	-3.2089	9.0509	-1.9836	-0.1201	-0.3963	-0.3242
-2.8887	0.4967	10.0227	-22.7594	-26.9912	-17.3604	-0.0763	0.809	-0.952	2.6065	-0.711	9.4977	4.9138	-0.8598	-1.165	0.4656	-0.2331	-1.7354	9.1066	1.2738	-1.7143	-3.4137	9.0827	-0.9963	-0.1441	-0.4083	-0.3242
-3.8787	0.0948	9.8871	-20.9578	-25.4315	-14.8368	-0.057	0.8318	-0.9077	2.3767	-0.7106	9.6096	5.3425	-1.0147	-1.3012	0.4647	-0.2561	-1.7565	9.28	0.8657	-1.8828	-3.9236	9.4635	-0.2344	-0.1381	-0.3963	-0.3182
-3.5892	0.1517	9.8355	-20.48	-24.0286	-11.2543	-0.0568	0.8556	-0.9083	2.7782	-0.6536	9.3849	6.7222	-1.3565	-1.7333	0.4822	-0.279	-1.7346	9.0438	0.8659	-1.9443	-4.3132	9.5048	0.5089	-0.1381	-0.4023	-0.3182
-4.126	-0.0219	9.1346	-21.8896	-21.8774	-7.9514	-0.1104	0.8058	-0.842	2.5516	-0.653	9.6708	8.3464	-1.7564	-2.3256	0.4285	-0.3035	-1.7568	9.165	0.6333	-1.7717	-4.8202	10.3124	1.416	-0.1321	-0.4083	-0.3362
-4.546	0.1504	8.4944	-25.4475	-20.9125	-5.1563	-0.1631	0.9469	-0.8024	2.5484	-0.5955	9.4968	9.5726	-2.2937	-2.4903	0.464	-0.2556	-1.7992	8.9929	0.8669	-1.5466	-5.6603	10.8649	2.6815	-0.1381	-0.3963	-0.3242
-4.8369	0.2086	8.4888	-28.6472	-24.4286	-2.5374	-0.109	0.876	-0.7993	2.2672	-0.7677	9.9555	8.3971	-2.8749	-2.1812	0.4099	-0.3504	-1.7567	9.1681	0.8666	-1.6002	-6.191	11.3336	4.5551	-0.1321	-0.4023	-0.3482
-17.8399	-9.6837	54.6522	-57.1432	-15.1674	-0.4427	-0.1272	0.8759	-0.7998	2.5529	-0.0177	9.7877	7.219	-3.5086	-2.0619	0.4627	-0.3488	-1.7556	9.4036	0.4588	-1.5967	-6.9796	11.797	4.7394	-0.1201	-0.4023	-0.3302
-8.0926	5.2896	8.9539	45.1315	3.6089	15.5128	-0.0894	0.9227	-0.7556	2.8402	-0.5957	9.6181	8.5678	-3.8821	-2.4649	0.4632	-0.3256	-1.7558	8.935	1.0418	-1.4903	-7.5182	12.2962	5.6614	-0.1441	-0.4023	-0.3182
-15.4817	2.5357	8.2834	112.135	21.0249	12.6359	-0.1074	0.8981	-0.7333	2.4958	-0.7105	9.7857	10.0416	-4.5571	-2.4223	0.4464	-0.3032	-1.7351	8.8776	0.8673	-1.4349	-7.4596	12.4686	8.9292	-0.1321	-0.3782	-0.3422
-14.0755	4.0912	9.0048	91.8425	42.8557	21.479	-0.1275	0.8283	-0.7986	2.5565	-0.4216	9.9612	10.7806	-4.7263	-2.3746	0.3925	-0.3041	-1.8002	8.9874	0.7498	-1.8317	-8.1493	12.8391	10.061	-0.1261	-0.3963	-0.3182
-13.3941	10.1933	5.9292	86.9891	65.8198	14.5947	-0.1452	0.8995	-0.8008	2.0319	-0.5367	9.7776	11.9799	-5.2491	-2.1967	0.4639	-0.3261	-1.7131	9.3968	0.5744	-1.9383	-9.6725	13.3849	9.7943	-0.1261	-0.4023	-0.3362
-0.172	0.4317	9.2716	11.677	68.5364	11.2121	-0.1093	0.8285	-0.7982	2.4396	-0.4793	9.901	12.5936	-5.6344	-2.1004	0.3932	-0.3046	-1.7575	9.1093	0.8666	-1.6013	-9.9381	13.6357	10.7012	-0.1381	-0.3963	-0.3302
-1.014	-0.255	10.6903	-3.5198	42.285	7.2197	-0.073	0.877	-0.8205	2.4275	-0.8266	9.2044	13.0195	-6.4255	-1.8433	0.4276	-0.3264	-1.7779	9.4578	1.5644	-1.7639	-9.6055	13.1486	14.2706	-0.1441	-0.3963	-0.3302
-2.2986	-1.5794	10.2592	-0.2528	24.8588	11.8707	-0.1071	0.8738	-0.7105	2.2705	-0.1323	10.1884	13.2531	-7.7317	-1.712	0.4818	-0.2787	-1.7559	10.6949	2.0291	-1.5684	-8.306	10.8367	17.7679	-0.1201	-0.3963	-0.3302
-1.0348	1.5302	9.832	6.8037	20.6527	16.5466	-0.1089	0.8279	-0.776	2.7292	-0.3642	9.9064	15.1926	-8.9489	-0.8375	0.428	-0.3267	-1.7566	11.1695	2.0874	-1.3314	-8.1949	7.4412	21.7412	-0.1441	-0.3903	-0.3362
-0.8252	-0.2607	8.5097	-5.4826	16.9844	10.3706	-0.0893	0.8745	-0.7322	2.9007	-0.1336	9.7938	19.5987	-10.4303	0.1639	0.4292	-0.304	-1.7141	11.9428	1.7966	-0.8618	-6.9994	3.1684	21.0481	-0.1321	-0.3903	-0.3482
-1.7056	-0.1446	8.0902	6.8551	4.673	-3.4247	-0.108	0.8749	-0.7549	0.9939	2.8719	10.2854	23.2458	-22.2581	-4.0374	0.4121	-0.2813	-1.7147	11.3724	2.3234	0.0397	-5.4264	0.0138	10.3559	-0.1321	-0.3843	-0.3362
-0.5867	0.2586	8.8606	1.1401	2.7351	-2.1207	-0.0722	0.8521	-0.7756	2.5811	-0.1312	11.3539	19.8496	-26.2772	-0.154	0.4104	-0.3272	-1.7569	10.7854	1.6255	0.0269	-2.7373	-0.7915	-2.7759	-0.1321	-0.3963	-0.3362
-0.5615	-0.8341	10.0081	-12.5331	4.3383	0.3358	-0.0722	0.8521	-0.7756	2.2869	-13.5814	13.3607	40.6123	-46.7108	6.6814	0.3919	-0.3507	-1.7784	10.3722	2.2079	-0.0365	2.7321	0.7449	-5.0777	-0.1321	-0.3843	-0.3302
-0.3833	-0.4303	10.2425	-6.4982	6.4551	1.7175	-0.09	0.8513	-0.7539	3.6575	-0.3653	9.9811	30.072	-50.1492	-0.1077	0.4096	-0.3267	-1.7996	9.4769	2.4983	-0.7362	6.5331	2.4389	0.6679	-0.1261	-0.4023	-0.3362
-0.9139	-1.9294	9.711	3.1325	5.243	0.5775	-0.0898	0.8751	-0.7544	3.761	1.0857	15.8423	13.9154	-51.8415	-11.6323	0.3741	-0.3747	-1.7572	10.052	1.7974	-1.4103	7.1187	2.9845	8.5015	-0.1261	-0.3963	-0.3362
-1.2588	-0.4866	10.0526	-0.9228	4.0372	1.6547	-0.1085	0.8755	-0.7771	2.8431	-0.9377	12.9814	19.8325	-69.0763	-17.1271	0.3209	-0.376	-1.7796	10.9816	2.4354	-1.9036	6.3928	2.6584	9.2592	-0.1501	-0.3843	-0.3362
-1.1546	1.53	9.6572	5.4767	4.8244	1.6152	-0.109	0.876	-0.7993	3.8502	-0.129	14.2764	-1.8982	-85.3988	-18.4005	0.3569	-0.3754	-1.7362	11.0982	3.3085	-1.8993	4.9592	2.0151	5.6707	-0.1321	-0.3903	-0.3482
-0.7434	0.0304	9.7192	3.2986	3.2061	0.4388	-0.1071	0.8738	-0.7105	2.8068	-1.5136	14.1398	2.6216	-102.1754	-19.5433	0.3566	-0.3518	-1.7791	11.441	3.074	-2.4058	3.9951	1.287	3.6421	-0.1261	-0.3963	-0.3482
-1.2108	-0.6033	9.5359	1.9845	3.4611	0.6284	-0.11	0.8053	-0.8198	3.2679	0.449	14.1507	-11.087	-115.5759	-20.9114	0.3391	-0.3994	-1.715	11.207	3.0744	-2.3533	2.209	0.7771	-2.0891	-0.1261	-0.3843	-0.3422
-0.4502	-0.0852	9.8397	1.2818	3.2127	0.1802	-0.0906	0.8281	-0.7755	3.5681	-0.4168	14.6769	-5.377	-127.6014	-22.4646	0.2866	-0.4012	-1.6948	10.9828	2.3774	-1.8468	0.378	0.4557	-5.996	-0.1321	-0.3903	-0.3362
-1.5746	0.5489	8.8992	-0.29	1.7564	-0.0001	-0.1456	0.8519	-0.7997	3.156	0.6227	14.3809	-2.8059	-137.0721	-20.2668	0.2518	-0.332	-1.7602	9.873	2.2048	-1.5266	-0.6638	-1.4204	-5.839	-0.1321	-0.3963	-0.3302
2.443	2.6247	12.3754	-9.3499	-1.7872	0.8276	-0.1091	0.9242	-0.8226	4.0628	0.2736	13.2369	3.9362	-145.0218	-19.0758	0.1978	-0.4034	-1.7393	9.893	2.3238	-0.5009	-1.9762	-3.5273	-5.1384	-0.1321	-0.3843	-0.3302
-0.7978	-0.7187	9.8312	-2.7159	1.3138	0.8519	-0.0901	0.8994	-0.7772	4.2742	-0.8831	12.0213	6.0465	-151.5375	-19.7264	0.1634	-0.3344	-1.7834	9.5445	2.6158	-0.2791	-2.1099	-4.5131	-6.0803	-0.1201	-0.4083	-0.3362
-0.5833	-0.3177	8.9742	-6.4498	1.0784	0.9382	-0.1087	0.8517	-0.7765	3.9936	0.0996	12.5975	11.2752	-156.0093	-22.2454	0.1269	-0.4287	-1.7405	9.196	2.8496	-0.0573	-1.7576	-4.8719	-7.4855	-0.1201	-0.4023	-0.3362
-0.8541	-0.4877	9.9457	-8.7132	1.0753	0.9542	-0.0903	0.8757	-0.7766	4.2646	-0.7683	11.4993	25.5597	-155.6507	-22.5665	0.0929	-0.4071	-1.6988	9.3722	1.9761	-0.1131	-0.4779	-5.7927	-6.9904	-0.1321	-0.3963	-0.3302
-1.7181	-0.485	10.3309	-8.3953	1.7035	0.0063	-0.0908	0.8043	-0.7749	5.9877	-0.887	10.6602	27.1272	-152.6123	-23.4006	0.0573	-0.4079	-1.7209	8.4415	2.3276	0.3826	1.3559	-6.3657	-5.9589	-0.1381	-0.3963	-0.3422
-0.9721	-0.776	9.8277	-4.4586	1.3671	0.8436	-0.1091	0.8523	-0.7987	5.2874	-1.9837	10.2982	28.8011	-145.5307	-24.2827	0.0399	-0.4321	-1.6783	8.3192	2.6183	0.1532	3.1919	-6.1019	-5.0685	-0.1381	-0.3963	-0.3302
-0.868	-0.4317	9.2557	-1.2753	1.4919	0.6249	-0.1084	0.8273	-0.7538	5.5885	-1.0016	11.0009	19.7133	-140.2472	-25.6676	0.0223	-0.4327	-1.6787	8.0445	1.4566	1.0563	6.0446	-5.4861	-2.938	-0.1261	-0.3963	-0.3302
-0.566	-0.8923	9.7779	0.5274	1.5748	1.0098	-0.1097	0.901	-0.8443	5.6121	-1.8703	9.0283	26.4577	-138.4603	-28.5937	-0.0107	-0.3647	-1.6374	8.0985	1.747	0.8302	9.8447	-5.0487	-0.3019	-0.1261	-0.4023	-0.3302
-1.1501	-0.7184	9.6518	0.5026	2.0495	0.7891	-0.128	0.8289	-0.8208	5.0128	-1.9287	7.9156	20.4327	-132.5753	-32.6236	-0.1205	-0.5063	-1.7023	8.3342	2.1544	0.8926	12.8005	-4.6685	3.3835	-0.1381	-0.3963	-0.3302
-1.03	-0.8912	9.8262	0.0452	2.064	0.6025	-0.0911	0.8287	-0.7977	4.5568	-2.1585	8.313	17.7887	-125.0169	-36.7152	-0.0828	-0.4598	-1.6166	8.636	2.0386	1.2967	15.8136	-4.8078	6.9184	-0.1081	-0.4083	-0.3362
-0.806	-0.662	9.4288	-0.5319	2.3592	0.3995	-0.0743	0.8305	-0.8638	1.9948	-2.5027	7.5706	23.0378	-118.6031	-42.8731	-0.083	-0.4832	-1.595	8.6325	2.2128	1.1262	18.4527	-4.6606	9.3029	-0.1321	-0.3963	-0.3422
-1.2593	-0.775	9.9944	-0.3784	2.594	0.6282	-0.0914	0.853	-0.8204	-1.9247	-2.3272	5.4705	16.167	-96.3921	-42.2356	-0.1704	-0.5098	-1.5326	9.1674	1.8637	1.4203	21.1337	-5.223	9.7744	-0.1141	-0.3963	-0.3362
-0.8544	-0.8914	9.8872	1.3287	2.1873	0.9248	-0.0907	0.8762	-0.7988	-4.2026	-2.7833	7.6327	17.3429	-72.7872	-35.0548	-0.1889	-0.5333	-1.5541	9.1119	1.9806	1.5904	24.483	-5.8179	10.1158	-0.1321	-0.3903	-0.3242
-1.1509	-0.3149	9.6528	2.5199	2.1045	1.051	-0.1287	0.8056	-0.8424	-4.9742	-2.3795	6.6335	24.4337	-53.1452	-18.9372	-0.1718	-0.5559	-1.5535	9.3924	1.9786	0.9123	27.376	-6.2541	10.4385	-0.1201	-0.4023	-0.3302
-1.2059	-0.718	9.7657	2.0954	2.3669	0.8471	-0.1091	0.8523	-0.7987	-7.0702	-2.955	6.0151	11.4003	-14.6598	-3.2409	-0.1538	-0.5556	-1.5318	9.7406	1.9194	0.691	30.2194	-5.2316	11.4216	-0.1501	-0.4023	-0.3362
-1.0903	-0.3724	9.7688	1.9097	2.296	1.088	-0.1275	0.8283	-0.7986	-5.1999	-3.1294	6.9184	9.3503	6.2101	13.6192	-0.1898	-0.5562	-1.5752	9.9179	2.0358	0.7516	31.8595	-4.3871	10.5912	-0.1261	-0.4083	-0.3302
-0.4551	-0.4895	9.5512	1.4542	2.5265	0.913	-0.1089	0.8279	-0.776	-4.2188	-3.131	6.7041	10.2532	15.175	24.9412	-0.154	-0.5791	-1.5102	10.0264	2.151	0.2984	32.9541	-3.14	9.8476	-0.1381	-0.3903	-0.3122
-0.8582	-0.7189	9.7151	1.3922	2.1436	0.5233	-0.0728	0.9007	-0.8211	-4.2285	-3.7668	6.1231	7.7739	25.3138	30.4556	-0.1891	-0.6272	-1.4464	10.1872	2.0324	-0.496	33.7034	-2.9136	8.3467	-0.1381	-0.4023	-0.3242
-1.0294	-1.1795	9.8255	2.062	1.9412	0.7012	-0.1089	0.8279	-0.776	-4.0557	-4.5756	6.0092	-3.0502	40.1386	32.618	-0.1715	-0.6267	-1.446	10.0634	2.6139	-0.7817	33.5376	-2.8909	6.7196	-0.1321	-0.4023	-0.3362
-0.8658	-0.9504	9.312	2.5469	1.3825	0.6129	-0.1091	0.8523	-0.7987	-4.5021	-4.978	6.9285	-13.4917	55.6601	32.3713	-0.1009	-0.6011	-1.4661	10.5237	2.4375	-1.2859	32.7548	-3.8319	4.5554	-0.1261	-0.3963	-0.3242
-0.9791	-0.7192	9.4828	2.2078	1.0489	0.5622	-0.1094	0.8766	-0.8215	-4.2617	-4.3425	7.4556	-20.1855	71.8068	30.0058	-0.1011	-0.5775	-1.5091	10.5281	2.5545	-1.0577	30.1559	-4.6719	3.5798	-0.1141	-0.3963	-0.3362
-1.1527	-1.1224	9.4783	2.1146	0.9532	0.6486	-0.0732	0.8532	-0.82	-3.9511	-3.5329	8.6802	-24.4009	87.1603	26.584	-0.083	-0.5538	-1.5089	10.2947	1.9728	-1.0067	26.3667	-4.8013	1.9129	-0.1261	-0.3963	-0.3242
-0.6826	-0.7191	9.776	2.5117	1.004	0.7769	-0.1283	0.8532	-0.8436	-3.7861	-3.1295	8.2197	-29.8518	102.835	22.6919	-0.031	-0.5751	-1.529	10.3466	2.1465	-1.3469	21.659	-4.7157	-0.4426	-0.1141	-0.3963	-0.3242
-1.028	-0.1413	10.0005	2.9408	1.0631	0.7213	-0.0926	0.8785	-0.8876	-3.6651	-3.0138	8.512	-36.4874	118.2316	17.9488	0.0057	-0.575	-1.4428	10.2229	1.6219	-1.6922	16.7098	-4.106	-2.7381	-0.1381	-0.3963	-0.3182
-0.981	-0.3734	9.4261	3.8585	1.0821	0.7283	-0.1457	0.9	-0.823	-2.8427	-2.6676	9.1652	-42.3544	130.9137	12.9325	0.041	-0.5505	-1.4637	10.2288	2.3795	-1.3486	12.2176	-3.2837	-5.0571	-0.1261	-0.4023	-0.3242
-0.7975	-0.2574	9.8899	3.7327	0.7989	0.866	-0.0916	0.8292	-0.8199	-1.9603	-2.3213	9.9354	-45.9474	140.171	7.7762	0.0763	-0.5494	-1.4629	10.0505	2.1465	-1.4664	8.4584	-2.9161	-6.8523	-0.1321	-0.4023	-0.3302
-0.9781	-0.0847	9.5993	3.0882	0.4427	0.7198	-0.0917	0.8774	-0.8432	-1.1427	-1.5712	10.3571	-48.9508	145.9099	3.7233	0.1641	-0.5231	-1.504	9.7497	2.3207	-1.8134	4.5513	-2.4399	-8.1486	-0.1141	-0.3903	-0.3242
-1.1473	-0.9488	9.7663	3.4553	0.4394	0.6913	-0.1471	0.7817	-0.8423	-1.1462	-1.2827	10.1834	-55.4011	147.4981	1.8689	0.1655	-0.5475	-1.3971	10.1078	2.4374	-1.5216	1.4725	-1.7134	-8.8236	-0.1441	-0.4023	-0.3302
-1.0212	-0.6595	10.2868	4.4944	0.4217	0.7892	-0.1279	0.9008	-0.8447	-0.0254	-0.3588	11.3647	-57.5318	148.5195	0.641	0.2537	-0.5214	-1.4168	9.3528	2.3812	-1.0805	-2.1254	-1.5731	-9.3405	-0.1321	-0.4203	-0.3362
-1.21	-0.4302	9.5938	5.5324	0.31	0.9129	-0.1097	0.7809	-0.797	0.7933	0.3914	11.8444	-54.9499	149.2327	-0.9699	0.3259	-0.4734	-1.3731	9.6461	1.8568	-1.1332	-4.1148	-1.769	-10.3799	-0.1321	-0.3963	-0.3182
-1.0408	-0.6618	9.3092	6.4207	0.5705	1.0555	-0.1104	0.8058	-0.842	1.7251	0.1019	12.0927	-51.4473	150.4062	-3.4865	0.3254	-0.4966	-1.3729	9.6513	1.217	-0.9068	-5.4559	-2.5994	-10.0739	-0.1321	-0.4023	-0.3302
-0.5653	-0.6615	9.836	6.5147	0.8749	1.1338	-0.0916	0.8292	-0.8199	1.8355	0.3323	11.805	-48.3484	151.4049	-6.0747	0.433	-0.4712	-1.2855	9.366	1.5095	-0.456	-6.2846	-3.5384	-10.3619	-0.1441	-0.4083	-0.3302
-0.8695	-0.2589	9.1986	5.9059	1.1045	1.0193	-0.1105	0.854	-0.8653	2.4213	-0.4764	12.1045	-47.8715	151.9946	-8.2119	0.452	-0.4245	-1.2643	9.4248	1.5095	-0.4549	-7.5031	-4.3727	-9.9649	-0.1321	-0.3963	-0.3302
-0.9744	-0.1996	9.7715	3.9812	1.054	0.6353	-0.0743	0.8305	-0.8638	2.3001	-0.4189	11.8124	-50.4963	152.3777	-8.8271	0.487	-0.4703	-1.2204	9.429	1.7429	-0.2264	-8.3801	-4.7967	-8.9958	-0.1201	-0.3843	-0.3182
-0.9789	-0.2578	9.5414	3.1292	1.413	0.4646	-0.1291	0.8062	-0.8646	2.2951	-0.5925	11.5221	-54.7233	152.3255	-8.8113	0.5413	-0.3992	-1.22	9.1958	1.0447	-0.1756	-8.7808	-5.0883	-9.4074	-0.1261	-0.4083	-0.3242
-0.9165	-0.6611	9.7141	2.1788	1.3506	0.7318	-0.1294	0.8306	-0.8874	2.355	0.3315	11.6984	-58.3615	153.1769	-6.6591	0.5782	-0.4227	-1.0909	9.3722	1.0445	-0.1723	-8.1807	-5.183	-10.4627	-0.1381	-0.4023	-0.3122
-0.7864	-1.2363	10.3475	4.02	1.5731	0.1101	-0.1102	0.7815	-0.8192	1.8947	0.9675	11.9229	-60.2301	153.9621	-0.6071	0.5957	-0.4456	-1.069	9.3157	0.9867	-0.0596	-6.9402	-4.9735	-11.569	-0.1261	-0.4143	-0.3242
-1.087	-0.3143	9.9415	4.5661	1.5667	0.7588	-0.073	0.877	-0.8205	1.785	1.8343	12.328	-57.0804	154.2383	13.4926	0.6334	-0.3992	-0.9833	9.0286	0.8714	0.2763	-5.5929	-5.4264	-14.1558	-0.1381	-0.4083	-0.3182
-1.0276	-0.9486	9.9411	5.9445	1.884	0.8768	-0.0919	0.8536	-0.8426	2.0648	2.3529	11.8118	-46.6144	153.8445	34.3462	0.6681	-0.4918	-0.8963	8.7247	0.8705	-0.242	-4.0799	-5.9882	-11.4606	-0.1201	-0.4083	-0.3302
-1.255	-0.6592	10.2247	6.7148	2.2322	0.5009	-0.1476	0.8304	-0.8879	3.273	3.5056	11.4291	-45.3658	152.4316	59.7084	0.6331	-0.5166	-0.8541	8.2587	1.1626	-0.0223	-3.7573	-6.1477	-5.5983	-0.1321	-0.3963	-0.3362
-1.2073	-0.0262	9.7673	6.8083	2.2719	0.2885	-0.1099	0.8772	-0.8437	5.2502	3.0994	11.8121	-42.8457	148.4299	82.6919	0.6893	-0.4466	-0.7469	8.2718	1.4553	0.662	-3.1571	-6.2435	-6.6229	-0.1261	-0.4023	-0.3362
-0.3953	0.3756	9.7269	6.5623	2.2076	0.4064	-0.1276	0.8764	-0.822	9.2971	3.3824	11.3633	-32.7894	140.1406	96.7307	0.6892	-0.4701	-0.7253	7.8566	0.7567	0.4246	-2.4998	-7.3888	-7.6103	-0.1321	-0.4203	-0.3422
-1.1448	-0.4871	9.9399	7.8521	2.6345	0.1917	-0.1094	0.8766	-0.8215	13.0583	2.9152	11.0823	-35.3679	125.0063	99.3282	0.6359	-0.542	-0.6617	7.7334	0.8725	0.1378	-1.8223	-8.8875	-2.3742	-0.1321	-0.4143	-0.3302
-1.5067	-0.8917	9.242	6.6305	2.6603	-0.03	-0.093	0.8309	-0.8865	16.993	2.7944	10.805	-28.9426	107.7299	89.5744	0.6875	-0.6336	-0.617	7.326	0.2331	0.2993	0.9502	-10.4101	2.0748	-0.1261	-0.4083	-0.3182
-1.3314	-0.7189	9.3033	8.287	3.081	-0.2119	-0.1115	0.8551	-0.9097	20.2934	1.7506	10.631	-16.1125	92.3393	65.4767	0.5993	-0.6597	-0.5972	7.623	0.466	0.4764	5.4117	-12.542	4.8793	-0.1321	-0.4083	-0.3242
-0.6863	-0.6042	9.6038	7.8398	4.5002	-0.0159	-0.092	0.8298	-0.8421	29.3438	-16.7384	10.0156	448.8056	-10.6263	-18.5652	0.5629	-0.7305	-0.5759	8.1453	0.4064	0.1445	8.3366	-14.7565	9.7214	-0.1321	-0.4203	-0.3182
-0.2131	-0.0275	10.0744	7.7317	5.6132	-0.6332	-0.0925	0.8304	-0.8643	36.85	13.4633	20.4552	-11.0637	-49.2155	-52.9221	0.5269	-0.8017	-0.5333	8.2058	0.8723	0.2607	10.7274	-17.2408	16.3986	-0.1201	-0.4203	-0.3242
-1.3264	-0.949	9.5328	9.7968	7.323	-0.7128	-0.1105	0.854	-0.8653	26.361	8.2584	3.7893	126.0192	-59.5495	-97.654	0.5097	-0.7319	-0.5984	8.2109	0.2907	0.4872	13.8949	-19.0792	20.9813	-0.1201	-0.4083	-0.3182
-1.3793	-0.6599	9.8199	10.6745	9.3725	-1.1199	-0.0744	0.8787	-0.8871	23.8408	10.2848	5.5445	29.6821	-101.8298	-44.9173	0.4741	-0.8033	-0.5344	8.6205	0.9305	0.4396	13.1391	-20.6347	18.7543	-0.1321	-0.3963	-0.3182
-1.022	-0.8326	10.2289	12.7702	11.0819	-1.1993	-0.1094	0.8766	-0.8215	5.8349	0.4302	2.25	52.386	-111.9808	21.7258	0.4539	-0.8726	-0.5981	9.2618	0.638	0.1663	19.1052	-21.6506	19.0217	-0.1141	-0.4083	-0.3242
-1.018	-0.5438	10.4596	13.3987	16.186	-1.3831	-0.0915	0.9011	-0.8438	-0.8164	0.0479	12.5109	42.7565	-102.7713	62.7317	0.4549	-0.8262	-0.5986	9.1315	1.0441	-0.4616	24.8975	-21.5371	23.5307	-0.1261	-0.3963	-0.2942
-1.4641	-1.9822	11.252	19.9998	25.6956	-1.477	-0.0565	0.8313	-0.8855	5.1861	3.2765	14.7109	-16.8753	-72.1013	51.3361	0.4363	-0.8731	-0.5985	10.253	1.7421	-0.1538	28.0623	-19.1916	33.1579	-0.1381	-0.4023	-0.3182
-0.8168	-0.6562	11.7854	5.2607	38.6503	1.9184	-0.1117	0.8313	-0.9091	7.1738	1.3035	9.1186	1.2924	-59.4668	-1.4524	0.4015	-0.851	-0.5994	11.1291	2.6719	-0.3627	26.4574	-12.6014	49.1621	-0.1321	-0.4083	-0.3122
-1.5724	-0.8277	11.77	-3.4711	51.5304	3.3199	-0.1116	0.7832	-0.8858	3.1662	0.0953	8.465	-33.2891	-48.7157	-32.0171	0.4024	-0.8281	-0.5783	12.1775	2.2038	-0.8564	21.1579	-2.5389	54.9548	-0.1381	-0.3963	-0.3242
-0.5245	-0.8155	17.6539	6.4913	63.1365	11.0125	-0.0568	0.8556	-0.9083	1.9301	-1.8059	10.47	-48.9381	-29.5655	-21.2926	0.42	-0.8276	-0.578	11.6308	2.0275	-1.7783	18.6012	8.0809	28.166	-0.1381	-0.3903	-0.3002
-0.7405	-0.5389	12.7069	-1.699	75.3106	12.8099	-0.0574	0.7843	-0.9066	1.6591	-1.7465	11.5091	-18.3287	-17.4774	-2.1404	0.3494	-0.7826	-0.6439	11.258	2.0836	-2.8103	18.433	13.6425	1.799	-0.1261	-0.3903	-0.3122
