1812_acc_x	1812_acc_y	1812_acc_z	1812_gyro_x	1812_gyro_y	1812_gyro_z	1812_mag_x	1812_mag_y	1812_mag_z	1813_acc_x	1813_acc_y	1813_acc_z	1813_gyro_x	1813_gyro_y	1813_gyro_z	1813_mag_x	1813_mag_y	1813_mag_z	1814_acc_x	1814_acc_y	1814_acc_z	1814_gyro_x	1814_gyro_y	1814_gyro_z	1814_mag_x	1814_mag_y	1814_mag_z
-0.221019	1.218171	9.741853	-1.842037	1.041536	1.777516	0.546736	-0.682303	-0.79243	1.363817	0.361222	9.058154	3.236278	-2.233943	0.63529	-0.342223	0.27618	0.024016	9.343559	3.521604	0.951237	6.48914	3.446946	-1.798597	-0.36427	-0.167375	0.895294
-0.222051	1.101946	9.683758	-2.004076	0.92472	1.623773	0.386655	0.148299	-1.200151	1.202611	0.475506	9.526692	3.023565	-2.130752	0.618737	-0.198129	-0.018012	-0.018012	9.331159	4.097939	0.382944	5.659784	3.100471	-1.85619	-0.497103	0.27018	-0.17836
-0.968209	1.218755	9.669179	-1.768145	0.799478	1.307426	0.412783	0.097061	-1.213002	1.083222	0.419163	9.170619	2.397791	-1.996106	0.341082	-0.198129	-0.03002	-0.03002	9.268027	3.806993	0.037951	5.015296	2.708854	-0.780094	-0.451675	0.293263	-0.19482
-0.505396	0.928515	9.851069	-1.40829	0.984424	0.573043	0.369554	0.128517	-1.200045	1.540812	0.417292	9.474313	1.089272	-1.899249	0.147627	-0.192125	-0.024016	-0.03002	9.143219	3.630903	-0.536012	3.632062	2.675496	0.314303	-0.501082	0.297187	-0.192231
-0.617077	1.277302	10.023065	-0.501935	0.721305	0.021183	0.41522	0.114321	-1.195946	1.422105	0.13178	9.118647	0.742385	-1.708905	-0.229306	-0.198129	-0.012008	-0.012008	8.905298	4.208219	-0.994626	2.277939	3.319545	1.209633	-0.449449	0.289014	-0.207286
-0.677783	1.160853	9.848199	0.130054	0.745627	-0.756821	0.366352	0.072233	-1.178571	1.53052	0.590083	8.943007	0.024604	-1.772982	-0.207325	-0.186121	0	-0.03002	8.794461	3.803698	-0.884534	0.000943	4.087514	1.240752	-0.44547	0.262007	-0.193415
-0.280582	1.101862	9.624801	0.417	0.468414	-1.325092	0.417395	0.17173	-1.23558	1.258555	0.30356	9.469083	-0.922582	-1.742778	-0.603614	-0.192125	-0.006004	-0.024016	8.960888	4.323635	-1.050066	-2.060386	4.674231	1.277234	-0.498429	0.279182	-0.182984
-0.853488	1.276686	9.671605	0.964275	0.302184	-1.497724	0.445195	0.098728	-1.192845	1.370507	0.30332	9.412256	-1.621941	-1.722552	-1.009553	-0.198129	-0.012008	-0.024016	9.417344	3.859554	-1.043159	-3.842778	4.261512	0.757281	-0.480634	0.268872	-0.179223
-0.107108	0.927707	9.685625	1.070267	-0.09825	-1.700044	0.445577	0.11824	-1.21211	0.973209	0.132839	9.286954	-2.395078	-1.559214	-1.125493	-0.180117	-0.018012	-0.018012	9.019981	3.802717	-0.994213	-5.900461	3.235097	0.066569	-0.480634	0.268872	-0.179223
-0.220043	1.392439	9.800087	0.473857	-0.327973	-1.756421	0.401965	0.130184	-1.179889	1.764141	0.245038	9.301964	-3.352266	-0.899163	-1.079267	-0.186121	-0.012008	-0.03002	9.07275	4.207089	-1.162523	-7.003378	1.460496	-1.029851	-0.447269	0.252501	-0.159235
-0.27509	1.334731	9.914433	0.725414	-0.243068	-1.697795	0.418684	0.130454	-1.160731	1.708367	0.359692	9.359675	-4.339017	-0.430169	-1.507785	-0.192125	-0.018012	-0.024016	8.625098	3.630613	-0.831609	-7.798174	-0.587554	-2.026524	-0.451202	0.311772	-0.233624
-0.339503	1.508076	9.566821	0.452705	-0.207563	-1.5065	0.445839	0.07809	-1.155421	1.537253	-0.212417	9.180429	-4.027101	-0.579877	-1.281491	-0.192125	-0.012008	-0.03002	8.809216	3.749219	-0.142599	-7.85527	-2.537755	-2.807407	-0.453855	0.329777	-0.242871
-0.332255	1.102616	9.912731	0.133019	0.16568	-1.147421	0.375837	0.181421	-1.167038	1.648929	0.245582	9.18179	-4.132241	-0.26736	-1.226719	-0.204133	-0.024016	-0.012008	8.536888	3.752679	0.479784	-6.682404	-4.510275	-3.122382	-0.414758	0.26364	-0.182675
-0.335629	1.044154	9.739147	-0.283611	0.261646	-0.583511	0.462941	0.097872	-1.155527	1.202887	0.017268	9.468504	-3.760744	-0.4831	-0.975923	-0.192125	-0.012008	-0.018012	8.999408	4.21678	0.890542	-4.865806	-5.542322	-2.26288	-0.464165	0.267564	-0.180086
-0.385238	1.277359	10.143267	-1.19426	0.245052	0.170876	0.402992	0.129057	-1.161729	1.711904	-0.098851	9.478487	-2.609602	-0.704182	-0.661098	-0.210137	-0.024016	-0.03002	9.345812	3.522129	1.065421	-2.344388	-5.611371	-1.69719	-0.463265	0.272317	-0.197176
-0.624492	1.85689	9.677574	-1.87373	0.71561	0.87866	0.399528	0.112924	-1.196944	1.598865	-0.09851	9.476314	-1.054057	-0.977481	-0.271612	-0.198129	0	-0.012008	9.468037	3.292156	1.466268	0.513257	-4.846387	-1.30196	-0.416465	0.318663	-0.269529
-0.222162	1.218031	9.684038	-2.25294	0.96366	1.50905	0.392556	0.181692	-1.14788	1.708708	0.245107	9.359878	0.253143	-1.206493	0.067934	-0.198129	-0.024016	-0.024016	10.092149	3.869606	1.424193	2.815875	-3.384144	-0.864714	-0.396963	0.25333	-0.178914
-0.620451	1.21884	9.849481	-2.734979	1.188915	1.743677	0.374045	0.143524	-1.146669	1.253292	0.246775	9.174184	1.716316	-1.510359	0.520624	-0.204133	-0.012008	-0.024016	9.747224	3.811604	1.245896	4.717972	-1.559929	-0.376847	-0.450349	0.284261	-0.190196
-0.567078	0.637799	9.617968	-2.32587	1.299238	1.89128	0.417012	0.152218	-1.216315	1.035566	0.361229	9.641636	3.208795	-1.77947	0.881765	-0.192125	-0.018012	-0.024016	9.300472	3.351183	1.634428	5.666401	0.47025	-0.112979	-0.444997	0.280516	-0.232218
-0.620228	0.986669	9.848922	-2.174394	1.422423	1.587144	0.419066	0.149966	-1.179995	1.48165	-0.155056	9.238241	3.990692	-1.855122	1.09572	-0.210137	-0.018012	-0.042027	9.109927	3.636537	0.661797	6.245906	2.467928	-0.033851	-0.467717	0.280816	-0.172244
-0.562142	1.451095	9.908998	-2.493605	1.248592	1.404236	0.400173	0.092286	-1.159519	1.206659	-0.154914	9.645809	4.215663	-1.808783	1.21413	-0.192125	-0.018012	-0.018012	8.593956	3.115442	0.420926	6.273208	4.018786	0.786708	-0.449449	0.289014	-0.207286
-0.678871	1.102671	9.790244	-1.924673	1.149842	0.744909	0.435021	0.111212	-1.122308	1.310728	0.303795	9.234169	4.154855	-1.807981	1.247295	-0.198129	-0.024016	-0.024016	8.57547	3.922048	-0.431776	5.225692	5.113228	2.560196	-0.431227	0.264948	-0.181812
-0.506817	1.218589	9.793952	-0.83865	0.88525	-0.055757	0.402347	0.149696	-1.199153	1.361814	0.304132	8.940255	3.671636	-1.896027	0.950176	-0.192125	-0.012008	-0.012008	8.282756	3.978674	-0.836789	3.317926	5.923021	4.21331	-0.470843	0.280312	-0.142688
-0.328604	0.870865	10.085617	-0.119647	0.565502	-0.605488	0.387682	0.147173	-1.181991	1.321424	0.360072	9.824069	2.96633	-1.609801	0.80875	-0.204133	-0.024016	-0.018012	8.337902	3.746448	-0.950899	1.011816	6.094208	5.206228	-0.476608	0.274129	-0.225869
-0.678537	0.754414	9.789406	0.603073	0.400348	-1.210074	0.406576	0.204853	-1.202467	1.708133	0.073331	9.301182	1.620011	-1.434613	0.34356	-0.198129	-0.03002	-0.012008	8.563878	3.513882	-1.06163	-1.539989	6.034838	5.01038	-0.464592	0.28132	-0.2018
-0.733472	0.580621	9.903473	0.859262	-0.001597	-1.599382	0.402347	0.149696	-1.199153	1.253527	0.533135	9.232676	0.367863	-1.197936	-0.182919	-0.180117	-0.024016	-0.024016	9.127452	3.627223	-1.335302	-3.752492	5.49286	4.582874	-0.462365	0.27707	-0.214266
-0.332701	1.566958	9.913849	0.712802	-0.298197	-2.158145	0.391146	0.163306	-1.146776	1.479541	0.188801	9.178632	-2.123949	-0.485675	-0.479312	-0.210137	-0.03002	-0.03002	9.577469	4.146329	-1.552295	-5.993596	3.899044	2.742132	-0.484186	0.282124	-0.171381
-0.397645	1.101694	9.506885	1.04107	-0.457046	-2.447503	0.448014	0.1355	-1.195055	1.482865	0.532149	9.414024	-3.47015	-0.243563	-1.032931	-0.186121	-0.006004	-0.024016	9.295358	3.394508	-1.504251	-8.387834	1.951371	-0.161712	-0.445896	0.275763	-0.215129
-0.333454	1.160519	9.855056	1.35126	-0.403239	-2.483225	0.404019	0.127931	-1.143569	1.418568	0.590323	8.999834	-3.966936	-0.221912	-1.044388	-0.204133	-0.018012	-0.018012	8.795814	3.688168	-0.827967	-9.855599	-1.706406	-2.684513	-0.468144	0.294571	-0.193957
-0.739799	1.218392	9.615936	1.4316	0.023075	-2.284271	0.370581	0.127391	-1.181885	1.265416	0.188366	9.823287	-4.296396	-0.314501	-1.378298	-0.204133	-0.018012	-0.018012	8.749007	3.690647	-0.315264	-10.061442	-5.799609	-3.722356	-0.434307	0.296709	-0.212773
-0.626222	1.276184	9.560547	1.139272	0.052597	-1.603812	0.403374	0.148569	-1.180993	1.366331	0.246434	9.176357	-4.164952	-0.688416	-1.468868	-0.204133	-0.018012	-0.018012	8.822844	3.694477	0.542244	-9.439145	-8.787052	-2.181638	-0.479307	0.259869	-0.174599
-0.570199	1.508159	9.504434	0.258475	0.004444	-0.851434	0.404019	0.127931	-1.143569	1.481991	-0.26964	9.238444	-3.186625	-0.977402	-1.492063	-0.192125	-0.006004	-0.024016	9.002684	3.696238	1.00236	-7.77532	-10.086633	0.05957	-0.48106	0.282627	-0.200937
-0.91556	1.392268	9.439482	-0.653905	-0.042474	-0.128811	0.35797	0.122615	-1.128402	1.423256	0.475332	9.236038	-2.777714	-1.103316	-1.20596	-0.198129	-0.024016	-0.03002	9.918168	3.753366	1.249012	-5.562126	-9.743927	1.531594	-0.428528	0.279208	-0.233081
-0.28298	1.217668	9.509451	-2.148079	0.205315	0.436391	0.386655	0.148299	-1.200151	1.596649	0.646292	9.474994	-2.206838	-1.50316	-1.159645	-0.198129	-0.012008	-0.018012	9.913561	3.230984	0.961185	-3.444079	-8.173992	2.821717	-0.467244	0.299324	-0.211047
-0.38273	1.045468	10.258337	-2.558298	0.579719	0.889351	0.352452	0.108735	-1.199938	0.974636	0.018153	9.346157	-1.362198	-1.459314	-0.322219	-0.198129	-0.036023	-0.03002	10.21359	3.465681	1.767158	-0.960512	-5.264271	2.920518	-0.466818	0.285569	-0.189334
-0.389644	1.102672	9.911588	-2.4827	0.820691	1.141927	0.398119	0.094538	-1.19584	1.58949	0.131472	9.003906	0.629581	-1.552692	-0.153378	-0.204133	-0.024016	-0.018012	10.375296	3.521133	1.314063	1.397478	-1.439588	1.131757	-0.465491	0.276566	-0.18471
-0.219654	0.98614	9.799108	-2.412735	1.06506	1.1503	0.370581	0.127391	-1.181885	1.65025	0.531841	9.299283	0.56504	-0.964819	0.535656	-0.192125	-0.012008	-0.03002	9.750262	3.986081	1.417961	3.140314	2.4721	-0.845853	-0.462365	0.27707	-0.214266
-0.899921	0.581487	10.189118	-2.280298	1.307381	1.187664	0.430912	0.115717	-1.194948	1.260792	0.64701	9.645475	0.547976	-0.458662	0.970489	-0.204133	-0.018012	-0.024016	9.053996	3.69481	0.718026	4.023724	5.921792	-1.318712	-0.460612	0.254312	-0.187928
-0.622904	1.392689	9.734271	-1.964264	1.061804	0.497759	0.357325	0.143253	-1.165827	1.420848	0.189174	9.059545	-0.543282	0.310994	1.399461	-0.192125	-0.03002	-0.024016	8.816087	3.692899	0.199691	3.925884	8.470756	0.273239	-0.465445	0.308831	-0.245227
-0.736259	1.102726	9.789101	-1.830207	0.662255	0.172569	0.386273	0.128787	-1.180887	1.481543	0.24589	9.296531	-1.42757	0.985926	1.691219	-0.192125	-0.006004	-0.018012	8.179347	3.807578	-0.326001	2.815176	10.325654	2.365186	-0.452575	0.28851	-0.17773
-0.505396	0.928515	9.851069	-1.763745	0.111011	-0.187803	0.388709	0.146046	-1.163831	1.377986	-0.384696	9.708475	-2.984951	1.161379	1.388241	-0.192125	-0.012008	-0.03002	8.795018	4.093443	-0.826127	1.152722	11.334578	3.189219	-0.497529	0.283935	-0.200074
-0.448119	1.044545	9.852491	-0.609742	-0.033482	-0.893472	0.41522	0.114321	-1.195946	1.428689	0.474824	9.531039	-2.322934	1.118252	1.670446	-0.198129	-0.012008	-0.03002	9.067016	3.684445	-1.507442	-0.846535	11.56874	2.255502	-0.448123	0.280012	-0.202662
-0.569865	1.159903	9.503596	-0.04311	-0.287674	-1.436886	0.436168	0.169748	-1.180102	1.589959	0.704193	9.120891	-3.921874	0.76251	0.284182	-0.192125	-0.018012	-0.018012	9.528421	3.569056	-1.213497	-2.966575	10.773825	0.366283	-0.465018	0.295075	-0.223513
-0.391651	0.812179	9.79526	0.968328	-0.309784	-1.797986	0.386655	0.148299	-1.200151	1.477879	0.017126	9.060936	-6.504524	0.077757	-1.149251	-0.198129	-0.012008	-0.036023	8.900008	4.033216	-1.280875	-4.468829	8.626749	-2.803434	-0.434353	0.264444	-0.152256
-0.512699	1.392018	9.505298	0.022843	-0.681777	-2.035263	0.386917	0.108149	-1.143462	1.20163	0.074662	9.409402	-4.954654	-0.511534	-1.243389	-0.192125	-0.018012	-0.024016	9.012553	3.569291	-1.39491	-5.816741	6.234529	-5.844335	-0.463692	0.286073	-0.218889
-0.737402	1.102586	9.731286	0.087428	-0.685098	-1.914698	0.387682	0.147173	-1.181991	1.147455	0.017337	9.526418	-5.199836	-0.628627	-1.767362	-0.186121	-0.006004	-0.03002	9.249905	3.281457	-0.934982	-6.516496	2.965741	-7.087476	-0.41831	0.276892	-0.174832
-0.621594	1.2187	9.791667	-0.642012	-0.484525	-1.644649	0.417657	0.13158	-1.178891	1.146773	0.246506	9.526012	-5.932606	-0.737616	-2.05676	-0.186121	-0.018012	-0.03002	8.336673	3.224855	-1.067449	-5.984751	-0.808733	-6.263024	-0.462365	0.27707	-0.214266
-0.279384	1.043959	9.682476	-1.177374	-0.262743	-1.042191	0.400555	0.111798	-1.178784	1.48165	-0.155056	9.238241	-5.29496	-0.945956	-2.155112	-0.198129	-0.024016	-0.03002	8.479501	3.405151	0.419988	-5.391627	-4.442417	-4.554531	-0.446323	0.289518	-0.236842
-0.562142	1.451095	9.908998	-1.913683	0.206466	-0.1192	0.417657	0.13158	-1.178891	1.202547	0.131853	9.468301	-5.218633	-0.544773	-1.575873	-0.198129	-0.018012	-0.024016	9.122873	3.929173	1.348217	-4.033205	-6.603556	-2.32555	-0.482387	0.29163	-0.20556
-0.459717	1.217276	9.274763	-2.74277	0.458621	1.102678	0.405811	0.165829	-1.163938	1.428518	0.532116	9.530937	-5.158623	-0.320656	-1.161923	-0.192125	-0.024016	-0.012008	9.059059	3.985606	1.004801	-2.523629	-7.660701	-0.029622	-0.467717	0.280816	-0.172244
-0.39324	1.276381	9.738563	-3.449145	1.17853	1.637989	0.398119	0.094538	-1.19584	1.658538	0.30196	9.71269	-4.733197	0.322648	-0.734371	-0.192125	-0.018012	-0.036023	9.63683	3.754723	1.414657	-1.386587	-7.243834	1.740745	-0.479261	0.292134	-0.235116
-0.45127	0.753912	9.678348	-3.371051	1.38663	2.041953	0.420476	0.168352	-1.1811	1.372212	-0.269604	9.413271	-4.328609	0.359808	-0.004997	-0.192125	-0.018012	-0.03002	10.369323	3.693508	1.02939	-0.161375	-5.134986	3.135908	-0.431227	0.264948	-0.181812
-0.441205	0.987341	10.19924	-4.446022	1.442811	2.283731	0.433349	0.132977	-1.177893	1.086993	0.246981	9.347924	-2.868261	0.551943	0.479608	-0.192125	-0.012008	-0.036023	10.544658	3.694218	1.261138	1.336018	-1.334506	2.260626	-0.48286	0.273121	-0.166757
-0.048799	1.159961	9.745142	-4.685791	1.539002	2.476738	0.356298	0.14438	-1.183987	1.197284	0.075068	9.173402	-1.749958	0.625644	1.123566	-0.204133	-0.012008	-0.03002	10.026537	3.693928	0.965541	2.462665	3.120405	0.328284	-0.43208	0.292459	-0.225239
-1.134325	0.871364	9.953986	-5.680399	1.22376	2.701351	0.417657	0.13158	-1.178891	1.033223	0.418725	9.523534	-1.962618	0.684365	1.938553	-0.192125	-0.018012	-0.024016	9.446854	3.750596	0.440712	2.54579	6.82265	-1.316964	-0.468144	0.294571	-0.193957
-0.510135	1.102084	9.620229	-5.597738	1.007781	2.568277	0.370581	0.127391	-1.181885	1.320784	-0.155356	9.706983	-0.87996	0.699162	2.549117	-0.192125	-0.012008	-0.03002	8.86931	3.865686	0.03033	1.893727	9.541588	-1.322356	-0.449022	0.275259	-0.185573
-0.452413	0.753773	9.620533	-4.10193	0.853087	1.945734	0.448014	0.1355	-1.195055	1.313753	0.01713	9.352677	-1.743813	0.795933	2.586725	-0.204133	-0.018012	-0.03002	8.698935	3.634442	0.0259	1.582491	11.213528	-0.689933	-0.480634	0.268872	-0.179223
-0.505229	0.754387	9.850649	-3.208333	0.315351	1.230098	0.41522	0.114321	-1.195946	1.870213	0.760836	9.008223	-3.394936	0.853135	1.661506	-0.210137	-0.006004	-0.03002	8.688003	4.037351	-0.48609	0.351674	11.735104	0.300658	-0.4317	0.24644	-0.143008
-0.26985	0.638778	10.144016	-2.704118	0.000434	0.746787	0.419066	0.149966	-1.179995	1.365244	0.246535	9.117357	-4.691862	0.653073	0.614191	-0.174113	-0.024016	-0.018012	8.860869	3.574101	-0.427722	-1.001605	11.85236	-0.47396	-0.431654	0.278704	-0.203525
-0.802736	1.043621	9.3253	-1.818923	-0.142274	0.44485	0.375072	0.142397	-1.128509	1.425365	0.131476	9.295647	-5.805721	0.09184	-0.802899	-0.186121	-0.006004	-0.03002	9.085036	3.68865	-0.593968	-1.832128	11.863881	-1.946778	-0.448169	0.247747	-0.142145
-0.330025	1.160938	10.028501	-0.827343	-0.371984	-0.474374	0.369554	0.128517	-1.200045	0.752223	0.247598	9.577405	-5.921298	-0.497014	-1.330936	-0.210137	0	-0.03002	9.075582	3.338906	-1.109374	-2.906791	11.052102	-3.891188	-0.431227	0.264948	-0.181812
0.005382	0.927316	9.572281	0.449631	-0.299809	-1.510216	0.38589	0.109275	-1.161622	1.709155	-0.270424	9.301791	-5.226802	-1.05815	-1.85574	-0.198129	-0.006004	-0.024016	9.414876	3.395594	-1.216538	-4.072742	9.760125	-6.589611	-0.478408	0.264623	-0.191689
-0.674187	0.987144	10.021224	0.737774	0.063147	-1.593835	0.404019	0.127931	-1.143569	1.325195	0.187891	10.001374	-6.313079	-1.157245	-3.213321	-0.186121	-0.012008	-0.042027	9.372346	3.514918	-0.474941	-4.714603	7.969688	-8.294931	-0.448123	0.280012	-0.202662
-0.328659	0.928907	10.085757	2.109825	0.615491	-1.878794	0.361554	0.198411	-1.169141	1.435592	-0.384968	9.768562	-6.356008	-1.540608	-2.98911	-0.198129	-0.018012	-0.036023	8.689482	3.284698	-0.489507	-4.770669	5.858022	-6.441694	-0.450349	0.284261	-0.190196
-0.627086	0.985831	9.502034	3.070777	0.933243	-2.224734	0.418422	0.170604	-1.21742	1.259748	-0.097487	9.469794	-6.8809	-1.946786	-3.119701	-0.192125	-0.012008	-0.024016	8.694544	3.575494	-0.202732	-5.163337	3.175505	-3.567721	-0.450775	0.298017	-0.21191
-0.684864	1.392185	9.501869	2.61792	1.517295	-1.242651	0.423295	0.205123	-1.183309	1.486678	-0.384631	9.474648	-6.522	-1.685595	-3.054185	-0.186121	-0.012008	-0.036023	8.819807	3.519999	0.370179	-5.312701	1.655719	-0.383003	-0.44367	0.271513	-0.227595
-0.388334	0.928683	9.968984	1.031317	1.516433	-0.318757	0.340989	0.162495	-1.20425	1.54584	0.187716	9.71072	-7.072102	-1.249305	-2.635345	-0.204133	-0.024016	-0.036023	9.276036	3.17171	0.377612	-4.171851	0.448529	1.394464	-0.465018	0.295075	-0.223513
-0.455033	1.101749	9.505742	-1.204862	1.501863	0.620019	0.359762	0.160513	-1.148772	1.311239	0.131918	9.234474	-7.664134	-0.829144	-2.463255	-0.186121	-0.024016	-0.03002	9.797752	3.636223	0.903681	-4.07786	-0.126065	3.029283	-0.430754	0.283457	-0.220615
-0.394216	1.102113	9.680329	-2.491619	1.372861	1.317615	0.433349	0.132977	-1.177893	1.768189	-0.385382	9.421081	-7.06695	-0.4407	-2.058288	-0.198129	-0.024016	-0.024016	9.568625	3.752208	0.842609	-4.539644	0.303549	4.6684	-0.449449	0.289014	-0.207286
-0.506873	1.276632	9.794092	-2.641876	1.437143	1.415505	0.404784	0.166955	-1.182098	1.768083	0.015564	9.479371	-6.107006	-0.355683	-1.500546	-0.192125	0	-0.03002	10.198379	3.751746	1.026275	-3.61986	1.334997	4.068321	-0.448076	0.312276	-0.26318
-0.906137	1.103173	9.901302	-3.034978	1.50537	1.702687	0.402992	0.129057	-1.161729	1.377474	-0.212819	9.708171	-4.217206	-0.342394	-0.919401	-0.198129	-0.006004	-0.036023	9.782212	3.516751	0.103865	-1.717021	2.499964	1.482427	-0.416084	0.272643	-0.187298
-0.79387	1.334953	9.788517	-4.416335	0.801828	1.798305	0.391529	0.182818	-1.16604	1.430116	0.360138	9.590242	-2.133754	-0.504745	-0.696508	-0.198129	-0.012008	-0.036023	9.968923	3.462193	0.906271	-0.24619	4.360948	-0.877278	-0.463265	0.272317	-0.197176
-0.222162	1.218031	9.684038	-4.355976	0.801054	1.73572	0.432966	0.113465	-1.158628	1.367354	-0.097321	9.176966	-1.274376	-0.572288	-0.113998	-0.192125	0	-0.036023	9.22709	3.115768	0.775868	0.88641	6.300633	-2.628942	-0.430327	0.269701	-0.198902
-0.390898	1.218617	9.854053	-6.27414	0.382917	2.283655	0.419066	0.149966	-1.179995	1.49241	0.244875	9.886533	-0.391264	-0.854145	-0.195082	-0.192125	-0.006004	-0.048031	8.990637	3.519658	0.373558	1.465748	8.387017	-2.337776	-0.449449	0.289014	-0.207286
-0.677227	0.580426	9.846801	-5.688899	0.148858	2.504606	0.421121	0.147713	-1.143675	1.366672	0.131849	9.17656	0.117022	-0.892729	0.123911	-0.186121	0.012008	-0.03002	8.981058	3.807037	-0.081865	2.046514	9.94192	-1.330819	-0.467671	0.31308	-0.232761
-0.387246	0.986866	10.026939	-3.700552	0.170344	1.541437	0.421503	0.167225	-1.16294	1.029387	0.247253	9.287838	-1.170489	-0.558654	0.130332	-0.186121	-0.006004	-0.03002	9.154254	3.749325	0.035435	1.705864	11.087011	-0.319315	-0.467244	0.299324	-0.211047
-0.500546	0.638861	10.081629	-2.353382	0.2358	0.870355	0.387682	0.147173	-1.181991	1.706364	0.302602	9.241776	-1.418896	-0.972672	-0.072617	-0.174113	-0.006004	-0.042027	8.865488	3.517256	-0.199616	1.858446	11.551809	-0.54337	-0.417365	0.31391	-0.252439
-0.208168	0.929495	10.377116	-0.165283	0.620131	0.009025	0.398381	0.054388	-1.13915	1.083393	0.361871	9.170721	-1.269829	-1.037367	-0.143993	-0.204133	-0.006004	-0.036023	8.856137	3.688843	-0.655565	1.45757	11.958458	-1.441923	-0.431181	0.297213	-0.242329
-0.272637	1.160883	10.029644	2.025405	0.908818	-0.611816	0.391146	0.163306	-1.146776	1.206083	-0.32669	9.587114	-2.027236	-1.120959	-0.307246	-0.192125	0	-0.024016	9.135449	3.571167	-0.93592	0.012105	12.044834	-2.277497	-0.417838	0.295401	-0.213636
-0.563872	0.870388	9.791971	4.319407	1.470962	-1.162762	0.402347	0.149696	-1.199153	1.427474	-0.212381	9.355256	-2.378838	-1.449071	-0.871785	-0.192125	0.006004	-0.03002	8.851518	3.745688	-0.88367	-0.84763	11.545661	-2.392883	-0.413385	0.286902	-0.238568
-0.558966	0.522691	10.022392	5.178752	1.608353	-1.635932	0.40132	0.150822	-1.217313	1.256552	0.24647	9.351184	-2.381749	-1.4783	-0.904458	-0.192125	0.006004	-0.042027	8.515262	3.863477	-0.604441	-1.799296	10.975896	-1.956592	-0.447223	0.284765	-0.219752
-0.451326	0.811955	9.678488	5.967938	1.344658	-1.909994	0.402347	0.149696	-1.199153	1.256552	0.24647	9.351184	-3.20325	-1.422163	-1.303655	-0.198129	-0.012008	-0.042027	9.370094	3.514392	-0.589125	-2.904032	10.209015	-0.751926	-0.401795	0.307849	-0.236213
-0.866284	1.50732	9.036201	2.996066	0.158499	-1.704716	0.438605	0.187008	-1.163046	1.373021	0.188532	9.53046	-3.885182	-1.68487	-1.666569	-0.198129	-0.006004	-0.036023	8.987144	3.576765	0.202544	-4.930766	9.198712	-0.433541	-0.429854	0.28821	-0.237705
-1.023311	1.21909	9.783666	-0.019998	-0.176143	-0.607758	0.371225	0.106752	-1.14446	1.247113	0.132799	8.820386	-4.49469	-1.440082	-1.69052	-0.192125	0.012008	-0.048031	9.445273	3.981919	0.384671	-5.388096	7.460967	-1.405005	-0.429854	0.28821	-0.237705
-0.333343	1.044434	9.854777	-0.966651	-0.000638	-0.333574	0.436813	0.14911	-1.142677	1.320103	0.073813	9.706577	-4.738983	-1.368259	-1.677033	-0.186121	0	-0.048031	9.618924	3.692621	0.50092	-5.627885	4.797748	-1.772723	-0.431654	0.278704	-0.203525
-0.568555	0.985915	9.560991	-2.05995	-0.278449	-0.410673	0.404401	0.147443	-1.162833	1.031944	-0.612133	9.28936	-3.101661	-1.405143	-1.12083	-0.210137	-0.006004	-0.036023	9.560627	3.808265	0.443227	-6.082212	1.908671	-1.555239	-0.415185	0.277396	-0.204388
-0.502357	1.335233	10.025491	-2.323628	-0.122921	-0.000747	0.389737	0.14492	-1.145671	1.195451	-0.039314	9.055604	-2.217592	-1.431159	-0.752881	-0.192125	0.006004	-0.03002	9.902742	3.575997	0.448933	-5.369435	-0.608962	-2.685845	-0.430754	0.283457	-0.220615
-0.220908	1.102086	9.741573	-3.480824	-0.290163	0.99779	0.404784	0.166955	-1.182098	1.371466	-0.384087	9.354474	-2.086865	-1.513232	-0.48476	-0.186121	-0.012008	-0.03002	10.080887	3.866977	0.853271	-3.368747	-1.779574	-4.72775	-0.448549	0.293767	-0.224376
-0.279161	0.811788	9.681917	-5.372019	-0.67539	1.332518	0.402992	0.129057	-1.161729	1.320614	-0.098064	9.706881	0.018677	-1.506982	0.057184	-0.198129	0.006004	-0.024016	10.025195	3.230231	0.849254	-1.370633	-1.793599	-6.245964	-0.43298	0.287706	-0.208149
-0.972559	0.986025	9.437361	-5.987557	-1.803198	1.698101	0.400938	0.13131	-1.198049	1.369804	-0.555762	9.236779	0.615149	-1.676382	0.426387	-0.204133	-0.024016	-0.054035	9.857619	3.868484	1.077135	0.687097	-1.063081	-8.331681	-0.448549	0.293767	-0.224376
-0.970662	1.392603	9.553969	-8.724497	-4.099785	1.577157	0.390119	0.164432	-1.164936	1.534057	0.131541	9.06182	-0.102019	-1.707844	0.419535	-0.186121	-0.006004	-0.03002	9.457104	3.695065	0.954278	2.681571	0.592839	-8.818151	-0.464592	0.28132	-0.2018
0.02356	1.045637	10.497597	-6.953312	-4.963866	0.491103	0.3873	0.127661	-1.162727	1.879183	0.301786	9.422036	-0.197759	-2.057788	0.060627	-0.192125	0	-0.036023	8.821604	3.75211	0.485415	3.539181	2.117402	-7.594872	-0.449876	0.30277	-0.229
-0.45127	0.753912	9.678348	-3.850504	-4.050023	-0.339662	0.3734	0.164162	-1.184094	1.203633	0.131751	9.527301	0.96033	-2.680411	0.318539	-0.198129	-0.006004	-0.036023	8.539027	3.811101	0.594231	3.597799	3.477492	-6.280324	-0.416084	0.272643	-0.187298
-0.334375	0.928209	9.796683	-2.060479	-3.141797	-0.436587	0.402992	0.129057	-1.161729	1.253569	-0.211463	9.115996	3.049188	-3.532757	0.064324	-0.174113	0	-0.054035	8.472971	3.287781	0.07691	3.196357	4.289702	-5.597848	-0.477035	0.287885	-0.247582
-0.046291	0.92807	9.860212	1.984706	-2.167693	-0.737208	0.375454	0.161909	-1.147774	1.540513	-0.212721	9.35743	2.482996	-3.464144	-0.18883	-0.222145	0	-0.03002	8.012237	3.635018	-0.158892	2.888701	4.484606	-4.533527	-0.39559	0.276592	-0.234807
-0.331922	0.75436	9.911893	4.163401	-1.311415	-0.020406	0.386011	0.168937	-1.237576	1.369932	0.131544	9.353561	1.337775	-3.900443	-1.009597	-0.204133	0.012008	-0.036023	8.340154	3.746974	-0.836715	3.227949	4.165054	-3.362046	-0.434779	0.2782	-0.173969
-0.330667	0.638414	9.969428	8.682867	-0.714607	-0.683945	0.388065	0.166685	-1.201256	1.431885	0.130866	9.649648	1.568853	-4.377637	-1.573979	-0.198129	0.006004	-0.024016	8.169097	3.863108	-0.839568	4.277843	2.327586	-2.549156	-0.413385	0.286902	-0.238568
-0.852123	1.044655	9.728861	7.266686	-1.446385	-0.710898	0.403374	0.148569	-1.180993	1.036248	0.132059	9.642042	1.595827	-5.189183	-2.121485	-0.186121	-0.018012	-0.018012	7.717385	3.633221	-0.678353	3.8835	0.05451	-2.498561	-0.399569	0.303599	-0.248679
-0.334152	0.696038	9.796124	5.568343	-1.325677	0.556799	0.420476	0.168352	-1.1811	1.20717	-0.326791	9.646114	3.222772	-6.127438	-2.148092	-0.192125	0.012008	-0.036023	8.281653	2.819957	-1.013323	1.215749	-2.71381	0.120444	-0.411205	0.250389	-0.190517
-0.562198	1.509138	9.909138	7.131579	-0.279853	-0.170827	0.402609	0.109545	-1.142464	1.261282	-0.613119	9.470707	4.49781	-7.158726	-3.064112	-0.192125	0	-0.036023	8.692405	3.517072	-0.317179	-1.636217	-5.576858	2.771211	-0.430754	0.283457	-0.220615
-0.512699	1.392018	9.505298	5.71324	-0.602554	-0.853229	0.384219	0.13104	-1.217207	1.101503	-0.613522	9.998449	3.829166	-8.928499	-4.914918	-0.180117	-0.012008	-0.03002	8.976234	2.821221	-0.428887	-2.948803	-9.553187	3.253961	-0.397389	0.267086	-0.200627
-0.693897	1.274982	9.039071	4.059483	-0.957155	-0.98128	0.421121	0.147713	-1.143675	1.485144	0.131001	9.473734	4.995701	-10.816334	-6.592795	-0.192125	-0.012008	-0.03002	9.490283	3.747328	-0.243268	-2.969484	-13.976513	1.888358	-0.431654	0.278704	-0.203525
-0.343044	1.623743	9.393656	-0.048807	-2.399363	-0.087202	0.390119	0.164432	-1.164936	1.599035	-0.155802	9.476415	7.165517	-12.123958	-6.539205	-0.198129	-0.012008	-0.03002	9.212221	3.228143	0.034196	-0.778818	-17.608882	-1.379979	-0.429854	0.28821	-0.237705
-0.287274	0.926895	9.277493	-3.312184	-3.211385	0.35429	0.404019	0.127931	-1.143569	1.715334	-0.156448	9.655589	8.776908	-12.290053	-6.453905	-0.192125	-0.006004	-0.018012	9.212335	3.170247	0.033933	0.91796	-20.256631	-3.266917	-0.415185	0.277396	-0.204388
-0.566881	1.624664	9.678158	-2.946788	-2.859395	0.940689	0.449685	0.113735	-1.13947	1.492282	-0.442431	9.76975	10.934471	-10.873689	-4.988916	-0.198129	-0.012008	-0.036023	8.703884	3.983135	0.312938	1.568203	-22.047953	-1.784378	-0.395163	0.262837	-0.213094
-0.218288	0.754109	9.856364	-1.365264	-2.232416	1.570594	0.387682	0.147173	-1.181991	1.0995	-0.670611	9.88055	12.532468	-9.711037	-2.407305	-0.186121	-0.012008	-0.036023	8.670717	3.351645	1.450763	2.552533	-22.141843	-0.82877	-0.399615	0.271335	-0.188161
-0.335796	1.218282	9.739567	-0.541671	-0.621318	1.494951	0.356298	0.14438	-1.183987	1.332098	-0.671902	10.238898	13.744876	-8.971402	-0.333339	-0.192125	-0.006004	-0.024016	8.268053	3.699031	1.27318	2.335798	-21.420106	-0.082045	-0.413812	0.300658	-0.260282
-0.278296	1.102141	9.74043	1.246836	1.211044	1.374899	0.404784	0.166955	-1.182098	1.713672	-0.328122	9.537893	15.100958	-9.417233	2.277396	-0.204133	-0.006004	-0.018012	8.598348	3.17439	0.649558	2.335682	-21.172308	1.808469	-0.448549	0.293767	-0.224376
0.068875	0.52166	9.86152	3.292174	3.15652	1.497864	0.382427	0.093142	-1.196838	1.603723	-0.270793	9.712619	13.64967	-8.693574	6.177588	-0.180117	-0.018012	-0.018012	8.256005	3.522451	0.644378	2.613443	-21.30482	4.779736	-0.429474	0.24219	-0.155474
-0.275454	0.521994	9.854662	5.508312	4.854962	1.331589	0.385246	0.129913	-1.199047	1.308533	-0.784253	8.941097	11.944848	-9.00149	12.121931	-0.204133	-0.018012	-0.036023	8.599133	3.348342	0.707439	2.860391	-21.514721	6.743323	-0.496203	0.274933	-0.19545
-0.790971	0.696762	9.902609	5.747075	5.073056	0.662565	0.356298	0.14438	-1.183987	2.945297	-4.397401	8.271003	-1.343248	-9.577851	7.252956	-0.198129	-0.006004	-0.024016	9.037103	3.690867	-0.138357	3.013227	-21.170638	6.399741	-0.498856	0.292938	-0.204698
-0.446809	0.870557	9.909887	7.856771	5.38856	0.503139	0.40863	0.2026	-1.166147	1.560833	-0.85488	16.495394	-0.807175	-31.74521	-18.882095	-0.192125	-0.012008	-0.018012	8.476009	3.462259	0.248975	3.716336	-19.553381	5.387326	-0.434353	0.264444	-0.152256
-0.681157	1.102391	9.674615	7.171738	4.89433	-0.325978	0.401965	0.130184	-1.179889	1.1132	-1.98925	10.413887	-0.441265	-52.200955	-29.202903	-0.180117	-0.012008	-0.024016	8.811923	3.518159	-0.029466	3.803015	-17.245921	4.844939	-0.447696	0.266256	-0.180949
-0.511445	1.276073	9.562833	3.979723	4.200272	0.363134	0.451095	0.132121	-1.140574	1.233164	-1.761132	10.828655	-4.143186	-51.0131	-31.619704	-0.192125	-0.018012	-0.024016	8.583695	3.750199	-0.032919	3.858465	-14.483759	6.677412	-0.450822	0.265752	-0.151393
-0.50088	0.987117	10.082467	5.858536	4.404829	-0.25375	0.417657	0.13158	-1.178891	-0.592506	-1.868639	9.850083	-13.579281	-54.207201	-37.695307	-0.216141	-0.03002	-0.024016	8.917699	3.631884	-0.426333	3.298226	-11.285283	9.56688	-0.473069	0.284561	-0.130222
-0.56719	0.753884	9.618247	6.526301	4.48814	-0.907943	0.37199	0.145776	-1.182989	-2.967711	-2.491393	9.62856	-26.087595	-51.831472	-32.667193	-0.210137	-0.012008	-0.024016	8.584491	3.344925	-0.034759	3.168285	-8.154945	11.206281	-0.500228	0.269676	-0.148804
-0.449819	1.624832	9.796074	6.174757	4.768676	-0.460237	0.422913	0.185611	-1.164044	-3.348646	-2.319744	10.446651	-30.600681	-47.398736	-19.513907	-0.204133	-0.012008	-0.03002	8.865044	3.169615	-0.258285	2.240064	-5.736629	10.594709	-0.448595	0.261503	-0.163859
-0.620785	1.567096	9.85032	6.240627	4.89005	-0.456817	0.420093	0.14884	-1.161835	-4.898047	-1.396534	9.294684	-27.570771	-43.829898	-5.486657	-0.204133	-0.012008	-0.018012	9.500544	3.11257	0.210578	1.28211	-3.935677	8.192845	-0.467717	0.280816	-0.172244
-0.043251	1.334788	10.034635	4.862439	4.888177	0.125931	0.403374	0.148569	-1.180993	-3.435528	-1.973078	8.851951	-30.990587	-40.113005	10.296785	-0.210137	-0.012008	-0.024016	10.014717	3.401554	0.336213	0.111105	-3.002885	6.299291	-0.469943	0.285065	-0.159778
-0.677672	1.044768	9.847919	3.570003	4.762572	0.579324	0.370198	0.107878	-1.16262	-3.990538	-1.743219	9.43068	-35.009591	-33.083423	19.85452	-0.216141	-0.018012	-0.012008	10.463062	3.051426	-0.056	-0.317597	-3.823999	5.520837	-0.484186	0.282124	-0.171381
-0.508937	1.044181	9.677904	2.49473	4.724807	0.939485	0.433349	0.132977	-1.177893	-4.60503	-0.882871	9.948206	-31.20439	-25.280456	25.03653	-0.210137	0.012008	-0.042027	10.983094	3.225931	0.35457	-0.497428	-5.896096	4.589222	-0.481107	0.250363	-0.140419
-0.505396	0.928515	9.851069	1.701123	5.632077	1.454004	0.383836	0.111528	-1.197942	-5.131092	-0.879713	8.994423	-21.691808	-19.017123	26.575418	-0.216141	-0.018012	-0.012008	11.0451	3.516614	0.642472	0.185092	-8.626981	3.341085	-0.467717	0.280816	-0.172244
-0.51008	1.044042	9.620089	1.112209	5.993806	0.902231	0.41663	0.132706	-1.197051	-4.678019	-0.823886	9.062015	-26.951693	-12.016481	27.771616	-0.222145	-0.012008	-0.018012	11.217158	4.037866	0.762401	0.925424	-9.982144	0.287431	-0.497103	0.27018	-0.17836
-0.685729	1.101832	9.443355	0.672699	6.524895	1.209526	0.353479	0.107608	-1.181778	-5.128514	-0.650848	9.171018	-21.94397	-4.234682	24.257481	-0.210137	-0.006004	-0.024016	11.047352	3.517139	0.756656	1.262661	-9.927679	-3.106968	-0.46819	0.262307	-0.13344
-0.625888	0.927928	9.559709	-1.430614	5.470596	1.338459	0.384481	0.090889	-1.160517	-5.104884	-0.194843	10.527209	-17.265486	3.410057	21.24077	-0.210137	0	-0.024016	10.929518	3.80606	0.584441	1.874358	-8.784889	-5.271163	-0.516697	0.270984	-0.147941
-0.678592	0.812457	9.789545	-2.107931	4.689433	1.230797	0.412783	0.097061	-1.213002	-5.106887	-0.251933	10.40931	-9.912715	10.171538	16.339802	-0.216141	0	-0.018012	10.702644	3.922571	0.637554	1.715697	-6.808719	-6.418927	-0.432553	0.273951	-0.186436
-0.446698	0.754471	9.909607	-1.502038	4.147069	1.438594	0.418301	0.110942	-1.141466	-4.879211	-0.424593	10.472962	-5.583777	18.066332	11.250393	-0.216141	0	-0.036023	10.415686	3.343387	0.458018	1.125845	-4.50252	-7.454325	-0.484186	0.282124	-0.171381
-0.559578	1.161161	10.023929	-0.616325	3.847216	1.374665	0.449041	0.134373	-1.176895	-4.433298	-0.883586	10.069466	-5.133997	26.03783	5.472298	-0.228148	0	-0.03002	10.189711	3.575954	0.568749	0.291201	-2.636657	-7.930285	-0.449068	0.242994	-0.125055
-0.394216	1.102113	9.680329	0.55753	3.565289	1.701895	0.404019	0.127931	-1.143569	-3.59407	-0.198024	9.730546	-6.709635	31.570571	-0.203492	-0.204133	0.006004	-0.024016	9.956648	3.401405	0.277994	-1.342278	-1.023155	-8.588205	-0.485086	0.27737	-0.154291
-0.267786	0.871228	10.260204	1.548013	3.820308	1.383231	0.3873	0.127661	-1.162727	-2.678849	-0.946365	10.221254	-8.926283	34.28735	-5.635145	-0.216141	0.012008	-0.03002	10.128615	2.8221	0.278744	-3.436867	0.474733	-10.102336	-0.550062	0.287355	-0.167929
-0.440396	1.335737	10.257893	3.107898	3.882207	0.55415	0.434376	0.13185	-1.159733	-2.23383	-0.374296	9.933931	-11.083546	33.249638	-10.691937	-0.210137	-0.006004	-0.048031	8.972162	3.747037	-0.538865	-4.885343	1.741248	-12.005261	-0.452148	0.274755	-0.156017
-0.450461	1.102308	9.737001	3.31961	3.785128	0.484012	0.417012	0.152218	-1.216315	-1.731057	-0.948044	9.531725	-14.482778	28.677982	-15.559617	-0.210137	0.018012	-0.036023	9.088085	3.283901	-0.481623	-6.208583	2.11225	-13.336199	-0.435679	0.273447	-0.15688
-0.558546	1.277386	10.082023	4.797035	3.874691	0.055301	0.406456	0.14519	-1.126513	-0.991211	-0.836182	9.840649	-19.881757	22.111077	-18.751857	-0.222145	-0.006004	-0.036023	8.82016	2.767083	0.30967	-7.007461	1.836061	-13.976408	-0.465491	0.276566	-0.18471
-0.674996	0.638748	9.96257	5.507526	4.075515	-0.258932	0.402227	0.090033	-1.123199	-0.604651	0.02262	9.492732	-24.794301	15.594958	-19.207614	-0.210137	0.018012	-0.036023	8.518879	3.169246	-0.493412	-7.127679	0.642341	-14.163476	-0.432127	0.260195	-0.164722
-0.394717	1.624497	9.681587	5.648745	4.688951	-0.35933	0.416247	0.113194	-1.177786	-0.721184	-0.263095	9.255065	-28.871551	13.0725	-15.913879	-0.198129	0.006004	-0.036023	8.476134	2.825136	0.188991	-7.279141	-0.391262	-14.843814	-0.481107	0.250363	-0.140419
-0.622792	1.276603	9.733991	3.006329	4.78185	0.257362	0.418684	0.130454	-1.160731	-1.513778	-0.546968	9.122359	-39.070046	22.665102	-8.097123	-0.192125	0.012008	-0.048031	8.598916	2.884908	0.648244	-6.691092	-1.986081	-14.253105	-0.484659	0.263615	-0.132577
-0.449374	1.160491	9.794956	2.054603	5.085874	0.139675	0.373017	0.14465	-1.164829	-1.734082	-0.661379	9.413217	-49.065436	42.063552	2.28754	-0.198129	0.024016	-0.036023	8.650354	2.246357	0.303925	-5.549858	-3.509167	-13.90578	-0.488212	0.276866	-0.124735
-0.573294	1.159484	9.330152	0.99894	5.851835	0.226788	0.432966	0.113465	-1.158628	-1.431861	-0.320405	10.539044	-47.662599	60.240968	12.518351	-0.204133	0.012008	-0.036023	9.512716	2.652028	0.779396	-3.5496	-4.25446	-13.633049	-0.471743	0.275559	-0.125598
-0.681212	1.160434	9.674754	0.154644	6.597218	1.438727	0.461914	0.098998	-1.173687	-0.856375	-0.4949	11.081217	-36.422106	72.928678	20.49362	-0.186121	0.024016	-0.054035	9.965999	3.229819	0.733943	-1.61242	-4.405896	-14.200269	-0.482006	0.24561	-0.12333
-0.57031	1.624245	9.504714	-0.277108	7.813711	1.132241	0.383836	0.111528	-1.197942	-0.801283	-0.380384	11.0231	-23.966841	79.510237	25.962584	-0.204133	0.024016	-0.054035	9.336927	2.882903	0.548701	0.755262	-4.608801	-15.069849	-0.482006	0.24561	-0.12333
-0.494886	0.697602	10.370843	-0.680986	8.874375	0.910371	0.388327	0.126534	-1.144567	-0.023625	-0.553328	10.271615	-17.436853	80.318696	29.515456	-0.180117	0.042027	-0.054035	9.455864	3.752699	0.897449	3.491528	-4.545342	-14.995437	-0.416557	0.254134	-0.148495
-0.163743	1.334201	9.743275	-0.807252	10.004237	1.87656	0.399146	0.093412	-1.177679	-0.037069	-0.781178	9.505019	-18.44422	77.801516	32.6037	-0.186121	0.018012	-0.054035	9.231595	3.116819	1.004237	5.735419	-4.248166	-14.56205	-0.447696	0.266256	-0.180949
-0.856917	1.276267	9.49816	0.958171	9.784559	0.969908	0.386273	0.128787	-1.180887	0.807634	-0.840722	9.34442	-22.835381	74.134321	34.289102	-0.180117	0.03002	-0.036023	9.171501	3.000352	0.831308	7.732779	-3.735383	-14.410271	-0.433926	0.250689	-0.130542
-0.8536	1.392771	9.671884	-0.747056	10.084108	0.380999	0.403374	0.148569	-1.180993	1.154656	-0.212442	9.880825	-25.210822	71.343742	35.432244	-0.174113	0.042027	-0.060039	8.956901	3.17765	1.512698	9.761318	-3.405225	-14.315262	-0.433453	0.269198	-0.169346
-0.505452	0.986558	9.851208	0.368126	9.443336	0.02258	0.415865	0.093682	-1.158521	1.442112	-0.385578	10.122563	-23.967744	69.141688	36.079993	-0.180117	0.036023	-0.066043	8.776504	2.886144	0.994175	11.574656	-2.997546	-13.427955	-0.416557	0.254134	-0.148495
-1.135078	0.464926	9.895193	1.873462	9.314294	-0.232417	0.464733	0.13577	-1.175897	1.955517	-1.246701	10.251866	-21.437737	66.818186	35.653711	-0.174113	0.042027	-0.066043	8.722598	3.060735	1.165114	12.588941	-2.671441	-11.839567	-0.535392	0.276541	-0.134612
-0.331866	0.696317	9.911753	2.647182	9.449876	-0.398036	0.386917	0.108149	-1.143462	2.862131	-0.562325	10.504035	-16.693525	61.163679	32.956189	-0.168109	0.042027	-0.078051	9.121872	3.291787	1.231142	12.957955	-2.562414	-10.616659	-0.465964	0.258058	-0.145906
-0.964669	1.103088	9.842344	1.423149	8.960059	-0.480735	0.419329	0.109816	-1.123306	3.744369	-0.448437	9.341215	-12.593241	52.294618	28.654709	-0.162106	0.054035	-0.054035	8.775036	3.05957	0.937872	12.895387	-2.103855	-10.597043	-0.436198	0.222674	-0.057559
-0.450684	1.334479	9.73756	2.183951	8.211588	-1.29354	0.435403	0.130724	-1.141572	3.987259	-0.622518	10.230868	-8.997787	42.195539	22.747683	-0.150098	0.060039	-0.072047	8.995267	2.883586	0.541943	12.400605	-0.886586	-10.444415	-0.483759	0.268368	-0.149667
-0.505674	1.218729	9.851767	2.932308	7.327344	-1.133732	0.413811	0.095935	-1.194842	5.598463	-0.400862	11.853893	5.697588	24.435626	14.060747	-0.13809	0.042027	-0.060039	8.758598	2.824041	0.080438	12.30594	0.179625	-10.102616	-0.466437	0.239549	-0.107103
-0.57466	1.391515	9.272896	0.929998	7.816106	-1.46333	0.395299	0.057767	-1.19363	4.998985	-1.656038	9.780254	15.605778	22.444664	10.297531	-0.150098	0.060039	-0.072047	9.381037	2.532257	-0.136856	12.579982	1.263514	-10.646246	-0.46511	0.230546	-0.102479
-0.451882	1.392382	9.679885	-0.458537	8.430033	-0.855045	0.447249	0.096475	-1.156525	5.485544	-0.796358	8.726508	5.207502	32.637665	4.716225	-0.156102	0.048031	-0.078051	9.263317	2.763281	-0.309334	13.406612	2.721115	-11.134401	-0.420156	0.235121	-0.080135
-0.801229	1.856498	9.442886	-1.705852	9.312364	0.12762	0.429885	0.116844	-1.213108	6.059603	-0.856167	9.209477	0.404509	44.590587	-0.986781	-0.13809	0.054035	-0.072047	8.883633	2.884339	0.653875	14.171894	4.063047	-12.140173	-0.467763	0.248551	-0.111726
-1.143939	2.553624	9.553335	-0.728901	8.665885	0.475116	0.463323	0.117384	-1.174792	7.366477	-0.631628	9.647065	11.242502	51.759612	-8.709083	-0.132086	0.036023	-0.060039	8.934387	2.593166	0.311134	15.278338	4.153389	-13.176261	-0.432173	0.227931	-0.104205
-1.487156	1.393104	9.543682	-1.627649	8.55227	-0.761116	0.438222	0.167496	-1.143782	8.258601	-0.919599	8.956957	28.721741	46.684362	-19.529773	-0.126082	0.042027	-0.060039	8.946549	2.71185	0.939673	17.06465	2.970936	-12.527504	-0.446888	0.206481	-0.077004
-0.390256	1.741141	9.913126	-1.562181	8.207631	-2.763165	0.452505	0.150506	-1.141679	9.614793	-0.465451	9.041225	35.116373	33.596117	-27.587808	-0.132086	0.048031	-0.072047	9.351682	2.828424	1.290636	19.251947	1.378177	-10.735383	-0.429947	0.223681	-0.116671
-0.90636	1.335343	9.901861	-3.42402	9.480707	-2.147118	0.432966	0.113465	-1.158628	10.062603	-0.466409	8.813917	42.539952	13.426107	-36.045512	-0.132086	0.054035	-0.066043	9.466353	3.002149	1.350769	22.207132	0.133392	-9.038976	-0.479826	0.209096	-0.075278
-0.333677	1.39269	9.855615	-2.172583	8.766274	-1.87006	0.476961	0.121033	-1.210114	11.963514	-0.069329	7.788149	27.149466	-10.582515	-36.655447	-0.120078	0.060039	-0.084055	9.404131	2.248032	1.003673	24.884659	-0.956865	-9.733364	-0.432173	0.227931	-0.104205
-0.799529	1.276211	9.499303	-3.98294	11.173162	-3.25612	0.413811	0.095935	-1.194842	11.918919	0.679431	5.485823	1.863154	-40.182067	-28.391939	-0.126082	0.066043	-0.060039	9.459823	2.884779	1.00769	26.362652	-1.961339	-11.017332	-0.464211	0.2353	-0.119569
-1.183181	1.511007	10.416898	-4.305754	11.516938	-2.989856	0.467814	0.132391	-1.121416	15.018743	1.41036	8.25719	-1.22596	-72.809954	-22.366761	-0.126082	0.048031	-0.060039	9.632906	2.884963	1.125253	28.116496	-2.378381	-10.355921	-0.46511	0.230546	-0.102479
-0.975988	0.985606	9.263917	-9.064808	14.417669	-5.50788	0.477606	0.100395	-1.172689	19.898449	3.398603	9.704093	19.621705	-114.475694	-5.861622	-0.132086	0.060039	-0.060039	9.001911	2.943059	0.884759	30.545907	-2.228728	-8.082962	-0.451341	0.214979	-0.052072
-0.717996	2.323998	10.774887	-18.79701	19.780449	-7.225929	0.466022	0.094493	-1.101047	-7.16789	-0.524613	5.828772	72.186651	-144.89776	-26.414514	-0.13809	0.054035	-0.048031	9.178463	4.04459	1.292777	30.514465	-1.736128	-6.198234	-0.467337	0.234796	-0.090013
-0.903629	0.871281	10.016372	-20.167057	23.941497	-9.406012	0.451095	0.132121	-1.140574	-0.109498	-0.555525	11.744446	95.917838	-138.05654	-21.92314	-0.144094	0.042027	-0.054035	9.227625	4.563966	0.953716	28.912329	-0.298166	-5.322623	-0.450914	0.201223	-0.030358
-0.358782	1.106445	11.472587	-35.434287	35.711496	-9.445865	0.435403	0.130724	-1.141572	2.589384	-2.056692	13.863164	50.479652	-89.687438	1.653077	-0.156102	0.048031	-0.036023	9.048445	5.37328	0.611465	25.525378	1.837571	-3.402302	-0.462931	0.194033	-0.054428
0.072154	1.632073	12.98503	-42.939164	49.619795	-9.796349	0.449303	0.094223	-1.120205	2.60731	0.701125	9.140451	43.767771	-66.489311	-8.698903	-0.156102	0.036023	-0.03002	9.770574	5.425492	-0.287106	20.722958	4.84756	2.435571	-0.42952	0.209926	-0.094957
-0.207539	1.22689	13.325225	-56.565795	67.132611	-7.225254	0.482097	0.115402	-1.119314	1.242724	0.877804	8.701066	37.598654	-63.355768	-17.051503	-0.162106	0.054035	-0.036023	10.479984	5.069274	-1.872622	16.162039	10.194986	12.012779	-0.435298	0.227427	-0.074649
-0.855985	0.064413	12.384821	-49.9256	84.154991	-5.981271	0.504071	0.169703	-1.085309	1.441643	-0.958299	10.005578	39.843473	-54.141797	-13.172998	-0.162106	0.036023	-0.042027	10.796536	4.657271	-3.180824	13.04437	15.445793	12.761169	-0.416603	0.22187	-0.087978
0.049224	1.462192	14.717911	-62.015082	101.355371	3.20236	0.504071	0.169703	-1.085309	1.674262	0.128662	10.538997	43.947223	-48.299746	-8.77492	-0.162106	0.018012	-0.036023	10.195176	3.969286	-1.997432	9.994695	16.625208	0.911952	-0.417503	0.217116	-0.070888
-0.635783	1.231109	14.87708	-43.580717	118.158653	6.662815	0.532254	0.116212	-1.06184	1.726307	-0.558409	10.187301	59.504082	-26.454545	1.91962	-0.174113	0.024016	-0.036023	9.255411	3.919895	-0.589537	8.246488	13.986937	-6.529656	-0.46383	0.18928	-0.037338
-0.107105	1.638444	15.524308	-44.942969	136.943249	9.666902	0.53751	0.170243	-1.046993	2.03519	0.47437	8.71699	45.461724	-16.648429	2.966131	-0.168109	0.048031	-0.03002	8.073003	3.983334	0.07218	9.761846	10.58929	-3.414738	-0.446462	0.192725	-0.055291
0.245281	1.581045	15.935729	-31.268011	158.094322	8.498874	0.55884	0.245183	-1.050414	1.308384	0.361291	9.116067	30.48194	-12.929764	0.535074	-0.186121	0.03002	-0.03002	8.644688	3.982723	0.197627	8.444291	9.234382	2.145493	-0.450014	0.205977	-0.047448
0.093579	1.699813	16.973246	-25.380215	181.651211	4.2226	0.572357	0.18917	-1.009782	1.474107	0.189308	8.883631	24.000777	-11.308136	0.349273	-0.168109	0.03002	-0.024016	8.650763	4.331678	0.541757	1.120814	11.959247	4.428525	-0.481579	0.231854	-0.101616
-0.425676	1.003382	16.787838	-13.724585	200.41676	-3.321141	0.621488	0.191107	-0.970468	1.259918	-0.15478	9.469895	20.386693	-9.18791	1.945473	-0.174113	0.024016	-0.03002	8.659205	4.623263	0.999809	-1.932969	16.369673	6.114297	-0.462504	0.180277	-0.032714
-0.158809	0.478205	15.751629	-0.828708	217.547674	-8.516605	0.656718	0.229545	-0.952521	1.659497	-0.385447	9.654908	22.027993	-9.811865	1.8458	-0.168109	0.018012	-0.03002	8.42547	4.216866	0.650911	-5.475817	19.686772	8.801468	-0.465583	0.212038	-0.063675
-0.477142	-0.163899	14.125563	10.259742	230.243954	-14.798334	0.654543	0.172135	-0.912887	1.093449	-0.097281	9.643534	18.947214	-9.075904	1.572327	-0.162106	0.018012	-0.036023	8.081547	4.79625	0.58969	-11.419003	24.039192	11.971613	-0.463357	0.207788	-0.076141
-0.866565	0.128241	14.754224	7.907513	238.186132	-16.585967	0.737877	0.213637	-0.873786	1.253697	0.475843	9.232778	15.064368	-9.620583	0.875026	-0.168109	0.03002	-0.012008	8.351076	3.923292	-0.265004	-11.551562	29.052114	20.90719	-0.450014	0.205977	-0.047448
-2.805079	0.015584	15.351045	24.965757	237.512392	-25.544355	0.754213	0.194395	-0.835363	1.482736	-0.155157	9.297241	14.189374	-9.216731	0.99454	-0.180117	0.018012	-0.03002	8.398099	4.384247	-0.718512	-16.043518	31.137891	27.318055	-0.477173	0.191091	-0.066031
-2.050808	-0.216332	15.770049	44.025912	223.972731	-27.775318	0.740958	0.210258	-0.819306	1.197412	0.762374	9.290184	11.67136	-8.175376	0.38026	-0.174113	0.024016	-0.012008	8.219272	4.440644	-1.121273	-20.653945	30.627292	26.907551	-0.419302	0.20761	-0.036708
-3.543363	-0.686409	12.791803	62.458251	214.447259	-29.429302	0.805398	0.194079	-0.759729	1.475876	-0.039963	8.943037	6.06487	-6.822059	-0.132653	-0.168109	0.018012	-0.024016	8.487322	4.32034	-1.97255	-19.326882	28.118281	23.670033	-0.484278	0.217595	-0.050346
-3.381277	-1.145132	15.163377	67.716094	199.259927	-28.344328	0.819298	0.157578	-0.738362	1.657856	0.53113	9.712284	2.815452	-6.607225	-1.576873	-0.192125	0.006004	-0.018012	8.028624	4.204668	-2.153363	-19.010738	24.039205	20.09646	-0.449541	0.224485	-0.086252
-3.366893	-1.839968	15.855477	87.949111	185.37615	-27.806056	0.866636	0.121618	-0.678678	1.595541	-0.441859	9.240922	0.627496	-6.771111	-3.176704	-0.174113	0.018012	-0.018012	8.772948	3.8566	-1.969022	-19.528186	21.478534	16.727802	-0.48068	0.236608	-0.118706
14.120724	-2.801803	9.555437	127.236263	174.620793	-20.319458	0.871892	0.175648	-0.663832	1.823622	-0.385451	9.363168	-1.407353	-7.430462	-4.937527	-0.180117	0	-0.03002	8.496798	3.51163	-1.576585	-20.109678	19.964513	12.96748	-0.465157	0.198282	-0.041962
11.759616	-6.653004	0.194603	108.661503	104.394144	-13.288907	0.8701	0.137751	-0.643463	1.377198	0.245419	9.766359	-2.939005	-8.478696	-6.803429	-0.174113	0.018012	-0.036023	8.333943	4.614369	-1.06114	-21.338185	19.054568	9.250779	-0.451721	0.260999	-0.134303
10.027869	-5.180118	8.42789	17.622471	21.43914	-31.155058	0.892457	0.211564	-0.628723	1.257979	0.131784	9.410388	-3.75721	-8.561487	-6.933525	-0.174113	0.018012	-0.018012	8.840244	4.322286	-1.394871	-22.689418	18.452882	9.440972	-0.418829	0.226119	-0.075512
7.083673	-6.108199	7.442326	50.41954	11.103592	-35.078256	0.886436	0.118509	-0.60504	1.765164	-0.098717	9.302573	-5.341258	-8.659254	-6.758586	-0.168109	0.012008	-0.024016	9.247174	4.670971	-0.928673	-23.699261	16.800038	12.623987	-0.466437	0.239549	-0.107103
7.242789	-6.806555	6.750301	64.651951	4.30024	-33.587494	0.872536	0.15501	-0.626407	1.368909	0.475299	9.352952	-5.796339	-8.822246	-6.258001	-0.174113	0.012008	-0.042027	9.484071	4.614722	-0.467694	-23.322186	13.582745	15.024955	-0.448215	0.215483	-0.081628
7.379964	-7.275395	4.960354	64.746855	-33.184645	-21.348495	0.82687	0.169206	-0.630506	1.599845	0.302334	9.593603	-5.431617	-9.005373	-5.448552	-0.168109	0.024016	-0.018012	9.946261	4.673286	-0.115868	-22.080647	8.383212	13.378383	-0.46511	0.230546	-0.102479
6.544849	-5.471884	6.335096	63.074753	-68.358023	-3.227081	0.820587	0.116302	-0.663512	1.701783	0.016648	8.947282	-5.507313	-9.027029	-4.983606	-0.180117	0.018012	-0.018012	10.167061	4.207819	-0.513111	-20.103364	3.597272	7.169174	-0.450868	0.233488	-0.090876
6.720499	-5.529674	6.511829	61.705899	-86.260706	14.528219	0.84077	0.132705	-0.609138	1.477026	0.303588	9.060429	-5.796296	-9.369492	-4.747823	-0.186121	0.018012	-0.018012	10.057338	4.382788	-0.286206	-19.053371	0.621539	-2.053904	-0.447315	0.220236	-0.098718
6.538633	-4.950198	6.04728	56.992263	-101.171521	29.339168	0.819178	0.097916	-0.662408	1.828373	-0.156789	9.657762	-5.703904	-9.841701	-4.132459	-0.180117	0.012008	-0.012008	10.103576	4.66979	-0.797595	-19.327952	-0.754498	-6.611291	-0.46601	0.225793	-0.085389
6.933467	-3.73239	5.769141	45.211496	-115.421587	38.722263	0.801049	0.07926	-0.680461	1.542111	-0.3847	9.416734	-4.423275	-10.210086	-3.491825	-0.186121	0.018012	-0.012008	10.163784	4.728361	-0.624929	-19.417318	-1.81907	-5.149557	-0.41703	0.235625	-0.109691
6.775939	-3.498236	6.517863	31.634464	-123.429654	40.702599	0.814687	0.082909	-0.715783	1.717273	-0.443012	9.715097	-2.188262	-10.351139	-2.624068	-0.168109	0.012008	-0.024016	10.116522	4.962426	-0.111175	-18.553888	-2.860125	-4.478476	-0.449541	0.224485	-0.086252
7.057585	-2.744518	6.294136	15.258757	-126.617406	35.367694	0.781893	0.06173	-0.716675	1.54241	0.245313	9.533618	-0.522543	-10.653579	-1.776879	-0.198129	0.018012	-0.018012	10.013113	4.791331	0.399614	-18.276061	-3.668741	-7.577971	-0.464638	0.249055	-0.141282
7.250799	-2.045517	7.397722	-5.822957	-130.946745	23.435287	0.783303	0.080116	-0.717779	1.310557	0.361088	9.234068	-1.008181	-10.022399	-1.564219	-0.186121	0.018012	-0.018012	9.893595	4.790244	0.1119	-17.136571	-4.753948	-9.901802	-0.433026	0.255442	-0.147632
7.281884	-2.273915	8.958162	-23.363194	-139.06297	6.771349	0.761328	0.025815	-0.751784	1.769574	0.24453	9.596965	-0.820962	-9.439424	-1.564537	-0.180117	0.018012	-0.018012	9.913868	4.794975	1.139559	-16.029468	-4.94717	-10.411334	-0.449495	0.25675	-0.146769
6.669767	-1.980714	9.929139	-31.986739	-146.749738	-11.39979	0.730709	0.062046	-0.792309	1.082924	-0.21085	9.053736	-1.205392	-8.623067	-1.405487	-0.174113	0.018012	-0.024016	10.019984	4.735011	0.741904	-14.124089	-4.591951	-10.042293	-0.453521	0.251493	-0.100123
5.760533	-1.804578	10.373789	-35.714758	-151.308312	-26.899129	0.721944	0.092916	-0.722876	1.37496	-0.098031	9.589967	-0.977005	-7.68765	-1.631931	-0.180117	0.018012	-0.036023	9.677654	4.503845	0.677003	-12.003021	-4.446831	-9.789565	-0.415231	0.245132	-0.143871
4.614079	-1.977453	10.408325	-45.717016	-155.222892	-36.599881	0.653276	0.053937	-0.779139	1.64863	-0.384432	9.064907	-0.456968	-7.431001	-2.190656	-0.180117	0.024016	-0.03002	9.736861	3.925031	0.732592	-9.944237	-4.152222	-11.4064	-0.417457	0.249381	-0.131405
3.935653	-1.917485	10.915082	-57.770407	-160.947529	-40.337251	0.685807	0.115266	-0.834937	1.589554	0.475125	9.062297	-1.927124	-7.295293	-1.819463	-0.192125	0.018012	-0.018012	9.21874	3.92474	0.436995	-7.946673	-4.166993	-14.943359	-0.451721	0.260999	-0.134303
3.211268	-1.856064	11.998843	-66.238569	-166.947002	-39.83239	0.667678	0.09661	-0.85299	1.882038	0.072414	9.540443	-2.809618	-7.483596	-1.08866	-0.186121	0.006004	-0.012008	8.756664	3.80828	0.084907	-6.317505	-4.428351	-18.690741	-0.417457	0.249381	-0.131405
2.195401	-0.63393	12.906241	-65.785134	-170.11608	-38.537294	0.575963	0.10549	-0.841923	1.489491	0.130594	9.709735	-1.762998	-7.359546	-0.747898	-0.192125	0.03002	-0.024016	8.462368	4.096228	-0.376148	-5.640986	-4.723203	-20.97432	-0.447742	0.233992	-0.120432
1.469287	-1.153216	13.872975	-60.08411	-170.232776	-36.538807	0.590628	0.108013	-0.859085	1.475194	0.189207	8.942631	-1.37768	-7.986986	-0.369491	-0.174113	0.018012	-0.03002	8.340712	4.036719	-0.778308	-5.763955	-4.859399	-22.225914	-0.464211	0.2353	-0.119569
0.554171	-0.80365	14.02897	-53.736232	-168.864641	-34.066908	0.560654	0.123606	-0.862185	1.932314	-0.385386	9.12934	-1.868443	-9.058568	-0.296766	-0.192125	0.012008	-0.03002	8.273757	3.397344	-1.353247	-5.854638	-5.559639	-22.607802	-0.464211	0.2353	-0.119569
0.426654	-0.630948	13.391141	-51.347001	-166.43428	-31.793337	0.529007	0.160963	-0.920871	1.774539	-0.328699	9.774981	-3.286237	-8.855047	0.509521	-0.180117	0.006004	-0.018012	7.9887	3.571602	-1.35809	-6.65253	-6.12938	-22.0483	-0.384092	0.23301	-0.111417
-0.144385	-1.210539	13.493944	-52.055633	-159.987629	-31.35888	0.510496	0.122795	-0.91966	1.768828	0.130047	9.538168	-5.036105	-9.858111	0.87964	-0.174113	0.018012	-0.018012	7.769265	3.342311	-0.964001	-8.710638	-6.998067	-23.048614	-0.449968	0.238241	-0.107966
-0.662998	-1.384446	13.367608	-53.182859	-148.591816	-31.872271	0.469703	0.17151	-0.889647	1.81951	-0.098684	9.185659	-2.861418	-10.490977	1.687104	-0.186121	-0.006004	-0.024016	7.133549	2.935922	-1.49206	-10.677856	-7.257108	-23.756703	-0.445516	0.229743	-0.132898
-0.946985	-2.0804	13.475846	-57.461358	-134.481861	-33.390912	0.435238	0.172096	-0.946124	1.150651	-0.326621	9.645027	-2.814195	-12.125926	1.982269	-0.192125	0.006004	-0.018012	7.078074	2.76261	-1.436882	-13.444095	-7.595005	-23.947267	-0.461558	0.217295	-0.110321
-1.29572	-2.254753	13.23731	-62.862222	-119.681344	-33.632303	0.392008	0.203551	-0.933167	1.712139	0.18751	9.53698	-1.749339	-11.157264	1.634849	-0.198129	0.018012	-0.03002	6.912079	3.16954	-1.15296	-17.133366	-7.607999	-24.089154	-0.452194	0.24249	-0.0955
-1.478116	-2.313887	12.713408	-69.803364	-105.500273	-32.793094	0.42313	0.246494	-0.98786	1.820597	-0.098786	9.24466	-0.745088	-13.430246	0.309121	-0.168109	0.006004	-0.036023	7.892503	3.170498	-0.5058	-20.360639	-7.845736	-23.15277	-0.446842	0.238745	-0.137521
-1.981035	-3.356617	13.336568	-76.472211	-93.656857	-30.314724	0.411929	0.260105	-0.935482	1.489938	-0.384936	9.651648	-4.470387	-13.31318	1.070122	-0.192125	0.012008	-0.012008	8.294041	2.822849	-0.385309	-24.200977	-8.74608	-21.439628	-0.416603	0.22187	-0.087978
-1.59458	-3.177653	15.482992	-82.334566	-84.636927	-27.788151	0.410902	0.261231	-0.953643	1.935979	-0.156622	9.364935	-2.15735	-13.827345	1.293004	-0.186121	0.024016	-0.018012	8.356058	2.534304	-0.157129	-26.626116	-10.059047	-19.648146	-0.482006	0.24561	-0.12333
-2.848322	-8.297851	9.839803	-26.533763	-85.429125	-33.577932	0.38721	0.329728	-0.923737	1.418674	0.189377	8.941545	-0.064947	-14.897835	-0.118772	-0.180117	0.03002	-0.024016	8.761976	2.82483	0.251714	-27.791479	-11.188275	-18.863542	-0.448642	0.229239	-0.103342
-3.586453	-2.484139	13.422291	-68.630405	-81.250229	-32.069363	0.337697	0.308279	-0.943786	2.446423	-0.387427	9.434121	-2.552693	-16.907432	1.048014	-0.180117	0.018012	-0.018012	8.772113	2.827196	0.765544	-27.543638	-12.091242	-19.758889	-0.433499	0.236933	-0.108828
-4.532333	-2.47956	14.906044	-87.60629	-79.783697	-23.338361	0.340779	0.3049	-0.889306	2.618666	-0.560019	9.555686	-8.030245	-18.929441	3.651507	-0.192125	0.012008	-0.024016	8.695909	2.880737	-0.205886	-26.468011	-11.980133	-20.153318	-0.439278	0.254434	-0.08852
-5.468302	-1.842296	14.022072	-91.304223	-88.082196	-19.313352	0.307723	0.323872	-0.946887	1.771854	-0.156618	9.656676	-17.282544	-22.439369	1.012339	-0.180117	0.012008	-0.006004	8.477476	3.288833	0.305278	-24.409599	-11.296243	-19.087552	-0.41703	0.235625	-0.109691
-7.709172	-1.376064	13.862984	-97.492424	-108.463071	-13.861375	0.311187	0.340005	-0.911671	2.05279	-0.329145	9.544413	-22.475752	-24.122304	4.028997	-0.204133	-0.006004	-0.018012	8.185558	2.940183	-0.101575	-22.69042	-10.129704	-17.790111	-0.463311	0.240053	-0.136659
-8.587111	-0.216332	13.039228	-106.564162	-139.476477	-8.624737	0.262439	0.35758	-0.97025	1.72569	0.014414	10.245286	-20.703755	-29.725243	3.883347	-0.198129	0.012008	-0.03002	7.900501	3.114441	-0.106418	-21.986243	-8.733625	-16.289349	-0.450868	0.233488	-0.090876
-13.363323	4.98846	27.057886	-161.211581	-159.606482	35.794885	0.264493	0.355327	-0.93393	2.009502	0.700767	10.426502	-21.31571	-38.899833	4.955005	-0.204133	0.024016	-0.024016	7.557499	2.651427	-0.229463	-22.912197	-6.859204	-13.27912	-0.465064	0.262811	-0.162996
-13.181428	-0.386428	12.773926	-63.314044	-193.892583	26.983597	0.240802	0.423824	-0.904024	1.916151	1.386586	11.603114	-23.601323	-42.942434	3.851737	-0.204133	0.03002	-0.018012	7.563005	3.289864	0.115982	-25.2824	-5.276662	-10.392269	-0.433026	0.255442	-0.147632
-18.008839	6.474325	15.584	-34.920557	-189.675415	46.562037	0.207626	0.383134	-0.885651	2.086263	0.469599	11.489997	-17.576995	-54.184564	3.43704	-0.192125	0.018012	-0.036023	7.958354	2.651156	-0.107395	-27.466766	-4.220191	-7.00288	-0.448642	0.229239	-0.103342
-22.054343	4.312783	8.158632	4.006747	-151.552698	46.316684	0.209035	0.401519	-0.886756	2.089288	0.182934	11.608505	-22.140062	-61.956726	4.093329	-0.210137	0.024016	-0.024016	8.397894	3.341586	-0.837428	-30.692697	-4.387132	-0.50166	-0.434825	0.245936	-0.113452
-23.079195	2.268904	2.64305	-58.572396	-90.49438	75.775891	0.16055	0.378944	-0.888645	1.96664	0.126896	11.075432	-26.577403	-70.664035	5.272218	-0.192125	0.018012	-0.006004	8.803266	2.76314	-0.546712	-23.840488	-3.116146	-1.962378	-0.450822	0.265752	-0.151393
-24.548925	3.506267	9.609568	-92.634303	-41.088316	105.334842	0.17598	0.420491	-0.944336	2.089906	-0.389889	11.55052	-32.06905	-79.763529	4.733745	-0.216141	0.012008	-0.024016	8.815655	2.766031	0.081301	-23.904556	-2.01436	-1.927102	-0.500655	0.283431	-0.170518
-23.520433	6.762559	12.469748	-64.852546	1.360009	110.912269	0.131985	0.412922	-0.89285	2.382624	-0.506239	12.087158	-36.444471	-91.961457	3.677844	-0.210137	0.018012	-0.018012	8.475906	2.940929	0.189517	-21.846376	-1.290345	-1.504635	-0.469517	0.271309	-0.138064
-22.303401	8.678476	13.192139	-3.467651	47.292431	97.826661	0.18188	0.453883	-0.892065	2.791918	-1.081473	12.744782	-40.358285	-104.420825	-0.996447	-0.216141	0.03002	-0.012008	8.145304	1.901579	0.634765	-20.491346	-2.364889	-2.29823	-0.47978	0.241361	-0.135796
-21.292622	13.957262	12.358208	10.7278	100.449606	69.317396	0.149086	0.432705	-0.892957	2.522829	-0.509118	13.564336	-43.085549	-119.826949	-8.499226	-0.234152	0.024016	-0.012008	8.536365	1.725254	0.242215	-21.747917	-4.006763	-2.14457	-0.485086	0.27737	-0.154291
-19.851004	20.813628	15.986644	13.601693	163.055128	25.116931	0.182142	0.413733	-0.835376	2.578539	-0.967425	13.448234	-43.416129	-137.849768	-13.166729	-0.222145	0.042027	-0.024016	8.0302	0.800987	0.456241	-24.977733	-2.845557	1.573091	-0.463311	0.240053	-0.136659
-1.939273	10.798421	10.366583	239.491469	189.812941	-66.816843	0.216345	0.453298	-0.835589	2.355444	-0.50881	13.679076	-47.1421	-155.685822	-19.800842	-0.252164	0.042027	-0.012008	7.510601	1.553349	0.164062	-25.71974	-0.028743	11.443633	-0.452148	0.274755	-0.156017
3.932074	13.02201	20.197929	271.098062	184.773425	-105.409716	0.206599	0.38426	-0.903811	2.592346	0.234092	14.390105	-54.180644	-174.058465	-20.754417	-0.252164	0.036023	0.006004	7.412487	4.729616	-1.592464	-15.048964	0.205313	25.257792	-0.451248	0.279508	-0.173107
-8.100897	4.894892	14.679482	239.737246	146.295207	-70.136515	0.239775	0.424951	-0.922184	2.458498	1.376797	16.508821	-69.608982	-196.195748	-15.029711	-0.252164	0.042027	-0.006004	7.410963	7.799176	-1.350163	1.971093	-5.609119	43.129205	-0.464638	0.249055	-0.141282
-3.396217	8.003646	6.16978	164.582691	115.6994	11.394574	0.213571	0.315493	-0.952875	1.354933	1.492253	17.961889	-82.523116	-226.488251	-5.345714	-0.27618	0.048031	0.012008	9.36051	6.363784	2.105961	12.609649	-16.278176	66.856656	-0.451675	0.293263	-0.19482
-1.922673	-3.893142	7.557263	173.888443	64.411107	-34.294073	0.265138	0.334689	-0.896505	1.701486	1.547812	18.381309	-89.650868	-260.182761	2.888966	-0.294191	0.048031	0.018012	12.288207	6.087278	6.214502	19.827404	-36.44396	91.54791	-0.486032	0.240353	-0.076684
-0.312655	-5.27336	13.480733	118.439478	36.893642	-70.373594	0.257183	0.303549	-0.985096	1.022932	-0.168408	18.076314	-96.315591	-292.431306	5.234901	-0.282184	0.060039	0.018012	14.814017	4.349324	7.112554	26.027605	-57.833517	92.321525	-0.501601	0.246414	-0.092911
-0.899142	-0.231111	10.187162	144.078646	44.013586	-75.79199	0.257445	0.263399	-0.928407	0.980773	0.116804	18.900722	-98.972372	-324.91828	4.793052	-0.336219	0.048031	0.018012	13.936859	3.753026	2.983522	20.216715	-60.910179	65.485906	-0.501082	0.297187	-0.192231
-4.187174	2.142952	6.486554	104.944935	37.339816	-23.685039	0.256801	0.284037	-0.965832	1.390366	0.171583	19.675229	-86.194462	-351.399232	3.68062	-0.318207	0.072047	0.042027	11.972022	3.794699	-1.392385	9.024669	-51.440942	31.447028	-0.520296	0.251971	-0.079582
0.42511	1.219376	10.506017	45.197358	21.512019	0.827948	0.269291	0.22915	-0.94336	4.2911	-0.125195	20.675158	-63.039901	-365.120723	5.234233	-0.330215	0.072047	0.048031	10.769939	5.57783	-4.432646	2.411624	-38.829801	16.684421	-0.533639	0.253783	-0.108275
-1.274519	-2.665579	11.387402	73.090222	20.798701	-19.84912	0.237907	0.226357	-0.945356	5.828292	0.499202	21.411383	-25.617874	-362.928865	11.368799	-0.348227	0.066043	0.048031	9.904857	5.982445	-4.961529	-1.304255	-26.793441	24.459161	-0.556786	0.267838	-0.070014
-0.974228	2.727306	9.441553	63.230594	17.184445	-3.903782	0.235471	0.209098	-0.962411	5.253487	0.444527	20.869616	22.195697	-353.995227	19.875376	-0.378246	0.072047	0.084055	8.790882	5.932607	-3.72829	3.621624	-16.416247	25.223666	-0.560766	0.294846	-0.083885
-0.441706	1.509725	10.200498	49.638999	16.115183	-2.8302	0.264418	0.194631	-0.977471	8.209114	-1.851838	18.394262	36.264537	-328.928616	30.240462	-0.38425	0.072047	0.090059	8.305412	6.519167	-2.308493	5.78715	-10.667661	9.2601	-0.571029	0.264897	-0.081617
-0.356841	2.899145	8.760768	42.525428	15.473434	-0.548377	0.251545	0.230006	-0.980678	9.764246	-2.145541	19.958113	29.53533	-322.768588	33.197004	-0.41427	0.078051	0.120078	8.352828	6.472311	0.089115	6.181909	-9.329233	1.982714	-0.608846	0.289767	-0.076673
-0.93747	2.782777	8.40217	18.492272	13.447578	-1.58836	0.278318	0.15813	-0.956104	-4.852777	-4.217531	17.439508	-27.296404	-314.148945	37.977322	-0.432281	0.078051	0.150098	8.387855	6.422563	1.858709	6.711546	-11.246112	11.84751	-0.555887	0.272591	-0.087104
-1.140095	0.928708	9.665051	6.123231	12.369356	0.036516	0.248726	0.193235	-0.978469	-19.838748	-7.186807	3.945236	-54.80885	-232.351975	3.83958	-0.426277	0.078051	0.150098	9.84568	6.19602	3.598578	7.246869	-15.878788	18.869581	-0.590578	0.297965	-0.111715
-0.861125	2.088445	9.326673	1.508048	12.090532	0.134767	0.263008	0.176246	-0.976366	-11.291934	-5.901448	8.05891	37.865129	-94.49739	-90.949381	-0.41427	0.090059	0.186121	10.920174	5.960433	3.219281	10.174291	-19.087738	14.525198	-0.570129	0.26965	-0.098707
-0.909036	1.741363	9.787209	-5.680306	12.508175	1.636848	0.28011	0.196028	-0.976473	-9.41725	-2.19521	15.343018	76.362132	21.557545	-99.189882	-0.420274	0.072047	0.186121	11.353331	4.737915	1.966743	15.641788	-17.690199	5.438814	-0.570129	0.26965	-0.098707
-0.336883	1.1601	9.681612	-4.542832	11.199476	0.517039	0.265445	0.193505	-0.959311	-12.252011	1.141279	12.274876	122.75602	45.173076	-111.704233	-0.408266	0.042027	0.180117	11.209025	5.310272	0.482723	20.543712	-10.983466	-2.581226	-0.60572	0.290271	-0.106228
-0.971051	1.798902	9.554947	-2.250604	8.647974	0.235518	0.251807	0.189856	-0.923989	-12.184144	-4.12428	8.982379	120.309283	62.579102	-124.141935	-0.426277	0.060039	0.186121	11.126735	5.594085	-0.773117	23.380955	-1.559638	-3.396217	-0.558586	0.258332	-0.035834
-0.919045	1.449892	9.266178	-6.733896	6.68924	-0.960725	0.230597	0.174579	-0.996522	-13.593666	-3.084256	6.240465	119.569975	95.477759	-125.220303	-0.420274	0.042027	0.180117	10.829061	5.881244	-1.405447	22.442119	5.816362	0.526089	-0.611972	0.289263	-0.047117
-0.797885	0.753967	9.555861	-8.505758	6.150735	-3.232648	0.250135	0.21162	-0.979574	-13.937236	-2.681882	6.056234	114.73016	143.54697	-118.863374	-0.402262	0.048031	0.192125	11.112651	5.880412	-1.456908	20.680809	9.554693	1.102791	-0.575055	0.25964	-0.034971
-0.895071	0.291833	10.419678	-5.56914	5.292066	-4.743426	0.312521	0.197695	-0.956317	-13.250521	-1.882849	6.657854	109.391132	187.450423	-109.229285	-0.396258	0.042027	0.174113	11.402896	5.359827	-1.225274	19.023623	7.675824	-3.756162	-0.595503	0.287955	-0.04798
-0.671679	0.755253	10.136294	1.468967	5.091286	-3.72718	0.28011	0.196028	-0.976473	-11.977283	-1.316618	8.39175	107.390715	217.526761	-103.049081	-0.378246	0.03002	0.174113	10.903911	5.943232	-0.490584	17.066316	2.373173	-11.473693	-0.592423	0.256194	-0.017018
-1.141628	1.334867	9.608215	6.25976	5.482999	-5.719606	0.281782	0.174263	-0.920888	-9.89893	-1.378998	7.724055	114.647013	235.809762	-102.912476	-0.396258	0.006004	0.150098	10.009496	5.485562	0.288584	14.647833	-2.801556	-17.881662	-0.576808	0.282398	-0.061309
-0.735561	1.567207	9.848034	0.210893	5.217979	-6.106207	0.280492	0.21554	-0.995738	-8.652007	-1.096692	7.983454	116.702262	248.713282	-105.654454	-0.360234	0	0.168109	9.159965	5.430423	0.499796	11.335624	-6.668344	-20.256775	-0.560766	0.294846	-0.083885
-0.565207	2.263413	9.795325	-5.278282	6.361272	-6.998317	0.263008	0.176246	-0.976366	-7.248926	-1.787345	7.362837	107.186065	259.702857	-108.810147	-0.330215	-0.006004	0.150098	8.423661	4.563982	0.595396	7.926579	-7.499383	-12.517329	-0.574628	0.245884	-0.013257
-1.135913	1.335566	9.897289	-5.775619	8.240411	-8.376118	0.2787	0.177642	-0.975368	-6.171902	-1.389942	7.618773	87.427977	270.353911	-110.903588	-0.336219	0	0.144094	8.807737	4.501872	-0.139181	5.128109	-6.588648	-6.008071	-0.624888	0.277319	-0.054096
-0.445024	1.39322	10.026774	-9.854626	9.568097	-7.430111	0.26621	0.232529	-0.99784	-5.954176	-1.504397	7.151321	65.177373	277.463329	-107.595941	-0.312203	-0.012008	0.156102	8.565891	4.209427	-0.887199	5.708035	-5.0428	-8.518255	-0.593277	0.283706	-0.060446
-0.721399	1.104543	10.540693	-11.40697	11.303222	-7.444181	0.265063	0.173993	-0.940046	-5.482972	-1.33571	8.221713	38.113193	282.307714	-96.494089	-0.306199	-0.018012	0.13809	9.59269	3.281038	-0.871132	6.223943	-2.720402	-13.860774	-0.590197	0.251945	-0.029484
-1.109289	0.990524	11.22619	-10.973832	15.889659	-5.860423	0.300675	0.231943	-0.941364	-5.073422	-0.536332	9.112901	10.917372	282.024711	-77.212268	-0.27618	-0.024016	0.114074	8.958772	3.10676	-1.283955	6.67737	0.217237	-17.352194	-0.586645	0.238694	-0.037327
-1.122839	0.814719	10.531994	-12.999303	25.495074	-3.950965	0.311494	0.198821	-0.974477	-4.09727	-0.941596	9.899087	-18.412077	275.192156	-48.907822	-0.27618	-0.006004	0.114074	7.883038	3.39998	-0.961486	7.559364	3.715164	-23.148428	-0.543443	0.266026	-0.041321
-0.954381	1.104346	10.362677	-12.609413	27.253181	-0.312625	0.316367	0.23334	-0.940366	-3.162063	-0.374444	11.685463	-42.796165	265.814734	-14.154097	-0.234152	-0.018012	0.090059	7.434363	3.344571	-0.628206	9.67032	7.784685	-27.207909	-0.558586	0.258332	-0.035834
-0.778398	0.6983	10.538572	-9.819961	31.149377	-0.157801	0.269291	0.22915	-0.94336	-1.725126	-1.125537	12.893952	-55.474231	252.840273	20.426042	-0.216141	-0.03002	0.10807	7.50415	3.115763	-0.000117	11.414733	11.401581	-25.844776	-0.589297	0.256698	-0.046574
-0.848471	0.812903	9.901746	-10.603064	34.506466	1.37386	0.261599	0.15786	-0.975262	-1.421329	-2.044794	13.904013	-61.659518	240.254416	46.659728	-0.204133	-0.03002	0.072047	7.464567	2.309008	0.794366	13.871494	13.144717	-21.497936	-0.58977	0.23819	-0.007771
-1.068627	1.743067	10.419743	-13.353657	37.408214	4.033749	0.303112	0.249203	-0.924308	-1.032106	-2.446323	13.499328	-72.419493	235.328753	67.027641	-0.210137	-0.012008	0.054035	7.642712	2.599988	1.198705	15.473503	12.245541	-17.369766	-0.555887	0.272591	-0.087104
-1.027074	1.566927	9.61106	-9.899105	39.950633	2.772536	0.283956	0.231673	-0.960522	1.074947	-3.026873	14.307552	-91.099052	231.213721	80.258635	-0.192125	-0.012008	0.048031	7.988194	2.947736	1.435408	16.278139	10.209005	-15.727683	-0.539464	0.239019	-0.027449
-1.359806	1.39453	10.18193	-17.620744	42.641739	3.43334	0.313931	0.21608	-0.957421	2.404577	-3.148119	15.925752	-109.369815	218.823638	86.242585	-0.180117	-0.006004	0.066043	8.109862	2.428018	1.777848	17.514372	7.795907	-13.126373	-0.575055	0.25964	-0.034971
-1.183934	1.104569	10.358105	-12.080487	43.667429	0.898994	0.330267	0.196839	-0.918999	4.246973	-1.724815	18.022993	-124.38221	199.306449	90.910082	-0.180117	0.012008	0.054035	8.402235	2.545082	2.18365	18.99662	5.196176	-12.201688	-0.609319	0.271258	-0.037869
-1.829254	1.45176	9.652593	-16.837943	44.152056	1.765421	0.317012	0.212701	-0.902941	6.426376	-2.87978	19.60032	-130.207459	180.379871	95.281348	-0.156102	0	0.054035	8.452875	2.311805	1.841172	21.153135	3.390932	-12.637611	-0.55238	0.227075	-0.034429
-1.936115	0.349899	9.994541	-16.690777	45.828509	0.4556	0.297091	0.156148	-0.900626	7.764606	-2.595784	18.681889	-133.820645	182.089648	95.830981	-0.132086	0.024016	0.036023	7.925631	2.367308	1.0891	23.672938	3.823326	-14.897505	-0.590197	0.251945	-0.029484
-1.580523	0.52509	10.579966	-15.823405	47.915229	1.590257	0.363061	0.218017	-0.918107	9.522826	-2.830744	19.010982	-141.441845	224.268628	91.832963	-0.150098	0.024016	0.048031	7.243677	1.673917	1.072431	26.435805	5.595116	-16.361328	-0.585699	0.275711	-0.114934
-1.586182	0.466349	10.290752	-16.565421	51.296851	3.519231	0.334496	0.251996	-0.922312	10.161863	-3.177896	19.908547	-118.839593	289.746044	80.077386	-0.13809	0.036023	0.036023	7.521624	2.250997	0.79523	29.969568	6.672614	-15.816757	-0.543016	0.252271	-0.019607
-1.424027	0.174711	9.77315	-17.077369	55.197726	5.311275	0.354679	0.268399	-0.867939	12.346658	-3.58877	21.897556	-74.43793	330.321136	59.044727	-0.114074	0.024016	0.066043	7.007451	1.962014	0.669595	33.658598	7.271867	-13.883858	-0.540363	0.234266	-0.010359
-1.304147	0.813768	10.066046	-20.831509	59.170124	5.899826	0.320476	0.228835	-0.867726	16.024432	-3.485669	22.203985	-28.624738	328.206348	35.559551	-0.120078	0.042027	0.054035	6.901107	2.13777	1.067776	36.086788	8.10606	-10.250367	-0.588444	0.229187	-0.003147
-1.696134	1.395842	10.579776	-23.653772	64.746229	4.454009	0.354679	0.268399	-0.867939	32.042033	37.504624	11.884312	-187.01298	116.427426	48.684775	-0.114074	0.03002	0.048031	6.617847	2.54414	1.178169	35.131678	9.347901	-5.941098	-0.59067	0.233436	0.009319
-1.573078	1.106495	10.986067	-26.580378	71.676624	3.280215	0.369988	0.250284	-0.847676	22.252445	-20.590231	-4.364515	-0.651891	149.165052	20.436322	-0.090059	0.048031	0.060039	6.266062	1.96323	0.597861	35.343509	11.221635	-1.946137	-0.542163	0.22476	0.02382
-1.383601	0.934296	11.856298	-32.911003	81.860919	2.779374	0.416037	0.2556	-0.862842	36.801831	-6.046082	8.747644	-120.176546	137.864417	-23.071282	-0.096063	0.048031	0.060039	5.967159	1.728796	-0.151019	33.250136	12.746863	2.961991	-0.551953	0.21332	-0.012715
-1.3831	0.411912	11.85504	-36.075607	94.113252	2.563215	0.397909	0.236944	-0.880896	31.339929	-3.047977	7.163043	-99.133845	116.816903	-27.660125	-0.084055	0.072047	0.036023	6.307465	1.843643	-0.200828	32.29446	14.502281	9.828166	-0.557732	0.230821	0.007593
-1.316148	1.167669	12.378333	-39.96114	106.296959	2.025214	0.403809	0.270336	-0.828625	33.417077	3.127785	10.495208	-88.318319	87.709936	-43.832846	-0.102066	0.060039	0.042027	6.926629	2.0724	-0.529941	30.816458	16.149784	17.336088	-0.52882	0.222948	0.052513
-1.826006	1.401179	12.715493	-39.649104	119.828387	0.617637	0.45153	0.253887	-0.788206	36.318529	6.616299	9.070517	-71.606582	44.300934	-47.875644	-0.078051	0.066043	0.054035	8.057486	2.705408	-0.847077	26.975211	15.417148	20.146037	-0.588017	0.215432	0.018567
-1.109273	1.926389	14.175836	-43.528439	134.138277	0.044536	0.47145	0.310441	-0.790522	40.231282	10.675074	7.42837	-67.041609	-30.685554	-46.144292	-0.078051	0.066043	0.03002	8.012715	2.244979	-0.279385	23.844266	12.76104	16.887874	-0.539037	0.225264	-0.005736
-1.166438	1.694274	14.174134	-35.550226	150.727008	-5.667476	0.421555	0.26948	-0.791307	46.985103	15.119744	9.791769	-43.549765	-137.485195	-16.97114	-0.084055	0.054035	0.024016	8.073139	2.766984	-0.047524	23.242878	6.777497	14.913174	-0.557732	0.230821	0.007593
-1.442758	1.347554	14.687914	-36.981856	170.406084	-9.470323	0.463758	0.239151	-0.822423	59.219756	20.813221	9.309418	25.554375	-277.205953	21.773172	-0.096063	0.078051	0.024016	8.347128	4.211985	-0.434967	18.808095	-2.654257	21.163433	-0.594222	0.246688	0.017161
-1.0116	1.641011	16.199797	-39.642012	195.126549	-14.595401	0.490868	0.287821	-0.697619	13.234145	0.25782	15.479295	202.652825	-341.018602	-36.442031	-0.10807	0.084055	0.036023	8.834135	5.711011	-1.559839	9.852638	-11.336057	30.888697	-0.588871	0.242943	-0.024861
-0.61681	1.472698	18.750086	-42.039136	223.948003	-18.12215	0.536273	0.313775	-0.75021	4.129159	-8.883591	16.617505	149.598975	-182.141669	-23.950665	-0.10807	0.060039	0.048031	10.232917	6.860837	-2.668269	3.281111	-13.774149	41.032067	-0.52792	0.227701	0.035423
0.557911	0.778286	20.101008	-42.919489	259.472855	-18.965272	0.558247	0.368076	-0.716205	3.331539	0.58534	8.564779	85.65864	-105.576826	-33.222496	-0.126082	0.060039	0.054035	12.357548	7.889975	-4.504781	-1.593465	-5.96534	47.644057	-0.607566	0.2485	-0.011532
-0.918685	-1.075956	20.760596	-33.701152	294.446842	-16.954377	0.590921	0.329592	-0.63936	0.522651	2.883325	9.80439	79.539139	-113.677237	-46.720992	-0.132086	0.054035	0.054035	14.946803	5.444945	-6.23387	-2.322014	17.122116	56.339565	-0.591097	0.247192	-0.012394
-1.04693	-2.528728	20.003225	-19.425852	324.824308	-10.577099	0.605848	0.291965	-0.599832	-0.260989	-3.706909	12.218771	126.095166	-65.316617	0.747127	-0.150098	0.048031	0.054035	14.119262	3.946865	-5.058663	-6.404944	38.885873	39.697745	-0.572402	0.241635	-0.025723
-1.490311	-2.236114	20.804186	1.101566	340.600341	-7.636759	0.641078	0.330403	-0.581886	3.502972	-0.045388	8.569155	94.119351	-38.117356	-1.044149	-0.144094	0.042027	0.078051	11.269472	4.673824	0.595142	-7.967055	45.839987	5.275982	-0.608039	0.229991	0.027272
-3.305461	-1.767336	21.86721	43.062784	335.039227	-16.379487	0.644542	0.346536	-0.54667	1.156681	0.932899	10.173795	65.65421	-39.068604	-11.320595	-0.120078	0.036023	0.078051	9.049737	4.981525	3.520199	-7.040002	43.266968	-0.164585	-0.589297	0.256698	-0.046574
-3.541888	-2.703818	18.566103	74.332344	318.636243	-17.917928	0.644804	0.306386	-0.489981	4.451999	-1.192713	7.763656	70.242353	-36.905745	-5.383633	-0.13809	0.03002	0.072047	7.919654	5.101696	3.954937	-8.719845	39.979778	13.543158	-0.575527	0.241131	0.003832
-6.58369	-4.848727	18.384725	101.041563	295.927405	-27.276398	0.699452	0.322204	-0.379131	2.15036	1.218425	8.953844	50.934293	-19.446685	-2.542269	-0.132086	0.018012	0.066043	8.364927	6.31477	3.569822	-10.374393	38.536845	22.71197	-0.626261	0.254057	0.001797
-4.396244	-3.965138	24.614149	116.687031	295.731471	-27.625504	0.715144	0.3236	-0.378133	2.148911	0.24486	8.719569	38.948742	-19.990263	-2.07975	-0.144094	0.03002	0.078051	9.120906	6.651093	1.531849	-18.646893	40.15552	28.532249	-0.60534	0.244251	-0.023998
-4.665293	0.267869	22.82752	135.08123	293.966686	-40.601279	0.763247	0.326663	-0.356979	1.632821	1.278064	8.471961	16.207918	-14.370525	-3.6742	-0.150098	0.024016	0.078051	9.407265	6.695426	-1.258647	-24.588537	43.691081	28.907609	-0.538091	0.262281	-0.083343
20.742865	-8.863813	1.812967	133.677073	277.074422	4.513198	0.811733	0.349239	-0.355089	1.945141	0.415287	9.953921	15.692223	-12.899828	0.054704	-0.132086	0.024016	0.078051	10.084458	6.679227	-4.441167	-28.052544	52.560981	28.989069	-0.577707	0.277645	-0.044219
11.470229	-16.259477	-12.028513	43.250697	110.244217	85.270176	0.768121	0.361182	-0.322868	0.797535	0.363028	8.988287	10.41451	-13.118987	-0.972779	-0.126082	0.006004	0.072047	10.972809	6.208715	-5.624185	-27.152055	61.446613	25.423822	-0.561238	0.276337	-0.045082
9.739495	-3.445602	5.536772	10.514431	-117.036591	95.327385	0.7621	0.268127	-0.299185	2.507588	0.24201	9.788092	6.597106	-12.061245	-1.446072	-0.13809	0.024016	0.084055	12.06489	5.050466	-5.208398	-22.01441	58.762574	14.473415	-0.60572	0.290271	-0.106228
17.328504	0.067064	21.069043	78.790611	-154.347743	86.148497	0.794893	0.289306	-0.298293	1.528006	0.704871	8.824804	-0.688141	-10.619811	-0.532521	-0.144094	0.024016	0.096063	11.590136	4.770682	-3.335808	-19.004976	44.365194	-11.938124	-0.560339	0.28109	-0.062171
10.212542	-2.965803	12.077817	160.211441	-137.363994	67.579447	0.757609	0.253121	-0.35256	1.91936	1.047737	8.654801	-11.7108	-10.328224	0.999414	-0.144094	0.036023	0.090059	10.951866	4.782562	-1.065636	-23.514528	25.410917	-28.71283	-0.587925	0.27996	-0.102468
9.623726	-4.555623	2.526606	159.64046	-156.27528	50.951879	0.75338	0.197963	-0.349247	1.764652	0.07316	9.302269	-19.065034	-10.762427	0.404516	-0.13809	0.024016	0.066043	10.861404	4.904103	0.131572	-28.230897	5.720951	-18.891011	-0.542924	0.3168	-0.140641
7.086851	-5.36731	1.838396	128.450068	-181.111894	62.012183	0.752736	0.218602	-0.386671	1.600122	-0.155904	9.535415	-19.713417	-11.175907	-1.23635	-0.132086	0.018012	0.072047	11.552152	5.136163	0.545784	-28.898176	-9.724447	-4.833692	-0.558539	0.290596	-0.096351
6.017273	-5.595908	2.856787	83.346048	-182.363152	84.246831	0.752091	0.23924	-0.424096	1.610796	-1.187878	9.950244	-15.084755	-11.95222	-2.597886	-0.132086	0.024016	0.084055	10.817975	4.907371	0.815552	-26.541733	-19.023215	-12.282479	-0.55764	0.295349	-0.113441
5.734292	-4.956601	3.083868	38.763012	-171.997402	106.857135	0.745808	0.186335	-0.457102	1.814822	0.016307	8.949456	-9.056437	-11.338999	-1.974185	-0.144094	0.018012	0.090059	9.846003	4.618771	0.566723	-23.987243	-21.831112	-27.466736	-0.576335	0.300907	-0.100112
7.589453	-3.040458	4.16572	4.825862	-166.406288	120.031416	0.746573	0.225359	-0.495632	1.881633	-0.156655	9.481848	-11.967647	-10.673627	1.26473	-0.156102	0.012008	0.066043	9.095605	4.617884	0.038252	-22.273937	-18.6369	-30.651626	-0.55764	0.295349	-0.113441
8.576204	-2.749793	4.763997	-18.548915	-170.534208	120.723394	0.727417	0.20783	-0.531845	1.929119	-0.041428	9.010731	-10.615306	-10.522662	1.441577	-0.13809	0.03002	0.078051	8.287022	4.674745	-0.548174	-20.626609	-12.467295	-23.750541	-0.576335	0.300907	-0.100112
9.917435	-1.123083	5.950494	-39.70754	-176.955726	104.269892	0.694624	0.186651	-0.532737	2.107988	-0.615574	9.428007	-5.346516	-9.486871	1.161964	-0.150098	0.018012	0.078051	8.399669	4.732151	-0.602751	-19.843489	-4.597615	-14.446775	-0.573636	0.315166	-0.151382
9.867881	-0.947921	6.354474	-56.968014	-179.658079	73.479637	0.675086	0.149609	-0.549686	1.993585	-0.156894	9.425022	-0.669761	-8.90306	-0.083132	-0.150098	0.018012	0.072047	8.637021	4.444317	-0.142823	-18.196253	1.469711	-8.950732	-0.558539	0.290596	-0.096351
9.895036	-0.654354	7.742727	-74.063425	-178.822435	35.560416	0.707497	0.151276	-0.529529	1.931633	-0.156216	9.128934	2.517541	-9.026459	-0.299619	-0.156102	0.042027	0.078051	9.389342	4.040192	0.4409	-15.4675	4.548685	-9.741533	-0.554987	0.277345	-0.104193
7.691521	-0.996248	9.431755	-87.846993	-177.423749	-0.391785	0.629419	0.163805	-0.553784	1.830035	0.014886	9.775458	4.78726	-8.425822	-1.116203	-0.150098	0.024016	0.072047	9.169339	4.100383	0.836303	-12.611583	5.530758	-13.664013	-0.554514	0.295853	-0.142997
5.930776	-0.992287	10.321359	-97.594984	-181.78772	-27.718815	0.646903	0.2031	-0.573155	1.657111	0.416647	9.653487	2.887696	-8.088815	-0.098413	-0.156102	0.018012	0.078051	8.725624	3.81444	1.3969	-9.195945	3.664371	-19.260951	-0.575008	0.291904	-0.095488
4.403513	-1.510514	11.387722	-105.162032	-192.916813	-43.701293	0.675468	0.169121	-0.56895	1.486636	0.359967	9.591329	2.148858	-7.607346	0.206556	-0.144094	0.03002	0.078051	8.385216	3.178262	1.387251	-6.918015	2.198396	-21.814639	-0.538518	0.276037	-0.105056
2.941028	-1.389348	12.861468	-109.349572	-208.832663	-51.343957	0.596363	0.182777	-0.611365	1.600591	0.416817	9.652401	-1.399913	-8.556692	2.159784	-0.150098	0.024016	0.084055	8.153268	3.583203	1.21331	-5.378742	1.652325	-18.826717	-0.54387	0.279782	-0.063034
1.933187	-1.385273	14.112819	-107.956077	-229.280918	-53.317051	0.598418	0.180524	-0.575045	1.428625	0.131171	9.472648	-3.24959	-8.852032	4.494896	-0.144094	0.012008	0.078051	8.583365	3.344662	-0.091852	-5.318167	2.265028	-16.699502	-0.529154	0.301232	-0.090235
1.612417	-0.917663	15.321189	-97.549399	-246.43553	-52.466672	0.53436	0.216215	-0.653886	1.937236	-0.214016	9.424036	-5.727031	-9.199949	5.984146	-0.150098	0.018012	0.078051	8.241819	3.287448	-0.098872	-6.212514	3.366066	-17.311	-0.542924	0.3168	-0.140641
0.58481	-0.567706	15.590528	-83.897894	-257.956396	-48.926078	0.523542	0.249337	-0.620773	2.280466	-0.501805	9.608064	-3.64324	-8.636299	6.006356	-0.150098	0.018012	0.078051	8.174853	3.227299	-0.61409	-7.998695	4.201264	-21.408087	-0.559439	0.285843	-0.079261
0.582914	-0.974285	15.47392	-74.928687	-267.18667	-43.927268	0.46992	0.232393	-0.713463	2.049082	0.18669	9.425499	-3.093922	-8.84767	6.034637	-0.13809	0.018012	0.090059	7.823183	2.588493	-1.194661	-10.180566	3.426851	-24.735925	-0.54605	0.316296	-0.111086
-0.099053	-0.79865	15.807512	-70.439274	-273.094128	-36.821475	0.507205	0.268579	-0.659196	1.201119	0.246539	9.409098	-2.475741	-9.809988	4.930671	-0.150098	0.012008	0.078051	7.471489	3.10814	-1.65579	-12.235586	1.135307	-26.896171	-0.542497	0.303044	-0.118928
-0.563065	-0.450508	15.567948	-70.719906	-276.78865	-29.205574	0.438919	0.249112	-0.734724	1.875518	0.073023	9.186442	0.936503	-8.378721	2.797045	-0.156102	0.03002	0.096063	6.684317	2.590768	-1.217186	-13.950429	-1.900871	-28.150271	-0.591904	0.306968	-0.116339
-0.314834	-0.854794	16.496578	-75.942153	-276.002928	-22.296205	0.398508	0.317339	-0.723976	1.591429	-0.155092	9.063414	2.912408	-8.203152	1.438543	-0.168109	0.018012	0.072047	6.273428	3.110003	-1.793626	-15.757217	-4.845086	-27.418759	-0.522476	0.288485	-0.127633
-0.587583	-0.156187	17.244132	-80.367844	-271.351438	-18.394126	0.375768	0.224014	-0.719451	1.921682	-0.09801	8.597831	5.458478	-9.834958	-0.303857	-0.150098	0.03002	0.084055	6.220876	3.169065	-1.56612	-17.471746	-7.654892	-25.343993	-0.571883	0.292408	-0.125044
-0.457947	-0.154481	17.99801	-82.81032	-263.983969	-16.719346	0.343357	0.222347	-0.739607	2.334365	0.013758	9.549237	5.711832	-11.295242	-0.530346	-0.144094	0.036023	0.096063	6.632539	3.403009	-0.872079	-20.265654	-8.822013	-21.294358	-0.558966	0.304352	-0.118065
-1.308316	-0.326517	18.500779	-84.718621	-251.13083	-14.342932	0.331512	0.256596	-0.724654	2.01046	0.013359	10.36872	9.673211	-13.741789	-3.859918	-0.144094	0.03002	0.060039	7.429745	3.401416	-0.856312	-23.276206	-9.376928	-17.382499	-0.551861	0.277849	-0.133749
-2.170312	-1.486816	18.36521	-87.719528	-228.610636	-9.954297	0.283791	0.273044	-0.765073	1.670427	-0.042809	10.303301	9.451787	-16.364285	-3.494695	-0.156102	0.018012	0.084055	7.724711	3.345317	-0.337114	-25.028101	-9.338735	-15.221131	-0.565218	0.303344	-0.058953
-3.435781	-2.008395	18.165363	-95.906765	-193.897545	-2.343796	0.30051	0.273315	-0.745915	2.011611	0.356911	10.486111	9.282783	-20.440023	-4.491702	-0.132086	0.006004	0.066043	8.24092	3.171392	-0.15649	-28.28843	-8.724764	-15.956397	-0.558539	0.290596	-0.096351
-2.303719	-3.778559	78.229153	-202.333238	-76.927251	0.837754	0.269891	0.309546	-0.78644	1.896292	0.7584	10.424227	11.252955	-29.153522	-4.782264	-0.150098	0.03002	0.084055	8.987269	2.939642	0.142561	-29.365066	-8.863031	-19.935309	-0.554514	0.295853	-0.142997
-7.29341	-16.974429	-3.619668	-1.984762	-31.930869	1.648982	0.268481	0.29116	-0.785336	2.353178	-0.102553	10.552443	4.983154	-36.105675	-5.896546	-0.162106	0.018012	0.078051	8.577734	3.343347	-0.377312	-29.858371	-8.766392	-24.803646	-0.507333	0.296179	-0.13312
-18.384966	4.344155	22.56413	-158.567963	-33.397724	27.133364	0.306531	0.366369	-0.769598	2.071114	0.814674	10.722386	0.529467	-43.649443	-4.364193	-0.144094	0.018012	0.090059	8.413115	2.476294	-0.156265	-30.967119	-7.919495	-24.982188	-0.590578	0.297965	-0.111715
-17.867926	-0.038276	10.774296	-93.09023	-88.899127	20.239322	0.237218	0.348029	-0.863286	1.904751	0.471227	10.837736	-6.647287	-52.820511	-3.393535	-0.150098	0.012008	0.090059	8.069431	2.360658	-0.277733	-30.783374	-6.994056	-19.038071	-0.556313	0.286347	-0.108817
-20.322845	1.663256	17.259983	-112.901641	-152.66416	39.729208	0.299221	0.314591	-0.820764	2.13279	1.272233	11.076662	-15.284615	-61.478036	-1.564223	-0.162106	0.018012	0.078051	8.082616	1.958275	0.348441	-25.192429	-4.996007	-16.852071	-0.576335	0.300907	-0.100112
-26.301319	4.098815	13.852683	-173.890479	-197.260967	68.782686	0.236835	0.328517	-0.844021	2.086369	0.068654	11.431708	-22.579433	-70.573803	-1.326146	-0.162106	0.03002	0.072047	7.446331	1.841368	-0.178303	-23.356237	-1.608699	-18.511286	-0.542924	0.3168	-0.140641
-28.818072	7.578179	11.499329	-160.428808	-186.185528	97.836114	0.227164	0.420175	-0.868702	2.52881	0.411857	10.967791	-31.387465	-79.8609	-2.12697	-0.156102	0.006004	0.090059	7.338303	1.727117	0.104379	-23.577358	1.492975	-12.956422	-0.541171	0.294042	-0.114304
-30.715473	10.133754	11.409944	-105.33076	-128.808195	108.085249	0.149469	0.452217	-0.912222	2.213087	0.582524	12.25897	-35.508229	-90.490987	-1.29917	-0.192125	0.018012	0.084055	6.633801	2.186921	-0.934692	-22.840364	3.236855	0.25072	-0.526928	0.296983	-0.102701
-30.659019	9.67626	14.24175	-23.626135	-56.814644	103.291553	0.210827	0.439417	-0.907125	2.895263	0.351004	12.449416	-41.42233	-102.483354	0.835325	-0.162106	0.006004	0.078051	6.771339	2.192214	0.266496	-20.470478	3.498483	13.530899	-0.560293	0.313354	-0.122689
-29.560573	9.843266	11.778994	40.695486	16.187308	83.759684	0.205189	0.365874	-0.902707	2.182285	-0.393409	13.498613	-48.587202	-117.025752	-3.020052	-0.174113	0.03002	0.090059	6.89493	1.267484	0.664188	-20.871273	4.601015	19.436268	-0.559866	0.299599	-0.100975
-28.95968	8.380631	7.279664	15.089939	102.944134	69.866367	0.210445	0.419905	-0.88786	2.819617	-0.167637	14.395162	-52.42273	-136.598089	-6.175752	-0.180117	0.036023	0.072047	7.138914	1.618351	1.526653	-19.950931	5.411998	19.238914	-0.626168	0.318586	-0.119237
-28.087007	9.135889	7.934588	-24.523749	197.463059	50.450859	0.249184	0.373443	-0.954193	2.794206	-0.399478	16.046486	-60.329902	-158.880979	-11.82992	-0.168109	0.024016	0.090059	6.797482	1.50324	1.519369	-15.09446	5.49149	15.868487	-0.561619	0.322357	-0.127312
-29.104302	20.428696	20.88706	-27.541103	317.183982	12.527354	0.234901	0.390432	-0.956295	3.889277	-1.321121	17.07176	-63.587985	-188.766843	-14.493964	-0.198129	0.018012	0.090059	6.790508	1.038229	1.117621	-17.055331	2.968114	19.097074	-0.593657	0.329726	-0.142676
-5.630979	-5.302724	23.025934	324.141907	323.026445	-133.86109	0.297549	0.336356	-0.876349	2.853843	-1.092368	19.174713	-73.538322	-220.883222	-21.323304	-0.198129	0.03002	0.084055	6.301345	3.811595	-0.306075	-16.209399	-2.367199	32.467257	-0.575862	0.319415	-0.138916
-13.290051	8.93064	25.161787	418.488346	254.458181	-145.080206	0.328671	0.379299	-0.931043	0.455976	1.145711	21.248035	-70.20747	-258.74757	-20.164324	-0.204133	0.054035	0.084055	6.122717	8.662239	-3.083763	2.59498	-9.161899	45.600133	-0.527782	0.324494	-0.146128
-25.756507	15.581432	10.07715	209.055303	122.495004	9.028476	0.33667	0.309405	-0.961946	0.260047	1.601788	22.953881	-68.459663	-302.911146	-10.450239	-0.198129	0.054035	0.090059	6.774963	10.404714	-1.579092	21.261803	-21.569002	65.099459	-0.561146	0.340865	-0.166116
-6.247751	3.429775	9.684965	102.894158	69.876077	23.233134	0.314695	0.255104	-0.995951	-0.309771	2.062137	22.765202	-76.837308	-350.043127	-1.177332	-0.228148	0.054035	0.096063	9.599387	8.740762	2.920534	31.340865	-42.474198	88.264106	-0.579841	0.346423	-0.152787
0.618473	-7.775871	11.123749	143.551324	38.968723	-72.839922	0.328595	0.218603	-0.974583	0.419187	1.086762	22.309053	-84.660415	-389.481818	2.202103	-0.24616	0.048031	0.084055	13.759193	6.616805	8.699987	39.144719	-76.840868	107.568494	-0.666211	0.347705	-0.101827
-1.216495	1.681083	8.740689	152.235133	51.376285	-76.080512	0.33065	0.216351	-0.938263	2.461155	1.1945	22.76097	-60.285317	-415.935793	4.192657	-0.264172	0.048031	0.10807	14.317432	3.137678	7.782003	41.737166	-94.344979	103.463306	-0.667111	0.342952	-0.084737
-4.421262	-0.520585	9.018261	83.277296	43.455985	-25.760896	0.376054	0.242305	-0.990854	4.216328	0.157953	22.796483	-8.414202	-420.585613	4.697121	-0.282184	0.066043	0.102066	13.558624	2.297098	0.971967	23.677559	-93.720694	71.065358	-0.696923	0.346071	-0.112567
-0.180598	-0.402273	11.703642	66.432622	26.751146	-7.223436	0.357925	0.223649	-1.008908	4.356938	0.384143	24.332255	43.486353	-420.883632	8.137762	-0.300195	0.048031	0.132086	12.146076	3.607937	-4.129093	7.991112	-70.937615	18.284443	-0.667111	0.342952	-0.084737
-1.584402	-1.391017	10.286281	86.841653	25.85066	-19.693337	0.35857	0.203011	-0.971483	4.59286	0.7262	24.925994	103.594446	-406.76597	16.994664	-0.312203	0.054035	0.162106	10.38977	5.106141	-6.439732	-7.550413	-39.905176	4.391748	-0.667065	0.375216	-0.145254
-1.509288	3.015784	8.506929	71.574162	18.609918	4.207516	0.340059	0.164843	-0.970272	6.932695	0.092175	23.025744	124.176428	-409.507807	35.690336	-0.318207	0.054035	0.186121	8.804823	4.879844	-6.015581	-5.057848	-12.589903	24.446072	-0.647989	0.323639	-0.076352
-0.731242	0.638944	10.019242	63.844124	15.073474	-3.852265	0.353697	0.168492	-1.005594	0.817081	-0.403831	22.201298	99.241388	-404.568168	52.604863	-0.318207	0.060039	0.192125	8.710185	5.40587	-4.987809	6.791105	7.498866	14.502181	-0.667111	0.342952	-0.084737
-0.710927	3.53683	8.292929	51.005106	14.148394	-1.232136	0.350495	0.112208	-0.98412	-21.638161	-5.510976	-1.459322	11.033619	-359.084138	62.214279	-0.360234	0.054035	0.210137	7.901849	6.750497	-2.543694	10.020089	17.712198	-10.399185	-0.637299	0.339832	-0.056907
-1.849465	2.261982	8.671699	29.520624	11.485417	-3.459006	0.366952	0.152629	-1.021651	-24.699629	-14.368532	-9.583116	15.751208	-152.89193	-13.686597	-0.378246	0.072047	0.240156	9.416976	7.75371	2.22758	12.087615	15.758096	1.218577	-0.72007	0.360127	-0.074306
-1.423496	0.81332	9.832501	20.206825	10.314402	-3.285742	0.332104	0.133703	-1.058863	-14.735027	3.163316	6.620668	48.086193	-10.247933	-62.408676	-0.372242	0.060039	0.228148	12.85988	6.665893	6.39967	8.359985	-2.224508	49.598458	-0.688459	0.366513	-0.080655
-1.139231	1.219061	9.723565	16.863705	9.21446	-1.876307	0.382644	0.154025	-1.020653	-10.603749	-6.721623	17.687138	42.970139	89.489444	-81.087302	-0.378246	0.048031	0.252164	15.936956	6.718172	6.574935	3.243223	-21.568107	62.372966	-0.67199	0.365206	-0.081518
-1.084518	1.625025	9.610057	12.515966	9.310915	-2.746894	0.350495	0.112208	-0.98412	-11.501896	-2.929003	12.47321	50.714307	87.14055	-97.975089	-0.38425	0.048031	0.24616	14.215114	5.894098	2.884695	0.094738	-22.482194	3.539534	-0.688459	0.366513	-0.080655
-1.219282	2.203188	8.626317	5.618509	7.620072	-3.049659	0.334541	0.150962	-1.041807	-12.868109	-1.830639	9.024279	85.130407	97.484582	-116.289332	-0.354231	0.054035	0.234152	11.806994	6.576695	-0.812225	2.856812	-11.251131	-34.480816	-0.693338	0.388768	-0.077437
-0.748524	1.971969	9.213049	-2.419799	5.877769	-1.830023	0.348441	0.114461	-1.02044	-13.701697	-1.480641	6.76645	101.117126	131.384938	-107.45459	-0.354231	0.042027	0.222145	11.096201	6.224111	-2.254621	9.599907	-0.345003	-16.252897	-0.67289	0.360452	-0.064428
-1.187171	-0.289015	10.123492	-3.118845	4.746861	-1.065318	0.366952	0.152629	-1.021651	-13.17038	-2.510158	4.773138	110.909069	178.541808	-97.358624	-0.348227	0.060039	0.228148	10.746783	5.58583	-2.721007	11.777633	4.845698	11.623927	-0.721443	0.336865	-0.018412
-2.046264	0.292526	10.223374	7.512333	4.306726	-0.816595	0.319493	0.128927	-1.005381	-12.598282	-3.371655	5.021528	104.190652	225.251665	-85.609506	-0.342223	0.006004	0.234152	11.682437	5.126359	-1.506155	11.744778	5.197742	6.446915	-0.68268	0.349013	-0.100964
-2.066196	0.812535	9.241781	14.10424	2.544045	0.451727	0.363106	0.116984	-1.037602	-11.118078	-3.319809	5.639681	87.508129	263.753662	-75.325209	-0.348227	0.018012	0.216141	10.962219	5.248362	-0.492612	11.409363	1.689877	-15.586863	-0.700049	0.345567	-0.083011
-0.508962	2.263218	9.738653	12.285888	2.150399	1.273323	0.363871	0.156008	-1.076131	-9.709884	-2.808133	5.488933	66.49058	297.430453	-65.008411	-0.336219	0.024016	0.198129	10.069943	4.849113	0.401003	9.296214	-2.88314	-25.127211	-0.689359	0.36176	-0.063566
-0.568247	1.856695	9.620902	4.218194	2.446676	-0.234066	0.369006	0.150376	-0.985331	-7.888625	-3.043873	6.173114	43.405098	321.177158	-56.367774	-0.318207	0.024016	0.204133	9.562516	5.140933	0.677642	5.585633	-6.525071	-20.260424	-0.687605	0.339002	-0.037228
-0.333955	1.682903	9.856314	3.728953	2.304115	-2.428547	0.33583	0.109685	-0.966958	-5.766912	-2.709369	7.923715	17.436823	329.094079	-50.091908	-0.330215	0.012008	0.186121	9.679895	5.083598	0.850908	5.522574	-4.751535	-9.718864	-0.723196	0.359623	-0.04475
-0.957224	1.684494	10.248445	3.170117	3.028359	-4.830223	0.345622	0.077689	-1.018231	-3.331587	-2.201675	8.323529	-10.639209	323.879539	-43.747469	-0.312203	0.018012	0.174113	9.975089	4.911706	1.36958	9.267872	-1.908648	-6.124932	-0.701802	0.368325	-0.109348
-0.960375	1.393861	10.074302	-2.444577	4.032751	-4.288805	0.368361	0.171014	-1.022756	-2.067213	-1.577339	9.585322	-38.669205	310.467254	-33.015484	-0.318207	0.012008	0.144094	9.986021	4.508797	1.881569	12.30226	0.909995	-18.041524	-0.705827	0.363068	-0.062703
-1.183125	1.452965	10.416758	-2.279948	4.291285	-5.535005	0.364133	0.115857	-1.019442	-1.175932	-0.495705	12.1367	-59.671389	293.629345	-20.781565	-0.330215	-0.006004	0.120078	10.267711	3.754523	1.655415	13.094227	3.056216	-27.813951	-0.704501	0.354066	-0.058079
-0.914584	1.566536	9.497716	-5.48685	6.142791	-6.360605	0.349468	0.113335	-1.00228	-1.048639	0.189941	13.022657	-62.314355	280.02866	-8.607284	-0.300195	0.024016	0.114074	9.077215	2.773462	1.798571	13.738654	3.55956	-28.158632	-0.675542	0.378457	-0.073676
-0.841193	1.568437	10.308266	-15.633172	9.394813	-8.308286	0.382644	0.154025	-1.020653	0.153484	0.18494	13.871479	-54.103487	274.787703	0.894853	-0.294191	0.006004	0.102066	8.205603	3.060708	0.926609	13.337423	4.547807	-24.880185	-0.700949	0.340814	-0.065921
-0.673909	0.696931	10.020525	-20.013027	13.011536	-7.536136	0.364133	0.115857	-1.019442	1.577956	-0.393158	14.430662	-41.205294	268.200752	5.102413	-0.27618	0.012008	0.072047	7.73925	2.827403	0.345626	15.174895	8.204848	-19.938743	-0.704074	0.34031	-0.036365
-0.587384	2.499971	11.586999	-24.68972	24.391511	-6.407533	0.400773	0.172681	-1.0026	2.474833	-0.452467	14.035149	-35.563024	251.567126	6.364449	-0.270176	0.012008	0.060039	7.44723	1.957423	-0.120685	16.516021	13.429861	-17.850437	-0.704547	0.321801	0.002438
-1.068546	0.465988	10.358854	-20.959179	28.429018	-7.186039	0.400008	0.133657	-0.96407	3.883346	-1.143628	13.709532	-46.226319	233.565343	5.999306	-0.258168	0.024016	0.03002	7.336051	1.726591	-0.009805	19.365504	17.561668	-19.307377	-0.700522	0.327059	-0.044207
-1.008704	0.292084	10.475207	-13.263441	29.863579	-5.415443	0.387135	0.169032	-0.967278	4.045362	-0.799776	13.358182	-62.67138	217.516517	4.517261	-0.252164	0.024016	0.036023	7.662955	1.780388	-0.744983	20.866595	19.669854	-21.795204	-0.700522	0.327059	-0.044207
-1.306211	0.581318	9.949858	-13.117999	30.972134	-3.387056	0.367597	0.13199	-0.984227	3.521225	-1.08829	15.530829	-76.977713	197.267911	5.438454	-0.240156	0.024016	0.006004	7.152832	1.724041	-0.641198	20.464009	20.782274	-22.771389	-0.688932	0.348005	-0.041852
-1.247594	1.684352	10.069286	-11.002581	33.300964	-2.119344	0.366832	0.092966	-0.945697	3.877856	-0.40363	16.598134	-86.970848	181.642913	13.019476	-0.222145	0.012008	-0.012008	7.330419	1.725277	-0.295266	18.867454	19.540475	-25.075848	-0.641751	0.34833	-0.031975
-1.419313	1.220178	10.064739	-7.058214	35.268363	-2.804606	0.353959	0.128341	-0.948904	4.105426	-0.175345	16.720075	-92.923396	186.381653	26.238898	-0.198129	0.036023	-0.024016	6.021498	2.481072	-0.203568	18.104726	16.801719	-26.974063	-0.688932	0.348005	-0.041852
-1.246006	1.220151	10.125982	-13.917591	38.278907	-0.103737	0.367214	0.112478	-0.964962	4.798639	-0.465172	17.500624	-90.654656	210.696867	39.640556	-0.198129	0.060039	-0.03002	6.551905	1.962924	0.660585	19.5878	13.487568	-29.519821	-0.686752	0.311491	0.006199
-1.302195	1.162303	10.182514	-13.021102	41.432414	-0.515044	0.384316	0.132261	-0.965069	5.822382	-1.156155	17.757403	-85.504064	240.849784	50.344657	-0.192125	0.060039	-0.054035	5.871395	2.254559	0.819661	22.731709	10.116196	-30.954153	-0.705401	0.349313	-0.040989
-1.411813	1.74354	10.4707	-15.074214	44.748891	-0.330032	0.414673	0.13618	-0.981233	7.413899	-1.619978	18.201642	-78.088696	257.656795	55.847508	-0.144094	0.066043	-0.066043	6.222065	2.25598	1.283155	27.136897	6.703811	-30.637202	-0.635972	0.330829	-0.052283
-1.632975	1.338442	10.869853	-20.862823	49.727196	0.470422	0.417492	0.172952	-0.983442	8.171344	-2.311631	19.33799	-69.80504	257.602484	57.859454	-0.13809	0.072047	-0.072047	5.658366	2.779762	1.616812	31.203551	3.84401	-26.541923	-0.698296	0.322809	-0.056673
-1.526311	1.453438	10.467715	-24.097481	55.957062	1.628275	0.448493	0.156233	-0.962181	9.265584	-1.85856	20.537828	-58.804318	250.531645	60.403862	-0.126082	0.072047	-0.084055	5.66964	2.203164	2.128012	35.48715	0.659302	-18.951038	-0.684952	0.320997	-0.02798
-0.94111	1.570364	11.057572	-28.72583	62.463466	0.997055	0.432801	0.154836	-0.963179	10.571556	-1.686104	17.849595	-43.215201	249.060491	62.769821	-0.102066	0.090059	-0.072047	6.521764	2.085139	2.030196	38.878635	-2.190839	-9.874213	-0.669383	0.314936	-0.011754
-1.287725	1.570419	10.935085	-33.500314	71.115904	-0.917726	0.4157	0.135054	-0.963072	13.319258	-2.780676	16.547765	-33.359331	251.995216	61.148205	-0.090059	0.10807	-0.084055	7.091185	2.663228	2.10118	41.588742	-3.17945	-2.924342	-0.700995	0.30855	-0.005404
-1.108369	1.222834	11.284564	-39.276458	79.533959	-1.718181	0.407055	0.225586	-0.969593	17.243126	18.653352	39.765223	-117.022219	142.174097	50.84811	-0.054035	0.096063	-0.084055	7.655328	2.487087	1.826193	43.680153	-2.771854	2.338066	-0.651161	0.290871	0.013721
-1.572633	0.642154	10.984949	-41.851204	89.079436	-3.373545	0.450547	0.15398	-0.925861	21.063203	-7.761606	0.603854	5.816154	155.181367	40.05078	-0.036023	0.120078	-0.090059	7.354856	1.904749	0.96155	45.210717	0.405353	4.26061	-0.699241	0.285792	0.020934
-1.504649	1.514136	11.566335	-50.095104	98.637514	-1.562676	0.451575	0.152854	-0.907701	29.979419	-4.251425	9.793016	-97.542851	156.305268	-3.765099	-0.006004	0.120078	-0.078051	7.674559	1.609327	-0.17485	39.875231	6.858065	2.705986	-0.6814	0.307746	-0.035823
-1.364281	1.052757	12.839428	-42.418564	109.997812	-5.00689	0.488979	0.248702	-0.929388	30.422242	-4.767405	9.212622	-98.147708	149.512676	-32.708306	0	0.132086	-0.090059	7.889614	1.200443	-0.857291	37.922101	13.791824	4.583846	-0.634265	0.275807	0.034572
-2.234556	0.181694	12.299855	-43.775923	122.131196	-4.476395	0.485778	0.192418	-0.907914	34.633168	0.262764	8.577185	-95.168844	117.355925	-64.160141	0.012008	0.13809	-0.084055	8.215949	1.543721	-1.591154	33.392728	18.168003	9.412633	-0.671183	0.30543	0.022426
-2.115066	1.22705	12.59373	-43.733743	135.804567	-4.404894	0.519216	0.192959	-0.869598	34.520825	0.039044	5.508495	-67.602923	68.357927	-87.4522	0.012008	0.144094	-0.072047	8.89374	2.062372	-1.803642	25.425538	19.801697	12.420866	-0.651634	0.272362	0.052525
-1.646483	0.879466	13.064553	-48.369201	151.425736	-4.753388	0.554064	0.211885	-0.832386	32.154955	5.77311	6.809709	-48.078897	-9.841997	-97.389781	0.03002	0.150098	-0.090059	9.686657	2.523162	-1.957048	17.616626	19.198079	11.475386	-0.733079	0.283654	0.039749
-1.518824	1.751672	13.762713	-52.833326	169.274522	-6.145179	0.540808	0.227748	-0.816329	29.920298	10.875096	8.999215	-16.994573	-99.946353	-68.303384	0.036023	0.168109	-0.066043	9.514041	1.712166	-2.135383	12.615767	14.537808	11.648334	-0.683672	0.279731	0.037161
-1.17012	0.765032	13.940639	-54.867544	190.557715	-8.859442	0.564455	0.260284	-0.72674	27.639617	13.919427	8.360367	-0.618233	-203.654418	-1.728989	0.018012	0.168109	-0.072047	9.34717	0.844587	-2.028521	9.316159	5.55326	11.441369	-0.667157	0.310687	-0.02422
-0.620671	2.161748	15.688723	-65.027191	216.519887	-11.188417	0.591731	0.267583	-0.797384	40.88903	22.296964	11.254727	-5.234302	-344.973049	98.479987	0.024016	0.168109	-0.060039	8.849607	3.571473	-0.998643	6.050509	-4.484132	14.042079	-0.685425	0.302489	0.010823
0.514925	2.688664	18.024288	-70.028142	247.39021	-15.21094	0.592758	0.266456	-0.779224	21.065432	5.662397	24.34946	205.065124	-414.564272	70.885582	0	0.156102	-0.078051	8.230045	6.412539	-0.370138	-3.985372	-11.126432	23.775682	-0.654241	0.322631	-0.01724
0.942543	3.097788	19.363007	-69.870321	285.08372	-23.537351	0.625813	0.247485	-0.721643	11.743183	1.967222	23.763761	246.558642	-314.391753	12.475025	-0.024016	0.162106	-0.078051	7.975959	10.055998	-1.328649	-23.197522	-11.756732	29.558704	-0.669003	0.268916	0.070477
0.352615	1.710266	21.370597	-75.890239	325.146758	-28.319455	0.644587	0.245503	-0.666165	10.152056	1.253749	7.810042	181.946644	-174.754539	-54.516537	-0.042027	0.132086	-0.084055	8.861716	9.75865	-2.625063	-29.215165	-0.980107	39.643351	-0.66763	0.292178	0.014584
0.406822	0.258584	21.136987	-72.942426	356.196323	-31.118075	0.682636	0.320712	-0.650427	11.462792	-2.021049	10.966744	57.666319	-92.817293	-71.148879	-0.048031	0.126082	-0.066043	10.838844	7.826099	-6.475459	-34.38157	27.422002	53.940819	-0.671136	0.337694	-0.038091
-2.025856	-0.489386	22.820466	-38.586498	367.799628	-36.317002	0.737284	0.33653	-0.539577	1.766831	-4.686103	11.728615	85.58147	-44.450272	-4.385153	-0.066043	0.114074	-0.072047	12.698075	5.906244	-7.645903	-40.404203	65.783616	56.535266	-0.692957	0.342748	0.004794
-4.036773	-1.873839	25.493259	14.146944	368.093354	-36.550056	0.755413	0.355186	-0.521524	-3.189257	0.3778	7.260217	101.036415	-46.048597	-0.104425	-0.048031	0.10807	-0.072047	10.65591	3.622049	-1.761631	-40.930511	77.734533	30.874143	-0.688505	0.334249	-0.020138
-2.709729	-5.480389	22.794732	61.510975	365.575322	-27.756707	0.789878	0.3546	-0.465048	0.917278	0.309893	6.277641	76.631692	-51.456973	-7.012755	-0.048031	0.10807	-0.054035	9.091401	3.008465	2.541821	-29.652094	77.916408	17.688558	-0.672036	0.332941	-0.021001
-6.985613	-3.680302	21.32693	100.362827	351.667067	-32.85601	0.793724	0.390245	-0.449097	3.402312	-1.649946	8.982826	53.430458	-29.79013	-5.336171	-0.078051	0.090059	-0.060039	8.424197	4.822607	6.417595	-20.402982	66.9179	19.430819	-0.654195	0.354895	-0.077757
-8.346427	-4.199394	22.107647	118.27089	347.178157	-41.623686	0.853936	0.31891	-0.386206	0.968123	-1.819197	11.767326	58.642597	-19.78946	0.091544	-0.066043	0.078051	-0.060039	9.664487	5.120215	8.726247	-11.388291	52.509453	34.003404	-0.653768	0.34114	-0.056044
-3.506329	-2.590443	17.469045	120.644166	345.558646	-45.076896	0.827425	0.350635	-0.354091	2.085893	1.333891	8.539553	68.567022	-20.783336	-5.46303	-0.060039	0.084055	-0.054035	11.910001	5.455683	7.174294	-13.707828	34.430005	55.2043	-0.687605	0.339002	-0.037228
11.775176	-5.475969	6.84381	25.903435	355.363261	7.35369	0.81135	0.329727	-0.335825	1.858835	0.933729	8.417917	38.033889	-14.520973	-5.9297	-0.078051	0.084055	-0.072047	12.579526	5.901077	3.651324	-17.496279	22.909099	41.812859	-0.710706	0.385322	-0.059484
18.277778	-15.390931	-10.041473	-24.774162	215.619131	38.487453	0.845816	0.329141	-0.279348	1.425429	0.475129	9.354038	30.155416	-10.412323	-3.24735	-0.078051	0.090059	-0.042027	12.274019	7.041848	-0.173098	-10.884138	18.033106	4.223122	-0.6613	0.381399	-0.062073
1.001187	-8.220287	-4.357871	-16.704758	-60.205654	122.187388	0.867026	0.344418	-0.206815	1.477197	0.246296	9.06053	23.833015	-10.211235	-3.746379	-0.066043	0.072047	-0.048031	10.979885	7.195057	-5.162979	-12.182385	19.647911	-8.667106	-0.675589	0.346193	-0.013159
17.109093	-3.356394	21.403115	41.275979	-197.363659	97.378099	0.857279	0.27538	-0.275037	1.70956	-0.041355	9.360385	19.066886	-10.518528	-3.531044	-0.078051	0.060039	-0.054035	11.569448	6.432215	-7.095141	-9.702238	26.061926	11.291676	-0.676442	0.373704	-0.056586
10.652423	-5.095215	19.709911	149.710009	-170.836489	135.758992	0.904093	0.31972	-0.328732	-0.874748	0.943838	7.244754	13.791238	-9.019683	-5.282892	-0.066043	0.066043	-0.048031	12.839469	4.522286	-6.393932	-6.077951	28.331057	18.323238	-0.673362	0.341944	-0.025625
8.796624	-4.195298	7.134338	176.764377	-170.68453	132.768104	0.886991	0.299938	-0.328625	0.981454	0.647557	9.817042	8.914699	-8.836962	-0.76723	-0.072047	0.084055	-0.042027	13.407031	4.592039	-3.586017	-10.205869	15.980842	-7.653848	-0.691112	0.384518	-0.089903
11.212191	-6.823362	1.512494	160.380681	-209.758034	136.351432	0.842659	0.171824	-0.377369	-0.153176	0.250426	9.501019	-2.364715	-9.418137	-1.321627	-0.078051	0.066043	-0.054035	12.769876	5.183408	-1.199033	-19.088222	0.272916	-21.988356	-0.673362	0.341944	-0.025625
11.440019	-5.024261	1.521398	124.717044	-252.70217	138.796684	0.857444	0.234009	-0.470486	0.322588	-0.383184	10.690832	-0.468489	-9.851734	-4.601572	-0.090059	0.072047	-0.048031	11.877282	3.799395	-0.424071	-26.32133	-8.708515	-17.475547	-0.659973	0.372396	-0.057449
10.352194	-5.538266	4.503648	95.223849	-275.975242	138.020979	0.846288	0.146586	-0.537603	0.579661	1.623026	9.630709	6.774519	-10.335923	-4.772301	-0.072047	0.084055	-0.054035	11.657711	4.786454	0.089722	-26.834714	-12.932663	-20.286137	-0.65912	0.344885	-0.014022
9.376402	-4.144156	4.545386	78.406187	-283.425802	137.135976	0.804513	0.095393	-0.645245	0.795767	0.592299	8.928881	2.579592	-8.694771	-3.062003	-0.060039	0.066043	-0.066043	9.786569	5.313379	0.511659	-21.730098	-14.50403	-29.918653	-0.622156	0.347526	-0.062393
8.106225	-3.331172	4.175308	57.897926	-277.652024	128.10739	0.785357	0.077863	-0.681459	1.929353	0.244933	9.069223	3.747756	-8.247867	-2.457705	-0.090059	0.084055	-0.042027	8.774991	5.376477	1.176755	-16.042644	-14.625863	-31.414681	-0.657747	0.368147	-0.069915
7.982946	-2.809655	3.769577	29.50442	-261.193177	113.591292	0.755765	0.112968	-0.703824	2.845959	0.126504	9.735815	4.117177	-7.365292	-2.970811	-0.084055	0.078051	-0.048031	8.108804	4.686766	1.959376	-13.892997	-12.863454	-24.469846	-0.673789	0.355699	-0.047339
7.597009	-2.575138	4.571542	-12.174406	-240.236108	90.619726	0.703816	0.07426	-0.740929	2.395231	0.013181	9.786325	11.704409	-7.957659	-3.717272	-0.084055	0.072047	-0.054035	8.178023	4.74744	2.588779	-12.487592	-8.409545	-17.805733	-0.688505	0.334249	-0.020138
7.386498	-2.166241	5.550799	-59.468846	-223.910587	66.18757	0.664094	0.020814	-0.812252	1.659625	0.301859	9.771691	10.887275	-6.801075	-3.180714	-0.072047	0.084055	-0.048031	8.917841	4.39832	2.544751	-8.686768	-2.930405	-12.162048	-0.679568	0.3732	-0.02703
7.25041	-1.639219	7.3987	-101.163592	-219.727608	41.034157	0.645966	0.002158	-0.830305	1.803978	1.105573	8.534526	11.316773	-5.738853	-2.448287	-0.084055	0.090059	-0.048031	9.819469	4.625982	2.107085	-1.808649	1.016779	-10.167326	-0.690685	0.370763	-0.068189
7.537367	-0.703632	10.354061	-127.347392	-224.732712	16.145431	0.613937	0.020004	-0.869726	1.595861	1.276407	9.532878	6.374716	-5.370677	-1.3488	-0.072047	0.060039	-0.054035	10.325554	3.870465	1.714159	3.783633	1.984878	-14.992378	-0.708953	0.362564	-0.033147
5.576176	-0.057345	12.743815	-132.594503	-228.838566	-9.476899	0.503831	0.050378	-0.933401	1.816272	0.989872	9.183731	4.166925	-4.73274	0.101248	-0.072047	0.066043	-0.036023	9.742833	3.752656	1.017265	8.491824	-0.643374	-23.929375	-0.662199	0.376645	-0.044983
4.515296	0.179516	14.225841	-124.218087	-231.908232	-31.497583	0.469245	-0.008698	-0.913924	2.449577	0.013214	9.669411	2.42645	-5.593048	1.283677	-0.072047	0.060039	-0.048031	8.886773	3.580147	0.885398	10.558682	-4.147857	-29.709927	-0.692484	0.361256	-0.03401
3.134996	-0.28391	14.023847	-117.930154	-235.832777	-45.221848	0.440036	0.045918	-0.955554	1.424577	0.761591	9.353531	2.738738	-7.263374	2.03049	-0.072047	0.066043	-0.03002	8.31205	3.406281	0.587886	10.655624	-6.193147	-30.151388	-0.654195	0.354895	-0.077757
1.708515	-0.513711	14.399417	-117.154618	-242.355366	-49.266351	0.361576	0.038936	-0.960544	2.051021	-0.099874	9.485007	2.247725	-7.294659	3.004331	-0.066043	0.066043	-0.036023	7.955874	2.766423	-0.221053	7.950398	-6.141483	-27.628286	-0.620403	0.324768	-0.036056
1.225336	-0.683286	16.06534	-116.793956	-248.432929	-46.591493	0.349085	0.093822	-0.983015	1.705811	1.219078	9.358152	1.369908	-8.316969	4.206786	-0.072047	0.078051	-0.048031	7.714814	2.647931	-0.91119	4.656925	-4.269686	-24.355297	-0.67071	0.323939	-0.016377
0.32204	-0.738622	16.798504	-110.006391	-250.813032	-38.570549	0.274089	0.102973	-0.95279	1.9948	0.530311	9.600804	-0.742932	-9.150454	4.60096	-0.090059	0.066043	-0.060039	7.593714	2.878167	-1.254944	1.916425	-2.231491	-21.511464	-0.754808	0.353236	-0.0384
-0.065738	-0.968726	17.483722	-105.39246	-248.814599	-29.126074	0.209387	0.159302	-1.069056	1.24592	0.533846	8.819675	-3.518659	-8.88866	4.811353	-0.066043	0.066043	-0.048031	7.98647	2.412622	-1.591716	0.927978	-0.309871	-21.74487	-0.672936	0.328188	-0.003911
-0.750214	-0.561201	17.702243	-103.085771	-241.268311	-20.28456	0.156628	0.182603	-0.948137	2.105219	1.045703	9.543063	-2.115501	-9.808024	4.608677	-0.072047	0.066043	-0.036023	7.579414	2.701061	-1.997931	-0.580984	0.311026	-25.621452	-0.708953	0.362564	-0.033147
-0.893191	-1.19601	19.142646	-90.59831	-231.111315	-19.828083	0.106471	0.181792	-1.005611	1.47447	1.162975	9.058906	-1.417952	-9.814702	4.181159	-0.084055	0.072047	-0.048031	7.574238	2.468161	-2.284443	-2.826216	0.087262	-31.011896	-0.652914	0.313629	-0.012616
-1.992766	-1.138028	18.658551	-98.268989	-215.876061	-16.02508	0.074704	0.159487	-0.988342	3.003352	0.929	9.206652	-0.294646	-10.071794	6.935947	-0.090059	0.054035	-0.042027	7.025078	2.47403	-1.268046	-5.499043	-1.229091	-35.400555	-0.624855	0.333267	-0.011124
-2.761601	-0.262276	20.436904	-112.247069	-198.25534	-16.924315	0.017454	0.167781	-0.920799	1.837493	1.159719	10.36343	-8.49184	-10.687076	5.742051	-0.096063	0.078051	-0.048031	6.727176	2.876982	-1.899851	-8.352759	-3.727598	-36.673293	-0.639571	0.311817	0.016077
-4.295834	-0.665256	21.156657	-121.057244	-181.570424	-20.24613	0.017837	0.187293	-0.940064	2.16259	0.759071	9.544658	-4.993331	-10.031718	5.255182	-0.072047	0.072047	-0.042027	5.830964	2.1872	-1.23592	-11.544134	-6.148483	-35.196605	-0.671609	0.319186	0.000713
-5.781321	-1.591794	21.413778	-129.512704	-167.685009	-24.363599	0.019509	0.165529	-0.884479	1.934978	1.275384	9.539397	-8.913271	-13.616388	6.187539	-0.072047	0.054035	-0.024016	5.553893	2.884628	-0.78166	-14.36649	-8.353168	-31.459376	-0.623956	0.33802	-0.028214
-8.811076	-1.993746	21.930369	-138.327105	-166.573407	-30.127787	0.018481	0.166655	-0.902639	1.54258	0.188021	9.53372	-9.018127	-14.891414	6.851224	-0.078051	0.078051	-0.048031	5.723266	2.478486	-0.894305	-16.513411	-9.936199	-25.683578	-0.654714	0.304122	0.021563
-11.919936	-2.398298	21.347337	-143.409992	-199.967611	-29.484344	-0.022694	0.195858	-0.853362	1.945141	0.415287	9.953921	-5.778085	-15.719601	5.815076	-0.078051	0.084055	-0.048031	5.168816	2.309352	-0.164158	-19.215789	-10.74388	-20.999442	-0.653814	0.308875	0.004473
-15.045188	-2.398507	19.955877	-149.697932	-260.739612	-22.695425	-0.006357	0.176616	-0.814939	2.288499	0.814804	10.254731	-1.069119	-19.297785	3.282135	-0.084055	0.072047	-0.036023	5.337621	2.192692	-0.275489	-21.121236	-10.771152	-18.684414	-0.636918	0.293812	0.025324
-18.460001	-2.050462	18.44391	-147.407991	-307.55395	-10.678426	-0.003921	0.193876	-0.797884	2.112015	0.586856	9.838876	-2.317358	-24.510346	4.043886	-0.072047	0.078051	-0.048031	5.35282	2.485854	0.525115	-21.430482	-9.873481	-17.483408	-0.7063	0.344559	-0.023899
-22.835944	-1.293355	17.665083	-138.466903	-307.988804	8.771076	-0.06258	0.183784	-0.729235	2.124309	0.471155	10.488081	-4.548244	-31.361601	4.241808	-0.078051	0.078051	-0.054035	5.79823	2.482579	0.020296	-22.508782	-8.529283	-13.9723	-0.637391	0.275303	0.064128
-27.216389	-0.369721	13.765821	-125.925452	-259.426671	32.381331	-0.060788	0.221682	-0.749605	2.428299	0.582857	11.673315	-8.695348	-41.394899	4.398009	-0.102066	0.078051	-0.03002	6.77358	2.771967	0.440401	-22.080846	-6.568763	-5.298416	-0.635119	0.303318	-0.008856
-28.569224	2.000493	9.294668	-132.542604	-182.482107	55.140078	-0.063607	0.184911	-0.747396	2.090567	1.213792	11.842679	-13.589366	-54.276423	6.067418	-0.090059	0.072047	-0.048031	7.625591	2.711838	0.342848	-17.072314	-4.549558	3.24551	-0.639617	0.279552	0.076594
-29.268666	4.902317	8.883236	-144.395439	-108.499252	73.532006	-0.089091	0.21551	-0.697121	1.649107	1.271433	12.423886	-23.732763	-67.472375	9.050817	-0.096063	0.054035	-0.048031	8.37318	2.422455	0.698728	-5.731018	-2.691342	7.269936	-0.638245	0.302814	0.0207
-30.248538	7.928385	11.702852	-129.964509	-60.74391	81.386954	-0.106575	0.176216	-0.677749	1.655669	0.526225	12.661206	-31.417201	-81.219653	12.836409	-0.090059	0.084055	-0.054035	8.152175	1.84526	0.977055	-0.69174	-0.600988	15.169701	-0.684999	0.288733	0.032537
-30.109665	5.209965	15.686646	-75.744612	-47.904938	77.047907	-0.073017	0.236419	-0.715387	2.391978	1.096629	12.851318	-37.569416	-96.514795	13.531464	-0.10807	0.066043	-0.048031	8.494506	2.076426	1.041956	2.899711	2.75161	23.521477	-0.669383	0.314936	-0.011754
-30.270283	6.516919	27.938451	97.416983	11.830939	66.337004	-0.057062	0.197665	-0.6577	2.446537	0.294771	12.617825	-42.52873	-110.529017	12.009601	-0.096063	0.078051	-0.042027	8.954	1.786822	1.220928	7.908817	3.800054	23.126523	-0.652534	0.267609	0.069614
-28.135045	7.010471	17.001764	154.145727	85.97981	69.227299	-0.055653	0.216051	-0.658804	2.173826	-0.106236	13.085104	-48.909792	-123.149077	8.805663	-0.120078	0.078051	-0.036023	7.927929	0.050927	0.964401	3.32622	4.037297	19.824079	-0.638245	0.302814	0.0207
-25.803471	14.247624	10.535311	143.632782	193.828146	47.558222	0.001597	0.207756	-0.726348	2.672445	0.351381	12.62207	-50.556888	-138.301499	3.845571	-0.132086	0.072047	-0.054035	7.463953	-0.818975	0.437619	-11.620882	6.039322	19.024487	-0.622675	0.296753	0.036927
-10.587262	15.554893	5.524741	102.694026	290.628904	22.614135	-0.001604	0.151473	-0.704874	2.573575	-0.394196	13.270218	-58.379548	-153.143037	-4.362499	-0.13809	0.078051	-0.042027	7.33307	-1.344021	-0.480474	-20.141574	8.473916	23.356668	-0.691631	0.333745	0.009418
3.935314	-10.86422	7.541448	87.794633	323.759176	35.605878	0.032599	0.191037	-0.705087	2.584505	-0.051558	13.918611	-63.877484	-172.171078	-9.40088	-0.156102	0.102066	-0.042027	7.720376	0.390235	-0.86435	-18.75269	6.91467	30.495237	-0.668103	0.27367	0.053388
7.317374	-4.244736	33.862293	249.7512	316.363623	-56.519903	0.107595	0.181887	-0.735313	2.995078	0.404066	14.810408	-74.181901	-193.598872	-11.69873	-0.162106	0.090059	-0.03002	7.849456	4.434755	-2.555335	-18.246826	2.131265	41.495549	-0.658266	0.317374	0.029406
-11.328799	10.606341	22.893253	442.678555	288.059179	-85.963948	0.118676	0.108614	-0.711736	2.108906	1.602795	19.037816	-88.858766	-222.787245	-12.542727	-0.174113	0.084055	-0.036023	8.455105	10.394729	-2.972608	-6.723936	-7.063099	53.329585	-0.642224	0.329822	0.006829
-11.362942	8.781418	12.370062	385.802626	126.850764	-85.610993	0.16255	0.05652	-0.687269	1.140581	2.288601	21.790046	-102.647129	-263.462159	-5.161942	-0.174113	0.096063	-0.03002	10.533663	10.744847	-1.44609	8.320773	-23.032324	66.164603	-0.674735	0.318682	0.030268
-6.789925	8.992816	5.757832	175.565256	56.587226	-25.946806	0.151776	-0.011391	-0.77365	0.493263	1.027675	23.254244	-108.706158	-313.621798	0.154526	-0.198129	0.114074	-0.042027	14.578628	11.401196	4.572098	15.736107	-49.586319	83.575469	-0.689878	0.310987	0.035755
1.755562	1.212311	8.163043	96.626902	32.092964	-29.325228	0.093237	0.03818	-0.780956	1.093337	0.621776	25.094826	-113.549747	-364.290954	0.078497	-0.228148	0.10807	-0.042027	18.20003	9.851444	9.088016	19.132806	-80.754686	94.283137	-0.709472	0.311791	0.066174
0.19572	-1.33456	10.379667	106.645456	54.853968	-33.395201	0.166441	-0.008868	-0.790813	1.305553	3.08017	27.807728	-94.265819	-410.995069	0.368118	-0.252164	0.114074	-0.012008	15.985731	3.993773	5.8786	19.478075	-86.494817	68.18463	-0.727268	0.322101	0.062413
-4.380513	1.334909	8.272283	63.033589	41.518663	-6.322284	0.121037	-0.034822	-0.738222	3.015853	0.32952	25.132279	-52.724083	-442.505808	4.809428	-0.282184	0.10807	-0.018012	12.505011	3.682614	-0.355116	3.176633	-76.897365	13.04467	-0.698782	0.327984	0.085619
-0.228576	0.752851	9.336031	44.446839	21.446342	-11.25813	0.171959	0.005012	-0.719277	2.409437	1.761878	26.179791	8.104839	-445.7083	7.213449	-0.282184	0.126082	0.03002	9.54834	5.516277	-5.76968	-14.094262	-56.96402	-14.394505	-0.733092	0.307338	0.143239
-0.447952	0.870417	9.852072	50.889177	21.994052	-5.124281	0.131211	-0.047306	-0.808759	2.015952	0.674616	26.115113	70.265675	-445.620319	14.508589	-0.312203	0.120078	0.024016	7.529853	6.44108	-7.003828	-27.02669	-33.927359	-1.662668	-0.68056	0.303918	0.111094
-0.381475	0.929522	10.315873	39.405243	16.178569	1.296615	0.181751	-0.026984	-0.77055	4.476944	-0.132338	24.630343	107.181986	-435.121762	23.913662	-0.342223	0.120078	0.042027	7.438287	5.403904	-5.983153	-17.877235	-13.561147	19.292437	-0.715724	0.310783	0.125286
-0.814192	2.26126	8.807902	43.521477	14.398508	-2.755329	0.152421	-0.032029	-0.736226	8.037908	0.143286	24.757294	82.175088	-440.499503	45.978846	-0.354231	0.10807	0.066043	7.760727	5.701755	-4.035074	-7.302911	-1.42933	3.500936	-0.733519	0.321093	0.121525
-0.81143	2.958191	8.983023	19.991911	12.927845	-0.239628	0.196678	-0.064611	-0.731023	-2.286465	-3.545135	21.911115	33.841682	-414.796253	60.686945	-0.360234	0.10807	0.120078	7.993615	5.657975	-0.89189	-2.153102	2.254551	-23.686762	-0.733519	0.321093	0.121525
-1.378874	2.204892	9.25885	13.199617	10.151037	-2.453608	0.164649	-0.046766	-0.770443	-31.214357	-10.062014	-3.69985	-23.78307	-342.621943	75.621273	-0.390254	0.10807	0.126082	10.466868	6.541095	3.384176	3.094221	-5.185666	-11.404094	-0.693903	0.30573	0.082401
-0.950982	-0.056228	10.475512	5.86223	8.83042	0.386319	0.179959	-0.064881	-0.750181	-16.600044	-16.909577	-11.95918	67.337549	-134.9335	-25.135334	-0.390254	0.102066	0.13809	12.696604	6.262537	6.737004	6.346245	-23.451778	34.912206	-0.701908	0.32748	0.115175
-1.013165	0.175439	10.243669	7.607137	9.461563	2.693283	0.162595	-0.044513	-0.806763	-6.868027	-3.052354	9.436596	17.631171	63.530369	-13.471419	-0.390254	0.120078	0.174113	13.65712	4.92662	6.236275	10.763734	-31.259761	44.352154	-0.732193	0.312091	0.126149
-0.798776	1.68265	9.558096	5.268932	10.117996	-0.310677	0.146521	-0.065422	-0.788497	-8.002344	-0.653185	15.721444	102.207029	105.585881	-57.931885	-0.390254	0.114074	0.144094	12.349409	4.800449	3.413456	10.423789	-21.418804	6.598252	-0.737118	0.302081	0.189884
-1.381438	2.494826	9.14392	-4.529057	10.55452	-1.954512	0.158749	-0.080158	-0.822714	-7.460744	-5.859737	10.55062	73.748372	99.139125	-85.267769	-0.38425	0.114074	0.168109	10.81752	5.138956	0.816603	17.873999	-2.723692	-26.644788	-0.713071	0.292778	0.134533
-0.729289	0.987479	10.13571	-11.329434	10.395988	-4.21352	0.149984	-0.049289	-0.753281	-9.321002	-3.095078	5.084046	78.925497	94.652225	-102.014491	-0.372242	0.078051	0.144094	10.547962	5.187582	-1.300049	23.562043	10.924468	-22.770788	-0.71577	0.278519	0.185803
-1.413431	1.046749	10.353393	-6.496412	9.045324	-7.256385	0.21096	-0.0816	-0.72892	-11.092326	-3.202552	3.98856	74.598182	119.513445	-104.065931	-0.366238	0.084055	0.174113	10.534902	4.952842	-1.986206	19.990721	15.445688	2.032925	-0.734892	0.297831	0.177418
-1.47174	0.814494	10.293877	-3.606716	7.726645	-8.815473	0.143057	-0.081555	-0.823712	-11.59853	-2.571207	4.213664	73.543488	159.901904	-100.722973	-0.372242	0.084055	0.162106	11.28182	4.43161	-1.68847	17.226523	14.633748	6.960986	-0.730866	0.303089	0.130773
