1812_acc_x	1812_acc_y	1812_acc_z	1812_gyro_x	1812_gyro_y	1812_gyro_z	1812_mag_x	1812_mag_y	1812_mag_z	1813_acc_x	1813_acc_y	1813_acc_z	1813_gyro_x	1813_gyro_y	1813_gyro_z	1813_mag_x	1813_mag_y	1813_mag_z	1814_acc_x	1814_acc_y	1814_acc_z	1814_gyro_x	1814_gyro_y	1814_gyro_z	1814_mag_x	1814_mag_y	1814_mag_z
-0.795933	1.102502	9.672329	0.325052	2.1108	0.394747	-1.51328	0.820411	-1.93447	1.533141	0.07435	9.002921	-0.100762	-1.531219	-0.55811	0.366238	0.03002	-0.456297	9.048923	3.983241	0.490972	0.404337	2.393691	0.089392	-0.699163	0.374004	0.003389
-0.621761	1.392828	9.792086	-0.654324	1.584598	0.243619	0.404976	-0.81786	-1.405918	1.546756	0.244907	9.769619	-0.272611	-1.343282	-0.447096	-0.666434	0.174113	0.426277	9.381584	3.401228	-0.018729	0.157627	2.644926	-0.52946	-0.610641	0.103124	0.877316
-0.446056	1.276995	9.968679	-1.916133	0.974303	0.034632	0.404594	-0.837372	-1.386654	1.537147	0.188529	9.238719	-0.388938	-1.248913	-0.375007	-0.672438	0.150098	0.438285	9.100223	4.561039	0.266358	-0.427005	2.770299	-1.208382	-0.592799	0.125078	0.82056
-0.966843	0.986724	9.726435	-1.710382	0.849448	-0.25042	0.374619	-0.821779	-1.389754	1.759688	0.646389	9.124253	-0.648788	-1.187693	-0.732484	-0.66043	0.144094	0.426277	9.322831	3.748458	-0.07537	-1.135014	3.076246	-1.769816	-0.594172	0.101816	0.876453
-0.5035	1.335094	9.967676	-1.300801	0.412696	-0.644805	0.424515	-0.780818	-1.38897	1.655172	0.70321	9.593979	-0.619113	-1.321095	-0.587598	-0.66043	0.156102	0.426277	8.923318	4.212425	-0.081151	-1.6574	2.921086	-2.074878	-0.622657	0.095933	0.853247
-0.687428	1.682119	9.386938	-1.022461	0.373794	-0.591901	0.389929	-0.839894	-1.369492	1.931462	-0.098924	9.128833	-0.798468	-1.155614	-0.632273	-0.66043	0.150098	0.432281	9.034953	4.211672	-0.193083	-2.793856	2.419835	-2.28346	-0.587966	0.070559	0.877858
-1.026685	1.160628	9.610082	0.111163	0.286515	-0.928024	0.388902	-0.838768	-1.387652	1.364094	-0.097016	8.999966	-0.618959	-1.187247	-0.764444	-0.672438	0.174113	0.426277	8.520324	4.154274	-0.317666	-3.406891	1.670302	-1.84118	-0.593699	0.120325	0.837649
-0.679038	1.276799	9.790663	0.697519	0.365466	-1.091515	0.425159	-0.801456	-1.351545	1.482971	0.131204	9.355734	-0.460622	-1.198564	-0.678213	-0.666434	0.162106	0.432281	8.634438	4.038253	-0.31594	-4.019215	0.641738	-1.178331	-0.577703	0.100508	0.87559
-0.85098	1.044795	9.786675	1.069604	0.292107	-0.950577	0.372948	-0.800014	-1.445339	1.878778	0.072718	9.363442	-0.200464	-0.992088	-0.674427	-0.666434	0.156102	0.426277	8.510302	4.094011	-0.831759	-4.631442	-0.391817	-0.178933	-0.610641	0.103124	0.877316
-1.366442	1.161521	9.834483	1.029754	0.110123	-1.079341	0.376029	-0.803393	-1.390859	1.594412	0.302841	9.298603	-0.166039	-0.998416	-0.583371	-0.648422	0.144094	0.444289	8.178665	4.154956	-0.324424	-5.397582	-1.390278	0.390632	-0.593272	0.106569	0.859363
-0.968265	1.276797	9.669319	0.857191	0.38961	-0.910964	0.352645	-0.87608	-1.423759	1.702295	-0.15523	8.947587	-0.416851	-1.084589	-0.517973	-0.66043	0.174113	0.438285	8.749224	4.154081	-0.256069	-5.703395	-2.043633	0.801743	-0.607088	0.089872	0.869474
-0.968487	1.508968	9.669878	0.890188	0.387524	-0.820157	0.344263	-0.825698	-1.37359	1.877415	0.531058	9.36263	-0.155057	-1.372421	-0.576855	-0.654426	0.162106	0.432281	9.151319	4.096177	-0.077172	-5.7636	-2.595208	0.75304	-0.590619	0.088564	0.868611
-0.50796	1.218449	9.736138	0.814891	0.975463	-0.885897	0.392103	-0.782485	-1.409126	1.929928	0.416708	9.127919	-0.161082	-2.023031	-0.618366	-0.654426	0.150098	0.426277	8.929746	3.808465	0.20247	-4.780081	-2.460028	0.724608	-0.588393	0.084315	0.856145
-0.384262	1.451627	10.201501	0.448043	2.219795	-1.101101	0.390694	-0.80087	-1.408021	1.712139	0.18751	9.53698	0.402832	-2.47964	-0.668152	-0.666434	0.180117	0.426277	8.994687	3.752295	0.602978	-4.259415	-1.597164	0.829737	-0.576376	0.091506	0.880214
-0.564484	1.508858	9.793508	3.109937	3.791132	-1.863814	0.390694	-0.80087	-1.408021	1.825518	0.072584	9.539356	1.18145	-2.807746	-0.964733	-0.636414	0.156102	0.438285	9.43806	4.211927	0.04317	-3.647781	-0.263888	0.282163	-0.559008	0.094951	0.862261
-0.78559	1.045717	10.192522	3.615241	4.241932	-2.040665	0.438152	-0.777169	-1.424292	1.877691	0.07282	9.304442	1.572982	-3.04211	-0.963094	-0.672438	0.168109	0.420274	9.270268	4.386746	0.211856	-2.482866	1.109565	-0.44688	-0.590146	0.107073	0.829807
-0.685451	0.811619	9.442657	5.282716	4.166935	-2.052821	0.406386	-0.799474	-1.407023	1.654191	0.302367	9.47669	1.412805	-3.128639	-0.962821	-0.666434	0.156102	0.426277	9.505584	4.56182	0.616795	-1.840164	2.292211	-1.143722	-0.57415	0.087256	0.867748
-0.801927	1.392017	9.383953	4.255561	3.696634	-1.681014	0.407413	-0.8006	-1.388863	1.990049	0.301648	9.306209	1.270784	-2.940256	-0.883767	-0.654426	0.144094	0.432281	9.618242	4.039999	0.502497	-1.535033	3.169616	-2.202325	-0.621804	0.068422	0.896674
-0.964305	1.915826	9.902115	2.256896	2.914949	-1.421138	0.364183	-0.769145	-1.375906	1.650932	0.302671	9.299689	1.31402	-2.791973	-0.783115	-0.678442	0.156102	0.444289	9.62038	4.098422	0.616944	-1.19827	3.651661	-3.435106	-0.571025	0.08776	0.838192
-0.975012	1.159873	9.322151	0.884139	2.363028	-1.166703	0.452697	-0.834308	-1.3655	1.421487	0.704603	9.176632	1.22752	-2.697158	-0.742985	-0.66043	0.156102	0.432281	9.22494	3.636572	0.721142	-0.061476	3.893821	-4.352173	-0.539413	0.094147	0.831842
-0.851369	1.451094	9.787654	0.00695	1.797273	-0.863497	0.392748	-0.803123	-1.371701	1.708708	0.245107	9.359878	1.318741	-2.273517	-0.595512	-0.648422	0.156102	0.432281	8.763421	3.809857	0.42746	0.492793	3.452666	-5.134186	-0.559435	0.108707	0.840547
-0.679093	1.334841	9.790803	-1.151391	1.272119	-0.735295	0.424132	-0.80033	-1.369705	1.821236	0.416643	9.361746	1.243963	-1.994863	-0.513113	-0.672438	0.144094	0.426277	8.877422	3.751733	0.429449	0.863413	2.670723	-5.817529	-0.593272	0.106569	0.859363
-0.507263	1.68293	9.79507	-2.277816	0.776904	-0.606622	0.394158	-0.784737	-1.372806	1.589213	0.58971	9.062094	0.864077	-1.643584	-0.384061	-0.672438	0.156102	0.438285	9.159874	4.329866	0.380617	1.172431	1.974534	-6.136165	-0.542493	0.125907	0.800881
-0.798497	1.392436	9.557398	-3.547191	0.435669	-0.193193	0.407413	-0.8006	-1.388863	1.821747	0.244766	9.362051	0.938826	-1.530857	-0.225027	-0.654426	0.156102	0.420274	8.93052	4.561644	0.320071	1.205629	0.959816	-5.867768	-0.607988	0.085119	0.886564
-1.032288	1.043844	9.320728	-2.630606	0.135007	-0.257889	0.389284	-0.819256	-1.406916	1.771577	0.30162	9.714864	0.892652	-1.316988	-0.116919	-0.666434	0.162106	0.426277	8.419611	4.331345	0.365976	1.114578	0.520507	-5.246357	-0.559481	0.076442	0.901065
-0.968209	1.218755	9.669179	-2.433694	-0.298186	-0.494277	0.392748	-0.803123	-1.371701	1.253527	0.533135	9.232676	0.423307	-1.358428	-0.13342	-0.666434	0.156102	0.426277	8.587518	4.098629	0.197027	1.177495	-0.010222	-4.530243	-0.577276	0.086752	0.897304
-0.893898	1.452966	10.538103	-2.270761	-0.37011	-0.042716	0.356873	-0.820923	-1.427073	1.650356	0.130895	9.240994	0.156685	-1.264595	0.067714	-0.678442	0.162106	0.438285	8.644916	3.86693	0.197101	1.362405	-0.165282	-4.250384	-0.541639	0.098396	0.844308
-0.564317	1.33473	9.793089	-1.782893	-0.442045	-0.240623	0.374619	-0.821779	-1.389754	1.993138	0.358636	9.483108	0.061912	-1.358699	0.157835	-0.648422	0.156102	0.41427	8.356252	4.156192	0.021508	1.761968	0.007237	-3.151162	-0.657348	0.121307	0.828635
-1.019659	0.987338	9.956551	-1.035913	-0.24543	-0.311422	0.362774	-0.78753	-1.374802	1.708026	0.474276	9.359472	-0.502739	-1.459934	0.171867	-0.648422	0.156102	0.450293	8.19028	3.404669	0.185988	1.484098	0.628918	-1.913077	-0.560807	0.085445	0.896441
-0.621816	1.450871	9.792225	-0.208441	-0.200749	-0.695967	0.392486	-0.762973	-1.42839	1.705917	0.818132	9.299862	-0.2625	-1.559293	0.094954	-0.66043	0.156102	0.432281	8.308546	4.042616	0.476593	0.898359	1.456833	-0.375586	-0.643579	0.10574	0.879042
-0.740608	0.869996	9.557283	-0.215614	-0.415991	-0.704637	0.410232	-0.763829	-1.391072	1.931825	0.874743	9.304107	-0.509711	-1.516699	0.075768	-0.648422	0.132086	0.426277	8.420078	3.520532	0.305203	0.004667	2.414886	0.392601	-0.594598	0.115572	0.854739
-0.680236	1.334702	9.732988	0.305126	-0.709499	-0.515156	0.43636	-0.815066	-1.403922	1.815227	0.245375	9.00805	-0.554018	-1.596365	-0.144059	-0.672438	0.156102	0.426277	8.40993	4.097393	-0.148905	-0.581617	3.378986	1.009373	-0.589293	0.079562	0.873235
-0.565349	1.218505	9.734995	0.30365	-0.99091	-0.190528	0.392748	-0.803123	-1.371701	1.822834	0.244664	9.421051	-0.635661	-1.698933	-0.487615	-0.66043	0.168109	0.426277	9.157747	3.692217	0.206449	-1.075118	4.073803	1.26587	-0.576803	0.105261	0.8585
-0.847717	1.219342	9.960539	-0.43271	-1.256665	0.427246	0.377439	-0.785007	-1.391964	1.365308	0.590188	9.175748	-1.015543	-1.347654	-0.358562	-0.678442	0.150098	0.432281	9.048581	4.15693	0.49176	-2.028198	4.00801	0.772915	-0.58792	0.102824	0.817341
-0.851313	1.393051	9.787514	-0.979069	-2.076908	0.681578	0.403567	-0.836245	-1.404814	1.483653	-0.097966	9.35614	-1.263825	-1.236443	-0.496925	-0.672438	0.168109	0.426277	8.979818	3.86467	-0.138694	-2.918563	3.395347	0.017714	-0.607988	0.085119	0.886564
-0.79649	1.682929	9.673726	-2.398053	-3.089244	0.918204	0.43777	-0.796681	-1.405027	1.929012	0.359517	9.06902	-1.482354	-1.191709	-0.578824	-0.678442	0.162106	0.426277	9.040368	3.749552	0.033183	-3.039109	2.272454	-0.813273	-0.574104	0.119521	0.807231
-0.914528	1.508493	9.497576	-3.757753	-4.070329	1.001908	0.362129	-0.766892	-1.412226	1.588744	0.016988	8.945109	-1.920024	-1.134858	-0.713789	-0.666434	0.168109	0.426277	9.272862	4.213583	0.325252	-3.18996	0.911218	-2.128262	-0.605289	0.099379	0.835294
-0.389057	1.683238	9.970801	-4.337025	-4.261196	0.304974	0.378466	-0.786134	-1.373804	1.822493	0.359249	9.420848	-2.153031	-1.169345	-1.047477	-0.66043	0.156102	0.432281	8.989841	3.924932	0.375398	-2.603615	-0.110121	-3.018983	-0.592372	0.111322	0.842273
-0.744538	1.391961	9.385096	-6.745188	-4.305993	-0.770312	0.375384	-0.782755	-1.428284	1.432801	0.188057	9.708547	-2.281768	-1.358354	-0.900399	-0.66043	0.168109	0.420274	8.706592	3.752075	0.42607	-1.802574	-0.886777	-3.700129	-0.591046	0.10232	0.846897
-1.020747	0.929156	9.898597	-5.972528	-3.856134	-1.411944	0.370773	-0.857424	-1.405705	1.769169	0.015462	9.538371	-2.599176	-1.893565	-1.108615	-0.66043	0.162106	0.450293	8.821149	3.983696	0.486467	-0.726635	-0.813123	-3.634882	-0.61244	0.093617	0.911496
-0.682411	1.218337	9.617079	-4.621932	-2.58727	-2.278146	0.390956	-0.841021	-1.351332	1.423426	0.418039	9.236139	-3.074305	-2.384845	-1.431898	-0.666434	0.156102	0.432281	8.709515	3.984449	0.598398	-0.297471	-0.204314	-3.004401	-0.591046	0.10232	0.846897
-0.676473	0.986865	9.905594	-2.059626	-1.542613	-2.601738	0.365593	-0.750759	-1.377011	1.882038	0.072414	9.540443	-3.362984	-2.459611	-1.549817	-0.66043	0.156102	0.420274	8.592933	3.636509	0.423292	0.2248	0.145016	-1.327507	-0.607088	0.089872	0.869474
-0.790218	1.103201	9.961402	-0.377479	-1.218724	-2.536744	0.378466	-0.786134	-1.373804	1.32038	-0.384425	9.648389	-2.618961	-2.915238	-1.76061	-0.666434	0.156102	0.420274	8.708617	3.868393	0.540781	1.271159	-0.057275	0.793174	-0.621331	0.086931	0.857871
-0.730377	0.929297	10.077756	-0.05914	-1.653888	-2.867773	0.390694	-0.80087	-1.408021	1.481309	-0.040471	9.238038	-1.471076	-3.388774	-1.956329	-0.648422	0.162106	0.426277	8.414321	4.156341	0.079726	1.733371	-0.320815	2.422762	-0.57723	0.119017	0.836787
-0.390564	0.870361	9.853215	0.893152	-1.83279	-2.897758	0.404976	-0.81786	-1.405918	1.831868	0.129267	9.893255	-0.795485	-4.391284	-2.354236	-0.672438	0.162106	0.420274	8.702303	4.214457	0.256897	1.673258	-0.796744	3.473352	-0.58972	0.093317	0.851521
-0.845431	1.219622	10.076168	3.291078	-2.07761	-3.178724	0.376411	-0.783881	-1.410124	2.110119	0.128821	9.662688	-0.022466	-5.079852	-2.302883	-0.672438	0.162106	0.420274	8.644677	4.561949	0.257348	1.766556	-1.146816	4.430091	-0.559008	0.094951	0.862261
-0.794901	1.218727	9.730423	3.945422	-2.223592	-2.772449	0.390694	-0.80087	-1.408021	1.538404	0.131135	9.29782	0.013137	-5.479254	-2.422509	-0.642418	0.156102	0.432281	8.933125	3.809253	0.373746	1.921272	-1.46548	5.386427	-0.588393	0.084315	0.856145
-0.966955	1.102809	9.726714	3.766323	-2.097001	-2.671315	0.38723	-0.817004	-1.443237	1.886385	0.072007	9.776443	0.567137	-6.13325	-1.681076	-0.654426	0.150098	0.438285	8.811798	4.155282	0.030518	1.462474	-2.294375	7.177065	-0.627536	0.118187	0.856465
-0.740244	1.682734	9.617054	2.989507	-1.527094	-2.293295	0.388257	-0.81813	-1.425077	1.711968	0.244802	9.536878	0.209155	-6.75277	0.300973	-0.654426	0.156102	0.41427	9.034725	4.327465	-0.192557	0.388538	-3.064564	8.6266	-0.538986	0.080391	0.853556
-0.556316	1.335708	10.197792	2.295417	-1.580966	-1.484474	0.358283	-0.802537	-1.428177	1.664823	0.014991	10.008199	-0.843915	-7.470668	0.602245	-0.666434	0.168109	0.432281	9.264762	3.748309	-0.133589	-0.684416	-4.342694	9.20098	-0.593745	0.08806	0.898167
-0.623991	1.334506	9.676316	1.209761	-1.002942	-1.098777	0.391721	-0.801997	-1.389861	1.827351	0.186966	9.657153	-4.680115	-7.802652	4.614199	-0.672438	0.156102	0.420274	9.765534	3.976242	-0.693323	-1.695227	-5.949545	9.263391	-0.608841	0.11263	0.843136
-0.908479	1.160936	9.785812	0.553483	-0.591298	-0.638441	0.372183	-0.839038	-1.40681	1.498078	0.530728	10.240026	-15.111628	-10.487881	10.167167	-0.66043	0.156102	0.426277	9.756194	3.568601	-1.208992	-2.859657	-7.751575	7.892058	-0.572778	0.110518	0.811854
-0.625079	1.276324	9.618362	-1.673016	-0.078465	-0.014387	0.38723	-0.817004	-1.443237	1.371019	0.131443	9.412561	-42.433046	-18.983268	15.621346	-0.672438	0.156102	0.426277	9.14728	3.284313	-0.366313	-3.656139	-9.147876	6.329782	-0.625783	0.095429	0.882803
-0.446334	1.567209	9.969378	-2.085476	0.422756	0.1688	0.391076	-0.781358	-1.427286	0.648424	0.408686	16.239773	0.303069	-40.123744	6.068396	-0.654426	0.156102	0.438285	9.253613	3.687783	-0.704773	-3.746567	-10.049562	5.065665	-0.591946	0.097567	0.863987
-0.736481	1.334897	9.78966	-2.569565	0.586513	0.400949	0.407795	-0.781088	-1.408128	1.760711	0.302635	9.124862	-13.758723	-49.776515	8.12358	-0.642418	0.156102	0.444289	8.977679	3.806248	-0.253141	-3.345497	-10.789208	3.61692	-0.541212	0.084641	0.866022
-0.677394	0.754554	9.84722	-1.806555	0.854005	-0.400743	0.358283	-0.802537	-1.428177	1.481082	0.756312	12.42154	-21.598211	-53.448882	4.495687	-0.66043	0.150098	0.432281	9.043735	4.329568	0.26418	-2.668103	-11.371276	2.104829	-0.595071	0.097063	0.893543
-0.670869	1.103649	10.194947	-1.307224	0.931994	-0.317732	0.388257	-0.81813	-1.425077	1.972201	0.813695	11.487215	-19.560228	-64.677058	6.977107	-0.642418	0.156102	0.432281	8.874828	3.924897	0.316053	-1.929599	-11.637155	2.053795	-0.572778	0.110518	0.811854
-0.791027	0.754805	9.902749	-0.286188	1.155026	-0.607875	0.386848	-0.836516	-1.423972	1.640115	0.642231	11.835001	-24.815706	-72.852988	6.427479	-0.654426	0.180117	0.420274	9.276468	4.098578	0.496002	-1.436925	-11.805203	3.467233	-0.607515	0.103628	0.84776
-0.970606	1.334561	9.553829	0.515522	1.009232	-0.510683	0.375384	-0.782755	-1.428284	1.847251	0.070554	10.719359	-26.824101	-80.950217	7.649874	-0.642418	0.174113	0.420274	9.045544	3.982452	0.319695	-1.068896	-11.376952	3.826295	-0.622657	0.095933	0.853247
-0.733806	0.928878	9.904311	0.528345	0.423341	-0.473934	0.401895	-0.814481	-1.460399	2.653056	0.295916	11.560169	-28.230165	-87.97452	6.941469	-0.63041	0.162106	0.426277	8.477476	3.288833	0.305278	-0.547416	-10.878705	3.725791	-0.578602	0.095755	0.89268
-0.845209	0.987451	10.075609	1.455069	0.21068	-0.229664	0.373975	-0.801141	-1.427179	2.148151	0.125268	11.727694	-23.962083	-91.133263	6.800035	-0.642418	0.168109	0.432281	9.064474	3.523487	1.231067	0.928043	-10.737457	3.699863	-0.580356	0.118513	0.866342
-0.564317	1.33473	9.793089	1.507553	-0.004912	-0.331444	0.408823	-0.782214	-1.389968	2.288072	-0.502516	10.021066	-25.272441	-96.802071	5.0935	-0.63041	0.198129	0.432281	9.003481	3.290963	1.00052	2.127091	-10.695202	3.919421	-0.588393	0.084315	0.856145
-0.453248	1.624413	9.622629	0.813473	0.286248	0.002606	0.390694	-0.80087	-1.408021	2.679128	-0.789663	9.734179	-26.23104	-97.560151	3.16376	-0.636414	0.198129	0.420274	9.280984	3.520403	0.66465	3.818681	-10.813291	5.032291	-0.625783	0.095429	0.882803
-0.449318	1.102448	9.794816	0.586057	0.688655	0.299573	0.423105	-0.799204	-1.387865	2.400237	-1.304646	9.84766	-31.467951	-96.54118	2.214283	-0.624406	0.210137	0.41427	9.230344	3.75368	1.007128	4.801279	-10.11745	6.458898	-0.575903	0.110014	0.84141
-0.451715	1.218254	9.679466	-0.883603	1.392159	1.280183	0.356873	-0.820923	-1.427073	1.207212	-1.07139	9.529433	-41.721959	-92.806258	-1.932548	-0.636414	0.204133	0.426277	9.002571	3.754135	1.002623	6.366291	-8.704421	7.535573	-0.57595	0.07775	0.901928
-0.446223	1.451123	9.969099	-0.047166	1.619637	1.025168	0.385438	-0.854901	-1.422867	-1.187871	-0.48948	8.420776	-38.341894	-84.577125	-5.545279	-0.624406	0.210137	0.420274	9.67655	3.345129	0.500469	7.713821	-6.369052	8.222679	-0.590192	0.074809	0.890324
-0.784391	0.987814	10.250197	0.190537	1.914653	1.520585	0.375384	-0.782755	-1.428284	-2.765091	-0.08427	8.74364	-29.857684	-74.296155	-5.62699	-0.618402	0.228148	0.420274	9.506733	3.40363	0.554445	9.399148	-3.846546	8.968426	-0.57505	0.082503	0.884838
-0.736259	1.102726	9.789101	1.047554	1.8966	1.163318	0.388257	-0.81813	-1.425077	-4.220089	-0.940342	9.365912	-23.939368	-65.493676	-3.361425	-0.63041	0.222145	0.432281	10.015502	3.575506	0.394093	11.023088	-1.464045	8.768988	-0.574623	0.068748	0.906551
-0.27601	1.102421	9.85606	0.796506	1.654553	1.342701	0.369101	-0.835659	-1.46129	-6.154622	-0.990621	8.621065	-18.689945	-54.938975	-3.091613	-0.618402	0.240156	0.420274	10.069397	3.980142	0.282875	12.156753	0.100195	7.546033	-0.564786	0.112452	0.882569
-0.560665	1.102978	9.965974	1.104389	1.552916	1.422886	0.421051	-0.796951	-1.424185	-7.53293	-0.583555	7.473272	-15.489505	-40.705818	-0.780716	-0.618402	0.258168	0.408266	10.172021	3.977285	-0.285794	11.291869	1.588011	5.671833	-0.562987	0.121958	0.84839
-0.452524	0.869858	9.620813	1.492955	1.456064	0.98184	0.392103	-0.782485	-1.409126	-7.342107	-1.158818	8.53955	-15.804927	-20.897717	2.417254	-0.636414	0.258168	0.402262	10.110004	4.26583	-0.513974	9.968095	2.116797	4.031483	-0.627582	0.085923	0.916982
-0.74164	0.753771	9.499189	1.986021	1.475102	0.879224	0.375767	-0.763243	-1.447548	-7.223166	-0.586945	8.95371	-7.910875	1.43849	0.688872	-0.642418	0.264172	0.396258	9.591894	3.686312	-0.869292	7.323971	1.975212	3.103017	-0.582582	0.122762	0.878809
-0.904939	1.04527	9.958977	2.23592	1.811944	0.520406	0.373592	-0.820653	-1.407914	-8.189943	-0.411663	8.639931	3.630483	25.987211	-2.266374	-0.642418	0.270176	0.372242	10.218828	3.974806	-0.798497	4.495976	1.478951	1.141902	-0.61154	0.098371	0.894406
-0.278575	1.392355	9.741129	2.148326	2.030896	0.439803	0.342591	-0.803934	-1.429175	-6.998921	-0.702009	8.840259	9.065711	45.723369	-5.18479	-0.666434	0.270176	0.372242	9.827335	3.224263	-0.524337	1.730949	0.289805	-1.567449	-0.57415	0.087256	0.867748
-0.962271	0.987283	9.957694	2.205613	1.937875	0.373502	0.374357	-0.781629	-1.446444	-5.980525	0.039421	9.035499	9.383104	60.63245	-9.741305	-0.666434	0.288188	0.342223	9.659429	3.456979	-0.355388	0.257368	-0.970861	-4.574083	-0.578649	0.06349	0.953197
-1.140429	1.276964	9.66589	2.033942	2.028622	0.8397	0.424515	-0.780818	-1.38897	-5.468483	-0.363363	9.16399	8.390429	71.929171	-14.914843	-0.696453	0.300195	0.306199	9.542391	3.340625	-0.529443	-0.84615	-2.607948	-6.683045	-0.608887	0.080366	0.903653
-0.448564	1.508886	9.853609	1.452768	2.040645	1.098484	0.372565	-0.819526	-1.426075	-4.671883	0.034689	9.532494	7.829146	81.356577	-19.204219	-0.690449	0.312203	0.27618	9.036659	3.343226	-0.197026	-1.51855	-4.463825	-8.142329	-0.578176	0.081999	0.914394
-0.282757	0.985497	9.508892	1.082537	2.018785	1.167505	0.390311	-0.820382	-1.388756	-4.449746	0.263481	9.359434	8.378322	89.650922	-22.957708	-0.720469	0.318207	0.24616	9.036545	3.401122	-0.196763	-1.515196	-5.982826	-9.024665	-0.561661	0.112956	0.853014
-0.684697	1.218057	9.50145	1.552337	2.159508	1.223237	0.406003	-0.818986	-1.387758	-3.930204	0.260932	9.959215	9.08288	96.440866	-25.453379	-0.726473	0.342223	0.198129	9.041721	3.634022	0.089749	-1.17471	-7.09285	-10.342883	-0.593699	0.120325	0.837649
-0.735672	1.683293	9.848313	1.149109	2.139733	1.20145	0.374619	-0.821779	-1.389754	-3.079151	0.258071	10.152515	9.959378	100.863178	-27.42719	-0.762496	0.360234	0.174113	9.158088	3.518528	0.20566	-0.2195	-8.105614	-11.507126	-0.579929	0.104757	0.888056
-0.625468	1.682623	9.61934	1.468134	2.156847	1.591842	0.372565	-0.819526	-1.426075	-2.389028	-0.088744	10.756166	11.429023	102.941475	-28.491046	-0.774504	0.348227	0.120078	9.844229	3.228206	0.332045	0.51933	-8.522485	-11.707591	-0.607561	0.071363	0.908277
-0.448873	0.638106	9.793698	1.195743	2.223526	1.753853	0.355081	-0.858821	-1.406703	-1.933612	-0.090412	10.941859	12.998059	102.860483	-28.800591	-0.780508	0.366238	0.042027	9.336585	3.056592	0.549489	0.94874	-8.087594	-11.745955	-0.591519	0.083811	0.885701
-0.970718	1.450646	9.554109	1.72808	2.299429	1.927673	0.389667	-0.799744	-1.426181	-1.481115	-0.20636	10.950756	14.850506	100.906254	-28.03503	-0.804524	0.390254	0	9.620619	3.403402	0.556698	1.560548	-6.735848	-11.468149	-0.594645	0.083307	0.915257
-1.030336	1.392379	9.437196	1.72283	2.271228	1.743283	0.375384	-0.782755	-1.428284	-0.74406	0.478527	11.199665	15.949972	98.180567	-25.622345	-0.840547	0.390254	-0.066043	9.503809	3.171255	0.382117	1.433939	-5.069628	-10.284019	-0.595117	0.064798	0.95406
-0.623602	0.928207	9.675338	2.186677	2.384174	1.584099	0.373592	-0.820653	-1.407914	-0.632129	-0.609964	10.967766	14.833269	95.512517	-21.95084	-0.810528	0.408266	-0.126082	9.331523	2.765796	0.262714	1.336606	-2.815682	-9.449814	-0.595971	0.09231	0.910633
-0.560301	1.915716	10.025745	1.897259	2.586588	0.835307	0.359692	-0.784151	-1.429282	-0.239518	-0.324492	10.856865	9.02575	94.047271	-16.702677	-0.810528	0.420274	-0.210137	9.794157	3.172001	0.673209	1.301777	-1.070751	-9.368123	-0.564786	0.112452	0.882569
-0.509103	1.218309	9.678323	1.361279	2.983385	-0.144112	0.358665	-0.783025	-1.447442	0.317495	-0.497261	10.396034	-2.103499	93.603484	-10.639454	-0.79852	0.462301	-0.288188	8.867422	2.533018	-0.204085	1.482524	0.604185	-8.519	-0.591992	0.065302	0.924504
-0.449374	1.160491	9.794956	2.864963	3.106282	-0.816551	0.376411	-0.783881	-1.410124	0.987441	-0.269426	9.995667	-18.561257	96.875917	-2.970085	-0.774504	0.480313	-0.372242	8.765241	2.883515	0.423254	1.449441	1.720212	-7.352209	-0.527869	0.082829	0.894715
-0.461947	1.158953	9.158993	1.885874	3.408993	-0.780845	0.376674	-0.824032	-1.353434	1.118336	0.30133	11.058828	-33.55236	101.909399	5.500049	-0.744485	0.498324	-0.438285	9.156302	2.70719	0.030704	1.508921	2.685928	-6.303782	-0.579502	0.091002	0.90977
-0.449819	1.624832	9.796074	1.772604	3.267023	-1.456284	0.422723	-0.818716	-1.3686	2.371567	1.384918	11.788807	-36.010301	104.195718	12.379809	-0.708461	0.540352	-0.52234	8.93168	2.824226	0.198001	2.276231	3.328634	-5.611092	-0.577703	0.100508	0.87559
-0.450405	1.044266	9.736861	1.97168	3.567522	-1.295879	0.372183	-0.839038	-1.40681	3.592141	0.289941	13.46556	-26.955192	104.320334	18.578381	-0.636414	0.564367	-0.564367	8.704919	2.88284	0.250851	3.598707	3.268669	-4.593267	-0.579502	0.091002	0.90977
-0.570143	1.450117	9.504295	2.093088	4.363292	-1.174404	0.359955	-0.824302	-1.372592	3.527972	1.03542	13.168153	-7.806343	100.623882	21.940136	-0.600391	0.594387	-0.63041	9.093158	2.995471	-0.254569	4.676622	2.648983	-3.227342	-0.545238	0.079384	0.912668
-0.740022	1.450563	9.616495	2.06628	4.939809	-0.477786	0.388257	-0.81813	-1.425077	3.575692	1.437007	12.755528	11.445662	95.670766	24.877667	-0.528344	0.636414	-0.684445	9.435603	3.16874	-0.189931	5.294213	1.468438	-3.68601	-0.556828	0.058437	0.910312
-0.507096	1.508802	9.794651	1.464726	5.354081	-0.324235	0.40113	-0.853505	-1.421869	4.740613	0.060846	11.36478	24.098668	90.996888	27.238691	-0.468305	0.66043	-0.720469	9.156302	2.70719	0.030704	5.696319	0.218653	-5.857024	-0.543058	0.04287	0.960719
-0.73414	1.277134	9.90515	1.456122	5.592394	0.296942	0.342853	-0.844084	-1.372486	4.838034	-0.167141	10.482357	28.02434	87.319861	27.756245	-0.420274	0.678442	-0.762496	8.984004	2.880957	-0.028979	6.683553	-1.369715	-7.435927	-0.628009	0.099678	0.895269
-0.858283	1.508298	9.440905	1.247126	5.360611	-0.379913	0.385438	-0.854901	-1.422867	6.066698	-0.685	9.622174	25.433894	86.70203	26.82209	-0.342223	0.708461	-0.762496	9.340647	2.710003	0.719188	8.038737	-2.578486	-9.511042	-0.578176	0.081999	0.914394
-0.738768	1.334617	9.67403	1.412305	5.506903	-0.133357	0.421695	-0.817589	-1.38676	6.796189	-0.744001	9.341401	20.659918	88.618464	23.84344	-0.27618	0.720469	-0.786512	8.947902	2.59632	0.99624	10.745392	-3.027418	-10.036631	-0.541212	0.084641	0.866022
-0.620451	1.21884	9.849481	1.203801	5.915721	-0.356084	0.370773	-0.857424	-1.405705	8.188062	-1.319054	8.130579	14.900855	91.515136	19.016797	-0.204133	0.732477	-0.804524	8.95094	2.770798	1.168305	13.941373	-2.256919	-9.731457	-0.629382	0.076416	0.951162
-0.73545	1.451122	9.847754	1.54321	5.87562	-0.33524	0.390311	-0.820382	-1.388756	9.936502	-1.553101	7.92867	8.310617	90.614277	12.586104	-0.156102	0.750488	-0.79852	9.062244	2.364507	0.997441	15.907175	-1.295627	-8.856186	-0.540786	0.070885	0.887736
-1.140596	1.451092	9.666309	1.560074	5.820528	-0.857409	0.394158	-0.784737	-1.372806	10.964632	-8.831292	7.37112	-16.969227	56.051656	6.066056	-0.10807	0.774504	-0.804524	8.677372	2.831892	1.733858	18.270868	0.411644	-8.36311	-0.611114	0.084615	0.916119
-1.136024	1.451651	9.897568	1.614354	5.917522	-1.313103	0.405621	-0.838498	-1.368494	12.390826	-1.213902	6.264869	-37.519045	40.286466	-0.378615	-0.048031	0.786512	-0.792516	8.90593	3.005389	1.796244	20.786579	2.991077	-6.635426	-0.591946	0.097567	0.863987
-0.96478	1.219174	9.842623	2.752542	5.858869	-1.495362	0.373975	-0.801141	-1.427179	12.437211	-1.103682	8.801673	-40.614101	19.130904	-12.316506	-0.024016	0.804524	-0.786512	9.123567	3.002568	1.286919	22.995634	5.28313	-4.382785	-0.592891	0.060549	0.941594
-0.445024	1.39322	10.026774	1.872509	6.092553	-1.098137	0.438032	-0.836831	-1.348338	13.308519	-1.332432	6.99046	-44.583156	-3.328593	-14.880139	0.018012	0.834543	-0.786512	8.843128	3.119981	1.510182	24.990553	7.139781	-1.876537	-0.589293	0.079562	0.873235
-0.907392	1.219118	9.843766	1.87904	6.24545	-1.030894	0.421695	-0.817589	-1.38676	13.731109	-0.534272	8.58965	-50.031802	-21.044803	-21.227649	0.018012	0.846551	-0.780508	9.012627	2.076716	1.337553	26.340037	8.813624	0.018758	-0.576849	0.072997	0.919017
-1.021192	1.393497	9.899714	3.132183	5.624119	-0.811168	0.42375	-0.819842	-1.35044	13.873615	0.149953	10.30161	-52.258767	-38.106665	-20.262963	0.036023	0.870567	-0.756492	9.007883	2.770685	1.169431	28.030889	9.145773	1.76348	-0.608887	0.080366	0.903653
-0.804324	1.507823	9.268603	3.658057	5.484354	-0.615494	0.388902	-0.838768	-1.387652	16.074255	2.091045	10.458538	-37.773583	-68.187942	-18.206679	0.042027	0.888578	-0.750488	9.000227	2.653052	0.76926	28.585165	9.08343	4.367594	-0.595544	0.078554	0.932346
-0.917092	1.798427	9.382646	2.673353	5.337754	-1.514883	0.433541	-0.851838	-1.401713	16.543684	4.326961	8.694354	-11.463189	-108.977412	0.843895	0.036023	0.888578	-0.750488	8.776606	3.407474	1.053633	26.002751	9.243343	7.958941	-0.57505	0.082503	0.884838
-0.73676	1.62511	9.790359	4.089345	5.007406	-2.662233	0.420286	-0.835975	-1.385656	-5.124508	-0.536669	9.406815	-24.024574	-137.703355	-2.767034	0.03002	0.912594	-0.780508	9.162707	3.461683	0.433766	22.496405	9.955357	10.737292	-0.578176	0.081999	0.914394
-1.12557	1.278781	10.417482	2.845439	5.45277	-3.561699	0.406648	-0.839624	-1.350334	-1.864209	-0.0294	8.583924	35.110991	-149.948004	-28.822135	0.006004	0.900586	-0.762496	10.007948	3.979204	0.053381	19.234585	11.259523	13.044444	-0.558627	0.048931	0.944492
-0.556063	2.264531	10.257843	2.344223	6.267746	-3.638549	0.40844	-0.801726	-1.370703	0.6063	-1.133844	13.705507	14.786572	-120.660939	-5.58812	-0.024016	0.912594	-0.762496	10.100869	4.90085	-0.910728	13.941735	13.196345	14.377908	-0.61116	0.052351	0.976637
-1.195976	1.741641	9.781494	0.034909	7.659611	-6.429563	0.391339	-0.821509	-1.370596	3.11073	-1.195152	11.630501	27.351992	-105.575709	-5.108141	-0.036023	0.90659	-0.762496	10.939933	4.548085	-1.694701	7.877211	16.282119	14.029081	-0.614666	0.097867	0.923962
-0.95558	1.162249	10.305002	-6.510467	10.586546	-7.345544	0.469416	-0.834038	-1.346342	2.291737	-0.273752	10.25666	28.404637	-94.710793	-16.039649	-0.036023	0.918598	-0.780508	11.324452	4.833616	-2.370609	1.565407	19.71024	11.040805	-0.61244	0.093617	0.911496
-0.249356	1.918372	11.24557	-17.536982	17.514423	-8.387931	0.424777	-0.820968	-1.33228	1.890433	-0.558412	9.89556	34.608806	-81.525021	-20.364809	-0.066043	0.90659	-0.774504	10.854606	4.65742	-3.122606	-2.621081	21.032151	3.096946	-0.61334	0.088864	0.928586
-0.47459	0.990331	11.412207	-26.236123	27.270263	-9.063908	0.417849	-0.853234	-1.402711	2.121433	-0.387724	10.194603	31.928355	-62.523054	-15.33926	-0.090059	0.882574	-0.804524	10.715095	4.201687	-1.586599	-5.448248	19.853873	-2.45738	-0.647177	0.086727	0.947401
0.229014	2.094431	12.237985	-35.233396	44.436462	-12.912068	0.433924	-0.832326	-1.420978	1.712373	0.47387	9.595472	32.191615	-51.423183	-18.407678	-0.10807	0.876571	-0.822535	9.988802	3.974735	-0.917186	-6.979315	17.095686	-3.686224	-0.595544	0.078554	0.932346
-0.477432	1.570478	11.297975	-38.346617	55.231696	-10.255681	0.436623	-0.855217	-1.347233	4.220879	-0.967564	10.589825	22.022771	-33.790808	-21.388819	-0.114074	0.888578	-0.792516	9.323946	4.327947	0.041443	-3.648139	12.541629	-3.715621	-0.644051	0.087231	0.917845
-0.575063	1.572686	12.16291	-39.000692	66.815919	-9.306044	0.418876	-0.854361	-1.384551	1.603254	-0.843515	9.595634	22.76859	-19.822029	-4.045999	-0.114074	0.882574	-0.810528	9.060981	3.580595	1.060053	-0.100413	7.43886	-3.761717	-0.646277	0.09148	0.930311
-0.755173	1.513832	11.754638	-38.088982	77.033246	-8.266423	0.468771	-0.8134	-1.383766	1.476962	-0.040065	9.002038	24.151246	-16.249418	-1.580145	-0.114074	0.876571	-0.79852	8.733383	4.453403	1.856529	-0.028564	2.840469	-5.612161	-0.644051	0.087231	0.917845
-0.491496	1.691929	13.494073	-33.122487	85.215544	-8.201291	0.455778	-0.837687	-1.31102	1.206936	-0.613152	9.587621	31.123355	-17.973608	-2.191375	-0.10807	0.864563	-0.810528	8.630429	4.050722	2.366266	1.577314	-0.25397	-6.357578	-0.644051	0.087231	0.917845
-0.401533	1.340488	12.223595	-31.031388	97.155672	-9.349729	0.489337	-0.777484	-1.348657	1.376622	0.073643	9.707663	33.10468	-13.489017	0.77473	-0.120078	0.858559	-0.816531	8.507293	4.743866	1.967522	2.162962	-0.378759	-1.580207	-0.647177	0.086727	0.947401
-1.188156	1.691619	13.075654	-30.472257	107.403919	-7.567081	0.540904	-0.758288	-1.292288	2.04742	0.015016	9.307803	30.871713	-11.171218	1.653519	-0.114074	0.846551	-0.822535	8.385637	4.684357	1.565362	-0.943603	0.807178	4.706637	-0.635114	0.126182	0.910953
-1.331341	1.514109	11.627579	-32.021672	117.636577	-7.32398	0.496264	-0.745218	-1.278226	1.875177	0.187607	9.186239	30.15848	-10.672369	1.031558	-0.120078	0.858559	-0.810528	8.762841	4.678566	0.488495	-2.760761	2.914483	11.926977	-0.612867	0.107373	0.889782
-1.247663	1.517267	12.958462	-35.757902	127.704136	-6.485623	0.53603	-0.792807	-1.326399	1.935233	-0.271105	9.306138	26.248233	-7.554438	1.651784	-0.102066	0.840547	-0.828539	9.079951	4.556308	-0.761301	-3.628252	6.55603	19.789453	-0.626256	0.07692	0.921606
-0.974049	1.109013	12.269421	-32.370666	137.280527	-8.434263	0.569469	-0.792266	-1.288083	1.416842	0.074995	8.823747	22.646409	-7.152649	0.479605	-0.120078	0.834543	-0.828539	9.591087	4.670814	-0.807731	-3.575354	10.499067	22.54246	-0.629855	0.057908	0.989966
-1.59269	1.05312	12.892671	-32.694773	147.034432	-9.340071	0.552629	-0.852199	-1.231287	2.099487	0.416197	9.131179	20.172046	-5.997319	0.025562	-0.114074	0.846551	-0.816531	9.803775	4.3193	-1.604094	-3.432524	14.61771	17.646263	-0.628909	0.094925	0.912359
-1.413167	0.531407	13.241731	-30.531761	159.107349	-8.926359	0.60047	-0.808985	-1.266822	1.021674	0.648909	8.933126	14.89771	-4.913566	-0.362206	-0.126082	0.828539	-0.834543	9.633059	4.261745	-1.607735	-3.625091	17.242744	9.877365	-0.643152	0.091984	0.900755
-0.951942	0.705369	13.366924	-23.230218	170.428522	-8.574007	0.634553	-0.829083	-1.191081	1.530797	0.131845	8.884819	8.106179	-4.127458	-0.961146	-0.120078	0.828539	-0.822535	9.45356	4.086294	-2.06864	-6.117355	17.450025	4.139933	-0.659194	0.079536	0.923332
-1.805462	0.242701	13.69555	-27.518545	180.025151	-8.200286	0.650245	-0.827686	-1.190083	0.965837	0.41991	8.932445	4.030864	-4.196188	-1.68274	-0.120078	0.810528	-0.846551	8.672122	4.091567	-1.285117	-8.423796	17.535761	2.626903	-0.674763	0.085597	0.907105
-1.963743	0.070417	14.385479	-11.022597	189.751336	-10.515538	0.622969	-0.834985	-1.119439	1.027619	0.476525	9.228431	0.882869	-5.059261	-2.241758	-0.132086	0.834543	-0.834543	8.67054	4.32289	-1.341158	-10.82283	18.096971	4.099632	-0.662746	0.092788	0.931174
-2.767122	0.013153	14.369337	-8.155026	199.855418	-11.635663	0.653971	-0.851703	-1.098178	1.375642	-0.327201	9.590374	-1.484498	-6.130142	-2.440721	-0.120078	0.834543	-0.840547	8.56026	4.208113	-1.17266	-13.531086	19.474622	6.041103	-0.662746	0.092788	0.931174
-3.413282	-1.149045	13.544563	2.35325	199.704453	-14.366813	0.672744	-0.853686	-1.0427	1.655725	-0.213265	9.477603	-1.861134	-6.376096	-2.195568	-0.13809	0.804524	-0.834543	8.27262	3.976308	-1.350619	-14.394344	20.505571	6.043136	-0.648504	0.095729	0.942777
-3.418886	-1.265829	13.25521	20.834731	196.302338	-15.587448	0.720847	-0.850622	-1.021546	1.53052	0.590083	8.943007	-1.458425	-6.392311	-2.211247	-0.132086	0.822535	-0.834543	7.429073	3.169568	-0.914455	-15.317489	20.458445	2.246795	-0.674717	0.117862	0.846588
-4.355942	-0.686748	12.313283	25.662781	193.632562	-14.436712	0.722519	-0.872387	-0.965961	1.818828	0.130485	9.185253	-0.72415	-6.408702	-2.486228	-0.132086	0.822535	-0.840547	7.149977	3.750677	-0.574905	-15.652068	18.573785	-1.106216	-0.662746	0.092788	0.931174
-3.892572	-1.557414	12.493775	31.235049	192.062796	-9.469316	0.739883	-0.892755	-0.909378	1.764993	-0.041424	9.302472	0.204778	-5.886586	-2.517411	-0.120078	0.834543	-0.840547	7.105092	3.348145	-0.00695	-17.337889	16.354926	-1.644935	-0.641825	0.082982	0.905379
-5.234916	-2.02327	11.310073	22.588526	191.136918	-3.617959	0.705297	-0.951832	-0.8899	2.049658	0.358466	9.484195	1.75136	-5.554186	-2.397787	-0.13809	0.840547	-0.834543	6.759144	3.81121	-0.182881	-19.086092	14.854367	0.980193	-0.644051	0.087231	0.917845
-4.085509	-2.546628	11.38949	37.820954	190.658898	4.159727	0.742582	-0.915646	-0.835633	1.315927	0.016927	9.470677	3.076356	-5.34013	-2.21589	-0.13809	0.822535	-0.828539	7.152571	3.577514	-0.461509	-21.080256	13.567409	5.525833	-0.658294	0.084289	0.906242
1.555527	-2.150728	9.480106	39.817083	189.112126	12.238928	0.769999	-1.00816	-0.773634	1.320848	0.188297	9.765374	5.462716	-5.571718	-2.101156	-0.132086	0.828539	-0.840547	7.094035	4.388177	-0.458955	-22.49188	12.988025	10.36395	-0.678316	0.098849	0.914947
6.079947	-4.195058	6.097767	31.388554	159.025491	12.273512	0.758153	-0.973912	-0.758681	1.369293	-0.383884	9.236474	6.821506	-5.854909	-1.95238	-0.13809	0.828539	-0.840547	8.116204	4.095859	-0.611274	-23.503164	12.055293	14.570075	-0.674763	0.085597	0.907105
11.107598	-3.61514	7.990862	39.233405	104.870103	-0.527079	0.742724	-1.015459	-0.70299	1.48246	0.303081	9.355429	6.969812	-6.086067	-1.818075	-0.13809	0.816531	-0.840547	9.425785	4.151139	-0.585107	-23.006617	10.473183	18.371136	-0.678742	0.112604	0.893234
4.289564	-5.47181	5.423298	34.326207	45.659271	-26.371271	0.735293	-1.126899	-0.678202	1.593496	0.245651	9.239704	6.351377	-6.062812	-1.763199	-0.13809	0.828539	-0.828539	9.489373	4.210499	-0.241165	-21.218193	8.332945	19.56194	-0.706755	0.125231	0.831224
6.386153	-4.018833	7.086753	66.628075	-13.694942	-36.603966	0.782107	-1.082559	-0.731898	1.425365	0.131476	9.295647	4.752727	-5.848419	-1.598624	-0.120078	0.822535	-0.846551	10.24282	3.806637	0.39965	-19.704546	5.20365	19.030992	-0.676043	0.126864	0.841964
3.867289	-4.53807	7.324278	73.379525	-25.299264	-29.571571	0.769496	-1.087335	-0.678416	1.652465	-0.212961	9.300603	3.987709	-6.02139	-1.829146	-0.13809	0.804524	-0.834543	10.813254	4.442885	0.527988	-17.206593	1.602059	16.039075	-0.664073	0.10179	0.92655
3.209031	-5.005153	5.923033	59.613262	-23.65797	-12.004199	0.712291	-1.180074	-0.730367	1.534697	0.64697	9.178907	2.503802	-5.79844	-1.915427	-0.144094	0.822535	-0.816531	10.639046	4.442438	0.353333	-14.374586	-0.515418	10.353734	-0.709881	0.124727	0.86078
4.053962	-5.12403	5.130491	43.835782	-34.817495	11.290152	0.71499	-1.202965	-0.656622	1.310046	0.532965	9.233763	0.955959	-5.804689	-1.735945	-0.150098	0.822535	-0.846551	10.30775	4.329694	0.859879	-12.529544	-1.214402	5.302918	-0.660047	0.107047	0.879905
3.94613	-4.020129	5.535563	33.914887	-57.401412	32.266593	0.69519	-1.199856	-0.73026	1.758473	-0.040815	8.948471	0.953507	-5.93515	-1.620606	-0.144094	0.828539	-0.840547	9.950994	4.558544	0.111975	-10.563251	-0.934368	2.523808	-0.72635	0.126034	0.861643
4.595886	-3.03164	6.533363	32.230608	-79.123499	48.438423	0.688524	-1.272273	-0.744002	1.761563	0.016173	9.12537	-0.209132	-5.350225	-1.169973	-0.13809	0.816531	-0.846551	9.889215	4.152069	-0.176452	-8.689984	-0.263804	0.193884	-0.656922	0.107551	0.850349
5.013858	-2.10125	7.410821	34.919978	-95.436933	58.982976	0.62203	-1.253842	-0.839899	1.091106	-0.039785	9.525433	0.166559	-5.0132	-0.791161	-0.162106	0.816531	-0.840547	9.190004	4.786877	-0.929274	-7.186355	0.70872	-2.145051	-0.691186	0.119169	0.847451
5.06188	-1.870253	6.950005	38.161728	-113.626775	61.398539	0.603519	-1.29201	-0.838688	1.810604	0.704019	8.830237	1.206534	-4.678219	-0.900192	-0.13809	0.822535	-0.834543	9.129454	4.901995	-1.101151	-7.681394	1.968399	-2.788631	-0.67609	0.0946	0.902481
5.454928	-1.175109	6.554979	35.449046	-135.598061	59.184673	0.564443	-1.366093	-0.872586	1.819915	0.130384	9.244254	1.655783	-4.182303	-1.224662	-0.144094	0.792516	-0.840547	9.015579	4.322996	-1.163124	-9.006112	3.062324	-3.279902	-0.72417	0.089521	0.909694
5.175599	-0.767553	6.954946	24.882977	-155.691638	51.916178	0.509412	-1.401423	-0.964171	1.597097	0.130761	9.416907	1.298782	-4.278725	-1.465104	-0.150098	0.816531	-0.840547	8.849038	3.860955	-0.997329	-10.792144	4.186194	-4.110788	-0.711254	0.101465	0.916673
4.65955	-1.231394	6.943541	10.510774	-171.670652	41.514783	0.467899	-1.492766	-1.015124	1.19494	0.132563	9.0553	0.714257	-4.227489	-1.378761	-0.150098	0.816531	-0.840547	9.084023	3.630491	-0.651323	-11.777537	4.79523	-4.680749	-0.688533	0.101165	0.856698
4.78035	-0.360027	7.294812	-6.830508	-184.029074	28.704783	0.338517	-1.539583	-1.039059	1.592409	0.245752	9.180704	0.835871	-4.229092	-1.445093	-0.156102	0.804524	-0.834543	9.382926	3.864925	0.097558	-11.49862	3.822366	-4.962543	-0.706329	0.111475	0.852938
4.222972	-0.879898	8.091531	-20.555538	-189.862111	13.327127	0.278613	-1.609432	-1.164755	1.364051	0.647582	9.116646	0.492201	-4.2446	-1.4645	-0.156102	0.822535	-0.828539	9.440313	4.212453	0.157354	-10.817332	1.745565	-4.849546	-0.703203	0.111979	0.823382
4.179775	-0.181514	8.843657	-30.777022	-190.647477	-2.07826	0.151405	-1.598839	-1.228324	1.764482	0.130453	9.302167	1.138576	-3.973872	-1.223396	-0.156102	0.816531	-0.840547	9.286946	3.927255	1.009043	-10.133127	-1.612264	-5.135023	-0.693885	0.10491	0.89872
3.38593	-0.643958	9.289056	-41.553798	-190.342797	-15.010677	0.05097	-1.660123	-1.267318	1.601273	0.187648	9.652807	2.294197	-3.832799	-1.28726	-0.132086	0.810528	-0.840547	9.284477	3.463295	0.835664	-9.818085	-4.908419	-5.76036	-0.671165	0.10461	0.838746
2.724259	-0.175595	10.664012	-51.430537	-190.005584	-25.242988	-0.0626	-1.645882	-1.366209	1.089508	0.132194	9.466128	3.702356	-4.032936	-1.567614	-0.132086	0.810528	-0.840547	9.0532	4.100085	0.719866	-8.95219	-7.070934	-5.919655	-0.644005	0.119495	0.857328
2.042904	-0.638431	10.996067	-57.175595	-187.322765	-32.635114	-0.21293	-1.748127	-1.405989	1.139742	0.418993	9.171706	4.685555	-4.127923	-1.733064	-0.126082	0.810528	-0.828539	9.053871	4.331933	0.77801	-8.149544	-8.389557	-5.181292	-0.658248	0.116554	0.845725
0.755345	0.179499	12.648363	-62.795685	-177.767018	-36.294971	-0.371521	-1.740328	-1.471554	1.366331	0.246434	9.176357	5.373401	-4.589521	-1.787675	-0.13809	0.828539	-0.840547	9.049048	3.346117	0.430988	-7.288897	-8.127547	-3.531125	-0.672537	0.081348	0.894639
-0.028769	0.298739	13.615492	-64.430719	-166.238359	-38.86852	-0.547335	-1.811973	-1.461058	1.655108	0.359557	9.535588	5.478652	-5.226495	-2.172307	-0.156102	0.816531	-0.840547	8.699834	3.750498	0.083517	-6.492059	-6.938571	-2.453341	-0.67519	0.099353	0.885391
-0.706053	0.358847	14.180064	-64.216961	-157.322988	-40.73784	-0.750304	-1.831254	-1.455872	1.825923	0.301652	9.59795	6.006347	-6.166004	-2.468082	-0.150098	0.804524	-0.816531	8.415903	3.925018	0.135767	-5.941424	-5.793093	-2.782797	-0.62621	0.109185	0.861089
-1.165214	0.417335	14.17106	-67.862577	-156.553576	-40.37512	-0.859503	-1.861669	-1.425433	1.598418	0.41702	9.5344	5.802056	-6.242822	-2.032918	-0.162106	0.816531	-0.828539	8.413081	4.213975	0.022897	-5.45184	-4.859319	-3.352355	-0.660947	0.102294	0.896995
-2.018147	0.535233	14.558898	-73.496762	-160.970353	-37.24492	-0.980286	-1.897984	-1.323353	1.989132	0.244458	9.24731	5.070693	-6.588584	-1.966702	-0.162106	0.816531	-0.828539	8.296055	3.518394	-0.210879	-5.515041	-4.232995	-4.315367	-0.687207	0.092162	0.861322
-2.394718	0.538697	15.822822	-72.667494	-161.074471	-33.388434	-1.094404	-1.861884	-1.20753	1.419015	0.074792	8.941748	4.992925	-6.406083	-1.828551	-0.162106	0.810528	-0.834543	8.643005	3.692715	0.082128	-6.071198	-3.154773	-5.169171	-0.735287	0.087083	0.868535
-4.409687	1.236458	15.495421	-66.904962	-152.263769	-29.221854	-1.232671	-1.937494	-1.086078	1.426281	0.188666	9.354546	3.148403	-6.408322	-2.070691	-0.162106	0.822535	-0.828539	9.080645	3.629703	-0.822599	-6.903849	-2.198042	-6.327504	-0.678742	0.112604	0.893234
-3.972244	1.175315	14.405944	-60.299986	-136.33388	-22.70495	-1.337117	-1.993051	-0.945574	1.704596	0.531873	9.182369	3.789887	-5.895741	-2.277464	-0.144094	0.810528	-0.846551	8.966314	3.282289	-0.883521	-8.104284	-1.816001	-8.300312	-0.693885	0.10491	0.89872
-4.32424	0.826415	13.993545	-58.147781	-119.551762	-13.449624	-1.368404	-1.994623	-0.695432	2.15492	0.416128	9.073265	4.587953	-5.4254	-2.399925	-0.156102	0.804524	-0.840547	9.137588	3.629589	-0.821473	-9.488439	-1.716625	-9.961706	-0.670738	0.090854	0.860459
-4.503374	0.941828	13.643507	-59.201432	-101.607896	-4.070025	-1.427828	-2.043739	-0.588255	1.989644	0.07258	9.247615	5.468436	-4.686027	-2.384506	-0.156102	0.822535	-0.834543	9.421076	3.107427	-0.932392	-10.562364	-2.834078	-11.960261	-0.690805	0.07315	0.929682
-4.792824	1.173998	13.522721	-61.20675	-84.533164	5.480183	-1.469124	-2.074198	-0.463024	2.106859	0.129126	9.485687	6.764352	-4.261483	-3.207908	-0.156102	0.804524	-0.834543	8.629387	3.16823	-0.662435	-12.527293	-4.12575	-13.286676	-0.692985	0.109663	0.881631
-4.732649	0.651838	13.638236	-62.261173	-71.530073	13.740656	-1.441489	-2.105829	-0.22484	1.69733	0.417999	8.769571	8.285252	-4.293376	-3.234333	-0.156102	0.79852	-0.840547	8.743285	2.588776	-0.719904	-13.876696	-5.578069	-13.596703	-0.674763	0.085597	0.907105
-6.204021	4.080737	14.830873	39.332511	-73.247427	-23.337376	-1.415788	-2.075545	-0.098931	1.947123	-0.615875	9.896748	6.621444	-3.176814	-1.278862	-0.150098	0.780508	-0.840547	8.065597	2.591455	-0.447958	-15.197833	-5.98649	-14.022547	-0.705948	0.065455	0.935168
-5.592922	3.896439	10.912766	-25.834554	-75.660049	12.949325	-1.380799	-2.156432	0.070924	1.817635	0.531532	9.184543	7.09737	-4.342568	-4.863189	-0.150098	0.810528	-0.834543	8.405562	2.879992	-0.496978	-15.968086	-5.370687	-14.866811	-0.656922	0.107551	0.850349
-5.803999	0.125704	11.650703	-63.387884	-88.217557	22.98382	-1.311223	-2.178241	0.221301	1.541834	0.073538	9.474923	5.898895	-4.609033	-1.838932	-0.156102	0.804524	-0.834543	8.419873	2.477871	0.186288	-16.833314	-3.564232	-15.494506	-0.660047	0.107047	0.879905
-5.281067	-0.628653	11.948247	-69.303953	-102.446223	32.900679	-1.262596	-2.255479	0.355834	1.76037	0.41722	9.124659	5.950386	-5.121518	-2.182721	-0.168109	0.792516	-0.840547	8.470161	2.997511	-0.095681	-17.760199	-1.588239	-15.208861	-0.688106	0.087409	0.878412
-5.668258	-0.278191	12.692676	-76.137769	-110.799314	40.391504	-1.173745	-2.200097	0.466471	1.876946	-0.041664	9.245645	4.859758	-6.10756	-0.908336	-0.156102	0.810528	-0.846551	8.872484	2.823814	0.08269	-18.287935	0.634236	-14.682092	-0.721944	0.085272	0.897228
-6.416647	-0.219704	12.562328	-73.280843	-112.308858	41.698047	-1.085734	-2.344434	0.572096	1.428966	0.016586	9.472851	2.927557	-6.124685	-0.221116	-0.156102	0.780508	-0.852555	8.762761	2.998782	0.309595	-17.921507	1.762889	-14.03339	-0.659194	0.079536	0.923332
-6.877507	0.419071	12.496906	-68.208697	-110.893069	38.518039	-0.989527	-2.338308	0.614404	1.652594	0.474345	9.417385	2.575577	-6.440505	0.729443	-0.156102	0.79852	-0.840547	8.540619	3.000551	0.590551	-17.676611	2.411686	-12.120167	-0.651616	0.071542	0.868844
-6.977689	0.93634	10.357874	-68.962806	-108.684	33.644866	-0.942069	-2.314606	0.598133	1.523383	1.163515	8.646991	-0.340541	-6.529106	1.787771	-0.156102	0.786512	-0.840547	8.823982	3.115513	0.539616	-16.968718	2.324209	-9.759188	-0.640926	0.087735	0.888289
-7.903481	1.690947	9.994515	-75.778341	-103.791304	28.93452	-0.846245	-2.327991	0.659706	1.199521	0.418518	9.349793	-2.527429	-6.637487	3.220054	-0.168109	0.780508	-0.852555	8.823868	3.173409	0.539879	-17.05928	1.725307	-8.705858	-0.677416	0.103602	0.897857
-8.537816	2.503877	9.868269	-82.247605	-96.751735	24.151422	-0.756584	-2.334619	0.612319	2.101831	0.358702	9.249281	-4.241528	-7.056418	3.688134	-0.168109	0.804524	-0.834543	8.7084	3.404959	0.481585	-17.609561	0.401413	-8.739286	-0.672537	0.081348	0.894639
-8.753931	2.79599	10.558173	-83.235228	-86.909089	19.872745	-0.651351	-2.399512	0.641883	1.989878	0.358941	9.306108	-6.828996	-7.35274	5.462825	-0.162106	0.79852	-0.840547	8.762636	3.635905	0.369579	-18.990399	-0.77176	-9.300638	-0.654696	0.103302	0.837883
-9.61269	3.029275	10.657217	-75.456212	-77.672839	15.88026	-0.593336	-2.368783	0.53581	1.818189	-0.384943	9.068167	-6.561777	-8.419509	6.589878	-0.174113	0.780508	-0.828539	8.58473	2.649905	-0.095006	-20.74055	-1.659287	-8.769502	-0.667185	0.077603	0.852617
-10.297055	3.320715	10.875459	-58.093955	-69.071755	12.703477	-0.53967	-2.452873	0.509005	2.176631	-0.674154	10.078197	-6.163485	-9.927554	5.397105	-0.168109	0.804524	-0.810528	9.144129	3.167732	-0.538115	-21.384667	-2.362253	-9.429556	-0.658721	0.098045	0.884528
-12.440102	2.391575	9.790267	-39.400444	-57.99238	12.683545	-0.4625	-2.404613	0.439146	1.939069	-0.099634	9.541834	-7.505316	-11.748224	6.194372	-0.186121	0.786512	-0.840547	9.141433	2.819565	-0.710969	-18.924235	-2.977281	-11.359583	-0.65247	0.099053	0.825417
-14.125632	1.926192	8.657522	-23.670046	-41.913755	17.768117	-0.4684	-2.438006	0.386875	2.106689	0.186418	9.485586	-11.819528	-14.055285	5.646991	-0.174113	0.792516	-0.828539	8.792458	2.528926	-1.118686	-19.13719	-3.742303	-9.538399	-0.687207	0.092162	0.861322
-15.926495	2.041348	7.523889	-17.082697	-26.537536	26.861611	-0.425433	-2.429311	0.317228	2.110353	0.415182	9.721181	-15.508645	-13.958531	5.014742	-0.174113	0.816531	-0.828539	8.740805	2.704043	-0.833562	-17.290777	-4.004822	-4.750994	-0.636047	0.065481	0.885071
-16.841166	1.926572	7.678766	-20.762943	-16.439051	36.624576	-0.3619	-2.384701	0.282691	1.823814	0.645508	9.538341	-11.23402	-19.206334	3.224859	-0.162106	0.810528	-0.816531	8.059169	2.995416	-0.731579	-15.105481	-4.568332	-0.046634	-0.656968	0.075287	0.910866
-15.672804	5.954606	17.651979	98.447286	40.576196	28.461796	-0.444206	-2.427329	0.26175	1.995823	0.186556	9.601413	-10.742385	-21.433522	3.774909	-0.174113	0.816531	-0.816531	7.617491	2.246564	-0.115992	-14.181066	-5.017518	4.158856	-0.68768	0.073653	0.900126
-14.181625	9.770171	12.027358	30.495731	76.947566	43.887708	-0.402648	-2.43702	0.193209	2.409016	0.126446	10.553124	-12.55057	-24.507472	3.952513	-0.162106	0.804524	-0.828539	7.437537	2.302699	-0.575845	-14.365845	-4.35846	9.158379	-0.656068	0.08004	0.893776
-15.917124	11.105285	11.36032	63.70214	108.586512	32.355744	-0.388365	-2.454009	0.195311	1.986668	0.69779	12.25442	-2.522531	-32.680794	-0.026581	-0.186121	0.816531	-0.816531	7.958593	1.956137	-0.167641	-15.661791	-1.89645	13.559522	-0.618678	0.068926	0.867118
1.229655	-0.652994	4.680542	98.935504	123.584587	54.629958	-0.415903	-2.421157	0.209266	1.854922	0.413496	11.190752	-6.154691	-42.740819	-0.941548	-0.186121	0.79852	-0.804524	8.192327	2.362534	0.181257	-14.317616	1.978448	15.801213	-0.658248	0.116554	0.845725
4.381381	0.112166	10.350969	19.431821	129.886833	87.193561	-0.450106	-2.460721	0.209479	1.446075	0.4732	10.475041	-5.630432	-51.042003	-1.400333	-0.186121	0.816531	-0.810528	8.201554	2.828071	0.697189	-12.419553	5.53833	17.01335	-0.67519	0.099353	0.885391
6.224371	-6.027914	16.209737	60.233603	129.275527	35.305016	-0.417313	-2.439542	0.210371	2.151944	1.041338	12.080071	-16.675139	-59.011772	-0.057508	-0.204133	0.804524	-0.79852	9.047114	4.330356	0.435457	-8.732038	6.694559	20.645696	-0.68678	0.078407	0.883036
-1.086331	0.652105	15.271242	132.167843	143.153077	12.894513	-0.480081	-2.445129	0.206379	1.981129	1.099243	12.017709	-26.309351	-72.974002	3.476479	-0.210137	0.816531	-0.780508	9.67572	5.488084	0.681471	-3.401394	2.160441	25.060995	-0.693412	0.123419	0.859917
-2.671439	2.04244	13.509293	217.240372	127.173517	-23.304512	-0.46169	-2.466623	0.281121	2.201014	0.979477	14.73518	-36.26969	-90.073881	5.461292	-0.222145	0.810528	-0.762496	10.447165	6.246882	2.355202	2.498666	-8.760872	32.930134	-0.656922	0.107551	0.850349
-8.964476	6.578824	14.608575	177.629956	53.729021	-51.351261	-0.429923	-2.444318	0.263853	2.496289	0.00374	15.27334	-38.069261	-111.873932	3.386871	-0.234152	0.804524	-0.762496	12.644228	6.539927	4.112079	12.221756	-24.128606	40.00524	-0.637373	0.074483	0.880447
-2.286728	2.374125	6.871719	68.346593	24.696115	-34.823784	-0.408069	-2.449679	0.373811	2.053295	0.577013	15.853634	-45.05499	-133.00994	-1.763165	-0.258168	0.834543	-0.732477	12.891045	6.02261	5.027693	20.863657	-38.072167	38.907086	-0.706755	0.125231	0.831224
0.67157	0.517554	8.428724	89.430752	26.897091	-29.459322	-0.376685	-2.446886	0.375807	2.067122	-0.05432	16.503752	-45.132346	-157.209069	-3.374322	-0.270176	0.828539	-0.702457	11.906479	4.688458	4.031934	21.391988	-41.423441	29.721643	-0.672964	0.095104	0.872925
-0.571008	1.159763	9.445781	83.307403	34.69355	-26.885341	-0.37604	-2.467524	0.413232	3.53175	-0.97472	16.120628	-46.220679	-182.36794	-7.17371	-0.282184	0.828539	-0.696453	10.60093	3.462256	1.20412	17.993119	-35.217503	21.730561	-0.677416	0.103602	0.897857
-1.734385	0.752621	8.612537	47.819964	28.085007	-21.669019	-0.390705	-2.470047	0.430394	2.398718	-1.543829	15.86391	-50.670472	-206.417907	-13.345201	-0.318207	0.828539	-0.66043	10.554071	3.798857	-1.135081	10.747409	-27.179031	17.131939	-0.644905	0.114742	0.874418
-1.031621	0.347332	9.319051	34.757561	22.14666	-19.066276	-0.386859	-2.434402	0.446345	1.8975	-0.397462	16.442101	-38.388725	-230.090555	-18.308573	-0.342223	0.822535	-0.618402	10.112227	3.442023	-3.371136	2.67061	-18.203022	16.78866	-0.67609	0.0946	0.902481
-0.273421	-0.406549	9.910241	25.685537	21.250227	-16.87073	-0.356884	-2.449995	0.449446	1.35844	-1.137684	14.663636	-30.503292	-253.441631	-21.731579	-0.378246	0.816531	-0.582379	10.146293	4.189568	-4.451344	-6.599714	-11.02136	20.700969	-0.678742	0.112604	0.893234
-0.383458	-0.580007	10.138795	31.735766	21.075835	-15.860499	-0.355475	-2.431609	0.448341	1.897791	-0.850592	13.316991	-33.188772	-271.154456	-22.770261	-0.402262	0.804524	-0.55236	9.921557	4.364501	-4.283783	-10.388844	-7.605274	22.742152	-0.711254	0.101465	0.916673
-1.301416	0.349706	10.180558	36.082042	18.569479	-14.386059	-0.348885	-2.519888	0.418542	2.695265	0.34925	13.861074	-36.229564	-280.614668	-21.411946	-0.444289	0.816531	-0.510332	10.224737	4.715779	-3.306008	-11.527766	-7.948122	13.905574	-0.678696	0.144869	0.832716
-0.684697	1.218057	9.50145	30.507399	16.022333	-8.521635	-0.360086	-2.506278	0.470919	3.139239	0.176821	13.39807	-31.757644	-287.461264	-16.140949	-0.450293	0.780508	-0.462301	9.057869	4.898692	-1.844475	-12.14177	-10.096019	-2.961031	-0.740166	0.109337	0.871753
-0.747912	1.3335	9.211512	23.781487	12.685536	-5.80969	-0.371549	-2.452517	0.466608	3.220454	2.465404	15.106101	-16.029431	-285.401422	-13.613491	-0.480313	0.79852	-0.432281	7.893482	4.966337	-0.269283	-11.949092	-14.715235	-13.680313	-0.628009	0.099678	0.895269
-0.696573	1.681001	8.92442	17.173003	11.742594	-2.727153	-0.384542	-2.476805	0.539354	4.892687	1.546048	13.724321	-4.99963	-282.090484	-7.49705	-0.474309	0.780508	-0.38425	6.609804	4.917103	1.01767	-10.952702	-20.038288	-13.459758	-0.70009	0.136166	0.897315
-0.796378	1.566844	9.673446	13.745025	10.295375	-0.504863	-0.354185	-2.472885	0.52319	4.662006	0.172524	13.250409	7.176552	-281.229057	-3.588541	-0.516336	0.7685	-0.348227	6.919969	5.154166	2.337473	-7.804958	-24.491459	-8.109321	-0.646704	0.105236	0.908598
-0.746991	1.56581	9.269886	8.513074	10.628064	-1.161379	-0.375133	-2.528313	0.507346	4.821678	0.573871	12.780957	16.251914	-283.00966	1.004786	-0.498324	0.762496	-0.312203	6.07045	4.519801	2.488964	-2.572535	-26.187137	-0.976619	-0.696492	0.155179	0.828956
-0.684641	1.160014	9.50131	-0.837578	11.465425	-1.424227	-0.326265	-2.486225	0.489971	6.489189	1.597249	14.521647	24.516089	-282.175285	12.006276	-0.52234	0.732477	-0.282184	6.707747	4.694867	3.073063	4.191861	-25.565609	6.171555	-0.698337	0.113408	0.923652
-0.850004	1.219063	9.844909	-6.622194	11.421084	-2.724816	-0.337084	-2.453103	0.523084	4.962004	0.175156	11.132923	20.194445	-276.834294	20.230611	-0.516336	0.726473	-0.234152	7.664748	4.574512	2.520762	9.600837	-23.794487	13.193833	-0.6645	0.115546	0.904837
-0.567412	0.986055	9.618806	-7.731778	11.278578	-3.682176	-0.293472	-2.465047	0.490862	5.057252	-0.052629	10.132499	-0.961162	-262.828724	25.728749	-0.52234	0.726473	-0.198129	8.920663	4.109364	2.657621	14.665056	-19.824459	14.230004	-0.644051	0.087231	0.917845
-0.899643	0.291274	10.188419	-5.046023	10.097205	-3.580628	-0.344394	-2.504881	0.471917	-8.616447	-3.891234	0.262666	-27.507673	-214.921635	24.389585	-0.528344	0.696453	-0.162106	9.253745	5.033446	2.326031	18.98466	-13.788497	7.568373	-0.646704	0.105236	0.908598
-0.680489	0.405879	9.672938	-0.122254	9.39557	-2.351336	-0.340548	-2.469236	0.487868	-8.640717	-7.783769	-1.677436	-18.302075	-113.145538	-18.151476	-0.52234	0.714465	-0.126082	9.421207	4.45309	2.098412	21.700173	-5.802851	-1.747003	-0.679642	0.107851	0.910324
-0.611726	0.465263	10.252368	2.634867	8.238231	-1.883786	-0.340548	-2.469236	0.487868	-10.189859	-0.403667	7.421895	14.948845	-19.741356	-49.970184	-0.516336	0.702457	-0.114074	9.626558	4.968708	1.020532	22.969347	3.329751	-4.91875	-0.683621	0.134859	0.896452
-0.795599	0.754246	9.67149	3.040238	8.149058	-2.936089	-0.336057	-2.454229	0.541244	-2.495641	-2.60406	7.632537	-1.392324	25.237217	-54.064851	-0.49232	0.678442	-0.10807	9.652296	5.366771	-0.51799	22.768816	10.292949	-3.552042	-0.676943	0.122111	0.859054
-0.797774	0.637881	9.555581	1.68437	7.779402	-4.844246	-0.35624	-2.470633	0.48687	-5.743346	0.324084	9.68834	49.003538	68.817832	-70.912256	-0.49232	0.684445	-0.10807	10.038635	4.72596	-1.198103	19.993718	13.757637	-1.903952	-0.647131	0.118991	0.886884
-0.614123	0.581069	10.137018	-0.621238	7.945717	-5.791045	-0.385187	-2.456167	0.50193	-6.397874	-1.790206	7.556137	40.190042	80.492859	-72.316437	-0.468305	0.666434	-0.102066	10.266841	5.652373	-1.075208	15.447065	12.421722	1.742201	-0.647558	0.132747	0.86517
-0.852654	0.406046	9.669509	-0.593569	7.480591	-7.919337	-0.326648	-2.505737	0.509235	-5.806393	-0.758279	6.091259	38.434131	89.280666	-68.348618	-0.450293	0.66043	-0.096063	10.390192	5.422663	-0.61727	11.090456	8.759192	5.412694	-0.67827	0.131113	0.85443
-0.620173	0.928627	9.848783	-2.307189	8.175172	-8.094544	-0.37014	-2.434132	0.465503	-5.866684	-0.585927	5.912867	35.244813	105.708237	-57.808643	-0.450293	0.642418	-0.102066	10.510506	5.018475	-0.331397	8.513275	6.021924	1.883932	-0.64893	0.109485	0.921064
-0.393882	0.753857	9.679491	-4.489424	8.634233	-8.146051	-0.357649	-2.489019	0.487975	-6.140524	-0.242234	6.437826	34.154303	127.116052	-46.686389	-0.432281	0.648422	-0.10807	10.79173	5.075014	-0.496779	6.209392	4.38178	-5.155587	-0.627582	0.085923	0.916982
-1.134046	0.581151	9.953287	-4.701649	7.853344	-6.889627	-0.292062	-2.446661	0.489758	-6.075823	-0.071339	6.91061	35.445105	152.447509	-35.802063	-0.408266	0.642418	-0.096063	9.879295	4.613137	-0.631086	4.489294	2.930908	-12.07421	-0.664027	0.134055	0.866033
-1.191379	0.523164	9.952004	-5.118015	7.698221	-5.969346	-0.306727	-2.449184	0.50692	-5.061966	-0.360463	6.694676	40.395284	176.273798	-27.003195	-0.396258	0.642418	-0.090059	9.540787	4.730401	-0.466042	2.800607	1.607215	-15.141839	-0.683621	0.134859	0.896452
-0.509913	0.869914	9.61967	-5.41276	8.042881	-5.82595	-0.308137	-2.46757	0.508024	-3.804921	-0.193655	7.48528	45.340992	194.684282	-21.025143	-0.38425	0.624406	-0.096063	9.427026	4.093506	-0.528278	2.494673	0.879138	-15.891269	-0.679169	0.12636	0.87152
-1.187029	0.755893	10.183822	-6.918668	8.454612	-5.987153	-0.341192	-2.448598	0.450444	-2.883968	-0.31249	8.387872	51.881116	206.134122	-19.322833	-0.342223	0.612399	-0.120078	9.49365	4.327343	-0.012271	4.154968	0.789677	-16.736703	-0.658248	0.116554	0.845725
-0.785701	1.161803	10.192801	-7.053534	8.182387	-6.086803	-0.310191	-2.465317	0.471704	-1.522365	-0.947101	8.592069	55.90264	213.807184	-19.440406	-0.324211	0.624406	-0.096063	9.276912	4.44622	0.554672	5.905712	1.332944	-18.850402	-0.601277	0.128319	0.892138
-0.79125	0.986976	9.903308	-8.719563	8.77202	-5.411812	-0.294881	-2.483432	0.491967	-1.191941	-0.947312	8.126587	56.423589	216.868297	-20.684825	-0.324211	0.63041	-0.102066	8.997042	4.274151	0.77662	9.191404	2.717436	-22.688284	-0.697864	0.131917	0.884849
-0.912105	0.173651	9.552177	-8.626152	8.36135	-4.819726	-0.310835	-2.444679	0.434279	-0.902206	-1.521596	8.428036	50.338792	215.306654	-22.14028	-0.300195	0.612399	-0.10807	9.520794	4.275756	1.357678	12.877507	4.152575	-23.405271	-0.629762	0.122436	0.868931
-0.512032	0.695506	9.503621	-8.525379	7.977609	-3.951679	-0.332166	-2.519618	0.4377	-0.286436	-1.351086	8.144684	38.410025	211.638434	-21.447444	-0.288188	0.618402	-0.090059	9.463623	4.391662	1.357078	17.146088	6.76199	-20.169968	-0.663173	0.106543	0.909461
-0.848081	0.406605	9.900768	-10.720333	10.210261	-3.043833	-0.296935	-2.48118	0.455647	-0.445256	-2.038896	8.614644	22.570037	209.023666	-18.16476	-0.282184	0.606395	-0.078051	9.296286	4.334896	1.524713	19.937825	9.649413	-18.325515	-0.634215	0.130935	0.893863
-0.903295	0.523025	10.015534	-11.124948	9.501258	-2.177125	-0.322037	-2.431068	0.486657	-0.381812	-1.810607	9.028325	8.105146	208.910289	-12.731721	-0.270176	0.606395	-0.066043	9.13177	3.989173	1.805218	22.207867	11.753576	-19.89148	-0.6636	0.120299	0.887747
-0.84574	0.348841	10.016258	-9.541001	10.440419	-1.870616	-0.262732	-2.441615	0.455434	-0.186579	-2.042623	10.388995	-1.876666	210.464941	-4.820633	-0.294191	0.600391	-0.072047	8.959245	4.278733	1.746061	24.020328	12.292582	-21.668313	-0.664454	0.14781	0.84432
-1.180925	0.350293	10.471918	-10.061411	12.858233	0.288522	-0.28509	-2.515428	0.440694	0.173291	-2.44652	11.458229	-8.038512	210.869524	5.287653	-0.300195	0.600391	-0.060039	8.664176	3.813502	1.167405	25.371846	12.838882	-22.254883	-0.679642	0.107851	0.910324
-1.145896	-0.174941	9.315508	-8.522149	12.757855	0.125571	-0.281888	-2.459145	0.41922	0.340165	-2.274951	11.343184	-12.163309	206.956074	17.7631	-0.324211	0.612399	-0.060039	8.257689	3.812458	0.759876	25.954588	13.67524	-20.313545	-0.666253	0.138304	0.878499
-0.617163	0.174351	9.962596	-7.683578	12.57625	0.526008	-0.279451	-2.441886	0.436276	1.090984	-2.56505	12.18382	-19.896179	199.476402	31.159013	-0.318207	0.588383	-0.060039	8.546126	3.638989	0.935995	25.214787	14.703049	-17.924965	-0.617319	0.115871	0.914714
-0.96966	0.347835	9.551453	-6.657955	11.967385	0.262705	-0.310835	-2.444679	0.434279	2.78983	-2.570467	12.39342	-31.413588	189.318166	42.974451	-0.354231	0.564367	-0.066043	8.772317	3.869857	0.88446	23.890077	15.921587	-16.49217	-0.645378	0.096233	0.913221
-1.251053	0.52294	9.835232	-7.324141	13.245514	0.422714	-0.294116	-2.444408	0.453438	3.483959	-2.803103	13.232868	-44.833972	177.893278	53.232124	-0.354231	0.576375	-0.102066	8.300332	3.635238	0.018016	22.565053	17.103286	-16.710224	-0.644905	0.114742	0.874418
-1.184354	0.349874	10.298474	-7.989743	14.993811	-0.039726	-0.308399	-2.427419	0.451335	3.775867	-3.37759	13.652318	-59.731815	161.653807	63.388306	-0.372242	0.570371	-0.120078	8.476122	3.404363	0.248712	21.518915	17.504073	-15.685188	-0.65111	0.145998	0.873013
-0.908843	0.348198	9.726041	-6.658586	16.413462	-0.624248	-0.295143	-2.443282	0.435278	5.761763	-3.785212	14.045062	-71.050202	137.073519	72.570035	-0.372242	0.588383	-0.156102	8.183522	3.403092	-0.156565	21.059363	17.088937	-12.864053	-0.6645	0.115546	0.904837
-0.779096	0.233818	10.479639	-5.908977	17.984415	0.155875	-0.325763	-2.407051	0.394752	6.281881	-3.615985	14.703539	-74.535207	107.495055	80.034323	-0.38425	0.558363	-0.186121	8.407587	2.99631	-0.382268	20.845396	16.831882	-10.167641	-0.596352	0.13833	0.828402
-1.140181	-0.174243	9.604582	-3.53874	19.177081	0.668024	-0.327937	-2.464461	0.434386	7.126861	-4.133767	14.484752	-72.80422	82.816576	85.368478	-0.372242	0.576375	-0.234152	8.125578	2.765819	-0.274767	21.552427	16.902795	-10.226658	-0.664027	0.134055	0.866033
-1.205095	0.521487	9.258227	-2.010923	19.832215	1.605954	-0.315971	-2.439047	0.343479	7.34333	-4.190828	13.958198	-65.249558	67.255609	87.15366	-0.372242	0.570371	-0.252164	8.689379	2.763367	-0.548965	23.149691	17.302657	-13.133052	-0.627963	0.131943	0.834752
-1.541368	0.464756	9.655933	-1.274127	19.658562	1.611867	-0.328582	-2.443823	0.396961	7.459053	-4.363249	14.078676	-55.11815	61.29512	85.909537	-0.348227	0.588383	-0.27618	8.405675	2.822095	-0.497241	25.14628	17.970585	-15.187119	-0.61552	0.125378	0.880534
-1.201221	0.057564	9.430553	-1.230825	19.556159	2.278941	-0.309688	-2.386143	0.376486	8.523188	-2.948994	23.00255	30.57289	102.700582	60.86859	-0.324211	0.606395	-0.312203	8.429099	2.943408	0.70222	26.405979	18.305729	-16.07514	-0.632888	0.121933	0.898487
-1.371322	0.290182	9.543313	-2.923336	19.050303	2.023362	-0.310835	-2.444679	0.434279	-0.992838	-2.835598	6.364279	40.388127	98.783169	61.218429	-0.282184	0.600391	-0.342223	7.913686	2.712058	0.519756	27.421434	17.955893	-16.42861	-0.626637	0.12294	0.839375
-1.25292	1.277355	9.779233	-5.63429	19.713616	1.564977	-0.296433	-2.402005	0.360428	11.286129	-9.117051	6.375145	-10.172695	99.293938	49.837328	-0.240156	0.606395	-0.366238	8.487055	3.001454	0.760701	28.654041	16.917695	-15.633231	-0.647085	0.151256	0.826367
-0.90374	0.987367	10.016652	-7.996458	20.833077	0.842004	-0.297842	-2.420391	0.361533	10.492776	-6.599414	9.717388	-50.873228	108.512305	41.126738	-0.198129	0.600391	-0.366238	7.973553	2.944318	0.69321	31.303934	14.80792	-13.70426	-0.648884	0.141749	0.860547
-1.53766	0.174962	9.828678	-8.842609	23.116668	-0.144228	-0.300279	-2.437651	0.344477	8.430105	-5.965734	11.32807	-76.244326	105.498909	34.997663	-0.150098	0.606395	-0.348227	7.754232	2.657132	1.087036	33.955855	11.894909	-11.328456	-0.681822	0.144365	0.862272
-1.593152	0.581596	9.944143	-10.001128	25.518186	-0.109735	-0.346328	-2.442967	0.359643	8.468726	-5.792403	10.38485	-98.245713	112.021814	31.643519	-0.10807	0.606395	-0.336219	8.845608	3.004714	1.623841	35.839997	8.386577	-10.778165	-0.631089	0.131439	0.864307
-1.414129	0.582267	10.294461	-11.714755	27.526073	0.532974	-0.331281	-2.420932	0.323217	9.211662	-5.623553	10.870673	-107.827597	133.233829	32.795931	-0.060039	0.624406	-0.294191	8.947789	2.654217	0.996503	37.137741	5.817497	-10.008123	-0.698291	0.145673	0.863135
-1.420487	0.059045	9.946314	-10.466623	29.928358	0.326932	-0.301689	-2.456036	0.345582	10.678613	-4.768598	10.897403	-103.661892	161.85939	32.71894	-0.024016	0.594387	-0.258168	8.838293	2.713392	1.222882	38.400817	5.092285	-7.568219	-0.632842	0.154197	0.83797
-1.58819	0.175856	10.174424	-11.214256	32.062735	1.104669	-0.330253	-2.422058	0.341377	12.107766	-3.623729	8.91762	-96.625571	188.502233	27.8998	0.018012	0.612399	-0.210137	8.3726	3.291163	0.759763	39.321841	6.040043	-4.587849	-0.630189	0.136192	0.847218
-1.352113	0.524728	10.526723	-13.394236	34.053345	1.666079	-0.282413	-2.378844	0.305841	12.779644	-1.8445	5.80159	-117.754958	202.888535	21.61938	0.042027	0.600391	-0.180117	8.480639	2.826187	0.41736	38.671434	8.237341	-2.470742	-0.66578	0.156813	0.839696
-1.812362	0.525033	10.459764	-12.746163	36.308694	-0.18194	-0.328461	-2.38416	0.321007	16.529472	2.896376	7.693889	-71.082728	132.822509	-4.904767	0.060039	0.570371	-0.150098	8.36574	2.768256	0.357752	39.864996	10.913446	-0.110166	-0.650684	0.132243	0.894726
-1.356518	0.350041	10.295045	-14.505615	38.859741	-0.921561	-0.296695	-2.361855	0.303739	15.967956	3.131953	4.851695	-83.367883	117.610395	-8.462512	0.072047	0.564367	-0.102066	8.010565	2.765784	-0.334111	40.014481	12.938449	1.892858	-0.602176	0.123566	0.909227
-1.522856	0.234821	10.58041	-15.87488	41.859786	-1.468661	-0.265956	-2.338424	0.26831	20.298489	2.657513	6.764097	-45.950745	83.036929	-31.298307	0.090059	0.570371	-0.102066	8.687468	2.589152	-0.663938	38.752835	13.614988	4.806503	-0.667152	0.133551	0.895589
-2.035921	0.235741	10.743568	-17.473403	45.810264	-1.23786	-0.334744	-2.437065	0.288001	19.990153	2.546217	5.342863	-29.617684	36.595701	-37.654375	0.096063	0.558363	-0.078051	8.915582	2.415008	-0.660222	38.877637	13.30698	9.15726	-0.65509	0.173006	0.859141
-1.744018	-0.170277	10.979563	-17.646457	50.065532	-1.303463	-0.247827	-2.319768	0.286364	19.231308	2.60285	7.097553	-15.996755	-21.850769	-48.825517	0.078051	0.55236	-0.066043	9.128487	2.526929	-1.397389	34.85098	12.801551	10.951778	-0.664027	0.134055	0.866033
-2.099889	-0.055255	10.394837	-18.66716	55.695776	-1.170212	-0.270829	-2.372943	0.234199	18.466469	-0.427779	4.964801	6.842694	-52.161706	-51.415741	0.084055	0.55236	-0.066043	9.122412	2.177973	-1.741519	33.131403	11.662196	9.89853	-0.634641	0.144691	0.87215
-1.566164	1.049291	11.332815	-24.157895	62.017416	-0.077202	-0.334624	-2.377403	0.212047	17.270319	1.576232	7.82835	36.07828	-60.167256	-62.114421	0.072047	0.55236	-0.078051	9.355247	2.468314	-1.450239	29.567991	9.691771	5.49039	-0.634215	0.130935	0.893863
-1.573553	0.409843	10.926575	-28.744022	69.48875	-1.556014	-0.287548	-2.373213	0.215041	14.557519	6.275964	11.601791	63.492347	-53.779918	-66.597686	0.048031	0.540352	-0.078051	9.262191	2.763018	-0.366426	27.35644	8.064873	-0.294849	-0.687601	0.161866	0.882581
-1.566331	1.223419	11.333235	-37.243319	78.452248	-3.186094	-0.271091	-2.332792	0.17751	12.563791	10.40218	14.446371	142.553741	-73.514155	-46.835865	0.072047	0.534348	-0.084055	9.151353	2.358497	-0.256334	27.974401	6.84103	0.103875	-0.671559	0.174313	0.860004
-1.603145	1.22599	12.372758	-45.225331	88.90857	-4.614364	-0.265191	-2.2994	0.229781	2.740477	21.313336	16.598014	182.949863	-165.569017	26.490335	0.042027	0.498324	-0.10807	9.105775	2.88257	0.372919	27.207543	6.277893	2.314919	-0.60393	0.146324	0.88289
-1.524292	0.299767	13.412331	-51.028735	105.622645	-6.173609	-0.33245	-2.319993	0.172413	9.254894	16.371696	13.664787	179.794235	-214.853634	78.827626	0.048031	0.498324	-0.126082	8.716148	4.623149	1.000935	25.85428	6.332947	1.60292	-0.685375	0.157617	0.870115
-0.471731	1.346049	14.476085	-63.086731	125.811719	-6.341348	-0.284609	-2.276779	0.136878	40.593258	-3.276932	24.858088	247.779358	-151.478548	-1.564395	0.018012	0.468305	-0.132086	8.592182	7.459249	0.783194	19.889649	6.263832	3.34637	-0.670232	0.165311	0.864628
-0.577013	1.934887	17.885125	-66.045542	151.863645	-11.557411	-0.303	-2.255285	0.062135	5.602461	2.311199	0.230435	142.144075	-60.375956	-17.691969	0.006004	0.468305	-0.150098	9.539354	8.900519	-0.104562	7.925049	8.725133	11.268584	-0.684048	0.148614	0.874738
-0.288792	0.599627	17.887626	-71.252619	183.855041	-14.062078	-0.284106	-2.197605	0.041659	1.056909	3.056341	8.162947	32.842368	-25.975823	-24.310046	0.012008	0.468305	-0.144094	10.471805	8.658588	-1.913417	0.250337	18.442018	27.302515	-0.701371	0.177433	0.832174
-0.52275	0.425163	17.651376	-66.039438	214.107849	-15.419208	-0.226594	-2.246049	0.030805	0.29285	-2.44747	11.814403	62.209656	-25.962005	2.779997	0.024016	0.462301	-0.162106	13.350912	6.200783	-6.261988	-0.747608	38.668597	38.418246	-0.638148	0.190207	0.819475
-0.442184	-0.856219	15.85833	-60.654688	237.770724	-14.881426	-0.229293	-2.223159	-0.04294	1.20335	2.427948	6.81032	56.123953	-19.059834	2.980275	0.006004	0.444289	-0.13809	13.373255	4.004926	-5.358503	-7.332652	53.06859	28.599376	-0.722719	0.200995	0.836255
-0.510416	-0.276995	15.338251	-56.883541	252.487868	-10.180543	-0.236789	-2.074091	-0.107255	1.748715	1.04835	8.592541	20.728704	-18.708747	-7.54732	0.018012	0.450293	-0.156102	10.516843	3.513957	-0.166955	-4.779163	49.948884	5.595404	-0.656889	0.163499	0.893321
-2.045068	-1.434669	15.998373	-60.175862	267.43663	-6.40223	-0.191768	-2.067648	-0.140581	1.867123	0.703848	8.831324	6.651752	-10.252974	-0.992127	0.006004	0.450293	-0.168109	9.445996	3.879646	3.294719	-7.709188	40.411374	1.794317	-0.689781	0.198379	0.83453
-3.757877	-2.302662	16.366691	-49.616202	280.866336	-1.823812	-0.129644	-2.041424	-0.174014	2.290181	-0.846372	10.080675	16.761433	-8.091049	2.333006	-0.006004	0.438285	-0.174113	9.596821	4.003886	5.181539	-2.272324	30.742574	13.822649	-0.649265	0.187769	0.778316
-4.411461	-0.73037	18.206821	-20.621709	281.946899	0.189832	-0.143806	-1.964772	-0.25207	1.3717	-0.097727	9.412967	25.519136	-8.686349	1.296648	-0.006004	0.456297	-0.156102	9.250429	4.11931	4.946938	-0.472295	24.429722	21.655016	-0.735635	0.189051	0.829276
-5.432494	-3.180129	12.863706	-3.387927	276.03547	-4.496299	-0.110368	-1.964232	-0.213754	1.547267	0.07303	9.769923	26.831409	-7.021989	2.282807	-0.006004	0.438285	-0.162106	8.922665	5.384136	2.891772	-6.673965	19.814043	13.685449	-0.675965	0.215076	0.824419
-4.320816	-1.553196	14.04563	3.237701	263.059292	-3.44461	-0.073346	-1.887896	-0.216176	1.700995	0.646763	9.005166	24.547313	-7.602743	0.412551	-0.012008	0.432281	-0.156102	8.119776	5.718535	-0.261361	-15.742805	18.49427	4.186305	-0.715141	0.193001	0.781767
-6.093912	-1.782943	14.298713	7.015879	251.870111	-3.627033	-0.038378	-1.809307	-0.254919	1.697629	1.048013	8.886455	14.535245	-6.980444	-0.388888	0.006004	0.426277	-0.174113	7.15947	5.5351	-2.792224	-22.848351	20.470702	7.527701	-0.704923	0.190685	0.840016
-5.429478	0.114918	7.381554	13.650424	246.314167	-4.532307	0.031055	-1.731305	-0.237185	1.921427	1.44848	8.831091	4.667313	-5.978085	0.312223	-0.006004	0.432281	-0.162106	7.171249	5.582368	-5.074521	-25.036232	23.858694	18.967281	-0.673739	0.210827	0.811953
4.076995	-2.915333	6.407726	-62.555004	237.123918	5.122577	0.061795	-1.707873	-0.272614	1.295707	1.336176	8.58334	-4.692698	-5.897048	-1.351105	0.006004	0.438285	-0.150098	8.12015	4.996739	-6.085663	-21.816939	28.37895	26.73937	-0.740041	0.229814	0.793691
11.170938	-3.62154	5.391483	-80.834219	186.306553	43.140525	0.080306	-1.669705	-0.273825	1.823281	-0.270866	9.362964	-6.288557	-7.095265	-1.524469	-0.006004	0.438285	-0.162106	9.447206	4.187253	-5.264149	-21.609141	31.455204	26.057508	-0.732936	0.203311	0.778006
-2.009314	-7.960127	5.86971	57.616265	50.840781	88.571784	0.082098	-1.631807	-0.294194	1.612352	-0.615259	10.126229	-4.175935	-8.139472	-1.699148	0.006004	0.438285	-0.162106	10.229356	4.658934	-3.077903	-23.97776	31.1545	17.488707	-0.690161	0.244399	0.752299
9.468564	-0.3526	12.300505	121.00817	-95.775536	85.96271	0.129174	-1.627618	-0.2912	0.640206	-0.095816	9.575841	-3.688475	-7.431738	-1.362429	0.006004	0.438285	-0.144094	10.385926	4.726592	-0.905885	-27.444309	26.675393	4.667675	-0.705777	0.218196	0.796589
5.798754	-2.322351	12.280418	156.69392	-103.776706	104.687612	0.132375	-1.571334	-0.312674	1.772877	-0.500373	9.657285	-2.383528	-6.852147	0.141613	0.006004	0.444289	-0.162106	10.87526	4.733568	0.81589	-26.868465	16.290357	-3.193355	-0.771652	0.223427	0.800041
4.739085	-2.629002	5.092401	160.021845	-102.301831	119.099543	0.151531	-1.553805	-0.27646	2.39261	0.528915	9.726411	-3.208426	-6.332625	-0.196831	-0.006004	0.432281	-0.162106	9.704559	5.147277	2.107198	-23.14197	0.054039	-6.467034	-0.701797	0.191189	0.81046
5.690539	-3.67779	3.837391	131.567571	-121.442954	126.785348	0.125021	-1.522079	-0.244345	1.161815	0.302378	10.351912	1.224349	-5.285172	1.130794	-0.006004	0.444289	-0.144094	9.094746	4.746934	2.89226	-17.849026	-15.173516	-6.299551	-0.736961	0.198054	0.824652
6.004721	-2.28155	5.291829	113.212402	-148.610785	129.957279	0.123611	-1.540465	-0.243241	2.16502	2.13348	9.896222	0.246977	-4.975863	-0.389936	0.006004	0.444289	-0.156102	8.292467	5.036957	2.649438	-13.991629	-20.965581	-3.055366	-0.675965	0.215076	0.824419
5.921003	-1.290801	6.910732	107.080419	-162.447814	122.532658	0.06199	-1.487515	-0.305027	0.47672	0.419617	9.984669	2.885206	-4.340208	0.173015	-0.006004	0.444289	-0.144094	7.666978	5.733491	2.754388	-10.860362	-18.941641	-2.596098	-0.70843	0.236201	0.787341
5.569649	-1.117177	6.557405	106.080888	-164.320497	110.250081	0.059816	-1.544925	-0.265393	1.648289	-0.269847	9.064704	11.023359	-4.664444	2.699535	0	0.438285	-0.162106	7.990515	5.207272	1.788213	-7.466549	-10.824243	-1.603844	-0.66796	0.193326	0.791645
5.442355	-1.176646	5.919017	97.277259	-164.56771	95.499562	0.043479	-1.525683	-0.303816	1.480499	-0.498607	9.12085	9.345645	-5.685241	3.344007	-0.006004	0.450293	-0.174113	8.951907	5.145865	1.464543	-3.336467	-1.994075	-0.563004	-0.671939	0.220333	0.777773
5.212969	-1.350551	5.914026	79.312665	-166.084347	81.098883	0.059433	-1.564437	-0.246128	2.095503	1.39027	9.070453	2.386762	-4.327025	0.902766	-0.012008	0.408266	-0.162106	8.52616	5.198249	0.08671	-0.028641	3.193614	-2.561806	-0.687981	0.207886	0.80035
5.103741	-1.175613	6.201233	57.912821	-170.225713	64.930521	0.058144	-1.52316	-0.320978	2.042925	1.160966	9.246773	2.137327	-4.21412	0.733652	-0.012008	0.438285	-0.174113	8.593809	4.911019	0.600352	0.949793	4.886086	-8.437652	-0.722719	0.200995	0.836255
4.944625	-0.477257	6.893258	42.801749	-175.741618	46.96791	0.026378	-1.545465	-0.303709	1.325941	0.302374	10.060172	2.621386	-3.892688	0.736673	-0.012008	0.432281	-0.150098	8.186082	4.967609	0.135994	0.950477	4.044515	-13.678975	-0.716894	0.215759	0.75543
4.621037	-0.648536	7.926647	35.798824	-180.784116	25.807646	0.044244	-1.486659	-0.342345	2.939844	0.357059	8.734579	5.369932	-3.107856	0.748911	0	0.438285	-0.156102	7.895291	4.619222	-0.213768	-2.24403	3.017355	-11.133651	-0.688881	0.203133	0.81744
3.919861	-0.707448	7.276829	28.612187	-184.617449	4.367057	0.025088	-1.504188	-0.378559	1.532694	0.58988	9.061008	3.248776	-5.371328	0.557222	-0.012008	0.432281	-0.156102	7.999587	5.4856	-0.607217	-6.424493	3.381776	-4.068652	-0.6417	0.203458	0.827317
3.692008	-1.287513	7.328674	10.608682	-187.159457	-18.472762	-0.00694	-1.486343	-0.417979	1.194429	0.304441	9.054995	5.257192	-4.472698	-0.972443	0.006004	0.444289	-0.162106	8.394379	4.557147	-0.889	-9.01014	5.126892	0.067149	-0.725325	0.251264	0.766491
3.363236	-0.820881	8.132341	-10.088536	-191.855985	-35.926791	-0.012196	-1.540374	-0.432826	1.711627	0.359387	9.536675	1.404036	-3.910148	-3.206856	-0.012008	0.426277	-0.156102	8.785212	4.496614	-1.281025	-11.321424	7.509393	0.702923	-0.71912	0.220008	0.767896
2.751787	-1.224192	9.101641	-24.360904	-199.023276	-51.708934	-0.017332	-1.534743	-0.523626	2.331381	-0.444176	9.314049	5.082975	-2.337197	-3.548747	0.006004	0.408266	-0.150098	9.753259	3.915454	-1.321599	-12.214467	7.844775	-2.001139	-0.669286	0.202329	0.787021
2.254725	-1.221316	10.074205	-33.653453	-208.255861	-63.324432	-0.061851	-1.462011	-0.585518	1.648524	0.016513	9.123196	8.591267	-3.674308	-3.422083	0.006004	0.432281	-0.168109	9.304698	3.802148	-0.988582	-12.638204	4.400832	-7.734801	-0.707103	0.227198	0.791965
1.694782	-1.451253	10.755994	-40.940259	-216.016401	-69.274751	-0.038159	-1.530508	-0.615424	1.08482	0.247184	9.229924	10.847506	-3.355357	-4.194457	0	0.426277	-0.156102	8.514136	3.863214	-0.661534	-12.347865	-2.113459	-14.525258	-0.690207	0.212135	0.812816
0.391746	-2.3767	11.536876	-48.964332	-217.183005	-69.651302	-0.068658	-1.434614	-0.731903	1.475492	0.81922	9.059515	11.056217	-3.027778	-4.088316	-0.006004	0.432281	-0.168109	8.57456	4.38522	-0.429673	-13.715892	-8.929638	-16.821489	-0.65727	0.209519	0.81109
-0.849997	-2.605131	12.551838	-55.200798	-212.395994	-65.334767	-0.11958	-1.474449	-0.750848	1.479029	0.360678	9.178327	10.563982	-3.515675	-3.298186	-0.006004	0.420274	-0.162106	7.791779	3.926795	0.237563	-15.178705	-14.162172	-14.413996	-0.688881	0.203133	0.81744
-1.30715	-2.256151	12.659162	-59.601158	-204.744502	-57.88893	-0.142462	-1.467962	-0.878967	1.487318	0.130798	9.591735	11.263545	-3.402053	-3.069087	-0.006004	0.438285	-0.174113	7.835207	3.923527	-0.446417	-17.290632	-17.606163	-9.176386	-0.690207	0.212135	0.812816
-1.705327	-2.371427	12.824326	-64.465921	-193.155495	-49.32293	-0.172054	-1.432857	-0.901332	1.087228	0.533342	9.406417	11.54313	-3.749592	-2.607064	-0.006004	0.420274	-0.150098	8.406551	4.096605	-0.320182	-18.517015	-18.548062	-4.542683	-0.674165	0.224583	0.790239
-1.634222	-2.369806	13.519246	-68.633412	-180.636428	-42.629378	-0.251159	-1.419202	-0.943747	1.486018	0.93279	9.649314	12.453046	-3.802698	-2.334498	-0.006004	0.402262	-0.168109	9.094603	3.980498	-0.078824	-20.055065	-17.873898	-1.691563	-0.622579	0.184145	0.835702
-1.680013	-2.542481	14.095832	-73.621439	-171.073236	-36.526454	-0.337573	-1.457324	-1.037328	1.711862	0.645748	9.595168	13.208598	-4.386651	-1.317758	-0.018012	0.420274	-0.168109	8.978134	3.574662	-0.254193	-20.888043	-16.655697	-1.877215	-0.70625	0.199687	0.835392
-2.718438	-2.832392	13.785485	-81.413283	-160.892533	-29.567455	-0.414503	-1.386259	-1.119377	1.817124	0.70341	9.184238	12.915909	-4.42203	-1.587528	-0.012008	0.420274	-0.174113	9.225281	3.462883	0.720353	-21.751222	-15.78851	-3.217131	-0.689308	0.216888	0.795726
-2.698895	-2.946101	14.768057	-89.360009	-143.382109	-24.839652	-0.484199	-1.424111	-1.1938	1.760668	1.047233	9.241543	13.304707	-5.05455	-1.116856	-0.012008	0.420274	-0.174113	8.821832	3.636317	0.484889	-21.35021	-16.634031	-5.795137	-0.705823	0.185932	0.857106
-3.43036	-2.653348	15.505489	-91.40987	-118.840305	-23.538297	-0.499771	-1.365846	-1.270752	1.037186	1.277502	9.876012	10.061093	-5.26158	-1.074043	-0.006004	0.41427	-0.168109	8.361439	3.809865	0.248299	-20.302696	-17.788111	-7.689647	-0.621679	0.188899	0.818612
-3.641958	-2.302634	16.426792	-85.512881	-96.208426	-28.707321	-0.593923	-1.374225	-1.27674	2.002407	0.5296	10.013805	7.725458	-4.903723	-0.100877	-0.006004	0.420274	-0.174113	8.483551	3.637788	0.649408	-20.116531	-18.466576	-7.244712	-0.639901	0.212965	0.793137
-4.232232	-1.897735	15.606933	-86.655848	-93.682587	-33.46527	-0.637535	-1.362281	-1.244518	1.70449	0.932819	9.240659	8.325033	-5.648339	-1.190268	-0.012008	0.432281	-0.162106	8.138968	3.406097	0.470323	-20.363437	-17.989107	-6.584223	-0.671985	0.188069	0.83829
-4.988232	-2.246525	15.070903	-95.969636	-112.623826	-32.769038	-0.700565	-1.327717	-1.3052	1.426856	0.360442	9.413241	6.808299	-5.913369	-1.430274	-0.012008	0.41427	-0.168109	7.963633	3.405387	0.238576	-20.36712	-16.506382	-7.383271	-0.670186	0.197575	0.804111
-6.076822	-1.722804	15.166074	-102.866013	-131.386699	-29.4341	-0.811436	-1.336367	-1.330346	1.709113	0.474175	9.418472	7.204314	-6.679734	-1.370206	-0.006004	0.408266	-0.168109	7.95113	3.460391	-0.389175	-20.373913	-13.75917	-8.731622	-0.622579	0.184145	0.835702
-6.860992	-1.545522	16.133343	-101.731755	-135.314034	-25.741805	-0.904179	-1.32636	-1.337439	1.252504	0.87689	9.232067	6.812338	-6.73552	-1.761294	-0.018012	0.420274	-0.174113	8.461936	3.16936	-0.494538	-20.134341	-11.058204	-8.823554	-0.639047	0.185453	0.836565
-8.074338	-0.152167	15.765805	-88.300748	-125.538934	-21.442884	-0.977765	-1.298824	-1.308318	1.706258	0.703548	9.300065	4.90875	-6.706036	-1.968348	-0.018012	0.438285	-0.174113	8.237087	3.402189	-0.326715	-20.970065	-8.594624	-8.273457	-0.65419	0.177759	0.842051
-9.64495	0.427247	14.695676	-78.339666	-108.639228	-18.113201	-1.041298	-1.343434	-1.27378	1.365373	0.933841	9.234139	4.204206	-6.253347	-2.315462	-0.012008	0.402262	-0.174113	8.173397	2.821499	-0.730115	-22.819056	-6.691241	-7.991092	-0.687555	0.19413	0.822063
-11.357299	0.030778	18.012522	-64.080234	-91.546323	-12.402591	-1.042325	-1.342308	-1.291941	1.472914	0.590355	8.882921	3.261286	-6.497611	-2.235045	-0.018012	0.41427	-0.174113	7.89735	2.99786	-0.27822	-23.591187	-5.223523	-8.426898	-0.623905	0.193148	0.831078
-13.375802	-2.021434	8.662878	10.950019	-74.112375	-14.967482	-1.119114	-1.371055	-1.241346	1.598588	0.359728	9.534502	2.997319	-7.425008	-2.13041	-0.018012	0.420274	-0.168109	7.954395	3.519076	-0.217636	-23.102502	-3.868332	-8.486284	-0.643073	0.180196	0.88321
-16.794012	0.197923	12.87676	-11.458387	-70.6488	3.24805	-1.101367	-1.371911	-1.204028	1.717742	0.12971	9.832082	4.722759	-8.464848	-2.661588	-0.024016	0.420274	-0.156102	7.326461	2.593197	-0.405507	-24.024991	-3.626034	-6.998153	-0.692007	0.202629	0.846996
-16.550086	0.94703	10.745145	-23.505581	-75.477053	22.314381	-1.175074	-1.404038	-1.098953	1.819297	0.703207	9.302239	5.695599	-9.897058	-2.81972	-0.006004	0.41427	-0.168109	7.958354	2.651156	-0.107395	-23.590505	-4.910236	-2.68406	-0.661768	0.185753	0.896539
-18.248605	2.105445	9.038165	-39.993163	-89.134548	47.451888	-1.190504	-1.445585	-1.043261	2.05801	0.472239	9.955993	7.805119	-11.429236	-5.498003	-0.024016	0.41427	-0.174113	8.371257	2.827466	0.643476	-21.312502	-6.360134	-4.259214	-0.620779	0.193652	0.801522
-18.563215	2.109412	10.534491	-45.132691	-88.69826	68.927338	-1.186396	-1.45009	-0.970621	1.709007	0.87512	9.476761	9.252767	-12.940303	-6.883785	-0.006004	0.420274	-0.156102	8.194011	2.652541	0.296755	-22.602566	-7.052044	-6.207583	-0.621725	0.156634	0.879129
-17.579687	1.231621	8.009119	-42.667441	-67.693878	93.575733	-1.223343	-1.36573	-0.924658	1.313775	1.105382	9.527749	11.228027	-13.825353	-7.599575	-0.018012	0.420274	-0.180117	8.363715	2.651937	0.243042	-21.249543	-7.000806	-4.396946	-0.643073	0.180196	0.88321
-17.900735	1.989445	9.218188	-38.742017	-27.679571	102.861152	-1.25382	-1.429311	-0.83254	1.659306	1.504695	9.946559	4.901262	-16.030137	-4.976732	-0.018012	0.41427	-0.180117	8.490889	2.770657	0.930926	-19.925768	-7.350399	-0.375055	-0.669759	0.18382	0.825824
-16.332365	2.795873	7.34426	-10.622708	19.85775	95.677379	-1.238772	-1.407276	-0.868967	1.858971	2.704178	11.776693	-3.084819	-23.496499	-0.931364	-0.036023	0.420274	-0.174113	9.288652	3.058809	1.0051	-17.986544	-7.884486	4.20488	-0.593666	0.176273	0.880622
-15.287497	4.711957	8.063222	-8.630117	76.307091	77.711882	-1.233517	-1.353246	-0.85412	1.617765	1.217084	10.712982	-8.424312	-33.648428	2.969017	-0.024016	0.41427	-0.174113	8.939222	2.999755	0.598435	-17.798354	-9.206321	6.71387	-0.624805	0.188395	0.848168
-14.429809	5.356355	10.85587	2.756387	127.339489	55.022303	-1.265665	-1.395063	-0.817587	1.850064	0.58578	10.954446	-14.401087	-39.200447	3.355542	-0.03002	0.41427	-0.150098	8.505405	3.411197	1.733108	-17.887052	-10.332866	10.28725	-0.628357	0.201646	0.85601
-16.923522	7.220222	12.486679	24.367845	162.833512	20.237054	-1.235953	-1.370505	-0.871176	1.869517	0.984898	12.074739	-16.57118	-48.277106	2.666857	-0.03002	0.420274	-0.174113	8.511047	2.833285	1.958848	-19.178283	-10.158676	11.927784	-0.608762	0.200842	0.825591
-1.606773	6.442929	9.553553	82.096091	171.006741	12.813463	-1.175239	-1.362666	-0.903504	2.1048	0.811527	12.551391	-20.511105	-62.195257	0.866683	-0.042027	0.41427	-0.168109	8.433832	2.828667	0.930063	-22.469711	-9.208062	13.2643	-0.65419	0.177759	0.842051
-3.670218	1.65542	21.001375	141.834555	146.606137	7.21413	-1.160575	-1.360143	-0.920666	1.656543	1.328014	12.836785	-22.205203	-75.622916	-1.416369	-0.036023	0.438285	-0.168109	8.26179	4.900547	-1.80315	-23.458387	-7.000683	14.43113	-0.607482	0.159576	0.890732
-0.862092	-8.11424	14.560936	224.046361	106.627702	-41.359499	-1.207651	-1.364333	-0.92366	1.841272	2.07068	13.782728	-29.63046	-92.493412	2.994255	-0.048031	0.41427	-0.168109	8.361445	6.982224	-2.305264	-16.760465	-5.234504	14.5791	-0.638194	0.157942	0.879992
-5.532726	6.690174	14.099285	157.617087	61.712135	-23.446254	-1.174977	-1.402817	-0.846815	1.629214	2.470988	14.603674	-39.750618	-114.65338	7.843273	-0.054035	0.450293	-0.180117	8.896118	7.160147	-1.152496	-6.048713	-10.002543	20.649725	-0.610135	0.17758	0.881485
-3.784798	3.600952	9.503273	101.727815	35.488976	-35.540224	-1.177796	-1.439588	-0.844605	2.151078	1.322692	15.146485	-52.936831	-139.685368	10.672641	-0.066043	0.432281	-0.156102	10.708901	6.472641	1.220042	1.666455	-21.019803	32.323039	-0.642173	0.184949	0.866121
-1.348114	0.169848	7.809733	95.189057	20.822294	-47.292238	-1.16736	-1.492222	-0.858454	1.911598	0.350925	14.258862	-65.710309	-163.194322	10.86541	-0.066043	0.450293	-0.150098	12.012585	5.207721	3.693999	6.742338	-34.972639	35.089681	-0.613261	0.177076	0.91104
0.016894	-0.348366	10.08954	80.736727	28.991903	-28.341759	-1.107794	-1.54292	-0.832988	2.841031	1.033169	15.750034	-74.407465	-185.365561	5.495316	-0.084055	0.450293	-0.144094	10.945224	3.533516	4.235899	11.679497	-43.153127	28.70035	-0.612788	0.195585	0.872237
-0.79833	1.218308	9.556978	73.934943	32.933708	-21.693156	-1.151023	-1.511464	-0.820031	2.439215	0.920387	15.38863	-77.566788	-208.813488	2.746608	-0.120078	0.456297	-0.156102	10.097792	3.291694	1.649933	7.801875	-41.963481	25.83842	-0.649705	0.225208	0.860091
-2.185879	1.160343	9.009074	60.06519	25.274558	-15.444528	-1.117968	-1.530436	-0.76245	2.069381	1.377381	16.855215	-72.117169	-227.926029	-1.242446	-0.126082	0.468305	-0.132086	9.889796	3.28336	-0.237487	-1.839094	-34.571327	25.645809	-0.597219	0.189524	0.888464
-0.333065	0.75422	9.854078	40.494503	18.394493	-5.422361	-1.101631	-1.549677	-0.724027	1.295082	0.065932	14.483417	-58.105851	-249.896715	-3.34662	-0.132086	0.486317	-0.126082	9.619794	2.984344	-2.412809	-10.997294	-24.095904	16.301325	-0.597219	0.189524	0.888464
-0.776951	-0.81081	10.534939	43.304718	20.212596	-4.192127	-1.104712	-1.546298	-0.778508	0.934807	0.24076	13.355589	-55.776526	-264.93471	-3.128781	-0.144094	0.486317	-0.114074	9.02985	3.67577	-3.391483	-13.450455	-14.543029	8.604282	-0.597219	0.189524	0.888464
-0.49433	0.117175	10.369445	49.359888	17.534685	-4.812707	-1.077557	-1.598663	-0.773198	2.27602	0.98269	12.672347	-46.410706	-271.343459	1.126095	-0.168109	0.49232	-0.120078	8.811303	4.141762	-2.880056	-10.292761	-10.707085	8.807565	-0.587901	0.182455	0.963803
-0.8541	1.915156	9.673142	49.121835	15.420497	-2.815882	-1.099194	-1.532418	-0.706972	2.92027	0.353778	10.739498	-31.505436	-272.413164	2.92602	-0.192125	0.486317	-0.084055	8.44221	4.0336	-1.404069	-6.418334	-10.964523	8.742612	-0.583875	0.187712	0.917157
-1.153503	1.797811	9.031185	39.174024	12.908183	-0.085141	-1.090812	-1.5828	-0.75714	4.35708	1.83648	12.298029	-25.792038	-262.794221	0.553938	-0.210137	0.504328	-0.090059	8.479467	5.142832	0.599151	-5.735287	-13.724039	9.421948	-0.61724	0.204084	0.897169
-0.74384	1.856443	9.444029	33.440441	11.330858	0.322489	-1.112143	-1.657739	-0.75372	3.253166	0.983378	10.508901	-8.007413	-257.065963	4.384937	-0.216141	0.504328	-0.066043	8.405227	5.036467	2.594598	-4.830819	-18.714038	13.977124	-0.551364	0.198852	0.893717
-0.750587	1.739519	9.096861	17.930859	9.611518	0.864965	-1.090168	-1.603438	-0.719716	4.592809	1.147579	12.716595	2.075276	-251.345229	4.570761	-0.234152	0.49232	-0.054035	8.781459	5.217622	4.372001	-3.707805	-25.031499	19.359315	-0.604796	0.197519	0.942952
-1.193943	0.813098	9.837073	13.230906	8.783375	0.759306	-1.078322	-1.637687	-0.734669	4.708703	0.917865	12.837175	18.352614	-247.28953	7.144064	-0.240156	0.516336	-0.060039	9.469511	5.101516	4.613359	-0.802068	-31.22166	23.830557	-0.533615	0.156278	0.957995
-0.793981	1.451038	9.788797	11.069428	8.965305	0.665358	-1.073066	-1.583656	-0.719822	6.533969	0.796304	13.757153	37.069253	-246.301608	11.069715	-0.258168	0.498324	-0.042027	9.450706	4.923358	3.642004	1.109886	-33.757487	22.829251	-0.619939	0.189824	0.948439
-0.967708	0.69637	9.667921	7.33763	10.498888	1.642151	-1.095041	-1.637957	-0.753827	6.891069	2.053684	14.941443	63.840843	-243.899678	13.001129	-0.252164	0.516336	-0.018012	9.654157	4.685534	2.38943	4.393025	-31.704731	15.275982	-0.585675	0.178206	0.951337
-0.68846	1.565894	9.328844	4.579925	12.158416	0.461807	-1.095041	-1.637957	-0.753827	5.542817	0.401098	12.028386	74.649246	-235.309911	24.097331	-0.27618	0.52234	-0.018012	9.464624	5.029048	1.474154	6.650985	-25.104922	8.162058	-0.571859	0.194903	0.941226
-1.019882	1.219509	9.95711	-0.115794	12.739481	-1.419617	-1.027782	-1.617364	-0.696459	-1.619006	-2.432372	6.174614	59.060036	-207.371011	26.331603	-0.282184	0.504328	-0.006004	9.664798	5.311766	0.109761	7.396012	-14.884004	9.764105	-0.569252	0.144634	1.010991
-0.561307	0.580455	9.906902	1.698812	11.665294	-3.004259	-1.057374	-1.582259	-0.718824	-7.525241	-7.155743	-2.364822	27.828335	-132.264896	14.979945	-0.27618	0.510332	-0.012008	9.416753	5.30749	-0.922403	7.461052	-3.194877	10.930839	-0.553164	0.189346	0.927897
-1.306378	0.755446	9.950277	3.614728	10.050222	-3.482839	-1.088758	-1.585052	-0.72082	-7.892135	-8.417318	-1.013191	24.696179	-46.198622	-27.011457	-0.27618	0.510332	0.012008	10.041673	4.900438	-1.026038	8.053906	5.786421	7.05569	-0.555863	0.175086	0.979167
-0.450628	1.276436	9.73742	4.293023	8.939473	-4.675256	-1.029836	-1.615111	-0.732779	-6.853035	-3.335028	7.137184	32.789537	9.477669	-67.327765	-0.294191	0.504328	0	10.100186	5.248228	-0.909151	7.920707	9.543949	1.493219	-0.571432	0.181147	0.96294
-0.925903	1.449053	8.919289	2.546902	7.883498	-5.135501	-1.077557	-1.598663	-0.773198	-3.297205	-2.428883	7.086018	-8.145374	42.816571	-75.636272	-0.282184	0.504328	0.006004	10.052253	5.250445	-0.45354	7.615435	8.028858	-4.039775	-0.54072	0.182781	0.97368
-1.422464	0.929545	9.890596	2.021618	6.660564	-4.745421	-1.010298	-1.57807	-0.71583	-6.424201	0.841863	9.615387	21.542191	77.163007	-86.016908	-0.288188	0.498324	0.018012	10.23232	5.136414	0.006051	5.474108	3.188205	-5.865914	-0.55321	0.157082	0.988414
-0.917846	1.391989	9.323853	0.748256	5.273039	-4.374877	-1.06122	-1.617904	-0.734775	-7.959688	-0.355458	8.880177	22.345971	96.584373	-84.613849	-0.294191	0.504328	0.012008	9.88818	5.252363	-0.114365	1.920144	-1.997077	-4.23549	-0.553636	0.170837	0.966701
-0.976433	1.449947	9.265035	-1.761949	4.779343	-3.907663	-1.061603	-1.637416	-0.71551	-7.375985	0.734472	7.002196	39.782493	118.10693	-79.258127	-0.282184	0.504328	0.012008	9.845321	4.96615	0.5683	-1.730716	-5.351622	-4.238496	-0.589227	0.191458	0.959179
-1.196396	0.986946	9.721863	-3.534882	4.01763	-3.285627	-1.0274	-1.597852	-0.715724	-6.929326	0.389963	6.657497	49.838073	145.192634	-70.89585	-0.27618	0.498324	0	9.943212	5.078035	-0.228212	-4.248141	-7.399513	-8.761816	-0.523398	0.153962	1.016244
-0.969018	0.870359	9.610526	-3.35362	3.481958	-2.731318	-1.058401	-1.581133	-0.736984	-6.759043	-0.584317	6.544483	52.207814	169.168178	-64.58808	-0.264172	0.486317	-0.012008	9.825617	4.671936	-0.460673	-5.3833	-9.042612	-14.632988	-0.556289	0.188842	0.957453
-1.140429	1.276964	9.66589	-4.072289	3.832882	-2.210878	-1.057757	-1.601771	-0.69956	-5.299379	-0.931488	5.983343	45.316195	185.874587	-62.152044	-0.258168	0.486317	-0.018012	9.593896	4.961084	-0.63514	-4.829063	-9.751359	-18.03931	-0.554963	0.17984	0.962077
-0.326818	1.393528	10.202504	-4.370047	4.02252	-1.982098	-1.045911	-1.63602	-0.714512	-4.446494	-0.819967	6.29444	33.237779	192.389341	-60.428891	-0.234152	0.49232	-0.012008	9.19113	4.78714	-0.872181	-2.247253	-9.520215	-19.070755	-0.541147	0.196536	0.951966
-0.793202	0.63844	9.78684	-5.796846	4.673098	-1.738107	-1.092604	-1.620697	-0.736771	-3.428866	-1.281273	6.255812	19.5243	190.118836	-58.869942	-0.222145	0.480313	-0.024016	9.33001	5.25613	0.445294	1.289087	-9.727309	-18.679893	-0.535414	0.146771	0.992175
-0.56284	0.986614	9.850065	-6.287573	5.499575	-2.700944	-1.04732	-1.654405	-0.713408	-2.960921	-1.112281	7.149203	3.90859	184.088124	-57.019286	-0.222145	0.486317	-0.036023	9.10788	4.678672	0.666529	5.254651	-9.325562	-17.658513	-0.505129	0.16216	0.981202
-1.481162	1.103589	9.832057	-7.834556	6.339596	-2.568551	-1.046173	-1.595869	-0.771202	-2.058313	-0.542084	7.165574	-12.715468	181.211001	-52.857897	-0.228148	0.49232	-0.03002	9.696572	4.624107	1.648095	7.773158	-8.215769	-18.068343	-0.490886	0.165102	0.992805
-1.072531	1.045995	10.186807	-7.876954	6.943327	-3.887337	-1.043092	-1.599248	-0.716722	-1.757285	0.199937	8.290691	-26.708389	183.117988	-47.7742	-0.192125	0.49232	-0.03002	9.293692	4.508059	1.411317	9.70707	-6.982416	-19.034753	-0.521125	0.181977	0.943261
-0.744149	0.985663	9.384118	-9.213955	7.655946	-3.856845	-1.042709	-1.579736	-0.735986	-1.845438	0.598888	9.703811	-35.36378	187.021484	-41.798331	-0.186121	0.498324	-0.024016	8.963192	3.99004	1.916023	11.056504	-5.793558	-21.624414	-0.471765	0.145789	1.00119
-1.127856	1.278501	10.301852	-9.694119	7.785984	-3.412267	-1.060456	-1.57888	-0.773304	-0.695658	0.650945	10.787445	-39.20397	190.285629	-35.822554	-0.186121	0.52234	-0.036023	8.728434	4.10471	1.569491	11.695713	-3.21704	-23.332468	-0.520699	0.168221	0.964975
-1.253729	0.928959	9.72058	-9.126706	8.203566	-3.53084	-1.066094	-1.652423	-0.768886	0.111574	0.761621	11.687458	-38.519131	190.523807	-29.185712	-0.174113	0.528344	-0.036023	8.375626	4.044868	0.991549	11.533149	0.870488	-20.155266	-0.489133	0.142344	1.019142
-1.018906	1.393777	10.015344	-6.942102	7.429368	-2.942273	-1.06853	-1.669683	-0.785942	0.687529	1.159847	12.346616	-37.251415	185.146293	-22.096175	-0.162106	0.540352	-0.024016	8.141994	4.159801	0.702109	11.279157	4.779967	-15.383948	-0.490033	0.13759	1.036232
-1.078944	0.580816	9.8388	-5.746151	8.653273	-2.431492	-1.046556	-1.615381	-0.751937	0.856342	1.044852	12.291079	-38.511251	175.78489	-12.945388	-0.162106	0.546356	-0.012008	8.301243	3.172067	0.015913	11.210152	8.369437	-11.613655	-0.48956	0.156099	0.997429
-1.129641	0.755838	10.184965	-4.474471	9.647573	-1.015168	-1.017226	-1.610336	-0.786261	1.142711	0.871818	12.473817	-45.129828	169.435276	-3.531011	-0.13809	0.546356	-0.018012	8.406233	3.11184	-0.438835	11.264717	11.446271	-10.369511	-0.536268	0.174282	0.948748
-0.792115	0.696623	9.844795	-2.296546	9.706544	-0.545012	-1.062248	-1.616778	-0.752935	1.644057	0.412757	12.012407	-54.570629	170.146574	3.440438	-0.120078	0.564367	0.006004	8.36698	2.710622	0.414581	11.936425	13.286434	-11.999068	-0.493113	0.169351	1.005271
-1.592565	1.162162	10.003355	-0.216752	9.6458	-0.138557	-1.045528	-1.616508	-0.733777	2.268691	0.525162	12.201158	-61.894988	172.635066	8.069063	-0.120078	0.570371	0.012008	8.587313	3.055968	0.078111	13.350201	13.413926	-13.217884	-0.501577	0.148909	0.973359
-1.192689	0.697152	9.894609	-1.386724	10.001683	0.912328	-1.050402	-1.651027	-0.767888	2.912202	0.86491	13.451505	-64.698382	170.145326	9.741792	-0.102066	0.594387	0.03002	7.978388	3.350907	0.980511	14.67328	13.029971	-13.07952	-0.48956	0.156099	0.997429
-0.844233	1.161719	10.133843	-3.173456	11.220171	0.852049	-1.017608	-1.629848	-0.766997	3.366361	0.920636	13.578097	-65.068626	162.925693	9.539442	-0.096063	0.624406	0.054035	8.19772	3.058868	0.526964	15.567688	11.902878	-12.773292	-0.551883	0.148079	0.993038
-0.73375	0.870835	9.904172	-4.656277	13.576316	0.311763	-1.067121	-1.651297	-0.787046	4.040249	0.918997	13.355137	-61.508812	153.975344	8.928689	-0.120078	0.63041	0.066043	8.202327	3.581249	0.814791	16.402764	9.856003	-12.476638	-0.502903	0.157911	0.968736
-0.897858	0.813937	10.305306	-5.672081	16.464842	0.485104	-0.983788	-1.609795	-0.747945	4.606872	0.802606	13.425206	-55.06206	144.049144	7.995873	-0.120078	0.666434	0.084055	8.542986	2.943181	0.704472	17.298767	7.920384	-13.436284	-0.518945	0.145463	0.991312
-1.244918	1.278333	10.183937	-7.829243	19.055391	-0.121202	-1.018635	-1.628722	-0.785157	4.137329	0.805594	12.47251	-50.951114	134.41557	8.093802	-0.10807	0.66043	0.102066	8.597449	3.058334	0.59194	19.116731	6.100743	-15.250098	-0.506029	0.157407	0.998292
-1.194166	1.045268	9.837632	-9.78256	21.334043	-0.83684	-1.061865	-1.597266	-0.7722	4.193849	0.805424	12.473597	-50.355364	125.449866	9.536621	-0.114074	0.666434	0.120078	8.767824	3.289578	0.59637	20.748951	4.882749	-16.467138	-0.517619	0.136461	0.995936
-1.016731	1.510142	10.131253	-11.695497	23.637549	-1.185706	-1.042709	-1.579736	-0.735986	7.052531	0.392911	14.239645	-51.373028	120.064684	13.925121	-0.126082	0.684445	0.120078	8.369664	3.638016	0.647156	22.288707	3.944286	-15.947704	-0.503757	0.185422	0.925308
-1.301583	0.523834	10.180977	-11.725991	23.951809	-1.599902	-1.034327	-1.630118	-0.786155	4.401057	1.660543	14.65834	-31.535879	127.993622	8.706548	-0.126082	0.708461	0.144094	8.48784	3.175406	0.818582	23.70761	2.274875	-13.760285	-0.457522	0.14873	1.012793
-1.307688	0.929434	9.892882	-11.266744	24.833907	-1.696828	-1.015172	-1.612588	-0.749941	3.570919	0.120094	12.285862	-16.618096	122.916085	9.260066	-0.150098	0.684445	0.156102	8.364943	3.17353	0.359592	25.955511	1.243029	-10.482109	-0.54072	0.182781	0.97368
-1.54594	0.464197	9.424674	-10.265565	23.751421	-1.031667	-0.980968	-1.573024	-0.750154	3.770385	-0.794526	10.698828	-22.669985	121.333309	11.665209	-0.156102	0.714465	0.162106	8.020917	3.231584	0.238913	27.525539	0.761354	-7.679166	-0.502096	0.098136	1.07268
-1.431442	0.754299	9.427658	-7.924387	22.909093	-0.266259	-0.998332	-1.552656	-0.806737	5.610565	-1.547522	12.327925	-31.874377	118.41604	17.096548	-0.174113	0.702457	0.198129	8.245084	3.346133	0.072667	28.016065	1.541678	-6.165336	-0.470438	0.136787	1.005813
-1.775159	0.116164	9.419263	-8.88803	22.530251	0.046682	-0.985077	-1.568519	-0.822795	5.625501	-1.090706	13.212115	-39.358673	118.760738	25.300484	-0.186121	0.708461	0.186121	8.070318	3.055941	-0.160394	28.566228	3.038138	-5.37127	-0.482455	0.129596	0.981744
-1.643626	0.524447	10.289749	-8.634004	23.725107	-0.001961	-0.988923	-1.604164	-0.838745	7.486344	6.162859	23.379851	-8.931194	14.702652	64.569484	-0.192125	0.678442	0.192125	7.909738	3.000751	0.349794	28.961916	4.786046	-5.134409	-0.502903	0.157911	0.968736
-1.644183	1.104874	10.291146	-9.540337	24.440964	1.240799	-1.027279	-1.538189	-0.791678	9.279166	6.741866	16.512762	-31.08919	73.820807	72.838846	-0.216141	0.672438	0.174113	8.594855	3.231498	0.478544	28.865943	6.484539	-4.042652	-0.472664	0.141036	1.018279
-1.763895	0.291689	9.99783	-6.524353	26.245626	0.754271	-0.987896	-1.60529	-0.820585	15.314166	-3.632023	8.153556	-21.874057	91.036503	53.007313	-0.240156	0.666434	0.180117	8.357628	2.882208	-0.041367	28.832716	7.6348	-3.12136	-0.522498	0.158715	0.999155
-1.467056	0.698967	10.524856	-4.597782	27.909197	1.479663	-1.003588	-1.606687	-0.821583	16.431928	-5.243104	10.301051	-58.649593	97.444957	55.928265	-0.234152	0.66043	0.186121	8.477374	2.767502	0.24582	29.538883	8.23566	-1.724577	-0.492686	0.155595	1.026985
-1.475002	0.639946	10.120013	-5.732457	30.014023	2.937701	-0.98405	-1.569645	-0.804634	17.405936	0.204255	5.76904	-81.140475	87.801054	54.614019	-0.258168	0.642418	0.174113	8.193215	3.057816	0.298595	30.152997	8.744792	-0.417925	-0.518991	0.113199	1.051829
-1.699593	0.234429	10.345722	-5.65819	32.868718	3.481014	-0.987514	-1.585778	-0.83985	20.347643	1.106456	9.185845	-72.965592	60.133506	38.055698	-0.270176	0.642418	0.174113	9.058296	2.653201	0.827479	30.459513	9.336645	1.252167	-0.474418	0.163794	0.991942
-1.122085	1.221157	10.590786	-7.320463	36.678597	5.143872	-0.985459	-1.588031	-0.80353	22.725484	4.139686	6.867184	-41.332299	33.73702	25.666908	-0.270176	0.636414	0.168109	8.933602	2.419214	0.253253	28.428578	9.92916	0.92166	-0.483781	0.138598	0.97712
-1.75068	0.81575	10.692865	-10.365566	41.744292	5.45487	-0.971439	-1.56487	-0.858117	23.597431	4.426365	5.173057	-27.146574	0.640859	10.484051	-0.264172	0.636414	0.180117	8.821855	2.477864	0.365448	29.225641	10.763067	-0.928493	-0.425057	0.127606	1.04987
-1.579016	1.337967	10.697552	-13.221257	47.228335	4.036633	-0.977722	-1.617774	-0.891123	28.108602	3.148508	7.562142	-13.782989	-33.773262	-10.226075	-0.300195	0.618402	0.180117	8.993356	2.709371	0.42697	29.318639	10.42933	-1.073178	-0.470865	0.150542	0.9841
-1.117735	1.453887	10.822605	-16.402548	52.667967	1.98257	-0.939028	-1.563203	-0.837961	31.90348	8.46816	5.856588	-2.625067	-80.031584	-14.155418	-0.300195	0.618402	0.162106	9.738226	3.230274	0.729438	26.21625	9.149251	0.010308	-0.491786	0.160348	1.009895
-1.518755	1.918758	10.873536	-21.847503	57.688494	-1.073886	-0.939673	-1.542564	-0.875385	34.404381	12.86964	7.371588	45.257251	-145.172543	-12.749429	-0.300195	0.612399	0.162106	9.450688	3.519799	0.610937	25.113497	7.54667	1.784883	-0.476217	0.154287	1.026122
-1.789668	0.701956	11.616479	-25.306263	65.299956	-6.087993	-0.911752	-1.555904	-0.908605	8.240845	20.070809	-3.995801	182.908791	-186.463683	-21.821276	-0.318207	0.624406	0.156102	9.671681	4.67622	0.39233	21.429075	5.530411	4.503279	-0.472238	0.12728	1.039993
-1.442689	1.514639	11.798737	-31.013802	75.719761	-9.3442	-0.954337	-1.545087	-0.858223	9.82837	-4.307601	10.821291	166.166108	-159.295975	-67.670144	-0.324211	0.624406	0.156102	9.992033	5.771101	-0.566484	14.912452	5.034734	7.691087	-0.48956	0.156099	0.997429
-1.419105	0.762879	12.953216	-32.611823	87.921915	-11.24978	-0.907906	-1.520259	-0.892654	0.172009	-15.161784	9.356759	48.32536	-33.447373	-21.302856	-0.330215	0.600391	0.156102	10.480189	6.111935	-1.753706	8.725164	8.58973	12.805199	-0.472238	0.12728	1.039993
-1.519775	0.358368	13.643729	-33.267022	102.86022	-12.332036	-0.863267	-1.533329	-0.906715	-1.705836	1.17394	8.172051	23.955925	-14.18254	-2.274898	-0.330215	0.612399	0.144094	11.305272	6.566828	-3.162014	2.440657	14.292987	17.593617	-0.470911	0.118278	1.044617
-0.815701	-0.22091	14.40764	-33.215528	120.458523	-13.321885	-0.865321	-1.531077	-0.943035	0.204265	1.393222	10.685512	49.798728	-31.357986	-9.198933	-0.336219	0.600391	0.144094	11.68532	5.113627	-4.245452	-1.292245	19.697028	17.815219	-0.456622	0.153484	0.995703
-2.089449	-0.453254	13.803788	-31.91495	141.078584	-10.061523	-0.867113	-1.568974	-0.922666	2.994232	-0.387507	8.500985	64.925097	-27.932532	2.585847	-0.342223	0.594387	0.168109	11.811049	4.24732	-3.733314	2.69251	24.1676	10.974071	-0.456195	0.139728	1.017417
-1.577639	-0.338228	13.583095	-31.896066	157.765903	-7.237737	-0.81901	-1.565911	-0.901512	0.774865	2.140717	8.041138	16.359557	-9.976672	1.855832	-0.336219	0.606395	0.13809	10.842496	4.204614	-0.899241	6.935531	22.896682	-1.023876	-0.507402	0.134145	1.054185
-1.342118	0.591071	13.936791	-34.938697	174.460595	-5.746549	-0.802553	-1.52549	-0.939043	1.203228	-0.097317	9.468707	10.469592	-20.246002	-8.478357	-0.336219	0.594387	0.13809	10.098895	4.45041	1.826467	3.996575	16.988148	-5.857467	-0.473564	0.136283	1.035369
-1.351176	1.692904	13.534743	-34.133048	188.420435	-7.79003	-0.78968	-1.560865	-0.935836	2.396424	-0.387866	9.787035	16.775302	-12.617335	0.311592	-0.336219	0.588383	0.162106	9.594961	4.685122	2.274119	4.714023	13.448285	2.058297	-0.472238	0.12728	1.039993
-1.37295	1.748291	12.436402	-41.383861	198.026683	-13.762661	-0.741839	-1.517652	-0.971371	1.986384	0.072885	9.070614	23.942978	-11.602563	0.085258	-0.342223	0.606395	0.144094	9.258705	4.802912	2.553348	1.553072	11.385235	6.309803	-0.456622	0.153484	0.995703
-2.229787	1.169118	12.591304	-42.285837	208.360995	-17.686661	-0.680098	-1.510939	-0.985539	1.416054	0.70511	8.881631	13.332155	-8.952239	-2.10956	-0.324211	0.606395	0.144094	9.021694	4.917057	2.092632	-5.705035	12.010893	3.503682	-0.504703	0.148405	1.002915
-2.220476	0.996108	13.053403	-44.758766	217.748323	-21.367681	-0.680098	-1.510939	-0.985539	1.713566	0.072823	9.596183	14.460967	-9.173765	-2.350227	-0.336219	0.600391	0.13809	8.414071	5.430587	0.199694	-10.90917	15.799354	6.079268	-0.48866	0.160852	0.980339
-2.720299	0.302053	13.850846	-36.104237	221.308334	-23.780146	-0.62605	-1.575517	-1.031609	2.049317	0.473051	9.483992	20.736245	-8.343911	-1.319813	-0.336219	0.600391	0.132086	8.192788	5.303307	-2.373358	-18.335099	23.439777	11.489582	-0.473518	0.168547	0.974852
-4.028366	-0.384739	17.290624	-18.983374	224.185884	-24.252362	-0.584919	-1.503686	-0.961391	2.20607	0.760118	8.837742	15.887703	-7.243315	-1.196608	-0.348227	0.582379	0.144094	7.887458	5.472833	-3.405859	-22.874587	32.454935	15.415419	-0.48866	0.160852	0.980339
-4.734186	-1.322033	13.460041	13.282078	219.49102	-25.364776	-0.54618	-1.550149	-1.027724	1.590129	0.646901	9.120993	9.352539	-5.775054	-0.215906	-0.336219	0.606395	0.132086	7.984348	4.947332	-4.319447	-23.414154	39.702133	15.856088	-0.520272	0.154466	0.986688
-5.195664	-2.424818	13.274797	26.640172	209.519119	-24.991567	-0.495641	-1.529826	-0.989514	1.310004	1.277563	9.350444	4.841082	-6.001252	0.026285	-0.336219	0.588383	0.132086	7.996179	4.660479	-3.74984	-22.806796	42.143247	8.737954	-0.521598	0.163468	0.982065
-6.042745	-3.641343	13.890681	33.276875	202.429473	-26.357005	-0.461175	-1.530412	-0.933038	1.482289	0.360373	9.355328	-1.570799	-6.448724	-1.067315	-0.336219	0.582379	0.132086	7.443196	4.317918	-2.96339	-23.263491	39.165953	-1.594177	-0.518046	0.150217	0.974222
-5.60912	-3.296606	12.628738	56.751588	197.197649	-18.115408	-0.39879	-1.544337	-0.909781	1.719851	-0.214146	9.891691	2.697724	-7.058845	-2.343271	-0.330215	0.600391	0.144094	7.573078	4.205578	-2.162373	-27.675505	32.61498	-3.545743	-0.467785	0.118782	1.015061
-3.639002	-1.329574	10.823421	47.765293	204.604682	-19.706232	-0.353506	-1.578045	-0.886418	2.050915	0.301072	9.543296	7.644078	-6.437968	-1.587015	-0.342223	0.588383	0.13809	7.70453	4.441142	-1.245594	-32.083687	25.275822	2.197845	-0.499824	0.126151	0.999697
6.635049	-5.830368	2.175023	1.197011	172.841258	8.943784	-0.29912	-1.522078	-0.832258	1.539448	0.875632	9.473501	7.422195	-6.712613	-2.091038	-0.336219	0.588383	0.132086	7.716224	5.370639	-0.556282	-33.542768	18.699343	6.471426	-0.535841	0.160527	0.970462
9.909348	-9.141973	2.232208	-16.820573	97.248918	38.572106	-0.294322	-1.648255	-0.841688	1.982741	0.932373	9.010092	3.339494	-4.801984	-0.274868	-0.336219	0.588383	0.144094	8.124406	5.082464	-0.092976	-31.591485	12.58544	7.174224	-0.483781	0.138598	0.97712
1.894732	-6.106126	6.125348	-26.210446	-1.825628	53.125823	-0.281756	-1.542446	-0.775675	1.705917	0.818132	9.299862	1.690791	-4.267409	-0.242459	-0.330215	0.588383	0.150098	8.186867	5.141561	0.193874	-26.717339	5.494495	8.00714	-0.514493	0.136965	0.96638
10.215749	-2.733213	12.25182	52.751131	-66.050948	36.109188	-0.285985	-1.597603	-0.772361	1.821747	0.244766	9.362051	3.663751	-3.49417	0.600729	-0.336219	0.582379	0.156102	8.605742	5.145496	1.229417	-22.274179	-1.136104	10.478576	-0.533615	0.156278	0.957995
6.199449	-4.593867	9.21993	88.126843	-66.835788	33.646976	-0.295132	-1.586245	-0.683663	1.878096	0.301888	9.363036	4.470981	-2.645992	0.965729	-0.330215	0.594387	0.144094	9.246305	5.379247	1.985055	-17.802185	-6.990766	12.289893	-0.483828	0.106334	1.037638
5.846435	-4.833864	5.860399	73.500838	-68.65021	32.636324	-0.324461	-1.591291	-0.649339	1.484633	0.302878	9.47343	3.187756	-2.474992	0.528882	-0.342223	0.606395	0.132086	9.527415	5.493683	1.819936	-13.984553	-9.462116	10.62446	-0.497551	0.154166	0.926714
5.945487	-5.126145	5.05258	57.386911	-82.622523	38.985835	-0.326253	-1.629188	-0.62897	1.874091	0.187709	9.127238	5.893798	-3.874129	0.124452	-0.342223	0.588383	0.150098	9.512785	4.911039	1.018017	-11.434715	-9.144964	5.829134	-0.486008	0.142848	0.989586
6.309445	-4.137238	6.102479	44.638983	-98.773858	42.751387	-0.337455	-1.615578	-0.576592	1.761691	0.703479	9.242152	4.650913	-4.478231	0.192691	-0.342223	0.588383	0.126082	9.276241	4.214371	0.496528	-10.36519	-7.178824	-1.887473	-0.481555	0.134349	0.964654
5.918798	-2.568159	6.734214	42.825836	-110.260309	41.986321	-0.339247	-1.653476	-0.556223	1.19999	0.991239	9.466778	2.046774	-5.387909	0.074485	-0.336219	0.594387	0.13809	9.082431	4.441041	-0.647642	-10.681177	-4.15529	-7.678784	-0.495798	0.131408	0.953051
5.804775	-2.161609	6.790721	45.243733	-119.177833	38.689415	-0.337575	-1.67524	-0.500638	1.718382	0.645139	9.949169	1.427847	-6.224503	0.506883	-0.342223	0.582379	0.144094	8.498015	4.61245	-1.400314	-11.335354	-0.813022	-10.451384	-0.480229	0.125347	0.969278
5.450523	-1.349796	6.323301	42.797322	-134.433469	33.291674	-0.333849	-1.699258	-0.408734	2.040517	0.874808	9.07028	0.297062	-7.039888	-0.215102	-0.330215	0.594387	0.13809	8.150053	4.37997	-1.750676	-13.956612	2.559733	-10.727214	-0.465513	0.146797	0.942078
4.587637	-1.581411	6.189968	34.866349	-156.626658	30.489979	-0.34505	-1.685647	-0.356356	1.542133	0.703551	9.591806	-0.296729	-7.04203	-0.286367	-0.348227	0.594387	0.132086	8.101779	4.555876	-1.294277	-16.732702	6.688908	-8.421599	-0.480229	0.125347	0.969278
3.866878	-0.532705	7.507364	21.94754	-176.120739	31.524173	-0.387373	-1.71498	-0.249285	1.480691	0.532352	9.296023	-2.105953	-6.425828	-0.490118	-0.336219	0.570371	0.13809	8.557894	4.265484	-1.286581	-18.401268	10.711125	-4.18068	-0.51274	0.114207	0.992718
2.984213	-0.643569	9.281055	14.997443	-188.154619	31.408824	-0.328834	-1.764551	-0.241979	2.04595	0.874301	9.365281	-2.02451	-6.412638	-0.801274	-0.336219	0.594387	0.132086	8.623961	4.209577	-0.82898	-19.021381	13.262477	-1.123487	-0.498024	0.135657	0.965517
3.388803	-0.063112	9.463897	19.565771	-197.165637	26.314965	-0.374882	-1.769867	-0.226813	2.328654	0.472503	9.312424	-2.393666	-6.244755	-0.159004	-0.324211	0.588383	0.13809	9.152673	3.980647	-0.020605	-18.713305	12.990429	-1.115522	-0.497125	0.14041	0.948427
3.438023	0.109982	9.060756	24.561758	-208.277091	18.61867	-0.371539	-1.813397	-0.115644	2.047208	0.816907	9.424382	-2.771275	-5.505481	0.272986	-0.342223	0.576375	0.120078	9.16348	4.214862	0.551368	-18.828919	9.541158	-4.155846	-0.47843	0.134853	0.935098
2.970805	0.225535	8.647188	25.367983	-215.669718	10.472106	-0.285386	-1.735123	-0.078752	1.93387	0.187234	9.305325	-1.598215	-5.189035	0.405161	-0.348227	0.588383	0.132086	9.12276	3.98707	1.34848	-18.817836	4.474321	-7.525043	-0.530535	0.124517	0.988957
2.570564	-0.122192	8.696164	16.578707	-213.086861	2.780407	-0.300816	-1.77667	-0.02306	1.765526	0.87495	9.477848	0.22902	-5.161397	0.185993	-0.330215	0.582379	0.144094	9.399922	4.390199	1.013399	-17.914717	-0.52734	-8.352356	-0.512694	0.146471	0.9322
2.223893	-0.064095	8.573816	1.718419	-204.501561	-4.367316	-0.221067	-1.810964	0.056779	1.817806	0.47424	9.184644	1.977233	-5.474794	0.009632	-0.348227	0.600391	0.132086	9.17687	4.855139	1.296457	-16.981862	-4.750562	-5.863707	-0.497598	0.121901	0.987231
1.60503	0.112182	9.197625	-19.08148	-196.004133	-11.530015	-0.188011	-1.829936	0.11436	2.489648	1.16011	8.960465	2.749932	-5.5369	-0.022439	-0.360234	0.594387	0.132086	9.388205	4.619156	0.443528	-16.237882	-6.998258	-2.443182	-0.51184	0.11896	0.975628
1.856244	0.172657	10.300817	-35.922914	-190.802261	-19.502543	-0.113015	-1.839086	0.084134	1.705683	0.531772	9.24137	1.587029	-6.002433	0.299013	-0.342223	0.588383	0.144094	9.605398	4.268694	-0.124465	-15.344931	-7.54445	-2.058693	-0.525656	0.102263	0.985738
1.896139	0.293633	12.324614	-42.162609	-185.069226	-28.438353	-0.018601	-1.870857	0.146812	1.823985	0.588216	9.538442	1.980096	-5.90387	-0.110705	-0.336219	0.588383	0.132086	8.904843	4.439805	-0.993574	-14.916909	-6.635279	-3.086789	-0.456655	0.097536	0.952731
1.617088	0.410975	12.723882	-39.550506	-173.958818	-40.479935	0.014575	-1.830166	0.128439	2.038685	0.760427	8.952483	0.186321	-5.343989	0.14493	-0.348227	0.582379	0.150098	9.255741	4.325432	-0.530605	-15.411967	-5.373732	-3.852754	-0.478003	0.121098	0.956812
1.165008	0.238131	13.061207	-42.190691	-167.42106	-49.986921	0.070416	-1.856846	0.062	1.926392	0.875251	9.009106	-1.322477	-4.860562	-0.140065	-0.342223	0.582379	0.144094	8.913853	4.441908	-0.536837	-15.719157	-5.524436	-4.279107	-0.528309	0.120268	0.976491
0.378077	-0.281518	13.853355	-52.484	-168.734488	-53.309771	0.20018	-1.790517	0.06667	1.924154	0.531801	8.832715	-1.423738	-3.760201	-0.282136	-0.336219	0.588383	0.150098	8.750577	4.038551	-0.199503	-16.607652	-6.662458	-2.667054	-0.492246	0.118156	0.945209
-1.143274	0.187819	15.268982	-52.223731	-169.076094	-53.604965	0.213173	-1.76623	-0.006077	2.09578	0.932032	9.012265	-0.102411	-3.127667	-1.525766	-0.330215	0.576375	0.132086	8.693304	3.633128	-0.259561	-17.589819	-7.242179	-1.588408	-0.476676	0.112095	0.961436
-2.496253	-0.156167	16.454822	-41.091543	-161.009655	-52.835541	0.262042	-1.724142	-0.023452	1.650484	0.818201	9.357776	1.773672	-2.088509	-2.670782	-0.336219	0.588383	0.132086	8.692838	4.44394	-0.198789	-18.29685	-7.468469	-3.452663	-0.493572	0.127159	0.940585
-3.87449	-0.387142	16.369017	-25.791696	-144.198647	-51.286573	0.315063	-1.787594	-0.087682	1.818892	0.474139	9.243644	1.448944	-0.812955	-2.422638	-0.336219	0.588383	0.156102	8.981172	3.74914	-0.082128	-18.973005	-7.781807	-5.620604	-0.495371	0.117652	0.974765
-4.70823	-0.970563	14.790619	-18.02565	-122.703945	-46.524672	0.360467	-1.761639	-0.140273	1.81706	0.359757	9.125847	5.932222	-1.405967	-3.025407	-0.342223	0.594387	0.13809	8.060398	3.517009	-0.615029	-20.263716	-8.252359	-8.032909	-0.443266	0.127988	0.920907
-5.29332	-1.203575	14.200482	-19.326766	-99.023155	-39.776915	0.406254	-1.716173	-0.212128	1.764546	0.474106	9.360558	6.255161	-1.079994	-2.398142	-0.342223	0.570371	0.144094	8.464189	3.169886	-0.380353	-21.370608	-8.44522	-10.420102	-0.51184	0.11896	0.975628
-6.567179	-1.319833	13.59691	-27.755215	-79.073356	-29.835078	0.43071	-1.745646	-0.280563	1.649398	0.818303	9.298776	8.304497	-1.493551	-2.68459	-0.342223	0.594387	0.150098	8.745071	3.400114	-0.544947	-22.38681	-7.938282	-12.394848	-0.47843	0.134853	0.935098
-6.586277	-1.670465	12.61322	-41.074791	-66.608703	-19.0451	0.479961	-1.684047	-0.317203	2.042627	0.530952	9.129889	8.965943	-2.072068	-1.694982	-0.348227	0.582379	0.13809	8.35863	3.519595	0.075709	-23.036676	-6.271079	-13.782814	-0.441512	0.10523	0.947244
-6.795923	-0.971215	13.650991	-56.573408	-67.531827	-8.905542	0.491544	-1.678145	-0.388845	1.648588	0.360167	9.181587	8.960195	-2.566378	-1.170199	-0.336219	0.588383	0.126082	8.190052	3.520462	0.186514	-23.532393	-4.598081	-13.365479	-0.493572	0.127159	0.940585
-6.614169	-1.434605	14.11582	-65.989561	-83.495127	1.816598	0.512275	-1.683601	-0.549185	1.931825	0.874743	9.304107	7.865874	-2.742561	-1.079913	-0.342223	0.558363	0.126082	8.812265	3.34447	-0.030254	-23.135912	-3.137737	-12.326685	-0.455755	0.102289	0.935641
-6.946511	-2.013301	14.685713	-64.967428	-102.310722	9.392754	0.465964	-1.648767	-0.590709	1.931143	1.103913	9.303701	6.233268	-3.517229	-0.421268	-0.342223	0.582379	0.150098	8.541734	3.580041	0.707364	-22.276746	-2.397839	-11.911015	-0.459308	0.11554	0.943483
-6.085319	8.093592	18.1371	-11.659368	-78.52338	23.955242	0.525006	-1.619164	-0.678621	1.82358	0.359148	9.479848	3.276867	-4.049342	0.239242	-0.354231	0.594387	0.144094	8.933694	3.519771	0.372432	-20.861546	-2.677573	-10.459361	-0.473124	0.098844	0.953594
-8.889901	-0.617267	15.112723	-73.09518	-95.678702	29.326263	0.482203	-1.66923	-0.804424	1.712842	1.046592	9.712457	3.115918	-4.80511	1.123731	-0.336219	0.594387	0.144094	8.825438	3.521313	0.65564	-19.537575	-3.359632	-8.81536	-0.444592	0.136991	0.916283
-11.64954	-0.636422	6.1	-42.01674	-91.081287	21.93009	0.44081	-1.70091	-0.931331	1.877755	0.416473	9.362833	1.535585	-5.534419	1.474338	-0.342223	0.588383	0.126082	9.162707	3.461683	0.433766	-19.411516	-4.379749	-6.038297	-0.47445	0.107846	0.94897
-12.593313	0.986729	4.871515	-91.87331	-99.122454	29.539728	0.4196	-1.716187	-1.003865	2.043202	0.702728	9.188585	0.989753	-6.613665	1.733992	-0.342223	0.582379	0.132086	8.714362	3.811811	0.825978	-19.284331	-5.861918	-3.097618	-0.458881	0.101785	0.965197
-12.143157	0.302739	10.195655	-127.47436	-111.779847	43.253501	0.351435	-1.675992	-1.155347	1.937364	0.47329	9.540819	-0.887979	-8.008203	2.547194	-0.342223	0.594387	0.126082	8.716398	3.348903	0.880968	-16.856436	-5.629955	-4.31336	-0.458454	0.088029	0.98691
-13.034475	1.823275	14.515965	-141.894766	-113.217821	57.567051	0.265523	-1.63494	-1.344147	2.221666	-0.100486	9.547267	-0.79887	-9.582552	2.257559	-0.348227	0.582379	0.126082	8.086188	3.580951	0.698354	-16.645126	-4.21444	-6.608386	-0.48912	0.11866	0.915653
-14.206461	4.433654	13.400913	-96.828071	-105.172128	63.794564	0.120951	-1.60398	-1.464298	1.941029	0.702054	9.776413	-3.576895	-12.066767	3.806167	-0.324211	0.588383	0.120078	8.471617	3.403311	0.020343	-13.542255	-3.309779	-7.163228	-0.459308	0.11554	0.943483
-14.376228	4.318015	13.512834	-48.900576	-93.250162	62.227392	0.053048	-1.603935	-1.559091	2.108691	0.243508	9.603485	2.489491	-13.724738	-0.816275	-0.336219	0.588383	0.144094	8.347595	3.401173	-0.495739	-12.800089	-5.005108	-5.865907	-0.47445	0.107846	0.94897
-15.798666	5.119455	8.342988	-9.929548	-67.44855	65.172964	-0.044448	-1.568785	-1.676248	1.945589	-0.100243	9.895835	4.624104	-16.669082	-3.276948	-0.342223	0.576375	0.150098	8.410385	3.865808	-0.149957	-15.03862	-7.213295	-3.471649	-0.506062	0.101459	0.955319
-16.648392	5.469943	8.904829	-15.287517	-31.247972	74.18516	-0.134754	-1.541519	-1.666285	1.793225	1.788786	11.128228	2.961146	-22.752813	-1.597909	-0.342223	0.582379	0.13809	8.065586	3.170682	-0.388237	-16.607411	-6.809375	-3.09184	-0.456655	0.097536	0.952731
-16.465303	3.613528	9.366304	-7.452721	2.350043	74.401066	-0.235451	-1.562652	-1.761969	2.514073	2.069143	13.500767	-0.226412	-30.499382	-3.09148	-0.342223	0.582379	0.144094	8.171031	2.87887	-0.844036	-18.332842	-5.151977	-2.650186	-0.421491	0.090671	0.938539
-16.336527	5.70491	10.183028	14.448792	35.918019	74.372901	-0.312501	-1.551249	-1.768064	1.774667	0.358607	9.891763	-1.265429	-43.746508	-1.709161	-0.336219	0.588383	0.144094	7.887236	1.83704	-0.911491	-23.529886	-4.273201	-0.129356	-0.471325	0.10835	0.919414
-17.151923	5.065682	9.529526	26.258472	74.038378	65.020523	-0.334094	-1.586038	-1.821333	2.172093	1.216395	10.133847	-8.21317	-45.165217	-3.989073	-0.330215	0.588383	0.150098	7.604886	1.780239	-0.803201	-28.449251	-3.652998	3.530568	-0.468199	0.108854	0.889858
-17.042862	5.064872	9.242739	32.59312	116.761085	51.952879	-0.345557	-1.532278	-1.825645	2.622247	1.157942	10.024642	-11.048239	-49.152311	-3.36912	-0.348227	0.600391	0.13809	6.690756	1.607581	-0.993286	-31.61688	-2.926341	5.60701	-0.521158	0.126029	0.900289
-14.22988	11.215509	9.660445	34.405092	164.011489	38.965255	-0.345939	-1.55179	-1.80638	1.952876	1.101883	10.483705	-13.557011	-53.735122	-2.33567	-0.354231	0.588383	0.156102	6.917744	1.433174	-1.046662	-34.907239	-2.238196	8.111843	-0.488266	0.091149	0.95908
-2.155476	-5.511631	10.207114	110.433212	166.63423	48.666778	-0.305146	-1.600505	-1.836392	1.680804	1.216304	11.06807	-17.33482	-59.318943	-1.351203	-0.360234	0.570371	0.13809	7.540844	1.952464	-1.146092	-32.634383	-0.8718	12.924597	-0.439286	0.100981	0.934778
