1757_acc_x	1757_acc_y	1757_acc_z	1757_gyro_x	1757_gyro_y	1757_gyro_z	1757_mag_x	1757_mag_y	1757_mag_z	1758_acc_x	1758_acc_y	1758_acc_z	1758_gyro_x	1758_gyro_y	1758_gyro_z	1758_mag_x	1758_mag_y	1758_mag_z	1759_acc_x	1759_acc_y	1759_acc_z	1759_gyro_x	1759_gyro_y	1759_gyro_z	1759_mag_x	1759_mag_y	1759_mag_z
-1.541952	0.785296	9.933442	1.055433	-0.444197	-1.052971	0.68273	-0.252056	-0.862444	0.29071	-4.235919	9.283864	-1.53486	0.804864	0.541123	0.173821	0.438367	-0.814218	8.936046	2.672713	-1.137303	-2.037743	1.406596	-0.661526	-0.398647	-0.804136	-0.001483
-1.595783	0.671178	10.102405	0.688128	-0.353371	-1.081105	0.589776	0.195077	-1.089507	0.396062	-4.180184	8.833212	-1.842791	0.863481	0.356489	0.487351	0.101733	-0.984299	9.113364	2.556155	-1.134496	-2.50453	1.351003	-1.362511	-0.49373	-0.51542	-0.295706
-1.436103	0.438633	9.479396	0.41293	-0.29389	-1.01801	0.647015	0.183336	-1.101564	-0.062929	-4.348266	8.880038	-2.365696	1.040605	0.388658	0.448869	0.13322	-0.999829	9.762542	2.55467	-1.122391	-3.122735	1.600123	-2.003273	-0.493446	-0.518725	-0.233594
-1.610259	0.668041	9.363315	0.751694	-0.265756	-0.650511	0.603525	0.191174	-1.07578	0.291595	-4.06688	9.340646	-2.859266	1.095462	0.419634	0.475116	0.134442	-1.01473	9.412306	2.788773	-0.888377	-3.742116	1.572044	-2.45933	-0.520916	-0.485922	-0.250937
-1.541579	0.268322	9.93127	0.473953	-0.355416	-0.988518	0.632895	0.183711	-1.101215	-0.402385	-4.291051	9.15603	-3.447277	0.996826	0.294868	0.449165	0.134292	-1.014178	9.880189	3.193484	-1.057564	-4.2375	1.884679	-3.284207	-0.534961	-0.503145	-0.234642
-1.896324	0.381041	9.356541	0.715644	-0.594564	-1.483791	0.64663	0.197107	-1.10498	0.387277	-4.011524	8.436877	-4.433409	1.197728	0.481041	0.474821	0.13337	-1.00038	9.232497	2.556133	-1.072388	-4.580785	2.170746	-4.445682	-0.493446	-0.518725	-0.233594
-1.429422	0.440081	9.820515	0.744959	-0.840972	-1.426543	0.632152	0.176654	-1.073063	0.343224	-4.123556	9.058609	-3.784895	1.175899	0.388861	0.487942	0.103877	-1.012998	9.478445	2.092962	-0.590709	-4.892077	2.454718	-5.393322	-0.494147	-0.547805	-0.294031
-1.714829	0.785179	9.873248	0.191089	-1.150172	-1.491311	0.645486	0.221121	-1.097736	0.052417	-4.461142	8.882361	-4.277494	1.293091	0.266318	0.500623	0.10288	-0.998924	9.474084	3.021684	-0.706567	-5.695693	2.735025	-6.155786	-0.506937	-0.486544	-0.235339
-1.089526	0.841199	9.658325	0.557522	-1.301072	-1.586822	0.603868	0.229301	-1.12484	0.631267	-4.236756	9.064559	-4.433176	1.198936	0.296084	0.488092	0.134517	-1.015006	9.423716	2.617018	-0.29005	-5.511813	2.893054	-6.585065	-0.534965	-0.484474	-0.282063
-1.48837	1.244063	9.765926	-0.055558	-1.303586	-1.615767	0.63138	0.204196	-1.079895	-0.118747	-4.629763	8.935232	-2.984093	0.972845	0.171689	0.436409	0.119969	-1.027249	9.763237	2.729145	-1.061742	-5.112061	2.865481	-6.739187	-0.493379	-0.50088	-0.265487
-1.657616	0.842579	9.874603	-0.022727	-1.15326	-1.306736	0.574898	0.205694	-1.078498	0.284666	-4.236156	9.000666	-2.800324	0.852337	0.201467	0.46214	0.134367	-1.014454	9.483427	2.791358	-0.228301	-4.519267	2.792223	-5.365721	-0.479401	-0.501502	-0.249889
-1.492327	0.553799	9.535618	-0.818705	-1.096907	-1.180856	0.588247	0.232862	-1.085679	0.401999	-4.123616	9.116458	-3.134551	1.278137	0.08212	0.436113	0.118897	-1.012899	9.299506	2.906432	-0.590549	-3.71215	2.784703	-4.360073	-0.507287	-0.501084	-0.265557
-1.78326	0.840249	9.303845	-0.665301	-1.127966	-1.089798	0.604268	0.198231	-1.103932	-0.065023	-4.517352	8.766617	-3.418643	0.813632	0.231413	0.461625	0.147544	-0.986758	9.717311	3.255179	-0.281828	-2.631921	2.755473	-4.119351	-0.492749	-0.470974	-0.220578
-1.603495	0.554606	9.703951	-0.971183	-1.131135	-0.935629	0.589776	0.195077	-1.089507	0.111862	-4.179503	8.997086	-3.353268	1.090801	0.172565	0.474746	0.11805	-0.999377	9.067418	2.617333	-0.416466	-2.042434	3.030053	-3.847739	-0.479956	-0.550906	-0.23185
-1.372084	0.325156	9.821145	-1.155105	-1.194501	-0.844125	0.603911	0.177403	-1.072365	-0.404479	-4.460138	9.042609	-3.232498	0.848661	-0.07637	0.448719	0.10258	-0.997821	9.25356	2.967609	0.127481	-1.638789	3.026135	-3.329628	-0.521471	-0.535326	-0.232898
-1.655472	0.957944	9.988792	-1.339148	-1.257519	-0.783283	0.576798	0.171438	-1.096402	0.047043	-4.179679	8.65604	-3.354984	0.938685	-0.013917	0.46236	0.120119	-1.0278	8.942939	3.022899	-0.716471	-1.259404	3.258001	-1.956808	-0.493376	-0.519551	-0.218066
-1.605515	0.266916	9.589038	-1.246647	-1.227401	-0.691056	0.617645	0.190799	-1.07613	0.062304	-4.573424	9.335383	-3.079311	0.758023	0.015336	0.488237	0.104948	-1.027348	9.294835	3.021595	-0.829682	-1.241812	3.84553	0.393651	-0.479889	-0.533061	-0.263743
-1.658937	1.129545	9.818956	-1.184357	-1.167389	-0.53692	0.590133	0.215905	-1.121075	0.220733	-4.067294	8.716401	-2.556054	0.611362	0.014299	0.487942	0.103877	-1.012998	9.297576	2.789785	-0.710857	-1.299034	3.619513	1.525772	-0.535174	-0.500666	-0.281225
-1.777527	0.611689	9.587145	-1.61149	-1.018513	-0.287926	0.589376	0.226147	-1.110415	0.227185	-4.912062	8.942248	-2.155518	0.524865	-0.047895	0.44902	0.163861	-1.001836	9.360163	2.67424	-0.530531	-1.301762	3.593652	1.067458	-0.493029	-0.48634	-0.235268
-1.662976	0.554165	9.589131	-1.090906	-1.046117	-0.35121	0.603925	0.160104	-1.054873	-0.068758	-4.461164	8.596745	-1.969762	0.557882	-0.047417	0.448945	0.148541	-1.000832	9.238559	2.78992	-0.711958	-1.522972	3.572058	0.120908	-0.479542	-0.49985	-0.280945
-1.376829	0.726282	9.595422	-0.998655	-0.92137	-0.47212	0.618403	0.180557	-1.08679	-0.004694	-4.066673	8.938124	-1.32289	0.41299	-0.079166	0.500553	0.147769	-0.987586	9.530184	2.381724	-0.947814	-1.403817	3.363099	-0.336969	-0.493379	-0.50088	-0.265487
-1.594629	0.613977	10.159017	-0.077147	-0.766546	-0.196244	0.604282	0.180931	-1.08644	0.230835	-4.292237	9.169328	-1.662885	0.379222	-0.264744	0.475192	0.149763	-1.015734	9.703951	2.845432	-1.062348	-1.527855	3.550294	-0.734729	-0.49282	-0.470148	-0.236106
-1.673329	1.011526	9.079384	-0.200819	-0.763989	-0.471858	0.632495	0.214781	-1.122122	0.049137	-4.010593	8.769461	-1.015235	0.295659	-0.295881	0.488683	0.136661	-1.043705	9.595532	2.499224	-0.586777	-1.464276	3.515828	-0.337479	-0.521404	-0.517481	-0.26479
-1.659719	0.669772	9.760173	0.503332	-0.821119	-0.566818	0.604639	0.201759	-1.118008	-0.06105	-4.066518	8.993554	-0.985198	0.234319	-0.234811	0.46236	0.120119	-1.0278	9.293309	2.73072	-0.950732	-1.898047	3.331996	-0.457282	-0.507287	-0.501084	-0.265557
-1.600403	0.899979	9.875958	0.107944	-0.424855	-0.436568	0.618017	0.194328	-1.090206	-0.168066	-4.516662	9.330595	-1.140059	0.201694	-0.23526	0.500032	0.100736	-0.970225	9.356031	2.557099	-0.770653	-1.615125	3.508969	0.274358	-0.507772	-0.551314	-0.23199
-1.379056	0.7258	9.481716	0.354134	-0.11361	-0.677562	0.588261	0.215562	-1.068187	0.347498	-4.461397	9.228243	-0.583651	0.239012	-0.172785	0.500478	0.132449	-0.986582	9.231687	2.904589	-1.070905	-1.088525	3.350968	0.945591	-0.507287	-0.501084	-0.265557
-1.485729	0.67013	9.877219	0.322646	-0.111319	-0.892111	0.575641	0.212751	-1.10665	0.628957	-4.293181	8.951232	-0.922436	0.297439	-0.388273	0.500547	0.087559	-0.997921	9.414393	3.312199	-0.706431	-0.688979	3.168554	0.975578	-0.479401	-0.501502	-0.249889
-1.717098	0.842138	9.759783	0.659217	-0.139434	-0.985541	0.618388	0.197856	-1.104281	-0.058632	-4.066423	9.106834	-0.092813	-0.030499	-0.205898	0.487577	0.147694	-0.98731	9.469662	2.55584	-1.008079	0.082813	3.293687	0.972185	-0.507705	-0.533469	-0.263883
-1.425009	0.498488	10.048168	0.137098	-0.295178	-1.017237	0.630608	0.231738	-1.086726	0.276527	-4.40548	8.604046	-0.184522	0.030661	-0.359504	0.436183	0.074007	-1.024238	9.47588	3.196407	-0.586011	0.757751	3.271526	0.389149	-0.507776	-0.532643	-0.279411
-1.486019	1.072221	9.878909	1.087774	-0.198547	-1.018403	0.603882	0.212002	-1.107348	-0.00437	-4.235665	8.937982	-0.000989	-0.119708	-0.453336	0.475116	0.134442	-1.01473	9.655784	2.44126	-0.526017	1.212442	3.350131	-1.141012	-0.548314	-0.453945	-0.252751
-1.658605	0.670013	9.817026	0.044304	-0.19924	-1.383429	0.576012	0.216279	-1.120726	0.286306	-4.461431	9.057116	0.279164	0.066601	-0.26629	0.462285	0.104798	-1.026797	9.474469	2.382601	-0.769193	1.35939	3.395461	-2.51707	-0.506937	-0.486544	-0.235339
-1.376829	0.726282	9.595422	0.777146	-0.65748	-1.331649	0.648173	0.142023	-1.091317	0.054296	-4.179395	8.995877	0.494447	-0.021643	-0.421134	0.475556	0.105945	-1.041422	9.536671	2.906139	-0.52624	1.133474	3.289662	-4.19666	-0.465493	-0.501298	-0.249819
-1.380045	0.553234	9.424139	-0.144487	-0.718021	-1.790003	0.604654	0.18446	-1.100516	0.098564	-4.180024	8.374051	0.648293	-0.080208	-0.544905	0.474821	0.13337	-1.00038	9.232652	2.962912	-1.01075	0.69206	3.523991	-6.30493	-0.493379	-0.50088	-0.265487
-1.195992	0.498322	10.052622	0.707905	-1.135571	-2.565951	0.631794	0.155826	-1.041495	0.057145	-4.404622	9.108967	0.770933	-0.169428	-0.730662	0.462436	0.135439	-1.028804	9.001664	2.674061	-0.776761	0.676358	3.709096	-9.422974	-0.493797	-0.533265	-0.263813
-1.774269	0.727296	9.758187	0.156678	-1.10811	-2.502582	0.617274	0.187271	-1.062054	0.392089	-4.631018	8.606274	0.956883	-0.106752	-0.575749	0.487647	0.102805	-0.998649	9.180083	2.557751	-0.714047	0.570009	3.766148	-12.020482	-0.479751	-0.516042	-0.280108
-1.255141	0.038348	9.935872	0.094345	-1.136694	-2.717546	0.618774	0.184085	-1.100866	0.224013	-4.517843	8.829301	1.32305	-0.469425	-0.671545	0.448424	0.101508	-0.983472	9.357692	2.789897	-0.64985	0.223248	3.655177	-13.241089	-0.521195	-0.501288	-0.265627
-1.721344	0.553965	9.531164	0.460801	-1.131153	-3.055864	0.646244	0.210878	-1.108396	0.165777	-4.799436	8.771215	1.382771	-0.651222	-0.8891	0.487496	0.072164	-0.996641	8.706314	2.790888	-0.781769	-0.294734	3.796785	-12.323096	-0.521613	-0.533673	-0.263953
-1.198301	0.612722	9.939399	0.888529	-1.281767	-3.151548	0.603525	0.191174	-1.07578	-0.177629	-4.573372	8.877431	1.934612	-0.981281	-0.922766	0.513894	0.104027	-1.01355	9.18354	2.965272	-0.472689	-0.044603	3.853179	-11.774192	-0.479542	-0.49985	-0.280945
-2.055839	0.383819	9.978584	0.826503	-1.186032	-3.487168	0.588247	0.232862	-1.085679	0.340807	-4.123651	8.94533	2.30335	-1.158757	-1.201687	0.46199	0.103726	-1.012447	8.948846	2.849907	-0.417678	0.170487	3.482775	-11.375923	-0.507425	-0.518103	-0.249192
-1.435072	0.553758	9.536732	1.287411	-1.093428	-3.333647	0.619532	0.173842	-1.111526	-0.061851	-4.911571	8.879564	2.69842	-1.674567	-1.268154	0.462065	0.119047	-1.013451	9.12823	2.791921	-0.29481	0.079358	3.293543	-10.855167	-0.507776	-0.532643	-0.279411
-1.377776	0.496275	9.537604	0.341156	-1.015055	-2.5016	0.617645	0.190799	-1.07613	0.001135	-3.953775	9.221417	3.990576	-2.115668	-1.641436	0.462436	0.135439	-1.028804	8.651854	3.198791	-0.481604	0.699651	3.009418	-9.786445	-0.479889	-0.533061	-0.263743
-1.144305	0.497074	9.76947	2.789997	-1.182785	-2.971402	0.61766	0.1735	-1.058638	0.053195	-4.235773	8.93919	4.60447	-2.47219	-2.199391	0.461255	0.131152	-0.971405	8.82257	3.080751	-0.838238	1.574644	2.741954	-7.282353	-0.465213	-0.485932	-0.235128
-1.546323	0.669447	9.705547	2.237511	-1.276861	-3.032677	0.57567	0.178152	-1.071666	-0.003054	-4.291948	8.994574	5.775499	-2.701612	-2.35487	0.46236	0.120119	-1.0278	8.52803	2.849122	-0.844729	2.228907	2.172544	-5.234395	-0.507776	-0.532643	-0.279411
-1.836019	0.783814	9.529903	2.971766	-1.207096	-3.463017	0.590133	0.215905	-1.121075	0.226215	-4.405088	8.942675	7.124709	-3.51012	-2.700931	0.46236	0.120119	-1.0278	8.590752	2.675501	-0.66465	3.041061	1.62766	-2.545286	-0.521684	-0.532847	-0.279481
-1.599248	0.842779	9.932569	2.451751	-1.149803	-3.307246	0.576413	0.185209	-1.099818	0.577651	-4.405497	9.233126	7.827845	-4.112404	-3.014633	0.487722	0.118125	-0.999652	9.121067	2.557886	-0.715147	3.944075	1.024138	-0.070109	-0.493659	-0.516246	-0.280178
-1.663101	0.726489	9.589855	3.033268	-1.270012	-3.310873	0.631752	0.207724	-1.093971	0.680132	-4.744217	8.612224	9.320025	-3.443775	-3.900792	0.462656	0.121191	-1.04215	9.113945	3.253562	-1.011715	4.693546	0.946706	1.761331	-0.507913	-0.549662	-0.263046
-1.602423	0.612289	9.761045	2.786832	-1.486629	-3.283016	0.603911	0.177403	-1.072365	0.225784	-4.179765	8.942865	11.388505	-5.933124	-3.708085	0.448644	0.087259	-0.996818	9.001124	2.906365	-0.775772	5.716315	0.443595	3.441021	-0.480098	-0.549253	-0.262906
-1.605929	0.841331	9.591451	3.029382	-1.57177	-3.806464	0.617988	0.228927	-1.125189	0.295976	-4.461052	9.510232	14.309649	-7.083814	-4.950289	0.436189	0.134217	-1.013903	8.708649	2.733306	-0.662202	6.83533	0.24419	5.363449	-0.521542	-0.534499	-0.248425
-1.720231	0.554206	9.588017	3.118518	-1.876227	-4.026349	0.603882	0.212002	-1.107348	0.05626	-4.573661	9.052185	18.923422	-8.733075	-6.381052	0.474671	0.10273	-0.998373	8.82257	3.080751	-0.838238	8.074458	-0.321213	7.226089	-0.479889	-0.533061	-0.263743
-1.319616	0.783682	9.596777	3.115812	-1.993593	-4.518948	0.604268	0.198231	-1.103932	0.522157	-4.855986	9.288178	21.247873	-10.6575	-7.693077	0.436629	0.10572	-1.040595	9.414663	3.196047	-0.706926	9.21891	-0.075547	7.526419	-0.521404	-0.517481	-0.26479
-1.490265	0.784048	9.65029	2.99166	-2.333957	-4.370779	0.618017	0.194328	-1.090206	0.300704	-4.404531	9.736838	21.949705	-13.775137	-7.877649	0.449309	0.104723	-1.026521	9.063847	2.732744	-0.595692	9.777245	0.261672	7.645046	-0.493446	-0.518725	-0.233594
-1.37687	0.783724	9.595664	2.380881	-2.0927	-4.211756	0.632895	0.183711	-1.101215	0.874803	-4.856348	9.635269	21.21727	-16.017731	-13.387819	0.462505	0.09055	-1.040143	8.946915	2.733261	-0.537986	9.903163	0.909225	7.183029	-0.465422	-0.502124	-0.234291
-1.60725	1.128297	9.535804	0.433087	-1.265002	-2.107239	0.576413	0.185209	-1.099818	0.190886	-3.390082	10.075112	33.241476	-27.65371	-16.114139	0.448719	0.10258	-0.997821	9.24078	3.25527	-0.530259	10.024667	1.658322	5.773049	-0.465701	-0.51749	-0.248982
-1.607949	0.553641	9.476538	4.839551	-1.349941	-3.654726	0.604296	0.163632	-1.068949	0.105715	-4.515386	11.374456	22.232128	-31.082055	-15.016477	0.44946	0.135364	-1.028528	9.355646	3.196182	-0.708026	9.831072	1.891329	3.877666	-0.479468	-0.519347	-0.217996
-1.202548	0.32455	9.71078	2.38957	-1.460538	-3.0361	0.589804	0.160478	-1.054524	1.152543	-7.167007	8.959694	24.533575	-42.085834	-16.202964	0.460954	0.06987	-0.96739	9.237749	3.138376	-0.710474	10.250228	1.947744	1.522487	-0.479609	-0.517695	-0.249052
-1.487873	0.554764	9.763031	3.003797	-1.430073	-2.761357	0.618403	0.180557	-1.08679	1.068242	-5.58821	10.544513	17.202186	-45.657165	-18.987969	0.448644	0.087259	-0.996818	9.60146	2.791088	-0.2261	11.065345	1.300775	-0.708475	-0.47933	-0.502328	-0.234361
-1.66409	0.553924	9.532278	2.392669	-1.281709	-2.542508	0.589404	0.191549	-1.075431	0.949484	-5.588136	10.372176	13.366843	-55.624276	-17.209684	0.423062	0.103501	-1.01162	9.475475	3.370635	-0.58527	10.522025	-0.124004	-2.136147	-0.521404	-0.517481	-0.26479
-1.545334	0.842013	9.763124	1.874049	-1.19716	-2.079616	0.63138	0.204196	-1.079895	0.095674	-5.58614	10.807159	21.06142	-58.79699	-28.39429	0.449014	0.103651	-1.012171	8.946105	3.081717	-0.536503	10.416809	-1.37314	-2.649363	-0.507287	-0.501084	-0.265557
-1.60638	-0.077975	9.530737	1.753597	-1.016122	-1.83098	0.58979	0.177778	-1.072015	0.811751	-2.767338	14.957519	31.870513	-57.310564	-37.741939	0.396369	0.070567	-0.980362	9.410666	3.02083	-0.947295	9.998286	-3.359085	-3.005116	-0.507563	-0.535122	-0.232827
-1.544221	0.842255	9.819977	1.142748	-0.89988	-1.489982	0.618388	0.197856	-1.104281	1.12583	-4.968634	10.602883	38.80868	-60.023435	-31.536477	0.423502	0.075004	-1.038312	9.295955	3.486697	-0.70789	9.179899	-5.286217	-3.268014	-0.480098	-0.549253	-0.262906
-1.422865	0.613853	10.162357	0.191952	-0.996164	-1.519478	0.589404	0.191549	-1.075431	0.076248	-4.910885	9.958134	13.650711	-66.001007	-29.365819	0.371008	0.07256	-1.00851	9.531574	2.730674	-0.826516	8.989672	-6.332561	-2.712213	-0.47968	-0.516868	-0.26458
-1.714332	0.09588	9.870352	0.470131	-0.876468	-1.119647	0.576012	0.216279	-1.120726	0.023223	-4.51389	12.901308	21.301661	-69.784772	-36.333135	0.409936	0.072785	-1.009337	9.179543	2.790055	-0.713058	8.934119	-6.965352	-0.691869	-0.493864	-0.55111	-0.23192
-1.553004	0.668	9.364428	0.687066	-0.88242	-0.507007	0.631352	0.238795	-1.114878	1.196932	-4.461198	11.284194	19.187206	-73.453081	-37.696804	0.397481	0.119744	-1.026422	8.416175	2.560248	-0.548632	9.026766	-7.927749	0.718281	-0.465142	-0.486758	-0.2196
-1.209519	0.725193	9.37135	0.23085	-0.738207	0.140677	0.56002	0.216312	-1.067488	0.925846	-5.870737	9.239147	-3.591338	-81.840428	-37.76766	0.370933	0.05724	-1.007506	8.828208	3.023911	-0.538951	8.449718	-8.008684	2.4323	-0.507213	-0.520582	-0.202609
-1.328358	0.551986	9.140987	-2.551016	-0.458859	1.471939	0.576027	0.19898	-1.103234	0.744847	-5.079687	11.613838	-0.295976	-80.717886	-43.549063	0.357957	0.057165	-1.00723	9.128905	2.501541	-0.296046	8.861337	-8.027731	4.417541	-0.479676	-0.53554	-0.217159
-1.486718	0.497564	9.819642	1.152974	-0.428681	0.327061	0.618017	0.194328	-1.090206	0.979785	-5.870987	9.070437	3.256466	-80.961262	-46.353728	0.318809	0.071188	-0.993057	8.777975	2.561168	-0.122681	8.837814	-7.762322	5.363846	-0.507008	-0.485718	-0.250867
-1.547354	0.554323	9.648211	-0.772176	-0.047221	1.136164	0.618774	0.184085	-1.100866	1.25684	-5.928284	8.566678	4.581078	-79.084883	-49.262405	0.344981	0.05709	-1.006954	9.547791	2.38568	0.010697	9.045696	-7.746415	3.895945	-0.535312	-0.517685	-0.264861
-1.657616	0.842579	9.874603	-1.413343	0.255702	1.265604	0.603525	0.191174	-1.07578	0.859603	-5.7583	8.841556	1.815496	-68.86109	-56.006141	0.306279	0.102826	-1.009138	9.553833	2.154612	0.309242	8.783169	-7.624017	0.839966	-0.465768	-0.535335	-0.217089
-1.775258	0.55473	9.70061	-1.287234	0.653007	1.517039	0.603911	0.177403	-1.072365	-1.363478	-5.473927	7.153306	-1.354879	-63.363071	-58.604961	0.331044	0.038479	-0.962626	9.494952	2.096671	0.307895	9.079155	-7.226852	-1.974774	-0.465839	-0.534509	-0.232617
-1.43602	0.32375	9.478913	-0.610331	0.992814	1.643284	0.616859	0.235641	-1.100453	-5.737433	-4.733345	7.175324	13.064853	-38.698396	-50.087175	0.292411	0.039326	-0.976148	9.311031	2.211744	-0.054354	8.840599	-5.815005	-2.53077	-0.521191	-0.519959	-0.218207
-1.605639	0.43924	9.589762	-0.056721	1.146267	1.889525	0.603511	0.208473	-1.093272	-7.276228	-4.844863	5.161412	23.95262	-20.008734	-45.022247	0.318294	0.084365	-0.965361	9.192708	1.863311	-0.117945	8.582077	-4.113447	-1.529396	-0.479605	-0.536366	-0.201631
-1.313965	0.670005	9.88056	-0.151546	1.154181	1.153903	0.602753	0.218716	-1.082612	-7.997149	-5.520769	3.673706	-1.192857	0.292616	-33.126877	0.279731	0.040322	-0.990222	9.310626	2.385972	-0.053612	8.486517	-1.744976	0.110033	-0.507004	-0.504389	-0.203446
-1.318751	1.128573	9.655078	1.442966	1.347056	1.060445	0.632523	0.180182	-1.087139	-8.806692	-5.519402	3.486862	-9.947446	14.658117	-24.452187	0.266905	0.070888	-0.991954	9.482172	2.384331	-0.349845	7.984778	0.414894	1.079559	-0.535517	-0.552549	-0.216603
-1.321925	0.898083	9.483553	2.575478	1.106148	1.083937	0.590547	0.167535	-1.082675	-8.661747	-4.673427	4.962621	-2.60263	24.942668	-12.290662	0.331339	0.039551	-0.976976	9.836518	1.802513	-0.405622	7.149951	2.065221	3.886546	-0.5214	-0.536152	-0.21737
-1.491172	0.496599	9.59223	2.696988	1.10985	0.807638	0.590147	0.198605	-1.103583	-6.881085	-5.183933	4.773112	-9.726987	34.559964	3.428957	0.292487	0.054646	-0.977152	9.539817	2.500101	-0.408157	6.392343	3.18608	4.678603	-0.479956	-0.550906	-0.23185
-1.661739	0.382081	9.64526	3.126447	1.173317	0.807433	0.576055	0.164381	-1.06825	-6.831227	-5.578686	4.377512	-20.013739	40.513476	15.348934	0.305827	0.010903	-1.003116	9.890728	1.975618	-0.643407	4.445372	3.404888	3.553746	-0.465071	-0.487584	-0.204072
-1.434823	0.209109	9.535284	3.002994	1.018738	0.835944	0.576413	0.185209	-1.099818	-5.997616	-5.522774	5.697195	-28.115596	45.792316	26.832627	0.306053	0.056865	-1.006127	9.596207	2.208844	-0.588014	2.944817	2.69346	0.842432	-0.478979	-0.487788	-0.204143
-1.37889	0.496034	9.480751	2.788101	1.018779	0.74456	0.603511	0.208473	-1.093272	-5.5751	-5.635431	6.611796	-29.778603	52.13246	38.486475	0.305839	0.131323	-0.982446	9.774647	2.55739	-0.463415	2.550561	1.899933	-2.42256	-0.507425	-0.518103	-0.249192
-1.547727	1.071297	9.650383	1.989691	0.769205	0.742802	0.619146	0.187613	-1.114942	-4.772165	-5.975065	6.458518	-32.045377	57.032616	48.830879	0.318143	0.053724	-0.963354	9.539932	1.977169	-0.470289	1.417558	1.070321	-5.409566	-0.479468	-0.519347	-0.217996
-1.605846	0.726448	9.590968	2.204291	0.895219	0.560226	0.602782	0.184117	-1.047628	-3.658302	-5.750984	7.44455	-36.641194	60.697617	56.016509	0.292787	0.115928	-0.981167	9.364139	2.384601	-0.352046	0.501372	0.301723	-8.305894	-0.520774	-0.487575	-0.219881
-1.426413	0.900337	9.993004	1.345161	0.831488	0.408324	0.590905	0.188363	-1.114243	-3.236326	-5.581989	8.359388	-37.078531	63.203792	60.974161	0.318959	0.101829	-0.995064	9.356862	2.673498	-0.710251	-0.310417	0.038665	-9.768611	-0.479956	-0.550906	-0.23185
-1.490265	0.784048	9.65029	1.314043	0.738802	0.437575	0.602753	0.218716	-1.082612	-2.138287	-5.302194	8.609153	-36.707068	63.584251	64.462256	0.318514	0.070116	-0.978707	9.42111	2.790751	-0.409122	-0.83491	0.03741	-9.827827	-0.521121	-0.520786	-0.202679
-2.004525	0.899545	9.697604	1.070673	0.982816	0.503577	0.562678	0.171812	-1.096053	-1.087172	-5.528887	9.310399	-36.602767	62.168722	65.527381	0.409276	0.115531	-0.969298	9.063982	2.674668	-0.59594	-1.110944	0.157824	-9.73572	-0.479885	-0.551732	-0.216322
-1.263433	0.725958	9.540796	0.734736	1.071699	0.659327	0.601996	0.228959	-1.071952	-0.33662	-5.417532	9.439489	-34.568516	59.259858	64.32846	0.370788	0.086809	-0.995163	9.12794	2.443217	-0.356201	-0.801469	0.218851	-9.61489	-0.521329	-0.536978	-0.201842
-1.60725	1.128297	9.535804	1.074559	1.28457	0.999154	0.603539	0.173875	-1.058289	-0.039684	-5.755722	9.841726	-34.41608	56.457106	61.988301	0.39645	0.146097	-0.97103	9.544354	2.443014	-0.168777	-0.334525	0.677782	-9.465968	-0.479605	-0.536366	-0.201631
-1.313799	0.440239	9.879595	0.892572	1.466016	1.186633	0.577556	0.161195	-1.107062	0.536448	-4.742756	9.967948	-33.691138	54.948665	59.692321	0.369757	0.113162	-0.939772	9.484933	2.617377	-0.169136	0.37215	0.685061	-9.92697	-0.507216	-0.50191	-0.250029
-1.48375	1.015262	9.992373	0.833776	1.646296	1.527077	0.603896	0.194702	-1.089856	0.772838	-5.418964	10.198773	-32.001845	53.972889	57.494922	0.344396	0.115156	-0.96792	9.188077	2.908185	-0.233308	1.363921	0.803087	-9.167111	-0.507772	-0.551314	-0.23199
-1.54954	0.496399	9.534263	1.510114	1.956412	1.560838	0.603868	0.229301	-1.12484	1.297533	-5.081666	10.549775	-27.42449	54.25452	56.113985	0.38414	0.163486	-1.000457	9.488639	2.443891	0.009843	2.199492	0.427658	-8.068158	-0.507705	-0.533469	-0.263883
-1.439443	0.43791	9.308837	0.254184	2.011314	1.626681	0.61726	0.204571	-1.079545	1.689481	-5.6462	9.991367	-26.872517	53.724471	53.858458	0.409646	0.131923	-0.984652	9.068249	2.733732	-0.356065	3.377564	-0.01498	-6.267205	-0.480094	-0.567925	-0.215485
-1.429546	0.612406	9.821238	1.483865	2.319138	2.088158	0.604997	0.222587	-1.149576	1.922291	-5.083184	10.166596	-27.767524	51.096059	50.933447	0.395935	0.159274	-0.943334	9.190392	2.385748	-0.175627	4.833733	-0.488784	-4.314276	-0.49386	-0.569781	-0.1845
-1.77097	0.785461	9.928988	0.904176	2.496637	2.460721	0.603525	0.191174	-1.07578	2.550675	-5.084559	9.953335	-24.179869	48.852584	49.403288	0.434788	0.144178	-0.943158	9.182959	2.267865	-0.595469	5.36363	-0.870362	-2.725149	-0.479472	-0.500676	-0.265417
-1.778765	0.783773	9.531016	1.489944	2.67714	3.04465	0.604668	0.16716	-1.083025	2.386895	-4.689542	10.403157	-23.098861	48.864287	49.712586	0.410312	0.149388	-1.014355	8.952957	2.502193	-0.239441	5.881637	-1.415616	-3.060607	-0.493379	-0.50088	-0.265487
-1.654193	0.728419	10.044679	1.308057	3.046102	2.959167	0.603125	0.222244	-1.096688	2.786896	-4.408739	10.298578	-21.697393	52.506808	53.233881	0.408986	0.174669	-0.944613	9.071415	2.79255	-0.176097	6.433208	-1.593373	-3.428501	-0.493376	-0.519551	-0.218066
-1.59929	0.90022	9.932811	1.706968	2.952639	3.232506	0.604268	0.198231	-1.103932	2.845024	-4.070816	10.356711	-19.601765	59.742618	57.007328	0.435378	0.146322	-0.971857	8.889809	2.385187	-0.480663	7.136433	-1.983122	-3.948741	-0.479956	-0.550906	-0.23185
-1.314172	0.957213	9.881766	1.556045	3.352128	3.178099	0.617645	0.190799	-1.07613	3.187137	-3.620914	10.251064	-19.154034	66.130531	60.647718	0.474381	0.161868	-0.973688	9.421785	2.500371	-0.410358	8.214929	-2.195256	-3.768263	-0.493722	-0.552762	-0.200864
-1.37254	0.957013	9.8238	2.047185	3.571276	3.02691	0.590162	0.181306	-1.086091	3.413341	-3.396165	10.086171	-22.766547	68.89105	62.707181	0.447619	0.173822	-0.931091	9.185565	2.094132	-0.476397	9.231157	-2.654845	-3.341882	-0.507772	-0.551314	-0.23199
-1.319657	0.841124	9.597018	1.191177	3.842809	3.125789	0.633281	0.169939	-1.097799	3.763353	-3.283961	10.320078	-25.76559	68.842584	64.30755	0.435008	0.12993	-0.956504	9.010758	3.024742	-0.236115	10.280515	-2.994488	-2.671694	-0.479751	-0.516042	-0.280108
-1.431815	0.669365	9.707774	1.378393	4.115731	3.528361	0.618403	0.180557	-1.08679	4.74717	-2.215229	10.681368	-25.543268	64.376856	63.338339	0.460595	0.173897	-0.931367	9.597578	2.092939	-0.528601	10.921613	-3.507757	-3.099437	-0.480023	-0.568751	-0.199957
-1.892118	0.726655	9.585401	1.806994	4.369495	3.009906	0.618031	0.177028	-1.072714	5.898024	-2.611745	10.648574	-21.134375	56.202666	61.040667	0.460444	0.143256	-0.929359	9.12931	2.327313	-0.296788	11.591846	-3.831391	-4.108865	-0.493376	-0.519551	-0.218066
-1.601475	0.842296	9.818863	0.520745	4.360704	3.258805	0.574898	0.205694	-1.078498	5.838256	-2.724394	10.533991	-16.345457	48.625303	57.20767	0.512499	0.174197	-0.93247	9.306899	2.094603	-0.294476	12.386701	-3.970735	-5.150178	-0.479814	-0.552558	-0.200794
-1.661946	0.669289	9.646467	2.118974	4.8871	3.569432	0.603525	0.191174	-1.07578	6.521788	-2.725971	10.208661	-13.793269	42.433449	52.739229	0.474011	0.145475	-0.958335	9.657965	1.976899	-0.468088	13.212393	-4.109967	-6.191594	-0.52105	-0.521612	-0.187151
-1.888612	0.497613	9.754995	1.105307	4.982916	2.837891	0.605811	0.143147	-1.090269	6.861914	-2.501486	9.989546	-11.441925	34.870251	46.592153	0.499667	0.144553	-0.944536	9.190507	1.862817	-0.237759	14.098673	-4.215867	-7.477869	-0.493793	-0.551936	-0.216392
-1.542983	0.670171	9.876106	2.611871	5.476759	3.270924	0.618803	0.149486	-1.065882	8.239511	-2.954906	9.791622	-7.899147	26.135311	39.047086	0.500258	0.146697	-0.973236	8.537083	2.270092	-0.427854	14.746838	-4.090553	-7.541936	-0.452069	-0.551324	-0.216182
-1.371261	0.727488	9.879688	3.285615	5.669162	2.842768	0.589776	0.195077	-1.089507	8.064074	-2.785686	9.674858	-4.989767	18.674639	32.254222	0.51324	0.206982	-0.963176	9.299736	1.860569	-0.714813	15.487357	-4.368233	-7.054315	-0.49414	-0.585147	-0.19919
-1.601351	0.669971	9.818139	1.785086	6.002974	2.607173	0.616502	0.214813	-1.068885	8.399041	-2.392399	9.229327	-4.297982	14.273491	26.784944	0.500038	0.160946	-0.95989	9.188171	1.920398	-0.357325	16.722989	-4.67851	-6.201594	-0.480161	-0.585769	-0.183592
-1.37225	0.554923	9.822111	3.936035	6.528814	3.192208	0.605054	0.153389	-1.079609	8.108688	-2.335624	9.11005	-3.176056	9.636232	20.727967	0.511607	0.110772	-0.899756	9.136588	2.038416	0.061417	17.499742	-5.338902	-4.184189	-0.49386	-0.569781	-0.1845
-1.948011	0.382289	9.639693	2.981862	6.379762	2.39518	0.604282	0.180931	-1.08644	8.453973	-2.27994	9.117351	-1.559748	4.976866	14.301294	0.538306	0.203917	-0.920679	8.963962	2.504665	0.359628	16.01151	-6.291203	-4.296502	-0.508047	-0.585351	-0.199261
-1.940216	0.383977	10.037664	3.638028	8.099182	2.819912	0.631794	0.155826	-1.041495	5.931182	6.691887	21.131099	123.305958	-158.450921	-55.195633	0.512059	0.202695	-0.905777	9.193403	2.037786	-0.057296	15.481915	-6.934811	-4.352636	-0.494486	-0.618359	-0.181988
-1.373447	0.669564	9.76574	4.315925	8.31084	3.404081	0.604639	0.201759	-1.118008	8.412882	-3.065507	12.512645	59.817655	-141.794042	-3.632198	0.487137	0.176191	-0.960618	8.832029	2.327493	-0.422104	15.586044	-6.335637	-3.102832	-0.494344	-0.620011	-0.150933
-1.032023	0.496509	9.657991	3.683894	9.71415	4.072719	0.631409	0.169597	-1.044911	4.1667	-5.141381	12.874548	-0.545622	-74.694919	-55.048804	0.500107	0.116056	-0.971229	9.065892	2.326459	-0.537516	15.010897	-6.109744	-1.482025	-0.466115	-0.568547	-0.199887
-1.712768	1.015427	9.987919	3.25977	10.98114	3.297183	0.646258	0.193579	-1.090904	-0.524905	-4.462496	6.09614	-10.30787	-73.039395	-36.267609	0.474011	0.145475	-0.958335	9.654143	2.673317	-0.584935	14.342781	-5.665967	-0.259217	-0.466182	-0.586392	-0.167994
-1.310252	0.153755	10.048947	3.734287	12.724491	4.244168	0.633295	0.15264	-1.080307	-3.412551	-3.495052	11.075008	35.73385	-95.056413	-28.003014	0.486616	0.129158	-0.943257	8.999349	3.196498	-0.834443	13.216568	-4.300835	0.441293	-0.452483	-0.60238	-0.167087
-2.104185	0.385791	10.432295	2.544024	14.645041	2.43877	0.675271	0.165287	-1.084771	-0.166228	-5.866258	11.990309	48.609092	-43.46342	-44.988964	0.447243	0.09722	-0.926073	9.573199	4.527929	-1.536635	10.463795	-2.055749	1.265751	-0.48044	-0.601136	-0.198283
-2.052581	0.499426	10.149626	-0.503521	16.771747	3.371461	0.605783	0.177745	-1.125253	-0.222843	-3.446085	9.556845	-3.421401	-37.979524	-23.089859	0.46096	0.13008	-0.957055	10.267378	4.871799	-2.240829	11.500479	1.019685	5.923573	-0.507697	-0.570812	-0.169042
-1.587533	0.04101	10.497722	0.712254	18.721083	5.423674	0.675271	0.165287	-1.084771	0.079012	-4.460099	10.128432	-23.078538	-24.330357	-24.048915	0.448204	0.115756	-0.970126	10.746474	3.768263	-1.997095	12.621966	3.737567	9.696574	-0.480023	-0.568751	-0.199957
-1.81783	0.2707	10.43738	5.717477	21.595844	3.309291	0.632137	0.193953	-1.090555	0.524144	-4.630569	9.401647	-15.329825	-3.478162	-4.290901	0.447839	0.159574	-0.944437	10.290791	2.378485	-1.292949	10.108589	3.258459	1.914067	-0.48009	-0.586596	-0.168064
-2.006343	1.87581	9.644853	-6.873968	24.407138	7.715261	0.646658	0.162508	-1.069996	-0.070482	-3.559875	8.597504	-5.777403	-0.102621	-0.211189	0.447764	0.144253	-0.943433	9.939475	3.077196	-1.056958	10.995513	0.132876	-6.11213	-0.49421	-0.584321	-0.214718
-2.803238	0.038985	9.792102	-18.418734	25.543625	8.472288	0.64663	0.197107	-1.10498	-1.107676	-4.290327	8.461848	-8.170258	-3.744875	-1.174172	0.447688	0.128933	-0.94243	10.112682	3.308354	-1.232388	16.522349	-2.810936	-0.525238	-0.536001	-0.602778	-0.183036
-2.742892	0.384316	9.965222	-15.846913	30.545325	7.50352	0.646287	0.15898	-1.05592	0.064075	-4.235346	9.448947	1.093315	-11.120959	0.640452	0.434788	0.144178	-0.943158	10.009611	2.556602	-0.51892	16.967824	-3.984355	3.665916	-0.508607	-0.616084	-0.228642
-1.454888	2.68758	11.534405	-9.06524	36.035917	8.493237	0.632923	0.149112	-1.066231	0.730467	-4.124927	8.330757	11.011475	-13.439457	-0.700228	0.421881	0.099214	-0.954221	9.425647	2.733664	-0.169741	11.778829	-3.831127	1.850164	-0.480228	-0.603614	-0.1517
-1.63242	1.422543	11.184637	-8.616439	39.423478	8.056343	0.64663	0.197107	-1.10498	0.060556	-4.291819	9.278981	-1.414107	-6.734086	0.157976	0.435158	0.160571	-0.958511	9.778279	3.836546	-0.098535	8.749578	-3.020521	-0.679465	-0.480302	-0.584117	-0.214648
-1.56226	2.057253	11.870642	7.20307	38.700273	10.544351	0.689406	0.147614	-1.067628	0.226561	-3.954396	8.999694	6.427608	-9.485906	0.106095	0.434712	0.128858	-0.942154	10.491819	3.429382	0.152568	9.539767	-1.036394	-0.019415	-0.507839	-0.569159	-0.200098
-1.409053	1.536054	10.905308	14.375593	45.338323	8.055637	0.64743	0.134966	-1.063165	-0.056238	-4.686012	9.162952	14.206017	-7.199058	3.125427	0.460219	0.097295	-0.926349	10.421799	3.427045	-0.447602	12.530298	0.655106	3.079134	-0.480511	-0.600309	-0.213811
-1.744827	1.595433	11.29684	4.570972	54.304155	2.004196	0.676057	0.120446	-1.060447	-0.012593	-3.728975	8.598571	19.187202	-6.58114	2.703984	0.434712	0.128858	-0.942154	10.60518	3.544275	-0.084365	16.380318	1.142942	1.595817	-0.536348	-0.63599	-0.165834
-1.962129	0.79383	11.857539	7.188878	61.888359	0.893241	0.703912	0.133468	-1.064562	0.051663	-4.066829	8.882693	-2.346439	-2.358607	-0.230861	0.434712	0.128858	-0.942154	10.294963	3.425337	-0.929058	18.013073	0.930995	-3.971475	-0.480369	-0.601962	-0.182755
-2.008497	1.140933	12.426404	7.407419	66.733177	1.8914	0.703155	0.143711	-1.053901	0.051447	-3.954167	8.882788	4.888943	-4.02731	1.731369	0.421881	0.099214	-0.954221	10.21944	3.421764	-1.828762	15.336332	2.241836	-10.385873	-0.493931	-0.568955	-0.200027
-2.076348	0.391822	11.853623	11.149064	76.421856	2.590149	0.744745	0.170129	-1.061781	0.268281	-4.518473	8.207474	-2.391679	-3.493219	-0.303836	0.421737	0.128783	-0.941878	10.216699	3.653573	-1.947586	10.815526	4.842087	-11.971038	-0.452345	-0.585361	-0.183452
-2.418885	0.564636	11.904519	8.142417	85.564421	2.594099	0.730996	0.174032	-1.075507	0.059024	-4.122875	9.222483	-17.523386	-0.853797	-1.92365	0.420996	0.095998	-0.911172	9.684474	4.119397	-1.955513	7.057143	6.222696	-7.746672	-0.494277	-0.602166	-0.182825
-2.305241	0.219663	11.848445	11.460862	95.421134	4.492828	0.689034	0.144085	-1.053552	0.276204	-4.236488	8.604188	-18.661677	-0.442009	-1.458052	0.39608	0.129705	-0.955677	9.395145	3.5403	-1.72386	7.498288	6.76849	-1.210653	-0.452345	-0.585361	-0.183452
-3.05219	0.794135	11.722676	9.619665	104.190428	5.315375	0.730281	0.132377	-1.012372	0.044625	-4.179774	8.542761	-28.033402	1.065683	-1.697223	0.447908	0.114684	-0.955776	9.336264	3.482359	-1.725207	6.787285	6.710661	4.140764	-0.480302	-0.584117	-0.214648
-2.077461	0.391581	11.79677	10.963052	112.011952	7.002681	0.731767	0.14649	-1.068676	0.295676	-3.672377	9.567536	-24.163522	-8.307017	-5.116717	0.39623	0.160345	-0.957684	9.165258	3.251697	-1.429963	2.973933	7.050444	5.467208	-0.466115	-0.568547	-0.199887
-2.25603	0.562582	11.453034	11.45696	121.1183	8.805309	0.774143	0.128067	-1.052232	0.448577	-4.06782	8.607957	-41.664811	-9.455117	-4.18655	0.421511	0.082822	-0.938867	8.458299	3.195488	-1.383509	-1.441887	6.892036	4.475342	-0.438854	-0.617542	-0.181707
-2.59605	0.333788	11.615948	7.627365	130.023331	10.310434	0.800527	0.109676	-0.98255	0.053411	-4.348434	8.939096	-41.530515	-11.133391	-5.189619	0.39608	0.129705	-0.955677	8.932474	2.788123	-1.316529	-4.289746	6.095934	3.57254	-0.48072	-0.616502	-0.212974
-2.659079	0.619831	11.331775	10.266214	139.452783	11.529466	0.801641	0.120261	-1.024778	0.384297	-4.349649	8.266674	-37.359111	-11.137579	-5.833688	0.39601	0.174594	-0.944338	8.649654	3.198297	-0.601418	-5.944252	6.411626	5.01353	-0.480369	-0.601962	-0.182755
-2.947413	0.38979	11.211536	8.310288	149.010522	13.070463	0.773029	0.117482	-1.010004	0.278298	-4.067402	8.71761	-34.233169	-10.67006	-5.61073	0.447984	0.130005	-0.95678	8.530521	3.19832	-0.663525	-6.705201	6.762702	6.29831	-0.452904	-0.616094	-0.212833
-3.158242	-0.123158	12.11456	11.02686	156.697761	13.494299	0.813504	0.133315	-0.975655	0.805149	-4.856715	9.067664	-34.972663	-10.468222	-5.085246	0.383185	0.20516	-0.946069	8.585966	3.313595	-0.841651	-7.960586	8.014585	6.082931	-0.522022	-0.603401	-0.167438
-3.449957	-0.296482	11.824003	19.623301	163.360028	14.589847	0.827625	0.132941	-0.976004	-0.067328	-4.965754	11.31381	-33.795013	-10.148671	-4.772844	0.435604	0.192283	-0.974868	8.342738	3.0801	-1.26639	-7.654265	8.764694	4.641725	-0.452762	-0.617746	-0.181778
-3.750912	-0.012203	11.080552	23.622103	169.470939	16.364288	0.856652	0.08735	-0.952379	0.44197	-4.406088	8.267835	-31.047203	-0.090159	0.415994	0.422408	0.206457	-0.961246	8.052619	3.314316	-0.971369	-8.391966	10.030772	3.232418	-0.480302	-0.584117	-0.214648
-4.137134	-0.12366	11.811365	29.67053	174.381068	19.217207	0.856251	0.11842	-0.973287	0.499728	-5.13854	8.211788	-31.162926	-1.642905	3.205828	0.395941	0.219483	-0.932999	7.696592	3.19848	-1.09828	-6.153444	11.24539	4.868963	-0.480299	-0.602788	-0.167227
-4.159363	-0.185927	10.674062	32.973688	175.827037	23.064217	0.898256	0.096469	-0.942767	0.15807	-5.194081	8.374406	-25.535229	-1.291354	2.566458	0.434718	0.189068	-0.931819	8.057426	3.141077	-0.732483	-4.126446	13.25841	6.135712	-0.466186	-0.56772	-0.215415
-4.754301	-0.018013	9.526589	34.365259	172.569968	23.743175	0.954767	0.060372	-0.90918	0.280346	-5.137682	8.716709	-22.568599	-1.222456	2.477045	0.396306	0.175666	-0.958687	7.884894	2.619539	-0.558289	-2.835633	15.385803	7.924195	-0.452837	-0.598249	-0.244726
-6.530385	0.097914	9.435701	33.245192	167.666706	19.588362	0.954395	0.056844	-0.895104	-0.01294	-4.179666	8.541552	-20.527499	-1.043462	2.511295	0.39542	0.17245	-0.915638	8.573705	2.904096	-1.562265	-1.625071	16.244192	8.160233	-0.466603	-0.600105	-0.213741
-8.469495	1.996824	9.86063	30.585824	152.855732	21.685658	0.940289	0.039919	-0.877263	-0.071391	-4.348598	8.483561	-13.83509	-1.823069	3.433776	0.409212	0.22063	-0.947624	8.049143	2.441939	-1.274612	-0.723093	16.44989	9.28689	-0.50889	-0.612779	-0.290753
-6.947252	0.784125	8.634859	62.505172	144.448576	25.74997	1.008648	0.034176	-0.812045	-0.020779	-5.137665	8.087629	-8.915061	-1.262857	2.333487	0.421522	0.203241	-0.918197	8.513589	2.903984	-1.623272	-0.664786	16.64281	8.399372	-0.466465	-0.583087	-0.230106
-6.926743	0.776122	6.75982	50.542803	135.480267	28.827541	1.00942	0.006634	-0.805214	-0.020432	-4.686973	8.144648	-7.575035	-0.441464	1.232917	0.435164	0.22078	-0.948176	8.872243	3.310942	-1.315404	1.577705	15.424687	8.641583	-0.495399	-0.64496	-0.289009
-4.610417	0.033273	8.108844	56.039409	112.387514	30.214716	1.037275	0.019656	-0.809328	0.211685	-5.02534	8.205838	-0.439815	-0.472977	1.14586	0.422113	0.205385	-0.946896	9.393754	3.19135	-1.845157	1.999682	13.302145	9.93392	-0.466469	-0.564415	-0.277526
-1.764904	-4.810817	4.165645	58.57262	84.836974	33.132409	1.108249	0.021311	-0.82515	0.620148	-4.744205	8.497736	2.836742	-0.278909	1.273739	0.46104	0.20561	-0.947724	9.691036	3.191169	-1.719841	0.68359	11.412465	8.816794	-0.467025	-0.613819	-0.259487
-0.678716	-5.616269	4.069717	9.629528	35.945355	70.096643	1.051438	-0.032617	-0.757202	0.326924	-5.081886	8.208209	4.288318	-0.291353	1.305611	0.408691	0.173597	-0.930264	9.740688	2.956505	-2.258891	-1.888797	9.313677	3.823562	-0.52238	-0.580598	-0.292498
0.653745	-3.188472	7.913506	8.635313	-6.87912	119.333556	1.024712	-0.052353	-0.777824	0.045249	-5.13744	8.485315	3.734608	-0.142869	0.967532	0.396161	0.205235	-0.946345	9.453871	3.191462	-1.784149	-4.616975	7.559056	-1.965174	-0.466465	-0.583087	-0.230106
1.866559	-2.267865	8.509281	27.358647	-37.148529	128.901048	1.02394	-0.024811	-0.784655	0.274194	-5.081588	8.433558	3.490226	0.068851	0.938613	0.421667	0.173672	-0.930539	9.858606	3.479166	-2.194558	-5.950426	5.298875	-5.708677	-0.453184	-0.63146	-0.227524
2.692339	-1.241535	6.881587	45.35385	-56.869552	124.05495	1.05181	-0.029089	-0.771278	0.04635	-5.081062	8.542002	4.19856	-0.076867	1.153531	0.408992	0.234879	-0.934278	9.513447	3.423878	-1.722153	-5.506052	3.409932	-6.281939	-0.494703	-0.597209	-0.275992
3.302219	-1.418659	5.869756	31.027756	-63.106948	98.955945	1.025112	-0.083424	-0.756916	0.278598	-4.856077	8.660306	2.658744	0.243868	0.693059	0.422037	0.190065	-0.945893	9.513717	3.307726	-1.722648	-4.24808	1.780603	-5.05626	-0.453117	-0.613615	-0.259417
4.100565	-1.592287	5.714062	12.910444	-66.416889	71.704482	0.983122	-0.078772	-0.769944	0.338127	-5.250451	8.717823	2.967878	0.277446	0.847782	0.383185	0.20516	-0.946069	9.167884	3.542818	-1.249006	-2.460029	1.414914	-4.572003	-0.480795	-0.597004	-0.275922
3.930573	-0.959823	5.827082	-11.328506	-68.224664	36.917443	1.024341	-0.055882	-0.763748	0.388894	-4.856482	8.436166	3.185108	0.342526	0.694464	0.3952	0.186699	-0.902292	9.167614	3.65897	-1.248512	-1.781223	1.820064	-5.065382	-0.43872	-0.581852	-0.245493
3.305186	-0.900961	6.042487	-23.433023	-68.68968	-0.159383	1.011377	-0.09682	-0.753151	0.277736	-4.405432	8.660686	3.250674	0.59205	0.172919	0.396311	0.235876	-0.948352	9.521846	3.600084	-1.242156	-1.661443	2.479286	-6.658157	-0.494769	-0.615054	-0.2441
2.461343	-1.586501	6.761979	-35.696223	-67.728362	-32.957079	0.998714	-0.047734	-0.844089	0.276612	-5.081494	8.546838	3.977725	2.032845	1.636754	0.396751	0.207379	-0.975044	9.163347	3.599905	-1.488386	-1.576295	3.083525	-8.861739	-0.480929	-0.632694	-0.212137
1.416743	-2.220749	6.000192	-41.478851	-65.79894	-56.314967	0.998743	-0.082332	-0.809106	0.166424	-5.137419	8.770931	3.887617	2.245516	1.762109	0.382965	0.219408	-0.932723	8.694924	3.427499	-1.318211	-2.070311	3.548798	-9.656746	-0.467162	-0.630838	-0.243122
0.158591	-2.679128	6.030618	-61.354127	-64.899375	-67.839922	0.998357	-0.068561	-0.812521	0.620125	-5.363888	8.440575	4.235175	0.210981	-0.60078	0.370058	0.174444	-0.943786	9.104311	3.135185	-1.551372	-2.033464	3.692717	-8.771308	-0.495049	-0.63042	-0.25879
-0.339173	-2.272804	6.931935	-77.719358	-66.067484	-71.830983	0.970473	-0.046985	-0.843391	-0.002538	-5.193284	8.937175	2.786871	0.412245	-1.370644	0.39564	0.158202	-0.928984	9.224544	3.135409	-1.429357	-2.640308	3.889184	-7.272563	-0.494978	-0.631246	-0.243262
-0.950333	-1.866156	7.887878	-80.693772	-72.34795	-69.592757	0.970859	-0.060756	-0.839975	-0.067464	-5.13713	8.596176	2.38825	0.59456	-1.893228	0.422257	0.175816	-0.959239	8.872938	3.485417	-1.254756	-3.253856	4.067355	-6.96558	-0.494703	-0.597209	-0.275992
-1.113893	-0.887596	8.343465	-76.835446	-82.151641	-62.982902	0.954424	0.022245	-0.860121	0.338689	-4.91242	8.774747	3.653061	0.429258	-2.294618	0.435384	0.206532	-0.961522	8.874558	2.788505	-1.257722	-3.964423	4.098547	-7.268767	-0.467233	-0.630012	-0.25865
-1.105026	-0.828224	8.798531	-72.81147	-91.865763	-53.396556	0.92544	0.015938	-0.83127	0.339143	-4.518059	8.831719	4.766596	0.565022	-2.138232	0.421887	0.159424	-0.943886	9.219832	2.320862	-1.79226	-4.796614	4.281301	-7.480553	-0.494907	-0.632072	-0.227735
-1.329631	-0.769652	9.021731	-73.954116	-100.239397	-42.148283	0.89757	0.020215	-0.844648	0.280908	-4.799651	8.773633	5.506286	0.422111	-2.293198	0.409212	0.22063	-0.947624	8.747588	2.844873	-1.738931	-5.106796	3.72484	-7.018358	-0.439626	-0.645796	-0.257672
-1.502964	-0.137912	8.964192	-72.331204	-107.67842	-30.862864	0.940689	0.008849	-0.856356	0.400443	-4.574355	9.002799	6.215705	0.367985	-2.015714	0.408396	0.172525	-0.915914	8.749248	3.077672	-1.618128	-5.838619	3.924016	-5.824767	-0.49512	-0.629594	-0.274318
-0.972541	0.49695	9.772811	-69.700237	-114.569736	-21.381836	0.912419	0.044197	-0.890641	0.058331	-5.024258	9.108445	7.266196	0.410568	-1.798649	0.435233	0.175891	-0.959515	8.632296	2.613334	-1.622307	-5.216048	4.101263	-5.002705	-0.467237	-0.61134	-0.30607
-1.196365	1.015296	10.054794	-66.096098	-120.400279	-15.567366	0.898299	0.044571	-0.890292	0.044279	-4.630466	8.485742	6.894579	0.315278	-2.015691	0.408471	0.187846	-0.916918	8.938942	2.847682	-0.95684	-4.444539	4.661596	-5.680528	-0.494632	-0.598035	-0.260464
-1.132595	1.246468	10.397991	-63.504939	-124.635222	-12.576569	0.884178	0.044946	-0.889942	0.162043	-4.743247	8.601344	7.323541	0.101885	-1.37008	0.447474	0.203391	-0.918748	8.870427	2.671364	-1.497844	-3.704462	5.316112	-6.603173	-0.425439	-0.630225	-0.242911
-1.189974	1.418834	10.397602	-62.906968	-127.375481	-12.040072	0.941418	0.033205	-0.901999	0.519416	-4.687089	9.175041	6.797886	0.035502	-1.617787	0.421372	0.1726	-0.91619	8.873748	3.136961	-1.256239	-2.601975	5.458543	-8.16646	-0.453187	-0.612789	-0.274945
-0.715935	0.847464	11.20004	-65.381449	-129.860799	-13.545499	0.899027	0.068927	-0.935935	0.047128	-4.855693	8.598831	5.744353	-0.251998	-1.898946	0.447769	0.204463	-0.933098	9.292094	3.253404	-0.948507	-1.402932	5.283108	-8.536695	-0.481421	-0.645582	-0.273411
-0.885761	1.250162	11.312095	-65.148822	-130.480662	-15.733852	0.827296	0.077514	-0.909453	0.400097	-5.025047	8.94578	6.914093	-0.516711	-1.345733	0.409061	0.189989	-0.945617	9.231687	2.904589	-1.070905	-1.248967	4.725155	-7.770568	-0.439835	-0.661988	-0.256835
-1.455872	0.963851	11.413459	-63.865009	-129.899621	-17.629709	0.870786	0.069676	-0.935237	0.571476	-4.969087	8.892815	5.92297	-0.771555	-1.811484	0.39645	0.146097	-0.97103	9.232362	2.614209	-1.072141	-0.690553	4.627499	-7.008097	-0.4817	-0.660948	-0.288102
-1.626314	0.677009	11.465765	-64.140789	-129.149744	-18.782242	0.85588	0.114892	-0.959211	0.221033	-4.855969	8.659098	6.38606	-0.767286	-1.564445	0.39579	0.188843	-0.930992	9.168289	3.36859	-1.249748	-0.571985	4.450705	-7.618905	-0.467651	-0.662396	-0.256976
-2.132572	0.506988	11.909845	-65.702906	-128.629117	-19.22936	0.799012	0.130162	-0.96123	0.44525	-4.856637	8.380735	6.013973	-0.922296	-2.028706	0.421817	0.204313	-0.932547	9.050236	2.904005	-1.313833	-0.63918	4.709392	-8.995134	-0.425998	-0.660958	-0.272293
-2.422516	0.966003	11.735649	-65.692429	-127.124921	-18.990254	0.799355	0.168289	-1.010289	0.055805	-4.968022	8.995214	4.13496	-0.602651	-2.982705	0.408766	0.188918	-0.931267	8.742511	3.134265	-1.977323	-0.546089	5.360634	-9.823714	-0.467655	-0.643725	-0.304396
-1.898069	0.622911	12.199047	-65.2949	-122.761968	-18.491119	0.755893	0.141528	-0.949522	0.283434	-4.855887	8.886865	6.684775	-1.675673	-2.7447	0.460815	0.159649	-0.944713	9.168249	2.438879	-1.373517	-1.073821	5.396589	-10.524864	-0.46793	-0.677763	-0.271666
-2.007218	0.911408	12.482292	-64.456327	-115.863372	-19.056226	0.770742	0.165509	-0.995515	0.444927	-4.687646	8.380877	6.926184	-2.275175	-4.384344	0.409061	0.189989	-0.945617	8.930273	2.787628	-1.436343	-1.196609	5.550359	-10.647394	-0.454022	-0.677559	-0.271596
-2.29349	0.911615	12.476724	-64.138194	-108.061528	-20.862698	0.757736	0.176469	-1.037394	0.404609	-4.855865	9.172481	6.657851	-1.512272	-4.346146	0.422107	0.145175	-0.957232	8.926027	3.193419	-1.614333	-1.008915	5.359601	-9.883154	-0.43935	-0.611758	-0.290402
-2.912403	1.259133	13.034455	-61.590318	-105.553527	-24.049848	0.758136	0.145398	-1.016486	0.284211	-4.630517	8.943694	8.556815	-2.862073	-5.252046	0.408691	0.173597	-0.930264	8.744826	2.611828	-1.919641	-1.008193	5.109834	-9.392997	-0.453955	-0.659714	-0.303489
-3.088413	0.971085	12.802495	-57.22945	-111.952542	-27.417668	0.743601	0.194143	-1.054536	0.396385	-4.349175	8.83307	9.239269	-2.609736	-5.002366	0.408911	0.159349	-0.94361	9.048036	2.90351	-1.433647	-1.319192	4.834357	-9.482238	-0.453814	-0.661366	-0.272433
-2.980336	0.624905	12.462156	-57.556081	-122.991745	-30.29533	0.743601	0.194143	-1.054536	0.623559	-4.631401	8.66775	11.661132	-4.079168	-5.354134	0.408396	0.172525	-0.915914	9.044869	2.844693	-1.613615	-0.91265	5.197524	-8.965912	-0.439209	-0.613411	-0.259347
-2.85997	0.223938	12.746959	-60.784974	-133.479951	-31.468666	0.729109	0.190989	-1.040111	-0.071953	-4.686628	8.426637	13.291031	-4.698349	-5.975534	0.447544	0.158502	-0.930087	8.815137	2.962868	-1.258081	-1.367682	5.523214	-8.079556	-0.453605	-0.645174	-0.27327
-4.233828	-0.119717	12.718788	-62.073318	-139.470884	-29.813895	0.713103	0.208321	-1.004366	0.05164	-4.686512	8.825532	13.814136	-4.874271	-6.192656	0.408841	0.204238	-0.932271	8.749789	2.845368	-1.619117	-1.758982	5.876249	-6.857381	-0.453747	-0.643521	-0.304326
-4.520638	0.62723	12.716357	-60.103777	-140.798404	-25.853634	0.658107	0.223932	-1.059273	0.445812	-4.518607	8.437659	14.890067	-5.289069	-6.319226	0.408766	0.188918	-0.931267	8.6983	1.975599	-1.324392	-1.907147	6.081632	-6.063231	-0.481704	-0.642277	-0.335522
-6.009828	-0.118673	12.627416	-57.97917	-139.306735	-18.228864	0.658121	0.206633	-1.041781	0.511624	-4.405721	8.83544	16.18524	-5.485053	-6.659237	0.396086	0.189914	-0.945341	9.346262	2.496798	-1.310062	-2.425878	6.255724	-5.328708	-0.467863	-0.659918	-0.303559
-7.45711	0.338517	11.805566	-57.799586	-135.869542	-9.401791	0.656978	0.230647	-1.034537	0.680024	-4.687887	8.612271	16.339623	-5.483496	-6.597442	0.408841	0.204238	-0.932271	9.15906	3.075985	-1.790146	-2.577448	6.498634	-5.207072	-0.440047	-0.659509	-0.303419
-8.322892	-0.81138	11.386066	-56.80992	-131.683276	1.489398	0.615345	0.256126	-1.079133	0.444496	-4.462323	8.381067	15.754073	-5.426391	-7.090588	0.370574	0.161267	-0.971482	8.987629	2.554695	-1.556045	-3.062993	6.885712	-4.351432	-0.440118	-0.658683	-0.318947
-9.59148	-0.697516	10.907227	-49.792466	-125.550718	14.050084	0.603511	0.208473	-1.093272	0.571715	-4.462065	8.949881	15.072337	-5.617803	-7.278005	0.382438	0.112165	-0.925698	9.10265	2.902386	-1.672174	-4.557933	7.440067	-2.270443	-0.439768	-0.644143	-0.288728
-10.817496	-0.299621	9.691618	-51.639596	-113.992703	24.515698	0.615359	0.238827	-1.061641	0.048899	-4.517615	8.712395	14.7984	-5.285011	-7.120779	0.382959	0.159199	-0.943058	9.344061	2.496303	-1.429876	-5.873401	7.912458	-1.075997	-0.467792	-0.660744	-0.288031
-9.595836	-4.280503	19.302942	-85.363456	-82.836234	37.107725	0.585189	0.308431	-1.078022	0.460319	-4.518037	9.117334	15.007197	-5.951082	-8.021235	0.383254	0.16027	-0.957408	8.579208	2.905332	-1.26273	-7.063589	8.567894	0.208822	-0.454164	-0.675906	-0.302652
-13.40116	-1.103626	9.240161	52.419135	-49.059707	24.044474	0.502752	0.262651	-1.090415	0.167333	-4.348697	8.884874	15.529286	-6.189545	-8.054013	0.38355	0.161342	-0.971758	8.625849	3.01863	-1.920111	-8.008639	8.668221	2.014992	-0.481141	-0.630216	-0.25872
-13.595475	8.543299	8.481418	-23.195387	-26.127802	14.914115	0.587461	0.277703	-1.110002	0.33949	-4.067367	8.888738	16.54062	-6.820196	-8.121125	0.396155	0.145025	-0.95668	8.507236	2.321493	-2.045092	-8.855848	10.000724	3.020296	-0.454164	-0.675906	-0.302652
-15.010294	7.226557	9.243974	-1.124476	-0.438096	5.63892	0.586704	0.287946	-1.099342	0.748469	-4.687568	9.123237	19.958976	-7.662586	-8.650819	0.409357	0.191061	-0.959967	8.331713	2.612773	-1.927344	-8.569009	11.101751	3.136258	-0.426348	-0.675498	-0.302511
-16.634999	7.178038	11.03074	22.234431	24.049473	-8.444374	0.57184	0.281264	-1.070841	0.685637	-4.462328	8.895659	24.052762	-8.804229	-8.99798	0.395565	0.142881	-0.927981	8.514804	2.3813	-1.625497	-10.829889	11.582076	6.198556	-0.481842	-0.659296	-0.319157
-16.830358	9.011466	9.89806	44.862604	57.745267	-27.499328	0.558477	0.271396	-1.081152	0.112401	-4.461155	8.996849	27.037258	-9.744721	-9.436515	0.383254	0.16027	-0.957408	8.462121	2.49907	-1.266662	-14.932104	11.387475	11.777187	-0.453888	-0.641869	-0.335382
-16.667928	12.686153	9.575726	61.966204	102.230812	-57.807717	0.543599	0.282013	-1.070142	0.583672	-5.024943	9.459163	31.268537	-12.289468	-10.660683	0.395194	0.126489	-0.912627	8.060552	2.270184	-0.676285	-18.291904	10.818349	18.333317	-0.439839	-0.643317	-0.304256
-5.857482	4.907748	6.002408	120.003894	99.987602	-63.840444	0.602753	0.218716	-1.082612	0.808452	-4.687581	9.237725	36.053223	-15.098174	-12.657711	0.408911	0.159349	-0.94361	8.583609	2.906321	-1.023103	-20.594451	9.145821	22.506871	-0.440327	-0.674876	-0.318109
4.220656	-1.336466	11.855161	56.059544	111.84793	-79.233361	0.572983	0.25725	-1.078085	0.924337	-5.08211	9.239811	37.248562	-18.700186	-17.563253	0.395565	0.142881	-0.927981	9.046955	3.368119	-1.431669	-18.592152	6.203164	20.832413	-0.453538	-0.627329	-0.305163
1.764526	-0.126964	12.153467	80.998417	101.76474	-54.986363	0.587132	0.222277	-1.043451	1.010245	-5.36278	10.543493	41.033808	-25.290118	-24.808365	0.408095	0.111244	-0.911899	9.106977	4.356018	-1.246645	-13.133722	1.43201	16.739372	-0.467655	-0.643725	-0.304396
-4.401137	3.603209	10.173857	96.261784	119.005896	-3.218841	0.602753	0.218716	-1.082612	0.610459	-5.756244	10.647978	45.462851	-37.373605	-34.943456	0.395489	0.127561	-0.926977	9.399027	4.238449	-1.421358	-6.372856	-4.341875	15.428069	-0.439701	-0.626298	-0.320621
-3.84732	1.140812	12.049654	107.860189	97.546912	51.470539	0.603511	0.208473	-1.093272	4.803608	-6.438121	12.943395	45.69804	-55.742223	-39.657244	0.383029	0.114309	-0.954397	9.877583	3.367217	-1.176636	0.786816	-8.895751	17.563556	-0.453814	-0.661366	-0.272433
-2.157922	-2.945536	10.474039	50.444937	84.432121	54.641788	0.617645	0.190799	-1.07613	1.373485	-7.109103	11.228952	48.700007	-65.196289	-42.184014	0.395779	0.068423	-0.951662	10.341469	3.59671	-1.586191	5.642627	-12.511512	19.886354	-0.453191	-0.594117	-0.322365
-3.609223	-0.638353	12.444599	29.118788	46.612839	-0.736924	0.631752	0.207724	-1.093971	-1.285896	-5.583553	10.778145	43.133031	-87.907528	-18.400578	0.356857	0.128408	-0.9405	9.633275	3.598331	-1.599397	6.75025	-12.592748	25.171061	-0.467517	-0.626707	-0.320761
-3.623787	1.024557	11.76936	107.805306	2.586048	-26.706279	0.660407	0.158605	-1.05627	2.042154	-0.121024	16.231206	38.020155	-94.349232	-47.321906	0.383839	0.102204	-0.996443	9.879514	3.483864	-1.056327	7.367362	-11.373844	34.700907	-0.454302	-0.692925	-0.286287
-0.985934	1.171008	6.195075	44.239178	9.634611	-7.545922	0.687119	0.195641	-1.05314	0.889629	-8.571494	12.689468	101.669684	-98.057211	-65.124166	0.370423	0.130626	-0.969475	11.191365	3.832563	-0.251845	10.54397	-12.571172	42.15475	-0.467517	-0.626707	-0.320761
-1.44093	0.954642	9.254155	21.272617	14.851135	10.882885	0.689005	0.178684	-1.088536	1.547966	-4.00858	14.292516	22.186847	-76.825442	-50.982811	0.304727	0.082146	-0.936386	11.548027	2.728309	-0.249939	12.964237	-12.963926	45.480378	-0.467863	-0.659918	-0.303559
-1.802236	-1.277085	11.169955	23.997314	3.83386	-3.012256	0.703155	0.143711	-1.053901	1.030711	-4.68596	11.563575	23.242491	-98.915013	-58.137036	0.292116	0.038254	-0.961799	11.022539	3.137539	0.101329	12.84389	-9.492876	41.031092	-0.495403	-0.626289	-0.336429
-1.89319	0.668972	9.528306	49.081259	2.794381	-4.082766	0.660764	0.179433	-1.087837	1.79808	-4.517611	12.485667	30.268386	-107.706439	-60.715516	0.279586	0.069891	-0.97788	10.897749	2.729547	-0.321951	9.884242	-7.493071	27.030658	-0.481283	-0.628563	-0.289776
-1.626386	1.411404	8.570508	29.866582	3.469257	1.718468	0.660407	0.158605	-1.05627	1.351932	-5.079532	13.098557	20.529142	-118.345565	-62.062031	0.266384	0.023855	-0.974593	10.849488	3.313162	0.338397	5.570378	-8.051975	11.551181	-0.453676	-0.644347	-0.288798
-1.43371	0.20935	9.592137	16.267922	0.65671	0.239855	0.660407	0.158605	-1.05627	0.835399	-4.627823	13.201335	27.250225	-126.719754	-63.496087	0.278625	0.051355	-0.933827	10.607691	4.358328	0.158724	2.386426	-10.165888	1.914413	-0.453538	-0.627329	-0.305163
-1.22185	0.837422	8.746449	26.887844	-0.193342	-1.76729	0.675671	0.134217	-1.063863	0.712691	-4.4589	12.859222	21.171305	-143.620215	-67.151991	0.226646	0.035735	-0.931721	10.022607	4.070287	0.386111	1.032011	-11.575485	-1.252502	-0.467588	-0.62588	-0.336289
-1.787963	1.183933	9.07788	10.312893	-0.250453	-0.800457	0.661536	0.151891	-1.081006	1.170774	-5.079541	12.698453	23.010495	-160.054896	-75.297098	0.200474	0.049833	-0.917823	9.603161	3.953597	0.018472	1.435837	-12.324844	0.369439	-0.453467	-0.628155	-0.289635
-1.377983	0.783482	9.53881	6.91559	0.315483	-0.597472	0.688634	0.175156	-1.07446	1.517628	-7.108181	12.59072	23.088431	-173.975961	-81.908183	0.239327	0.034738	-0.917647	9.366961	4.012213	0.014318	0.853229	-12.643539	1.412216	-0.467655	-0.643725	-0.304396
-1.779961	0.898414	9.474646	5.105794	0.186547	-0.809034	0.688648	0.157856	-1.056968	1.334661	-5.530887	12.248584	41.783987	-180.805758	-85.443962	0.161766	0.035359	-0.930342	8.883673	3.604042	-0.655192	-1.658142	-12.750283	-0.962088	-0.495329	-0.645786	-0.273481
-1.264174	0.208743	9.481771	-4.287421	0.879623	1.989372	0.661164	0.148363	-1.06693	1.104615	-5.643117	12.243653	44.399583	-186.764389	-89.199758	0.14879	0.035284	-0.930066	8.657917	3.432579	-0.121174	-4.354856	-12.329201	-4.163368	-0.495399	-0.64496	-0.289009
-1.593349	0.384453	10.214904	3.791248	0.483888	-0.463069	0.647401	0.169565	-1.098148	2.3011	-4.85718	11.759948	53.138221	-187.097507	-91.692658	0.109712	0.004418	-0.927232	7.414736	3.666977	-0.323015	-5.718264	-12.041774	-5.810131	-0.467584	-0.644551	-0.288868
-1.091338	0.266301	9.542206	1.856818	0.078489	-0.740102	0.674899	0.161759	-1.070695	2.156156	-5.703155	10.284189	66.357507	-187.246296	-94.889023	0.083019	-0.028516	-0.895973	7.827559	3.317328	-0.376702	-5.148363	-12.409649	-2.570883	-0.481074	-0.612371	-0.290613
-1.313675	0.267915	9.878871	4.001894	0.183134	-0.959252	0.646301	0.141681	-1.038429	2.92509	-7.227153	8.430727	69.117516	-181.614492	-96.433629	0.082874	0.001053	-0.883631	7.883699	3.607079	-0.494179	-3.395947	-13.570136	3.785418	-0.481425	-0.626911	-0.320831
-1.887582	0.612737	9.812331	4.826507	-0.336835	-0.847404	0.689806	0.116543	-1.046721	3.188439	-6.439966	7.361283	74.459256	-174.077514	-93.303077	0.081983	-0.062373	-0.850917	8.482374	3.259003	-0.06531	-1.802323	-14.380846	8.79608	-0.481287	-0.609892	-0.337196
-2.175956	0.440137	9.692333	6.512902	-0.049596	-1.092935	0.646658	0.162508	-1.069996	6.041122	-3.570921	9.178765	85.096123	-165.827235	-95.154383	0.004272	-0.092392	-0.861605	8.482104	3.375155	-0.064815	-1.886696	-14.055125	9.803481	-0.439768	-0.644143	-0.288728
-1.19104	-0.190012	10.277139	5.749392	0.095618	-0.659024	0.661565	0.117292	-1.046022	7.589466	-0.867629	11.874535	129.533428	-151.275696	-75.031704	0.030299	-0.076921	-0.86316	8.838247	2.96806	-3.6e-05	-3.568393	-12.03901	9.463731	-0.50889	-0.612779	-0.290753
-1.365569	0.55637	10.163229	-1.549249	-0.144521	-1.439289	0.661936	0.120821	-1.060098	2.869692	-1.652187	6.339756	174.130585	-108.707424	-78.579955	-0.00937	-0.109931	-0.831626	8.956569	3.316493	0.063555	-4.042392	-9.314399	9.055096	-0.481909	-0.677141	-0.287264
-1.894221	0.553848	9.470971	10.689151	0.603064	-0.020969	0.687891	0.168099	-1.046308	-2.56032	-5.926602	2.258951	95.809725	-68.305969	-38.01555	-0.034731	-0.107937	-0.859774	9.19688	2.910163	0.245947	-3.974663	-6.221017	5.708536	-0.4534	-0.61031	-0.321528
-1.543066	0.785054	9.876589	2.56897	0.279867	0.76385	0.703898	0.150767	-1.082053	-4.088197	-7.953074	0.583264	7.340044	-19.984864	3.670998	-0.035252	-0.154971	-0.842414	9.608468	2.618343	0.1326	-2.87035	-3.287796	0.464156	-0.467655	-0.643725	-0.304396
-1.431649	0.439598	9.706808	3.642781	0.751067	0.308399	0.690163	0.137371	-1.078288	-11.523619	-8.279917	-2.743579	-24.375573	32.74663	41.504371	-0.036658	-0.205219	-0.782004	9.549337	3.14141	0.193631	-0.900955	-1.472492	-2.852399	-0.467375	-0.628359	-0.289706
-1.656254	0.498171	9.930008	3.087601	0.445693	-0.093648	0.647044	0.148737	-1.066581	-14.323155	-8.839519	-4.557908	15.519634	125.739176	9.689699	-0.00952	-0.140572	-0.829619	9.554704	3.200722	0.493413	2.267504	0.170784	-0.946285	-0.440256	-0.675702	-0.302582
-1.722499	0.611165	9.474552	1.984168	0.44089	-0.121218	0.645915	0.155452	-1.041844	-13.405174	-3.205523	-1.476494	60.514313	151.206344	-26.27389	-0.010186	-0.158036	-0.799916	10.0205	3.082006	0.142281	4.706739	1.915175	2.765255	-0.494911	-0.613401	-0.275155
-1.891828	0.324564	9.583712	2.534996	0.351965	-0.185585	0.632566	0.128284	-1.034664	-11.158342	-3.655602	4.005258	72.650907	128.863251	-5.893968	0.004266	-0.152602	-0.87194	9.666403	3.082816	0.135678	5.85816	3.110078	2.969327	-0.481562	-0.643929	-0.304466
-1.489152	0.784289	9.707143	1.368397	0.227077	-0.490936	0.689791	0.133842	-1.064212	-8.029399	-7.378715	4.690445	-38.088469	122.742975	40.754694	0.029182	-0.186308	-0.827435	9.548776	2.908858	0.132736	5.078005	3.590745	0.58592	-0.481074	-0.612371	-0.290613
-1.379962	0.438351	9.423656	1.03258	0.315613	-0.304523	0.661164	0.148363	-1.06693	-7.228718	-3.380662	4.824016	-31.13369	103.877496	43.439809	0.029848	-0.168844	-0.857138	9.134988	3.200184	0.126269	3.430182	3.114025	-1.209042	-0.494773	-0.596382	-0.29152
-1.665203	0.553682	9.475425	0.939861	0.098322	-0.154448	0.675285	0.147988	-1.067279	-7.718061	-4.113282	3.397738	-41.73777	105.745389	70.057528	0.042673	-0.19941	-0.855407	9.316283	2.793988	0.30756	1.71348	1.998796	-3.39799	-0.481421	-0.645582	-0.273411
-1.251185	0.728612	10.16618	0.909463	0.00355	0.058775	0.676042	0.137745	-1.077939	-6.485357	-4.565289	4.498898	-73.396856	113.897638	97.585621	0.043785	-0.150233	-0.901467	8.950527	3.547561	-0.234991	0.319877	1.198157	-3.35856	-0.481633	-0.643103	-0.319994
-1.434823	0.209109	9.535284	0.602764	-0.185054	0.301936	0.675685	0.116918	-1.046371	-4.79608	-4.849308	5.439953	-72.535836	116.049859	98.131913	0.082493	-0.135759	-0.888948	8.957649	2.851885	0.061577	-1.277881	0.809238	-1.792243	-0.453538	-0.627329	-0.305163
-1.605598	0.381799	9.58952	1.491443	-0.274491	0.420596	0.676057	0.120446	-1.060447	-4.029835	-5.35702	6.248197	-83.637252	117.950695	99.868615	0.10845	-0.075399	-0.879164	9.182034	3.139253	-0.531854	-2.38114	1.102947	-0.995023	-0.481492	-0.644756	-0.288939
-1.720231	0.554206	9.588017	1.156533	-0.063375	0.639666	0.676428	0.123974	-1.074523	-3.420225	-5.4131	7.846147	-94.009178	125.516963	94.04627	0.082793	-0.074477	-0.892963	9.595417	3.022156	-0.524645	-3.80384	1.820323	-2.827038	-0.453747	-0.643521	-0.304326
-1.895666	1.013139	9.416048	1.278241	-0.028942	0.363865	0.646301	0.141681	-1.038429	-1.831357	-5.808996	9.464365	-90.453391	134.938712	89.117008	0.082718	-0.089798	-0.891959	9.543814	2.675318	-0.167788	-4.901558	2.255405	-6.828722	-0.4817	-0.660948	-0.288102
-1.770721	0.440812	9.92754	0.975725	0.302463	0.830139	0.632938	0.131812	-1.04874	-0.143157	-5.52971	10.405894	-87.466438	143.830288	89.146247	0.135288	-0.072034	-0.922765	9.541478	2.7329	-0.287354	-6.034581	2.357355	-11.164721	-0.440118	-0.658683	-0.318947
-1.090101	0.094218	9.598335	2.572016	0.584056	1.044795	0.647044	0.148737	-1.066581	0.034721	-5.079153	10.693098	-82.954023	155.390543	82.111609	0.148709	-0.040246	-0.939398	9.60364	2.326727	-0.168171	-5.806238	1.678949	-13.51542	-0.481145	-0.611544	-0.306141
-1.381324	0.782759	9.368251	2.17588	0.919898	1.082061	0.689034	0.144085	-1.053552	-0.232663	-5.021477	11.649974	-84.871723	166.658131	74.452337	0.136173	-0.068818	-0.965814	9.250954	3.141343	0.008408	-4.795647	0.640038	-13.269645	-0.495888	-0.676518	-0.302863
-1.659802	0.784655	9.760655	1.566778	1.156284	1.670342	0.661936	0.120821	-1.060098	-0.090784	-3.837613	13.012738	-77.706525	168.201184	67.813647	0.162056	-0.023778	-0.955027	8.965352	2.853616	0.480925	-3.593169	-0.442346	-11.710284	-0.467655	-0.643725	-0.304396
-1.314048	0.784889	9.881042	2.274318	1.496234	1.7965	0.660436	0.124007	-1.021286	-0.249667	-4.738104	13.574749	-81.012967	170.409235	65.674714	0.21374	-0.00923	-0.942784	9.423041	2.907398	-0.288814	-2.759593	-1.559164	-9.904919	-0.454231	-0.693751	-0.270759
-1.37761	0.266509	9.536639	1.571221	1.487727	2.258399	0.67417	0.137403	-1.025051	2.580438	-3.726625	16.862087	-74.572431	166.545117	64.808961	0.226785	-0.054044	-0.954398	9.483583	3.198137	-0.166663	-2.208228	-2.69905	-8.923538	-0.481074	-0.612371	-0.290613
-1.371261	0.727488	9.879688	1.361708	2.004297	2.696742	0.661193	0.113764	-1.031946	2.589818	-5.080657	14.483295	-58.161354	154.661475	63.563082	0.2147	0.009306	-0.986836	9.244332	2.675004	-0.412918	-2.028282	-3.061354	-9.319749	-0.496167	-0.691885	-0.317553
-1.54521	0.669689	9.7624	1.028741	2.366287	3.163595	0.661536	0.151891	-1.081006	4.525034	-3.449111	16.337031	-63.065945	165.012715	63.816337	0.267195	0.01175	-1.016639	9.067823	2.443105	-0.417208	-1.847566	-3.17674	-9.931063	-0.453884	-0.66054	-0.287961
-1.7192	0.669331	9.645353	0.940967	2.635488	3.781568	0.619189	0.135715	-1.062466	3.655003	-4.689482	13.203885	-36.260429	145.293883	44.032841	0.293222	0.027221	-1.018194	9.190548	2.792527	-0.113989	-2.004158	-3.421059	-10.021011	-0.481425	-0.626911	-0.320831
-1.318585	0.898807	9.654113	0.085411	2.749193	4.245887	0.620703	0.11523	-1.083787	3.247017	-3.956573	13.02612	-64.581829	128.808062	41.132876	0.306198	0.027296	-1.01847	9.242401	2.558358	-0.533226	-1.234316	-3.478519	-10.115206	-0.467166	-0.612167	-0.290543
-1.600196	0.612771	9.874751	-0.063408	3.267784	4.530747	0.648944	0.114481	-1.084485	2.937567	-3.785512	14.718197	-60.62457	101.349505	30.688813	0.34461	0.040698	-0.991601	9.013189	1.979374	-0.240565	-0.527812	-3.812445	-10.116171	-0.453467	-0.628155	-0.289635
-1.662852	0.38184	9.588407	-0.153429	3.606096	4.47517	0.661936	0.120821	-1.060098	4.146047	-5.477833	14.572243	-44.016222	87.623753	24.923751	0.34439	0.054946	-0.978255	9.132902	2.676758	-0.055677	0.118414	-4.056088	-9.995107	-0.439906	-0.661162	-0.272363
-1.426164	0.555688	9.991556	-0.058919	3.912101	4.633207	0.67417	0.137403	-1.025051	2.415659	-3.05234	14.594654	-40.681656	80.646173	29.913097	0.344686	0.056018	-0.992605	9.135373	2.5611	0.063642	0.947923	-4.388939	-10.057643	-0.482401	-0.690028	-0.348539
-1.835853	0.554048	9.528937	0.034718	4.158034	4.667601	0.675285	0.147988	-1.067279	3.596359	-4.126069	13.20315	-42.071852	72.849975	24.285059	0.384129	0.043066	-1.021128	9.137304	2.677747	0.18395	1.995183	-4.414181	-10.214117	-0.481633	-0.643103	-0.319994
-1.320398	0.323909	9.537993	1.019928	4.556557	5.161915	0.689434	0.113015	-1.032645	4.663638	-3.565808	12.037162	-48.464858	73.902315	33.785989	0.370417	0.070417	-0.97981	9.189582	2.734204	-0.174143	2.297941	-4.309328	-11.377003	-0.467863	-0.659918	-0.303559
-1.833502	0.382206	9.64192	2.00282	4.899181	5.164654	0.675285	0.147988	-1.067279	3.319351	-2.829407	13.821232	-62.356749	74.066066	52.182396	0.384354	0.089028	-1.024139	8.842493	2.56227	0.177954	3.010096	-3.970932	-11.320077	-0.454235	-0.67508	-0.31818
-1.31149	0.325839	9.992818	0.385843	5.621498	5.855719	0.662293	0.141648	-1.091666	5.777547	-2.102361	13.137517	-39.09167	79.647059	59.378724	0.39711	0.103351	-1.011068	8.548222	2.214489	0.170968	4.126916	-3.700468	-10.469726	-0.467655	-0.643725	-0.304396
-1.37427	0.267232	9.707198	5.067695	5.507813	4.245711	0.690163	0.137371	-1.078288	5.820021	-3.060751	12.344965	-37.583889	84.333574	62.694743	0.449234	0.089403	-1.025517	9.200161	2.446049	0.363783	5.279398	-3.501157	-8.641218	-0.495817	-0.677345	-0.287335
-1.766475	0.728985	10.156159	1.618965	6.639262	6.052712	0.688277	0.154328	-1.042892	9.606818	-2.843017	11.858547	-43.514282	93.125156	51.708897	0.46258	0.10587	-1.041146	9.194254	2.619041	0.06499	6.863771	-3.145457	-6.998361	-0.495746	-0.678171	-0.271807
-1.829172	0.555495	9.870056	3.72866	6.538379	4.971657	0.689791	0.133842	-1.064212	11.440581	-2.283445	11.557869	-39.175479	81.569393	46.386951	0.449385	0.120044	-1.027525	9.081724	2.620547	0.362323	8.533555	-3.241638	-5.995426	-0.481771	-0.660122	-0.303629
-1.774186	0.612413	9.757704	5.271186	7.580305	5.873492	0.646687	0.12791	-1.035013	14.042813	-1.499146	12.235969	-24.628268	76.021996	41.811334	0.487427	0.117053	-0.985303	8.842608	2.039338	0.115822	10.41646	-3.704424	-4.960944	-0.440327	-0.674876	-0.318109
-1.613806	0.954525	9.193962	3.156294	7.477197	5.969904	0.675671	0.134217	-1.063863	13.325541	-1.555227	10.975344	-9.054105	78.625106	39.506638	0.475562	0.166155	-1.031087	9.028885	2.331538	0.659521	12.457486	-4.329369	-2.978829	-0.440677	-0.689416	-0.348328
-1.542942	0.61273	9.875865	6.342641	7.494859	5.715685	0.702797	0.122883	-1.022334	12.130498	-1.442117	8.912235	-5.01571	72.241356	29.919835	0.487502	0.132374	-0.986306	8.441579	1.578147	0.70521	15.08758	-5.827595	0.839124	-0.454444	-0.691272	-0.317343
-1.773114	0.670096	9.814799	2.455079	7.838853	6.315135	0.717661	0.129565	-1.050835	11.220775	-13.044907	8.373367	148.759248	33.550135	39.061944	0.473936	0.130155	-0.957331	8.842763	2.446118	0.177459	13.174535	-6.701345	1.858808	-0.454581	-0.708291	-0.300978
-1.949331	0.669255	9.584046	4.480102	8.092058	6.497422	0.647801	0.138495	-1.077241	10.598551	8.136209	8.09591	-25.977335	-40.670041	-21.254321	0.487577	0.147694	-0.98731	8.678225	2.275014	0.832392	12.079054	-7.636752	0.247393	-0.453676	-0.644347	-0.288798
-2.060293	0.382854	9.751172	5.675766	8.221604	6.404085	0.68942	0.130314	-1.050136	8.638082	3.12832	10.145043	-39.295591	-29.244856	-26.207024	0.500553	0.147769	-0.987586	9.020217	2.271484	0.180019	14.246901	-7.864225	2.288362	-0.440118	-0.658683	-0.318947
-1.890425	-0.077285	9.638876	3.598843	9.224253	6.579692	0.674156	0.154703	-1.042543	16.025224	4.920338	14.038306	1.467948	-26.177846	-8.017439	0.487647	0.102805	-0.998649	9.249658	1.804605	-0.236905	16.584831	-7.655649	6.588418	-0.468072	-0.67611	-0.302722
-1.882755	0.096728	10.037571	6.73201	9.938005	7.25694	0.689063	0.109487	-1.018569	17.038785	4.976212	15.701453	79.694073	-80.130432	-10.7412	0.487867	0.088556	-1.011995	9.119231	1.453453	-0.959472	20.919523	-8.015365	10.333924	-0.440327	-0.674876	-0.318109
-1.880818	0.499302	10.152966	7.627556	10.736283	7.696668	0.648201	0.107424	-1.056333	7.325491	3.24155	7.966237	113.390101	-91.574459	-10.766158	0.474671	0.10273	-0.998373	9.247727	1.687959	-0.357214	23.97943	-8.142185	11.821162	-0.496376	-0.708077	-0.316716
-1.370971	0.325398	9.877998	8.249988	11.994922	8.083329	0.718404	0.136622	-1.078987	0.235398	-4.634798	3.960618	-43.184006	-38.089773	5.793308	0.422397	0.086037	-0.981917	8.826101	2.03563	-0.782782	23.349461	-8.181307	9.470088	-0.468556	-0.72634	-0.269155
-1.432514	0.094708	9.648507	5.376452	13.212423	7.958055	0.689434	0.113015	-1.032645	-9.716766	2.259314	7.380988	7.022002	-150.434336	-33.354394	0.423207	0.073932	-1.023962	8.931549	3.65951	-1.252913	20.233902	-6.141222	6.323459	-0.45479	-0.724483	-0.300141
-2.329821	0.329239	10.598159	2.937056	15.481262	7.449953	0.675328	0.09609	-1.014804	2.578535	-5.987188	8.481156	-7.270891	-61.510486	-24.929841	0.423282	0.089253	-1.024966	9.218812	4.180036	-1.604628	18.73841	-2.136483	8.968894	-0.468072	-0.67611	-0.302722
-1.9344	0.040534	10.320482	3.32351	17.964099	8.194523	0.70394	0.098869	-1.029578	0.071328	-4.235061	9.788784	-55.985842	-49.867096	-33.268878	0.435517	0.056543	-0.994535	10.577554	4.061026	-1.519905	19.653165	4.168318	14.834685	-0.481771	-0.660122	-0.303629
-1.943805	0.727903	9.868553	2.239372	20.344725	9.217657	0.716889	0.157107	-1.057666	0.430318	-5.023861	10.36177	-70.166965	-36.741063	-23.13124	0.435372	0.086112	-0.982192	10.530872	3.018017	-0.986293	14.974325	6.992581	12.240026	-0.46821	-0.693129	-0.286357
-1.922939	1.134577	10.950451	-5.683582	22.70559	9.186833	0.68982	0.099244	-1.029229	0.067655	-5.47457	9.504543	-39.585415	-13.826012	-7.002834	0.436414	0.180179	-1.016914	10.112547	3.36643	-1.232141	7.543048	6.742121	1.356594	-0.468001	-0.676936	-0.287194
-2.481003	-0.413035	11.615037	-11.01107	30.400248	6.015243	0.70394	0.098869	-1.029578	-0.175188	-3.953594	9.047871	-3.833966	-1.742364	10.533185	0.385321	0.167774	-1.057856	10.063341	4.356577	-0.570062	7.966975	6.230567	0.685111	-0.454026	-0.658887	-0.319017
-3.13637	-0.475569	10.294927	-10.456999	37.698135	10.394897	0.718418	0.119322	-1.061495	-0.068434	-4.630155	8.596603	5.848442	-5.769692	7.479722	0.410237	0.134067	-1.013351	10.409714	3.889181	-1.044693	14.230309	6.997486	11.509118	-0.481562	-0.643929	-0.304466
-3.360804	-2.197926	10.453793	-34.495264	43.061604	15.396409	0.73141	0.125662	-1.037108	0.387254	-4.631207	8.379716	4.877252	-12.645293	-2.762743	0.436113	0.118897	-1.012899	10.462513	3.248479	-1.46566	14.994407	7.858193	20.244336	-0.467584	-0.644551	-0.288868
-1.49642	4.324535	18.246486	4.633778	39.716342	25.563255	0.731796	0.111891	-1.033692	-0.1639	-4.798173	9.500277	-5.173427	-3.334367	2.839979	0.435668	0.087184	-0.996542	10.293032	3.30869	-1.049366	10.673062	7.571763	19.833406	-0.482051	-0.675488	-0.31832
-1.574663	-0.81796	11.119486	49.413949	62.884989	22.376603	0.702054	0.115826	-0.994182	0.636726	-5.194232	9.233671	14.592138	-8.505974	2.095411	0.409721	0.147244	-0.985655	10.536685	3.832812	-0.563484	7.052686	5.9341	14.260566	-0.495612	-0.642481	-0.335592
-2.170529	1.545319	12.936431	9.520971	71.20459	17.597733	0.747074	0.070203	-1.023794	0.281709	-3.954599	8.887624	-1.818328	-4.530417	-0.005407	0.384725	0.10542	-1.039492	10.949393	4.006095	-0.555039	4.673198	4.503988	9.75227	-0.453538	-0.627329	-0.305163
-1.541264	0.740441	12.888448	35.776811	80.335211	17.087945	0.704312	0.102398	-1.043654	0.177327	-4.517309	9.337848	2.803959	-2.854988	1.278925	0.397116	0.163561	-1.000733	10.592285	4.354867	-0.679972	4.76771	3.410423	6.089369	-0.467863	-0.659918	-0.303559
-1.26246	1.830175	12.557481	24.481582	90.172215	12.067281	0.732196	0.080821	-1.012785	0.055959	-3.784986	9.109489	8.922617	-2.510447	2.674544	0.436854	0.151681	-1.043606	10.417552	3.832835	-0.625592	4.435006	3.797188	1.106836	-0.495821	-0.658673	-0.334755
-1.812113	0.973792	13.679789	28.20262	99.793406	7.797065	0.746316	0.080446	-1.013134	-0.010176	-3.72888	8.71185	1.592919	-0.909297	1.482267	0.39652	0.101208	-0.982369	10.76051	3.887629	-1.217811	2.301847	4.604197	-6.68265	-0.467658	-0.625054	-0.351817
-1.823206	0.913937	13.111016	38.551555	109.042444	6.50698	0.732567	0.084349	-1.026861	-0.001845	-4.291901	9.051213	-3.587928	-0.324942	0.528236	0.409941	0.132995	-0.999002	9.874862	4.063882	-1.233576	1.133203	5.894955	-13.591227	-0.467375	-0.628359	-0.289706
-2.447971	0.111177	13.322802	36.325404	120.274425	6.696009	0.78945	0.05178	-1.00735	0.458571	-4.236432	9.060932	-5.815159	-0.654177	-0.340016	0.39689	0.1176	-0.997722	9.343427	3.716394	-1.30487	0.452013	6.425795	-14.874788	-0.481775	-0.641451	-0.35105
-2.564002	-0.865729	13.202767	37.715946	130.862804	8.18283	0.803184	0.065177	-1.011115	0.275665	-3.954836	8.604426	-8.230549	-1.200623	-1.17975	0.38399	0.132845	-0.99845	9.284971	3.94908	-1.245075	0.418492	7.58299	-11.426947	-0.481771	-0.660122	-0.303629
-2.21887	-0.003872	13.326773	44.528159	140.949037	10.075197	0.817362	-0.004395	-0.941497	0.280369	-4.517999	8.77387	-11.995969	-0.999499	-1.735684	0.410161	0.118747	-1.012348	8.689152	3.542415	-1.617251	0.015002	8.614607	-7.793706	-0.467655	-0.643725	-0.304396
-2.518297	-0.293767	12.637762	47.596319	154.761836	12.253584	0.829196	0.043258	-0.927358	-0.009313	-4.179524	8.711471	-15.664197	-0.429822	-2.19539	0.436339	0.164858	-1.01591	8.512644	3.310516	-1.621541	-1.334758	9.248673	-7.455672	-0.453817	-0.642695	-0.319854
-2.924604	-0.352125	12.345461	43.680449	167.754033	16.155965	0.843688	0.046412	-0.941783	0.05462	-4.348386	8.995735	-10.271167	-6.423569	-3.57625	0.358188	0.163336	-0.999906	8.45969	3.544439	-1.262211	-3.778109	9.688995	-9.465938	-0.439913	-0.62382	-0.367204
-2.467516	-0.582464	12.296551	48.570928	182.00073	21.310543	0.873073	0.021649	-0.949725	0.457685	-4.405471	9.00415	-18.400628	-4.267032	-2.143263	0.39689	0.1176	-0.997722	7.991672	3.197804	-1.092778	-4.546434	10.023041	-9.49531	-0.425864	-0.625268	-0.336078
-2.794299	-0.636038	13.142425	36.506876	191.501667	23.584917	0.913948	0.006412	-0.894469	-0.236618	-4.460651	8.819677	-18.464135	-4.391284	-2.021238	0.397926	0.151456	-1.042779	8.396947	3.253205	-1.504176	-4.345596	10.645634	-7.512557	-0.453817	-0.642695	-0.319854
-4.064742	-1.03963	12.547708	68.374895	194.114449	28.288451	0.871201	0.021306	-0.896837	-0.062821	-4.404596	8.879991	-15.320011	-4.962002	-2.425146	0.38399	0.132845	-0.99845	8.113411	3.024048	-0.911598	-2.452236	10.411148	-4.890018	-0.454373	-0.692099	-0.301815
-4.034258	0.563143	11.247957	75.35126	192.169569	29.309929	0.913991	-0.045486	-0.841994	0.682334	-4.631462	8.725598	-13.763479	-3.993576	-2.136813	0.396375	0.130777	-0.970026	7.865221	2.557013	-1.63686	0.001408	10.292827	-1.475384	-0.481913	-0.658469	-0.334685
-4.63323	-1.395486	9.80729	67.058996	184.585794	28.413252	0.927712	-0.014791	-0.863251	-0.239144	-4.404415	8.706445	-12.308143	-3.729225	-2.225498	0.383839	0.102204	-0.996443	7.74802	2.673682	-1.57866	1.064954	10.050303	1.639337	-0.481846	-0.640624	-0.366578
-7.819648	0.449548	10.832866	76.533641	168.575517	32.970277	0.984594	-0.047359	-0.84374	0.161935	-4.686917	8.601391	-10.664829	-3.219814	-1.910831	0.410312	0.149388	-1.014355	7.986285	2.673637	-1.454444	1.165048	9.818843	3.351635	-0.482122	-0.674662	-0.333848
-7.625005	2.694951	12.096385	89.6828	150.894368	40.003634	1.01132	-0.027623	-0.823118	-0.007111	-4.066768	8.824845	-6.833898	-3.171612	-1.845613	0.39711	0.103351	-1.011068	8.22428	2.789743	-1.329734	1.40221	8.316352	3.785838	-0.467796	-0.642073	-0.335452
-5.941868	0.203415	7.344867	135.096081	146.617405	37.534421	0.998014	-0.106688	-0.763462	0.33815	-4.630767	8.774984	-7.688978	-2.357438	-1.406614	0.384655	0.150309	-1.028153	8.452777	2.729396	-1.744928	2.191767	7.317617	3.023652	-0.411818	-0.608045	-0.352373
-2.837699	-0.957587	5.070306	93.252744	127.646304	27.350695	0.998	-0.089389	-0.780954	0.050215	-4.573898	8.768987	-4.991332	-1.499199	-0.810177	0.384285	0.133917	-1.0128	9.398406	2.611331	-1.667908	2.333767	6.565067	1.895881	-0.467517	-0.626707	-0.320761
3.709086	-4.589855	3.136444	53.555992	107.172314	14.989177	1.040019	-0.12864	-0.732942	0.052956	-4.742795	8.882124	-1.648442	-0.93737	-0.524448	0.397185	0.118672	-1.012072	9.457692	2.495044	-1.667302	1.758133	6.229714	-1.370669	-0.467588	-0.62588	-0.336289
9.502905	-8.568163	0.731833	-5.661101	55.317553	16.831228	1.053768	-0.132543	-0.719215	0.172946	-4.123138	9.168262	-0.64688	0.144825	0.042024	0.397411	0.164633	-1.015083	9.517269	2.72746	-1.605306	1.829472	6.02189	-4.91514	-0.481775	-0.641451	-0.35105
8.453875	-3.42098	8.746212	-38.939953	2.425979	49.243588	1.053368	-0.101472	-0.740123	0.332991	-4.461966	8.548568	0.197751	1.040461	0.699	0.370718	0.131698	-0.983825	9.399506	2.611578	-1.608001	1.202814	5.883427	-6.531968	-0.467725	-0.642899	-0.319924
6.98594	-5.208834	6.777889	-6.224122	-24.576724	17.895638	1.05261	-0.09123	-0.729462	0.045164	-4.461427	8.542524	0.513165	1.593527	1.136347	0.410462	0.180028	-1.016362	9.694472	3.133835	-1.540367	1.6072	5.567615	-5.431714	-0.481633	-0.643103	-0.319994
7.015352	-3.663744	5.421044	-4.475307	-35.519233	4.986481	1.039261	-0.118397	-0.722282	0.45911	-4.518085	9.060695	1.013201	2.059163	1.233864	0.39667	0.131848	-0.984376	9.751713	3.423833	-1.597938	2.347737	4.699875	-4.08554	-0.481913	-0.658469	-0.334685
6.948698	-4.527497	4.904633	-35.782417	-43.947626	-15.455186	1.025126	-0.100723	-0.739424	0.167094	-4.855719	8.827807	1.389582	2.522828	1.392919	0.38436	0.149238	-1.013803	9.578371	3.250751	-1.42226	3.259639	4.045032	-5.522117	-0.481775	-0.641451	-0.35105
5.990505	-3.891558	5.684302	-48.789186	-53.144788	-33.848004	0.982036	-0.123955	-0.692733	0.449547	-4.574795	8.607531	1.389192	2.492163	1.392613	0.371234	0.118522	-1.01152	9.345472	3.310109	-1.246694	4.12531	3.698806	-10.199426	-0.453959	-0.641042	-0.35091
5.994752	-3.603385	5.91292	-63.534054	-67.238843	-49.5258	0.997657	-0.127516	-0.731894	0.228848	-4.517654	9.055859	2.223445	2.50335	1.300911	0.423878	0.151606	-1.04333	9.516884	3.366544	-1.54268	4.692397	3.115591	-12.765743	-0.482334	-0.672183	-0.380431
5.610093	-2.795294	6.761301	-71.31576	-81.250844	-64.242013	1.02627	-0.124737	-0.746669	0.283565	-4.292534	8.943979	-2.589586	2.733481	-1.043609	0.38443	0.104348	-1.025142	8.564652	3.483126	-1.979141	5.091998	3.088334	-12.950418	-0.468005	-0.658265	-0.334615
4.532032	-2.447686	7.25327	-78.184056	-93.389206	-75.771426	0.997614	-0.075618	-0.784369	0.348945	-3.954327	9.341949	-3.28124	1.631602	-2.689005	0.396745	0.147169	-0.98538	9.166223	3.31002	-1.369809	4.613265	3.338228	-10.657877	-0.468493	-0.689824	-0.348468
3.513576	-2.271962	7.859335	-85.055671	-103.886034	-82.979236	0.9976	-0.058319	-0.801861	0.052202	-4.348481	8.882456	2.413062	0.105119	-2.021387	0.396965	0.13292	-0.998726	9.157825	3.133814	-1.849806	3.769503	3.577334	-7.447093	-0.467938	-0.64042	-0.366508
2.084028	-1.696028	7.947617	-87.273529	-114.461649	-84.095921	0.939974	-0.032807	-0.79322	0.289478	-4.85565	9.170063	0.503285	0.453828	-2.790155	0.38458	0.134989	-1.02715	9.04543	3.077244	-1.552719	2.81944	4.028651	-7.048512	-0.45375	-0.62485	-0.351747
1.421347	-1.517899	9.185747	-87.147022	-124.879218	-81.964356	0.96783	-0.019785	-0.797334	0.409121	-4.686684	9.399181	5.057207	-0.958269	-3.077983	0.423658	0.165855	-1.029984	9.104176	3.193261	-1.551124	1.664815	3.833429	-9.274343	-0.482051	-0.675488	-0.31832
1.37964	-1.457038	9.980818	-85.348893	-135.366502	-75.75802	0.983822	-0.019817	-0.850572	0.226215	-4.405088	8.942675	5.396605	-1.013476	-3.35571	0.410017	0.148316	-1.000005	8.576872	2.962914	-1.382297	0.674297	4.365045	-10.740194	-0.481913	-0.658469	-0.334685
0.24552	-1.22403	10.528045	-81.761538	-145.250755	-67.798467	0.968144	0.052941	-0.881377	0.053064	-4.799125	8.882077	8.539612	-1.617061	-3.420839	0.410387	0.164708	-1.015359	8.810871	2.903803	-1.497956	0.223667	5.334392	-9.979179	-0.481842	-0.659296	-0.319157
0.304173	-0.074759	10.647691	-78.873282	-154.530283	-59.244551	0.926926	0.030051	-0.887574	0.048144	-4.123301	8.712727	9.583193	-2.125849	-3.301747	0.409577	0.176813	-0.973313	8.515925	2.846402	-1.503705	0.168452	5.384002	-8.879035	-0.453888	-0.641869	-0.335382
-0.46617	-0.124865	12.223747	-71.35037	-161.985791	-52.36203	0.885321	0.020932	-0.897187	0.172491	-4.517499	9.11129	8.747171	-2.289558	-3.334875	0.384065	0.148166	-0.999454	8.575211	2.730115	-1.503099	0.603414	5.099838	-7.870747	-0.467938	-0.64042	-0.366508
-0.644573	-0.18363	11.879047	-68.154231	-168.856884	-47.267753	0.88415	0.079544	-0.924926	0.048768	-5.080968	8.655281	9.635389	-2.890895	-3.432623	0.422987	0.088181	-1.010616	8.226191	2.441534	-1.271311	1.011995	5.614382	-7.202339	-0.496589	-0.705598	-0.3633
-1.611134	-0.296361	12.200753	-65.743787	-173.948543	-42.111786	0.88415	0.079544	-0.924926	0.05395	-4.630086	8.938858	10.528322	-3.095394	-3.248971	0.39645	0.146097	-0.97103	9.049811	2.613378	-1.374976	0.772435	6.748814	-7.543057	-0.482055	-0.656817	-0.365741
-2.283961	0.051922	12.92793	-63.071665	-176.048399	-37.582975	0.884878	0.1039	-0.97057	0.285097	-4.461478	9.000476	10.994755	-2.844593	-3.184446	0.423213	0.134142	-1.013627	8.343413	2.78972	-1.267626	1.206791	7.987239	-8.834097	-0.481988	-0.638972	-0.397633
-2.452135	-0.291879	13.0937	-62.833416	-175.583385	-32.392139	0.842502	0.122323	-0.987014	-0.124683	-4.686331	8.651986	11.054982	-2.937818	-2.877045	0.384134	0.103276	-1.010793	8.755426	2.788528	-1.31983	1.029141	9.494047	-9.66578	-0.42684	-0.688385	-0.363786
-3.312847	-0.751272	12.961361	-63.87289	-173.869067	-26.686729	0.773029	0.117482	-1.010004	-0.123235	-4.179261	8.765692	10.46876	-2.884136	-2.846155	0.371974	0.151306	-1.042227	8.877164	2.614772	-1.13865	1.011293	10.990705	-9.458933	-0.468076	-0.657439	-0.350143
-3.873308	-0.518438	13.576576	-67.511353	-170.840729	-21.290082	0.799369	0.150989	-0.992798	-0.071606	-4.235936	8.483656	9.333986	-2.22561	-2.593897	0.38436	0.149238	-1.013803	9.051877	2.671948	-1.254915	1.384161	11.824943	-10.136595	-0.453888	-0.641869	-0.335382
-4.501331	-1.436805	13.61732	-72.771699	-167.48487	-15.607584	0.729881	0.163447	-1.03328	-0.075795	-4.574109	8.256813	7.269176	-1.853424	-2.56103	0.397261	0.133992	-1.013076	9.102785	2.84431	-1.672422	2.153447	12.762175	-11.763544	-0.454447	-0.672601	-0.364763
-5.188177	-1.723515	13.602751	-78.15809	-165.341833	-8.809838	0.729124	0.17369	-1.022619	0.052417	-4.461142	8.882361	6.155611	-2.018044	-2.995153	0.435523	0.116753	-0.9842	9.052822	2.265416	-1.256646	2.034794	13.994865	-12.685792	-0.440122	-0.640012	-0.366367
-5.461501	-1.145998	14.281834	-84.03607	-162.102526	-3.955933	0.687891	0.168099	-1.046308	0.281578	-4.517951	8.83051	6.36964	-2.255993	-3.706389	0.436484	0.135289	-1.028252	9.105931	2.438273	-1.554338	2.008275	14.669672	-12.872275	-0.454518	-0.671775	-0.380291
-6.091341	-1.0881	14.269827	-93.588835	-163.222892	1.420282	0.67417	0.137403	-1.025051	0.006725	-4.347899	9.447643	6.547083	-2.953511	-4.545533	0.422397	0.086037	-0.981917	8.863244	1.972474	-1.980066	0.498485	14.475956	-12.407486	-0.468631	-0.706843	-0.332104
-8.144132	-0.337938	14.687703	-95.337862	-167.111813	7.311576	0.632538	0.162883	-1.069647	0.05395	-4.630086	8.938858	8.179433	-3.359639	-4.918192	0.410682	0.16578	-1.029708	8.752955	2.904186	-1.439149	0.2554	13.350428	-10.139787	-0.454727	-0.687967	-0.379454
-9.132306	0.176604	13.931855	-93.541212	-168.883531	6.970968	0.589018	0.20532	-1.078847	0.055697	-4.911691	8.995261	10.944399	-4.607287	-5.699067	0.38436	0.149238	-1.013803	8.572585	2.438993	-1.684056	0.012434	12.069427	-7.626816	-0.482543	-0.688376	-0.379594
-11.028631	0.521173	13.555439	-90.285711	-167.68766	14.034204	0.58939	0.208848	-1.092923	0.686954	-4.518611	8.952251	13.991381	-5.544153	-6.569107	0.384285	0.133917	-1.0128	8.682374	2.669297	-2.100215	-0.082831	10.801285	-6.306289	-0.467867	-0.641246	-0.35098
-13.274217	1.094551	12.889042	-84.961886	-159.532764	21.234866	0.560377	0.237139	-1.099056	0.396601	-4.461836	8.832975	16.137427	-6.890851	-7.474772	0.371158	0.103201	-1.010517	8.810985	2.380872	-1.560088	-2.844883	9.804198	-2.532428	-0.440469	-0.673223	-0.349165
-14.963113	4.126787	23.212108	-101.476901	-134.245265	38.220098	0.519916	0.204006	-1.115913	0.230188	-3.954254	9.169613	18.627203	-7.897729	-8.099333	0.397776	0.120815	-1.040771	8.817703	1.859424	-1.262778	-6.633755	9.19726	4.574837	-0.468284	-0.673631	-0.349306
-20.062304	3.23061	14.12994	65.501511	-77.337856	15.268033	0.519545	0.200478	-1.101837	0.225999	-4.292427	8.94277	20.312177	-8.980364	-8.077914	0.345357	0.133692	-1.011973	8.932569	1.800336	-1.440546	-10.12793	9.27285	13.8178	-0.441169	-0.702303	-0.409602
-20.298645	9.109253	5.227746	86.369254	-52.811255	16.342372	0.518401	0.224492	-1.094593	0.695116	-3.729604	9.406032	20.262411	-10.654142	-10.129213	0.397261	0.133992	-1.013076	8.23621	1.920828	-0.794281	-13.981409	9.323552	19.425266	-0.482267	-0.654338	-0.412324
-23.098525	11.537862	8.479686	-32.43032	-2.117319	5.395062	0.489432	0.200885	-1.048251	0.462867	-3.95459	9.287728	22.667284	-13.557559	-11.635862	0.383914	0.117525	-0.997446	8.350556	2.5589	-0.909174	-13.607211	9.689455	19.666706	-0.426632	-0.672193	-0.364623
-24.12735	16.824436	8.766109	33.348132	46.49045	-23.416332	0.491289	0.218527	-1.11863	0.008712	-4.122482	9.561112	25.922778	-17.555511	-12.936913	0.371454	0.104273	-1.024867	8.229783	2.790979	-1.0302	-11.646717	9.251641	12.386797	-0.454656	-0.688794	-0.363926
-27.821612	23.784552	10.371671	66.234128	118.873185	-74.177903	0.519202	0.162351	-1.052778	0.484388	-4.460758	10.250174	33.110864	-23.246886	-14.960656	0.384354	0.089028	-1.024139	7.987406	3.138739	-1.332652	-10.517488	9.429592	4.434974	-0.454869	-0.686315	-0.41051
-16.124083	23.135514	8.55057	233.15051	123.94889	-95.870859	0.519559	0.183179	-1.084345	0.719354	-5.024353	10.424454	35.138043	-34.31972	-20.124735	0.410677	0.10557	-1.040043	7.392458	3.778184	-1.520658	-8.592628	10.43251	-0.191856	-0.440473	-0.654552	-0.396586
5.891502	-6.308702	18.061218	88.312414	137.073099	-74.436348	0.547043	0.192672	-1.074384	1.135131	-6.03863	10.941819	31.703577	-49.992348	-26.756891	0.344541	0.085587	-0.980262	7.327419	4.474243	-1.758419	-8.901194	11.770393	3.439907	-0.440681	-0.670744	-0.395749
-3.773813	-3.496754	15.611852	110.588693	76.682766	39.166326	0.550472	0.120631	-1.096116	0.869223	-5.246178	14.730083	23.974716	-65.838226	-34.226423	0.358478	0.104198	-1.024591	7.56478	5.81044	-1.508704	-10.180827	6.182029	19.854441	-0.468426	-0.671979	-0.380361
-4.918514	2.499124	7.090297	38.398466	57.41768	50.129222	0.562692	0.154513	-1.078561	3.065195	-9.928091	12.054594	57.320308	-87.116133	-46.278917	0.370637	0.056168	-0.993156	9.990059	5.283209	-1.226183	-5.362703	0.812041	29.094416	-0.440473	-0.654552	-0.396586
-0.717281	-3.461616	10.954529	-1.482908	38.456218	23.076639	0.591691	0.143521	-1.08992	1.64571	-7.558566	13.159155	27.110173	-92.896089	-51.477626	0.384059	0.087956	-1.009789	12.767599	3.650734	-1.181385	-3.102294	-14.204	35.638919	-0.468288	-0.65496	-0.396726
-1.482025	-4.187469	15.710349	56.414686	3.711286	-41.232888	0.605068	0.13609	-1.062117	1.56946	-8.681154	17.572468	132.29854	-109.648806	-86.328734	0.331339	0.039551	-0.976976	12.519274	3.241775	-1.9064	-0.213538	-26.693112	40.671352	-0.468639	-0.6695	-0.426945
-1.940543	3.014184	7.207223	139.519357	7.912499	-30.790605	0.59322	0.105736	-1.093748	-0.585538	-6.312091	16.566857	37.625305	-93.185261	-66.63767	0.305758	0.055793	-0.991777	10.495253	3.184334	-2.902572	-2.590384	-24.337179	36.786027	-0.440543	-0.653726	-0.412114
-0.708398	-0.612058	5.681484	10.289074	24.387507	0.21341	0.56385	0.1132	-1.068314	-0.422943	-6.087472	16.117557	32.282048	-127.934394	-74.477393	0.293372	0.057862	-1.020201	9.909919	3.477301	-2.612806	-4.303266	-19.40244	32.182976	-0.482055	-0.656817	-0.365741
-1.516958	0.101305	11.181314	29.648715	2.100771	3.046224	0.591719	0.108922	-1.054936	0.103153	-6.482471	16.467943	35.186666	-142.841584	-79.246647	0.319098	0.01205	-1.017742	9.864979	4.526513	-1.710853	-3.64108	-18.155225	33.061177	-0.439705	-0.607627	-0.368041
-1.997139	-0.075513	10.03462	49.255383	-4.636326	-10.09253	0.53638	0.086407	-1.060784	-0.478199	-6.030938	16.229675	42.969146	-165.177229	-83.962408	0.253113	0.022708	-0.959968	11.008004	4.180188	-0.553197	-4.770252	-20.758157	38.916885	-0.482263	-0.673009	-0.364904
-2.027002	1.181928	8.561749	35.147079	1.957298	-1.020079	0.564235	0.099429	-1.064898	-0.198595	-5.524787	15.896308	36.519257	-187.313254	-90.999256	0.268456	0.091568	-1.064706	11.020244	4.124832	0.105532	-7.437224	-23.597852	34.5989	-0.482129	-0.637319	-0.428689
-1.669865	0.839925	9.249219	23.192733	0.597549	0.157622	0.607011	0.049935	-1.027546	-0.419823	-7.32908	13.455661	38.420993	-211.769573	-107.730324	0.227532	0.03895	-0.97477	10.618925	3.314938	0.633529	-8.246041	-24.249067	17.425029	-0.481712	-0.604934	-0.430363
-1.666524	0.840649	9.419778	18.595095	0.265985	0.410812	0.608483	0.081348	-1.101342	-0.764869	-6.877741	13.505427	45.203614	-219.974312	-107.498114	0.201059	-0.008233	-0.956858	9.859439	3.783279	1.100457	-8.232801	-24.318706	-2.47231	-0.45375	-0.62485	-0.351747
-1.558613	0.724235	9.080404	16.512276	0.722795	-0.066454	0.593248	0.071138	-1.058765	-1.096486	-5.862529	14.235342	49.195094	-224.510222	-110.375503	0.162872	0.024327	-0.986737	9.450727	3.785213	1.332381	-7.358939	-24.031957	-12.164708	-0.495478	-0.606791	-0.399378
-1.678855	0.952878	8.794877	4.544226	1.876645	1.704146	0.579871	0.078569	-1.086567	-0.35806	-3.836268	13.969567	58.206404	-239.939039	-114.035037	0.110077	-0.039399	-0.95292	9.280282	3.787102	1.688521	-2.888158	-24.043715	-6.527133	-0.45375	-0.62485	-0.351747
-1.148759	0.496109	9.542058	6.232536	2.596557	1.250971	0.564593	0.120256	-1.096466	-0.681497	-6.318221	9.374837	102.209568	-233.141095	-119.541547	0.071074	-0.054945	-0.951089	8.737126	2.797811	0.895625	0.93561	-22.716966	8.459174	-0.495687	-0.622984	-0.398541
-1.554242	0.840083	9.308299	4.637593	2.749379	0.675359	0.57797	0.112825	-1.068663	-0.688778	-6.546212	6.317318	86.823831	-223.14895	-109.222143	0.030965	-0.059457	-0.892863	9.08352	2.79527	0.482879	2.800955	-20.094011	18.679572	-0.467796	-0.642073	-0.335452
-1.189103	0.212562	10.392534	-3.323446	3.567095	1.202248	0.592505	0.064081	-1.030613	3.444142	-2.045289	8.955726	118.616995	-203.472561	-98.552641	-0.008264	-0.120964	-0.888021	8.725581	3.027642	0.297545	2.465075	-15.472413	18.230783	-0.453821	-0.624024	-0.367274
-1.541828	0.612971	9.932718	9.746365	2.361808	-1.001716	0.608869	0.067577	-1.097926	-3.220833	0.221098	9.610344	175.047555	-167.021061	-70.897804	0.004712	-0.120889	-0.888297	9.067303	3.140265	-0.354334	0.394066	-10.378456	9.961062	-0.495612	-0.642481	-0.335592
-1.54855	0.668965	9.59184	5.606729	1.785845	-0.69248	0.564607	0.102957	-1.078974	-3.062286	-6.770021	2.927035	171.632226	-113.964722	-58.290443	-0.022797	-0.201929	-0.825329	9.006086	3.139905	-0.475248	-0.700694	-4.357247	4.067887	-0.481637	-0.624432	-0.367415
-1.648377	0.384976	10.327497	3.422242	3.245232	2.526974	0.592519	0.046782	-1.013121	-5.78037	-8.683194	-0.585203	15.613588	-90.619281	5.133507	-0.048008	-0.169294	-0.855484	9.654724	3.370724	-0.462155	-2.576692	0.190899	-1.601213	-0.467662	-0.606383	-0.399237
-1.198053	0.268073	9.937951	10.878761	1.55765	-0.098004	0.580256	0.064798	-1.083152	-11.744955	-10.027879	-5.184178	-23.369163	-33.190876	22.104811	-0.048378	-0.185687	-0.840131	9.18327	3.081424	-0.472194	-1.590728	1.344545	-3.382901	-0.509103	-0.6103	-0.337337
-1.492368	0.611241	9.53586	8.890672	1.568303	0.858596	0.606626	0.063706	-1.030962	-14.921098	-10.700728	-8.478486	-34.252899	84.222127	-12.558834	-0.062089	-0.158336	-0.798813	9.479586	3.02292	-0.407032	1.168015	0.923019	-0.120698	-0.509453	-0.62484	-0.367555
-1.722002	-0.078133	9.471657	11.378963	2.032176	1.625664	0.606597	0.098305	-1.065946	-13.653574	-2.813826	-4.991444	32.99565	173.787413	-43.056395	-0.034441	-0.167075	-0.884459	10.362087	3.252704	-0.509351	2.224529	-1.448441	4.776944	-0.481495	-0.626084	-0.336359
-1.828017	0.498295	9.926668	6.957164	1.316911	0.553398	0.592862	0.084909	-1.062181	-10.123632	-1.237572	1.481485	102.10455	168.392038	-20.643883	0.004046	-0.138353	-0.858594	10.483016	3.427404	-0.326687	0.552075	-3.551503	6.443509	-0.468005	-0.658265	-0.334615
-1.838039	0.496124	9.41499	9.781423	1.504036	1.468341	0.566507	0.068701	-1.096878	-10.023188	-6.587798	3.007457	-3.135727	181.177737	31.128777	0.017092	-0.183168	-0.870209	10.022701	3.082501	0.262095	-3.537898	-3.993765	3.434588	-0.495199	-0.591425	-0.384687
-1.667265	0.323434	9.360753	6.038095	1.155136	0.89076	0.579471	0.109639	-1.107475	-6.939324	-9.012248	7.089693	-85.120827	154.118796	19.109039	0.003971	-0.153674	-0.85759	9.773566	3.021998	-0.461437	-9.093803	-4.129689	-3.085106	-0.481637	-0.624432	-0.367415
-1.94958	1.013904	9.585494	3.428162	0.81292	0.187351	0.593991	0.078194	-1.086917	-6.302915	-3.09816	7.787646	-13.121913	113.555401	41.639101	0.069517	-0.135834	-0.888672	9.078328	3.607592	0.306619	-12.330368	-3.835674	-8.973138	-0.49534	-0.589772	-0.415743
-1.893232	0.726414	9.528548	1.158381	0.588599	0.067567	0.592862	0.084909	-1.062181	-7.435716	-3.776028	3.177509	-79.617272	104.993032	88.303519	0.044005	-0.164481	-0.914813	9.301322	3.54601	-0.408109	-12.394786	-3.39599	-10.105743	-0.46717	-0.593495	-0.337963
-1.605639	0.43924	9.589762	-0.097182	0.548524	0.377209	0.579142	0.054213	-1.040924	-5.759323	-5.297551	6.098698	-99.372967	111.121703	110.980947	0.083453	-0.117223	-0.933001	9.245047	3.314335	-0.290384	-11.337786	-3.501953	-8.36711	-0.481291	-0.591221	-0.384617
-1.486676	0.440122	9.819401	-0.77071	0.449356	0.714882	0.577984	0.095526	-1.051171	-4.493531	-4.961939	6.125578	-101.455902	108.296389	117.303189	0.083013	-0.088726	-0.906309	9.25273	2.85121	0.067079	-10.318488	-3.967528	-7.360068	-0.482125	-0.655991	-0.381269
-1.659594	0.497447	9.759449	-2.790154	0.524111	1.427267	0.579128	0.071512	-1.058416	-4.65062	-4.904669	6.858314	-121.93782	116.353659	119.987914	0.083309	-0.087654	-0.920658	8.827937	3.140063	-0.538457	-9.739816	-4.634904	-7.695151	-0.481775	-0.641451	-0.35105
-1.435155	0.668641	9.537214	-2.418454	0.545782	2.377245	0.606997	0.067235	-1.045038	-3.004162	-4.680989	8.534901	-120.407727	119.332241	112.556658	0.097245	-0.069043	-0.964987	9.190818	2.676375	-0.114484	-9.315268	-4.744043	-8.826919	-0.467237	-0.61134	-0.30607
-1.549249	0.094308	9.532574	-2.138415	0.87921	2.903204	0.564235	0.099429	-1.064898	-1.009464	-4.683183	10.331832	-117.926576	121.656421	103.948052	0.110077	-0.039399	-0.95292	8.547277	2.621021	0.172699	-8.952515	-4.294298	-10.78625	-0.45368	-0.625676	-0.336219
-1.545909	0.095032	9.703134	-1.611967	1.366744	3.492292	0.579499	0.075041	-1.072491	0.049143	-4.40257	11.429982	-113.257154	130.63763	93.588411	0.149375	-0.022782	-0.969101	9.021202	2.794663	0.302058	-8.766537	-3.208841	-12.167306	-0.495545	-0.624636	-0.367485
-1.143398	0.784523	9.82753	-0.228811	1.862456	3.711037	0.594005	0.060895	-1.069425	0.039069	-3.949921	13.694736	-100.173374	145.407409	85.667541	0.149525	0.007859	-0.971108	9.248733	2.675993	-0.17329	-8.278017	-3.260049	-12.963386	-0.453683	-0.607005	-0.383639
-1.714539	0.383088	9.871559	0.693894	2.358107	3.747104	0.579485	0.09234	-1.089983	0.111487	-3.498768	14.432639	-78.906967	159.788876	77.842025	0.162947	0.039647	-0.987741	9.01516	3.025731	0.003512	-8.178303	-3.30449	-11.588341	-0.482055	-0.656817	-0.365741
-1.419608	0.72946	10.333399	1.646097	2.732017	3.689105	0.608126	0.06052	-1.069774	0.800286	-3.725478	14.333677	-56.229447	170.778502	66.623293	0.215291	0.01145	-1.015536	8.487836	2.330528	0.110455	-7.616845	-3.376911	-10.3065	-0.509662	-0.641033	-0.366718
-1.656461	0.785378	9.931215	3.489833	3.446384	3.78741	0.565764	0.061644	-1.068726	1.070627	-4.064712	13.489843	-56.255437	175.243181	58.28143	0.241393	0.042241	-1.018095	8.839867	2.271148	-0.003003	-7.09145	-3.749972	-9.542611	-0.495687	-0.622984	-0.398541
-1.200404	0.439915	9.824968	-0.432865	3.270934	4.102522	0.57837	0.081755	-1.047755	0.73104	-4.57085	13.708722	-62.818016	173.527039	50.335386	0.279291	0.068819	-0.96353	8.72199	2.678197	0.056434	-6.847478	-4.302834	-9.23525	-0.439984	-0.622993	-0.382732
-1.434083	0.726324	9.594309	6.043636	4.461966	4.716579	0.59362	0.074666	-1.072841	1.092709	-4.23285	14.509214	-60.081705	164.22603	39.885826	0.280471	0.073107	-1.020929	8.715252	2.73479	-0.302761	-6.918191	-5.279368	-9.474819	-0.45431	-0.655582	-0.381128
-1.885065	0.211129	9.924348	2.799504	4.840743	5.222745	0.565393	0.058116	-1.05465	1.849498	-4.853602	14.864246	-58.44842	151.06289	32.26435	0.279881	0.070963	-0.99223	9.193019	2.67687	0.00533	-7.202211	-6.044131	-9.561822	-0.481775	-0.641451	-0.35105
-1.830327	0.612696	9.813444	5.931103	5.40259	5.744199	0.593234	0.088437	-1.076256	2.256083	-4.854214	15.042627	-58.005511	137.113483	29.9986	0.319104	0.07226	-1.007407	8.718148	2.90976	-0.122298	-7.267345	-6.44137	-9.620812	-0.45438	-0.654756	-0.396656
-1.720521	0.956297	9.589707	3.698687	6.223277	5.641296	0.56615	0.047873	-1.065311	2.490941	-5.361478	15.216955	-55.905401	132.120941	29.179854	0.332821	0.10512	-1.038389	9.194524	2.502889	0.064495	-6.8742	-6.922091	-10.322831	-0.482405	-0.671357	-0.395959
-1.490224	0.726606	9.650048	3.512653	6.134744	5.241722	0.621103	0.08416	-1.062879	2.600482	-4.967569	14.993146	-58.91814	133.823305	34.774615	0.345206	0.103051	-1.009965	9.318059	2.503855	0.366231	-6.35471	-7.190771	-10.781835	-0.496171	-0.673213	-0.364974
-1.715735	0.49773	9.815188	4.861922	6.608264	4.693528	0.578742	0.085283	-1.061831	3.118355	-4.855878	15.004121	-56.201954	141.246645	38.642815	0.358038	0.132695	-0.997899	9.197711	3.026562	0.306348	-5.982053	-6.915093	-10.692819	-0.439492	-0.610106	-0.321458
-1.319533	0.668799	9.596294	1.946418	5.855038	4.873681	0.593248	0.071138	-1.058765	4.154125	-4.012813	15.083232	-57.645363	147.203219	43.202209	0.384725	0.10542	-1.039492	8.905756	2.156344	0.357044	-5.091365	-7.029501	-11.153902	-0.482263	-0.673009	-0.364904
-1.375715	0.726523	9.652275	2.374615	6.14127	4.202424	0.565764	0.061644	-1.068726	5.361358	-3.789802	15.052169	-63.680939	149.03894	45.928739	0.409721	0.147244	-0.985655	8.668881	2.50534	0.354126	-4.290732	-7.304118	-10.94157	-0.481637	-0.624432	-0.367415
-0.967797	0.095824	9.998534	3.547681	7.029912	4.918833	0.622247	0.060146	-1.070123	6.514807	-2.383505	15.304092	-59.817827	144.220259	45.421422	0.397336	0.149313	-1.014079	8.559092	2.275037	0.770284	-2.402163	-7.250047	-9.604011	-0.4961	-0.67404	-0.349446
-1.656213	0.440729	9.929767	0.05681	7.286703	5.239724	0.594363	0.081723	-1.100993	10.149914	-1.77028	15.833891	-53.433285	135.889806	43.339643	0.436559	0.15061	-1.029256	8.844424	2.678916	0.298262	-0.478407	-7.328305	-7.287982	-0.468147	-0.656613	-0.36567
-1.721634	0.956056	9.532853	5.390641	7.33955	5.470566	0.566136	0.065172	-1.082802	13.823675	-1.383243	15.458477	-38.665973	125.205948	33.101978	0.409866	0.117675	-0.997998	8.907957	2.156839	0.476858	1.328167	-7.077156	-4.331262	-0.453892	-0.623197	-0.382802
-1.657616	0.842579	9.874603	1.933362	8.088873	5.73803	0.606611	0.081006	-1.048454	16.261836	-1.55834	13.75449	-11.201609	104.967168	23.149623	0.45005	0.137508	-1.057228	8.433221	2.331652	0.348982	3.959438	-6.683954	-2.997941	-0.537478	-0.641441	-0.366859
-1.598834	0.268363	9.930156	7.396524	9.186792	6.01615	0.650488	0.059397	-1.070822	19.507469	-1.284206	12.181087	3.1281	87.427852	19.780381	0.435749	0.162714	-0.987211	8.956373	1.980003	-0.121852	5.777131	-7.016088	-2.789003	-0.482334	-0.672183	-0.380431
-1.667596	0.782966	9.362684	7.211367	9.158331	5.740219	0.579499	0.075041	-1.072491	19.78793	-0.836722	9.186821	13.000647	76.538948	16.905363	0.436779	0.136361	-1.042602	8.605308	2.097707	0.05176	7.561558	-7.871482	-2.271825	-0.496104	-0.655368	-0.396867
-1.42835	0.497764	9.877609	3.782301	9.101145	6.669164	0.62076	0.046033	-1.013819	17.018446	-0.043111	8.902898	-10.876951	57.023833	16.106262	0.501734	0.152057	-1.044985	8.959405	2.096897	0.058363	8.575965	-9.755746	-0.127125	-0.496242	-0.672387	-0.380502
-1.829379	0.842703	9.871262	4.94547	9.36112	5.903371	0.620718	0.097931	-1.066295	15.691644	1.031985	11.536847	-37.381508	30.41596	16.282719	0.476222	0.123409	-1.071125	8.837261	2.444881	-0.122075	5.98726	-12.968743	-0.866484	-0.439913	-0.62382	-0.367204
-2.062768	0.727021	9.638913	4.918874	9.975243	5.944095	0.608126	0.06052	-1.069774	15.495735	1.447035	34.744908	-14.105164	9.337384	12.361512	0.449685	0.181325	-1.031539	8.725271	2.214083	0.17427	6.594401	-16.739311	-2.776119	-0.45403	-0.640216	-0.366437
-1.663018	0.611606	9.589372	5.289239	10.345032	6.010373	0.60814	0.043221	-1.052282	9.471284	-3.456186	18.931931	186.869218	-78.648962	17.96848	0.50218	0.183769	-1.061342	9.555338	1.980631	0.368407	11.078846	-18.766811	2.59638	-0.453404	-0.591639	-0.368949
-1.94364	0.498137	9.867588	6.699095	10.194832	6.279875	0.620718	0.097931	-1.066295	21.165225	10.094197	15.396333	-66.461272	-125.013401	-4.183631	0.437369	0.138505	-1.071302	9.547095	2.211204	-0.049952	16.768297	-19.952886	12.790065	-0.454518	-0.671775	-0.380291
-1.946773	0.210205	9.695822	5.725129	10.765443	7.05862	0.607769	0.039693	-1.038206	4.072531	-2.438641	11.402986	97.255249	-75.274188	-29.729793	0.423433	0.119894	-1.026973	9.375238	1.399287	0.123006	22.145154	-20.200429	20.841457	-0.482192	-0.673836	-0.349376
-2.279869	1.189373	10.261774	4.576928	12.653125	8.165932	0.619989	0.073575	-1.020651	-1.946015	-4.40276	6.915559	17.04665	-90.854159	-7.815439	0.423653	0.105645	-1.040319	9.242786	1.919274	-0.595852	27.228921	-18.61857	23.413797	-0.481633	-0.643103	-0.319994
-1.822035	-0.074914	10.20852	5.880213	14.928648	8.597826	0.678357	0.055119	-1.057444	-1.000057	-1.870809	5.635534	-23.734758	-144.710872	-6.19463	0.410677	0.10557	-1.040043	8.702472	3.02245	-0.9605	23.36626	-13.649706	14.78402	-0.495612	-0.642481	-0.335592
-1.982788	0.099947	10.774434	1.390772	17.021721	9.196759	0.635253	0.049186	-1.028245	-3.467352	-3.044158	11.244097	-13.937235	-165.000534	-19.551565	0.398366	0.122959	-1.069471	9.112905	4.647881	-0.885968	11.103349	-5.798387	-0.399667	-0.467796	-0.642073	-0.335452
-2.232232	-0.006767	12.644536	-7.188821	24.054342	6.177101	0.592877	0.067609	-1.044689	2.996059	-1.985238	12.22999	18.678826	-104.82668	-49.691812	0.371378	0.088953	-1.023863	10.110988	5.457908	-1.04352	9.889609	2.518479	2.407406	-0.467588	-0.62588	-0.336289
-2.996002	-0.814752	11.603327	-1.072354	36.84818	13.297984	0.635238	0.066486	-1.045736	1.435347	-6.827369	11.456956	-66.87911	-67.293201	-49.171874	0.358107	0.087806	-1.009237	11.47081	4.87429	-0.960775	12.380425	9.602	13.398475	-0.482401	-0.690028	-0.348539
-2.831708	0.275065	11.270134	9.075693	45.156733	16.470336	0.62036	0.077103	-1.034727	-0.059972	-4.629823	8.99308	-90.164035	-26.625798	-14.230259	0.359363	0.107414	-1.06764	11.244609	3.947344	-0.549784	9.293022	9.877896	12.277398	-0.495332	-0.627115	-0.320902
-3.871018	-3.058211	10.667564	-36.641439	52.800397	22.889667	0.649745	0.05234	-1.04267	-0.405018	-4.178485	9.042846	-52.143381	-20.071017	-9.57206	0.359439	0.122734	-1.068644	11.23432	4.584203	-1.02632	12.747785	9.325574	7.713288	-0.439634	-0.608453	-0.352513
-1.913137	5.712631	20.403787	30.281535	41.541764	37.6613	0.663879	0.034666	-1.025527	-0.126107	-4.573717	8.595442	-35.620578	-17.797369	-6.299265	0.333637	0.153225	-1.070099	11.939347	4.523765	-1.193082	17.992856	10.087042	12.795077	-0.467725	-0.642899	-0.319924
-1.954578	-0.410995	12.19359	58.277756	80.036013	28.271904	0.649745	0.05234	-1.04267	-0.396017	-4.459806	9.439086	2.070799	-16.355519	5.86083	0.333191	0.121512	-1.053742	11.295922	3.945479	-0.968032	16.123248	10.434678	19.952839	-0.509796	-0.676723	-0.302933
-2.079704	1.322749	14.642172	5.874757	93.739873	20.397043	0.649387	0.031512	-1.011102	0.968498	-5.026409	8.618031	-11.161121	-10.647741	-1.738463	0.30798	0.154147	-1.083898	10.288401	4.353564	-1.16473	6.311513	7.927533	22.384653	-0.50917	-0.628145	-0.305444
-1.110875	1.378521	14.43393	40.323869	109.982075	19.182034	0.648987	0.062583	-1.03201	0.042639	-4.405191	8.429292	-23.450259	-10.592578	-5.909562	0.346098	0.166477	-1.042679	10.485662	4.183381	-0.083846	1.035204	6.704811	23.44893	-0.481566	-0.625258	-0.351887
-1.001394	0.630492	14.148754	23.729596	125.111206	13.894766	0.662379	0.037852	-0.986715	-0.056777	-4.404359	9.163189	-8.385109	-11.151786	-3.683401	0.345947	0.135836	-1.040672	10.173805	4.2965	-0.987457	-0.597592	6.913699	23.39271	-0.48198	-0.676314	-0.302792
-1.378549	1.842362	15.396795	29.188469	136.678078	12.01253	0.691763	0.013089	-0.994658	0.39252	-4.85634	8.606085	-10.483565	-5.919281	-1.382623	0.320071	0.151006	-1.041124	10.597787	4.356103	-0.380438	0.631883	8.477941	20.44624	-0.467588	-0.62588	-0.336289
-1.796441	0.862286	14.475249	38.22086	152.021591	8.985423	0.691778	-0.00421	-0.977166	0.621788	-4.969479	8.554186	-14.513196	-7.299018	-4.54403	0.307836	0.183716	-1.071555	10.462958	4.003962	-1.342632	3.058816	10.08382	10.923537	-0.453959	-0.641042	-0.35091
-1.795203	0.690203	14.531378	32.701374	165.942643	8.890363	0.734111	0.029265	-1.013197	-0.060966	-4.742532	8.936346	-20.68271	-6.524798	-3.616461	0.308056	0.169467	-1.084901	9.755845	3.540974	-1.357816	0.327604	11.529672	-5.608339	-0.481779	-0.622779	-0.398471
-1.794126	-0.803277	14.525104	41.176452	178.326489	9.159354	0.775758	-0.013514	-0.951109	0.50327	-4.462384	8.438916	-32.790612	-3.519385	0.966228	0.319555	0.164183	-1.013428	8.692163	3.194453	-1.498921	-3.482751	10.984471	-19.282744	-0.425655	-0.609075	-0.336915
-2.385718	-2.185802	13.484822	50.672217	191.060706	11.393737	0.803599	0.016807	-0.972715	-0.112787	-3.953512	9.275638	-30.997544	-3.348355	1.740076	0.293754	0.194674	-1.014884	8.448706	4.006822	-1.799396	-6.221679	10.21622	-22.844415	-0.494986	-0.593904	-0.338104
-3.373359	-0.866837	12.789206	55.146999	202.101326	17.325488	0.789135	-0.020945	-0.923307	0.220948	-4.179955	8.716306	-31.728572	-2.558447	1.43906	0.294194	0.166176	-1.041576	7.798968	3.775756	-1.872396	-6.315621	10.315141	-17.649699	-0.481704	-0.642277	-0.335522
-2.397475	-1.326592	12.919911	49.576	209.482526	22.245201	0.830011	-0.036182	-0.868051	0.272338	-4.743653	8.377203	-33.319449	-6.253708	0.753645	0.332827	0.16533	-1.028054	7.745029	3.4865	-1.635105	-5.090288	11.303993	-9.31609	-0.49575	-0.6595	-0.319227
-5.033815	-2.301915	12.694029	77.14763	205.329742	28.69088	0.875045	-0.099105	-0.880171	0.332776	-4.349305	8.548663	-33.406283	-8.389456	-1.055689	0.319706	0.194824	-1.015436	7.575123	3.256084	-1.279954	-4.972401	12.842978	-1.316727	-0.481775	-0.641451	-0.35105
-4.369949	0.507639	11.639006	101.917424	191.549725	32.534876	0.888394	-0.071937	-0.887352	-0.015643	-5.92615	8.256884	-30.103962	-3.550238	1.52299	0.320296	0.196967	-1.044135	7.103534	3.02486	-1.289747	-5.321889	13.734184	1.125314	-0.481149	-0.592873	-0.353561
-5.892283	-3.692477	9.716288	90.535049	171.668469	28.687537	0.9029	-0.086083	-0.884285	0.621334	-5.36384	8.497214	-23.187593	-1.350339	2.074508	0.30776	0.168395	-1.070552	7.333421	3.313464	-1.583643	-5.379677	14.161305	1.215174	-0.481361	-0.590394	-0.400145
-7.790786	2.121866	12.374897	120.383648	140.485128	44.03843	0.914777	-0.090328	-0.81767	0.501176	-4.63147	8.325494	-17.038696	-1.24127	2.018883	0.30717	0.166252	-1.041852	7.558866	2.671368	-2.240937	-4.075165	13.029975	4.577843	-0.496171	-0.673213	-0.364974
-6.191846	-0.707722	9.154738	179.002466	131.894421	45.385559	0.929312	-0.139072	-0.77962	0.222349	-4.912252	8.71569	-9.147963	-0.304104	0.616454	0.346248	0.197117	-1.044687	7.732343	2.786373	-2.416862	-2.978949	10.548394	11.248845	-0.453821	-0.624024	-0.367274
-0.434104	-3.442383	2.037743	152.279274	122.065196	31.628011	0.944204	-0.166989	-0.773138	0.331005	-4.687383	8.435099	-1.487221	-0.298892	0.62267	0.306805	0.210069	-1.016164	8.632431	2.555258	-1.622554	-1.882661	7.131872	13.675888	-0.481495	-0.626084	-0.336359
4.531558	-9.149388	-1.811023	14.469223	98.220079	24.400769	0.942675	-0.129204	-0.769309	0.04307	-4.630513	8.429102	4.283249	-0.71865	0.993077	0.307396	0.212213	-1.044863	9.330876	2.958192	-2.086874	0.261321	3.654944	10.475305	-0.509591	-0.641859	-0.35119
3.604781	-9.470855	3.454824	-6.264225	3.353222	86.472332	0.942332	-0.167331	-0.72025	0.160511	-4.574303	8.544847	5.885347	-1.007334	1.361433	0.281224	0.226311	-1.030965	9.274331	2.842669	-1.968655	-1.171332	1.251938	5.723845	-0.523014	-0.591833	-0.384827
5.764061	-0.373906	8.877227	-8.291512	-21.303351	86.077665	0.985823	-0.175169	-0.746034	-0.069774	-5.193555	8.48285	7.122056	-0.900666	1.51763	0.268763	0.21306	-1.058386	9.276242	2.49446	-1.910231	-2.718438	0.228827	0.599637	-0.453821	-0.624024	-0.367274
5.18783	-3.891219	5.61186	25.611671	-35.254574	64.326288	0.971702	-0.174794	-0.745684	-0.176982	-4.911355	8.877146	6.692473	-0.690492	1.365233	0.320742	0.22868	-1.060492	9.39663	2.901464	-1.726579	-3.50403	-0.708347	-0.737811	-0.537548	-0.640615	-0.382386
5.163701	-2.862337	4.422288	10.542184	-43.76232	41.268444	0.915963	-0.16624	-0.772439	0.390318	-4.969095	8.492711	6.264722	-0.327597	1.306841	0.320076	0.211216	-1.030789	9.872061	2.901126	-1.538055	-4.846782	-0.553332	1.558536	-0.453959	-0.641042	-0.35091
5.227636	-2.860931	4.76452	-10.728985	-46.851625	14.970824	0.943876	-0.222415	-0.706587	0.281231	-4.968643	8.773491	4.168989	-0.013112	0.722547	0.3071	0.211141	-1.030513	9.872621	3.133677	-1.477159	-4.499027	0.580328	1.49074	-0.495892	-0.657847	-0.350283
4.609221	-3.202712	5.319355	-30.401518	-51.932194	-14.005553	0.917135	-0.224852	-0.7447	0.165107	-5.081136	8.714339	2.074682	0.423429	0.231953	0.320001	0.195896	-1.029785	9.573118	2.668508	-1.784174	-2.894756	2.074574	-0.478234	-0.481708	-0.623606	-0.382943
3.546707	-2.794285	6.607509	-40.149552	-59.923912	-39.780564	0.943075	-0.160274	-0.748402	-0.125461	-4.9117	8.595157	0.315712	0.554612	0.201014	0.320221	0.181647	-1.043131	9.99436	2.95992	-1.295979	-0.905035	3.475341	-5.107016	-0.481428	-0.608239	-0.368252
2.441181	-2.969682	5.675979	-43.596684	-68.060625	-61.070153	0.929712	-0.170142	-0.758713	0.046997	-5.419046	8.541717	-0.362439	0.668447	0.232428	0.294495	0.227458	-1.045591	9.806732	3.248481	-1.837206	0.672155	3.965481	-10.554918	-0.468009	-0.639594	-0.382035
1.469052	-3.083619	5.71342	-64.137196	-75.029336	-73.089594	0.929341	-0.173671	-0.744637	0.049199	-5.30629	8.655091	0.033963	0.274095	0.352138	0.320071	0.151006	-1.041124	9.400897	2.960529	-1.486704	0.279792	3.94458	-14.587291	-0.52329	-0.625871	-0.352098
0.344213	-3.365656	6.7133	-81.525309	-81.46771	-79.096486	0.903357	-0.18635	-0.793411	0.39483	-4.799914	8.719411	-0.026579	0.365708	0.291344	0.307396	0.212213	-1.044863	9.156589	3.191643	-1.909465	-1.890635	3.680421	-16.411716	-0.495616	-0.62381	-0.383013
-0.728654	-2.499868	7.491706	-86.990478	-87.426994	-79.116254	0.888451	-0.141134	-0.817385	0.285743	-4.799462	9.000191	-0.613062	0.389529	0.198625	0.294564	0.182569	-1.05693	9.21464	3.133184	-1.968519	-4.206481	3.305968	-16.49322	-0.495616	-0.62381	-0.383013
-1.633382	-2.784	8.041215	-85.574205	-93.610599	-75.53898	0.91632	-0.145412	-0.804007	-0.004286	-4.911679	8.880773	-0.580531	0.512983	0.138223	0.345953	0.196046	-1.030337	9.097438	3.249854	-1.910319	-6.544578	2.821983	-14.862814	-0.481913	-0.658469	-0.334685
-2.025753	-2.092481	8.491141	-86.546517	-101.255233	-68.849203	0.874716	-0.154531	-0.81362	0.052956	-4.742795	8.882124	0.284155	0.493494	0.107896	0.30717	0.166252	-1.041852	8.981991	2.611535	-1.855332	-7.218565	2.407689	-13.483223	-0.467521	-0.608035	-0.368182
-2.078269	-0.942403	8.779119	-87.461565	-110.203291	-61.107262	0.87393	-0.109689	-0.837943	0.442055	-5.082101	8.210627	-0.272915	0.395451	-0.047667	0.293604	0.164033	-1.012877	8.796565	2.900589	-2.276746	-6.908226	1.939232	-12.443082	-0.482196	-0.655164	-0.396796
-2.290418	-1.168384	9.626496	-80.890875	-118.939912	-52.708873	0.916306	-0.128113	-0.821499	0.67264	-5.251524	8.21532	-0.026386	0.338062	-0.171352	0.307911	0.199036	-1.072559	9.033345	3.53938	-2.14981	-6.778225	1.39916	-10.45457	-0.482055	-0.656817	-0.365741
-2.179996	-0.135243	9.462508	-85.27887	-122.834544	-47.329678	0.873516	-0.06132	-0.876342	0.161373	-5.024947	8.544467	-0.08681	0.430279	-0.324624	0.319185	0.14779	-0.998075	8.919019	3.366164	-1.973032	-7.627448	1.772917	-8.436281	-0.495962	-0.657021	-0.365811
-2.560035	0.444046	10.537335	-84.211977	-126.381322	-43.27976	0.901385	-0.065597	-0.862965	0.053626	-4.461095	8.939001	-0.458437	0.363642	-0.233101	0.333938	0.214507	-1.074114	8.920099	2.901555	-1.97501	-9.284523	2.186675	-7.607109	-0.495683	-0.641655	-0.35112
-3.171153	0.793253	11.493037	-74.594037	-129.908518	-40.174485	0.889537	-0.095951	-0.894596	0.337372	-4.856137	8.718155	0.345473	0.405907	-0.447831	0.268022	0.180275	-1.027679	8.864655	2.78628	-1.796884	-10.548476	2.585471	-8.154532	-0.468009	-0.639594	-0.382035
-3.183153	0.44595	10.866205	-68.780847	-131.69301	-40.434936	0.832669	-0.080681	-0.896615	0.504024	-4.856697	8.438584	0.224391	0.589133	-0.569418	0.31926	0.163111	-0.999079	9.039097	2.959609	-1.912655	-11.600007	3.02257	-9.375239	-0.467938	-0.64042	-0.366508
-3.059695	0.390355	11.323015	-70.142045	-134.263585	-39.399149	0.804399	-0.045334	-0.9309	0.448661	-4.743834	8.550749	0.993273	0.32315	-0.602273	0.306435	0.193677	-1.00081	8.636563	2.672399	-1.382432	-11.996191	3.074427	-8.610035	-0.468009	-0.639594	-0.382035
-3.400704	-0.011004	11.428352	-68.291348	-133.598012	-37.675861	0.820763	-0.041838	-0.998213	0.390749	-5.194418	8.492521	1.551665	0.513993	-0.569098	0.319926	0.180575	-1.028782	8.812781	2.555594	-1.439532	-11.709482	3.306275	-7.267498	-0.467871	-0.622575	-0.3984
-3.278442	0.048043	11.828791	-67.02155	-133.190538	-35.126902	0.834141	-0.049269	-0.970411	0.164114	-5.193844	8.657604	0.845739	0.81545	-1.152401	0.320441	0.167398	-1.056478	8.7528	2.497406	-1.500787	-11.639662	3.849869	-6.567438	-0.495825	-0.640002	-0.382176
-3.976257	-0.470846	11.244727	-68.465112	-130.804836	-31.863208	0.778044	-0.061542	-0.965598	0.047559	-5.081015	8.598641	0.295801	1.212672	-2.012077	0.344992	0.17751	-0.986284	8.932744	2.671971	-1.317023	-11.322809	4.890416	-6.512429	-0.468147	-0.656613	-0.36567
-4.196983	-1.15829	11.635349	-70.412543	-126.373681	-27.491338	0.779144	-0.033657	-1.025318	0.154143	-4.405549	8.261791	-1.98001	1.896199	-3.116917	0.320071	0.151006	-1.041124	9.113924	2.788707	-1.0736	-11.072594	5.598666	-6.883449	-0.4678	-0.623402	-0.382872
-4.53849	-0.870351	11.743581	-73.67135	-120.935856	-22.946093	0.76541	-0.047054	-1.021553	0.112593	-5.193499	8.939593	-4.444287	2.360909	-3.946632	0.319926	0.180575	-1.028782	8.874694	2.730429	-1.25797	-10.980804	6.128179	-7.77258	-0.468013	-0.620923	-0.429456
-4.253207	-1.043124	11.691571	-77.943889	-115.748146	-18.463458	0.805857	0.003378	-1.022188	0.050754	-4.855551	8.76875	-2.585256	0.276	-5.044841	0.320962	0.214432	-1.073838	9.402808	2.61232	-1.428281	-10.524505	6.327887	-9.180983	-0.52364	-0.64041	-0.382316
-4.184818	-1.040753	12.261215	-80.147145	-112.697434	-14.512344	0.765367	0.004844	-1.074028	0.455914	-4.743549	8.890586	3.796103	-0.573278	-3.445104	0.29398	0.240635	-1.017895	8.760773	2.382985	-1.081933	-9.636608	6.032448	-9.885681	-0.468426	-0.671979	-0.380361
-4.587085	-0.52373	12.19874	-81.683057	-109.873226	-12.008412	0.750861	0.01899	-1.077095	0.507974	-5.025547	8.60836	5.569609	-1.991807	-3.457782	0.281073	0.19567	-1.028958	9.050642	2.729777	-1.314575	-8.803227	6.002644	-9.674633	-0.509941	-0.656399	-0.381409
-5.10584	-0.351757	12.018883	-84.693818	-106.452288	-11.208091	0.763838	0.042629	-1.070199	0.053711	-5.137108	8.881792	6.643823	-2.501613	-3.122881	0.320962	0.214432	-1.073838	8.707549	2.733059	-0.722109	-8.490533	6.43013	-9.494443	-0.496037	-0.637523	-0.428759
-5.1025	-0.351033	12.189442	-85.187412	-102.432732	-10.650648	0.793965	0.024923	-1.106294	0.334955	-4.856232	8.604876	6.884573	-3.075887	-3.929922	0.281965	0.259096	-1.061672	9.167573	2.72926	-1.372281	-7.838672	6.79671	-9.223507	-0.468847	-0.685693	-0.426108
-5.435057	-0.118605	12.752257	-86.084571	-98.306869	-11.501135	0.748931	0.087845	-1.094174	0.33219	-5.307018	8.434578	8.35365	-4.10252	-3.507358	0.333052	0.211291	-1.031065	9.175411	2.672914	-0.95318	-7.24977	7.041336	-9.012883	-0.482334	-0.672183	-0.380431
-6.183777	-0.176473	12.510128	-86.067876	-94.378421	-13.553603	0.710342	0.055054	-1.163918	0.171152	-5.080899	8.997537	10.351167	-4.962324	-4.130857	0.320296	0.196967	-1.044135	8.756256	2.904927	-1.259429	-6.899383	7.890587	-8.193063	-0.482685	-0.686723	-0.41065
-6.353438	-0.003542	12.621218	-85.239327	-93.875357	-14.191894	0.722919	0.109764	-1.177931	0.294744	-5.080782	9.396432	11.609036	-5.707667	-4.938779	0.346468	0.182869	-1.058033	8.692548	2.55537	-1.561547	-6.896536	7.760973	-7.489553	-0.509666	-0.622361	-0.414139
-7.099848	-0.17581	12.492313	-80.654576	-96.598062	-13.543901	0.721776	0.133778	-1.170687	-0.070205	-4.968233	8.483039	14.279028	-7.11145	-5.474661	0.293748	0.134464	-1.025219	8.578107	2.905085	-1.322637	-6.891789	7.658798	-6.480564	-0.4961	-0.67404	-0.349446
-7.411813	-0.066269	11.179607	-80.286478	-97.91193	-11.41939	0.694307	0.106985	-1.163157	0.567095	-4.574915	8.723228	16.366016	-8.215626	-6.069688	0.306875	0.16518	-1.027502	8.583474	2.964397	-1.022855	-6.821714	7.829325	-5.198051	-0.495825	-0.640002	-0.382176
-8.568534	0.621446	10.591702	-82.302245	-95.778922	-5.122369	0.707284	0.130624	-1.156262	0.277497	-4.912455	8.603619	17.902392	-8.868878	-6.352396	0.293754	0.194674	-1.014884	8.997668	2.498844	-1.01713	-6.809055	7.8984	-2.997971	-0.440752	-0.669918	-0.411276
-9.777475	0.505986	10.226717	-83.291241	-88.450159	4.353281	0.709156	0.130966	-1.20915	0.507651	-4.856555	8.608502	16.885488	-8.725461	-6.814204	0.306655	0.179428	-1.014156	9.052012	2.613872	-1.255163	-8.030901	8.213757	-1.375247	-0.551736	-0.656185	-0.397147
-10.409092	1.482707	10.161718	-82.790311	-77.848127	13.171981	0.679415	0.134901	-1.169639	0.442617	-4.744071	8.267551	17.005272	-9.087263	-7.526741	0.29501	0.214282	-1.073287	8.758282	2.033787	-1.263137	-8.727874	8.622772	0.245151	-0.468497	-0.671153	-0.395889
-11.207853	2.230751	10.319826	-77.407732	-65.707788	21.142579	0.691578	0.237981	-1.222051	0.69252	-5.532418	9.121317	18.686627	-10.561127	-8.649835	0.320071	0.151006	-1.041124	8.932879	2.613895	-1.31727	-9.268876	9.091004	2.109229	-0.440402	-0.655378	-0.381058
-11.335356	3.262127	9.696558	-69.416898	-51.715187	26.743696	0.650359	0.215091	-1.228248	0.625199	-4.856676	8.724199	20.218189	-11.697614	-10.077969	0.308056	0.169467	-1.084901	8.991895	2.61376	-1.31617	-9.679329	9.85645	4.857798	-0.440894	-0.668266	-0.442332
-10.774568	4.120924	9.142782	-61.404924	-36.475824	28.072098	0.678214	0.228113	-1.232362	0.625738	-5.138328	8.723962	20.546177	-12.814501	-12.154246	0.281293	0.181422	-1.042304	9.178423	2.324952	-0.83485	-9.661346	10.536407	7.146813	-0.440681	-0.670744	-0.395749
-11.173951	5.270527	9.25352	-52.760588	-19.88756	24.483862	0.664865	0.200945	-1.225181	0.397032	-4.687158	8.832785	22.473894	-14.432361	-14.234208	0.294564	0.182569	-1.05693	8.633802	2.439353	-1.563142	-9.316601	11.054844	7.418173	-0.481708	-0.623606	-0.382943
-11.110347	5.731465	9.597682	-36.256034	-4.151171	17.823333	0.664094	0.228487	-1.232013	0.575857	-5.363258	9.062401	23.205644	-15.475589	-17.419185	0.307836	0.183716	-1.071555	8.993806	2.265551	-1.257747	-9.610508	11.77154	9.005191	-0.468013	-0.620923	-0.429456
-10.653301	5.558568	9.549013	-20.344061	11.637619	8.926481	0.663322	0.256029	-1.238844	0.51646	-4.405532	9.061999	27.627467	-17.819568	-20.860719	0.281733	0.152925	-1.068996	9.174021	2.323963	-1.074477	-10.760017	12.905221	11.388043	-0.482058	-0.638146	-0.413161
-7.554659	5.525268	15.80366	-23.763642	30.966494	-3.047144	0.663694	0.259558	-1.25292	0.454143	-5.081627	8.777023	33.255741	-22.418602	-24.138717	0.281728	0.092715	-1.079332	9.288482	2.439104	-1.251503	-12.062699	14.098595	13.862909	-0.454243	-0.637737	-0.413021
