1812_acc_x	1812_acc_y	1812_acc_z	1812_gyro_x	1812_gyro_y	1812_gyro_z	1812_mag_x	1812_mag_y	1812_mag_z	1813_acc_x	1813_acc_y	1813_acc_z	1813_gyro_x	1813_gyro_y	1813_gyro_z	1813_mag_x	1813_mag_y	1813_mag_z	1814_acc_x	1814_acc_y	1814_acc_z	1814_gyro_x	1814_gyro_y	1814_gyro_z	1814_mag_x	1814_mag_y	1814_mag_z
-1.536659	-0.869806	9.826163	-0.254221	0.77716	-0.043529	-0.26777	-0.77913	-1.293018	2.835242	-1.018025	8.970843	0.146957	-1.21674	-0.237903	-0.180117	0.114074	-0.13809	9.232505	-3.080724	0.405188	-0.851865	0.512095	-0.118406	-0.842511	0.490519	0.361377
-1.374559	-1.103402	9.3087	-0.287281	0.842017	-0.223435	-0.285254	-0.818424	-1.273647	2.78765	-0.732306	9.50025	0.227633	-1.370013	-0.343379	-0.198129	0.126082	-0.144094	8.835699	-2.847816	0.51254	-0.54446	0.518148	-0.269819	-0.929356	0.192841	1.120998
-1.597699	-0.637999	9.652135	-0.222569	0.713152	0.075326	-0.28308	-0.761014	-1.313281	2.506991	-1.018017	9.554324	0.301234	-1.255593	-0.215099	-0.186121	0.114074	-0.13809	9.282804	-3.140311	0.063499	-0.57508	0.4844	-0.085691	-0.893765	0.172221	1.12852
-0.904412	-0.696151	9.89697	-0.192452	0.775536	-0.045064	-0.346613	-0.805625	-1.278743	2.267937	-0.672464	8.900367	0.07213	-1.396392	-0.308514	-0.180117	0.126082	-0.132086	9.166551	-3.082713	-0.052675	-0.636575	0.457069	-0.360652	-0.896418	0.190225	1.119273
-1.482922	-0.638111	9.654421	-0.415878	0.628746	-0.13746	-0.271999	-0.834287	-1.289704	2.835476	-0.731664	9.029335	0.025956	-1.182522	-0.200406	-0.180117	0.114074	-0.13809	9.283828	-3.661378	0.061133	-0.421523	0.521929	-0.42217	-0.930728	0.169579	1.176892
-1.363462	-0.753748	9.887686	-0.227756	0.622179	-0.019965	-0.24656	-0.763853	-1.220484	2.671457	-1.132606	9.262787	0.087222	-1.284556	-0.085561	-0.174113	0.120078	-0.13809	9.288674	-3.834016	0.288713	-0.544532	0.548799	-0.27053	-0.880422	0.170409	1.157213
-1.07772	-0.696124	9.835726	-0.193734	0.650842	0.072082	-0.295691	-0.76579	-1.259798	2.390926	-0.731011	9.433643	0.02473	-1.247753	-0.142737	-0.198129	0.132086	-0.132086	8.771338	-3.660355	0.050997	-0.606273	0.641806	-0.395359	-0.944498	0.185147	1.126485
-0.966373	-0.696654	9.664568	-0.322137	0.594289	-0.049426	-0.266481	-0.820406	-1.218168	2.555734	-0.960185	9.142308	0.019444	-1.340519	-0.148495	-0.180117	0.120078	-0.150098	9.281564	-3.082677	0.00667	-0.390573	0.457834	-0.206423	-0.900397	0.217233	1.105401
-1.021364	-0.812404	9.778775	0.147979	0.766185	-0.022981	-0.251051	-0.77886	-1.27386	2.77804	-0.788685	8.96935	0.017222	-1.270209	-0.298425	-0.186121	0.120078	-0.132086	9.398272	-3.371861	0.121792	-0.298292	0.429679	-0.297029	-0.964047	0.218215	1.096387
-1.423526	-0.347673	9.771892	-0.169061	0.528309	-0.025215	-0.285254	-0.818424	-1.273647	2.668709	-1.304179	9.086091	0.173721	-1.379371	-0.125691	-0.186121	0.102066	-0.156102	9.392857	-2.909741	-0.104474	-0.421506	0.521023	-0.360979	-0.881275	0.19792	1.113786
-1.307328	-0.637858	9.831294	-0.195206	0.714463	-0.078067	-0.313437	-0.764934	-1.297117	2.559164	-1.017782	9.31941	0.149255	-1.220127	-0.176396	-0.162106	0.114074	-0.144094	9.343809	-3.487014	0.234324	-0.267591	0.432324	-0.44985	-0.867459	0.214617	1.103675
-1.256854	-0.58071	9.485688	-0.254862	0.714812	0.015044	-0.268797	-0.778004	-1.311178	2.837479	-0.674575	9.147234	-0.005022	-1.181275	-0.1992	-0.186121	0.126082	-0.132086	8.992456	-3.141056	-0.227593	-0.544552	0.576731	-0.087668	-0.91156	0.182531	1.124759
-1.254735	-0.406302	9.601737	-0.137215	0.621018	-0.113842	-0.254897	-0.814505	-1.289811	2.835881	-0.502596	9.087929	-0.011458	-1.272348	-0.235711	-0.174113	0.132086	-0.13809	9.341772	-3.024106	0.179335	-0.452135	0.487728	-0.207447	-0.911987	0.196286	1.103046
-1.138426	-0.812572	9.660859	-0.10281	0.618083	0.038016	-0.253488	-0.796119	-1.290915	3.176426	-0.618305	9.153652	-0.042589	-1.404948	-0.05766	-0.186121	0.132086	-0.13809	9.172296	-3.139295	0.232523	-0.452497	0.640982	-0.211003	-0.903096	0.202973	1.156671
-1.480803	-0.463703	9.770469	-0.106652	0.589033	-0.085323	-0.256307	-0.83289	-1.288706	2.83782	-0.78916	9.147437	-0.01322	-1.30327	-0.237631	-0.180117	0.120078	-0.132086	9.06337	-3.369601	0.457588	-0.544506	0.54744	-0.178743	-0.931582	0.19709	1.133464
-1.424168	-0.870197	9.712819	-0.191427	0.806285	-0.043826	-0.266361	-0.760744	-1.294123	2.723694	-0.788717	9.086264	-0.013297	-1.370194	-0.149208	-0.186121	0.120078	-0.144094	9.063142	-3.253809	0.458113	-0.390658	0.515964	0.006324	-0.914686	0.182027	1.154315
-1.595357	-0.695762	9.767624	-0.194822	0.682865	-0.018255	-0.282818	-0.801165	-1.256591	2.613745	-0.731389	9.260989	0.013085	-1.364668	-0.273429	-0.180117	0.114074	-0.132086	9.516891	-3.48683	0.351887	-0.23684	0.459275	-0.175045	-0.911087	0.20104	1.085956
-1.249996	-0.579871	9.832577	-0.162787	0.587259	0.160412	-0.269562	-0.817028	-1.272649	2.671052	-1.361674	9.204192	0.2024	-1.377232	-0.188404	-0.168109	0.114074	-0.13809	9.567634	-3.198776	0.068867	-0.237083	0.552587	-0.268965	-0.960067	0.191208	1.110258
-1.586379	-0.520517	10.230562	-0.226153	0.778046	-0.166397	-0.26918	-0.797516	-1.291913	2.666429	-0.90303	9.02638	0.021742	-1.343905	-0.086988	-0.180117	0.144094	-0.156102	9.227442	-3.37152	0.118413	-0.145022	0.64341	-0.117651	-0.947151	0.203151	1.117237
-1.195592	-1.044688	9.659157	-0.186498	0.803313	0.16985	-0.281408	-0.782779	-1.257696	2.607566	-0.845364	8.907191	0.208759	-1.353083	-0.06347	-0.186121	0.13809	-0.132086	9.343922	-3.544911	0.234062	-0.26801	0.642348	-0.148873	-0.935134	0.210342	1.141307
-1.364383	-0.986059	9.829312	-0.293492	0.720295	-0.319965	-0.266361	-0.760744	-1.294123	2.785924	-1.247633	9.324163	0.053946	-1.279922	-0.145862	-0.168109	0.132086	-0.150098	9.406053	-3.891352	0.461979	-0.175657	0.583542	-0.238767	-0.910661	0.187284	1.107669
-1.197013	-0.754614	9.602041	-0.354813	0.627548	-0.16952	-0.266481	-0.820406	-1.218168	2.72787	-0.731831	9.322163	0.027564	-1.285448	-0.021642	-0.186121	0.120078	-0.132086	9.055258	-3.255649	0.058468	-0.145201	0.706524	-0.241456	-0.913786	0.18678	1.137225
-1.13614	-0.812293	9.776489	-0.285425	0.746798	-0.013475	-0.245795	-0.724829	-1.259014	2.340863	-1.075103	9.728166	-0.070043	-1.341857	-0.052616	-0.186121	0.10807	-0.156102	8.774035	-3.312188	0.223851	-0.144669	0.490609	-0.144691	-0.895991	0.17647	1.140986
-1.365971	-0.521857	9.772616	-0.226027	0.652503	0.011799	-0.269825	-0.776877	-1.329338	2.665853	-1.074806	8.967684	0.108853	-1.406105	-0.155952	-0.192125	0.126082	-0.156102	9.273794	-3.142414	-0.393238	-0.175461	0.519522	-0.053772	-0.930682	0.201844	1.116375
-1.253425	-0.58029	9.659132	-0.345402	0.715973	0.108921	-0.264307	-0.762997	-1.257802	2.950795	-1.133154	9.091219	0.15094	-1.256129	-0.086054	-0.174113	0.10807	-0.132086	9.288777	-3.312686	0.348171	-0.144924	0.6114	-0.025153	-0.882648	0.174658	1.169679
-1.135108	-0.696068	9.834583	-0.188805	0.64787	0.285757	-0.283845	-0.800038	-1.274751	2.833132	-0.674169	8.911233	0.29771	-1.317437	-0.218938	-0.186121	0.120078	-0.144094	9.230025	-2.965457	0.29153	-0.114294	0.644695	-0.178686	-0.915113	0.195782	1.132602
-1.371853	-0.348428	9.483961	-0.343799	0.871841	-0.037511	-0.295691	-0.76579	-1.259798	2.504477	-0.903229	9.436121	0.270025	-1.455117	0.051374	-0.174113	0.114074	-0.13809	9.172865	-3.428777	0.231209	-0.052366	0.488121	0.100543	-0.909334	0.178282	1.112293
-1.313211	-0.464429	9.542639	-0.382177	0.626236	-0.016127	-0.28167	-0.742629	-1.314385	2.723971	-1.246955	9.028076	0.293036	-1.377588	-0.25353	-0.168109	0.114074	-0.126082	9.172751	-3.37088	0.231471	0.070444	0.552297	0.00796	-0.945398	0.180393	1.143575
-1.484874	-0.986646	9.537953	-0.223914	0.651229	0.103374	-0.295691	-0.76579	-1.259798	2.890739	-0.674441	8.97132	0.174334	-1.346756	-0.154525	-0.174113	0.120078	-0.144094	9.28889	-3.370582	0.347908	-0.021991	0.642207	0.066548	-0.964093	0.185951	1.156904
-1.080062	-0.63836	9.720236	-0.313046	0.651541	0.258302	-0.297483	-0.803688	-1.239429	2.553965	-0.730914	9.082902	0.204776	-1.313695	-0.215319	-0.192125	0.120078	-0.132086	9.282815	-3.719538	0.003778	0.039788	0.520361	0.069706	-0.893765	0.172221	1.12852
-1.019942	-1.102478	9.835891	-0.25102	0.743863	0.138383	-0.300564	-0.800309	-1.293909	2.953032	-0.789704	9.267611	0.148642	-1.252742	-0.147561	-0.168109	0.120078	-0.144094	9.398044	-3.256068	0.122318	-0.083255	0.549044	0.098964	-0.912887	0.191533	1.120135
-1.138148	-1.102786	9.660161	-0.346873	0.779594	-0.041227	-0.282435	-0.781653	-1.275856	2.381487	-0.844683	8.902845	0.059001	-1.387928	0.125162	-0.180117	0.120078	-0.132086	9.343251	-3.776759	0.175918	-0.052366	0.488121	0.100543	-0.897317	0.185472	1.136362
-0.971112	-0.523085	9.433728	-0.25102	0.743863	0.138383	-0.2832	-0.820677	-1.237327	2.898451	-1.076097	9.326032	0.112991	-1.311646	-0.180948	-0.168109	0.114074	-0.132086	9.288777	-3.312686	0.348171	-0.083226	0.520658	-0.053302	-0.928502	0.16533	1.164426
-0.793288	-0.46451	9.72637	-0.34649	0.747996	0.018585	-0.299537	-0.801435	-1.275749	2.896449	-1.133186	9.208133	0.081323	-1.409938	-0.062485	-0.180117	0.120078	-0.126082	9.173423	-3.139032	0.289615	-0.052421	0.517866	0.161023	-0.933381	0.187584	1.167644
-1.247543	-0.75372	9.947787	-0.436389	0.811504	0.053889	-0.282053	-0.762141	-1.295121	2.945426	-0.788993	8.854609	0.168511	-1.405213	-0.219871	-0.186121	0.114074	-0.150098	9.45104	-2.967489	-0.046518	-0.175822	0.672776	-0.057328	-0.894665	0.167467	1.14561
-1.015927	-0.521492	10.068547	-0.281327	0.869793	-0.008521	-0.262252	-0.765249	-1.221482	2.720903	-0.215691	9.026248	0.18299	-1.325993	0.031916	-0.162106	0.120078	-0.132086	9.395121	-3.488443	-0.05001	0.132049	0.520138	0.161962	-0.91464	0.214291	1.093798
-1.362319	-0.753609	9.945501	-0.291637	0.625076	-0.110005	-0.268535	-0.818154	-1.254489	3.184948	-0.561825	9.625552	-0.005099	-1.248199	-0.110777	-0.180117	0.114074	-0.13809	8.999328	-3.197376	0.114697	-0.175426	0.51771	0.06861	-0.946678	0.22166	1.078434
-1.254568	-0.58043	9.601318	-0.254221	0.77716	-0.043529	-0.285254	-0.818424	-1.273647	2.439605	-1.016832	8.963236	0.328075	-1.351299	-0.191309	-0.174113	0.132086	-0.156102	9.061231	-3.428024	0.34314	-0.144936	0.638879	0.188304	-0.91246	0.177778	1.141849
-1.1889	-0.869721	10.006465	-0.384993	0.627935	-0.138228	-0.286281	-0.817298	-1.291807	2.838267	-1.30469	9.08935	0.078488	-1.372243	-0.18358	-0.180117	0.126082	-0.144094	9.118516	-3.601826	0.343478	-0.114089	0.580222	0.036905	-0.933335	0.219848	1.107127
-1.075267	-0.869972	9.950936	-0.407617	0.811966	-0.038454	-0.298127	-0.783049	-1.276854	3.005887	-1.018638	9.033103	0.029939	-1.22191	-0.048557	-0.186121	0.132086	-0.132086	8.941486	-3.313318	0.055953	-0.144809	0.578484	0.128535	-0.915586	0.177274	1.171405
-1.429939	-0.812853	9.423885	-0.226988	0.558982	0.099659	-0.271354	-0.854925	-1.252279	2.496359	-0.730642	9.022815	0.017145	-1.337132	-0.210002	-0.168109	0.102066	-0.144094	9.678028	-3.141896	-0.099894	-0.206278	0.549794	-0.05464	-0.931155	0.183335	1.155178
-1.250052	-0.521829	9.832716	-0.345144	0.809919	-0.009463	-0.281026	-0.763267	-1.27696	2.613809	-0.387735	9.31938	0.119426	-1.220573	-0.144436	-0.192125	0.114074	-0.144094	9.288777	-3.312686	0.348171	0.039707	0.551465	0.038399	-0.914686	0.182027	1.154315
-1.20072	-0.46482	9.429296	-0.162209	0.712378	0.012741	-0.282053	-0.762141	-1.295121	3.230026	-0.732756	8.977942	0.002485	-1.158819	-0.043512	-0.186121	0.114074	-0.13809	9.225975	-3.198094	0.06211	-0.083327	0.579695	0.098253	-0.929829	0.174332	1.159802
-1.37244	-0.928994	9.424749	-0.318422	0.748883	-0.104283	-0.293254	-0.74853	-1.242743	2.607161	-1.074432	8.848597	-0.078164	-1.396928	-0.179469	-0.180117	0.120078	-0.150098	9.281792	-3.19847	0.006144	-0.021664	0.490765	-0.052278	-0.944971	0.166638	1.165289
-1.249885	-0.695957	9.832297	-0.377694	0.717634	0.048639	-0.314202	-0.803958	-1.258587	2.733474	-0.789631	9.617265	0.051035	-1.309151	-0.178535	-0.192125	0.10807	-0.144094	9.284499	-3.42953	0.119277	-0.083229	0.547684	0.19075	-0.958741	0.182205	1.114882
-1.188203	-0.40524	10.065398	-0.354046	0.564351	-0.049897	-0.262897	-0.744611	-1.258907	2.607502	-1.189017	8.8488	0.140444	-1.374737	-0.185992	-0.180117	0.10807	-0.13809	9.224962	-3.256253	0.004755	-0.236835	0.485848	0.099604	-0.895091	0.181223	1.123896
-1.431138	-0.75495	9.36621	-0.227178	0.747297	-0.167636	-0.299537	-0.801435	-1.275749	2.671457	-1.132606	9.262787	0.018907	-1.30621	-0.208083	-0.192125	0.114074	-0.144094	9.054235	-2.734581	0.060834	-0.329032	0.455873	-0.022536	-0.911134	0.168775	1.146473
-1.302923	-0.463171	10.062972	-0.070901	0.648021	0.038487	-0.288336	-0.815045	-1.328127	2.725292	-0.960696	9.145568	0.089674	-1.154095	-0.200899	-0.186121	0.114074	-0.144094	8.875305	-3.199514	-0.401385	-0.329206	0.54556	0.128308	-0.910234	0.173528	1.129383
-1.241716	-0.869106	10.236581	-0.100824	0.742353	-0.048605	-0.286281	-0.817298	-1.291807	2.386409	-0.673313	9.197541	0.110615	-1.375183	-0.154032	-0.174113	0.126082	-0.144094	9.122452	-3.311293	0.573161	-0.543952	0.357191	0.253861	-0.911987	0.196286	1.103046
-1.028277	-0.7552	9.432026	-0.080954	0.497248	-0.181382	-0.26918	-0.797516	-1.291913	2.562253	-0.960794	9.496309	-0.046419	-1.231712	-0.386354	-0.168109	0.126082	-0.132086	8.887022	-3.428471	0.168485	-0.175418	0.517257	0.099206	-0.863953	0.169101	1.15635
-1.301892	-0.346946	10.121066	-0.132286	0.618046	0.099833	-0.233567	-0.739565	-1.293231	2.668432	-0.845941	9.144279	0.056857	-1.250693	-0.11319	-0.186121	0.120078	-0.150098	9.056043	-3.081697	0.116349	-0.4525	0.668008	0.03305	-0.96272	0.209212	1.101011
-1.478294	-0.695594	9.88554	0.053661	0.675523	0.036655	-0.313819	-0.784446	-1.277852	2.488987	-0.44357	8.668307	0.138146	-1.371351	-0.247499	-0.192125	0.120078	-0.13809	9.001694	-3.254746	0.228618	-0.360078	0.605577	0.18792	-0.941372	0.185651	1.096929
-1.244225	-0.637215	10.121511	-0.100504	0.773526	-0.077892	-0.287691	-0.835684	-1.290702	2.73341	-1.133284	9.558874	0.204622	-1.447542	-0.038475	-0.192125	0.120078	-0.13809	9.060002	-3.949617	0.22659	-0.390479	0.45285	0.130128	-0.91464	0.214291	1.093798
-1.30613	-0.695761	9.888969	-0.165283	0.620131	0.009025	-0.293899	-0.727892	-1.280168	2.548937	-0.501338	8.846495	0.327385	-1.450839	-0.074053	-0.186121	0.114074	-0.144094	9.228682	-3.429153	0.175243	-0.452139	0.514754	0.036606	-0.928029	0.183839	1.125622
-1.316417	-0.697019	9.368636	-0.126201	0.865311	0.018167	-0.231131	-0.722306	-1.276176	3.010297	-0.675391	9.327494	0.050421	-1.341766	-0.149701	-0.174113	0.10807	-0.13809	9.229353	-3.197305	0.233386	-0.636434	0.422794	-0.115177	-0.91246	0.177778	1.141849
-1.367923	-0.870393	9.656148	-0.226731	0.652928	-0.018726	-0.284872	-0.798912	-1.292911	2.781812	-0.960867	9.146655	-0.109755	-1.428296	-0.149428	-0.180117	0.126082	-0.156102	9.004731	-3.080269	0.400683	-0.360219	0.639853	-0.057556	-0.863953	0.169101	1.15635
-1.599009	-0.464011	9.594739	-0.355775	0.534027	-0.081661	-0.262515	-0.725099	-1.278172	2.612828	-0.788579	9.202091	0.110156	-1.273951	-0.302043	-0.186121	0.126082	-0.13809	9.291029	-3.31216	0.462355	-0.329176	0.517175	-0.023959	-0.910661	0.187284	1.107669
-1.591761	-0.869471	9.94065	-0.473421	0.627822	0.047225	-0.252078	-0.777733	-1.29202	2.553283	-0.501744	9.082496	0.142819	-1.3112	-0.212907	-0.192125	0.10807	-0.13809	8.998998	-3.602913	0.055765	-0.175588	0.579918	0.005997	-0.944925	0.198902	1.104771
-1.134719	-1.102367	9.833605	-0.314197	0.746335	0.078867	-0.252461	-0.797245	-1.272755	2.729809	-1.018395	9.38167	0.056167	-1.350233	0.004067	-0.180117	0.10807	-0.126082	9.283259	-3.371897	0.062447	0.039771	0.521267	0.008515	-0.928883	0.21135	1.082195
-1.253648	-0.34812	9.659691	-0.327003	0.534489	-0.174003	-0.283845	-0.800038	-1.274751	2.83456	-0.788855	8.970437	0.055631	-1.315924	-0.055521	-0.186121	0.120078	-0.132086	9.347415	-3.602019	0.405075	-0.052319	0.458829	0.009468	-0.946724	0.189396	1.138951
-1.139569	-0.812712	9.603045	-0.19623	0.683714	-0.079305	-0.261487	-0.726225	-1.260012	3.119672	-0.904495	9.094073	0.086073	-1.282863	-0.116315	-0.180117	0.102066	-0.144094	9.281792	-3.19847	0.006144	-0.267571	0.485016	0.130043	-0.959641	0.177452	1.131972
-1.247765	-0.521549	9.948346	-0.231917	0.561955	-0.114017	-0.252723	-0.757095	-1.329445	2.892613	-1.304657	8.972437	-0.198474	-1.26317	-0.259229	-0.180117	0.114074	-0.132086	9.401981	-2.965535	0.352001	-0.360031	0.576285	0.096844	-0.896891	0.171717	1.158076
-0.913334	-0.929439	9.433893	-0.105564	0.55701	0.005013	-0.23997	-0.852132	-1.250283	2.61449	-0.616905	9.319786	0.089061	-1.18671	-0.172064	-0.186121	0.120078	-0.144094	9.401423	-3.25528	0.293594	-0.298414	0.516648	0.037389	-0.880849	0.184164	1.135499
-1.143443	-0.34879	9.430718	-0.255182	0.683639	0.04433	-0.268153	-0.798642	-1.273753	2.784155	-1.018362	9.264757	0.152702	-1.225207	-0.084135	-0.174113	0.120078	-0.162106	9.344036	-3.602807	0.233799	-0.513926	0.637052	0.002853	-0.965419	0.194953	1.15228
-1.032961	-0.639674	9.201046	-0.221224	0.775074	0.047278	-0.26777	-0.77913	-1.293018	2.612317	-0.616702	9.201786	0.173261	-1.278139	-0.273701	-0.180117	0.10807	-0.144094	9.007655	-2.847894	0.573011	-0.329257	0.548279	-0.055266	-0.893719	0.204485	1.068003
-0.962665	-0.986448	9.837313	-0.350141	0.53063	0.16254	-0.252461	-0.797245	-1.272755	2.781641	-0.903574	9.146553	-0.012761	-1.404502	-0.08962	-0.174113	0.126082	-0.156102	9.052995	-2.676948	0.004005	-0.359994	0.547447	-0.024827	-0.899071	0.20823	1.110025
-0.965341	-0.580429	9.722662	-0.205132	0.438147	-0.119739	-0.264307	-0.762997	-1.257802	3.007144	-1.076032	9.092204	0.081399	-1.343014	-0.150907	-0.180117	0.114074	-0.13809	9.00158	-3.19685	0.228881	-0.482569	0.390412	0.131081	-0.963147	0.222968	1.079297
-1.306185	-0.637719	9.889109	-0.227115	0.684526	-0.078538	-0.263279	-0.764123	-1.239642	3.010233	-1.019044	9.269103	0.027718	-1.1516	-0.198487	-0.186121	0.114074	-0.13809	9.344696	-2.791732	0.351663	-0.390394	0.39472	-0.082618	-0.910234	0.173528	1.129383
-0.960825	-0.521827	9.954061	-0.234287	0.469283	-0.087208	-0.279999	-0.764393	-1.2588	2.833473	-0.788754	8.911436	0.174487	-1.212908	-0.33137	-0.204133	0.126082	-0.132086	8.942726	-3.370951	0.112782	-0.35956	0.363542	-0.020559	-0.930255	0.188088	1.138088
-1.194838	-0.638249	9.71795	-0.270805	0.473491	-0.330641	-0.264307	-0.762997	-1.257802	2.726208	-0.903505	9.204467	-0.075789	-1.33339	-0.206384	-0.192125	0.120078	-0.13809	9.394222	-3.604498	-0.107628	-0.451919	0.395775	-0.205313	-0.943172	0.176144	1.131109
-1.257077	-0.348539	9.486247	-0.194118	0.68244	0.01227	-0.313437	-0.764934	-1.297117	2.611273	-1.361199	9.026105	-0.037916	-1.344797	-0.023068	-0.168109	0.120078	-0.144094	9.629424	-3.371528	0.297574	-0.544156	0.421665	0.03827	-0.947624	0.184643	1.156041
-0.728819	-0.695898	10.073843	-0.073975	0.555774	0.034771	-0.283845	-0.800038	-1.274751	2.837479	-0.674575	9.147234	-0.012684	-1.337578	-0.178043	-0.192125	0.114074	-0.150098	9.226885	-3.661265	0.060007	-0.451977	0.452546	0.09922	-0.91336	0.173024	1.158939
-1.083324	-0.812908	9.546373	-0.168741	0.559482	-0.054502	-0.281026	-0.763267	-1.27696	2.950113	-0.903984	9.090813	0.017145	-1.337132	-0.210002	-0.186121	0.120078	-0.150098	9.004515	-3.543703	0.341488	-0.39047	0.452397	0.160724	-0.892865	0.176974	1.11143
-1.370321	-0.754587	9.540798	-0.325595	0.53364	-0.112953	-0.314584	-0.82347	-1.239323	2.667175	-0.788547	9.085177	-0.111517	-1.459218	-0.151348	-0.180117	0.120078	-0.114074	9.28393	-3.140048	0.120591	-0.267525	0.455725	0.038968	-0.944498	0.185147	1.126485
-1.130536	-0.695509	10.065842	-0.080507	0.402878	-0.032472	-0.277562	-0.747134	-1.241745	2.608887	-0.559105	9.024684	0.229854	-1.440323	-0.193449	-0.168109	0.126082	-0.13809	9.225758	-3.661528	0.002915	-0.390559	0.483954	0.098821	-0.914259	0.168271	1.176029
-0.962777	-0.870363	9.837593	-0.100314	0.585211	0.189402	-0.297745	-0.763537	-1.296119	3.3482	-1.363618	9.158232	0.168434	-1.472137	-0.131449	-0.186121	0.120078	-0.132086	8.768631	-3.429295	-0.062136	-0.359713	0.425297	-0.052577	-0.899117	0.175966	1.170542
-1.13614	-0.812293	9.776489	-0.257168	0.559369	0.130951	-0.294281	-0.747404	-1.260903	2.733474	-0.789631	9.617265	0.106401	-1.536566	-0.040614	-0.192125	0.120078	-0.13809	9.288322	-3.0811	0.349223	-0.451884	0.393963	-0.082931	-0.929782	0.206597	1.099285
-1.198323	-0.580626	9.544646	-0.169061	0.528309	-0.025215	-0.329511	-0.785842	-1.27885	2.787415	-1.018667	9.441757	0.085996	-1.349787	-0.027893	-0.186121	0.132086	-0.132086	9.22114	-3.604683	-0.225191	-0.267525	0.455725	0.038968	-0.927602	0.170083	1.147336
-1.421882	-0.869918	9.828449	-0.071605	0.648445	0.007962	-0.2971	-0.784176	-1.258694	3.401012	-0.847953	9.040405	-0.071269	-1.407087	0.005053	-0.198129	0.132086	-0.132086	9.339406	-2.966736	0.065414	-0.26836	0.768123	-0.365886	-0.944925	0.198902	1.104771
-1.253703	-0.290077	9.659831	-0.137856	0.558671	-0.055269	-0.265716	-0.781382	-1.256698	2.722373	-1.074976	8.968771	0.1182	-1.285803	-0.086767	-0.168109	0.120078	-0.150098	9.168133	-3.314035	0.003366	-0.267577	0.458443	-0.144606	-0.909807	0.159773	1.151097
-1.593126	-0.63744	9.883394	-0.351229	0.562653	0.072203	-0.247205	-0.743214	-1.257909	2.831641	-0.903135	8.793639	0.198263	-1.471691	-0.163408	-0.192125	0.114074	-0.144094	9.33547	-3.257269	-0.164269	-0.26775	0.54813	0.006238	-0.92713	0.188592	1.108532
-0.960491	-0.870083	9.953222	-0.137089	0.495474	0.064354	-0.266099	-0.800894	-1.237433	2.83799	-0.846452	9.147539	0.109466	-1.37349	-0.184786	-0.186121	0.120078	-0.132086	9.055145	-3.197752	0.058731	-0.390259	0.333872	-0.111791	-0.932009	0.210846	1.111751
-1.308583	-0.521913	9.773759	-0.19335	0.619244	0.131893	-0.282053	-0.762141	-1.295121	2.899368	-1.018906	9.38493	-0.065983	-1.314321	0.010811	-0.192125	0.114074	-0.13809	8.945649	-3.138577	0.28511	-0.298691	0.611772	-0.178914	-0.883501	0.202169	1.126252
-1.138148	-1.102786	9.660161	-0.044116	0.524213	0.032765	-0.233687	-0.799228	-1.217277	2.951881	-1.133255	9.150219	-0.041976	-1.372333	-0.086495	-0.180117	0.120078	-0.150098	9.050867	-3.314597	-0.170163	-0.145013	0.642957	-0.087056	-0.86348	0.18761	1.117547
-1.366891	-0.754167	9.714242	0.024762	0.800605	-0.049198	-0.229076	-0.724558	-1.239855	3.173336	-0.675293	8.976753	0.076113	-1.43578	-0.156665	-0.186121	0.10807	-0.132086	8.942612	-3.313055	0.113045	-0.083235	0.521112	-0.083898	-0.910661	0.187284	1.107669
-1.193584	-0.754195	9.775486	-0.35155	0.531479	0.10149	-0.282053	-0.762141	-1.295121	2.948174	-0.61742	9.031305	0.177091	-1.451375	0.054992	-0.174113	0.120078	-0.150098	9.345834	-3.370696	0.349034	-0.14458	0.459052	-0.082788	-0.883075	0.188414	1.147966
-1.374614	-1.045359	9.30884	-0.13504	0.556972	0.066831	-0.281026	-0.763267	-1.27696	3.232775	-0.561183	9.154638	-0.015749	-1.500655	-0.033871	-0.162106	0.114074	-0.13809	9.451154	-3.025385	-0.046781	-0.175461	0.519522	-0.053772	-0.881275	0.19792	1.113786
-1.1889	-0.869721	10.006465	-0.262481	0.59394	-0.142536	-0.284489	-0.7794	-1.312176	2.882621	-0.501853	8.558014	0.056244	-1.283309	-0.084355	-0.174113	0.102066	-0.144094	9.125603	-3.194712	0.744963	-0.175588	0.579918	0.005997	-0.913786	0.18678	1.137225
-1.146483	-0.755508	9.256296	-0.232175	0.468009	0.004368	-0.296073	-0.785302	-1.240534	2.77804	-0.788685	8.96935	0.075577	-1.401471	-0.216253	-0.174113	0.120078	-0.150098	9.340771	-3.661492	0.062259	-0.052816	0.672932	0.035085	-0.931582	0.19709	1.133464
-1.425423	-0.754252	9.655284	-0.136127	0.588995	-0.023506	-0.281408	-0.782779	-1.257696	2.894339	-0.78933	9.148524	-0.046573	-1.36556	-0.209509	-0.174113	0.114074	-0.144094	9.286524	-3.313212	0.233987	-0.237312	0.672019	-0.057641	-0.894618	0.199732	1.085093
-1.3694	-0.522276	9.599171	-0.259601	0.529469	0.068662	-0.328484	-0.786969	-1.26069	2.384471	-0.386749	9.138033	-0.076402	-1.366006	-0.17755	-0.180117	0.10807	-0.150098	9.006756	-2.96395	0.515394	-0.114026	0.550024	0.007021	-0.896845	0.203981	1.097559
-1.419708	-0.753553	9.944358	-0.249675	0.805785	0.110335	-0.279616	-0.744881	-1.278065	2.952052	-1.190548	9.150321	0.117051	-1.28411	-0.117521	-0.192125	0.114074	-0.126082	9.572481	-3.371414	0.296447	-0.052366	0.488121	0.100543	-0.86348	0.18761	1.117547
-1.372774	-0.580738	9.425587	-0.167779	0.653003	-0.142361	-0.265978	-0.741232	-1.313387	2.492524	-0.902113	8.787119	0.077493	-1.236702	-0.391179	-0.174113	0.114074	-0.144094	8.661957	-3.659076	0.277113	-0.14495	0.61276	-0.11694	-0.929829	0.174332	1.159802
-1.021531	-0.638276	9.779194	-0.318616	0.592166	0.103199	-0.217995	-0.797831	-1.216279	2.725463	-1.017989	9.14567	-0.004486	-1.215583	-0.139612	-0.180117	0.114074	-0.144094	9.460175	-3.602509	0.350236	0.009272	0.400551	-0.141775	-0.915586	0.177274	1.171405
-1.3694	-0.522276	9.599171	-0.256333	0.778433	-0.135105	-0.284489	-0.7794	-1.312176	2.840164	-0.846655	9.265539	0.054482	-1.314231	-0.086274	-0.174113	0.120078	-0.144094	9.51374	-3.603411	0.180085	-0.267938	0.611697	-0.148161	-0.912414	0.210042	1.081332
-1.309559	-0.69618	9.715525	-0.194822	0.682865	-0.018255	-0.283845	-0.800038	-1.274751	2.775356	-0.616604	8.851045	0.149101	-1.353975	0.000449	-0.186121	0.132086	-0.132086	9.177131	-2.732706	0.519824	-0.052553	0.551688	-0.053857	-0.925376	0.165834	1.13487
-1.309503	-0.754223	9.715385	-0.414853	0.659495	-0.136222	-0.297745	-0.763537	-1.296119	2.728722	-1.018293	9.32267	0.175483	-1.348449	-0.123772	-0.186121	0.114074	-0.144094	9.510918	-3.314455	0.067215	-0.021745	0.521869	-0.083585	-0.89997	0.203477	1.127115
-0.960713	-0.637913	9.953781	-0.257742	0.779283	-0.196155	-0.297745	-0.763537	-1.296119	2.331381	-0.444176	9.314049	0.060381	-1.188849	-0.109351	-0.168109	0.120078	-0.13809	9.289334	-3.022941	0.406578	-0.175579	0.579464	0.036592	-0.899544	0.189721	1.148828
-1.19152	-0.521744	9.891674	-0.351292	0.625425	-0.016895	-0.249642	-0.760474	-1.274964	2.723012	-0.559548	9.085858	-0.102706	-1.304607	-0.141751	-0.186121	0.126082	-0.150098	9.510475	-3.662096	0.008546	-0.206206	0.519143	-0.053928	-0.931582	0.19709	1.133464
-1.360423	-0.34703	10.062109	-0.225386	0.71485	-0.046774	-0.248232	-0.742088	-1.276069	2.496295	-1.074295	8.964424	-0.099949	-1.409226	0.067766	-0.180117	0.114074	-0.13809	9.052892	-3.198278	-0.055453	-0.23667	0.396614	-0.081836	-0.941845	0.167142	1.135733
-1.19587	-0.754474	9.659856	-0.568506	0.600357	-0.012761	-0.269562	-0.817028	-1.272649	2.89387	-1.362051	9.031538	-0.067668	-1.278319	-0.079531	-0.174113	0.13809	-0.144094	9.298128	-3.484272	0.80412	-0.421457	0.54533	0.066647	-0.926703	0.174836	1.130246
-1.251083	-0.638054	9.774622	-0.251724	0.744288	0.107857	-0.265334	-0.76187	-1.275962	2.498639	-1.13179	9.082526	-0.107456	-1.431682	-0.087921	-0.174113	0.132086	-0.13809	8.946104	-3.370162	0.284059	-0.236529	0.362339	0.16364	-0.96054	0.172699	1.149062
-1.137339	-0.75439	9.718814	-0.287475	0.6853	-0.015953	-0.299919	-0.820947	-1.256485	2.950795	-1.133154	9.091219	-0.112053	-1.424909	-0.210936	-0.174113	0.126082	-0.144094	9.515196	-3.197611	0.29611	-0.298597	0.606788	0.157637	-0.845685	0.177299	1.121308
-1.303955	-0.579396	10.004878	-0.133374	0.650068	0.009497	-0.26777	-0.77913	-1.293018	2.728999	-1.476531	9.264482	0.123486	-1.193037	-0.081009	-0.180117	0.126082	-0.13809	9.745005	-3.660974	0.355604	-0.360346	0.700248	0.002213	-0.881748	0.179411	1.152589
-1.187282	-0.172929	10.123772	-0.193156	0.775961	-0.075589	-0.282435	-0.781653	-1.275856	3.111319	-1.018268	8.622275	-0.010998	-1.37358	-0.087701	-0.180117	0.120078	-0.144094	9.226532	-2.908349	0.120516	-0.390594	0.485767	-0.023561	-0.881748	0.179411	1.152589
-0.960602	-0.753998	9.953502	-0.164642	0.682478	-0.049548	-0.268153	-0.798642	-1.273753	2.666429	-0.90303	9.02638	0.086609	-1.317171	-0.056727	-0.168109	0.126082	-0.13809	9.569659	-3.082458	0.183577	-0.206099	0.48668	0.069165	-0.908435	0.183035	1.095203
-1.085721	-0.697102	9.431023	-0.317591	0.622915	0.104438	-0.252078	-0.777733	-1.29202	2.897024	-0.96141	9.266829	-0.288651	-1.364047	-0.046093	-0.168109	0.132086	-0.150098	9.290915	-3.254264	0.462618	-0.359806	0.48388	0.129573	-0.942272	0.180897	1.114019
-1.257886	-0.696935	9.427594	-0.16842	0.590656	-0.083788	-0.26777	-0.77913	-1.293018	2.438923	-0.787662	8.96283	-0.101557	-1.306301	-0.110998	-0.180117	0.114074	-0.126082	9.343695	-3.429118	0.234587	-0.359985	0.546994	0.005769	-0.911134	0.168775	1.146473
-1.364661	-0.695845	9.830011	-0.291957	0.593902	-0.080718	-0.314846	-0.783319	-1.296012	2.834219	-0.67427	8.970234	-0.016208	-1.399422	-0.181881	-0.186121	0.10807	-0.13809	9.451381	-3.141178	-0.047307	-0.421322	0.484482	0.037474	-0.963193	0.190704	1.139814
-1.426566	-0.754391	9.597469	-0.130684	0.773913	-0.046599	-0.264689	-0.782509	-1.238538	2.731237	-1.133081	9.440874	0.021742	-1.343905	-0.086988	-0.186121	0.132086	-0.150098	8.88849	-3.601897	0.224789	-0.329261	0.575305	0.188787	-0.97611	0.17876	1.132835
