1757_acc_x	1757_acc_y	1757_acc_z	1757_gyro_x	1757_gyro_y	1757_gyro_z	1757_mag_x	1757_mag_y	1757_mag_z	1758_acc_x	1758_acc_y	1758_acc_z	1758_gyro_x	1758_gyro_y	1758_gyro_z	1758_mag_x	1758_mag_y	1758_mag_z	1759_acc_x	1759_acc_y	1759_acc_z	1759_gyro_x	1759_gyro_y	1759_gyro_z	1759_mag_x	1759_mag_y	1759_mag_z
-1.377575	1.76023	9.599766	0.607176	0.428193	0.434561	-0.010492	-0.002096	-1.04799	2.789504	4.095544	8.49448	0.126762	0.275874	0.259746	0.20125	-0.323531	-1.02188	9.259738	2.678465	0.425779	-0.940096	-0.025231	-0.842044	-0.666087	-0.001899	0.01737
-1.375762	2.335128	9.715885	0.853016	0.646546	0.253395	0.313769	0.024303	-0.682327	3.488559	4.826927	8.962721	0.528112	0.250909	0.167337	0.139003	-0.481766	-0.539207	9.498138	2.620344	0.549747	-1.158218	-0.145843	-1.08518	-0.435791	-0.3925	-0.162371
-1.291665	3.719714	11.144117	-4.354292	-0.450476	2.703968	0.340481	0.061339	-0.679197	3.489074	3.925591	8.905322	0.342396	0.218093	0.136033	0.099189	-0.485207	-0.49533	9.553853	2.619467	0.371127	-1.467558	-0.424464	-0.868792	-0.394138	-0.391061	-0.177688
-1.452769	1.928736	8.689727	-2.115953	0.402246	1.607352	0.340467	0.078638	-0.696688	2.955725	4.320306	8.215099	0.220301	0.338782	0.198791	0.099409	-0.499456	-0.508676	8.838652	2.793832	-0.000778	-1.654155	-0.670474	-0.805816	-0.422304	-0.40601	-0.208047
-1.8152	2.799093	10.67541	-7.048599	-0.596426	3.629371	0.328275	0.010158	-0.67926	3.367252	4.263553	8.619991	0.218313	0.185257	0.228091	0.087249	-0.451426	-0.540111	9.192478	2.909174	0.006319	-1.996439	-1.131479	-0.710688	-0.408392	-0.424477	-0.160556
-1.447984	1.470169	8.915209	-2.085281	0.558829	1.364467	0.342367	0.044382	-0.714593	3.43328	4.263777	9.017677	0.466207	0.249521	0.259757	0.112755	-0.482988	-0.524305	9.249854	3.141096	-0.051498	-2.458511	-1.506517	-0.09597	-0.449419	-0.377338	-0.147751
-0.862611	0.668226	9.548349	2.747805	0.389261	-0.67628	0.342753	0.030611	-0.711177	3.418989	4.150547	8.337907	0.31158	0.218104	0.074352	0.112825	-0.527878	-0.535644	9.487694	2.850423	0.011574	-2.853925	-1.269865	0.546155	-0.422304	-0.40601	-0.208047
-1.226346	0.893899	8.519278	5.514451	1.942898	-1.02701	0.383972	0.053501	-0.70498	3.254216	4.432855	8.730995	0.343488	0.309685	0.198601	0.11231	-0.514701	-0.507948	9.313387	2.619018	0.127098	-2.791928	-1.270274	0.607058	-0.422092	-0.408488	-0.161464
-1.266738	2.218955	9.433364	3.026002	0.665397	-0.519252	0.34121	0.085695	-0.72484	3.546747	3.869153	8.906484	0.220808	0.370051	0.106618	0.100445	-0.465599	-0.553733	9.259468	2.794617	0.426273	-2.423773	-1.203351	0.177524	-0.449632	-0.374859	-0.194334
-1.148065	2.621928	9.664693	1.066928	0.492846	0.342285	0.341996	0.040853	-0.700517	3.422292	4.31968	8.507968	0.219442	0.248398	-0.048733	0.073307	-0.530247	-0.506117	9.027805	2.796146	0.661499	-2.641365	-1.107631	-0.280588	-0.449628	-0.39353	-0.146913
-1.343808	4.352819	11.429924	-4.934002	-0.272976	3.07653	0.342725	0.065209	-0.74616	2.906837	4.208084	8.610272	0.40625	0.372805	0.045138	0.099479	-0.544345	-0.520015	9.72652	3.082928	0.196685	-2.824599	-1.204793	0.178982	-0.449907	-0.408897	-0.161604
-1.661045	2.507901	9.767895	-3.462679	0.296801	2.222866	0.325989	0.058185	-0.664771	3.252445	4.094777	8.617431	0.25131	0.311126	-0.202224	0.113346	-0.480845	-0.553005	9.433235	3.258326	0.311739	-2.796465	-1.354791	-0.09547	-0.421536	-0.359085	-0.179503
-1.388585	1.585493	9.030511	1.011344	1.289847	0.508737	0.340853	0.064867	-0.693272	3.142927	4.320551	8.898401	0.283647	0.433574	-0.108497	0.073232	-0.545567	-0.505114	9.427578	2.850311	-0.049433	-2.672441	-1.479857	0.210307	-0.435724	-0.374655	-0.194264
-2.420853	0.839016	8.893625	2.629354	0.940123	-0.513646	0.354973	0.064493	-0.693622	3.253869	3.982163	8.673976	0.158863	0.33981	-0.078701	0.113195	-0.511485	-0.550998	9.368832	2.734294	-0.051028	-2.455995	-1.635494	0.546458	-0.422163	-0.407662	-0.176992
-1.207541	1.070325	9.486504	8.271135	2.022802	-1.524338	0.326732	0.065242	-0.692923	2.971655	4.208261	8.951319	0.343135	0.25057	-0.141096	0.151382	-0.544045	-0.521118	9.194949	2.793516	0.125638	-2.300491	-1.699585	0.882395	-0.43607	-0.407866	-0.177062
-1.664712	1.415547	9.535897	2.108952	0.497711	0.339365	0.327861	0.058527	-0.717659	3.022614	3.869886	8.612405	0.282049	0.310713	-0.078891	0.099554	-0.529025	-0.521019	9.013364	2.851008	-0.117043	-2.238749	-1.668459	0.851459	-0.408534	-0.422824	-0.191612
-1.437761	2.736295	9.489048	0.576048	0.42944	0.312	0.340867	0.047568	-0.675781	3.251559	3.925738	8.560649	0.279359	0.09626	-0.111854	0.087099	-0.482067	-0.538104	9.494007	2.503203	0.309625	-2.023612	-1.542174	0.544447	-0.49156	-0.410335	-0.146287
-1.496656	0.38051	9.307482	2.532759	0.327144	-0.707338	0.326732	0.065242	-0.692923	3.362309	4.319693	8.39348	0.281815	0.280853	-0.202501	0.125581	-0.513554	-0.522574	9.436381	2.852288	0.429822	-2.08478	-1.543341	0.636363	-0.449907	-0.408897	-0.161604
-1.453468	1.354079	8.630461	4.992021	1.850704	-1.241682	0.341596	0.071924	-0.721424	3.307054	4.376227	8.505598	0.49862	0.343719	-0.016733	0.112975	-0.497237	-0.537651	9.305684	2.617288	-0.292251	-2.424363	-1.512711	0.515195	-0.43607	-0.407866	-0.177062
-1.54839	1.990362	9.654244	2.168164	0.535334	-0.242885	0.32899	0.051813	-0.742395	3.310657	3.756686	8.618355	0.435973	0.252551	-0.264314	0.099849	-0.527953	-0.535368	9.485088	3.024156	-0.107498	-2.764759	-1.542628	0.333193	-0.463678	-0.392082	-0.178039
-1.84155	2.276329	9.308764	1.036607	0.429153	0.525344	0.384357	0.03973	-0.701564	3.251906	4.376429	8.617668	0.37516	0.342755	-0.109326	0.086358	-0.514851	-0.507397	9.428658	2.385702	-0.051411	-3.10594	-1.757342	0.274327	-0.422021	-0.409315	-0.145936
-1.192449	1.763001	10.285343	-4.023617	-0.962306	1.897343	0.369851	0.053875	-0.704631	3.366713	4.545205	8.620228	0.036066	0.399572	-0.078206	0.11231	-0.514701	-0.507948	9.664587	2.443238	-0.046762	-3.015221	-1.939913	0.213744	-0.436137	-0.425711	-0.145169
-1.672672	1.643624	9.138891	-0.276474	0.941268	0.905461	0.356074	0.092377	-0.753341	3.421407	4.150641	8.451186	0.12754	0.308552	-0.048209	0.112825	-0.527878	-0.535644	9.434315	2.793718	0.309761	-2.892222	-1.938839	0.152168	-0.464375	-0.439833	-0.191056
-1.665908	1.530188	9.479527	1.374435	0.960816	-0.141681	0.328218	0.079355	-0.749227	3.249835	4.827026	8.561408	0.253182	0.464048	-0.139046	0.111939	-0.531093	-0.492595	9.131802	2.67651	-0.115584	-3.07746	-1.970094	0.152988	-0.478003	-0.424671	-0.176435
-0.915826	1.243648	9.777061	1.091811	-0.17894	-0.036719	0.340467	0.078638	-0.696688	3.312751	3.925772	8.731777	0.222327	0.463857	-0.169901	0.113126	-0.466596	-0.539659	9.555939	3.142893	0.553073	-2.829004	-1.848426	0.304322	-0.463815	-0.409101	-0.161674
-1.163239	2.044135	8.866336	1.863293	0.842264	-0.329023	0.340453	0.095938	-0.71418	3.307808	3.981913	8.505266	-0.026347	0.338263	-0.202178	0.138331	-0.55944	-0.519839	9.132497	2.850986	-0.054935	-2.676905	-1.874994	-0.032294	-0.463256	-0.378368	-0.132293
-1.597892	2.049533	10.051343	0.572175	0.378059	-0.578195	0.35533	0.08532	-0.725189	3.369239	4.488969	8.73346	0.097697	0.370899	-0.26341	0.125506	-0.528875	-0.52157	9.66984	3.025482	0.315152	-2.336599	-1.813857	0.088433	-0.436838	-0.454791	-0.205606
-1.374193	1.703512	9.770084	0.081445	0.032504	-0.122378	0.383229	0.046444	-0.676828	3.131185	4.770769	8.389024	-0.178165	0.579207	0.170033	0.138482	-0.5288	-0.521846	9.610668	2.618838	0.252414	-1.718448	-1.472952	-0.129373	-0.435791	-0.3925	-0.162371
-1.432768	1.99052	9.713324	-0.499046	0.181011	0.096382	0.355716	0.071549	-0.721774	3.137876	4.433023	8.671937	0.006224	0.490571	0.015159	0.086427	-0.559741	-0.518736	9.968357	2.967472	0.500127	-1.254626	-1.132285	-0.377181	-0.435862	-0.391674	-0.177899
-1.379843	1.817189	9.486301	-0.008807	0.277582	-0.087468	0.41107	0.076765	-0.698434	3.137206	4.151323	8.61506	-0.301158	0.60931	0.016093	0.125506	-0.528875	-0.52157	9.434876	3.026269	0.370657	-0.698561	-0.75975	-0.717163	-0.491702	-0.408683	-0.177343
-1.494435	1.932155	9.484557	0.390971	0.338124	0.157709	0.356102	0.057778	-0.718358	3.252445	4.094777	8.617431	-0.301899	0.548182	-0.015344	0.1	-0.497312	-0.537376	10.133996	3.138823	-0.094899	-0.266445	-0.57277	-0.902996	-0.450325	-0.441281	-0.15993
-1.432726	1.933078	9.713082	0.300839	0.582854	0.223282	0.369079	0.081417	-0.711463	3.48273	4.714029	8.679428	0.07008	0.673935	0.232831	0.112159	-0.545342	-0.505941	9.431554	2.560672	0.129051	0.318208	-0.506333	-1.211057	-0.450187	-0.424263	-0.176295
-1.379144	2.391846	9.545567	0.39405	0.70482	0.347667	0.354959	0.081792	-0.711113	3.071071	4.207429	8.217422	-0.025644	0.427843	0.16865	0.125211	-0.529946	-0.50722	9.431959	2.386444	0.12831	0.689413	-0.352055	-1.213138	-0.422371	-0.423855	-0.176154
-1.549379	1.817796	9.596667	-0.191309	0.397912	0.068353	0.326332	0.096312	-0.713831	3.366151	4.207175	8.563304	0.009343	0.735889	0.017601	0.099033	-0.576058	-0.503658	9.49057	2.560537	0.130152	0.535895	-0.291746	-1.182307	-0.436212	-0.406214	-0.208117
-1.382893	1.414374	9.314052	0.480831	0.375891	-0.424627	0.355731	0.05425	-0.704282	3.012297	4.207489	8.159573	-0.177308	0.640939	0.108991	0.125651	-0.558444	-0.533913	9.543544	2.79147	-0.167293	0.809957	-0.470502	-1.549197	-0.477585	-0.392286	-0.17811
-1.438951	1.299774	9.369309	2.600922	1.152668	-0.295433	0.354587	0.078264	-0.697037	3.250805	4.320051	8.560981	-0.268354	0.762825	0.048474	0.112455	-0.54427	-0.520291	9.194814	2.851592	0.125886	0.656349	-0.378973	-1.57964	-0.436	-0.408692	-0.161534
-1.316322	2.39301	9.830946	0.574968	0.432569	0.036043	0.370208	0.074703	-0.736199	3.196219	4.658284	8.729975	-0.176763	0.672409	-0.014008	0.073972	-0.512782	-0.535821	9.309815	2.734429	-0.052129	0.624355	-0.376877	-1.793471	-0.449982	-0.389399	-0.224553
-1.661578	1.703478	9.707663	0.240787	0.547664	0.590897	0.383957	0.0708	-0.722472	3.705176	4.375282	8.287502	-0.331038	0.700108	0.140284	0.124985	-0.575908	-0.50421	9.553988	2.561391	0.37088	0.531539	-0.438704	-1.762278	-0.450049	-0.407244	-0.19266
-1.765657	2.68248	10.278069	0.886447	0.795133	0.715731	0.368679	0.112488	-0.73237	3.134896	4.094897	8.501734	-0.299131	0.763037	-0.044033	0.124915	-0.531018	-0.492871	9.606132	2.675925	0.013033	0.469904	-0.221647	-2.068714	-0.449978	-0.40807	-0.177132
-1.550824	2.277087	9.541744	-0.280503	0.48342	0.622021	0.398449	0.073954	-0.736897	3.308478	4.263613	8.562142	-0.329946	0.791699	0.202852	0.112455	-0.54427	-0.520291	9.252595	2.909286	0.067326	0.194486	-0.257648	-1.639671	-0.463886	-0.408274	-0.177202
-1.488127	2.450576	9.827847	0.3363	0.819465	1.055056	0.370223	0.057404	-0.718707	3.246963	4.43257	8.391157	-0.082521	0.796244	-0.012701	0.112379	-0.55959	-0.519287	9.305414	2.73344	-0.291756	0.345802	-0.469013	-1.853148	-0.50596	-0.423427	-0.207631
-2.074773	1.930881	9.07545	-0.154352	0.849298	0.934282	0.368694	0.095188	-0.714878	3.20388	3.813564	9.012462	-0.36123	0.760643	0.202518	0.099994	-0.557522	-0.547711	9.48976	2.908993	0.131635	0.315285	-0.40763	-1.883892	-0.491631	-0.409509	-0.161815
-2.005478	2.220701	9.703154	2.204783	1.144202	0.28826	0.397306	0.097968	-0.729653	3.652446	4.37558	8.512851	-0.513479	0.942068	0.296684	0.125066	-0.500377	-0.494878	9.259042	2.50399	0.36513	0.377644	-0.532918	-1.577896	-0.436279	-0.424059	-0.176225
-1.488619	1.588712	9.767374	0.483231	0.368938	0.188612	0.356102	0.057778	-0.718358	3.311004	4.207377	8.675374	-0.698416	0.970582	0.26599	0.112599	-0.573839	-0.532633	9.427308	2.966463	-0.048939	0.529262	-0.620664	-1.914213	-0.492328	-0.45726	-0.174831
-1.6035	2.105769	9.767319	1.347214	1.075951	0.534962	0.37058	0.078231	-0.750275	3.363949	4.094419	8.44993	-0.700248	0.817862	0.171986	0.087093	-0.542276	-0.548439	9.548216	2.676307	0.07184	0.31316	-0.52778	-2.097248	-0.491769	-0.426528	-0.14545
-1.432934	2.220286	9.714289	-0.865864	0.176512	0.342707	0.34121	0.085695	-0.72484	3.59609	4.375735	8.568282	-0.854095	0.876427	0.295757	0.073972	-0.512782	-0.535821	9.258077	2.445667	0.304976	0.281347	-0.588124	-2.188532	-0.449352	-0.359493	-0.179643
-1.261046	2.047837	9.716906	-0.128276	0.612278	0.163659	0.340824	0.099466	-0.728256	3.020543	4.320482	8.556145	-0.760205	0.941146	-0.042633	0.112455	-0.54427	-0.520291	9.198095	2.387479	0.243722	0.187794	-0.338068	-2.739507	-0.477936	-0.406826	-0.208328
-1.438252	1.874431	9.428576	-0.06708	0.425044	0.436451	0.355345	0.068021	-0.707698	2.783244	4.207968	8.211377	-0.483364	0.88113	0.296102	0.138557	-0.513479	-0.52285	9.135083	2.212397	0.002252	0.005435	0.059875	-2.832433	-0.491982	-0.424049	-0.192033
-1.38236	2.218797	9.374284	-0.06839	0.334935	0.250983	0.397678	0.101496	-0.743729	3.368916	4.657961	8.733602	-0.362322	0.669051	0.13995	0.125135	-0.545267	-0.506217	9.373638	2.561054	0.187858	-0.362028	0.20897	-2.587316	-0.491982	-0.424049	-0.192033
-1.555403	2.448446	9.315056	-0.347585	-0.000926	-0.060351	0.356831	0.082134	-0.764001	3.18996	4.770708	8.446872	-0.018512	0.951761	-0.226899	0.151678	-0.542973	-0.535468	9.196725	2.503383	0.184309	-0.513495	0.358526	-2.31242	-0.450325	-0.441281	-0.15993
-1.492332	2.104962	9.598987	-0.379663	-0.090832	-0.276395	0.410669	0.107836	-0.719342	3.131401	4.658108	8.388929	0.071676	0.768143	-0.10534	0.126166	-0.57162	-0.561608	9.436246	2.910364	0.430069	0.199268	0.540516	-1.91856	-0.464024	-0.425293	-0.160837
-1.491053	1.875437	9.654875	-0.348011	-0.124897	0.029639	0.367922	0.12273	-0.72171	3.192677	3.982128	8.502848	-0.205902	0.824335	0.14162	0.099623	-0.573914	-0.532358	9.376805	2.619872	0.367826	0.382217	0.451934	-2.163298	-0.464095	-0.424467	-0.176365
-1.385452	1.873424	9.202277	-0.347881	-0.219179	0.212114	0.369823	0.088474	-0.739615	3.013398	4.263867	8.21626	-0.361074	0.7901	0.38778	0.086578	-0.5291	-0.520743	9.255626	3.02618	0.247542	0.875382	0.454024	-2.195657	-0.478007	-0.406	-0.223856
-1.199255	1.933878	9.944949	-0.31803	-0.248029	0.05822	0.383543	0.11917	-0.760871	3.315385	3.813206	8.844961	-0.174656	0.883842	0.481346	0.085982	-0.591453	-0.502379	9.203193	2.562943	0.543998	0.873602	0.271117	-2.255902	-0.450258	-0.423437	-0.191823
-0.974815	2.105071	9.722714	-0.284793	0.214135	-0.026368	0.382771	0.146712	-0.767703	3.192785	3.925798	8.5028	-0.454067	0.787314	0.634302	0.137741	-0.561584	-0.491139	9.491671	2.560784	0.190059	0.936292	0.145198	-1.88878	-0.464304	-0.440659	-0.175528
-1.898722	2.161487	9.307168	0.055426	0.488471	0.314458	0.369808	0.105773	-0.757106	3.362656	4.770385	8.450499	-0.548309	0.663479	0.632995	0.150937	-0.575758	-0.504761	9.791984	2.677497	0.49559	0.961682	-0.310065	-2.222885	-0.491702	-0.408683	-0.177343
-1.375679	2.220245	9.715402	-0.465306	0.798224	-0.10836	0.369823	0.088474	-0.739615	3.422962	4.60138	8.564845	-0.455626	0.664655	0.633081	0.125425	-0.604405	-0.530902	9.382732	2.911736	0.728503	0.991686	-0.308378	-2.375813	-0.492257	-0.458086	-0.159304
-1.319704	2.449728	9.660628	0.301779	0.76794	0.164951	0.397664	0.118795	-0.761221	3.302757	4.094384	8.278802	-0.608032	0.816623	0.541985	0.12513	-0.605477	-0.516552	9.375724	3.08448	0.369804	0.772054	-0.705555	-2.495372	-0.464375	-0.439833	-0.191056
-1.835859	2.105211	9.592306	0.301582	0.737209	0.164452	0.383957	0.0708	-0.722472	3.084931	4.545981	8.897381	-0.29983	0.759414	0.510836	0.138181	-0.590081	-0.517831	9.787852	2.560356	0.255468	0.98763	-0.673244	-2.587993	-0.491982	-0.424049	-0.192033
-1.486723	2.048727	9.883011	-0.616083	0.571261	0.869757	0.383929	0.105399	-0.757456	3.368461	4.2636	8.67663	-0.422783	0.818371	0.634636	0.126316	-0.540979	-0.563616	9.022033	2.911062	0.362459	0.896834	-0.521576	-2.496702	-0.50589	-0.424253	-0.192104
-1.434047	2.220045	9.657436	-0.308366	0.976029	0.538104	0.397649	0.136095	-0.778712	3.48303	3.925354	8.622124	-0.760552	0.996639	0.851934	0.112819	-0.588088	-0.545979	9.254371	2.619153	0.125997	1.238835	-0.246312	-2.377005	-0.50561	-0.408887	-0.177413
-1.48792	2.163369	9.82664	0.2736	1.230164	0.049873	0.427062	0.076733	-0.751671	3.197082	4.20764	8.729596	-0.423406	0.786498	0.819287	0.125205	-0.590156	-0.517556	9.192458	2.444318	-0.055566	1.458178	-0.376405	-1.551994	-0.505819	-0.425079	-0.176576
-1.956059	2.276412	9.306537	-0.151617	1.811715	0.091216	0.368294	0.126259	-0.735786	3.483161	4.488706	8.679238	0.162217	0.643641	0.355916	0.125726	-0.543123	-0.534916	9.67011	2.90933	0.314657	1.669111	-0.676794	-2.00976	-0.478212	-0.440863	-0.175598
-1.205811	1.760106	9.603106	0.159814	2.988247	-0.534586	0.424004	0.152303	-0.744015	3.253007	4.432807	8.674355	0.500103	0.494628	0.354706	0.112159	-0.545342	-0.505941	9.313947	2.85157	0.187993	1.912489	-1.135376	-1.947329	-0.505819	-0.425079	-0.176576
-1.443121	2.447881	9.203576	-0.667708	2.827945	-0.289466	0.383557	0.10187	-0.74338	3.022745	4.433238	8.669519	0.31661	0.645198	0.417712	0.086572	-0.58931	-0.531078	9.256727	3.026427	0.307448	1.88069	-1.257844	-1.946629	-0.50589	-0.424253	-0.192104
-1.039781	1.988541	9.323147	0.161736	3.326989	-0.590423	0.397292	0.115267	-0.747145	3.492701	3.925733	9.075241	0.500805	0.555555	0.416969	0.112084	-0.560662	-0.504937	9.431419	2.618748	0.129299	2.035881	-1.383429	-1.579842	-0.492052	-0.423223	-0.207561
-0.919047	2.621763	9.669146	0.467179	3.300122	-0.806415	0.383557	0.10187	-0.74338	3.193671	4.094837	8.559582	0.252171	0.430163	0.353866	0.125575	-0.573764	-0.532909	10.141004	2.966078	0.263801	1.94412	-1.354119	-1.487962	-0.506024	-0.459943	-0.128318
-1.43747	2.334204	9.487359	-0.084505	3.485411	-1.108497	0.354916	0.13369	-0.763589	3.242235	4.37605	8.164551	0.31583	0.583868	0.417102	0.112895	-0.572767	-0.546983	9.662927	2.21044	-0.167565	2.160679	-0.920049	-1.979817	-0.478141	-0.44169	-0.16007
-1.375389	1.818154	9.713713	-0.113274	3.855436	-1.225073	0.354159	0.143933	-0.752929	3.48206	4.432329	8.622551	0.192409	0.583105	0.293682	0.099919	-0.572842	-0.546707	9.375839	2.561549	0.307672	2.27961	-1.221716	-2.345557	-0.519656	-0.42611	-0.161118
-1.895174	1.875003	9.476521	0.132589	4.230224	-1.649044	0.399535	0.119137	-0.814109	3.835352	4.093983	8.969357	0.317	0.675863	0.418017	0.112524	-0.589159	-0.53163	9.43472	2.61949	0.309019	2.558965	-1.006908	-2.317031	-0.506027	-0.441272	-0.175739
-1.54996	2.621977	9.600045	-0.386309	4.597263	-1.702921	0.397292	0.115267	-0.747145	3.479858	4.319573	8.509177	0.130622	0.610974	0.602191	0.112449	-0.60448	-0.530626	9.372133	2.735035	0.128693	2.405191	-0.915064	-2.378037	-0.478141	-0.44169	-0.16007
-1.548722	2.449894	9.656174	-0.350463	5.333566	-1.568385	0.411012	0.145963	-0.768401	3.478541	4.375856	8.452585	0.285091	0.584281	0.293769	0.138111	-0.545192	-0.506493	9.607927	2.850647	0.133589	2.587115	-1.219031	-2.499495	-0.506307	-0.456638	-0.190429
-1.895589	2.449419	9.478934	-0.31657	6.012924	-1.833455	0.412913	0.111706	-0.786306	3.370232	4.601678	8.790194	0.160658	0.520981	0.354695	0.113265	-0.556375	-0.562336	9.486054	3.08248	-0.047344	2.522598	-1.43117	-2.712184	-0.47807	-0.442516	-0.144543
-1.430458	1.876119	9.826547	-0.128956	6.691604	-1.976306	0.397678	0.101496	-0.743729	2.957496	4.658384	8.328662	0.687533	0.650908	0.263927	0.112229	-0.590231	-0.51728	9.253986	3.258237	0.188624	2.056012	-1.673449	-3.106646	-0.4787	-0.472422	-0.189452
-1.31859	2.449969	9.717481	-0.340521	7.308004	-2.211025	0.368665	0.129787	-0.749862	3.132155	4.263794	8.388597	0.656561	0.650113	0.32555	0.112449	-0.60448	-0.530626	9.726905	2.443845	0.134059	2.174567	-1.788112	-3.809455	-0.519589	-0.408265	-0.193011
-1.541875	2.221575	9.996327	-0.304772	8.201082	-2.349955	0.398421	0.108553	-0.771881	3.252122	4.263768	8.617573	0.503885	0.800672	0.450237	0.099699	-0.558594	-0.533361	9.256281	2.270944	0.184421	2.019977	-2.09834	-3.440671	-0.533426	-0.409295	-0.177553
-1.607706	1.760154	9.538459	-0.178694	8.880166	-2.553959	0.411413	0.114892	-0.747494	3.251559	3.925738	8.560649	0.34731	0.644583	0.571871	0.112675	-0.558519	-0.533637	9.264835	2.85393	0.726055	2.297582	-2.190685	-3.288425	-0.506236	-0.457464	-0.174902
-1.900783	1.931239	9.192497	-0.604206	9.587751	-2.786582	0.397664	0.118795	-0.761221	3.419551	4.488577	8.394831	0.74979	0.711411	0.511203	0.111048	-0.594519	-0.459881	9.662697	3.256303	-0.043301	2.325414	-2.4643	-3.440031	-0.520286	-0.456016	-0.206027
-1.664137	2.162528	9.595888	0.38053	10.331951	-2.961331	0.383943	0.088099	-0.739964	3.358013	4.037851	8.166684	0.224942	0.735211	0.541846	0.151452	-0.588934	-0.532457	9.437752	2.736384	0.489234	2.229477	-2.644384	-3.805568	-0.51966	-0.407438	-0.208539
-1.603749	2.450418	9.768767	-0.289445	11.036302	-3.009292	0.3824	0.143184	-0.753627	3.4224	4.26335	8.507921	0.162607	0.674305	0.356221	0.138846	-0.572617	-0.547534	9.375009	2.44515	0.24727	2.197663	-2.704727	-3.89685	-0.547613	-0.424865	-0.192314
-1.384421	1.988548	9.259613	-0.348359	11.561215	-3.245939	0.383543	0.11917	-0.760871	3.0848	3.982629	8.840268	0.256069	0.736811	0.356918	0.151157	-0.590006	-0.518107	9.440513	2.969429	0.669944	1.795021	-2.764824	-4.1396	-0.519935	-0.441476	-0.175809
-1.315825	1.703712	9.82805	-0.25339	12.053679	-3.268877	0.425547	0.097218	-0.730351	3.136775	4.376645	8.61525	0.43886	0.525314	0.23165	0.138551	-0.573689	-0.533185	9.546015	2.675812	-0.047974	1.946533	-3.100748	-4.138546	-0.534469	-0.490257	-0.173368
-1.31496	2.048602	9.886351	0.456256	12.95093	-3.501685	0.368665	0.129787	-0.749862	2.96123	4.602195	8.498534	0.347426	0.645187	0.479393	0.150862	-0.591078	-0.503757	9.308465	3.315189	-0.049656	1.76069	-3.037714	-4.382668	-0.53391	-0.459525	-0.143986
-1.431986	2.450293	9.772107	-0.028924	13.778705	-3.517503	0.411413	0.114892	-0.747494	3.022745	4.433238	8.669519	0.16292	0.73322	0.726745	0.099398	-0.619875	-0.529347	9.314913	2.909893	0.248148	2.192098	-3.346148	-3.985455	-0.533702	-0.443332	-0.144823
-2.180706	2.392426	9.529978	-0.481001	14.818601	-3.253951	0.395377	0.166823	-0.746732	3.074805	4.151241	8.387293	0.629413	1.012868	1.069011	0.137886	-0.591153	-0.503482	9.486459	2.908252	-0.048086	2.433577	-3.83216	-4.228505	-0.533635	-0.425487	-0.176716
-1.773285	2.451025	9.879133	-0.013434	16.582088	-4.085355	0.398792	0.112081	-0.785957	3.597945	4.037799	8.624637	0.69085	0.983188	1.037937	0.11297	-0.557447	-0.547987	9.367751	3.198902	-0.04905	2.795767	-4.436929	-4.777042	-0.505606	-0.427558	-0.129992
-1.882144	2.337431	10.160688	0.18093	18.430554	-4.393226	0.410641	0.142434	-0.754325	3.379664	4.095035	9.186245	1.676299	0.72156	0.758675	0.137145	-0.623938	-0.472775	9.305164	3.314447	-0.229377	3.217936	-5.255594	-5.324774	-0.505681	-0.408061	-0.192941
-1.651888	2.165182	10.221272	0.963818	21.233986	-4.656601	0.396892	0.146337	-0.768052	3.653763	4.319297	8.569443	1.739918	0.846412	0.544171	0.13803	-0.620722	-0.515824	9.603931	2.67543	-0.106781	3.884013	-6.316499	-6.025037	-0.533981	-0.458699	-0.159514
-1.93511	2.568203	10.387953	3.70278	24.124688	-6.396298	0.438868	0.158985	-0.772516	3.368569	4.207269	8.676583	2.174303	0.976168	0.299185	0.112374	-0.6198	-0.529622	9.784436	3.082546	0.137879	4.459732	-7.319705	-6.419632	-0.533635	-0.425487	-0.176716
-1.579045	2.168518	11.018328	12.627048	27.4349	-10.079185	0.425133	0.145588	-0.768751	3.480073	4.206912	8.509082	2.789878	0.771568	-0.041463	0.112599	-0.573839	-0.532633	10.072644	3.19654	-0.215566	4.601597	-8.196116	-7.393921	-0.506587	-0.472004	-0.20512
-1.884661	2.739039	10.048671	20.2685	31.476533	-13.746572	0.455275	0.110583	-0.787353	3.307161	4.319896	8.50555	2.638138	0.984262	-0.03947	0.099178	-0.605627	-0.516001	9.124834	3.778966	-0.350514	5.20868	-8.982879	-8.003585	-0.534194	-0.45622	-0.206098
-1.937213	2.395396	10.273522	21.73023	35.677526	-15.031996	0.439625	0.148742	-0.783176	3.594642	3.868666	8.454576	3.256832	1.053632	-0.069111	0.086787	-0.663768	-0.554759	9.71484	3.370836	-0.401147	5.847277	-9.83291	-8.399132	-0.533702	-0.443332	-0.144823
-1.875297	2.109112	10.500842	15.629352	40.262165	-15.307951	0.410641	0.142434	-0.754325	3.195311	3.869562	8.616032	4.029095	1.034376	-0.315305	0.1255	-0.589084	-0.531905	9.537502	3.022538	-0.465839	6.638445	-10.927711	-8.732941	-0.534469	-0.490257	-0.173368
-2.33585	2.511052	10.379917	6.523035	43.836591	-14.456861	0.453003	0.141311	-0.755373	2.913767	4.37736	8.950252	3.966958	1.031781	-0.037928	0.099103	-0.620947	-0.514997	9.608778	3.431902	0.255875	7.524863	-11.716931	-9.00743	-0.506307	-0.456638	-0.190429
-1.241992	1.879614	10.682684	5.391367	48.899583	-14.248615	0.453003	0.141311	-0.755373	3.018126	4.320387	8.442866	5.110719	1.021254	-0.900299	0.150786	-0.606399	-0.502754	9.30887	3.140961	-0.050398	9.424774	-12.246442	-10.387006	-0.492533	-0.492124	-0.126574
-2.156085	2.225409	10.780022	1.404707	52.898945	-13.558712	0.482344	0.168446	-0.815791	3.191923	4.376442	8.50318	4.118849	0.733936	-1.088922	0.12535	-0.619725	-0.529898	9.188927	3.48944	-0.111022	8.864134	-12.641343	-10.841496	-0.520144	-0.457668	-0.174972
-2.14421	2.745036	11.407578	-0.56921	56.498392	-14.721334	0.454517	0.120825	-0.776693	3.139947	3.982426	8.728197	5.359387	1.146847	-0.868022	0.099473	-0.604555	-0.53035	8.893712	3.548191	-0.116277	8.346558	-12.190094	-10.29169	-0.519794	-0.443128	-0.144753
-2.575588	1.93439	9.804519	-0.718534	61.498348	-13.995536	0.425133	0.145588	-0.768751	3.427451	4.150879	8.734384	6.044578	1.585179	-0.924768	0.098512	-0.623091	-0.486297	9.186882	3.895725	-0.169199	7.240996	-11.798973	-10.04507	-0.506236	-0.457464	-0.174902
-2.793595	2.109293	10.36932	-9.64972	63.938281	-13.316751	0.483116	0.140904	-0.808959	3.202025	4.151499	8.956107	6.259038	1.435404	-1.049397	0.125494	-0.649294	-0.542241	8.945409	2.907242	-0.597152	6.510843	-11.106321	-9.251158	-0.533981	-0.458699	-0.159514
-2.572123	1.762789	9.974354	-13.640565	67.072277	-12.211522	0.508685	0.201953	-0.798585	3.30703	3.756543	8.448436	6.847257	1.506596	-1.418152	0.099027	-0.636268	-0.513993	8.824616	2.674466	-0.780062	5.1291	-10.31509	-9.341612	-0.520491	-0.49088	-0.15777
-2.678796	1.707119	10.369858	-18.159843	68.973131	-10.971478	0.49385	0.160672	-0.7351	3.196974	4.263971	8.729643	7.250115	1.575436	-1.787079	0.112744	-0.603408	-0.544976	8.942128	3.371355	-0.714988	4.052579	-9.641	-9.829899	-0.520282	-0.474687	-0.158607
-3.02224	1.592485	10.362694	-23.254394	70.474769	-7.282719	0.537354	0.135535	-0.743392	3.13589	4.207606	8.558468	8.02229	1.58443	-1.663056	0.111783	-0.621944	-0.500923	9.137054	3.258754	0.24633	2.760168	-9.060707	-10.194713	-0.52042	-0.491706	-0.142242
-3.246472	1.134083	10.583722	-24.183771	71.473909	-3.644866	0.536954	0.166605	-0.7643	3.489529	4.319952	8.962294	7.92844	1.462608	-1.972623	0.099172	-0.665837	-0.526336	9.363485	3.139837	-0.288925	1.84066	-8.112027	-10.562635	-0.534398	-0.491084	-0.15784
-3.702239	1.077456	10.688279	-20.761866	71.902669	0.584469	0.551818	0.173287	-0.792801	3.135243	4.545589	8.558753	8.365309	1.805809	-2.030515	0.125274	-0.635046	-0.528894	9.130296	2.850491	-0.174749	0.183236	-7.542516	-10.009264	-0.548236	-0.492114	-0.142382
-2.344752	0.957959	9.861724	-20.557304	71.405629	6.555918	0.549932	0.190245	-0.757405	2.95594	4.207645	8.215004	7.592319	1.763936	-1.815757	0.124904	-0.651438	-0.513541	9.241591	2.906814	-0.531742	-0.213487	-6.340932	-10.991492	-0.533772	-0.442506	-0.160351
0.741544	0.78219	9.636863	-19.577243	60.517517	15.974522	0.494607	0.15043	-0.745761	3.190044	4.094695	8.389663	6.138423	1.592393	-1.849461	0.124684	-0.637189	-0.500195	9.599124	2.848669	-0.345666	-0.080881	-5.612987	-10.35368	-0.534816	-0.523469	-0.156166
3.359659	0.776906	8.89214	-12.544901	49.642731	21.235809	0.549946	0.172945	-0.739913	3.187087	4.376252	8.276621	5.424211	1.30659	-1.729565	0.099103	-0.620947	-0.514997	9.42028	2.674352	-0.469523	-0.777419	-4.335547	-9.898848	-0.519931	-0.460147	-0.128388
5.792033	0.079312	7.402091	-18.920796	35.203295	20.958149	0.565967	0.138314	-0.758167	2.90157	4.433217	8.383903	4.184766	1.013923	-1.579333	0.137434	-0.683076	-0.49746	9.484818	3.140308	-0.107004	-1.258789	-3.397581	-9.076446	-0.548373	-0.509133	-0.126017
4.774649	0.312719	8.06525	-29.455203	15.032942	9.345212	0.550703	0.162702	-0.750573	3.185447	4.601527	8.220171	2.854779	0.903062	-1.273225	0.124979	-0.636118	-0.514545	9.305974	2.965991	-0.23086	-1.681371	-2.547057	-8.651124	-0.534536	-0.508102	-0.141475
6.568341	0.48786	9.066995	-18.311622	-24.480187	7.16836	0.564452	0.1588	-0.736846	3.537746	4.150473	8.510244	1.955816	0.646779	-1.338153	0.125714	-0.663543	-0.555587	9.009638	2.559639	-0.357907	-0.970176	-2.051615	-8.992232	-0.493234	-0.521204	-0.187011
5.601697	0.490012	9.389184	-3.89917	-46.277966	5.147341	0.593451	0.147808	-0.748205	3.07921	4.376752	8.614041	0.997987	0.634025	-1.246566	0.086051	-0.636343	-0.513718	9.190008	3.024831	-0.113	-1.117632	-1.69235	-8.290515	-0.520491	-0.49088	-0.15777
4.367601	-0.262854	7.713924	1.276	-57.020908	5.755232	0.593851	0.116737	-0.727297	3.194903	4.714567	8.673383	0.377222	0.410727	-1.125974	0.124684	-0.637189	-0.500195	9.891194	3.195956	-0.458495	-1.024185	-1.849061	-7.892814	-0.535095	-0.538835	-0.170857
4.084255	0.312493	7.881329	-2.467767	-70.184657	10.090771	0.579302	0.182781	-0.782839	3.195118	4.601906	8.673288	-0.27288	0.309696	-1.00419	0.099763	-0.663693	-0.555035	9.71536	2.673677	-0.464021	-0.752778	-2.022771	-8.748671	-0.562281	-0.509337	-0.126088
4.037022	0.314705	8.391893	-3.273632	-84.888464	15.803332	0.578916	0.196552	-0.786255	3.308047	4.488935	8.562332	-0.893649	0.086397	-0.883598	0.099027	-0.636268	-0.513993	9.654143	2.673317	-0.584935	-0.632518	-1.64391	-9.851097	-0.576327	-0.52656	-0.109793
3.641519	0.718292	8.670054	-0.394972	-97.685271	20.186863	0.522834	0.16698	-0.763951	3.427343	4.207209	8.734432	-1.419515	0.019008	-0.977175	0.112374	-0.6198	-0.529622	9.827911	3.137026	-0.69947	-0.840777	-0.72764	-9.793594	-0.520699	-0.507072	-0.156933
3.416913	0.776865	8.893253	0.959517	-107.820753	22.410124	0.536983	0.132007	-0.729316	3.422854	4.657711	8.564892	-1.911681	0.167067	-1.130239	0.13803	-0.620722	-0.515824	9.124389	3.023483	-0.473542	-1.04744	0.092454	-9.30779	-0.562352	-0.508511	-0.141615
2.445483	1.237584	8.989961	-4.205721	-116.508186	24.399674	0.494964	0.171257	-0.777328	3.131185	4.770769	8.389024	-1.755103	0.351809	-0.943308	0.138476	-0.589009	-0.532181	9.238559	2.78992	-0.711958	-1.37992	0.916837	-9.27996	-0.548791	-0.541518	-0.124343
2.692649	0.781746	9.902134	0.635192	-122.091726	25.214955	0.481601	0.161389	-0.787639	3.481737	4.60132	8.622693	-1.941018	0.260683	-1.437612	0.13766	-0.637114	-0.500471	9.418774	2.848333	-0.528688	-1.746731	1.468327	-9.495187	-0.562073	-0.493144	-0.126925
2.061446	1.184052	9.834721	1.352808	-124.854828	25.106686	0.523577	0.174037	-0.792103	3.65277	4.206588	8.512709	-1.938483	0.47433	-1.281345	0.112669	-0.618728	-0.543972	9.124639	2.442476	-0.535921	-2.637594	1.924588	-9.55526	-0.56249	-0.525529	-0.125251
1.546322	0.954658	9.823735	-0.663674	-123.09743	23.883832	0.509442	0.19171	-0.809245	3.191145	4.151073	8.44635	-1.724912	0.262621	-1.314106	0.099323	-0.635196	-0.528343	9.192343	2.96725	0.006566	-2.850649	2.104829	-9.310864	-0.548862	-0.540691	-0.139871
1.262976	1.530005	9.99114	-3.435869	-118.493024	20.777558	0.481601	0.161389	-0.787639	3.244437	4.488806	8.277925	-1.602973	0.112475	-1.562125	0.12594	-0.617582	-0.558598	8.940987	2.441397	-0.898664	-2.908078	2.407038	-8.975931	-0.520628	-0.507898	-0.141405
0.91615	1.472088	9.813658	-5.906634	-113.371685	15.593545	0.495321	0.192085	-0.808896	3.250266	4.601704	8.561218	-1.883206	-0.074237	-1.687519	0.150636	-0.637039	-0.500746	9.009908	2.443487	-0.358401	-3.207978	2.855637	-8.090722	-0.548932	-0.539865	-0.155399
0.939782	1.132505	11.006125	-8.298685	-109.339112	8.827486	0.467066	0.210134	-0.825689	2.964294	4.264307	8.611528	-1.759083	-0.041199	-1.810403	0.124829	-0.666758	-0.512537	9.302112	2.732698	-0.471477	-3.324961	3.339905	-7.634195	-0.548094	-0.493767	-0.111327
0.538131	2.339068	11.003398	-8.395729	-104.784125	0.314974	0.453703	0.200265	-0.836	3.070963	4.263759	8.217469	-2.255304	-0.200594	-1.843215	0.099543	-0.649444	-0.541689	8.477101	2.211904	-0.489108	-3.561279	4.095575	-6.842357	-0.57654	-0.524081	-0.156376
0.306146	1.821536	10.826213	-8.735139	-99.42441	-8.766919	0.437696	0.217597	-0.800255	2.794039	4.884408	8.778342	-1.945773	-0.107699	-1.379622	0.112594	-0.634049	-0.542968	8.773863	2.908883	-0.300918	-3.306626	4.640152	-6.17353	-0.548795	-0.522846	-0.171764
-0.31128	1.652321	11.438625	-10.047416	-93.059034	-17.46211	0.468581	0.189648	-0.84701	3.19093	4.263734	8.446445	-1.793522	-0.260473	-1.165223	0.13847	-0.649219	-0.542516	8.65336	3.024811	-0.422439	-4.068771	5.459222	-5.77738	-0.548582	-0.525325	-0.12518
-1.058928	1.652136	11.25359	-10.030726	-85.842873	-24.736814	0.468952	0.193176	-0.861086	2.791706	4.2083	8.607854	-1.884059	-0.050013	-0.700783	0.111262	-0.668977	-0.483562	8.83452	2.676691	-0.2409	-4.707991	6.248464	-5.412093	-0.520002	-0.459321	-0.143916
-1.416024	1.936697	10.565879	-12.256961	-80.218408	-30.865638	0.424704	0.211257	-0.824642	3.136321	3.982284	8.558279	-1.668892	-0.167514	-1.071714	0.125274	-0.635046	-0.528894	9.12713	2.791673	-0.354717	-5.066898	7.033349	-4.52825	-0.50672	-0.507694	-0.141335
-1.579288	0.962004	10.956408	-16.596822	-75.296594	-35.558313	0.440311	0.224996	-0.881295	3.136883	4.320314	8.615203	-1.608313	-0.287578	-1.350312	0.138916	-0.617506	-0.558873	9.064542	2.907219	-0.535044	-5.640818	7.878013	-3.582784	-0.506996	-0.541732	-0.108605
-1.967163	1.597046	11.633505	-20.409304	-69.389097	-40.205942	0.454446	0.207322	-0.864152	3.423932	4.094406	8.564418	-1.948772	-0.29511	-0.857412	0.124609	-0.65251	-0.499191	9.247748	2.152814	-0.295329	-6.026576	8.996774	-2.455927	-0.548515	-0.50748	-0.157073
-2.890081	1.826028	11.275536	-23.16048	-61.027797	-43.927268	0.440325	0.207697	-0.863803	2.961877	4.264212	8.498249	-2.259117	-0.36358	-0.365094	0.099247	-0.650516	-0.527339	8.771507	2.501609	-0.48237	-6.413874	9.62167	-0.898821	-0.562494	-0.506858	-0.172671
-4.156608	2.170141	10.911368	-26.45415	-53.259852	-44.374381	0.42619	0.22537	-0.880946	3.594989	4.319357	8.511595	-4.083761	-0.425019	0.804295	0.112518	-0.649369	-0.541965	8.712491	2.501744	-0.48347	-7.015822	10.181456	0.965024	-0.548377	-0.490462	-0.173438
1.477739	-3.576782	38.275339	-60.658741	-43.904155	-26.731455	0.438768	0.28008	-0.894958	3.025248	3.757319	8.72559	-4.798472	-0.770545	0.676972	0.125124	-0.665687	-0.526887	8.885833	2.674825	-0.659148	-7.776541	10.625259	2.157629	-0.549003	-0.539039	-0.170927
-4.149842	-2.85148	5.207292	20.22493	-21.297565	-40.798988	0.426176	0.24267	-0.898437	3.53874	4.263182	8.566978	-4.190362	-1.529535	0.700742	0.137805	-0.666683	-0.512813	8.476852	2.792912	-0.426729	-8.53649	10.974452	3.625767	-0.576748	-0.540273	-0.155539
-10.919462	1.471699	7.480715	48.836843	-17.407249	-33.33351	0.412413	0.263872	-0.929656	3.476793	4.657461	8.396182	-4.25332	-1.593662	1.008336	0.098506	-0.683301	-0.496633	8.709345	2.907782	-0.601553	-9.362898	10.587338	5.281061	-0.534883	-0.541314	-0.124273
-10.786267	0.269204	8.387524	21.371322	-20.504807	-23.520031	0.397564	0.239891	-0.883663	3.198637	4.658379	8.843254	-2.770616	-1.633361	0.57754	0.138546	-0.633899	-0.54352	9.000699	2.615738	-0.836915	-10.810448	9.647678	6.9107	-0.520628	-0.507898	-0.141405
-12.181427	2.576104	10.302344	4.847221	-13.506055	-13.175836	0.427291	0.253255	-0.940665	3.016378	4.601993	8.386464	-3.205086	-1.763522	0.884177	0.112443	-0.66469	-0.540961	8.885678	2.268046	-0.720785	-12.906475	8.831842	8.175339	-0.534745	-0.524295	-0.140638
-12.191034	1.999518	9.788253	18.522794	-0.896819	-8.195099	0.412413	0.263872	-0.929656	2.845429	4.320711	8.439239	-4.449524	-2.425587	1.246531	0.13847	-0.649219	-0.542516	8.831084	2.734025	-0.420373	-14.911576	7.708858	9.593954	-0.562773	-0.522224	-0.187362
-11.505824	2.101076	6.789997	27.61802	17.869219	-8.713677	0.427291	0.253255	-0.940665	3.536776	4.657448	8.51067	-6.525829	-2.914447	1.640766	0.13766	-0.637114	-0.500471	9.010468	2.676039	-0.297506	-17.248352	7.315687	11.315959	-0.548653	-0.524499	-0.140708
-11.086575	4.287907	7.830317	17.44097	34.528014	-12.983409	0.412427	0.246573	-0.912164	3.072842	4.545507	8.330985	-5.449654	-3.299782	1.699456	0.098802	-0.682229	-0.510982	9.181589	2.38377	-0.654882	-18.35225	7.455507	12.205697	-0.549003	-0.539039	-0.170927
-9.476319	5.207499	8.263328	18.757542	46.40379	-24.449261	0.412799	0.250101	-0.92624	3.249835	4.827026	8.561408	-5.914206	-3.368804	1.97585	0.125199	-0.650366	-0.527891	8.883342	2.325628	-0.840352	-18.842405	7.851414	12.205583	-0.549003	-0.539039	-0.170927
-7.997239	7.617278	7.904442	25.648303	55.518545	-47.633569	0.428048	0.243012	-0.951325	3.422185	4.376011	8.508015	-5.329815	-3.546759	2.190348	0.086271	-0.650591	-0.527064	9.239099	2.557616	-0.712947	-19.325805	8.762325	12.692041	-0.549074	-0.538213	-0.186455
-1.848583	4.030878	3.178338	49.492572	53.121885	-73.112772	0.427662	0.256783	-0.954741	3.077785	4.489366	8.557496	-4.067807	-3.870023	2.496432	0.112663	-0.678938	-0.554307	8.720039	2.096695	-0.125759	-19.781572	9.182632	13.303007	-0.548795	-0.522846	-0.171764
0.393107	5.135168	6.636421	-35.564836	51.832511	-59.236157	0.399421	0.257532	-0.954043	3.026911	4.151728	8.839201	-2.371805	-4.122845	2.248657	0.098952	-0.651588	-0.51299	9.293694	2.091637	-1.013358	-21.649229	9.182185	15.663389	-0.534816	-0.523469	-0.156166
-1.179709	2.627519	10.9712	-16.528688	55.111295	-64.177008	0.426519	0.280797	-0.947497	3.48668	4.545179	8.849204	-1.476765	-4.202066	2.032791	0.113034	-0.662546	-0.569661	9.062186	2.499945	-0.716495	-23.944411	9.079269	18.912307	-0.562356	-0.489839	-0.189036
-0.351454	3.309682	9.455765	-7.139663	80.54427	-40.506198	0.426919	0.249726	-0.926589	3.253546	4.151154	8.674118	-1.140983	-4.53387	1.844793	0.112223	-0.650441	-0.527615	9.365915	2.094468	-0.293375	-24.709233	7.823224	21.794451	-0.548515	-0.50748	-0.157073
-2.1176	3.542663	9.877037	4.778123	99.265063	-17.476535	0.454403	0.25922	-0.916628	3.481952	4.488659	8.622598	1.080975	-4.776004	0.980984	0.112814	-0.648297	-0.556315	9.303888	2.442565	-0.412806	-24.246506	6.302928	24.03153	-0.562289	-0.471994	-0.220929
-1.545014	3.484807	9.88793	-4.207664	107.082305	-0.669971	0.496765	0.258096	-0.917675	3.489529	4.319952	8.962294	4.013704	-4.950609	0.550014	0.111928	-0.651513	-0.513265	9.066318	2.617086	-0.476373	-22.403772	4.708475	25.041238	-0.506583	-0.490675	-0.1577
-12.401063	-6.428982	13.328958	14.695982	16.460906	-11.766347	0.483787	0.234457	-0.92457	3.598831	4.206838	8.681419	4.110523	-4.498303	1.911029	0.112594	-0.634049	-0.542968	9.664088	3.605253	0.077996	-18.736073	3.916552	25.979374	-0.548448	-0.489635	-0.188966
-3.167213	6.137004	11.91345	2.957152	-8.588309	-3.092238	0.469281	0.248603	-0.927637	3.148325	4.658772	9.181883	5.963401	-4.392649	3.424155	0.099392	-0.680085	-0.539682	9.48706	4.070514	0.13658	-10.240182	4.06942	28.913116	-0.534682	-0.487779	-0.219951
-1.278489	1.527003	8.805084	27.979882	4.236108	3.79108	0.497508	0.265153	-0.945827	3.983422	3.306373	10.443741	1.100752	-5.005096	7.945933	0.125645	-0.618653	-0.544248	10.386743	4.013626	0.931629	-0.588733	2.022129	32.036669	-0.56173	-0.441262	-0.191547
-0.411054	1.930402	9.278301	1.366576	1.891321	-3.59205	0.468909	0.245074	-0.913561	3.702933	2.631183	10.720325	13.62478	-9.026704	4.833174	0.099027	-0.636268	-0.513993	11.516428	3.722411	1.370649	4.114094	-0.758426	33.378025	-0.575563	-0.460964	-0.128669
-2.015375	2.046205	9.190752	6.041221	1.610628	-6.738295	0.511657	0.23018	-0.911193	3.553767	2.970438	11.849775	13.638995	-17.985526	0.890575	0.099913	-0.633052	-0.557042	11.276906	3.31543	1.124889	5.201474	0.002711	28.173484	-0.534194	-0.45622	-0.206098
-1.845264	2.792579	9.140377	0.349538	3.003497	0.906506	0.441426	0.235581	-0.923523	2.786374	7.480238	14.045589	4.225434	-34.017844	5.101221	0.098506	-0.683301	-0.496633	10.857035	2.908113	0.696107	3.86823	5.010868	19.625735	-0.576406	-0.488391	-0.220162
-1.030832	1.93303	9.77773	-3.994725	2.522342	3.609933	0.454789	0.245449	-0.913212	2.153557	7.028395	11.314419	30.142268	-50.889135	4.276131	0.125419	-0.664615	-0.541237	10.736262	3.140192	0.575082	4.053729	11.627574	15.803149	-0.54831	-0.472617	-0.205331
-1.379967	1.989513	9.487025	-3.745013	3.230312	3.62072	0.484159	0.237985	-0.938646	3.002485	5.786843	10.538555	19.646257	-59.190163	15.067696	0.086491	-0.66484	-0.54041	10.557033	3.604958	0.513851	8.193292	16.975032	20.74511	-0.548172	-0.455598	-0.221696
-1.371184	2.163768	9.942574	-1.637175	2.44638	3.141902	0.46778	0.251789	-0.888825	2.478807	6.181937	10.301449	18.816312	-67.870654	22.842204	0.099097	-0.681157	-0.525332	11.028467	3.429403	0.462006	12.005845	20.245618	25.270397	-0.575776	-0.458485	-0.175253
-1.032852	1.645339	9.662817	0.037015	1.579721	1.650959	0.496765	0.258096	-0.917675	3.215284	6.067401	9.750674	16.427824	-75.308726	29.857184	0.085681	-0.652735	-0.498364	11.083372	3.776982	0.284869	13.377669	22.271236	25.102915	-0.56236	-0.471168	-0.236457
-1.548556	2.220128	9.655209	0.706152	1.222085	0.937864	0.468152	0.255317	-0.902901	2.873518	6.06819	9.913339	12.222225	-82.397475	36.165177	0.098136	-0.699693	-0.481279	10.258091	3.372341	0.267732	13.012787	23.688564	23.996993	-0.54831	-0.472617	-0.205331
-1.269089	2.390798	9.320382	-0.369412	0.881114	0.751411	0.541384	0.243544	-0.968195	3.807623	5.559965	10.498651	14.181866	-88.199226	40.548675	0.059579	-0.683526	-0.495805	10.195793	3.836589	0.148796	11.966628	24.115313	23.784765	-0.561872	-0.439609	-0.222603
-1.263107	1.817588	9.602234	-0.89123	0.50538	1.145488	0.484159	0.237985	-0.938646	3.860415	4.263971	10.158931	12.589411	-94.100797	43.880114	0.059949	-0.667134	-0.511159	10.072914	3.080388	-0.21606	11.440928	23.153671	24.891736	-0.548869	-0.503349	-0.234712
-1.31698	1.760912	9.771439	-1.012043	0.68746	1.302133	0.540641	0.236487	-0.940043	4.369741	5.051343	9.830638	14.634732	-100.797912	44.524309	0.020356	-0.684823	-0.480628	9.712235	3.54457	-0.520219	11.284184	21.760642	26.42741	-0.576197	-0.472199	-0.220999
-1.543978	2.048768	9.881897	-0.857045	0.714388	1.700804	0.525763	0.247104	-0.929034	4.14982	5.333854	10.335796	13.565411	-107.133793	44.830451	0.020726	-0.668431	-0.495982	9.657735	3.022762	-0.343824	11.655488	20.859002	27.958845	-0.561942	-0.438783	-0.238131
-1.384131	1.586458	9.257923	0.124164	0.81151	1.668891	0.483759	0.269056	-0.959554	3.991476	4.151711	10.897569	23.998997	-112.062397	49.322023	0.021907	-0.664143	-0.553381	8.964542	3.202072	0.482409	12.54338	19.166355	29.247642	-0.617925	-0.45414	-0.26863
-1.3183	2.047879	9.715792	0.643868	0.379525	2.028385	0.483773	0.251756	-0.942062	4.573629	4.545231	11.249828	40.05756	-116.500221	55.364614	-0.018868	-0.68612	-0.465452	8.846935	3.492969	0.541351	14.174688	17.904684	30.531703	-0.575709	-0.44064	-0.207145
-1.26088	1.818071	9.71594	0.858493	0.66198	1.603012	0.48413	0.272584	-0.97363	5.141275	4.938182	10.922411	48.813395	-122.154683	59.631898	0.007895	-0.698075	-0.508049	8.849116	3.028608	0.59928	15.244194	16.591822	30.656376	-0.590247	-0.47075	-0.252125
-1.546163	1.990844	9.76795	1.37622	0.360919	1.259284	0.512386	0.254536	-0.956836	4.671512	4.713343	10.459434	35.823641	-128.543471	58.817994	0.006199	-0.689186	-0.422954	8.91624	2.855976	1.018987	17.013974	14.894856	29.710388	-0.547822	-0.441058	-0.191477
-1.661868	2.105569	9.709352	1.372804	0.151707	0.734542	0.484559	0.206915	-0.917739	5.298472	4.824581	10.189628	29.339411	-138.109534	59.056869	-0.058461	-0.703809	-0.434921	9.207885	2.912635	0.845016	17.67302	13.940416	27.572665	-0.562084	-0.437131	-0.269186
-0.977084	2.16203	9.609249	-0.156767	0.261569	1.262082	0.484144	0.255285	-0.956138	5.353512	4.880709	10.077605	25.780297	-143.870088	55.481961	-0.070326	-0.654707	-0.480706	8.79201	2.680535	0.656603	17.084966	12.013959	24.343652	-0.57578	-0.439814	-0.222673
-0.920943	2.161748	9.55351	-1.744406	0.706066	2.071234	0.468538	0.241546	-0.899485	6.670695	4.652624	9.765383	26.803764	-151.024405	53.345993	-0.072247	-0.691779	-0.3926	8.556756	2.332618	0.650718	15.298855	10.291979	21.637744	-0.589758	-0.439191	-0.238271
-1.489898	1.818237	9.711486	-3.025847	1.090182	2.909187	0.470424	0.224589	-0.934881	6.798561	4.314899	10.333912	31.166897	-153.182684	49.258335	-0.083892	-0.656926	-0.45173	8.140477	2.274746	0.463047	12.710375	8.288978	19.21125	-0.617925	-0.45414	-0.26863
-1.148681	1.932389	9.604944	-3.817637	1.478673	3.561794	0.483801	0.217158	-0.907078	7.947536	3.636635	10.187603	35.647751	-153.603864	42.567446	-0.123711	-0.720577	-0.418189	7.779082	2.099597	0.036354	11.026912	6.54814	18.369768	-0.589758	-0.439191	-0.238271
-1.20375	1.990354	9.717778	-3.418044	1.85279	3.260051	0.497893	0.251382	-0.942411	7.241382	4.088004	9.4938	38.49816	-153.810035	32.671129	-0.124817	-0.709544	-0.361794	8.253837	2.389639	0.226115	9.595077	4.923003	18.260441	-0.575783	-0.421142	-0.270094
-1.37671	2.10512	9.658067	-2.374092	2.039959	3.444092	0.497522	0.247854	-0.928335	7.810299	3.185306	9.108653	39.478412	-154.872221	28.03687	-0.138013	-0.69537	-0.348172	8.667335	1.74961	0.171191	7.953222	4.310679	17.749667	-0.57578	-0.439814	-0.222673
-1.2629	1.530381	9.601028	-1.335354	1.929198	2.795287	0.484173	0.220686	-0.921154	6.583724	2.961536	8.233482	39.188996	-151.518772	21.503245	-0.163374	-0.693377	-0.37632	9.083229	2.446566	0.421489	5.974621	4.344575	16.747958	-0.561387	-0.38938	-0.25617
-1.605686	2.047845	9.653371	-0.970173	1.562831	2.726947	0.470438	0.20729	-0.917389	6.61655	2.622449	7.044975	41.134865	-147.247275	15.011454	-0.177311	-0.711988	-0.331991	9.200722	2.6786	0.424678	5.192409	3.711387	15.592274	-0.58955	-0.422999	-0.239108
-1.379802	1.759747	9.48606	-0.601466	1.843567	2.515776	0.455546	0.235206	-0.923872	5.838039	1.326968	5.498899	39.518081	-141.624985	6.187332	-0.22892	-0.711216	-0.345238	9.151299	1.867402	0.839465	4.992633	3.117834	13.761842	-0.589408	-0.424651	-0.208053
-0.98261	2.103383	9.324743	-0.357447	1.910694	2.117487	0.470038	0.23836	-0.938297	2.134441	-0.525943	4.343812	25.808182	-119.045569	-14.993865	-0.216384	-0.682644	-0.318822	9.323676	1.98216	0.603633	5.25015	2.846347	10.522226	-0.589408	-0.424651	-0.208053
-1.377948	2.277204	9.601938	-0.452438	1.606077	1.836802	0.498651	0.241139	-0.953071	-0.050467	0.269307	7.185948	15.305841	-94.371676	-36.366522	-0.217049	-0.700108	-0.289119	9.681229	2.388871	0.851594	5.23488	2.254408	8.599498	-0.561316	-0.390206	-0.240642
-1.329477	2.102908	9.147502	-0.911854	1.728248	1.717439	0.496779	0.240797	-0.900183	-1.953213	-0.008932	6.975898	7.726143	-79.907406	-53.429414	-0.217495	-0.731821	-0.272762	9.748063	1.867535	1.209911	4.058876	2.320515	7.71706	-0.590038	-0.454558	-0.252962
-1.14864	1.874947	9.604702	-1.372714	1.510285	1.776559	0.483387	0.265528	-0.945478	-2.374365	1.286808	6.232211	0.026385	-62.200592	-64.849627	-0.204369	-0.701105	-0.275045	9.800747	1.749764	0.851075	1.630741	3.011226	8.1199	-0.589203	-0.389788	-0.25631
-1.037596	2.046465	9.437094	-1.188245	1.697272	1.625729	0.498665	0.22384	-0.93558	-3.116563	1.232116	6.499646	-6.241356	-30.699729	-67.993854	-0.191769	-0.777632	-0.270302	10.21386	1.748819	0.858779	-1.697571	3.337631	7.947008	-0.561667	-0.404746	-0.270861
-1.607872	1.989921	9.539424	-0.944599	1.51507	1.530063	0.497522	0.247854	-0.928335	-2.765342	1.344367	6.790192	-8.066572	-6.219697	-63.529069	-0.191173	-0.715278	-0.288667	10.325424	1.68899	0.501291	-4.66744	3.283774	6.215839	-0.56208	-0.455802	-0.221766
-1.37642	1.70303	9.656378	-0.976207	1.517708	1.284856	0.48453	0.241514	-0.952722	-2.944837	1.738767	6.5037	-12.703213	16.257377	-54.123624	-0.205185	-0.74921	-0.243334	9.792909	1.80611	0.431974	-4.377447	2.326179	4.263253	-0.589132	-0.390614	-0.240782
-0.971392	1.990912	9.892791	-0.549009	1.493847	0.85389	0.526149	0.233333	-0.925618	-2.372009	2.5826	6.45986	-17.336276	36.958349	-40.759148	-0.178347	-0.745844	-0.286935	9.911501	2.038391	0.495071	-2.875783	2.069543	2.975361	-0.589483	-0.405154	-0.271001
-1.493031	1.530305	9.53972	-0.764856	1.402736	0.669024	0.498665	0.22384	-0.93558	-2.26668	2.018652	5.952048	-21.303418	56.563421	-27.651266	-0.178642	-0.746916	-0.272585	10.036406	1.923452	0.856219	-0.596203	1.64697	3.213631	-0.575783	-0.421142	-0.270094
-1.495092	1.300057	9.425049	-0.549729	1.495933	0.669919	0.456661	0.245791	-0.9661	-1.73892	2.018062	6.416045	-26.327495	75.51865	-15.999207	-0.190808	-0.759096	-0.314355	9.565512	1.866704	0.907075	-0.009773	1.554786	3.456456	-0.575153	-0.391236	-0.225184
-1.265666	2.276638	9.490458	-0.703297	1.558767	0.487376	0.50058	0.172284	-0.935992	-0.582107	2.297796	6.723658	-30.80437	93.545393	-6.914356	-0.20445	-0.776635	-0.284376	9.146897	1.866413	0.599837	-0.015653	1.193384	2.908057	-0.588994	-0.373595	-0.257147
-1.263356	2.162238	9.603682	-0.980496	1.248423	0.636469	0.483387	0.265528	-0.945478	-0.168485	2.410129	7.241972	-34.529654	109.726146	-0.220852	-0.178793	-0.777557	-0.270578	9.564702	2.21516	0.908558	-0.149614	0.592181	1.84169	-0.561734	-0.422591	-0.238968
-1.321351	1.645064	9.543544	-0.731118	1.67564	1.010708	0.483416	0.230929	-0.910494	0.648442	2.9724	7.825767	-37.962586	124.392233	4.145788	-0.164561	-0.757874	-0.329256	9.506206	1.518135	0.844584	-0.866179	-0.327739	1.818112	-0.5899	-0.437539	-0.269327
-1.716523	1.589119	9.819773	-0.975694	1.578823	1.316515	0.47041	0.241888	-0.952373	1.586389	2.351656	8.580902	-41.598517	137.446873	6.029996	-0.177317	-0.772198	-0.342327	9.451052	1.751563	1.0841	-1.172222	-0.892065	3.044453	-0.602898	-0.392471	-0.209797
-1.149712	1.817264	9.547608	0.587522	1.554346	1.403621	0.442183	0.225338	-0.934183	1.580584	2.858441	8.354771	-46.770237	148.652106	6.507295	-0.138094	-0.770901	-0.357504	9.384197	1.808044	0.663899	-1.571906	-1.175114	3.658525	-0.575783	-0.421142	-0.270094
-1.373452	2.220727	9.829109	1.688018	1.442481	0.877284	0.500523	0.241481	-1.005959	2.16075	3.026544	8.59356	-51.799475	156.432145	6.272397	-0.176726	-0.770054	-0.371026	9.737889	1.981462	0.671243	-3.579156	-1.300581	3.269065	-0.58927	-0.407633	-0.224418
-1.375472	1.933037	9.714196	0.338769	1.281831	0.939892	0.484173	0.220686	-0.921154	2.345989	3.421056	9.220555	-55.446005	161.168144	5.730862	-0.124452	-0.753361	-0.387482	9.857987	2.039762	0.793505	-4.970343	-1.329541	2.632407	-0.617712	-0.456618	-0.222047
-1.267644	1.931507	9.375304	-0.427236	1.308986	0.942538	0.499765	0.251724	-0.995299	2.704679	3.420931	9.850844	-56.212517	163.867317	3.691609	-0.123717	-0.780787	-0.428524	9.558619	1.516517	0.486243	-6.217041	-2.115739	1.32645	-0.631762	-0.45517	-0.253173
-1.779842	2.277253	9.53729	-1.837329	1.240593	0.976153	0.469267	0.265902	-0.945129	3.798098	3.587875	9.873955	-55.280698	164.104164	2.060818	-0.111997	-0.800319	-0.370398	9.333829	1.403377	1.080416	-7.932048	-3.109839	-0.740875	-0.617157	-0.407215	-0.240086
-1.094974	2.218831	9.436704	-2.264485	1.577333	0.92152	0.498665	0.22384	-0.93558	4.08407	3.925272	9.823645	-54.980447	160.869806	0.703255	-0.110666	-0.765391	-0.429804	9.682154	1.517483	0.787979	-9.003328	-4.342847	-3.145541	-0.574665	-0.359677	-0.211331
-1.378978	2.162079	9.544602	-1.682992	1.832859	0.310643	0.498294	0.220312	-0.921504	4.327306	4.094354	10.451658	-56.79236	154.38792	-0.010107	-0.110521	-0.79496	-0.442146	9.56053	1.168308	0.544667	-10.225685	-5.271776	-5.428818	-0.58962	-0.422173	-0.254636
-0.689449	1.817415	9.670222	-1.100871	1.804846	0.308512	0.541027	0.222716	-0.936627	4.265336	3.86895	10.223701	-59.460984	148.625898	-0.069601	-0.058392	-0.748699	-0.44626	9.331628	1.402883	0.960602	-11.343692	-5.508812	-6.55441	-0.616393	-0.341619	-0.258962
-1.139566	1.647111	10.058562	-0.885033	1.989889	0.341566	0.513543	0.213223	-0.946589	5.084896	4.318654	10.920681	-61.394463	142.438905	0.6688	-0.070707	-0.791519	-0.486023	9.21072	1.693039	0.839824	-12.335038	-5.813832	-6.977221	-0.602761	-0.375452	-0.226162
-1.382976	1.529257	9.314535	0.065615	2.024014	0.431388	0.485645	0.252099	-0.99495	4.965923	4.431389	10.748439	-62.719889	137.769921	-0.026123	-0.083533	-0.760953	-0.487754	9.20989	1.576639	0.779422	-12.617123	-6.6754	-6.574791	-0.589341	-0.406806	-0.239945
-1.549379	1.817796	9.596667	-0.026962	1.962817	0.369324	0.486431	0.207257	-0.970627	5.62308	3.924129	11.837463	-62.440236	135.360735	-1.190511	-0.04468	-0.776049	-0.487578	9.324621	1.575628	0.601903	-13.455318	-7.257363	-6.782907	-0.603182	-0.389166	-0.271908
-1.49559	1.989355	9.427945	-0.026308	1.835718	0.73527	0.5124	0.237236	-0.939345	6.250171	4.59872	11.624771	-60.253692	132.099086	-4.180692	-0.056175	-0.710555	-0.548715	9.033942	1.577292	0.836028	-14.269887	-8.539583	-7.293377	-0.561734	-0.422591	-0.238968
-2.054032	2.50988	10.158072	-0.027825	1.808811	0.397491	0.499051	0.210069	-0.932164	6.767374	4.428711	11.57887	-60.995372	127.162083	-4.970285	-0.0435	-0.771761	-0.544977	9.556979	1.748574	0.427325	-16.440314	-9.672789	-7.891329	-0.603737	-0.438569	-0.253869
-1.209566	2.333797	9.43496	-0.393626	2.020477	0.555324	0.47041	0.241888	-0.952373	7.446525	4.821305	11.083952	-63.42024	118.620179	-5.982068	-0.030228	-0.770614	-0.559602	9.387343	1.402006	0.781982	-17.625583	-10.985963	-8.491987	-0.630927	-0.3904	-0.256521
-1.548597	2.277569	9.65545	-1.036201	2.04577	0.772259	0.499808	0.199826	-0.942824	7.905971	5.383748	11.094098	-66.552426	108.066441	-5.349733	-0.016292	-0.752003	-0.603931	9.204658	1.459251	0.479393	-18.778629	-12.208516	-8.970948	-0.603458	-0.423203	-0.239179
-1.143197	2.048478	9.889692	-0.758292	2.447959	0.655324	0.485645	0.252099	-0.99495	8.191272	5.439445	10.98691	-69.763384	96.078077	-5.841528	-0.003316	-0.751928	-0.604206	9.147012	1.343481	0.537705	-18.756558	-12.998943	-9.425665	-0.589758	-0.439191	-0.238271
-1.662076	2.392776	9.710559	-0.543885	2.543241	0.472249	0.486045	0.221028	-0.974042	9.325464	6.168969	10.27539	-68.847478	87.76601	-7.649838	-0.00302	-0.750856	-0.618556	9.452962	1.403355	1.142524	-17.771588	-13.520102	-8.968336	-0.589341	-0.406806	-0.239945
-1.489981	1.93312	9.711969	-0.175625	2.887873	0.047439	0.499408	0.230896	-0.963731	9.533835	5.604332	9.203599	-71.671385	86.552957	-10.407828	0.011657	-0.699461	-0.693592	9.391164	0.705588	0.898829	-16.384438	-13.887199	-8.482636	-0.617157	-0.407215	-0.240086
-1.207049	1.932189	9.546977	0.527893	2.769976	-0.109841	0.471181	0.214346	-0.945541	10.546267	5.376121	8.092378	-73.465554	95.519174	-16.639657	0.011507	-0.730101	-0.691584	8.923322	1.230589	1.191785	-14.159334	-14.044443	-7.298067	-0.603458	-0.423203	-0.239179
-1.205936	1.93243	9.60383	0.465014	2.617771	-0.265474	0.498294	0.220312	-0.921504	11.064248	5.431482	8.103305	-69.980986	111.241803	-24.402919	0.037384	-0.745272	-0.691132	9.451862	1.403107	1.082617	-10.603774	-13.988484	-5.569217	-0.603666	-0.439396	-0.238341
-1.270902	1.8159	9.204262	0.982886	2.472803	-0.821345	0.513529	0.230522	-0.964081	10.961852	5.094189	8.666999	-59.21451	123.805322	-31.82171	0.076167	-0.715478	-0.679617	8.981663	1.520834	1.194122	-8.181791	-13.391422	-3.319265	-0.58955	-0.422999	-0.239108
-1.32292	2.27668	9.489345	0.277317	2.346238	-0.790703	0.528035	0.216376	-0.961014	10.773764	4.924904	7.926915	-45.507524	127.437473	-35.936054	0.102564	-0.683615	-0.696525	9.107804	1.348066	1.614929	-8.031139	-12.918508	-4.63623	-0.603249	-0.407011	-0.240016
-1.210597	2.218673	9.377624	0.248089	2.529789	-0.7263	0.486031	0.238328	-0.991534	10.910364	3.571131	6.116937	-38.409223	126.710491	-37.509695	0.116866	-0.708821	-0.766542	9.639104	1.753631	1.686471	-7.396175	-13.264942	-6.409445	-0.58899	-0.392267	-0.209727
-1.320154	1.530422	9.599914	-0.214088	2.315651	-1.004462	0.484916	0.227743	-0.949306	10.925643	4.189046	4.192921	-42.907459	125.273212	-37.281009	0.129402	-0.680249	-0.740126	9.105758	1.754351	1.556753	-7.738717	-12.949259	-7.479352	-0.562013	-0.437957	-0.253659
-1.377782	2.047438	9.600972	-0.153295	2.160888	-0.88448	0.47231	0.207632	-0.970277	10.979127	3.794435	3.967239	-52.960605	121.868602	-37.477101	0.116501	-0.665004	-0.740854	8.872705	1.40693	1.670682	-2.424807	-13.105818	-5.297435	-0.575571	-0.423621	-0.22351
-1.431779	2.163086	9.770901	-0.85663	2.40345	-0.878514	0.471939	0.204104	-0.956201	10.755172	4.921808	4.359829	-59.236204	114.054425	-40.149258	0.169291	-0.661488	-0.785006	8.754942	1.291048	1.667986	0.721335	-12.876072	0.19128	-0.58899	-0.392267	-0.209727
-1.270078	2.218232	9.262805	-0.613834	2.317615	-1.34063	0.49978	0.234425	-0.977807	20.637895	13.808166	9.896959	107.07351	77.887179	-105.659624	0.168845	-0.693201	-0.768649	9.224736	1.347549	1.557223	-2.512751	-13.201235	6.867441	-0.617365	-0.423407	-0.239249
-1.543071	2.336217	9.939957	-0.552418	2.317553	-1.310139	0.485273	0.24857	-0.980874	14.030941	11.170974	7.434691	-68.692588	20.620753	-51.751761	0.169661	-0.645096	-0.800359	9.047977	1.696658	1.615312	-11.807012	-12.863566	9.466942	-0.603387	-0.424029	-0.223651
-1.603086	1.531353	9.764906	-0.492396	2.634542	-2.133203	0.498665	0.22384	-0.93558	14.914348	10.768697	0.26289	-10.358764	-0.071289	-70.436001	0.156685	-0.645171	-0.800084	9.095564	1.403423	0.956201	-11.36632	-11.426764	-2.155745	-0.574945	-0.375044	-0.226022
-1.079877	1.360344	10.172175	0.371931	3.528371	-1.99849	0.471553	0.217875	-0.959617	14.553455	15.953899	2.694294	17.976649	-58.526826	-28.794829	0.195393	-0.630697	-0.787565	8.807376	1.754285	1.37153	-5.339002	-10.853984	-17.032724	-0.603178	-0.407837	-0.224488
-1.587124	1.017757	10.558677	-2.219051	4.977755	-0.771417	0.49978	0.234425	-0.977807	6.690521	6.103909	-5.348904	77.826602	-108.113102	14.350817	0.195688	-0.629625	-0.801914	8.751276	2.394245	1.612777	0.713737	-12.468095	-18.574866	-0.602828	-0.393297	-0.194269
-1.016149	1.648958	10.515614	-0.426529	7.509481	-1.042111	0.513143	0.244293	-0.967496	-1.288789	8.903827	22.736453	-2.938017	-112.867209	16.735732	0.168775	-0.648311	-0.75731	9.283407	2.916209	1.74472	6.12626	-13.936169	-7.830463	-0.603316	-0.424856	-0.208123
-1.015036	1.649199	10.572467	-0.333732	9.228962	-3.559904	0.527664	0.212848	-0.946938	4.122983	1.279065	11.407325	59.322188	-100.092564	28.103885	0.155875	-0.633066	-0.758038	10.333769	3.782693	1.229074	14.095349	-12.650915	9.647198	-0.575287	-0.426926	-0.161399
-0.002335	4.184849	12.705578	-7.954576	20.090829	-10.476681	0.485302	0.213972	-0.94589	1.812489	6.179458	6.04139	36.486544	-96.356056	26.951109	0.156835	-0.61453	-0.802091	12.035158	2.904918	0.598302	17.086145	-9.152527	21.387835	-0.63162	-0.456823	-0.222117
-0.407865	2.41559	15.304432	-4.566491	51.854465	-10.614168	0.499794	0.217125	-0.960316	4.486466	3.586487	9.775183	16.226264	-89.090571	25.958803	0.142968	-0.67803	-0.769101	12.97787	2.147027	0.432975	6.500654	-3.767419	17.548948	-0.589266	-0.426304	-0.176997
-0.871582	3.206552	12.116242	-11.049992	65.8753	-13.986649	0.498651	0.241139	-0.953071	6.79478	3.131721	10.049719	27.898826	-73.889787	8.639144	0.10338	-0.63551	-0.728236	12.930108	1.568627	0.968564	-2.753933	-2.77744	-1.52528	-0.603942	-0.473433	-0.205612
-0.982874	3.379683	12.285299	-5.892713	79.654304	-18.439448	0.527263	0.243918	-0.967846	4.318343	2.460295	9.883887	44.537215	-49.484294	-9.108476	0.116872	-0.648611	-0.756207	11.509899	2.268286	0.825306	1.066559	-5.900887	-8.736753	-0.603316	-0.424856	-0.208123
-0.933207	3.090745	11.887234	-13.968547	89.557716	-22.579885	0.50018	0.203354	-0.9569	9.373379	3.241442	12.25531	61.022007	-22.639084	-2.077056	0.077498	-0.680549	-0.739023	10.618324	2.152676	0.448864	-0.046884	-10.244878	-3.119248	-0.617503	-0.440426	-0.222884
-0.874591	2.746296	11.943753	-14.860033	101.492366	-26.830761	0.527278	0.226619	-0.950354	3.144497	2.236227	8.783367	58.428012	4.795376	31.982248	0.077718	-0.694798	-0.752369	10.741434	1.863014	0.689456	-3.788417	-12.411074	-1.964555	-0.603245	-0.425682	-0.192595
-1.384147	2.518109	12.217032	-20.219579	112.634276	-28.075775	0.555919	0.194799	-0.930145	1.530534	3.985539	8.807627	63.64663	-1.135725	20.674621	0.077492	-0.740759	-0.749358	10.554461	1.396339	0.085108	0.9396	-14.000927	-3.349391	-0.631269	-0.442283	-0.191898
-1.796389	1.424356	11.579268	-19.645674	126.098344	-28.533275	0.554004	0.246355	-0.929732	4.21411	3.472597	7.787867	56.05321	-1.551423	13.203725	0.077938	-0.709046	-0.765715	10.368359	1.975774	-0.335069	1.962297	-13.914018	-2.528331	-0.603521	-0.459719	-0.159865
-1.775564	1.888472	12.661407	-26.906886	134.261268	-25.312331	0.568525	0.21491	-0.909174	3.249919	4.151012	8.504199	40.116242	0.819175	13.615248	0.090179	-0.681546	-0.724949	10.201235	2.443259	0.262676	4.135123	-13.440419	-6.175316	-0.61757	-0.458271	-0.190991
-1.802537	2.227331	11.298381	-25.327449	146.21349	-24.877109	0.55439	0.232584	-0.926316	3.826544	3.64296	8.515861	37.229856	-0.978204	6.196164	0.064221	-0.741906	-0.734733	10.013088	3.428979	-0.215677	12.863599	-12.420167	-7.189753	-0.631616	-0.475494	-0.174696
-1.836574	2.462205	12.492148	-28.689739	153.526528	-26.435485	0.625364	0.23424	-0.942138	3.30539	3.981818	8.391986	26.988337	-0.233613	3.729054	0.103079	-0.696792	-0.724221	9.89463	3.138622	-0.279021	16.263219	-11.336155	-7.329482	-0.603387	-0.424029	-0.223651
-1.967215	1.034976	14.529486	-11.431055	162.678604	-32.777713	0.625007	0.213412	-0.910571	3.613098	3.700385	9.304027	21.425662	-0.602363	2.426124	0.089733	-0.713259	-0.708592	10.068647	3.021323	-0.455935	14.343685	-9.682805	-11.119939	-0.616873	-0.41052	-0.177975
-2.637431	1.486279	12.472457	0.585227	174.031433	-34.9282	0.623878	0.220126	-0.885834	3.205413	3.64462	9.068959	18.7574	-1.612727	1.704881	0.063706	-0.728729	-0.707037	9.368406	2.443666	-0.112171	12.461783	-7.98013	-13.749396	-0.603103	-0.427334	-0.161539
-2.34481	1.947052	12.821073	0.844674	181.315577	-35.239897	0.666983	0.226059	-0.915034	3.142126	3.475499	8.78441	15.099894	-2.696367	0.88963	0.089884	-0.682618	-0.710599	9.177342	2.789561	-0.832872	8.865124	-6.709979	-13.589635	-0.617499	-0.459097	-0.175463
-3.171485	1.252785	11.494967	7.980738	191.537938	-37.272044	0.679617	0.211572	-0.859079	2.791036	3.9266	8.550978	7.218612	-3.101565	0.663463	0.076832	-0.698014	-0.70932	8.991916	3.078615	-1.254285	4.602845	-6.059601	-15.838691	-0.589542	-0.460341	-0.144267
-4.125638	2.464104	12.504461	-7.700628	197.288335	-36.182431	0.666254	0.201703	-0.86939	3.192115	3.644098	8.445924	0.263831	-3.466755	0.808376	0.076167	-0.715478	-0.679617	8.458299	3.195488	-1.383509	1.284101	-6.717299	-18.451582	-0.576059	-0.45518	-0.237364
-5.219614	1.716704	12.139049	-11.277509	200.68555	-39.307051	0.706715	0.234836	-0.852533	3.315816	3.587884	8.844771	-6.051124	-4.556672	0.484176	0.037609	-0.69931	-0.694143	8.697375	2.846986	-1.260776	-1.106736	-7.625514	-20.180406	-0.603595	-0.440222	-0.222814
-5.840546	1.776532	12.581867	-21.977842	199.675041	-38.525809	0.746805	0.264441	-0.821601	3.497189	3.475231	9.24478	-9.580384	-5.26896	-0.604729	0.037754	-0.728879	-0.706485	8.107929	3.487667	-1.149248	-3.111537	-8.314484	-19.314233	-0.589195	-0.42713	-0.161469
-6.560932	1.035397	13.75817	-26.244801	198.046917	-37.527741	0.747977	0.205828	-0.793861	2.922421	3.645348	9.289473	-9.520506	-5.478611	-1.254154	0.037685	-0.68399	-0.695147	7.992773	3.198052	-1.032871	-5.502189	-8.474484	-16.493431	-0.631269	-0.442283	-0.191898
-4.871343	1.31533	12.371453	-11.565679	197.972556	-30.393452	0.775475	0.198022	-0.766408	3.265157	3.137585	9.126381	-5.777485	-5.091643	-1.586403	0.063856	-0.698089	-0.709044	8.815542	2.78864	-1.258823	-8.224328	-8.029303	-13.154739	-0.589963	-0.474055	-0.190014
-5.231525	-0.296645	11.448366	-5.089158	192.840959	-27.52027	0.774346	0.204737	-0.741672	3.383136	2.912142	9.241888	0.041751	-4.187158	-2.004319	0.051031	-0.667523	-0.710776	9.293309	2.73072	-0.950732	-11.197507	-7.824985	-10.272305	-0.590034	-0.473229	-0.205541
-5.42329	-0.358304	10.421429	4.415714	185.737544	-22.878264	0.831957	0.196524	-0.767805	2.977222	3.194454	9.120384	5.798052	-3.317348	-1.929383	0.077498	-0.680549	-0.739023	9.412556	2.207766	-0.950756	-12.517628	-7.498958	-9.718993	-0.576055	-0.473851	-0.189943
-0.715955	-1.577908	8.177804	-2.137808	171.580307	-6.803548	0.81595	0.213856	-0.732059	3.547502	3.474839	8.906152	9.4837	-2.506079	-1.610071	0.062751	-0.687056	-0.652649	9.760206	2.612252	-1.241957	-13.875811	-7.749172	-9.651759	-0.548169	-0.474269	-0.174275
2.180685	-3.193692	6.977068	2.544903	134.81303	19.29585	0.859469	0.171419	-0.722859	3.666821	3.812796	9.135412	11.251377	-1.932969	-1.417982	0.06304	-0.746194	-0.677334	9.657424	2.209204	-0.467099	-13.999877	-8.120769	-9.252249	-0.603871	-0.474259	-0.190084
2.719974	-2.499459	8.240753	11.041218	98.51936	48.055339	0.858726	0.164362	-0.694708	3.203318	3.475533	8.955538	13.295241	-1.509055	-1.319638	0.036724	-0.702526	-0.651094	9.475164	2.557076	-0.708545	-13.479034	-8.919843	-8.700229	-0.576122	-0.491696	-0.158051
3.440733	-2.275298	7.062278	25.031608	59.732144	60.046458	0.885824	0.187627	-0.688162	2.969107	3.644814	8.780926	15.365695	-1.393414	-0.916058	0.064597	-0.665304	-0.739751	9.597193	2.732023	-0.465975	-14.251269	-9.44765	-8.205941	-0.547539	-0.444363	-0.129366
5.22807	-1.009974	7.784343	32.171446	17.323605	73.653036	0.899187	0.197495	-0.677851	3.31791	3.75697	8.958193	17.687203	-0.996437	-0.848586	0.05066	-0.683915	-0.695422	9.591016	3.021167	-0.764273	-14.558994	-9.480923	-8.051863	-0.575567	-0.442292	-0.17609
4.503267	-0.258353	8.79636	41.923134	-1.610062	74.972718	0.90073	0.142411	-0.664187	3.324062	3.700877	9.241343	19.611111	-0.297303	-0.870914	0.076607	-0.743975	-0.706309	9.951445	3.137992	-0.397734	-13.931064	-9.282873	-6.282537	-0.534261	-0.474065	-0.174205
4.065207	-1.070447	6.852182	44.809682	-8.480193	72.124566	0.859112	0.150591	-0.691292	3.27308	3.419569	9.523095	23.072828	-0.157785	-1.421646	0.051025	-0.727733	-0.721111	9.541343	2.790976	-0.287107	-13.522658	-8.83018	-5.552702	-0.617704	-0.493961	-0.127206
4.153981	-0.903754	5.547512	36.203535	-23.545824	66.233389	0.846134	0.126952	-0.698187	3.370317	3.925664	8.732986	25.948273	0.035212	-1.910661	0.023748	-0.702601	-0.650818	9.7704	2.96318	-0.641405	-12.99885	-8.144644	-6.596958	-0.561797	-0.459107	-0.159655
4.55208	-0.27267	5.444255	25.30564	-45.822372	58.146803	0.88661	0.142786	-0.663838	2.909578	4.039188	8.723409	28.321791	-0.44786	-3.146672	0.037465	-0.669742	-0.681801	9.419179	2.674105	-0.52943	-11.954323	-7.016063	-8.898201	-0.603591	-0.458893	-0.175393
4.695042	0.422819	6.927558	20.552501	-68.907823	47.821589	0.846149	0.109653	-0.680695	3.206945	3.475675	9.125457	29.674266	-1.066932	-4.323198	0.023152	-0.764955	-0.632454	9.655244	2.673565	-0.525028	-11.025013	-6.182756	-9.302832	-0.6038	-0.475086	-0.174556
4.062892	0.595117	6.802327	22.094794	-88.623213	35.53941	0.845749	0.140723	-0.701603	2.73401	3.645055	8.549532	29.579681	-1.307189	-5.281325	0.023522	-0.748562	-0.647807	9.416128	2.092355	-0.77153	-11.084424	-5.193746	-10.315832	-0.589471	-0.461168	-0.128739
3.605519	-0.323617	6.789558	24.974612	-104.978277	22.908455	0.847663	0.089167	-0.702015	3.067899	4.601648	8.104474	17.897935	-1.738384	-4.216039	0.037534	-0.714631	-0.693139	9.594317	3.021908	-0.584552	-10.349626	-4.374032	-12.431052	-0.589892	-0.474881	-0.174486
3.200984	0.250365	6.613617	22.118752	-117.989984	11.298024	0.890382	0.108871	-0.734631	3.024578	3.475619	8.668713	9.149363	-2.281443	-3.796889	0.063191	-0.715553	-0.679341	9.058635	3.080211	-0.833837	-10.442736	-3.876435	-13.258202	-0.562006	-0.475299	-0.158817
2.681405	0.020007	6.375218	14.185896	-129.959348	0.546376	0.848006	0.127294	-0.751075	3.026241	3.870028	8.782324	5.685385	-2.632199	-3.772336	0.036793	-0.747416	-0.662433	9.591981	3.07949	-0.704119	-11.023444	-3.701944	-12.584618	-0.548515	-0.50748	-0.157073
2.407672	-0.379223	6.993346	6.203308	-141.400434	-8.050361	0.8343	0.079299	-0.712326	3.1472	3.98271	9.068035	0.798285	-3.182966	-4.059195	0.049329	-0.718843	-0.636016	9.53391	2.673093	-0.70695	-11.327869	-2.996357	-12.89248	-0.603938	-0.492104	-0.158191
1.561761	0.256151	7.661535	1.237112	-151.958161	-14.709605	0.820508	0.1351	-0.778528	3.718581	4.319474	8.91049	-0.94239	-4.03329	-4.007395	0.024633	-0.699386	-0.693867	9.651402	2.905127	-0.70376	-11.733468	-2.367737	-14.666463	-0.575847	-0.457659	-0.19078
1.399072	0.028439	8.112054	-2.175316	-160.410267	-19.315049	0.806388	0.135475	-0.778179	3.31366	4.714494	8.84572	-1.844954	-4.594627	-4.321981	0.036348	-0.779128	-0.646076	9.349449	3.020471	-1.068209	-14.014287	-1.880528	-15.241153	-0.576335	-0.489217	-0.204634
0.829744	0.201902	8.272202	-4.480998	-164.727996	-21.9243	0.75102	0.147558	-0.81901	3.320543	3.644404	9.071377	-2.095892	-4.93247	-4.726304	0.037904	-0.698239	-0.708493	9.297981	2.615557	-0.711599	-16.133378	-1.096643	-14.870509	-0.589613	-0.459515	-0.159795
-0.136942	0.261496	8.594633	-8.106838	-165.156636	-23.577119	0.736928	0.113334	-0.783677	3.039969	3.645227	9.40517	1.613512	-4.759952	-5.153193	0.024263	-0.715778	-0.678514	8.884733	2.674578	-0.719055	-17.699713	-0.741216	-14.285906	-0.562565	-0.506032	-0.188199
-0.585164	0.551206	9.098609	-13.739425	-163.950464	-23.756017	0.723151	0.151835	-0.832388	3.428637	3.531243	8.733862	2.667571	-4.412522	-4.655645	0.010847	-0.687356	-0.651546	9.169639	2.78783	-1.25222	-18.378172	-0.681216	-14.405972	-0.589896	-0.45621	-0.221906
-0.905431	0.728846	10.286567	-16.823304	-162.683781	-22.806398	0.751406	0.133787	-0.815594	3.310441	3.869347	8.61845	1.770364	-4.487837	-4.256355	0.076537	-0.699085	-0.69497	8.642605	2.441331	-1.083887	-18.412123	-0.799586	-14.802556	-0.57591	-0.494175	-0.111467
-1.414082	0.788108	10.617906	-15.822633	-160.857404	-20.724592	0.709373	0.190337	-0.881098	3.546424	4.038144	8.906626	2.490161	-3.772102	-4.464453	0.024043	-0.701529	-0.665168	8.769441	2.443039	-0.602431	-17.984955	-1.193173	-15.046698	-0.576193	-0.49087	-0.173578
-1.643431	1.247806	10.615382	-14.485478	-159.497346	-18.0686	0.695252	0.190712	-0.880749	3.081496	3.813495	8.670207	2.738209	-3.678378	-4.247527	0.050435	-0.729876	-0.692411	8.707279	2.849211	-0.721614	-17.400028	-1.406767	-14.895001	-0.562352	-0.508511	-0.141615
-2.098043	1.133978	10.776551	-16.540219	-156.992992	-14.648203	0.681475	0.229213	-0.929459	3.375607	4.320215	9.016515	3.263248	-3.67252	-4.123735	0.036793	-0.747416	-0.662433	8.951472	3.141029	-0.236721	-16.530308	-1.012306	-14.288847	-0.575772	-0.477156	-0.127832
-3.010815	1.192806	10.929536	-20.768709	-154.005076	-11.367115	0.639871	0.220094	-0.939072	3.542235	3.699971	8.679783	3.358891	-3.455477	-4.306467	0.05088	-0.698164	-0.708768	8.827782	2.733284	-0.600094	-16.376379	-1.104465	-14.197287	-0.576752	-0.521602	-0.20296
-2.428622	1.711537	11.45452	-27.213867	-152.158663	-8.680972	0.638384	0.205981	-0.882768	3.265634	4.151629	9.240514	2.590059	-3.103328	-3.378748	0.035913	-0.690421	-0.609048	8.719229	2.445151	-0.124276	-15.786457	-0.706589	-14.017965	-0.562494	-0.506858	-0.172671
-2.71172	1.942234	11.620477	-31.007907	-152.384576	-6.588207	0.598266	0.210975	-0.948684	2.744135	4.039795	9.05962	3.91697	-3.208934	-3.409559	0.062676	-0.702376	-0.651645	8.719384	2.851931	-0.062639	-15.229941	-0.272874	-14.358204	-0.590589	-0.522633	-0.187502
-2.755529	1.830288	12.301118	-28.674747	-152.477774	-5.553689	0.584131	0.228649	-0.965827	3.203665	3.926225	9.012557	6.111735	-3.088303	-3.529905	0.036944	-0.716775	-0.66444	8.658842	2.561191	-0.184789	-15.068443	0.210492	-13.719347	-0.562356	-0.489839	-0.189036
-2.860348	2.292074	12.8125	-22.280354	-149.745782	-5.190359	0.540998	0.257315	-0.971611	3.198722	3.982366	8.786046	10.040931	-2.636249	-4.07715	0.050956	-0.682843	-0.709772	8.66778	2.505093	0.294219	-15.36424	1.241233	-12.928644	-0.548936	-0.521194	-0.202819
-3.037223	1.659135	12.522239	-17.553422	-143.348565	-5.989453	0.512786	0.223465	-0.935929	2.802347	3.701705	9.060544	11.522265	-2.768547	-4.41638	0.023377	-0.718994	-0.635465	8.652104	2.617784	-0.543983	-15.295582	1.787026	-12.442541	-0.589754	-0.457863	-0.190851
-3.211379	1.888543	12.406158	-17.384825	-135.275758	-7.269587	0.528407	0.219905	-0.97509	3.43656	3.813227	9.130577	13.440999	-2.440208	-4.010809	0.023452	-0.703673	-0.636468	8.593898	2.269463	-0.546567	-14.582709	2.030828	-12.110127	-0.547818	-0.459729	-0.144057
-3.617479	1.542978	12.11265	-23.363009	-125.676044	-7.433801	0.514272	0.237579	-0.992233	3.20291	4.320538	9.012889	18.695663	-2.243465	-5.145254	-0.002279	-0.718072	-0.649263	8.366097	2.504285	-0.070725	-13.594705	2.062759	-11.899938	-0.562565	-0.506032	-0.188199
-4.299089	1.717006	12.384278	-28.049088	-115.709037	-6.951708	0.499794	0.217125	-0.960316	3.13425	4.43288	8.502018	16.196026	-2.003856	-4.435843	0.023898	-0.67196	-0.652825	8.94597	3.139793	-0.536256	-12.94791	1.724817	-11.533948	-0.534398	-0.491084	-0.15784
-5.038119	2.120842	12.655757	-32.124298	-113.285451	-2.698979	0.471924	0.221403	-0.973693	3.139624	4.151417	8.72834	8.71745	-2.140648	-2.71686	0.024037	-0.761739	-0.675503	8.064549	2.445401	-0.435915	-12.385273	1.525937	-9.854222	-0.562703	-0.523051	-0.171834
-5.545491	1.950579	13.042983	-27.253454	-124.250794	6.278492	0.457389	0.270147	-1.011743	3.245515	3.9255	8.277451	13.410304	-2.382288	-3.54784	-0.002204	-0.702751	-0.650267	9.007977	2.326841	-0.47871	-11.972433	2.156525	-8.57518	-0.57689	-0.538621	-0.186595
-6.166796	2.52738	13.487973	-17.458867	-143.090202	17.321307	0.442154	0.259937	-0.969166	2.569152	4.603377	8.999828	6.511562	-3.092466	-2.11154	0.036348	-0.779128	-0.646076	8.829153	2.617379	-0.540682	-10.533492	3.333198	-6.507856	-0.590865	-0.55667	-0.154772
-5.941119	2.526491	13.321867	-7.835	-159.685279	28.247035	0.40015	0.281888	-0.999686	3.550721	4.319987	9.133421	9.81288	-3.358992	-1.834082	0.037013	-0.761664	-0.675779	8.950466	2.152995	-0.420645	-10.019818	4.103521	-3.915656	-0.604568	-0.52201	-0.2031
-6.179459	3.099142	12.865002	-1.085656	-168.980488	36.999295	0.414285	0.264214	-0.982544	3.441934	3.531765	9.356898	9.28462	-3.610779	-1.867839	0.011067	-0.701604	-0.664892	8.827472	1.919725	-0.723369	-9.780965	4.464143	-0.250758	-0.590381	-0.50644	-0.188339
-6.123152	2.869093	12.808297	1.731691	-167.013773	41.009021	0.415028	0.271271	-1.010696	3.556765	4.320224	9.416619	10.470616	-5.096703	-2.097456	0.063781	-0.713409	-0.708041	8.82363	2.151287	-0.902101	-9.236224	4.24056	3.813256	-0.548448	-0.489635	-0.188966
-5.839806	2.293747	12.640892	2.299283	-154.644111	40.748336	0.359303	0.262526	-1.019959	3.145668	4.151655	9.011538	14.31566	-6.451096	-3.217634	0.049254	-0.734164	-0.635013	9.070294	2.327448	-0.297889	-8.382088	4.388637	7.538296	-0.562494	-0.506858	-0.172671
-6.548839	1.887328	11.488779	0.215945	-138.918468	39.016756	0.35816	0.28654	-1.012715	3.321321	3.869773	9.128206	11.026474	-7.513487	-1.874415	0.011212	-0.731173	-0.677235	9.418349	2.557705	-0.589831	-6.847579	4.22474	12.087747	-0.590727	-0.539651	-0.171137
-22.035541	27.64751	28.345249	-143.7574	-79.17655	107.901938	0.331076	0.245976	-1.001769	3.144914	4.545968	9.01187	11.013145	-8.527894	-1.514576	0.011287	-0.715853	-0.678238	9.126569	2.559122	-0.415613	-6.080264	4.57905	16.545967	-0.576543	-0.50541	-0.203797
-11.491125	0.885353	4.568773	13.944836	-74.08598	43.556141	0.316898	0.315548	-1.071387	3.08152	4.433178	8.727368	9.274535	-9.081441	0.050751	0.011212	-0.731173	-0.677235	9.123808	2.326076	-0.596323	-4.35304	5.115298	21.489091	-0.535379	-0.53553	-0.232968
-16.039457	-1.185058	3.107646	36.319924	-42.319138	33.00052	0.344797	0.276672	-1.023026	3.237236	5.33591	10.71293	4.194632	-16.970687	5.578967	0.06245	-0.748337	-0.648634	9.123558	2.907084	-0.533943	-3.737999	5.217082	26.652498	-0.562636	-0.505206	-0.203727
-15.085756	1.592503	8.08215	-44.088551	-37.126111	35.554586	0.314641	0.328977	-1.021915	3.492747	5.1651	9.189563	15.57529	-18.384679	4.741698	0.062155	-0.749409	-0.634285	9.42138	2.674599	-0.409616	-4.363357	5.545271	30.199296	-0.603591	-0.458893	-0.175393
-17.865044	3.898227	9.458569	-62.018704	-9.963686	31.938815	0.329919	0.287289	-1.012016	2.320294	6.351821	10.977639	12.075287	-30.963913	8.251578	0.010546	-0.748638	-0.647531	10.24606	1.916979	-0.577145	-4.967417	6.605842	30.960681	-0.590518	-0.523459	-0.171974
-17.607278	6.362215	8.110038	-8.392871	23.698439	4.549434	0.316555	0.277421	-1.022327	2.810663	5.673747	9.6286	15.864634	-36.102479	13.536917	0.023377	-0.718994	-0.635465	9.77119	2.149869	-0.704773	-4.492924	8.044012	31.074379	-0.590381	-0.50644	-0.188339
-18.224331	9.397864	5.951275	7.141154	55.189574	-23.506171	0.302063	0.274267	-1.007902	3.230091	5.279295	10.373045	11.045883	-42.915106	18.891232	0.010031	-0.735461	-0.619836	9.652462	1.975663	-0.767623	-5.352155	9.368302	29.909497	-0.590101	-0.491074	-0.173649
-18.957125	7.332678	6.439791	6.913552	83.989417	-64.879339	0.358874	0.328196	-1.07585	3.04874	6.011631	10.030198	12.971175	-48.934419	23.858135	0.010251	-0.749709	-0.633182	10.188725	2.614768	-0.395558	-7.354373	11.220533	27.584597	-0.562147	-0.473647	-0.189873
-20.918381	9.054439	5.726934	30.234206	119.683187	-106.126316	0.358903	0.293597	-1.040867	3.280511	5.222572	10.034369	10.561318	-55.806597	28.843954	-0.041873	-0.735761	-0.618733	9.898586	2.384128	-0.162421	-9.633987	13.102694	25.230032	-0.576055	-0.473851	-0.189943
-0.006472	-0.252184	9.390631	28.068369	136.876455	-92.553222	0.345182	0.262901	-1.01961	3.696443	5.391331	10.66601	9.201097	-62.784002	33.15136	-0.042539	-0.753225	-0.58903	10.263303	3.024873	0.505877	-11.005311	15.054333	25.347961	-0.604151	-0.489625	-0.204775
-2.312944	5.630789	14.598963	24.369683	133.483745	-38.72369	0.413856	0.329883	-1.038435	3.869139	5.391008	10.669636	11.414857	-70.59701	36.09684	-0.015406	-0.748788	-0.64698	10.441451	3.024715	0.569085	-10.100941	15.162263	27.05605	-0.603942	-0.473433	-0.205612
-3.084145	2.49828	7.239635	90.993426	110.431048	-51.100852	0.400893	0.288945	-1.027838	3.867021	4.602238	10.499054	13.054523	-79.857766	38.780845	-0.029638	-0.768471	-0.588302	11.627432	3.430031	0.952266	-8.894664	13.668849	29.901803	-0.562222	-0.454149	-0.252822
-1.268717	5.595661	6.549207	15.517848	127.907139	-5.724462	0.401264	0.292473	-1.041914	4.013798	4.490595	11.974006	11.96862	-89.734481	41.148247	-0.042023	-0.766402	-0.616725	11.80554	2.500162	0.891704	-10.98045	12.271218	28.265251	-0.575638	-0.441466	-0.191618
-2.692956	2.176102	12.587945	-1.043269	123.212691	14.057867	0.400907	0.271645	-1.010347	4.458606	4.489116	11.247363	19.96568	-99.722405	40.531295	-0.06753	-0.734839	-0.632531	11.442505	2.55707	0.406094	-14.745989	12.821036	21.123142	-0.547826	-0.422387	-0.238898
-15.382816	-2.336374	16.12973	79.2838	64.074886	-2.560277	0.415799	0.243729	-1.003864	4.554418	5.107825	10.400708	20.285834	-108.410977	42.048397	-0.042388	-0.722584	-0.591037	10.961322	3.13718	-0.019586	-15.716766	14.98866	15.277953	-0.603942	-0.473433	-0.205612
-7.251947	1.896793	13.577868	57.192611	-3.023334	-35.209614	0.429148	0.270896	-1.011045	3.534172	4.99772	11.115168	18.066365	-117.423852	45.934217	-0.055219	-0.752228	-0.603104	10.946807	4.644684	-0.612227	-9.215316	15.426697	19.531711	-0.575988	-0.456006	-0.221836
-2.707618	3.699196	6.058582	59.723137	12.73592	-17.201215	0.429934	0.226055	-0.986722	3.901239	5.673941	12.199143	18.243451	-127.133395	53.021529	-0.081461	-0.69324	-0.577867	11.204975	3.661302	0.466296	-3.345126	12.475007	25.974475	-0.589967	-0.455384	-0.237434
-0.922802	3.195454	9.501	13.902254	2.849137	-12.445358	0.458933	0.215063	-0.99808	4.464866	4.376692	11.530466	25.481954	-140.907107	52.304694	-0.121425	-0.727322	-0.531983	11.608995	3.309676	-0.066646	-3.007768	9.278107	24.643474	-0.589825	-0.457036	-0.206378
-1.848024	1.987674	8.966439	13.722333	3.275042	-12.131216	0.472296	0.224931	-0.987769	4.973415	4.938695	11.145343	31.628704	-153.041465	52.034919	-0.172373	-0.769296	-0.585269	11.094491	3.256523	0.821806	-4.154934	9.593242	17.432072	-0.561521	-0.425069	-0.192384
-1.604407	1.81832	9.709259	6.684983	3.871768	-2.593781	0.442912	0.249694	-0.979826	5.092819	4.600639	11.317395	28.327934	-164.898129	51.821971	-0.160277	-0.712227	-0.53216	10.850028	3.080857	0.337408	-7.736018	12.631936	12.234235	-0.590176	-0.471576	-0.236597
-1.320196	1.587864	9.600155	6.812774	3.825964	-1.21482	0.416585	0.198887	-0.979541	4.863766	4.601117	11.369199	30.710194	-176.687668	52.261729	-0.173994	-0.745086	-0.501177	10.262898	3.199101	0.506618	-8.281153	15.1574	10.390218	-0.589479	-0.423825	-0.22358
-1.322014	2.564129	9.547405	6.542212	3.997244	-0.168544	0.429563	0.222527	-0.972646	4.674947	5.44583	10.686608	30.50525	-187.984072	51.933529	-0.186675	-0.74409	-0.515251	9.550592	3.548436	0.315176	-4.225247	16.692404	11.254602	-0.589687	-0.440018	-0.222743
-1.153259	2.103748	9.378255	2.95738	3.164102	1.361626	0.444469	0.177311	-0.948671	5.713734	4.71164	10.764392	21.846933	-200.955572	51.797714	-0.213287	-0.701494	-0.474662	9.255802	3.897815	0.371064	1.78809	16.339669	11.937517	-0.589829	-0.438365	-0.253799
-1.441551	1.816265	9.257775	2.029557	2.401603	0.462539	0.430692	0.215812	-0.997382	6.680258	4.709334	10.218547	21.710952	-206.446368	55.566161	-0.25266	-0.733432	-0.457477	9.262789	3.260215	0.667879	7.422832	15.070671	12.351086	-0.548452	-0.470964	-0.236386
-1.375555	2.04792	9.714679	1.438715	1.828891	-0.771786	0.416971	0.185116	-0.976125	6.482953	4.934031	9.082318	19.36234	-213.35616	60.737027	-0.279052	-0.705085	-0.430234	8.783247	3.608268	0.301117	11.569452	13.035661	12.376345	-0.603599	-0.421551	-0.270234
-1.492498	2.334728	9.599952	0.923715	2.059447	0.368158	0.417343	0.188645	-0.990201	7.938366	5.269983	9.90578	9.166022	-217.744417	68.794075	-0.265486	-0.702866	-0.459209	8.781587	3.375469	0.180315	13.346728	11.759132	12.192606	-0.561316	-0.390206	-0.240642
-1.719289	2.335376	9.709204	-1.45944	2.058158	2.215058	0.45969	0.20482	-1.00874	9.000815	5.438078	11.173754	13.850062	-218.57702	69.067066	-0.318495	-0.692133	-0.401711	8.07793	3.320002	0.40649	14.969584	10.172046	12.408264	-0.60367	-0.420724	-0.285762
-1.028729	2.105837	9.89216	-2.77405	2.105124	2.955625	0.416557	0.233486	-1.014524	8.475881	4.593758	10.765685	22.28176	-218.651283	68.641461	-0.305739	-0.67781	-0.38864	7.967715	2.799071	0.761505	14.896479	8.423715	12.844796	-0.589967	-0.455384	-0.237434
-1.382029	1.759265	9.372353	-2.371897	2.440513	3.358593	0.417328	0.205944	-1.007693	8.43798	4.425633	11.670568	31.064043	-215.635618	65.872747	-0.320342	-0.713885	-0.314609	7.722307	3.029938	0.278837	15.187315	6.098348	13.007671	-0.561872	-0.439609	-0.222603
-1.091427	1.932347	9.606057	-1.117407	2.577649	2.621194	0.403208	0.206319	-1.007343	8.181794	4.706721	10.476537	44.293991	-210.453456	59.675977	-0.359194	-0.69879	-0.314785	7.955901	3.145055	0.163919	15.075078	3.341103	13.388031	-0.589829	-0.438365	-0.253799
-1.269172	2.505681	9.320864	-0.538214	2.245102	2.368782	0.432964	0.185084	-1.029362	7.613102	3.353672	7.972377	55.63395	-210.374329	55.523617	-0.398713	-0.701159	-0.285258	8.266097	2.799138	0.946728	14.221795	0.645259	13.495687	-0.60332	-0.406184	-0.255543
-1.146661	2.220079	9.719856	-0.53973	2.218195	2.031007	0.432592	0.181556	-1.015286	7.596586	2.508003	7.122071	55.201609	-203.331887	52.818389	-0.399078	-0.657341	-0.25957	8.551834	3.028789	0.473964	13.528752	-1.409506	13.7831	-0.589412	-0.40598	-0.255473
-1.673128	2.275481	9.141545	-0.603067	2.223819	1.509931	0.416557	0.233486	-1.014524	7.295846	1.043332	6.378479	59.126241	-194.401359	42.057733	-0.400038	-0.675877	-0.215517	8.783497	3.02726	0.238738	11.973387	-2.631048	13.060976	-0.576618	-0.485912	-0.266745
-1.201606	2.10572	9.831966	-1.06268	2.315258	1.39007	0.403979	0.178777	-1.000512	2.1761	-5.092155	0.490895	40.657079	-161.660282	2.906368	-0.413825	-0.663847	-0.173196	8.905236	2.853504	0.419918	11.16224	-2.615964	11.321588	-0.589617	-0.440844	-0.207216
-1.374358	1.933278	9.771049	-0.235986	2.384061	1.082131	0.44557	0.205195	-1.008391	0.710281	-2.663381	4.821543	-15.97595	-94.69626	-47.522923	-0.427246	-0.695635	-0.156563	9.262769	2.795359	0.605994	11.160694	-1.681585	9.697165	-0.575713	-0.421969	-0.254566
-1.375803	2.392569	9.716126	-1.403544	2.074089	0.835112	0.444812	0.215438	-0.997731	3.870742	1.783281	7.722551	-23.843407	-56.801595	-92.617734	-0.414346	-0.710881	-0.155835	9.553988	2.561391	0.37088	11.353774	-0.081766	8.863571	-0.589963	-0.474055	-0.190014
-1.201647	2.163161	9.832208	-0.273063	1.933026	0.185541	0.431806	0.226397	-1.039609	-0.961219	-0.686256	7.562276	-25.05088	7.948875	-125.292996	-0.388099	-0.709659	-0.170736	8.915005	2.913805	0.959327	11.520709	1.664287	8.671243	-0.617921	-0.472811	-0.22121
-1.318176	1.875554	9.715068	-1.223615	2.086421	-0.177245	0.446713	0.181181	-1.015635	0.035895	0.382998	8.546602	-23.144846	44.130815	-146.104879	-0.375568	-0.741296	-0.154655	9.324796	2.447262	0.725425	10.304828	3.706856	8.910418	-0.562293	-0.453323	-0.268349
-1.432561	1.703312	9.712117	1.7794	2.195767	-0.460124	0.431063	0.21934	-1.011458	-1.181656	0.49759	8.124832	-16.304541	56.96269	-149.824154	-0.362442	-0.71058	-0.156938	9.37667	2.677948	0.368073	8.709638	4.803284	8.819268	-0.561876	-0.420938	-0.270024
-1.311454	1.81956	10.055945	1.750945	2.251873	0.000889	0.474182	0.207974	-1.023165	-1.915852	0.440846	6.071252	-22.099655	61.213012	-140.725722	-0.40086	-0.784192	-0.194142	9.032747	2.564831	0.900138	6.429583	5.475002	8.151891	-0.617712	-0.456618	-0.222047
-1.321641	2.047155	9.545233	2.298304	2.079098	-0.800862	0.474196	0.190675	-1.005674	-2.624315	0.835789	5.264123	-30.596066	67.325062	-126.278896	-0.361116	-0.735862	-0.226679	9.733237	2.56148	0.493995	4.955986	5.985305	8.582701	-0.603458	-0.423203	-0.239179
-1.087139	2.163078	9.834435	0.488968	1.666972	-0.434336	0.445198	0.201667	-0.994315	-2.28	1.398448	5.271851	-37.075611	76.902601	-108.281931	-0.323595	-0.785886	-0.167097	8.842493	2.56227	0.177954	4.314674	6.064345	9.593295	-0.56173	-0.441262	-0.191547
-0.976959	1.989706	9.608525	0.737655	1.814474	0.211373	0.431835	0.191798	-1.004626	-2.443911	1.230111	5.664559	-40.088728	89.547844	-88.802349	-0.310179	-0.814308	-0.194065	9.078402	2.15495	0.120718	3.728775	5.969205	9.718132	-0.589483	-0.405154	-0.271001
-1.032194	2.277438	9.722325	0.459967	1.599455	0.086006	0.431463	0.18827	-0.99055	-2.323036	2.018808	6.007478	-41.786631	103.759053	-67.394282	-0.296387	-0.766128	-0.226051	9.019541	2.561865	0.181255	2.827003	5.173159	9.480676	-0.589829	-0.438365	-0.253799
-1.606018	2.507377	9.655302	-0.395155	1.743197	0.612157	0.403222	0.189019	-0.989852	-1.918546	1.849109	6.072438	-42.907573	119.629417	-45.752536	-0.308923	-0.7947	-0.252467	8.84622	2.853639	0.418818	0.77898	4.538574	8.024001	-0.603737	-0.438569	-0.253869
-0.749552	2.678597	9.559022	-0.917224	1.462093	0.793098	0.43072	0.181213	-0.962398	-1.674664	1.680208	6.700167	-43.686316	137.906566	-26.305124	-0.282826	-0.824119	-0.265361	9.259738	2.678465	0.425779	-2.037601	4.207436	6.538115	-0.575921	-0.438161	-0.253729
-1.039988	2.275749	9.324353	-0.489656	1.343256	0.605929	0.432249	0.143429	-0.966227	-0.918283	1.904461	7.11255	-41.368029	156.600969	-8.761603	-0.256209	-0.806504	-0.295616	9.207034	2.33138	0.72273	-3.837823	3.478505	5.417233	-0.58962	-0.422173	-0.254636
-1.272057	1.8731	9.147651	-1.010665	1.24689	0.759202	0.432206	0.195327	-1.018702	0.004535	2.240814	7.245456	-39.817593	172.944645	5.768168	-0.28157	-0.804511	-0.323764	9.676402	2.097254	0.550823	-4.9833	3.265945	4.872242	-0.616531	-0.358637	-0.242597
-1.322713	1.989472	9.488138	-1.438377	1.209635	1.158508	0.432592	0.181556	-1.015286	0.401903	2.634184	7.027692	-41.175618	183.989072	19.195086	-0.268079	-0.817612	-0.351735	9.440047	1.749091	0.485031	-5.578343	2.691455	4.021348	-0.590038	-0.454558	-0.252962
-1.146703	2.27752	9.720098	-1.745177	1.17782	1.128207	0.429963	0.191456	-0.951738	1.56627	2.125528	7.617839	-44.343583	186.227907	31.392538	-0.242642	-0.804286	-0.324591	9.563872	2.098761	0.848157	-4.597524	2.426629	3.346656	-0.603879	-0.436917	-0.284925
-1.376668	2.047679	9.657825	-2.845566	1.195404	1.837016	0.416971	0.185116	-0.976125	2.433401	2.743737	7.863053	-50.81041	181.604355	42.131933	-0.229001	-0.786746	-0.35457	9.561225	1.342783	0.605315	-2.628806	1.790394	3.434254	-0.603249	-0.407011	-0.240016
-1.098108	1.9309	9.264939	-3.302588	1.310622	2.330885	0.431435	0.222869	-1.025534	2.719241	2.517781	7.755629	-60.274872	174.236287	49.851193	-0.240865	-0.737644	-0.400354	9.68559	1.460149	0.967452	-1.153488	1.525137	2.971721	-0.590317	-0.469924	-0.267653
-1.322014	2.564129	9.547405	-3.516256	1.369693	2.45513	0.431092	0.184742	-0.976474	3.760493	3.023052	8.061014	-67.517631	168.671593	53.027254	-0.241166	-0.798926	-0.39634	9.263289	2.0982	0.54312	-1.473441	0.925159	1.722642	-0.561596	-0.405572	-0.255333
-0.982402	1.816175	9.323536	-3.456028	1.279175	2.330815	0.447499	0.13634	-0.991312	4.004052	3.023143	8.688885	-73.135847	166.583696	52.261998	-0.214178	-0.76492	-0.441948	9.44721	1.983126	0.905369	-1.97887	0.604867	-0.016095	-0.561454	-0.407225	-0.224277
-1.492208	1.932637	9.598263	-3.147739	1.619697	2.24346	0.444855	0.16354	-0.945256	4.88515	3.923573	9.614011	-74.673466	166.746243	47.822689	-0.214178	-0.76492	-0.441948	9.269351	2.331987	0.903551	-2.632887	0.180274	-0.592393	-0.617228	-0.406388	-0.255614
-1.204988	2.162438	9.661649	-2.415097	1.662903	1.444696	0.444441	0.211909	-0.983655	5.534624	3.641352	10.363387	-72.882461	168.32352	39.57718	-0.23998	-0.734429	-0.443403	9.277844	1.520406	1.259531	-3.281642	-0.068031	-0.466607	-0.589483	-0.405154	-0.271001
-1.547318	2.048044	9.711338	-1.52449	2.006143	1.355707	0.416585	0.198887	-0.979541	6.281334	3.865225	10.322653	-69.143352	169.846015	29.421371	-0.212401	-0.698278	-0.517711	8.855408	2.216533	0.835446	-3.501724	-0.650636	-0.401904	-0.617086	-0.408041	-0.224558
-1.384504	2.103432	9.260095	-1.492783	2.191024	1.327953	0.402851	0.185491	-0.975776	6.232146	4.541679	10.77513	-66.623688	170.135124	18.142657	-0.173473	-0.698053	-0.518538	8.919366	1.985083	1.075185	-2.919703	-1.044929	-0.524381	-0.57585	-0.438987	-0.238201
-1.091137	1.530256	9.604368	-1.431289	2.222041	1.32828	0.458961	0.180464	-0.963097	6.626295	4.089901	10.330096	-67.000027	168.642498	6.720818	-0.159907	-0.695834	-0.547513	8.565114	1.579114	1.006945	-1.753352	-1.775802	-0.433429	-0.631762	-0.45517	-0.253173
-1.550783	2.219645	9.541503	-1.675036	2.216725	1.696907	0.445198	0.201667	-0.994315	6.684962	4.146171	10.387992	-68.50161	166.125436	-4.804344	-0.133365	-0.693541	-0.576764	9.21099	1.576887	0.839329	-1.421247	-2.41317	-0.798343	-0.561805	-0.421764	-0.254496
-1.665375	2.334611	9.539758	-1.399791	2.125818	1.694638	0.431077	0.202041	-0.993966	7.098476	4.314835	10.906353	-69.028935	162.486368	-16.185489	-0.159392	-0.709011	-0.575209	9.568523	1.518742	1.025405	-0.688026	-2.863354	-1.379539	-0.575504	-0.405776	-0.255403
-1.716647	1.761444	9.820497	-1.308533	2.190839	1.419423	0.431863	0.1572	-0.969642	7.251081	4.316089	12.664598	-66.137987	155.636023	-26.424181	-0.132109	-0.673933	-0.635167	8.752741	1.290553	1.548172	-0.079881	-2.938088	-2.817816	-0.603599	-0.421551	-0.270234
-1.665458	2.449494	9.540241	-0.817964	2.22386	1.418547	0.388744	0.168566	-0.957935	7.134634	4.372588	12.605588	-58.231137	144.774377	-36.636893	-0.105711	-0.64207	-0.652075	9.451187	1.693487	1.083853	0.902981	-2.989413	-3.432373	-0.589061	-0.39144	-0.225255
-1.438418	2.104197	9.429541	-0.694542	2.315932	1.481024	0.431449	0.205569	-1.008042	7.474198	4.259043	12.329549	-52.319589	132.680518	-45.106215	-0.08028	-0.688953	-0.635266	9.748583	1.170375	1.147037	1.299049	-3.1652	-4.044208	-0.603741	-0.419898	-0.30129
-0.979228	2.046665	9.495061	0.071728	2.444522	1.296902	0.431106	0.167442	-0.958982	7.39686	4.483714	11.422296	-52.137482	122.181174	-50.944015	-0.040837	-0.701904	-0.663789	9.331608	0.938027	0.898718	1.479316	-3.124489	-4.961908	-0.603733	-0.457241	-0.206449
-1.259974	2.10552	9.774	0.226398	2.534998	1.512601	0.44597	0.174124	-0.987483	7.786412	4.538769	10.80777	-59.021769	115.094428	-53.578527	-0.079394	-0.685737	-0.678315	9.445374	0.878692	0.661044	1.901619	-3.81923	-5.663038	-0.589132	-0.390614	-0.240782
-1.599746	1.532077	9.935465	-0.692772	2.592516	1.485514	0.431835	0.191798	-1.004626	7.949245	5.27041	10.415536	-68.337365	111.537944	-52.57336	-0.014364	-0.654721	-0.681701	9.272187	1.112391	0.898359	2.881832	-4.548549	-5.785353	-0.561734	-0.422591	-0.238968
-1.430416	1.818678	9.826306	0.810708	2.907538	1.424971	0.418114	0.161103	-0.983369	8.122157	5.157426	10.419068	-76.299805	107.908968	-47.221491	-0.013478	-0.651506	-0.72475	9.09981	0.997632	1.134191	3.64805	-5.685747	-4.988101	-0.58962	-0.422173	-0.254636
-1.539358	1.819967	10.108344	0.845142	3.021916	2.19342	0.417357	0.171345	-0.972709	9.432888	5.774108	9.880999	-82.446645	104.063763	-38.078703	0.012178	-0.652427	-0.710952	8.925118	1.405311	1.312341	4.17039	-6.70494	-3.854342	-0.603178	-0.407837	-0.224488
-1.261869	1.645505	9.658363	0.584081	4.35508	3.779875	0.460862	0.146208	-0.981001	10.50049	6.165378	8.714868	-90.909867	102.876516	-27.523979	0.026335	-0.648065	-0.768627	8.863185	0.765621	1.068893	6.180601	-7.982105	-0.921546	-0.631832	-0.454344	-0.2687
-1.833259	1.588719	9.70384	1.510559	5.058891	4.432657	0.460104	0.156451	-0.970341	11.571827	6.50046	7.718609	-95.442415	111.711443	-19.05487	0.051552	-0.62049	-0.728136	8.504977	1.114146	0.884053	8.28092	-9.223297	1.521807	-0.561525	-0.406398	-0.239805
-1.20808	1.817065	9.489641	2.192601	5.477675	5.725514	0.44557	0.205195	-1.008391	12.497039	6.217225	7.907634	-87.436998	133.748474	-18.705843	0.091956	-0.614905	-0.800712	8.631813	1.115854	1.365509	12.629112	-8.711953	0.892356	-0.603599	-0.421551	-0.270234
-0.636856	2.103617	9.44513	3.697168	5.852069	5.849935	0.459319	0.201292	-0.994664	12.803153	7.400433	8.877547	-65.395052	158.473067	-23.158558	0.078019	-0.633516	-0.756384	8.682991	1.172064	0.947509	13.49373	-6.972594	-1.380725	-0.561805	-0.421764	-0.254496
-1.086641	1.47378	9.831539	3.547623	6.466672	5.79902	0.458947	0.197764	-0.980588	12.624605	6.668175	8.533467	-36.549296	174.098913	-28.744385	0.066004	-0.615055	-0.800161	8.392582	1.057576	1.181139	10.169953	-5.816856	-1.893766	-0.561805	-0.421764	-0.254496
-1.422912	2.222457	10.225967	2.513022	7.410644	6.154675	0.444441	0.211909	-0.983655	13.783677	6.156945	6.179564	-18.732016	180.242463	-34.402565	0.131624	-0.581895	-0.832246	8.448587	1.405403	1.063909	5.874238	-5.872413	2.003543	-0.590176	-0.471576	-0.236597
-1.375472	1.933037	9.714196	3.648442	7.568202	6.276635	0.473082	0.18009	-0.963446	13.283669	5.311238	4.243435	-17.706919	175.38658	-39.289728	0.169441	-0.630847	-0.787013	8.688223	1.289452	1.247537	1.442085	-6.958957	4.989463	-0.617228	-0.406388	-0.255614
-1.432892	2.162845	9.714048	3.466125	8.595717	5.036516	0.445627	0.135997	-0.938424	13.910605	4.802793	3.916468	-26.250974	156.620216	-43.459872	0.183673	-0.611164	-0.845692	9.34798	0.999812	1.797568	0.284387	-7.800299	3.133275	-0.603249	-0.407011	-0.240016
-1.011618	3.086203	10.805912	4.604442	8.901366	5.651546	0.445984	0.156825	-0.969992	16.845308	6.264321	6.753487	153.635856	93.214298	-128.462075	0.22201	-0.613083	-0.817819	8.809962	1.115696	1.428717	3.290014	-7.945222	0.43351	-0.561872	-0.439609	-0.222603
-0.487301	4.466598	11.333402	4.157587	13.869981	0.98015	0.446741	0.146582	-0.980652	14.32684	13.027432	5.291205	-68.102348	3.040259	-34.571378	0.183603	-0.566275	-0.834353	8.806681	1.57981	1.310881	7.517431	-8.122384	1.274812	-0.603316	-0.424856	-0.208123
-0.949537	2.570153	11.032266	-2.196426	32.318796	-7.779586	0.416214	0.195359	-0.965465	16.499378	14.032044	-0.663383	16.17516	-55.804127	-17.085904	0.20911	-0.597837	-0.818547	9.451031	1.286708	1.022216	9.960551	-7.875626	7.836044	-0.617645	-0.438773	-0.253939
-1.357206	2.856203	10.684559	-7.191577	33.92113	-10.192728	0.418114	0.161103	-0.983369	17.231881	18.764506	1.733971	70.714869	-103.757861	43.090978	0.209555	-0.566125	-0.834904	9.924706	2.041358	1.213954	9.113743	-7.444497	10.22113	-0.590109	-0.453731	-0.26849
-1.067759	3.086486	10.861651	-7.496321	41.180437	-13.600909	0.44597	0.174124	-0.987483	13.05338	-0.21387	-1.654149	139.91043	-130.06874	72.051944	0.157281	-0.582817	-0.818448	10.627168	3.084364	1.051889	9.57061	-6.686968	8.106867	-0.589896	-0.45621	-0.221906
-0.882385	2.744607	11.545781	-9.635726	49.545076	-17.691341	0.459361	0.149394	-0.942189	2.079349	11.884469	24.451632	-11.799402	-112.697604	67.600931	0.156835	-0.61453	-0.802091	11.440209	3.544363	0.410297	11.428072	-4.334789	6.071648	-0.63134	-0.441456	-0.207426
-0.691983	3.150675	12.517313	-11.457339	60.099959	-22.421959	0.44637	0.143054	-0.966576	7.058963	3.240558	6.262214	133.433196	-91.940801	32.745732	0.14386	-0.614605	-0.801815	13.499847	3.247773	0.088135	15.859124	-0.696506	4.785104	-0.589408	-0.424651	-0.208053
-1.359029	1.661793	13.46418	-10.607167	74.974998	-25.004406	0.459704	0.187521	-0.991248	1.374235	5.671816	4.333312	61.93901	-92.671599	10.206275	0.130733	-0.645321	-0.799532	13.55247	1.735436	-0.456355	15.817286	3.336285	8.189228	-0.589963	-0.474055	-0.190014
-1.251118	1.54538	13.124806	-6.638363	91.361406	-24.197286	0.474597	0.159604	-0.984766	2.60822	3.140206	10.697783	3.40515	-85.18214	17.910017	0.078534	-0.646693	-0.784079	12.839989	1.213136	-0.77132	4.799003	4.620574	4.433016	-0.576339	-0.470546	-0.252055
-0.926236	2.690102	12.226663	-6.768291	104.945163	-24.558804	0.529193	0.175063	-0.950767	4.316703	2.685569	9.827437	10.112556	-74.810188	21.070604	0.078609	-0.631372	-0.785083	11.198271	1.335541	-0.202569	-3.153032	2.840944	-3.690004	-0.576406	-0.488391	-0.220162
-1.328545	3.264566	12.164429	-13.573734	115.971227	-27.028431	0.515058	0.192737	-0.967909	3.436129	4.038549	9.130766	3.069454	-70.880252	11.516149	0.078534	-0.646693	-0.784079	10.722146	1.161405	-0.451742	-4.626992	-2.491783	-6.134713	-0.602969	-0.391644	-0.225325
-1.561069	3.493774	11.990381	-19.867448	126.212079	-30.524555	0.515486	0.127068	-0.912018	6.116922	2.063162	10.544067	23.540364	-53.866944	-8.182455	0.052142	-0.618346	-0.756836	10.079996	1.455001	-0.043262	-6.016326	-7.836715	-4.392724	-0.589203	-0.389788	-0.25631
-1.855219	3.607176	11.587325	-31.758184	137.296575	-32.181147	0.557434	0.174314	-0.951465	7.038545	5.162237	13.566708	25.628405	-47.150985	-3.952273	0.052067	-0.633666	-0.755832	10.560949	1.920754	0.506681	-4.102351	-10.414561	-5.854311	-0.603249	-0.407011	-0.240016
-1.552736	2.748723	12.385216	-45.16318	147.436388	-35.167751	0.55629	0.198328	-0.944221	4.576502	-0.358145	8.245012	61.58155	12.290807	31.226915	0.026335	-0.648065	-0.768627	9.859243	2.446789	0.91505	1.092157	-11.047943	-7.887139	-0.64567	-0.455374	-0.253243
-1.755522	1.892815	13.684763	-38.266756	162.345656	-36.049373	0.571168	0.18771	-0.95523	2.117414	4.435579	9.386492	81.023969	5.89458	24.95133	0.064742	-0.694873	-0.752093	10.160656	2.563749	1.280488	12.946934	-9.135824	-2.37698	-0.575713	-0.421969	-0.254566
-2.277492	1.89174	13.333623	-34.765866	177.967559	-36.234777	0.555547	0.191271	-0.916069	4.231619	4.430975	8.694906	76.274948	-1.940667	13.524419	0.065043	-0.633591	-0.756108	10.147181	2.676934	0.562099	19.724916	-4.219413	0.722965	-0.631553	-0.438978	-0.25401
-2.103171	1.432566	13.448739	-29.802162	192.21244	-36.354755	0.583031	0.200765	-0.906107	2.72939	3.532204	8.322878	67.619772	1.926312	10.226392	0.064082	-0.652127	-0.712055	10.032875	2.968574	0.800762	21.802533	-0.418555	-8.226789	-0.589475	-0.442496	-0.17616
-2.722824	1.262869	13.947445	-19.696434	206.032783	-37.631395	0.639899	0.185495	-0.904088	2.915838	3.926764	9.006512	67.065015	1.610326	5.875972	0.025299	-0.681921	-0.72357	9.552098	3.374455	0.374341	25.731301	1.400082	-14.147801	-0.575988	-0.456006	-0.221836
-3.015119	1.893726	13.660266	-18.089075	218.17706	-38.174637	0.639142	0.195738	-0.893428	2.95989	4.038795	8.38478	57.792652	-1.937192	0.49994	0.03776	-0.66867	-0.69615	8.898903	2.735868	0.059982	23.48612	2.560704	-14.756397	-0.603316	-0.424856	-0.208123
-2.882261	2.701926	14.632374	-9.52484	227.567154	-42.187678	0.68076	0.187558	-0.866324	3.134034	4.545541	8.502113	42.368997	-3.018256	-0.108955	0.024043	-0.701529	-0.665168	8.824636	3.139321	-0.718177	18.67011	3.640851	-17.341624	-0.590176	-0.471576	-0.236597
-4.467569	2.706947	15.510846	-3.105726	236.470795	-52.951501	0.667026	0.174161	-0.862559	3.074913	4.09491	8.387246	33.040324	-3.308749	-1.938205	0.050365	-0.684987	-0.681073	8.996047	3.195756	-1.014163	14.140144	4.426515	-17.9707	-0.604292	-0.487973	-0.23583
-5.978786	3.162732	14.346764	-18.172656	237.671646	-59.392368	0.722022	0.15855	-0.807652	3.25959	4.151392	8.957316	23.300059	-4.198659	-1.985719	0.024188	-0.731098	-0.67751	8.991781	3.136691	-1.254038	9.243348	4.366629	-16.822014	-0.561939	-0.457454	-0.19071
-5.776751	2.881914	15.883931	-21.621451	239.019741	-57.826565	0.790381	0.152806	-0.742434	3.316486	3.869584	8.901648	21.53835	-4.368896	-2.821184	0.037534	-0.714631	-0.693139	8.518396	2.730745	-1.384386	5.912332	3.083435	-15.153645	-0.575917	-0.456832	-0.206308
-4.844329	0.919029	13.734238	-12.84142	239.208371	-54.627557	0.802987	0.172917	-0.721463	3.261446	3.813456	9.013671	19.081916	-3.091293	-1.330714	0.011437	-0.685212	-0.680245	8.750329	2.613064	-1.620106	2.296499	0.695502	-13.234473	-0.56236	-0.471168	-0.236457
-5.609337	0.283127	12.6369	-1.594556	233.005723	-52.766816	0.832	0.144626	-0.715329	3.372411	4.094751	8.846407	19.05188	-3.058605	-1.70035	0.037314	-0.700382	-0.679793	8.693243	2.729845	-1.500898	-1.602164	-2.397259	-11.280324	-0.576477	-0.487565	-0.23569
-3.562695	0.33594	11.938137	0.681389	228.020858	-42.823196	0.830871	0.151341	-0.690593	3.136321	3.982284	8.558279	20.628097	-2.977484	-1.667447	0.063266	-0.700232	-0.680345	8.7528	2.497406	-1.500787	-5.381175	-5.792882	-9.569616	-0.548035	-0.438579	-0.238061
-1.318005	0.094625	9.650734	-4.28343	226.93875	-33.378629	0.859098	0.167891	-0.708784	3.197836	3.813327	8.729264	22.671336	-2.670996	-2.371798	0.024483	-0.730026	-0.69186	9.342556	2.670284	-1.489041	-7.052659	-7.928683	-7.689163	-0.589825	-0.457036	-0.206378
2.643226	-2.630989	4.317407	-10.722579	194.094288	-4.940545	0.872089	0.174231	-0.684397	3.319466	4.207709	9.071851	18.998164	-2.444671	-1.910084	0.024784	-0.668745	-0.695875	9.642309	2.554446	-1.244406	-7.088981	-8.539292	-7.808362	-0.576197	-0.472199	-0.220999
3.036737	-7.356243	0.838489	25.78176	109.860591	45.591217	0.857254	0.13295	-0.620912	3.314068	3.869489	8.788369	25.732946	-2.471417	-3.507983	0.024413	-0.685137	-0.680521	10.005074	2.613689	-0.7583	-8.945673	-8.657264	-8.870704	-0.604296	-0.469302	-0.283251
1.192232	-1.657548	3.327169	37.766377	27.78704	69.300676	0.899602	0.149125	-0.639451	2.92035	4.095945	9.233213	25.024833	-2.238934	-2.920511	0.011212	-0.731173	-0.677235	9.767909	2.613982	-0.822609	-10.639372	-7.891099	-9.601681	-0.604151	-0.489625	-0.204775
4.693892	-1.071144	6.807577	28.792327	-12.767927	88.561756	0.914479	0.138508	-0.650461	3.545908	4.93948	8.964024	29.094664	-2.771648	-2.645082	0.037013	-0.761664	-0.675779	9.650572	2.788728	-0.764161	-11.834721	-7.381101	-9.049695	-0.590314	-0.488595	-0.220232
4.668349	-0.259925	8.458582	42.091757	-27.462822	96.836413	0.912608	0.138166	-0.597573	2.835866	4.264001	7.986075	29.05929	-3.139019	-2.802903	0.037314	-0.700382	-0.679793	9.661306	2.907352	-0.164598	-10.90599	-7.602293	-8.043497	-0.589754	-0.457863	-0.190851
4.129469	0.02259	7.255852	59.352731	-24.973441	95.815714	0.929386	0.093292	-0.626487	3.243444	4.376097	8.221191	15.964629	-2.973127	-2.010264	0.023892	-0.73217	-0.663161	9.718392	2.79057	-0.283806	-9.461824	-7.77399	-8.689686	-0.56208	-0.455802	-0.221766
4.877008	-0.736552	4.482502	60.637583	-41.010241	90.065064	0.915265	0.093667	-0.626137	2.849379	4.151862	8.609016	10.353964	-2.095448	-1.759427	0.010176	-0.76503	-0.632178	9.780729	3.256033	-0.0411	-8.724977	-7.889583	-9.089092	-0.576126	-0.473025	-0.205471
5.388709	-0.392999	4.323412	48.776053	-66.660813	83.46028	0.915251	0.110966	-0.643629	3.078216	4.264044	8.557307	3.086159	-2.829924	-2.019202	0.036799	-0.687206	-0.652097	9.547676	2.908611	0.072829	-7.578459	-7.244392	-8.97408	-0.576055	-0.473851	-0.189943
4.989865	0.009864	4.431013	33.556784	-92.593575	73.028586	0.902288	0.070028	-0.633032	2.908369	4.03914	8.666769	-1.680882	-3.62626	-2.030956	0.061935	-0.735161	-0.620939	9.539723	3.487888	-0.28414	-7.044762	-5.58412	-9.625709	-0.618062	-0.471158	-0.252265
4.956983	0.187538	5.681392	24.11207	-114.192219	59.461743	0.889296	0.063688	-0.657419	2.789851	4.546236	8.551499	-2.920285	-3.947186	-2.25094	0.049329	-0.718843	-0.636016	9.42138	2.674599	-0.409616	-6.235185	-3.764532	-10.798618	-0.561872	-0.439609	-0.222603
4.346813	0.766751	6.694912	20.329178	-130.604992	43.631607	0.904203	0.018472	-0.633445	2.960345	4.433156	8.441752	-4.741043	-3.845234	-2.621326	-0.002424	-0.688503	-0.63692	9.540668	3.081356	-0.285871	-5.651279	-3.044697	-12.179371	-0.590451	-0.505614	-0.203867
3.830451	0.709442	6.627796	18.623132	-143.507607	28.188302	0.847692	0.054569	-0.667032	3.080419	4.3768	8.670681	-4.06245	-3.899553	-2.374697	0.010841	-0.747566	-0.661881	9.417539	2.906161	-0.588348	-4.885047	-2.598549	-13.651142	-0.576547	-0.486738	-0.251218
2.975182	0.423579	6.780447	13.675952	-156.071315	14.015696	0.877076	0.029806	-0.674975	3.078109	4.320375	8.557354	-3.10585	-4.00785	-2.714111	0.036648	-0.717847	-0.65009	9.182574	2.906949	-0.532843	-5.723671	-2.527756	-14.870818	-0.547609	-0.443537	-0.144894
2.288994	0.768967	6.825386	7.362479	-168.585673	3.0054	0.904932	0.042828	-0.679089	3.321991	4.151474	9.185083	-1.404788	-3.890672	-3.26648	0.010401	-0.719069	-0.635189	9.590455	2.788615	-0.825169	-6.010857	-3.224419	-15.630432	-0.59066	-0.521806	-0.20303
2.005031	0.654774	6.933042	1.436764	-179.904612	-4.828397	0.8347	0.048229	-0.691419	3.027581	4.433428	8.896078	1.379505	-3.577793	-3.507752	0.036793	-0.747416	-0.662433	9.121222	2.964665	-0.65351	-5.830702	-3.431886	-16.210715	-0.576477	-0.487565	-0.23569
0.870503	-0.088966	7.419313	-5.986969	-187.666621	-9.625486	0.807602	0.024964	-0.697965	3.371549	4.545395	8.846786	2.159183	-2.957099	-3.131018	0.024118	-0.686209	-0.666171	9.245297	2.733327	-0.352764	-6.267042	-3.579763	-16.850165	-0.562218	-0.472821	-0.205401
0.880317	0.200413	7.932197	-16.317191	-191.444249	-11.650645	0.80866	0.104747	-0.81016	3.769864	3.812107	8.571434	4.420817	-2.465686	-3.555902	0.062676	-0.702376	-0.651645	9.063016	2.616344	-0.656094	-6.457828	-4.314558	-16.845968	-0.590101	-0.491074	-0.173649
-0.312253	0.548104	8.42194	-24.679307	-190.685792	-11.430238	0.793796	0.098065	-0.781658	3.487542	4.094535	8.848825	5.351211	-2.148883	-3.305381	0.036133	-0.70467	-0.622394	9.119271	2.383163	-0.835703	-6.705629	-4.033843	-17.457584	-0.576685	-0.503757	-0.234853
-0.924236	0.55242	9.319341	-28.102174	-185.526651	-9.373727	0.794554	0.087822	-0.792319	2.971763	4.15193	8.951271	6.806085	-1.914999	-3.425196	-0.00243	-0.748713	-0.647256	9.193133	2.153938	-0.056802	-7.414058	-3.540984	-18.037982	-0.604013	-0.472607	-0.221139
-1.077935	0.211755	10.224202	-29.882379	-177.875226	-6.729445	0.76627	0.140469	-0.844095	2.847177	4.039106	8.495642	6.311985	-1.920264	-3.579785	0.011588	-0.654571	-0.682253	9.36416	2.849457	-0.290161	-7.284531	-2.776134	-18.011543	-0.576819	-0.539447	-0.171067
-1.813666	0.673756	10.666482	-31.572068	-169.968885	-4.848039	0.709802	0.124668	-0.825207	3.481498	4.094298	8.565627	6.556834	-2.072266	-3.303649	0.010257	-0.6895	-0.622846	9.246532	2.675499	-0.293104	-6.968111	-1.983178	-17.680329	-0.576339	-0.470546	-0.252055
-1.984896	1.478303	10.723373	-31.459527	-161.879366	-4.83965	0.695638	0.176941	-0.877333	3.314091	4.489172	8.84553	6.40112	-2.166624	-3.243057	0.011212	-0.731173	-0.677235	9.127535	2.617445	-0.355459	-6.649941	-0.883064	-17.47282	-0.590518	-0.523459	-0.171974
-2.030234	1.940531	11.349574	-29.050327	-158.005821	-6.409123	0.683433	0.125759	-0.877396	3.476662	4.094108	8.339068	6.801915	-2.223061	-3.212467	0.023823	-0.687281	-0.651822	8.893516	2.211701	-0.301684	-5.871077	0.439466	-17.909771	-0.57661	-0.523255	-0.171904
-1.571209	2.112765	11.416059	-30.331353	-160.635094	-8.318969	0.656306	0.137093	-0.918926	3.251128	4.15106	8.560839	7.910327	-2.543451	-3.646352	0.011067	-0.701604	-0.664892	9.140295	1.864929	0.240396	-5.153892	1.482379	-17.947904	-0.576331	-0.507888	-0.157214
-1.625165	2.170972	11.585746	-33.723961	-168.238459	-9.1381	0.62655	0.158328	-0.896907	3.544114	3.981719	8.793299	9.887873	-2.459047	-3.335642	0.024188	-0.731098	-0.67751	8.838206	2.038349	-0.123806	-5.240659	2.123171	-17.828413	-0.576752	-0.521602	-0.20296
-1.836408	2.232439	12.491183	-32.195295	-173.580763	-9.351947	0.625764	0.203169	-0.921231	3.252468	4.71446	8.674592	13.34454	-2.747434	-4.106425	0.010471	-0.763958	-0.646528	8.595154	2.676489	-0.425022	-4.953728	2.851392	-17.160638	-0.520912	-0.504593	-0.203516
-2.279761	1.948699	13.220158	-27.593256	-173.257667	-8.838562	0.584932	0.166508	-0.924012	3.076469	4.545649	8.500904	9.569197	-3.258256	-3.652124	0.023377	-0.718994	-0.635465	8.543686	2.271576	-0.068412	-4.638333	3.087448	-16.215584	-0.563124	-0.536764	-0.21758
-2.854491	1.89119	13.095076	-24.130341	-169.976461	-6.556374	0.598281	0.193676	-0.931192	3.176208	4.375826	7.766865	6.361884	-2.840447	-3.434755	0.036353	-0.718918	-0.63574	8.782376	2.562157	0.116946	-4.691693	3.350873	-15.085962	-0.535308	-0.536356	-0.21744
-3.313184	1.259423	13.02666	-24.484511	-166.661296	-0.705146	0.543685	0.178217	-0.965192	3.428229	4.376248	8.791213	6.081897	-2.939997	-2.819413	0.010546	-0.748638	-0.647531	9.132747	2.269978	-0.117315	-4.005672	4.052788	-14.694526	-0.563195	-0.535938	-0.233108
-3.66364	1.602873	12.680309	-28.026786	-165.553024	8.584544	0.542156	0.216002	-0.961363	3.185879	4.376205	8.219982	-0.355504	-3.76857	-1.137292	0.062525	-0.733017	-0.649638	9.374584	2.154522	0.186127	-3.138987	5.570897	-16.263422	-0.563053	-0.537591	-0.202053
-3.984482	1.033532	13.808277	-29.779976	-168.389302	19.276408	0.529535	0.21319	-0.999826	3.707116	3.361333	8.286648	0.888826	-3.307471	-3.597942	0.010251	-0.749709	-0.633182	9.183769	1.919409	-0.596953	-3.226018	7.329992	-17.799436	-0.52105	-0.521612	-0.187151
-4.93921	1.49787	14.75778	-26.427345	-173.79435	30.739066	0.499794	0.217125	-0.960316	3.327342	3.250327	9.354243	3.021281	-3.305052	-4.521038	0.010916	-0.732245	-0.662885	8.59884	2.038148	-0.307928	-3.800872	8.952673	-18.141241	-0.576961	-0.537795	-0.202123
-5.327908	1.73058	15.376335	-15.302264	-180.754348	41.448142	0.529135	0.244261	-1.020734	3.381866	4.207791	9.299619	3.246256	-4.935048	-3.334778	0.022787	-0.721137	-0.606765	8.950871	1.978767	-0.421387	-5.671627	9.640994	-17.31267	-0.549421	-0.571424	-0.169253
-6.502362	2.299552	13.878298	-5.365549	-185.580995	50.69232	0.485659	0.234799	-0.977458	3.136775	4.376645	8.61525	3.819399	-6.001914	-3.190785	0.062155	-0.749409	-0.634285	8.838186	1.573494	-0.185691	-7.2929	9.300202	-14.493746	-0.521262	-0.519133	-0.233735
-7.310978	2.815658	13.523762	-4.411937	-189.752898	58.194353	0.415814	0.226429	-0.986372	3.378263	4.827332	9.186861	6.564273	-6.506739	-5.074095	0.023227	-0.749634	-0.633457	8.181845	1.340944	-0.618133	-8.411584	8.664114	-9.56651	-0.549003	-0.539039	-0.170927
-4.935869	14.144387	70.959601	-119.738124	-192.467367	157.873589	0.403579	0.209847	-1.021419	3.089527	4.039149	9.066873	5.672632	-8.660936	-5.620303	-0.002575	-0.719144	-0.634913	8.472544	1.804136	-0.790373	-9.091064	8.325718	-3.694673	-0.549637	-0.550274	-0.263257
-8.412078	-2.776357	-4.93428	279.638886	3.167252	-2.226209	0.374195	0.23461	-1.013477	2.917609	4.264842	9.120076	8.131	-9.614129	-5.134559	0.062525	-0.733017	-0.649638	7.698617	2.327339	-1.101988	-7.237024	8.39	2.563667	-0.549358	-0.534908	-0.248566
-20.023055	1.395916	1.449787	-42.294602	-58.685503	4.596237	0.402465	0.199262	-0.979191	3.032177	3.926595	9.06557	8.035165	-9.832186	-4.797698	0.010326	-0.734389	-0.634185	8.707819	2.616907	-0.722603	-3.741404	8.166556	10.590532	-0.563333	-0.552957	-0.216743
-21.25463	-0.123372	8.636891	-21.171203	-19.887143	12.985781	0.403194	0.223618	-1.024835	3.734535	4.827112	9.703871	11.236839	-10.794769	-6.130287	0.06157	-0.691343	-0.59525	8.944154	2.500215	-0.718696	-0.066406	7.395665	18.375336	-0.521329	-0.536978	-0.201842
-24.052738	2.937577	12.005191	12.555225	-16.525844	-12.081635	0.429591	0.187928	-0.937662	3.445045	4.433243	9.584215	15.043644	-12.875147	-8.86074	-0.002355	-0.733392	-0.648259	9.119967	2.557639	-0.775054	1.489453	5.852774	23.176234	-0.563474	-0.551304	-0.247799
-26.072087	4.002348	5.378072	27.921273	-0.340428	-34.406872	0.403208	0.206319	-1.007343	3.558536	4.658302	9.530183	24.443191	-14.733877	-11.183718	0.010106	-0.72014	-0.620839	9.247768	2.61767	-0.233444	-0.997201	4.550181	27.012586	-0.548869	-0.503349	-0.234712
-26.989976	4.979276	5.307506	12.751166	32.820672	-56.708591	0.403951	0.213375	-1.035495	2.136418	7.140393	10.52156	23.582521	-20.673564	-0.176305	0.035317	-0.752775	-0.590684	9.713315	3.079962	-0.522197	-3.197049	3.914012	31.578527	-0.576823	-0.520776	-0.218488
-28.267649	8.423303	4.501544	26.460509	70.201776	-90.165863	0.432206	0.195327	-1.018702	1.517273	7.367469	11.188127	20.832552	-34.906259	4.365871	0.00944	-0.737605	-0.591136	10.018144	2.674732	-0.039171	-3.484219	3.437987	36.10637	-0.507492	-0.535948	-0.2173
-19.897718	6.453824	2.21234	33.448755	102.160689	-117.437834	0.433364	0.154014	-1.008454	2.759489	6.124783	9.967608	18.405445	-47.631145	13.301035	-0.042093	-0.721512	-0.605387	10.614368	2.907169	0.332264	-2.543743	3.784437	38.42478	-0.576335	-0.489217	-0.204634
-6.613832	5.804775	14.175056	28.225722	108.905401	-31.649968	0.489432	0.200885	-1.048251	3.464911	6.687412	10.718904	11.755279	-57.051078	24.454721	-0.003096	-0.766177	-0.617553	10.607651	3.428618	0.034955	-1.688082	5.637364	39.97203	-0.520983	-0.503767	-0.219044
-3.475418	4.121691	10.705522	46.388315	69.140064	-31.796766	0.431063	0.21934	-1.011458	2.735556	6.23888	11.552403	11.417591	-68.216493	33.253293	-0.015996	-0.750931	-0.61828	11.077579	3.427043	-0.076055	0.142354	7.954516	44.295728	-0.590451	-0.505614	-0.203867
1.580115	6.956945	3.030042	14.405988	109.499191	21.36462	0.445198	0.201667	-0.994315	3.161027	5.844666	12.580046	10.186561	-81.689986	41.319262	-0.042388	-0.722584	-0.591037	11.784362	2.611616	-0.246032	-1.567741	8.724126	46.193834	-0.548657	-0.505828	-0.188129
-18.911743	3.912708	26.146412	-15.25121	73.775882	65.172987	0.501694	0.182869	-0.97822	3.786193	4.998143	12.139516	17.592648	-96.726054	42.193188	0.009585	-0.767174	-0.603479	11.55436	2.845944	0.109996	-9.026719	8.47189	41.391436	-0.54859	-0.487983	-0.220021
-4.105598	-8.332251	13.084479	80.689	-5.258491	-31.786102	0.473053	0.214688	-0.998429	3.663616	5.730418	11.854517	20.159493	-110.822508	44.614113	-0.081391	-0.73813	-0.589206	11.664595	3.83173	-0.183134	-8.894233	10.438767	34.625117	-0.576823	-0.520776	-0.218488
-2.721057	2.260021	5.313459	72.776475	14.824233	-19.842597	0.50168	0.200168	-0.995712	3.235886	6.915596	13.48839	16.538188	-124.905994	56.341257	-0.003686	-0.768321	-0.588853	12.438002	4.005686	0.191355	-2.025777	8.552026	36.046102	-0.618618	-0.520562	-0.234226
-0.528785	3.3086	9.168159	0.789452	3.845548	-5.398753	0.473453	0.183618	-0.977522	4.579186	5.67451	14.308106	33.013166	-140.441544	61.472366	-0.055735	-0.739052	-0.575408	12.140565	3.599088	0.004401	-0.930028	4.981332	38.596654	-0.562777	-0.503553	-0.234782
-1.426004	1.877084	10.05396	-2.851784	0.801533	-6.787184	0.460462	0.177278	-1.001909	3.461697	5.450287	13.152155	46.044124	-157.071315	67.453201	-0.146786	-0.725328	-0.560131	11.684092	3.022622	0.771915	-1.802357	5.985579	29.912785	-0.562569	-0.487361	-0.23562
-1.552394	2.908702	9.487545	1.091145	3.208493	2.103742	0.516201	0.168723	-0.975153	3.010699	7.423239	13.767179	41.981409	-174.469376	77.667654	-0.12209	-0.744786	-0.50228	10.918813	3.141023	0.877917	-4.972495	9.220329	20.676972	-0.604363	-0.487147	-0.251358
-1.841675	2.448654	9.309488	-7.087227	2.373838	4.59777	0.516187	0.186023	-0.992645	2.957299	7.141837	13.935652	50.75386	-190.646072	85.376455	-0.135066	-0.744861	-0.502005	10.739003	2.908383	0.693906	-7.236257	12.000439	14.313935	-0.576547	-0.486738	-0.251218
-1.329808	2.56244	9.149433	-5.542041	3.03275	6.750713	0.473082	0.18009	-0.963446	2.958485	6.522201	13.93513	59.139359	-205.7197	92.417692	-0.200021	-0.760557	-0.499622	9.38891	2.622592	1.026801	-5.245035	13.212063	10.235678	-0.603875	-0.455588	-0.237504
-1.312567	1.819319	9.999092	-8.271723	2.399474	7.269611	0.488317	0.1903	-1.006023	5.083762	5.785679	13.696045	56.991946	-221.733463	91.054387	-0.213953	-0.718958	-0.444959	9.031376	2.680736	0.840725	-0.937543	13.462223	8.232149	-0.576827	-0.502105	-0.265908
-1.432643	1.818195	9.7126	-5.054199	2.885902	6.348255	0.518044	0.203664	-1.063025	5.451424	5.276528	12.004893	46.679232	-234.032039	87.686411	-0.227374	-0.750746	-0.428326	8.790775	2.738363	0.596943	2.84042	12.50985	6.969857	-0.575988	-0.456006	-0.221836
-1.603335	1.876002	9.766354	-3.832904	2.717319	5.452661	0.474196	0.190675	-1.005674	7.202671	5.217912	13.173905	49.955835	-236.633232	83.315711	-0.214913	-0.737494	-0.400906	8.079955	2.448862	0.402781	5.939965	10.002773	7.918101	-0.548105	-0.437753	-0.253588
-1.549421	1.875237	9.596908	-1.78281	2.73664	4.588398	0.51693	0.193079	-1.020797	8.941778	4.311433	11.001678	48.204272	-238.460974	82.371154	-0.279643	-0.707229	-0.401534	8.08146	2.274881	0.461946	7.625973	7.543618	9.665938	-0.57613	-0.454354	-0.252892
-1.441841	2.218356	9.259464	-1.74848	3.446041	4.385159	0.502438	0.189926	-1.006372	8.36567	3.91815	10.932617	45.524271	-238.772855	73.177699	-0.292844	-0.753265	-0.398248	7.54881	2.450077	0.392877	7.152955	4.674334	11.882062	-0.590038	-0.454558	-0.252962
-0.584304	2.447259	9.220279	-3.517067	4.256712	5.354102	0.446698	0.19848	-1.033127	6.686363	3.413874	10.387375	48.308778	-234.349371	64.189998	-0.319607	-0.74131	-0.355651	7.657343	2.273354	-0.144826	5.3854	1.861622	14.102644	-0.562151	-0.454976	-0.237294
-1.312567	1.819319	9.999092	-5.194469	4.913458	6.38161	0.474968	0.163133	-0.998842	6.432656	2.39936	9.192255	52.105853	-228.26763	52.414084	-0.333538	-0.699712	-0.300987	7.726668	2.101216	0.394695	2.875233	-0.731384	15.530172	-0.590042	-0.435886	-0.300382
-1.085735	1.761229	9.889599	-4.888163	5.134528	5.985653	0.502066	0.186397	-0.992296	5.69973	1.046966	7.080944	48.442429	-226.025649	40.470989	-0.372541	-0.715257	-0.299156	8.311888	2.331181	0.167061	1.105726	-2.515658	15.911898	-0.576201	-0.453527	-0.26842
-1.439615	2.218839	9.37317	-2.689115	4.634914	4.867194	0.489446	0.183586	-1.030759	3.58887	-2.445785	2.221326	36.979797	-206.619884	17.778711	-0.361041	-0.720541	-0.227683	8.912088	2.27398	0.71698	1.271006	-3.564169	13.837781	-0.576272	-0.452701	-0.283947
-1.321185	1.415298	9.542578	-1.25403	4.563352	3.635214	0.532193	0.168691	-1.028391	0.37276	-3.228139	2.436161	1.744722	-156.428512	-23.33797	-0.399818	-0.690126	-0.228863	8.797222	2.333067	0.894747	3.535925	-4.548684	12.214276	-0.5899	-0.437539	-0.269327
-1.550866	2.334528	9.541985	0.33579	4.613344	2.58876	0.518101	0.134467	-0.993058	-0.247082	-2.151337	8.538423	-33.135114	-107.219549	-65.970973	-0.374387	-0.737009	-0.212054	9.043596	2.160524	1.437569	5.472644	-4.189147	10.646696	-0.6182	-0.488177	-0.2359
-1.322298	1.415057	9.485725	0.511622	4.042823	1.47495	0.462348	0.160321	-1.037305	-1.50655	-0.348346	6.305609	-24.295039	-72.393109	-87.379099	-0.361556	-0.707365	-0.199987	9.341708	2.276743	1.623287	8.50877	-3.056897	11.63896	-0.589691	-0.421346	-0.270164
-1.15429	1.988624	9.32092	0.14269	4.013156	1.230188	0.48946	0.166286	-1.013267	-2.939556	-1.021428	6.501376	-22.909088	-30.381864	-102.186642	-0.399899	-0.765656	-0.238195	9.632097	1.926375	1.327771	11.897022	-0.799185	13.35817	-0.590526	-0.486116	-0.266816
-1.204864	1.990113	9.660925	1.914373	3.78812	0.11739	0.502852	0.141556	-0.967973	-2.75658	0.556025	7.129366	-19.114799	5.433347	-104.108366	-0.388035	-0.814758	-0.19241	9.75125	2.391208	1.451763	12.003482	1.503242	12.582644	-0.618271	-0.487351	-0.251428
-1.375596	2.105362	9.71492	0.077791	3.678996	0.856932	0.490232	0.138744	-1.006435	-2.9996	0.274282	6.501258	-21.329594	24.102653	-93.969026	-0.387294	-0.781973	-0.223117	9.737349	2.213766	0.672232	9.806604	2.596591	9.62052	-0.590038	-0.454558	-0.252962
-1.330632	2.160108	9.090891	-0.081921	3.258818	-0.100141	0.50248	0.138028	-0.953897	-2.78801	0.554792	5.656736	-30.207773	39.413258	-75.63843	-0.335905	-0.768496	-0.196524	9.916193	2.388083	0.796089	7.231656	3.176149	5.928742	-0.616948	-0.391022	-0.240923
-0.809899	2.333266	9.385901	0.988388	2.988981	-0.260947	0.517701	0.165537	-1.013965	-2.448531	1.117261	5.437906	-34.860392	59.152702	-56.304139	-0.33642	-0.75532	-0.168828	9.792119	2.619421	0.495343	5.774342	3.527919	3.945675	-0.575992	-0.437335	-0.269257
