1757_acc_x	1757_acc_y	1757_acc_z	1757_gyro_x	1757_gyro_y	1757_gyro_z	1757_mag_x	1757_mag_y	1757_mag_z	1758_acc_x	1758_acc_y	1758_acc_z	1758_gyro_x	1758_gyro_y	1758_gyro_z	1758_mag_x	1758_mag_y	1758_mag_z	1759_acc_x	1759_acc_y	1759_acc_z	1759_gyro_x	1759_gyro_y	1759_gyro_z	1759_mag_x	1759_mag_y	1759_mag_z
-1.089437	-0.824847	9.594474	-0.49982	0.308458	-0.300228	0.821392	0.103614	-1.166299	2.713024	0.322848	9.961515	-0.36439	0.457819	-0.38623	-0.033578	-0.404699	-0.968849	9.65999	1.105759	-0.471797	-0.559439	0.794136	-0.083264	-0.316983	-0.726241	-0.531519
-1.656414	-0.823226	9.867605	-0.683328	0.118689	0.095899	0.673013	0.178716	-1.035299	2.414749	0.097638	9.445524	-0.209334	0.520102	-0.231345	0.146695	-0.273268	-0.881294	10.013547	1.337253	-0.464205	-0.49898	0.64141	-0.082754	-0.216351	-0.502249	-0.465107
-1.376124	-0.250224	9.59132	-0.315671	0.120753	0.064207	0.685976	0.219655	-1.045895	3.054359	0.547381	9.799039	-0.333613	0.457607	-0.293723	0.132533	-0.33784	-0.833955	9.599468	1.279875	-0.532062	-0.559756	0.732641	-0.052407	-0.244446	-0.518023	-0.479939
-1.25786	-0.823998	9.761693	-0.499723	0.15167	-0.026765	0.685633	0.181528	-0.996836	2.646889	0.378954	9.563876	-0.364897	0.42655	-0.294057	0.158265	-0.323442	-0.82116	9.605511	1.048807	-0.233517	-0.376687	0.830119	-0.54254	-0.202585	-0.500392	-0.496093
-1.431027	-0.422025	9.703189	-0.376441	0.431958	-0.298576	0.657363	0.216876	-1.031121	2.651509	0.491805	9.790529	-0.519095	0.454651	-0.201417	0.184662	-0.291579	-0.838068	10.013142	1.511481	-0.463463	-0.378783	0.585718	-0.571929	-0.216284	-0.484404	-0.497
-1.089437	-0.824847	9.594474	-0.530021	0.244417	-0.086506	0.686019	0.167757	-0.99342	2.644495	0.998542	9.507758	-0.426802	0.425162	-0.201636	0.172722	-0.257797	-0.882849	9.539912	1.512314	-0.532174	-0.31368	0.765694	-0.20627	-0.230405	-0.482129	-0.543654
-1.371629	-0.3067	9.818491	-0.592037	0.246217	-0.270306	0.728738	0.187461	-1.026035	2.993837	0.829046	9.684788	-0.272759	0.396256	-0.170971	0.171686	-0.291654	-0.837793	9.49161	1.166218	0.004404	-0.22002	0.76382	0.00734	-0.216564	-0.49977	-0.511691
-1.544422	-0.4217	9.757815	-0.529605	0.462322	-0.32831	0.685976	0.219655	-1.045895	2.364568	0.661383	9.841267	-0.395089	0.487085	-0.231823	0.159226	-0.304906	-0.865213	10.00874	1.510492	-0.703091	-0.068583	0.738514	-0.45153	-0.230121	-0.485434	-0.481543
-1.375502	-1.111847	9.5877	-0.49744	0.489372	0.009385	0.68599	0.202355	-1.028403	3.330876	0.771737	9.295517	-0.334197	0.425936	-0.139898	0.172057	-0.275262	-0.853146	9.540047	1.454238	-0.532421	-0.036936	0.799173	-0.390809	-0.216768	-0.534634	-0.463433
-1.540709	-0.937951	9.926202	-0.437934	0.40094	-0.298903	0.701225	0.212566	-1.07098	2.539682	0.661154	9.958173	-0.301978	0.519127	-0.262257	0.197123	-0.278327	-0.810648	9.243981	0.931734	-0.659962	0.02544	0.953289	-0.483459	-0.230397	-0.519472	-0.448813
-1.211	-0.309237	9.253301	-0.436821	0.460317	-0.113934	0.686019	0.167757	-0.99342	2.594375	0.26659	9.789131	-0.272876	0.395652	-0.078493	0.159741	-0.318082	-0.892909	9.710628	1.394274	-0.888808	-0.068025	0.830598	-0.482535	-0.231027	-0.549378	-0.493722
-1.262646	-0.365431	9.536211	-0.346166	0.182769	0.003966	0.687134	0.178342	-1.035648	2.597809	0.999077	10.016306	-0.240579	0.489246	-0.262505	0.172057	-0.275262	-0.853146	10.00872	1.045637	-0.764976	-0.127219	0.887772	-0.115839	-0.216839	-0.533807	-0.478961
-1.602625	-0.651666	9.698883	-0.775	0.180071	0.066493	0.71536	0.194892	-1.053838	2.308427	0.548877	9.896602	-0.210816	0.397845	-0.294218	0.15849	-0.27748	-0.824171	9.834297	1.337164	-0.58732	0.027444	0.887381	-0.024709	-0.243958	-0.486465	-0.466085
-1.252583	-0.420701	10.047648	-0.437454	0.399549	-0.176255	0.68639	0.171285	-1.007496	2.42114	0.548566	9.785741	-0.364468	0.457416	-0.324577	0.184367	-0.292651	-0.823719	10.191851	1.743875	-0.339359	0.057614	0.888753	-0.147076	-0.244797	-0.532563	-0.510157
-1.490509	-0.422466	9.588369	-0.440163	-0.062124	-0.122415	0.674128	0.189301	-1.077526	2.816844	0.547527	9.454366	-0.24171	0.397453	-0.294247	0.184662	-0.291579	-0.838068	10.019184	1.280413	-0.164918	0.152917	0.945852	0.280187	-0.244517	-0.517197	-0.495466
-1.373607	-0.651832	9.703337	-0.653837	0.090881	-0.149981	0.701254	0.177967	-1.035997	2.543847	0.379644	10.127854	-0.362713	0.609734	-0.168921	0.159156	-0.260016	-0.853874	9.719006	1.105624	-0.470696	0.212443	0.888047	-0.025382	-0.188118	-0.469456	-0.466641
-1.481145	-1.052393	10.040539	-0.438306	0.151608	0.003725	0.713831	0.232677	-1.050009	2.997548	0.153175	9.797498	-0.364585	0.456812	-0.232099	0.184958	-0.290507	-0.852418	10.015883	1.279671	-0.344639	0.244195	0.855361	0.188599	-0.230401	-0.5008	-0.496233
-1.438987	-0.193947	9.306182	-0.530534	0.183301	-0.118166	0.686762	0.174813	-1.021572	2.474301	0.322947	9.560202	-0.36626	0.333549	-0.140842	0.184813	-0.260938	-0.840076	9.656013	1.395397	-0.650281	0.027066	0.732857	0.128844	-0.244446	-0.518023	-0.479939
-1.308848	-0.248094	10.104111	-0.437837	0.244151	-0.02544	0.699739	0.198453	-1.014677	2.994699	0.378402	9.684409	-0.33178	0.610327	-0.199718	0.184738	-0.276258	-0.839072	9.31126	1.165881	-0.178618	-0.035519	0.765431	-0.085025	-0.230609	-0.516993	-0.495396
-1.435191	-0.82508	9.474087	-0.592104	0.121204	-0.08833	0.686762	0.174813	-1.021572	3.049955	0.321869	9.572291	-0.300574	0.640981	-0.137732	0.159156	-0.260016	-0.853874	9.779953	1.222135	-0.349288	0.028032	0.855215	0.128257	-0.258142	-0.520706	-0.433425
-1.311075	-0.248577	9.990405	-0.469828	0.091392	-0.119835	0.700097	0.21928	-1.046244	2.483972	0.323326	10.013319	-0.392789	0.670873	-0.199165	0.171837	-0.261013	-0.8398	9.659585	1.279987	-0.471055	0.060252	0.945834	0.249959	-0.216772	-0.515962	-0.510854
-1.144714	-0.479673	9.708515	-0.345663	0.337819	-0.116187	0.660036	0.155077	-1.042194	2.539466	0.773815	9.958267	-0.455825	0.577692	-0.138487	0.159081	-0.275337	-0.85287	9.719006	1.105624	-0.470696	-0.124354	1.037568	0.189064	-0.23068	-0.516167	-0.510924
-1.609181	-0.825439	9.357041	-0.377643	0.091126	-0.058768	0.687134	0.178342	-1.035648	2.828286	0.885985	10.021046	-0.363064	0.57927	-0.200052	0.14625	-0.304981	-0.864937	9.900477	1.571063	-0.165883	-0.094411	0.946225	0.158829	-0.216355	-0.483578	-0.512528
-1.829664	-0.306369	9.809583	-0.285142	0.121244	0.033459	0.67187	0.20273	-1.028054	2.70832	0.886011	9.79207	-0.517458	0.577713	-0.261848	0.171906	-0.305902	-0.851139	9.833197	1.336916	-0.647227	-0.155836	0.976593	0.158906	-0.202656	-0.499566	-0.511621
-1.084036	-0.593874	9.879705	-0.255454	0.124169	-0.211923	0.644758	0.196765	-1.052092	2.881902	1.054726	9.852479	-0.331819	0.610126	-0.168892	0.185403	-0.258794	-0.868775	9.42298	1.512831	-0.474468	-0.061557	1.159833	0.218816	-0.217052	-0.531329	-0.525545
-1.262314	-0.824963	9.534281	-0.255564	0.030582	-0.090772	0.66005	0.137778	-1.024702	2.591418	0.548148	9.676089	-0.391737	0.733611	-0.414337	0.158189	-0.338762	-0.820156	9.717366	1.337681	-0.529614	-0.09631	0.918788	-0.146662	-0.244446	-0.518023	-0.479939
-1.542895	-0.995875	9.812255	-0.469151	0.120733	0.003312	0.742487	0.183558	-1.012308	2.534846	0.660964	9.731614	-0.454928	0.639625	-0.230354	0.185403	-0.258794	-0.868775	9.605105	1.223035	-0.232775	-0.281806	0.919069	-0.23768	-0.229775	-0.452223	-0.498745
-1.026823	-0.536474	9.88106	-0.563039	-0.030574	-0.24422	0.674142	0.172002	-1.060035	2.18615	0.492477	9.5543	-0.486096	0.609172	-0.323166	0.14603	-0.290732	-0.851591	9.657519	1.221417	-0.591116	-0.126585	1.010761	-0.177554	-0.23005	-0.48626	-0.466015
-1.948668	-0.249809	9.580185	-0.500542	-0.033765	0.062227	0.727195	0.242545	-1.039699	2.538018	0.266746	9.844561	-0.455435	0.608357	-0.138181	0.159006	-0.290657	-0.851867	9.834702	1.162936	-0.588062	-0.034237	0.949284	-0.11647	-0.230889	-0.532359	-0.510087
-1.136878	-0.535426	10.106245	-0.470308	0.092783	-0.242482	0.700511	0.170911	-1.007845	2.760511	1.167366	9.566958	-0.548664	0.547059	-0.323834	0.198084	-0.259791	-0.854701	9.776807	1.628173	-0.467371	0.026193	0.920808	-0.29993	-0.230121	-0.485434	-0.481543
-1.314125	-0.651391	9.818157	-0.345969	0.213501	0.004465	0.728366	0.183932	-1.011959	2.587899	0.491675	9.506122	-0.484108	0.762698	-0.352466	0.133129	-0.275487	-0.852319	9.832096	1.336669	-0.707134	-0.03793	0.801065	-0.574191	-0.258075	-0.502861	-0.465318
-1.429007	-0.134334	9.818101	-0.499799	0.12059	0.003398	0.728709	0.222059	-1.061019	2.41488	0.66099	9.502638	-0.394076	0.549623	-0.416169	0.172277	-0.28951	-0.866492	9.719566	1.338175	-0.4098	-0.100094	0.801789	-0.665657	-0.23033	-0.501627	-0.480705
-1.263593	-0.595439	9.478393	-0.715297	0.12237	-0.241296	0.700111	0.201981	-1.028753	2.939228	0.547596	9.796621	-0.331625	0.611132	-0.323023	0.133424	-0.274415	-0.866669	9.656959	0.988865	-0.652012	-0.162182	0.833417	-0.787834	-0.216701	-0.516789	-0.495326
-1.368081	-0.593184	9.987844	-0.592694	0.029008	-0.089827	0.657749	0.203105	-1.027705	2.481015	0.604884	9.900277	-0.394973	0.487689	-0.324301	0.159376	-0.274265	-0.86722	9.835688	1.686114	-0.466023	-0.040448	0.588514	-0.725981	-0.216213	-0.48523	-0.481472
-1.544464	-0.364259	9.758056	-0.71451	0.245297	-0.239301	0.658521	0.175563	-1.020873	2.593944	0.491913	9.78932	-0.425048	0.548828	-0.354545	0.145439	-0.292876	-0.822891	9.826885	1.684136	-0.945278	-0.158488	0.981637	-0.330114	-0.230818	-0.533185	-0.494559
-1.43082	-0.709232	9.701982	-0.776003	0.214279	-0.239628	0.6444	0.175937	-1.020524	2.880108	0.096965	9.681754	-0.301588	0.549792	-0.261952	0.172132	-0.259941	-0.85415	10.016983	1.279919	-0.284732	-0.162469	0.647673	-0.573008	-0.216422	-0.501423	-0.480635
-1.716061	-0.593901	9.75375	-0.56068	0.338208	-0.238234	0.700111	0.201981	-1.028753	2.71391	0.491887	10.018297	-0.270304	0.580849	-0.261618	0.14662	-0.288588	-0.88029	9.53522	1.162622	-0.833192	-0.036965	0.923423	-0.574778	-0.272057	-0.483568	-0.528337
-1.42678	-0.133852	9.931808	-0.468222	0.399753	-0.206832	0.672627	0.192487	-1.038714	2.763252	0.998469	9.680095	-0.116534	0.550534	-0.015171	0.185178	-0.304756	-0.865764	10.132544	1.395306	-0.40185	-0.099672	0.769938	-0.543256	-0.216075	-0.468211	-0.497837
-1.260253	-0.594715	9.648952	-0.284333	0.400612	-0.207347	0.687505	0.18187	-1.049724	2.533314	0.829909	9.675117	-0.272292	0.427323	-0.232318	0.14603	-0.290732	-0.851591	9.608832	1.514404	0.008089	0.084573	0.803084	-0.727458	-0.244797	-0.532563	-0.510157
-1.082057	-0.248742	9.994859	-0.285676	0.247996	-0.301827	0.702369	0.188552	-1.078225	2.587899	0.491675	9.506122	-0.211049	0.396637	-0.109262	0.145584	-0.322445	-0.835234	9.962389	1.745898	0.01568	0.114668	0.773551	-0.819114	-0.23033	-0.501627	-0.480705
-1.313261	-0.306501	9.876458	-0.344189	0.396154	0.160768	0.686762	0.174813	-1.021572	2.358954	0.435823	9.557879	-0.240189	0.519911	-0.2622	0.185102	-0.320076	-0.864761	9.770204	1.62669	-0.826812	0.116311	0.832524	-0.605462	-0.21628	-0.503075	-0.44958
-1.200606	-0.82404	9.762807	-0.283919	0.274208	0.097277	0.686733	0.209412	-1.056555	2.70303	0.49146	9.50854	-0.274709	0.242932	-0.172498	0.146105	-0.275412	-0.852595	9.661495	0.931778	-0.412631	0.243366	0.856937	0.03578	-0.230542	-0.499148	-0.527289
-0.922625	-0.136637	9.373298	-0.253838	0.338596	-0.147107	0.672241	0.206258	-1.04213	2.592519	0.604526	9.732776	-0.087005	0.429273	-0.170494	0.171982	-0.290582	-0.852142	10.075864	1.33786	-0.283384	-0.123979	0.850563	0.526148	-0.216422	-0.501423	-0.480635
-1.54203	-0.650984	9.870556	-0.315134	0.33831	-0.146935	0.714632	0.170536	-1.008194	2.941192	0.15333	9.852929	-0.180155	0.397029	-0.109233	0.184882	-0.305827	-0.851414	9.783254	1.222877	-0.169567	-0.124808	0.852139	0.373328	-0.244171	-0.483986	-0.512668
-1.42517	-0.822909	9.985765	-0.314534	0.336572	0.006375	0.658135	0.189334	-1.024289	2.999427	0.434922	9.911015	-0.240853	0.459185	-0.355288	0.159156	-0.260016	-0.853874	10.131309	1.453135	-0.46151	-0.064226	0.885472	0.128446	-0.216489	-0.519267	-0.448743
-1.542361	-0.191452	9.872486	-0.407832	0.27746	-0.239661	0.728738	0.187461	-1.026035	3.005256	0.547821	10.194307	-0.334392	0.396277	-0.294333	0.183997	-0.309043	-0.808365	10.240538	1.450887	-0.938564	-0.064573	0.948228	-0.024666	-0.230401	-0.5008	-0.496233
-1.429914	-0.421783	9.760042	-0.163434	0.155677	-0.242344	0.701254	0.177967	-1.035997	2.242938	0.267	9.498679	-0.239722	0.550979	-0.323547	0.158635	-0.307049	-0.836513	9.841305	1.164419	-0.228621	-0.126451	0.793167	0.159675	-0.244935	-0.549582	-0.493792
-1.60378	-0.594466	9.642271	-0.253358	0.337205	-0.024459	0.71426	0.167008	-0.994118	3.049955	0.321869	9.572291	-0.301743	0.548987	-0.138648	0.184732	-0.336468	-0.849407	9.484042	1.106411	-0.415191	-0.128411	0.6727	-0.02312	-0.216701	-0.516789	-0.495326
-1.547597	-0.65219	9.58629	-0.376027	0.305554	0.006048	0.672999	0.196016	-1.05279	2.647559	0.660654	9.620753	-0.240424	0.490051	-0.385809	0.159006	-0.290657	-0.851867	9.605916	0.874579	-0.234258	-0.248547	0.821421	0.34336	-0.244521	-0.498526	-0.542887
-1.494962	-0.423431	9.360957	-0.407505	0.21391	-0.056687	0.714617	0.187835	-1.025686	2.653149	0.26653	9.846979	-0.115287	0.642931	-0.075908	0.14625	-0.304981	-0.864937	9.772675	1.511032	-0.707493	-0.342131	0.8542	0.099039	-0.230188	-0.503279	-0.44965
-1.43313	-0.594832	9.588759	-0.37773	0.15398	-0.180418	0.687119	0.195641	-1.05314	2.305578	0.774104	9.783513	-0.237461	0.734565	-0.260063	0.184738	-0.276258	-0.839072	10.187854	1.568658	-0.579729	-0.250612	0.794299	0.007305	-0.244309	-0.501005	-0.496303
-0.852092	-0.018901	10.057131	-0.561182	0.183158	-0.11808	0.658135	0.189334	-1.024289	2.594937	0.604621	9.846055	-0.177544	0.582427	-0.323184	0.145144	-0.293948	-0.808542	9.900321	1.164284	-0.22752	-0.311932	0.731322	0.160642	-0.216701	-0.516789	-0.495326
-1.607286	-0.365424	9.472677	-0.316271	0.122492	-0.089103	0.673399	0.164945	-1.031883	2.708081	0.378989	9.735004	-0.486992	0.547239	-0.231299	0.170725	-0.31019	-0.79374	9.777617	1.279717	-0.468854	-0.346292	0.582676	-0.266404	-0.202443	-0.502045	-0.465037
-1.31396	-0.881157	9.817191	-0.561029	0.245317	-0.178406	0.645544	0.151923	-1.027768	2.648984	0.54804	9.677298	-0.27311	0.365792	-0.202103	0.14618	-0.260091	-0.853598	9.661651	1.338558	-0.350994	-0.345417	0.736255	-0.328266	-0.230117	-0.504105	-0.434122
-1.718454	-0.364617	9.641009	-0.438907	0.153347	-0.149585	0.673399	0.164945	-1.031883	2.764222	0.491494	9.679668	-0.489331	0.36325	-0.23313	0.146846	-0.242627	-0.883301	9.656689	1.105017	-0.651517	-0.313348	0.765064	-0.145143	-0.202234	-0.485852	-0.465874
-1.14187	0.210349	9.88197	-0.406249	0.429381	-0.083857	0.700868	0.191738	-1.039413	2.654705	0.717269	9.960638	-0.273774	0.305067	-0.295191	0.14603	-0.290732	-0.851591	9.890282	1.220135	-0.766435	-0.405048	0.887405	-0.175957	-0.216634	-0.498944	-0.527219
-1.546898	-0.077534	9.645556	-0.22402	0.247239	-0.210013	0.671884	0.185431	-1.010562	2.532428	0.66087	9.618335	-0.242761	0.334714	-0.079075	0.171837	-0.261013	-0.8398	9.892888	1.046401	-0.647363	-0.436137	0.918829	-0.267683	-0.230326	-0.520298	-0.433285
-1.262936	0.03666	9.5379	-0.621452	0.305104	-0.054589	0.672613	0.209787	-1.056206	2.543524	0.548635	10.127997	-0.057553	0.307609	-0.264164	0.14603	-0.290732	-0.851591	10.016153	1.163519	-0.345133	-0.314494	0.705146	-0.267104	-0.230401	-0.5008	-0.496233
-0.963877	-0.707634	10.165715	-0.468015	0.336551	-0.054519	0.730253	0.166975	-1.047355	2.993598	0.322024	9.627722	-0.209607	0.490041	-0.324128	0.158635	-0.307049	-0.836513	9.835803	1.163183	-0.528155	-0.405455	0.85713	-0.206374	-0.216213	-0.48523	-0.481472
-1.707361	-0.304763	10.209782	-0.100904	0.214994	-0.026884	0.71426	0.167008	-0.994118	2.479375	0.830159	9.843827	-0.304745	0.304272	-0.233568	0.184072	-0.293723	-0.809369	9.722172	1.164442	-0.290728	-0.467769	0.796045	-0.23642	-0.216493	-0.500596	-0.496163
-1.490384	-0.59479	9.587645	-0.407679	0.339619	-0.299987	0.659264	0.182619	-1.049025	2.47387	0.548269	9.560392	-0.086304	0.461548	-0.416797	0.15893	-0.305977	-0.850863	10.074899	1.279536	-0.343538	-0.744135	0.91709	-0.205434	-0.230814	-0.551857	-0.447139
-1.317549	-0.537232	9.64808	-0.59182	0.089081	0.033819	0.713474	0.211849	-1.018442	2.593189	0.886226	9.789652	-0.241008	0.45838	-0.231984	0.159301	-0.289585	-0.866216	9.598503	1.221552	-0.592216	-0.92945	0.85493	-0.173903	-0.202376	-0.4842	-0.49693
-1.255965	-0.363984	9.87733	-0.499536	0.276335	-0.178079	0.701254	0.177967	-1.035997	2.82332	0.322442	9.737374	-0.211244	0.366979	-0.263697	0.15812	-0.293873	-0.808817	9.955611	0.87278	-0.467283	-0.865748	1.006524	-0.022043	-0.244446	-0.518023	-0.479939
-1.430986	-0.479466	9.702947	-0.316521	0.217121	-0.30224	0.687134	0.178342	-1.035648	2.480237	0.379515	9.843447	-0.180779	0.336505	-0.233148	0.15871	-0.291729	-0.837517	10.13432	1.105173	-0.343179	-0.867784	0.855152	-0.174127	-0.21656	-0.518441	-0.46427
-1.543475	-0.191693	9.815633	-0.621386	0.430117	-0.236565	0.687134	0.178342	-1.035648	2.825306	0.547859	9.850843	-0.457112	0.456442	-0.35549	0.145954	-0.306053	-0.850587	9.604005	1.222788	-0.292682	-0.898963	0.917796	-0.327127	-0.258425	-0.517401	-0.495537
-1.312763	-0.995799	9.873562	-0.467589	0.460522	-0.14451	0.699368	0.194924	-1.000601	2.714472	0.829917	10.075221	-0.365871	0.364214	-0.140537	0.146765	-0.318157	-0.892633	9.656284	1.279245	-0.650776	-0.930459	0.918946	-0.44927	-0.23033	-0.501627	-0.480705
-1.721712	-0.480224	9.469968	-0.162057	0.3708	-0.238851	0.687134	0.178342	-1.035648	2.655675	0.210294	9.960211	-0.363493	0.548404	-0.169532	0.145514	-0.277555	-0.823895	10.072698	1.279042	-0.463352	-1.117658	0.767224	-0.631244	-0.244379	-0.500178	-0.511831
-1.082099	-0.191301	9.9951	-0.713877	0.306066	-0.176979	0.673385	0.182245	-1.049374	2.592627	0.548196	9.732728	-0.334158	0.426137	-0.170724	0.172057	-0.275262	-0.853146	9.779258	1.04766	-0.409936	-0.900231	0.671819	-0.203698	-0.21656	-0.518441	-0.46427
-1.199492	-0.823799	9.81966	-0.346983	0.341644	-0.453469	0.701626	0.181495	-1.050073	2.475833	0.154003	9.616699	-0.149417	0.367964	-0.294466	0.145584	-0.322445	-0.835234	9.89675	1.279694	-0.406746	-0.774683	0.761194	0.070487	-0.23033	-0.501627	-0.480705
-1.431933	-0.709474	9.645129	-0.131639	0.277705	-0.148448	0.67227	0.17166	-1.007147	2.824098	0.547812	9.794203	-0.085523	0.551529	-0.107621	0.171762	-0.276333	-0.838796	9.894144	1.453428	-0.525818	-0.654064	0.673651	-0.296286	-0.244655	-0.534216	-0.479101
-1.318911	-0.192824	9.592675	-0.22461	0.155044	-0.21151	0.687134	0.178342	-1.035648	2.653065	0.942544	9.904188	0.039417	0.646098	-0.26072	0.145069	-0.309268	-0.807538	9.779298	1.977371	-0.286167	-0.593288	0.58242	-0.326634	-0.258425	-0.517401	-0.495537
-1.317342	-0.824439	9.646873	-0.22497	0.156087	-0.303496	0.716904	0.139808	-1.040175	2.702037	0.378751	9.451806	-0.052759	0.676191	-0.352979	0.146174	-0.320301	-0.863933	9.479255	1.744506	-0.592192	-0.406284	0.858707	-0.359193	-0.216631	-0.517615	-0.479798
-1.316477	-0.479549	9.705174	-0.378997	0.032444	-0.305062	0.672999	0.196016	-1.05279	2.415981	0.717368	9.559325	0.101751	0.678352	-0.383662	0.14603	-0.290732	-0.851591	9.60304	1.164465	-0.352836	-0.220457	0.857796	-0.207047	-0.216351	-0.502249	-0.465107
-1.316684	-0.192341	9.706381	-0.44109	0.003164	-0.458699	0.715003	0.174064	-1.02227	2.770613	0.942423	10.019885	-0.176491	0.673818	-0.22979	0.172497	-0.303759	-0.879838	9.538386	1.221439	-0.653224	-0.526902	0.946249	0.007581	-0.244376	-0.518849	-0.464411
-1.145661	-0.709681	9.650696	-0.133878	-0.091425	-0.123773	0.685262	0.178	-0.98276	2.889586	0.829689	10.192127	-0.146299	0.613283	-0.292024	0.147141	-0.241555	-0.897651	9.655878	1.453473	-0.650034	-0.404445	0.793114	0.068994	-0.202723	-0.517411	-0.479728
-1.028842	-0.824164	9.766147	-0.285896	0.060823	-0.059525	0.687534	0.147271	-1.01474	2.93407	0.716398	9.570205	-0.516172	0.670311	-0.353411	0.133054	-0.290807	-0.851315	9.957407	1.047502	-0.346728	-0.405952	0.858076	-0.298065	-0.216906	-0.551652	-0.447068
-1.081933	-0.421067	9.994135	-0.376977	0.214401	-0.087435	0.702026	0.150425	-1.029165	2.587815	1.167689	9.563331	-0.363064	0.57927	-0.200052	0.171096	-0.293798	-0.809093	9.767713	1.277492	-1.008016	-0.501316	0.707948	-0.602631	-0.230401	-0.5008	-0.496233
-1.147189	-0.135507	9.596257	-0.622785	0.058554	0.002744	0.658507	0.192862	-1.038365	2.642724	0.660464	9.394194	-0.392946	0.641416	-0.384427	0.145734	-0.291804	-0.837241	9.7864	0.816839	-0.051484	-0.439408	0.738759	-0.603002	-0.216142	-0.486056	-0.465945
-1.377072	-0.480231	9.533502	-0.531244	0.091454	-0.150325	0.673785	0.151174	-1.028467	2.586344	0.040936	9.392464	-0.270616	0.550587	-0.323576	0.172942	-0.272046	-0.896195	9.538677	1.570143	-0.591834	-0.315669	0.769477	-0.573034	-0.202376	-0.4842	-0.49693
-1.426532	-0.478501	9.93036	-0.560636	0.306781	-0.177409	0.658507	0.192862	-1.038365	2.994268	0.603724	9.684598	-0.363883	0.51774	-0.169837	0.172132	-0.259941	-0.85415	9.66055	1.33831	-0.410901	-0.101737	0.742816	-0.879309	-0.244517	-0.517197	-0.495466
-1.494672	-0.825521	9.359267	-0.591044	0.305943	-0.115999	0.687134	0.178342	-1.035648	2.591742	0.379157	9.675946	-0.087511	0.398004	-0.078321	0.159226	-0.304906	-0.865213	9.418713	1.453766	-0.714343	-0.071477	0.712968	-0.940401	-0.230121	-0.485434	-0.481543
-1.251179	-0.822551	10.102812	-0.407102	0.18144	0.096124	0.700111	0.201981	-1.028753	2.477843	0.999103	9.787329	-0.054045	0.583593	-0.261417	0.185108	-0.259866	-0.854425	9.768003	1.626195	-0.946626	0.055459	0.892851	-0.544404	-0.23033	-0.501627	-0.480705
-1.371546	-0.421584	9.818008	-0.284476	0.244519	0.004792	0.658535	0.158263	-1.003382	2.702599	0.716782	9.50873	-0.274007	0.303859	-0.110235	0.159746	-0.257872	-0.882573	9.659855	1.163835	-0.471549	0.055534	0.923756	-0.575115	-0.244726	-0.533389	-0.494629
-1.083088	-0.363867	9.937523	-0.314894	0.337615	-0.085611	0.70124	0.195266	-1.053489	2.537911	0.323076	9.844609	-0.179181	0.459365	-0.262753	0.185033	-0.275187	-0.853422	9.774316	1.278975	-0.648575	0.180993	1.044351	-0.362205	-0.244376	-0.518849	-0.464411
-1.54566	-0.249617	9.701686	-0.439256	0.060456	-0.089757	0.700868	0.191738	-1.039413	2.936249	0.209471	9.626418	-0.209451	0.519498	-0.138867	0.159596	-0.288513	-0.880566	9.834027	1.453316	-0.586826	-0.122243	1.219845	0.310438	-0.21691	-0.532981	-0.494489
-1.488364	-0.3071	9.702558	-0.468212	0.30582	-0.055018	0.700111	0.201981	-1.028753	2.591418	0.548148	9.676089	-0.147623	0.520483	-0.169635	0.15856	-0.32237	-0.83551	9.843506	1.164913	-0.108807	-0.094321	0.915005	0.220103	-0.230401	-0.5008	-0.496233
-1.605266	-0.077734	9.58759	-0.315418	0.370432	-0.269084	0.645158	0.165694	-1.031184	2.70303	0.49146	9.50854	-0.304356	0.334937	-0.233263	0.158861	-0.261088	-0.839524	10.309323	1.511053	-0.398054	-0.587588	1.006261	0.099203	-0.230818	-0.533185	-0.494559
-1.316477	-0.479549	9.705174	-0.253128	0.430444	-0.114948	0.716132	0.16735	-1.047006	2.600096	0.435819	10.072471	-0.179609	0.428499	-0.232232	0.184518	-0.26201	-0.825726	9.721902	1.280594	-0.290234	-0.776626	0.920131	-0.510958	-0.230121	-0.485434	-0.481543
-1.543143	-0.651225	9.813703	-0.130503	0.493523	-0.20628	0.672641	0.175188	-1.021223	2.418506	0.661133	9.672557	-0.240696	0.488643	-0.170027	0.15871	-0.291729	-0.837517	10.012872	1.627633	-0.462969	-0.746215	0.952093	-0.633472	-0.216422	-0.501423	-0.480635
-1.430038	-0.249459	9.760766	0.987241	-0.643614	-2.466755	0.700883	0.174439	-1.021921	3.046113	0.434388	9.402467	0.502246	0.648958	0.202102	0.145439	-0.292876	-0.822891	9.957542	0.989426	-0.346975	-0.500063	1.016051	-0.818045	-0.271912	-0.503892	-0.44986
-1.614215	-0.022222	9.133006	3.222729	-1.066198	-2.234711	0.700854	0.209038	-1.056905	2.246241	0.436134	9.66874	2.088832	1.527963	0.150463	0.158635	-0.307049	-0.836513	10.009415	1.220112	-0.704327	-0.407488	1.047288	-0.849092	-0.216284	-0.484404	-0.497
-1.393691	-0.598733	8.680223	0.235813	-2.823464	-2.990714	0.672999	0.196016	-1.05279	3.108968	0.828831	9.687206	3.359062	1.763114	-0.524395	0.172202	-0.304831	-0.865488	9.778583	1.33804	-0.4087	-0.630374	0.749442	-1.702615	-0.230397	-0.519472	-0.448813
-1.153704	-0.36672	9.254173	-1.919642	-4.275465	-3.222788	0.658507	0.192862	-1.038365	2.814773	0.998124	9.398106	-0.78999	3.455054	-0.048488	0.146105	-0.275412	-0.852595	9.426666	0.874489	-0.357374	-0.977631	0.639419	-3.015011	-0.216489	-0.519267	-0.448743
-1.430944	-0.536908	9.702706	-5.047338	-4.567348	-3.157191	0.700111	0.201981	-1.028753	2.647451	0.716985	9.6208	0.626425	3.104911	-0.020002	0.171611	-0.306974	-0.836789	8.832798	1.049326	-0.547357	-1.165388	0.395613	-3.165978	-0.216422	-0.501423	-0.480635
-1.138815	-0.937999	9.99085	-5.596159	-4.046082	-3.269814	0.716889	0.157107	-1.057666	2.426406	0.323434	10.01211	-1.813517	3.134873	0.039989	0.146105	-0.275412	-0.852595	9.544023	1.1646	-0.353937	-0.10308	0.465934	-0.725169	-0.202723	-0.517411	-0.479728
-1.542278	-0.306335	9.872004	-3.754596	-4.295524	-2.205774	0.67377	0.168474	-1.045959	2.770698	0.266409	9.962676	-3.328702	3.165926	1.734627	0.132683	-0.307199	-0.835962	9.250563	0.468362	-0.362406	0.726207	0.664673	4.008187	-0.230889	-0.532359	-0.510087
-0.916851	-0.422639	9.656357	-4.057821	-4.149899	-1.619837	0.658535	0.158263	-1.003382	2.650193	0.548088	9.733937	-2.189933	2.842919	1.76316	0.133424	-0.274415	-0.866669	9.665357	1.165071	-0.172015	1.916891	0.81901	7.242949	-0.188811	-0.535878	-0.432237
-1.375585	-0.996964	9.588183	-3.997146	-4.304318	-1.530516	0.71576	0.163822	-1.03293	2.134976	0.943514	9.893308	-2.344874	2.78124	1.515796	0.159521	-0.303834	-0.879562	10.311368	1.104768	-0.339878	3.17024	1.030421	4.975637	-0.230401	-0.5008	-0.496233
-1.428469	-0.881074	9.814964	-3.785207	-5.015725	-1.051997	0.700111	0.201981	-1.028753	3.051079	0.99793	9.686139	-1.753593	3.125996	1.5197	0.185108	-0.259866	-0.854425	10.196482	0.699001	-0.223996	2.902972	1.254998	0.910575	-0.244797	-0.532563	-0.510157
-1.551637	-1.227571	9.356465	-2.625133	-5.591771	-1.279375	0.671527	0.164603	-0.978995	2.949869	0.041001	10.249311	-4.092769	3.714726	0.72214	0.133349	-0.289735	-0.865665	10.244514	1.161249	-0.76008	3.392877	2.101609	-0.929012	-0.188815	-0.517207	-0.479658
-0.970682	-0.536757	9.82532	-1.865933	-6.569552	-1.481461	0.685619	0.198827	-1.014327	3.228264	0.547105	9.859305	-3.160005	4.215502	0.974495	0.145219	-0.278627	-0.809545	10.188799	1.162125	-0.581459	3.650688	2.981723	-0.170078	-0.202376	-0.4842	-0.49693
-1.083994	-0.651316	9.879464	-1.968405	-7.948088	-1.932925	0.686005	0.185056	-1.010912	2.531974	0.266509	9.561363	-3.525554	4.638687	1.194206	0.132023	-0.264454	-0.795923	10.074048	0.698282	-0.465824	4.003382	3.950793	0.893724	-0.244309	-0.501005	-0.496303
-1.304228	-0.476895	10.330558	-4.465218	-9.827784	-2.538985	0.686776	0.157514	-1.00408	2.41883	0.492141	9.672414	-4.174771	4.570939	0.915557	0.171837	-0.261013	-0.8398	9.594641	0.988259	-0.832833	4.110583	4.854648	2.264369	-0.216701	-0.516789	-0.495326
-1.31759	-0.47979	9.648321	-4.202583	-11.94813	-2.482195	0.658878	0.19639	-1.052441	2.824098	0.547812	9.794203	-5.282108	4.954455	1.072621	0.184813	-0.260938	-0.840076	10.246175	1.394047	-0.639277	3.343891	5.185533	2.540638	-0.258008	-0.485016	-0.497211
-1.655467	-0.593218	9.925423	-5.2038	-14.3664	-3.776022	0.671112	0.212973	-1.017394	2.429063	0.830551	10.182455	-7.071128	5.147175	0.949785	0.158786	-0.276409	-0.838521	10.055921	1.391486	-1.361461	2.50866	5.156677	2.085349	-0.216422	-0.501423	-0.480635
-1.54232	-0.248893	9.872245	-7.214272	-17.327886	-3.66502	0.685247	0.195299	-1.000252	2.769812	0.09737	9.905894	-7.438127	5.419655	0.76723	0.171982	-0.290582	-0.852142	10.005823	0.870667	-0.945438	1.322057	4.901423	-0.262494	-0.258563	-0.53442	-0.479172
-1.327612	-0.481962	9.136643	-6.27915	-26.462033	-8.293832	0.715389	0.160293	-1.018854	2.424443	0.7177	9.955802	-7.472336	5.144294	0.610324	0.184662	-0.291579	-0.838068	10.239687	0.869632	-1.06085	0.592497	3.913036	-2.547325	-0.216564	-0.49977	-0.511691
-1.251304	-0.650226	10.103536	-8.145364	-29.24041	-10.725847	0.672256	0.188959	-1.024638	2.827724	0.547954	9.964122	-7.689108	5.110282	0.702296	0.145885	-0.261163	-0.839248	10.062659	1.334893	-1.002267	0.238737	2.914953	-3.763765	-0.258425	-0.517401	-0.495537
-0.287259	-0.135887	9.669812	-5.346403	-25.906378	-13.532046	0.657749	0.203105	-1.027705	2.661611	0.266862	10.243456	-7.260204	4.810538	0.483863	0.145439	-0.292876	-0.822891	10.007349	1.161542	-0.824388	0.663266	1.905462	-3.607675	-0.216701	-0.516789	-0.495326
-0.511657	-0.364522	9.891805	-4.284791	-23.265962	-12.817442	0.686748	0.192113	-1.039064	2.647775	0.547993	9.620658	-6.121768	4.457072	0.481264	0.185478	-0.243474	-0.869779	10.128122	0.929462	-0.703362	1.240667	1.116334	-4.003305	-0.23033	-0.501627	-0.480705
-0.506996	-0.650765	10.118011	-4.57366	-21.659319	-10.950293	0.672613	0.209787	-1.056206	2.880562	0.491326	9.738725	-4.147659	4.236642	0.511489	0.172202	-0.304831	-0.865488	10.186713	0.638699	-0.763405	1.823528	0.720461	-3.972965	-0.216493	-0.500596	-0.496163
-0.975011	-0.710046	9.597184	-5.130593	-18.761745	-9.184092	0.658492	0.210161	-1.055857	2.307757	0.267177	9.839726	-3.318611	3.848389	0.539123	0.185478	-0.243474	-0.869779	9.595181	0.755955	-0.833822	2.252061	1.007407	-4.953864	-0.216351	-0.502249	-0.465107
-0.573117	-0.710095	9.661831	-4.863111	-15.600911	-8.612109	0.672627	0.192487	-1.038714	2.540436	0.266841	9.957841	-1.991592	3.74319	0.446661	0.172132	-0.259941	-0.85415	9.369176	1.165499	-0.237424	3.451766	1.638026	-6.367046	-0.216213	-0.48523	-0.481472
-0.916726	-0.594963	9.655633	-4.903628	-12.906722	-7.678794	0.671484	0.216501	-1.03147	2.306117	0.492451	9.783276	-2.215377	3.12857	0.224572	0.172427	-0.258869	-0.868499	9.247687	0.758248	-0.480983	3.917214	2.503455	-7.07577	-0.230889	-0.532359	-0.510087
-0.409065	-0.826791	9.266718	-5.59461	-10.978333	-7.246763	0.700482	0.205509	-1.042829	2.082523	-0.464547	10.004192	-0.090917	2.688403	1.331718	0.171906	-0.305902	-0.851139	9.893698	0.697945	-0.648846	4.511847	3.854991	-7.420545	-0.230676	-0.534838	-0.463503
-1.084119	-0.478991	9.880188	-6.560671	-8.74044	-7.115604	0.644386	0.193236	-1.038016	2.531866	0.322839	9.561411	1.600228	2.124115	1.820718	0.158855	-0.321298	-0.849859	9.895204	0.523964	-0.589681	4.549877	4.959189	-7.701002	-0.216772	-0.515962	-0.510854
-0.682923	-1.053697	9.885569	-6.82226	-6.34144	-7.351885	0.656992	0.213347	-1.017045	2.252717	0.211049	9.951749	1.066025	1.383313	1.535468	0.15849	-0.27748	-0.824171	9.892038	0.465146	-0.769649	4.613043	5.98119	-8.897981	-0.230472	-0.499974	-0.511761
-0.576747	-0.308728	9.492961	-7.616356	-5.50808	-7.980111	0.630651	0.17984	-1.034251	2.366531	0.267116	9.897574	1.763449	0.35033	1.433273	0.158641	-0.24684	-0.826178	9.838409	0.989449	-0.409083	4.73605	6.665345	-9.94075	-0.203073	-0.531951	-0.509947
-0.449043	-0.07615	10.178391	-7.484572	-3.937719	-8.169654	0.643629	0.203479	-1.027356	2.591526	0.491818	9.676041	2.494883	-0.436948	1.333549	0.171912	-0.245693	-0.840804	10.193296	0.175327	-0.465848	4.892093	7.500677	-10.800991	-0.2441	-0.484812	-0.497141
-0.680779	-0.938331	9.999758	-7.570926	-2.796186	-8.580225	0.628379	0.210568	-1.002271	2.596685	0.323016	9.902457	1.960329	-1.236878	0.708601	0.184813	-0.260938	-0.840076	10.13459	0.989021	-0.343674	4.525831	8.144277	-11.047217	-0.202864	-0.515758	-0.510784
-0.632847	-0.365887	9.54846	-7.743389	-1.296386	-8.095311	0.630237	0.22821	-1.07265	2.417621	0.492094	9.615775	2.202062	-1.662853	0.673732	0.171912	-0.245693	-0.840804	10.184668	1.044984	-0.821581	4.646496	7.870348	-11.138028	-0.245006	-0.548756	-0.50932
-0.751727	-0.481652	9.318338	-7.110538	1.027845	-6.801916	0.63028	0.176312	-1.020175	2.99008	0.265551	9.457755	1.951517	-1.970025	0.26971	0.158786	-0.276409	-0.838521	10.005688	0.928743	-0.945191	4.827807	8.064331	-12.086971	-0.216351	-0.502249	-0.465107
-0.226167	-0.824503	9.838589	-6.665212	2.860883	-5.63865	0.629494	0.221153	-1.044498	2.828586	0.09731	9.963743	1.3941	-2.098534	0.083015	0.184668	-0.231369	-0.827733	10.125922	0.928967	-0.823176	5.163662	8.071856	-12.69942	-0.175186	-0.532369	-0.494278
-0.283794	-0.307488	9.839647	-7.22798	5.305549	-4.615893	0.644743	0.214064	-1.069584	2.488699	0.379846	10.239925	1.205812	-2.345202	-0.073729	0.159526	-0.243624	-0.869227	9.715685	0.640027	-0.712302	4.909966	7.649631	-13.3688	-0.202585	-0.500392	-0.496093
-0.34802	0.093197	9.499104	-7.337449	7.395386	-4.64295	0.627993	0.224339	-1.005686	2.714126	0.379226	10.018202	1.202535	-2.648636	-0.569998	0.171767	-0.216124	-0.828461	9.782944	0.409318	-0.292842	4.315729	7.07355	-14.066768	-0.216981	-0.532155	-0.510017
-0.002758	-0.768434	9.559019	-5.91537	9.463715	-4.858777	0.643643	0.18618	-1.009864	2.709398	0.322705	9.791596	1.315349	-3.562202	-1.318864	0.158861	-0.261088	-0.839524	9.488558	0.584469	-0.237696	3.477933	7.018516	-14.949692	-0.21691	-0.532981	-0.494489
-0.517225	-0.365729	9.60754	-6.268753	11.924266	-5.155125	0.643629	0.203479	-1.027356	2.656668	0.323003	10.016945	1.337469	-4.32342	-2.097115	0.159596	-0.288513	-0.880566	9.84306	0.409431	-0.231835	1.627358	7.323444	-15.494511	-0.230121	-0.485434	-0.481543
-1.537327	-0.994668	10.09652	-7.847375	13.500548	-3.867542	0.615359	0.238827	-1.061641	2.546049	0.4924	10.241228	2.439864	-5.104808	-2.381449	0.158635	-0.307049	-0.836513	9.837443	0.931126	-0.469237	0.058727	7.807242	-15.491139	-0.230889	-0.532359	-0.510087
-0.975835	-1.112378	9.538642	-8.536219	14.045323	-0.697865	0.643243	0.21725	-1.030772	2.603291	0.661283	10.242579	3.75886	-5.881644	-2.943015	0.159231	-0.244696	-0.854878	9.715705	1.104882	-0.650417	-1.26157	8.630321	-15.67364	-0.245073	-0.566601	-0.477427
-1.434285	-0.537631	9.532147	-9.614941	15.564992	3.0714	0.643629	0.203479	-1.027356	2.533745	0.604587	9.674927	5.017195	-6.510164	-2.855768	0.144774	-0.31034	-0.793188	9.369041	1.223575	-0.237177	-3.102897	9.569786	-15.457541	-0.216839	-0.533807	-0.478961
-0.975094	-0.595163	9.597666	-8.856193	17.410616	5.951253	0.687134	0.178342	-1.035648	2.941192	0.15333	9.852929	6.216896	-6.865286	-2.488399	0.14581	-0.276484	-0.838245	9.428462	1.049212	-0.236818	-5.50417	10.175168	-15.665648	-0.202305	-0.485026	-0.481402
-0.74183	-0.307156	9.830739	-8.354546	18.006293	7.830157	0.630637	0.197139	-1.051743	2.77454	0.153891	10.1325	8.838652	-7.082732	-1.656096	0.172132	-0.259941	-0.85415	9.248517	0.874647	-0.420582	-7.658643	10.625961	-15.629438	-0.217398	-0.56454	-0.508343
-0.96961	-0.479074	9.882415	-8.958229	18.44595	9.464356	0.658864	0.21369	-1.069933	2.533853	0.548256	9.67488	11.026208	-7.400282	-0.424373	0.119858	-0.276634	-0.837693	9.312901	0.933824	-0.1197	-9.856215	10.479001	-16.96537	-0.216493	-0.500596	-0.496163
-1.435191	-0.82508	9.474087	-7.784942	14.164783	10.740708	0.615402	0.186929	-1.009166	2.483302	0.041626	9.956442	12.941871	-7.231102	0.873632	0.145294	-0.263307	-0.810549	9.306993	1.106816	-0.418492	-10.890638	9.731365	-18.974916	-0.202931	-0.533603	-0.478891
-1.248289	-1.741133	10.212657	-12.530266	5.660962	2.520149	0.657335	0.251474	-1.066104	2.537695	0.435737	9.844704	17.456831	-6.576651	3.35003	0.185548	-0.288363	-0.881118	8.830618	1.513687	-0.605286	-12.047934	8.485635	-20.187105	-0.203211	-0.54897	-0.493582
-0.975302	-0.307956	9.598873	-3.410696	4.147781	1.457278	0.656592	0.244418	-1.037952	1.912029	-0.351467	10.11394	28.917665	-4.093564	2.243296	0.145954	-0.306053	-0.850587	8.7672	1.512833	-0.846014	-11.595237	6.736054	-19.447003	-0.20342	-0.565162	-0.492745
-1.128752	-0.99327	10.502286	-2.29751	5.251262	2.177363	0.656592	0.244418	-1.037952	3.631543	-1.810232	20.452546	-2.728668	0.130838	-15.990143	0.14603	-0.290732	-0.851591	9.135987	0.876154	-0.123248	-11.230119	5.225208	-18.157669	-0.203069	-0.550622	-0.462526
-1.255509	-0.995841	9.874675	-1.56565	4.733308	2.074836	0.628365	0.227868	-1.019762	1.116708	-0.736788	18.645636	38.279061	-80.032372	-7.659975	0.14603	-0.290732	-0.851591	9.532864	0.755348	-1.014643	-12.151818	4.439469	-16.439298	-0.231653	-0.597955	-0.491211
-1.141124	-0.823599	9.877626	0.421701	4.568651	1.14641	0.645129	0.200293	-1.066168	4.065133	-0.467215	11.234727	21.72212	-100.177048	-13.391609	0.171246	-0.263157	-0.8111	9.838564	1.396229	-0.347445	-13.473684	4.458356	-15.762304	-0.217119	-0.549174	-0.493652
-1.314825	-1.226048	9.75889	1.122443	4.208381	0.678521	0.642857	0.231021	-1.034187	3.126526	-0.912125	15.743755	11.892323	-111.377407	-22.882216	0.132683	-0.307199	-0.835962	10.367374	1.452595	-0.457108	-13.636715	4.847267	-17.933241	-0.231377	-0.563918	-0.523941
-1.141249	-0.651274	9.87835	1.147717	3.253764	0.846941	0.644386	0.193236	-1.038016	3.74962	-1.308051	15.246965	21.635591	-130.212816	-28.147899	0.132463	-0.292951	-0.822616	10.305016	0.522277	-0.761699	-14.466744	3.780648	-21.561554	-0.231168	-0.547725	-0.524778
-1.146443	-1.169454	9.591913	0.382369	3.153821	1.215532	0.673013	0.178716	-1.035299	3.746832	-2.378521	15.019506	29.995752	-141.29695	-34.447351	0.145289	-0.323517	-0.820884	10.260575	0.409474	0.015496	-14.184576	1.533863	-23.079726	-0.259748	-0.61373	-0.506042
-1.080529	-0.822917	10.049299	-0.59206	3.600479	2.08429	0.672256	0.188959	-1.024638	5.070336	-4.014727	14.876016	37.350584	-149.236303	-45.031848	0.09368	-0.322745	-0.834131	9.733251	-0.285728	0.122439	-13.78237	-1.230661	-18.851021	-0.203144	-0.531125	-0.525474
-0.627523	-1.571194	9.770804	-0.643999	4.699916	2.68499	0.644758	0.196765	-1.052092	2.426277	-4.178619	14.990183	44.699707	-150.560642	-58.232152	0.09309	-0.324889	-0.805431	9.559659	0.122198	0.360496	-14.313977	-3.667762	-11.105985	-0.231306	-0.564744	-0.508413
-0.973815	-0.824688	9.653554	-1.061881	6.199222	3.109236	0.644772	0.179465	-1.0346	-8.061367	-5.739163	11.428306	63.331532	-129.384716	-73.911994	0.053647	-0.311937	-0.776908	10.270209	0.527851	0.555153	-13.564608	-6.353084	-5.533811	-0.231448	-0.563092	-0.539468
-1.201719	-0.824281	9.705953	-0.963558	7.120193	3.24659	0.700854	0.209038	-1.056905	-11.954472	-8.040722	12.13711	72.594622	-93.993707	-58.017598	0.054162	-0.325114	-0.804604	10.497605	0.467257	0.080052	-12.254064	-7.24745	-1.408415	-0.20314	-0.549796	-0.478054
-0.684327	-0.651847	9.830405	-0.984348	8.030505	4.273464	0.614259	0.210943	-1.001921	-15.870419	-9.387851	9.166355	72.632911	-69.360488	-34.34558	0.04015	-0.359045	-0.759272	10.850487	0.989132	0.08888	-10.99737	-7.818719	-1.929802	-0.203282	-0.548143	-0.509109
-1.368821	-1.110399	9.928819	3.403612	9.131065	3.880046	0.686748	0.192113	-1.039064	-16.573645	-9.445747	5.867913	47.673383	-46.809352	5.409789	0.040445	-0.357974	-0.773622	11.086261	0.639888	0.031891	-10.099796	-7.297627	-7.650579	-0.231795	-0.596303	-0.522266
-1.069395	-0.820504	10.61783	6.929451	9.675504	3.38807	0.657749	0.203105	-1.027705	-14.250824	-9.899943	6.822124	3.387569	-9.347608	38.857447	0.014047	-0.389836	-0.756713	10.969599	0.524253	0.089103	-12.660533	-5.630391	-15.961579	-0.217749	-0.57908	-0.538561
-1.485107	-0.191493	9.8736	7.970657	10.246036	2.290318	0.643243	0.21725	-1.030772	-12.885434	-8.154422	8.947064	-23.575763	19.236048	55.768757	0.000707	-0.346094	-0.730749	10.968344	0.117227	-0.032442	-15.826369	-3.894079	-22.283947	-0.217536	-0.581559	-0.491978
-1.023565	-0.420867	10.052102	7.667227	10.642712	2.420309	0.671098	0.230272	-1.034886	-11.027255	-7.086879	9.836244	-33.790218	37.874695	64.208847	0.027099	-0.374441	-0.757993	10.667511	0.697673	-0.275099	-19.745149	-2.039099	-25.54821	-0.231373	-0.582589	-0.47652
-1.764402	-2.143092	10.144093	14.798217	10.390648	0.463622	0.672627	0.192487	-1.038714	-9.416694	-5.794248	9.927824	-36.824486	54.586114	66.90088	0.052831	-0.360042	-0.745198	10.136501	0.640812	-0.28525	-23.306551	-0.714233	-24.74716	-0.245352	-0.581967	-0.492118
-1.082756	-0.823399	9.935593	15.201693	11.035068	0.718276	0.684861	0.20907	-1.003667	-7.632274	-5.741258	9.965348	-46.721427	75.406867	65.003472	0.052171	-0.317297	-0.70516	10.03401	0.586468	0.550998	-25.098247	-0.120638	-20.648822	-0.218233	-0.62931	-0.504994
-0.973649	-1.054454	9.652589	12.205143	11.4398	1.745515	0.671098	0.230272	-1.034886	-6.703689	-3.99631	10.495917	-62.118848	95.899579	60.015219	0.02784	-0.341656	-0.788699	9.912676	0.585996	0.369077	-26.096136	-0.254523	-16.916459	-0.231515	-0.580936	-0.507576
-1.20535	-0.422914	9.537083	14.250766	11.784504	-0.708199	0.687491	0.199169	-1.067215	-4.507371	-2.929699	11.052513	-75.967207	111.735493	52.854578	0.027764	-0.356977	-0.787696	9.673465	0.992574	0.246592	-26.525968	-1.501398	-14.800381	-0.189512	-0.564958	-0.492674
-1.544132	-0.823791	9.756126	11.487974	11.785184	-1.896293	0.687119	0.195641	-1.05314	-3.340278	-1.072189	11.98449	-83.936329	123.474192	46.212965	0.09287	-0.31064	-0.792085	9.627364	0.646972	0.902984	-26.695032	-3.24332	-15.005371	-0.203908	-0.596721	-0.506598
-1.370266	-0.651108	9.873896	9.029426	11.198898	-2.696122	0.67147	0.2338	-1.048962	-2.123589	-0.736137	12.406638	-87.864993	134.678794	39.93935	0.080704	-0.32282	-0.833855	9.618561	0.644994	0.423728	-26.15707	-4.326759	-16.5301	-0.204258	-0.611261	-0.536817
-1.603448	-1.053998	9.640341	5.496418	10.424956	-3.649254	0.658492	0.210161	-1.055857	-0.382074	0.500565	13.236903	-89.836628	144.454638	35.65714	0.093906	-0.276784	-0.837142	9.741535	0.413409	0.664568	-25.552323	-5.357617	-17.199664	-0.217536	-0.581559	-0.491978
-1.542071	-0.593543	9.870797	5.218159	10.023823	-3.624304	0.658535	0.158263	-1.003382	0.838026	0.94942	13.829066	-87.574065	154.341814	31.841937	0.106216	-0.294173	-0.807714	9.220989	0.591325	1.254475	-24.239267	-6.229195	-18.239251	-0.161838	-0.562897	-0.52359
-1.306082	-0.994352	10.21468	6.715014	9.731871	-4.369406	0.687119	0.195641	-1.05314	1.822813	1.511178	14.189929	-81.725916	162.000196	29.086512	0.094352	-0.245071	-0.853499	8.800193	1.055395	0.889308	-22.280471	-7.250435	-19.372127	-0.245006	-0.548756	-0.50932
-1.370308	-0.593667	9.874138	10.053112	9.128334	-3.990132	0.687134	0.178342	-1.035648	3.704709	2.577284	13.49441	-74.664708	165.532446	27.246732	0.120749	-0.213208	-0.870407	8.746969	1.405469	1.249132	-20.105904	-8.022407	-20.873658	-0.203699	-0.580528	-0.507435
-1.60147	-0.708867	9.755495	11.588127	9.94144	-4.59471	0.698982	0.208695	-1.004017	6.564739	2.627514	12.705308	-69.290123	165.215401	25.243969	0.172578	-0.228228	-0.870507	8.806931	0.998802	1.248502	-17.176045	-7.765277	-21.068842	-0.232141	-0.629514	-0.505064
-1.427272	-0.995716	9.871335	11.405367	10.344251	-4.955662	0.687105	0.21294	-1.070631	7.870095	3.52566	11.940918	-66.09134	161.470059	23.328656	0.185704	-0.197513	-0.87279	8.93058	0.476837	1.488106	-12.221459	-7.229733	-17.911296	-0.204325	-0.629106	-0.504924
-1.259175	-2.088195	9.642678	6.567716	14.914709	-3.426022	0.657378	0.199576	-1.013629	10.385641	4.365259	11.258506	-61.822561	154.256657	19.776567	0.212096	-0.22586	-0.900033	9.231453	0.826101	1.854533	-8.093682	-6.738801	-13.680884	-0.272963	-0.547511	-0.540516
-0.368597	0.470781	17.229232	-34.237362	30.581349	7.649031	0.686362	0.205884	-1.042479	13.146063	5.148665	11.260558	-54.900608	143.947226	12.21889	0.200081	-0.207398	-0.94381	9.047512	0.476319	1.4304	-4.337745	-6.497286	-15.04025	-0.217745	-0.597751	-0.491141
-0.796003	-0.581253	12.897373	10.824362	43.527219	11.839018	0.671884	0.185431	-1.010562	16.174	6.437749	10.362848	-46.418525	132.030901	0.299815	0.225518	-0.194072	-0.916666	9.340817	0.765777	1.377231	-0.452495	-6.080308	-15.575814	-0.245702	-0.596507	-0.522337
-1.206681	-0.755459	12.377177	20.470594	54.498228	15.761417	0.673385	0.182245	-1.049374	17.174659	-2.412506	5.224168	214.57374	79.651682	7.11005	0.264376	-0.148957	-0.906154	9.642385	1.289517	1.804307	9.155562	-7.133821	-5.031696	-0.218025	-0.613117	-0.505831
-1.604246	-0.582121	12.540665	24.315278	64.49901	18.826057	0.658149	0.172034	-1.006797	28.033768	5.73958	10.611314	54.685432	48.857776	-37.77772	0.277717	-0.1927	-0.932119	9.635938	1.694813	1.506503	17.24798	-8.089965	4.448593	-0.217465	-0.582385	-0.47645
-1.150499	-0.813183	12.321196	25.639089	74.604855	19.691795	0.729495	0.177218	-1.036695	28.610986	7.984855	2.812662	72.995818	16.801921	-41.318467	0.26437	-0.209167	-0.91649	10.047775	0.821986	1.330777	22.02299	-8.402397	9.689904	-0.190417	-0.628902	-0.504854
-1.319129	-0.525128	12.489621	23.824765	83.448977	19.411482	0.714632	0.170536	-1.008194	28.698974	10.408335	4.458459	40.192071	-28.549522	-53.355203	0.290473	-0.178376	-0.919048	10.760911	0.58905	1.582621	24.60897	-9.037004	9.836394	-0.20377	-0.579702	-0.522963
-1.491964	-0.582686	12.429186	23.149247	93.00326	19.262096	0.687891	0.168099	-1.046308	27.808542	12.101303	6.026448	57.344171	-70.271598	-42.011722	0.289141	-0.213305	-0.859642	10.872746	0.413069	1.224638	27.302092	-9.360887	6.588308	-0.217954	-0.613944	-0.490303
-1.314633	-0.581604	12.716792	23.277599	103.885644	18.794685	0.700911	0.13984	-0.986937	24.150865	12.785258	7.252357	100.925645	-107.38115	-5.846719	0.26415	-0.194919	-0.903144	11.761424	0.353709	1.420618	29.228326	-8.732702	2.696705	-0.231235	-0.56557	-0.492885
-1.306181	0.052183	13.174271	22.76443	115.134206	18.243086	0.771514	0.137967	-0.988683	1.055673	2.633804	8.003863	45.967301	-100.374275	-15.901889	0.250509	-0.212458	-0.873165	11.579144	0.236726	1.117288	30.122422	-6.959492	0.117694	-0.25898	-0.566805	-0.477498
-1.278795	-0.861092	14.534884	22.760333	129.145878	18.010935	0.756979	0.186712	-1.026734	2.607081	4.999208	10.812627	65.415582	-60.455877	1.958956	0.250132	-0.28906	-0.868147	11.817004	0.410908	1.242245	31.146313	-4.108054	2.759378	-0.218166	-0.611465	-0.536887
-1.14721	-1.37453	15.387736	25.686914	146.242107	17.789849	0.75665	0.131285	-0.960182	1.628681	1.341656	13.166647	24.215492	-34.970103	16.052044	0.224476	-0.288138	-0.881945	12.579603	1.918882	1.203072	34.771063	0.188642	-0.361134	-0.203345	-0.58466	-0.429796
-1.593862	-1.716435	15.945911	37.430434	166.377869	18.482101	0.769642	0.137625	-0.935795	-0.579561	-0.68548	9.268718	33.152696	-51.711534	9.264597	0.263479	-0.272593	-0.883776	13.087254	2.551559	0.017558	35.443752	8.278115	-7.431417	-0.218442	-0.645502	-0.504157
-1.717564	-2.867354	15.42718	51.655806	184.89441	21.992662	0.813104	0.164386	-0.996563	0.160111	-0.574552	8.888051	37.151617	-79.438652	12.013428	0.21165	-0.257572	-0.883676	14.035934	3.015243	0.336677	31.542729	13.237398	-6.187947	-0.231724	-0.597129	-0.506739
-1.547245	-2.408187	15.375598	63.884636	202.129489	26.530623	0.826881	0.125884	-0.947852	3.244603	-0.409945	10.538174	47.505558	-77.297938	28.505906	0.21106	-0.259716	-0.854977	12.559234	1.681881	0.063852	28.363241	8.605745	-0.133597	-0.231586	-0.58011	-0.523103
-1.187348	-1.945285	16.237006	73.956411	218.699399	29.162801	0.841416	0.07714	-0.909802	4.749704	0.883282	11.080453	56.656528	-54.381216	31.731575	0.172277	-0.28951	-0.866492	11.671596	0.346921	-0.257875	32.043813	2.878235	-1.097599	-0.259402	-0.580518	-0.523244
-1.931904	-1.600097	16.223978	89.848561	236.637477	29.868725	0.882635	0.10003	-0.903606	4.25672	2.685582	9.712949	41.233452	-36.846331	21.812158	0.184437	-0.33754	-0.835057	10.133584	0.000987	-0.527597	25.505464	0.058866	-2.833087	-0.23207	-0.63034	-0.489537
-2.240332	-2.396551	17.976365	100.945135	254.978296	33.599902	0.883792	0.058717	-0.893358	3.216892	2.067697	9.464109	20.08279	-27.460508	13.31794	0.211129	-0.304605	-0.866316	9.248943	1.165275	-0.359439	22.02445	0.046479	9.007704	-0.232074	-0.611669	-0.536957
-3.073373	-2.620147	19.266318	119.857433	278.186293	38.982047	0.953652	0.049787	-0.866952	2.426036	-0.746941	9.89793	10.651223	-0.920257	20.819092	0.184662	-0.291579	-0.838068	9.066392	1.164444	-0.662275	20.276564	1.056291	26.126831	-0.231724	-0.597129	-0.506739
-4.198781	-5.200327	20.142839	115.319109	304.009752	50.29938	0.923539	0.050194	-0.813366	2.424982	0.436048	9.955565	-1.582681	-1.963702	11.241857	0.210319	-0.292501	-0.82427	8.640519	1.917905	-1.265833	18.475197	1.577896	34.231983	-0.217678	-0.579906	-0.523033
-4.377101	-5.373975	19.797656	121.066143	327.173674	64.608741	0.980421	0.017625	-0.793855	2.597139	0.717377	9.959429	8.268061	-2.033122	12.852193	0.185033	-0.275187	-0.853422	9.277572	1.448845	-1.974588	15.976265	1.726591	33.781758	-0.189929	-0.597343	-0.491
-4.13773	-5.831501	20.311857	121.969099	340.252578	78.276349	0.996085	-0.037833	-0.780541	2.245164	0.999439	9.669215	2.026767	-2.689378	7.291477	0.21165	-0.257572	-0.883676	9.282109	1.391757	-1.735208	12.329321	0.297957	28.696512	-0.217887	-0.596099	-0.522196
-5.289991	-6.693984	19.887996	130.869184	354.043931	91.870109	1.064073	-0.047105	-0.701247	2.588485	1.449389	9.620208	-4.52744	-3.455239	3.825803	0.15871	-0.291729	-0.837517	8.689766	1.857469	-1.804141	9.845567	-1.358555	22.385608	-0.217883	-0.61477	-0.474776
-3.363648	-5.423435	21.863055	136.854248	367.836569	104.091995	1.105306	-0.041514	-0.677559	2.536271	0.548351	9.788159	-9.338881	-3.015674	2.284888	0.15812	-0.293873	-0.808817	8.216112	1.567674	-1.933995	8.107999	-1.716704	20.926339	-0.231377	-0.563918	-0.523941
-4.741576	-5.665517	18.70956	142.581628	357.535984	105.379097	1.077865	-0.102906	-0.635045	2.542769	0.942949	10.128328	-10.702102	-3.396479	1.601784	0.198669	-0.317857	-0.893736	7.807711	2.383167	-1.578795	7.720709	-1.216098	22.66774	-0.231515	-0.580936	-0.507576
-10.151071	-5.392791	14.286377	118.916753	343.015468	114.865079	1.11914	-0.149213	-0.558881	2.087143	-0.351696	10.230846	-7.412449	-4.669941	1.098518	0.184442	-0.27733	-0.824722	7.808406	2.557643	-1.518147	8.710661	1.765252	24.575749	-0.231582	-0.598781	-0.475683
20.28867	0.883239	-3.394475	142.697244	261.929949	71.210458	1.132904	-0.170415	-0.527663	2.601412	0.379536	10.129063	-4.207334	-5.214645	1.527275	0.171686	-0.291654	-0.837793	7.873444	1.861584	-1.280386	8.050157	4.430134	23.984613	-0.231168	-0.547725	-0.524778
45.683095	-0.30237	-7.224634	150.881004	92.508871	-88.013635	1.103191	-0.201079	-0.453169	2.481123	0.548553	9.900229	-5.262508	-5.539059	2.201421	0.197933	-0.290432	-0.852694	8.583454	2.499542	-1.08474	5.162041	7.598279	21.289932	-0.245143	-0.565774	-0.492955
14.25725	-16.014795	6.475965	129.734939	-0.230215	-221.885812	1.117311	-0.201453	-0.453518	2.25371	0.323757	10.008483	-7.268143	-5.350883	2.355819	0.158855	-0.321298	-0.849859	8.119568	2.270049	-0.675184	1.840502	9.215821	20.499476	-0.217123	-0.530502	-0.541072
6.803081	-19.791098	8.531441	88.193298	-21.424117	-229.389015	1.144752	-0.140062	-0.496032	1.966661	0.549666	10.059268	-4.564641	-6.627178	1.143004	0.159596	-0.288513	-0.880566	8.777144	2.444769	-0.183083	0.467743	8.962102	17.937983	-0.245702	-0.596507	-0.522337
2.915151	-18.880354	5.845457	11.173651	-29.406519	-161.502785	1.103148	-0.149181	-0.505644	2.531651	0.4355	9.561506	-6.337732	-7.628828	0.823336	0.197413	-0.337465	-0.835333	9.719337	2.384038	-0.285536	1.375394	7.038917	11.952834	-0.217607	-0.580732	-0.507505
10.050041	-14.753846	5.035515	-47.080474	-76.838096	-82.83301	1.130246	-0.125916	-0.499098	2.535839	0.773673	9.788349	-7.888019	-8.078158	0.879277	0.159006	-0.290657	-0.851867	9.597888	2.906498	-0.405326	4.83475	4.518196	5.472554	-0.231795	-0.596303	-0.522266
15.083019	-11.88614	4.975008	-83.548979	-161.603795	-28.700676	1.129831	-0.077546	-0.537498	2.315764	-0.126852	10.179231	-8.288413	-8.076813	-0.107531	0.159081	-0.275337	-0.85287	10.07714	2.209742	-0.099955	3.391767	2.942038	-2.338893	-0.272542	-0.533798	-0.49477
17.959205	-9.574828	8.734672	-104.569909	-247.970908	-3.144488	1.101247	-0.114924	-0.48774	2.591634	0.435487	9.675994	-8.755084	-8.50055	-1.869318	0.172282	-0.2293	-0.856157	10.310173	2.092308	-0.275768	1.574237	2.711679	-7.312768	-0.20314	-0.549796	-0.478054
19.88678	-6.925199	10.829229	-116.630399	-314.220754	0.016248	1.13056	-0.053191	-0.583141	2.652071	0.829835	9.847453	-9.166356	-9.357668	-2.895493	0.184958	-0.290507	-0.852418	9.482017	1.977552	-0.411483	0.833023	3.301261	-8.382531	-0.244864	-0.550408	-0.478264
20.142889	-5.885386	12.259354	-111.901271	-363.141018	-13.089692	1.145438	-0.063808	-0.594151	2.182847	0.323343	9.384239	-7.81648	-10.105881	-3.086814	0.133349	-0.289735	-0.865665	9.820707	1.97328	-1.243577	3.370936	4.844593	-8.857498	-0.217678	-0.579906	-0.523033
18.118842	-4.841744	14.156617	-99.092076	-398.114351	-29.214084	1.076679	-0.026994	-0.680276	2.601736	0.210545	10.128921	-7.234583	-10.554611	-3.676537	0.171837	-0.261013	-0.8398	9.356686	1.801863	-0.833773	1.529162	4.729145	-7.199988	-0.231098	-0.548552	-0.50925
16.338103	-5.990737	13.776154	-89.639044	-423.869168	-40.119192	1.049181	-0.019188	-0.70773	2.421894	0.154253	9.785409	-7.358048	-10.584229	-4.077693	0.145885	-0.261163	-0.839248	9.932967	2.087926	-1.540416	2.915019	4.675162	-7.418677	-0.231168	-0.547725	-0.524778
14.490621	-6.337438	12.943131	-93.842849	-441.365875	-43.826707	1.036146	0.02637	-0.784592	2.599426	0.154119	10.015594	-4.945443	-10.424545	-5.060654	0.14625	-0.304981	-0.864937	9.81559	1.332961	-1.605737	1.506553	4.337449	-10.743076	-0.273313	-0.562051	-0.570735
12.433175	-6.852196	13.071433	-110.621055	-453.265984	-41.272069	0.99377	0.044793	-0.801036	2.368625	0.436203	10.010996	-2.84173	-10.297033	-6.414115	0.184662	-0.291579	-0.838068	9.645819	1.044469	-1.250834	1.831718	4.334243	-13.280713	-0.216981	-0.532155	-0.510017
7.251646	-7.933782	14.386848	-126.535053	-433.064594	-26.328265	0.981136	0.059281	-0.856991	2.373353	0.492723	10.237602	-0.364958	-9.837547	-6.222587	0.145734	-0.291804	-0.837241	9.114269	1.219912	-1.259996	2.721156	4.719043	-14.691505	-0.231657	-0.579284	-0.538631
5.570877	-6.54574	16.29224	-152.879368	-380.620728	-8.563005	0.925411	0.050536	-0.866254	2.482224	0.604931	9.956916	1.645385	-9.514056	-4.89216	0.159451	-0.258944	-0.868224	9.348018	1.741809	-1.313276	2.90807	4.68502	-14.294749	-0.203282	-0.548143	-0.509109
9.543899	-3.728656	17.631662	-183.280828	-370.233678	-24.838668	0.868129	0.114175	-0.906672	2.42084	1.337241	9.843045	1.439089	-10.341047	3.977934	0.15834	-0.308121	-0.822164	8.998127	0.407118	-1.265658	2.692811	5.055741	-14.723569	-0.245218	-0.546277	-0.555904
7.752935	-1.23559	22.722072	-187.09406	-397.899985	-67.732963	0.869229	0.14206	-0.966392	2.31568	0.549161	10.23644	4.063164	-10.231629	6.416578	0.146105	-0.275412	-0.852595	8.931117	0.056819	-1.747497	0.384409	6.312668	-15.790777	-0.273727	-0.613108	-0.52164
-1.480816	0.860774	27.666038	-184.696265	-395.826458	-108.331958	0.829125	0.129755	-1.014816	0.813264	1.34989	20.792442	-24.914526	-43.376519	-8.610402	0.132909	-0.261238	-0.838973	8.33781	0.464207	-1.876585	-3.484387	7.385775	-14.406725	-0.203841	-0.578876	-0.538491
-11.763454	2.092159	31.61984	-173.458395	-362.141858	-128.809056	0.771099	0.186337	-1.027083	3.385227	-0.465495	11.729977	3.290565	-69.60361	-5.087433	0.133719	-0.273343	-0.881018	8.221843	0.523048	-1.758724	-6.706114	8.279162	-7.248227	-0.259122	-0.565152	-0.508553
-22.106795	2.563535	32.443584	-145.390429	-340.258283	-125.403895	0.743559	0.246041	-1.107012	2.499607	0.607979	13.467363	21.045547	-80.319671	-11.283517	0.158861	-0.261088	-0.839524	8.042864	0.406806	-1.882334	-9.804561	9.20422	-0.151042	-0.20377	-0.579702	-0.522963
-33.250982	2.678497	30.351898	-107.583261	-326.977452	-95.099834	0.671798	0.289227	-1.115513	3.287798	-0.239246	12.577342	23.346608	-96.434736	-14.832819	0.172277	-0.28951	-0.866492	8.808704	0.520956	-1.927441	-15.425048	10.636459	7.320036	-0.203282	-0.548143	-0.509109
-41.28317	3.127868	26.44675	-85.129173	-291.256454	-50.004502	0.671784	0.306526	-1.133005	2.612859	0.326016	13.356264	30.176638	-110.876623	-17.005424	0.119707	-0.307274	-0.835686	8.819262	-0.232055	-1.451399	-19.716977	10.791885	11.52227	-0.259473	-0.579692	-0.538772
-44.48903	5.403401	20.654111	-80.275107	-238.732007	-15.669601	0.628265	0.348963	-1.142205	2.963973	0.494598	13.646858	33.976284	-125.574428	-18.967198	0.068029	-0.261613	-0.837594	8.515108	-0.117206	-1.935662	-22.701453	9.248108	14.841587	-0.231865	-0.595476	-0.537794
-41.378118	10.333615	18.97366	-99.499248	-173.844564	-2.783408	0.558019	0.371663	-1.172026	3.311221	0.156016	13.710466	37.220638	-140.305235	-21.854531	0.106361	-0.323742	-0.820057	8.459954	0.116222	-1.696146	-23.929985	7.682282	17.940766	-0.245427	-0.562469	-0.555066
-44.997532	11.072734	29.988305	-213.807662	-30.514064	-9.572185	0.543513	0.385809	-1.175093	2.945414	0.327232	15.457974	38.589987	-159.088832	-23.643017	0.079894	-0.310715	-0.79181	8.704511	-0.695899	-1.335764	-26.97187	5.540385	22.883436	-0.203841	-0.578876	-0.538491
-37.704861	18.593334	16.920368	4.339979	0.532679	-39.723534	0.517144	0.3869	-1.227283	2.87458	0.554524	17.551411	40.396422	-187.202035	-25.184697	0.054382	-0.339362	-0.81795	8.581652	-0.987245	-1.638736	-29.204361	3.728117	28.769459	-0.203774	-0.561031	-0.570384
-34.760367	19.835551	12.436445	60.920489	67.62662	-57.661875	0.558391	0.375192	-1.186102	3.395283	-0.570672	20.278835	41.133494	-224.344995	-29.036349	0.066843	-0.326111	-0.79053	8.45084	-0.699314	-2.298677	-30.56544	4.794343	37.604316	-0.245076	-0.547929	-0.524848
-40.104969	22.145552	14.331288	78.597714	163.529661	-79.132509	0.543899	0.372038	-1.171677	2.851383	-0.737353	21.739233	51.414875	-271.282829	-34.672874	-0.025025	-0.360492	-0.743544	8.819512	-0.813062	-1.513779	-45.008113	4.901833	45.910868	-0.231869	-0.576805	-0.585215
-57.12456	18.560117	18.92937	123.797199	271.059369	-75.457135	0.557619	0.402734	-1.192934	3.26695	-2.030946	24.917213	66.784032	-328.580205	-40.839472	-0.03689	-0.311391	-0.789328	8.57808	-0.871834	-1.817962	-51.44134	6.729993	56.229349	-0.231798	-0.577631	-0.569687
-17.628286	8.245866	18.801687	146.569417	210.372706	-35.524344	0.574026	0.354332	-1.207772	2.169819	-1.522018	24.781392	81.288606	-385.328187	-41.699083	-0.052158	-0.36493	-0.685593	8.464895	-0.115093	-1.457508	-64.763589	6.230077	61.539309	-0.25913	-0.52781	-0.603394
1.648815	1.538924	12.158238	74.617382	97.94793	2.57337	0.616402	0.335909	-1.191328	5.204697	-0.847612	29.544702	75.338407	-438.233594	-42.968414	-0.07826	-0.395721	-0.683035	7.570701	2.79024	-1.581467	-62.325176	3.586815	54.724402	-0.231105	-0.511209	-0.604091
3.431311	-0.656279	9.569458	60.021516	112.80012	6.322258	0.645429	0.290318	-1.167703	9.640799	1.79906	38.132331	64.184467	-485.417041	-47.853244	-0.14417	-0.369743	-0.626264	8.762535	4.94006	-0.651707	-54.198064	-5.094394	54.033145	-0.258362	-0.480885	-0.57485
0.828501	-1.796689	11.048444	70.015289	151.056869	-6.701015	0.67287	0.35171	-1.210216	6.684653	-1.627928	42.200056	83.855393	-515.949151	-62.288609	-0.183619	-0.417001	-0.608076	11.793192	6.390514	0.728548	-21.213868	-18.921302	56.762094	-0.258779	-0.51327	-0.573176
-5.503436	0.498535	9.286873	81.865939	127.127626	-23.625144	0.659535	0.307243	-1.185544	4.338374	-4.951446	37.109186	138.004224	-535.816535	-60.68495	-0.236704	-0.421589	-0.549574	13.222063	2.438845	0.917868	-7.56985	-28.941068	57.402615	-0.244801	-0.513892	-0.557578
-4.852097	0.605201	7.481419	64.807078	78.883082	7.99573	0.699239	0.350618	-1.158027	5.277086	-13.407421	31.799711	180.177645	-531.832528	-75.037107	-0.303725	-0.444788	-0.446744	13.894613	-0.985664	1.754083	-57.881616	-40.378281	45.990273	-0.258709	-0.514096	-0.557648
-3.69042	-2.32201	8.230472	-4.456333	43.706564	22.28128	0.672899	0.317111	-1.175233	-4.182328	-10.573741	30.980785	186.395636	-491.25411	-69.359054	-0.265614	-0.492668	-0.415861	12.68047	-0.454211	3.170964	-72.218936	-43.31969	32.726664	-0.230546	-0.480477	-0.574709
-1.174954	-0.875933	11.070186	2.477388	23.715585	2.065038	0.744659	0.273925	-1.166731	-33.440457	-20.225713	9.920068	157.137858	-406.19423	-101.365533	-0.293927	-0.501393	-0.300511	11.172383	0.820162	1.531406	-24.098954	-32.586998	22.749352	-0.258779	-0.51327	-0.573176
-3.263992	-0.82303	9.609015	18.623901	20.9181	-2.105746	0.729009	0.312084	-1.162554	-53.50775	-13.699684	-42.750514	335.517008	-122.401166	-148.365009	-0.346942	-0.55087	-0.253348	11.635655	2.734602	1.30874	1.487762	-25.155316	22.651754	-0.27227	-0.481089	-0.57492
-1.894837	-0.135692	9.411222	3.638921	14.424167	0.683972	0.687005	0.334036	-1.193074	-13.400941	-20.53753	18.719566	-65.039925	147.267417	0.097359	-0.347834	-0.614295	-0.220634	12.511169	3.601986	0.909607	7.829432	-13.61337	26.639346	-0.258083	-0.465519	-0.560159
-1.667839	-0.423548	9.300763	3.038651	11.249623	1.216792	0.730152	0.288071	-1.169798	-13.589015	-17.944046	20.925856	-66.095131	147.692865	-43.796543	-0.32121	-0.536471	-0.240554	13.915971	2.898866	0.214168	-4.122176	-6.531265	29.766948	-0.244245	-0.464488	-0.575617
-0.965487	-0.018577	10.111757	-4.868279	10.554503	2.362955	0.729767	0.301842	-1.173214	-13.875922	-11.812448	10.734688	-40.573626	115.863416	-74.578104	-0.320921	-0.595609	-0.265239	14.678064	2.256791	-0.133687	-9.760585	-6.469162	24.773672	-0.299806	-0.466131	-0.56037
-0.512605	-0.59453	9.833987	-5.575288	10.932841	1.236438	0.717947	0.236889	-1.169861	-14.767058	-10.236909	6.867599	-63.27443	145.798286	-71.986744	-0.294303	-0.577995	-0.295493	15.038277	0.572271	-0.01444	-5.570045	-7.138829	14.06302	-0.271849	-0.467375	-0.529174
-0.906622	-0.707675	10.166828	-4.707794	11.629743	2.471971	0.715275	0.298688	-1.158789	-16.735485	-10.06468	6.316882	-92.130821	222.151221	-61.84868	-0.293273	-0.604348	-0.350885	13.50882	0.809322	0.257472	-8.201467	-10.922347	6.357571	-0.230475	-0.481303	-0.559182
-1.592106	-1.338794	10.207665	-5.969189	12.232437	0.307993	0.729038	0.277486	-1.12757	-14.323453	-10.630412	8.744836	-121.045873	287.353538	-46.365131	-0.292827	-0.572635	-0.367242	12.169751	0.990858	1.25132	-8.997436	-15.506456	2.775783	-0.244104	-0.466141	-0.544561
-1.599533	-0.306293	9.87089	-4.700788	13.39354	1.427253	0.731667	0.267585	-1.191118	-11.706237	-8.8315	10.216744	-136.512283	324.315614	-27.945462	-0.253685	-0.646869	-0.391751	10.873461	1.052399	1.347172	-11.244847	-18.314916	7.41251	-0.257319	-0.399923	-0.579035
-1.595902	-0.70766	10.03976	-7.393352	13.712027	2.053531	0.716046	0.271146	-1.151957	-8.881297	-7.259242	10.617146	-137.29031	352.303026	-8.893618	-0.21298	-0.580002	-0.468341	10.041578	0.646274	0.970594	-14.509894	-20.595456	16.849503	-0.244033	-0.466967	-0.529033
-1.712348	-1.110151	9.922138	-7.115232	14.489217	1.390675	0.714932	0.260561	-1.109729	-7.323573	-5.909983	10.934123	-137.720804	382.631622	2.907086	-0.172576	-0.574418	-0.540917	10.379168	0.641756	0.078593	-11.997514	-21.853479	26.995062	-0.313084	-0.436429	-0.515531
-1.421705	-0.99451	10.1556	-8.097552	14.645589	0.752021	0.758394	0.287322	-1.170496	-4.32499	-5.464706	11.280564	-139.886161	406.822358	4.225452	-0.118681	-0.581935	-0.641464	10.092445	-0.111074	0.429318	-13.714508	-22.091837	34.675594	-0.285623	-0.431889	-0.593029
-1.647506	-0.821296	10.32243	-4.340899	15.045718	-3.177812	0.729395	0.298313	-1.159138	-1.870982	-5.075833	10.370006	-158.134294	417.396005	-1.664486	-0.118085	-0.519581	-0.659829	10.039471	-0.342007	0.726763	-12.104694	-21.167246	34.543062	-0.285339	-0.435194	-0.530918
-1.528544	-0.820414	10.552069	2.828014	14.174548	-10.143837	0.729024	0.294785	-1.145062	0.378951	-3.84048	10.758034	-185.915714	414.63029	-11.394287	-0.091473	-0.562177	-0.700418	9.915262	-0.052593	0.426264	-10.565424	-19.673875	20.774019	-0.285272	-0.417349	-0.562811
-1.14504	-1.571304	9.647077	9.308021	14.625174	-22.822274	0.729409	0.281014	-1.141646	3.39897	-3.225358	12.12413	-219.774127	398.320397	-24.469758	-0.050844	-0.510631	-0.776005	9.561205	0.877928	0.543431	-6.886206	-15.374895	-0.349935	-0.299389	-0.433746	-0.562044
-4.325899	-11.510086	22.159666	-51.728052	34.643418	-10.788881	0.772528	0.269648	-1.153354	4.672283	-2.154734	15.265596	-249.814235	376.561775	-34.544336	0.027973	-0.491645	-0.821712	8.977957	1.69432	1.015143	-0.884409	-12.383847	-6.559478	-0.285197	-0.436847	-0.499862
0.636284	-1.591305	18.774508	83.261592	94.415126	24.999445	0.716789	0.278203	-1.180109	4.158974	-1.249854	18.256165	-272.540651	362.022519	-35.324004	0.080542	-0.473881	-0.852518	8.323993	2.3339	0.826037	-1.564976	-12.468448	4.354242	-0.257106	-0.402401	-0.532452
-2.260613	-1.436733	14.058717	6.373345	109.257382	28.559031	0.799641	0.275613	-1.129316	3.538649	-0.795119	21.583774	-288.437704	358.417604	-20.02116	0.095	-0.408236	-0.914208	8.802049	2.624684	1.195518	0.558545	-11.949825	14.094352	-0.257874	-0.449326	-0.560996
-0.884985	-0.460739	14.203249	46.724898	125.218797	32.749787	0.799626	0.292912	-1.146808	4.090422	0.165289	25.9555	-303.96779	358.876048	15.731363	0.199028	-0.421885	-0.92976	8.686603	1.986365	1.250504	9.530654	-12.375593	25.832473	-0.285131	-0.419002	-0.531755
-1.547033	-0.524721	12.54202	41.15883	135.402793	34.525785	0.800412	0.248071	-1.122484	8.771512	0.948329	29.677812	-313.074161	352.857926	67.182084	0.226166	-0.357237	-0.977375	9.059772	0.885818	2.151013	19.629955	-11.932319	33.772587	-0.298968	-0.420032	-0.516298
-1.025311	-0.178997	12.894608	46.506782	144.050236	32.657965	0.814533	0.247696	-1.122834	18.48062	9.830242	29.776331	-319.158636	324.371853	92.669722	0.291787	-0.324077	-1.00946	8.239028	0.424089	2.373256	25.531931	-9.671549	27.167796	-0.257106	-0.402401	-0.532452
-1.128757	0.557893	10.565655	43.857839	149.495201	28.18543	0.828268	0.261093	-1.126599	29.51272	17.585307	32.44928	-303.128483	290.384917	83.80308	0.33057	-0.294283	-0.997945	7.425791	-1.372399	2.829441	21.958475	-5.537528	10.654555	-0.284296	-0.354232	-0.535104
-1.089774	1.185849	9.659773	39.700505	147.935988	17.715721	0.856909	0.229273	-1.106389	33.286954	25.633078	32.082733	-249.315583	278.463169	54.282679	0.38329	-0.245878	-1.030758	7.59143	-1.201048	2.234415	24.352856	-0.699254	-3.864405	-0.271293	-0.417972	-0.547213
-1.31252	0.210714	9.935482	30.159407	147.638448	7.557369	0.884421	0.204168	-1.061444	37.55482	26.242734	29.908339	-166.134724	273.311275	34.073222	0.410573	-0.210799	-1.090716	7.21604	-0.565852	1.152208	34.885471	2.314032	-10.640366	-0.299172	-0.454896	-0.46804
-2.750774	-1.673164	12.400104	30.485587	152.368915	4.99601	0.884035	0.217939	-1.06486	44.577937	19.743996	21.38814	-49.514301	241.402515	8.322482	0.514386	-0.149989	-1.082587	7.913614	-1.209028	0.503718	44.1267	6.999655	-8.006854	-0.243336	-0.419216	-0.516017
-2.789342	-2.875534	13.303573	39.429333	163.040513	10.234443	0.897784	0.214036	-1.051133	51.432601	16.618734	5.28108	22.993255	171.42768	-19.999144	0.514682	-0.148917	-1.096936	7.828478	-0.866123	-0.873758	48.46973	9.736661	3.914248	-0.271364	-0.417145	-0.562741
-2.723553	-2.356672	13.761683	49.740876	175.817856	17.189594	0.912276	0.21719	-1.065558	49.629858	19.484969	-6.133702	-36.928351	69.450584	0.948752	0.565995	-0.150761	-1.06934	8.164022	-0.464357	-1.823935	54.19835	10.868393	17.734284	-0.229148	-0.403646	-0.501256
-1.120932	-0.117371	13.859125	52.776462	193.517282	20.412478	0.939803	0.174786	-1.003121	40.767058	22.832504	2.175237	-111.914631	-34.09479	58.959644	0.539898	-0.121342	-1.056446	8.446593	-0.293524	-2.476667	55.505471	10.481279	26.045956	-0.285339	-0.435194	-0.530918
-0.873524	0.633304	14.833218	45.854111	214.672638	18.016672	0.953924	0.174411	-1.003471	30.957599	20.261329	68.035686	-191.277548	-131.073218	79.791998	0.540049	-0.090701	-1.058453	9.984064	0.284715	-2.205955	50.247351	6.144698	29.478932	-0.271085	-0.401779	-0.54805
-1.030237	1.383546	15.628958	38.99623	240.449586	16.830452	1.01042	0.155613	-0.987376	21.216585	6.584529	-4.080959	358.781902	-194.450081	196.229106	0.526697	-0.167379	-1.053159	10.699732	1.330688	-1.649138	43.254958	-3.84134	28.481977	-0.284989	-0.420655	-0.5007
-2.005593	0.477049	18.390856	34.544211	268.783733	15.617611	0.979178	0.162735	-0.909053	-0.426517	7.543031	14.487694	122.990395	-194.938484	107.715814	0.500965	-0.181777	-1.065954	9.896615	1.33777	-0.406499	35.582818	-15.012779	17.711266	-0.312946	-0.41941	-0.531896
-3.709371	-2.378785	21.869164	32.352019	301.846712	20.362874	1.037918	0.147808	-0.959922	-5.651307	-7.706243	21.724353	128.014104	-156.231095	60.713652	0.475013	-0.181927	-1.065402	8.911352	1.169793	0.532562	24.067096	-21.405896	2.011798	-0.285268	-0.436021	-0.51539
-1.646985	-3.171872	24.861118	56.119379	343.861139	28.214636	1.076907	0.149528	-0.86927	-1.059398	-0.45767	11.070494	358.658762	-148.490942	62.456266	0.448835	-0.228039	-1.06184	7.689485	1.234661	1.46821	21.998423	-20.945945	-4.737228	-0.271502	-0.434164	-0.546376
-2.941675	-3.925421	23.014186	62.629447	375.733015	35.122908	1.119683	0.100034	-0.831918	1.619274	9.953405	5.417905	217.400264	-203.248195	31.429984	0.421622	-0.308006	-1.013221	7.688655	1.118261	1.407809	28.985944	-12.446373	-7.981474	-0.299035	-0.437877	-0.484405
-2.772573	-5.776984	19.883998	70.431949	401.053055	46.274307	1.176952	0.053695	-0.808991	10.061548	9.662207	12.72834	161.801948	-182.585626	26.071903	0.408275	-0.324474	-0.997592	8.321711	0.473984	0.458684	32.04102	2.476553	-6.627382	-0.284776	-0.423133	-0.454116
-2.944958	-4.915237	19.884277	86.892433	424.031001	50.80115	1.174351	0.028996	-0.71046	5.705703	4.485986	10.367725	109.79947	-116.036796	21.357698	0.395369	-0.369438	-1.008655	10.002637	0.346994	-1.187291	27.23196	18.833411	-7.482611	-0.3126	-0.386199	-0.549098
-5.58529	-8.074545	19.364959	91.996985	435.14169	68.840263	1.228975	0.009857	-0.641477	-0.338609	3.593583	7.465899	72.283123	-119.305999	11.98462	0.343245	-0.35549	-0.994206	12.626201	0.914755	-2.812692	20.523032	30.000705	-9.925901	-0.270943	-0.403432	-0.516994
-6.328571	-7.594069	10.657473	109.407758	428.752643	90.082191	1.243096	0.009482	-0.641826	2.295307	2.351074	9.445003	50.746631	-136.9681	15.121317	0.330269	-0.355565	-0.99393	15.385364	0.556492	-3.601151	22.127541	33.461565	2.093172	-0.312875	-0.420236	-0.516368
-6.265568	-8.754321	7.982779	60.977984	392.064367	109.792103	1.227504	-0.021556	-0.567681	5.944742	1.162149	10.483042	31.446386	-128.461546	0.053482	0.264353	-0.389797	-0.947495	14.966863	0.033269	-3.97052	15.301319	24.670902	12.612961	-0.299109	-0.41838	-0.547353
-12.221872	-8.647956	4.855358	18.064589	339.607426	119.758115	1.266493	-0.019836	-0.477029	1.599039	-10.093095	13.43901	40.975443	-20.276135	52.745432	0.264718	-0.433614	-0.973184	10.625404	0.339575	-2.612951	0.370542	14.301332	-7.394275	-0.299038	-0.419206	-0.531825
8.87337	-2.400334	-7.778977	1.818396	257.488615	126.345476	1.282571	-0.123664	-0.425315	3.46397	2.12426	10.261946	26.391649	-15.286559	6.846712	0.251748	-0.373479	-0.962573	8.641309	1.104593	-1.329201	-5.42289	12.177348	-31.779074	-0.27136	-0.435817	-0.51532
37.086275	2.714291	-1.866586	1.883918	32.678537	54.21644	1.279928	-0.096464	-0.379259	3.522112	-0.07288	10.091387	36.930626	-19.856076	3.911887	0.277989	-0.432467	-0.987809	9.652442	1.510808	-0.829507	-9.658219	15.050442	-21.174374	-0.313364	-0.451795	-0.530221
18.458452	-0.681511	19.97746	22.428414	-128.334459	-71.443882	1.266564	-0.106333	-0.38957	2.423581	1.168344	9.956182	3.983271	-12.016402	2.514394	0.277914	-0.447788	-0.986806	10.135191	2.151283	-0.159009	-10.647557	14.66854	12.479588	-0.312875	-0.420236	-0.516368
11.42081	-10.212191	19.686737	13.254848	-126.152324	-123.824148	1.266564	-0.106333	-0.38957	3.286369	0.265345	9.860277	30.622279	-10.079254	11.248732	0.264793	-0.418294	-0.974187	10.018819	2.384352	-0.040407	-3.453151	13.966946	26.609701	-0.312387	-0.388678	-0.502514
6.170421	-10.91899	14.580556	-1.193353	-79.039255	-132.899233	1.279913	-0.079165	-0.396751	2.407673	1.900072	9.277123	17.327164	-8.68883	11.960922	0.251076	-0.451153	-0.943205	11.018367	2.090688	-0.262563	5.740142	12.959106	17.777539	-0.299665	-0.467784	-0.529314
10.098463	-8.411351	10.689401	1.657339	-101.780114	-127.415044	1.266507	-0.037135	-0.459537	2.579784	0.942035	9.166664	4.882285	-8.506247	11.459462	0.265904	-0.369117	-1.020248	11.96029	2.146109	-0.364522	9.267804	11.816567	-0.691024	-0.326925	-0.418788	-0.547494
11.547651	-7.789016	8.731148	5.072879	-179.079765	-116.558691	1.251629	-0.026518	-0.448528	2.832536	-0.071539	10.133519	2.506939	-8.289286	11.182249	0.29045	-0.419215	-0.960389	11.428949	0.810834	-0.559833	9.761024	11.46696	-17.010562	-0.299038	-0.419206	-0.531825
9.468623	-8.353454	10.677394	-4.899764	-259.04459	-92.635089	1.253101	0.004895	-0.522323	2.366685	1.450152	10.011849	-0.149189	-8.748776	5.934678	0.238616	-0.464405	-0.970625	10.543531	-0.058776	-0.699862	8.079221	11.955239	-26.35742	-0.313088	-0.417758	-0.562951
7.420535	-7.946976	11.321235	-8.287422	-319.278919	-54.944892	1.225975	0.016229	-0.563853	2.529148	1.111419	9.505435	-0.71086	-9.214422	5.713797	0.265384	-0.41615	-1.002887	9.370101	0.294111	-0.301039	8.461258	14.296913	-21.939215	-0.257732	-0.450979	-0.529941
7.92687	-6.340675	10.940041	-7.062615	-367.972513	-16.414181	1.281299	0.056044	-0.575497	2.707327	0.773302	9.735336	-8.83739	-9.52433	4.501869	0.252112	-0.417297	-0.988261	9.35566	0.348974	-1.079582	6.017418	18.350032	-12.415397	-0.299944	-0.48315	-0.544005
8.565779	-5.075245	11.469276	-8.701634	-412.762128	12.51997	1.21444	0.058601	-0.679527	3.100291	0.94116	9.290824	-10.600801	-9.702221	4.837793	0.29082	-0.402823	-0.975743	9.239694	0.407814	-0.961722	2.912206	22.644711	-5.762422	-0.313017	-0.418584	-0.547423
9.153373	-4.325542	12.279491	-6.101397	-448.317289	29.230252	1.200649	0.114402	-0.745729	2.65723	0.661033	10.07387	-11.971664	-10.580957	5.259551	0.290965	-0.432392	-0.988085	8.708974	0.699657	-0.910483	-2.64097	25.677406	-5.114989	-0.313572	-0.467988	-0.529384
9.549576	-4.154473	12.060597	-2.538597	-470.607234	35.726753	1.160159	0.115868	-0.797569	2.838688	-0.127633	10.41667	-10.034254	-11.290456	4.976599	0.239136	-0.417372	-0.987986	9.41016	0.870781	-1.255977	-6.96316	27.10106	-8.192815	-0.285485	-0.414871	-0.609394
8.904478	-4.559485	11.250717	-7.281232	-484.090029	36.012323	1.133418	0.113431	-0.835683	2.318875	0.774626	10.406549	-7.968994	-11.747016	3.771415	0.29067	-0.433464	-0.973735	9.290041	0.347625	-1.440124	-12.484107	26.3054	-13.02811	-0.285827	-0.466753	-0.544772
7.594846	-5.303824	11.563088	-21.79581	-489.63387	32.836701	1.105892	0.155835	-0.89812	2.713348	0.153856	9.961373	-4.570169	-11.816501	2.232045	0.27866	-0.354793	-1.007177	9.457186	0.344995	-1.975984	-13.204755	24.986125	-18.825412	-0.313297	-0.43395	-0.562114
5.348608	-6.913707	10.773815	-41.371026	-476.831021	30.984977	1.107735	0.190776	-0.985992	2.261071	0.267711	10.348273	-2.132819	-12.175148	0.843172	0.277549	-0.40397	-0.961117	9.981323	0.516524	-2.32478	-14.730008	22.303353	-23.207404	-0.34181	-0.48211	-0.575271
1.001347	-8.563293	13.751145	-81.276941	-423.314882	33.654211	0.995856	0.238956	-1.060409	2.940868	0.322322	9.853071	-1.833357	-12.306305	7.439375	0.225495	-0.434911	-0.958007	9.925744	0.459325	-2.146407	-16.315905	17.103291	-23.787994	-0.313576	-0.449316	-0.576805
0.20078	-9.94131	13.729765	-122.896254	-372.114929	43.404168	0.926754	0.237643	-1.097475	2.655136	0.491947	9.960448	3.652268	-10.972327	6.347226	0.251892	-0.403048	-0.974915	10.214357	0.399091	-2.500593	-14.452951	10.871515	-18.050706	-0.313368	-0.433124	-0.577642
3.281249	-6.67131	13.348823	-169.8737	-377.00072	39.719418	0.899599	0.283576	-1.173988	3.07253	-1.367288	10.477102	10.977987	-9.655428	16.169769	0.238396	-0.450156	-0.957279	9.860375	-0.123031	-2.569328	-11.45046	5.360578	-13.573667	-0.271782	-0.44953	-0.561066
1.681942	-8.597748	19.276788	-184.789195	-404.757482	5.612483	0.855723	0.305185	-1.15162	1.397328	0.501755	18.426166	-22.465566	-42.272128	-3.880814	0.252778	-0.399833	-1.017965	10.048137	-0.469667	-2.028348	-16.105214	1.023183	-12.802681	-0.327764	-0.464887	-0.591566
-1.914751	-8.120846	22.675494	-205.882157	-402.078961	-32.774788	0.79884	0.337754	-1.171131	3.60571	-0.409975	11.281743	5.233899	-71.100916	7.230512	0.239356	-0.43162	-1.001332	9.402956	-0.292965	-1.800084	-26.914411	-1.153737	-13.058744	-0.313368	-0.433124	-0.577642
-10.093693	-8.100644	25.869484	-229.46308	-374.596179	-79.628099	0.741229	0.345966	-1.144998	2.373705	0.551438	12.955141	9.208158	-80.011943	-1.54843	0.239212	-0.402051	-0.988989	9.292762	-0.34904	-1.383184	-30.403154	-1.374087	-13.656249	-0.244734	-0.496047	-0.58947
-17.820789	-3.49852	26.022733	-239.225581	-342.018842	-108.98916	0.683933	0.426905	-1.202908	2.955834	0.325275	13.250238	16.029919	-97.236607	-0.203551	0.186492	-0.450457	-0.956176	8.705922	0.117907	-1.152583	-33.384464	-1.402181	-11.964532	-0.272274	-0.462418	-0.622341
-28.548728	0.148878	30.716852	-265.410204	-305.069903	-91.405598	0.62705	0.459473	-1.222419	2.72009	0.663499	13.019129	20.350767	-112.292151	-2.569303	0.200284	-0.402277	-0.988162	8.82629	0.060056	-1.030815	-29.451167	-2.195152	-1.950928	-0.258012	-0.466345	-0.544631
-37.166658	5.274188	32.162078	-229.483843	-279.820434	-42.961499	0.581259	0.532638	-1.199639	2.75823	1.338647	12.171313	26.283274	-124.36016	-3.701763	0.16091	-0.434214	-0.970978	9.294018	0.057987	-1.261639	-23.717201	-4.440296	1.217548	-0.285623	-0.431889	-0.593029
-42.991804	8.543856	30.016659	-178.099014	-247.568664	18.080096	0.553775	0.523145	-1.2096	3.37431	1.449458	11.391751	26.491619	-132.302551	-4.088789	0.135769	-0.446469	-1.012472	8.58978	-0.694887	-1.158245	-21.30587	-6.931275	0.3955	-0.341046	-0.416513	-0.594147
-40.437308	15.26661	17.535162	142.679797	-128.892143	72.768785	0.540012	0.544347	-1.240819	3.281908	0.943553	12.408419	22.763012	-141.083361	-1.281205	0.120802	-0.438727	-0.912752	8.842216	-0.633642	-0.254992	-20.932757	-9.329891	-1.183668	-0.313505	-0.450143	-0.561277
-45.685607	22.74313	18.714859	-72.250624	-96.887248	72.159692	0.525534	0.523894	-1.208902	2.901595	1.1142	13.476252	20.514035	-154.969732	1.322728	0.120651	-0.469368	-0.910745	8.497193	-0.747007	0.217166	-19.502261	-10.49688	2.728793	-0.313852	-0.483354	-0.544075
-35.748595	28.418047	17.852288	-92.558734	-27.989421	44.948627	0.508742	0.586067	-1.19748	3.572481	0.38214	15.188121	19.526363	-176.516581	4.221546	0.133928	-0.408011	-0.915035	8.449337	-0.33762	0.876772	-17.798864	-10.191611	9.292501	-0.326858	-0.400943	-0.579386
-29.795979	29.702141	23.770188	-7.811008	49.407193	-21.042028	0.498051	0.5144	-1.218864	3.366959	0.72155	16.373002	19.087755	-203.692186	4.721985	0.043241	-0.438105	-0.925447	8.273929	-0.569272	0.932389	-18.739241	-6.961027	13.040057	-0.327209	-0.415483	-0.609605
-25.922228	30.556845	22.883022	88.05784	127.850634	-92.934273	0.468681	0.521864	-1.193429	2.945011	0.78026	18.175845	16.290013	-236.70223	4.731037	0.0296	-0.455645	-0.895468	8.51451	-1.091754	1.114286	-24.934366	-1.95365	11.754829	-0.341042	-0.435185	-0.546727
-26.720559	33.520659	17.310605	158.540528	224.378679	-158.104466	0.482801	0.521489	-1.193778	3.026646	0.837432	19.309894	17.403668	-275.444588	4.994677	0.043021	-0.423857	-0.912101	8.503775	-1.210379	0.514722	-32.643152	4.265416	8.146364	-0.299598	-0.449939	-0.561207
-9.435664	23.223213	16.921447	97.051269	197.44121	-98.916174	0.511428	0.506969	-1.191061	3.770513	0.894555	21.81659	15.980309	-319.561877	3.476632	-0.036091	-0.443915	-0.852044	7.370944	-0.513126	-0.042381	-42.435082	11.539363	5.365747	-0.285201	-0.418176	-0.547283
-3.638383	4.550768	17.012337	114.421407	148.626214	-12.573008	0.554147	0.526673	-1.223676	5.466669	1.291555	28.533036	14.40504	-373.563711	-1.715546	-0.088735	-0.477	-0.820234	7.470465	0.818891	-0.873191	-49.770322	19.030878	6.09011	-0.272132	-0.46407	-0.591285
2.423991	-0.478142	10.744054	59.690522	141.326946	31.686537	0.554933	0.481832	-1.199353	5.64534	0.791551	36.85863	-8.043872	-446.536153	-7.482365	-0.115793	-0.466117	-0.763288	7.323132	3.950322	-2.060179	-49.128586	23.832691	9.365865	-0.313785	-0.465509	-0.575968
2.067967	-0.135898	10.113437	41.018986	146.646895	4.6273	0.569039	0.498757	-1.217194	6.53923	0.450753	35.574978	11.879003	-518.169262	-18.133775	-0.193944	-0.467639	-0.747283	10.151296	5.453571	-2.060837	-43.919996	15.376578	21.308337	-0.299531	-0.432094	-0.5931
-1.117984	-2.025046	11.009621	54.72352	144.595838	-28.2932	0.612187	0.452791	-1.193918	6.023901	-4.003346	29.898809	30.879446	-552.516718	-25.271631	-0.194685	-0.500424	-0.716577	12.112284	4.871074	-1.368018	-18.222546	-1.029192	31.167428	-0.313647	-0.44849	-0.592333
-4.074877	-0.249965	9.141014	58.04884	132.483012	-12.581163	0.627408	0.480301	-1.253987	5.320967	-2.70683	29.432276	62.216302	-545.346322	-44.626521	-0.287728	-0.478883	-0.601856	13.480458	0.221886	-1.362487	5.904973	-16.334712	17.03032	-0.31323	-0.416105	-0.594007
-3.87437	0.043391	10.623742	46.631737	113.031643	21.053306	0.681246	0.506003	-1.209327	5.593075	-6.254708	31.076672	91.965916	-528.115578	-53.278607	-0.328653	-0.531501	-0.511919	13.199946	-3.202441	-1.023134	-31.308194	-33.504861	2.545178	-0.285694	-0.431063	-0.608557
-0.91813	-0.193114	9.600469	24.546472	98.317241	30.78188	0.65342	0.458382	-1.17023	-1.842622	-10.471026	24.689228	109.176122	-485.057495	-71.671565	-0.356005	-0.52169	-0.440623	11.943624	-1.38873	1.47641	-60.437753	-37.100848	-8.701254	-0.313856	-0.464683	-0.591496
-0.732093	-1.454057	10.280738	29.470356	81.514246	24.331334	0.640414	0.469342	-1.212108	-30.60148	-17.871316	2.961613	161.941725	-355.091648	-91.299908	-0.395964	-0.495562	-0.384404	10.448419	1.92226	0.804015	-19.819959	-27.947427	-7.48626	-0.299251	-0.416727	-0.578409
-1.427375	-3.306206	6.849582	0.971932	34.594577	6.907594	0.683161	0.454447	-1.20974	-34.438015	-6.281999	-22.07559	259.9981	-46.30043	-119.993498	-0.398036	-0.563275	-0.294291	10.225215	3.494561	1.704892	-12.831061	-20.619325	13.817439	-0.354532	-0.403004	-0.548471
-1.575108	0.433409	8.226401	27.67809	25.994294	1.140169	0.682804	0.433619	-1.178172	-9.48647	-19.925176	18.858933	-9.087871	163.104174	-41.408704	-0.398632	-0.625628	-0.275927	10.749603	3.085083	1.293717	-17.242579	-17.384697	36.683628	-0.326925	-0.418788	-0.547494
-2.335549	-0.993364	10.251491	15.799408	25.781102	4.237644	0.669426	0.44105	-1.205975	-13.407465	-12.315279	16.462115	-74.387656	181.993381	-82.42364	-0.398186	-0.593916	-0.292284	12.395641	1.104245	0.717055	-13.020686	-16.741476	41.006538	-0.326787	-0.401769	-0.563859
-0.865495	0.035646	9.375136	18.553833	18.188938	0.027534	0.669398	0.475649	-1.240959	-13.32072	-9.727576	12.67307	-83.145605	160.500406	-119.78492	-0.371424	-0.60587	-0.334881	13.092925	0.112366	0.007174	-8.659399	-14.613707	34.89672	-0.340416	-0.386607	-0.549238
-1.246477	-1.166235	10.328776	14.133961	17.687784	-0.949264	0.696924	0.433245	-1.178522	-13.631877	-7.643567	11.762546	-104.154818	197.256145	-118.480581	-0.358077	-0.589403	-0.35051	14.279966	-0.411783	0.326492	-4.397808	-11.392507	14.690406	-0.368023	-0.370823	-0.550216
-1.181801	-0.647614	10.730033	10.417181	16.224433	-0.809009	0.682032	0.461161	-1.185004	-16.096525	-7.525844	12.220414	-101.835079	281.634123	-99.084194	-0.331906	-0.603501	-0.364408	14.284097	-0.294642	0.566614	-5.779798	-10.489931	-8.01772	-0.326854	-0.419614	-0.531966
-1.313219	-0.363942	9.876216	12.194926	15.512037	0.401014	0.683547	0.440676	-1.206324	-13.972405	-7.415024	14.699533	-87.38032	363.677896	-70.668854	-0.279267	-0.630626	-0.406552	12.57568	0.291023	0.776802	-10.036009	-11.564892	-17.929081	-0.340624	-0.4028	-0.548401
-1.190792	-0.534661	10.275691	7.809172	14.624878	0.95124	0.711045	0.43287	-1.178871	-10.939956	-5.95676	14.028523	-64.367842	421.389858	-43.011201	-0.290101	-0.607878	-0.507728	10.929156	0.586667	1.106667	-8.415838	-13.302169	-17.957216	-0.326437	-0.387229	-0.53364
-1.37674	-0.939764	9.531571	6.641888	14.157794	1.008344	0.75455	0.407733	-1.187163	-8.325364	-6.188367	12.498035	-45.328259	458.0818	-19.233026	-0.250432	-0.574868	-0.539262	9.983662	0.646656	1.0294	-11.280042	-14.463824	-10.118082	-0.327134	-0.434981	-0.546657
-1.253116	-1.225124	9.987416	6.815674	13.593205	-0.626731	0.712545	0.429684	-1.217683	-6.447333	-5.629425	11.57553	-41.812347	470.885648	-6.494162	-0.159236	-0.61816	-0.566881	10.321522	0.525986	0.136905	-11.977162	-13.147526	1.3694	-0.354044	-0.371445	-0.534618
-1.533987	-0.993945	10.26708	9.717492	13.29032	-2.541436	0.683561	0.423376	-1.188833	-3.156332	-5.299543	9.436986	-54.2502	462.626946	-1.993172	-0.144853	-0.567837	-0.627567	10.564865	0.236549	0.499512	-12.345812	-10.816214	9.459121	-0.34125	-0.451377	-0.54589
-1.312432	-1.455331	9.871631	9.925115	13.87471	-5.200708	0.740401	0.442706	-1.221797	-0.976076	-4.68424	9.200249	-83.165159	438.665565	-3.765906	-0.091913	-0.53368	-0.673726	10.389612	0.411677	0.616766	-12.137792	-8.003054	9.597766	-0.340971	-0.436011	-0.531199
-1.767293	-1.22451	10.034248	17.290504	12.778296	-8.490666	0.709902	0.456884	-1.171627	1.000059	-4.461823	10.147775	-117.77524	411.359505	-10.786379	-0.064636	-0.558811	-0.744019	10.163316	0.472518	1.151773	-10.476745	-6.316536	0.872916	-0.326504	-0.405074	-0.501747
-1.659755	-0.82395	9.697046	17.868994	9.65694	-12.162105	0.725165	0.432495	-1.17922	2.42457	-2.26567	12.387583	-146.798312	388.050348	-24.821712	-0.011626	-0.569544	-0.801517	9.633292	0.938836	1.263661	-8.705706	-3.890084	-11.339156	-0.3126	-0.386199	-0.549098
-0.901919	-4.773197	13.161796	-4.459367	20.103664	-10.179835	0.697667	0.440301	-1.206674	3.013827	-3.446878	15.625924	-148.761516	378.206881	-39.132232	0.092482	-0.507662	-0.807738	8.91838	1.461904	0.953146	-6.267789	-2.522719	-18.505368	-0.368228	-0.405687	-0.501958
-0.950469	-1.126994	19.598057	36.572084	64.337689	19.094796	0.696553	0.429716	-1.164446	4.677142	-1.534861	15.549316	-186.864191	373.700672	-69.570142	0.10679	-0.472659	-0.86742	9.044116	1.463365	1.374696	-3.693491	-2.638925	-21.172684	-0.3409	-0.436837	-0.515671
-1.368086	-2.763859	12.820215	28.969301	90.533518	22.670235	0.726294	0.425781	-1.203956	2.7523	-3.048598	19.583775	-219.512588	380.922733	-67.582515	0.146458	-0.439649	-0.898954	9.15458	1.403288	0.957301	3.762928	-0.646201	-24.967732	-0.367952	-0.371649	-0.534688
-0.641036	-1.089625	14.944139	30.124813	103.413234	30.726013	0.741186	0.397864	-1.197474	3.000076	-2.482629	23.156171	-239.230485	389.42043	-34.34603	0.224904	-0.437055	-0.929307	9.498368	1.574481	0.425483	16.672326	-1.470694	-8.814407	-0.340274	-0.38826	-0.518182
-1.073077	-0.981207	13.344941	40.810997	120.400562	32.596495	0.753792	0.417975	-1.176503	7.617018	-1.418065	26.594312	-249.176993	380.994092	23.733989	0.290525	-0.403895	-0.961393	8.908051	1.169052	0.352841	26.91283	-2.143676	9.520061	-0.353764	-0.356079	-0.519927
-1.141964	-0.29428	12.778192	44.873485	131.890397	34.243358	0.795797	0.396024	-1.145982	15.478923	-0.361068	28.402173	-245.99956	347.404072	85.927996	0.367871	-0.330058	-0.925016	8.441404	0.706513	0.581688	33.719804	-2.845826	14.694953	-0.353973	-0.372271	-0.51909
-1.107808	0.849685	11.64707	44.076707	138.524369	31.348638	0.769442	0.379816	-1.18068	21.756455	7.734769	24.012023	-245.429739	298.372574	120.961165	0.408796	-0.277441	-1.014953	8.336266	-0.103809	1.175094	35.706801	-1.656704	9.822107	-0.340203	-0.389086	-0.502655
-0.369482	1.422355	11.379693	40.566674	142.280203	21.086339	0.853065	0.349684	-1.123056	33.050289	17.121979	25.61624	-279.03769	245.269607	120.096765	0.420811	-0.295902	-0.971176	7.882399	-0.854009	2.06168	29.698992	1.0092	1.364844	-0.367952	-0.371649	-0.534688
-0.952789	0.903383	10.797855	31.553345	144.155241	9.183368	0.796211	0.347654	-1.107583	44.245474	-0.096061	71.410584	-266.619964	209.434086	84.598636	0.486808	-0.18614	-1.008279	8.353138	-1.20404	1.949187	25.232379	3.654428	-1.596201	-0.395906	-0.389076	-0.518463
-1.607587	-0.582845	12.370106	24.184632	147.197116	0.697946	0.853065	0.349684	-1.123056	44.885628	25.936326	17.493686	-78.127339	163.931601	64.101778	0.499784	-0.186065	-1.008555	7.992013	-1.495341	1.522	28.471744	6.954367	-6.055161	-0.354603	-0.402178	-0.563999
-2.135876	-1.721852	14.571415	26.726649	157.389694	-0.46234	0.88092	0.362706	-1.12717	56.898432	23.654958	11.289955	72.214734	157.169506	-11.284888	0.524995	-0.218699	-0.9784	7.796142	-0.976207	0.562413	32.08208	11.716743	-6.854992	-0.38186	-0.371853	-0.534758
-2.914215	-3.037602	15.687338	38.332325	176.040302	6.462377	0.880534	0.376477	-1.130586	55.946781	14.524521	3.619001	112.848042	92.197622	-56.534732	0.525441	-0.186986	-0.994757	8.18572	-1.272971	-0.749072	37.808271	14.929449	-2.00117	-0.340412	-0.405279	-0.501817
-2.847146	-2.748264	16.201336	55.389858	197.537645	16.330622	0.923696	0.313213	-1.089818	48.362141	18.987375	1.821832	53.598257	-23.071626	-49.005293	0.590095	-0.232573	-0.993124	8.698584	-0.987762	-1.696442	41.153462	16.531512	3.969442	-0.353764	-0.356079	-0.519927
-2.045092	-1.88698	16.277398	67.398928	221.800767	23.80476	0.965329	0.287733	-1.045222	33.154663	25.954067	12.43512	78.673227	-148.868296	35.558109	0.577124	-0.172438	-0.982513	9.347937	-0.117613	-1.560815	40.045402	16.309503	10.270826	-0.353973	-0.372271	-0.51909
-0.613411	0.754777	16.430041	66.853748	245.696816	25.820155	1.008434	0.293666	-1.074422	-8.565252	-2.369381	-1.091036	158.575663	-205.445157	107.670931	0.525585	-0.216555	-1.007099	9.630892	-0.585863	-2.276173	35.560442	12.002982	14.006088	-0.354737	-0.437868	-0.500214
-0.332432	1.282924	19.108762	57.127164	274.178722	22.907821	0.97905	0.318429	-1.066479	-1.259619	12.275592	13.625158	122.935151	-180.353221	102.217942	0.447724	-0.277216	-1.01578	9.76134	0.230146	-1.491721	24.006839	4.107413	10.387144	-0.382344	-0.422083	-0.501191
-1.849942	1.474985	23.455997	47.600927	310.835935	18.962679	1.021454	0.265407	-1.015051	1.819004	1.459426	19.398307	107.867028	-142.008552	71.16752	0.473305	-0.293458	-1.000978	9.650126	2.033245	-0.887189	12.979885	-1.71271	-1.465092	-0.354812	-0.41837	-0.563162
-1.773753	-0.072118	24.360244	61.890996	356.643095	18.56299	1.091314	0.256478	-0.988646	-0.487279	5.958542	6.106123	109.597089	-187.222651	28.141897	0.433712	-0.311147	-0.970448	9.23966	2.790167	-0.652051	14.005417	0.721866	-14.713293	-0.312805	-0.421063	-0.50084
-1.033162	-2.91343	18.224989	78.554591	388.265942	21.666777	1.103948	0.24199	-0.932691	4.852344	1.33562	13.234346	47.764999	-201.519857	14.662647	0.40798	-0.325546	-0.983242	10.598381	2.206301	-0.629213	8.755643	13.648154	-12.341758	-0.32685	-0.438286	-0.484545
-3.121615	-5.215872	16.69707	84.335534	406.156413	29.484461	1.118126	0.172418	-0.863073	6.228493	0.37513	12.922716	58.728182	-148.654899	34.557608	0.40783	-0.356187	-0.981235	11.655919	0.459612	-1.096077	-6.844478	28.079713	0.756742	-0.382277	-0.404238	-0.533084
-1.309526	-5.841052	18.605086	78.587082	421.717334	45.789981	1.173151	0.122208	-0.773183	2.296338	0.548403	9.330206	61.683552	-130.761201	25.766259	0.342799	-0.387203	-0.977849	12.660234	-0.937002	-1.203117	-6.794827	29.323947	13.58777	-0.354324	-0.386811	-0.549308
-3.998957	-6.413279	18.607192	95.364892	429.652255	61.843651	1.20102	0.11793	-0.759805	2.703724	1.392843	9.622578	68.714273	-140.211714	11.064964	0.330639	-0.339173	-1.009284	12.000146	-1.925776	-1.938307	4.41422	19.823549	19.094545	-0.326366	-0.388056	-0.518112
-4.674475	-7.239482	13.305341	96.236587	435.286256	79.467451	1.242296	0.071623	-0.683641	4.032456	1.446884	9.876989	53.516807	-133.854064	4.148645	0.330339	-0.400454	-1.005269	9.707165	-2.325312	-1.563607	-1.438596	12.198705	3.04407	-0.354808	-0.437041	-0.515741
-7.674473	-6.552854	12.113274	77.04786	411.257053	98.963242	1.283171	0.056386	-0.628385	3.409746	0.378122	10.259267	43.424512	-119.679881	-5.737756	0.277769	-0.418219	-0.974463	8.289062	-0.637372	-1.463034	-7.600906	8.960298	-8.348432	-0.395768	-0.372058	-0.534828
-9.054653	-7.669628	5.887205	63.256193	366.384819	107.314424	1.311427	0.038337	-0.611592	-3.216512	-4.175209	6.719234	-0.767035	-14.788754	-33.060699	0.316998	-0.356712	-0.979305	8.047016	0.988803	-1.580327	-9.413579	8.444753	-6.444621	-0.382348	-0.403412	-0.548612
2.918686	-4.899002	-2.165462	26.990511	299.752597	116.142302	1.32449	-0.04182	-0.499746	1.990987	2.125627	8.645815	28.676505	-22.445863	8.781225	0.265609	-0.370189	-1.005898	9.282709	2.55402	-1.550543	-9.893255	9.541565	5.654744	-0.354182	-0.388464	-0.518253
33.393606	1.651792	-9.274015	51.014437	98.884695	59.259056	1.308111	-0.028016	-0.449925	3.33595	1.278949	9.579142	21.125029	-24.906285	-4.844556	0.264203	-0.420437	-0.945488	10.055422	2.5535	-1.236702	-7.352263	11.861867	15.843345	-0.368023	-0.370823	-0.550216
33.22742	-6.520179	14.045608	24.65906	-112.764159	-36.224575	1.279856	-0.009968	-0.466718	3.177498	0.153136	10.140963	-11.837431	-15.28393	-2.155039	0.316847	-0.387353	-0.977298	11.121439	2.842439	-0.976031	-6.212029	13.885333	12.834052	-0.340486	-0.385781	-0.564766
11.474574	-14.636678	19.328151	35.244974	-141.266748	-102.71243	1.293977	-0.010342	-0.467067	2.925715	0.659736	9.173681	11.533861	-13.332668	2.754008	0.290305	-0.389647	-0.948047	11.844303	1.740094	-0.308547	-5.970609	13.020045	1.925716	-0.340136	-0.371241	-0.534547
5.863009	-15.576855	13.304674	42.224346	-83.748561	-95.752434	1.295863	-0.027299	-0.502463	2.197115	-0.18311	10.006847	-3.937683	-13.239162	0.615343	0.290896	-0.387503	-0.976746	11.784362	2.611616	-0.246032	-2.1417	11.587973	-6.180342	-0.367676	-0.337612	-0.567418
9.10174	-12.392248	6.390953	-8.439094	-92.726417	-75.869406	1.310326	0.010453	-0.551872	2.251854	0.661693	9.952128	4.086613	-13.637986	2.159243	0.238326	-0.405267	-0.94594	11.965927	2.089269	-0.065235	1.19595	7.23161	-9.716709	-0.367956	-0.352978	-0.582108
13.368679	-10.275568	5.175772	-54.500544	-173.880873	-59.721134	1.281314	0.038744	-0.558005	2.531782	0.998853	9.61862	-1.034068	-13.147421	1.605093	0.251597	-0.40412	-0.960566	11.015316	1.508938	-0.504663	1.097243	5.50095	-13.955931	-0.381793	-0.354008	-0.566651
12.195602	-9.796306	9.587747	-83.90503	-260.750403	-45.18723	1.281685	0.042273	-0.572081	2.939097	-0.015756	9.739507	-1.832372	-12.81685	1.083658	0.238326	-0.405267	-0.94594	9.553077	0.58557	0.062939	-1.481025	5.434966	-17.338334	-0.38158	-0.356487	-0.520067
11.489189	-8.293844	11.569404	-97.006395	-318.908157	-31.737941	1.281671	0.059572	-0.589573	2.944495	0.322464	10.02299	1.047489	-12.344613	0.104171	0.277624	-0.38865	-0.962121	8.836815	1.689399	-0.245103	-0.476785	7.454344	-17.04602	-0.409884	-0.388454	-0.534061
11.724509	-6.224426	11.980517	-102.600559	-364.761883	-23.755032	1.2835	0.111812	-0.694936	2.477257	0.041389	9.673244	-0.051955	-11.433276	-0.720011	0.265094	-0.357012	-0.978202	8.670035	0.58809	0.166247	-2.569615	10.520231	-9.565963	-0.409538	-0.355243	-0.551263
11.2347	-4.495016	13.342209	-100.996575	-401.625375	-24.449944	1.242653	0.09245	-0.715209	2.994699	0.378402	9.684409	2.392176	-11.183614	-1.332123	0.291266	-0.37111	-0.9921	8.8372	1.050315	-0.307729	-1.168958	13.549829	-0.325307	-0.353768	-0.337408	-0.567347
10.755818	-2.475987	15.273638	-97.252158	-427.231081	-29.170444	1.21627	0.110841	-0.78489	3.06567	0.322486	10.308606	3.640747	-10.270744	-2.524332	0.290525	-0.403895	-0.961393	9.552557	1.282729	0.125813	0.89565	15.457024	2.317106	-0.340486	-0.385781	-0.564766
9.774657	-2.41953	14.856979	-89.665751	-446.006545	-34.772836	1.187614	0.15996	-0.822591	2.359278	0.266832	9.557737	4.734226	-9.277099	-2.297777	0.264718	-0.433614	-0.973184	9.1851	0.873793	-0.66131	-2.027443	15.524795	-2.287626	-0.382072	-0.369375	-0.581341
8.402902	-2.590377	14.943237	-83.450551	-459.63668	-38.600825	1.089442	0.256135	-0.935758	2.539012	0.379454	9.901296	7.705106	-8.640025	-0.161919	0.302911	-0.405964	-0.932969	10.105128	0.401338	-2.023539	-0.718909	16.490612	-12.412691	-0.354186	-0.369793	-0.565673
6.751265	-2.357479	15.366736	-88.281615	-466.13804	-40.226172	1.092143	0.159738	-0.911847	2.763791	0.716816	9.679858	7.515974	-7.974415	10.264548	0.29023	-0.404967	-0.947043	10.295652	0.287748	-1.30185	-4.887606	15.856484	-29.4458	-0.340416	-0.386607	-0.549238
4.650341	-3.443716	16.173748	-98.682255	-459.858597	-36.137287	1.049695	0.264658	-1.01575	4.448726	-1.088412	10.279795	12.364669	-5.440579	12.020056	0.252043	-0.372407	-0.976923	10.588262	0.402731	-1.415667	0.711543	15.213811	-36.368398	-0.40975	-0.352764	-0.597847
0.54502	-5.390367	16.881316	-100.327967	-429.377283	-20.393417	0.966444	0.298318	-1.08745	1.972359	1.458343	18.4957	-7.960442	-56.997576	6.065284	0.238841	-0.418444	-0.973636	10.58361	0.982749	-1.592915	-3.6529	14.178131	-32.375574	-0.396606	-0.418156	-0.5789
-1.393955	-6.766107	17.178784	-119.864101	-392.290868	5.168051	0.922925	0.340755	-1.09665	3.7184	-1.029969	11.11372	2.671685	-73.604316	5.107232	0.225645	-0.40427	-0.960014	10.408472	0.634945	-1.537793	-6.311752	12.229555	-25.298254	-0.341046	-0.416513	-0.594147
1.13336	-5.674611	17.687187	-147.988621	-386.462534	11.752781	0.841188	0.353929	-1.189671	2.357535	0.15646	12.161855	10.79376	-83.984997	-0.754285	0.212229	-0.375848	-0.933046	10.224956	0.575791	-1.900783	-8.254293	10.949714	-23.482256	-0.396047	-0.387424	-0.549519
0.681301	-4.696326	18.0235	-167.247038	-409.77052	4.19269	0.797683	0.379067	-1.181379	3.220262	0.549157	12.18032	11.792812	-97.888689	-2.556369	0.212814	-0.433914	-0.972081	10.169491	-0.00434	-1.784542	-12.893324	9.593996	-24.131244	-0.368511	-0.402382	-0.564069
-4.997847	-3.118541	23.261744	-196.82935	-415.206808	-11.727472	0.769013	0.445485	-1.236571	3.258486	0.548291	11.275295	19.988315	-107.061639	-5.50792	0.212299	-0.420738	-0.944385	9.698732	-0.119164	-1.733933	-20.011347	9.68507	-23.555876	-0.396051	-0.368753	-0.596939
-12.001689	0.067113	28.140015	-218.760761	-389.706787	-26.893057	0.741515	0.453291	-1.264025	2.978366	0.943475	11.66606	23.062604	-113.266507	-7.848352	0.199618	-0.419741	-0.958459	8.936174	-0.697428	-1.57099	-19.707219	8.734931	-17.349195	-0.340837	-0.400321	-0.594984
-21.21477	3.476871	31.271346	-200.559268	-356.250211	-32.65974	0.682732	0.520116	-1.265631	2.85937	0.436526	11.436657	23.669675	-118.937054	-7.565105	0.160841	-0.389325	-0.959639	8.535301	-0.751839	-0.919965	-22.263057	6.798112	-8.407256	-0.368444	-0.384537	-0.595962
-51.91126	-79.109836	82.382821	-189.126022	-323.510048	-2.931528	0.599881	0.522706	-1.316424	3.721773	0.998215	11.455265	23.891403	-125.605795	-5.565733	0.186052	-0.42196	-0.929484	8.481362	-1.041095	-0.682674	-22.241943	4.739746	-1.612823	-0.368511	-0.402382	-0.564069
-52.512726	17.594628	8.899192	422.112782	-112.174667	-98.844459	0.597952	0.591561	-1.333503	3.162504	1.281609	12.236367	22.733139	-133.94788	-3.799882	0.109082	-0.419194	-0.970879	7.894792	-0.6903	-0.452567	-18.883187	3.140654	0.36922	-0.382419	-0.402586	-0.564139
-55.851519	6.46017	10.378569	32.606185	-115.091694	-6.748252	0.558634	0.534414	-1.357604	3.551069	0.831978	14.225628	21.989194	-148.461387	-0.831051	0.134889	-0.389475	-0.959088	7.717649	0.297892	-0.331852	-17.112523	0.882808	0.434708	-0.354745	-0.400525	-0.595055
-52.363903	24.968092	13.877413	-103.680356	-101.643786	26.031187	0.513614	0.580037	-1.327992	3.445154	0.438212	14.619355	24.692205	-168.967349	0.385506	0.069488	-0.436883	-0.940348	8.191574	0.471535	-0.202493	-15.074147	-1.755678	4.871629	-0.368582	-0.401555	-0.579597
-42.173873	27.615612	17.041961	-18.111183	-34.778909	4.608418	0.500594	0.608296	-1.387362	3.36538	-0.348872	16.202182	25.390853	-194.391024	-1.74697	0.095145	-0.437805	-0.92655	8.836505	0.87584	-0.368378	-12.3182	-1.547847	12.349075	-0.368094	-0.369997	-0.565743
-37.85449	25.594771	15.412548	35.164584	55.210298	-27.420597	0.501352	0.598053	-1.398023	3.872702	-0.798576	18.363779	31.353048	-226.019912	-3.135258	0.054816	-0.428069	-0.854978	8.899187	-0.227493	-0.312068	-11.844997	0.730985	11.022158	-0.355162	-0.43291	-0.59338
-40.141244	25.482269	15.538085	79.862075	149.012821	-77.009804	0.45899	0.599177	-1.396975	3.961136	-1.135482	19.780693	41.518784	-264.895185	-6.842466	0.054301	-0.414893	-0.827282	8.723489	-0.807848	-0.317842	-13.050582	4.613765	4.864465	-0.396331	-0.384119	-0.61163
-26.247343	11.929887	5.521739	111.197033	195.158998	-73.342454	0.486088	0.622442	-1.390429	4.458379	-0.74056	21.546524	49.722607	-305.262506	-13.062962	-0.022524	-0.441696	-0.881019	8.238964	-1.15819	-1.047011	-21.351305	7.643828	4.788377	-0.38249	-0.40176	-0.579667
-6.824598	2.751571	12.055362	113.922176	102.772332	-11.200983	0.55822	0.582784	-1.396004	6.054637	-0.964796	26.222213	45.222785	-351.50431	-21.108926	-0.062703	-0.401319	-0.811454	7.230478	-0.808428	-1.303863	-35.118179	9.837722	9.748683	-0.381726	-0.336163	-0.598543
3.724715	-3.457569	12.74586	25.870019	76.122871	21.402334	0.529593	0.597304	-1.398721	9.22923	-1.134663	32.063383	34.833636	-411.660625	-29.852263	-0.128254	-0.479369	-0.790708	6.753873	0.644306	-1.366393	-44.597186	10.518213	11.674835	-0.354119	-0.351948	-0.597566
4.28208	-2.484614	12.022007	63.799957	122.39835	1.315345	0.547128	0.542188	-1.438295	6.660733	-1.469326	30.310718	40.625016	-463.207167	-48.083555	-0.141965	-0.452018	-0.74939	8.471349	2.791675	-0.726263	-51.171212	7.559749	14.494283	-0.382143	-0.368548	-0.596869
-0.54833	-1.106878	10.91091	91.790376	130.459959	-28.96727	0.589118	0.537536	-1.425267	6.0619	-1.748465	31.883092	56.88231	-489.471772	-53.355338	-0.194604	-0.424893	-0.707245	9.887838	5.112712	-0.390429	-35.610693	-3.202681	34.236747	-0.368097	-0.351326	-0.613164
-3.973652	1.183337	8.52389	81.963867	108.157297	-30.40591	0.603639	0.506091	-1.404708	6.415656	-3.835535	29.397657	107.918494	-503.54873	-68.064552	-0.235158	-0.461119	-0.632662	11.662394	3.831236	-0.302948	2.003141	-14.875221	34.278486	-0.395913	-0.351734	-0.613304
-4.191789	3.081727	9.152783	51.133882	82.730211	7.269645	0.616974	0.550557	-1.429381	7.701836	-7.836899	29.987282	128.621073	-495.064595	-69.474158	-0.300848	-0.449389	-0.589238	12.720951	0.225372	-0.957444	-4.640803	-28.457292	17.493193	-0.368164	-0.369171	-0.581271
-6.039586	-1.458929	8.131586	-7.331136	42.950334	17.340312	0.631123	0.515584	-1.394746	-0.829216	-11.598188	26.2381	151.198235	-469.455364	-90.439273	-0.328427	-0.48554	-0.51493	13.466094	-0.98818	0.907683	-34.350706	-38.87653	6.402337	-0.367747	-0.336786	-0.582945
-0.343602	-1.399559	9.66339	10.820532	27.708498	-2.432937	0.631494	0.519113	-1.408822	-25.527481	-21.31453	5.839236	170.239002	-366.012959	-124.935284	-0.382032	-0.53716	-0.439068	11.585186	0.005658	1.415834	-32.371901	-37.266225	5.134346	-0.381931	-0.371027	-0.550286
-2.349657	0.037688	9.573597	15.084052	27.247991	-0.735275	0.658978	0.528606	-1.398861	-41.722208	-10.55344	-26.761476	311.827629	-82.764127	-142.412048	-0.370533	-0.542445	-0.367595	10.628904	1.864521	0.98679	-9.893625	-30.820524	7.620134	-0.354119	-0.351948	-0.597566
-0.906498	-0.88	10.166104	-1.718361	20.67758	-0.057669	0.65975	0.501064	-1.392029	-15.182287	-23.071494	15.905824	-28.722262	165.340577	-27.931298	-0.370388	-0.572014	-0.379937	10.513653	2.562692	1.227183	-7.296546	-22.122656	13.223811	-0.381517	-0.319971	-0.599381
-1.837541	-0.193175	9.412094	6.7456	17.316665	-1.0567	0.63038	0.508528	-1.366595	-17.922052	-18.612593	20.041665	-75.315113	193.23317	-65.328742	-0.383144	-0.586337	-0.393008	11.857394	2.265992	0.472468	-9.088941	-17.109605	27.664977	-0.395425	-0.320175	-0.599451
-1.544091	-0.881233	9.755884	2.787731	16.058932	-0.176376	0.661607	0.518706	-1.462409	-17.389951	-13.153275	15.811593	-89.919259	172.241977	-92.119045	-0.343776	-0.614609	-0.420527	13.860311	0.982245	0.145002	-7.685536	-16.238012	23.712311	-0.409191	-0.322032	-0.568465
-1.362596	-0.477095	10.272592	2.990368	15.499705	-2.271483	0.673856	0.517989	-1.40987	-18.927144	-11.574688	14.025661	-108.457913	209.562308	-83.748599	-0.329544	-0.594926	-0.479205	14.147938	0.398832	-0.331223	3.135046	-15.026144	4.869015	-0.42282	-0.30687	-0.553845
-1.371131	-0.995999	9.815595	-1.705622	14.902982	-3.065043	0.672741	0.507404	-1.367642	-20.313633	-10.896277	13.827298	-98.688713	301.545193	-62.419615	-0.28951	-0.605734	-0.536428	12.985722	-0.756527	0.48052	2.966695	-14.450979	-15.334336	-0.395145	-0.304809	-0.58476
-1.193433	0.039272	10.164398	-0.386031	15.311058	-3.276889	0.633009	0.498627	-1.430143	-16.65636	-11.127204	15.319259	-87.146848	392.256266	-38.048724	-0.301456	-0.632162	-0.591544	11.215257	-0.287621	0.509392	-6.523252	-15.842651	-28.952517	-0.366979	-0.289861	-0.554401
-1.489188	-0.709432	9.644016	-4.650539	15.33511	-4.429631	0.688348	0.521143	-1.424295	-13.221946	-9.782402	14.599978	-75.225051	449.264321	-19.314161	-0.235094	-0.566218	-0.654336	10.100189	0.820367	0.972436	-6.11145	-16.389863	-26.170788	-0.380958	-0.289239	-0.569999
-1.537534	-0.707461	10.097727	-5.305435	15.615143	-7.704782	0.672727	0.524703	-1.385134	-10.245206	-8.661965	13.984114	-80.106331	482.102062	-5.11835	-0.194621	-0.605523	-0.738251	9.451706	0.996328	1.020979	-9.278373	-16.876956	-12.680862	-0.381167	-0.305431	-0.569162
-0.74183	-0.307156	9.830739	-0.725202	14.747037	-10.584351	0.658592	0.542377	-1.402277	-6.984266	-7.54221	13.204377	-92.799852	497.648732	0.606345	-0.128115	-0.569147	-0.813385	9.756556	1.055954	1.565891	-12.813167	-16.996767	0.657285	-0.36733	-0.304401	-0.58462
-0.972127	-0.077466	9.770398	3.105783	13.758345	-16.684196	0.702097	0.51724	-1.410568	-3.829433	-6.083876	12.875622	-107.862197	496.259963	-3.180637	-0.035587	-0.577511	-0.90041	10.518669	0.878734	1.279921	-13.933059	-17.378695	10.596547	-0.395425	-0.320175	-0.599451
-1.883625	-2.418836	12.811641	-18.139813	17.493763	-24.10755	0.658978	0.528606	-1.398861	-0.574509	-4.736651	14.530368	-134.432447	476.573469	-12.89323	0.030399	-0.588169	-0.958184	10.448108	1.108701	0.68074	-13.703447	-16.845331	12.335413	-0.422402	-0.274485	-0.555519
-1.78699	-0.247337	23.677283	8.310076	74.592718	8.272635	0.646015	0.487668	-1.388264	2.387514	-3.8961	15.895445	-154.86847	450.397173	-28.738204	0.10929	-0.553862	-1.004895	10.458302	1.45963	1.281292	-9.830716	-16.252982	3.699274	-0.4094	-0.338224	-0.567628
-1.298625	-2.703805	13.446954	11.363652	103.711166	13.061122	0.71586	0.496037	-1.37935	5.006516	-4.294173	17.252225	-186.013366	420.355577	-50.147478	0.161489	-0.55249	-1.020348	10.336834	1.517234	1.099618	-1.536137	-16.793311	-12.189781	-0.422469	-0.29233	-0.523626
-0.848897	-1.084875	16.019894	16.5949	121.057527	21.668886	0.702111	0.49994	-1.393077	4.757634	-3.165411	19.172875	-219.905159	396.382688	-65.456029	0.293767	-0.452314	-1.129575	10.167198	1.170666	1.454275	6.197672	-15.989215	-31.106209	-0.394795	-0.290269	-0.554541
-1.018915	-1.326621	13.174047	28.288331	137.311564	23.494006	0.699854	0.513369	-1.343605	2.814467	-3.947515	22.414996	-255.347512	393.468303	-62.554441	0.372514	-0.388438	-1.163944	9.937061	1.46307	1.81055	18.068748	-15.411598	-20.762725	-0.381375	-0.321624	-0.568325
-1.071922	-1.038407	13.401553	31.029047	148.650981	24.253093	0.700997	0.489355	-1.350849	2.541737	-3.380671	25.863233	-287.450134	401.612625	-22.672566	0.475731	-0.389982	-1.13745	8.98618	0.998891	1.371617	26.40397	-15.041539	8.452558	-0.409258	-0.339877	-0.536573
-1.046301	-0.413347	11.813434	37.247349	158.080342	24.173867	0.758208	0.512213	-1.397889	9.085902	-2.825596	30.586913	-301.354836	388.803753	38.475806	0.593116	-0.266743	-1.147961	8.980077	-0.164607	0.887418	31.352598	-14.203572	26.740376	-0.367255	-0.323898	-0.521671
-1.12393	0.041884	10.790895	33.397626	162.472094	19.963418	0.75635	0.494572	-1.32751	19.216604	-1.546531	33.574903	-285.236979	344.033587	99.707245	0.632646	-0.143955	-1.156817	8.755226	-1.672313	1.295936	33.938014	-12.443017	28.923624	-0.408979	-0.324511	-0.521882
-1.407193	0.502348	10.957818	28.295895	164.11868	13.534597	0.826581	0.48917	-1.31518	35.303445	-115.773209	16.71453	-474.377401	14.250361	202.598879	0.735498	-0.101681	-1.104635	7.746854	-1.845482	0.976952	37.766032	-8.621842	18.589871	-0.380675	-0.292544	-0.507888
-0.886833	1.192479	11.255	23.652898	170.435361	7.180153	0.842602	0.454539	-1.333433	39.544545	28.648542	15.515636	-161.743752	151.740401	160.056685	0.734694	-0.029366	-1.052254	7.525771	-2.132108	1.750104	33.978979	-2.937467	5.891618	-0.408841	-0.307492	-0.538247
-1.311873	0.223301	12.89073	9.382533	180.322274	1.647273	0.856366	0.433337	-1.302215	51.877159	28.848984	13.736716	-116.396402	171.221616	154.36627	0.69473	-0.063448	-1.00637	7.401291	-1.726542	1.450099	26.522302	3.575827	-2.425682	-0.380958	-0.289239	-0.569999
-1.792515	-1.492334	14.579062	12.082763	195.853813	0.880074	0.88385	0.442831	-1.292253	55.915602	28.388743	11.499945	-114.642209	165.92718	77.011065	0.745609	0.023416	-0.941746	7.797242	-0.97596	0.62232	30.614142	9.076575	-6.439782	-0.408703	-0.290473	-0.554612
-2.809396	-3.499388	15.175957	27.070058	215.708535	8.366632	0.939189	0.465346	-1.286406	59.180242	16.833326	9.746664	-27.874175	110.218126	-6.345353	0.744428	0.019128	-0.884347	7.952147	-0.923233	-0.572269	36.450054	12.315525	-4.092566	-0.380816	-0.290891	-0.538943
-2.503205	-3.322929	16.205604	45.227947	236.780898	17.948761	0.965944	0.450484	-1.2308	52.230559	21.797344	2.698155	21.501002	8.201611	-45.144472	0.744277	-0.011513	-0.88234	8.894495	-0.577185	-0.613086	39.831152	12.728069	4.511968	-0.35293	-0.291309	-0.523275
-2.649115	-2.110742	17.571805	57.705574	263.931371	30.589193	1.009063	0.439117	-1.242508	37.130729	26.113427	10.027744	35.651742	-102.938606	9.096569	0.704389	-0.030274	-0.83746	9.113918	-0.523357	-1.50704	46.638016	10.474213	11.833645	-0.394724	-0.291095	-0.539014
-1.719237	0.361959	18.395941	54.557352	294.821042	37.141094	0.995356	0.391122	-1.203759	22.780874	32.737897	17.658191	115.036816	-201.157388	109.066031	0.691563	0.000292	-0.839192	9.053531	-0.407318	-1.567553	49.720345	5.268568	13.436758	-0.394516	-0.274903	-0.539851
-1.009682	4.675125	19.735022	58.136798	330.46393	32.988797	1.049595	0.385753	-1.138192	-0.763173	8.71522	1.517012	105.373496	-211.229064	104.672184	0.691488	-0.015028	-0.838188	8.526247	-0.172809	-1.336841	46.196346	-1.720856	10.76252	-0.367468	-0.321419	-0.568255
-1.297109	1.010696	22.441845	58.248743	362.970782	24.747912	1.120198	0.38388	-1.139938	-1.962647	11.093376	12.92998	127.227163	-176.038859	122.09117	0.627274	0.002061	-0.866512	7.65149	0.528848	-0.691405	39.603366	-8.814632	5.318581	-0.381096	-0.306257	-0.553634
-0.887243	-2.319756	22.776762	58.95584	395.37587	19.937751	1.134004	0.31078	-1.056244	2.150441	6.518894	8.426582	144.861594	-194.404398	49.618633	0.58753	-0.04627	-0.833975	6.129796	2.162196	0.18551	38.727847	-12.744412	-2.422553	-0.40849	-0.292952	-0.508028
-3.743439	-5.188795	22.936435	58.440332	429.584973	28.345898	1.161831	0.358401	-1.095342	2.513742	3.476874	8.997671	56.20447	-236.226481	0.174472	0.561132	-0.078132	-0.817066	6.824784	2.157609	-0.520168	36.353263	-9.3033	-1.788569	-0.380119	-0.24314	-0.525927
-2.52853	-5.901242	17.728665	93.127413	443.894488	38.811959	1.230619	0.286988	-0.974233	7.238062	-1.03149	16.962285	48.083343	-202.229	25.168658	0.573738	-0.09445	-0.801989	8.83745	0.469308	-0.370109	17.579904	4.857832	12.515871	-0.408353	-0.275933	-0.524393
-5.204666	-7.287342	15.454382	93.646139	453.019875	62.228903	1.242853	0.303571	-0.939186	3.718747	-0.579277	11.170739	72.135258	-170.124154	34.91005	0.536066	-0.075067	-0.859564	10.727142	-0.987408	-0.460889	12.854841	20.714144	27.588356	-0.421914	-0.242926	-0.541665
-8.295524	-7.871864	12.493447	100.541806	442.479882	80.001264	1.2845	0.260792	-0.877098	4.455772	2.17928	10.905581	93.149821	-171.049018	10.593305	0.483497	-0.092831	-0.828758	11.893854	-0.818848	-1.157021	14.43721	24.74472	34.778024	-0.36705	-0.289034	-0.569929
-9.523803	-8.968173	11.101004	83.624671	400.372133	106.276251	1.353631	0.227506	-0.805049	-2.871103	-10.649618	11.532982	103.253109	-33.73158	97.708387	0.484307	-0.104936	-0.870804	11.406164	-1.228008	-2.066159	28.172483	20.849279	31.628622	-0.380749	-0.273046	-0.570836
-12.953196	-10.298222	8.357663	53.763243	351.501683	116.722935	1.352531	0.199622	-0.745329	2.607296	4.886547	10.812532	-26.902303	-24.90095	-9.815567	0.496542	-0.137646	-0.840373	10.463296	-0.876897	-1.962469	22.758829	19.579592	13.496665	-0.353004	-0.271812	-0.586224
7.206565	-8.018228	-5.4482	26.504075	274.206655	126.975278	1.380458	0.126147	-0.661985	4.78678	-0.413329	10.004419	41.806136	-17.48306	6.898934	0.496542	-0.137646	-0.840373	10.450057	1.502489	-2.371681	12.03329	21.939912	-11.384712	-0.366774	-0.254997	-0.602659
40.39084	-2.269704	-11.598148	29.272951	37.418189	75.612519	1.407213	0.111285	-0.606379	2.603076	0.773945	10.242674	16.181613	-14.822625	0.461647	0.470885	-0.136724	-0.854171	11.169046	3.01406	-1.573258	11.415373	21.222466	-16.176894	-0.394516	-0.274903	-0.539851
19.528192	-7.10823	21.732922	-19.457608	-145.073984	-11.900558	1.378214	0.122277	-0.595021	2.769081	1.111367	9.963388	12.091476	-13.460833	-0.021354	0.47059	-0.137796	-0.839821	10.922692	3.651458	-2.054195	6.675255	20.482023	-2.403923	-0.367259	-0.305227	-0.569092
11.210959	-11.172085	23.543078	-29.636825	-134.65854	-36.822757	1.352216	0.126896	-0.661286	2.309659	1.168607	10.010403	16.695517	-12.795248	5.630541	0.470735	-0.167365	-0.852164	11.649418	2.782406	-1.146095	11.07215	19.534494	7.915155	-0.380403	-0.239835	-0.588038
8.069098	-11.435401	15.069954	-27.226138	-77.751031	-37.653477	1.394921	0.1639	-0.711393	2.350624	0.998844	9.218516	3.71826	-12.799633	9.257825	0.456804	-0.125766	-0.7975	12.599003	1.909847	-0.952475	9.775714	14.250373	9.656709	-0.353071	-0.289657	-0.554331
12.161161	-8.367506	7.888187	-47.610738	-107.693722	-43.786997	1.367066	0.150878	-0.707279	2.939013	0.660257	9.796716	-2.511931	-11.994096	9.969881	0.483121	-0.169433	-0.82374	12.71742	1.270493	-1.012901	13.174247	8.340102	2.581672	-0.38082	-0.27222	-0.586364
13.483783	-7.103298	8.260225	-67.330832	-194.775092	-53.366448	1.322775	0.220857	-0.72331	2.655243	0.435617	9.960401	-3.893274	-11.62179	6.612154	0.457024	-0.140014	-0.810846	12.31282	0.924713	-0.602739	18.196117	6.462133	-12.280534	-0.395079	-0.286964	-0.616653
11.427682	-7.030812	11.40304	-74.026823	-269.224957	-53.544044	1.294905	0.225134	-0.736688	2.652264	0.097491	9.790197	-4.195955	-11.364069	4.11737	0.457093	-0.184904	-0.822185	10.830274	1.158909	-0.988703	19.391631	7.37362	-26.070954	-0.353213	-0.288004	-0.585386
10.979787	-5.649471	11.968454	-75.837287	-321.896211	-47.215639	1.282271	0.239622	-0.792643	2.826515	0.547907	9.907483	-0.385425	-10.688426	1.969174	0.483045	-0.184754	-0.822736	9.536185	1.220945	-0.773038	17.788603	10.133876	-24.367144	-0.395354	-0.321001	-0.583923
10.633697	-3.63901	11.913366	-81.539457	-368.454745	-42.310651	1.22536	0.306789	-0.847137	1.891656	1.450445	9.322503	-2.794222	-10.112436	7.707044	0.471105	-0.150972	-0.867517	9.423655	1.222451	-0.475704	12.664424	13.924313	-14.038011	-0.339451	-0.267476	-0.663792
10.767875	-3.117777	12.941121	-82.378311	-406.802617	-38.053282	1.155486	0.333018	-0.891035	2.718445	1.280751	10.302159	-2.422455	-6.762919	16.742672	0.470885	-0.136724	-0.854171	9.722017	0.757662	-0.352366	8.350982	17.076318	-6.764071	-0.324984	-0.23654	-0.634341
9.988044	-2.365631	14.065731	-79.070874	-437.876993	-35.929058	1.100104	0.362401	-0.949357	3.698356	0.210976	12.982661	-3.903188	-11.071582	20.983904	0.484081	-0.150897	-0.867793	9.884199	0.521492	-1.18875	6.386697	19.570482	-3.101459	-0.38082	-0.27222	-0.586364
10.106758	-2.0201	14.296818	-79.840204	-463.171798	-34.956937	1.028344	0.405587	-0.957859	2.822791	-0.179859	15.058652	12.276685	-65.652723	13.363592	0.457985	-0.121478	-0.854899	10.295361	-0.060955	-1.36324	5.941195	20.588895	-7.077717	-0.339726	-0.301514	-0.631063
9.02474	-2.362756	14.558479	-78.962691	-480.145953	-34.03857	0.914965	0.456953	-0.993465	3.325652	-1.310487	11.558137	0.398248	-72.47843	6.78133	0.445003	-0.181763	-0.864958	10.824461	0.344114	-1.411512	5.778513	21.253269	-15.17874	-0.325539	-0.285943	-0.616302
8.711071	-2.068785	16.088038	-73.424528	-488.527493	-31.337812	0.860355	0.458794	-1.044956	2.89214	1.001159	13.02304	8.352384	-88.466857	4.347518	0.444708	-0.182835	-0.850608	11.004811	0.344451	-1.22849	5.856893	21.463415	-23.644628	-0.367684	-0.300269	-0.662259
6.076217	-3.560841	15.916837	-77.167879	-485.396232	-29.282462	0.789352	0.491737	-1.064117	2.874893	1.169487	12.230228	10.294032	-100.901447	4.872901	0.431662	-0.138021	-0.838994	11.992254	0.048067	-2.109622	4.384729	21.936638	-28.500039	-0.339935	-0.317706	-0.630226
2.064829	-6.31634	15.543045	-91.081417	-457.094079	-10.779031	0.703157	0.462572	-0.988226	2.980091	0.042187	11.665301	12.993187	-109.959864	1.856367	0.419051	-0.181913	-0.864407	11.349969	0.399739	-1.700895	-3.218412	20.329222	-29.503738	-0.353567	-0.283873	-0.663026
0.202157	-6.309183	16.870774	-114.655217	-421.220173	3.702334	0.702385	0.490114	-0.995058	3.361205	0.716592	10.71146	15.365311	-115.414359	0.694261	0.380419	-0.181067	-0.877929	10.928053	0.398706	-2.187854	-1.760899	17.209971	-29.09691	-0.38173	-0.317492	-0.645964
1.899363	-6.417306	18.778734	-145.836512	-403.948905	9.960237	0.702786	0.459043	-0.974151	3.580933	1.166426	10.263558	17.198211	-117.189031	-1.202411	0.367147	-0.182213	-0.863304	10.64214	-0.70258	-1.838612	-2.897976	12.66194	-27.482184	-0.367401	-0.303574	-0.600147
2.479909	-6.70324	19.186634	-159.959312	-422.34716	-2.319214	0.7043	0.438558	-0.995471	4.046269	0.54607	10.442626	19.03531	-118.569225	-2.416939	0.367078	-0.137324	-0.851965	10.232193	-0.642817	-1.666347	-7.900945	8.77812	-23.381503	-0.311702	-0.284913	-0.631759
-2.10735	-5.482513	21.716751	-185.509159	-434.963	-26.956267	0.689794	0.452703	-0.998537	3.881603	0.772048	10.835666	20.805795	-122.858264	-4.708566	0.315093	-0.213154	-0.860194	9.823192	-0.989586	-1.495813	-12.11824	5.086391	-16.870329	-0.353355	-0.286352	-0.616442
-9.898397	-3.67198	27.25588	-224.73077	-411.762088	-49.871986	0.691994	0.508472	-1.117977	3.550047	0.491563	11.451211	23.951436	-130.549099	-4.998245	0.328144	-0.197759	-0.861473	9.001232	-0.928631	-1.271344	-15.558317	2.844695	-11.285357	-0.325889	-0.300483	-0.64652
-18.420338	-1.295944	30.566788	-231.602906	-376.501794	-59.096827	0.677845	0.543445	-1.152611	4.068159	1.110276	11.519253	21.620585	-138.813663	-3.325047	0.314653	-0.184657	-0.833501	8.705612	-0.695651	-1.275858	-14.718189	0.473376	-6.479053	-0.340282	-0.350917	-0.613024
-27.572907	2.229379	33.870275	-215.636025	-346.98263	-49.889635	0.56671	0.598682	-1.255181	3.657625	1.279738	11.171095	23.000188	-149.151543	-1.268687	0.289367	-0.167343	-0.862653	8.009388	-0.633235	-0.62984	-13.753615	-1.371775	-2.225649	-0.339447	-0.286147	-0.616372
-31.311608	46.336006	-9.093992	337.986219	-120.26703	-11.024692	0.438082	0.657137	-1.265701	4.491213	0.715967	12.433617	16.898874	-159.927079	1.455541	0.288921	-0.199056	-0.846296	6.949548	-1.211318	-0.592213	-14.915758	-1.735481	0.011366	-0.339793	-0.319359	-0.59917
-64.215805	3.609809	27.366645	-106.721324	-148.491148	6.910744	0.369337	0.676652	-1.334335	3.928987	1.280919	13.101677	19.04308	-175.806343	2.625141	0.211286	-0.213755	-0.857988	6.881093	0.00693	-0.947563	-13.312287	-1.699126	0.005385	-0.353355	-0.286352	-0.616442
-50.633041	19.61437	11.444806	-49.449021	-96.618363	38.865498	0.296462	0.709253	-1.300608	4.563744	0.718813	15.831993	19.60208	-197.554866	1.392242	0.185554	-0.228153	-0.870782	6.82733	0.589309	-0.58675	-10.171802	-1.896896	-0.49405	-0.326027	-0.317502	-0.630155
-46.1817	32.272001	17.154122	-16.514154	-35.490728	21.918259	0.241509	0.672966	-1.30304	5.425244	0.099802	18.397178	20.05791	-230.126788	-2.753537	0.172282	-0.2293	-0.856157	6.59005	1.112533	-0.588927	-7.836593	-2.307889	-1.356301	-0.340002	-0.335551	-0.598333
-45.56143	29.409402	19.484169	46.926144	60.795675	-21.965303	0.254129	0.675778	-1.264577	5.683661	0.159176	22.422264	28.194049	-273.492542	-9.558883	0.146255	-0.244771	-0.854602	6.356746	1.346119	-0.412619	-11.457284	-1.177729	-5.413334	-0.311702	-0.284913	-0.631759
-53.875493	27.1272	21.529217	84.626894	179.050994	-66.716853	0.212896	0.670187	-1.288266	7.015963	1.11708	25.621484	39.026235	-328.007264	-13.266473	0.095017	-0.227607	-0.883202	6.186935	0.127916	-0.181484	-19.159763	0.833625	-7.350961	-0.326169	-0.31585	-0.661211
-16.390024	7.029089	3.078619	170.802282	240.948403	-65.313706	0.226645	0.666284	-1.274539	6.736421	-0.684769	25.84048	46.681274	-384.811201	-18.879571	0.080264	-0.294323	-0.807163	5.71324	-1.091589	-0.435107	-27.833609	2.288556	-0.17499	-0.367609	-0.319767	-0.59931
-5.280452	4.231345	9.136453	147.933979	117.944679	0.417912	0.256358	0.696948	-1.349033	6.204983	-1.531709	22.431721	53.341004	-420.65437	-28.662695	0.02814	-0.280375	-0.792714	4.773113	-0.972287	-0.212592	-34.423984	4.089956	9.71247	-0.395638	-0.317696	-0.646034
6.659457	-3.858638	13.540049	20.998612	94.865364	30.276046	0.285785	0.620287	-1.3045	8.635368	-2.601368	28.369695	35.364345	-443.401061	-35.746142	-0.038146	-0.330999	-0.730925	3.94129	0.016154	-0.403516	-37.83965	5.714612	14.118563	-0.367889	-0.335133	-0.614001
4.103729	-5.703146	11.550329	80.685478	157.324162	16.523781	0.284999	0.665128	-1.328824	7.077452	-3.218284	28.109975	75.77889	-477.140829	-49.457243	-0.103541	-0.318197	-0.701851	5.707339	2.393467	-0.30046	-36.933317	4.707555	29.006775	-0.353701	-0.319563	-0.59924
