1812_acc_x	1812_acc_y	1812_acc_z	1812_gyro_x	1812_gyro_y	1812_gyro_z	1812_mag_x	1812_mag_y	1812_mag_z	1813_acc_x	1813_acc_y	1813_acc_z	1813_gyro_x	1813_gyro_y	1813_gyro_z	1813_mag_x	1813_mag_y	1813_mag_z	1814_acc_x	1814_acc_y	1814_acc_z	1814_gyro_x	1814_gyro_y	1814_gyro_z	1814_mag_x	1814_mag_y	1814_mag_z
-4.832119	1.858716	8.6691	-0.042324	0.491766	0.153627	-0.284699	-0.636995	-0.997232	2.548575	1.446097	9.138045	-0.135982	-1.299974	-0.202053	0.084055	0.282184	-0.318207	9.641193	2.989339	-1.328057	0.377133	0.891431	0.124084	-0.781897	0.27311	0.94877
-4.202801	1.509569	8.565205	-0.26133	0.499145	0.036899	0.622994	0.210713	-0.719434	2.093266	1.04682	8.894062	-0.01728	-1.330805	-0.301057	0.156102	-0.150098	-0.234152	9.598447	2.645229	-0.645655	0.00841	0.794933	0.124339	-0.624415	0.295828	-0.092899
-4.191092	1.220753	9.142654	-0.19303	0.650418	0.102607	0.607685	0.228829	-0.739697	2.435302	1.160077	9.077379	-0.038375	-1.243565	-0.171079	0.156102	-0.13809	-0.240156	9.308213	2.586587	-0.93701	0.069909	0.795238	0.155248	-0.65778	0.312199	-0.112887
-4.596572	1.568979	8.962047	-0.13299	0.61847	0.069308	0.62825	0.264744	-0.704588	2.601153	1.675401	8.961725	-0.057173	-1.159711	0.020407	0.156102	-0.162106	-0.252164	9.143242	2.47245	-0.655454	-0.022569	0.887413	0.060858	-0.623988	0.282072	-0.071186
-3.90666	1.452366	9.033298	-0.109279	0.402416	0.059871	0.669043	0.216029	-0.7346	2.374393	1.905252	8.956972	-0.18277	-1.118719	-0.06511	0.144094	-0.144094	-0.234152	9.305403	2.296316	-1.109601	0.099833	1.134134	0.055795	-0.578134	0.2914	-0.065932
-4.029883	1.91584	8.627427	-0.23384	0.374913	0.061702	0.619913	0.214092	-0.773914	2.443313	1.388435	9.548974	0.030016	-1.154987	-0.136979	0.156102	-0.156102	-0.216141	9.251372	3.108031	-0.878678	-0.022887	1.038401	0.21028	-0.609273	0.303522	-0.098386
-4.195831	1.394322	8.911814	-0.383585	0.627086	-0.077177	0.68397	0.178402	-0.695073	2.384279	1.503393	9.429684	-0.299759	-1.515271	-0.117196	0.150098	-0.144094	-0.234152	9.252851	2.355378	-0.882096	0.130578	1.134513	0.055951	-0.590578	0.297965	-0.111715
-4.260189	1.509624	8.564062	-0.25896	0.591817	0.010089	0.619913	0.214092	-0.773914	2.724654	1.444977	9.495306	-0.170561	-1.427494	-0.116263	0.126082	-0.13809	-0.216141	9.021244	2.58663	-1.056826	-0.269135	1.157974	0.206183	-0.673395	0.285996	-0.068597
-4.370337	1.452252	8.792896	-0.10838	0.558708	-0.117087	0.638686	0.21211	-0.718436	2.714703	1.503183	8.964203	0.060255	-1.714078	-0.173938	0.162106	-0.144094	-0.228148	9.141774	2.645876	-0.711757	-0.084747	1.191351	0.175815	-0.623089	0.286825	-0.088276
-4.02442	0.987716	8.85645	0.056414	0.736597	0.069658	0.653351	0.214633	-0.735598	2.654988	1.847311	8.844507	0.164987	-1.467058	-0.22371	0.13809	-0.132086	-0.222145	9.306302	2.412372	-1.051983	-0.33096	1.309111	0.294101	-0.6079	0.326784	-0.15428
-4.310552	1.33639	8.909389	-0.070901	0.648021	0.038487	0.625048	0.208461	-0.683114	2.541203	1.733168	8.783536	0.132706	-1.597965	-0.076413	0.13809	-0.144094	-0.24616	9.251941	2.818549	-0.879993	-0.361624	1.277628	0.325251	-0.60572	0.290271	-0.106228
-4.308711	1.801011	9.026136	-0.139007	0.653465	-0.234704	0.653351	0.214633	-0.735598	2.546061	1.560885	9.019841	-0.088123	-1.549845	-0.219819	0.150098	-0.13809	-0.228148	9.255547	2.703545	-0.709242	-0.36176	1.338476	0.354424	-0.637332	0.283884	-0.099879
-4.366964	1.510714	8.96648	-0.195847	0.652116	-0.019494	0.63625	0.194851	-0.735491	2.484684	1.733339	8.78245	0.069678	-1.526853	-0.193176	0.13809	-0.13809	-0.228148	9.587526	2.468911	-1.217365	-0.361396	1.158197	0.113927	-0.609273	0.303522	-0.098386
-4.381879	1.56694	8.215027	-0.196871	0.621367	-0.020732	0.635867	0.175339	-0.716227	2.43462	1.389247	9.076973	0.128264	-1.457344	-0.376272	0.150098	-0.144094	-0.252164	9.246423	2.759338	-1.165716	-0.514741	1.002143	0.177892	-0.635578	0.261126	-0.073541
-4.085738	1.509737	8.683121	-0.446058	0.629133	-0.106168	0.576301	0.226036	-0.741693	2.375522	1.160552	8.899292	-0.135982	-1.299974	-0.202053	0.150098	-0.132086	-0.228148	9.418607	2.643467	-1.105771	-0.39149	0.881961	0.120171	-0.623516	0.300581	-0.109989
-4.486368	1.568309	8.733074	-0.438438	0.750006	0.051412	0.607302	0.209317	-0.720432	2.328207	0.988033	9.370511	0.242112	-1.290793	-0.091592	0.144094	-0.13809	-0.240156	9.421872	2.702152	-0.934232	-0.422232	0.854557	-0.124038	-0.637332	0.283884	-0.099879
-4.020293	1.452617	9.088827	-0.350972	0.656598	-0.046181	0.637659	0.213236	-0.736596	2.32467	1.446576	9.251699	0.013621	-1.398977	-0.213841	0.144094	-0.144094	-0.216141	9.706702	2.643687	-0.928863	-0.20724	0.922588	-0.399725	-0.59503	0.306464	-0.086783
-4.145134	1.2193	8.565649	-0.354493	0.658721	-0.198807	0.574126	0.168626	-0.702059	2.09448	1.734024	9.069844	0.37537	-1.175481	-0.027232	0.13809	-0.126082	-0.234152	9.254648	2.587489	-0.76686	-0.176729	1.015825	-0.462893	-0.607946	0.29452	-0.093762
-4.256815	1.568086	8.737646	-0.070323	0.77314	-0.109184	0.67007	0.214903	-0.71644	2.540969	1.446808	8.725044	0.553654	-1.272345	-0.101733	0.156102	-0.13809	-0.228148	9.196465	2.645236	-0.824815	0.068435	1.356013	-0.469464	-0.603967	0.267513	-0.079891
-4.260133	1.451582	8.563922	-0.196488	0.589769	0.039079	0.620175	0.173942	-0.717225	2.88341	1.789134	8.966955	0.173874	-1.245523	-0.302536	0.156102	-0.144094	-0.234152	9.585501	2.352592	-1.332075	-0.269963	1.416319	-0.686777	-0.607473	0.313029	-0.132566
-4.604073	1.045617	8.556086	-0.351676	0.657023	-0.076706	0.620175	0.173942	-0.717225	2.494399	1.388772	9.25506	0.29702	-1.416976	-0.101681	0.156102	-0.13809	-0.234152	9.023371	3.224279	-0.882658	-0.423593	1.409441	-0.351008	-0.639558	0.288133	-0.087413
-4.32176	1.102822	8.330682	-0.196871	0.621367	-0.020732	0.641505	0.248881	-0.720645	2.606927	1.560309	9.256929	0.35438	-1.412698	-0.227108	0.150098	-0.126082	-0.234152	9.538694	2.355072	-0.819372	-0.485265	1.498823	-0.231073	-0.642211	0.306138	-0.09666
-4.542057	0.988077	8.788349	-0.074743	0.61897	-0.084852	0.619148	0.175068	-0.735385	2.487816	1.045728	8.842668	0.273013	-1.358964	-0.004375	0.156102	-0.150098	-0.222145	9.651113	2.528271	-0.873423	-0.392666	1.31968	-0.4711	-0.609746	0.285014	-0.059583
-4.24979	1.394797	9.084116	-0.196614	0.715312	-0.139117	0.590201	0.189535	-0.720325	2.546807	1.675368	9.078639	-0.086389	-1.127541	0.023532	0.150098	-0.150098	-0.234152	9.199173	2.414177	-0.711682	-0.208171	1.320594	-0.378375	-0.609273	0.303522	-0.098386
-4.608058	1.625624	8.38404	-0.068915	0.77229	-0.048134	0.621967	0.21184	-0.737594	2.607503	1.732084	9.315624	0.218795	-1.133242	-0.111543	0.156102	-0.132086	-0.222145	9.421314	2.412407	-0.992638	-0.330823	1.167638	-0.497827	-0.573255	0.269146	-0.069151
-4.604295	1.277787	8.556645	-0.382303	0.75178	-0.194323	0.611913	0.283986	-0.74301	2.606863	1.216656	9.198538	0.312801	-1.205601	0.004015	0.156102	-0.144094	-0.216141	9.310238	2.702905	-0.8223	0.10001	1.017422	-0.339102	-0.640457	0.28338	-0.070323
-4.20584	1.102851	8.390783	-0.28677	0.684875	0.014572	0.637277	0.193724	-0.717331	2.32433	1.561161	9.251496	0.052184	-1.310844	-0.147782	0.144094	-0.120078	-0.222145	9.703323	2.642898	-1.10014	0.283751	1.299629	-0.619924	-0.591051	0.279456	-0.072912
-4.365598	1.278683	9.023735	-0.197192	0.590194	0.008554	0.635222	0.195977	-0.753651	2.492695	1.961696	9.254045	0.157988	-1.132441	-0.078377	0.150098	-0.132086	-0.228148	9.023269	2.702948	-0.942115	0.221811	1.483681	-0.685696	-0.618164	0.296836	-0.152011
-4.594509	1.801429	9.078236	-0.287538	0.748071	-0.105051	0.651942	0.196247	-0.734493	2.492397	1.331683	9.137161	-0.034315	-1.216029	-0.107652	0.156102	-0.150098	-0.234152	9.311478	2.645272	-0.765471	0.282905	1.639505	-0.811321	-0.604821	0.295024	-0.123318
-3.914884	1.683558	8.629154	-0.257872	0.559794	0.100426	0.624404	0.229099	-0.720538	2.831407	1.731606	9.201971	0.153238	-1.259515	-0.024547	0.150098	-0.144094	-0.234152	9.080554	2.529145	-0.941778	0.221302	1.725262	-0.44662	-0.624415	0.295828	-0.092899
-4.137022	1.104192	8.970073	-0.410307	0.688121	0.017642	0.640096	0.230496	-0.71954	2.264145	1.332568	9.014814	0.306443	-1.22975	-0.120919	0.150098	-0.144094	-0.234152	9.248005	2.528015	-1.109676	0.590394	1.668053	-0.412725	-0.637758	0.29764	-0.121593
-4.089167	1.509318	8.509676	-0.41479	0.596723	-0.047124	0.621967	0.21184	-0.737594	2.71888	1.560069	9.200102	0.333897	-1.292842	-0.125963	0.144094	-0.150098	-0.228148	9.474754	3.048628	-1.102805	0.497659	1.908043	-0.143524	-0.627068	0.313833	-0.102147
-4.031835	1.567305	8.510959	-0.600542	0.695963	-0.191428	0.614612	0.261095	-0.669265	2.432958	1.217573	8.959277	0.442718	-1.409667	-0.353741	0.144094	-0.144094	-0.228148	9.139522	2.64535	-0.825942	0.558698	2.093611	-0.208669	-0.641311	0.310891	-0.11375
-4.250822	1.278572	9.026021	-0.479054	0.631219	-0.196975	0.653351	0.214633	-0.735598	2.604008	1.446028	9.080131	0.577048	-1.362972	-0.170204	0.150098	-0.150098	-0.228148	9.651898	2.702223	-0.815542	0.497515	1.969345	-0.144946	-0.621336	0.264067	-0.061938
-4.090143	1.33505	8.451442	-0.165409	0.745674	-0.169171	0.636894	0.174212	-0.698067	2.429016	1.447047	8.78187	0.361351	-1.355933	-0.131008	0.150098	-0.13809	-0.234152	9.593839	2.122847	-0.933482	0.466536	2.061824	-0.208427	-0.607047	0.299273	-0.110852
-4.316211	1.277649	8.620175	-0.382881	0.626661	-0.046652	0.651942	0.196247	-0.734493	2.321815	1.675949	9.133292	0.47653	-1.448609	-0.233851	0.144094	-0.13809	-0.24616	9.766012	2.586202	-0.813816	0.528234	1.971083	-0.236576	-0.589678	0.302718	-0.128805
-4.31649	1.567862	8.620874	-0.379039	0.655711	0.076686	0.654378	0.213507	-0.717438	2.375863	1.045968	8.899495	0.502222	-1.542623	-0.240815	0.144094	-0.144094	-0.234152	9.424124	2.702678	-0.820047	0.435715	2.119121	0.034758	-0.60662	0.285517	-0.089139
-3.679226	1.277736	8.921822	-0.43991	0.813627	-0.098736	0.637659	0.213236	-0.736596	2.375927	1.389621	8.957886	0.438427	-1.637974	-0.1519	0.150098	-0.144094	-0.240156	9.366169	2.644632	-0.878529	0.251182	2.147046	0.063703	-0.610172	0.298769	-0.081296
-4.253108	1.278292	8.910392	-0.03771	0.802652	-0.078188	0.636632	0.214363	-0.754756	2.606181	1.445825	9.198132	0.510342	-1.487552	-0.113962	0.132086	-0.132086	-0.240156	9.36651	2.470943	-0.879317	0.282441	1.932418	0.099434	-0.641311	0.310891	-0.11375
-4.255561	1.452141	8.795182	-0.158494	0.866972	-0.042116	0.62094	0.212966	-0.755754	2.597488	1.446637	8.72613	0.396417	-1.721026	-0.31022	0.162106	-0.126082	-0.222145	9.306063	3.107391	-0.991736	0.282161	2.054567	0.127184	-0.625742	0.30483	-0.097523
-4.71935	1.568112	8.555058	-0.320535	0.750157	-0.195858	0.652706	0.235271	-0.773023	3.057762	1.272686	9.148129	0.690388	-1.553493	-0.186544	0.150098	-0.150098	-0.228148	9.311034	2.29763	-0.82414	0.097602	2.083851	0.064343	-0.636905	0.270128	-0.078165
-4.595262	1.394991	9.019443	0.10813	0.584201	-0.151746	0.61953	0.19458	-0.754649	2.767153	1.045181	8.671101	0.900877	-1.586374	-0.319921	0.132086	-0.150098	-0.228148	9.424363	2.007658	-0.880294	0.312383	2.270405	0.061172	-0.623089	0.286825	-0.088276
-4.136435	1.684759	9.029286	-0.014062	0.64937	-0.176724	0.635222	0.195977	-0.753651	2.824525	0.758548	8.672695	0.928331	-1.649466	-0.324965	0.150098	-0.126082	-0.228148	9.759357	3.105956	-1.096911	0.89667	2.24378	0.279025	-0.60572	0.290271	-0.106228
-4.596461	1.452894	8.961768	0.041432	0.588797	-0.363886	0.586737	0.173402	-0.755541	2.488391	1.217504	8.901364	0.96674	-1.695181	-0.082061	0.156102	-0.144094	-0.234152	9.200071	2.530232	-0.654065	1.0496	2.58283	0.271984	-0.578988	0.318911	-0.10936
-4.265848	1.450883	8.274849	-0.07314	0.774838	-0.231285	0.636894	0.174212	-0.698067	2.602581	1.560715	9.020928	0.629581	-1.552692	-0.153378	0.144094	-0.13809	-0.234152	9.304504	2.180261	-1.167219	1.203696	2.431018	0.306918	-0.589678	0.302718	-0.128805
-4.369948	1.045953	8.791917	-0.200519	0.749034	-0.351554	0.618121	0.176195	-0.753545	1.926456	1.218904	9.067498	0.631343	-1.52177	-0.151459	0.144094	-0.144094	-0.240156	9.364257	2.470417	-0.993502	1.29554	2.613792	0.456098	-0.607946	0.29452	-0.093762
-4.425915	0.755935	8.847891	-0.079609	0.559171	-0.20943	0.637659	0.213236	-0.736596	2.258307	1.104007	8.661219	0.513253	-1.458323	-0.081289	0.150098	-0.144094	-0.222145	9.364587	2.875955	-0.934569	1.818271	2.590034	0.428874	-0.660006	0.316448	-0.100421
-4.256815	1.568086	8.737646	-0.052245	0.560482	-0.362822	0.622994	0.210713	-0.719434	2.771734	1.331135	8.965594	0.32838	-1.586379	0.133545	0.150098	-0.132086	-0.216141	9.48456	2.645456	-0.647908	2.217299	2.871265	0.393912	-0.636859	0.302393	-0.138682
-4.714889	1.684757	8.786597	0.043608	0.524751	-0.183213	0.621585	0.192328	-0.718329	2.708695	1.331915	8.610506	0.151858	-1.458594	0.209966	0.156102	-0.13809	-0.228148	9.257242	2.414326	-0.653464	2.7083	3.274874	0.448362	-0.591431	0.325476	-0.155143
-4.379426	1.393091	8.330238	0.005488	0.373092	-0.280214	0.643297	0.286779	-0.741014	2.543781	1.962034	8.960131	0.353613	-1.579161	-0.021429	0.144094	-0.144094	-0.222145	9.595853	2.818392	-0.759051	2.861903	3.310137	0.26486	-0.589251	0.288963	-0.107091
-4.080721	1.045954	8.913262	0.720012	-0.038054	-0.894709	0.640096	0.230496	-0.71954	2.492461	1.675336	9.195552	0.172877	-1.612758	0.16841	0.162106	-0.150098	-0.228148	9.363575	2.817796	-0.991924	2.707841	3.460136	0.352308	-0.639558	0.288133	-0.087413
-4.602343	1.626323	8.673113	1.830274	-0.67584	-1.466801	0.608712	0.227703	-0.721536	2.604924	1.503219	9.13903	0.234987	-1.481405	-0.010846	0.156102	-0.126082	-0.210137	9.933565	3.106403	-0.922255	3.076227	3.681952	0.165635	-0.623089	0.286825	-0.088276
-4.195664	1.220194	8.911395	3.419782	-1.537181	-2.395614	0.604866	0.192057	-0.737487	3.000731	1.444734	9.146738	0.834065	-1.386496	0.066176	0.150098	-0.150098	-0.234152	9.25003	2.644334	-0.994965	3.506525	3.748102	0.196999	-0.62039	0.301085	-0.139545
-3.912375	1.451667	8.744225	6.069458	-2.275341	-3.130651	0.624786	0.248611	-0.739803	2.370899	1.619196	8.721479	0.73237	-1.079059	0.213207	0.150098	-0.144094	-0.252164	9.655948	2.93486	-0.586122	3.967489	3.845735	0.197213	-0.623516	0.300581	-0.109989
-4.597549	1.394711	8.903813	3.37944	-2.359756	-2.9785	0.63625	0.194851	-0.735491	2.547254	1.159838	9.020552	0.342984	-0.98193	0.449919	0.156102	-0.126082	-0.24616	9.313958	2.530005	-0.651812	4.612774	4.007393	0.166348	-0.589678	0.302718	-0.128805
-4.378227	1.335188	8.387913	3.41167	-2.298645	-3.007315	0.652969	0.195121	-0.716333	2.495486	1.388671	9.31406	0.735663	-1.217987	0.482312	0.150098	-0.156102	-0.234152	9.2578	2.70407	-0.595058	5.288288	4.41146	0.344118	-0.573209	0.301411	-0.129668
-4.311639	1.278208	8.851434	1.999294	-2.140867	-2.78391	0.638686	0.21211	-0.718436	2.494165	1.102412	9.196567	0.137148	-1.738585	0.223446	0.150098	-0.150098	-0.234152	9.474993	2.353608	-1.163051	5.68713	4.783279	0.398809	-0.608373	0.308275	-0.115476
-4.197085	1.510267	8.854279	2.109621	-1.871658	-2.408768	0.635605	0.215489	-0.772916	2.88912	1.330388	9.203768	0.366	-2.648244	0.187686	0.13809	-0.150098	-0.234152	9.53238	2.701136	-1.103256	6.23895	5.491875	0.599437	-0.554987	0.277345	-0.104193
-4.378561	1.683445	8.388751	1.582149	-1.887762	-2.458009	0.604221	0.212696	-0.774912	2.495145	1.503256	9.313857	0.447364	-3.204753	0.643496	0.144094	-0.132086	-0.24616	9.366169	2.644632	-0.878529	7.312843	6.48049	0.949301	-0.587925	0.27996	-0.102468
-4.204278	1.857685	8.508229	1.273624	-1.848473	-2.479621	0.671862	0.252801	-0.736809	2.766876	1.503418	8.729289	1.141856	-3.877283	1.038672	0.156102	-0.168109	-0.234152	9.258255	2.472485	-0.596109	8.385601	7.958585	1.348976	-0.576335	0.300907	-0.100112
-4.378728	1.857573	8.38917	0.121806	-2.220728	-2.284177	0.650914	0.197373	-0.752653	2.106881	1.217377	9.660759	-0.511676	-4.889168	1.49743	0.150098	-0.132086	-0.216141	9.594852	2.181006	-0.876127	8.198559	9.057877	1.444816	-0.655127	0.294194	-0.10364
-4.083396	1.451974	8.79861	-1.256774	-1.783201	-2.325114	0.653734	0.234145	-0.754863	2.272221	1.904578	9.544801	-1.495944	-6.580802	2.506328	0.13809	-0.144094	-0.234152	9.480169	2.586508	-0.876539	7.426535	10.32677	-0.056836	-0.604821	0.295024	-0.123318
-4.366797	1.336586	8.96606	-0.784422	-1.738122	-2.028901	0.619913	0.214092	-0.773914	2.672822	1.330156	9.730423	-1.41116	-8.997628	4.016998	0.150098	-0.156102	-0.228148	9.758344	3.047796	-1.154266	5.425112	11.397063	-1.591085	-0.639085	0.306642	-0.126216
-4.140618	1.277901	8.797048	-1.49072	-1.53369	-2.095392	0.619913	0.214092	-0.773914	2.102364	1.275076	9.424657	-0.106852	-10.652801	5.43946	0.120078	-0.150098	-0.234152	9.944953	2.471908	-0.411317	3.793961	11.97336	-2.561361	-0.623516	0.300581	-0.109989
-4.194966	1.684675	8.970328	-0.494809	-1.438787	-1.962373	0.652969	0.195121	-0.716333	2.575486	2.990049	10.846309	-26.097879	-11.200577	7.770616	0.150098	-0.156102	-0.228148	10.21604	2.526082	-1.090529	2.655364	12.174046	-4.651943	-0.604394	0.281268	-0.101605
-4.140673	1.335944	8.797188	-0.826532	-1.340586	-1.736541	0.654761	0.233019	-0.736703	3.277938	0.699791	8.74049	2.458002	-14.926808	7.729687	0.150098	-0.144094	-0.222145	9.813945	2.583986	-1.269427	1.272117	11.927216	-5.693565	-0.606193	0.271762	-0.067425
-4.438989	1.276782	8.213186	-0.041815	-1.305746	-1.295377	0.636632	0.214363	-0.754756	3.582205	0.353255	9.867535	-7.478105	-16.349461	6.145496	0.144094	-0.162106	-0.216141	9.93369	2.46928	-0.982239	-0.695264	11.645712	-6.951628	-0.554087	0.282098	-0.121283
-4.426583	1.452447	8.849567	-0.217835	-1.086909	-1.190527	0.624404	0.229099	-0.720538	4.026179	0.180826	9.404532	-13.275156	-18.951206	0.070559	0.132086	-0.13809	-0.240156	9.932109	2.700602	-1.03828	-3.247052	11.452128	-8.42898	-0.585226	0.29422	-0.153737
-4.370004	1.103996	8.792057	-0.690017	-0.522568	-1.003329	0.636894	0.174212	-0.698067	3.47494	0.238504	10.160566	-19.039422	-20.731227	-10.929167	0.144094	-0.144094	-0.234152	9.816527	2.990049	-1.09631	-5.889508	10.639446	-9.556022	-0.605247	0.308779	-0.145032
-4.534167	1.105141	9.193332	-1.318221	-0.110036	-0.665861	0.625431	0.227973	-0.702378	3.868744	0.122929	10.050375	-16.696351	-21.96379	-18.233264	0.150098	-0.13809	-0.234152	9.985332	2.873389	-1.207641	-8.717164	10.133243	-10.844105	-0.603067	0.272266	-0.096981
-4.137189	1.278321	8.970493	-1.512575	0.227514	-0.188989	0.604866	0.192057	-0.737487	3.416929	0.009707	10.041885	-16.259484	-24.090254	-25.340446	0.13809	-0.126082	-0.240156	9.598322	3.282352	-0.585671	-10.958485	8.794926	-11.314497	-0.626168	0.318586	-0.119237
-4.420589	1.162933	9.137943	-1.153707	0.426611	0.330166	0.592375	0.246944	-0.759959	3.414649	0.410856	9.982174	-17.173528	-25.083401	-30.471474	0.156102	-0.13809	-0.228148	9.537226	2.528498	-0.875676	-12.460632	6.940116	-11.463073	-0.607047	0.299273	-0.110852
-4.318664	1.451498	8.504965	-1.514068	0.743839	0.351761	0.623759	0.249737	-0.757963	3.131945	0.812653	10.03503	-10.78274	-25.445412	-33.416587	0.126082	-0.120078	-0.234152	9.36651	2.470943	-0.879317	-12.703494	5.727699	-10.488085	-0.570983	0.297161	-0.142134
-4.254752	1.800537	8.853835	-1.826749	0.722904	0.236097	0.606658	0.229955	-0.757857	3.000603	0.757428	9.029956	-6.15505	-24.698976	-33.011439	0.13809	-0.144094	-0.228148	8.857388	3.051982	-0.658456	-12.392802	4.51303	-8.898351	-0.584326	0.298973	-0.170827
-4.134958	1.336643	9.086262	-1.579741	0.779184	0.140859	0.623377	0.230225	-0.738699	0.968905	2.309748	9.401097	-4.750197	-23.137023	-27.274301	0.13809	-0.13809	-0.24616	8.975904	2.415683	-0.487819	-11.712535	3.000019	-7.544408	-0.641311	0.310891	-0.11375
-3.912764	1.857966	8.745203	-1.63946	0.842305	0.144871	0.670453	0.234415	-0.735705	-1.941865	1.232828	7.636602	-5.257177	-31.347278	9.769025	0.144094	-0.132086	-0.216141	9.092942	2.532037	-0.313764	-10.75593	1.67023	-5.917965	-0.555841	0.304856	-0.147621
-4.311973	1.626464	8.852273	-1.454797	0.775088	0.198839	0.619913	0.214092	-0.773914	-2.021644	-0.087298	9.229768	-5.755505	-28.751656	70.933865	0.13809	-0.132086	-0.234152	9.207398	2.242327	-0.312826	-10.414185	0.251775	-5.026835	-0.587925	0.27996	-0.102468
-4.205087	1.509289	8.449576	-1.206442	0.89329	0.075553	0.592637	0.206794	-0.70327	-0.390952	-1.294265	8.614411	5.987789	-21.923046	115.344308	0.120078	-0.132086	-0.234152	8.879242	2.825391	0.425243	-10.043115	-0.55465	-4.057988	-0.620817	0.31484	-0.161259
-4.487066	1.103828	8.674142	-1.049589	0.919132	0.134005	0.625431	0.227973	-0.702378	1.187695	-1.814161	8.350749	6.26505	-5.060839	122.557235	0.120078	-0.13809	-0.240156	9.614669	2.417323	0.152584	-9.30264	-1.489107	-2.411312	-0.583899	0.285218	-0.149113
-4.422987	1.278738	9.022592	-1.141153	0.889544	0.226644	0.625048	0.208461	-0.683114	2.420429	-1.874188	7.784755	1.988383	5.075244	96.936604	0.120078	-0.120078	-0.234152	9.3277	2.417366	0.032768	-8.163164	-2.11485	-0.586152	-0.606147	0.304026	-0.127942
-4.37845	1.567359	8.388472	-0.914271	1.096983	0.382567	0.649122	0.159476	-0.732284	2.243668	-1.643898	7.427088	-4.637431	18.52306	54.867559	0.102066	-0.13809	-0.228148	9.06304	1.959233	0.995601	-5.763065	-2.838154	0.605753	-0.575008	0.291904	-0.095488
-4.376917	1.1612	8.445308	-0.601268	1.149092	0.468945	0.640096	0.230496	-0.71954	0.543289	-1.122848	7.216575	-8.529451	36.981683	15.197022	0.102066	-0.120078	-0.228148	9.003162	2.306199	0.881867	-2.593688	-3.827403	1.77737	-0.587452	0.298469	-0.141271
-4.25807	1.684032	8.680111	-0.501827	1.393499	0.415501	0.622732	0.250864	-0.776123	-0.080365	-0.83441	7.145114	-10.907665	50.718719	-8.341494	0.114074	-0.126082	-0.228148	9.001137	2.189881	0.767157	0.022394	-4.934755	2.184129	-0.555414	0.2911	-0.125907
-4.429845	1.2779	8.675704	-0.625621	1.302799	0.536955	0.621967	0.21184	-0.737594	-0.030066	-0.203958	6.909083	-16.840026	59.419902	-9.916585	0.120078	-0.13809	-0.24616	8.99033	1.955666	0.195184	2.11503	-5.845158	1.268363	-0.588352	0.293716	-0.124181
-4.024754	1.335972	8.857289	-0.864239	1.649229	0.434619	0.589556	0.210173	-0.75775	0.266658	-0.206129	7.681519	-18.809366	62.648216	1.642489	0.132086	-0.114074	-0.234152	8.768973	2.131388	0.534021	4.083719	-6.356339	0.189746	-0.619963	0.287329	-0.117832
-4.477113	1.453341	9.195313	-0.990466	1.52863	0.493785	0.623377	0.230225	-0.738699	0.482168	0.424218	7.212747	-20.827667	58.729598	17.780286	0.120078	-0.114074	-0.240156	8.883189	2.536698	0.595205	5.130097	-6.800522	0.022161	-0.558067	0.309105	-0.135155
-4.085794	1.56778	8.68326	-1.162386	1.870465	0.603589	0.59302	0.226306	-0.722535	1.501458	0.134586	7.291815	-23.33929	49.529097	34.21267	0.126082	-0.126082	-0.234152	8.243981	2.187416	-0.103866	6.209211	-7.993124	0.759071	-0.558067	0.309105	-0.135155
-4.141928	1.45189	8.739653	-0.602631	1.884907	0.713114	0.575918	0.206524	-0.722428	2.404918	0.418321	7.308693	-27.52632	35.055542	47.0601	0.126082	-0.13809	-0.234152	8.593297	2.304367	0.303062	7.134879	-9.229157	2.230194	-0.588778	0.307472	-0.145895
-4.370171	1.278124	8.792476	-0.444305	1.847128	0.921715	0.605893	0.190931	-0.719327	3.71535	1.27257	8.040166	-31.190688	23.114047	56.342872	0.132086	-0.114074	-0.24616	8.531291	2.013684	0.015161	7.661734	-10.731206	4.775788	-0.586126	0.289467	-0.136647
-3.968286	1.103606	8.800058	-0.236268	2.330422	1.211654	0.613968	0.281733	-0.70669	29.496224	19.893937	64.121066	-61.688398	34.547796	53.952586	0.144094	-0.120078	-0.252164	8.58316	2.302001	-0.210767	9.141874	-12.25671	7.632864	-0.590151	0.28421	-0.090002
-4.484836	1.16215	8.789911	-0.201348	2.515379	1.126742	0.624786	0.248611	-0.739803	10.923647	0.247772	-8.746532	589.036801	-44.192954	9.8774	0.13809	-0.102066	-0.252164	9.21527	2.823394	0.14654	7.823174	-13.766403	7.079685	-0.619963	0.287329	-0.117832
-3.786113	1.39491	9.324519	0.293441	2.564742	1.055889	0.639451	0.251134	-0.756965	-3.850252	11.046994	0.682537	-80.667115	39.842547	-16.05286	0.13809	-0.126082	-0.234152	9.836925	2.357657	-0.128635	4.626752	-14.348502	6.464317	-0.638185	0.311395	-0.143306
-4.251156	1.626828	9.02686	-0.438112	2.76659	1.234366	0.652586	0.175609	-0.697069	-1.792228	0.260477	6.402584	29.551786	-14.994297	-32.821483	0.132086	-0.13809	-0.228148	10.22753	2.412917	-0.520133	7.149302	-14.6868	8.657188	-0.604348	0.313533	-0.162122
-4.19834	1.626213	8.796744	-0.004198	2.628835	1.462869	0.67148	0.233289	-0.717544	1.468085	0.012932	11.596857	-64.690447	7.643423	12.7925	0.132086	-0.126082	-0.234152	10.101369	2.352357	-1.150663	11.729569	-14.502594	6.261399	-0.638231	0.279131	-0.082789
-4.314092	1.452057	8.736224	-0.776813	2.806266	1.244047	0.637659	0.213236	-0.736596	2.904694	-0.618468	9.738221	-3.606425	-5.642089	-1.745094	0.132086	-0.13809	-0.234152	10.330484	2.815599	-1.02987	11.296203	-13.414634	4.857549	-0.60572	0.290271	-0.106228
-4.137356	1.452449	8.970912	-1.39667	2.886543	1.078722	0.637659	0.213236	-0.736596	3.27345	0.007782	11.454629	-15.617819	-2.831836	1.158701	0.120078	-0.144094	-0.258168	10.275464	2.410701	-0.975744	7.386603	-11.274294	6.040858	-0.60662	0.285517	-0.089139
-3.965581	1.85858	8.975319	-1.280691	2.699651	1.007171	0.623639	0.190075	-0.682009	2.906932	-0.275018	9.914612	11.21906	-4.465253	-3.506525	0.13809	-0.13809	-0.234152	10.38935	2.410473	-0.973492	5.965418	-8.459434	5.142171	-0.608373	0.308275	-0.115476
-4.485867	1.045925	8.731817	-1.145929	2.299677	0.712505	0.590583	0.209047	-0.73959	2.489137	1.331987	8.960161	12.33711	-5.855846	-3.976317	0.126082	-0.126082	-0.240156	10.159893	2.120921	-1.093496	4.607394	-6.268232	5.02289	-0.603021	0.30453	-0.157498
-4.249735	1.336754	9.083976	-0.198509	2.060975	0.557943	0.651559	0.176735	-0.715229	2.657843	1.617938	8.962913	8.502067	-6.001481	-4.031687	0.150098	-0.13809	-0.24616	9.652023	2.0651	-0.875526	2.421441	-4.954144	5.5006	-0.633306	0.289141	-0.146525
-4.083396	1.451974	8.79861	0.560021	1.547003	0.641039	0.620175	0.173942	-0.717225	1.918167	1.448784	8.65409	3.350447	-4.864261	-3.771479	0.13809	-0.126082	-0.228148	9.593043	2.528122	-0.931642	0.76037	-4.662192	5.087304	-0.608373	0.308275	-0.115476
-3.975645	1.625152	8.454427	1.049946	1.536566	0.445609	0.640096	0.230496	-0.71954	2.47891	1.848431	8.487246	0.854962	-3.889386	-3.741855	0.126082	-0.132086	-0.228148	9.709296	2.470523	-0.815468	-0.561837	-4.723019	3.949984	-0.60662	0.285517	-0.089139
-4.536676	1.337032	9.078261	1.412747	1.249238	0.486302	0.651942	0.196247	-0.734493	2.312888	1.3904	8.602798	-2.783364	-3.007287	-3.39849	0.13809	-0.120078	-0.234152	9.419631	2.122399	-1.108137	-2.162142	-4.230086	2.431306	-0.591477	0.293212	-0.094625
-4.199372	1.509988	8.738649	1.776446	1.118202	0.350038	0.656815	0.230766	-0.700382	2.721905	1.273404	9.31861	-6.001418	-2.357411	-3.116201	0.13809	-0.132086	-0.240156	9.819132	2.237659	-1.042635	-4.284845	-3.810336	1.278526	-0.608846	0.289767	-0.076673
-4.604882	0.697221	8.497433	1.528665	1.125119	0.325652	0.610121	0.246088	-0.722641	2.485706	1.389584	8.783059	-6.320102	-2.17509	-2.783873	0.13809	-0.126082	-0.234152	9.931893	2.237168	-1.097475	-6.069706	-3.233162	0.123906	-0.638658	0.292886	-0.104503
-4.702958	1.16377	9.363487	1.401669	1.067716	0.265195	0.621967	0.21184	-0.737594	2.377014	1.389519	9.016886	-5.851235	-2.032417	-2.915386	0.13809	-0.132086	-0.234152	9.650544	2.817753	-0.872109	-6.839952	-2.619181	-0.597928	-0.574109	0.296657	-0.112578
-3.679226	1.277736	8.921822	1.456717	1.101513	-0.070877	0.609356	0.207064	-0.684112	2.434961	1.274662	9.077176	-5.017259	-1.738252	-2.679597	0.150098	-0.120078	-0.228148	9.883948	2.818612	-0.582143	-7.577902	-2.569688	-0.419533	-0.627968	0.309079	-0.085057
-4.194299	0.988163	8.968651	1.494196	1.190825	0.084696	0.634195	0.197103	-0.771811	2.494335	1.045119	9.196669	-3.53222	-1.50459	-2.409546	0.13809	-0.13809	-0.234152	9.594169	2.528384	-0.874549	-7.885036	-2.616362	0.405692	-0.590578	0.297965	-0.111715
-4.027541	1.858077	8.742917	1.461262	1.130139	0.082987	0.637659	0.213236	-0.736596	2.324095	1.2748	9.193003	-4.147965	-1.261498	-1.815288	0.126082	-0.126082	-0.240156	10.046894	2.816431	-0.978409	-7.852935	-3.063228	1.639621	-0.623562	0.268317	-0.049472
-4.205142	1.567332	8.449715	1.285304	1.286205	0.276935	0.672507	0.232163	-0.699384	2.49148	1.274492	9.078263	-4.404162	-1.11598	-1.425787	0.120078	-0.144094	-0.234152	9.760267	2.642784	-1.099014	-8.035002	-3.970255	2.73014	-0.605293	0.276515	-0.084515
-4.145468	1.567556	8.566488	0.943782	1.32758	0.164515	0.639069	0.231622	-0.737701	2.21014	1.21795	9.131931	-5.137118	-0.967435	-1.296902	0.126082	-0.132086	-0.240156	9.538125	2.644554	-0.818058	-8.187875	-4.312037	2.920751	-0.643537	0.31514	-0.101284
-4.199149	1.277817	8.738091	0.984079	1.415194	0.44219	0.655788	0.231892	-0.718542	2.548341	1.159737	9.079552	-5.009762	-0.977504	-1.209464	0.132086	-0.132086	-0.24616	9.542288	2.819294	-0.588901	-8.187409	-4.55136	2.528703	-0.542071	0.289288	-0.097214
-4.541303	1.394516	8.847142	0.98741	1.601386	0.32752	0.669043	0.216029	-0.7346	2.378548	0.873887	9.0178	-4.42924	-0.989351	-1.447658	0.150098	-0.132086	-0.222145	9.246867	3.106979	-1.107047	-7.448593	-5.049302	1.596097	-0.605293	0.276515	-0.084515
-4.135823	1.04629	9.027748	1.203218	1.627303	0.262337	0.624021	0.209587	-0.701274	2.72248	1.44518	9.377305	-3.552149	-1.072132	-1.175808	0.132086	-0.132086	-0.234152	9.368535	2.587262	-0.764607	-6.12694	-4.961288	0.89771	-0.6556	0.275685	-0.064836
-4.478954	0.98872	9.078566	1.223901	2.053968	0.554403	0.602046	0.155286	-0.735278	2.149615	1.103942	8.895047	-3.197761	-0.737244	-1.321732	0.126082	-0.132086	-0.228148	8.961593	2.817803	-1.171085	-5.265387	-5.337375	0.115856	-0.64093	0.264871	-0.031519
-4.080721	1.045954	8.913262	1.982929	2.180594	1.09163	0.652324	0.215759	-0.753758	2.383299	1.102549	9.312394	-2.978008	-0.716747	-1.297502	0.132086	-0.126082	-0.240156	9.371356	2.298305	-0.651737	-4.466228	-5.29053	-0.309123	-0.61911	0.259818	-0.074404
-3.911065	1.277679	8.80162	2.447865	2.261517	1.022783	0.641123	0.229369	-0.70138	2.723503	1.101425	9.377914	-2.775903	-0.614089	-1.051029	0.132086	-0.126082	-0.240156	9.193871	2.8184	-0.938211	-3.85143	-5.251395	-0.367896	-0.609273	0.303522	-0.098386
-4.427225	0.929923	8.790495	2.495976	2.626722	1.250555	0.607302	0.209317	-0.720432	2.494059	1.503357	9.254857	-1.712093	-0.470967	-1.08052	0.144094	-0.120078	-0.24616	9.369547	2.645421	-0.707252	-3.636889	-4.944944	-0.190339	-0.608846	0.289767	-0.076673
-4.426249	1.104191	8.848729	2.810714	2.709155	1.368697	0.572837	0.209903	-0.776908	2.264081	0.988914	8.956423	-1.636196	-0.359933	-0.890732	0.120078	-0.120078	-0.234152	8.863372	2.300381	-0.433505	-3.330535	-4.427325	0.288664	-0.621762	0.277823	-0.083652
-4.600755	1.162121	8.72981	2.86574	3.195659	1.723525	0.653351	0.214633	-0.735598	2.605201	1.044981	9.080842	-0.817185	-0.502061	-1.207759	0.13809	-0.132086	-0.24616	9.537112	2.586395	-0.875413	-3.116042	-4.145183	0.038595	-0.641784	0.292382	-0.074947
-4.258712	1.161508	8.621039	2.780647	3.726773	1.319529	0.651297	0.216885	-0.771918	2.04024	1.333046	9.128468	-0.217805	-0.642232	-0.805877	0.126082	-0.132086	-0.228148	9.371015	2.471995	-0.650949	-2.532522	-3.91708	-0.391748	-0.636905	0.270128	-0.078165
-4.370282	1.394209	8.792756	3.076477	4.147834	1.482588	0.653351	0.214633	-0.735598	2.20345	1.275852	8.777828	-0.388476	-0.84737	-0.905544	0.132086	-0.126082	-0.234152	9.43574	1.95239	-0.309635	-1.181446	-3.247667	-1.011709	-0.60572	0.290271	-0.106228
-4.19926	1.393903	8.73837	2.722836	5.119715	0.889164	0.655405	0.21238	-0.699278	2.722587	1.044234	9.319016	-0.185037	-1.003939	-1.046598	0.13809	-0.126082	-0.234152	9.423897	2.818471	-0.819522	-0.167775	-2.94571	-1.930816	-0.623089	0.286825	-0.088276
-4.135823	1.04629	9.027748	0.092531	7.557876	-1.209557	0.602046	0.155286	-0.735278	2.72802	1.043727	9.614017	-0.088092	-1.438451	-1.139801	0.13809	-0.13809	-0.240156	9.433248	2.646884	-0.363573	0.66044	-2.191239	-2.524979	-0.591477	0.293212	-0.094625
-4.534223	1.163184	9.193471	-3.679084	10.088	-3.307911	0.620558	0.193454	-0.736489	2.264486	1.217983	9.015017	-0.834395	-1.370819	-1.231951	0.132086	-0.126082	-0.234152	9.421189	3.04953	-0.932655	1.028401	-1.812988	-2.929381	-0.60752	0.280764	-0.072049
-4.360859	1.105114	9.254575	-3.819211	11.275403	-4.325371	0.626458	0.226847	-0.684218	2.607438	1.388431	9.257233	-1.204903	-1.29062	-1.275147	0.126082	-0.132086	-0.234152	9.590222	2.817078	-1.044512	1.673793	-1.68424	-2.806556	-0.623988	0.282072	-0.071186
-4.303471	1.105058	9.255718	-4.054426	12.090303	-4.928044	0.650914	0.197373	-0.752653	2.830427	1.330762	9.084681	-1.777211	-1.548159	-1.239958	0.132086	-0.126082	-0.234152	9.648178	2.875123	-0.98603	1.827464	-1.652601	-2.745293	-0.639131	0.274378	-0.065699
-4.542391	1.336333	8.789187	-3.849395	13.108665	-5.502265	0.638686	0.21211	-0.718436	2.667154	1.044303	9.376929	-1.703458	-1.299891	-1.288523	0.132086	-0.132086	-0.252164	9.422884	2.760311	-0.876877	1.705709	-2.148162	-2.489773	-0.621762	0.277823	-0.083652
-4.374687	1.219522	8.561078	-4.581002	14.861132	-6.146305	0.639069	0.231622	-0.737701	2.604115	1.045083	9.021842	-0.420144	-0.945662	-0.78708	0.132086	-0.144094	-0.222145	9.251258	3.165927	-0.878415	1.58319	-2.281344	-1.875639	-0.609273	0.303522	-0.098386
-4.479874	0.75641	9.020192	-7.525153	16.46362	-7.293961	0.651942	0.196247	-0.734493	2.106881	1.217377	9.660759	0.929914	-0.858234	-0.583314	0.144094	-0.132086	-0.240156	9.238983	3.105139	-1.506692	1.706632	-2.411497	-1.260254	-0.653374	0.271436	-0.077302
-4.767204	1.162987	9.015455	-7.763139	17.670173	-7.238751	0.607302	0.209317	-0.720432	2.774078	1.27364	9.083696	1.298636	-0.577974	-0.300605	0.126082	-0.132086	-0.228148	9.70106	3.221599	-1.154603	1.737919	-2.57389	-0.614034	-0.608846	0.289767	-0.076673
-4.924343	0.990842	9.763199	-7.579623	20.028275	-6.626774	0.60692	0.189805	-0.701167	2.714064	0.987754	8.847116	1.023864	-0.147831	0.015108	0.13809	-0.126082	-0.240156	9.36188	3.107015	-1.047702	1.953676	-2.787611	-0.485578	-0.642683	0.287629	-0.057857
-4.678089	1.457057	10.63611	-0.951731	23.312342	-2.860171	0.620558	0.193454	-0.736489	2.157562	0.988646	9.308251	1.243853	0.073438	-0.225928	0.132086	-0.126082	-0.24616	9.467428	3.336533	-1.444043	2.968996	-3.055051	-0.198652	-0.609273	0.303522	-0.098386
-5.029641	0.643816	10.222593	8.323973	28.597891	0.253452	0.655788	0.231892	-0.718542	2.885008	1.617155	9.02626	2.025282	0.099018	-0.15998	0.126082	-0.132086	-0.252164	9.363336	3.512815	-0.931678	4.077435	-3.716655	-0.116181	-0.604867	0.262759	-0.062801
-4.902291	0.645241	10.860841	10.336301	33.844384	2.315777	0.670715	0.194265	-0.679015	2.431126	1.103191	8.84148	1.846842	0.062035	0.091366	0.120078	-0.13809	-0.234152	9.81043	3.799547	-1.320999	5.708772	-4.463776	-0.028916	-0.640884	0.297136	-0.092037
-4.902569	0.935455	10.86154	16.926348	38.451479	3.937453	0.639713	0.210984	-0.700276	2.215168	0.988374	9.368338	0.904088	-0.048382	-0.005063	0.156102	-0.126082	-0.252164	10.102586	3.453177	-0.974392	7.032578	-5.237184	-0.493224	-0.623089	0.286825	-0.088276
-4.968348	1.340831	10.456672	23.013534	42.826015	5.530984	0.655405	0.21238	-0.699278	2.493995	1.159704	9.196466	1.312091	0.028169	-0.014984	0.132086	-0.132086	-0.240156	9.594613	2.876026	-0.81588	9.06269	-5.634512	-0.931872	-0.620863	0.282576	-0.100742
-5.146228	1.340299	10.164169	25.835006	48.097207	6.44441	0.655023	0.192868	-0.680013	2.491992	1.102615	9.078567	1.172751	0.045009	0.362008	0.132086	-0.120078	-0.228148	9.59145	3.338671	-0.927961	11.092244	-5.894281	-2.383026	-0.623089	0.286825	-0.088276
-5.017401	0.993609	10.859394	27.57027	53.243101	7.378508	0.622229	0.171689	-0.680905	2.7215	1.044336	9.260016	1.545025	-0.004268	0.407123	0.132086	-0.13809	-0.222145	9.768367	3.108059	-0.640173	12.566338	-5.301706	-3.91811	-0.632926	0.243121	-0.064294
-5.491589	1.224408	10.099217	29.575554	58.292458	8.088304	0.670332	0.174753	-0.65975	2.262313	1.218186	8.897017	1.551412	-0.371501	0.290625	0.120078	-0.120078	-0.240156	9.14323	3.051676	-0.595733	13.701441	-4.376585	-5.432153	-0.573682	0.282902	-0.090864
-5.491645	1.282451	10.099357	31.074987	62.595413	8.046022	0.689488	0.192282	-0.623537	2.26683	1.160487	9.133119	1.807053	-0.091328	0.082975	0.132086	-0.13809	-0.228148	9.765329	2.933581	-0.812238	14.897202	-3.084252	-6.862637	-0.637378	0.25162	-0.039362
-5.28169	1.453981	9.121497	32.121346	66.420267	7.811511	0.690898	0.210668	-0.624642	2.491075	1.045424	9.019668	1.271613	-0.224733	0.093882	0.126082	-0.126082	-0.234152	9.306632	2.817909	-0.993051	15.263272	-1.987877	-8.170701	-0.605293	0.276515	-0.084515
-5.277229	1.570625	9.353035	31.790404	69.068325	8.508772	0.688461	0.193409	-0.641697	2.540393	1.275032	8.666348	0.763627	-0.42123	0.099744	0.162106	-0.13809	-0.228148	8.789523	2.875778	-1.231293	15.137421	-0.84533	-8.870766	-0.669843	0.272744	-0.076439
-5.467349	1.2203	8.423731	30.738636	70.755244	8.81697	0.700307	0.15916	-0.65665	2.731174	1.444368	9.849307	0.311932	-0.544831	-0.138996	0.126082	-0.126082	-0.240156	9.074126	2.933106	-1.225399	15.227277	0.167289	-8.893767	-0.635578	0.261126	-0.073541
-5.921296	1.801871	8.705059	26.677015	72.027147	9.301903	0.71908	0.157178	-0.601172	2.941634	1.216039	8.969057	-0.7939	-0.771006	-0.267825	0.132086	-0.13809	-0.258168	9.064331	2.757051	-1.740017	15.133221	0.932876	-8.942614	-0.61821	0.264571	-0.091494
-6.272316	1.627238	8.350893	22.515153	71.755365	10.275914	0.704798	0.174167	-0.603274	2.49033	0.93094	8.960871	-0.873476	-1.077731	-0.284606	0.13809	-0.144094	-0.240156	9.067141	3.047321	-1.567426	14.116876	1.681206	-8.5984	-0.6565	0.270932	-0.047746
-5.539541	1.160496	7.670857	17.699053	71.221725	11.407531	0.71908	0.157178	-0.601172	2.501537	0.81534	9.551076	-0.438742	-0.77243	0.059117	0.13809	-0.13809	-0.228148	8.949102	2.293581	-1.858556	13.254952	2.234383	-7.361839	-0.670316	0.254235	-0.037636
-5.827625	1.160635	7.607327	13.071886	69.946025	12.381947	0.737209	0.175834	-0.583118	2.606416	1.732186	9.256624	-0.786039	-0.525325	0.365726	0.132086	-0.120078	-0.234152	8.78346	1.947596	-1.635144	12.147017	2.786794	-6.279518	-0.604013	0.235248	-0.019374
-5.780746	1.391492	7.088696	7.014576	67.256786	13.668482	0.769882	0.13735	-0.506273	2.436665	0.701738	9.078191	0.607329	-0.22269	0.581718	0.13809	-0.144094	-0.234152	8.32532	2.121669	-1.757549	11.039013	3.450476	-4.435144	-0.618637	0.278327	-0.113208
-6.072457	0.404346	6.791532	0.363137	63.256403	15.159793	0.754955	0.174978	-0.5458	2.601259	1.274456	8.903435	1.050905	-0.15416	0.693605	0.126082	-0.132086	-0.240156	8.386984	2.586041	-1.468859	9.992706	4.023869	-2.649528	-0.656073	0.257177	-0.026033
-4.423225	0.575044	6.073505	4.336833	56.843218	19.355581	0.737089	0.116171	-0.507164	1.931484	0.989328	9.303904	0.889656	-0.172072	0.574702	0.114074	-0.126082	-0.234152	8.662019	2.351521	-1.978109	9.347101	4.200562	-0.638476	-0.621336	0.264067	-0.061938
-1.895945	-0.530076	6.178956	-3.162044	41.691115	25.146163	0.802676	0.158529	-0.505381	2.48707	0.931245	8.783871	1.302283	-0.493676	0.446364	0.13809	-0.132086	-0.240156	8.71266	2.118244	-2.320587	8.086056	4.585135	1.303261	-0.639131	0.274378	-0.065699
0.174825	-0.763691	6.450803	-9.038283	24.896091	28.53859	0.817985	0.140414	-0.485119	2.212824	1.04587	9.250236	1.018729	-0.609525	0.511049	0.132086	-0.13809	-0.252164	8.667548	1.831505	-1.752106	7.255864	4.738872	2.64096	-0.620009	0.255065	-0.057314
2.186032	-1.113615	6.605599	-12.73503	8.526805	28.015227	0.753808	0.116442	-0.488006	1.871875	0.932511	9.125919	1.424539	-0.854045	0.109767	0.144094	-0.13809	-0.240156	8.895094	1.946843	-1.747075	6.304079	4.334861	4.296778	-0.60444	0.249004	-0.041087
1.896805	-1.113616	6.484254	-20.435882	-10.687636	20.257504	0.766681	0.081067	-0.484799	2.044523	0.988987	9.306078	1.317431	-1.164603	0.186454	0.13809	-0.132086	-0.234152	9.062545	1.945713	-1.914973	5.566396	4.341468	5.301943	-0.64273	0.255365	0.00266
1.818271	-0.760777	8.332879	-26.175674	-32.556469	11.427518	0.766418	0.121217	-0.541488	2.827508	1.216481	8.907883	1.227894	-1.624246	0.129323	0.13809	-0.126082	-0.228148	9.005488	2.003723	-1.915837	5.04483	3.95454	6.164472	-0.601741	0.263263	-0.092357
1.63897	-0.471235	7.983261	-20.849901	-44.800195	2.271703	0.753808	0.116442	-0.488006	2.38038	0.988269	9.135597	1.868966	-2.295972	-0.029776	0.13809	-0.114074	-0.24616	9.289863	2.176843	-1.909417	4.830708	3.598878	7.242013	-0.587971	0.247696	-0.04195
1.516527	-0.820358	7.575433	-24.125235	-57.054766	-9.674471	0.750344	0.100309	-0.523222	2.60795	1.216554	9.257538	1.429858	-2.896504	-0.083236	0.132086	-0.132086	-0.228148	9.344781	2.060411	-2.023001	4.616171	3.345587	7.613742	-0.603967	0.267513	-0.079891
1.021528	-0.585031	8.664186	-28.458185	-70.011642	-22.234925	0.755217	0.134827	-0.489111	2.546508	1.045355	8.961755	2.858388	-2.892039	-0.134877	0.120078	-0.132086	-0.234152	9.47398	2.295449	-1.220406	4.770098	3.256436	7.555469	-0.619582	0.241309	-0.035601
0.212545	-0.759079	8.358691	-28.822106	-81.002798	-33.097287	0.724598	0.171058	-0.529636	2.654754	1.56095	8.786014	2.767291	-2.790451	-0.217762	0.126082	-0.126082	-0.228148	9.01212	2.642423	-1.5133	4.554487	3.381823	7.184394	-0.622235	0.259314	-0.044848
-0.63222	-0.814331	9.150813	-29.071355	-89.177635	-42.960177	0.721134	0.154925	-0.564852	2.262249	0.874533	8.838626	3.345896	-2.575686	-0.039595	0.150098	-0.144094	-0.234152	10.099116	2.351831	-1.264847	4.338446	3.664086	6.565004	-0.658772	0.242917	0.025237
-1.150023	-0.639842	9.083131	-31.017565	-92.240844	-51.808583	0.718698	0.137666	-0.581907	2.596508	1.045793	8.608841	3.446339	-2.556973	0.112474	0.132086	-0.126082	-0.216141	9.404534	2.350568	-1.849283	3.937063	4.25828	5.417451	-0.638277	0.246866	-0.022272
-2.29143	-0.115506	9.408418	-32.409001	-92.114143	-58.552973	0.704153	0.194805	-0.640699	2.658802	0.930531	8.905131	2.659159	-2.574087	-0.107242	0.13809	-0.126082	-0.228148	9.696133	1.714453	-1.561083	3.289918	4.758397	4.209584	-0.669889	0.24048	-0.015922
-3.715792	-0.1709	9.900036	-33.286526	-85.990252	-63.535527	0.659514	0.207875	-0.626638	2.377525	1.217642	9.017191	2.36641	-2.676389	-0.288586	0.132086	-0.13809	-0.234152	9.342631	2.581216	-2.077727	3.073907	5.012273	3.437923	-0.60534	0.244251	-0.023998
-4.071162	-0.578263	9.314053	-30.760056	-71.795772	-66.373287	0.629539	0.223468	-0.629738	2.270836	1.274666	9.368917	3.039435	-2.590746	-0.678407	0.126082	-0.120078	-0.234152	9.977119	2.466012	-1.666219	2.581671	5.103146	3.096739	-0.635578	0.261126	-0.073541
-5.036388	0.526892	9.875425	-34.017565	-58.106166	-65.947529	0.580409	0.221531	-0.669052	2.493888	1.560649	9.254755	2.224802	-2.544769	-0.893079	0.132086	-0.132086	-0.234152	9.918605	2.118221	-1.783107	2.212219	5.340176	3.333932	-0.66719	0.254739	-0.067192
-5.782824	0.933914	9.861544	-30.622352	-49.993599	-57.659963	0.622612	0.191201	-0.700169	2.891804	1.158308	9.322073	1.765336	-2.500216	-0.780807	0.132086	-0.120078	-0.228148	9.573556	2.697342	-1.90142	3.688374	5.042957	1.880698	-0.585745	0.243447	-0.054416
-6.772473	1.281439	9.149175	-22.805853	-53.542875	-42.562168	0.593402	0.245818	-0.741799	2.326162	1.675543	9.369293	1.849155	-2.423488	-1.11888	0.120078	-0.120078	-0.222145	9.293344	2.698962	-1.678682	3.442097	5.298105	3.066258	-0.599988	0.240505	-0.06602
-7.532292	1.338528	8.440678	-19.537158	-55.829254	-25.347898	0.546709	0.26114	-0.764058	2.49474	1.274187	9.255263	0.402937	-2.804098	-0.998008	0.13809	-0.132086	-0.234152	9.068847	2.178875	-1.571369	1.536396	5.301939	5.349758	-0.614231	0.237564	-0.077623
-7.543945	1.569302	7.86309	-22.806445	-50.761559	-10.914113	0.544917	0.223243	-0.743689	2.321581	1.389588	9.0748	0.732511	-3.035966	-0.993956	0.132086	-0.132086	-0.228148	9.234046	2.17722	-1.853451	0.951784	5.587195	6.288112	-0.603113	0.240001	-0.036464
-6.992924	1.56595	6.718224	-26.998938	-47.930333	-2.416809	0.52717	0.224099	-0.781007	2.202874	1.104076	8.719133	0.483488	-3.4826	-1.168073	0.13809	-0.144094	-0.240156	9.295494	2.178158	-1.623956	0.520997	5.842336	7.319739	-0.64183	0.260118	-0.01443
-7.265729	2.3226	7.465918	-34.122487	-53.497406	2.138323	0.531017	0.259744	-0.765056	2.83145	0.987007	9.08529	1.796273	-4.200837	-1.570905	0.13809	-0.144094	-0.234152	8.613756	1.9482	-1.58143	-0.093635	5.901336	9.027768	-0.604013	0.235248	-0.019374
-7.31637	2.43958	7.811943	-35.114594	-62.282856	4.918114	0.481122	0.218783	-0.765841	2.384386	1.102448	9.371395	1.924762	-5.062286	-1.847161	0.13809	-0.114074	-0.234152	8.667434	1.889401	-1.751843	-0.617088	6.258617	9.291924	-0.619156	0.227554	-0.013887
-28.995049	12.119761	17.285991	-31.791207	-68.363159	8.653816	0.462993	0.200127	-0.783894	2.430614	1.275068	8.841175	2.614618	-5.683572	-2.406562	0.126082	-0.126082	-0.234152	8.727415	2.063765	-1.578652	-0.126035	6.686071	9.804575	-0.637851	0.233111	-0.000558
-13.273483	8.114378	-0.152612	158.097681	-47.978627	26.98304	0.493732	0.223558	-0.819323	2.434215	1.160179	9.018379	4.501708	-6.02397	-2.187945	0.132086	-0.132086	-0.222145	8.890919	2.351329	-1.916512	0.457846	6.895583	10.628615	-0.603113	0.240001	-0.036464
-17.980363	7.06685	-3.254076	103.522341	-33.352687	43.428597	0.42891	0.220225	-0.859635	2.266489	1.275072	9.132916	3.814428	-6.490837	-1.636626	0.13809	-0.132086	-0.240156	9.638394	2.119842	-1.560369	-0.553662	5.916016	13.857157	-0.637851	0.233111	-0.000558
-18.107163	9.350636	4.955356	32.484236	-18.309072	35.984864	0.459529	0.183994	-0.81911	2.380615	1.27463	9.19409	5.160995	-6.465254	-1.436697	0.120078	-0.126082	-0.234152	9.239791	2.120638	-1.568253	-3.074011	5.847349	16.383599	-0.623089	0.286825	-0.088276
-2.327409	6.88994	2.142951	48.87154	-12.846989	25.458895	0.445247	0.200983	-0.821212	2.553433	1.273814	9.37435	4.814818	-6.566752	-2.172332	0.132086	-0.132086	-0.252164	9.423794	2.29714	-0.87898	-0.492746	6.269166	14.889124	-0.636478	0.256373	-0.056451
0.395465	3.762857	6.235016	-1.616457	-8.429738	7.31174	0.475221	0.18539	-0.818112	2.329976	0.758762	9.429917	3.602002	-6.969637	-2.401325	0.132086	-0.132086	-0.24616	9.531606	1.947957	-1.220857	-1.693855	7.007204	13.70339	-0.617783	0.250816	-0.06978
-2.161634	3.536265	7.454948	-26.523347	9.52736	-3.429609	0.474456	0.146366	-0.779582	2.488966	1.38928	8.960059	3.764413	-7.691711	-3.566119	0.132086	-0.144094	-0.234152	9.583589	2.178377	-1.447048	-1.757385	7.650701	11.57787	-0.640031	0.269624	-0.048609
-4.58262	1.563613	6.766229	-43.221383	12.028254	-2.929895	0.44281	0.183723	-0.838268	2.158137	1.160422	9.366947	2.713419	-8.502374	-3.858057	0.13809	-0.144094	-0.216141	10.656377	2.811236	-1.822403	-2.312873	8.371021	10.059582	-0.657353	0.298443	-0.091174
-5.583954	-0.688374	11.132985	-44.588703	11.50038	0.136844	0.474194	0.186517	-0.836272	2.790314	0.928464	9.910307	3.067674	-9.542402	-4.463033	0.126082	-0.13809	-0.234152	10.880088	3.157371	-1.987597	-0.039518	8.759914	6.39271	-0.590151	0.28421	-0.090002
-5.05999	-1.326506	11.488624	-19.568663	7.499365	3.167029	0.492323	0.205173	-0.818218	2.614746	0.757707	9.553351	3.199734	-10.386477	-3.90387	0.132086	-0.150098	-0.234152	10.660085	3.217562	-1.592194	2.543327	8.348463	3.235363	-0.639131	0.274378	-0.065699
-4.810406	-0.518658	9.646222	2.949657	4.507396	4.800812	0.51986	0.17232	-0.832173	2.167512	0.93044	9.839354	5.826979	-12.081741	-2.779195	0.120078	-0.144094	-0.240156	10.379305	3.508665	-1.368143	2.452465	7.684366	2.48566	-0.639604	0.255869	-0.026896
-4.181027	1.454181	9.663546	8.012875	3.452291	4.545442	0.461704	0.241403	-0.858744	2.622353	0.756996	9.966352	6.206482	-17.025359	0.969286	0.132086	-0.132086	-0.216141	9.642205	3.047498	-1.270702	2.853824	6.983897	2.534647	-0.621336	0.264067	-0.061938
-4.323348	1.567024	8.273985	6.333145	3.440561	4.157051	0.477275	0.183138	-0.781792	2.278272	1.331248	9.781816	-7.353529	-24.850005	9.149478	0.144094	-0.10807	-0.210137	10.101016	3.105273	-1.090153	3.007854	6.808689	2.080768	-0.656073	0.257177	-0.026033
-4.375132	1.683864	8.562195	0.68031	3.777814	3.999676	0.50725	0.167545	-0.778691	2.005283	1.388479	10.307283	-9.410554	-27.698782	12.873227	0.132086	-0.13809	-0.240156	9.809656	3.046368	-1.4386	3.683944	6.806308	0.738728	-0.637805	0.265375	-0.061075
-4.654325	0.756297	8.901133	-2.143978	3.609068	3.815404	0.480094	0.219909	-0.784001	2.795853	0.527011	10.147018	-10.032036	-35.036767	15.082603	0.126082	-0.13809	-0.234152	9.824184	3.107682	-0.696139	4.791577	6.321554	-0.773324	-0.638231	0.279131	-0.082789
-4.127877	1.10531	9.432592	-1.572101	3.383075	3.456371	0.487067	0.151142	-0.833065	2.69741	1.098753	11.028833	-19.014188	-41.395001	13.73445	0.126082	-0.114074	-0.240156	10.10237	2.989743	-1.033587	5.714354	5.989134	-2.381667	-0.640031	0.269624	-0.048609
-4.426502	0.175368	8.788678	-0.102173	1.975774	2.141243	0.461321	0.221891	-0.839479	3.08843	2.639348	14.10062	-13.240211	-46.724745	2.985266	0.102066	-0.13809	-0.216141	9.984206	2.873126	-1.264734	5.682931	6.131743	-3.761483	-0.588398	0.261452	-0.063664
-4.367495	0.872105	8.907128	2.480063	0.444892	0.947404	0.511096	0.20319	-0.76274	3.023018	0.526228	10.210365	10.716086	-60.550731	-3.438869	0.10807	-0.13809	-0.234152	10.325524	3.046133	-1.257187	5.065578	7.031133	-5.00908	-0.656027	0.289441	-0.08655
-4.139419	1.219998	8.854723	3.430274	-0.530472	0.609723	0.49194	0.185661	-0.798954	2.981264	1.040507	11.093367	-3.074964	-63.385496	-2.315855	0.126082	-0.144094	-0.234152	9.873584	2.932039	-1.095447	4.385765	8.383611	-5.869913	-0.59195	0.274703	-0.055822
-4.021269	1.278349	9.030593	2.334387	-0.71264	0.292138	0.506223	0.168671	-0.796851	2.629683	1.214524	10.437541	4.680267	-68.062243	-4.164846	0.10807	-0.132086	-0.222145	9.194884	2.876559	-0.880856	3.368044	9.609315	-6.729625	-0.622662	0.27307	-0.066562
-4.428813	1.394125	8.733798	1.488783	-0.934597	0.150325	0.466457	0.21626	-0.748679	3.540515	1.211188	10.808929	5.076777	-72.306134	-4.791431	0.114074	-0.132086	-0.210137	9.468565	2.757569	-1.446672	1.582366	10.468174	-8.288438	-0.589297	0.256698	-0.046574
-4.021659	1.684648	9.031571	1.465519	-0.812913	0.308672	0.497841	0.219053	-0.746683	3.428392	1.268719	10.865654	7.42724	-77.246165	-3.833905	0.10807	-0.144094	-0.228148	9.419506	2.759523	-1.048153	-0.816974	10.85247	-9.350175	-0.620863	0.282576	-0.100742
-4.255339	1.21997	8.794623	0.203081	0.047146	0.679599	0.508659	0.185931	-0.779796	3.1998	1.384189	10.743104	11.261457	-82.956829	-3.597848	0.090059	-0.144094	-0.234152	9.651215	3.049601	-0.813965	-3.091986	10.685241	-10.306698	-0.60662	0.285517	-0.089139
-4.137942	0.871882	8.9117	-0.637921	0.588779	0.996871	0.492585	0.165022	-0.761529	3.438513	1.153221	11.396858	16.614819	-88.864154	-3.213286	0.090059	-0.132086	-0.216141	9.3153	2.993702	-0.535525	-4.814113	10.821352	-10.59439	-0.633352	0.256877	-0.086007
-4.146333	1.277203	8.507974	-1.845107	1.294321	1.29902	0.462993	0.200127	-0.783894	4.051641	0.751213	10.878521	20.285352	-95.203951	-3.876968	0.096063	-0.132086	-0.216141	9.25375	2.471433	-0.824478	-5.982121	10.738865	-10.139963	-0.606193	0.271762	-0.067425
-4.023722	1.452198	8.915383	-1.941302	1.751584	1.839599	0.497841	0.219053	-0.746683	3.647886	0.924994	10.457608	24.561282	-99.770223	-5.0361	0.084055	-0.150098	-0.216141	8.692542	2.300722	-0.436884	-6.687571	10.213037	-8.326981	-0.585745	0.243447	-0.054416
-4.20188	1.741879	8.623579	-2.425197	2.072059	1.864264	0.525378	0.186201	-0.760637	4.265084	0.980817	10.233459	27.785374	-99.926227	-8.161172	0.066043	-0.13809	-0.216141	8.789865	2.702089	-1.232081	-6.65444	9.470428	-5.740372	-0.60662	0.285517	-0.089139
-4.137356	1.452449	8.970912	-1.707889	2.111919	2.062767	0.527815	0.20346	-0.743582	4.87101	0.808588	9.360714	33.07885	-98.646881	-11.269482	0.072047	-0.144094	-0.222145	8.288854	3.169176	-0.612101	-6.129753	8.859644	-3.368301	-0.622235	0.259314	-0.044848
-4.306789	0.988554	9.081995	-1.438	2.078113	1.749368	0.515969	0.237709	-0.728629	4.193415	1.326062	9.464761	33.456078	-94.288909	-13.970789	0.066043	-0.144094	-0.216141	8.64123	2.30215	-0.152549	-5.543899	8.374026	-1.121167	-0.608419	0.276011	-0.054959
-4.080888	1.220082	8.913681	-0.842558	2.214316	1.893605	0.496814	0.220179	-0.764843	3.947309	0.75585	8.281427	33.106889	-93.872391	-16.249518	0.060039	-0.144094	-0.198129	8.751738	2.301134	-0.321573	-5.357823	7.888919	0.756767	-0.623135	0.254561	-0.027758
-4.311472	1.10408	8.851015	-0.550513	2.543553	2.022423	0.510451	0.223829	-0.800165	4.549358	1.156748	7.289666	28.205038	-89.775917	-16.859453	0.048031	-0.13809	-0.216141	9.096332	1.953599	-0.202208	-4.496164	7.722265	2.386257	-0.588825	0.275207	-0.085378
-4.195609	1.162151	8.911255	-0.374172	2.355888	1.888286	0.511096	0.20319	-0.76274	4.541069	1.386628	6.876259	27.858918	-82.879588	-17.022653	0.048031	-0.132086	-0.204133	8.878684	2.535646	0.366837	-3.880012	7.341204	3.805297	-0.605766	0.258006	-0.045711
-4.479343	1.395019	9.079544	-0.034252	2.503678	1.672359	0.497841	0.219053	-0.746683	3.679555	1.619573	6.151551	25.871833	-74.52191	-18.20701	0.072047	-0.156102	-0.210137	9.151694	2.184808	-0.257123	-3.663806	7.049886	5.036592	-0.61821	0.264571	-0.091494
-4.140618	1.277901	8.797048	0.477845	2.058546	1.703023	0.525378	0.186201	-0.760637	0.363475	0.143814	3.790159	28.2511	-61.541045	-19.160789	0.036023	-0.150098	-0.186121	9.267833	2.185106	-0.140686	-3.693663	6.734402	5.624849	-0.621762	0.277823	-0.083652
-4.364678	1.510993	9.082109	0.243278	1.793006	1.300419	0.530634	0.240232	-0.745791	-1.7447	-0.368895	5.814786	12.88924	-36.043406	-10.414131	0.048031	-0.132086	-0.192125	9.613202	2.59075	0.09628	-3.385259	6.311812	5.452802	-0.603921	0.299777	-0.140408
-4.253862	0.871854	8.851599	0.767288	1.748461	1.286134	0.491558	0.166149	-0.779689	-2.747755	-0.424439	6.56233	16.911701	-19.861566	1.912541	0.03002	-0.162106	-0.174113	9.677358	2.360627	0.438908	-2.431077	5.728681	4.24808	-0.623135	0.254561	-0.027758
-4.594873	0.988692	9.018465	0.690343	1.445566	1.061606	0.525761	0.205713	-0.779902	-3.19793	-1.454238	6.496464	15.859369	-3.639052	18.65792	0.024016	-0.156102	-0.186121	9.617263	2.24416	0.265979	-1.692417	5.239831	2.703577	-0.587971	0.247696	-0.04195
-4.599501	1.046176	8.787346	1.221481	0.881298	0.750771	0.529607	0.241358	-0.763951	-2.233561	-1.915677	6.633749	8.31644	16.152215	30.798612	0.042027	-0.162106	-0.180117	9.837266	2.183968	-0.129424	-0.615923	4.908397	1.15723	-0.608419	0.276011	-0.054959
-4.485114	1.452363	8.79061	1.524756	0.813808	0.587993	0.560609	0.224639	-0.742691	-1.328098	-1.574853	6.768527	3.136846	29.549269	31.536902	0.024016	-0.144094	-0.192125	9.84052	2.82188	0.101837	-0.123653	4.62744	-0.148759	-0.572782	0.287655	-0.107954
-4.712158	1.220695	8.901108	1.60659	0.723797	0.246198	0.508277	0.166419	-0.760531	-0.363261	-1.463571	7.022797	0.317562	40.348192	27.234105	0.042027	-0.156102	-0.162106	9.837494	2.068176	-0.129949	0.122883	4.251049	-1.423277	-0.620436	0.268821	-0.079028
-4.253386	1.568506	8.911091	1.483178	0.601499	0.427465	0.543507	0.204857	-0.742584	-0.297878	-1.521846	7.495987	-3.121062	52.814235	20.743241	0.048031	-0.144094	-0.180117	9.494014	2.9952	-0.132501	0.246294	4.015065	-1.937088	-0.60752	0.280764	-0.072049
-3.96073	1.568926	9.205879	0.926106	0.710902	0.261844	0.529225	0.221846	-0.744687	0.658778	-1.58163	7.27856	-6.30434	65.337226	13.566543	0.048031	-0.13809	-0.180117	9.83275	2.762144	-0.298071	0.678487	3.256378	-2.070096	-0.604867	0.262759	-0.062801
-4.425384	1.394544	8.907242	0.701763	1.205556	0.562527	0.527815	0.20346	-0.743582	0.820112	-1.008608	6.926804	-9.787991	75.399462	6.118831	0.054035	-0.144094	-0.198129	10.00234	2.819436	-0.351522	0.649082	2.729052	-1.660418	-0.639558	0.288133	-0.087413
-4.425328	1.336502	8.907103	0.681635	1.356716	0.813689	0.544917	0.223243	-0.743689	1.117518	-1.23995	7.699646	-15.877073	84.543553	-0.706413	0.042027	-0.144094	-0.192125	9.888009	2.472022	-0.412444	0.80451	1.970121	-2.009004	-0.624888	0.277319	-0.054096
-4.20361	1.161173	8.506552	0.506639	1.606303	0.919778	0.527815	0.20346	-0.743582	1.290124	-0.438875	7.996485	-23.365436	92.310838	-5.68428	0.042027	-0.13809	-0.198129	9.941801	2.355327	-0.58312	0.806506	1.059664	-2.599584	-0.635106	0.279635	-0.112345
-4.657557	1.742744	8.787879	0.233483	1.736178	0.962165	0.542098	0.186471	-0.741479	2.08683	-0.441768	8.306699	-28.247309	97.933016	-8.669453	0.054035	-0.144094	-0.186121	9.616694	2.533642	0.267294	1.054892	-0.085273	-3.703354	-0.603967	0.267513	-0.079891
-4.137133	1.220278	8.970353	-0.066459	1.989861	1.010273	0.576683	0.245548	-0.760957	1.641194	-0.441014	8.652007	-32.016885	100.295814	-9.740725	0.060039	-0.144094	-0.192125	9.491648	3.052571	-0.246422	1.271726	-0.919554	-5.120359	-0.572402	0.241635	-0.025723
-4.07757	1.336587	9.087405	-0.311741	1.963906	1.137275	0.558817	0.186742	-0.722321	2.48871	0.014668	8.726495	-36.614893	98.813662	-9.205007	0.072047	-0.13809	-0.198129	9.434033	2.820836	-0.305692	1.427456	-1.909212	-6.44234	-0.639085	0.306642	-0.126216
-4.196974	1.394182	8.854	-0.432203	2.059399	1.144061	0.559844	0.185615	-0.704161	2.942869	0.070393	8.853087	-40.595251	91.754398	-6.638796	0.066043	-0.13809	-0.204133	9.715041	2.413941	-0.53027	1.951982	-2.752401	-7.001096	-0.644437	0.310387	-0.084194
-4.079634	1.104137	8.971216	-0.520116	2.247178	1.092744	0.545561	0.202604	-0.706264	2.945682	0.585619	9.088174	-43.654357	78.84632	-1.854381	0.090059	-0.13809	-0.222145	9.606205	3.284192	-0.186026	1.922902	-3.484791	-7.228955	-0.60444	0.249004	-0.041087
-4.027151	1.451778	8.741939	-0.341727	2.121011	0.961085	0.527433	0.183948	-0.724317	2.993338	0.643553	8.617158	-49.41455	69.691185	6.420783	0.084055	-0.150098	-0.210137	9.488166	2.530452	-0.477157	2.016822	-4.162974	-6.876278	-0.589297	0.256698	-0.046574
-4.360915	1.163156	9.254715	-0.191278	1.868413	1.13049	0.528842	0.202334	-0.725422	2.432788	1.274865	8.959176	-51.0614	68.461649	17.340537	0.078051	-0.13809	-0.228148	9.315198	2.472371	-0.594983	2.387597	-4.926082	-6.764831	-0.620863	0.282576	-0.100742
-4.026984	1.27765	8.741519	0.147167	1.734791	1.239194	0.533333	0.217341	-0.672046	2.898452	1.845005	9.792856	-47.244473	68.770409	28.313624	0.102066	-0.13809	-0.240156	8.913785	2.182897	-0.775457	2.390813	-6.222979	-6.092438	-0.585272	0.261956	-0.09322
-4.258601	1.045423	8.620759	0.001453	1.827699	1.490949	0.559844	0.185615	-0.704161	3.009318	1.844867	9.677029	-43.394021	64.479628	38.61871	0.10807	-0.132086	-0.228148	9.03725	1.89529	-0.317782	1.871083	-7.350569	-4.876244	-0.589297	0.256698	-0.046574
-4.312615	1.10394	8.7932	-0.140672	2.200746	1.50965	0.560609	0.224639	-0.742691	3.461069	1.614435	9.627128	-38.766678	58.611204	48.731605	0.102066	-0.120078	-0.228148	9.325107	2.59053	-0.080628	2.181073	-8.285836	-3.537714	-0.577707	0.277645	-0.044219
-4.147921	1.741404	8.451278	-0.227691	2.199783	1.756154	0.541715	0.166959	-0.722215	4.133317	2.529374	9.461543	-31.774145	52.127836	57.420911	0.114074	-0.120078	-0.228148	9.092715	2.64783	-0.313238	2.36739	-8.944485	-2.359196	-0.585272	0.261956	-0.09322
-4.137189	1.278321	8.970493	-0.214822	2.348858	2.098126	0.574509	0.188138	-0.721323	4.968581	2.356158	8.770145	-29.136007	43.95577	62.175347	0.10807	-0.10807	-0.234152	9.092385	2.242292	-0.372171	2.55316	-9.3327	-0.819938	-0.622235	0.259314	-0.044848
-4.250933	1.394657	9.026301	-0.31601	2.871866	2.335929	0.577972	0.204271	-0.686108	5.815053	2.067342	8.668952	-32.131549	36.797695	62.319516	0.102066	-0.114074	-0.240156	8.983117	2.185675	-0.146317	2.923572	-9.781307	0.813459	-0.60444	0.249004	-0.041087
-3.964857	1.104026	8.973502	0.023076	2.800592	2.38606	0.515204	0.198685	-0.6901	7.104263	2.751744	8.220725	-36.326378	40.025515	58.787259	0.10807	-0.096063	-0.234152	8.582375	2.128049	-0.268648	3.87864	-10.409807	2.668252	-0.56615	0.242643	-0.084835
-4.316434	1.50982	8.620734	0.070224	3.072276	2.701694	0.557407	0.168356	-0.721217	13.225369	7.590032	16.174304	-45.864958	87.91988	34.341775	0.102066	-0.10807	-0.240156	8.928881	1.954729	-0.034311	4.83461	-11.38093	4.897994	-0.60354	0.253757	-0.058177
-4.481852	1.626911	8.964473	1.024055	3.112013	2.436176	0.540688	0.168086	-0.740375	14.021953	2.900696	9.591995	12.947927	88.60706	9.22967	0.114074	-0.114074	-0.24616	9.044122	1.838971	0.024508	4.498259	-12.073059	5.829764	-0.624888	0.277319	-0.054096
-3.966445	1.568227	8.916805	0.767631	2.967308	2.252971	0.561253	0.204001	-0.705266	18.435307	5.626004	16.513727	111.933134	18.93137	-51.447228	0.10807	-0.10807	-0.258168	9.433931	2.299506	-0.36515	4.376594	-12.546607	6.665863	-0.61911	0.259818	-0.074404
-4.033509	0.928556	8.393792	1.622728	2.762213	2.071423	0.59302	0.226306	-0.722535	16.886424	6.059224	-0.030937	93.111204	25.140871	-25.879559	0.126082	-0.10807	-0.252164	9.491659	2.473344	-0.306143	4.46758	-12.130666	5.555676	-0.606193	0.271762	-0.067425
-4.023834	1.568283	8.915662	1.775039	2.759429	1.97601	0.544152	0.184219	-0.705159	18.175734	7.420715	5.771463	52.634604	17.080729	-25.141965	0.10807	-0.126082	-0.24616	9.086754	2.240978	-0.657631	5.172486	-11.305941	4.255799	-0.599988	0.240505	-0.06602
-3.964857	1.104026	8.973502	2.105101	2.568131	1.80751	0.593282	0.186156	-0.665845	3.052676	0.080574	2.544415	80.745011	22.558272	-40.496382	0.126082	-0.120078	-0.234152	9.253306	2.123792	-0.883147	5.632144	-10.736724	3.449874	-0.572828	0.255391	-0.047437
-3.964857	1.104026	8.973502	2.135985	2.567319	1.806742	0.592637	0.206794	-0.70327	0.019878	3.457073	10.206596	-22.569232	11.043704	-12.626004	0.132086	-0.102066	-0.252164	9.946307	2.356378	-0.354751	5.385743	-10.52881	3.688404	-0.589297	0.256698	-0.046574
-4.247727	1.627247	9.200304	2.41555	2.715884	1.653401	0.52705	0.164436	-0.705053	1.584995	1.277422	8.942876	-17.443696	1.005172	-2.268216	0.120078	-0.132086	-0.24616	10.27816	2.758868	-0.802891	3.324752	-10.203869	2.782838	-0.591523	0.260948	-0.034108
-4.252355	1.684731	8.969185	2.538705	2.744236	1.590519	0.575536	0.187012	-0.703163	2.330956	1.159606	9.547207	-24.510992	-3.385372	1.106564	0.132086	-0.120078	-0.240156	10.38968	2.816011	-0.91456	2.183825	-8.994336	0.852403	-0.607992	0.262256	-0.033245
-4.310941	1.742689	8.910367	3.087012	2.608755	1.419124	0.577972	0.204271	-0.686108	2.872827	-0.506047	11.093935	-26.253929	-1.391667	0.67973	0.132086	-0.096063	-0.24616	10.386415	2.757326	-1.086099	1.655646	-6.93875	-1.828415	-0.619156	0.227554	-0.013887
-4.136157	1.394546	9.028587	2.986291	2.584687	1.114936	0.576563	0.185886	-0.685003	2.644235	-0.390578	10.971385	-2.892011	-2.409703	-2.274541	0.13809	-0.114074	-0.240156	10.328471	2.120054	-1.204301	-0.009742	-4.915782	-3.260618	-0.619156	0.227554	-0.013887
-4.307123	1.33681	9.082833	3.438549	2.32822	0.971414	0.608974	0.187552	-0.664847	2.737501	0.412799	10.028135	11.844856	-3.861607	-1.914409	0.144094	-0.114074	-0.24616	10.274451	2.352542	-1.033099	-2.564777	-3.62331	-3.701936	-0.610218	0.266505	-0.020779
-4.538962	1.336753	8.962631	3.115486	2.125338	0.665167	0.592637	0.206794	-0.70327	2.259863	1.676627	8.837205	11.526449	-5.658209	-1.214555	0.126082	-0.10807	-0.252164	9.872014	2.584135	-1.211208	-4.841649	-2.940013	-4.158219	-0.602214	0.244755	-0.053554
-4.484082	1.568588	8.848704	3.674808	2.234151	0.625782	0.563308	0.201748	-0.668946	2.206028	1.504717	8.954423	3.01543	-7.105625	-2.883201	0.120078	-0.126082	-0.240156	9.474651	2.527298	-1.162263	-6.502132	-2.864436	-4.444168	-0.640077	0.23736	0.011908
-4.480319	1.220751	9.02131	4.044724	2.224837	0.586047	0.609356	0.207064	-0.684112	2.035148	1.218969	8.83367	-1.519095	-6.604573	-3.427945	0.126082	-0.114074	-0.234152	9.533961	2.469813	-1.047215	-8.500866	-2.627696	-3.481669	-0.605766	0.258006	-0.045711
-4.083452	1.510016	8.79875	4.6903	2.052776	0.655313	0.597893	0.260825	-0.688424	2.483128	1.160719	8.606464	-2.60686	-5.728603	-3.826697	0.114074	-0.102066	-0.240156	9.198274	2.298121	-0.7693	-11.175509	-2.583197	-2.51835	-0.592423	0.256194	-0.017018
-4.826014	1.453116	8.957196	4.888228	2.448069	0.636284	0.595719	0.203415	-0.64879	2.088003	0.990035	8.599162	-7.439308	-4.639857	-4.075671	0.120078	-0.120078	-0.258168	9.529229	2.584555	-1.275058	-13.082449	-2.186173	-1.95669	-0.604867	0.262759	-0.062801
-4.309409	1.33653	8.967203	5.566552	2.52501	0.439965	0.594954	0.164391	-0.61026	2.44587	0.529049	9.550497	-7.567454	-3.902094	-4.394554	0.132086	-0.114074	-0.228148	9.294914	3.046866	-1.562921	-14.312626	-2.043538	-2.272464	-0.591523	0.260948	-0.034108
-4.422875	1.162653	9.022313	6.291907	3.344213	-0.093698	0.593282	0.186156	-0.665845	2.730129	0.699871	9.673626	-3.756656	-3.173218	-4.177284	0.132086	-0.120078	-0.234152	9.467996	3.047051	-1.445358	-15.635259	-1.809179	-2.652032	-0.624888	0.277319	-0.054096
-4.42767	1.394265	8.791613	8.548473	4.959824	-1.058873	0.589818	0.170023	-0.701061	1.987833	1.04645	9.304889	-0.674458	-2.570265	-3.354407	0.120078	-0.114074	-0.234152	9.011665	2.874009	-1.512248	-16.865607	-1.495777	-2.084795	-0.64093	0.264871	-0.031519
-4.244242	1.569623	9.373609	3.229131	8.079293	-2.698973	0.60692	0.189805	-0.701167	2.324137	0.530202	9.076322	1.045363	-1.879813	-2.507302	0.120078	-0.114074	-0.228148	9.371004	3.051221	-0.591228	-17.97217	-1.411277	-0.441108	-0.589724	0.270454	-0.068288
-4.023834	1.568283	8.915662	-2.043884	12.022126	-6.139862	0.624666	0.188949	-0.663849	2.37597	0.645022	8.841205	1.581157	-1.523183	-2.040334	0.13809	-0.10807	-0.222145	9.365714	2.876218	-0.877477	-18.432873	-1.413041	1.360965	-0.607992	0.262256	-0.033245
-4.713635	1.568811	8.844132	-2.948547	13.758513	-7.544407	0.591872	0.16777	-0.664741	2.429229	0.645156	8.665291	1.502473	-1.138216	-2.198209	0.120078	-0.126082	-0.240156	9.648621	3.222765	-0.927361	-18.923584	-1.749176	2.956526	-0.605812	0.225742	0.014806
-4.42675	1.626575	8.849987	-5.179406	15.152312	-8.320326	0.559461	0.166103	-0.684897	2.379528	1.274731	9.135089	1.006793	-0.726877	-1.937475	0.132086	-0.10807	-0.24616	9.649076	2.991179	-0.928412	-18.091824	-2.338994	4.167471	-0.589724	0.270454	-0.068288
-4.593366	1.801569	9.136051	-5.704877	16.748327	-9.189591	0.611148	0.244962	-0.704481	2.603028	1.045184	8.962842	1.424219	-0.463101	-1.966635	0.120078	-0.114074	-0.240156	9.534962	3.107199	-0.930139	-16.491407	-3.031076	4.650891	-0.623988	0.282072	-0.071186
-4.58846	1.453872	9.366471	-7.123341	19.697318	-10.440432	0.624666	0.188949	-0.663849	2.44033	0.930502	9.313786	0.967053	-0.421935	-1.792853	0.120078	-0.132086	-0.24616	9.483764	3.050731	-0.646067	-14.213722	-4.084911	5.299261	-0.602641	0.25851	-0.075267
-4.63991	1.222455	9.653843	-9.994123	23.608216	-11.647797	0.594309	0.185029	-0.647685	2.324095	1.2748	9.193003	0.79842	-0.439849	-1.324306	0.120078	-0.120078	-0.240156	9.484094	3.456269	-0.587135	-11.874346	-5.228139	5.827696	-0.60444	0.249004	-0.041087
-4.635116	0.990844	9.884543	-9.858264	29.670244	-11.585417	0.607564	0.169167	-0.663743	2.276269	1.274158	9.663918	1.694182	-0.740332	-1.067097	0.126082	-0.096063	-0.240156	9.493445	3.284682	-0.131187	-9.042199	-6.732233	6.305979	-0.620436	0.268821	-0.079028
-4.631464	0.759092	10.057429	-9.705218	36.053483	-12.549222	0.582846	0.23879	-0.651997	2.608184	1.502915	9.31603	1.599867	-0.935668	-0.828963	0.114074	-0.126082	-0.240156	9.775807	2.762257	-0.299198	-5.872424	-8.093704	5.712322	-0.606666	0.253253	-0.028621
-5.455568	1.809307	11.950687	-10.619333	43.13855	-8.569569	0.612438	0.203685	-0.629632	2.553944	1.101937	9.374655	1.292152	-1.127352	-0.490127	0.144094	-0.114074	-0.234152	9.495709	2.705981	-0.076723	-2.149908	-9.169775	4.93151	-0.621762	0.277823	-0.083652
-5.010321	0.762276	11.205723	9.866905	49.873761	-0.254048	0.629802	0.183317	-0.573049	2.607374	1.044778	9.198842	2.226938	-1.440935	-0.018851	0.114074	-0.10807	-0.252164	9.497279	3.053885	0.039038	1.446901	-9.214985	2.719227	-0.624461	0.263563	-0.032382
-5.135662	1.051344	10.683803	10.063831	58.373293	1.679417	0.662978	0.224008	-0.591422	2.495422	1.045018	9.255669	3.388694	-1.476484	0.307487	0.120078	-0.120078	-0.228148	9.276036	3.17171	0.377612	4.520193	-8.870416	0.647995	-0.64093	0.264871	-0.031519
-5.36212	1.400241	10.853514	16.979937	65.279309	3.479419	0.643822	0.206479	-0.627636	2.498448	0.758352	9.374177	4.690231	-1.238725	0.646272	0.13809	-0.114074	-0.24616	9.553665	2.764027	-0.018242	7.746364	-8.208821	-2.010902	-0.654746	0.248174	-0.021409
-5.013052	1.226338	11.091212	20.661784	72.251818	4.442244	0.707234	0.191426	-0.586219	2.722246	1.158819	9.318813	3.922656	-1.2177	0.860944	0.126082	-0.10807	-0.228148	9.374837	2.820424	-0.421003	11.340704	-7.203694	-4.798157	-0.590624	0.265701	-0.051198
-5.532808	1.052292	10.907061	22.58623	79.537566	3.901152	0.708644	0.209812	-0.587323	2.82917	1.388156	9.025579	4.556251	-1.062195	0.940598	0.13809	-0.120078	-0.228148	9.196693	2.529444	-0.825341	14.56503	-5.715406	-7.415121	-0.689437	0.273548	-0.04602
-5.256321	1.224884	10.392863	23.833588	85.383127	4.17268	0.756747	0.212875	-0.566169	2.261631	1.447355	8.896611	5.077654	-0.717861	1.067346	0.114074	-0.10807	-0.234152	9.259597	2.936182	-0.479822	16.437334	-4.52782	-9.481858	-0.606193	0.271762	-0.067425
-5.776355	1.341051	10.209411	26.14971	90.894076	4.313384	0.691542	0.19003	-0.587217	2.665087	0.643561	9.200639	4.731218	-0.62875	0.838424	0.126082	-0.132086	-0.24616	9.022712	2.413203	-1.000522	18.09272	-2.582045	-11.200325	-0.634252	0.252124	-0.068918
-6.06798	1.456856	9.972716	26.648705	96.418398	4.772862	0.695651	0.185525	-0.514577	2.656181	1.446264	8.845217	3.974397	-0.679726	0.646338	0.13809	-0.126082	-0.240156	9.367977	2.297517	-0.823014	18.918574	-0.867875	-12.459096	-0.658726	0.275182	-0.03528
-5.836252	1.572998	10.093197	28.710795	99.591431	5.220871	0.724981	0.19057	-0.548901	2.266425	0.931419	9.074525	3.083938	-0.677859	0.153461	0.120078	-0.126082	-0.240156	9.413192	3.105587	-1.332037	19.252803	0.742375	-13.320479	-0.638704	0.260622	-0.043985
-6.350404	1.515736	10.1984	28.944206	103.03573	5.142844	0.745808	0.186335	-0.457102	2.436729	1.045391	9.136582	2.09393	-0.505789	0.045964	0.132086	-0.10807	-0.240156	9.074695	2.643624	-1.226713	19.187996	2.124068	-13.566978	-0.64183	0.260118	-0.01443
-6.305367	1.281972	9.563022	27.887318	105.711993	5.186184	0.747218	0.204721	-0.458207	2.434045	1.217471	9.018277	1.237215	-0.609788	-0.238605	0.120078	-0.120078	-0.228148	9.121161	2.814833	-1.738627	19.184953	3.411839	-13.627447	-0.624035	0.249808	-0.010669
-5.622257	1.106478	9.287245	24.546831	108.729384	4.992207	0.726915	0.128655	-0.436627	2.094523	0.989426	8.953163	0.832124	-0.657109	-0.196011	0.120078	-0.132086	-0.234152	8.893387	2.815288	-1.743132	18.505981	4.503288	-13.411717	-0.636524	0.224108	0.004066
-6.097309	1.046924	8.468554	21.292731	111.403072	4.995984	0.748245	0.203595	-0.440047	2.267852	0.816733	9.133728	0.482632	-0.731075	-0.280763	0.126082	-0.120078	-0.234152	8.898461	2.526858	-1.516078	17.059357	5.209305	-12.640618	-0.60534	0.244251	-0.023998
-6.004139	0.928072	7.37208	13.804019	112.670363	5.745539	0.792119	0.151501	-0.415579	2.379187	1.389316	9.134886	0.173415	-1.144291	-0.450546	0.120078	-0.126082	-0.222145	8.659323	2.003354	-2.150963	14.997725	5.938846	-11.903959	-0.63875	0.228358	0.016532
-6.013116	0.752826	6.909143	3.717478	112.380953	6.003971	0.746453	0.165697	-0.419678	2.267	1.103195	9.133221	-0.052777	-1.255861	-0.511289	0.126082	-0.114074	-0.228148	8.436044	2.584087	-1.867378	13.05985	6.388615	-10.793113	-0.60444	0.249004	-0.041087
-5.777626	0.521131	7.20223	-3.862703	110.297706	8.757348	0.731668	0.103512	-0.326562	2.209394	1.103467	9.073134	0.316966	-1.502523	-0.262413	0.126082	-0.102066	-0.228148	8.998844	1.944249	-2.258652	11.091884	6.643232	-8.943842	-0.635625	0.228862	-0.013024
-3.675702	0.226204	6.14534	-3.561628	101.083268	13.200369	0.828377	0.188813	-0.379472	2.547361	0.758893	8.962262	0.225823	-1.85924	-0.498308	0.126082	-0.120078	-0.234152	8.53935	2.233853	-2.437625	8.971061	6.528611	-7.117429	-0.621382	0.231803	-0.001421
-1.028431	-0.355944	6.543409	-2.8769	79.67317	19.181106	0.816148	0.20355	-0.345255	2.267171	1.045902	9.133322	0.755897	-1.885525	-0.42655	0.126082	-0.132086	-0.228148	8.536188	2.696498	-2.549706	6.666335	6.167878	-5.378067	-0.622281	0.22705	0.015669
-0.046337	-1.168789	6.849957	-3.512029	61.475952	22.483001	0.797899	0.125231	-0.287354	2.097612	1.046414	9.130062	0.623097	-2.10207	-0.3429	0.126082	-0.120078	-0.240156	8.932538	2.695176	-2.656006	4.976473	5.871942	-3.361645	-0.588444	0.229187	-0.003147
2.294005	-1.172607	6.260856	-6.151378	39.672773	23.117226	0.878796	0.149473	-0.265308	2.944659	0.929374	9.087565	1.097652	-2.034787	-0.232218	0.120078	-0.132086	-0.240156	8.709395	2.059559	-2.492127	3.041162	5.385451	-1.09746	-0.64183	0.260118	-0.01443
2.700715	-0.417743	6.559748	-8.558751	17.536634	18.292221	0.830311	0.126898	-0.267198	2.320665	1.332397	9.015901	1.455879	-1.873136	-0.049448	0.120078	-0.126082	-0.234152	9.165499	2.348394	-2.42471	1.320966	4.934526	1.014112	-0.634298	0.219859	-0.0084
3.391548	-0.302046	6.689372	-10.737239	-15.183826	10.15437	0.800336	0.142491	-0.270299	2.887969	0.986837	9.086377	1.822868	-2.015179	-0.01009	0.126082	-0.126082	-0.234152	9.228528	2.118009	-2.139174	0.461973	4.36934	3.285869	-0.634725	0.233615	-0.030114
2.828398	-0.764573	7.197158	-9.120892	-41.815982	-0.176504	0.833512	0.183182	-0.288672	2.268023	0.75944	9.13383	1.88383	-1.882132	-0.220101	0.114074	-0.114074	-0.240156	9.576491	2.350489	-1.788813	-0.090008	3.965269	5.28026	-0.636951	0.237864	-0.017648
2.717162	-0.880128	7.368037	-7.958331	-57.000525	-11.370554	0.797899	0.125231	-0.287354	2.483533	1.389787	8.665058	1.886079	-2.343824	-0.311603	0.120078	-0.13809	-0.222145	9.237982	2.467753	-1.623768	-0.457389	3.476049	6.971761	-0.603113	0.240001	-0.036464
1.842679	-0.939013	6.656975	-11.572853	-69.30906	-23.188027	0.795845	0.127484	-0.323674	2.656117	1.102611	8.786826	1.611286	-2.763368	-0.390332	0.126082	-0.10807	-0.228148	9.285688	2.581329	-2.078853	-0.241557	3.258259	7.375565	-0.61693	0.223305	-0.026353
1.509056	-0.182727	7.230081	-14.527144	-82.36267	-33.523496	0.832485	0.184308	-0.306832	2.37305	0.530742	8.664408	1.999525	-2.858804	-0.657799	0.126082	-0.120078	-0.240156	9.690275	1.828931	-1.846018	-0.027067	3.513815	6.850863	-0.623135	0.254561	-0.027758
0.362658	-0.413645	7.264478	-15.077215	-95.400196	-42.906757	0.780918	0.165111	-0.363201	2.607715	0.930193	9.199045	1.074342	-3.118305	-0.888046	0.10807	-0.120078	-0.240156	9.646949	2.35353	-1.10258	0.402635	3.718425	5.808565	-0.60444	0.249004	-0.041087
-0.304728	0.054019	8.35036	-15.002039	-104.8603	-51.668761	0.750299	0.201342	-0.403727	2.098635	0.702659	9.130671	1.542568	-3.466552	-1.143733	0.126082	-0.114074	-0.228148	9.358626	2.469103	-1.278962	0.616739	4.047968	4.425779	-0.620482	0.236556	-0.018511
-1.393905	-0.002827	8.386319	-14.323028	-111.061678	-58.966688	0.778219	0.188002	-0.436946	2.495486	1.388671	9.31406	2.382536	-3.829769	-1.413894	0.126082	-0.120078	-0.240156	9.809224	2.1195	-1.55699	0.86206	4.16515	2.92574	-0.585318	0.229691	-0.032703
-2.204895	-0.467367	7.964496	-15.330902	-116.696493	-63.81804	0.748889	0.182957	-0.402622	1.928757	1.906007	9.30228	2.542052	-4.23416	-1.538343	0.126082	-0.13809	-0.216141	9.070304	2.584676	-1.455344	1.015771	4.140925	2.621282	-0.63875	0.228358	0.016532
-3.513894	0.057694	8.517613	-17.383361	-119.810921	-63.958277	0.686504	0.196882	-0.425879	2.323221	0.473011	9.017424	1.648027	-4.752442	-2.188083	0.132086	-0.126082	-0.228148	9.690377	2.350262	-1.78656	1.416177	3.78575	2.111732	-0.60226	0.21249	0.006964
-4.769242	-0.288499	8.838517	-20.438757	-121.787841	-59.659057	0.718653	0.2387	-0.462412	2.773673	1.044571	9.025102	2.310504	-5.243713	-2.830865	0.126082	-0.132086	-0.234152	9.574238	2.349964	-1.902997	1.232681	3.383211	2.242419	-0.607992	0.262256	-0.033245
-5.16218	-1.099729	9.233264	-24.215635	-122.68158	-52.02898	0.636729	0.215584	-0.502618	2.550109	0.930465	9.138958	3.866431	-5.640698	-3.036507	0.120078	-0.126082	-0.222145	9.350515	2.583056	-1.678082	1.295554	2.854757	2.805536	-0.637378	0.25162	-0.039362
-6.831566	-0.518248	8.970255	-27.422336	-122.491657	-41.373414	0.617573	0.198054	-0.538831	2.325863	1.045529	9.252409	3.376932	-5.685969	-3.547002	0.126082	-0.132086	-0.228148	9.1727	2.697613	-2.023488	1.57341	2.421811	3.306423	-0.604013	0.235248	-0.019374
-7.468495	-0.576377	8.668469	-33.873875	-121.842875	-28.635291	0.620775	0.254337	-0.560305	2.613724	1.101462	9.552742	2.176355	-5.547942	-3.432696	0.114074	-0.126082	-0.222145	9.115654	2.176396	-2.084072	1.543303	2.173056	3.526122	-0.638277	0.246866	-0.022272
-7.749888	-0.401272	8.952247	-40.174029	-118.964638	-12.538875	0.602646	0.235681	-0.578359	2.664981	1.044506	9.258929	3.27845	-5.584383	-3.042426	0.120078	-0.13809	-0.252164	9.292457	2.00368	-1.796021	1.697915	1.859836	4.115322	-0.606239	0.239498	-0.006908
-8.551371	-0.051958	9.052714	-46.12054	-115.100109	2.765576	0.588364	0.252671	-0.580461	2.662062	0.930226	9.082132	4.436996	-5.414081	-3.073617	0.132086	-0.132086	-0.240156	9.233705	2.350909	-1.852662	1.820979	1.883846	4.665946	-0.636951	0.237864	-0.017648
-9.012287	0.64486	8.987432	-50.647751	-110.640727	14.485985	0.536797	0.233474	-0.636831	1.98321	1.505094	9.127077	3.553936	-5.0653	-3.080956	0.132086	-0.13809	-0.228148	8.900725	1.948157	-1.461615	2.895922	2.386606	4.721234	-0.588444	0.229187	-0.003147
-9.179682	1.632451	9.275452	-54.288486	-102.077661	21.433953	0.583873	0.237664	-0.633837	2.611551	1.101665	9.434741	3.839716	-5.019762	-2.995708	0.120078	-0.144094	-0.240156	9.17361	2.234441	-2.025591	3.417557	2.877109	5.140845	-0.639177	0.242113	-0.005182
-14.793067	5.542666	15.703586	-46.144333	-118.916964	49.094744	0.508614	0.286965	-0.660301	2.443526	0.586544	9.432395	5.349376	-4.878421	-2.763376	0.120078	-0.132086	-0.222145	8.72415	2.00508	-1.750191	3.8161	3.506207	6.443521	-0.572402	0.241635	-0.025723
-24.931482	6.890012	16.545159	104.578681	-47.898679	88.626199	0.503741	0.252446	-0.694412	2.950156	1.272519	9.440957	5.324296	-4.751792	-2.785247	0.126082	-0.132086	-0.228148	8.908484	2.58712	-1.001986	5.105634	4.394208	7.561472	-0.619582	0.241309	-0.035601
-26.48618	6.61625	-1.170722	79.808032	-31.594335	81.355913	0.484848	0.194766	-0.673936	2.608291	1.101969	9.257741	5.271759	-5.064847	-2.123513	0.120078	-0.126082	-0.234152	9.233352	3.103825	-1.792153	5.013891	4.420843	9.823569	-0.604486	0.21674	0.01943
-17.891359	7.477006	-1.633142	3.037272	-20.534256	56.154982	0.511358	0.16304	-0.706051	2.723503	1.101425	9.377914	7.67416	-5.387064	-1.489799	0.144094	-0.13809	-0.228148	9.527772	2.178754	-1.391082	1.171318	4.396281	12.403088	-0.620909	0.250312	-0.040225
-18.304419	9.289686	3.679862	29.348632	1.236848	42.791757	0.451409	0.194225	-0.712252	2.325075	1.675644	9.310293	9.40569	-5.429383	-0.906462	0.132086	-0.13809	-0.228148	9.363245	2.412258	-1.050857	4.827796	5.148281	10.203288	-0.618729	0.213798	0.007827
-9.605079	11.310068	2.760005	35.840593	-2.030712	20.803411	0.447825	0.11843	-0.671513	2.834028	1.215872	9.261884	10.866013	-6.109389	-1.559436	0.126082	-0.144094	-0.222145	9.027228	1.835028	-0.831874	2.732684	6.858849	8.80667	-0.636951	0.237864	-0.017648
-1.445666	5.099201	6.02821	-24.978301	-15.881696	17.034873	0.495666	0.161643	-0.707049	2.111909	0.987802	9.897166	11.298305	-6.784236	-1.494817	0.114074	-0.13809	-0.234152	9.428982	1.950813	-0.652188	0.635372	9.330355	5.679672	-0.623608	0.236052	0.011045
-2.850322	2.375939	7.380623	-13.614491	-4.672253	12.73266	0.481766	0.198145	-0.728416	2.833857	1.273165	9.261783	14.666842	-9.814042	-1.008077	0.10807	-0.13809	-0.222145	10.149973	2.581989	-1.54813	1.274584	11.582803	1.012604	-0.639177	0.242113	-0.005182
-4.708951	1.453284	9.075112	-22.727793	-10.252154	12.934054	0.512768	0.181426	-0.707155	2.38673	1.044952	9.489496	8.168075	-12.177801	0.652636	0.126082	-0.144094	-0.210137	10.482157	3.390016	-1.937337	1.945535	13.434451	-3.461573	-0.618729	0.213798	0.007827
-5.525535	-0.572205	11.192222	-28.091569	3.01753	0.649137	0.461463	0.122079	-0.706836	1.670172	1.50368	10.536561	-1.142733	-19.599811	9.569453	0.114074	-0.13809	-0.234152	10.304899	3.794317	-2.224337	2.189938	13.922126	-5.153771	-0.624934	0.245055	0.006421
-5.000316	-1.326282	11.605396	-8.328055	6.137679	4.341305	0.527433	0.183948	-0.724317	2.480877	0.812161	11.496995	-1.718508	-26.04144	19.405038	0.126082	-0.132086	-0.210137	10.980449	3.733216	-2.61073	1.668248	13.622635	-3.98738	-0.624934	0.245055	0.006421
-4.742088	0.005068	10.22677	9.466118	2.27467	2.201116	0.464927	0.138212	-0.67162	2.80672	0.525996	10.73702	-1.308272	-38.42971	26.258199	0.120078	-0.144094	-0.228148	11.044036	3.792576	-2.266788	-2.417004	12.351433	-0.187294	-0.60534	0.244251	-0.023998
-4.090199	1.393093	8.451582	10.924042	2.295478	2.350674	0.50054	0.196162	-0.672938	2.803361	2.010389	13.860303	-27.265173	-49.380825	24.213036	0.10807	-0.132086	-0.216141	10.373116	3.217606	-1.71201	-3.05996	11.370261	1.391834	-0.574201	0.232129	0.008456
-4.092763	1.683027	8.336651	3.396159	3.08452	2.073065	0.509304	0.165292	-0.742371	3.029077	1.036041	13.689375	8.447663	-72.37299	7.165066	0.102066	-0.144094	-0.222145	10.28345	2.933871	-0.516641	-1.060795	10.898317	-0.238058	-0.592896	0.237686	0.021785
-4.203888	1.451386	8.507251	-2.612264	3.642084	2.26935	0.498103	0.178903	-0.689993	2.938977	0.638412	11.800993	-6.267482	-82.209243	7.934326	0.10807	-0.114074	-0.222145	9.937956	3.165351	-0.693624	1.397341	11.300644	-2.589228	-0.640077	0.23736	0.011908
-4.075228	1.278824	9.202895	-5.391164	4.230178	2.970755	0.509304	0.165292	-0.742371	3.113011	1.324801	12.157036	-2.034749	-93.879286	2.983794	0.114074	-0.132086	-0.198129	9.421189	3.04953	-0.932655	2.597118	10.928761	-3.369372	-0.589297	0.256698	-0.046574
-4.657531	0.523707	8.72713	-3.303298	3.290524	2.301897	0.498103	0.178903	-0.689993	3.327178	0.580638	11.3957	0.281401	-101.788177	0.167285	0.10807	-0.126082	-0.228148	9.367067	2.760688	-0.820911	3.614133	9.84741	-3.981119	-0.603113	0.240001	-0.036464
-4.93424	0.583286	9.241888	-0.478927	2.146051	1.668241	0.467746	0.174983	-0.673829	3.669044	0.751188	11.578916	2.125237	-108.593593	-1.974164	0.090059	-0.144094	-0.216141	9.144015	3.225628	-0.537852	4.293408	8.603656	-4.254477	-0.587971	0.247696	-0.04195
-4.020071	1.220446	9.088268	1.760665	0.796238	1.437326	0.498103	0.178903	-0.689993	3.661842	0.980967	11.224509	5.29137	-114.230647	-3.748826	0.078051	-0.132086	-0.234152	9.14199	3.10931	-0.652562	4.26344	8.26704	-4.308002	-0.644956	0.259614	0.015126
-4.43556	1.277201	8.38663	1.353018	0.622294	1.439872	0.49323	0.144384	-0.724104	3.995356	1.037744	10.935927	16.291369	-117.248363	-6.042039	0.096063	-0.126082	-0.222145	8.58101	2.822806	-0.265494	3.711267	7.818897	-3.474771	-0.588871	0.242943	-0.024861
-4.486201	1.394181	8.732655	0.734945	0.670123	1.39541	0.546588	0.201478	-0.688104	4.319302	0.293544	9.999763	18.890997	-117.942345	-8.499012	0.084055	-0.126082	-0.216141	8.398918	2.820518	-0.839794	2.788301	8.295952	-1.288659	-0.583092	0.225442	-0.045169
-4.079634	1.104137	8.971216	0.866102	0.78775	1.54992	0.512648	0.121763	-0.631201	4.648128	0.465312	9.474977	20.682624	-116.207751	-10.369093	0.060039	-0.13809	-0.222145	8.067394	2.823567	-0.332722	2.051337	8.184785	1.462603	-0.591097	0.247192	-0.012394
-4.141761	1.277762	8.739234	1.280086	0.957872	1.822102	0.515467	0.158535	-0.63341	4.356496	0.581561	8.99734	21.557051	-111.883722	-14.574219	0.066043	-0.132086	-0.204133	8.071228	2.59277	-0.162497	1.652016	8.268024	3.782958	-0.59067	0.233436	0.009319
-4.371703	1.684283	8.73564	0.821049	1.31253	1.541986	0.499775	0.157138	-0.634409	3.78753	0.755448	8.809168	21.725863	-108.47979	-17.298331	0.048031	-0.132086	-0.204133	8.18805	2.245689	-0.047638	2.635595	8.509029	4.883696	-0.603967	0.267513	-0.079891
-4.424018	1.162513	8.964498	1.144875	1.452215	1.967858	0.500922	0.215674	-0.692202	4.284828	0.926806	8.228642	22.860307	-103.691752	-21.081591	0.036023	-0.132086	-0.192125	9.171284	2.536918	0.772113	4.910579	8.626742	5.046117	-0.636478	0.256373	-0.056451
-4.424241	1.394684	8.965057	1.67606	1.622913	1.962243	0.498748	0.158264	-0.652569	4.498676	1.385479	7.642174	28.380833	-98.210397	-22.692535	0.042027	-0.13809	-0.192125	8.938107	2.420266	0.481622	7.400743	8.696681	4.476779	-0.587544	0.23394	-0.020237
-4.490829	1.451665	8.501536	1.535464	1.524533	2.694973	0.47121	0.191117	-0.638614	4.027408	0.873139	6.513392	29.773814	-89.959453	-23.975769	0.042027	-0.126082	-0.192125	8.943852	2.363683	0.76682	9.152484	8.973887	3.776324	-0.623608	0.236052	0.011045
-4.485923	1.103967	8.731956	0.734584	1.889392	2.331722	0.529749	0.141546	-0.631308	-0.23461	0.601693	5.134397	32.665119	-77.391179	-24.016432	0.03002	-0.144094	-0.198129	9.790892	3.113316	0.50167	10.075403	8.6617	2.870989	-0.60444	0.249004	-0.041087
-4.140729	1.393987	8.797328	0.89176	1.946408	2.360887	0.530132	0.161058	-0.650573	-4.290082	-0.418314	5.647988	23.95036	-47.555347	-7.444047	0.036023	-0.144094	-0.174113	9.615568	2.533379	0.210202	11.182994	8.261197	1.876937	-0.608465	0.243747	0.005558
-4.138053	0.987967	8.911979	0.456819	2.053413	2.131145	0.502594	0.19391	-0.636618	-5.907713	-1.045416	6.679595	30.227603	-29.379659	21.058029	0.024016	-0.126082	-0.162106	9.961278	2.765333	0.446379	11.828363	8.231413	0.290687	-0.571075	0.232633	-0.0211
-4.193378	1.220473	9.027025	-0.234033	1.858572	1.956207	0.594309	0.185029	-0.647685	-6.135475	-2.30466	6.382481	35.804265	-13.482866	53.755876	0.024016	-0.13809	-0.192125	10.012146	2.416264	0.103375	11.981597	8.313182	-0.964371	-0.59067	0.233436	0.009319
-4.604184	1.161702	8.556366	-0.543963	1.89871	1.873544	0.528077	0.16331	-0.686893	-3.710356	-3.113372	6.017626	28.99321	8.186692	73.799521	0.018012	-0.162106	-0.168109	9.54792	2.820609	-0.30344	12.043921	7.813741	-2.35937	-0.588871	0.242943	-0.024861
-4.139642	1.452169	8.855282	-0.27311	1.958424	1.472286	0.543004	0.125683	-0.647365	-1.725994	-3.005361	6.409457	18.114403	27.610668	71.610229	0.024016	-0.144094	-0.168109	10.17441	2.761461	-0.291314	11.061335	7.142735	-3.388991	-0.625407	0.226546	0.045225
-4.201324	1.161452	8.622182	-0.215761	1.802631	1.495083	0.542622	0.106171	-0.628101	-0.138866	-2.724179	6.734376	9.892997	42.484445	55.875704	0.03002	-0.144094	-0.168109	9.831965	2.588192	-0.355952	10.601587	6.443437	-4.13988	-0.571075	0.232633	-0.0211
-3.9752	1.160811	8.453309	-0.345126	1.652557	1.461435	0.563952	0.18111	-0.631521	0.317125	-2.554071	6.978765	2.997547	59.313556	35.674756	0.012008	-0.13809	-0.162106	10.000087	2.81891	-0.465706	10.450715	5.190337	-4.478656	-0.589297	0.256698	-0.046574
-4.432242	1.393706	8.560354	0.453063	1.508885	1.406001	0.531541	0.179443	-0.651677	0.767747	-2.039803	6.986545	-2.945802	75.322926	15.50624	0.012008	-0.132086	-0.186121	9.828814	2.47161	-0.527754	10.329301	4.461829	-5.043539	-0.569749	0.22363	-0.016476
-4.198815	0.929561	8.737252	0.360026	1.542918	1.348491	0.546851	0.161328	-0.631414	0.945957	-1.296528	7.578487	-10.239275	88.351901	-0.203538	0.024016	-0.144094	-0.168109	9.536885	2.702187	-0.874887	9.440478	3.282511	-4.776282	-0.621382	0.231803	-0.001421
-4.311528	1.162123	8.851155	-0.030244	1.156741	1.066872	0.545824	0.162454	-0.649575	0.844083	-0.667188	8.283199	-16.972053	98.650988	-10.671418	0.042027	-0.132086	-0.180117	9.601041	2.472065	-0.532259	8.336405	2.07532	-4.876564	-0.593323	0.251441	7.2e-05
-4.370337	1.452252	8.792896	0.514339	0.866666	0.950335	0.564979	0.179984	-0.613361	1.235671	-0.037962	8.171689	-22.960371	105.634097	-16.712793	0.042027	-0.126082	-0.174113	9.70817	2.470261	-0.87256	7.356157	0.476613	-5.334127	-0.656972	0.252424	-0.008943
-4.313536	0.87163	8.734826	0.286751	0.659652	0.763886	0.528722	0.142672	-0.649468	1.401863	0.362777	8.056238	-27.269828	110.362124	-19.714645	0.024016	-0.132086	-0.204133	9.192973	2.702344	-0.995829	6.128998	-0.726224	-5.832785	-0.571975	0.227879	-0.00401
-4.546852	1.219689	8.557649	0.536643	0.651461	0.879847	0.513412	0.160787	-0.669731	2.092285	0.645976	8.776772	-30.70281	111.833979	-21.257265	0.036023	-0.13809	-0.204133	9.252623	2.471171	-0.88157	4.964095	-2.102411	-4.92015	-0.54079	0.248022	-0.032073
-4.140673	1.335944	8.797188	0.377738	0.564121	0.818918	0.553134	0.214232	-0.598408	2.604285	0.98779	9.021943	-33.909772	108.834788	-21.951261	0.054035	-0.13809	-0.192125	9.704108	2.81685	-1.042259	4.044635	-3.313711	-4.591147	-0.574201	0.232129	0.008456
-3.904262	1.33656	9.148649	0.445335	0.715819	0.854102	0.547878	0.160202	-0.613254	2.493249	1.045221	9.137669	-38.153632	104.501841	-21.889438	0.060039	-0.132086	-0.198129	9.148088	2.299812	-0.427874	3.062844	-4.132291	-3.935147	-0.601787	0.230999	-0.03184
-4.595318	1.453033	9.019583	0.479356	0.744482	0.946148	0.549287	0.178587	-0.614359	2.391311	1.330907	9.78399	-41.8555	99.521668	-20.621517	0.060039	-0.13809	-0.216141	9.261861	2.357481	-0.425358	2.758139	-5.247246	-3.390978	-0.541263	0.229513	0.00673
-4.257625	1.21969	8.678993	0.940126	0.765181	0.783249	0.567416	0.197243	-0.596306	2.266212	1.73331	9.191104	-42.744319	92.826893	-17.433145	0.072047	-0.126082	-0.204133	9.310022	2.239471	-0.881495	2.913981	-6.081564	-2.789671	-0.566623	0.224134	-0.046032
-4.257458	1.045562	8.678574	0.766281	0.919974	1.068773	0.531159	0.159931	-0.632412	2.716365	1.674857	9.081898	-43.717556	86.258292	-11.884707	0.090059	-0.126082	-0.216141	8.931009	2.592378	0.139857	3.746705	-7.094185	-1.997081	-0.638277	0.246866	-0.022272
-4.20584	1.102851	8.390783	0.840152	1.130621	1.289585	0.599182	0.219548	-0.613574	2.54572	1.67547	9.019638	-43.414237	76.700677	-3.793216	0.090059	-0.114074	-0.216141	8.753205	2.127708	-0.265269	3.964425	-8.082376	-1.300121	-0.607566	0.2485	-0.011532
-4.138554	1.510352	8.913237	0.481578	1.415402	1.432043	0.578235	0.164121	-0.629418	2.491566	2.706396	9.311725	-42.474472	68.67097	9.533101	0.084055	-0.102066	-0.228148	8.859322	2.067744	-0.662925	3.904254	-8.582182	-0.707738	-0.58977	0.23819	-0.007771
-3.906715	1.510408	9.033438	0.794136	1.561881	1.36951	0.529749	0.141546	-0.631308	2.723418	2.590622	9.611276	-40.358908	63.22427	27.707705	0.102066	-0.126082	-0.210137	8.972867	2.241205	-0.659884	3.167195	-8.930264	-0.581288	-0.588917	0.210678	0.035657
-4.141316	0.81342	8.738116	0.005552	1.950695	1.495904	0.564597	0.160472	-0.594096	2.672162	2.647578	9.905088	-34.680822	56.986082	49.7145	0.114074	-0.102066	-0.228148	9.830611	2.703722	-0.412519	2.336796	-8.845363	-0.801817	-0.573728	0.250637	-0.030347
-4.195887	1.452364	8.911954	0.664433	2.178372	1.581271	0.547878	0.160202	-0.613254	3.352846	2.187091	9.977941	-26.181316	49.804201	74.332933	0.102066	-0.102066	-0.210137	9.952962	1.836625	-0.071656	1.105962	-8.430475	-0.879225	-0.603586	0.221493	0.00234
-4.430821	1.103632	8.61747	0.542882	2.305888	1.497719	0.574388	0.128476	-0.645369	4.644315	1.382093	9.414353	-19.872088	43.256438	96.966168	0.096063	-0.120078	-0.240156	8.745765	2.473509	-0.606245	0.213672	-8.163776	-1.012546	-0.641876	0.227854	0.046088
-4.370004	1.103996	8.792057	1.258731	2.40937	1.546072	0.579262	0.162995	-0.611258	8.493261	3.47899	16.267335	-22.500755	89.426595	76.61518	0.120078	-0.096063	-0.222145	9.780778	1.952496	-0.131601	-0.216653	-8.174517	-0.64759	-0.569749	0.22363	-0.016476
-4.36571	1.394768	9.024015	1.783001	2.45877	1.413401	0.547495	0.14069	-0.59399	26.280428	9.321213	19.725095	31.367556	79.449734	75.717571	0.102066	-0.096063	-0.240156	9.317564	2.415	-0.481061	-2.030607	-8.169387	-0.443365	-0.605812	0.225742	0.014806
-4.368861	1.104136	8.849872	1.981305	2.477431	1.928965	0.592517	0.147132	-0.627316	17.908299	4.1605	2.999894	199.295201	-2.153048	17.837765	0.114074	-0.090059	-0.234152	9.545565	2.298753	-0.477082	-2.493006	-7.57335	0.304951	-0.622281	0.22705	0.015669
-4.258935	1.393679	8.621598	2.662307	2.678218	1.676548	0.549287	0.178587	-0.614359	17.416832	6.05566	1.158846	38.109428	28.585309	29.431989	0.102066	-0.090059	-0.222145	9.427059	2.355825	-0.70744	-2.186698	-7.16066	-0.406426	-0.63875	0.228358	0.016532
-3.968231	1.045564	8.799918	2.78828	2.704872	1.735767	0.565362	0.199496	-0.632626	20.95284	6.667055	6.121029	35.974655	12.569563	-0.285023	0.114074	-0.10807	-0.222145	8.974903	1.778297	-0.604895	-1.449567	-6.682883	1.054533	-0.572875	0.223126	0.01308
-5.055734	1.627467	8.953043	3.038753	2.8218	1.704057	0.594571	0.144879	-0.590996	18.642244	6.621249	3.363657	39.858418	5.104854	-12.649243	0.10807	-0.102066	-0.240156	9.546247	1.951374	-0.478659	-0.587703	-6.94015	2.594369	-0.606712	0.220989	0.031896
-4.37148	1.452112	8.735081	3.049636	2.846605	2.13265	0.561133	0.144339	-0.629312	2.592871	0.827246	2.239402	72.799333	16.217719	-49.982468	0.10807	-0.120078	-0.234152	9.539479	2.529024	-0.761491	0.735376	-7.220574	4.014874	-0.571548	0.214124	0.017704
-4.08111	1.452253	8.91424	3.403905	3.079849	2.408844	0.594954	0.164391	-0.61026	1.04816	3.796643	10.874548	-14.887889	34.752906	-25.324608	0.120078	-0.114074	-0.210137	9.489304	1.951488	-0.479785	1.044941	-8.053009	4.616945	-0.573301	0.236882	-0.008634
-4.479287	1.336977	9.079404	3.072242	3.460313	2.248997	0.56357	0.161598	-0.612256	1.598027	0.19306	6.408884	-6.742893	1.89124	-13.355821	0.132086	-0.114074	-0.222145	9.261417	2.009839	-0.484028	0.18573	-8.875373	3.56094	-0.689057	0.227528	0.03621
-4.081277	1.626381	8.914659	3.755552	3.47151	2.355453	0.545441	0.142942	-0.63031	2.310779	1.734256	8.543189	-42.090462	3.821575	1.8062	0.114074	-0.114074	-0.222145	10.277819	2.932557	-0.802102	-3.134484	-9.303734	0.739232	-0.605386	0.211986	0.03652
-4.432409	1.567834	8.560773	3.872691	3.534857	1.988556	0.628392	0.164932	-0.571944	3.099204	0.123284	11.215165	-46.972043	3.900057	0.134506	0.126082	-0.114074	-0.228148	10.057144	2.7609	-0.464843	-5.19682	-8.608993	-2.377056	-0.60226	0.21249	0.006964
-3.962794	1.336476	9.089691	3.989893	3.535433	1.710758	0.562805	0.122574	-0.573727	2.8962	-1.424655	12.216562	-26.043817	0.283675	-6.390372	0.102066	-0.096063	-0.240156	10.27692	2.816501	-0.85972	-5.96867	-7.588648	-5.708096	-0.568468	0.182363	0.048665
-4.429258	1.858467	8.734916	4.376994	3.502201	1.119563	0.563187	0.142086	-0.592992	2.47376	-0.447257	10.909227	7.856195	-4.562673	-4.255878	0.120078	-0.10807	-0.222145	10.21637	2.931619	-1.031597	-6.340963	-6.422812	-8.183997	-0.637424	0.219355	0.021156
-4.541415	1.510601	8.847421	4.282547	3.537083	1.001003	0.594954	0.164391	-0.61026	2.495763	0.930433	9.255872	15.394282	-6.332586	-1.55292	0.126082	-0.096063	-0.228148	9.643673	2.874072	-1.214399	-7.236805	-4.625334	-8.230498	-0.589343	0.224434	0.013943
-4.195497	1.046066	8.910976	5.89274	3.555108	1.055147	0.6127	0.163535	-0.572942	2.372433	1.103565	8.722393	9.62153	-8.981308	-3.861744	0.126082	-0.120078	-0.240156	9.635686	2.350901	-1.673502	-7.8855	-3.182853	-6.860487	-0.591996	0.242439	0.004695
-4.651118	0.988887	9.075137	6.290007	4.344847	1.078141	0.57606	0.106711	-0.589785	2.258542	1.390368	8.719712	1.29287	-8.821133	-5.495755	0.10807	-0.10807	-0.228148	9.063876	2.988636	-1.738965	-9.548607	-1.706083	-4.517994	-0.604486	0.21674	0.01943
-4.47073	0.757528	9.48271	7.264468	7.159586	0.498279	0.595598	0.143753	-0.572836	2.100872	1.046109	9.307063	0.717302	-7.240371	-4.940759	0.120078	-0.10807	-0.216141	9.075025	3.049161	-1.167781	-12.071819	-0.51851	-1.98993	-0.63875	0.228358	0.016532
-3.606392	1.860063	9.733769	3.309301	11.714493	-2.979402	0.624928	0.148799	-0.60716	2.319344	1.046138	8.898408	-3.676025	-5.528639	-4.393108	0.126082	-0.096063	-0.228148	9.29604	3.047129	-1.505829	-14.102224	0.171723	-0.640523	-0.605386	0.211986	0.03652
-4.190005	1.278935	9.200609	-5.591576	16.935203	-7.259439	0.593162	0.126493	-0.589891	2.606224	0.701227	9.081451	-5.585861	-4.282236	-4.089206	0.114074	-0.114074	-0.228148	9.417799	3.627969	-1.04421	-15.209716	0.546126	0.048295	-0.622281	0.22705	0.015669
-4.417883	1.917907	9.313203	-7.88524	19.397792	-9.548439	0.587599	0.213647	-0.541932	2.55143	1.216724	9.256451	-0.974529	-3.455332	-3.431173	0.120078	-0.10807	-0.210137	9.527875	2.700084	-1.331624	-16.162524	0.441977	0.076173	-0.572402	0.241635	-0.025723
-4.421677	1.10475	9.079988	-9.465248	21.68288	-11.494977	0.624546	0.129287	-0.587895	2.60045	0.816319	8.786247	-0.427325	-2.679783	-3.246795	0.132086	-0.090059	-0.222145	8.808215	3.111832	-0.259674	-15.883475	-0.591761	-0.234789	-0.605812	0.225742	0.014806
-4.647967	1.27952	9.24928	-10.628142	24.857683	-14.026029	0.577852	0.144609	-0.610154	2.206645	0.931894	8.896438	-1.361694	-1.68467	-3.087191	0.120078	-0.10807	-0.228148	9.080315	3.224165	-0.881531	-15.511912	-1.719948	-0.298383	-0.652993	0.225416	0.004929
-4.935495	0.699232	9.184353	-15.474465	30.182474	-15.708942	0.629419	0.163805	-0.553784	2.437816	1.04529	9.195582	-0.368211	-1.403515	-2.734414	0.10807	-0.084055	-0.222145	9.24788	3.165139	-1.049692	-14.771458	-2.761612	0.310868	-0.650767	0.221167	-0.007537
-4.791389	1.109052	10.690801	-18.890969	38.14013	-16.76768	0.627627	0.125908	-0.533415	2.444336	1.04468	9.549583	-0.361727	-0.854137	-2.544888	0.120078	-0.10807	-0.216141	9.362562	2.759636	-1.049279	-13.20166	-3.459511	1.161283	-0.640077	0.23736	0.011908
-5.361881	2.103936	13.802601	-13.603643	46.186344	-9.473557	0.612055	0.184173	-0.610367	2.437305	1.217167	9.195278	1.380755	-0.30938	-2.480574	0.120078	-0.114074	-0.228148	9.645356	3.16408	-1.0989	-11.540021	-3.974179	2.130279	-0.620909	0.250312	-0.040225
-5.521544	1.227817	11.485628	9.732532	59.452233	-4.685806	0.595981	0.163265	-0.5921	2.381296	1.04546	9.194496	2.531368	-0.104772	-1.983897	0.10807	-0.10807	-0.216141	9.356135	3.163597	-1.3329	-10.093554	-4.465833	3.43401	-0.641876	0.227854	0.046088
-5.510726	1.867684	12.065313	7.570014	68.944236	-3.175045	0.603936	0.194405	-0.503509	2.380274	1.389215	9.193887	3.147309	0.132894	-1.681997	0.132086	-0.10807	-0.222145	9.199616	2.761818	-0.653013	-8.216265	-5.134283	4.621813	-0.64093	0.264871	-0.031519
-5.971227	0.939167	11.938304	13.927409	78.654418	-2.682924	0.648313	0.221485	-0.57426	2.328037	1.045326	9.370409	3.611834	-0.019664	-1.523242	0.114074	-0.096063	-0.222145	9.479703	3.397321	-0.815767	-5.139718	-5.906946	5.5738	-0.606239	0.239498	-0.006908
-5.906172	1.288346	12.344989	19.497798	88.300036	-2.694253	0.649602	0.180209	-0.499411	2.775335	1.216246	9.142797	3.513917	-0.343768	-1.200522	0.10807	-0.114074	-0.210137	9.593248	3.570782	-0.812726	-1.509821	-6.694836	5.948011	-0.635625	0.228862	-0.013024
-5.797055	1.229493	12.058061	23.730161	97.422057	-2.328578	0.683423	0.200261	-0.480359	2.606693	1.273948	9.198436	3.228902	-0.725619	-0.812898	0.132086	-0.114074	-0.216141	9.596194	2.644703	-0.759839	1.074481	-7.371642	6.222272	-0.622754	0.208541	0.054472
-6.034553	1.170695	11.648646	28.442504	105.410473	-1.042974	0.650629	0.179082	-0.48125	2.663042	1.33107	9.199421	2.40967	-1.175644	-0.472038	0.126082	-0.120078	-0.228148	9.661351	3.051967	-0.300136	4.610478	-7.611944	4.717638	-0.621382	0.231803	-0.001421
-5.705195	1.28463	10.904191	30.873365	111.515596	0.525116	0.685094	0.178497	-0.424774	2.490159	0.988233	8.96077	2.052664	-1.774841	-0.033932	0.114074	-0.102066	-0.216141	9.098676	3.054682	0.031155	7.375561	-6.988047	2.148934	-0.621382	0.231803	-0.001421
-5.996177	1.922958	10.726569	34.519736	115.063432	2.050994	0.681631	0.162364	-0.45999	2.495017	0.815949	9.197075	2.17244	-1.874289	-0.013761	0.132086	-0.114074	-0.210137	9.266025	2.532221	-0.196201	10.262465	-5.977594	-1.590339	-0.624507	0.231299	0.028135
-6.286603	1.98086	10.54755	39.421284	117.285019	3.523152	0.665556	0.141455	-0.441723	2.274713	0.701539	9.487932	2.601311	-2.085751	0.111607	0.120078	-0.120078	-0.222145	8.923796	2.822386	-0.201644	12.349085	-4.553308	-4.97654	-0.586691	0.206429	0.023191
-6.072941	1.862596	9.742436	39.373949	117.699352	4.88592	0.73499	0.219458	-0.423989	2.503199	0.987015	9.668772	2.019079	-2.037902	0.259455	0.126082	-0.120078	-0.222145	9.260735	2.357218	-0.48245	13.266483	-2.694985	-7.614491	-0.642303	0.241609	0.024374
-6.016529	1.688272	9.685345	39.093673	118.976542	4.36439	0.709813	0.108873	-0.43652	1.927883	1.104217	9.126701	2.196906	-2.033534	0.036944	0.120078	-0.10807	-0.228148	8.961821	2.702011	-1.17161	13.323068	-0.798221	-9.432162	-0.60316	0.207737	0.024054
-5.999511	0.870588	7.603199	34.678841	119.234368	3.074153	0.728586	0.106891	-0.381042	2.503199	0.987015	9.668772	2.130966	-1.991651	-0.112493	0.120078	-0.10807	-0.222145	8.782208	2.584456	-1.632252	12.85779	0.833736	-10.359509	-0.672588	0.22622	0.035347
-5.661064	1.043684	7.321403	28.333896	117.731907	3.682768	0.783355	0.182371	-0.346146	2.602005	1.388939	8.962232	1.698419	-1.975881	-0.064854	0.13809	-0.126082	-0.216141	8.945154	2.582275	-2.028518	11.77817	2.293067	-10.490916	-0.59157	0.228683	0.026409
-5.153269	0.577724	6.868053	15.533618	114.175828	4.880011	0.767925	0.140824	-0.290455	2.661891	0.987518	9.08203	0.934718	-2.016698	-0.441464	0.114074	-0.120078	-0.216141	9.114073	2.407719	-2.140113	10.514278	3.79329	-9.400815	-0.63965	0.223604	0.033622
-2.711897	-0.588877	5.526852	10.895038	100.065117	9.881082	0.769717	0.178722	-0.310824	2.326375	0.873652	9.252714	1.110781	-2.043251	-0.665896	0.120078	-0.102066	-0.216141	9.570973	2.291279	-2.074536	9.036969	4.525051	-8.32463	-0.623608	0.236052	0.011045
0.757376	-1.459781	6.86526	6.798177	73.515542	18.209235	0.785289	0.120456	-0.233872	2.436452	1.503629	9.19477	0.14482	-2.320574	-1.112134	0.10807	-0.10807	-0.240156	9.860194	2.291761	-1.840536	6.88324	5.276406	-7.069026	-0.590243	0.219681	0.031033
2.30535	-2.274161	6.778534	2.564146	48.888196	25.947447	0.786698	0.138842	-0.234976	2.949411	1.158036	9.38216	-0.490443	-2.440078	-1.282132	0.114074	-0.114074	-0.210137	9.107987	2.63799	-2.424522	4.91595	5.229509	-5.549228	-0.619628	0.209045	0.024916
4.311929	-2.566601	6.70221	-5.296296	24.843966	27.286105	0.815263	0.104863	-0.230771	2.836201	1.215669	9.379885	-0.576378	-2.770953	-1.423849	0.10807	-0.114074	-0.192125	9.28885	2.118684	-1.966772	3.103748	4.684138	-3.344166	-0.607612	0.216236	0.048986
4.597282	-2.102677	6.651228	-12.575805	-3.069694	24.448292	0.784906	0.100944	-0.214607	2.441651	1.216761	9.431278	-0.402308	-3.0292	-1.384931	0.10807	-0.114074	-0.204133	9.506703	2.579297	-2.416901	1.29291	3.530744	-1.461452	-0.64055	0.218851	0.050712
5.354647	-1.985918	7.244514	-17.654726	-34.47718	16.096905	0.814619	0.125502	-0.268196	2.386154	0.873177	9.430801	0.029698	-3.010661	-1.492159	0.120078	-0.102066	-0.204133	9.228745	2.581443	-2.079979	0.312059	2.39482	-0.064055	-0.603586	0.221493	0.00234
4.566547	-1.28667	8.039596	-18.172329	-56.184136	5.560394	0.817055	0.142761	-0.25114	2.722821	1.330595	9.377508	0.133586	-2.997027	-1.247826	0.132086	-0.10807	-0.210137	9.452013	2.579937	-2.303843	-0.268671	1.079908	1.339636	-0.621382	0.231803	-0.001421
4.448342	-1.286978	7.863866	-20.818468	-70.823157	-6.590528	0.797899	0.125231	-0.287354	2.559079	0.471415	9.552772	1.235238	-3.323618	-1.247011	0.10807	-0.126082	-0.222145	9.573783	2.581549	-1.901945	-0.666267	0.320787	2.609076	-0.592896	0.237686	0.021785
3.821087	-0.70538	8.08395	-27.369571	-87.165673	-19.390275	0.797517	0.105719	-0.268089	2.042179	1.046483	9.187976	1.527169	-3.846083	-1.012995	0.132086	-0.114074	-0.210137	9.23854	2.757498	-1.565361	-0.602558	-0.520077	3.57704	-0.605812	0.225742	0.014806
2.286633	-0.87619	8.804262	-29.17398	-104.630802	-31.309454	0.749796	0.122168	-0.308508	2.213975	1.389421	9.367627	1.982343	-4.118943	-0.923425	0.114074	-0.10807	-0.234152	9.118123	2.640356	-1.910693	-0.017187	-0.952869	4.324251	-0.639223	0.209849	0.055335
1.377121	-0.40984	9.24961	-26.323478	-118.570392	-42.124538	0.754287	0.137175	-0.255133	2.720179	0.758077	9.142523	5.052213	-4.649055	-0.420029	0.114074	-0.114074	-0.216141	8.955518	2.468848	-1.515215	0.598847	-1.327153	5.284357	-0.588917	0.210678	0.035657
0.307962	0.116257	10.327632	-22.067918	-124.405585	-51.692546	0.749796	0.122168	-0.308508	2.658631	0.987823	8.90503	5.376404	-4.649233	-0.09188	0.114074	-0.120078	-0.216141	8.950558	2.699382	-1.742532	1.244627	-1.299422	6.021208	-0.622281	0.22705	0.015669
-1.369344	-0.580319	9.599032	-18.046386	-124.238126	-58.441714	0.71815	0.159525	-0.367193	2.601771	1.102578	8.90374	5.5681	-4.598259	-0.03377	0.084055	-0.114074	-0.228148	8.61949	2.470845	-1.236511	2.197124	-0.987511	6.447274	-0.590243	0.219681	0.031033
-3.188176	-1.040784	10.42856	-16.334659	-120.953129	-61.18881	0.687149	0.176244	-0.388454	2.709717	0.98816	8.611115	5.731193	-4.482501	-0.00137	0.102066	-0.114074	-0.210137	8.849515	2.470915	-1.117822	2.903395	-0.664585	5.923651	-0.639223	0.209849	0.055335
-4.238198	-1.157964	9.540485	-15.349505	-118.24395	-58.534584	0.64922	0.160697	-0.480146	2.659377	1.102306	8.963827	5.891097	-4.552273	-0.56793	0.114074	-0.10807	-0.228148	8.903307	2.35422	-1.288498	3.701736	-0.224263	5.825979	-0.62588	0.208037	0.084028
-6.025541	-2.027997	9.040439	-24.335705	-119.490284	-51.00901	0.634172	0.138662	-0.443719	2.489818	1.102818	8.960567	6.742608	-4.821028	-1.450536	0.10807	-0.120078	-0.210137	9.011005	2.062934	-1.630113	4.775888	0.508466	4.836064	-0.636097	0.210353	0.025779
-7.617076	-1.32797	9.819519	-32.105328	-119.009979	-41.485734	0.589271	0.191882	-0.486347	2.488092	0.58749	8.78448	6.717406	-4.716852	-2.215551	0.114074	-0.10807	-0.216141	8.666297	2.468365	-1.749215	5.543125	1.128686	4.978727	-0.604913	0.230495	-0.002284
-10.546018	-0.280504	9.705928	-26.249505	-111.66514	-31.392917	0.623091	0.211935	-0.467296	2.599662	1.446434	8.844131	6.815307	-4.73966	-3.611291	0.126082	-0.10807	-0.216141	8.831495	2.46671	-2.031297	5.940522	2.194148	5.781931	-0.607185	0.20248	0.070699
-11.954698	0.239443	8.118755	-20.429442	-116.072809	-17.167522	0.62142	0.233699	-0.52288	2.381531	1.331821	9.252988	5.389991	-4.838582	-4.122118	0.114074	-0.114074	-0.210137	8.667537	2.410732	-1.692385	6.24605	3.051164	6.100126	-0.657445	0.233915	0.029861
-16.453165	1.924505	6.992989	-45.419255	-97.334906	-1.074628	0.541168	0.188819	-0.507501	2.271517	1.045496	9.369323	5.106354	-5.021354	-3.969005	0.120078	-0.132086	-0.204133	8.726505	2.526936	-1.576549	6.767986	3.52626	7.559952	-0.641876	0.227854	0.046088
-15.652042	3.142483	6.954111	-64.335344	-86.267338	19.449615	0.56288	0.28327	-0.530186	2.659952	1.274082	9.022522	5.441069	-5.294304	-3.782343	0.102066	-0.10807	-0.222145	8.961149	2.470162	-1.229754	7.289554	4.208656	9.504301	-0.621001	0.185783	0.08081
-15.695234	6.220897	7.827596	-60.175049	-77.642125	38.562267	0.479164	0.222257	-0.550023	2.378953	1.102955	9.076394	4.773829	-4.930108	-3.085723	0.10807	-0.120078	-0.204133	8.561079	2.644385	-1.293941	7.748845	5.307612	12.233812	-0.672588	0.22622	0.035347
-15.088023	6.275393	6.626198	-39.074872	-66.99238	42.868698	0.537179	0.252986	-0.656095	2.26374	1.103499	8.95622	3.927183	-4.858737	-2.586797	0.120078	-0.120078	-0.222145	8.616452	2.296367	-1.408577	7.284983	6.650815	14.249253	-0.624081	0.217543	0.049849
-15.415819	6.916293	7.488099	-29.36832	-60.084406	41.118394	0.526623	0.245958	-0.566293	2.382724	0.930774	9.253699	6.632694	-4.982497	-2.414938	0.114074	-0.132086	-0.222145	8.439092	2.179338	-1.755034	6.1137	8.106987	16.319421	-0.624507	0.231299	0.028135
-18.361849	8.614358	12.345829	20.062979	-41.814396	57.107259	0.458982	0.205853	-0.604396	2.437645	1.102582	9.195481	7.436621	-5.347854	-2.03493	0.10807	-0.13809	-0.198129	8.617362	1.833196	-1.410679	5.434166	9.605746	17.993652	-0.606239	0.239498	-0.006908
-15.265455	7.479813	0.615253	67.25018	-29.790891	35.664944	0.473646	0.208376	-0.621558	2.499257	1.216489	9.491365	8.591848	-6.502481	-1.131134	0.114074	-0.120078	-0.204133	8.839948	2.179068	-1.632966	4.818079	10.116487	18.161993	-0.617402	0.204796	0.01245
-18.204395	6.791644	2.808918	34.857839	-19.391655	20.021955	0.502594	0.19391	-0.636618	2.502347	1.273477	9.668264	10.550337	-7.619229	-0.408633	0.114074	-0.114074	-0.210137	9.751268	2.061455	-1.615472	2.020098	10.090173	17.597073	-0.623181	0.222297	0.032759
-16.342226	7.598632	1.287594	35.595916	-8.470953	10.062222	0.523159	0.229825	-0.601509	2.891123	1.387478	9.321667	9.794385	-9.225133	-0.020597	0.10807	-0.13809	-0.210137	9.631739	2.639595	-1.843464	1.804693	10.016869	16.160219	-0.625834	0.240301	0.023511
-0.609936	4.326512	-1.065392	26.819073	-11.53147	14.637545	0.470948	0.231267	-0.695303	2.440394	1.274155	9.372177	7.268897	-11.067022	1.529154	0.114074	-0.114074	-0.198129	9.803592	2.118186	-1.842451	0.666219	10.265264	14.986183	-0.611164	0.229487	0.056828
-2.753236	1.509994	9.345372	-6.104352	-24.190797	27.552756	0.450644	0.155201	-0.673723	2.320089	1.160621	8.957205	-1.595792	-15.161995	5.451597	0.10807	-0.132086	-0.198129	10.314398	1.827154	-1.947814	-1.518689	10.881707	12.911064	-0.619628	0.209045	0.024916
-3.52181	1.159667	8.173379	14.897896	-20.611132	26.619838	0.471854	0.170478	-0.601189	2.724419	1.158616	9.436813	-4.040795	-18.385933	7.774957	0.102066	-0.126082	-0.198129	10.654135	2.231484	-1.996308	-1.890112	11.732771	10.993154	-0.619628	0.209045	0.024916
-4.833904	1.336053	8.552213	13.343609	-27.340252	26.3498	0.471592	0.210629	-0.657878	2.495316	1.445963	9.313959	-7.298182	-23.09806	11.237481	0.10807	-0.126082	-0.216141	11.221304	2.809047	-2.039509	0.597603	12.572257	8.112182	-0.669889	0.24048	-0.015922
-5.241102	-0.340591	11.082867	-10.992384	-2.221672	3.816821	0.469418	0.153219	-0.618244	2.851925	1.042371	10.206192	-11.31429	-29.209802	17.047845	0.102066	-0.132086	-0.222145	11.156796	3.792085	-2.321627	3.086085	13.077325	5.055432	-0.641403	0.246362	0.007284
-4.967347	0.296063	10.454156	-3.769174	5.101499	3.670857	0.484848	0.194766	-0.673936	2.302519	1.21443	11.080023	-20.416987	-34.884029	21.031594	0.10807	-0.120078	-0.216141	11.163781	3.67787	-1.9796	4.163617	12.55823	5.83787	-0.655219	0.229666	0.017395
-4.578592	0.700435	9.827173	5.710452	2.572222	1.233027	0.489338	0.209773	-0.62056	2.452419	2.699834	13.321564	-21.452003	-42.42695	16.352435	0.10807	-0.126082	-0.198129	11.683597	3.388941	-1.628225	1.523827	10.956971	8.307542	-0.657019	0.220159	0.051574
-3.752951	1.624091	8.11211	6.427904	3.284279	1.825848	0.533595	0.177191	-0.615357	2.99424	0.695636	11.742978	0.473692	-58.273652	6.288732	0.090059	-0.126082	-0.204133	11.07548	2.699379	-0.787386	2.940674	9.577385	5.411077	-0.607139	0.234744	0.010182
-3.633825	1.856709	8.346214	-2.745608	4.73128	1.675506	0.512003	0.142402	-0.668626	3.036803	0.639493	10.977164	-9.787866	-63.997062	6.294658	0.084055	-0.120078	-0.204133	10.341633	2.876124	-0.458686	5.952286	9.636574	-0.201679	-0.624934	0.245055	0.006421
-4.02966	1.68367	8.626868	-9.207851	6.030471	2.585354	0.497338	0.139879	-0.651464	3.035035	0.868764	10.917758	-0.070492	-70.736831	1.924446	0.084055	-0.120078	-0.204133	10.229658	3.050566	-0.345965	6.474248	9.519378	-4.26399	-0.594222	0.246688	0.017161
-4.130219	1.163074	9.317102	-9.598635	5.909108	3.231411	0.487546	0.171875	-0.600191	3.089552	0.811504	10.800946	0.425205	-75.37415	0.434658	0.096063	-0.120078	-0.210137	9.98432	2.81523	-1.264996	6.964337	9.81021	-9.008895	-0.621382	0.231803	-0.001421
-4.537707	1.220807	9.020167	-6.226694	4.956736	3.264936	0.500802	0.156012	-0.616248	3.030348	0.983755	10.681554	2.88046	-80.044707	2.085484	0.072047	-0.120078	-0.204133	9.697351	2.815273	-1.384812	7.148256	9.653667	-12.766389	-0.63875	0.228358	0.016532
-4.140395	1.045731	8.796489	-3.013586	3.917025	3.23753	0.471854	0.170478	-0.601189	3.877459	1.210368	10.697448	7.041167	-84.339548	2.338657	0.084055	-0.120078	-0.198129	9.131411	2.759303	-1.225061	6.288089	9.337023	-12.794256	-0.639177	0.242113	-0.005182
-4.423907	1.046428	8.964219	-2.329322	3.224002	3.040002	0.517138	0.13677	-0.577826	4.037173	0.867117	10.111315	11.56146	-86.899181	0.681332	0.072047	-0.114074	-0.210137	9.01584	2.469523	-1.342812	4.166577	9.529349	-11.005523	-0.623654	0.203788	0.071562
-4.027096	1.393736	8.741799	-2.624822	2.834115	2.847655	0.529749	0.141546	-0.631308	4.087067	1.268502	9.816691	13.297337	-86.445935	-1.608693	0.072047	-0.120078	-0.192125	8.628375	3.110071	-0.719791	1.645834	9.559427	-8.939913	-0.623608	0.236052	0.011045
-4.836023	1.161645	8.436164	-2.703368	2.375351	2.76956	0.545561	0.202604	-0.706264	3.849419	0.411117	9.046865	17.323219	-85.846527	-4.374399	0.054035	-0.13809	-0.192125	8.344455	2.705365	-0.727262	-0.321681	9.660793	-7.087099	-0.693036	0.254535	0.022339
-4.085293	1.045395	8.682003	-1.733654	1.921443	2.544508	0.522777	0.210313	-0.582244	4.744697	0.523787	8.592046	14.586128	-83.262275	-6.33435	0.066043	-0.120078	-0.204133	8.801468	2.531028	-0.661948	-2.195856	9.249508	-5.711278	-0.58759	0.201676	0.040281
-4.193267	1.104388	9.026745	-0.84839	1.715962	2.331668	0.517138	0.13677	-0.577826	4.746594	0.981821	8.768235	17.835645	-81.332596	-10.099279	0.054035	-0.120078	-0.192125	8.683862	2.704157	-0.834689	-3.393832	8.883548	-4.761078	-0.620955	0.218047	0.020293
-4.302217	0.989112	9.313254	0.145687	1.108347	2.038605	0.500802	0.156012	-0.616248	4.749278	0.809741	8.88654	14.849148	-79.418202	-12.711397	0.042027	-0.132086	-0.180117	8.62511	3.051386	-0.89133	-4.438759	8.743089	-4.426997	-0.637424	0.219355	0.021156
-4.252021	1.336474	8.968346	0.712642	0.885328	1.465898	0.517138	0.13677	-0.577826	4.134595	0.63913	9.228892	11.259501	-78.978713	-15.179908	0.048031	-0.132086	-0.174113	8.809125	2.648661	-0.261777	-5.329678	8.401757	-4.882653	-0.622281	0.22705	0.015669
-3.685053	1.393122	8.633027	0.987338	0.974092	1.187979	0.520722	0.212566	-0.618564	4.799043	0.523819	8.475133	8.828276	-78.569695	-17.414361	0.042027	-0.120078	-0.186121	9.203894	2.878662	-0.424119	-4.990681	8.014278	-5.330628	-0.606712	0.220989	0.031896
-4.084428	1.335749	8.740516	0.218171	0.867139	1.507464	0.51893	0.174668	-0.598195	4.52972	0.809814	9.236194	9.151188	-78.434768	-19.612025	0.042027	-0.144094	-0.198129	9.262418	2.647226	-0.366952	-5.143209	7.493155	-5.441705	-0.623608	0.236052	0.011045
-4.48124	0.988441	8.962936	-0.279882	0.913845	1.307305	0.488311	0.210899	-0.63872	4.855286	0.981887	8.534407	5.984257	-78.666742	-21.490021	0.03002	-0.126082	-0.174113	9.494469	2.763615	-0.133552	-4.711067	6.870967	-4.446214	-0.653893	0.220663	0.022019
-4.195553	1.104108	8.911116	0.025887	0.813482	1.295915	0.53565	0.174938	-0.579037	4.696466	0.294077	9.004367	5.113463	-77.901173	-24.067581	0.036023	-0.120078	-0.174113	8.919177	2.879231	-0.42975	-3.356841	6.407499	-3.051841	-0.623608	0.236052	0.011045
-4.429567	0.987687	8.675005	0.277827	0.86679	1.414353	0.489338	0.209773	-0.62056	5.084219	0.751832	8.65716	7.683777	-76.249443	-27.331711	0.036023	-0.126082	-0.168109	9.541833	3.05088	-0.587849	-1.664153	5.907579	-0.981939	-0.625834	0.240301	0.023511
-4.141872	1.393847	8.739513	0.37253	0.925853	1.414528	0.53424	0.156552	-0.577932	4.664676	0.755258	7.35155	12.218562	-74.236618	-30.180505	0.024016	-0.120078	-0.174113	9.493684	2.589663	-0.191433	0.058623	5.684791	1.020511	-0.624081	0.217543	0.049849
-4.378339	1.451274	8.388192	0.376376	1.299936	1.063088	0.538086	0.192198	-0.561981	3.235559	0.70375	6.439483	12.856309	-66.508503	-30.975308	0.006004	-0.132086	-0.162106	9.437867	2.590039	-0.135467	1.62584	6.201596	2.607357	-0.654792	0.21591	0.039108
-4.371258	1.219941	8.734522	0.098543	1.181696	1.248192	0.550314	0.177461	-0.596199	-1.705056	-0.539318	4.872174	9.542984	-47.56294	-28.464634	0.024016	-0.126082	-0.168109	9.662819	2.878541	-0.243832	3.162932	6.336791	3.04067	-0.621808	0.245559	-0.023135
-4.587372	1.512054	9.424426	-0.062279	1.252347	0.888204	0.504266	0.172145	-0.581033	-3.882045	-0.936154	6.246509	4.649203	-25.753888	-14.276139	0.024016	-0.132086	-0.168109	9.95237	3.284561	0.0491	3.993405	6.087029	1.980464	-0.604486	0.21674	0.01943
-3.974922	0.870597	8.45261	-0.223936	1.103934	0.794273	0.539113	0.191071	-0.543821	-4.040907	-0.879366	6.83315	6.99448	-11.495416	9.175436	0.024016	-0.13809	-0.162106	9.843114	2.648717	0.215232	4.146889	5.96739	-0.156876	-0.588917	0.210678	0.035657
-4.312615	1.10394	8.7932	-0.196636	1.168017	0.551782	0.53577	0.2346	-0.654991	-4.09372	-1.39503	6.950977	6.237121	1.363785	33.911295	0.036023	-0.13809	-0.186121	9.895336	2.184117	-0.071205	4.054835	5.661274	-2.321814	-0.608465	0.243747	0.005558
-4.539296	1.685009	8.96347	-0.542253	1.086396	0.434408	0.538851	0.231222	-0.600511	-2.228767	-2.431614	6.811663	0.466127	16.92916	48.649401	0.018012	-0.120078	-0.168109	10.057258	2.703004	-0.465106	4.240192	5.079999	-4.295385	-0.623608	0.236052	0.011045
-4.254418	1.45228	8.852996	-0.600243	1.179841	0.470183	0.519958	0.173542	-0.580035	-0.527173	-2.265459	7.197959	-6.973163	32.862969	48.520294	0.024016	-0.13809	-0.150098	9.83771	2.53161	-0.070754	3.964731	4.393387	-5.74905	-0.606239	0.239498	-0.006908
-4.306091	1.453035	9.140927	-0.395452	0.961465	0.27299	0.522777	0.210313	-0.582244	0.493566	-1.581525	7.511301	-13.146571	44.736488	41.319894	0.03002	-0.144094	-0.174113	9.708727	2.760005	-0.814153	3.751997	3.266646	-6.396948	-0.555506	0.226571	-0.004873
-4.477866	1.046903	9.13652	-0.591067	0.721616	0.176111	0.519958	0.173542	-0.580035	1.119926	-0.953792	7.876139	-18.317881	55.692873	32.448181	0.018012	-0.126082	-0.162106	9.142901	2.646139	-0.654665	3.878074	1.977671	-6.152278	-0.608039	0.229991	0.027272
-4.027096	1.393736	8.741799	-0.614201	1.06279	0.037878	0.537321	0.153174	-0.523452	1.238633	-0.66828	8.231805	-22.988716	64.745274	26.2161	0.03002	-0.132086	-0.168109	9.146166	2.704824	-0.483126	3.758208	0.657723	-6.091725	-0.601833	0.198735	0.028677
-4.311751	1.394293	8.851714	-0.251467	0.838233	-0.010527	0.568443	0.196117	-0.578145	1.744006	0.075089	8.181265	-25.200889	70.408014	23.84805	0.018012	-0.114074	-0.174113	9.490976	2.820723	-0.304566	3.022716	-0.309702	-5.522702	-0.604913	0.230495	-0.002284
-4.195998	1.56845	8.912234	-0.057197	1.016159	0.1144	0.52034	0.193054	-0.5993	1.927585	0.474204	9.009817	-26.74005	73.553579	26.144862	0.03002	-0.114074	-0.180117	9.149999	2.474027	-0.312901	2.532528	-0.997788	-4.989425	-0.622281	0.22705	0.015669
-4.371314	1.277984	8.734662	0.217751	0.853837	0.192875	0.521367	0.191927	-0.581139	2.662743	0.701056	9.082538	-28.21389	75.116319	30.654884	0.03002	-0.126082	-0.174113	9.142684	2.182705	-0.71386	2.072384	-1.406919	-4.645969	-0.626307	0.221793	0.062315
-3.910145	1.509989	8.859994	0.225371	0.974709	0.350455	0.585927	0.235411	-0.597517	2.993061	1.101791	8.675346	-30.31063	74.115557	34.744939	0.036023	-0.10807	-0.186121	9.377761	3.052799	-0.248675	1.550688	-1.786611	-4.272943	-0.59157	0.228683	0.026409
-3.512721	1.218827	8.636037	0.420282	1.214983	0.416809	0.550314	0.177461	-0.596199	4.183337	0.696962	8.816876	-33.668718	71.620736	35.788292	0.048031	-0.10807	-0.192125	9.257572	2.819863	-0.594532	0.782686	-2.070583	-4.362243	-0.639177	0.242113	-0.005182
-4.139642	1.452169	8.855282	0.421113	1.089015	0.625531	0.537059	0.193324	-0.580141	4.146207	0.752598	9.877691	-35.544377	68.3667	32.990976	0.042027	-0.10807	-0.192125	8.915469	2.472905	-0.659959	0.230807	-2.69496	-4.044875	-0.575101	0.227375	0.025546
-4.033898	1.334855	8.394771	0.331597	1.120924	0.720647	0.53565	0.174938	-0.579037	3.961116	1.957367	9.223297	-33.052987	64.309887	27.789818	0.042027	-0.096063	-0.210137	9.380582	2.763842	-0.135805	-0.628131	-3.477745	-3.633729	-0.606285	0.207233	0.053609
-4.02704	1.335693	8.741659	0.31179	1.303258	0.942522	0.569853	0.214503	-0.57925	3.848695	1.384885	9.163139	-29.053562	61.547799	22.771091	0.048031	-0.114074	-0.198129	9.381367	2.937794	-0.077924	-0.657014	-4.27416	-3.676586	-0.608039	0.229991	0.027272
-4.08242	1.626242	8.856844	-0.111946	1.466241	1.112086	0.555832	0.191342	-0.524663	2.993871	1.559928	8.792534	-25.242805	59.50226	19.040866	0.054035	-0.102066	-0.198129	8.973766	2.357261	-0.602266	-0.501744	-4.944339	-3.813137	-0.60534	0.244251	-0.023998
-4.198062	1.336	8.796045	0.134745	1.491347	1.046134	0.519958	0.173542	-0.580035	3.510536	0.6985	9.098837	-22.936003	57.821979	16.068382	0.042027	-0.096063	-0.198129	9.202324	2.530758	-0.53988	-0.008895	-5.336299	-3.831984	-0.624081	0.217543	0.049849
-4.319752	1.393315	8.44701	0.018764	1.678238	1.117686	0.526623	0.245958	-0.566293	3.118671	0.527511	9.268536	-22.343086	55.722768	13.563846	0.066043	-0.096063	-0.210137	9.25904	2.646437	-0.538228	0.668789	-5.825647	-3.327626	-0.633871	0.206104	0.013313
-4.139419	1.219998	8.854723	-0.050818	1.402271	1.169124	0.553778	0.193594	-0.560983	3.116561	0.871367	9.208927	-20.184021	54.630719	10.757903	0.066043	-0.096063	-0.210137	8.977031	2.415946	-0.430727	0.732065	-6.563257	-3.126669	-0.573774	0.218373	0.03017
-4.30821	1.278627	9.024878	-0.042237	1.616665	1.238845	0.586572	0.214773	-0.560092	2.993572	0.929914	8.67565	-19.868468	55.335342	8.381338	0.060039	-0.120078	-0.204133	9.557282	2.069796	0.092788	1.256508	-7.294736	-2.95396	-0.640976	0.232607	0.028998
-4.200403	1.393763	8.680555	0.173759	1.454267	1.440956	0.565624	0.159346	-0.575936	2.654966	0.759059	8.669435	-18.985092	59.031656	6.02144	0.060039	-0.084055	-0.210137	9.310238	2.702905	-0.8223	2.180278	-7.868031	-2.782773	-0.59157	0.228683	0.026409
-4.361138	1.395327	9.255274	0.051951	1.487837	1.47579	0.553134	0.214232	-0.598408	3.392341	0.24111	8.743475	-17.054392	62.627101	3.555139	0.060039	-0.078051	-0.198129	9.261178	2.704859	-0.423781	2.919197	-8.262405	-2.433217	-0.611164	0.229487	0.056828
