1812_acc_x	1812_acc_y	1812_acc_z	1812_gyro_x	1812_gyro_y	1812_gyro_z	1812_mag_x	1812_mag_y	1812_mag_z	1813_acc_x	1813_acc_y	1813_acc_z	1813_gyro_x	1813_gyro_y	1813_gyro_z	1813_mag_x	1813_mag_y	1813_mag_z	1814_acc_x	1814_acc_y	1814_acc_z	1814_gyro_x	1814_gyro_y	1814_gyro_z	1814_mag_x	1814_mag_y	1814_mag_z
-2.118593	1.567844	9.531528	-0.106011	0.65138	-0.143896	-0.407328	-1.03138	-0.709726	1.382439	-0.786048	9.886186	0.012318	-1.531131	-0.06775	0.018012	0.354231	-0.234152	9.316995	2.704482	-0.479747	0.839084	0.641486	0.835816	-0.721544	0.118883	1.12592
-2.123944	2.379883	9.302226	0.074429	0.586711	-0.273078	0.551169	0.014418	-0.873718	1.144536	-0.096944	9.34962	-0.417313	-1.486132	0.012562	0.132086	-0.114074	-0.270176	9.599004	2.934974	-0.587249	0.808686	0.461733	0.533973	-0.641219	0.37542	-0.234785
-2.293656	2.206201	9.414007	-0.011308	0.710443	-0.143722	0.567506	-0.004824	-0.835295	1.70841	-0.384907	9.242994	-0.230373	-1.562234	0.124501	0.120078	-0.114074	-0.27618	9.373711	2.820161	-0.478095	0.408756	0.577146	0.682071	-0.671077	0.346275	-0.202098
-2.00981	1.857248	9.245439	0.117032	0.829768	-0.111312	0.537531	0.010768	-0.838396	1.379584	-0.556675	9.76778	-0.272841	-1.544054	-0.181829	0.126082	-0.13809	-0.27618	9.429084	2.472144	-0.59273	0.408738	0.578053	0.62088	-0.638993	0.371171	-0.247251
-1.840766	2.727441	9.135335	-0.009322	0.834713	-0.230342	0.579352	-0.039073	-0.850248	1.824709	-0.385552	9.422168	0.073661	-1.566241	-0.041328	0.126082	-0.126082	-0.264172	9.426604	2.587411	-0.706389	0.408955	0.4861	0.623013	-0.691525	0.37459	-0.215106
-1.999801	2.148719	9.766471	0.335334	0.822814	-0.025109	0.521457	-0.01014	-0.820129	1.933572	-0.44278	9.188442	0.32501	-1.514376	-0.047138	0.132086	-0.120078	-0.258168	9.367067	2.760688	-0.820911	0.440087	0.331865	0.718512	-0.671977	0.341522	-0.185008
-2.413338	2.55401	9.181301	0.238136	0.796622	-0.176671	0.564042	-0.020957	-0.870511	1.595136	-0.670927	9.182328	0.511491	-1.489245	-0.083208	0.126082	-0.120078	-0.264172	9.139408	2.703247	-0.825679	0.839798	0.335431	0.812333	-0.643918	0.36116	-0.183515
-2.302744	2.147041	8.951349	0.174255	0.799519	-0.266711	0.596453	-0.019291	-0.850355	1.883742	-0.500511	9.541458	0.235677	-1.381866	-0.128103	0.126082	-0.114074	-0.270176	9.48423	2.239919	-0.70684	0.624612	0.304394	0.658971	-0.640792	0.361664	-0.213071
-2.129047	1.740715	9.011615	0.085569	0.705461	0.037126	0.553868	-0.008473	-0.799973	1.654916	-0.671402	9.360415	0.027028	-1.251139	-0.08123	0.132086	-0.126082	-0.270176	9.138839	2.992728	-0.824364	0.685631	0.517895	0.776688	-0.640319	0.380173	-0.251875
-1.82889	2.264497	9.712365	0.027132	0.893276	-0.076007	0.616254	-0.022399	-0.776716	1.539192	-0.498981	9.239937	-0.261197	-1.427139	-0.051137	0.132086	-0.102066	-0.270176	9.482421	2.587034	-0.762355	0.562663	0.4889	0.562605	-0.609181	0.368051	-0.219421
-2.061872	2.264301	9.534348	-0.201417	0.592741	-0.174596	0.550022	-0.044118	-0.815924	1.477921	-0.727472	8.944256	-0.132535	-1.305053	-0.109792	0.132086	-0.126082	-0.270176	9.312593	3.224761	-0.648658	0.34704	0.668794	0.649029	-0.641692	0.356911	-0.195981
-1.715257	2.264246	9.656836	-0.007851	0.771092	-0.080194	0.59748	-0.020417	-0.832195	1.141616	-0.211224	9.172823	0.055708	-1.249	-0.143943	0.13809	-0.126082	-0.258168	9.539934	2.297438	-0.762543	0.13193	0.580081	0.252326	-0.637239	0.348413	-0.220913
-1.891073	2.496165	9.480521	-0.159135	0.804625	0.016457	0.565069	-0.022084	-0.852351	1.75939	0.016376	9.007369	-0.139583	-1.428742	-0.117469	0.132086	-0.114074	-0.27618	9.715928	3.109224	-0.412931	0.039964	0.484273	0.437563	-0.637666	0.362168	-0.242627
-2.060674	2.206398	9.592023	-0.22103	0.931791	-0.160204	0.548995	-0.042992	-0.834084	1.9386	-0.672355	9.424849	0.139831	-1.407353	-0.157158	0.144094	-0.114074	-0.258168	9.369547	2.645421	-0.707252	-0.021783	0.550708	0.038086	-0.640365	0.347909	-0.191357
-1.606418	2.495607	9.370607	0.020984	0.708782	-0.083439	0.565714	-0.042722	-0.814926	1.772536	-0.385788	9.657082	0.238129	-1.251405	-0.243441	0.132086	-0.114074	-0.258168	9.601598	2.76181	-0.473853	0.009251	0.428483	0.041087	-0.640319	0.380173	-0.251875
-1.88862	2.322316	9.595732	-0.039119	0.803502	-0.139238	0.582171	-0.002301	-0.852457	1.768871	-0.614552	9.421487	-0.041209	-1.20587	-0.292174	0.132086	-0.096063	-0.270176	9.538239	2.586657	-0.818321	-0.021294	0.337058	-0.018127	-0.658114	0.390483	-0.255635
-1.950469	2.205728	9.36305	-0.131645	0.680393	0.04126	0.565069	-0.022084	-0.852351	1.880482	-0.500206	9.364457	-0.077474	-1.297389	-0.296726	0.132086	-0.120078	-0.270176	9.483536	3.166524	-0.645542	0.132584	0.277197	0.014674	-0.622997	0.351354	-0.20931
-2.185737	2.205251	9.069404	-0.162146	0.649606	0.101839	0.54976	-0.003968	-0.872613	1.664759	-0.328662	9.949808	-0.106307	-1.433375	-0.057168	0.126082	-0.114074	-0.264172	9.834547	2.994255	-0.182836	0.009222	0.456868	0.193354	-0.622097	0.356107	-0.2264
-2.234902	1.974114	9.472406	-0.066419	0.739418	0.103253	0.566479	-0.003698	-0.853455	1.767102	-0.38528	9.362081	-0.012607	-1.270655	-0.266465	0.150098	-0.114074	-0.27618	9.147633	2.531397	-0.426822	0.070712	0.457626	0.193667	-0.637239	0.348413	-0.220913
-2.290059	2.032492	9.587032	-0.075641	0.462678	0.092105	0.536122	-0.007617	-0.837291	1.376665	-0.670956	9.590983	0.179161	-1.152757	-0.296778	0.13809	-0.120078	-0.27618	9.189821	2.585763	-1.167631	-0.206341	0.579992	-0.024755	-0.671931	0.373786	-0.245525
-2.012263	2.031096	9.130229	0.114404	0.643151	0.033882	0.586662	0.012705	-0.799082	1.602061	-0.442468	9.594923	0.052797	-1.278229	-0.176616	0.114074	-0.114074	-0.27618	8.91614	2.704753	-0.601815	0.131739	0.670674	0.341979	-0.641265	0.343156	-0.174267
-2.234482	2.728809	9.532037	0.042773	0.305687	0.082843	0.548995	-0.042992	-0.834084	1.943181	-0.386401	9.719342	-0.200772	-1.259784	-0.320736	0.150098	-0.114074	-0.24616	9.196579	2.58734	-0.825078	0.070628	0.515756	0.406412	-0.62257	0.337598	-0.187596
-1.602822	2.321898	9.543632	-0.29625	0.314189	0.12181	0.56956	-0.007077	-0.798975	1.432843	-0.556541	9.591866	0.077416	-1.303625	-0.302756	0.132086	-0.114074	-0.27618	9.494469	2.763615	-0.133552	0.009083	0.544743	0.466579	-0.658587	0.371975	-0.216832
-2.170377	1.684684	9.819739	-0.202252	0.373677	0.09146	0.566096	-0.02321	-0.834191	1.883572	-0.443218	9.541356	-0.035387	-1.147412	-0.226828	0.126082	-0.126082	-0.258168	9.480385	3.049942	-0.817344	-0.113668	0.423796	0.25463	-0.672403	0.355278	-0.206721
-2.185682	2.147209	9.069265	-0.228013	0.528233	0.09842	0.534712	-0.026003	-0.836187	1.435592	-0.384968	9.768562	-0.012607	-1.270655	-0.266465	0.114074	-0.120078	-0.258168	9.485914	2.529926	-0.591341	-0.144549	0.484266	0.283646	-0.609653	0.349542	-0.180617
-2.119427	2.438484	9.533625	-0.169576	0.340418	0.211554	0.566358	-0.06336	-0.777501	1.488106	-0.499318	9.533851	0.004324	-1.060973	-0.130015	0.114074	-0.114074	-0.264172	9.033291	2.763211	-0.428023	-0.482644	0.448089	0.374422	-0.657261	0.362972	-0.212208
-2.065301	2.263881	9.360904	0.013938	0.367996	0.086087	0.56815	-0.025463	-0.797871	1.65498	-0.327749	9.418806	-0.048181	-1.262634	-0.388274	0.120078	-0.120078	-0.27618	9.421531	2.875841	-0.933443	-0.513785	0.602777	0.248328	-0.605201	0.341044	-0.205549
-2.135541	2.552613	8.724497	-0.074553	0.430655	0.182442	0.57097	0.011309	-0.80008	1.994608	-0.500649	9.425631	-0.01322	-1.30327	-0.237631	0.126082	-0.120078	-0.27618	9.376305	2.646998	-0.364699	-0.882815	0.656814	0.428601	-0.655934	0.35397	-0.207584
-2.577334	2.381027	9.582156	-0.295609	0.376536	0.063237	0.535739	-0.027129	-0.818027	1.312773	-0.383714	9.235387	0.193208	-1.363686	-0.434434	0.126082	-0.114074	-0.27618	9.199059	2.472073	-0.71142	-1.436175	0.620704	0.334708	-0.611407	0.3723	-0.206955
-1.83455	2.205756	9.423151	-0.11024	0.308895	0.14773	0.594661	-0.057188	-0.829986	2.044437	-0.442917	9.072615	0.471398	-1.407528	-0.416454	0.13809	-0.126082	-0.258168	9.707942	2.586053	-0.872034	-1.682367	0.710532	0.270132	-0.671504	0.360031	-0.223811
-2.242094	2.321532	9.126356	0.072118	0.086236	0.317606	0.550404	-0.024606	-0.835189	1.71412	-0.843652	9.479807	0.70755	-1.14304	-0.315362	0.132086	-0.126082	-0.258168	9.370901	2.529891	-0.650686	-1.989661	0.64499	0.300585	-0.624796	0.341848	-0.17513
-1.834717	2.379884	9.42357	-0.269532	-0.091878	0.501768	0.565331	-0.062234	-0.795661	1.206701	-0.899513	9.529129	2.33376	-0.548385	0.652591	0.126082	-0.126082	-0.270176	9.255877	3.109082	-0.65031	-2.297402	0.737232	0.021527	-0.606954	0.363802	-0.231887
-2.009112	2.321729	9.304372	-0.269916	-0.06028	0.441956	0.55425	0.011039	-0.819238	1.814013	-0.44183	8.832268	2.312271	0.445304	1.860539	0.13809	-0.120078	-0.264172	9.316882	2.762379	-0.479484	-2.604669	0.67033	0.143766	-0.657261	0.362972	-0.212208
-2.180078	2.263993	9.358618	-0.369294	-0.367458	0.584498	0.535357	-0.046641	-0.798762	1.710008	-0.556886	9.302299	0.972544	0.342637	1.933556	0.144094	-0.10807	-0.264172	9.30877	2.876332	-0.878603	-2.450316	0.424299	0.333811	-0.653282	0.335965	-0.198337
-2.295886	2.147879	9.298238	-0.18021	-0.280505	0.614134	0.547968	-0.041866	-0.852244	1.880482	-0.500206	9.364457	1.262687	0.683406	1.728542	0.120078	-0.114074	-0.252164	9.088324	2.588882	-0.54187	-1.957749	0.208101	0.861416	-0.654135	0.363476	-0.241764
-2.061928	2.322343	9.534488	-0.102734	-0.587456	0.38577	0.598507	-0.021543	-0.814035	1.372552	-0.384189	9.413475	0.611304	0.97899	1.369432	0.126082	-0.132086	-0.264172	9.538125	2.644554	-0.818058	-1.37319	0.086351	1.295569	-0.63634	0.353166	-0.238003
-2.293544	2.090116	9.413728	0.087307	-0.752014	0.802325	0.550022	-0.044118	-0.815924	1.369293	-0.383884	9.236474	1.600693	1.27708	0.827226	0.132086	-0.126082	-0.264172	9.318907	2.878697	-0.364774	-0.912064	0.121325	1.388992	-0.671031	0.37854	-0.262615
-2.067754	2.43773	9.245694	0.153048	-0.505098	0.627547	0.56366	-0.040469	-0.851246	1.709027	-0.95773	9.185009	1.02291	1.687084	0.596392	0.13809	-0.126082	-0.270176	9.315539	2.298682	-0.595771	-0.235848	0.192319	1.299226	-0.657688	0.376728	-0.233922
-2.008945	2.147601	9.303953	0.279723	-0.478869	0.717291	0.581788	-0.021813	-0.833193	1.701996	-0.785243	8.830703	1.280467	2.132026	0.213818	0.132086	-0.114074	-0.264172	9.488508	2.356763	-0.477945	0.041044	0.132161	1.455034	-0.639466	0.352662	-0.208447
-2.125729	1.857219	9.185339	0.506223	-0.239833	0.813403	0.552458	-0.026859	-0.798869	1.194301	-0.382866	8.938213	1.453822	2.668396	-0.067121	0.126082	-0.114074	-0.270176	9.432122	2.646621	-0.420665	0.840366	0.171302	1.550177	-0.667951	0.346779	-0.231653
-2.06954	1.915066	9.128806	0.656162	-0.335288	0.7448	0.61869	-0.00514	-0.759661	1.601997	-0.786121	9.536532	1.915358	2.922461	-0.531163	0.132086	-0.120078	-0.270176	9.261975	2.299584	-0.425621	1.394237	-0.007145	1.649047	-0.639466	0.352662	-0.208447
-1.831986	1.915822	9.538082	0.75426	-0.152805	0.719404	0.583198	-0.003428	-0.834297	1.48817	-0.155665	9.592242	2.41063	3.070659	-0.786894	0.150098	-0.10807	-0.282184	8.976018	2.357787	-0.488082	2.03983	0.030555	1.712813	-0.606954	0.363802	-0.231887
-2.064103	2.205979	9.418579	1.063682	-0.035801	0.564057	0.530866	-0.061648	-0.852138	1.769276	-0.385483	9.480081	2.376358	3.210834	-1.054796	0.13809	-0.114074	-0.24616	9.204463	2.58918	-0.425433	2.655193	-0.147134	1.811996	-0.671504	0.360031	-0.223811
-2.056213	2.323042	9.823562	0.978264	0.119104	0.664128	0.534712	-0.026003	-0.836187	1.599035	-0.155802	9.476415	2.740592	3.17341	-1.224958	0.114074	-0.120078	-0.27618	9.550286	2.763238	-0.189518	2.839936	-0.266559	1.754589	-0.641692	0.356911	-0.195981
-2.296639	1.74144	9.239445	1.099369	0.085958	0.598769	0.537149	-0.008744	-0.819131	1.376558	-0.27001	9.649272	2.221007	3.318303	-1.196777	0.144094	-0.126082	-0.27618	9.432008	2.704518	-0.420402	3.301211	-0.265861	2.093485	-0.659487	0.367221	-0.199742
-2.128683	2.553452	9.071386	0.890351	0.306881	0.612812	0.565069	-0.022084	-0.852351	1.707493	-0.442098	9.184095	2.246699	3.22429	-1.203741	0.132086	-0.102066	-0.270176	9.144141	2.588505	-0.597836	3.670704	-0.478138	2.253317	-0.686646	0.352336	-0.218324
-1.834773	2.437927	9.42371	0.489815	0.410952	0.534929	0.580379	-0.040199	-0.832088	1.027832	-0.325366	9.111852	2.237812	3.002755	-1.124914	0.132086	-0.10807	-0.264172	9.666436	2.18431	-0.132802	3.823997	-0.292338	2.249833	-0.655035	0.358723	-0.224674
-2.061872	2.264301	9.534348	1.054956	0.673085	0.532262	0.564042	-0.020957	-0.870511	1.600804	-0.385074	9.535821	1.897968	2.814012	-0.815624	0.13809	-0.13809	-0.270176	9.483889	2.413608	-0.706051	4.131494	-0.290815	2.404374	-0.671977	0.341522	-0.185008
-2.122745	2.32198	9.359901	0.890865	0.494772	0.376042	0.580761	-0.020687	-0.851353	1.490961	-0.72869	9.652258	1.909872	2.740317	-1.191635	0.132086	-0.10807	-0.252164	9.546122	2.588498	-0.418676	4.285672	-0.473733	2.470614	-0.626122	0.35085	-0.179754
-2.354528	2.26388	9.23956	1.049964	0.738829	0.229488	0.568915	0.013561	-0.8364	1.709049	0.130522	9.360081	1.714501	2.493652	-1.076737	0.144094	-0.132086	-0.27618	9.096321	2.532826	-0.142488	4.470027	-0.411518	2.561916	-0.637712	0.329904	-0.18211
-2.066556	2.379827	9.303369	1.029453	0.921587	0.420837	0.564304	-0.061108	-0.813821	1.767273	-0.442573	9.362182	1.401195	2.444281	-1.068515	0.132086	-0.114074	-0.252164	9.776944	2.183293	-0.301826	4.931348	-0.493711	2.29104	-0.607854	0.359049	-0.214797
-2.291536	2.380609	9.530056	1.182787	0.949552	0.326663	0.599917	-0.003157	-0.815139	1.883401	-0.385926	9.541255	1.51037	2.550682	-0.818425	0.150098	-0.10807	-0.270176	9.655174	2.181681	-0.703724	5.176879	-0.306775	2.288025	-0.607854	0.359049	-0.214797
-1.887422	2.264413	9.653407	1.038932	1.292273	0.3136	0.584225	-0.004554	-0.816137	1.539086	-0.098035	9.298227	1.240681	2.481438	-0.473117	0.132086	-0.126082	-0.264172	9.266252	2.416429	-0.196727	5.422609	-0.210885	2.225953	-0.641265	0.343156	-0.174267
-1.780702	2.321366	9.251129	1.015861	1.570675	0.264464	0.548995	-0.042992	-0.834084	1.436913	-0.098709	9.886055	0.80397	2.79413	-0.15905	0.13809	-0.096063	-0.240156	9.435842	2.473721	-0.250177	5.729771	-0.111066	1.950027	-0.651955	0.326963	-0.193713
-2.062039	2.438429	9.534768	0.879053	2.254183	0.081874	0.547968	-0.041866	-0.852244	1.66086	-0.843787	9.655721	0.561785	3.1201	0.33422	0.132086	-0.120078	-0.27618	9.777615	2.415142	-0.243683	6.282696	0.109856	1.978461	-0.67283	0.369033	-0.228435
-2.061928	2.322343	9.534488	0.94627	2.782513	-0.417531	0.56225	-0.058855	-0.850142	1.141957	-0.325809	9.173026	0.864441	2.917015	0.402904	0.144094	-0.114074	-0.258168	9.26524	2.358269	-0.254082	6.466982	0.175696	1.825001	-0.671931	0.373786	-0.245525
-2.24307	2.147264	9.068122	0.900832	3.338893	-0.485277	0.550022	-0.044118	-0.815924	1.598396	-0.671231	9.359328	0.718207	2.944014	0.595375	0.13809	-0.114074	-0.264172	9.429198	2.414247	-0.592993	6.528511	0.147615	1.703644	-0.687073	0.366092	-0.240038
-2.116165	2.613032	9.707488	1.136046	4.011817	-0.616025	0.563277	-0.059981	-0.831982	1.543773	-0.213026	9.53443	0.017202	2.955771	0.930648	0.132086	-0.10807	-0.270176	9.378341	2.18409	-0.30971	6.681775	0.308201	1.333727	-0.625649	0.369359	-0.218558
-2.291648	2.496694	9.530335	1.809665	4.983419	-0.928283	0.580379	-0.040199	-0.832088	1.492111	-0.385139	9.769649	-0.767359	2.70019	1.097292	0.126082	-0.120078	-0.264172	9.600256	2.298113	-0.59014	6.834819	0.587765	1.205727	-0.657261	0.362972	-0.212208
-2.51412	2.265584	9.872093	2.125093	6.208209	-1.038272	0.56225	-0.058855	-0.850142	1.422041	-0.211873	9.060256	-1.052594	2.620344	1.071636	0.144094	-0.114074	-0.270176	9.028445	2.935848	-0.655603	7.019158	0.650886	1.235839	-0.674157	0.378036	-0.233059
-2.117895	2.032325	9.590461	2.607955	8.487586	-2.056259	0.564687	-0.041596	-0.833086	1.302546	0.13273	8.762472	-1.384617	2.721751	1.18292	0.126082	-0.120078	-0.270176	9.543199	2.356123	-0.591003	6.618969	0.833038	1.01537	-0.675056	0.373283	-0.215969
-2.345329	2.206955	9.701938	3.847625	11.7105	-3.756333	0.517611	-0.045785	-0.83608	1.430095	-0.728114	9.41517	-1.907713	2.804801	1.207261	0.132086	-0.114074	-0.264172	9.484105	2.877042	-0.646856	6.434532	0.801927	0.892761	-0.655508	0.340214	-0.185871
-2.17191	2.090843	9.762902	4.238026	13.804017	-4.504717	0.579352	-0.039073	-0.850248	1.367865	-0.269198	9.177271	-2.227371	2.731281	1.090551	0.132086	-0.120078	-0.264172	9.55131	2.242171	-0.191884	6.557159	0.983269	1.164478	-0.672403	0.355278	-0.206721
-2.336629	2.672415	10.165574	4.65618	16.212298	-5.821445	0.586279	-0.006807	-0.779817	1.53525	-0.269506	9.06253	-2.118198	2.837681	1.340636	0.144094	-0.120078	-0.264172	9.37362	1.719604	-0.597274	6.803029	1.071908	1.591931	-0.658161	0.358219	-0.195118
-2.396835	2.033582	9.98945	2.835439	18.374495	-7.308964	0.599534	-0.022669	-0.795875	1.773793	-0.443182	9.716183	-2.284223	3.084076	1.516992	0.144094	-0.114074	-0.27618	9.662159	2.067465	-0.361697	7.663645	1.230784	1.929305	-0.65906	0.353466	-0.178028
-2.229409	2.206984	9.762039	0.82	22.093583	-7.383342	0.569178	-0.026589	-0.779711	1.4841	-0.613496	9.298054	-2.143841	3.39	1.500607	0.120078	-0.126082	-0.264172	9.259608	2.356955	-0.539543	8.554795	1.401366	1.501954	-0.658161	0.358219	-0.195118
-2.148882	1.91951	10.918778	1.29401	23.374583	-7.403116	0.595688	-0.058315	-0.811825	1.31386	-0.383815	9.294388	-1.548018	3.579366	2.140066	0.144094	-0.102066	-0.270176	9.320602	2.589478	-0.308996	9.722078	1.874613	1.558423	-0.638566	0.357415	-0.225537
-2.209931	4.306218	13.755145	3.212556	25.034527	-1.757745	0.570587	-0.008203	-0.780815	1.37055	-0.441278	9.295576	-1.794536	3.721499	2.003627	0.13809	-0.120078	-0.258168	9.267265	2.474588	-0.139372	10.796957	2.409383	1.521215	-0.687973	0.361339	-0.222948
-1.796021	2.558763	11.389692	19.924308	38.057153	-4.828812	0.567123	-0.024336	-0.816031	1.202653	-0.269093	9.410012	-0.876848	3.567163	1.836756	0.132086	-0.120078	-0.270176	9.147633	2.531397	-0.426822	12.45659	2.653	0.943376	-0.670177	0.351028	-0.219187
-2.341883	3.14324	12.825028	13.582339	45.019727	-3.933755	0.602998	-0.006536	-0.760659	1.264883	-0.728009	9.647911	-1.001957	3.11554	1.65782	0.150098	-0.126082	-0.264172	10.118706	2.703941	-0.235611	13.286601	2.724528	0.946179	-0.655508	0.340214	-0.185871
-2.127301	3.257286	12.078288	16.919117	53.35295	-5.04598	0.616254	-0.022399	-0.776716	1.764418	-0.2132	9.243776	-0.418023	2.640308	1.358885	0.13809	-0.120078	-0.258168	9.82994	2.471873	-0.470662	15.131037	2.84691	0.433313	-0.67245	0.323013	-0.146204
-2.156811	2.796354	13.463581	15.982658	62.40088	-7.341304	0.613172	-0.01902	-0.831197	0.863472	-0.611723	9.345101	-0.708009	2.433387	1.387058	0.150098	-0.10807	-0.264172	9.53949	1.949797	-0.821212	16.698635	2.972679	-0.539896	-0.639466	0.352662	-0.208447
-2.56745	2.563455	12.992503	20.930173	71.020989	-10.069049	0.603381	0.012976	-0.779924	1.259407	0.017097	9.469591	-0.902045	1.927495	1.114436	0.132086	-0.120078	-0.270176	9.426377	2.703203	-0.705863	18.542856	3.241969	-0.627982	-0.655081	0.326459	-0.164157
-2.968025	2.563984	13.042317	21.066405	80.825914	-11.197552	0.567768	-0.044975	-0.778606	1.033435	-0.383166	9.406955	-1.09179	1.64991	0.639973	0.144094	-0.102066	-0.264172	9.377101	2.241723	-0.366539	20.815943	4.299421	0.216093	-0.670604	0.364784	-0.240901
-2.959604	3.319657	13.506652	22.332952	90.483076	-12.725681	0.666028	-0.0411	-0.699978	1.25979	-0.842086	9.353113	-0.890114	1.462419	0.497002	0.13809	-0.126082	-0.270176	9.426161	2.239769	-0.765058	21.858608	5.450428	-0.08026	-0.619444	0.338102	-0.217152
-2.735351	1.693401	13.160423	32.394361	98.269346	-13.897935	0.632208	-0.061153	-0.719029	1.600293	-0.213196	9.535517	-0.797993	1.336684	-0.13249	0.156102	-0.120078	-0.264172	9.538034	1.543997	-0.937237	21.210224	6.603995	0.103597	-0.606528	0.350046	-0.210173
-3.267959	1.808031	12.341009	33.654247	107.53236	-11.225131	0.696768	-0.017669	-0.735406	1.879055	-0.38552	9.305254	-1.201135	1.06275	-0.506254	0.150098	-0.120078	-0.264172	9.309805	1.776037	-0.94069	20.621808	8.563645	1.767738	-0.649302	0.308958	-0.184465
-3.428359	1.461339	12.914889	38.233165	115.351355	-6.184689	0.697795	-0.018795	-0.717246	1.206936	-0.613152	9.587621	-1.769306	0.899671	-0.496061	0.150098	-0.102066	-0.264172	8.794517	0.907564	-1.183138	19.236249	9.534012	3.358772	-0.606528	0.350046	-0.210173
-3.633505	1.283325	11.234412	45.065157	123.973209	-1.164724	0.730851	-0.037767	-0.659665	1.369293	-0.383884	9.236474	-1.534527	0.226787	-1.474882	0.13809	-0.10807	-0.270176	8.968828	1.429341	-0.949025	17.361111	9.487799	4.909571	-0.669751	0.337273	-0.197474
-4.268679	0.586866	10.988904	48.525836	126.926014	3.794351	0.731878	-0.038893	-0.641505	1.316033	-0.384018	9.412388	-1.721054	-0.256649	-1.591823	0.144094	-0.102066	-0.258168	9.078107	0.906732	-1.234599	14.439691	9.852359	6.81222	-0.639039	0.338906	-0.186734
-4.343157	0.526783	10.120399	49.97901	127.595996	10.724481	0.70293	-0.024427	-0.626446	1.769382	-0.786429	9.421792	-2.369258	-0.625223	-1.746422	0.120078	-0.102066	-0.270176	9.53015	1.542157	-1.336882	11.766341	9.359508	8.888991	-0.614992	0.329604	-0.242084
-4.93466	-0.171409	9.182256	52.136377	123.849402	19.47376	0.752323	-0.06264	-0.530442	1.265799	-0.670818	9.70681	-2.561712	-0.842659	-1.59885	0.132086	-0.10807	-0.264172	9.301376	0.905226	-1.458463	7.677634	8.851817	6.646153	-0.655934	0.35397	-0.207584
-3.770101	-0.758035	7.12353	49.255053	111.40653	29.850286	0.78268	-0.058721	-0.546606	1.376089	-0.842731	9.532287	-3.021704	-1.266573	-0.867615	0.144094	-0.096063	-0.264172	10.036678	1.134281	-1.671138	6.725442	8.469111	6.863998	-0.622143	0.323843	-0.165883
-1.17693	-2.384616	7.633569	42.321301	76.250106	42.569344	0.751296	-0.061514	-0.548602	1.484675	-0.441721	9.356749	-3.293653	-1.221036	-1.503799	0.13809	-0.114074	-0.27618	10.036894	1.597715	-1.611943	3.559409	7.82633	4.170469	-0.603448	0.318286	-0.179212
0.68737	-2.847384	9.056581	33.174673	44.550217	61.657946	0.811889	-0.113337	-0.504977	1.318206	-0.384222	9.530388	-3.207541	-1.65047	-1.101812	0.13809	-0.114074	-0.270176	10.214152	1.193413	-1.324944	3.224663	6.405485	4.660386	-0.603448	0.318286	-0.179212
2.075364	-3.253761	9.603367	36.094467	29.563923	82.798454	0.779096	-0.134516	-0.505868	1.147838	-0.841847	9.40994	-2.918451	-2.135241	-0.988893	0.13809	-0.126082	-0.252164	10.215722	1.541317	-1.209182	1.631055	4.10154	3.726547	-0.650156	0.336469	-0.227893
3.459116	-4.71969	4.079374	37.25922	25.945542	97.846074	0.808688	-0.169621	-0.483503	1.212198	-0.556367	9.88252	-2.013209	-2.181574	-0.839346	0.132086	-0.10807	-0.252164	10.723831	0.902119	-1.487398	1.452074	1.931086	5.305139	-0.655508	0.340214	-0.185871
5.527282	-3.669463	7.186076	-1.89364	10.783881	100.599787	0.79364	-0.191656	-0.447076	1.488447	-0.613903	9.534054	-1.204955	-2.251701	-0.749608	0.132086	-0.120078	-0.258168	10.902545	0.903617	-1.084375	1.394977	-0.099711	3.761537	-0.63236	0.326159	-0.224132
6.870936	-3.377594	8.427173	-12.432246	-2.586132	94.339695	0.77974	-0.155154	-0.468443	1.148413	-0.670071	9.468636	-0.510621	-2.555302	-0.856129	0.150098	-0.120078	-0.270176	10.740486	1.601081	-0.570769	2.626944	-1.299113	0.9516	-0.653282	0.335965	-0.198337
7.208938	-2.740157	8.146494	-12.523358	-16.783099	78.443104	0.776277	-0.171288	-0.503659	1.377176	-0.842833	9.591287	0.053445	-2.878063	-1.082761	0.13809	-0.120078	-0.258168	10.335808	1.252922	-0.922783	5.548031	-1.465451	0.145369	-0.651955	0.326963	-0.193713
7.190483	-2.568265	7.221877	-20.593747	-30.785968	56.998705	0.834816	-0.220859	-0.496353	1.095729	-0.498429	9.703245	0.74426	-3.243509	-1.193121	0.144094	-0.10807	-0.264172	10.104201	1.484174	-1.097513	6.592735	-1.257337	-0.618466	-0.655035	0.358723	-0.224674
7.761214	-2.859454	7.059164	-36.435978	-43.299264	31.737197	0.775512	-0.210312	-0.46513	1.145963	-0.21163	9.408823	0.536203	-3.929854	-1.569529	0.150098	-0.114074	-0.27618	10.117728	0.908102	-0.472128	7.268301	-0.963174	-1.294528	-0.622997	0.351354	-0.20931
6.918457	-2.624213	7.967615	-51.015786	-54.699904	5.974412	0.762639	-0.174937	-0.468337	0.983713	-0.841843	9.701681	0.350668	-4.548831	-1.478868	0.126082	-0.120078	-0.264172	9.829075	0.618137	-0.707443	7.513116	-0.577379	-2.311469	-0.652855	0.322209	-0.176623
5.845004	-2.388889	8.813679	-62.023406	-65.941557	-18.030707	0.790941	-0.168765	-0.520821	1.368717	-0.55566	9.177778	0.646458	-5.133139	-1.836143	0.150098	-0.102066	-0.252164	9.887918	1.371465	-0.531623	8.311732	-0.231275	-2.254032	-0.675102	0.341018	-0.155452
5.108046	-2.329005	9.261478	-66.164001	-77.643793	-37.327012	0.791969	-0.169891	-0.502661	1.37724	-0.49918	9.649678	0.559479	-5.786778	-2.338475	0.150098	-0.114074	-0.258168	9.760517	1.368538	-1.218981	7.939754	1.051062	-2.255184	-0.673776	0.332016	-0.150828
4.52633	-2.503555	8.844925	-75.661248	-88.60832	-52.736769	0.741429	-0.190214	-0.54087	1.310941	-0.498096	9.11759	0.734909	-6.695633	-2.928528	0.150098	-0.10807	-0.264172	9.595989	1.602042	-0.878755	8.215196	1.577798	-2.418845	-0.636386	0.320902	-0.177486
3.796119	-2.326747	9.639893	-86.689846	-97.307348	-64.105569	0.759295	-0.131407	-0.579506	1.48736	-0.613801	9.475054	2.343411	-8.065102	-3.600224	0.144094	-0.102066	-0.270176	9.54164	1.428992	-0.766486	7.691773	1.905797	-2.245754	-0.622143	0.323843	-0.165883
2.767147	-1.74476	9.851975	-94.549567	-105.21352	-71.972793	0.728556	-0.154839	-0.544078	1.379924	-0.67126	9.767983	3.091089	-8.783342	-4.137049	0.120078	-0.120078	-0.270176	9.41987	1.42738	-1.168383	6.769262	1.955281	-2.221276	-0.636859	0.302393	-0.138682
2.317242	-1.801239	10.30521	-100.438717	-112.657306	-76.873759	0.703837	-0.085215	-0.532332	0.91931	-0.382724	9.345781	3.688749	-9.345817	-3.978517	0.150098	-0.120078	-0.264172	9.643251	1.367977	-1.39251	6.646461	1.944251	-1.579391	-0.640365	0.347909	-0.191357
1.412833	-0.695721	11.041169	-105.189699	-119.021693	-79.5578	0.686473	-0.064847	-0.588915	1.430201	-1.129059	9.356881	3.027118	-9.862228	-4.265736	0.150098	-0.126082	-0.264172	9.596342	0.849126	-0.939265	6.27804	1.616595	-2.521914	-0.605674	0.322535	-0.166746
0.959751	0.176202	11.38101	-108.210861	-125.154236	-79.982219	0.687621	-0.006311	-0.646709	1.713332	-0.213537	9.53769	3.318162	-10.57361	-4.569188	0.13809	-0.10807	-0.264172	9.705155	1.137329	-1.164066	5.725612	1.181573	-2.575966	-0.683993	0.334332	-0.209077
0.045945	0.35178	11.594401	-107.741044	-130.632011	-78.75198	0.673601	-0.029472	-0.592122	1.482843	-0.556103	9.238952	3.097077	-11.575948	-4.841782	0.144094	-0.126082	-0.264172	9.649224	1.195602	-1.107838	5.849178	0.964455	-2.295	-0.655981	0.321705	-0.147067
-0.461905	0.875783	12.04789	-105.471857	-134.240186	-75.86859	0.61339	0.041863	-0.655012	1.200352	-0.956196	9.175229	3.238848	-12.814789	-5.05002	0.144094	-0.114074	-0.258168	9.530616	0.731344	-1.397654	5.573295	0.568476	-2.684908	-0.623469	0.332845	-0.170507
-1.362328	1.401293	12.955896	-102.50248	-135.549117	-71.349308	0.579951	0.041323	-0.693329	1.260941	-0.498534	9.470504	3.421144	-13.845198	-4.535537	0.13809	-0.10807	-0.27618	9.482342	0.90725	-0.941254	5.573738	0.303493	-3.412808	-0.624369	0.328092	-0.153417
-2.567369	1.286376	12.931614	-98.749177	-135.151698	-64.762116	0.561823	0.022667	-0.711382	1.490854	-0.327745	9.710547	1.737991	-14.656758	-4.31007	0.13809	-0.126082	-0.264172	9.191539	1.13809	-1.231295	4.313209	0.259124	-3.540898	-0.639938	0.334153	-0.169644
-2.969365	1.576979	12.924312	-94.438108	-132.830168	-58.139533	0.518975	0.073634	-0.71769	1.372552	-0.384189	9.413475	4.342722	-16.307995	-4.57248	0.126082	-0.126082	-0.27618	8.961855	0.96433	-1.350773	2.929021	0.490909	-3.798397	-0.634633	0.298144	-0.151148
-3.599548	1.635774	12.969694	-90.628865	-128.537251	-50.598935	0.536842	0.13244	-0.756326	1.712522	-0.671674	9.420502	2.858761	-17.046126	-4.133208	0.132086	-0.13809	-0.270176	9.301046	0.499688	-1.517395	2.313473	0.839362	-3.014568	-0.653754	0.317456	-0.159533
-4.217157	1.696105	13.651038	-85.7818	-123.310449	-43.594401	0.490793	0.127125	-0.74116	1.49143	-0.155969	9.769243	3.442247	-17.922901	-3.901605	0.144094	-0.126082	-0.270176	9.411326	0.614465	-1.685893	1.360215	0.862801	-3.326089	-0.635532	0.29339	-0.134059
-4.28854	1.984697	12.956817	-77.011	-117.812215	-37.069033	0.506867	0.148033	-0.759426	1.708474	-0.041254	9.301385	4.697231	-19.04696	-3.648462	0.126082	-0.10807	-0.270176	9.135165	0.848722	-1.233735	0.714952	0.593036	-4.27145	-0.637712	0.329904	-0.18211
-5.435049	1.869865	12.991492	-68.020574	-110.739904	-31.278496	0.475866	0.164752	-0.780687	1.717273	-0.443012	9.715097	1.568948	-19.111148	-1.715482	0.126082	-0.114074	-0.270176	8.899053	1.078922	-1.636834	0.253064	0.893408	-4.250314	-0.652855	0.322209	-0.176623
-5.907982	1.984718	12.288851	-62.426006	-100.589526	-25.5862	0.415917	0.195937	-0.786888	1.825561	-0.672015	9.422675	1.223634	-19.6379	-0.315119	0.144094	-0.120078	-0.270176	9.464777	0.671459	-1.85578	-0.178178	1.306794	-3.558754	-0.670696	0.300255	-0.119867
-6.939018	2.334255	12.384745	-57.727326	-88.47483	-19.944576	0.432636	0.196207	-0.76773	1.827734	-0.672218	9.540676	-1.219219	-20.294148	1.678526	0.132086	-0.114074	-0.264172	9.301944	0.615744	-1.459777	-0.826674	2.576648	-2.949397	-0.638612	0.325151	-0.16502
-8.506621	2.159394	11.428429	-54.053994	-78.300618	-14.480392	0.399842	0.175029	-0.768622	1.767614	-0.557158	9.362385	-6.745349	-20.07507	5.447284	0.132086	-0.132086	-0.264172	9.128168	1.542164	-1.516042	-2.058609	3.506673	-2.64115	-0.621716	0.310087	-0.144169
-9.511327	1.518237	9.904277	-52.704918	-69.341685	-10.202517	0.367431	0.173362	-0.788778	1.725157	-0.90196	10.06991	-6.234364	-24.164265	5.9081	0.126082	-0.126082	-0.258168	9.474799	0.731721	-1.341688	-3.721118	4.600792	-1.360298	-0.633306	0.289141	-0.146525
-16.955895	16.894908	28.748968	-101.514485	-32.833011	18.61711	0.352122	0.191477	-0.80904	1.875987	0.645744	9.303427	-8.747537	-25.519437	11.721983	0.126082	-0.10807	-0.252164	9.011927	1.020536	-1.691937	-5.937337	5.7589	-0.726198	-0.67245	0.323013	-0.146204
-11.748152	3.726448	10.038456	-23.1889	-40.938141	10.584363	0.337195	0.229105	-0.848568	2.847898	-0.16006	9.795322	-16.789385	-28.58791	13.826014	0.114074	-0.10807	-0.270176	10.047497	0.789268	-1.158886	-6.984951	6.807436	0.008478	-0.594984	0.338728	-0.1473
-15.052311	5.989512	8.417757	14.315541	-28.620995	14.202206	0.334376	0.192333	-0.846358	2.355075	0.355482	10.728632	-16.72062	-34.166277	16.895599	0.114074	-0.114074	-0.258168	10.039829	1.250862	-1.499336	-8.092686	7.300345	0.969808	-0.652428	0.308454	-0.154909
-15.147605	3.553926	9.276824	11.748437	-9.653524	17.028819	0.352122	0.191477	-0.80904	2.2558	-0.619164	11.318186	-12.974314	-44.699797	16.083923	0.126082	-0.126082	-0.270176	10.223833	1.427364	-0.810063	-8.739926	8.129281	2.384588	-0.667571	0.300759	-0.149423
-15.888944	8.424311	6.846626	16.402931	7.309025	21.924116	0.351357	0.152453	-0.770511	1.682976	-1.705	10.719246	-6.211438	-56.300148	13.641903	0.114074	-0.114074	-0.258168	10.164535	0.905622	-0.984831	-8.343179	9.28137	1.473045	-0.608373	0.308275	-0.115476
-17.919643	13.364833	8.840873	45.218862	19.040373	22.240626	0.349303	0.154706	-0.806831	1.962805	-0.044575	10.839736	-9.085776	-65.706444	14.440933	0.114074	-0.10807	-0.264172	10.046485	0.731109	-1.216241	-7.36273	10.839376	2.604402	-0.668897	0.309762	-0.154046
-19.84789	16.8525	10.140136	83.577673	45.518104	13.095379	0.419381	0.21207	-0.751673	2.188307	-0.217033	10.785387	-17.174435	-68.12607	11.427965	0.096063	-0.114074	-0.270176	10.263098	1.249356	-1.7232	-5.336492	12.250661	4.172962	-0.653754	0.317456	-0.159533
-18.61115	24.684803	9.25911	152.910178	92.309638	-31.428215	0.34892	0.135194	-0.787567	2.828367	-0.907939	11.683561	-11.959076	-70.491227	2.094231	0.120078	-0.096063	-0.27618	10.328141	1.714516	-1.263233	-6.169316	13.350578	3.684208	-0.657307	0.330708	-0.151691
-4.982995	4.2203	1.15891	51.630216	80.384599	-46.103317	0.349182	0.095044	-0.730877	2.485713	-0.448374	11.558228	-11.005463	-74.042168	-0.300544	0.096063	-0.102066	-0.270176	10.60676	2.523445	-1.482291	-5.182347	11.720067	0.821784	-0.586552	0.303222	-0.158361
5.214854	-0.458364	14.758352	93.081542	69.95544	-25.638989	0.39805	0.137131	-0.748252	2.893132	-0.393391	12.214735	-12.641769	-80.680348	-1.068586	0.090059	-0.10807	-0.288188	11.582998	3.508116	-0.944846	-2.042029	9.245965	-5.343341	-0.651574	0.280943	-0.111482
-4.109454	5.976648	7.71103	90.372111	77.369233	-1.068531	0.347511	0.116808	-0.786462	2.40082	-0.049727	13.148349	-14.415738	-90.780906	-2.115517	0.090059	-0.10807	-0.264172	12.039545	4.144592	-0.81876	-2.830021	4.369162	-5.662675	-0.616364	0.306342	-0.186191
-3.034246	5.102994	6.921243	52.417182	68.02702	29.33831	0.408487	0.084497	-0.762101	2.471381	-1.483122	13.682975	-14.899846	-102.170282	-5.671728	0.078051	-0.114074	-0.264172	12.779045	2.810707	-0.981442	-8.259915	-0.025527	1.016462	-0.618118	0.3291	-0.212529
0.008508	2.436985	9.807174	13.765832	58.759974	23.091518	0.395614	0.119872	-0.765308	2.816783	-1.771114	13.985003	-2.440824	-115.494106	-11.800771	0.060039	-0.10807	-0.258168	11.934259	2.061601	-0.602107	-10.71731	-0.810939	2.336609	-0.635959	0.307146	-0.155772
-1.94353	0.929487	9.64905	12.591177	45.725534	12.132104	0.470107	0.031547	-0.700315	2.8713	-1.828374	13.868191	3.240846	-128.263075	-17.122703	0.054035	-0.096063	-0.27618	10.958806	1.250882	-1.081671	-11.181474	0.335136	1.114731	-0.617264	0.301589	-0.169101
-0.216447	1.21873	9.973112	14.986342	43.707159	6.277486	0.457737	0.146096	-0.79874	3.043308	-2.287326	13.931263	10.030277	-142.42985	-23.934939	0.054035	-0.10807	-0.27618	9.59409	0.8486	-1.053449	-13.981913	2.434697	10.103931	-0.607047	0.299273	-0.110852
-1.080477	0.986975	9.781964	21.295753	51.451829	8.737604	0.442307	0.104549	-0.743049	3.439414	-1.715798	14.055855	6.750933	-155.4631	-28.268558	0.048031	-0.102066	-0.252164	10.440139	0.38162	-1.495395	-18.56563	4.49747	18.013679	-0.651955	0.326963	-0.193713
-8.248786	1.517013	9.929423	15.735105	35.674716	13.66159	0.439488	0.067778	-0.74084	3.12105	-2.11765	15.112049	8.204871	-171.89703	-33.239965	0.048031	-0.120078	-0.24616	9.701457	0.151776	-1.453996	-24.286604	5.600323	17.376275	-0.673776	0.332016	-0.150828
-7.323773	1.575004	10.294739	30.730936	6.981876	-7.614792	0.420977	0.02961	-0.739629	3.39506	-2.518635	14.587191	14.654676	-189.046413	-37.511713	0.03002	-0.132086	-0.252164	9.479532	0.616979	-1.113845	-31.084662	6.515103	9.917358	-0.655081	0.326459	-0.164157
-1.508287	1.971016	8.504414	46.888406	-5.960248	-9.141474	0.451979	0.012891	-0.718368	3.104373	-3.094902	17.118694	10.008013	-210.415334	-45.979303	0.018012	-0.114074	-0.24616	9.531481	2.58508	-1.160874	-28.377883	4.506728	-3.234037	-0.67155	0.327767	-0.163294
-1.410225	1.279339	10.527397	45.261074	-2.57555	-8.016484	0.436669	0.031006	-0.738631	2.668431	-4.526966	17.76154	19.947727	-235.459166	-52.523827	0.006004	-0.120078	-0.24616	9.134312	4.150131	-0.933291	-26.645	-0.472923	-4.852608	-0.652855	0.322209	-0.176623
-1.508732	2.435357	8.505531	43.848988	-0.715059	-6.164686	0.469845	0.071697	-0.757004	2.968117	-5.159456	18.594092	32.686483	-261.076514	-57.537573	0.006004	-0.114074	-0.222145	10.057782	4.730429	-0.227537	-28.996804	-6.784016	-2.76143	-0.657307	0.330708	-0.151691
-2.010311	2.379632	9.246697	25.464274	-0.654898	-4.014014	0.497383	0.038845	-0.770959	2.337837	-4.469463	18.22692	29.545887	-286.107716	-56.865268	-0.042027	-0.120078	-0.228148	10.300765	4.443909	0.517852	-28.987664	-10.594444	-2.03073	-0.642591	0.352158	-0.178891
-1.603687	2.031545	9.485118	20.255344	0.380865	-2.014139	0.454798	0.049662	-0.720577	1.538276	-1.316095	18.265124	23.135425	-310.313745	-59.731678	-0.036023	-0.132086	-0.210137	10.201189	4.042016	1.198865	-29.536426	-12.85629	-4.948012	-0.658633	0.33971	-0.156315
-1.605108	2.321619	9.428002	17.055383	0.771481	-1.830362	0.453771	0.050789	-0.738737	4.973425	-1.502259	20.690634	55.386637	-331.83494	-80.036878	-0.03002	-0.120078	-0.198129	9.636034	4.159998	1.416497	-28.951958	-13.325791	-7.931385	-0.655508	0.340214	-0.185871
-1.78664	2.552839	8.962614	8.590846	1.183006	-1.948419	0.480664	0.038575	-0.790117	8.359696	-0.595603	20.636208	83.510664	-329.850106	-86.499454	-0.060039	-0.132086	-0.180117	9.008771	3.465967	1.28677	-27.112426	-11.216379	-8.12334	-0.620771	0.347105	-0.221776
-1.679587	2.261536	8.559498	0.150936	1.674041	-1.147013	0.43526	0.012621	-0.737526	8.370903	-0.711203	21.226413	132.23571	-317.721291	-89.008017	-0.054035	-0.144094	-0.144094	8.881153	2.999606	0.540216	-18.293428	-8.910493	-3.327449	-0.656834	0.349217	-0.190494
-1.825294	2.090789	9.88539	-3.784899	1.628456	-1.422037	0.430124	0.018252	-0.828327	8.501022	-2.426325	18.813711	171.815432	-295.31033	-79.388983	-0.090059	-0.13809	-0.144094	8.465884	2.880667	-0.324576	-11.012235	-6.494014	-1.081033	-0.641265	0.343156	-0.174267
-1.54287	2.031909	9.659706	-4.059862	2.243485	-0.809617	0.44787	0.017396	-0.791008	4.146987	-4.641686	15.195075	210.15226	-280.781726	-73.169219	-0.072047	-0.13809	-0.114074	8.057941	2.473822	-0.848129	-5.786061	-6.763749	-5.389801	-0.656407	0.335461	-0.168781
-1.533781	2.091069	10.122364	-3.531289	2.464926	-2.310481	0.448897	0.01627	-0.772848	1.568076	-4.750359	16.266296	193.597695	-273.906848	-60.684571	-0.096063	-0.162106	-0.090059	9.305517	2.23842	-1.109864	-2.467301	-5.723713	-2.490461	-0.67155	0.327767	-0.163294
-1.766596	1.916745	9.943928	-4.218726	2.738539	-2.985758	0.467026	0.034926	-0.754795	-8.687302	-13.689116	0.985854	162.674406	-260.846117	-78.669289	-0.114074	-0.180117	-0.060039	9.543779	1.487415	-0.652039	-0.353229	-2.171143	1.475743	-0.641265	0.343156	-0.174267
-1.486625	2.031713	9.603034	-3.914007	3.405168	-2.782268	0.462535	0.019919	-0.80817	-14.929861	-9.461261	-15.1837	133.471913	-124.233621	-65.313967	-0.10807	-0.180117	-0.042027	9.889261	1.835162	-0.415335	0.592184	0.687844	-2.500357	-0.675956	0.368529	-0.198879
-1.824849	1.626447	9.884272	-2.139994	3.789822	-2.839199	0.4831	0.055834	-0.773061	-9.159413	-6.989647	4.032206	-88.507273	31.410886	-27.219995	-0.10807	-0.174113	-0.03002	9.727088	2.590522	0.098533	2.059074	4.50215	-2.275076	-0.672403	0.355278	-0.206721
-1.71813	1.6834	9.481994	-0.966063	4.632801	-1.426767	0.450952	0.014017	-0.736528	-11.577694	-10.305482	4.109368	-10.101826	49.712314	-40.18128	-0.102066	-0.162106	-0.048031	9.618162	2.360215	0.323597	6.355995	7.899925	-0.526253	-0.643964	0.328896	-0.122998
-1.83285	1.625469	9.479568	0.621713	4.928804	-1.391234	0.437052	0.050518	-0.757895	-9.257805	-0.237156	8.972982	-18.106599	86.050181	-5.597128	-0.10807	-0.174113	-0.036023	9.340192	2.941588	0.72024	9.918994	9.767256	2.569247	-0.639938	0.334153	-0.169644
-2.066166	1.973528	9.302391	0.877044	4.760498	-0.823592	0.449924	0.015143	-0.754688	-7.848824	-3.276698	8.297526	4.763701	75.831041	6.29742	-0.090059	-0.180117	-0.042027	9.283601	2.188786	0.658604	11.852757	11.304539	3.828542	-0.623942	0.314337	-0.131703
-1.77482	2.147937	9.539784	0.543717	4.702831	-0.451327	0.468053	0.033799	-0.736635	-7.288494	-4.189262	4.830093	19.507976	71.301571	24.072524	-0.102066	-0.186121	-0.054035	9.118619	2.653876	0.999881	13.512883	11.280912	2.675801	-0.656407	0.335461	-0.168781
-1.55076	1.914845	9.254723	-0.276306	4.514632	-0.867393	0.431796	-0.003513	-0.772742	-6.705089	-3.729346	2.835228	7.484299	71.772055	35.260157	-0.10807	-0.168109	-0.042027	9.331637	2.7079	0.262451	13.480582	12.167829	4.826558	-0.690672	0.347079	-0.171679
-1.718297	1.857528	9.482413	-1.990512	4.739053	-0.420159	0.482718	0.036322	-0.753797	-7.157586	-3.613397	2.826332	-14.785385	85.748886	50.897243	-0.090059	-0.192125	-0.060039	9.172638	2.421388	0.82868	13.729259	10.84723	3.176376	-0.694224	0.360331	-0.163836
-1.836447	1.799178	9.306543	-3.811113	5.005576	-0.610408	0.437696	0.02988	-0.720471	-7.304154	-3.67231	4.062177	-26.151248	108.376483	65.362347	-0.090059	-0.180117	-0.060039	9.507779	1.724108	0.432638	13.425875	8.910444	1.292827	-0.639938	0.334153	-0.169644
-1.712637	1.91627	9.771627	-5.050803	5.16613	-0.941055	0.454536	0.089813	-0.777267	-7.161371	-3.446324	5.715949	-26.134854	136.40473	80.313882	-0.090059	-0.162106	-0.066043	9.332433	2.302625	0.260611	12.443366	8.261936	0.813228	-0.64529	0.337898	-0.127622
-1.817238	2.033724	10.289953	-5.776375	5.740791	-1.022441	0.43244	-0.024151	-0.735317	-6.492128	-4.077571	5.140104	-25.446707	162.932333	93.135759	-0.102066	-0.162106	-0.066043	9.604647	2.357061	-0.361509	11.584803	7.00075	-1.639524	-0.627922	0.341344	-0.145574
-2.294131	1.509549	9.354515	-3.609607	5.681011	-0.862489	0.46908	0.032673	-0.718475	-5.35019	-4.311164	5.752245	-30.085758	186.979284	103.644267	-0.096063	-0.162106	-0.084055	9.595534	1.833628	-0.877704	9.279247	6.70918	-2.501542	-0.690672	0.347079	-0.171679
-1.989235	1.859763	10.286105	-0.394119	5.984424	-0.009686	0.482336	0.01681	-0.734532	-4.373293	-4.601945	6.597228	-40.516961	204.843219	112.237219	-0.078051	-0.150098	-0.096063	9.264113	2.358006	-0.311174	6.666468	6.134057	-5.163182	-0.658633	0.33971	-0.156315
-1.883659	1.916576	9.826013	4.200771	5.39717	0.223683	0.452361	0.032403	-0.737633	-3.337234	-4.320378	7.678283	-47.359654	217.213579	117.785166	-0.084055	-0.144094	-0.096063	9.148771	1.952433	-0.429451	5.224533	4.771282	-5.384014	-0.640411	0.315644	-0.13084
-1.543679	1.683513	9.601052	7.084752	4.938269	1.175301	0.47049	0.051059	-0.719579	-1.917151	-4.153472	8.118145	-50.77655	225.382136	120.685931	-0.078051	-0.144094	-0.114074	9.142138	1.313733	-0.831987	3.073799	4.051141	-6.143516	-0.640838	0.3294	-0.152554
-1.665759	2.147127	9.252996	6.470436	5.077921	1.16508	0.439106	0.048266	-0.721575	-0.942363	-4.100397	8.903519	-49.7197	231.314631	121.151074	-0.078051	-0.13809	-0.144094	8.91829	2.183948	-0.547089	1.844171	4.026474	-5.507256	-0.66086	0.343959	-0.143849
-1.599702	1.451537	9.657165	4.502444	4.828775	0.682116	0.47049	0.051059	-0.719579	-0.486542	-3.872997	9.147807	-47.610434	236.15382	119.131154	-0.072047	-0.132086	-0.150098	9.087322	1.951496	-0.658946	0.213268	4.591016	-5.682044	-0.639938	0.334153	-0.169644
-1.767795	1.974647	9.886253	2.964285	5.461655	0.164045	0.48451	0.07422	-0.774166	0.260612	-4.391859	9.752849	-48.57843	241.031761	114.755933	-0.060039	-0.120078	-0.150098	9.37767	1.952241	-0.367854	0.859142	4.398919	-6.65286	-0.676902	0.331512	-0.121272
-1.768827	1.858422	9.828159	2.709696	6.019473	0.406923	0.456207	0.068048	-0.721682	0.61735	-4.108145	10.761864	-49.972619	246.083032	108.060923	-0.054035	-0.114074	-0.180117	9.210663	2.301012	-0.141287	-1.264334	5.045885	-8.667363	-0.606101	0.336291	-0.188459
-1.941967	1.684322	9.766496	4.04607	6.105026	0.562026	0.465999	0.036052	-0.772955	1.080032	-3.995939	11.360356	-53.822258	250.944386	101.627739	-0.048031	-0.096063	-0.174113	8.468045	1.780635	-0.32957	1.075646	3.447657	-10.514057	-0.65688	0.316952	-0.129977
-1.947404	1.393409	9.476723	6.034889	6.202588	0.824353	0.435642	0.032133	-0.756791	1.569006	-4.68806	13.258272	-53.620703	254.129746	93.087051	-0.03002	-0.096063	-0.186121	8.65115	1.841082	0.302085	2.213838	3.348426	-9.068088	-0.658207	0.325955	-0.134601
-1.832041	1.973865	9.538222	9.615498	6.562432	1.334651	0.468053	0.033799	-0.736635	2.203143	-4.11833	14.036212	-54.885888	255.109301	82.759249	-0.024016	-0.078051	-0.216141	8.649239	1.666867	0.187112	2.580879	4.124211	-9.420553	-0.642591	0.352158	-0.178891
-1.998268	1.74256	9.823307	12.776404	6.536058	1.625149	0.453388	0.031277	-0.719473	2.900425	-3.950326	15.110951	-61.586271	256.197439	74.703931	-0.006004	-0.078051	-0.216141	8.882529	1.725623	0.477341	3.687742	4.082438	-9.811254	-0.626168	0.318586	-0.119237
-2.163241	1.395309	10.165929	15.919548	6.816289	2.050902	0.450569	-0.005495	-0.717264	3.098876	-3.438047	16.765302	-73.712967	255.145415	66.769778	0.018012	-0.078051	-0.216141	8.478295	1.725105	0.183996	3.685811	4.962682	-9.250542	-0.690245	0.333324	-0.149965
-2.169234	1.684824	9.877554	18.737016	7.849803	2.056943	0.490028	0.0881	-0.70263	3.914525	-2.869946	18.195504	-76.53549	255.866701	59.012054	0.012008	-0.066043	-0.234152	8.713952	1.72649	0.588147	3.685382	5.253777	-8.217371	-0.626595	0.332341	-0.140951
-1.830898	1.974004	9.596036	20.598624	8.611635	1.24944	0.469463	0.052185	-0.737739	9.6848	-1.742294	18.776313	-74.776679	257.792279	53.017711	0.048031	-0.054035	-0.240156	8.713053	1.610434	0.530529	4.42282	5.528296	-7.516297	-0.639512	0.320398	-0.14793
-1.825016	1.800575	9.884691	20.900006	10.189964	0.054169	0.499437	0.036592	-0.734639	3.994141	-0.409384	19.84423	-35.58294	262.285366	41.47143	0.048031	-0.042027	-0.24616	8.426198	1.552581	0.41045	3.193309	5.255418	-8.740016	-0.645717	0.351654	-0.149335
-1.77836	2.263603	9.366619	24.414947	11.93414	-1.516254	0.500464	0.035466	-0.716479	8.376371	-2.539452	18.162739	-66.359081	252.300569	35.647864	0.048031	-0.048031	-0.234152	8.54459	1.553405	0.641071	2.272155	4.858584	-7.542913	-0.655981	0.321705	-0.147067
-2.287662	1.916686	9.702382	24.388297	12.967525	-2.756656	0.48439	0.014558	-0.698212	12.32322	-3.013815	20.716537	-98.141526	243.034645	27.651501	0.090059	-0.048031	-0.24616	8.420339	1.667059	0.125515	2.060134	3.667667	-5.925973	-0.710266	0.347883	-0.14126
-1.87457	1.975737	10.288671	24.33298	14.672661	-3.5104	0.450952	0.014017	-0.736528	12.486345	-1.581813	20.599259	-97.91135	227.587111	18.001378	0.090059	-0.036023	-0.24616	8.14048	0.915763	0.287743	2.739829	2.535886	-3.418644	-0.688492	0.310566	-0.123628
-1.991966	2.323825	10.171593	26.30101	16.943022	-4.502927	0.44916	-0.023881	-0.716159	12.483042	-0.83691	20.538939	-101.451738	223.450773	12.086675	0.114074	-0.03002	-0.252164	8.140025	1.147349	0.288795	5.418655	1.017282	-2.084443	-0.691571	0.342326	-0.154589
-1.806419	2.673591	10.869638	26.7016	24.323152	-6.837385	0.500726	-0.004684	-0.659789	14.583413	-1.036339	33.319139	-133.619684	233.663661	-12.665627	0.120078	-0.018012	-0.264172	7.970993	1.379801	0.400652	7.052292	-0.682717	-1.791555	-0.65778	0.312199	-0.112887
-2.002754	2.844951	9.652518	28.519595	34.881351	-12.466926	0.515774	0.017351	-0.696216	11.249853	-3.505674	8.370116	45.20879	227.284064	1.03672	0.144094	-0.024016	-0.270176	7.631017	1.670492	0.509393	9.208314	-2.306381	-2.078749	-0.65778	0.312199	-0.112887
-1.696913	2.208439	10.581732	22.172603	41.290575	-16.269816	0.48298	-0.003828	-0.697107	20.648289	1.947736	19.511525	-74.799098	241.8797	9.240162	0.174113	-0.018012	-0.264172	8.077098	1.899064	0.062717	9.428068	-3.991987	0.194232	-0.647976	0.299955	-0.179841
-2.220487	2.440273	10.225116	18.459486	46.043906	-18.919854	0.464852	-0.022484	-0.715161	24.70358	-0.219285	6.204929	-53.767579	222.465013	-0.279129	0.180117	-0.012008	-0.264172	8.591829	2.477793	0.246758	7.987199	-5.653369	1.509577	-0.640884	0.297136	-0.092037
-2.287298	2.729424	9.762153	13.018677	50.447343	-19.587538	0.485799	0.032943	-0.699317	30.380035	-1.899637	7.378541	-41.616893	187.137529	-34.360135	0.192125	-0.012008	-0.270176	9.271667	1.954309	0.029539	11.068018	-7.284483	10.769808	-0.623469	0.332845	-0.170507
-2.389939	6.28618	16.356989	5.281544	53.636367	-12.336172	0.565286	0.0388	-0.676167	39.979894	-1.641438	7.149762	-85.915515	123.364543	-54.741911	0.216141	0.006004	-0.270176	9.718886	1.603918	-0.419765	8.026838	-8.322346	12.092619	-0.673776	0.332016	-0.150828
-2.14255	3.661768	11.327674	22.098638	60.881028	-18.76374	0.529674	-0.01915	-0.674849	37.286833	10.684445	7.076864	-133.215728	32.309622	-69.099549	0.228148	0	-0.264172	10.347287	1.718985	-0.292667	4.520032	-7.814534	10.043475	-0.643064	0.333649	-0.140088
-2.175601	3.316502	12.539803	18.212478	70.087482	-17.804415	0.545748	0.001758	-0.693115	34.114684	15.938539	22.813284	-95.554162	-66.97047	-78.389171	0.228148	0.012008	-0.258168	10.283131	1.949107	-0.635294	-2.891664	-7.014194	9.801571	-0.674249	0.313507	-0.112024
-2.899232	3.784362	13.682357	13.058561	82.367091	-18.430523	0.56144	0.003155	-0.692117	31.570518	19.497425	23.289093	113.823562	-159.989476	-81.337275	0.222145	0.006004	-0.270176	11.085638	1.543291	-0.392998	-7.567233	-5.600795	13.903019	-0.672023	0.309258	-0.12449
-3.356304	2.856264	13.728792	17.641738	96.045204	-18.619496	0.548447	-0.021133	-0.619371	17.311702	18.369711	3.553854	241.176756	-218.068277	-31.127179	0.234152	0.006004	-0.264172	10.351678	1.777933	-0.064035	-7.753613	-5.072763	11.198431	-0.642637	0.319894	-0.118374
-2.811345	2.975342	15.184728	21.641021	110.127431	-17.891857	0.583033	0.037944	-0.638848	-3.351574	-6.438269	6.561035	112.974701	-232.152561	-54.240402	0.228148	0.012008	-0.270176	10.461151	2.877211	-0.170973	-3.85102	-4.520924	8.239989	-0.695597	0.337069	-0.107943
-1.772724	4.252118	15.555264	22.768076	127.18537	-19.754479	0.596288	0.022081	-0.654906	-9.191023	-4.101359	24.25648	156.887607	-184.750091	40.572214	0.204133	-0.006004	-0.258168	10.568587	4.439397	-0.332899	-3.422641	-4.274004	2.272625	-0.661332	0.325451	-0.105045
-2.71211	3.444798	17.326135	25.194415	147.225749	-19.142109	0.566958	0.017035	-0.620582	3.132875	0.874953	7.027007	208.487777	-190.205336	47.678571	0.192125	-0.042027	-0.24616	10.962583	3.916219	-0.612842	-4.129533	-3.838215	7.427477	-0.706287	0.320876	-0.127388
-3.161768	1.937112	17.718062	33.966179	167.684608	-16.310485	0.646063	0.00338	-0.578167	7.94445	2.749898	7.824024	88.661568	-167.926703	-11.830196	0.186121	-0.036023	-0.240156	12.676444	1.65511	-0.532214	-6.595419	0.439496	22.728915	-0.65996	0.348713	-0.160938
-2.916379	2.112974	18.532459	39.067731	190.757211	-12.673175	0.661755	0.004776	-0.577169	2.308399	0.698392	11.316937	60.257661	-91.781748	-57.663088	0.180117	-0.03002	-0.234152	13.18163	0.783537	-0.982758	-9.496978	5.016112	19.548954	-0.676475	0.317756	-0.099558
-2.657553	2.580726	20.041333	47.140793	215.47543	-11.239085	0.664836	0.001397	-0.522689	2.590746	-5.436133	13.397152	58.961442	-62.499874	-42.9982	0.180117	-0.042027	-0.240156	12.479483	1.765198	-1.848187	-5.538696	7.671139	13.239158	-0.644391	0.342652	-0.144712
-2.068255	2.001559	20.802958	56.758233	243.929845	-11.124576	0.671764	0.033664	-0.452258	1.709965	0.187713	9.418979	60.389938	-18.309845	5.932726	0.156102	-0.048031	-0.24616	11.941801	2.23713	-0.201674	-8.279083	9.628568	15.319858	-0.692044	0.323817	-0.115785
-1.877999	1.016763	21.671233	67.423537	272.629066	-12.858436	0.700329	-0.000315	-0.448053	0.742656	-0.553379	8.929825	54.869334	-16.292727	5.150211	0.162106	-0.066043	-0.240156	11.829951	1.774449	-0.148937	0.148263	9.393958	25.799213	-0.691145	0.32857	-0.132875
-1.71381	-0.203419	21.209209	81.759159	304.036094	-12.276571	0.720511	0.016089	-0.393679	2.217809	-1.360209	9.136499	53.675714	-14.130867	5.795771	0.168109	-0.054035	-0.228148	11.219695	1.026465	0.577455	5.716707	7.530569	21.804944	-0.674203	0.345771	-0.172542
-0.788715	-1.422507	21.513636	98.22431	337.777691	-5.996261	0.768232	-0.00036	-0.35326	2.392098	-2.22031	9.259282	52.34562	-11.343951	0.676633	0.150098	-0.060039	-0.240156	10.817554	3.401276	0.637441	1.100134	8.019768	7.669949	-0.710739	0.329374	-0.102456
-0.171632	0.258582	20.894299	122.702111	368.935316	4.938416	0.815308	0.00383	-0.350266	1.553872	-1.416776	9.890563	57.411023	-9.32354	-4.4771	0.156102	-0.066043	-0.240156	10.304269	3.807575	0.629145	8.760868	5.563687	4.067396	-0.693371	0.33282	-0.120409
-0.300732	3.275516	20.321131	148.698048	386.01659	10.15613	0.82276	-0.044205	-0.166456	0.971014	-0.95521	8.993882	56.050535	-7.584524	-2.770864	0.156102	-0.060039	-0.234152	9.381117	4.212041	0.042043	15.898002	4.503603	9.207314	-0.691617	0.310062	-0.094072
-4.530473	7.505179	15.508227	174.497362	376.910482	6.052552	0.855171	-0.042538	-0.1463	0.96622	-0.439273	8.815968	44.941287	-6.219667	-0.888904	0.156102	-0.060039	-0.222145	9.139727	3.688011	-0.707026	21.46004	5.653683	6.549734	-0.709413	0.320372	-0.097833
-10.093659	6.517088	12.621016	167.701428	356.702241	2.93974	0.902127	-0.098011	-0.067352	0.904267	-0.438595	8.51988	31.387571	-5.879604	-3.495876	0.156102	-0.060039	-0.240156	9.352403	3.915724	-1.443667	21.301533	7.379208	3.695107	-0.660006	0.316448	-0.100421
-7.762369	3.790908	14.336796	178.044821	325.351684	4.096587	0.924364	-0.08386	0.023342	0.967711	-0.210306	8.933562	19.132197	-4.120427	-2.844889	0.186121	-0.072047	-0.228148	9.463935	3.393641	-1.615057	19.390789	9.413149	5.442146	-0.692517	0.305308	-0.076982
-6.045061	2.112345	16.967555	199.772078	289.096376	6.24862	0.927828	-0.067727	0.058557	0.908678	-0.095348	8.814272	11.535601	-4.621734	-3.157208	0.156102	-0.084055	-0.234152	9.68428	3.15976	-2.011249	12.010077	10.339232	9.142835	-0.693843	0.314311	-0.081606
2.521462	-4.235566	11.805954	234.93176	293.391492	-16.320296	0.915862	-0.09314	0.149464	1.19984	-0.784319	9.174925	2.624064	-4.143884	-2.70991	0.174113	-0.072047	-0.228148	9.291422	3.103974	-1.733934	-0.195008	9.898064	10.096721	-0.707187	0.316123	-0.110299
2.373241	-12.510857	-1.913703	164.832956	253.468526	28.383884	0.949945	-0.113238	0.225205	1.08303	-0.611796	8.995446	1.570982	-4.359007	-3.08719	0.180117	-0.078051	-0.228148	9.93212	2.121376	-1.098001	-8.395035	6.384714	12.886635	-0.705387	0.325629	-0.144478
1.035723	-24.207961	-15.029645	31.255986	99.541637	77.99308	0.9552	-0.059207	0.240051	1.148648	-0.38371	9.527128	-1.435082	-4.694625	-3.153967	0.162106	-0.078051	-0.216141	9.601951	2.008894	-0.534362	-14.226573	2.149309	12.617086	-0.70984	0.334128	-0.119546
5.947323	-13.956515	1.794855	-17.388571	11.329383	148.503315	0.985557	-0.055288	0.223887	1.262368	-0.613221	9.529708	-2.888015	-5.434003	-2.715906	0.150098	-0.054035	-0.240156	9.837494	2.068176	-0.129949	-16.460631	-2.307324	11.668583	-0.660433	0.330204	-0.122135
9.519766	-5.584938	8.821329	-95.539234	-92.588671	168.413908	0.951616	-0.135003	0.28079	1.316374	-0.498603	9.412591	-6.198177	-5.89946	-2.440001	0.156102	-0.072047	-0.216141	9.03386	2.473729	-0.429337	-19.255224	-4.298482	5.154772	-0.643964	0.328896	-0.122998
9.645069	-4.880097	12.293035	-57.241183	-119.225583	173.318572	0.979919	-0.128831	0.228305	1.263519	-0.269669	9.647099	-6.989929	-6.759488	-3.177192	0.156102	-0.072047	-0.234152	8.80586	2.589976	-0.433317	-16.391319	-5.591278	12.081525	-0.711166	0.34313	-0.12417
9.430072	-3.368808	13.101503	-26.314021	-116.60513	162.07934	0.945333	-0.187907	0.247783	1.201097	-0.841713	9.234026	-5.997666	-7.673237	-4.322647	0.150098	-0.084055	-0.228148	9.148532	2.647453	-0.369204	-16.87869	-7.580212	11.482771	-0.694316	0.295802	-0.042802
8.240474	-3.612079	8.049342	1.278265	-97.186754	142.162232	0.987154	-0.237749	0.235931	1.605257	-0.786425	9.713533	-6.772556	-9.1288	-6.149458	0.156102	-0.066043	-0.240156	9.316893	2.183152	-0.539205	-15.27802	-8.607519	9.77193	-0.675575	0.322509	-0.116648
9.536105	-4.261945	3.912573	-18.911855	-91.496746	113.493938	0.985099	-0.235496	0.199611	1.496159	-1.015559	9.888766	-5.145678	-10.302572	-8.169167	0.156102	-0.066043	-0.204133	8.811616	1.954167	-0.20784	-12.631187	-9.883035	9.142892	-0.728535	0.339685	-0.106217
10.453704	-3.624366	3.932398	-50.910301	-105.394967	78.955258	0.874228	-0.244146	0.174465	1.611308	-1.359756	9.950548	-1.870756	-11.305242	-8.877952	0.13809	-0.072047	-0.234152	9.146177	2.125597	-0.542847	-14.356684	-8.330997	8.424782	-0.693371	0.33282	-0.120409
10.983413	-3.100805	4.63772	-80.6421	-132.663356	40.639454	0.947815	-0.271682	0.145344	1.670405	-1.131061	10.128229	5.046466	-12.12218	-8.965471	0.156102	-0.084055	-0.222145	9.079439	1.949656	-1.058591	-13.005415	-7.728762	8.203994	-0.716045	0.365384	-0.120952
10.268592	-2.283572	6.243631	-99.135908	-171.222665	2.637363	0.897275	-0.292004	0.107134	1.316651	-0.956841	9.354403	7.756188	-12.934244	-9.301507	0.162106	-0.078051	-0.234152	8.3421	2.183509	-0.900904	-9.50511	-5.974331	6.469421	-0.679082	0.368025	-0.169323
8.289891	-2.452119	7.706391	-102.959549	-214.71526	-29.127362	0.898423	-0.233468	0.04934	1.259108	-0.612916	9.352707	7.905508	-12.954031	-7.886502	0.156102	-0.090059	-0.240156	8.514511	1.951845	-0.841485	-6.861722	-5.749685	5.927907	-0.678655	0.35427	-0.14761
6.517771	-2.507598	8.017708	-106.632089	-251.338729	-52.085494	0.909241	-0.266591	0.016227	1.604341	-0.843616	9.654634	5.963254	-12.844086	-6.078105	0.150098	-0.078051	-0.216141	8.462175	2.47434	-0.554784	-3.204601	-5.118142	5.657664	-0.663086	0.348209	-0.131383
5.277338	-2.910018	9.090065	-118.508491	-273.857121	-66.110024	0.896368	-0.231216	0.01302	1.264712	-0.670716	9.647809	4.761553	-13.251611	-4.484377	0.144094	-0.078051	-0.24616	8.921214	2.416323	-0.374761	-0.622487	-4.928984	5.3919	-0.731187	0.357689	-0.115465
3.278118	-3.139123	9.51202	-131.522068	-284.34719	-72.799938	0.874896	-0.206343	-0.116203	1.424725	-0.383953	9.17856	3.700565	-13.823809	-4.575227	0.156102	-0.078051	-0.228148	8.64462	1.723712	-0.040993	0.634734	-3.530501	5.121555	-0.699149	0.35032	-0.100101
2.042621	-2.728247	10.875407	-137.936465	-288.575008	-72.973832	0.892763	-0.147536	-0.154839	1.494561	-0.84358	9.829461	5.630071	-14.987604	-5.276315	0.150098	-0.072047	-0.228148	8.353817	1.954552	-0.331034	1.770442	-2.881706	3.644562	-0.694697	0.341822	-0.125033
0.455937	-2.317875	11.885048	-138.584042	-286.860374	-68.702546	0.795147	-0.172049	-0.196042	1.725157	-0.90196	10.06991	8.494405	-16.309117	-7.257743	0.150098	-0.078051	-0.228148	8.520153	1.373932	-0.615745	3.215517	-2.705367	5.360968	-0.716045	0.365384	-0.120952
0.227249	-2.027299	11.938989	-140.007638	-281.077886	-60.976575	0.773675	-0.147176	-0.325265	1.716527	-0.557495	9.6563	14.262209	-17.25314	-6.384436	0.150098	-0.066043	-0.222145	8.681063	1.834659	-1.067	0.723902	-2.616296	1.400102	-0.712919	0.365888	-0.150507
-0.797681	-2.083362	12.322979	-144.814526	-273.730059	-50.783556	0.763238	-0.094541	-0.311417	1.082689	-0.497211	8.995243	13.68279	-16.896075	-5.042431	0.150098	-0.090059	-0.228148	8.344022	1.778497	-0.845652	2.230214	-2.66794	-0.058676	-0.712919	0.365888	-0.150507
-1.41699	-1.442743	12.947906	-153.916347	-266.471637	-39.147234	0.699181	-0.058851	-0.390259	1.365351	-0.15441	9.059067	10.137297	-16.039734	-3.127936	0.150098	-0.084055	-0.240156	8.512156	1.429989	-1.015127	2.570044	-3.340371	0.111669	-0.751636	0.386005	-0.128473
-1.225253	-0.395626	13.994516	-162.029649	-262.258421	-27.292339	0.687456	0.03506	-0.45126	1.431757	-0.55644	9.532866	9.650169	-16.177331	-1.91377	0.156102	-0.084055	-0.240156	8.9695	1.66119	-0.890881	-0.351113	-3.30282	-0.7307	-0.713865	0.32887	-0.0729
-1.536879	0.073102	15.665405	-164.363448	-258.731296	-17.069331	0.641145	0.069894	-0.492783	1.09852	-1.071455	9.76326	11.735197	-17.03476	-1.488274	0.144094	-0.084055	-0.222145	8.78966	1.659428	-1.350997	-0.627501	-3.725676	-3.444464	-0.695597	0.337069	-0.107943
-1.673134	0.774252	17.513725	-161.281871	-251.485959	-10.305605	0.610405	0.046463	-0.457354	1.375812	-0.384493	9.590475	15.835012	-17.259122	-0.53913	0.144094	-0.090059	-0.216141	9.017547	1.601077	-1.346755	-3.149652	-3.484792	-5.268153	-0.726308	0.335435	-0.118683
-2.004303	1.35669	18.202042	-161.285208	-237.441148	-8.750553	0.56204	0.08355	-0.535198	1.722983	-0.901757	9.95191	13.626265	-17.592864	-0.109405	0.150098	-0.096063	-0.216141	9.311159	1.660507	-0.884124	-4.257247	-3.241889	-6.044382	-0.729388	0.367196	-0.149645
-2.832479	1.883961	19.862783	-164.419726	-218.825806	-11.303024	0.482935	0.097206	-0.577613	1.55074	-0.729165	9.830345	12.752026	-20.118855	0.131203	0.150098	-0.096063	-0.222145	9.762439	0.963526	-1.163729	-6.072938	-2.445712	-5.460894	-0.73166	0.339181	-0.076661
-4.396247	2.239085	22.028579	-166.057954	-197.785181	-14.005354	0.526503	0.186296	-0.490339	1.784254	-0.673265	10.247591	17.584539	-22.06745	0.757689	0.150098	-0.084055	-0.222145	9.190982	0.848345	-1.289701	-8.042244	-1.629391	-4.297576	-0.731187	0.357689	-0.115465
-7.887671	2.127512	22.421097	-170.392446	-175.008216	-16.81666	0.445224	0.142542	-0.49312	2.06845	-0.846096	10.312329	13.920707	-26.939604	-1.770353	0.132086	-0.090059	-0.228148	9.47514	0.558032	-1.342477	-10.228587	-0.208435	-4.831651	-0.712492	0.352132	-0.128794
-11.06797	2.069595	21.143983	-188.205262	-157.899075	-20.059576	0.449835	0.217211	-0.515698	2.527019	-0.447123	10.733313	14.690511	-33.22355	-1.181543	0.156102	-0.084055	-0.210137	9.473229	0.383817	-1.45745	-10.814687	0.854723	-2.626722	-0.728108	0.325929	-0.084504
-12.908069	3.522164	20.995271	-208.147037	-167.527589	-24.594626	0.434525	0.235326	-0.535961	2.080744	-0.961798	10.961534	7.593509	-51.067211	-5.004058	0.156102	-0.096063	-0.222145	9.074285	0.558302	-1.464545	-12.046512	1.781586	-2.104305	-0.699622	0.331812	-0.061297
-15.169707	5.379045	19.856686	-203.264347	-201.739759	-28.68307	0.402759	0.213021	-0.518693	2.473121	-0.962686	10.79214	17.396008	-56.564959	-1.262694	0.126082	-0.096063	-0.222145	9.022643	0.154193	-1.239142	-11.032856	2.404218	0.150001	-0.745903	0.336239	-0.088264
-18.920873	6.947438	18.803315	-199.032608	-213.327135	-33.782037	0.377275	0.243621	-0.468418	2.007094	0.414609	10.250009	7.811422	-63.80977	-4.74763	0.13809	-0.090059	-0.228148	9.306893	0.964436	-1.172739	-7.806872	3.387358	0.603318	-0.728108	0.325929	-0.084504
-25.703649	7.424131	21.038824	-188.697022	-200.876956	-27.833142	0.361321	0.282374	-0.526105	2.019452	0.642561	10.957605	2.746832	-69.732578	-5.128863	0.132086	-0.072047	-0.216141	9.309157	0.385735	-1.118275	-5.16596	4.817155	1.440733	-0.778368	0.357364	-0.125342
-26.322176	8.921444	15.944471	-151.658837	-176.735753	-19.319549	0.400015	0.336946	-0.472942	2.029807	0.813423	11.547302	6.636483	-72.520157	-9.003269	0.13809	-0.090059	-0.228148	9.385474	0.274297	-0.147108	-4.462579	6.767815	4.794164	-0.731614	0.371445	-0.137179
-26.596127	8.967217	10.795667	-134.481679	-151.648769	-11.97491	0.302782	0.331945	-0.533411	2.085858	0.240531	11.431403	6.287405	-75.635796	-10.364896	0.114074	-0.084055	-0.222145	10.126408	0.504667	-0.074323	-3.574705	8.585148	6.958857	-0.728062	0.358193	-0.145021
-27.8671	9.656933	7.477899	-126.483483	-125.275815	-6.467436	0.335575	0.353124	-0.532519	1.861378	0.069234	11.486361	-2.698132	-83.35283	-8.400684	0.114074	-0.084055	-0.222145	9.558773	0.737916	0.02965	-2.010006	9.958016	6.599005	-0.780121	0.380122	-0.15168
-30.372735	9.886885	5.521423	-115.476708	-98.132899	2.361704	0.339804	0.408281	-0.535833	2.039353	0.526149	12.019811	-7.894063	-91.504978	-5.953149	0.114074	-0.084055	-0.222145	10.17805	0.908776	-0.299726	3.798642	11.62015	13.014273	-0.731614	0.371445	-0.137179
-32.301782	10.871254	3.751637	-103.039908	-65.842419	14.944177	0.337629	0.350872	-0.496199	1.928018	-0.046435	12.018653	-5.040145	-100.422812	-4.867296	0.120078	-0.096063	-0.216141	10.46908	0.562144	-0.010211	7.17766	13.135056	14.92405	-0.699149	0.35032	-0.100101
-33.088906	11.74477	4.604953	-90.443033	-19.646945	28.30855	0.310092	0.383724	-0.482244	2.42538	0.468577	11.496517	-18.12558	-107.643528	0.368151	0.102066	-0.078051	-0.204133	10.46569	1.140582	-0.121766	9.420685	13.9896	17.026517	-0.748556	0.354244	-0.097512
-32.916266	12.441255	4.667874	-68.041971	38.07208	40.415989	0.29158	0.345556	-0.481033	2.435096	0.12401	11.969128	-23.086877	-120.144726	3.702339	0.102066	-0.090059	-0.216141	10.343931	0.559743	-0.583385	8.497226	14.249702	15.241708	-0.732514	0.366692	-0.120089
-33.131689	-24.262648	67.336261	-50.238069	86.971514	49.183781	0.309447	0.404362	-0.519669	2.679007	-0.393826	12.859391	-33.923063	-130.557071	5.777068	0.084055	-0.084055	-0.228148	9.816811	-0.021878	-1.39544	3.482187	15.472628	13.290229	-0.730288	0.362443	-0.132555
-10.224501	25.185956	4.052755	431.439739	80.782686	7.998468	0.325401	0.365608	-0.461982	3.313186	-0.568695	13.52065	-30.506105	-146.70699	2.083005	0.078051	-0.090059	-0.204133	9.817141	0.38366	-1.336508	-1.835004	14.619764	12.639174	-0.736066	0.379943	-0.112246
-4.705766	-0.671465	-5.377896	296.769222	30.577298	27.376157	0.335837	0.312974	-0.47583	2.692047	-0.395044	13.567393	-35.123952	-160.052529	5.814045	0.072047	-0.084055	-0.204133	9.744442	-0.199133	-2.196645	-8.601774	15.420568	8.76127	-0.733414	0.361939	-0.102999
14.125688	4.418155	18.877513	100.911851	118.128722	-87.946056	0.332374	0.296841	-0.511045	2.83108	-1.829726	14.752107	-30.895955	-182.025564	-5.360125	0.060039	-0.066043	-0.210137	9.806539	1.192106	-1.789565	-13.80002	15.707305	1.600526	-0.735594	0.398452	-0.15105
5.996657	7.556114	16.989456	257.059589	158.303478	-53.465027	0.333138	0.335865	-0.549575	3.487354	-1.032959	16.768645	-40.359737	-202.813536	-4.587807	0.060039	-0.084055	-0.210137	10.49161	3.73976	-1.421931	-14.623133	11.330717	-11.821221	-0.716945	0.360631	-0.103862
-4.582255	10.249867	-1.476893	245.344671	187.119868	-38.163263	0.392322	0.265656	-0.504844	2.908615	-2.696117	18.824641	-39.1992	-234.185823	-16.687257	0.042027	-0.072047	-0.204133	12.229169	4.901635	0.215695	-23.487505	3.847796	-0.164532	-0.73384	0.375694	-0.124712
-6.71624	9.640369	9.517329	125.826579	139.181787	27.735067	0.36932	0.212481	-0.557009	2.18646	-4.017548	22.351773	-47.265926	-268.999357	-24.005626	0.036023	-0.066043	-0.204133	13.604613	3.858347	0.580546	-22.28988	-6.545857	19.870615	-0.695551	0.369333	-0.16846
-5.700887	1.80053	8.247113	109.002389	116.856415	56.376305	0.387449	0.231137	-0.538955	1.467452	-6.021481	22.872201	-23.75862	-312.438418	-32.284346	0.03002	-0.078051	-0.192125	12.922203	3.396541	0.564928	-26.606568	-15.302544	9.56043	-0.715999	0.397648	-0.181469
0.096227	1.802093	11.309964	92.74486	86.545743	17.435299	0.39994	0.17625	-0.516483	1.544469	-4.878036	24.169262	-38.950256	-357.909753	-44.604246	-0.012008	-0.084055	-0.192125	10.60746	3.579626	1.547199	-20.082094	-19.251163	0.2365	-0.735594	0.398452	-0.15105
-7.22607	-4.464342	9.126197	87.797275	5.781608	-59.283228	0.399557	0.156738	-0.497219	1.90647	-1.616435	25.94	-20.199084	-406.165076	-62.575402	-0.012008	-0.060039	-0.168109	8.9032	4.394903	1.802553	-26.593317	-22.87456	-8.859548	-0.703129	0.377328	-0.113972
-4.159514	4.294165	7.994908	152.099437	-4.322896	-48.576414	0.416014	0.197158	-0.53475	3.217159	0.612425	26.905037	-0.621133	-442.710999	-82.085873	-0.012008	-0.078051	-0.168109	7.924141	3.699188	1.152238	-32.519829	-24.930493	-1.227934	-0.783201	0.411882	-0.182641
-1.584951	3.238732	4.691713	65.949258	12.792916	-3.293096	0.413195	0.160387	-0.532541	11.593809	-0.444875	27.539689	50.493393	-453.045366	-91.567926	-0.048031	-0.072047	-0.150098	9.691294	3.869877	1.302125	-25.445944	-25.316065	7.963818	-0.730715	0.376198	-0.154268
-1.644041	2.149782	10.351476	33.230628	6.43353	-8.430118	0.445988	0.181566	-0.531649	12.698672	-4.283425	25.562217	81.818585	-438.679608	-87.825763	-0.072047	-0.072047	-0.132086	11.370765	3.628044	-0.149535	-12.903346	-24.390146	13.881835	-0.73474	0.370941	-0.107623
-2.035123	2.028301	7.973934	33.192273	2.607016	-10.053153	0.413195	0.160387	-0.532541	8.092303	-5.36034	26.832045	125.749151	-416.643169	-75.234892	-0.084055	-0.090059	-0.120078	11.590438	3.162315	-0.60387	-10.381014	-26.821417	-4.001247	-0.772984	0.409566	-0.124392
-1.604441	1.625107	9.426325	21.348302	4.181366	-2.861909	0.440733	0.127535	-0.546496	2.658929	-5.744214	26.256436	183.741752	-425.103069	-68.174842	-0.102066	-0.072047	-0.084055	12.150974	3.101178	-1.049608	-1.396265	-29.814762	-3.363586	-0.736493	0.393699	-0.13396
-2.419695	2.030787	8.833154	19.781719	4.311605	-2.574855	0.411785	0.142001	-0.531436	1.341492	-9.336861	18.56999	135.003149	-424.689048	-59.450342	-0.102066	-0.078051	-0.048031	11.973159	3.215735	-1.395014	4.496566	-25.793415	-7.156592	-0.718271	0.369633	-0.108486
-1.544681	2.728281	9.603568	10.884781	3.273714	0.649897	0.379636	0.100184	-0.494903	-12.106515	-20.320345	-1.663577	113.79849	-361.770917	-84.639176	-0.102066	-0.096063	-0.03002	11.534507	3.220588	-0.547642	6.135058	-17.323802	-14.837824	-0.752535	0.381251	-0.111383
-2.072605	2.727385	9.015133	7.145118	3.642144	-1.049076	0.375528	0.104689	-0.567543	-32.393164	-8.716284	-18.410613	138.826028	-159.125571	-73.654718	-0.102066	-0.120078	0	11.485789	3.048852	-0.149911	12.605074	-8.514078	-2.161215	-0.766351	0.364554	-0.101273
-1.727942	2.378795	9.021153	-0.927136	3.470815	-2.117157	0.359836	0.103293	-0.568541	-12.500447	-0.126253	16.990603	-262.763023	81.015896	-43.229699	-0.10807	-0.114074	0.006004	10.812844	2.357564	0.290156	16.123213	-0.100065	5.767535	-0.738292	0.384193	-0.09978
-1.432833	2.205366	9.431152	-4.095716	4.03521	-3.485485	0.394684	0.122219	-0.53133	-14.020234	-8.427327	15.97298	87.491831	130.321929	-62.797893	-0.10807	-0.114074	0.006004	11.150898	2.471885	0.126163	22.167701	4.912778	1.31019	-0.821537	0.385979	-0.078376
-1.660656	2.786295	9.543607	-7.932902	4.76781	-4.586533	0.41102	0.102977	-0.492907	-12.806788	-1.263603	12.445274	59.592804	158.790395	-50.247446	-0.102066	-0.120078	0	10.587324	2.358544	0.399836	26.801204	8.285155	-5.288346	-0.769904	0.377806	-0.093431
-1.433864	2.089141	9.373058	-11.398088	6.35034	-5.508717	0.381428	0.138082	-0.515272	-8.503117	-5.104628	6.223815	96.311122	137.41715	-44.265648	-0.090059	-0.120078	-0.006004	9.726645	2.242881	0.039863	27.435026	13.079944	-7.843002	-0.754289	0.404009	-0.137721
-2.063602	1.683594	9.417321	-11.944379	7.40784	-5.207829	0.381046	0.11857	-0.496008	-8.847994	-4.983404	2.855169	54.45975	128.335644	-33.80507	-0.078051	-0.126082	-0.012008	9.275376	2.360635	0.259748	25.676789	15.419633	-7.998476	-0.788599	0.383363	-0.080102
-2.114132	1.684488	9.763067	-10.562032	7.496967	-3.097917	0.42645	0.144524	-0.548598	-10.57098	-5.262114	1.289073	20.951698	133.450462	-27.900002	-0.078051	-0.144094	0	8.239589	2.128469	-0.332498	26.049331	14.297123	-4.300154	-0.753862	0.390254	-0.116007
-1.940713	1.568376	9.824031	-6.066731	8.180153	-0.94591	0.394684	0.122219	-0.53133	-11.449064	-3.486266	2.979545	-11.37113	156.719247	-8.819198	-0.078051	-0.120078	-0.012008	8.186605	1.260662	-0.223383	21.561829	13.428362	-5.252279	-0.751209	0.372249	-0.10676
-1.986615	1.511786	10.400896	0.483435	8.95673	1.650059	0.399175	0.137226	-0.477954	-10.667797	-2.690955	5.647258	-17.68544	191.529675	18.086894	-0.072047	-0.132086	-0.03002	7.959947	1.840607	-0.111075	21.752644	11.057387	-2.22948	-0.77123	0.386808	-0.098055
-2.327571	1.570582	10.567622	11.499577	8.995974	4.44578	0.410758	0.143127	-0.549596	-10.43978	-2.978201	5.711112	1.712533	216.07553	33.384391	-0.054035	-0.126082	-0.024016	8.475701	1.898268	0.070601	17.76427	7.485591	-0.241222	-0.774356	0.386304	-0.068499
-2.107441	1.859455	10.110375	25.54856	9.127305	5.828604	0.380401	0.139208	-0.533432	-8.691297	-3.956846	5.392523	10.697118	242.213386	52.743122	-0.054035	-0.132086	-0.03002	8.01441	1.95576	-0.223607	14.51062	5.087673	-0.356026	-0.753862	0.390254	-0.116007
-2.272413	1.512204	10.452996	30.491178	9.633919	8.787954	0.425041	0.126138	-0.547494	-7.229631	-4.246928	4.949282	2.705188	265.187472	67.941403	-0.066043	-0.126082	-0.048031	8.425527	1.320732	0.352307	9.216765	7.163183	-2.17597	-0.752535	0.381251	-0.111383
-1.551149	2.321144	9.255701	32.879805	8.664205	5.146383	0.423249	0.088241	-0.527124	-5.702176	-4.366216	5.037824	-14.139865	285.645608	76.72038	-0.054035	-0.114074	-0.054035	8.190769	1.435403	0.005774	6.788077	6.798539	-4.4133	-0.799716	0.380926	-0.121261
-1.607116	2.031126	9.311674	25.811987	8.832925	4.282259	0.426712	0.104374	-0.491909	-4.368605	-4.716936	6.833431	-35.752898	304.236826	79.994023	-0.036023	-0.120078	-0.078051	8.125259	1.781055	-0.39342	2.204064	7.648315	-7.699736	-0.72405	0.387134	-0.088177
-1.835804	2.321702	9.365616	24.505338	9.298212	2.009892	0.453606	0.09216	-0.543288	-2.880326	-4.093079	7.981571	-48.289417	321.253238	77.618301	-0.024016	-0.126082	-0.066043	8.123462	1.548943	-0.508656	1.190758	7.514709	-3.664779	-0.689312	0.394025	-0.124083
-2.063936	2.03185	9.41816	21.96134	11.231452	2.974866	0.427095	0.123886	-0.511174	-1.725348	-4.327891	9.301713	-51.948029	333.913541	72.324648	-0.018012	-0.114074	-0.078051	8.629421	1.43055	-0.841598	-0.837569	7.069677	-4.277071	-0.720924	0.387638	-0.117733
-1.876578	1.685244	10.172342	28.515497	10.042905	0.508876	0.411785	0.142001	-0.531436	-0.396571	-4.162675	10.919406	-49.320124	342.619441	63.305965	-0.006004	-0.096063	-0.096063	7.950493	1.490863	-0.626481	0.576184	7.140858	-5.830985	-0.751163	0.404513	-0.167277
-1.937142	2.613703	10.057806	31.483399	12.370285	2.489733	0.422222	0.089367	-0.545284	0.628089	-4.796467	11.235083	-50.974154	348.08813	51.917983	0	-0.132086	-0.096063	8.459956	0.736134	-0.848131	-0.472515	8.432928	-7.059433	-0.767205	0.392066	-0.1447
-1.829811	2.032187	9.653991	33.967292	13.785555	2.244351	0.426712	0.104374	-0.491909	1.376458	-4.628125	12.015907	-65.077192	351.642611	37.336803	0	-0.096063	-0.10807	8.58589	0.912487	-0.217076	-0.045018	9.505226	-8.76423	-0.787699	0.388116	-0.097192
-2.235989	1.915932	9.414451	33.740855	14.218723	2.54256	0.425685	0.1055	-0.510069	2.131964	-5.033215	13.092747	-82.676982	354.632805	23.864134	0.024016	-0.102066	-0.126082	8.706068	1.724649	0.188501	-0.786832	11.01878	-10.210282	-0.801042	0.389928	-0.125885
-2.408988	2.786739	9.413119	33.05229	15.54162	1.696472	0.393274	0.103833	-0.530225	2.459136	-3.949977	15.692259	-105.176036	357.690056	13.600465	0.048031	-0.10807	-0.126082	8.475599	1.376938	0.011143	1.398854	9.905317	-9.744501	-0.782347	0.384371	-0.139214
-2.351155	2.322342	9.413144	29.402192	16.563665	1.611282	0.463397	0.060164	-0.594561	1.984679	-3.035216	17.686861	-114.626919	358.405939	9.447733	0.048031	-0.084055	-0.132086	8.479319	1.204037	0.181631	2.509418	8.487341	-8.237514	-0.765025	0.355552	-0.096649
-2.11965	2.670655	9.534183	26.854787	16.670305	1.003898	0.38981	0.0877	-0.565441	2.432709	-2.754921	20.584968	-119.385836	357.145216	14.113229	0.054035	-0.072047	-0.132086	7.970208	1.205849	0.342771	4.144119	6.408295	-7.171173	-0.785473	0.383867	-0.109658
-1.828081	2.612893	9.771018	25.629647	17.964752	1.055621	0.425041	0.126138	-0.547494	2.994354	-2.303191	23.543944	-118.327591	352.572802	29.570082	0.066043	-0.072047	-0.144094	8.479546	1.088244	0.181105	6.240401	4.260918	-5.244374	-0.750309	0.377002	-0.12385
-2.460439	2.555323	9.70049	27.681044	23.599747	1.605013	0.44176	0.126409	-0.528336	4.621324	-2.999432	25.876595	-115.915145	347.480477	55.413319	0.090059	-0.072047	-0.168109	7.735006	0.972879	-0.062431	7.660327	2.022743	-3.961414	-0.735167	0.384697	-0.129336
-2.75396	2.264549	9.347188	24.173454	29.303963	1.128108	0.44035	0.108023	-0.527231	5.586496	-1.164777	23.355899	-110.20736	346.496774	87.291333	0.096063	-0.090059	-0.186121	8.024114	1.031258	0.171832	9.909086	0.428014	-1.985467	-0.785	0.402376	-0.148461
-2.465345	2.90302	9.47007	19.159247	27.895293	-1.010838	0.420429	0.051469	-0.524915	11.286267	-2.264322	19.751655	-181.604426	326.231048	109.921805	0.10807	-0.066043	-0.168109	8.207788	0.802223	0.802173	3.547021	-0.496551	-0.744237	-0.751209	0.372249	-0.10676
-2.341368	2.845984	9.934734	21.193688	27.436451	-0.680768	0.420812	0.070981	-0.54418	19.334298	-0.296145	27.570254	-268.921632	329.749421	114.525906	0.10807	-0.042027	-0.210137	7.996908	0.806621	1.654051	7.551761	-3.247766	4.234651	-0.754761	0.385501	-0.098917
-1.886582	3.773803	9.77267	23.214551	26.93663	0.442484	0.453868	0.05201	-0.486599	18.229733	4.172419	29.664609	-249.665887	314.650063	111.191289	0.114074	-0.036023	-0.210137	8.053726	1.44363	1.71516	0.696525	-4.109538	0.822887	-0.74941	0.381755	-0.140939
-2.093886	4.41529	10.92593	30.728486	32.713325	0.256676	0.404355	0.030561	-0.506649	20.690103	7.937425	35.013564	-193.533632	300.412185	117.746032	0.120078	-0.03002	-0.240156	7.934994	1.616495	1.485328	1.00563	-4.971542	-0.715294	-0.765879	0.383063	-0.140076
-2.216108	3.833996	10.517543	22.973295	39.174229	-6.933382	0.438941	0.089637	-0.526126	24.572336	9.483995	28.243955	-88.987987	257.91531	109.618906	0.144094	0	-0.24616	7.468185	1.614777	0.905396	9.283041	-7.512676	1.926676	-0.781494	0.35686	-0.095786
-2.074708	3.488842	11.848731	25.641344	47.195795	-11.067743	0.435094	0.053992	-0.542077	33.362454	2.826067	19.754396	18.926248	218.776694	68.670195	0.162106	-0.006004	-0.252164	8.476816	2.477758	0.187414	17.466623	-9.608014	1.285222	-0.7859	0.397623	-0.131371
-2.695635	3.432669	12.356351	23.576153	57.282489	-12.804602	0.469942	0.072918	-0.504866	49.109479	-8.091753	10.993005	121.695918	191.667419	-41.336142	0.168109	-0.006004	-0.258168	9.132104	1.832698	-1.286359	22.66575	-10.390356	4.665032	-0.797917	0.390432	-0.155441
-2.140987	4.416603	11.44512	25.851657	65.54262	-15.544675	0.424276	0.087114	-0.508964	61.304774	-9.924441	-11.240489	80.860816	127.331397	-98.192609	0.186121	0	-0.258168	10.036212	1.945093	-1.610366	15.537152	-12.125217	8.245289	-0.768105	0.387312	-0.12761
-1.457569	5.111888	11.229254	16.551087	74.640581	-21.061451	0.501326	0.075711	-0.50287	49.941826	1.903903	-6.64289	-232.123423	47.001284	-110.765196	0.204133	0.024016	-0.270176	10.735765	1.136596	-0.858333	1.148859	-12.398707	10.529239	-0.772557	0.395811	-0.102678
-2.420595	5.114371	11.845785	3.468347	86.352097	-27.939247	0.454633	0.091034	-0.525128	39.695689	10.210692	12.019242	-235.79045	-30.579969	-127.865664	0.210137	0.03002	-0.270176	12.034426	1.015558	-1.403877	-18.65618	-10.098021	10.338837	-0.753435	0.376498	-0.094294
-2.723552	4.887565	13.9197	-2.677848	101.327466	-32.403288	0.535912	0.134788	-0.522348	25.875341	17.966932	23.654084	-136.604627	-72.572041	-115.611466	0.210137	0.036023	-0.282184	12.19794	0.723895	-1.801457	-22.170287	-6.420772	7.390375	-0.722723	0.378132	-0.083553
-3.295415	3.73445	16.852886	-0.248441	121.88029	-31.036618	0.504025	0.05282	-0.429125	-1.09352	65.85048	79.378664	-79.145714	-309.614448	-57.512168	0.204133	0.054035	-0.27618	11.067732	1.481189	-1.306736	-15.287894	-5.403189	0.308179	-0.769004	0.382559	-0.110521
-3.720983	3.332649	18.519392	9.171026	146.843972	-27.852225	0.534764	0.076252	-0.464554	5.879666	-44.40634	-19.796008	576.186312	-220.882562	-105.963304	0.204133	0.036023	-0.282184	9.987698	2.816019	-1.09372	-6.215218	-7.345554	-5.77623	-0.785046	0.370111	-0.087944
-3.10319	4.034055	20.787275	16.032123	176.72417	-23.182931	0.538228	0.092385	-0.429338	-13.442003	21.535582	15.342926	16.998438	-229.888809	34.077829	0.174113	0.006004	-0.264172	9.912735	2.811927	-2.008321	10.026902	-10.045479	1.836484	-0.803741	0.375669	-0.074615
-2.976299	4.274694	24.315678	23.564842	213.829216	-20.952544	0.521509	0.092115	-0.448496	-23.265895	1.225988	15.542802	182.242235	-248.972094	91.466455	0.174113	0.006004	-0.258168	10.263132	5.246047	-1.305417	5.95667	-5.932008	-6.202358	-0.756088	0.394503	-0.103541
-2.483088	1.847411	28.827362	41.72362	256.787867	-14.303673	0.541692	0.108518	-0.394123	8.403533	12.500222	0.561699	149.082032	-308.267217	54.127195	0.150098	0	-0.258168	10.349153	4.210107	0.06119	7.921203	-3.698756	1.892082	-0.75964	0.407755	-0.095699
-2.086003	-0.475524	28.482884	70.953289	300.131552	-9.827142	0.635079	0.077873	-0.349605	10.478844	3.19617	10.526032	30.517174	-276.005374	-8.675938	0.13809	-0.006004	-0.264172	11.122338	2.362778	1.551815	19.069855	4.177613	25.593736	-0.752109	0.367496	-0.08967
-1.301221	-1.291276	27.514079	95.566042	343.049838	-7.855813	0.570901	0.053901	-0.352493	9.183085	-0.418941	16.287278	43.477294	-193.821441	-77.487072	0.102066	-0.012008	-0.264172	12.117404	2.367153	2.941173	32.584387	10.51028	25.152544	-0.806394	0.393673	-0.083863
0.680626	-3.212126	26.104102	116.231669	391.827244	-0.324746	0.673773	0.132445	-0.296443	5.214131	-8.601484	17.286645	61.309944	-143.989227	-79.019378	0.102066	-0.036023	-0.252164	12.38972	2.942919	2.378512	23.924905	16.728216	7.682435	-0.772557	0.395811	-0.102678
2.895657	-1.765884	25.053691	129.234525	441.506504	13.018003	0.698754	0.022671	-0.251499	4.545968	-6.132381	15.146321	76.649664	-18.516026	28.317489	0.102066	-0.03002	-0.252164	11.812245	5.31702	2.20675	17.231372	25.338784	4.051902	-0.825943	0.426742	-0.113961
3.622508	5.138935	24.449216	169.966445	467.759607	20.034798	0.739764	0.034839	-0.105327	0.600334	-1.289788	4.151044	162.581461	-18.361481	30.119158	0.114074	-0.018012	-0.270176	11.759209	4.783335	-0.536039	10.781341	37.017654	18.885214	-0.822436	0.381226	-0.061286
-4.247098	8.839603	15.401526	213.426344	441.416194	13.612615	0.771148	0.037632	-0.103331	2.307966	1.21903	8.308102	53.470897	-13.711629	15.563832	0.096063	-0.054035	-0.258168	12.297129	3.616384	-2.242799	1.611567	41.195025	29.07576	-0.770331	0.391562	-0.115144
-10.745059	6.050843	11.56666	192.830761	410.319048	15.484205	0.788774	-0.022886	0.009941	1.407041	-1.012343	8.117674	34.586729	-10.478428	0.295888	0.078051	-0.048031	-0.240156	12.867597	2.514952	-2.293623	7.493159	37.642638	31.850332	-0.754289	0.404009	-0.137721
-9.197004	3.959385	11.419045	196.648518	357.163026	19.293538	0.82183	-0.041857	0.067522	1.384442	-0.728959	10.004085	27.299018	-9.716395	2.865578	0.096063	-0.048031	-0.240156	12.811006	1.76215	-2.355259	11.222195	32.610145	18.989809	-0.804595	0.40318	-0.118042
5.560677	0.129051	17.771833	211.665203	369.818825	-10.033782	0.829785	-0.010717	0.156113	1.418141	-0.726997	8.766168	15.701115	-11.752396	-5.125827	0.096063	-0.03002	-0.252164	11.806846	2.637901	-1.229745	-1.433063	25.250819	-1.490487	-0.772084	0.41432	-0.141482
-0.185169	-12.563461	-0.751167	178.72791	333.809808	29.36557	0.863867	-0.030815	0.231854	1.85892	-0.555468	8.184555	9.352275	-11.242539	-4.398765	0.090059	-0.048031	-0.258168	10.661439	3.102033	-1.535628	-9.469512	17.357279	-0.677742	-0.788126	0.401872	-0.118905
5.054485	-23.717502	-26.448947	71.719101	179.751408	87.112176	0.815764	-0.033879	0.2107	1.600569	-0.671434	9.477329	-8.079904	-9.491941	-6.465188	0.096063	-0.078051	-0.264172	10.66616	3.566518	-1.248064	-14.985052	10.233601	6.094682	-0.756088	0.394503	-0.103541
5.290644	-12.732898	3.460702	-23.505978	74.106295	178.077122	0.909151	-0.064523	0.255217	0.982796	-0.899034	9.642782	-4.858729	-9.564905	-5.907042	0.084055	-0.036023	-0.252164	10.712865	3.042708	-1.820225	-13.121291	2.80434	12.760755	-0.77431	0.418569	-0.129016
9.352591	-5.540254	3.270108	-101.005979	-45.093977	215.024665	0.883668	-0.033924	0.305492	1.25898	-1.300222	9.235925	-14.690563	-9.261821	-2.62508	0.096063	-0.060039	-0.234152	11.168309	2.520468	-1.870673	-15.260245	-2.903767	11.566533	-0.774783	0.40006	-0.090212
11.220105	-2.679666	10.827164	-75.64006	-103.14187	220.751208	0.888466	-0.160101	0.296062	1.424661	-0.727606	9.120169	-19.809652	-9.13353	-3.296082	0.10807	-0.054035	-0.24616	10.655262	2.231747	-1.939216	-19.868542	-5.219109	2.664896	-0.804595	0.40318	-0.118042
11.380716	-1.120981	7.424438	-33.411072	-131.16725	206.482172	0.886412	-0.157848	0.259742	0.523055	0.191292	9.39616	-19.400953	-9.740203	-3.906145	0.090059	-0.048031	-0.264172	10.479915	2.810263	-2.111243	-20.479046	-7.14689	1.972286	-0.742272	0.4112	-0.113652
10.323321	-0.941743	9.079769	1.428524	-140.260616	172.372942	0.902748	-0.17709	0.298165	0.851178	-0.496022	8.695896	-24.065546	-9.704324	-3.20887	0.084055	-0.042027	-0.258168	10.091574	2.176302	-1.665281	-23.177523	-10.171485	1.171541	-0.765419	0.425255	-0.075391
10.209964	-1.942442	3.295916	10.96241	-143.067205	130.506375	0.827797	-0.268974	0.208895	0.900091	-0.495482	8.283981	-26.829202	-9.370086	-2.036191	0.096063	-0.066043	-0.240156	9.186784	2.411285	-1.339696	-25.543584	-10.874404	-0.935241	-0.76182	0.444268	-0.14375
9.662634	-3.164751	1.663881	-23.202945	-147.262967	81.436153	0.871792	-0.261405	0.157409	-0.21873	0.365994	9.027728	-35.656177	-8.992132	-0.949315	0.090059	-0.042027	-0.24616	8.907244	2.644754	-1.058815	-27.878365	-11.953234	-4.531841	-0.809474	0.425434	-0.114824
9.566424	-3.452617	2.585933	-61.963643	-153.603514	31.571607	0.885692	-0.297906	0.178776	0.923997	-0.497715	9.581985	-33.77727	-10.405445	-1.015566	0.090059	-0.042027	-0.258168	8.866307	1.953528	-0.320898	-27.909633	-11.496243	-2.309874	-0.806775	0.439693	-0.166093
8.050622	-2.808453	4.291053	-89.044887	-164.714294	-16.250909	0.845971	-0.351351	0.107454	0.998116	-1.3014	10.410495	-11.59202	-13.859472	-2.847196	0.096063	-0.042027	-0.258168	8.073606	1.956172	-0.108297	-27.240981	-8.426551	-4.181999	-0.807675	0.43494	-0.149004
6.581	-2.397913	5.418609	-99.02124	-183.186998	-56.218862	0.850199	-0.296194	0.10414	1.895098	-1.761655	9.956692	5.137862	-16.213794	-5.800658	0.072047	-0.048031	-0.252164	7.904801	2.072832	0.003035	-24.786404	-6.15879	-2.141587	-0.744498	0.415449	-0.101186
5.160011	-2.394845	6.083812	-103.387312	-207.790634	-88.409368	0.861783	-0.290292	0.032498	1.8899	-1.474787	9.720184	13.96852	-14.906359	-7.583096	0.078051	-0.042027	-0.258168	8.073151	2.187758	-0.107245	-22.35831	-5.752137	-0.669876	-0.809474	0.425434	-0.114824
3.616524	-2.682857	6.341326	-108.109033	-234.613103	-110.323643	0.816116	-0.276096	0.028399	1.707877	-1.301281	9.067618	16.54986	-13.962817	-8.08	0.072047	-0.048031	-0.24616	7.736462	1.378679	0.053594	-17.441149	-5.283376	-3.376393	-0.825943	0.426742	-0.113961
2.664119	-3.027372	7.477353	-116.5032	-258.913622	-122.33224	0.829754	-0.272447	-0.006923	1.435805	-1.186859	9.651983	18.308247	-14.167766	-7.384405	0.078051	-0.048031	-0.270176	8.076871	2.014857	0.063243	-13.015952	-4.865668	-7.185488	-0.780089	0.43607	-0.108707
1.372321	-2.558258	8.897551	-121.355898	-279.404008	-126.998678	0.845949	-0.191876	-0.101143	1.763778	-0.728629	9.126689	18.637663	-13.403809	-5.647549	0.084055	-0.03002	-0.24616	7.449027	2.189535	-0.00545	-8.501117	-2.963635	-7.694698	-0.796984	0.451133	-0.129558
0.361274	-2.786772	9.974899	-126.880958	-291.163186	-124.967893	0.810074	-0.209676	-0.156515	1.310877	-0.841749	9.059199	11.389762	-11.23549	-3.23617	0.090059	-0.042027	-0.24616	7.616251	2.304198	-0.172822	-5.922898	-0.988257	-6.503214	-0.793432	0.437882	-0.1374
-1.120365	-2.958196	10.465096	-131.999458	-293.073069	-119.21283	0.778045	-0.191831	-0.195936	1.608218	-1.416743	9.773649	5.411299	-10.570751	-2.790787	0.072047	-0.048031	-0.240156	8.01441	1.95576	-0.223607	-4.485647	2.228558	-7.334734	-0.729355	0.423144	-0.106672
-1.85668	-2.375788	10.971967	-137.150695	-287.259069	-111.031925	0.774964	-0.188452	-0.250416	1.885042	-1.302503	9.483879	10.99482	-11.276034	-4.491525	0.066043	-0.060039	-0.264172	7.896462	2.302577	-0.395559	-2.026813	2.887862	-4.278238	-0.817052	0.433428	-0.060336
-2.981472	-2.487965	12.105124	-145.576345	-277.002732	-97.091913	0.728008	-0.132979	-0.329364	2.00328	-1.589712	9.72256	20.711385	-11.930762	-6.339272	0.078051	-0.054035	-0.252164	8.577199	1.895149	-0.55516	-2.211285	2.778393	-5.3166	-0.845964	0.441301	-0.105256
-3.717257	-1.266948	12.671347	-153.97338	-265.683737	-82.100029	0.708208	-0.129871	-0.403002	1.542089	-1.472952	9.241663	22.619909	-13.07424	-6.821956	0.084055	-0.048031	-0.252164	8.120413	1.953693	-0.621	-2.551409	3.386035	-7.320593	-0.808574	0.430187	-0.131914
-4.260333	-1.204576	14.221056	-157.7532	-256.920373	-66.986011	0.689172	-0.087738	-0.51517	1.604383	-1.588215	9.537953	25.174719	-12.212872	-4.016249	0.060039	-0.054035	-0.234152	8.34301	1.720338	-0.903007	-1.534221	2.401864	-6.221798	-0.779189	0.440823	-0.125797
-4.074002	0.712622	15.038503	-156.263279	-249.635459	-53.065432	0.678736	-0.035104	-0.501322	1.702912	-0.728052	8.889602	21.193856	-12.040921	-1.171817	0.072047	-0.048031	-0.240156	8.512372	1.893423	-0.955932	-3.100845	1.828117	-6.0334	-0.76272	0.439515	-0.12666
-3.747555	1.239619	17.068992	-150.695516	-242.250252	-43.270134	0.625377	-0.092198	-0.537322	1.820404	-1.129745	9.069486	16.898528	-11.480796	1.059892	0.072047	-0.060039	-0.24616	8.570783	1.719883	-0.898502	-3.343965	0.548178	-6.708496	-0.82329	0.408737	-0.104713
-4.194477	1.6479	17.696789	-142.901345	-233.15251	-37.093098	0.579186	0.002299	-0.654799	1.813437	-0.613605	8.773572	12.12901	-11.569945	2.432765	0.072047	-0.060039	-0.252164	8.51913	1.895	-0.613379	-4.420002	0.668238	-5.371294	-0.778762	0.427067	-0.104084
-4.523304	2.172574	18.500596	-140.423815	-221.607178	-33.041644	0.592442	-0.013564	-0.670857	1.312539	-0.670075	9.176895	3.346563	-11.574017	3.647915	0.084055	-0.066043	-0.240156	8.969613	1.603293	-0.891144	-5.836103	1.393227	-5.854505	-0.817006	0.465693	-0.120853
-5.419186	1.53765	19.579252	-142.18309	-209.42967	-28.680043	0.499055	0.01708	-0.715374	1.765547	-0.9579	9.186095	0.342475	-11.833805	5.069261	0.066043	-0.078051	-0.240156	9.483127	1.081202	-0.883374	-7.774896	2.195116	-5.761183	-0.76272	0.439515	-0.12666
-6.262807	1.482538	20.429189	-149.475015	-194.256339	-23.238657	0.450689	0.054167	-0.793218	2.053471	-0.558314	9.544819	-3.606508	-12.133699	6.244244	0.072047	-0.060039	-0.234152	9.423476	1.312376	-0.997633	-9.898676	3.345316	-4.514681	-0.795658	0.442131	-0.124934
-8.108318	1.425158	19.929956	-159.466397	-175.203609	-17.054088	0.374021	0.085082	-0.818577	1.772237	-1.015802	9.540198	-4.110165	-13.498821	7.163861	0.072047	-0.042027	-0.252164	9.597696	0.733596	-0.882698	-11.713549	3.590371	-6.028815	-0.780089	0.43607	-0.108707
-10.359309	1.716004	19.250116	-178.178442	-157.131669	-9.877108	0.358712	0.103198	-0.83884	1.724581	-1.073736	10.011214	-4.441507	-15.891404	6.806143	0.090059	-0.054035	-0.24616	9.540752	0.73371	-0.883825	-13.221085	3.898701	-7.420431	-0.781415	0.445072	-0.113331
-11.739079	1.891188	19.107474	-200.562645	-146.222755	-0.645422	0.316892	0.153039	-0.826987	1.555534	-1.245102	10.008259	-4.02903	-21.075611	6.304149	0.078051	-0.054035	-0.240156	9.305767	0.964173	-1.229831	-13.866409	3.66095	-8.458308	-0.778335	0.413312	-0.08237
-13.636567	3.343812	18.95762	-216.796156	-146.717202	11.180596	0.275071	0.20288	-0.815135	1.356217	-1.476026	11.420322	-1.906932	-30.228687	1.900731	0.072047	-0.054035	-0.240156	9.429118	0.734463	-0.771893	-14.110037	2.488835	-10.206429	-0.812127	0.443439	-0.124072
-14.594434	3.927421	19.864623	-208.518862	-160.102663	24.308478	0.240868	0.163316	-0.814922	2.247895	-1.248467	10.788301	9.340907	-44.247239	-4.815558	0.084055	-0.048031	-0.24616	8.572387	0.330106	-0.961903	-14.480254	2.740528	-13.028203	-0.813453	0.452441	-0.128695
-15.65488	5.144105	18.517244	-186.642055	-181.180447	37.775291	0.183476	0.271423	-0.880022	2.230231	-0.788605	9.902486	10.858967	-48.925721	-6.345248	0.084055	-0.060039	-0.258168	8.80512	0.099117	-0.730081	-14.728533	3.826863	-12.106551	-0.776536	0.422818	-0.11655
-16.151341	5.952676	16.659984	-159.697949	-204.050502	50.956909	0.186295	0.308194	-0.882231	2.123925	-1.590764	10.137735	11.18644	-52.74356	-8.487323	0.060039	-0.054035	-0.228148	9.547396	0.793184	-0.541009	-17.86596	4.465702	-12.35234	-0.8126	0.42493	-0.085268
-16.32773	5.829156	13.535421	-135.927848	-215.382163	61.601784	0.110272	0.318471	-0.870165	2.082917	-0.962001	11.079534	15.17963	-60.826121	-11.128985	0.066043	-0.054035	-0.234152	8.865874	1.02666	-0.439288	-18.820159	4.972291	-12.185701	-0.796131	0.423622	-0.086131
-18.099892	6.056848	10.957841	-126.629271	-201.704493	67.597587	0.110272	0.318471	-0.870165	2.300643	-1.076455	10.612082	18.159026	-67.23676	-13.410253	0.054035	-0.042027	-0.222145	9.214519	0.911762	-0.090503	-16.976968	5.711588	-10.908309	-0.780089	0.43607	-0.108707
-20.212423	6.923901	8.606199	-124.851273	-167.58524	69.966267	0.064223	0.313155	-0.854999	2.145509	-0.44725	11.492708	13.223118	-70.758686	-16.918507	0.054035	-0.072047	-0.240156	9.041767	1.317115	-0.149134	-12.398862	7.221384	-7.645999	-0.843311	0.423296	-0.096008
-22.454782	9.182414	5.561847	-133.678579	-121.887537	68.019358	-0.02711	0.341547	-0.863197	2.356481	-0.847456	10.612763	27.583355	-74.100466	-23.373294	0.054035	-0.066043	-0.228148	9.337632	1.377071	0.427682	-9.509157	7.777258	-3.453123	-0.85978	0.424604	-0.095145
-24.475741	12.54972	5.06743	-139.162112	-74.31745	62.432187	0.008121	0.379985	-0.84525	1.951874	-0.387213	10.191343	17.133188	-76.180435	-19.819408	0.066043	-0.072047	-0.234152	9.058205	1.552644	0.7083	-6.095663	7.986116	1.851599	-0.813926	0.433932	-0.089892
-25.084955	14.58476	6.273858	-124.526086	-30.690917	51.802719	-0.022619	0.356554	-0.809821	2.52067	-0.503807	10.379413	5.436107	-80.6685	-16.189315	0.042027	-0.054035	-0.228148	8.769769	1.726113	0.532181	-0.837242	7.99244	5.82512	-0.781888	0.426563	-0.074528
-24.195303	15.516242	7.796423	-82.535998	6.933277	37.464421	-0.023263	0.377192	-0.847246	2.635882	-0.504351	10.499587	0.938775	-88.459654	-12.322079	0.036023	-0.054035	-0.228148	8.415277	1.376263	-0.16126	1.773866	9.054028	6.670895	-0.813453	0.452441	-0.128695
-21.275419	15.570608	7.507966	-23.898846	38.43479	19.729212	-0.033437	0.389676	-0.776708	2.923296	0.067112	10.858006	-12.65181	-96.709616	-8.9574	0.036023	-0.054035	-0.216141	8.364329	0.045548	0.002844	-0.256349	9.9432	11.135189	-0.779662	0.422314	-0.086994
-17.012595	14.516496	5.452027	15.120369	59.459676	-4.446856	-0.036901	0.373543	-0.811924	2.832437	-0.450107	11.977749	-19.05673	-106.924632	-8.267141	0.036023	-0.072047	-0.222145	8.76193	-0.592634	-0.106348	-3.237425	9.738101	14.212844	-0.811227	0.448192	-0.141161
-13.142553	4.130564	32.377035	617.938521	49.002596	-0.59873	-0.034465	0.390803	-0.794868	2.845178	-1.081339	12.568868	-23.342756	-119.814608	-9.247204	0.024016	-0.054035	-0.234152	9.254716	-0.887872	-1.125185	-8.803094	10.069792	14.052899	-0.749377	0.437703	-0.097967
-1.559991	-12.06059	-9.330498	95.565141	112.874464	-13.362974	0.021638	0.323972	-0.804618	2.691003	-1.139541	13.391712	-28.348771	-135.381258	-11.361823	0.024016	-0.042027	-0.234152	8.734457	-0.946584	-1.535229	-15.228568	9.565938	9.595432	-0.812127	0.443439	-0.124072
18.761014	3.548373	21.163817	155.015606	190.737448	-97.156128	0.001073	0.288057	-0.839727	3.384621	-1.2003	14.230855	-30.973512	-156.773618	-15.173112	0.03002	-0.066043	-0.198129	9.011597	0.614998	-1.750869	-20.113729	7.256875	0.049811	-0.80011	0.450629	-0.100002
6.30923	6.10066	15.316193	319.717356	220.391819	-98.900168	0.030403	0.293103	-0.874051	2.174217	0.117724	16.21062	-42.307272	-181.61658	-14.438299	0.012008	-0.048031	-0.210137	9.279363	3.50662	-2.303016	-19.580209	1.803255	-7.803641	-0.782741	0.454074	-0.117955
-3.074872	9.560767	2.192335	289.524614	228.1807	-89.158255	0.056148	0.222353	-0.867636	2.234302	-1.090696	19.280761	-52.344712	-212.863794	-10.699763	0	-0.060039	-0.234152	11.982465	5.361056	-0.700182	-24.773177	-10.586687	9.246851	-0.780515	0.449825	-0.130421
-11.303738	10.465019	12.548701	164.619613	170.165541	-35.690259	0.019509	0.165529	-0.884479	2.658362	-1.151821	20.822473	-51.300974	-251.435534	-9.039492	-0.012008	-0.054035	-0.210137	14.242217	5.597405	1.343019	-20.244814	-25.928197	24.673685	-0.799256	0.423118	-0.056575
-7.14382	-0.346916	7.693035	170.393249	123.219721	38.765863	0.07984	0.153856	-0.897542	1.940696	-1.781243	21.635466	-57.254694	-293.551936	-11.15369	-0.018012	-0.054035	-0.210137	12.952259	4.156555	2.166926	-16.501821	-37.573373	7.072731	-0.833948	0.448492	-0.081187
1.438144	5.337448	9.727106	138.927652	109.779896	33.03194	0.126151	0.119021	-0.856019	1.186944	-1.610533	23.684954	-68.070402	-338.187587	-11.738222	-0.042027	-0.048031	-0.210137	11.245065	5.318684	2.309672	-4.22212	-44.793293	-10.433253	-0.80101	0.445876	-0.082912
-6.436424	1.57034	8.752028	81.521189	50.455488	-20.603825	0.127178	0.117895	-0.837859	1.244784	-1.324444	23.803533	-66.717406	-378.43987	-17.862223	-0.060039	-0.042027	-0.192125	9.367973	4.859529	2.327495	-11.073934	-47.483651	-18.69672	-0.768971	0.438507	-0.067548
-6.697541	5.63724	10.259279	134.951306	12.248124	-42.416812	0.090276	0.101221	-0.91139	3.073899	-1.269426	21.892286	-37.896015	-414.087589	-31.243654	-0.078051	-0.036023	-0.186121	7.923117	4.220256	1.154604	-10.018688	-38.024339	-12.915339	-0.803236	0.450125	-0.070446
-1.515922	4.452067	2.442158	112.370941	16.775662	-11.230248	0.105203	0.063594	-0.871863	5.525226	1.527833	23.527042	-45.815331	-435.424208	-33.066502	-0.072047	-0.042027	-0.168109	10.355342	4.501166	0.405057	4.202887	-29.932067	9.239503	-0.868212	0.46011	-0.084085
-1.425944	3.367198	9.83865	30.746116	11.104701	-7.38471	0.114612	0.012086	-0.903872	8.869614	-0.659639	23.772012	-12.777247	-434.193417	-38.053449	-0.10807	-0.036023	-0.150098	9.962723	3.750361	0.622124	2.617624	-22.571963	9.641423	-0.8366	0.466497	-0.090434
-1.933421	2.549037	7.341515	36.964622	4.795581	-13.13926	0.132741	0.030742	-0.885818	7.604068	-2.715778	22.217756	37.688979	-427.69464	-38.451275	-0.120078	-0.042027	-0.13809	10.404663	2.645739	-0.17315	-2.582109	-21.198672	7.746596	-0.78724	0.430309	-0.032506
-1.940015	2.032857	9.882964	12.823494	4.472268	-5.367075	0.166562	0.050794	-0.866767	6.930443	-3.177485	25.449451	79.259486	-421.609218	-40.932284	-0.144094	-0.03002	-0.114074	12.107887	2.930757	-0.366417	-2.123547	-19.60561	12.299683	-0.788093	0.45782	-0.075933
-2.012318	2.089139	9.130369	19.321664	4.765205	-5.662284	0.115639	0.010959	-0.885711	4.4293	-6.027367	21.100788	123.063597	-433.89075	-48.321038	-0.162106	-0.048031	-0.10807	12.718496	2.925825	-1.153319	1.961307	-18.044389	9.624668	-0.838827	0.470746	-0.077968
-1.943556	2.148523	9.709799	10.961621	3.441907	-2.88988	0.148433	0.032138	-0.88482	3.089521	-7.962017	15.534318	122.437197	-421.100619	-45.65337	-0.168109	-0.042027	-0.072047	13.010869	3.042889	-0.747516	5.670382	-13.735079	5.232334	-0.84999	0.436044	-0.05861
-1.381549	2.610911	9.144199	19.870347	4.123402	-2.493014	0.116404	0.049983	-0.924241	-5.941353	-12.388131	6.108606	95.898713	-385.17425	-50.947906	-0.180117	-0.03002	-0.054035	12.897096	2.985221	-0.750032	16.882918	-9.18429	7.35856	-0.841099	0.442731	-0.004985
-1.740793	2.667471	8.385889	13.094278	2.524549	-3.008806	0.085665	0.026552	-0.888812	-14.9232	-11.690558	-18.246663	117.402117	-255.609608	-59.33893	-0.186121	-0.054035	-0.018012	12.672133	3.275946	-0.581946	19.602505	-1.978019	7.206074	-0.822784	0.483193	-0.100545
-1.954065	2.379436	9.190025	-0.126757	2.465357	-2.208038	0.132358	0.01123	-0.866553	-14.308962	-5.922136	-8.513195	-105.878898	-35.996429	-57.965433	-0.186121	-0.054035	-0.018012	12.452027	2.814807	-0.246001	25.711277	2.088032	4.667297	-0.850416	0.4498	-0.080324
-1.606697	2.785821	9.371305	-2.954665	3.459379	-4.147435	0.096101	-0.026082	-0.90266	-8.653305	1.866479	17.591943	-64.460829	92.538405	-48.348518	-0.198129	-0.054035	-0.03002	12.286715	2.874359	0.036344	30.71875	3.541598	-0.3248	-0.88738	0.447158	-0.031952
-1.88993	2.496305	9.538336	-5.417	3.192044	-4.588823	0.116022	0.030471	-0.904976	-9.070733	-2.473087	9.570202	66.074277	154.544588	-76.607369	-0.174113	-0.054035	-0.024016	11.64762	2.467181	-0.662991	30.003857	5.681458	-10.930317	-0.83532	0.42523	-0.025293
-2.509912	1.453406	10.043581	-2.074725	2.943434	-4.158984	0.103794	0.045208	-0.870759	-7.14809	-4.99914	9.257614	87.491591	165.357068	-89.311169	-0.180117	-0.054035	-0.03002	11.257913	2.527977	-0.213874	30.120065	8.214528	-14.291782	-0.856668	0.448792	-0.021212
-1.320509	2.379104	9.318227	-6.238333	4.927342	-3.764618	0.127868	-0.003777	-0.919929	-5.613619	-4.536099	3.683298	97.671216	148.525595	-99.57768	-0.168109	-0.054035	-0.042027	10.172726	2.471453	-0.406812	27.714804	11.365988	-11.869706	-0.802809	0.43637	-0.048733
-0.361606	4.29175	8.590677	-7.169757	6.250015	-1.793499	0.149842	0.050524	-0.885925	-6.10826	-4.129831	1.431888	52.18026	142.725668	-98.171822	-0.150098	-0.060039	-0.060039	9.826686	1.833961	-0.701922	23.714665	12.811125	-9.355481	-0.821977	0.423418	0.0034
-1.536079	3.534954	7.178447	-13.000377	7.277966	-2.590563	0.137352	0.105411	-0.908396	-6.633079	-4.189175	3.604129	-1.799676	150.686369	-76.334797	-0.156102	-0.084055	-0.054035	9.775602	1.719597	-0.418114	19.935665	12.152894	-3.243384	-0.790365	0.429805	-0.00295
-3.012244	0.991242	10.725954	-5.519059	6.386828	-1.49097	0.098276	0.031327	-0.942294	-8.482201	-3.726836	4.511461	25.669685	167.651677	-68.142472	-0.156102	-0.072047	-0.072047	9.948457	1.835574	-0.300025	15.509705	11.36867	-3.646598	-0.850889	0.431291	-0.04152
-0.538484	3.24645	8.295659	-3.622289	8.27937	2.911658	0.144587	-0.003507	-0.900771	-9.251655	-2.294575	5.909714	34.349978	194.425137	-39.468309	-0.144094	-0.072047	-0.078051	8.917289	1.546562	-0.664164	11.574171	10.727918	-9.188913	-0.82065	0.414416	0.008024
-1.128438	3.077964	10.363999	8.815271	7.532155	4.113304	0.182254	0.052191	-0.865769	-8.179787	-2.354903	5.812461	49.795146	225.890564	-2.124318	-0.144094	-0.078051	-0.102066	7.849098	2.015312	0.058738	10.778166	8.820863	-13.492223	-0.850416	0.4498	-0.080324
-1.727608	2.030538	9.020314	17.034634	6.624088	5.011353	0.131331	0.012356	-0.884713	-6.551056	-4.363558	4.962524	56.587735	249.763233	22.953526	-0.132086	-0.090059	-0.102066	7.675458	1.725383	-0.117232	9.36625	8.113135	-10.332999	-0.823776	0.413912	0.03758
-2.602469	0.933788	11.138518	17.607109	7.428634	5.886469	0.199738	0.091485	-0.88514	-4.91395	-5.170188	4.759458	36.778834	268.198357	45.15231	-0.126082	-0.084055	-0.120078	7.898726	1.723876	-0.341095	7.432426	6.955984	-8.297876	-0.852689	0.421784	-0.00734
-1.727077	2.669148	9.079666	21.524669	6.736982	3.747997	0.131714	0.031868	-0.903978	-3.489967	-4.488158	5.493408	9.082334	279.222217	64.470902	-0.114074	-0.084055	-0.132086	7.674662	2.130658	-0.115392	4.109575	8.057557	-6.842579	-0.802809	0.43637	-0.048733
-2.516517	2.38139	9.756743	21.100165	6.747818	1.466564	0.163742	0.014023	-0.864557	-2.448603	-4.894405	6.752681	-16.055729	283.972329	76.96066	-0.096063	-0.078051	-0.150098	7.888362	1.837303	-0.854399	3.152096	9.832988	-7.531205	-0.802809	0.43637	-0.048733
-2.071517	2.785567	9.073088	18.473824	6.897868	0.0683	0.175971	-0.000714	-0.898775	-1.526606	-4.268742	7.830954	-26.208847	285.17909	83.366607	-0.084055	-0.078051	-0.174113	7.61806	1.957082	-0.117307	0.505895	10.529354	-9.182639	-0.851789	0.426538	-0.02443
-1.658901	2.147966	9.599884	16.499462	7.324743	-0.29507	0.175588	-0.020226	-0.87951	-0.592443	-4.446088	9.44165	-32.241241	287.067507	87.72091	-0.078051	-0.072047	-0.180117	8.243207	1.434238	-0.221468	-0.971842	11.313481	-9.575803	-0.820178	0.432924	-0.03078
-2.351211	2.380385	9.413283	17.324466	9.450508	0.292137	0.12684	-0.002651	-0.938089	-0.306756	-4.389952	9.623982	-34.034048	291.650466	87.184287	-0.072047	-0.060039	-0.198129	7.499668	1.956258	-0.347928	-2.201162	11.032005	-10.218193	-0.802855	0.404105	0.011784
-2.515263	2.265445	9.814278	23.093119	10.522284	0.779676	0.129277	0.014609	-0.921034	1.446542	-4.796282	9.658378	-36.288688	297.277191	88.429587	-0.042027	-0.048031	-0.210137	7.603418	1.953665	-0.859505	-2.845278	10.568234	-8.40632	-0.801056	0.413612	-0.022395
-2.16979	2.26525	9.878951	26.713522	10.705777	0.578928	0.160661	0.017402	-0.919038	1.633082	-5.027486	10.547047	-48.149866	304.390115	77.644157	-0.03002	-0.03002	-0.240156	7.620767	1.726022	-0.004174	-2.903454	9.104474	-8.923233	-0.769917	0.40149	0.010059
-1.831343	2.438346	9.597154	30.240716	12.017051	1.435177	0.143177	-0.021893	-0.899666	1.871646	-4.11291	11.375772	-63.899761	311.386616	71.531269	0	-0.048031	-0.240156	7.494378	1.781255	-0.634177	0.302099	5.737689	-8.552642	-0.802382	0.422614	-0.027019
-1.83101	2.09009	9.596316	30.055255	12.492507	0.786805	0.187816	-0.034962	-0.913728	2.145025	-3.946181	13.975821	-77.231611	316.852451	64.212888	0.012008	-0.024016	-0.258168	7.562584	1.78377	-0.062129	-1.975073	6.623262	-8.187805	-0.835793	0.406721	0.01351
-1.729419	2.726911	8.964176	27.56584	12.505698	0.143648	0.15746	-0.038882	-0.897564	2.407389	-2.632893	16.160839	-74.811042	318.846295	57.581446	0.036023	-0.03002	-0.258168	7.965134	1.49428	0.115717	0.118695	5.357196	-7.841327	-0.802428	0.39035	0.033498
-2.181666	2.728195	9.301921	25.218676	12.428103	-0.903886	0.17867	-0.023605	-0.82503	2.778829	-2.178723	17.995552	-69.885191	319.2812	56.596352	0.060039	-0.018012	-0.288188	7.67928	2.073813	0.112714	-0.493591	4.299364	-7.26954	-0.800202	0.3861	0.021032
-1.8227	2.961848	10.06093	24.305189	13.775499	-0.826836	0.127485	-0.023289	-0.900664	2.806677	-2.410431	19.470962	-62.829918	317.116158	59.505992	0.084055	0	-0.270176	8.128194	1.434202	-0.280813	0.002719	2.356038	-8.047622	-0.819324	0.405413	0.012647
-2.062429	2.844728	9.535746	25.875196	14.911481	-1.398118	0.158487	-0.040008	-0.879404	2.818758	-1.724241	20.236746	-63.591601	311.072957	67.269002	0.132086	-0.012008	-0.252164	8.369926	1.784543	0.467468	-1.685156	1.018134	-8.08684	-0.798403	0.395607	-0.013148
-2.010113	3.366497	9.306887	24.104585	19.297542	-1.175897	0.158487	-0.040008	-0.879404	4.536141	-1.387732	21.50774	-75.249909	304.110851	73.515608	0.144094	0.006004	-0.264172	8.765833	1.435579	0.302498	-2.480579	-0.595076	-7.4114	-0.756574	0.399678	0.038752
-2.120849	2.728558	9.476508	21.764319	22.877371	-1.706668	0.172769	-0.056997	-0.877301	6.811623	-1.224093	22.376904	-85.738981	299.951533	76.440406	0.150098	0.012008	-0.252164	9.399535	1.146423	0.656125	-3.186135	-1.169554	-6.453711	-0.801056	0.413612	-0.022395
-2.172577	2.787355	9.764579	20.269625	21.453552	-2.799184	0.190898	-0.038341	-0.859248	12.095147	-1.98708	23.836286	-95.992272	299.463424	68.690685	0.174113	0.006004	-0.240156	9.000375	0.857475	0.589835	-3.98218	-2.561882	-6.211602	-0.803709	0.431616	-0.031643
-2.740188	2.208183	10.040826	20.54449	23.747312	-2.161451	0.193717	-0.00157	-0.861457	14.867608	-0.449246	24.299791	-102.271322	292.369717	55.121799	0.198129	0.03002	-0.228148	8.369266	0.973468	0.349603	-2.319943	-2.970414	-2.064154	-0.801955	0.408858	-0.005305
-2.738291	2.614762	10.157433	22.80523	23.586151	0.803557	0.172769	-0.056997	-0.877301	17.588067	1.031059	24.998313	-110.471251	282.448907	40.111362	0.216141	0.036023	-0.210137	8.207571	0.338789	0.742978	-1.057454	-3.755901	-1.763884	-0.785959	0.389042	0.032635
-2.830318	2.733753	11.311722	24.474054	27.04231	3.870115	0.204153	-0.054204	-0.875305	19.439554	1.599476	24.384155	-80.180261	272.397008	22.640178	0.222145	0.024016	-0.228148	8.020178	0.740724	-0.057851	3.125558	-4.464331	-2.153161	-0.817525	0.414919	-0.021532
-1.671706	4.533501	11.974876	27.697426	30.348434	3.532013	0.186407	-0.053348	-0.912623	22.096468	2.174403	18.418368	-42.709189	263.881727	4.478351	0.210137	0.024016	-0.216141	8.369266	0.973468	0.349603	6.511507	-6.13373	-2.463268	-0.802855	0.404105	0.011784
-2.313126	3.197734	11.380942	34.152238	46.990736	1.220059	0.180386	-0.146403	-0.88894	26.201121	-1.267532	13.725857	-9.365016	260.088186	-27.761257	0.228148	0.036023	-0.192125	8.799921	1.024671	-0.897151	13.956235	-7.361326	1.825949	-0.785014	0.426059	-0.044972
-2.477846	3.779306	11.783614	31.848889	52.134731	-1.203159	0.207617	-0.038071	-0.84009	35.810963	-8.737484	9.735858	32.403478	256.677426	-80.827011	0.228148	0.036023	-0.192125	9.090826	1.315161	-0.547653	18.202748	-8.483515	4.596825	-0.784633	0.380039	0.037259
-2.487491	4.300572	11.322353	32.767854	60.635002	-5.398628	0.249055	-0.107424	-0.832677	40.907464	-8.32725	-4.911663	22.549946	213.125299	-129.823249	0.222145	0.03002	-0.174113	9.394131	1.029316	0.370139	15.068743	-9.442639	4.663387	-0.801102	0.381347	0.038122
-1.795541	5.635445	11.570542	23.890659	69.524961	-12.339896	0.232336	-0.107695	-0.851835	39.557191	0.559229	-6.250394	-173.318264	150.121205	-138.712736	0.252164	0.036023	-0.162106	9.221038	1.608359	0.312296	2.186066	-9.810337	2.155898	-0.791265	0.425051	0.01414
-1.664372	5.230991	12.381257	12.314532	81.029937	-20.606729	0.234128	-0.069797	-0.872204	36.921069	11.599271	8.837638	-266.467884	73.292501	-144.863276	0.258168	0.03002	-0.162106	9.596774	1.775994	-0.820875	-6.113035	-9.827646	10.858754	-0.815772	0.392161	0.004805
-2.103434	4.595342	13.353427	6.017025	95.227069	-26.474285	0.235799	-0.091561	-0.81662	25.701752	62.295796	67.337237	-482.004062	-124.766788	-150.24764	0.252164	0.036023	-0.180117	9.822193	1.253683	-0.990012	-11.527963	-7.58861	16.527383	-0.819797	0.386904	0.051451
-2.914661	4.137844	15.821199	5.804064	114.532016	-27.90716	0.216644	-0.109091	-0.852833	27.645772	3.421923	16.222706	420.698781	-197.994794	-169.93248	0.252164	0.060039	-0.174113	10.040046	1.714296	-1.440141	-7.346268	-7.646266	17.713349	-0.82027	0.368396	0.090254
-3.299066	3.966202	16.680001	13.09788	137.203563	-26.477439	0.310796	-0.100712	-0.846845	0.238311	-1.958615	-6.412028	282.573584	-209.110824	-113.947618	0.252164	0.054035	-0.186121	9.645948	1.716144	-1.219656	5.20248	-9.466608	18.709913	-0.830487	0.370711	0.032006
-3.263465	3.796406	18.471839	17.053273	162.704624	-24.913351	0.282493	-0.106884	-0.794361	-14.704128	15.417602	10.256954	-23.067782	-313.627655	-22.802951	0.228148	0.048031	-0.168109	8.85311	2.935138	-0.887351	10.177759	-8.093175	8.765246	-0.805554	0.389846	0.063054
-1.539962	5.195223	21.572522	17.934618	193.560254	-25.959273	0.349752	-0.086291	-0.736993	-13.608654	4.441875	28.108521	32.26815	-278.406794	96.443705	0.228148	0.042027	-0.186121	8.944631	6.289221	-1.669142	-0.593917	-4.599564	-0.273744	-0.785106	0.361531	0.076063
-2.802046	3.287941	24.374546	31.492306	229.70927	-24.03361	0.351544	-0.048393	-0.757363	11.011603	5.7381	-3.092261	138.503889	-298.650631	8.878921	0.204133	0.042027	-0.150098	10.882193	4.953474	-1.693988	5.242642	0.463317	26.889974	-0.818897	0.391658	0.034361
-2.900405	1.664674	25.119939	47.441693	268.248426	-21.088923	0.396828	-0.082101	-0.733999	11.986946	3.354853	15.744908	-33.047216	-129.62556	-95.542747	0.204133	0.036023	-0.180117	13.715132	3.278104	0.351801	4.730165	10.103195	35.532219	-0.802002	0.376594	0.055212
-0.874672	1.664822	26.027165	61.127023	307.362389	-21.855948	0.46024	-0.097153	-0.692583	6.223761	-9.286039	13.709499	-4.948482	-43.242745	-84.431382	0.180117	0.024016	-0.186121	13.906905	3.514343	1.440982	-0.551141	18.30132	17.51516	-0.788185	0.393291	0.045101
0.206807	0.21144	25.525055	81.904917	349.181036	-22.161108	0.43232	-0.083813	-0.659363	2.117363	-0.845556	9.900414	105.050471	-20.203999	-17.260046	0.186121	0.024016	-0.168109	14.394265	4.260452	0.255601	-9.188407	30.20975	15.051739	-0.786859	0.384289	0.049725
1.893378	-1.361853	23.705499	103.602559	395.43462	-14.575276	0.546273	-0.078543	-0.579737	-0.148831	-2.671081	9.270195	88.988074	-12.780914	24.127897	0.174113	0.03002	-0.150098	14.95132	3.677196	-0.420872	-10.430981	37.500188	32.674719	-0.815345	0.378406	0.026519
3.338976	1.823738	21.545941	133.152296	429.268881	-6.218654	0.563636	-0.098911	-0.523154	2.084721	-0.097912	8.24709	79.789283	-20.125859	13.485621	0.174113	0.03002	-0.168109	12.865954	2.47005	0.502504	-4.118337	33.045781	30.518378	-0.820224	0.40066	0.029737
0.828068	7.792873	16.713703	177.621511	423.372645	-4.063551	0.639922	-0.149338	-0.47853	2.54932	-1.360521	8.730018	50.752955	-11.728866	7.971945	0.168109	0.012008	-0.156102	11.740398	1.432819	1.046169	10.867225	27.870463	30.504885	-0.800202	0.3861	0.021032
-8.194899	7.553676	10.060728	186.644131	394.236044	-9.476646	0.677206	-0.113152	-0.424263	1.600889	-1.874271	9.30246	65.369191	-10.749587	4.258936	0.168109	0	-0.168109	10.135611	2.128658	0.561051	11.591079	19.108279	14.564582	-0.770817	0.396736	0.027149
-7.440719	3.83878	10.297903	175.028174	358.397557	-2.481979	0.721081	-0.165246	-0.399795	0.701967	-1.127453	9.696755	60.620507	-12.048057	-1.430758	0.180117	0.018012	-0.162106	9.610153	2.995499	-0.016064	15.81889	12.437086	13.426942	-0.81847	0.377902	0.056075
-5.30692	7.973654	16.880898	177.318938	325.628793	-15.279502	0.732499	-0.117973	-0.275988	1.245323	-0.726181	8.585908	42.822366	-12.84892	-6.67641	0.198129	0.006004	-0.162106	10.568837	3.165151	-0.452866	17.027538	8.72958	16.516564	-0.785487	0.407551	-0.006168
2.56777	-3.64941	14.177757	186.201603	346.462992	-12.526845	0.762353	-0.193228	-0.196934	0.687117	-0.152365	9.046028	18.664518	-9.162142	-5.31464	0.168109	0.006004	-0.168109	10.27163	2.641498	-1.145969	13.864647	6.384175	10.865462	-0.787286	0.398044	0.028011
3.305119	-15.317666	-10.050577	177.274607	260.275695	17.518355	0.784973	-0.159565	-0.125505	0.968223	-0.382184	8.933867	10.447446	-8.58635	-5.504418	0.174113	0.006004	-0.168109	10.655603	2.058057	-1.940005	10.179609	3.95242	6.467381	-0.772143	0.405739	0.022525
5.106188	-16.600858	-11.867148	11.520705	122.16274	86.30014	0.814565	-0.194669	-0.103139	1.038975	-0.784619	9.643666	5.285425	-7.433891	-5.521003	0.168109	-0.012008	-0.174113	10.593131	2.578187	-2.167134	-0.048266	-0.881977	3.649581	-0.82155	0.409662	0.025113
4.06032	-11.515768	2.225524	-23.512436	53.213324	160.522108	0.848003	-0.194129	-0.064823	1.144578	-0.841542	9.23294	3.241916	-7.073271	-4.249181	0.162106	-0.006004	-0.162106	10.531557	3.214373	-2.336645	-11.814886	-4.556959	4.007975	-0.786859	0.384289	0.049725
7.633201	-6.699299	3.290838	-98.750329	-40.298296	201.80267	0.816237	-0.216434	-0.047555	0.870545	-1.528808	9.582725	-2.598984	-7.965058	-4.464918	0.168109	0.012008	-0.168109	10.413291	2.576426	-2.62725	-19.956493	-6.277393	9.906832	-0.820697	0.382151	0.068541
9.379136	-3.89748	10.498581	-90.979083	-91.010631	214.305135	0.798873	-0.196066	-0.104137	1.380372	-1.18679	9.709897	-1.298573	-6.417613	-3.609399	0.156102	0	-0.162106	10.369647	2.11626	-2.002465	-24.168896	-6.103398	9.115556	-0.784633	0.380039	0.037259
9.586586	-1.11403	9.527009	-58.680555	-114.895091	204.785876	0.79106	-0.327019	-0.060085	0.808145	-1.0126	9.344725	-4.960471	-7.389501	-2.889615	0.174113	0	-0.186121	9.808439	1.945548	-1.614871	-22.999787	-7.130695	2.906482	-0.787759	0.379535	0.066815
9.252155	-0.706139	10.041462	-13.879194	-128.69926	176.239851	0.755447	-0.384969	-0.058768	2.156666	-0.901395	8.9576	-9.511868	-7.734754	-2.715398	0.144094	0.006004	-0.156102	9.03014	2.646629	-0.599825	-21.33823	-8.289047	-2.31833	-0.77039	0.382981	0.048862
8.884893	-1.586423	5.928802	11.919534	-142.603179	137.687939	0.739111	-0.365727	-0.09719	1.535186	-0.613159	9.004139	-12.926448	-6.960923	-2.850679	0.174113	0	-0.168109	9.146166	2.704824	-0.483126	-18.536607	-9.783739	-0.433499	-0.770817	0.396736	0.027149
8.592443	-2.754879	2.683809	-11.022352	-154.117296	93.337283	0.74193	-0.328956	-0.099399	1.836129	-1.303043	9.895793	-15.224037	-6.983837	-3.510339	0.180117	-0.006004	-0.156102	9.210663	2.301012	-0.141287	-17.739065	-8.687321	2.75677	-0.820224	0.40066	0.029737
8.933899	-3.336059	2.515825	-54.472359	-162.985848	46.198208	0.73462	-0.380734	-0.150566	2.966263	-2.681064	9.683962	-7.835318	-8.557776	-5.517892	0.162106	0.012008	-0.150098	9.27797	2.187472	0.373143	-15.008669	-6.258196	2.409273	-0.771717	0.391983	0.044238
7.704816	-2.460003	4.227219	-96.290795	-171.762401	-1.822463	0.707847	-0.308858	-0.17514	0.914899	-0.725971	9.051389	-2.066356	-12.255455	-7.819158	0.174113	-0.012008	-0.162106	8.868559	1.954054	-0.206713	-13.354702	-3.872856	-0.022765	-0.801529	0.395103	0.016408
5.979813	-1.58093	6.968991	-114.119856	-184.058027	-43.827074	0.651287	-0.422235	-0.189667	1.138527	-0.268212	8.995924	8.425678	-13.021839	-8.775142	0.162106	0	-0.168109	8.702689	1.723861	0.017225	-9.607054	-2.833397	-2.93231	-0.786432	0.370533	0.071439
4.799529	-1.286474	8.217612	-114.496981	-199.600926	-77.910875	0.68408	-0.401057	-0.188775	1.681954	-1.361246	10.718637	19.169115	-10.281287	-9.793457	0.168109	0.018012	-0.156102	8.424275	1.957592	0.355198	-7.858592	-1.5039	-6.409906	-0.804654	0.394599	0.045964
3.538466	-1.633366	8.249443	-114.026572	-215.186585	-103.489603	0.655898	-0.347566	-0.212245	1.250309	-0.211159	8.938995	11.052536	-11.128183	-7.883782	0.162106	0.006004	-0.168109	8.286851	1.894403	-0.846253	-4.938487	-1.141625	-5.668551	-0.788185	0.393291	0.045101
1.591308	-2.269525	8.382489	-117.308856	-231.087185	-118.665518	0.592103	-0.352026	-0.234397	2.501025	-1.933884	9.083947	13.51076	-8.861061	-6.282411	0.156102	0	-0.168109	8.296191	2.302044	-0.330583	-3.276255	-1.711405	-3.046635	-0.805127	0.37609	0.084768
1.029944	-2.209388	9.007161	-122.918931	-249.10802	-124.770292	0.576531	-0.29376	-0.311349	1.085544	-0.726584	9.11365	8.708182	-8.923122	-4.226579	0.162106	-0.006004	-0.162106	8.247598	1.493185	0.007164	-2.324038	-1.493099	-4.57585	-0.802002	0.376594	0.055212
0.239083	-2.207072	9.627122	-130.982901	-268.383873	-121.796598	0.563658	-0.258386	-0.314557	1.369804	-0.555762	9.236779	-0.448812	-9.008379	-2.941127	0.156102	0.012008	-0.162106	8.180519	1.490933	-0.507792	-0.482035	-0.416453	-5.38614	-0.774842	0.391479	0.073794
-0.646036	-2.144087	11.285603	-132.100746	-283.820175	-111.285659	0.51491	-0.240811	-0.373135	1.769723	-0.901014	9.421995	-0.274799	-8.483863	-2.419333	0.162106	-0.018012	-0.174113	8.571682	1.835938	-0.840884	0.901012	-0.079011	-4.254865	-0.768164	0.378732	0.036396
-1.541943	-1.559975	12.425008	-129.979458	-290.212249	-97.699991	0.483909	-0.224092	-0.394396	0.749176	-0.553988	9.283826	6.185263	-9.215165	-3.16464	0.168109	-0.006004	-0.174113	8.229123	1.720565	-0.90526	0.93086	0.398189	-3.348208	-0.82027	0.368396	0.090254
-3.489156	-2.138091	12.558193	-132.114707	-287.024778	-78.547611	0.486728	-0.18732	-0.396605	1.292837	-1.360662	11.065032	16.34698	-9.312136	-4.745535	0.174113	-0.006004	-0.168109	7.888703	1.663614	-0.855188	-0.547982	1.723655	-3.050458	-0.803374	0.353332	0.111105
-4.047591	-1.555151	13.357568	-138.148606	-276.414341	-56.674099	0.421906	-0.190654	-0.436917	1.366139	-0.784525	9.001184	18.181466	-12.648497	-4.871691	0.180117	0	-0.168109	8.576198	1.257763	-0.672236	-0.793026	1.242901	-3.897017	-0.752168	0.358915	0.074337
-4.429179	-1.087905	14.391351	-143.786967	-262.840939	-33.891922	0.406596	-0.172538	-0.45718	1.042064	-0.727631	9.820565	29.773949	-12.373331	-4.657285	0.162106	0	-0.168109	8.633699	1.547394	-0.612704	-1.005761	0.089565	-4.819564	-0.770863	0.364472	0.087666
-4.192905	0.247833	14.80384	-148.878714	-249.854212	-12.030982	0.372775	-0.192591	-0.476232	2.11193	-0.845049	9.605414	28.819183	-11.951747	-4.224678	0.174113	0	-0.156102	8.343123	1.662441	-0.90327	-1.648268	-1.237744	-4.700481	-0.772236	0.34121	0.143559
-3.819859	1.295901	16.316397	-153.218593	-237.480536	5.846498	0.378676	-0.159198	-0.423961	1.301225	-0.153529	8.64498	22.536563	-11.820085	-2.875302	0.162106	0.006004	-0.174113	8.861597	0.909816	-0.668182	-2.107263	-2.08279	-3.888129	-0.804228	0.380843	0.067678
-3.791419	2.634516	17.822795	-152.549699	-224.357636	17.555053	0.380468	-0.121301	-0.44433	1.486145	-1.301006	9.299272	21.750416	-11.447511	-2.822831	0.162106	-0.012008	-0.180117	8.519596	1.084187	-0.674151	-2.569158	-1.754933	-3.653532	-0.818044	0.364146	0.077788
-4.179921	3.158966	18.509829	-149.246769	-210.127978	24.112444	0.319109	-0.108501	-0.449426	1.534334	-0.326697	9.003632	13.955014	-11.318263	-1.974913	0.174113	0	-0.150098	9.032085	1.083164	-0.664015	-3.369978	-1.231477	-4.495783	-0.789558	0.370029	0.100995
-4.739055	3.277424	19.250271	-150.041362	-195.319309	27.765565	0.350493	-0.105708	-0.44743	1.99529	-0.729818	9.426037	14.354322	-12.570467	-2.718743	0.174113	-0.006004	-0.162106	9.141239	1.197677	-0.889605	-3.588722	0.267318	-4.501132	-0.851881	0.362009	0.096604
-5.740483	3.74668	20.849629	-155.456472	-180.971225	31.356926	0.318727	-0.128013	-0.430162	1.362538	-0.669636	8.82398	10.840858	-13.37197	-2.395204	0.156102	0	-0.168109	9.25367	0.791649	-1.003377	-4.423013	1.900609	-5.828089	-0.719703	0.33779	0.111414
-7.569905	4.794207	21.220272	-155.497734	-161.507449	33.044038	0.302008	-0.128283	-0.44932	1.592856	-0.269778	9.122617	10.012154	-13.270928	-0.720666	0.174113	-0.012008	-0.168109	9.308702	0.617321	-1.117224	-4.303313	3.282753	-5.951257	-0.804274	0.348579	0.128195
-9.873601	4.969583	20.770269	-158.167852	-133.03663	34.063496	0.284906	-0.148066	-0.449213	1.203569	-0.211902	9.46891	8.303109	-13.272635	0.083044	0.168109	-0.024016	-0.180117	8.911794	0.328898	-1.06933	-3.906621	4.51867	-6.314229	-0.786905	0.352024	0.110242
-12.508761	5.081744	18.059635	-172.305886	-101.387247	34.447238	0.317317	-0.146399	-0.429057	2.234748	-0.846303	10.138588	5.659265	-13.96631	1.772548	0.162106	-0.018012	-0.162106	9.243989	0.557698	-1.518258	-3.72419	5.272401	-7.401232	-0.785152	0.329266	0.13658
-15.182266	5.602636	16.331687	-208.761553	-82.156487	34.210089	0.287343	-0.130806	-0.432158	1.61069	-0.786933	10.008533	9.452283	-15.692042	2.543803	0.150098	0	-0.168109	9.249051	0.848494	-1.231483	-3.790475	7.376509	-6.777498	-0.835885	0.342192	0.134545
-16.174758	6.530308	15.505086	-226.205136	-85.258979	36.209423	0.383811	-0.16483	-0.33316	1.829098	-1.130557	9.541488	8.070846	-17.398379	2.979024	0.168109	0.006004	-0.162106	9.941176	-0.193429	-0.880147	-5.453217	8.725152	-4.065009	-0.817663	0.318126	0.160019
-16.697605	8.387616	15.268012	-217.063889	-108.487413	35.25139	0.316553	-0.185423	-0.390528	1.724475	-0.67279	10.069504	4.976241	-19.312278	5.162849	0.174113	-0.006004	-0.144094	9.439823	0.447347	-0.259378	-8.714274	9.417572	-5.96432	-0.752214	0.32665	0.134854
-17.436107	10.297823	12.830687	-187.266351	-139.034429	29.436067	0.373038	-0.232741	-0.419542	1.839005	-0.444165	10.189271	0.80013	-21.93649	4.620992	0.162106	-0.006004	-0.168109	9.149806	0.852139	-0.491537	-6.257345	10.604384	-5.428094	-0.801621	0.330574	0.137443
