1824_acc_x	1824_acc_y	1824_acc_z	1824_gyro_x	1824_gyro_y	1824_gyro_z	1824_mag_x	1824_mag_y	1824_mag_z	1825_acc_x	1825_acc_y	1825_acc_z	1825_gyro_x	1825_gyro_y	1825_gyro_z	1825_mag_x	1825_mag_y	1825_mag_z	1826_acc_x	1826_acc_y	1826_acc_z	1826_gyro_x	1826_gyro_y	1826_gyro_z	1826_mag_x	1826_mag_y	1826_mag_z
-4.3011	1.601	9.0895	-0.2663	-0.1161	0.3084	0.2879	-1.0776	-2.4912	4.7053	0.8759	9.0375	-0.1058	1.0806	-0.0673	0.1141	-0.072	-0.9546	9.6981	0.7678	1.6144	-1.2771	0.7956	-0.2934	-1.5587	0.0969	-0.1873
-4.2451	0.7875	8.8088	-0.2351	-0.0544	0.2478	1.468	-0.271	-1.1428	4.3562	0.7601	8.7375	-0.1351	1.0187	-0.036	0.036	-0.2281	-0.1681	9.5279	0.7111	1.6112	-0.965	0.7031	-0.2113	-1.3323	-0.8109	0.1613
-4.4911	0.7915	8.5126	-0.2981	-0.0545	0.1256	1.4842	-0.2535	-1.1579	4.8143	0.2415	8.6854	-0.2578	0.9547	-0.1271	0.03	-0.2402	-0.1441	9.2987	0.8251	1.4927	-0.9595	0.9748	-0.0557	-1.3482	-0.8112	0.161
-4.6119	1.1418	8.506	-0.2659	0.0683	0.0663	1.4643	-0.2344	-1.1752	4.3521	1.2195	8.5638	-0.2578	0.923	-0.2191	0.018	-0.2281	-0.1681	9.4691	0.6542	1.4957	-0.8597	1.0935	0.1574	-1.3642	-0.8304	0.1778
-4.3078	1.1392	8.6865	-0.3922	-0.0241	-0.0571	1.4657	-0.2917	-1.1937	4.6954	0.8736	8.5103	-0.1981	1.0163	-0.22	0.018	-0.2522	-0.1681	9.3524	0.7111	1.322	-0.4926	0.8824	0.0218	-1.4109	-0.7924	0.2136
-4.4256	0.7877	8.8056	-0.1706	0.222	0.0685	1.444	-0.2543	-1.2271	4.4168	0.7608	8.9144	-0.0425	0.9246	-0.2818	0.012	-0.2342	-0.1681	9.8616	1.1654	1.2745	-0.7544	0.8584	-0.4315	-1.3473	-0.791	0.2149
-4.1876	1.2558	8.6872	-0.2715	-0.2677	0.0591	1.5022	-0.2543	-1.1569	4.6966	0.7588	8.5684	-0.0398	0.8327	-0.1891	0.018	-0.2462	-0.1741	9.5324	0.4838	1.84	-0.7252	0.6154	-0.465	-1.3156	-0.7907	0.1978
-4.0077	0.9645	8.6356	-0.0797	0.1006	0.0954	1.5002	-0.2555	-1.1904	4.2925	1.2766	8.4458	-0.2882	0.9232	-0.1575	0.024	-0.2462	-0.1621	9.7446	1.5066	1.1009	-0.8778	0.7058	-0.3983	-1.3808	-0.8691	0.1763
-4.2495	0.9655	8.573	-0.1719	0.0072	0.2791	1.4651	-0.2533	-1.1757	4.582	0.8165	8.5664	-0.4681	0.7055	-0.0936	0.024	-0.2342	-0.1561	9.6385	1.3933	1.4994	-0.7147	0.6714	-0.1269	-1.3477	-0.7732	0.1445
-4.2515	1.6082	8.5065	-0.2632	0.1902	0.1304	1.4471	-0.2525	-1.1768	4.472	0.7027	8.798	-0.2837	0.8019	0.0891	0.024	-0.2462	-0.1681	9.2975	0.9388	1.4356	-0.7229	0.7363	-0.4027	-1.3479	-0.8293	0.2137
-4.5527	1.0257	8.4502	-0.2951	0.1288	0.1295	1.4659	-0.2722	-1.1763	4.631	1.1597	8.159	-0.4051	0.6761	-0.0016	0.024	-0.2402	-0.1681	9.6978	1.0521	1.6146	-0.8249	0.8319	-0.7061	-1.3478	-0.8105	0.1965
-4.2508	1.083	8.5131	-0.1713	0.2223	0.007	1.445	-0.2537	-1.2103	4.8192	0.5879	8.9799	-0.3432	0.6453	-0.0633	0.018	-0.2402	-0.1621	9.41	0.9386	1.3804	-0.5584	0.8537	-0.0994	-1.363	-0.7725	0.1975
-4.1868	1.4301	8.7434	-0.3565	0.1281	0.161	1.4115	-0.212	-1.1441	4.6386	1.219	8.5693	-0.4338	0.6785	0.2751	0.012	-0.2342	-0.1741	9.7521	0.4832	1.4435	-0.5304	1.0989	-0.2212	-1.3955	-0.8115	0.1956
-4.311	1.1414	8.5113	-0.3276	0.1292	-0.0238	1.4296	-0.2901	-1.1958	4.3539	0.8171	8.6206	-0.5258	0.4876	-0.1842	0.03	-0.2402	-0.1621	9.1909	1.2804	1.8344	-0.5517	0.881	0.1157	-1.3476	-0.7917	0.1794
-4.0037	1.1366	8.867	-0.2624	0.313	0.0101	1.4871	-0.3485	-1.1777	4.873	0.702	8.8057	-0.4991	0.7367	-0.0322	0.036	-0.2402	-0.1741	9.5904	1.1094	1.956	-0.4208	1.0302	0.3281	-1.348	-0.8109	0.1788
-4.1857	1.371	8.8025	-0.3252	0.3127	-0.0814	1.4657	-0.2917	-1.1937	4.7024	0.5875	8.8605	-0.3461	0.7686	-0.0947	0.018	-0.2402	-0.1681	9.8095	0.8244	1.5021	-0.5105	0.8458	0.4522	-1.3158	-0.791	0.18
-4.545	0.8455	8.8612	-0.3245	0.374	-0.1108	1.462	-0.2551	-1.2261	4.5341	1.1065	9.0938	-0.528	0.6437	-0.0315	0.018	-0.2342	-0.1681	9.4641	0.5403	1.2094	-0.2621	0.7846	0.475	-1.3639	-0.8297	0.2134
-4.6102	1.4322	8.6192	-0.1395	0.1607	0.1898	1.4489	-0.2708	-1.1606	4.7571	0.8745	8.7457	-0.3721	0.5204	-0.1546	0.018	-0.2402	-0.1681	9.6978	1.0521	1.6146	-0.012	0.9664	0.5305	-1.3466	-0.7711	0.2511
-4.3704	1.3158	8.5665	-0.2302	0.3742	0.0418	1.4662	-0.2527	-1.159	4.6436	0.8749	8.8021	-0.5583	0.6439	0.0302	0.024	-0.2342	-0.1681	9.9218	0.938	1.447	-0.1724	0.969	0.3509	-1.364	-0.83	0.1956
-4.3155	1.3194	8.2755	-0.0762	0.2529	0.191	1.501	-0.2744	-1.191	4.523	1.1614	8.5083	-0.5512	0.3672	0.1854	0.03	-0.2402	-0.1681	9.5853	1.0523	1.6698	-0.14	1.1511	0.3821	-1.3476	-0.7917	0.1794
-4.1867	1.3718	8.7441	-0.1679	0.4054	0.0417	1.4285	-0.2134	-1.1599	4.6408	1.2195	8.6865	-0.7368	0.4598	0.3703	0.024	-0.2402	-0.1981	9.5745	1.3362	1.0977	0.1394	1.0899	0.404	-1.3475	-0.7729	0.1622
-4.2466	1.1384	8.746	0.0439	0.1018	0.0939	1.4494	-0.3092	-1.1785	4.8118	1.1039	8.6307	-0.8001	0.4571	0.1556	0.024	-0.2522	-0.1621	9.5843	0.9954	1.6125	0.3182	0.9713	0.1826	-1.38	-0.8304	0.1953
-4.737	1.4367	8.2667	-0.2023	0.0989	0.1892	1.4633	-0.235	-1.1919	4.695	1.1036	8.5113	-0.649	0.6453	0.2765	0.012	-0.2342	-0.1741	9.2444	1.394	1.6638	0.6533	1.035	-0.0113	-1.3475	-0.7913	0.1972
-4.9096	1.0816	8.6767	-0.1446	-0.1448	0.1832	1.501	-0.2744	-1.191	4.7612	1.0481	8.9808	-0.6539	0.8297	0.1525	0.018	-0.2462	-0.1801	10.0361	1.1085	1.5065	0.5826	0.9172	-0.2866	-1.3162	-0.8102	0.1794
-4.4297	1.4319	8.6223	-0.2391	-0.1758	0.0607	1.4615	-0.2167	-1.2081	4.6393	0.8164	8.5675	-0.7131	0.7369	0.2149	0.03	-0.2221	-0.1741	9.5831	1.166	1.5554	0.3994	1.1292	-0.218	-1.3488	-0.8496	0.1598
-4.4921	1.5502	8.503	0.1037	-0.0505	0.1514	1.4667	-0.2911	-1.1769	4.6385	1.2765	8.5696	-0.6508	0.643	0.0307	0.018	-0.2462	-0.1801	9.7499	1.3931	1.387	0.425	1.2232	-0.4024	-1.3639	-0.8297	0.2134
-4.1872	0.9056	8.6916	0.0701	-0.2343	0.1786	1.4646	-0.2923	-1.2105	4.9857	1.1617	8.7514	-0.7453	0.7666	0.1227	0.024	-0.2342	-0.1861	9.5271	1.3936	1.6118	0.4903	1.0997	-0.2824	-1.3479	-0.8293	0.2137
-4.3714	1.2582	8.5088	0.0765	0.0707	0.3081	1.4644	-0.3117	-1.2278	4.4718	0.8177	8.7985	-0.8078	0.8284	0.1842	0.018	-0.2342	-0.1681	9.6954	1.2795	1.5003	0.5269	1.0971	-0.0992	-1.3328	-0.8304	0.1429
-4.0145	1.2607	8.2816	0.1374	-0.0206	0.3669	1.4461	-0.2531	-1.1936	4.6976	0.8741	8.6275	-0.6548	0.8603	0.1216	0.03	-0.2281	-0.1681	9.5148	1.2224	0.9249	0.6134	1.1611	-0.3163	-1.3482	-0.8112	0.161
-4.3047	1.1954	8.861	0.0759	0.0709	0.2466	1.4471	-0.2525	-1.1768	4.6401	0.9892	8.6269	-0.5314	0.8933	0.2129	0.018	-0.2281	-0.1741	9.6418	1.2229	1.671	0.7367	1.3137	-0.3495	-1.3478	-0.8105	0.1965
-4.3044	0.9619	8.8639	0.2283	-0.0497	0.2421	1.4502	-0.328	-1.1791	4.644	0.5874	8.8008	-0.6233	0.8297	0.1216	0.024	-0.2462	-0.1801	9.9173	1.2222	1.2183	0.6593	1.4588	0.1456	-1.38	-0.8304	0.1953
-4.4887	1.3729	8.6804	0.1069	0.0404	0.3071	1.4641	-0.2539	-1.1925	4.9909	0.7026	8.9837	-0.686	0.8912	0.1524	0.012	-0.2462	-0.1621	9.5779	1.1658	1.2692	0.556	1.4332	-0.1895	-1.316	-0.7914	0.1623
-4.4262	1.1963	8.8005	0.0102	-0.0819	0.1211	1.4113	-0.2315	-1.1615	4.5843	1.3924	8.7448	-0.808	0.8281	0.1535	0.03	-0.2462	-0.1741	9.9248	1.0519	1.6188	0.236	1.4075	-0.5182	-1.3646	-0.8496	0.1772
-4.5517	1.0834	8.5078	0.1676	-0.02	0.305	1.4659	-0.2722	-1.1763	4.7582	0.8748	8.8043	-0.655	0.9236	0.2749	0.03	-0.2402	-0.1561	9.6388	1.109	1.4992	0.2641	1.3784	-0.6114	-1.2994	-0.7712	0.1987
-4.3078	1.0808	8.6873	0.0421	-0.082	0.213	1.4296	-0.2901	-1.1958	4.5836	1.1621	8.6851	-0.5947	0.9224	0.0902	0.024	-0.2402	-0.1561	9.642	1.0523	1.6708	0.1358	1.1366	-0.7324	-1.395	-0.792	0.214
-4.1374	1.5541	8.159	0.1057	0.0101	0.2449	1.4826	-0.2157	-1.1568	4.5898	0.7608	8.9762	-0.5975	1.0458	0.0587	0.042	-0.2281	-0.1861	9.6974	1.3365	1.6149	0.061	1.234	-1.1596	-1.3632	-0.7913	0.2146
-4.1279	0.7895	8.6357	-0.1709	0.1298	0.1895	1.502	-0.2738	-1.1743	4.585	0.9898	8.7429	-0.439	0.8307	0.0284	0.018	-0.2402	-0.1681	9.632	0.7106	1.0982	-0.0204	1.2896	-0.788	-1.3161	-0.8287	0.2144
-4.9731	1.2006	8.499	-0.017	0.0393	0.2779	1.4662	-0.2527	-1.159	4.8665	1.3334	8.5157	-0.5967	0.9834	-0.0024	0.03	-0.2402	-0.1681	9.5781	0.9383	1.2691	0.1095	1.1344	-0.578	-1.3469	-0.7718	0.2156
-4.5393	1.308	9.2057	-0.079	0.1003	0.1569	1.4479	-0.2714	-1.1774	4.4048	0.7005	8.2697	-0.5325	0.9554	0.2433	0.03	-0.2221	-0.1741	9.6326	1.1087	1.1558	0.3972	1.0388	-0.2801	-1.3479	-0.8293	0.2137
-4.2479	1.3142	8.6854	-0.0152	0.2231	0.1588	1.4448	-0.2732	-1.2277	4.2412	0.9904	8.7363	-0.4691	0.8312	0.1207	0.024	-0.2522	-0.1741	9.3526	1.4505	1.3798	0.3635	1.0706	-0.3711	-1.4115	-0.7934	0.1603
-4.3113	1.3165	8.5091	0.0148	0.193	0.127	1.4272	-0.2334	-1.194	4.466	0.989	8.5064	-0.5304	0.7994	0.0905	0.012	-0.2402	-0.1741	9.9207	0.9379	1.3898	0.3078	1.2505	-0.1836	-1.3791	-0.7917	0.2143
-4.0629	1.136	8.9244	-0.2935	0.2205	0.1315	1.4479	-0.2714	-1.1774	4.5896	0.8758	8.9767	-0.6483	0.678	0.4607	0.018	-0.2221	-0.1621	9.7514	1.0519	1.444	0.3802	1.3066	0.1527	-1.3634	-0.7732	0.1619
-4.4926	1.084	8.4505	-0.1411	0.0998	0.127	1.4115	-0.2893	-1.1968	4.5912	1.2214	9.0955	-0.5903	0.7057	0.0607	0.018	-0.2221	-0.1741	9.8677	1.2794	1.6179	0.3138	1.3696	0.0016	-1.3476	-0.7917	0.1794
-4.3034	0.9612	8.9223	0.0145	0.1932	0.0963	1.4461	-0.2531	-1.1936	4.7515	0.8732	8.4528	-0.7732	0.6747	0.2464	0.018	-0.2281	-0.1621	9.7503	1.1088	1.3868	0.0745	1.3351	0.285	-1.3326	-0.8485	0.1956
-4.4248	0.9621	8.8618	-0.169	0.2828	0.1313	1.4466	-0.2915	-1.2115	4.3572	0.8179	8.7963	-0.8666	0.7044	0.216	0.036	-0.2281	-0.1621	9.8618	1.0517	1.2744	0.0124	1.2742	0.2864	-1.3634	-0.7917	0.1968
-4.1249	0.9624	8.8087	-0.1729	0.0691	0.0959	1.4631	-0.2545	-1.2093	4.7581	0.9323	8.8046	-0.5883	0.6448	0.1533	0.018	-0.2462	-0.1681	9.6406	1.3934	1.6139	0.1359	1.4878	0.2537	-1.3639	-0.8112	0.1785
-4.1286	1.3148	8.6291	-0.262	0.282	0.1017	1.5198	-0.294	-1.1906	4.989	1.22	8.9274	-0.7433	0.7056	0.2153	0.036	-0.2522	-0.1801	9.357	1.2232	1.6085	0.1305	1.2465	0.0982	-1.3471	-0.8091	0.2676
-4.2476	1.0808	8.6883	-0.2339	0.1912	-0.0237	1.4494	-0.3092	-1.1785	4.6409	1.162	8.6862	-0.4661	0.6764	0.0909	0.024	-0.2342	-0.1801	9.6401	0.9384	1.5563	0.0144	1.3038	0.348	-1.3482	-0.7928	0.1261
-4.6135	0.7347	8.3944	-0.3266	0.1288	0.0684	1.4278	-0.2718	-1.2119	4.6365	1.161	8.4519	-0.5009	0.8615	0.09	0.018	-0.2281	-0.1681	9.867	1.0519	1.5605	0.0103	1.2143	0.2245	-1.3161	-0.8287	0.2144
-4.3678	0.9642	8.6877	-0.2387	-0.1759	0.0914	1.4667	-0.2911	-1.1769	4.6938	1.1609	8.453	-0.5328	0.8916	0.0285	0.012	-0.2221	-0.1741	9.8554	1.1651	0.9311	-0.3902	1.2437	0.2982	-1.3476	-0.7917	0.1794
-4.6049	1.3701	8.9119	-0.1744	-0.0225	0.094	1.4999	-0.275	-1.2078	4.8165	0.8749	8.864	-0.4778	1.1695	-0.0656	0.018	-0.2402	-0.1681	9.8019	1.0516	1.1016	-0.6017	1.3935	0.4593	-1.2996	-0.79	0.2159
-4.4874	1.1971	8.741	-0.4838	-0.0562	0.0971	1.4484	-0.3098	-1.1953	4.4701	1.1625	8.7415	-0.3502	1.0174	0.0575	0.018	-0.2342	-0.1741	9.9838	0.8813	1.7342	-0.5153	1.4271	0.2419	-1.3478	-0.7921	0.1616
-4.1907	1.1996	8.5127	-0.0822	-0.0522	0.0922	1.4471	-0.2525	-1.1768	4.8152	1.0472	8.8062	-0.3829	1.0465	-0.0962	0.024	-0.2281	-0.1801	9.9228	0.938	1.5043	-0.6884	1.2832	-0.3379	-1.3466	-0.7527	0.2162
-4.4215	0.8432	9.0385	-0.1431	-0.1147	0.2761	1.4839	-0.273	-1.1753	4.6361	0.7581	8.3915	-0.4141	1.0774	-0.0654	0.012	-0.2402	-0.1801	9.3017	0.9389	1.6645	-0.6286	1.1928	-0.4018	-1.3481	-0.8297	0.1959
-4.3078	1.1392	8.6865	-0.0828	-0.0827	0.0915	1.4832	-0.2541	-1.1747	4.6413	0.9319	8.6852	-0.3179	0.8926	-0.0956	0.018	-0.2402	-0.1621	9.8072	0.995	1.3877	-0.7832	1.2536	-0.3967	-1.3153	-0.7715	0.1984
-4.3747	1.3771	8.3321	-0.1757	-0.022	-0.029	1.4612	-0.2362	-1.2255	4.1833	0.7027	8.6754	-0.4403	0.8607	-0.064	0.012	-0.2342	-0.1861	9.6409	1.1091	1.6136	-0.7844	1.1627	-0.4282	-1.363	-0.7725	0.1975
-4.6141	1.2016	8.3885	-0.361	-0.0239	-0.0267	1.4858	-0.2913	-1.1591	4.6425	0.8747	8.7435	-0.5346	0.9846	0.0587	0.006	-0.2342	-0.1561	9.407	0.8247	1.2086	-0.7919	1.1967	-0.6735	-1.3312	-0.7718	0.1981
-4.4854	1.254	8.8571	-0.1425	0.0389	0.0949	1.4487	-0.2903	-1.178	4.5349	0.6464	9.0918	-0.1917	0.8341	0.1191	0.03	-0.2462	-0.1861	9.8038	1.2223	1.2162	-0.974	1.134	-0.5456	-1.3485	-0.8304	0.1604
-4.3091	1.315	8.6259	-0.3607	0.0375	-0.0869	1.4821	-0.2547	-1.1915	4.2994	1.1056	8.7965	-0.3822	1.0474	-0.004	0.024	-0.2342	-0.1921	9.5867	1.6211	1.7847	-0.8512	1.104	-0.5803	-1.3634	-0.7917	0.1968
-4.7304	1.3156	8.6185	-0.3614	-0.0852	0.0334	1.4819	-0.2742	-1.2088	4.6338	0.7576	8.2744	-0.1972	1.0175	-0.0971	0.024	-0.2342	-0.1681	9.5237	0.711	1.3823	-0.8184	1.1032	-0.5198	-1.3634	-0.7732	0.1619
-4.725	1.1952	8.912	-0.3604	-0.0241	0.0348	1.4852	-0.2529	-1.1412	4.3589	1.106	8.9148	-0.2587	0.9854	-0.158	0.024	-0.2281	-0.1801	9.406	0.7678	1.1513	-0.8842	1.0745	-0.641	-1.3642	-0.8304	0.1778
-4.1935	1.668	8.3901	-0.2009	0.2214	0.1303	1.4272	-0.2334	-1.194	4.5893	1.0484	8.9775	-0.2279	0.9539	-0.2502	0.012	-0.2221	-0.1741	9.1837	0.3133	1.3758	-0.8877	1.1371	-0.7633	-1.3321	-0.8105	0.1791
-4.3068	1.1385	8.7449	-0.3003	-0.0843	-0.0288	1.4984	-0.2372	-1.2066	4.4165	0.9334	8.9151	-0.1651	0.956	-0.0969	0.024	-0.2221	-0.1801	9.5256	0.8817	1.4969	-0.8571	1.0154	-0.7652	-1.3644	-0.8492	0.195
-4.25	1.3157	8.5686	-0.4218	-0.0249	0.0663	1.4463	-0.311	-1.2289	4.2942	0.9317	8.5029	-0.1338	0.9569	-0.0356	0.018	-0.2402	-0.1561	9.6977	1.109	1.6147	-1.1017	1.1053	-0.6649	-1.3636	-0.792	0.1791
-4.251	1.2581	8.5109	-0.4533	-0.1173	0.1569	1.4466	-0.2142	-1.1588	4.8193	1.2208	9.0413	-0.1642	0.9254	-0.066	0.018	-0.2281	-0.1681	9.6977	0.2559	1.5568	-0.6693	1.0754	-0.7088	-1.3635	-0.8105	0.214
-4.8443	1.1946	8.9683	-0.2034	0.0687	0.1271	1.4468	-0.272	-1.1941	4.6378	1.0462	8.51	-0.3769	0.8001	-0.0026	0.024	-0.2402	-0.1681	9.5282	1.3367	1.669	-0.9786	1.1666	-0.6989	-1.3158	-0.791	0.18
-4.1876	1.1974	8.6879	-0.2684	-0.0844	0.063	1.519	-0.2752	-1.19	4.529	0.8751	8.7999	-0.2596	1.016	-0.1889	0.024	-0.2402	-0.1801	9.8168	0.8247	1.9027	-0.735	1.0772	-0.8298	-1.3478	-0.8105	0.1965
-4.3701	1.1408	8.5687	-0.1751	-0.1453	0.2143	1.5017	-0.2933	-1.1916	4.5312	0.8757	8.9171	-0.2857	0.8629	-0.0035	0.006	-0.2342	-0.1921	9.8592	1.4497	1.1602	-0.4699	1.252	-0.2832	-1.3476	-0.8102	0.2143
-4.2531	1.2595	8.3941	-0.0827	-0.0212	0.0006	1.4644	-0.3117	-1.2278	4.583	0.8743	8.6253	-0.3474	0.8622	-0.0031	0.03	-0.2462	-0.1801	9.4716	1.2231	1.6678	-0.6016	1.1337	-0.526	-1.348	-0.8109	0.1788
-4.3673	1.372	8.7409	-0.2996	-0.0846	0.0327	1.4651	-0.2533	-1.1757	4.8704	0.9316	8.6896	-0.3174	0.8932	-0.0342	0.03	-0.2281	-0.1741	9.7505	0.9382	1.3867	-0.7567	1.3471	-0.5504	-1.332	-0.829	0.214
-4.6169	0.912	8.217	-0.0517	-0.1132	0.152	1.4309	-0.27	-1.1616	4.7626	0.8758	9.0386	-0.473	0.8898	-0.2176	0.018	-0.2462	-0.1681	9.6369	0.9952	1.3846	-0.8175	1.4075	-0.5174	-1.3483	-0.83	0.1782
-4.1335	1.0266	8.3408	-0.3597	-0.0244	0.0962	1.4458	-0.2726	-1.2109	4.7635	0.9911	9.0977	-0.2593	1.0481	-0.0662	0.012	-0.2342	-0.1741	9.6416	0.5973	1.6132	-0.8754	1.1618	-0.364	-1.3321	-0.7921	0.1442
-4.6716	1.4913	8.559	-0.1733	-0.0538	0.247	1.4427	-0.2744	-1.2612	4.53	0.9329	8.8587	-0.3492	0.8917	-0.1569	0.042	-0.2161	-0.1801	10.0869	0.8807	1.1639	-0.9702	1.4674	-0.4509	-1.3634	-0.7917	0.1968
-3.8277	0.5564	8.5855	-0.4208	0.0362	0.0676	1.485	-0.2724	-1.1585	4.9808	0.8153	8.457	-0.5337	0.954	0.0896	0.024	-0.2342	-0.1861	9.7535	1.052	1.5584	-0.973	1.4688	-0.543	-1.3321	-0.8105	0.1791
-4.3127	1.609	8.4471	-0.3901	0.0673	0.0064	1.4306	-0.2895	-1.179	4.5285	1.1627	8.8012	-0.3492	0.9235	-0.0649	0.018	-0.2221	-0.1501	10.2617	1.3925	1.4536	-0.9352	1.2522	-0.3	-1.3471	-0.7722	0.1978
-4.3646	0.962	8.8629	-0.2657	0.0375	0.1272	1.4105	-0.2899	-1.2136	4.6938	1.1609	8.453	-0.3772	0.7362	-0.2173	0.024	-0.2522	-0.1741	9.9263	0.6538	1.6757	-1.1424	1.2782	0.0137	-1.3641	-0.8116	0.1607
-3.6475	0.848	8.585	-0.2042	0.0997	0.0047	1.4484	-0.2324	-1.1426	4.6404	0.8167	8.6261	-0.3428	0.614	-0.0938	0.018	-0.2402	-0.1741	9.645	0.313	1.7847	-1.089	1.2517	-0.2647	-1.3309	-0.7527	0.1987
-4.0704	1.2578	8.5141	-0.4813	0.2504	-0.1423	1.4641	-0.2539	-1.1925	4.5306	1.2207	8.9186	-0.3437	0.6129	-0.2167	0.024	-0.2281	-0.1801	9.5277	0.8817	1.6114	-0.9541	1.1856	0.0995	-1.3165	-0.8294	0.1788
-4.5532	0.6179	8.3969	-0.3583	0.0981	0.0374	1.4484	-0.3098	-1.1953	4.1826	1.1052	8.6772	-0.2797	0.6164	0.0902	0.024	-0.2342	-0.1741	9.5802	0.9384	1.3835	-0.8397	1.1901	-0.2112	-1.316	-0.8098	0.1972
-4.3069	1.1968	8.7442	-0.2326	0.1907	0.0993	1.4813	-0.2358	-1.1909	4.3474	1.391	8.3303	-0.2514	0.7089	0.028	0.03	-0.2402	-0.1741	9.8704	0.8245	1.732	-0.6322	1.2554	-0.5242	-1.331	-0.7715	0.2159
-4.4806	0.8425	9.0958	-0.2968	0.0065	0.1576	1.4821	-0.2547	-1.1915	4.6383	0.7586	8.5087	-0.2509	0.7095	0.0894	0.03	-0.2342	-0.1741	9.5843	0.9954	1.6125	-0.5357	1.1928	-0.4046	-1.3476	-0.7917	0.1794
-4.5435	1.311	8.9721	-0.2043	-0.0233	0.1866	1.4839	-0.273	-1.1753	4.8767	1.1632	9.0421	-0.282	0.6771	-0.0331	0.018	-0.2342	-0.1681	9.5331	0.7682	1.8974	-0.6277	1.1924	-0.3712	-1.3793	-0.792	0.1965
-3.8859	1.4297	8.7487	-0.1155	-0.1745	0.0592	1.4272	-0.2334	-1.194	4.236	0.8166	8.4427	-0.2256	0.8932	-0.1269	0.018	-0.2281	-0.1741	9.7537	0.8814	1.5583	-0.6989	1.2271	-0.676	-1.3639	-0.8297	0.2134
-3.9522	1.2591	8.3994	-0.2078	-0.1756	0.0911	1.4989	-0.2756	-1.2246	4.4791	1.0496	9.2096	-0.1565	0.5541	-0.0946	0.024	-0.2342	-0.1681	9.6401	0.9384	1.5563	-0.7178	1.1606	-0.2765	-1.3482	-0.8112	0.161
-4.0047	1.079	8.8094	-0.0173	0.1009	0.1562	1.4631	-0.2545	-1.2093	4.4136	0.7025	8.7384	-0.3476	0.8619	-0.0338	0.024	-0.2342	-0.1681	9.2964	0.9956	1.3784	-0.7807	1.161	-0.3054	-1.3478	-0.8105	0.1965
-4.7376	1.1456	8.2119	-0.0788	0.0387	0.2786	1.4476	-0.2909	-1.1947	4.8726	0.9321	8.8068	-0.3756	0.7383	-0.0022	0.024	-0.2402	-0.1561	9.6926	0.9951	1.3284	-0.6626	1.1332	-0.4935	-1.3647	-0.8499	0.1595
-3.8879	1.3728	8.6326	-0.2967	0.1295	-0.0242	1.4296	-0.2901	-1.1958	4.6388	1.104	8.5688	-0.4346	0.5822	-0.0931	0.03	-0.2522	-0.1681	9.7522	1.2226	1.5013	-0.4803	1.2264	-0.6211	-1.3635	-0.8105	0.214
-4.4316	0.5003	8.4589	-0.2919	0.2813	0.1943	1.4479	-0.2714	-1.1774	4.6388	1.104	8.5688	-0.2196	0.6786	0.0587	0.03	-0.2342	-0.1801	9.9253	1.45	1.6763	-0.3778	1.3133	-0.3162	-1.3637	-0.7924	0.1613
-4.2499	1.2573	8.5693	0.0737	-0.0204	0.1832	1.4667	-0.2911	-1.1769	4.581	0.7587	8.5076	-0.5542	0.4269	-0.03	0.036	-0.2281	-0.1741	9.6397	1.2796	1.5565	-0.4081	1.2216	-0.2853	-1.3952	-0.7924	0.1962
-4.2508	1.083	8.5131	-0.1067	0.2525	0.2221	1.4677	-0.2905	-1.1602	4.7529	1.3913	8.5723	-0.5242	0.5215	0.1229	0.024	-0.2342	-0.1621	10.0919	1.0515	1.4502	-0.4714	1.0698	-0.3154	-1.3319	-0.8102	0.1969
-4.3039	1.3114	8.9179	-0.2063	-0.0224	0.0021	1.4466	-0.2915	-1.2115	4.645	0.6452	8.8597	-0.6462	0.4584	0.124	0.03	-0.2402	-0.1741	9.6992	0.711	1.6716	-0.3095	1.2494	-0.1037	-1.3319	-0.8102	0.1969
-4.3591	0.7832	9.1571	-0.2961	0.1292	0.0373	1.3956	-0.2873	-1.1643	4.8692	0.9888	8.6313	-0.6173	0.5832	0.2153	0.018	-0.2402	-0.1801	9.8653	1.5637	1.5037	-0.222	1.3129	-0.2901	-1.3642	-0.8304	0.1778
-4.3105	1.5492	8.5646	-0.3236	0.2506	0.1633	1.4667	-0.2911	-1.1769	4.6402	0.9317	8.6266	-0.6167	0.4569	-0.0606	0.024	-0.2281	-0.1621	9.7574	1.2797	1.7875	-0.4389	1.252	-0.2841	-1.3476	-0.8102	0.2143
-4.2446	1.2537	8.8613	-0.2932	0.2203	0.1622	1.4262	-0.234	-1.2108	4.7574	0.6444	8.7447	-0.4656	0.677	0.1523	0.024	-0.2462	-0.1741	9.293	1.1661	1.2068	-0.4005	1.2485	-0.0395	-1.3317	-0.7914	0.1797
-4.001	1.4262	9.0386	-0.0813	0.1013	-0.0583	1.4471	-0.2525	-1.1768	4.2448	0.8186	8.9113	-0.4967	0.6446	0.0298	0.012	-0.2342	-0.1801	9.975	1.279	1.2766	-0.4977	1.3724	-0.1892	-1.3953	-0.8112	0.2134
-4.2481	1.4893	8.6832	-0.0784	0.1001	0.2184	1.428	-0.2523	-1.1946	4.416	1.2209	8.9164	-0.3419	0.5834	-0.0629	0.036	-0.2281	-0.1621	9.7997	1.1653	0.9873	-0.4904	1.2776	0.0556	-1.3483	-0.83	0.1782
-4.2505	0.9079	8.5153	-0.0472	0.1002	0.2488	1.4657	-0.2917	-1.1937	4.3615	0.8765	9.0309	-0.2762	0.494	0.2138	0.012	-0.2342	-0.1561	9.5252	1.2229	1.4972	-0.2401	0.9411	0.1683	-1.349	-0.8684	0.1769
-4.6652	1.4869	8.9094	-0.017	0.0393	0.2779	1.4844	-0.234	-1.1406	4.4187	0.9339	9.0323	-0.4942	0.5524	0.0918	0.012	-0.2281	-0.1561	9.9803	1.1655	1.5627	-0.1831	1.1568	-0.016	-1.3644	-0.8307	0.1601
-4.0036	1.0199	8.8685	-0.0824	-0.0828	0.1223	1.4651	-0.2533	-1.1757	4.7555	1.1618	8.6884	-0.5559	0.5518	0.0922	0.03	-0.2462	-0.1681	9.4792	0.939	2.0682	-0.3474	1.1307	-0.3186	-1.3483	-0.8116	0.1432
-4.1252	1.1375	8.8065	-0.0783	0.1616	0.1275	1.4481	-0.2519	-1.16	4.2362	0.7015	8.4421	-0.4652	0.614	0.0298	0.03	-0.2342	-0.1621	9.5853	1.0523	1.6698	-0.4091	1.1916	-0.3162	-1.3478	-0.8105	0.1965
-4.3112	2.0161	8.5587	-0.201	0.2522	0.0695	1.4133	-0.2303	-1.1279	4.1785	0.9317	8.4421	-0.5876	0.6139	0.1534	0.03	-0.2221	-0.1801	9.6409	1.1659	1.6137	-0.287	1.2533	-0.3809	-1.3642	-0.8304	0.1778
-4.3091	1.315	8.6259	-0.0493	0.1319	0.0035	1.4476	-0.2909	-1.1947	4.2959	1.2198	8.6213	-0.5869	0.583	0.1536	0.012	-0.2462	-0.1741	9.7521	1.2795	1.5014	-0.3478	1.2833	-0.3481	-1.395	-0.792	0.214
-4.0632	1.3694	8.9214	-0.0757	0.222	0.2826	1.503	-0.2732	-1.1575	4.8079	0.7578	8.3948	-0.2818	0.6774	-0.0024	0	-0.2402	-0.1741	9.4677	0.9954	1.4387	-0.2502	1.0068	-0.1688	-1.3324	-0.8297	0.1785
-4.4908	1.3744	8.5636	-0.1442	-0.022	0.0321	1.4623	-0.2356	-1.2087	4.6975	1.5645	8.6891	-0.439	0.8307	0.0284	0.018	-0.2402	-0.1561	9.3532	0.9386	1.3794	-0.1588	1.1295	-0.232	-1.3475	-0.7913	0.1972
-4.1265	1.3717	8.7452	-0.1415	0.1	0.0962	1.4633	-0.235	-1.1919	4.2384	0.7021	8.5593	-0.5304	0.7994	0.0905	0.036	-0.2462	-0.1741	9.3613	1.1096	1.8374	-0.0672	1.0386	-0.2662	-1.3307	-0.7523	0.2165
-4.4941	1.4349	8.3877	-0.2684	-0.0229	-0.0279	1.4641	-0.2539	-1.1925	4.6384	0.6436	8.5082	-0.5942	0.8912	0.0596	0.036	-0.2402	-0.1741	9.6948	0.9383	1.4428	-0.096	1.1291	-0.2032	-1.3322	-0.8294	0.1963
-4.2508	1.083	8.5131	-0.205	-0.0845	0.216	1.4293	-0.2323	-1.1604	4.4789	1.1646	9.2102	-0.557	0.6457	0.2145	0.03	-0.2221	-0.1681	9.9275	1.3363	1.7907	0.1444	1.1935	-0.4557	-1.3478	-0.8105	0.1965
-3.9447	1.1956	8.8089	0.0443	0.0094	0.2764	1.4659	-0.2722	-1.1763	5.044	1.2769	8.8116	-0.5605	0.7682	0.0909	0.024	-0.2281	-0.1861	9.6916	0.9381	1.2712	-0.0644	1.3117	-0.2027	-1.3483	-0.83	0.1782
-4.0646	0.8456	8.8112	0.0749	0.0713	0.1544	1.468	-0.271	-1.1428	4.2975	0.9325	8.6786	-0.4661	0.6764	0.0909	0.012	-0.2281	-0.1681	9.4708	0.9955	1.6104	0.0218	1.2843	-0.4206	-1.3479	-0.8293	0.2137
-4.1867	1.3718	8.7441	-0.1401	0.1609	0.1283	1.4298	-0.2706	-1.1784	4.6372	1.3913	8.5115	-0.4674	0.7064	-0.0015	0.03	-0.2462	-0.1921	9.7512	1.1657	1.4441	-0.2238	1.3442	-0.3513	-1.3639	-0.8297	0.2134
-4.3039	1.3697	8.9172	-0.1085	0.0687	0.3411	1.503	-0.2732	-1.1575	4.5793	1.1035	8.4506	-0.2849	0.8005	-0.0646	0.024	-0.2342	-0.1621	9.6329	0.8244	1.1556	-0.4688	1.3124	-0.252	-1.3646	-0.8496	0.1772
-4.5444	1.1366	8.9159	-0.1101	0.0693	0.1874	1.4473	-0.233	-1.1594	4.6479	0.9335	9.0367	-0.6854	0.8285	0.0605	0.024	-0.2281	-0.1741	9.1882	0.9391	1.6624	-0.3535	1.2859	-0.5322	-1.3317	-0.7914	0.1797
-4.3147	0.7358	8.2829	0.0099	-0.0818	0.0904	1.4832	-0.2541	-1.1747	4.523	1.1614	8.5083	-0.4973	0.7073	0.1216	0.024	-0.2221	-0.1561	9.9303	0.8246	1.9048	-0.1067	1.2865	-0.5704	-1.3334	-0.8872	0.1766
-4.2464	1.0217	8.7475	-0.1098	0.0692	0.2182	1.485	-0.2724	-1.1585	4.2987	0.8753	8.7369	-0.6235	0.7976	-0.0011	0.024	-0.2402	-0.1741	9.5248	0.711	1.4395	-0.0713	1.2234	-0.4183	-1.3318	-0.7729	0.1448
-4.371	0.9664	8.5125	-0.0188	0.0708	0.0633	1.4837	-0.2925	-1.1927	4.7041	0.9331	8.9792	-0.6197	0.7072	0.2453	0.012	-0.2221	-0.1621	9.6958	0.9383	1.5001	-0.0091	1.01	-0.3911	-1.3314	-0.7722	0.1803
-4.3069	1.2552	8.7435	-0.1123	-0.0221	0.1239	1.4654	-0.2338	-1.1584	4.5297	1.1054	8.8595	-0.5605	0.7682	0.0909	0.012	-0.2462	-0.1861	9.5269	0.7111	1.554	-0.1244	1.0364	-0.1109	-1.365	-0.8875	0.1938
-4.488	0.8476	8.687	-0.3306	-0.1464	0.124	1.4295	-0.2128	-1.1431	4.3483	0.8734	8.328	-0.4093	0.8613	-0.0335	0.03	-0.2462	-0.1741	9.7407	1.2221	0.8718	-0.3159	1.0086	-0.2898	-1.3475	-0.7913	0.1972
-4.4316	1.2583	8.5078	-0.0484	0.1623	0.0349	1.4285	-0.2134	-1.1599	4.3544	1.1625	8.6807	-0.3822	0.9838	-0.188	0.018	-0.2402	-0.1621	10.0326	1.3927	1.335	-0.2472	1.0664	-0.0763	-1.348	-0.8109	0.1788
-4.4902	1.6654	8.6184	-0.0482	0.0391	0.2475	1.4108	-0.2704	-1.1962	4.3617	0.7614	9.0304	-0.1622	0.8326	-0.0655	0.03	-0.2281	-0.1681	9.6909	0.7106	1.2137	-0.6237	0.9467	-0.2196	-1.3487	-0.8492	0.1775
-4.0663	1.3132	8.747	-0.2284	0.3427	0.2563	1.4657	-0.2917	-1.1937	4.6405	0.7591	8.6259	-0.4088	0.8619	0.028	0.036	-0.2281	-0.1681	10.0849	0.8237	1.0494	-0.5897	1.0367	-0.1277	-1.3319	-0.8102	0.1969
-4.3064	0.8467	8.7486	0.0761	0.1631	0.1256	1.4994	-0.2366	-1.1899	4.4724	1.1055	8.8584	-0.3145	0.8016	0.0893	0.024	-0.2522	-0.1681	9.809	1.1657	1.5023	-0.5888	1.0363	-0.097	-1.3158	-0.791	0.18
-4.2484	0.9064	8.6321	0.042	0.1642	-0.1815	1.4272	-0.2334	-1.194	4.4755	0.5884	8.9733	-0.3106	0.6161	0.0903	0.018	-0.2402	-0.1681	9.1344	1.053	1.8331	-0.6142	1.0032	0.0879	-1.3316	-0.791	0.1975
-4.5513	1.5495	8.5604	-0.1089	0.1611	0.1586	1.4463	-0.2336	-1.1762	4.5271	1.335	8.7434	-0.4342	0.5828	-0.0317	0.024	-0.2402	-0.1741	9.4706	1.1662	1.6106	-0.8339	1.2483	-0.0265	-1.3319	-0.8102	0.1969
-4.3692	1.1984	8.6263	-0.2373	0.0081	-0.0584	1.4835	-0.3119	-1.21	4.5838	1.0471	8.6846	-0.3135	0.6759	-0.1251	0.012	-0.2402	-0.1621	9.1868	1.1665	1.6053	-0.7115	1.0966	-0.0621	-1.3805	-0.8129	0.107
-4.675	0.9106	8.3327	-0.1094	0.1921	0.067	1.4463	-0.2336	-1.1762	4.5292	0.7601	8.7994	-0.1915	0.8026	0.0578	0.024	-0.2342	-0.1741	10.0367	0.6536	1.5061	-0.8022	1.187	0.0028	-1.3166	-0.8482	0.196
-4.1295	1.1988	8.5722	-0.1089	0.2226	0.0677	1.4471	-0.2525	-1.1768	4.472	0.7027	8.798	-0.19	0.6774	-0.0951	0.006	-0.2402	-0.1681	9.6398	1.1659	1.5564	-0.3974	1.0337	0.0816	-1.3793	-0.792	0.1965
-4.6732	1.1426	8.4466	-0.3558	0.2508	0.0407	1.4623	-0.2356	-1.2087	4.6964	0.9313	8.5691	-0.1942	0.8308	-0.2189	0.03	-0.2342	-0.1681	9.8167	0.8816	1.9027	-0.6508	1.0058	-0.0954	-1.3316	-0.791	0.1975
-4.1866	1.255	8.7456	-0.2673	0.0382	-0.0266	1.4811	-0.2553	-1.2083	4.2379	0.9896	8.5606	-0.1593	0.7093	-0.034	0.024	-0.2462	-0.1741	9.7003	0.6541	1.7288	-0.8978	0.914	-0.058	-1.3325	-0.867	0.2306
-4.2477	1.1391	8.6876	-0.2339	0.1297	0.0673	1.486	-0.2718	-1.1418	4.7093	1.107	9.2729	-0.1895	0.678	-0.0337	0.036	-0.2342	-0.1681	9.6349	0.9382	1.2701	-0.8974	1.0357	-0.0571	-1.3473	-0.791	0.2149
-4.6692	1.3148	8.678	-0.2655	0.1297	0.0061	1.4306	-0.2895	-1.179	4.1914	1.1073	9.1458	-0.2818	0.6774	-0.0024	0.048	-0.2342	-0.1801	9.6388	1.1659	1.4992	-0.84	1.0988	-0.2119	-1.3162	-0.8102	0.1794
-4.3057	1.1377	8.8033	-0.2672	0.0073	0.0343	1.4675	-0.31	-1.1775	4.5278	0.9324	8.7416	-0.1942	0.8626	-0.1269	0.024	-0.2342	-0.1681	9.6461	1.1662	1.8998	-0.8978	0.914	-0.058	-1.3336	-0.8876	0.1589
-4.3053	0.8459	8.807	-0.2346	0.13	0.0058	1.4657	-0.2917	-1.1937	4.6409	1.162	8.6862	-0.2239	0.8002	-0.1571	0.018	-0.2402	-0.1741	9.5272	1.2798	1.6117	-0.9153	1.0136	-0.6405	-1.3473	-0.7725	0.18
-3.8263	1.0802	8.6957	-0.359	0.0983	-0.0241	1.4651	-0.2533	-1.1757	4.4157	0.7606	8.8558	-0.225	0.8941	-0.0347	0.018	-0.2342	-0.1561	9.7016	1.2798	1.8437	-0.6532	1.1288	-0.1865	-1.3312	-0.7718	0.1981
-3.7673	1.1976	8.6369	-0.2364	-0.0538	0.1248	1.4126	-0.2887	-1.18	4.3515	0.9316	8.504	-0.0125	0.9555	-0.3129	0.024	-0.2402	-0.1681	9.296	0.4268	1.3207	-0.9955	1.16	-0.2375	-1.3637	-0.8109	0.1962
-4.669	1.1397	8.6802	-0.3924	-0.0547	-0.027	1.4811	-0.2553	-1.2083	4.4067	0.8735	8.3876	-0.1977	1.0169	-0.1585	0.024	-0.2342	-0.1681	9.4139	1.1094	1.6095	-0.7489	1.1301	-0.2758	-1.3478	-0.829	0.2315
-4.0108	0.9083	8.4612	-0.2985	-0.0543	0.0948	1.4479	-0.2714	-1.1774	4.6395	0.6439	8.5668	-0.3845	1.0763	-0.2193	0.024	-0.2342	-0.1861	9.5274	1.1661	1.6116	-0.4339	1.0667	-0.1014	-1.3476	-0.8102	0.2143
-4.4877	1.3722	8.7388	-0.1712	0.1299	0.1587	1.4646	-0.2923	-1.2105	4.8641	0.7575	8.3374	-0.2576	0.955	-0.0964	0.036	-0.2281	-0.1801	9.5339	0.9389	1.9548	-0.4336	0.8533	-0.0724	-1.3155	-0.7719	0.1806
-4.0639	1.1367	8.866	-0.2073	-0.0835	0.0008	1.411	-0.2509	-1.1788	4.1261	1.2781	8.7354	-0.1952	0.9883	0.0874	0.012	-0.2342	-0.1681	9.6985	1.3365	1.6721	-0.4034	0.9146	-0.1035	-1.3636	-0.7736	0.1441
-4.1876	1.1974	8.6879	-0.2998	-0.1153	0.0628	1.4821	-0.2547	-1.1915	4.6338	0.8151	8.2746	-0.228	1.049	-0.0049	0.018	-0.2342	-0.1741	9.868	1.0519	1.6178	-0.3784	0.7955	-0.2896	-1.363	-0.791	0.2324
-4.1894	1.0238	8.5733	-0.1748	-0.1454	0.2451	1.4484	-0.3098	-1.1953	4.7129	0.9352	9.4479	-0.1653	1.0193	0.0564	0.018	-0.2221	-0.1621	10.1442	1.2788	1.2225	-0.5314	0.7641	-0.2238	-1.3639	-0.8297	0.2134
-4.365	1.2538	8.8592	-0.2949	-0.0558	0.433	1.4484	-0.2324	-1.1426	4.6966	0.8163	8.5686	-0.4457	1.0762	-0.1574	0.03	-0.2342	-0.1621	10.1036	0.8814	2.0797	-0.2583	0.8277	-0.4158	-1.3316	-0.791	0.1975
-4.2421	0.9604	8.9818	-0.2402	-0.2061	-0.0015	1.4829	-0.2736	-1.1921	4.586	1.0476	8.8018	-0.2913	1.0781	-0.1276	0.012	-0.2342	-0.1501	9.5909	0.7113	1.9557	-0.3841	1.0725	-0.5023	-1.3805	-0.8499	0.1769
-4.0061	1.3132	8.748	-0.1122	-0.0529	0.1848	1.4839	-0.273	-1.1753	4.4165	0.9334	8.9151	-0.3254	1.2323	-0.1283	0.024	-0.2462	-0.1861	9.6407	1.3366	1.6138	-0.5057	1.1933	-0.4362	-1.332	-0.829	0.214
-4.1296	1.2572	8.5714	-0.1122	-0.0529	0.1848	1.445	-0.2537	-1.2103	4.354	0.7596	8.6203	-0.5039	1.0164	0.1198	0.024	-0.2342	-0.1801	9.3529	1.223	1.3796	-0.4032	0.9755	-0.103	-1.3481	-0.8297	0.1959
-4.0758	1.3198	8.2214	0.0728	-0.1124	0.2427	1.4298	-0.2706	-1.1784	4.5283	0.6448	8.7403	-0.5044	0.984	-0.0336	0.006	-0.2402	-0.1621	9.5852	1.1092	1.6698	-0.6862	1.0688	-0.2475	-1.3792	-0.8105	0.2315
-4.3652	1.3705	8.8577	-0.1157	-0.2052	0.0893	1.4659	-0.2722	-1.1763	4.5266	0.9896	8.6833	-0.5348	0.9843	0.028	0.018	-0.2522	-0.1681	9.4107	1.1661	1.4378	-0.5296	1.068	-0.1907	-1.3801	-0.8307	0.1775
-4.606	1.4292	8.8528	-0.265	0.0987	0.0977	1.5022	-0.2543	-1.1569	5.1623	0.9899	8.9883	-0.3474	0.8622	-0.0031	0.024	-0.2402	-0.1681	9.5156	1.3931	0.9822	-0.7138	0.9453	-0.1247	-1.3165	-0.8478	0.2137
-4.247	0.6722	8.6935	-0.2362	-0.0232	0.0947	1.4803	-0.2364	-1.2077	4.4142	0.9904	8.7982	-0.4681	0.7373	-0.0016	0.03	-0.2281	-0.1621	9.3547	1.3937	1.4942	-0.7246	0.798	-0.4636	-1.3322	-0.8294	0.1963
-4.2486	1.0231	8.6307	-0.2082	-0.237	0.1512	1.4649	-0.2728	-1.1931	4.5804	1.1038	8.5091	-0.5009	0.8615	0.09	0.024	-0.2281	-0.1741	9.354	1.1662	1.4368	-0.9585	1.0048	-0.0247	-1.3474	-0.8098	0.2321
-4.2499	1.199	8.5701	-0.0789	0.131	0.1268	1.4458	-0.1953	-1.1582	4.5769	1.218	8.3339	-0.2578	0.9547	-0.1271	0.018	-0.2462	-0.1801	9.5835	0.8248	1.5551	-0.8605	1.1244	0.1269	-1.3166	-0.8482	0.196
-4.3727	1.434	8.4482	-0.2343	0.0683	0.1274	1.4806	-0.2169	-1.1903	4.4143	0.9328	8.798	-0.4139	1.0459	-0.1267	0.024	-0.2342	-0.1621	9.2369	1.5074	1.2633	-0.7474	1.0075	-0.2154	-1.3475	-0.7729	0.1622
-4.732	0.9085	8.5069	-0.2058	-0.1149	0.1846	1.4291	-0.2517	-1.1778	4.8113	1.3915	8.632	-0.262	1.1081	-0.2509	0.024	-0.2342	-0.1621	9.5214	0.9383	1.268	-0.9644	1.2209	-0.2379	-1.3478	-0.8105	0.1965
-4.6111	1.3162	8.5622	-0.145	-0.1139	0.0916	1.468	-0.271	-1.1428	4.4738	0.9333	8.9162	-0.2605	1.0466	-0.2198	0.018	-0.2402	-0.1741	9.7478	1.4499	1.2726	-0.8717	1.1601	-0.2412	-1.3479	-0.8293	0.2137
-4.5463	1.0213	8.8006	0.0128	0.0708	0.1244	1.4432	-0.2354	-1.2265	4.9881	1.0472	8.8681	-0.4403	0.8607	-0.064	0.024	-0.2402	-0.1621	9.5802	0.9384	1.3835	-0.6415	0.971	0.2113	-1.3789	-0.7729	0.1971
-4.3693	1.3151	8.6249	-0.2369	-0.0844	0.1242	1.4442	-0.2348	-1.2097	4.8131	0.2988	8.6271	-0.504	0.9528	-0.0642	0.024	-0.2281	-0.1741	9.7558	0.8815	1.6728	-0.6778	1.0649	0.0288	-1.3476	-0.7917	0.1794
-4.1949	1.1442	8.2799	-0.0816	0.0091	0.0627	1.4288	-0.2712	-1.1952	4.1843	1.3933	8.7956	-0.3454	0.8013	0.0894	0.024	-0.2342	-0.1801	9.5194	0.8814	1.1535	-0.4611	1.065	0.0223	-1.3478	-0.8105	0.1965
-4.673	1.0259	8.448	-0.079	0.1618	0.066	1.5007	-0.2939	-1.2084	4.5219	1.1611	8.4497	-0.4935	0.5533	0.184	0.024	-0.2462	-0.1681	9.4669	0.8248	1.3814	-0.6768	1.0645	0.0595	-1.3318	-0.7729	0.1448
-4.1838	0.7867	8.8682	-0.0485	0.1008	0.1258	1.4633	-0.235	-1.1919	4.4742	0.7032	8.9152	-0.3718	0.6161	0.1522	0.006	-0.2402	-0.1681	9.5256	0.8817	1.4969	-0.4706	1.0389	-0.2849	-1.3326	-0.8301	0.1607
-4.0706	1.3745	8.5126	-0.1422	0.0387	0.1256	1.4463	-0.2336	-1.1762	4.4252	0.9929	9.384	-0.4328	0.5527	0.0607	0.018	-0.2281	-0.1681	9.7565	1.109	1.7302	-0.9928	1.1283	-0.1456	-1.3321	-0.7921	0.1442
-4.2482	0.7313	8.6343	-0.0785	0.1309	0.1576	1.4461	-0.2531	-1.1936	4.2418	0.6453	8.7348	-0.3744	0.7715	0.2434	0.018	-0.2522	-0.1741	9.5269	0.7111	1.554	-0.9906	1.2187	-0.0835	-1.3646	-0.8496	0.1772
-4.2486	1.0231	8.6307	-0.0538	-0.0816	-0.0934	1.4662	-0.2527	-1.159	4.1887	0.7615	8.9685	-0.5321	0.8606	0.0287	0.024	-0.2281	-0.1561	9.5318	0.9388	1.8403	-1.0904	1.1304	-0.2963	-1.3637	-0.8109	0.1962
-4.4901	0.8491	8.5702	-0.1716	0.0071	0.3098	1.4633	-0.235	-1.1919	4.1737	1.1607	8.2088	-0.7198	0.9506	-0.0629	0.006	-0.2221	-0.1741	9.4675	1.1092	1.4388	-1.0215	0.9443	-0.0541	-1.3153	-0.7715	0.1984
-4.303	1.4274	8.9749	-0.2372	-0.0843	0.0934	1.4834	-0.2346	-1.1573	4.7528	0.7584	8.5109	-0.4115	0.9856	0.0273	0.012	-0.2402	-0.1741	9.699	0.8816	1.6717	-0.7415	1.0962	-0.0305	-1.3321	-0.7921	0.1442
-4.3727	1.434	8.4482	-0.1114	0.0699	0.0644	1.4659	-0.2722	-1.1763	4.6427	0.7597	8.743	-0.5011	0.8613	0.0593	0.018	-0.2342	-0.1741	9.9724	0.8239	1.1046	-0.5266	1.0971	-0.0984	-1.3476	-0.8102	0.2143
-4.0659	1.0214	8.7506	-0.1703	0.2834	0.0083	1.4829	-0.2736	-1.1921	4.808	1.3907	8.4563	-0.378	0.8304	-0.0642	0.018	-0.2402	-0.1741	9.8138	0.654	1.7309	-0.3903	1.1828	0.2977	-1.3796	-0.7927	0.161
-4.376	1.553	8.2715	-0.1445	-0.0218	0.0013	1.4479	-0.2714	-1.1774	4.1187	1.1038	8.3246	-0.4988	0.8006	0.1825	0.018	-0.2342	-0.1801	9.5199	1.2795	1.2111	-0.5104	1.181	0.4242	-1.3487	-0.8492	0.1775
-4.2486	1.0231	8.6307	-0.2003	0.3135	0.0401	1.5041	-0.2726	-1.1407	4.1839	0.9905	8.7352	-0.4348	0.6455	0.0602	0.03	-0.2402	-0.1681	9.4764	1.5076	1.9542	-0.6431	1.0632	0.1507	-1.3321	-0.8105	0.1791
-4.4261	1.1379	8.8012	-0.1393	0.1913	0.1597	1.445	-0.2537	-1.2103	4.8741	0.7023	8.8643	-0.4019	0.5849	0.1525	0.03	-0.2342	-0.1621	9.5284	1.1661	1.6688	-0.6433	1.0023	0.1502	-1.331	-0.79	0.2508
-4.3624	0.9022	8.9804	-0.1077	0.2529	0.1299	1.4643	-0.2344	-1.1752	4.6952	0.9886	8.5108	-0.5889	0.6439	0.0611	0.024	-0.2342	-0.1681	9.7609	0.9386	1.959	-0.7678	1.0635	0.1237	-1.3163	-0.829	0.1966
-4.0701	1.0244	8.517	-0.015	0.2538	0.1287	1.4659	-0.2722	-1.1763	4.529	0.8751	8.7999	-0.6156	0.4584	0.0931	0.036	-0.2342	-0.1801	9.4129	1.0524	1.5522	-0.7292	1.1209	0.3688	-1.3795	-0.7924	0.1787
-4.1867	1.3718	8.7441	-0.0464	0.223	0.1284	1.5036	-0.3115	-1.1754	4.6499	1.049	9.1544	-0.5226	0.4917	0.246	0.018	-0.2342	-0.1681	9.3015	1.0527	1.6646	-0.8495	1.3326	0.4663	-1.3485	-0.8304	0.1604
-4.1885	1.0814	8.631	-0.2313	0.1901	0.2223	1.4283	-0.2328	-1.1772	4.6981	1.2194	8.6876	-0.6801	0.6129	0.154	0.018	-0.2402	-0.1681	9.354	1.1662	1.4368	-0.5813	1.3071	0.12	-1.3476	-0.7917	0.1794
-4.0098	1.7239	8.5677	-0.1703	0.2219	0.0992	1.4311	-0.2505	-1.1443	5.0968	1.2757	8.5784	-0.5572	0.6772	0.2758	0.018	-0.2281	-0.1681	9.6944	1.2226	1.4431	-0.5794	1.0319	0.21	-1.331	-0.7715	0.2159
-4.7878	1.5469	8.7897	-0.1422	-0.0228	0.2166	1.4659	-0.2722	-1.1763	4.8101	0.7583	8.512	-0.5282	0.6434	-0.0622	0.018	-0.2402	-0.1681	9.9733	0.9377	1.1619	-0.3651	1.155	0.1123	-1.3487	-0.8492	0.1775
-3.9489	1.1986	8.5753	-0.3241	0.2815	0.0717	1.5028	-0.2927	-1.1749	4.7036	1.2207	8.9805	-0.6224	0.7673	0.0605	0.03	-0.2342	-0.1681	9.9203	1.336	1.3901	-0.179	0.972	0.136	-1.3625	-0.753	0.2158
-4.3122	1.2589	8.4515	-0.08	0.1007	0.0647	1.4267	-0.2724	-1.2287	4.184	0.933	8.735	-0.6242	0.8603	0.0907	0.018	-0.2281	-0.1681	9.9274	1.4501	1.7908	-0.1196	1.0647	0.0428	-1.3795	-0.7924	0.1787
-4.6655	0.9624	8.8576	-0.1677	0.2208	0.3452	1.4649	-0.2728	-1.1931	4.6383	0.7586	8.5087	-0.5647	0.9534	0.0591	0.018	-0.2281	-0.1621	9.8627	1.1654	1.3317	-0.3134	1.1903	-0.2269	-1.3469	-0.7718	0.2156
-4.3671	1.1969	8.7431	-0.0828	-0.1442	0.1824	1.5174	-0.2374	-1.1888	4.5293	0.7026	8.7991	-0.5372	1.0765	-0.034	0.036	-0.2342	-0.1681	9.9814	1.1655	1.6199	-0.3751	0.9768	-0.1961	-1.3322	-0.8478	0.2312
-4.2471	1.4886	8.7416	-0.0875	-0.3883	0.1157	1.5182	-0.2563	-1.1894	4.8724	1.1046	8.8075	-0.4771	1.1704	0.0266	0.036	-0.2402	-0.1621	9.7033	0.768	1.9006	-0.2518	1.099	-0.2295	-1.3633	-0.8102	0.2318
-4.6085	0.9645	8.6834	-0.1412	0.0383	0.2179	1.4623	-0.2356	-1.2087	4.6406	0.6441	8.6253	-0.3864	1.2326	-0.0358	0.03	-0.2342	-0.1741	9.7057	0.4838	2.0148	-0.5053	1.0407	-0.4068	-1.3492	-0.8687	0.1592
-4.249	1.3733	8.6263	-0.0524	-0.1129	0.0905	1.486	-0.2718	-1.1418	4.4094	0.5865	8.5035	-0.5099	1.2946	0.1182	0.024	-0.2281	-0.1621	9.5241	1.2797	1.44	-0.3759	1.0077	-0.2265	-1.3322	-0.8294	0.1963
-4.426	1.0795	8.8019	-0.0222	-0.2354	0.2105	1.4319	-0.2694	-1.1449	4.2997	0.933	8.7958	-0.6647	1.2922	0.0269	0.036	-0.2462	-0.1741	9.802	0.9379	1.1015	-0.409	1.222	-0.316	-1.3326	-0.8301	0.1607
-4.131	1.5497	8.5094	-0.0549	-0.2657	0.0872	1.4832	-0.2541	-1.1747	4.4039	0.5852	8.2106	-0.5705	1.2001	-0.0038	0.018	-0.2342	-0.1681	9.5314	1.28	1.8406	-0.2496	1.1894	-0.1674	-1.3475	-0.7913	0.1972
-4.2498	1.1406	8.5708	-0.2682	-0.0538	0.033	1.4633	-0.235	-1.1919	4.4741	0.7607	8.9155	-0.5417	1.2614	-0.0965	0.024	-0.2462	-0.1561	9.6966	1.109	1.5574	-0.2185	1.2503	-0.1678	-1.3321	-0.8105	0.1791
-3.9432	0.9031	8.871	-0.1743	-0.1149	0.2457	1.4798	-0.1981	-1.1897	4.416	1.2209	8.9164	-0.4421	0.9855	0.0582	0.018	-0.2342	-0.1681	9.6932	1.3932	1.386	-0.2294	1.0725	-0.5069	-1.3642	-0.8304	0.1778
-4.0033	0.7864	8.8714	-0.2048	-0.0538	0.1859	1.502	-0.2738	-1.1743	4.5285	1.1627	8.8012	-0.3833	1.1095	0.0264	0.03	-0.2281	-0.1801	9.2436	1.1664	1.6064	-0.3187	1.0099	-0.3819	-1.2994	-0.7896	0.2337
-4.5513	1.5495	8.5604	-0.1438	-0.1759	0.3055	1.4471	-0.2525	-1.1768	4.4142	0.9904	8.7982	-0.4758	1.1086	0.0269	0.012	-0.2342	-0.1741	9.8082	0.995	1.445	-0.2842	0.9168	-0.2607	-1.3319	-0.8102	0.1969
-4.0043	1.5451	8.8619	-0.0528	-0.2358	0.2416	1.4643	-0.2344	-1.1752	4.5872	0.9903	8.8601	-0.4735	1.0479	0.1502	0.018	-0.2281	-0.1621	9.8613	1.4497	1.2747	-0.2553	0.8569	-0.3235	-1.3476	-0.7917	0.1794
-4.3048	1.2537	8.8603	-0.0173	0.0394	0.2471	1.4479	-0.2714	-1.1774	4.8137	1.277	8.7486	-0.476	1.1083	-0.0038	0.03	-0.2402	-0.1621	9.6352	0.7107	1.2699	-0.3178	0.979	-0.3514	-1.3163	-0.8105	0.1616
-4.3717	0.7337	8.457	-0.0832	-0.0517	-0.0001	1.4858	-0.2913	-1.1591	4.7011	0.7598	8.8027	-0.5969	0.9513	-0.1251	0.03	-0.2281	-0.1501	9.5299	0.7681	1.7258	-0.348	0.9177	-0.3203	-1.3791	-0.7917	0.2143
-4.2433	1.0195	8.9227	-0.0521	-0.1746	0.2121	1.48	-0.1786	-1.1724	5.037	0.815	8.3995	-0.4745	0.9832	-0.1567	0.024	-0.2342	-0.1801	9.865	0.9949	1.446	-0.376	0.9772	-0.2268	-1.3478	-0.7921	0.1616
-4.1249	0.9624	8.8087	-0.267	-0.1158	0.2469	1.4793	-0.237	-1.2244	4.357	0.9329	8.7969	-0.4122	0.9847	-0.0649	0.03	-0.2522	-0.1621	9.9249	0.9381	1.6187	-0.2456	0.9742	-0.0156	-1.3478	-0.8105	0.1965
-4.0744	1.0857	8.2827	-0.1452	-0.1446	0.1217	1.4631	-0.2545	-1.2093	4.8692	0.9888	8.6313	-0.537	1.1085	0.0887	0.024	-0.2342	-0.1681	9.6408	1.2228	1.6137	-0.3056	0.9733	0.0477	-1.3471	-0.7722	0.1978
-4.0637	0.9616	8.8682	-0.2384	-0.176	0.1222	1.4476	-0.2909	-1.1947	4.3528	1.4498	8.6234	-0.5035	0.9534	-0.0027	0.03	-0.2281	-0.1561	9.6329	0.8813	1.1556	-0.3966	0.9724	0.1118	-1.3324	-0.8112	0.1436
-4.3671	1.2553	8.7424	-0.2056	-0.0227	0.0636	1.428	-0.2523	-1.1946	4.5223	0.9311	8.4487	-0.5973	1.0461	0.0895	0.024	-0.2402	-0.1741	9.706	1.1094	2.0725	-0.3298	1.0311	0.2639	-1.3319	-0.7917	0.1619
-4.493	1.3758	8.4468	-0.2327	0.1292	0.1902	1.5177	-0.2179	-1.1715	4.6965	0.8738	8.5689	-0.6865	0.9224	0.1829	0.024	-0.2402	-0.1681	9.929	0.9952	1.8477	-0.42	1.3041	0.3303	-1.3476	-0.7917	0.1794
-4.1308	1.3746	8.5116	-0.2058	-0.0534	0.0937	1.4643	-0.2344	-1.1752	4.4699	1.2776	8.742	-0.5024	0.9549	0.1509	0.03	-0.2281	-0.1861	9.8686	0.5401	1.6174	-0.5429	0.9988	0.393	-1.3314	-0.7722	0.1803
-4.1286	1.3148	8.6291	-0.1113	-0.0225	0.2162	1.4811	-0.2553	-1.2083	4.7039	1.0482	8.9797	-0.6262	0.9212	-0.0018	0.018	-0.2402	-0.1741	9.5271	0.5405	1.5539	-0.7316	0.9392	0.306	-1.3791	-0.7917	0.2143
-4.2513	1.4915	8.508	-0.1433	0.0085	0.0635	1.4481	-0.2519	-1.16	4.644	0.5874	8.8008	-0.3225	1.109	-0.0969	0.024	-0.2221	-0.1801	9.5241	1.2797	1.44	-0.7334	0.9705	0.2448	-1.3302	-0.7328	0.2349
-4.4255	1.4873	8.8552	-0.2063	-0.0224	0.0021	1.4445	-0.2154	-1.1924	4.8648	0.9878	8.397	-0.3183	1.0192	0.2109	0.006	-0.2281	-0.1561	9.8069	1.2224	1.3879	-0.8337	1.0044	0.0022	-1.3636	-0.792	0.1791
-4.427	1.0219	8.7443	-0.2664	0.0378	0.0657	1.4641	-0.2539	-1.1925	4.701	0.8173	8.803	-0.4155	1.1075	-0.1578	0.036	-0.2221	-0.1681	9.8066	0.5968	1.3302	-0.8692	1.037	-0.1501	-1.3317	-0.7914	0.1797
-4.1248	0.904	8.8094	-0.1738	0.0695	0.0037	1.4839	-0.273	-1.1753	4.4689	0.5869	8.6218	-0.317	0.862	-0.0647	0.012	-0.2342	-0.1681	9.4099	0.9954	1.3804	-0.434	1.0363	-0.1016	-1.3483	-0.8485	0.2131
-4.5424	1.2519	9.0312	-0.0501	0.1014	-0.0279	1.502	-0.2738	-1.1743	4.644	0.5874	8.8008	-0.3154	0.8322	0.0584	0.012	-0.2462	-0.1681	9.534	0.8251	1.9547	-0.5888	1.0058	-0.0973	-1.3001	-0.8095	0.1975
-4.3095	1.5485	8.623	0.0137	0.1628	0.0649	1.4437	-0.2738	-1.2445	4.6374	1.2762	8.511	-0.4361	0.7073	0.0598	0.024	-0.2402	-0.1801	9.9319	1.1659	2.0195	-0.4009	1.0963	-0.0407	-1.3482	-0.8112	0.161
-4.6702	1.2571	8.6203	-0.0796	0.0698	0.1563	1.4827	-0.2931	-1.2094	4.3005	1.1058	8.8551	-0.3715	0.6482	0.2749	0.03	-0.2342	-0.1681	9.4705	1.2799	1.6106	-0.5613	1.1293	-0.22	-1.3475	-0.7913	0.1972
-4.7257	0.9625	8.8565	-0.081	-0.1142	0.3061	1.4107	-0.1931	-1.1435	4.3598	0.5884	8.9125	-0.5264	0.6457	0.1836	0.012	-0.2462	-0.1681	9.6895	0.9949	1.1567	-0.5875	1.1271	-0.0656	-1.3317	-0.8098	0.2146
-4.0043	1.5451	8.8619	-0.2343	0.0683	0.1274	1.4625	-0.2161	-1.1913	4.6994	1.1046	8.7457	-0.716	0.8284	0.0915	0.024	-0.2402	-0.1681	10.0303	0.767	1.1628	-0.4707	1.2828	-0.3137	-1.3644	-0.8307	0.1601
-4.1925	0.9676	8.3989	-0.0867	-0.3579	0.1471	1.4688	-0.2899	-1.1434	4.3556	1.1052	8.7391	-0.5632	0.8918	0.0902	0.018	-0.2402	-0.1621	9.7544	1.1089	1.6157	-0.5664	1.2841	-0.403	-1.3479	-0.7736	0.1267
-4.3176	1.3209	8.1587	-0.0525	-0.0821	0.0296	1.4442	-0.2348	-1.2097	4.35	0.5285	8.385	-0.5574	0.6769	0.2451	0.024	-0.2281	-0.1801	9.6367	1.1658	1.3848	-0.5365	1.2541	-0.4348	-1.3471	-0.7722	0.1978
-4.1893	0.9071	8.5748	-0.1766	-0.1754	0.1214	1.4461	-0.2531	-1.1936	4.7569	0.9895	8.7462	-0.5321	0.956	0.3047	0.018	-0.2281	-0.1681	9.6437	1.3936	1.7856	-0.5119	1.0133	-0.6219	-1.3162	-0.8102	0.1794
-4.1885	1.1398	8.6302	0.0089	-0.0814	-0.0019	1.4461	-0.2531	-1.1936	4.9265	0.9887	8.6324	-0.411	0.9861	0.0887	0.024	-0.2402	-0.1621	9.2974	1.0525	1.4356	-0.2854	1.1612	-0.3202	-1.3798	-0.8115	0.1781
-4.4884	1.1394	8.6834	-0.0804	-0.0221	0.2158	1.4612	-0.2362	-1.2255	4.697	1.2191	8.629	-0.3177	0.8929	-0.0649	0.036	-0.2221	-0.1741	9.521	1.2796	1.2683	-0.1258	0.8847	-0.1428	-1.3471	-0.7906	0.2327
-4.6055	1.079	8.8572	0.0119	-0.0826	0.2748	1.4674	-0.2326	-1.1248	4.4101	0.8168	8.5631	-0.5641	0.9225	0.0593	0.024	-0.2402	-0.1621	9.7016	1.3367	1.8438	-0.2881	0.8882	-0.3837	-1.3487	-0.8492	0.1775
-4.6693	1.3731	8.6772	0.0686	-0.2644	0.0857	1.4646	-0.2923	-1.2105	4.4149	1.2207	8.8578	-0.4144	1.0453	-0.1882	0.024	-0.2462	-0.1801	9.4141	0.9956	1.6094	-0.2615	0.9817	-0.5374	-1.3481	-0.8297	0.1959
-4.4915	1.0833	8.5089	-0.021	-0.1436	0.1817	1.4468	-0.272	-1.1941	4.353	1.3347	8.6229	-0.4121	1.0165	0.0271	0.018	-0.2462	-0.1621	9.7548	0.8246	1.6155	-0.2586	1.0108	-0.4451	-1.3478	-0.8105	0.1965
-4.5527	1.0257	8.4502	-0.0511	-0.1135	0.2135	1.4657	-0.2917	-1.1937	4.8721	1.2771	8.8083	-0.3742	0.6764	-0.0018	0.012	-0.2281	-0.1621	9.2969	0.5406	1.378	-0.2276	1.0412	-0.4458	-1.3478	-0.7921	0.1616
-3.9991	0.8419	9.1043	-0.0789	0.0695	0.2178	1.4819	-0.2742	-1.2088	4.6494	0.7037	9.0942	-0.3756	0.7383	-0.0022	0.024	-0.2402	-0.1801	9.6382	0.7677	1.4417	0.0282	0.9461	-0.1776	-1.316	-0.8098	0.1972
-4.1917	1.142	8.4551	-0.0791	-0.0227	0.3388	1.4461	-0.2531	-1.1936	4.4204	1.222	9.1507	-0.3762	0.801	0.0896	0.018	-0.2402	-0.1801	9.5802	0.9384	1.3835	-0.2341	1.0747	-0.6604	-1.3323	-0.8109	0.1613
-4.0656	0.8463	8.7528	-0.0489	-0.0221	0.2769	1.4301	-0.2511	-1.161	4.6416	1.3923	8.7459	-0.4674	0.77	0.1825	0.018	-0.2342	-0.1681	9.3565	0.7682	1.5509	-0.104	0.95	-0.4502	-1.2989	-0.7516	0.2171
-4.6666	0.9631	8.7992	-0.0481	0.1621	0.0656	1.4649	-0.2728	-1.1931	4.4717	0.8752	8.7988	-0.5594	0.7379	0.1525	0.03	-0.2342	-0.1681	9.5802	0.9384	1.3835	-0.19	1.0686	-0.2316	-1.3629	-0.7537	0.1803
-3.8745	0.8388	9.34	0.076	0.1939	0.0648	1.4999	-0.275	-1.2078	4.2909	0.931	8.3271	-0.4068	0.801	0.1205	0.036	-0.2462	-0.1741	9.7566	1.0522	1.7301	0.0871	1.1609	-0.3006	-1.3316	-0.7725	0.1626
-4.3689	1.0233	8.6285	-0.2025	0.0068	0.3102	1.4821	-0.2547	-1.1915	4.8694	0.8738	8.6308	-0.4995	0.7997	0.0904	0.024	-0.2462	-0.1621	9.6269	1.5066	0.8699	-0.2404	1.1242	0.1391	-1.3649	-0.8687	0.1766
-4.0082	1.3146	8.6312	-0.169	0.2213	0.2222	1.4479	-0.2714	-1.1774	4.8172	1.1627	8.9239	-0.4693	0.8627	0.182	0.024	-0.2281	-0.1741	9.5844	0.9385	1.6125	-0.2181	1.0673	-0.1386	-1.3476	-0.7917	0.1794
-4.8452	1.0786	8.9113	-0.1429	-0.0225	0.1551	1.4839	-0.273	-1.1753	4.3015	1.1636	8.914	-0.2842	0.7695	-0.0644	0.03	-0.2221	-0.1861	9.9858	0.9951	1.8487	-0.4389	1.252	-0.2841	-1.3321	-0.8105	0.1791
-4.1261	1.0215	8.7496	-0.1702	0.191	0.1601	1.4803	-0.2364	-1.2077	4.5845	0.587	8.6826	-0.5612	0.7991	0.0907	0.018	-0.2342	-0.1621	9.6983	0.5972	1.6143	-0.5884	1.158	-0.096	-1.3322	-0.8294	0.1963
-4.3685	0.7315	8.6322	-0.1415	0.0385	0.1871	1.444	-0.2543	-1.2271	4.4717	0.8752	8.7988	-0.4683	0.737	-0.0324	0.042	-0.2402	-0.1681	10.0395	0.8812	1.678	-0.4957	1.0972	-0.0993	-1.3485	-0.8304	0.1604
-4.1293	1.0821	8.5736	-0.2954	0.129	0.0988	1.4813	-0.2358	-1.1909	4.7006	0.357	8.7423	-0.5314	0.8933	0.2129	0.03	-0.2462	-0.1801	9.4689	0.8817	1.4959	-0.4636	0.8528	-0.0408	-1.3326	-0.8301	0.1607
-4.3106	0.8496	8.515	-0.2332	0.2524	-0.0531	1.4623	-0.2356	-1.2087	4.4144	0.8753	8.7977	-0.4727	0.9537	-0.0029	0.018	-0.2342	-0.1861	9.5351	0.8252	2.012	-0.5844	0.9123	0.0555	-1.3155	-0.7903	0.2156
-4.1903	0.9078	8.5164	-0.237	0.1617	-0.2703	1.501	-0.2744	-1.191	4.4736	1.0483	8.9167	-0.3183	0.9238	-0.0651	0.036	-0.2402	-0.1681	9.6357	1.1657	1.3275	-0.4325	0.9137	-0.0412	-1.3473	-0.791	0.2149
-4.9108	1.1407	8.6175	-0.2027	0.1914	0.0067	1.4793	-0.237	-1.2244	4.646	1.3933	8.9802	-0.3523	1.0148	-0.2191	0.024	-0.2402	-0.1681	9.6975	1.2227	1.6148	-0.5267	0.7924	-0.0701	-1.3175	-0.8869	0.177
-4.7288	0.9063	8.6821	0.0467	0.1929	0.2189	1.4643	-0.2344	-1.1752	4.476	0.9338	9.0334	-0.3174	0.8932	-0.0342	0.012	-0.2342	-0.1741	9.7018	1.1661	1.8437	-0.441	0.8872	-0.3177	-1.3953	-0.8112	0.2134
-4.3127	0.8511	8.3982	-0.1086	0.161	0.1894	1.4659	-0.2722	-1.1763	4.7538	0.8162	8.5697	-0.2216	0.7395	-0.0338	0.03	-0.2281	-0.1681	9.7522	1.2226	1.5013	-0.4419	1.1924	-0.3767	-1.3478	-0.8105	0.1965
-4.1907	1.1996	8.5127	0.0107	0.1025	-0.1209	1.4463	-0.2336	-1.1762	4.7601	1.0478	8.9222	-0.2791	0.5855	0.0903	0.006	-0.2342	-0.1801	9.7534	1.1089	1.5585	-0.5011	1.1607	-0.283	-1.3639	-0.8112	0.1785
-4.3083	1.4894	8.6821	-0.1698	0.2524	0.0999	1.5203	-0.2551	-1.1559	4.5852	0.8748	8.7424	-0.3734	0.6458	0.0291	0.018	-0.2342	-0.1741	10.0389	1.393	1.6784	-0.6848	1.2206	-0.2156	-1.3475	-0.7913	0.1972
-4.6727	1.5504	8.4999	-0.1074	0.2528	0.1606	1.4288	-0.2712	-1.1952	4.3546	1.0474	8.6802	-0.4002	0.4282	-0.0617	0.024	-0.2101	-0.1681	9.8064	0.7674	1.3303	-0.4034	1.2194	-0.1318	-1.3314	-0.7907	0.2153
-4.4345	1.0854	8.3348	-0.0167	0.193	0.0659	1.4424	-0.2165	-1.2259	4.5249	1.3345	8.6262	-0.494	0.5845	0.2145	0.018	-0.2402	-0.1861	9.7576	1.0522	1.7874	-0.6242	1.0993	-0.2491	-1.3004	-0.8287	0.1969
-4.3111	1.1998	8.5106	-0.0805	0.0702	0.064	1.444	-0.2543	-1.2271	4.7555	1.1618	8.6884	-0.5289	0.6743	-0.0624	0.03	-0.2462	-0.1501	9.5299	0.7681	1.7258	-0.5577	1.0667	-0.0977	-1.3637	-0.8109	0.1962
-4.3647	1.0204	8.8621	-0.2668	-0.0851	0.2168	1.4651	-0.2533	-1.1757	4.4099	0.9318	8.5636	-0.374	0.6767	0.0289	0.018	-0.2402	-0.1861	9.5237	0.711	1.3823	-0.4996	1.038	-0.2226	-1.3317	-0.7914	0.1797
-4.3093	0.6738	8.5756	-0.2026	0.1606	0.0675	1.4468	-0.272	-1.1941	4.4666	0.6439	8.5049	-0.372	0.6158	0.1214	0.018	-0.2342	-0.1741	9.7488	0.5969	1.2719	-0.4423	1.0707	-0.3777	-1.3641	-0.8116	0.1607
-4.4338	1.3765	8.3895	-0.1427	0.0082	0.125	1.4633	-0.235	-1.1919	4.5252	0.4715	8.5638	-0.4689	0.8315	0.1514	0	-0.2281	-0.1681	9.5249	1.4503	1.4974	-0.1988	0.9508	-0.5088	-1.3333	-0.8684	0.1595
-4.0705	1.3162	8.5134	-0.2973	-0.0241	0.157	1.4612	-0.2362	-1.2255	4.2942	0.9317	8.5029	-0.3778	0.8625	0.0585	0.024	-0.2342	-0.1861	9.8632	0.7674	1.3314	-0.5645	1.0089	-0.3131	-1.332	-0.829	0.214
-4.9731	1.1423	8.4997	-0.203	0.1915	-0.0241	1.4638	-0.2734	-1.2099	4.6997	0.9321	8.7449	-0.3172	0.8617	-0.0955	0.012	-0.2221	-0.1621	9.6391	0.8815	1.499	-0.6575	0.948	-0.3108	-1.3637	-0.7924	0.1613
-4.307	1.3136	8.7427	-0.1375	0.2214	0.2833	1.4641	-0.2539	-1.1925	4.4664	0.7589	8.5054	-0.1957	0.9878	0.026	0.024	-0.2342	-0.1741	9.2394	1.2231	1.3775	-0.7833	0.9184	-0.3687	-1.3163	-0.829	0.1966
-4.3081	1.3143	8.6843	-0.2645	0.1293	0.0984	1.4252	-0.2346	-1.2275	4.4147	0.7028	8.7969	-0.3782	0.8619	-0.0029	0.012	-0.2281	-0.1561	9.6316	1.1087	1.0985	-0.7527	1.1014	-0.3989	-1.3324	-0.8297	0.1785
-4.1888	1.3149	8.628	-0.2013	0.2524	0.0388	1.4633	-0.235	-1.1919	4.6393	1.4493	8.629	-0.3121	0.6777	0.0593	0.018	-0.2462	-0.1801	9.5267	0.8817	1.5541	-0.8394	0.9766	-0.1822	-1.3317	-0.7914	0.1797
-4.6067	1.1965	8.7973	-0.2652	0.1295	0.0369	1.4479	-0.2714	-1.1774	4.6422	1.0472	8.7443	-0.4614	0.4918	0.1842	0.018	-0.2281	-0.1621	9.3531	1.0524	1.3795	-0.8411	1.0383	-0.2431	-1.3956	-0.7931	0.1606
-4.1295	1.1988	8.5722	-0.2312	0.3746	-0.0505	1.4471	-0.2525	-1.1768	4.8178	0.7601	8.9221	-0.5856	0.5211	0.154	0.018	-0.2522	-0.1741	9.5824	0.8816	1.498	-0.8377	0.9149	-0.1213	-1.3642	-0.8304	0.1778
-4.374	1.6682	8.3869	-0.294	0.3129	-0.051	1.4659	-0.2722	-1.1763	4.4138	0.5875	8.7378	-0.3687	0.4612	0.1223	0.03	-0.2342	-0.1621	9.579	1.0521	1.3264	-0.7436	1.0058	-0.0926	-1.3324	-0.8297	0.1785
-4.193	1.3178	8.3945	-0.263	0.1594	0.1913	1.519	-0.2752	-1.19	4.4707	0.8175	8.74	-0.4641	0.5836	0.0914	0.012	-0.2402	-0.1741	9.2421	1.5645	1.5495	-0.56	0.9458	-0.1601	-1.3156	-0.7907	0.1978
-4.4294	1.2568	8.6245	-0.1708	0.1913	0.0986	1.4816	-0.2163	-1.1735	4.4674	1.4496	8.6256	-0.4964	0.6449	0.0605	0.03	-0.2221	-0.1921	9.9268	1.1088	1.7333	-0.1179	1.0029	0.1037	-1.3168	-0.8485	0.1782
-4.1261	1.0215	8.7496	-0.1736	0.0079	0.1254	1.4628	-0.274	-1.2267	4.6941	0.9883	8.4522	-0.4044	0.677	0.0905	0.018	-0.2402	-0.1561	9.6422	0.9385	1.6707	-0.1162	0.9412	0.1646	-1.3321	-0.8105	0.1791
-4.2547	0.9108	8.2817	-0.0499	-0.0217	0.1847	1.4319	-0.3467	-1.1975	4.7547	0.989	8.6291	-0.4991	0.7367	-0.0322	0.012	-0.2342	-0.1801	9.928	0.9383	1.7904	0.0296	1.0674	-0.146	-1.3321	-0.8105	0.1791
-3.9506	0.9082	8.4622	-0.1412	0.0383	0.2179	1.4278	-0.2718	-1.2119	4.6409	1.162	8.6862	-0.5929	0.893	0.244	0.036	-0.2402	-0.1681	9.587	1.3368	1.7845	-0.0027	0.9461	-0.1767	-1.3315	-0.8095	0.2324
-4.3721	1.0255	8.4533	-0.0784	0.1001	0.2184	1.5002	-0.2555	-1.1904	4.4738	0.9333	8.9162	-0.3432	0.7088	0.1207	0.036	-0.2402	-0.1681	9.5272	1.2798	1.6117	0.0575	1.0078	-0.2395	-1.3316	-0.791	0.1975
-4.4253	1.3123	8.8574	-0.1134	-0.1446	0.2136	1.4442	-0.2348	-1.2097	4.6973	1.0466	8.6282	-0.6557	0.8909	0.0907	0.006	-0.2402	-0.1741	9.6339	0.8813	1.2128	0.0903	0.9765	-0.1793	-1.3468	-0.7715	0.2333
-4.4894	1.0818	8.6257	-0.2327	0.1292	0.1902	1.4471	-0.2525	-1.1768	4.6424	1.5651	8.8052	-0.4372	0.7694	0.0902	0.018	-0.2342	-0.1861	9.6398	1.2228	1.5565	0.055	1.1004	-0.3309	-1.3473	-0.7725	0.18
-4.1931	1.3762	8.3937	-0.0149	0.223	0.1895	1.4832	-0.2541	-1.1747	4.2986	0.9328	8.7372	-0.5909	0.7367	0.0605	0.018	-0.2281	-0.1741	9.6975	1.2796	1.6148	0.2423	1.0083	-0.2757	-1.3649	-0.8503	0.1417
-4.1244	1.3119	8.8627	-0.0462	0.1613	0.2501	1.4811	-0.2553	-1.2083	4.5178	0.9876	8.2146	-0.4372	0.7694	0.0902	0.012	-0.2462	-0.1681	9.5274	1.1661	1.6116	0.0599	1.1591	-0.1769	-1.3798	-0.8115	0.1781
-4.4869	0.8469	8.7454	0.0766	0.1937	0.1263	1.4811	-0.2553	-1.2083	4.5903	1.1061	9.0364	-0.5	0.8309	0.1209	0.03	-0.2281	-0.1501	9.5843	0.9954	1.6125	0.1106	1.1948	-0.5469	-1.3481	-0.8297	0.1959
-4.2455	1.0793	8.8051	0.0135	0.1936	0.004	1.4649	-0.2728	-1.1931	4.9362	0.4732	9.0987	-0.5625	0.8609	0.0904	0.024	-0.2342	-0.1861	9.701	0.9954	1.7863	0.234	1.0427	-0.5518	-1.3329	-0.8492	0.1601
-4.793	1.4922	8.4985	-0.0826	-0.1135	0.1523	1.4291	-0.2517	-1.1778	4.8117	1.1614	8.631	-0.5627	0.8924	0.1516	0.03	-0.2462	-0.1741	9.698	0.8247	1.6145	-0.1609	1.0695	-0.2939	-1.3473	-0.791	0.2149
-4.6142	1.26	8.3878	0.0153	0.1621	0.2186	1.4641	-0.2539	-1.1925	4.7527	1.5064	8.5728	-0.4425	0.9532	-0.0953	0.036	-0.2281	-0.1741	9.6361	0.7676	1.3272	0.016	0.9213	-0.5769	-1.3156	-0.7907	0.1978
-4.124	1.02	8.8664	-0.2367	-0.0537	0.0941	1.4283	-0.2328	-1.1772	4.524	1.2192	8.5671	-0.4388	0.7992	-0.0329	0.03	-0.2462	-0.1801	9.7524	1.1089	1.5013	-0.3542	1.0425	-0.5342	-1.3639	-0.8297	0.2134
-4.1305	1.1995	8.5138	-0.0179	0.1012	0.0947	1.4649	-0.2728	-1.1931	4.753	0.6434	8.5104	-0.3749	0.7709	0.182	0.012	-0.2402	-0.1681	10.0436	0.9382	1.907	-0.5318	0.9472	-0.2531	-1.3162	-0.8102	0.1794
-4.3655	0.846	8.8059	-0.1725	0.1305	0.0357	1.4272	-0.2334	-1.194	4.4146	0.7603	8.7972	-0.3121	0.7412	0.2433	0.018	-0.2522	-0.1801	9.921	1.5636	1.4475	-0.4448	1.1633	-0.469	-1.3483	-0.83	0.1782
-4.1236	1.5446	8.9182	-0.1744	0.039	0.003	1.4986	-0.2177	-1.1893	4.6984	1.0469	8.6868	-0.4352	0.6767	0.0907	0.024	-0.2342	-0.1501	9.6958	0.9383	1.5001	-0.5352	1.0707	-0.3749	-1.3959	-0.8122	0.16
-4.2477	1.1975	8.6869	-0.0191	0.0709	0.0325	1.4306	-0.2895	-1.179	4.1837	1.1055	8.7358	-0.4938	0.553	0.1533	0.018	-0.2462	-0.1681	9.4088	0.9954	1.3232	-0.4696	1.0385	-0.2542	-1.3485	-0.8119	0.1255
-4.1295	1.1988	8.5722	-0.2008	0.2829	0.0394	1.4458	-0.2726	-1.2109	4.4746	1.1061	8.9756	-0.4046	0.6767	0.0598	0.018	-0.2522	-0.1621	9.9208	0.8811	1.3897	-0.7192	1.0088	-0.3084	-1.3317	-0.7914	0.1797
-4.128	0.9062	8.6342	-0.0162	0.162	0.1575	1.485	-0.2724	-1.1585	4.5906	0.9336	9.0356	-0.498	0.6746	-0.0626	0.036	-0.2342	-0.1621	9.8671	0.9381	1.5604	-0.9032	0.9775	-0.2417	-1.3479	-0.8293	0.2137
-4.4324	1.1423	8.4508	-0.1396	0.1915	0.1289	1.4643	-0.2344	-1.1752	4.5834	0.6442	8.6242	-0.3764	0.8643	0.2429	0.036	-0.2221	-0.1741	9.362	0.5978	1.837	-0.9105	1.0418	-0.4868	-1.3473	-0.791	0.2149
-4.1223	0.6108	8.9299	-0.2034	0.1302	0.0361	1.503	-0.2732	-1.1575	4.7003	1.2199	8.8048	-0.4408	0.8919	-0.0335	0.012	-0.2281	-0.1681	10.0373	0.9948	1.5636	-0.7194	0.948	-0.3089	-1.3967	-0.8509	0.141
-4.1274	1.1973	8.689	-0.2331	0.1601	0.0987	1.4633	-0.235	-1.1919	4.4134	1.4505	8.8003	-0.4084	0.8307	-0.0025	0.006	-0.2342	-0.1561	9.415	1.0525	1.6667	-0.8408	1.1296	-0.2424	-1.3319	-0.8102	0.1969
-4.1832	1.1361	8.9222	-0.1423	0.1311	-0.0261	1.4863	-0.2523	-1.1244	4.4139	1.1629	8.799	-0.2562	0.925	-0.004	0.024	-0.2402	-0.1561	9.3582	1.1095	1.6657	-0.6865	0.9775	-0.2482	-1.3333	-0.8499	0.1245
-4.4307	0.6163	8.5158	-0.2363	0.0077	0.0339	1.4468	-0.272	-1.1941	4.2977	0.8175	8.6781	-0.2245	0.8947	0.0267	0.018	-0.2342	-0.1501	9.5277	0.8817	1.6114	-0.5895	1.0976	-0.1272	-1.3791	-0.7917	0.2143
-4.3715	1.3749	8.5073	-0.3907	-0.0862	0.1876	1.4651	-0.2533	-1.1757	4.8826	0.8769	9.3337	-0.3798	0.8917	-0.126	0.024	-0.2402	-0.1801	9.9225	1.1655	1.5044	-0.71	1.2788	-0.03	-1.3316	-0.791	0.1975
-4.2486	1.0815	8.6299	-0.2037	0.1303	0.0054	1.4128	-0.2692	-1.1627	4.5787	0.8157	8.3907	-0.2842	0.8013	0.0276	0.024	-0.2462	-0.1741	9.6346	1.1657	1.2703	-0.7741	1.1579	-0.0905	-1.3174	-0.8681	0.1598
-4.914	1.2013	8.4416	-0.1407	0.0689	0.2185	1.4654	-0.2338	-1.1584	4.769	0.9924	9.3906	-0.2516	0.7404	0.0893	0.018	-0.2281	-0.1681	9.9185	1.0516	1.2754	-0.6361	1.1818	0.3665	-1.3326	-0.8301	0.1607
-4.3103	1.3741	8.5668	-0.1699	0.2832	0.039	1.4471	-0.2525	-1.1768	4.7518	1.3911	8.5137	-0.4066	0.8013	0.1513	0.03	-0.2221	-0.1741	9.5888	0.7112	1.8412	-0.6388	1.2136	0.2746	-1.3481	-0.8297	0.1959
-4.67	1.1404	8.6218	-0.229	0.4045	0.1039	1.4499	-0.2702	-1.1438	4.8111	0.8161	8.5708	-0.4051	0.6761	-0.0016	0.024	-0.2281	-0.1621	9.6483	1.0525	2.0142	-0.6132	1.3075	0.0903	-1.3642	-0.8304	0.1778
-4.1246	1.4869	8.8605	-0.2348	0.0378	0.1268	1.4319	-0.2694	-1.1449	4.648	0.876	9.0364	-0.4988	0.8006	0.1825	0.018	-0.2221	-0.1741	9.6352	0.7107	1.2699	-0.7173	1.0384	-0.2468	-1.3641	-0.8116	0.1607
-4.5548	1.0272	8.3334	-0.1757	0.0395	-0.12	1.4662	-0.2527	-1.159	4.7041	0.9331	8.9792	-0.6224	0.7991	0.1525	0.018	-0.2402	-0.1681	9.4047	0.9384	1.0942	-0.6844	1.0375	-0.1863	-1.3321	-0.8105	0.1791
-4.7326	1.3754	8.501	-0.2029	0.0992	0.1277	1.4476	-0.2909	-1.1947	4.1789	0.7016	8.441	-0.4359	0.7394	0.1825	0.012	-0.2402	-0.1681	9.5237	0.711	1.3823	-0.6833	1.098	-0.1551	-1.3635	-0.8105	0.214
-4.3639	1.1947	8.9183	-0.3283	0.068	0.0056	1.4317	-0.2889	-1.1622	4.4703	1.0475	8.741	-0.319	0.9229	-0.1573	0.012	-0.2342	-0.1621	9.7523	1.1657	1.5013	-0.8388	1.1896	-0.1805	-1.3324	-0.8297	0.1785
-4.3081	1.3143	8.6843	0.0449	0.1629	0.0952	1.4641	-0.2539	-1.1925	4.7089	0.7041	9.2125	-0.3463	0.8319	0.0585	0.024	-0.2281	-0.1801	9.9852	1.4501	1.8491	-0.693	1.011	-0.4628	-1.3324	-0.8297	0.1785
-4.066	1.1382	8.7492	-0.1729	0.0076	0.1869	1.4819	-0.2742	-1.2088	4.702	0.8751	8.8618	-0.411	1.0179	0.1807	0.006	-0.2402	-0.1621	9.8702	0.9383	1.7321	-0.6343	1.165	-0.5863	-1.3471	-0.7906	0.2327
-4.4862	1.0796	8.8009	-0.1406	0.1304	0.1276	1.4497	-0.2897	-1.1612	4.5844	0.702	8.6831	-0.3807	0.9541	-0.0649	0.012	-0.2342	-0.1801	9.4706	1.1662	1.6106	-0.4117	0.949	-0.3796	-1.3314	-0.7722	0.1803
-4.0605	0.9594	9.0434	-0.051	-0.052	0.1225	1.4832	-0.2541	-1.1747	4.6492	0.8187	9.0948	-0.319	0.9865	0.0267	0.018	-0.2402	-0.1741	9.5317	0.9957	1.8404	-0.2428	0.9729	0.0765	-1.316	-0.8098	0.1972
-4.3731	0.9679	8.3957	-0.1425	0.0389	0.0949	1.4468	-0.272	-1.1941	4.4763	1.3941	9.094	-0.415	1.1398	-0.0043	0.024	-0.2281	-0.1801	9.5232	1.1659	1.3827	-0.3182	1.162	-0.3807	-1.3488	-0.8496	0.1598
-4.1888	0.5569	8.5792	-0.1745	0.0083	0.0331	1.4453	-0.2342	-1.193	4.6337	0.8726	8.2749	-0.415	1.2034	0.1796	0.012	-0.2342	-0.1741	9.2976	0.825	1.4355	-0.2678	1.076	-0.7516	-1.3641	-0.8116	0.1607
-4.4904	1.8405	8.6162	-0.0806	0.0087	0.155	1.469	-0.2704	-1.126	4.5851	0.9323	8.7427	-0.5071	1.1077	-0.0343	0.006	-0.2221	-0.1741	9.6965	0.3696	1.4996	-0.0983	0.9778	-0.2658	-1.3324	-0.8297	0.1785
-4.367	1.1386	8.7439	-0.2084	-0.2061	0.0904	1.4309	-0.27	-1.1616	4.2467	0.9917	9.0292	-0.4418	1.0176	0.1809	0.03	-0.2221	-0.1681	9.6985	1.3365	1.6721	-0.225	0.979	-0.3542	-1.3793	-0.792	0.1965
-4.4303	1.0825	8.5683	-0.0827	-0.2365	0.3342	1.4813	-0.2358	-1.1909	4.6425	1.5076	8.805	-0.4425	0.985	-0.0033	0.03	-0.2342	-0.1621	9.5852	1.1661	1.6699	-0.2896	1.0108	-0.4442	-1.3483	-0.8485	0.2131
-4.2461	0.7882	8.7504	0.0134	0.0091	0.2768	1.4309	-0.27	-1.1616	4.8186	0.9905	8.9817	-0.4128	1.0474	0.0269	0.018	-0.2342	-0.1681	9.6925	1.0519	1.3285	-0.2343	0.9834	-0.6611	-1.3639	-0.8297	0.2134
-4.3654	1.5456	8.8555	-0.1758	-0.2065	0.2438	1.468	-0.271	-1.1428	4.4679	1.162	8.6244	-0.4734	0.9846	-0.0031	0.024	-0.2402	-0.1621	9.5252	1.2229	1.4972	-0.2308	0.9208	-0.5388	-1.3331	-0.8496	0.1423
-4.3682	1.256	8.684	-0.1721	-0.0235	0.3092	1.5028	-0.2927	-1.1749	4.3607	0.7037	8.9716	-0.2582	1.0178	-0.0045	0.018	-0.2221	-0.1741	9.6985	1.2797	1.672	-0.2616	0.9512	-0.5377	-1.3316	-0.791	0.1975
-4.0085	1.4897	8.629	-0.2688	-0.1458	0.1232	1.4989	-0.2756	-1.2246	4.5857	0.5297	8.7409	-0.3165	0.9261	0.1807	0.024	-0.2342	-0.1621	9.4643	1.1659	1.2672	-0.3216	0.9808	-0.4742	-1.3004	-0.8102	0.162
-4.1151	0.7224	9.3372	-0.1427	0.0082	0.125	1.4479	-0.3487	-1.23	4.3562	0.7601	8.7375	-0.5047	0.9519	-0.1564	0.03	-0.2342	-0.1681	9.6989	0.9953	1.6718	-0.4703	1.1302	-0.2842	-1.3634	-0.7917	0.1968
-4.2491	1.4317	8.6255	-0.0824	-0.0213	0.0313	1.4602	-0.2368	-1.2422	4.2853	0.9872	8.0345	-0.5027	0.891	-0.0638	0.018	-0.2462	-0.1801	9.755	0.654	1.6154	-0.623	1.1902	-0.2177	-1.3324	-0.8297	0.1785
-4.0098	1.6655	8.5684	-0.053	-0.1127	0.029	1.4847	-0.2919	-1.1759	4.7573	0.702	8.745	-0.5019	0.9555	0.2124	0.024	-0.2402	-0.1801	9.5249	1.4503	1.4974	-0.6259	1.161	-0.31	-1.3485	-0.8304	0.1604
-4.7842	1.2529	8.9686	-0.0199	-0.1748	0.3348	1.4643	-0.2344	-1.1752	4.4143	0.9328	8.798	-0.4113	0.9541	-0.034	0.012	-0.2342	-0.1681	9.809	1.1657	1.5023	-0.5266	1.1276	-0.0981	-1.3165	-0.8294	0.1788
-4.1909	1.3163	8.5113	-0.1732	0.0077	0.1561	1.4473	-0.233	-1.1594	4.59	0.6458	8.9757	-0.5658	0.9837	-0.0025	0.018	-0.2342	-0.1621	9.3004	1.1095	1.6074	-0.4893	1.0332	0.1151	-1.3487	-0.8307	0.1426
-4.0012	0.8433	8.9875	-0.1731	0.0384	0.126	1.4471	-0.2525	-1.1768	4.6437	1.4503	8.8633	-0.5017	0.8922	0.0591	0.024	-0.2462	-0.1801	9.8642	0.7674	1.3886	-0.4003	1.0046	-0.0107	-1.348	-0.7924	0.1438
-4.3768	0.5623	8.1672	-0.1402	0.0379	0.3101	1.4291	-0.2517	-1.1778	4.5263	1.1622	8.684	-0.285	0.8638	0.0887	0.042	-0.2281	-0.1621	9.6989	0.9384	1.6718	-0.4426	0.9794	-0.3784	-1.3328	-0.8304	0.1429
-4.3087	1.0232	8.6296	-0.1719	0.0687	0.1882	1.427	-0.2529	-1.2114	4.3502	1.0464	8.4459	-0.2846	0.8007	-0.0338	0.024	-0.2281	-0.1681	9.3545	0.7112	1.4364	-0.5557	1.0963	-0.0361	-1.3309	-0.7711	0.2336
-4.7296	1.4899	8.6747	-0.2039	0.0996	0.0355	1.4487	-0.2903	-1.178	4.6396	0.5864	8.5665	-0.3155	0.8004	-0.0336	0.03	-0.2402	-0.1561	9.7508	1.5069	1.4443	-0.7731	0.8831	-0.0313	-1.3471	-0.7722	0.1978
-4.2485	0.9648	8.6314	-0.1425	0.0389	0.0949	1.4649	-0.2728	-1.1931	4.7063	0.9337	9.0964	-0.2254	0.9253	-0.0042	0.048	-0.2462	-0.1801	9.6951	1.507	1.5005	-0.7467	0.9158	-0.1854	-1.3156	-0.8091	0.2327
-4.3695	0.6738	8.5745	-0.0805	0.0702	0.064	1.4468	-0.272	-1.1941	4.5283	0.6448	8.7403	-0.439	0.7671	-0.1556	0.03	-0.2281	-0.1681	9.4223	1.0528	2.0673	-0.6814	0.7923	-0.0655	-1.3158	-0.8095	0.215
-4.3701	1.0824	8.5694	-0.1724	0.0997	0.0966	1.4474	-0.3104	-1.2121	4.2428	0.7031	8.7936	-0.5004	0.8303	0.0595	0.024	-0.2342	-0.1801	9.4102	0.7111	1.3802	-0.5835	0.9119	0.0862	-1.3322	-0.8294	0.1963
-4.2499	1.2573	8.5693	-0.1104	0.0695	0.1567	1.4089	-0.2521	-1.2124	4.2998	0.8755	8.7955	-0.3093	0.5543	0.0907	0.006	-0.2462	-0.1801	9.5201	1.1089	1.2109	-0.4862	1.1232	0.2079	-1.3481	-0.8482	0.2309
-4.4824	0.6105	8.9819	-0.0473	0.131	0.188	1.4829	-0.2736	-1.1921	4.6419	1.2198	8.7451	-0.4645	0.6148	0.122	0.018	-0.2402	-0.1681	9.5252	1.2229	1.4972	-0.4884	1.3375	0.1175	-1.3644	-0.8492	0.195
-4.1898	1.3156	8.5696	-0.2643	0.16	0.0683	1.4664	-0.3106	-1.1943	4.5289	0.9327	8.8002	-0.4346	0.614	-0.0011	0.024	-0.2221	-0.1801	9.5854	0.9955	1.6697	-0.2754	1.3394	-0.0118	-1.3961	-0.8126	0.1423
-4.3123	1.3172	8.4507	-0.0728	0.4361	0.2257	1.4092	-0.2327	-1.195	4.6396	1.2768	8.6282	-0.4334	0.6155	0.1525	0.012	-0.2462	-0.1681	9.6954	1.2795	1.5003	-0.3426	1.159	-0.1649	-1.3319	-0.7917	0.1619
-4.4827	0.844	8.979	-0.2321	0.1597	0.1909	1.4824	-0.3125	-1.2268	4.9305	0.5869	8.8063	-0.2186	0.5847	-0.0637	0.018	-0.2402	-0.1621	9.633	0.7675	1.1555	-0.6172	1.2484	-0.033	-1.3485	-0.8304	0.1604
-4.0084	1.4314	8.6298	-0.3295	-0.0238	0.0344	1.4832	-0.2541	-1.1747	4.1247	0.8175	8.6162	-0.4051	0.6761	-0.0016	0.03	-0.2402	-0.1681	9.532	0.7682	1.8402	-0.5326	1.0085	-0.2833	-1.3317	-0.8098	0.2146
-4.4877	0.6142	8.69	-0.3574	0.0361	0.2205	1.4481	-0.2519	-1.16	4.932	0.99	8.9253	-0.2833	0.7389	-0.0335	0.036	-0.2462	-0.1741	9.529	0.7112	1.6685	-0.3757	0.7638	-0.1977	-1.3475	-0.7913	0.1972
-4.1294	1.1404	8.5729	-0.208	-0.2063	0.1212	1.4298	-0.2706	-1.1784	4.4664	0.7589	8.5054	-0.3112	0.647	0.0902	0.036	-0.2342	-0.1681	9.5278	0.8249	1.6113	-0.6166	0.8215	0.025	-1.3646	-0.8496	0.1772
-4.2524	0.7343	8.4007	-0.1099	0.1	0.1573	1.4128	-0.2692	-1.1627	4.3031	0.8763	8.9712	-0.2533	0.8016	0.0274	0.024	-0.2342	-0.1621	9.6398	1.2228	1.5565	-0.4974	0.8541	-0.1319	-1.3162	-0.8102	0.1794
-4.1317	1.2586	8.4546	-0.2632	0.1902	0.1304	1.427	-0.2529	-1.2114	4.705	1.0484	9.0383	-0.4055	0.7391	0.1209	0.03	-0.2402	-0.1681	9.1293	0.9391	1.5469	-0.4609	0.8211	0.0511	-1.3162	-0.8102	0.1794
-4.0714	1.2002	8.4564	-0.1703	0.2219	0.0992	1.4646	-0.2923	-1.2105	4.8175	0.9902	8.9231	-0.4352	0.6767	0.0907	0.036	-0.2462	-0.1741	9.868	1.0519	1.6178	-0.4878	0.9106	0.1755	-1.3798	-0.7931	0.1432
-4.6775	1.2039	8.2123	-0.1685	0.4057	-0.0198	1.4633	-0.235	-1.1919	4.4065	0.9885	8.3882	-0.4967	0.6764	0.1218	0.03	-0.2462	-0.1801	9.1891	0.996	1.7197	-0.5524	0.9423	0.0855	-1.3155	-0.7903	0.2156
-4.4908	1.3744	8.5636	-0.3241	0.22	0.1626	1.4649	-0.2728	-1.1931	4.3538	0.8747	8.6209	-0.6812	0.6751	0.1844	0.018	-0.2342	-0.1741	9.2964	0.9956	1.3784	-0.327	1.0298	0.356	-1.3639	-0.8112	0.1785
-4.6094	0.8485	8.6265	-0.0743	0.4059	0.1328	1.4677	-0.2905	-1.1602	4.3533	1.1622	8.6222	-0.5572	0.6136	0.0918	0.036	-0.2221	-0.1801	9.6985	1.3365	1.6721	-0.5165	1.0315	0.2388	-1.3639	-0.8112	0.1785
-4.1296	1.3155	8.5707	-0.1677	0.4361	0.0116	1.4839	-0.273	-1.1753	4.1795	0.9894	8.5009	-0.651	0.6745	0.092	0.024	-0.2342	-0.1741	9.5265	0.9954	1.5542	-0.2623	1.0285	0.4463	-1.3319	-0.8102	0.1969
-4.3658	1.0211	8.8037	-0.3242	0.3738	-0.0801	1.4471	-0.2525	-1.1768	4.3539	0.8171	8.6206	-0.2485	0.6173	0.1514	0.018	-0.2462	-0.1681	9.4228	0.6548	2.067	-0.2683	1.2141	0.2328	-1.3322	-0.8294	0.1963
-4.5442	1.0199	8.9174	-0.2013	0.16	0.1905	1.4844	-0.234	-1.1406	4.5871	1.0478	8.8604	-0.4022	0.5528	0.0298	0.03	-0.2342	-0.1801	9.8074	0.8243	1.3876	-0.3296	1.1224	0.2647	-1.363	-0.7725	0.1975
-4.3692	1.2567	8.6256	-0.1367	0.3441	0.163	1.4458	-0.2726	-1.2109	4.7537	0.9312	8.5702	-0.62	0.6115	-0.0615	0.03	-0.2221	-0.1801	9.4052	1.3933	1.1518	-0.3627	1.032	0.2035	-1.3959	-0.8122	0.16
-4.1929	1.2594	8.3952	-0.0807	0.0395	0.0941	1.4675	-0.31	-1.1775	4.8098	0.9884	8.513	-0.4641	0.5836	0.0914	0.024	-0.2342	-0.1801	9.3009	0.7114	1.6071	-0.3989	1.1563	0.0212	-1.3473	-0.7725	0.18
-4.4893	1.0235	8.6264	-0.143	0.0698	0.0033	1.4306	-0.2895	-1.179	4.4053	1.0458	8.3298	-0.466	0.7082	0.1829	0.03	-0.2402	-0.1501	9.357	1.28	1.6086	-0.4957	1.0972	-0.0993	-1.3479	-0.8293	0.2137
-4.0678	0.8478	8.636	-0.1757	-0.022	-0.029	1.4304	-0.309	-1.1964	4.9257	1.5063	8.6347	-0.4321	0.5536	0.1529	0.03	-0.2101	-0.1861	9.6977	1.109	1.6147	-0.5951	1.1002	-0.3114	-1.3631	-0.754	0.1625
-4.3116	0.792	8.4573	-0.0779	0.2844	-0.0236	1.4664	-0.3106	-1.1943	4.7639	0.7035	9.0964	-0.5281	0.7705	0.3058	0.03	-0.2281	-0.1741	9.4098	1.1092	1.3805	-0.3457	1.069	-0.2577	-1.3326	-0.8485	0.1956
-4.0093	1.3154	8.5728	-0.1397	0.13	0.2199	1.4651	-0.2533	-1.1757	4.6408	1.2195	8.6865	-0.4073	0.7686	-0.0329	0.006	-0.2342	-0.1621	9.6952	1.4501	1.5005	-0.5312	1.1602	-0.2514	-1.3168	-0.8485	0.1782
-4.4369	1.3203	8.215	-0.049	0.0702	0.1252	1.4834	-0.2346	-1.1573	5.2732	0.5861	8.7543	-0.6246	0.9233	0.2133	0.036	-0.2522	-0.1801	9.1847	1.2233	1.4909	-0.5311	1.1906	-0.2511	-1.4111	-0.7742	0.1609
-4.7237	1.0194	8.9726	0.0466	0.2853	0.0671	1.4858	-0.2913	-1.1591	4.8149	0.5293	8.7453	-0.6231	0.83	0.1524	0.03	-0.2281	-0.1741	9.6397	1.2796	1.5565	-0.6237	0.9771	-0.2194	-1.3623	-0.7526	0.2336
-4.4868	1.4882	8.7958	-0.2022	0.1604	0.0983	1.5022	-0.2543	-1.1569	4.8103	0.6433	8.5115	-0.5962	0.984	0.0591	0.012	-0.2402	-0.1801	9.5165	0.6538	0.9816	-0.3798	1.2533	-0.3781	-1.3476	-0.7917	0.1794
-4.3141	1.0852	8.3369	-0.2988	-0.1157	0.155	1.4813	-0.2358	-1.1909	4.7034	0.6453	8.9193	-0.5641	0.9225	0.0593	0.03	-0.2281	-0.1621	9.2976	0.825	1.4355	-0.3769	1.2824	-0.2857	-1.3319	-0.8102	0.1969
-4.9645	1.0781	8.9676	-0.233	0.0678	0.2504	1.4996	-0.2171	-1.1725	4.8684	0.816	8.5719	-0.5918	0.7991	0.1216	0.018	-0.2221	-0.1621	9.6936	1.052	1.3857	-0.6253	1.0389	-0.2803	-1.3009	-0.8482	0.1785
-4.4301	0.9657	8.5698	-0.2367	-0.0537	0.0941	1.4651	-0.2533	-1.1757	4.821	0.8759	9.0983	-0.4132	1.0468	-0.0345	0.024	-0.2462	-0.1741	9.6949	0.8245	1.4428	-0.8747	1.1005	-0.3338	-1.3644	-0.8492	0.195
-4.6667	1.0215	8.7984	-0.1747	-0.0224	0.0632	1.4649	-0.2728	-1.1931	4.7511	1.1608	8.4541	-0.4443	1.078	0.0269	0.036	-0.2342	-0.1741	9.6979	0.9384	1.6145	-0.9454	1.2875	-0.6374	-1.3007	-0.8479	0.1963
-4.7249	1.1368	8.9127	-0.4526	-0.056	0.1275	1.4636	-0.2929	-1.2272	4.757	0.932	8.746	-0.3818	1.0162	-0.0345	0.03	-0.2281	-0.1741	9.5258	0.7679	1.4968	-1.0635	1.0105	-0.421	-1.3329	-0.8677	0.195
-4.0095	0.7325	8.5218	-0.1407	0.0689	0.2185	1.4252	-0.2346	-1.2275	4.6405	1.392	8.6873	-0.2877	0.9238	-0.096	0.012	-0.2281	-0.1561	9.759	0.7679	1.8444	-0.9783	0.9836	-0.6696	-1.3321	-0.8105	0.1791
-4.4284	1.2561	8.6829	-0.2644	0.2523	-0.0835	1.4649	-0.2728	-1.1931	4.7048	1.1634	9.0388	-0.2258	0.9247	-0.0656	0.018	-0.2462	-0.1681	9.2391	1.4506	1.3777	-0.9208	1.0771	-0.8242	-1.3955	-0.8115	0.1956
-4.1285	1.2564	8.6298	-0.0161	0.1927	0.1274	1.4863	-0.2523	-1.1244	4.5865	0.76	8.8005	-0.2864	0.862	-0.0956	0.006	-0.2462	-0.1681	9.8656	0.4831	1.4456	-0.8837	0.9219	-0.6115	-1.2836	-0.7896	0.2162
-4.1326	1.1426	8.3977	-0.2644	0.0984	0.1592	1.4853	-0.3302	-1.1938	4.6345	1.0454	8.3342	-0.0422	0.9567	-0.1591	0.012	-0.2342	-0.1621	9.6383	1.5639	1.4995	-0.8845	0.9527	-0.6419	-1.3314	-0.7722	0.1803
-4.5474	1.0221	8.7422	-0.2667	0.0379	0.0349	1.4471	-0.2525	-1.1768	4.6428	0.7022	8.7428	-0.2547	0.8635	0.0271	0.018	-0.2402	-0.1681	10.0337	1.3928	1.3922	-0.8253	1.0149	-0.7354	-1.332	-0.7732	0.127
-4.1241	1.1368	8.8649	-0.393	-0.2083	0.1542	1.4834	-0.2346	-1.1573	4.4098	0.9893	8.5639	-0.2851	0.7684	-0.1873	0.024	-0.2342	-0.1801	9.6955	1.1658	1.5003	-0.8145	0.8575	-0.3682	-1.3163	-0.829	0.1966
-4.6699	1.84	8.6714	-0.2334	0.1603	0.0679	1.4108	-0.2704	-1.1962	4.1203	0.8165	8.3819	-0.3447	0.7386	-0.0024	0.03	-0.2402	-0.1681	9.8071	1.0518	1.3878	-0.7814	0.9175	-0.3073	-1.3003	-0.8099	0.1797
-4.2395	0.6087	9.103	-0.1422	0.0387	0.1256	1.4855	-0.3107	-1.1765	4.5255	0.9894	8.6247	-0.531	0.7985	-0.0016	0.024	-0.2462	-0.1801	9.6411	0.9953	1.6135	-0.84	1.0988	-0.2119	-1.3312	-0.7718	0.1981
-4.0124	1.3176	8.3976	-0.2314	0.221	0.1615	1.4479	-0.2714	-1.1774	4.6956	0.701	8.5095	-0.3432	0.7088	0.1207	0.024	-0.2342	-0.1561	9.521	1.2227	1.2682	-0.7723	1.1266	-0.0293	-1.3487	-0.8307	0.1426
-4.0084	1.4314	8.6298	-0.1097	0.1922	0.0363	1.4301	-0.3284	-1.2137	4.414	1.1054	8.7987	-0.2845	0.7374	-0.1871	0.036	-0.2402	-0.1681	9.9828	0.8244	1.6769	-0.6447	0.8506	0.1183	-1.3483	-0.83	0.1782
-3.6994	0.9589	9.0497	-0.2942	0.1592	0.1609	1.4973	-0.2378	-1.2234	4.5289	0.9327	8.8002	-0.3124	0.6774	0.0285	0.036	-0.2342	-0.1801	9.7537	1.7345	1.6162	-0.4246	1.0319	0.2053	-1.3476	-0.8102	0.2143
-4.3682	1.256	8.684	-0.1387	0.2834	0.0694	1.4461	-0.2531	-1.1936	4.3028	1.0488	8.972	-0.3144	0.7383	-0.064	0.018	-0.2342	-0.1681	9.7032	0.8818	1.9007	-0.2955	0.9076	0.3848	-1.3639	-0.8112	0.1785
-4.1873	1.0223	8.6901	-0.0776	0.2843	0.0071	1.4636	-0.2156	-1.1746	4.524	1.2192	8.5671	-0.2509	0.7095	0.0894	0.03	-0.2402	-0.1801	9.7051	1.0524	2.0153	-0.2624	0.998	0.446	-1.3639	-0.8297	0.2134
-4.3077	1.0225	8.688	0.0473	0.285	0.1286	1.4296	-0.2901	-1.1958	4.4134	0.8176	8.7389	-0.4024	0.5843	0.0911	0.012	-0.2462	-0.1681	9.864	0.938	1.3887	-0.4802	0.9375	0.4213	-1.3319	-0.7917	0.1619
-4.7913	1.0246	8.5627	-0.0455	0.2226	0.2207	1.4481	-0.2519	-1.16	4.4633	1.276	8.3906	-0.3707	0.554	0.1218	0.018	-0.2402	-0.1801	9.4078	0.9954	1.266	-0.2017	0.9072	0.4128	-1.349	-0.8499	0.142
-4.3636	0.9613	8.9213	-0.1693	0.2214	0.1915	1.4249	-0.2541	-1.2449	4.3527	0.8744	8.5623	-0.5563	0.583	0.1227	0.018	-0.2342	-0.1741	9.6957	0.9952	1.5001	-0.2671	1.0002	0.2925	-1.3644	-0.8123	0.1251
-4.6115	0.85	8.5097	-0.0837	-0.0208	-0.0917	1.537	-0.276	-1.189	4.6425	0.8747	8.7435	-0.6213	0.7369	0.1222	0.024	-0.2342	-0.1621	9.7454	0.8242	1.1004	0.0451	0.9382	0.3749	-1.364	-0.83	0.1956
-4.2397	1.4834	9.1504	0.0133	0.1014	0.125	1.4466	-0.2915	-1.2115	4.7612	1.0481	8.9808	-0.4689	0.7997	0.0594	0.036	-0.2281	-0.1681	9.7505	0.8813	1.3866	-0.1255	0.976	-0.1421	-1.3324	-0.8297	0.1785
-4.4274	1.3137	8.7406	0.0712	-0.0502	-0.002	1.4824	-0.3125	-1.2268	4.127	0.7605	8.7331	-0.5616	0.8303	0.1213	0.012	-0.2462	-0.1561	9.6407	1.3366	1.6138	-0.0946	0.9456	-0.1432	-1.3004	-0.8287	0.1969
-4.6725	1.4337	8.5013	-0.0789	0.0695	0.2178	1.4806	-0.2169	-1.1903	4.5849	1.0473	8.7432	-0.6577	0.9518	-0.0018	0.024	-0.2342	-0.1621	9.4667	0.9385	1.3814	-0.4315	0.9133	-0.0105	-1.3163	-0.8105	0.1616
-4.1289	0.7903	8.5773	-0.2053	-0.0844	0.1853	1.4809	-0.2748	-1.2256	4.9892	1.0474	8.9266	-0.4386	0.7995	-0.0022	0.018	-0.2402	-0.1681	9.6402	0.8816	1.5562	0.0989	1.0334	0.0975	-1.3476	-0.8102	0.2143
-4.249	1.3733	8.6263	-0.0805	-0.1451	0.3977	1.4442	-0.2348	-1.2097	4.5845	0.6445	8.6828	-0.655	0.8282	-0.0011	0.018	-0.2402	-0.1741	9.5896	0.9388	1.8986	-0.2096	1.0938	0.1379	-1.3158	-0.791	0.18
-4.1809	0.9596	9.0412	-0.2054	0.0695	-0.0574	1.4623	-0.2356	-1.2087	4.8156	0.7596	8.8049	-0.5304	0.7994	0.0905	0.018	-0.2342	-0.1681	9.5287	0.9387	1.6687	0.0306	1.0974	-0.1151	-1.3634	-0.7732	0.1619
-4.6681	1.2557	8.7371	-0.1417	0.0693	0.1263	1.4649	-0.2728	-1.1931	4.7023	1.3355	8.9224	-0.4695	0.8942	0.2433	0.03	-0.2342	-0.1621	9.6981	0.7678	1.6144	-0.4008	1.1572	-0.0402	-1.3151	-0.7712	0.2162
-4.5509	1.2577	8.564	-0.0443	0.1913	0.3738	1.4643	-0.2344	-1.1752	4.7596	0.645	8.8619	-0.622	0.7678	0.122	0.018	-0.2342	-0.1681	9.4111	0.8249	1.4375	-0.6491	1.2488	-0.0628	-1.3316	-0.791	0.1975
-4.4842	1.1949	8.9162	-0.1395	0.1607	0.1898	1.4798	-0.2754	-1.2424	4.413	1.0476	8.7399	-0.5927	0.8615	0.1827	0.036	-0.2342	-0.1801	9.6966	1.109	1.5574	-0.4078	1.0081	-0.2563	-1.3471	-0.7722	0.1978
-4.2014	0.5073	7.8791	-0.0163	0.1005	0.2484	1.4623	-0.2356	-1.2087	4.1348	1.3377	9.2043	-0.4998	0.7994	0.0596	0.03	-0.2281	-0.1681	9.9762	1.1653	1.3338	-0.2573	0.8273	-0.3852	-1.3149	-0.7708	0.234
-4.6661	1.3709	8.8524	-0.1695	0.2523	0.1306	1.4824	-0.2352	-1.1741	4.5864	0.8175	8.8008	-0.378	0.8304	-0.0642	0.024	-0.2462	-0.1681	9.4664	1.2228	1.3817	-0.3242	0.7382	-0.5375	-1.3482	-0.8112	0.161
-4.3022	0.9021	8.9815	0.0758	0.1633	0.0949	1.4659	-0.2722	-1.1763	4.756	0.8167	8.6869	-0.5661	0.9834	-0.0333	0.03	-0.2342	-0.1741	9.8706	1.507	1.7898	-0.3606	0.8017	-0.7203	-1.3474	-0.8098	0.2321
-4.1897	1.2572	8.5704	-0.0816	0.0091	0.0627	1.5004	-0.236	-1.1731	4.5912	0.531	9.0338	-0.5942	0.923	0.1516	0.03	-0.2582	-0.1801	9.7051	1.0524	2.0153	-0.203	0.8004	-0.6328	-1.3157	-0.7722	0.1629
-4.7924	1.0837	8.5036	-0.2033	0.0378	0.1879	1.4798	-0.1981	-1.1897	4.3548	0.9324	8.6797	-0.4705	0.7977	-0.1556	0.006	-0.2342	-0.1741	9.5266	0.9386	1.5542	-0.0097	1.1322	-0.4209	-1.316	-0.8098	0.1972
-4.2478	1.2559	8.6861	-0.1405	0.0996	0.1884	1.4662	-0.2527	-1.159	3.9577	1.1642	8.9074	-0.4394	0.8619	0.0589	0.018	-0.2342	-0.1741	9.5267	0.8248	1.5541	-0.1008	1.0704	-0.3572	-1.3954	-0.7927	0.1784
-4.0152	1.0279	8.2261	-0.047	0.1309	0.2187	1.4842	-0.2535	-1.1579	4.3615	0.8765	9.0309	-0.5315	0.8615	0.1209	0.012	-0.2462	-0.1801	9.4669	0.7679	1.3813	-0.1388	1.226	-0.6006	-1.2994	-0.7712	0.1987
-4.2538	0.9684	8.3394	0.2285	0.0425	0.1211	1.5017	-0.2933	-1.1916	4.5796	0.931	8.4498	-0.4991	0.8003	0.1518	0.03	-0.2281	-0.1681	10.089	0.8808	1.2784	-0.1624	1.1921	-0.3543	-1.3651	-0.8506	0.1239
-4.249	1.3733	8.6263	-0.0149	0.1615	0.2805	1.4435	-0.2159	-1.2091	4.8123	0.7589	8.6292	-0.4967	0.6128	-0.0622	0.012	-0.2342	-0.1741	9.638	0.9383	1.4418	-0.2205	1.1903	-0.2297	-1.3321	-0.8105	0.1791
-4.364	1.2531	8.9176	0.1113	0.3462	0.2521	1.4481	-0.2519	-1.16	4.641	1.1045	8.686	-0.6836	0.8308	0.3064	0.03	-0.2342	-0.1801	9.5241	1.2797	1.44	-0.0977	1.1604	-0.2643	-1.3791	-0.7732	0.1794
-4.0107	0.7916	8.4626	0.0136	0.1013	0.1558	1.4989	-0.2756	-1.2246	4.0078	0.8747	8.4971	-0.7484	0.9215	0.1526	0.036	-0.2342	-0.1801	9.9215	1.1655	1.4472	-0.1309	1.0699	-0.3255	-1.3483	-0.83	0.1782
-4.1261	1.0799	8.7488	0.0767	0.2552	0.0353	1.5017	-0.2933	-1.1916	4.6966	0.8163	8.5686	-0.5621	0.8297	0.0598	0.03	-0.2281	-0.1621	9.354	1.1662	1.4368	-0.2496	1.1894	-0.1674	-1.3475	-0.7729	0.1622
-4.4908	1.3744	8.5636	0.0782	0.193	0.28	1.4811	-0.2553	-1.2083	4.8759	0.9904	8.9828	-0.474	1.0473	0.0887	0.042	-0.2462	-0.1621	9.8085	0.7675	1.4448	-0.3178	0.979	-0.3514	-1.3475	-0.7913	0.1972
-4.3672	1.3136	8.7417	-0.145	0.0091	-0.0902	1.462	-0.2551	-1.2261	4.8758	1.0479	8.983	-0.688	0.9521	0.0598	0.03	-0.2342	-0.1801	9.7528	0.7676	1.501	-0.1386	1.0126	-0.5716	-1.331	-0.79	0.2508
-4.2442	0.9035	8.8657	-0.1391	0.222	0.1296	1.4664	-0.3106	-1.1943	4.6445	0.9902	8.8612	-0.4121	1.0801	0.2111	0.03	-0.2281	-0.1741	9.8115	0.8245	1.6165	-0.0988	0.8256	-0.267	-1.284	-0.8088	0.2156
-4.4264	0.6134	8.7494	-0.0833	-0.1132	0.0909	1.4651	-0.2533	-1.1757	4.2977	0.8175	8.6781	-0.5357	1.0149	-0.0029	0.036	-0.2161	-0.1681	9.2373	1.1662	1.263	-0.3467	1.039	-0.2886	-1.3331	-0.8496	0.1423
-4.5394	1.3664	9.205	-0.0208	-0.1129	0.1516	1.4466	-0.2915	-1.2115	4.7044	0.7606	8.9784	-0.5334	0.9543	0.1204	0.03	-0.2281	-0.1801	9.3551	1.1093	1.494	-0.4482	0.982	-0.5626	-1.3478	-0.8105	0.1965
-4.3656	0.9044	8.8052	-0.2333	0.1909	0.0378	1.4695	-0.3088	-1.144	4.5901	1.2211	9.0369	-0.4443	1.0462	-0.0651	0.018	-0.2221	-0.1681	9.6409	1.1659	1.6137	-0.6521	0.8845	-0.1271	-1.3639	-0.8112	0.1785
-4.0094	1.4321	8.5714	0.0781	0.2853	0.1282	1.4283	-0.2328	-1.1772	4.929	0.8167	8.7488	-0.3465	0.8316	0.0278	0.036	-0.2402	-0.1681	9.4666	1.0522	1.3815	-0.5262	0.9445	-0.0689	-1.3317	-0.7914	0.1797
-4.1885	1.0814	8.631	-0.2009	0.2214	0.1303	1.428	-0.2523	-1.1946	4.4698	0.7022	8.6809	-0.4958	0.6139	0.0607	0.018	-0.2402	-0.1621	9.8642	0.7674	1.3886	-0.56	0.9154	-0.1603	-1.3317	-0.7914	0.1797
-4.2499	1.199	8.5701	-0.0465	0.1	0.3103	1.4659	-0.2722	-1.1763	4.2478	0.9919	9.0878	-0.4035	0.6464	0.1214	0.024	-0.2402	-0.1621	9.5844	0.9385	1.6125	-0.3438	1.0681	-0.1963	-1.3481	-0.8297	0.1959
-4.5517	1.0834	8.5078	-0.0159	0.2234	0.0973	1.3932	-0.2307	-1.1625	4.5185	1.2179	8.2742	-0.4642	0.6469	0.2447	0.024	-0.2281	-0.1741	10.0363	0.9379	1.5063	-0.1833	1.096	-0.0165	-1.3319	-0.7917	0.1619
-4.4943	1.5517	8.3862	-0.0485	0.0393	0.2167	1.4651	-0.2533	-1.1757	4.6434	0.99	8.8026	-0.4658	0.6767	0.1216	0.012	-0.2402	-0.1741	9.5738	1.0518	1.0402	-0.0958	1.1899	-0.2027	-1.3476	-0.8102	0.2143
-3.8862	1.6632	8.7457	0.0754	0.1634	0.0641	1.4827	-0.2931	-1.2094	4.3511	1.1617	8.505	-0.5876	0.6139	0.1534	0.03	-0.2342	-0.1681	9.8653	0.7106	1.4458	-0.2787	1.1885	-0.1051	-1.3146	-0.7332	0.1996
-4.1876	1.2558	8.6872	-0.0146	0.2229	0.2203	1.3956	-0.2873	-1.1643	4.4149	0.5878	8.7964	-0.7457	0.766	0.0613	0.024	-0.2582	-0.1621	9.8661	0.8812	1.5032	-0.2773	1.0355	-0.0449	-1.3798	-0.83	0.2131
-3.7729	1.4347	8.342	-0.1767	-0.0831	-0.0303	1.4422	-0.236	-1.2433	4.6892	1.2749	8.2192	-0.5935	0.8921	0.1518	0.036	-0.2281	-0.1681	9.5283	1.2799	1.6689	-0.4457	0.8894	-0.4712	-1.3637	-0.8109	0.1962
-3.8898	1.1992	8.518	-0.2924	0.1892	0.2846	1.4842	-0.2535	-1.1579	4.4689	0.5869	8.6218	-0.5977	1.0773	0.12	0.006	-0.2342	-0.1621	9.5333	1.4507	1.9552	-0.3524	1.0112	-0.473	-1.3478	-0.7921	0.1616
-3.709	1.0239	8.5234	-0.0186	0.1015	0.0332	1.4816	-0.2163	-1.1735	4.8047	1.3899	8.2805	-0.7182	0.9209	0.0602	0.024	-0.2281	-0.1801	9.4095	1.2798	1.3807	-0.1194	1.1255	0.0433	-1.3482	-0.8112	0.161
-4.4937	1.1431	8.3914	-0.0181	0.009	0.2157	1.5017	-0.2933	-1.1916	4.5205	1.3334	8.3919	-0.5323	0.8921	0.09	0.024	-0.2342	-0.1741	9.5847	0.7111	1.6123	0.0419	1.1225	0.2535	-1.348	-0.8109	0.1788
-4.2379	0.9574	9.2154	0.0462	0.2239	0.1273	1.4832	-0.2541	-1.1747	4.5782	1.1033	8.392	-0.6545	0.8606	0.1524	0.03	-0.2342	-0.1741	9.5274	1.1661	1.6116	0.0655	1.1565	0.0073	-1.3165	-0.8109	0.1439
-4.4263	1.313	8.799	-0.1111	0.0082	0.1861	1.4481	-0.2519	-1.16	4.7547	0.989	8.6291	-0.6506	0.7069	0.2454	0.024	-0.2522	-0.1861	10.0317	1.3358	1.2777	-0.0208	1.1534	0.2249	-1.3782	-0.753	0.2333
-4.4162	0.8395	9.3305	-0.0783	0.1616	0.1275	1.4832	-0.3314	-1.2274	4.6428	0.7022	8.7428	-0.7091	0.5514	0.216	0.036	-0.2582	-0.1621	9.6395	1.4502	1.5567	-0.1082	1.0898	0.4114	-1.3016	-0.8681	0.1424
-4.254	1.1435	8.3372	0.0138	0.1319	0.1257	1.4442	-0.2348	-1.2097	4.2394	0.7598	8.6181	-0.5874	0.6142	0.1842	0.03	-0.2342	-0.1681	9.4079	0.9385	1.2659	-0.3626	1.0624	0.2037	-1.3485	-0.8304	0.1604
-4.012	0.9674	8.402	-0.1374	0.2829	0.1924	1.4474	-0.3104	-1.2121	4.582	0.8165	8.5664	-0.6495	0.6448	0.2151	0.018	-0.2462	-0.1741	9.8061	0.9949	1.3305	-0.2074	1.1842	0.2	-1.3483	-0.83	0.1782
-4.1309	1.4913	8.5101	-0.2066	-0.0838	0.0623	1.4473	-0.233	-1.1594	4.3549	0.8749	8.6794	-0.6191	0.6127	0.0614	0.024	-0.2281	-0.1681	9.8626	1.2223	1.3317	-0.3314	1.1233	0.2033	-1.3647	-0.8684	0.1944
-4.1883	0.9647	8.6324	-0.1368	0.2826	0.2539	1.4638	-0.2734	-1.2099	4.811	0.8736	8.5711	-0.4344	0.5825	-0.0624	0.03	-0.2221	-0.1741	9.8657	0.4262	1.4456	-0.5231	1.0345	0.0239	-1.3492	-0.8687	0.1592
-4.1949	1.1442	8.2799	-0.0779	0.0691	0.31	1.4971	-0.2573	-1.2408	4.7045	0.6456	8.9779	-0.529	0.7376	0.0909	0.018	-0.2221	-0.1441	9.6954	1.2795	1.5003	-0.3727	1.1281	-0.1335	-1.3478	-0.829	0.2315
-4.1841	1.0201	8.8653	-0.1756	-0.0528	0.0318	1.501	-0.2744	-1.191	4.355	0.8174	8.6792	-0.5301	0.8315	0.2133	0.018	-0.2462	-0.1741	9.6378	1.1089	1.4419	-0.5857	0.8215	0.0241	-1.3483	-0.8485	0.2131
-4.5492	0.7901	8.6283	0.1328	-0.0802	0.0273	1.4827	-0.2931	-1.2094	4.2387	1.1624	8.62	-0.4407	0.9555	0.1505	0.012	-0.2402	-0.1741	9.9721	1.0514	1.1048	-0.5513	1.0028	0.1167	-1.3483	-0.83	0.1782
-4.4292	1.0817	8.6267	-0.2691	-0.0842	0.0016	1.4463	-0.2336	-1.1762	4.4653	1.3916	8.5082	-0.4392	0.8622	0.0896	0.036	-0.2402	-0.1681	9.7567	0.9953	1.7301	-0.4311	1.035	-0.0096	-1.3165	-0.8294	0.1788
-4.2488	1.1982	8.6285	-0.2961	0.0062	0.2191	1.4497	-0.2897	-1.1612	4.5202	0.8731	8.3313	-0.5304	0.7994	0.0905	0.012	-0.2402	-0.1621	10.0933	0.7672	1.5072	-0.6806	1.0662	-0.0633	-1.3319	-0.8102	0.1969
-4.4294	1.2568	8.6245	-0.2669	0.0072	0.065	1.4649	-0.2728	-1.1931	4.9934	0.5306	9.1001	-0.2879	0.9871	0.0573	0.006	-0.2342	-0.1621	9.751	1.3363	1.4442	-0.753	1.0101	-0.3996	-1.3955	-0.8115	0.1956
-4.0678	0.9062	8.6353	-0.112	0.1316	-0.088	1.4476	-0.2909	-1.1947	4.7602	0.9903	8.922	-0.2014	1.2345	-0.0369	0.024	-0.2402	-0.1741	9.8666	1.3362	1.5607	-0.9655	1.1605	-0.2691	-1.3166	-0.8482	0.196
-4.1262	1.8962	8.797	-0.0477	0.0697	0.2481	1.4649	-0.2728	-1.1931	4.5857	1.2201	8.8026	-0.4454	1.1083	-0.0347	0.036	-0.2281	-0.1801	9.8188	0.8248	2.0172	-1.1555	1.3148	-0.4158	-1.3644	-0.8307	0.1601
-4.4235	0.7863	8.9224	-0.2061	-0.0533	0.0629	1.4304	-0.309	-1.1964	4.6492	0.8187	9.0948	-0.352	1.0468	-0.0964	0.03	-0.2402	-0.1681	9.5171	1.0519	1.0392	-0.8791	1.194	-0.4865	-1.3312	-0.7718	0.1981
-4.1888	1.3149	8.628	-0.1749	-0.0531	0.0933	1.4682	-0.2515	-1.1254	4.7046	0.5881	8.9777	-0.4441	1.0783	0.0576	0.024	-0.2281	-0.1741	9.8083	0.8813	1.4449	-0.8195	1.0427	-0.551	-1.3643	-0.8119	0.1429
-4.4875	1.2554	8.7403	-0.0804	-0.0221	0.2158	1.4643	-0.2344	-1.1752	4.5879	1.2206	8.9197	-0.6608	1.1067	0.028	0.018	-0.2342	-0.1681	9.6955	1.2227	1.5003	-0.9686	1.0705	-0.3619	-1.3475	-0.7913	0.1972
-4.3676	0.8475	8.6891	-0.1452	-0.1446	0.1217	1.4301	-0.2511	-1.161	4.6421	1.1047	8.7446	-0.4159	1.1069	-0.2193	0.024	-0.2342	-0.1621	10.0341	1.0515	1.392	-0.6577	1.1919	-0.3395	-1.3329	-0.8492	0.1601
-4.2551	1.2026	8.2781	-0.1453	-0.2061	0.2126	1.4824	-0.2352	-1.1741	4.6427	0.7597	8.743	-0.476	1.0765	-0.0958	0.024	-0.2342	-0.1621	9.3595	0.882	1.7227	-0.6907	1.1319	-0.4005	-1.3644	-0.8307	0.1601
-4.4899	1.432	8.6213	-0.1479	-0.205	-0.0333	1.4479	-0.2714	-1.1774	4.7075	0.8764	9.1547	-0.4101	0.9237	0.0276	0.024	-0.2402	-0.1501	9.4149	0.3132	1.6088	-0.7808	1.1305	-0.3056	-1.3482	-0.8112	0.161
-3.8788	0.9001	9.1057	-0.3307	-0.1156	0.0632	1.4468	-0.272	-1.1941	4.5817	0.989	8.5672	-0.2589	0.9851	-0.1887	0.018	-0.2402	-0.1741	9.6338	0.9382	1.2129	-1.0675	1.2561	-0.5726	-1.3314	-0.7907	0.2153
-4.6063	0.9047	8.801	-0.2694	-0.1455	0.0617	1.4649	-0.2728	-1.1931	4.2456	0.9914	8.9707	-0.3509	0.9847	-0.1267	0.018	-0.2342	-0.1681	9.5287	0.9387	1.6687	-1.0656	1.2552	-0.5112	-1.3478	-0.8105	0.1965
-4.2504	0.7911	8.5168	-0.2353	0.0073	0.1261	1.5004	-0.236	-1.1731	4.6417	1.3348	8.7456	-0.3802	0.9229	-0.0954	0.024	-0.2281	-0.1741	8.9575	0.5411	1.429	-0.9701	0.8883	-0.3941	-1.3317	-0.8098	0.2146
-4.9098	1.1984	8.6752	-0.1471	-0.2361	0.089	1.4999	-0.275	-1.2078	4.6973	1.0466	8.6282	-0.4108	0.9546	0.0275	0.012	-0.2281	-0.1621	9.6403	0.7678	1.5561	-1.001	1.2235	-0.4212	-1.3807	-0.8318	0.1242
-4.0059	1.1964	8.7495	-0.2688	-0.1458	0.1232	1.4479	-0.2714	-1.1774	4.2998	0.8755	8.7955	-0.4375	0.7373	-0.0326	0.018	-0.2281	-0.1621	9.4648	0.8247	1.2669	-1.1843	1.1004	-0.3245	-1.3478	-0.8105	0.1965
-3.9478	1.1395	8.6345	-0.3306	-0.1464	0.124	1.4659	-0.2722	-1.1763	4.9263	1.1613	8.6332	-0.3483	0.9247	0.058	0.03	-0.2402	-0.1801	9.4161	0.9957	1.7238	-1.1191	1.2513	-0.2331	-1.3483	-0.83	0.1782
-4.4349	1.3772	8.3311	-0.117	-0.2662	0.0572	1.4806	-0.2169	-1.1903	4.6361	0.7581	8.3915	-0.1986	1.0475	-0.1894	0.03	-0.2342	-0.1741	9.6407	0.4835	1.5559	-1.0569	1.3426	-0.2342	-1.3331	-0.868	0.1773
-4.6679	1.139	8.7386	-0.3009	-0.2379	0.1524	1.4651	-0.2533	-1.1757	4.4112	0.817	8.6217	-0.3818	0.9844	-0.1265	0.024	-0.2522	-0.1681	9.7538	1.6208	1.6161	-1.0521	1.0661	-0.0522	-1.364	-0.83	0.1956
-3.9424	1.0774	8.9272	-0.2423	-0.3282	-0.0041	1.4827	-0.2931	-1.2094	4.4686	1.3923	8.684	-0.4405	0.8922	-0.0027	0.03	-0.2582	-0.1741	9.5267	0.8248	1.5541	-0.8946	1.3391	0.0067	-1.3646	-0.8311	0.1423
-4.306	1.3712	8.8004	-0.1151	-0.267	0.2417	1.4855	-0.2334	-1.1238	4.5778	0.7004	8.3316	-0.4088	0.8301	-0.064	0.012	-0.2161	-0.1681	9.5278	0.8249	1.6113	-0.5573	1.1884	-0.0967	-1.3642	-0.8304	0.1778
-4.2476	1.0808	8.6883	-0.0872	-0.3885	0.1464	1.4657	-0.2917	-1.1937	4.8611	1.2746	8.2225	-0.3203	1.0165	-0.0656	0.012	-0.2402	-0.1741	9.5266	0.9386	1.5542	-0.96	1.1274	-0.0852	-1.3475	-0.7913	0.1972
-4.136	1.3199	8.2203	-0.0265	-0.5104	0.2353	1.4471	-0.2525	-1.1768	4.3603	0.9337	8.9726	-0.3744	0.7397	0.1514	0.024	-0.2281	-0.1861	9.6404	0.711	1.5561	-0.8351	1.1575	-0.0579	-1.3162	-0.8102	0.1794
-4.4285	1.3145	8.6822	-0.1164	-0.3279	0.2096	1.4821	-0.2547	-1.1915	4.6372	0.7584	8.4501	-0.2236	0.8323	-0.0344	0.024	-0.2342	-0.1741	9.9214	1.2792	1.4473	-0.9877	1.2478	0.0088	-1.3327	-0.8489	0.1779
-4.3692	1.2567	8.6256	-0.3383	-0.5123	-0.0376	1.4126	-0.2887	-1.18	4.5813	1.2191	8.5682	-0.3776	0.7992	-0.0947	0.024	-0.2221	-0.1621	9.3019	0.7683	1.6643	-1.0158	1.5817	0.0738	-1.348	-0.8109	0.1788
-4.7265	0.7881	8.8003	-0.3063	-0.5433	0.1151	1.4649	-0.2728	-1.1931	4.3621	1.1643	9.0908	-0.3776	0.831	-0.0027	0.018	-0.2402	-0.1681	9.6366	1.2795	1.3848	-1.1767	1.4321	-0.107	-1.3641	-0.7931	0.1257
-4.1276	1.3724	8.6868	-0.1546	-0.7251	0.14	1.4471	-0.2525	-1.1768	4.5798	0.816	8.4493	-0.3465	0.8316	0.0278	0.024	-0.2281	-0.1561	9.8105	0.8245	1.5593	-1.2355	1.5221	-0.0123	-1.3492	-0.8687	0.1592
-4.0099	0.9659	8.5188	-0.09	-0.6334	0.2642	1.4991	-0.2561	-1.2072	4.6363	1.276	8.4524	-0.3483	0.8611	-0.126	0.012	-0.2462	-0.1681	9.4095	1.3367	1.3807	-1.3643	1.4329	-0.1628	-1.3329	-0.8492	0.1601
-4.1307	1.3163	8.5123	-0.0914	-0.7559	0.323	1.4286	-0.2907	-1.2125	4.6458	0.8755	8.9193	-0.4428	0.9847	-0.034	0.024	-0.2522	-0.1621	9.4707	1.1093	1.6105	-1.3637	1.6155	-0.1614	-1.3474	-0.8098	0.2321
-4.3083	1.4894	8.6821	-0.1533	-0.6642	0.172	1.4633	-0.235	-1.1919	4.8712	0.4715	8.6875	-0.16	0.7084	-0.1262	0.024	-0.2402	-0.1741	9.7511	1.2794	1.4442	-1.3913	1.492	-0.0386	-1.3162	-0.8102	0.1794
-3.8893	0.849	8.5224	-0.1253	-0.8165	0.1376	1.4461	-0.2531	-1.1936	4.6479	0.9335	9.0367	-0.3456	0.801	0.0587	0.012	-0.2342	-0.1621	9.5768	1.1657	1.212	-1.422	1.2785	-0.0087	-1.348	-0.8109	0.1788
-4.067	1.0805	8.6915	-0.1477	-0.4511	0.3611	1.4293	-0.2323	-1.1604	4.4085	1.1041	8.5058	-0.4692	0.7677	-0.0633	0.03	-0.2281	-0.1621	9.632	1.6205	1.1562	-1.2273	1.4268	0.2632	-1.3471	-0.7722	0.1978
-4.4886	1.3145	8.6812	-0.3964	-0.3914	0.1195	1.5007	-0.2939	-1.2084	4.4201	0.7616	9.0901	-0.2791	0.5855	0.0903	0.012	-0.2522	-0.1741	9.6391	0.9384	1.499	-1.3478	1.608	0.3605	-1.3478	-0.8105	0.1965
-4.0071	1.2555	8.6904	-0.1784	-0.1439	-0.0931	1.4628	-0.274	-1.2267	4.693	0.9881	8.3937	-0.1591	0.7096	-0.0033	0.018	-0.2281	-0.1681	9.8654	0.5968	1.4457	-1.2611	1.4281	0.1721	-1.3482	-0.8112	0.161
-4.1257	0.7297	8.7532	-0.1761	-0.0834	0.0312	1.4837	-0.2152	-1.14	4.2981	1.2203	8.7385	-0.3403	0.5537	0.0602	0.012	-0.2402	-0.1801	9.6319	0.8243	1.0983	-1.2853	1.4859	0.3883	-1.3167	-0.8112	0.1261
-4.7283	1.3141	8.7353	-0.3625	0.0075	-0.2106	1.4662	-0.2527	-1.159	4.7516	1.5061	8.5143	-0.2768	0.5567	0.3056	0.03	-0.2281	-0.1741	10.1559	1.1086	1.8519	-1.4029	1.3611	0.606	-1.3488	-0.8496	0.1598
-4.734	0.7933	8.3915	-0.6399	0.0967	-0.2974	1.4291	-0.2517	-1.1778	4.1266	0.9906	8.7341	-0.3722	0.6155	0.0907	0.024	-0.2522	-0.1741	9.4118	1.1661	1.495	-1.1662	1.4881	0.2312	-1.3466	-0.7527	0.2162
-4.4877	1.3722	8.7388	-0.7311	0.1259	-0.2034	1.4481	-0.2519	-1.16	4.8136	1.3345	8.7489	-0.4684	0.8321	0.2129	0.024	-0.2522	-0.1681	9.747	1.2224	1.2152	-0.884	1.4256	0.3451	-1.3653	-0.851	0.1061
-3.9465	0.9636	8.6951	-0.606	0.2188	-0.2029	1.519	-0.2752	-1.19	4.6488	1.0488	9.0958	-0.5304	0.7676	-0.0015	0.03	-0.2281	-0.1801	9.5909	1.5644	2.0136	-1.0084	1.243	0.3474	-1.3314	-0.7907	0.2153
-3.8832	1.0197	8.8706	-0.4229	-0.086	0.065	1.4466	-0.2915	-1.2115	4.5325	0.7609	8.9751	-0.3771	0.7998	-0.0333	0.024	-0.2342	-0.1621	9.5228	0.5972	1.325	-0.954	1.2465	0.1	-1.3158	-0.791	0.18
-4.1874	1.0807	8.6894	-0.3601	0.1295	-0.1772	1.4651	-0.2533	-1.1757	4.7483	0.8149	8.2768	-0.3142	0.7068	-0.1253	0.024	-0.2522	-0.1741	9.6317	0.9949	1.0985	-1.1435	1.2482	-0.0173	-1.3314	-0.7722	0.1803
-4.7348	1.3769	8.3842	-0.5454	0.1277	-0.1749	1.4463	-0.311	-1.2289	4.3501	0.471	8.3847	-0.0959	0.6487	0.0274	0.018	-0.2342	-0.1801	9.9212	0.5967	1.3895	-0.9361	1.2527	-0.3307	-1.3644	-0.8307	0.1601
-4.0047	1.079	8.8094	-0.3892	0.1592	-0.0532	1.4484	-0.2324	-1.1426	4.9816	0.9881	8.5163	-0.1571	0.585	-0.0947	0.006	-0.2161	-0.1741	9.6959	0.8814	1.5	-0.9073	1.1623	-0.3938	-1.3315	-0.8095	0.2324
-4.7269	1.0216	8.7974	-0.4221	0.0367	-0.0554	1.4649	-0.2728	-1.1931	4.8129	1.1042	8.6893	0.0281	0.5872	-0.0651	0.024	-0.2342	-0.1741	9.6369	0.9952	1.3846	-0.7262	1.1949	-0.5526	-1.3487	-0.8307	0.1426
-4.2448	1.3704	8.8599	-0.3566	0.2204	0.0093	1.4466	-0.2915	-1.2115	4.3551	0.7599	8.6789	-0.1254	0.5547	-0.064	0.03	-0.2342	-0.1861	9.9209	0.8242	1.3897	-0.6417	1.2294	-0.8314	-1.3639	-0.8112	0.1785
-3.8325	0.9679	8.3468	-0.1102	0.1616	0.0356	1.4092	-0.2327	-1.195	4.4683	0.932	8.6233	-0.1276	0.7108	0.0887	0.018	-0.2402	-0.1561	9.7551	0.5971	1.6153	-0.5688	1.1328	-0.4656	-1.38	-0.8119	0.1604
-4.6641	1.4862	8.9678	-0.3262	0.0978	0.16	1.4651	-0.2533	-1.1757	4.579	1.2761	8.4513	-0.1915	0.8026	0.0578	0.042	-0.2221	-0.1861	9.4698	0.9386	1.5531	-0.3185	1.3755	-0.4097	-1.3478	-0.8105	0.1965
-4.375	1.6106	8.3292	-0.2038	0.1611	-0.0555	1.4442	-0.2348	-1.2097	4.7049	0.4155	8.9769	-0.2543	0.8005	-0.0955	0.018	-0.2221	-0.1681	9.641	1.0522	1.6136	-0.1405	1.2878	-0.6615	-1.3319	-0.8102	0.1969
-4.6664	0.788	8.8014	-0.3896	0.0979	0.007	1.5012	-0.2549	-1.1737	4.4097	1.0468	8.5642	-0.315	0.801	0.0278	0.012	-0.2462	-0.1741	9.8644	1.4499	1.4464	-0.0781	1.1352	-0.6339	-1.3479	-0.8293	0.2137
-4.4865	1.3131	8.798	-0.4195	0.0357	0.1906	1.4638	-0.2734	-1.2099	4.582	0.8165	8.5664	-0.1653	1.0193	0.0564	0.03	-0.2402	-0.1741	9.6378	1.1089	1.4419	-0.2398	1.0469	-0.8448	-1.3321	-0.7921	0.1442
-4.2453	0.9626	8.8066	-0.3914	-0.1475	0.217	1.4458	-0.2726	-1.2109	4.4687	1.3348	8.6837	-0.0996	0.8344	0.0571	0.024	-0.2402	-0.1801	10.0339	1.2222	1.3921	-0.3306	1.1069	-0.7802	-1.316	-0.8098	0.1972
-4.4817	0.9016	9.0367	-0.452	0.036	0.0372	1.4999	-0.275	-1.2078	4.3559	0.9327	8.7383	-0.3443	0.7074	-0.0329	0.036	-0.2281	-0.1741	9.8123	1.052	1.674	-0.1439	1.1065	-0.755	-1.3793	-0.7736	0.1616
-3.9482	0.6733	8.5819	-0.2982	0.0378	-0.0262	1.4466	-0.2915	-1.2115	4.4104	1.2771	8.6238	-0.2496	0.6159	-0.0022	0.03	-0.2281	-0.1621	9.8145	0.9384	1.7883	-0.0553	1.2305	-0.9103	-1.363	-0.7725	0.1975
-3.9508	1.0249	8.4608	-0.1724	0.0997	0.0966	1.4646	-0.2923	-1.2105	4.7605	0.8178	8.9212	-0.5596	0.7376	0.1218	0.024	-0.2281	-0.1741	9.4088	0.9954	1.3232	-0.1804	1.1396	-0.9381	-1.3642	-0.8489	0.2128
-4.1282	1.023	8.6328	-0.264	0.1598	0.099	1.4278	-0.2718	-1.2119	4.5313	0.8181	8.9168	-0.5623	0.8294	0.0291	0.012	-0.2402	-0.1681	9.5849	1.3367	1.67	-0.2671	1.3195	-0.7497	-1.3644	-0.8307	0.1601
-4.6688	1.023	8.6816	-0.2354	0.0996	-0.0256	1.4641	-0.2539	-1.1925	4.3613	0.9915	9.0314	-0.3203	1.0483	0.0264	0.024	-0.2402	-0.1801	9.6971	0.7678	1.5572	-0.2958	1.1356	-0.6581	-1.3483	-0.83	0.1782
-4.2506	0.9662	8.5146	-0.2364	-0.0538	0.1248	1.4087	-0.2716	-1.2298	4.4738	0.9333	8.9162	-0.1947	0.9889	0.1489	0.006	-0.2342	-0.1741	9.5276	0.9386	1.6114	-0.2338	1.166	-0.6597	-1.3798	-0.83	0.2131
-4.3142	1.1436	8.3361	-0.109	0.0381	0.3405	1.4643	-0.2344	-1.1752	4.4697	0.7597	8.6811	-0.2848	0.864	0.1194	0.03	-0.2402	-0.1801	9.6431	1.0523	1.7281	-0.1012	1.2534	-0.3864	-1.3002	-0.8283	0.2147
-4.3043	1.6615	8.9135	-0.1431	0.0391	0.0334	1.4685	-0.3094	-1.1607	4.7041	0.9331	8.9792	-0.405	0.7397	0.1823	0.03	-0.2281	-0.1861	9.3015	1.0527	1.6646	0.0935	1.4321	-0.1143	-1.3793	-0.792	0.1965
-4.0638	1.02	8.8674	-0.1712	0.1299	0.1587	1.4471	-0.2525	-1.1768	4.2952	0.9895	8.5617	-0.4962	0.6769	0.1833	0.036	-0.2342	-0.1681	9.354	1.1662	1.4368	-0.1227	1.5842	-0.1066	-1.3479	-0.8293	0.2137
-4.1261	1.0215	8.7496	-0.2317	0.1288	0.2825	1.4461	-0.2531	-1.1936	4.4703	0.3571	8.6793	-0.494	0.5527	0.1225	0.018	-0.2342	-0.1741	9.5298	0.8818	1.7258	-0.1526	1.6142	-0.0747	-1.3637	-0.7924	0.1613
-4.187	0.7889	8.693	-0.1712	0.1299	0.1587	1.4306	-0.2895	-1.179	4.3541	1.335	8.6815	-0.6231	0.83	0.1524	0.018	-0.2402	-0.1801	9.5217	0.654	1.2678	-0.4733	1.6802	-0.4333	-1.3475	-0.7913	0.1972
-4.7304	1.2572	8.6193	-0.1402	0.0994	0.2192	1.4306	-0.2895	-1.179	4.703	0.9329	8.9206	-0.4365	0.8021	0.2744	0.018	-0.2402	-0.1621	9.6379	0.199	1.384	-0.7793	1.6175	-0.3018	-1.3803	-0.8311	0.1597
-4.4907	1.2576	8.5651	-0.1729	0.0076	0.1869	1.4489	-0.2708	-1.1606	4.812	0.9314	8.6299	-0.7182	0.9209	0.0602	0.018	-0.2281	-0.1681	9.6372	0.7677	1.3844	-1.1188	1.6473	-0.2606	-1.3003	-0.8099	0.1797
-4.182	1.0187	8.9821	-0.1742	0.0081	0.0639	1.468	-0.271	-1.1428	4.9896	0.8174	8.9256	-0.6913	1.1385	0.1509	0.018	-0.2342	-0.1621	9.6435	0.7111	1.7278	-1.1992	1.4426	-0.8437	-1.3795	-0.7924	0.1787
-4.1872	0.9056	8.6916	-0.1142	-0.1751	0.1822	1.4649	-0.2728	-1.1931	4.8102	0.7008	8.5117	-0.6321	1.1995	-0.0034	0.024	-0.2342	-0.1741	10.0416	0.8812	1.7925	-1.0735	1.4418	-0.786	-1.3483	-0.83	0.1782
-4.3721	1.0255	8.4533	-0.1158	-0.1129	-0.0625	1.4819	-0.2742	-1.2088	4.5853	0.8173	8.7422	-0.6954	1.2604	-0.0342	0.03	-0.2342	-0.1561	9.5897	0.8819	1.8986	-1.4728	1.5316	-0.6812	-1.3475	-0.7729	0.1622
-4.2523	1.4339	8.4503	-0.0177	-0.0834	0.3982	1.4651	-0.2533	-1.1757	4.5894	0.3004	8.9156	-0.6002	1.1695	0.058	0.024	-0.2342	-0.1621	9.1857	1.2802	1.5482	-1.9096	1.6549	-0.79	-1.3307	-0.7338	0.1816
-4.1279	0.8479	8.635	-0.0532	-0.1434	0.0591	1.4821	-0.2547	-1.1915	4.4771	0.934	9.092	-0.8471	1.1666	0.0288	0.036	-0.2342	-0.1741	9.5803	0.8815	1.3835	-2.1992	1.7514	-1.1493	-1.3312	-0.7718	0.1981
-3.9469	1.2555	8.6914	0.0704	-0.2344	0.2093	1.4641	-0.2539	-1.1925	4.3016	1.1061	8.9137	-0.851	1.3839	0.1197	0.03	-0.2462	-0.1741	9.6421	0.9954	1.6708	-2.0811	1.7236	-1.3374	-1.3625	-0.753	0.2158
-4.4966	0.9702	8.2184	0.2263	-0.3257	0.4822	1.4623	-0.2356	-1.2087	4.1252	1.1629	8.6763	-0.8209	1.3516	-0.0647	0.03	-0.2402	-0.1801	9.1778	0.8818	1.09	-1.9939	2.0006	-1.5529	-1.3492	-0.8503	0.1242
-4.3596	1.1918	9.1519	0.1259	-0.6311	0.2308	1.4615	-0.2167	-1.2081	4.5272	0.6446	8.6817	-1.1567	1.1935	-0.0618	0.024	-0.2342	-0.1681	9.6988	1.0522	1.6719	-2.2627	2.1483	-1.2364	-1.3317	-0.7914	0.1797
-4.4852	1.1372	8.8586	0.1895	-0.6004	0.3536	1.4803	-0.2364	-1.2077	4.6954	0.8736	8.5103	-1.0626	1.1647	0.0608	0.018	-0.2281	-0.1681	9.8662	0.8244	1.5031	-2.7299	2.1495	-1.3146	-1.3805	-0.8314	0.142
-3.8255	1.2546	8.7519	0.2724	-1.1799	0.34	1.4455	-0.2148	-1.1756	4.5778	0.6429	8.3313	-0.886	1.3783	-0.4332	0.018	-0.2402	-0.1741	9.6383	0.7109	1.4416	-2.8091	2.3404	-1.8946	-1.3323	-0.7924	0.1264
-4.4899	0.674	8.5724	0.1705	-1.8538	0.5112	1.4631	-0.2545	-1.2093	4.5271	0.7021	8.682	-0.7948	1.4411	-0.4341	0.03	-0.2462	-0.1621	9.5887	0.825	1.8413	-2.6579	2.6774	-2.05	-1.3795	-0.7924	0.1787
-4.247	1.4302	8.7423	0.7847	-2.2152	0.7417	1.4476	-0.2909	-1.1947	4.5888	0.703	8.9174	-0.9243	1.7178	-0.4657	0.024	-0.2281	-0.1741	9.7569	0.7678	1.7299	-2.6248	2.7678	-1.9889	-1.3476	-0.7917	0.1794
-4.3755	1.2028	8.2759	0.4927	-3.0735	0.7575	1.3755	-0.2877	-1.1989	4.5298	1.0479	8.8593	-0.7999	1.6251	-0.5888	0.024	-0.2342	-0.1681	9.578	1.052	1.2692	-2.166	2.8011	-2.1867	-1.3155	-0.7719	0.1806
-4.1275	1.3141	8.6875	0.7973	-3.5608	1.1122	1.4662	-0.2527	-1.159	4.5311	0.9332	8.9173	-0.7092	1.7191	-0.5592	0.024	-0.2402	-0.1681	9.5183	0.9382	1.0963	-1.9611	2.9141	-1.5773	-1.3489	-0.8311	0.1248
-4.0122	1.1425	8.3998	0.6665	-4.1127	1.2864	1.4468	-0.272	-1.1941	4.4654	1.334	8.508	-0.6187	1.781	-0.6523	0.024	-0.2402	-0.1621	9.4718	1.0525	1.6677	-1.9559	3.0641	-1.4227	-1.3636	-0.7736	0.1441
-4.1864	1.1383	8.747	0.4774	-4.2053	1.0715	1.4605	-0.2173	-1.2249	4.7504	0.9305	8.3945	-0.8325	1.686	-0.6505	0.024	-0.2402	-0.1681	9.69	1.393	1.2143	-2.0131	3.3971	-1.2954	-1.3649	-0.8687	0.1766
-4.2473	0.9057	8.6905	0.8597	-3.4681	1.0211	1.4471	-0.2525	-1.1768	4.5255	0.9894	8.6247	-0.6735	1.5351	-0.4354	0.042	-0.2342	-0.1801	9.4102	0.7111	1.3802	-2.4268	3.6925	-0.6661	-1.3801	-0.8307	0.1775
-3.8853	1.0212	8.7538	0.8617	-3.1306	0.6901	1.4638	-0.2734	-1.2099	4.4742	1.3361	8.9766	-0.7946	1.4096	-0.4954	0.024	-0.2281	-0.1501	9.751	0.5401	1.3864	-2.7213	3.6853	-0.1657	-1.3001	-0.791	0.1626
-4.2442	0.9035	8.8657	0.377	-2.2167	0.1625	1.4657	-0.2917	-1.1937	4.6448	0.8177	8.8604	-0.7263	1.1647	-0.31	0.024	-0.2402	-0.1801	9.6379	1.0521	1.4419	-3.0465	3.4951	0.3649	-1.3323	-0.8109	0.1613
-3.948	1.3145	8.6323	0.1963	-1.6668	-0.2539	1.4813	-0.2358	-1.1909	4.7549	0.874	8.6286	-0.8824	1.1922	-0.4936	0.024	-0.2582	-0.1921	9.4729	0.9956	1.7249	-3.2829	3.185	0.769	-1.3329	-0.8492	0.1601
-4.4377	1.0876	8.1596	-0.1377	-0.9958	-0.758	1.4803	-0.2364	-1.2077	4.5837	1.1046	8.6849	-0.6027	1.198	-0.188	0.018	-0.2462	-0.1861	9.4654	0.3129	1.2665	-3.7907	3.0992	0.384	-1.3484	-0.7931	0.1083
-4.4336	1.2014	8.3917	-0.6572	-0.8189	-0.5016	1.4829	-0.2736	-1.1921	4.8141	1.0469	8.7476	-0.4774	1.0111	-0.4642	0.03	-0.2221	-0.1921	9.5211	1.1658	1.2682	-4.2024	2.8291	0.1176	-1.3478	-0.7921	0.1616
-4.1227	0.8442	8.927	-0.7184	-0.7275	-0.5911	1.4432	-0.2354	-1.2265	4.4183	0.531	8.9719	-0.2603	1.0151	-0.2811	0.018	-0.2281	-0.1621	9.5211	1.1658	1.2682	-4.2029	2.6769	0.1164	-1.3478	-0.7921	0.1616
-4.2548	1.7272	8.3299	-0.7206	-0.8189	-0.6546	1.462	-0.2551	-1.2261	4.1796	0.9319	8.5007	-0.4149	1.0129	-0.3416	0.012	-0.2342	-0.1621	10.0392	1.1655	1.6782	-4.2041	2.5861	0.085	-1.349	-0.8499	0.142
-3.9481	0.6149	8.5827	-0.6571	-0.9113	-0.3498	1.4631	-0.2545	-1.2093	4.2399	1.1052	8.6783	-0.4144	0.9817	-0.3722	0.024	-0.2342	-0.1741	9.7529	0.6539	1.5009	-4.2735	2.8943	-0.187	-1.3795	-0.7739	0.1438
-4.6681	1.314	8.7364	-0.6895	-0.9417	-0.4423	1.4272	-0.2334	-1.194	4.2393	0.8173	8.6184	-0.3814	0.9214	-0.2491	0.036	-0.2342	-0.1561	9.4672	0.5404	1.3811	-4.0801	2.647	0.0818	-1.3155	-0.7534	0.1457
-3.9525	1.4926	8.3965	-0.6258	-0.8496	-0.4104	1.4453	-0.2342	-1.193	4.1798	0.8169	8.5001	-0.4687	0.7364	-0.0938	0.024	-0.2402	-0.1801	9.9184	0.3123	1.2176	-4.2107	2.5892	-0.1299	-1.3328	-0.8304	0.1429
-4.004	1.3117	8.8648	-0.7805	-0.9433	-0.2874	1.4803	-0.2364	-1.2077	4.2993	1.1631	8.7968	-0.4398	0.7026	-0.4318	0.03	-0.2221	-0.1681	9.7502	1.1656	1.3868	-4.5557	2.6521	-0.2727	-1.3	-0.7537	0.1105
-4.0659	1.0214	8.7506	-0.7469	-0.7596	-0.3146	1.4272	-0.2334	-1.194	4.7585	0.6447	8.8033	-0.3739	0.5498	-0.3084	0.012	-0.2221	-0.1621	9.6954	1.2795	1.5003	-4.3803	2.657	-0.6159	-1.3635	-0.8105	0.214
-4.4878	0.7309	8.6885	-0.5864	-0.2991	-0.4604	1.485	-0.2724	-1.1585	4.6946	0.6433	8.4507	-0.4358	0.5807	-0.2467	0.03	-0.2281	-0.1681	9.8086	0.7107	1.4448	-4.1265	2.5018	-0.4096	-1.3476	-0.8102	0.2143
-4.3097	0.9656	8.5719	-0.9564	-0.0878	-0.728	1.4649	-0.2728	-1.1931	4.583	0.8743	8.6253	-0.4601	0.3982	0.0925	0.012	-0.2402	-0.1561	10.3214	0.7101	1.5686	-3.6129	2.3556	-0.8256	-1.3172	-0.8492	0.1426
-4.4891	0.8484	8.6286	-0.9788	0.339	-0.5954	1.4097	-0.271	-1.213	4.5249	0.7016	8.5648	-0.333	0.2454	0.1541	0.024	-0.2281	-0.1621	9.4649	0.7109	1.2668	-3.4673	2.1161	-1.1085	-1.3798	-0.7931	0.1432
-4.2486	1.0231	8.6307	-0.7905	0.4627	-0.5029	1.4981	-0.2567	-1.224	4.8748	0.9901	8.9242	-0.2987	0.0279	0.0016	0.03	-0.2281	-0.1741	9.8072	0.995	1.3877	-2.9201	1.9077	-1.4338	-1.3634	-0.7917	0.1968
-4.1276	1.3724	8.6868	-1.0999	0.5828	-0.7424	1.4623	-0.2356	-1.2087	4.1283	1.2787	8.8526	-0.1412	-0.1251	0.0016	0.03	-0.2281	-0.1861	9.8135	0.9384	1.7311	-2.5252	1.9113	-1.6914	-1.3649	-0.8503	0.1417
-4.3583	0.9576	9.2133	-0.9079	0.828	-0.4935	1.4672	-0.2521	-1.1422	4.8094	1.2184	8.5141	-0.0751	-0.2458	0.2477	0.024	-0.2342	-0.1741	9.6961	0.7108	1.4999	-1.8377	1.8781	-1.4971	-1.3473	-0.7541	0.1451
-3.9418	1.3685	8.9819	-1.1273	0.6734	-0.5556	1.4492	-0.2513	-1.1432	4.6459	0.818	8.919	-0.229	-0.2789	0.1874	0.03	-0.2402	-0.1681	9.8096	0.7107	1.502	-1.2169	1.7862	-1.455	-1.3166	-0.8482	0.196
-3.8914	0.7921	8.4063	-1.3406	0.8853	-0.6098	1.4829	-0.2736	-1.1921	4.7588	1.1626	8.8642	-0.1002	-0.4928	0.3108	0.012	-0.2522	-0.1741	9.4696	1.1661	1.5533	-0.7564	1.4529	-1.5636	-1.3805	-0.8499	0.1769
-4.1835	1.3112	8.92	-1.4679	0.7625	-0.7646	1.4971	-0.2573	-1.2408	4.4661	0.9315	8.5062	-0.1873	-0.7093	0.4048	0.036	-0.2402	-0.1801	9.9809	0.7105	1.5623	-0.0049	1.4797	-1.3093	-1.3481	-0.8297	0.1959
-4.0056	0.963	8.7524	-1.654	0.5764	-0.5511	1.4824	-0.2352	-1.1741	4.4111	0.8746	8.622	0.0626	-0.8614	0.4042	0.03	-0.2342	-0.1741	10.0396	0.8243	1.6779	0.4904	1.4494	-1.3244	-1.2999	-0.7907	0.1804
-3.7639	1.0203	8.8143	-0.9461	0.3694	-0.4722	1.4105	-0.2126	-1.1609	4.4715	0.9903	8.7993	0.1908	-1.0762	0.4355	0.018	-0.2281	-0.1681	9.6927	0.9382	1.3284	1.1203	1.2922	-0.9758	-1.3162	-0.8102	0.1794
-4.3766	1.2035	8.2175	-1.0076	0.3071	-0.3497	1.4994	-0.2366	-1.1899	4.5267	0.9321	8.683	0.3259	-1.5045	0.7753	0.03	-0.2342	-0.1801	9.8641	0.8243	1.3887	1.533	1.2571	-0.6504	-1.3329	-0.8492	0.1601
-4.1301	0.8494	8.5182	-0.7321	0.1263	-0.2956	1.4254	-0.2152	-1.2102	4.6417	1.3348	8.7456	0.4254	-1.8757	0.654	0.006	-0.2402	-0.1741	9.5813	0.8815	1.4407	2.058	1.4408	-0.7261	-1.3492	-0.8503	0.1242
-4.1898	1.3156	8.5696	-1.3852	-0.186	-0.2327	1.4659	-0.2722	-1.1763	4.4684	1.5074	8.6845	0.7449	-2.2394	1.0845	0.012	-0.2462	-0.1741	9.7534	1.1089	1.5585	2.8161	1.4645	-0.2569	-1.3321	-0.7921	0.1442
-4.1316	1.2003	8.4554	-1.5708	-0.1262	-0.3521	1.4458	-0.2726	-1.2109	4.3696	1.2811	9.5014	1.0622	-2.7012	0.9625	0.012	-0.2402	-0.1561	9.8613	1.4497	1.2747	3.6437	1.5151	0.4562	-1.3639	-0.7927	0.1435
-4.1252	1.1375	8.8065	-1.6962	-0.1575	-0.4742	1.4291	-0.2517	-1.1778	4.4125	0.7023	8.6798	1.999	-3.2482	0.9602	0.03	-0.2582	-0.1681	9.6896	0.938	1.1567	4.5726	1.5315	1.4426	-1.3166	-0.7924	0.1089
-4.421	1.3093	9.091	-1.3014	-0.5812	-0.4576	1.427	-0.2529	-1.2114	4.7013	0.5873	8.8019	2.6335	-4.013	1.1454	0.012	-0.2522	-0.1861	9.5228	1.4503	1.3829	5.625	1.7613	2.3962	-1.3174	-0.8681	0.1598
-4.1881	0.7896	8.6346	-1.6431	-0.7377	-0.3952	1.4978	-0.1989	-1.1887	4.5277	0.9899	8.7418	3.4163	-4.4662	1.4201	0.024	-0.2402	-0.1741	9.866	0.995	1.5033	6.2929	1.7532	2.96	-1.3637	-0.7924	0.1613
-3.8855	1.1379	8.7523	-2.173	-1.0486	-0.3645	1.4633	-0.235	-1.1919	4.129	0.8761	8.8508	3.9959	-5.6359	1.3622	0.024	-0.2462	-0.1741	9.584	1.2229	1.6127	7.1727	1.6865	3.3633	-1.349	-0.8314	0.1071
-4.1269	0.8472	8.6934	-2.0846	-1.2612	-0.4317	1.4252	-0.2346	-1.2275	4.0798	1.3383	9.3204	4.2459	-6.9557	2.1368	0.024	-0.2402	-0.1561	9.8122	1.1658	1.674	7.8481	1.6445	4.1724	-1.3805	-0.8314	0.142
-4.1321	1.5504	8.451	-2.4559	-1.3262	-0.3977	1.4461	-0.2531	-1.1936	4.528	1.4503	8.8025	5.4699	-9.2588	2.5121	0.018	-0.2221	-0.1801	9.8684	0.7107	1.6175	8.3754	1.3395	4.2157	-1.3488	-0.8496	0.1598
-3.8255	1.3129	8.7512	-2.5589	-1.8458	-0.5615	1.4278	-0.2718	-1.2119	4.302	1.5089	8.9741	4.6548	-9.8803	3.0737	0.018	-0.2281	-0.1681	9.7018	1.1661	1.8437	9.0477	1.2075	4.932	-1.365	-0.8318	0.1067
-3.9491	1.3153	8.5739	-2.4641	-1.8765	-0.3173	1.4636	-0.2929	-1.2272	4.4295	1.6844	9.68	4.3791	-12.351	0.4473	0.012	-0.2221	-0.1741	9.5824	0.8247	1.4979	9.3562	0.8728	4.9201	-1.3482	-0.8112	0.161
-4.305	1.3705	8.8588	-1.9651	-1.6582	-0.1958	1.428	-0.2523	-1.1946	4.8223	1.3941	9.2178	1.2269	-14.1564	2.5969	0.018	-0.2281	-0.1741	9.6978	1.0521	1.6146	9.3973	0.5024	5.2846	-1.3644	-0.8307	0.1601
-4.0064	1.5466	8.7451	-1.6592	-1.7769	-0.2945	1.4625	-0.2161	-1.1913	4.8285	0.9928	9.5089	4.5542	-16.0875	0.8065	0.024	-0.2462	-0.1681	9.864	0.938	1.3887	9.0027	0.0109	5.5997	-1.3969	-0.8513	0.1233
-4.1899	1.374	8.5689	-1.5663	-1.6838	-0.4167	1.4076	-0.1949	-1.1938	5.2168	0.7014	8.8123	6.6733	-18.2214	1.7594	0.018	-0.2221	-0.1561	9.6305	1.1086	1.0413	8.9071	0.0426	5.5107	-1.3796	-0.8112	0.1959
-4.3668	1.0218	8.7453	-2.0646	-1.9946	-0.3249	1.4839	-0.273	-1.1753	4.7149	1.0507	9.5655	6.0464	-20.6082	1.8388	0.018	-0.2281	-0.1741	9.8673	0.8244	1.5604	8.3984	-0.317	5.1236	-1.3813	-0.8886	0.1579
-3.9425	1.1358	8.9265	-2.0064	-2.2079	-0.3302	1.4461	-0.2531	-1.1936	4.8106	1.1612	8.5724	7.2014	-22.6673	1.9364	0.012	-0.2402	-0.1621	9.8693	0.8814	1.6749	7.9105	-0.3367	4.3698	-1.3637	-0.7924	0.1613
-4.1297	1.3739	8.57	-2.4394	-2.5196	0.099	1.4126	-0.2887	-1.18	5.0521	1.6815	9.2821	6.4571	-25.3018	2.1101	0.006	-0.2342	-0.1621	9.8691	1.052	1.675	7.1124	-0.8438	3.6522	-1.3639	-0.8112	0.1785
-4.1862	0.9632	8.7492	-1.4187	-2.3253	-0.0634	1.4435	-0.2159	-1.2091	4.9968	1.7971	9.3987	6.6961	-27.6448	2.6143	0.012	-0.2342	-0.1681	9.6978	1.0521	1.6146	7.2572	-1.022	3.3391	-1.3796	-0.7927	0.161
-3.8876	1.1394	8.6355	-1.106	-2.2315	0.15	1.4251	-0.1573	-1.1749	4.3598	1.2213	8.9739	4.8219	-29.6494	1.9612	0.018	-0.2281	-0.1741	9.5303	0.4837	1.7255	7.3055	-1.1984	2.9061	-1.3476	-0.7917	0.1794
-4.3645	0.8453	8.8643	-1.0408	-2.2631	0.5176	1.4461	-0.2531	-1.1936	5.111	1.3941	9.3405	7.0187	-32.5562	2.8568	0.018	-0.2281	-0.1441	9.4702	1.5074	1.6108	7.8903	-1.0747	2.7667	-1.3478	-0.7921	0.1616
-4.4291	1.0234	8.6275	-0.6998	-2.1678	0.4846	1.4249	-0.2541	-1.2449	5.1691	1.5668	9.4009	8.2397	-34.8633	2.8326	0.036	-0.2342	-0.1441	9.589	1.4506	1.899	8.5081	-0.9214	2.688	-1.3648	-0.8314	0.1245
-3.7082	1.1982	8.5796	0.1964	-2.1897	0.5651	1.4411	-0.2366	-1.26	5.2203	1.2201	9.049	7.534	-36.4788	2.8157	0.018	-0.2281	-0.1621	9.2001	0.5415	2.2916	8.939	-1.1334	2.6119	-1.3803	-0.8311	0.1597
-4.1273	1.139	8.6897	-0.3876	-2.1969	0.8491	1.4476	-0.2909	-1.1947	5.6217	1.6798	9.1173	7.216	-38.7347	3.3226	0.024	-0.2281	-0.1621	9.4771	0.9958	1.9538	9.604	-1.201	3.0831	-1.3324	-0.8297	0.1785
-3.9487	1.0235	8.5775	0.3547	-2.1898	0.9322	1.4296	-0.2901	-1.1958	5.3888	1.2765	8.8768	4.9293	-41.3544	3.4746	0.012	-0.2402	-0.1501	9.1941	1.1668	2.006	10.3001	-1.2078	3.5539	-1.3957	-0.7934	0.1429
-4.0103	1.2577	8.5152	0.1428	-1.9169	0.91	1.4262	-0.234	-1.2108	4.9989	1.2223	9.4546	5.7684	-43.1724	3.2654	0.018	-0.2402	-0.1441	9.1368	0.8256	1.9474	10.5541	-1.2716	3.7609	-1.363	-0.7725	0.1975
-4.365	1.2538	8.8592	0.391	-1.7918	0.8173	1.4241	-0.2352	-1.2443	5.2303	1.1649	9.576	7.0867	-45.7583	3.0886	0	-0.2342	-0.1621	9.4262	1.3374	2.2964	10.7813	-0.9412	4.064	-1.364	-0.83	0.1956
-4.491	0.7331	8.5133	0.3348	-1.5179	0.9163	1.4626	-0.2935	-1.244	5.9088	0.6438	9.0596	4.8693	-48.8759	2.8436	0.006	-0.2221	-0.1561	9.5281	1.3936	1.669	11.215	-0.5594	5.0374	-1.3155	-0.7903	0.2156
-4.3127	0.8511	8.3982	0.4582	-1.4858	0.8539	1.4291	-0.2517	-1.1778	5.7514	1.2228	9.879	1.6365	-52.1603	2.4212	0.006	-0.2342	-0.1501	9.5267	0.8248	1.5541	11.4796	-0.5672	5.5825	-1.379	-0.7544	0.1622
-4.1314	1.0252	8.4576	-0.0632	-1.0313	0.5012	1.4097	-0.271	-1.213	6.1048	1.3971	10.4136	6.9828	-55.9184	1.4596	0.006	-0.2221	-0.1561	9.4688	0.9386	1.4959	10.2972	-0.9611	5.4611	-1.4275	-0.8126	0.1772
-3.7707	1.3749	8.4595	-0.339	-0.9427	0.5681	1.426	-0.2535	-1.2281	6.0976	1.1078	10.0023	4.9372	-58.7018	0.4127	0.018	-0.2041	-0.1441	9.4712	0.7112	1.6102	8.8071	-0.7465	5.3537	-1.3795	-0.7924	0.1787
-3.887	0.7308	8.6407	-0.4622	-0.8826	0.5095	1.4241	-0.2352	-1.2443	6.2695	1.05	10.0053	7.9986	-57.491	0.8484	-0.012	-0.2342	-0.1501	9.8189	0.768	2.0171	7.988	-1.0899	5.9593	-1.4114	-0.8119	0.1953
-4.4854	1.254	8.8571	0.0663	-0.6941	0.5377	1.4641	-0.2539	-1.1925	6.6639	0.4723	9.6004	6.4376	-56.9281	-0.0677	0.012	-0.2161	-0.1321	9.4688	0.9386	1.4959	7.6521	-2.3112	6.2361	-1.3637	-0.7924	0.1613
-3.9461	1.4298	8.7476	0.005	-0.5104	0.2964	1.4435	-0.2159	-1.2091	6.7729	0.4709	9.3097	12.7847	-53.993	-0.7062	0.006	-0.2101	-0.1381	9.6926	0.9951	1.3284	7.1886	-3.2117	5.3517	-1.3637	-0.7924	0.1613
-4.0024	0.9024	8.9284	0.042	-0.3588	0.6375	1.4612	-0.2362	-1.2255	6.1267	0.8134	8.479	9.8556	-51.1154	-0.6447	-0.006	-0.2101	-0.1261	9.5859	0.5405	1.6694	6.1125	-4.1458	4.7004	-1.363	-0.7725	0.1975
-4.3671	1.2553	8.7424	0.0076	-0.3576	0.2997	1.5138	-0.2008	-1.2212	6.3618	0.5842	8.7753	7.6473	-47.6196	-1.3901	0	-0.2161	-0.1441	9.7085	0.7682	2.1867	5.151	-4.7244	4.7246	-1.3313	-0.7534	0.1632
-4.1217	0.9019	8.9846	-0.3916	-0.2396	0.338	1.4074	-0.2144	-1.2112	2.9141	0.0123	8.1208	13.0621	-38.0382	-4.5518	-0.006	-0.2101	-0.1381	9.479	0.2566	2.0105	4.5164	-5.1441	4.2793	-1.3479	-0.7736	0.1267
-4.3061	0.6716	8.7508	-0.1419	-0.0229	0.2473	1.4071	-0.2338	-1.2286	0.7956	0.4765	8.1993	11.5691	-22.6434	-3.5284	-0.018	-0.2161	-0.1381	9.5305	0.3131	1.7254	4.2202	-5.0591	4.719	-1.3316	-0.791	0.1975
-4.2472	0.7889	8.692	-0.2967	-0.0243	0.2185	1.4427	-0.1971	-1.2086	-1.2012	-0.6688	8.5071	11.3684	-8.7173	1.0607	0	-0.2041	-0.1321	9.5312	0.5975	1.7829	4.2917	-4.6978	4.9963	-1.3793	-0.792	0.1965
-3.7585	0.9583	9.107	-0.1693	0.0061	0.5251	1.462	-0.2551	-1.2261	-1.8253	-0.3787	8.8478	6.2984	2.2694	14.0239	-0.006	-0.2101	-0.1261	10.1033	0.2558	2.0219	4.9071	-4.0863	4.7984	-1.3786	-0.7722	0.2327
-4.2538	1.0268	8.3387	-0.075	0.0679	0.5867	1.4649	-0.2728	-1.1931	-0.2249	-0.7275	8.6427	9.0182	7.102	28.3002	-0.006	-0.2161	-0.1321	9.7658	0.3132	2.1874	5.0396	-3.4053	4.001	-1.3319	-0.8102	0.1969
-3.9437	0.4953	8.8177	-0.0768	0.0994	0.3722	1.4615	-0.2167	-1.2081	-1.8321	-0.8981	8.4354	1.6435	24.0006	34.6353	-0.024	-0.1801	-0.1441	10.5005	0.3122	2.0293	5.0833	-2.6044	3.3301	-1.3961	-0.8126	0.1423
-4.0077	0.9061	8.6364	-0.135	0.2511	0.4685	1.3901	-0.2325	-1.2128	-0.4014	-0.6132	8.4056	5.8256	31.1141	36.812	-0.012	-0.2041	-0.1261	10.101	0.4263	1.9076	4.7201	-2.0454	2.5465	-1.3796	-0.7927	0.161
-4.3057	1.1377	8.8033	-0.263	0.1594	0.1913	1.4262	-0.234	-1.2108	0.1073	-1.0184	8.0037	-0.4145	35.0142	34.213	-0.024	-0.1981	-0.1321	10.0436	0.0851	1.8491	4.4986	-1.7544	1.3571	-1.3789	-0.7729	0.1971
-3.9462	0.7885	8.6973	-0.1098	0.0692	0.2182	1.427	-0.2529	-1.2114	0.0469	-0.5013	7.8877	-7.2003	40.6839	29.7013	-0.03	-0.1921	-0.1321	9.8182	0.4836	1.9597	4.287	-1.6205	0.5041	-1.4104	-0.7544	0.1971
-4.0673	1.314	8.6886	0.2016	0.2251	0.2176	1.4427	-0.1971	-1.2086	0.1125	-0.8446	8.2973	-13.6445	48.7587	24.1285	-0.018	-0.1981	-0.1501	9.8163	0.3129	1.8451	3.4174	-1.8794	-0.5475	-1.3788	-0.754	0.18
-3.9449	1.3124	8.8075	-0.6956	0.2474	0.0449	1.4422	-0.236	-1.2433	0.6915	-0.499	8.6614	-17.5605	55.5965	19.0707	-0.03	-0.2041	-0.1621	9.938	0.4837	2.3051	2.7659	-1.7121	-1.6021	-1.3465	-0.7338	0.199
-3.9401	0.9009	9.0462	-0.9161	0.0624	-0.0794	1.4254	-0.2152	-1.2102	1.2061	0.0753	8.6739	-18.0598	61.5171	14.6746	-0.03	-0.1981	-0.1561	9.9296	0.5402	1.8473	2.1405	-1.5731	-2.8114	-1.3949	-0.7732	0.1968
-3.7703	1.0831	8.4632	-0.9148	0.1849	-0.1383	1.4623	-0.2356	-1.2087	1.2015	0.1893	8.4401	-18.1149	66.2905	12.7412	-0.03	-0.1921	-0.1681	9.4307	0.2001	2.4672	1.1047	-1.2781	-4.2838	-1.3793	-0.792	0.1965
-3.9434	1.0198	8.8695	-0.8845	0.1855	-0.2002	1.427	-0.2529	-1.2114	1.6117	0.0181	8.9156	-18.4714	70.1561	13.2119	-0.03	-0.1861	-0.1621	9.7039	0.3131	1.9002	0.4757	-1.4116	-5.5874	-1.3466	-0.7527	0.2162
-4.4853	1.1956	8.8578	-1.0373	0.2447	-0.1354	1.4246	-0.1963	-1.2096	2.7546	0.4758	8.8226	-18.2185	73.2641	14.6363	-0.054	-0.1861	-0.1801	9.936	0.4267	2.1906	-0.4394	-1.237	-7.1565	-1.395	-0.7735	0.179
-3.8818	1.5435	8.9808	-1.0358	0.3364	-0.1335	1.4265	-0.2146	-1.1934	2.7587	0.0165	8.9962	-17.2852	75.1825	17.0472	-0.054	-0.1921	-0.1921	9.5374	0.6547	2.1263	-0.8386	-1.0718	-8.0651	-1.4108	-0.7735	0.1965
-4.2499	1.2573	8.5693	-0.6943	0.4006	-0.0749	1.4808	-0.1975	-1.1729	3.1524	0.4743	8.6545	-15.2016	75.5762	20.4438	-0.036	-0.1801	-0.1981	9.5356	0.3702	2.0116	-1.2835	-0.8532	-8.4495	-1.3475	-0.7913	0.1972
-4.3033	0.9028	8.9231	-0.539	0.4941	-0.1363	1.4633	-0.235	-1.1919	3.2656	-0.044	8.5372	-13.8839	74.4512	24.2842	-0.036	-0.1981	-0.1921	9.4804	-0.0277	2.0675	-1.3872	-0.6958	-8.8139	-1.3478	-0.8105	0.1965
-3.7618	1.0188	8.9311	-0.8808	0.307	-0.0438	1.4605	-0.2173	-1.2249	3.6056	0.2422	8.3694	-13.2457	72.2772	29.0877	-0.036	-0.1801	-0.1981	9.4266	0.0862	2.2382	-1.886	-0.9077	-8.8929	-1.3637	-0.8109	0.1962
-3.7626	0.8445	8.8749	-0.9149	0.3695	-0.4418	1.4267	-0.2724	-1.2287	4.5802	-0.1045	8.3866	-13.63	68.9503	34.0578	-0.054	-0.1921	-0.2101	9.5997	0.3136	2.4132	-2.4434	-0.9688	-8.8767	-1.3635	-0.8105	0.214
-4.2472	0.7889	8.692	-1.1553	0.6718	-0.2785	1.427	-0.2529	-1.2114	5.2041	-0.2796	8.0464	-13.7349	65.4064	38.6588	-0.054	-0.1801	-0.2342	9.3133	0.8257	2.2939	-3.0463	-0.8707	-9.3495	-1.3483	-0.8485	0.2131
-4.0095	1.4905	8.5706	-0.911	0.5832	-0.4065	1.445	-0.2537	-1.2103	5.9508	-0.7407	8.1172	-13.3572	60.6227	42.4347	-0.054	-0.1861	-0.2281	9.1983	0.3139	2.177	-3.5994	-1.0557	-9.1808	-1.364	-0.83	0.1956
-4.4289	0.8483	8.6297	-0.8447	0.8588	-0.4013	1.4597	-0.1985	-1.2243	7.1036	-0.2232	8.5516	-11.1518	54.7254	44.178	-0.0781	-0.1921	-0.2522	9.2564	0.0295	2.2351	-3.5219	-1.4592	-8.6332	-1.3478	-0.829	0.2315
-4.3708	0.8497	8.5139	-1.0294	1.0105	-0.5802	1.4442	-0.2348	-1.2097	7.832	-0.2859	7.687	-8.6142	46.6704	43.0124	-0.066	-0.1681	-0.2402	9.0863	-0.0271	2.2319	-3.4403	-1.4989	-7.9907	-1.3637	-0.8109	0.1962
-4.0659	1.0214	8.7506	-0.9618	1.224	-0.3612	1.4448	-0.2732	-1.2277	8.626	-0.6919	7.2319	-7.002	37.7792	39.46	-0.042	-0.1801	-0.2462	8.8588	0.3144	2.228	-3.2983	-1.9949	-7.3536	-1.3471	-0.8091	0.2676
-4.2464	0.9633	8.7482	-0.8987	1.3779	-0.4817	1.4579	-0.1802	-1.2405	9.424	-0.8668	7.0123	-7.6261	28.971	34.0455	-0.048	-0.1801	-0.2822	8.8008	-0.3681	2.1119	-2.9615	-2.6026	-7.43	-1.3793	-0.792	0.1965
-4.1846	1.3703	8.8609	-1.0514	1.4064	-0.3561	1.4432	-0.2354	-1.2265	9.8634	-0.7569	6.0257	-11.2931	20.2946	26.2818	-0.06	-0.1741	-0.2582	8.6925	-0.3677	2.396	-2.5096	-3.5863	-6.7446	-1.396	-0.8495	0.2121
-4.3588	0.5498	9.16	-1.0443	1.8649	-0.4078	1.4061	-0.2344	-1.2453	10.6651	-0.4707	6.0424	-15.8488	14.3641	18.8452	-0.06	-0.1741	-0.2702	8.8042	0.2577	2.3414	-1.7083	-5.0617	-5.7356	-1.3802	-0.8122	0.1426
-4.1857	0.613	8.7536	-1.1	2.1693	-0.3082	1.4592	-0.2374	-1.259	11.0532	-0.647	5.3464	-18.7841	9.1315	11.5182	-0.072	-0.1801	-0.2762	8.6966	-0.2538	2.625	-0.8042	-6.6795	-5.4068	-1.3638	-0.8482	0.2483
-4.068	1.0229	8.6338	-1.2501	2.5658	-0.513	1.4453	-0.2342	-1.193	11.2759	-0.7065	4.999	-20.9194	4.0639	4.4315	-0.06	-0.1861	-0.2822	8.8679	-0.3108	2.6854	0.5186	-8.1829	-4.5673	-1.38	-0.8119	0.1604
-3.9476	1.0227	8.6359	-1.7358	3.111	-0.5566	1.4811	-0.2553	-1.2083	11.3863	-0.8227	4.7664	-23.1186	-1.6351	-0.6842	-0.0781	-0.1861	-0.2882	8.6452	-0.3672	2.9101	2.3311	-10.0186	-3.8987	-1.3633	-0.8102	0.2318
-4.3065	0.905	8.7479	-2.3801	3.441	-0.6643	1.4053	-0.2156	-1.2448	62.7306	18.7868	50.6974	-137.2174	67.6922	-85.563	-0.072	-0.1741	-0.2882	8.6983	0.0306	2.7397	3.9689	-11.2805	-2.913	-1.3792	-0.8105	0.2315
-4.4892	0.9651	8.6272	-3.4877	4.0431	-1.1909	1.4628	-0.1967	-1.174	19.3389	-1.959	-1.8786	251.426	-3.7008	-68.464	-0.0781	-0.1681	-0.3002	8.7016	-0.083	2.9113	5.5232	-12.0127	-0.6608	-1.3317	-0.8098	0.2146
-4.063	0.4947	8.874	-4.0658	4.9564	-1.779	1.4244	-0.2158	-1.2269	15.0213	20.7967	5.1683	159.9087	-48.9173	-6.0554	-0.054	-0.1921	-0.3062	9.3222	0.3142	2.7514	7.1841	-12.5236	1.0062	-1.3964	-0.8502	0.1766
-4.3561	0.8978	9.3308	-5.1195	5.5009	-2.9533	1.4447	-0.1959	-1.175	6.0579	0.452	4.7869	21.9308	19.8532	-30.0832	-0.066	-0.1981	-0.3002	9.4381	0.9398	2.9257	9.3096	-12.3784	3.6171	-1.3794	-0.8108	0.2137
-4.2384	0.5496	9.1621	-7.6152	6.6111	-4.0973	1.4262	-0.234	-1.2108	2.9601	3.4481	4.7995	93.7533	24.8717	-54.5606	-0.072	-0.2041	-0.2882	9.8936	0.598	2.991	10.0622	-11.1316	5.8169	-1.3951	-0.8293	0.2661
-4.0621	0.5523	8.9317	-7.3009	7.3502	-4.7311	1.4793	-0.237	-1.2244	1.0373	6.175	9.4009	-20.6808	27.7371	-23.2432	-0.06	-0.2101	-0.2882	10.7864	1.1081	2.2068	5.7392	-7.7413	4.9901	-1.3481	-0.8297	0.1959
-5.0215	0.318	9.0929	-5.1885	8.3816	-5.1966	1.4432	-0.2354	-1.2265	1.3966	3.4739	9.9812	-23.1572	10.8261	-7.2112	-0.072	-0.2101	-0.2882	10.5093	0.7675	2.5447	1.7885	-2.9637	5.0543	-1.3629	-0.7722	0.2152
-3.939	0.9001	9.1046	-4.1279	9.1876	-5.4692	1.4461	-0.2531	-1.1936	3.6114	1.3943	8.7846	-39.539	0.7122	3.731	-0.06	-0.1921	-0.3002	10.5539	0.4826	1.8588	-0.1923	1.1352	5.7609	-1.3325	-0.867	0.2306
-4.4175	0.2573	9.221	-0.4412	10.7582	-6.8653	1.4623	-0.2356	-1.2087	4.9881	-0.2186	8.7452	-63.6115	-1.5423	10.4927	-0.054	-0.2041	-0.3062	10.6602	0.4253	1.4602	-0.2116	4.2994	5.8482	-1.3635	-0.829	0.2489
-4.6469	0.483	9.8562	4.803	13.8022	-6.4038	1.478	-0.1798	-1.2059	5.4101	-0.9048	9.8043	-48.0027	-1.9076	10.5262	-0.0781	-0.1981	-0.2942	10.0924	-0.1996	1.392	-1.6276	6.2921	6.982	-1.3628	-0.7906	0.2502
-4.8356	0.2557	9.3888	15.5404	22.8185	-4.0365	1.4654	-0.2338	-1.1584	5.0651	-0.847	9.7393	-30.2669	-3.0785	8.0935	-0.06	-0.2041	-0.2942	10.1017	0.7107	1.9651	-5.155	7.4481	7.0353	-1.3784	-0.7718	0.2505
-4.7157	0.6057	9.3865	15.9333	25.9987	-3.9725	1.4435	-0.2159	-1.2091	5.1181	-0.2152	9.5676	-12.5189	-3.5121	5.134	-0.072	-0.1981	-0.3122	10.0977	0.5968	1.736	-5.6356	8.3074	4.414	-1.4266	-0.7923	0.2311
-3.4367	0.4353	13.5555	10.3261	38.0413	1.9257	1.4824	-0.2352	-1.1741	4.2399	0.4723	8.6169	-1.6031	-1.4119	2.8449	-0.072	-0.2101	-0.3062	9.9945	0.7111	2.3064	-3.1099	9.3347	2.8103	-1.3955	-0.83	0.2305
-5.61	-0.2153	9.7897	47.3428	47.4174	3.1713	1.5223	-0.2539	-1.1223	4.5266	0.9896	8.6833	1.2252	0.5927	-0.7789	-0.066	-0.1981	-0.3062	10.5609	0.7104	2.2596	1.0635	10.757	3.3728	-1.4111	-0.8112	0.2308
-5.519	1.9789	11.6317	26.034	50.7285	7.0781	1.4662	-0.2527	-1.159	4.8733	0.5295	8.805	6.8454	1.9805	-3.9853	-0.072	-0.2041	-0.2882	10.9632	1.7338	2.611	3.0103	12.054	2.0651	-1.3962	-0.8314	0.1594
-5.6794	1.2073	12.6892	41.1232	64.9644	12.641	1.4662	-0.2527	-1.159	4.4691	0.4719	8.6213	10.0333	2.5611	-4.8986	-0.066	-0.1981	-0.2942	11.6528	1.5627	3.0813	3.3172	12.4067	2.9498	-1.3953	-0.8112	0.2134
-5.1631	1.1658	11.2979	41.7637	75.9355	12.2867	1.5223	-0.2539	-1.1223	4.1882	1.049	8.9698	5.16	1.7224	-3.2978	-0.06	-0.2101	-0.2822	11.3511	1.7329	2.1033	3.021	11.2421	3.5025	-1.3637	-0.8109	0.1962
-7.676	3.4328	12.2176	43.6524	87.3133	12.479	1.5257	-0.3099	-1.1073	4.1317	1.2219	9.0281	-2.611	0.8861	-1.5571	-0.054	-0.2101	-0.3002	11.8502	1.9024	1.4832	0.9844	9.5124	-1.121	-1.3954	-0.7927	0.1784
-4.9645	1.1531	12.2938	42.1672	97.5217	13.8263	1.526	-0.2905	-1.09	4.2981	0.5874	8.6771	-7.0395	0.5691	-0.8532	-0.06	-0.2041	-0.3002	11.3788	2.4709	0.5596	-1.957	7.3429	-6.9195	-1.3632	-0.8098	0.2495
-5.8094	0.5144	12.1119	46.6298	105.1028	15.0727	1.4927	-0.3066	-1.0591	4.7019	0.9326	8.862	-7.4795	0.8397	-1.1903	-0.06	-0.2101	-0.2942	10.8632	2.1301	0.2638	-3.1483	5.5947	-10.2474	-1.3794	-0.8108	0.2137
-6.6502	0.6891	12.2117	45.844	111.7204	15.1339	1.5515	-0.3449	-1.0068	4.4121	0.9323	8.6808	-6.8643	0.9396	-1.1023	-0.06	-0.2041	-0.3002	10.8558	1.3905	-0.1946	-4.739	4.5603	-14.5409	-1.38	-0.8304	0.1953
-6.2858	0.6281	12.3939	46.497	120.4531	16.5146	1.5698	-0.3262	-0.9884	4.13	0.9338	8.9096	-7.0433	0.6913	-1.0076	-0.072	-0.2041	-0.3002	10.011	1.2212	0.133	-6.9209	3.4068	-16.8818	-1.3801	-0.8307	0.1775
-7.0691	-0.2448	12.2744	47.9801	128.0271	19.336	1.6101	-0.4028	-0.972	4.1354	0.3598	9.1414	-8.6616	0.1865	-0.319	-0.066	-0.2101	-0.2822	9.6061	1.4488	-0.2748	-7.9441	2.2795	-16.7987	-1.3953	-0.8297	0.2483
-6.8915	-0.418	12.1046	42.3524	137.5962	24.2274	1.5742	-0.3817	-0.9567	4.2486	0.5318	9.0858	-9.7648	-0.0386	-0.0346	-0.06	-0.2101	-0.3062	9.4949	1.2785	-0.1625	-9.8561	1.5599	-15.4259	-1.396	-0.8311	0.1772
-7.1358	-0.1236	11.9215	49.7759	144.2111	29.4752	1.6312	-0.4018	-0.9206	4.3633	0.4741	9.0877	-8.8076	-0.1858	-0.2852	-0.054	-0.2161	-0.3002	9.3249	1.1081	-0.1658	-11.8508	0.8051	-13.7128	-1.396	-0.8495	0.2121
-6.6065	-0.349	11.2331	52.4149	152.0849	35.9483	1.6521	-0.4202	-0.8866	4.4209	0.3015	9.088	-6.8358	-0.1038	-0.2973	-0.06	-0.2101	-0.2942	8.8741	0.995	-0.0025	-13.5943	0.2925	-11.9132	-1.4425	-0.8111	0.2657
-7.2893	-0.6253	10.0572	47.3022	160.8633	41.1237	1.6403	-0.4932	-0.8397	4.4816	0.8776	9.326	-4.2143	-0.2982	-0.8032	-0.0781	-0.1921	-0.2882	8.8061	0.7671	-0.6333	-15.7337	-0.8923	-7.8024	-1.3801	-0.8492	0.2125
-6.3498	-0.4937	8.7879	42.1814	167.5675	45.8543	1.6439	-0.4524	-0.7547	4.5299	0.3	8.7973	-1.2259	-0.2704	-1.0974	-0.066	-0.1981	-0.3062	8.4524	0.5395	-1.3837	-18.1189	-3.0227	-3.5382	-1.3794	-0.8108	0.2137
