1812_acc_x	1812_acc_y	1812_acc_z	1812_gyro_x	1812_gyro_y	1812_gyro_z	1812_mag_x	1812_mag_y	1812_mag_z	1813_acc_x	1813_acc_y	1813_acc_z	1813_gyro_x	1813_gyro_y	1813_gyro_z	1813_mag_x	1813_mag_y	1813_mag_z	1814_acc_x	1814_acc_y	1814_acc_z	1814_gyro_x	1814_gyro_y	1814_gyro_z	1814_mag_x	1814_mag_y	1814_mag_z
-1.251554	1.045324	9.836489	-0.600352	0.507647	0.075866	-0.489176	-0.893799	-0.70639	-0.321094	-0.66564	9.440383	0.30287	-1.7499	-0.277767	0.090059	0.294191	-0.288188	9.844547	-1.521401	-0.146247	3.942357	1.214108	-2.127529	-0.743955	0.368717	0.865764
-1.479099	1.336039	9.948246	-0.477966	0.599196	-0.106639	0.467911	0.133612	-0.869278	-0.041863	-0.265242	9.327105	1.538444	-1.470257	-0.088416	0.168109	-0.10807	-0.264172	9.61385	-1.75332	-0.32308	3.450084	1.38742	-1.828342	-0.671759	0.526527	-0.384104
-1.54421	1.044904	9.541701	-0.319704	0.624189	0.012863	0.485778	0.192418	-0.907914	0.246274	-0.667547	9.56925	0.954405	-1.911635	-0.095496	0.180117	-0.102066	-0.27618	9.955851	-1.927692	-0.317111	2.989448	1.138345	-1.947383	-0.6932	0.485561	-0.258989
-1.251999	1.509665	9.837607	-0.226027	0.652503	0.011799	0.466239	0.155377	-0.924863	-0.033234	-0.609707	9.740715	1.189437	-2.036836	-0.26659	0.192125	-0.090059	-0.264172	9.847698	-1.40482	0.025555	3.327655	1.142058	-1.915066	-0.670052	0.471505	-0.29725
-1.192325	1.509889	9.95438	-0.200266	0.497947	0.004839	0.486422	0.17178	-0.870489	-0.209142	-0.665879	9.383556	1.307451	-2.167207	-0.248338	0.168109	-0.114074	-0.264172	9.453827	-1.518765	0.245514	3.573286	1.269957	-2.069638	-0.709622	0.519133	-0.318643
-1.481496	1.451845	9.832896	-0.350909	0.593827	0.042917	0.463803	0.138117	-0.941918	0.304285	-0.438751	9.687931	1.414941	-2.024805	-0.088592	0.168109	-0.114074	-0.27618	9.905312	-1.173085	0.084825	3.635045	1.176044	-1.883616	-0.688747	0.477062	-0.283921
-1.538717	1.277773	9.831333	-0.13299	0.61847	0.069308	0.449903	0.174618	-0.963286	0.019344	-0.380403	9.564396	1.069431	-2.138159	-0.021495	0.186121	-0.114074	-0.27618	9.44459	-1.405075	-0.210697	3.604423	1.142296	-1.699487	-0.670906	0.499016	-0.340677
-1.253086	1.451483	9.779653	0.177775	0.797396	-0.114086	0.484368	0.174033	-0.906809	0.135003	-0.896477	9.626483	0.796295	-2.202323	0.23155	0.168109	-0.10807	-0.258168	9.285261	-2.097124	0.296599	3.420284	1.015155	-1.544603	-0.690973	0.481311	-0.271455
-1.13215	0.987729	10.069895	-0.166113	0.746099	-0.199696	0.481287	0.177411	-0.96129	-0.089349	-0.380468	9.798223	1.852572	-2.539962	-0.106637	0.174113	-0.114074	-0.27618	9.789173	-1.173383	-0.031612	3.513094	0.798111	-1.29439	-0.688274	0.495571	-0.322724
-1.258301	0.9284	9.489321	0.091271	0.984325	-0.104352	0.498268	0.137531	-0.885442	0.193121	-1.068626	9.686874	3.359659	-1.701848	-0.107664	0.174113	-0.096063	-0.264172	10.018858	-0.999623	0.087866	3.851863	0.557525	-1.317574	-0.653111	0.488706	-0.336916
-1.370791	0.928791	9.602665	-0.070323	0.77314	-0.109184	0.466884	0.134738	-0.887438	-0.096444	-0.551635	9.385526	2.505952	-2.603852	-0.01087	0.180117	-0.120078	-0.258168	9.503786	-1.404663	-0.095387	4.252342	0.279342	-0.819609	-0.655337	0.492955	-0.32445
-1.246451	1.684492	10.1271	-0.038351	0.740305	-0.019615	0.454776	0.209137	-0.929175	0.02026	-0.323212	9.623294	2.569671	-2.575424	-0.011363	0.162106	-0.102066	-0.264172	9.559717	-1.462936	-0.151615	4.744882	0.038383	-0.689033	-0.703844	0.501632	-0.338951
-1.315912	1.160627	9.488737	0.120232	0.796472	0.0706	0.480139	0.118875	-0.903496	-0.087751	-0.552447	9.857528	-0.048999	-2.390178	0.342939	0.174113	-0.10807	-0.258168	9.278709	-1.056041	0.072962	4.806719	-0.059609	-0.227653	-0.6914	0.495067	-0.293168
-1.308998	1.103422	9.835486	-0.011308	0.710443	-0.143722	0.420573	0.169573	-0.928962	-0.322351	-0.608246	9.381281	1.054721	-2.418151	-0.008015	0.180117	-0.096063	-0.270176	9.51291	-1.460456	0.361088	5.11446	-0.151398	0.02081	-0.702091	0.478874	-0.312614
-1.247594	1.684352	10.069286	-0.341624	0.807795	0.143162	0.482959	0.155647	-0.905705	0.184556	-0.380508	9.331655	2.070082	-2.057773	0.009095	0.168109	-0.096063	-0.270176	9.564563	-1.635573	0.075965	5.115145	-0.42907	0.149593	-0.674931	0.493759	-0.294031
-1.487965	1.044708	9.485029	-0.837756	0.69651	0.242063	0.4216	0.168446	-0.910801	-0.029633	-0.724596	9.917919	0.408626	-2.029801	-0.361372	0.180117	-0.10807	-0.270176	9.619356	-1.114883	0.022365	5.699368	-0.398018	0.610787	-0.708769	0.491622	-0.275216
-1.246228	1.452321	10.126541	-0.808601	0.665375	0.209531	0.454011	0.170113	-0.890645	-0.046615	-0.493904	9.03251	1.146019	-1.927586	0.051035	0.168109	-0.10807	-0.27618	9.56231	-1.636099	-0.03822	5.823113	-0.678252	1.015554	-0.705643	0.492126	-0.304771
-1.198596	2.089617	9.666703	-1.835204	0.382967	0.344573	0.466239	0.155377	-0.924863	0.075458	-0.609642	9.506888	0.737558	-1.902904	-0.087054	0.180117	-0.102066	-0.27618	9.618799	-1.404627	-0.036042	5.884558	-0.648203	1.106942	-0.691446	0.462803	-0.232651
-1.25384	1.045045	9.72086	-1.987574	0.448523	0.350887	0.482959	0.155647	-0.905705	0.073861	-0.437663	9.447583	0.781943	-1.756314	0.044351	0.174113	-0.10807	-0.282184	9.671351	-1.463689	-0.263547	5.792509	-0.712907	1.260872	-0.739907	0.503744	-0.307669
-1.02451	1.276993	9.725991	-1.651566	0.285002	0.397302	0.497623	0.15817	-0.922867	0.075118	-0.495057	9.506685	0.816063	-1.527561	-0.189449	0.174113	-0.114074	-0.264172	9.563323	-1.57794	0.019135	5.362194	-0.75158	1.442964	-0.675358	0.507515	-0.315745
-1.251134	1.800019	9.896121	-1.652333	0.348198	0.277679	0.465595	0.176015	-0.962288	0.134151	-0.610015	9.625975	0.540553	-1.655262	0.090511	0.174113	-0.114074	-0.258168	9.902832	-1.057818	-0.028833	5.085273	-0.636463	1.714069	-0.65401	0.483953	-0.319826
-1.431775	1.102555	9.428497	-1.435635	0.185376	0.510315	0.469703	0.17151	-0.889647	-0.383558	-0.493084	9.143991	0.807606	-1.458946	0.278818	0.174113	-0.10807	-0.264172	9.794805	-1.172069	0.253849	4.746732	-0.515307	1.52593	-0.657989	0.51096	-0.333698
-1.770612	1.335759	9.711272	-1.191763	0.21218	0.322263	0.406553	0.146412	-0.874375	-0.377614	-0.665469	9.439296	1.15552	-1.673436	-0.056625	0.180117	-0.096063	-0.264172	9.615647	-1.521209	-0.207844	4.561123	-0.055097	1.330752	-0.6923	0.490314	-0.276078
-1.251776	1.277495	9.837048	-1.338627	0.399882	0.394582	0.437292	0.169843	-0.909803	0.185643	-0.38061	9.390655	1.04034	-1.58076	0.046218	0.180117	-0.102066	-0.270176	9.673603	-1.463163	-0.149363	4.376217	0.126536	1.325546	-0.65491	0.4792	-0.302736
-1.48618	1.567372	9.601916	-1.093988	0.36349	0.326153	0.488214	0.209678	-0.890859	0.021624	-0.781552	9.624106	0.682037	-1.809336	-0.04813	0.174113	-0.096063	-0.27618	10.069499	-1.2329	-0.254612	3.883185	0.60817	1.495235	-0.694526	0.494563	-0.263612
-1.59736	1.393774	9.772655	-0.820577	0.327561	0.165382	0.467267	0.15425	-0.906703	-0.202793	-0.609196	9.737456	0.811159	-1.788483	0.041226	0.168109	-0.096063	-0.27618	9.681487	-1.461323	0.250282	3.113595	0.998067	1.420886	-0.655337	0.492955	-0.32445
-1.423997	1.335704	9.833759	-0.787196	0.293877	0.316002	0.468676	0.172636	-0.907807	-0.036153	-0.723987	9.563918	0.937523	-1.663011	-0.078936	0.180117	-0.102066	-0.270176	9.730103	-1.810918	-0.206906	2.682485	1.269979	1.320508	-0.658462	0.492451	-0.294894
-1.260921	1.276377	9.37453	-0.791936	0.108534	0.36962	0.454394	0.189625	-0.90991	0.127227	-0.838474	9.21338	0.834707	-1.745263	-0.20409	0.192125	-0.090059	-0.264172	10.077496	-1.288956	0.14477	1.913335	1.448944	1.006375	-0.721685	0.479678	-0.282195
-1.31053	1.509581	9.778649	-0.609768	0.07419	0.272202	0.454394	0.189625	-0.90991	0.016936	-0.666561	9.387903	0.730818	-1.758897	-0.448421	0.180117	-0.120078	-0.270176	9.966317	-1.519788	0.255651	1.29719	1.936309	0.685912	-0.688747	0.477062	-0.283921
-1.366052	0.755222	9.833505	-0.522496	-0.175934	0.382091	0.43409	0.113559	-0.88833	0.243185	-0.724535	9.392351	0.68809	-1.550107	-0.248052	0.180117	-0.114074	-0.270176	9.848142	-1.057178	0.084225	1.081128	2.273532	0.493421	-0.657563	0.497204	-0.311984
-1.538606	1.161688	9.831054	-0.644945	-0.204711	0.475498	0.50006	0.175429	-0.905811	0.195188	-0.667884	9.863164	0.405227	-1.566416	-0.300623	0.174113	-0.102066	-0.264172	9.39553	-1.403121	0.187822	0.465547	2.516597	0.117456	-0.655763	0.506711	-0.346164
-1.432221	1.566897	9.429615	-0.54512	0.008097	0.481865	0.483341	0.175159	-0.924969	0.014827	-0.322705	9.328293	0.411586	-1.542267	-0.17569	0.180117	-0.120078	-0.27618	9.502216	-1.752567	-0.211148	0.065406	2.669909	-0.224686	-0.674931	0.493759	-0.294031
-1.593486	0.929852	9.944981	-0.267225	0.063565	0.38586	0.421983	0.187958	-0.930066	-0.319092	-0.60855	9.558282	0.218133	-1.624163	-0.235718	0.180117	-0.10807	-0.258168	10.188675	-1.058124	0.03389	-0.580615	2.816113	-0.292719	-0.707016	0.468864	-0.248878
-1.594907	1.219926	9.887865	0.077178	0.302752	0.234701	0.450165	0.134468	-0.906596	-0.383218	-0.607669	9.144194	0.307697	-1.555901	-0.42002	0.192125	-0.10807	-0.264172	9.724574	-1.290902	-0.432909	-0.91877	2.783108	-0.416112	-0.70607	0.505881	-0.326485
-1.375753	1.334531	9.372384	-0.017073	0.494351	-0.091341	0.456448	0.187373	-0.87359	-0.024775	-0.89688	10.154224	0.361992	-1.714699	-0.401275	0.186121	-0.10807	-0.264172	9.674843	-1.520797	-0.092534	-0.949133	2.601545	-0.595574	-0.655337	0.492955	-0.32445
-1.423885	1.219619	9.83348	-0.354366	0.533178	-0.020611	0.488597	0.22919	-0.910123	-0.089583	-0.666829	9.73973	0.482457	-1.714609	-0.49836	0.180117	-0.114074	-0.27618	10.185979	-1.406291	-0.138964	-1.163404	2.173411	-0.831478	-0.737681	0.499495	-0.320136
-1.138366	1.509414	9.782078	-0.479375	0.600045	-0.167689	0.483986	0.154521	-0.887545	-0.256968	-0.666521	9.854471	0.906574	-2.053146	-0.319162	0.186121	-0.114074	-0.270176	9.844547	-1.521401	-0.146247	-0.732485	1.938041	-1.129554	-0.687375	0.500324	-0.339814
-1.022168	1.219229	9.84148	-0.289267	0.717747	-0.136814	0.486422	0.17178	-0.870489	0.076545	-0.609743	9.565888	1.270804	-2.09057	-0.489323	0.162106	-0.10807	-0.258168	9.683284	-1.229212	0.365518	-0.240163	1.788584	-0.970515	-0.677157	0.498008	-0.281565
-1.316301	1.566925	9.489715	-0.137662	0.715388	-0.262752	0.450547	0.15398	-0.925861	-0.268176	-0.550921	9.264266	1.516637	-2.332242	-0.235623	0.168109	-0.096063	-0.264172	9.618469	-1.810165	-0.094974	-0.024672	1.696112	-0.753117	-0.656236	0.488202	-0.30736
-1.078636	1.451596	9.898711	0.109412	0.708895	-0.268892	0.435883	0.151457	-0.908699	0.131296	-0.380642	9.507569	1.87428	-2.594587	-0.26545	0.180117	-0.102066	-0.270176	9.965873	-1.86743	0.196981	0.590623	1.548622	-0.624049	-0.726091	0.520441	-0.31778
-1.079445	1.1032	9.840058	0.292605	0.7053	-0.365072	0.47073	0.170383	-0.871487	-0.157821	-0.379181	9.148134	1.898259	-2.261218	-0.121324	0.174113	-0.114074	-0.270176	9.793451	-1.056539	0.197283	0.836588	1.578225	-0.348148	-0.651784	0.479704	-0.332292
-1.482751	1.567791	9.77536	0.234294	0.767572	-0.300009	0.496858	0.119146	-0.884338	0.139713	0.076783	10.037758	-3.290029	-2.4892	-0.472717	0.180117	-0.120078	-0.252164	9.849052	-1.520349	0.082122	1.113936	1.306232	-0.370934	-0.651784	0.479704	-0.332292
-1.260921	1.276377	9.37453	0.04758	0.77329	-0.356455	0.466884	0.134738	-0.887438	0.31447	-0.210596	10.277526	-1.404564	-2.268368	-0.279859	0.174113	-0.102066	-0.252164	10.074447	-0.884207	0.032426	1.237821	0.9111	-0.483445	-0.721212	0.498187	-0.320998
-1.362315	1.626421	10.06686	-0.040911	0.835949	-0.2601	0.504289	0.230586	-0.909125	-0.207757	-0.035967	9.55944	0.441825	-2.101359	-0.212649	0.174113	-0.10807	-0.270176	9.963382	-1.172936	0.143044	1.545543	0.793191	-0.540226	-0.672705	0.48951	-0.306497
-1.598893	1.799933	9.715819	0.084739	0.831429	-0.171595	0.456448	0.187373	-0.87359	0.018364	-0.781247	9.447106	0.760416	-1.959222	-0.215113	0.174113	-0.114074	-0.252164	9.626227	-1.171202	0.364655	1.73106	0.36454	-0.406948	-0.673178	0.471001	-0.267694
-1.08516	1.102501	9.550984	-0.134268	0.838808	-0.288323	0.499033	0.176555	-0.923971	-0.313658	-0.609058	9.853283	0.984847	-1.878574	-0.15629	0.192125	-0.120078	-0.282184	9.79526	-1.403654	0.252798	1.916049	0.124777	-0.614489	-0.723438	0.502436	-0.308532
-1.541757	0.871055	9.656911	-0.258446	0.779707	-0.22668	0.439084	0.207741	-0.930173	-0.149022	-0.780939	9.561846	0.758167	-1.497531	-0.12361	0.180117	-0.10807	-0.264172	9.845229	-1.868779	-0.147824	1.639811	-0.06435	-0.489248	-0.671379	0.480508	-0.301873
-1.262565	1.798621	9.317973	-0.225769	0.746448	-0.106586	0.482959	0.155647	-0.905705	0.306394	-0.782607	9.74754	-1.091318	-1.436234	0.194782	0.180117	-0.102066	-0.270176	9.61666	-1.46305	-0.150489	1.486241	-0.155025	-0.702066	-0.705216	0.47837	-0.283058
-1.544266	1.102946	9.54184	-0.317461	0.842404	-0.192143	0.438319	0.168717	-0.891643	-0.044782	-0.379522	9.150308	-1.506132	-1.435702	-0.06824	0.186121	-0.10807	-0.27618	9.616887	-1.578842	-0.151015	1.455548	-0.158122	-0.518649	-0.673605	0.484757	-0.289407
-0.96174	1.625892	10.017046	-0.593243	0.785662	-0.004562	0.482959	0.155647	-0.905705	0.245592	-0.438377	9.568844	-0.17761	-1.551182	-0.12394	0.168109	-0.10807	-0.270176	9.847357	-1.23113	0.026344	0.840719	-0.196349	-0.521067	-0.688321	0.463307	-0.262207
-1.372658	1.683206	9.546667	-0.658148	0.75781	-0.095841	0.468294	0.153124	-0.888543	0.31023	-0.611136	9.983236	0.163302	-1.431056	-0.314051	0.180117	-0.102066	-0.264172	9.63253	-0.938039	0.708259	0.8401	0.104723	-0.161033	-0.687848	0.481815	-0.301011
-1.601012	1.625526	9.59977	-0.50853	0.631181	-0.135158	0.451575	0.152854	-0.907701	0.017682	-0.552077	9.4467	0.501686	-1.508314	-0.300403	0.168109	-0.090059	-0.27618	9.792336	-1.636029	0.08047	0.440164	0.193564	-0.287583	-0.667399	0.4535	-0.288002
-1.260167	1.682815	9.433323	-0.567929	0.725475	-0.160432	0.454776	0.209137	-0.929175	-0.09753	-0.551533	9.326526	0.376547	-1.568555	-0.23791	0.168109	-0.10807	-0.270176	9.739329	-1.345381	0.309026	0.131847	0.557586	-0.297682	-0.657563	0.497204	-0.311984
-1.422909	1.393887	9.891714	-0.483857	0.508647	-0.232455	0.451575	0.152854	-0.907701	0.022263	-0.266123	9.741193	0.458373	-1.723521	-0.312632	0.192125	-0.102066	-0.258168	9.793348	-1.577869	0.137825	-0.26838	0.796055	-0.183024	-0.687421	0.46806	-0.279297
-1.24988	1.684073	9.953656	-0.511988	0.570532	-0.198685	0.421218	0.148934	-0.891537	-0.035919	-0.437627	9.622411	0.667023	-1.854248	-0.359505	0.180117	-0.102066	-0.270176	9.504229	-1.057022	-0.036717	-0.638235	1.215636	0.141692	-0.655337	0.492955	-0.32445
-1.366998	1.741948	9.83588	-0.38493	0.565163	-0.04913	0.452602	0.151727	-0.889541	-0.036941	-0.093872	9.621801	0.721395	-1.946122	-0.429183	0.174113	-0.120078	-0.258168	9.509201	-1.866782	0.130879	-1.22308	1.48656	-0.02066	-0.719032	0.461673	-0.272947
-0.85017	1.393191	9.845329	-0.23435	0.532055	-0.176306	0.45093	0.173492	-0.945126	0.127291	-0.494821	9.271771	0.862343	-2.065888	-0.627413	0.174113	-0.102066	-0.264172	9.681714	-1.577116	0.249757	-1.685404	1.944262	-0.27844	-0.686994	0.454304	-0.257583
-1.375363	0.928232	9.371406	-0.135166	0.682516	-0.111365	0.468676	0.172636	-0.907807	-0.261315	-0.666115	9.61847	0.899525	-2.176834	-0.326839	0.180117	-0.096063	-0.270176	9.850633	-1.751672	0.138162	-2.085697	2.186355	-0.408546	-0.688747	0.477062	-0.283921
-1.769469	1.335898	9.769086	-0.265555	0.501693	-0.146252	0.465857	0.135865	-0.905598	0.244506	-0.438276	9.509843	1.141069	-2.144038	-0.549845	0.168109	-0.10807	-0.270176	9.45765	-1.170335	0.47546	-2.639326	2.271941	-0.444092	-0.652684	0.47495	-0.315202
-1.487909	0.986665	9.484889	-0.205899	0.501344	-0.239362	0.470468	0.210534	-0.928177	-0.490312	-0.779713	9.437326	1.314527	-2.4349	-0.482094	0.162106	-0.10807	-0.264172	9.675856	-1.462638	-0.035179	-2.670539	2.457278	-0.570898	-0.670906	0.499016	-0.340677
-1.64658	1.22068	10.175796	-0.201417	0.592741	-0.174596	0.468294	0.153124	-0.888543	-0.143759	-0.724154	9.856746	1.167298	-2.27236	-0.497221	0.186121	-0.120078	-0.264172	10.249907	-1.52062	0.20419	-2.885554	2.390606	-0.386998	-0.65491	0.4792	-0.302736
-1.02674	1.218671	9.610221	0.075196	0.523515	-0.153455	0.488859	0.189039	-0.853434	0.291586	-0.552117	8.980132	1.26549	-1.791955	-0.253648	0.174113	-0.114074	-0.258168	9.965976	-1.346099	0.256439	-3.039499	2.454091	-0.664563	-0.686948	0.486569	-0.3181
-1.825603	1.220008	9.825479	-0.389796	0.505364	-0.173707	0.437292	0.169843	-0.909803	-0.035407	-0.609504	9.622715	2.185857	-2.464745	-1.195574	0.174113	-0.114074	-0.258168	10.015479	-1.000412	-0.08341	-2.455514	2.523496	-0.724203	-0.738581	0.494741	-0.303046
-1.597193	1.219646	9.772236	-0.114528	0.374215	-0.124518	0.451192	0.133342	-0.888436	-0.206734	-0.379721	9.560049	1.603522	-2.092438	-0.717866	0.168109	-0.090059	-0.264172	9.790868	-1.462602	0.024166	-2.332862	2.676451	-0.60475	-0.634888	0.46464	-0.311442
-1.825992	1.626307	9.826457	0.036178	0.215563	-0.073498	0.434211	0.173222	-0.964284	-0.378402	-0.035354	9.49718	0.623174	-2.035146	-0.431322	0.174113	-0.120078	-0.270176	9.90397	-1.636782	-0.031462	-1.871539	2.620379	-0.570385	-0.688747	0.477062	-0.283921
-1.321738	1.276013	9.199943	-0.486742	0.228085	0.031124	0.421862	0.128296	-0.854112	-0.481448	-0.837818	9.909429	-0.016792	-1.823419	-0.394479	0.186121	-0.114074	-0.27618	10.024603	-1.056205	0.373064	-1.287121	2.532906	-0.381704	-0.672278	0.475754	-0.284784
-1.261032	1.392462	9.37481	-0.275355	0.099834	-0.009728	0.487187	0.210804	-0.909019	0.249364	-0.610559	9.746149	0.044628	-1.791605	-0.456479	0.192125	-0.090059	-0.258168	9.684638	-1.344742	0.422084	-1.041232	2.539561	-0.625217	-0.637541	0.482645	-0.320689
-1.193134	1.161493	9.895727	-0.308162	-0.086396	0.166759	0.471113	0.189895	-0.890752	-0.148617	-0.551871	9.62044	0.108423	-1.696254	-0.545395	0.174113	-0.10807	-0.264172	9.960231	-1.289517	-0.028759	-0.487817	2.545926	-0.591804	-0.638441	0.477892	-0.303599
-1.660296	1.219003	9.482019	-0.283426	-0.271701	0.15856	0.498006	0.177682	-0.942132	0.082724	-0.495767	9.919686	0.028895	-1.544675	-0.409165	0.186121	-0.120078	-0.282184	9.851975	-1.287975	0.25445	0.004977	2.183728	-0.550171	-0.672705	0.48951	-0.306497
-1.206153	1.624298	9.260882	-0.375311	-0.332463	0.280485	0.470086	0.191022	-0.908912	0.125117	-0.494618	9.153771	-0.033751	-1.641719	-0.289496	0.168109	-0.114074	-0.264172	9.339486	-1.286951	0.244313	0.343464	2.038267	-0.789658	-0.690074	0.486065	-0.288545
-1.543234	1.219171	9.599935	-0.710428	-0.357681	0.53189	0.485778	0.192418	-0.907914	0.069961	-0.952787	9.153496	0.022614	-1.5019	-0.622522	0.192125	-0.10807	-0.264172	9.799082	-1.055224	0.482743	0.620327	2.006494	-0.481582	-0.66868	0.494767	-0.353143
-0.962605	1.335539	9.958532	-0.743235	-0.543911	0.708377	0.452984	0.171239	-0.908805	-0.267494	-0.78009	9.264672	-0.231904	-1.392384	-0.142685	0.192125	-0.096063	-0.270176	9.501761	-1.520981	-0.210097	0.590146	1.734791	-0.781294	-0.635788	0.459887	-0.294352
-1.482695	1.509748	9.775221	-1.025228	-0.722374	0.799428	0.466622	0.174889	-0.944128	-0.042098	-0.551602	9.268613	-0.444382	-1.088422	-0.424506	0.192125	-0.114074	-0.270176	9.511783	-1.460719	0.303996	0.651893	1.668357	-0.381816	-0.625098	0.47608	-0.274906
-1.595352	1.684267	9.888983	-1.483622	-0.650402	0.935518	0.48757	0.230316	-0.928283	-0.091011	-0.552142	9.680527	-0.777477	-0.918397	-0.432396	0.174113	-0.114074	-0.288188	9.498041	-1.348081	-0.380585	0.806788	1.205961	-0.06441	-0.674931	0.493759	-0.294031
-1.537853	1.568126	9.889847	-1.084116	-0.785221	1.012163	0.486422	0.17178	-0.870489	-0.259823	-0.437148	9.736064	-1.226822	-0.58708	-0.45662	0.168109	-0.096063	-0.264172	9.679234	-1.461849	0.136098	1.115071	0.843752	-0.176693	-0.690074	0.486065	-0.288545
-1.423385	0.697235	9.832222	-1.418717	-0.62255	1.026798	0.500443	0.194941	-0.925076	0.076375	-0.552451	9.565787	-0.792674	-0.705775	-0.325494	0.180117	-0.090059	-0.270176	9.731456	-1.926448	-0.15034	1.084818	0.602698	-0.477115	-0.705643	0.492126	-0.304771
-1.544321	1.160989	9.54198	-1.890752	-0.981486	1.176073	0.468294	0.153124	-0.888543	-0.202217	-0.43742	9.796151	-1.221	-0.528622	-0.391274	0.180117	-0.114074	-0.264172	9.387647	-1.404961	-0.211823	0.654339	0.573087	-0.906934	-0.633989	0.469393	-0.328531
-1.134658	1.21962	9.954824	-2.246309	-0.541688	1.233148	0.481931	0.156773	-0.923865	-0.090094	-0.494952	9.739426	-1.498574	-0.452165	-0.438088	0.180117	-0.114074	-0.264172	9.452804	-0.997697	0.24788	0.776796	0.790064	-0.972477	-0.653157	0.456442	-0.276399
-1.543345	1.335257	9.600214	-2.400471	-0.443686	1.1186	0.471495	0.209407	-0.910017	0.076375	-0.552451	9.565787	-1.273609	-0.405825	-0.319677	0.180117	-0.10807	-0.264172	9.449778	-1.751402	0.016094	0.653492	0.912965	-1.09833	-0.675831	0.489006	-0.276941
-1.134436	0.987449	9.954265	-1.943104	-0.546407	0.981271	0.451957	0.172366	-0.926966	0.021112	-0.609674	9.623802	-1.178301	-0.34603	-0.35021	0.174113	-0.10807	-0.252164	9.620039	-1.462261	0.020787	0.867939	1.251415	-1.013271	-0.704743	0.496879	-0.321861
-1.079668	1.33537	9.840617	-1.702817	-0.454708	0.551495	0.469059	0.192148	-0.927072	0.024607	-0.323618	9.859295	-1.275907	-0.402439	-0.381184	0.174113	-0.120078	-0.264172	9.615864	-1.057775	-0.148649	0.836875	1.402024	-0.864006	-0.65491	0.4792	-0.302736
-1.309165	1.27755	9.835905	-1.423642	-0.274546	0.338343	0.505698	0.248972	-0.91023	0.530299	-0.783085	9.633886	-1.454161	-0.696956	-0.548116	0.168109	-0.090059	-0.264172	9.499167	-1.347818	-0.323492	0.313956	1.516375	-0.747128	-0.65401	0.483953	-0.319826
-1.481329	1.277717	9.832476	-1.294978	0.220984	-0.133311	0.503524	0.191562	-0.870596	0.088157	-0.496275	10.214687	-0.723106	-1.010271	-0.502074	0.162106	-0.102066	-0.27618	9.506721	-1.751515	0.017221	-0.11706	1.75673	-0.785605	-0.668726	0.462503	-0.292626
-1.601932	1.393215	9.541396	-1.142413	0.312145	-0.347108	0.483341	0.175159	-0.924969	-0.036323	-0.666695	9.563816	-0.002619	-1.509119	-0.467548	0.174113	-0.102066	-0.282184	9.847015	-1.057441	0.027132	-0.701895	2.080798	-0.398659	-0.704317	0.483123	-0.300148
-1.250633	1.277634	9.894863	-0.776286	0.211009	-0.421083	0.46483	0.136991	-0.923758	-0.369666	-0.780765	9.8525	0.429339	-1.948886	-0.727785	0.180117	-0.102066	-0.270176	9.672591	-1.521323	-0.206718	-1.439851	2.102811	-0.433721	-0.672232	0.508019	-0.345301
-1.295337	1.163142	10.529403	-0.583872	0.484154	-0.506116	0.468031	0.193274	-0.945232	0.305201	-0.38156	9.746829	0.758377	-2.146446	-0.783322	0.168109	-0.114074	-0.264172	9.56727	-1.866633	0.189098	-1.809845	2.556664	-0.354481	-0.707442	0.482619	-0.270592
-1.144248	1.682844	9.493424	-0.430859	0.480946	-0.571004	0.43691	0.150331	-0.890539	-0.206052	-0.608891	9.560455	0.977368	-2.292411	-0.553411	0.168109	-0.114074	-0.27618	9.449778	-1.751402	0.016094	-2.086752	2.617727	-0.57148	-0.656663	0.501958	-0.329074
-1.373133	0.986554	9.487175	-0.678574	0.425091	-0.506291	0.503906	0.211074	-0.889861	0.025693	-0.32372	9.918295	0.255372	-2.517871	-0.41801	0.180117	-0.102066	-0.27618	9.732685	-1.404855	-0.033789	-2.33325	2.831062	-0.700093	-0.70607	0.505881	-0.326485
-1.136135	1.567737	9.897848	-0.460015	0.512082	-0.538473	0.498651	0.157043	-0.904707	0.074777	-0.380472	9.506482	0.607267	-2.77175	-0.601606	0.168109	-0.102066	-0.27618	9.679359	-2.098972	0.076114	-2.302464	2.775577	-1.065662	-0.637541	0.482645	-0.320689
-1.656979	1.335508	9.655743	-0.488019	0.448423	-0.326507	0.451575	0.152854	-0.907701	-0.146103	-0.666658	9.738644	0.859765	-2.721578	-0.576663	0.174113	-0.096063	-0.264172	9.850417	-2.215106	0.078967	-1.810636	2.786169	-1.369114	-0.719886	0.489184	-0.316375
-1.431887	1.218641	9.428776	-0.581249	0.325739	-0.176534	0.487187	0.210804	-0.909019	-0.20765	-0.436912	9.50115	1.400901	-3.054945	-0.586811	0.162106	-0.114074	-0.270176	9.562538	-1.751892	-0.038745	-1.502695	2.602882	-1.149112	-0.655337	0.492955	-0.32445
-1.372435	1.451035	9.546108	-0.493016	0.169135	-0.154504	0.481931	0.156773	-0.923865	-0.031167	-0.208964	9.917005	1.624135	-3.430908	-0.711753	0.180117	-0.10807	-0.264172	10.012555	-1.232786	-0.255738	-1.133448	2.456894	-1.327252	-0.656236	0.488202	-0.30736
-1.426227	1.277382	9.71799	-0.859978	0.051207	0.185527	0.466884	0.134738	-0.887438	0.293589	-0.495028	9.09803	1.923959	-3.596299	-0.764164	0.174113	-0.126082	-0.264172	10.071421	-1.637912	-0.19936	-0.426323	2.439034	-1.598303	-0.671806	0.494263	-0.323587
-1.079779	1.451456	9.840896	-0.826214	-0.014074	0.395959	0.468414	0.212786	-0.964497	0.081595	0.248933	9.977367	-2.627115	-3.584479	-0.288929	0.174113	-0.090059	-0.294191	9.670452	-1.579745	-0.321165	0.065752	2.356315	-1.807835	-0.671806	0.494263	-0.323587
-1.256627	1.567149	9.606488	-1.078668	-0.255272	0.51429	0.468676	0.172636	-0.907807	0.361891	-0.439023	9.748017	-0.247653	-3.738984	-0.447143	0.180117	-0.10807	-0.27618	9.905779	-1.983897	0.024053	0.249898	2.483002	-1.932124	-0.706543	0.487372	-0.287682
-1.083208	1.451037	9.667452	-1.242567	-0.621899	0.625365	0.459267	0.224144	-0.875799	-0.706141	-0.207224	10.080966	-0.075622	-4.184454	-0.976436	0.174113	-0.114074	-0.264172	9.85086	-1.867465	0.137637	0.987891	2.405579	-2.293384	-0.688747	0.477062	-0.283921
-1.492704	1.218277	9.254189	-1.535528	-0.309692	0.889627	0.43691	0.150331	-0.890539	-0.091756	-0.666626	9.62173	1.586491	-3.721505	-0.48179	0.174113	-0.102066	-0.270176	9.675628	-1.346845	-0.034653	1.541051	2.506161	-2.415084	-0.669153	0.476258	-0.31434
-1.488997	0.928483	9.426935	-1.571792	-0.55657	1.002587	0.47214	0.188769	-0.872592	0.190607	-0.953839	9.568671	2.875123	-4.515578	-0.610468	0.168109	-0.114074	-0.258168	9.501977	-1.057547	-0.150902	1.848234	2.604619	-2.599227	-0.674032	0.498512	-0.311121
-1.250633	1.277634	9.894863	-1.602807	-0.775246	1.299937	0.455803	0.208011	-0.911015	0.08935	-0.897322	10.215398	3.609186	-4.732741	-0.620176	0.168109	-0.114074	-0.258168	9.909374	-1.519675	0.254524	2.371088	2.493894	-2.960872	-0.657182	0.451185	-0.229753
-1.372379	1.392993	9.545968	-1.967907	-0.643362	1.375151	0.491678	0.225811	-0.855643	-0.373267	-0.665875	9.675297	4.373004	-5.016381	-0.57342	0.180117	-0.114074	-0.27618	10.068827	-1.464748	-0.312756	2.493592	2.681577	-3.117493	-0.70479	0.464614	-0.261344
-1.200048	1.218698	9.548978	-2.027116	-0.737382	1.617172	0.4216	0.168446	-0.910801	0.019109	-0.666764	9.505903	4.816416	-5.931385	-0.679131	0.162106	-0.10807	-0.258168	9.102361	-1.11491	-0.21614	2.217093	2.58667	-3.147363	-0.651357	0.465948	-0.310579
-1.311395	1.219228	9.720136	-2.637941	-0.537083	1.670479	0.513698	0.179078	-0.941134	-0.036899	-0.838471	9.505121	4.625102	-6.150515	-0.500807	0.168109	-0.102066	-0.27618	9.732571	-1.346959	-0.033527	1.724957	2.645535	-3.396057	-0.706969	0.501128	-0.309395
-1.5446	1.451202	9.542679	-2.640374	-0.566982	1.60819	0.441138	0.205488	-0.893853	-0.034321	-0.609605	9.681715	4.956244	-6.943615	-0.471	0.180117	-0.102066	-0.252164	9.55611	-1.347932	-0.322366	1.47869	2.766012	-3.461346	-0.689647	0.472309	-0.266831
-1.482138	0.929321	9.773823	-3.386065	-0.638903	1.561843	0.516779	0.175699	-0.886653	-0.144781	-0.380399	9.856136	4.150546	-7.458866	-1.247368	0.186121	-0.10807	-0.258168	9.612041	-1.406205	-0.378595	0.649192	2.454718	-3.825611	-0.687375	0.500324	-0.339814
-1.489275	1.218696	9.427633	-3.589314	-0.201889	1.523505	0.452339	0.191878	-0.94623	0.08347	-0.381284	9.978483	7.128817	-8.355857	-0.207896	0.174113	-0.120078	-0.264172	9.550251	-1.233453	-0.607301	0.341743	2.45093	-3.827176	-0.649131	0.461699	-0.323045
-1.421822	1.452069	9.949668	-3.619042	0.04916	1.228928	0.468294	0.153124	-0.888543	0.031063	-0.66788	10.154905	7.653042	-8.898905	-0.354494	0.168109	-0.114074	-0.264172	9.498257	-0.884647	-0.321389	-0.089519	2.811619	-3.715517	-0.639341	0.473139	-0.286509
-1.365299	1.16166	9.892298	-3.885917	0.237985	1.456944	0.459649	0.243656	-0.895064	0.079805	-0.610048	9.742889	7.029469	-9.337345	0.196323	0.162106	-0.114074	-0.27618	9.391367	-1.577862	-0.041336	-1.073085	2.704828	-3.534816	-0.716333	0.475933	-0.324217
-1.204453	1.044011	9.317299	-5.091265	0.458375	1.189054	0.438702	0.188229	-0.910908	0.023967	-0.839047	9.742208	8.313087	-10.023412	-0.203379	0.168109	-0.114074	-0.258168	9.39181	-1.23022	0.017334	-1.99557	2.808363	-3.022225	-0.636215	0.473643	-0.316065
-1.079501	1.161242	9.840198	-5.668316	0.593393	1.452792	0.457857	0.205758	-0.874694	0.021964	-0.896136	9.624309	10.719497	-10.731929	-0.490813	0.174113	-0.114074	-0.258168	9.5039	-1.462559	-0.095649	-2.764195	2.87997	-2.293971	-0.674931	0.493759	-0.294031
-1.602908	1.218947	9.483162	-5.411198	0.737673	1.666522	0.439084	0.207741	-0.930173	0.029912	-1.011432	10.037514	8.494758	-11.433348	-0.733073	0.156102	-0.114074	-0.264172	9.839587	-1.290867	-0.373564	-3.471271	2.895565	-1.869941	-0.65401	0.483953	-0.319826
-0.909845	1.392967	9.728556	-5.903407	0.937699	1.503082	0.457475	0.186246	-0.85543	-0.595169	-0.608307	9.90685	9.49949	-12.677888	-0.354952	0.162106	-0.120078	-0.264172	9.845787	-1.579034	-0.089418	-3.716939	2.850557	-1.10559	-0.655383	0.460691	-0.263933
-1.426172	1.219339	9.71785	-5.836711	0.933104	1.715224	0.454776	0.209137	-0.929175	0.426763	-0.32542	10.220902	13.273748	-14.275295	-0.223748	0.168109	-0.10807	-0.27618	9.453372	-1.287179	0.246566	-4.024971	3.173049	-0.380684	-0.655809	0.474446	-0.285647
-1.598559	1.451677	9.71498	-5.991958	1.06313	1.510339	0.518189	0.194085	-0.887758	-0.195164	0.478345	10.325528	4.296276	-17.914618	-1.243405	0.168109	-0.120078	-0.24616	9.391139	-1.462069	-0.04081	-4.547175	2.981801	-0.317886	-0.687848	0.481815	-0.301011
-1.422464	0.929545	9.890596	-6.304951	1.011021	1.42396	0.488214	0.209678	-0.890859	0.019642	0.249611	9.681279	6.761194	-19.906088	-1.429833	0.156102	-0.120078	-0.258168	9.672932	-1.695012	-0.207506	-5.28579	3.307598	-0.176487	-0.659789	0.501454	-0.299518
-1.429489	1.102835	9.544126	-6.142595	1.15901	1.548417	0.422747	0.226982	-0.968595	-0.252217	-0.437858	10.149066	3.075848	-23.593943	-2.243216	0.168109	-0.114074	-0.264172	9.958092	-1.347939	-0.143206	-5.562467	3.276257	-0.360758	-0.637114	0.468889	-0.298976
-1.3158	1.044541	9.488458	-6.474754	1.351581	1.625341	0.454011	0.170113	-0.890645	0.208462	-0.382742	10.629659	4.702041	-26.94528	-1.342914	0.156102	-0.10807	-0.270176	10.067929	-1.580804	-0.370373	-5.778353	3.550817	-0.460041	-0.671379	0.480508	-0.301873
-1.480409	1.510028	9.89085	-6.597834	1.60549	1.302542	0.45683	0.206885	-0.892855	0.657593	-0.09744	10.519844	3.00916	-30.693897	-2.016288	0.156102	-0.132086	-0.264172	10.526182	-1.812774	-0.248231	-6.362885	3.671659	-0.833006	-0.690547	0.467556	-0.249741
-1.192911	0.929323	9.895168	-6.448222	1.478861	1.263225	0.469059	0.192148	-0.927072	-0.13123	-0.553495	10.564443	2.733923	-35.740963	-2.793577	0.156102	-0.114074	-0.240156	10.187105	-1.406028	-0.081872	-7.194024	4.038749	-1.488274	-0.65491	0.4792	-0.302736
-1.13438	0.929407	9.954125	-5.685044	1.213005	1.203604	0.469059	0.192148	-0.927072	0.100515	-0.268323	10.922283	-1.382502	-40.219521	-2.436724	0.162106	-0.120078	-0.270176	9.961129	-1.173461	0.028859	-8.394428	4.607234	-1.569082	-0.638868	0.491647	-0.325313
-1.598447	1.335592	9.714701	-5.344687	1.266426	1.136589	0.44293	0.243386	-0.914222	0.330812	-0.956717	11.045848	-2.74029	-44.867549	-2.84002	0.144094	-0.10807	-0.270176	10.301572	-2.274964	-0.140654	-9.655504	4.783307	-2.099893	-0.690501	0.49982	-0.310258
-0.846296	0.929268	10.017655	-5.520386	1.171405	1.686933	0.425446	0.204092	-0.894851	0.283689	-0.098277	11.692241	1.668454	-52.280967	-3.784844	0.156102	-0.126082	-0.258168	9.795157	-1.924985	0.19334	-10.917799	5.453403	-2.886851	-0.684295	0.468564	-0.308853
-1.544488	1.335117	9.542399	-5.941354	1.395462	1.889499	0.473549	0.207155	-0.873696	0.234989	-0.900708	11.987576	0.11664	-59.067338	-5.33813	0.150098	-0.126082	-0.264172	9.902719	-0.999921	-0.028571	-11.411163	5.954052	-4.002188	-0.64332	0.500146	-0.300381
-1.309807	0.755026	9.776833	-5.39205	1.29073	1.719342	0.483986	0.154521	-0.887545	0.52091	-0.558212	12.228401	2.503878	-66.823676	-5.829709	0.150098	-0.120078	-0.252164	10.189915	-1.115757	0.090719	-11.810578	5.721146	-5.161184	-0.670006	0.503769	-0.357767
-1.248347	1.277914	10.010493	-5.359122	1.006384	2.195833	0.45683	0.206885	-0.892855	0.697159	-0.616625	12.585763	3.482577	-75.141061	-10.416639	0.144094	-0.120078	-0.252164	10.129707	-1.174328	-0.081946	-12.456726	5.821906	-6.298664	-0.634415	0.483149	-0.350245
-1.203032	0.753937	9.374415	-5.843906	1.170566	2.397457	0.476751	0.263438	-0.89517	0.083456	-0.386392	13.045406	1.901096	-85.437581	-10.277857	0.144094	-0.120078	-0.258168	9.621495	-1.05646	0.136812	-13.870789	5.663465	-7.128408	-0.670906	0.499016	-0.340677
-1.250689	1.335677	9.895003	-6.199888	0.561966	2.56428	0.472522	0.208281	-0.891857	-0.084057	-1.07339	13.043364	5.065557	-95.767388	-12.693616	0.126082	-0.10807	-0.264172	9.670554	-1.058414	-0.261707	-15.868846	5.464913	-7.807434	-0.621972	0.476584	-0.304462
-1.031201	1.102026	9.378683	-6.7722	0.537295	3.249183	0.502114	0.173177	-0.869491	0.540129	-0.445454	13.290201	8.799078	-108.405653	-14.845483	0.126082	-0.114074	-0.264172	9.734028	-0.941158	0.082498	-17.528804	5.275057	-8.790707	-0.654483	0.465444	-0.281023
-1.3066	0.987616	9.950836	-7.254998	0.480714	3.83897	0.498651	0.157043	-0.904707	0.497714	-1.534855	13.881045	12.500438	-122.304499	-18.406192	0.132086	-0.114074	-0.252164	9.495436	-0.59569	-0.434259	-19.248446	4.319099	-9.81771	-0.668253	0.481011	-0.331429
-1.483504	1.161352	9.716567	-8.63474	0.385745	4.479065	0.484368	0.174033	-0.906809	0.277134	-1.191028	14.23009	15.865295	-134.787173	-21.431188	0.132086	-0.126082	-0.24616	9.508962	-1.171763	0.191126	-21.275005	3.172273	-10.627836	-0.620173	0.48609	-0.338642
-0.910876	1.276742	9.670462	-9.00354	0.363036	4.609138	0.455803	0.208011	-0.911015	0.502338	-1.993499	14.058857	21.782206	-148.474267	-26.635584	0.102066	-0.13809	-0.252164	9.335208	-1.403796	0.015419	-22.347573	1.663938	-11.057416	-0.653111	0.488706	-0.336916
-1.254927	0.986862	9.662905	-9.291111	0.577902	5.235997	0.456448	0.187373	-0.87359	0.725454	-1.363863	14.003087	27.525733	-161.546041	-31.57806	0.096063	-0.132086	-0.24616	9.05601	-1.344016	0.295511	-22.95904	0.243709	-10.844249	-0.671379	0.480508	-0.301873
-1.141517	1.218782	9.607935	-9.081784	0.388152	5.192667	0.442548	0.223874	-0.894957	0.713501	-1.362746	13.354085	34.419429	-171.158907	-35.815099	0.096063	-0.126082	-0.252164	9.006495	-1.110477	0.695082	-23.323988	-1.445737	-10.868203	-0.61752	0.468085	-0.329394
-1.187363	1.104149	10.184661	-9.186876	0.599847	5.692819	0.437292	0.169843	-0.909803	1.226055	-1.937407	13.48288	33.730227	-177.92896	-38.357576	0.078051	-0.13809	-0.24616	9.066487	-1.51534	0.808552	-23.259811	-2.526383	-10.261658	-0.622826	0.504095	-0.34789
-1.366275	0.987393	9.834064	-7.904915	0.198474	5.523618	0.459267	0.224144	-0.875799	1.894808	-1.308525	13.081802	53.65724	-181.428729	-36.957001	0.072047	-0.13809	-0.234152	8.614775	-1.745227	0.969767	-22.580829	-3.651249	-10.293093	-0.658935	0.473943	-0.256091
-1.244751	1.104205	10.183518	-7.195755	0.619635	4.851741	0.444985	0.241133	-0.877902	1.937329	-0.62007	12.432669	54.654871	-169.848756	-28.645474	0.054035	-0.13809	-0.24616	9.012922	-1.514437	0.978702	-21.134398	-4.305515	-10.423075	-0.653111	0.488706	-0.336916
-1.426869	0.754858	9.658917	-6.218827	0.663231	4.249672	0.455803	0.208011	-0.911015	1.782109	-1.422769	13.079832	63.359772	-157.518815	-29.994676	0.048031	-0.132086	-0.222145	8.852013	-1.975164	1.429958	-18.582701	-4.224098	-9.646589	-0.606829	0.484278	-0.309949
-1.471295	0.350152	10.292759	-4.681958	0.877988	3.549644	0.457857	0.205758	-0.874694	4.280829	-1.025331	10.768014	93.483626	-159.489435	-28.619252	0.042027	-0.13809	-0.216141	9.485613	-2.785651	1.724127	-16.400044	-3.897643	-7.103788	-0.653537	0.502462	-0.35863
-1.139928	0.75458	9.664632	-3.545475	1.071271	2.949933	0.507753	0.246719	-0.87391	0.046387	-5.069384	4.146877	84.526506	-137.359583	-44.557209	0.036023	-0.144094	-0.204133	9.475806	-2.382479	1.26923	-14.83378	-3.013897	-5.464233	-0.641521	0.509652	-0.334561
-1.369704	0.986973	9.660619	-2.237831	0.985917	2.120795	0.487067	0.151142	-0.833065	-1.016211	-1.916991	5.241651	64.141532	-91.529185	-31.137267	0.024016	-0.156102	-0.216141	10.034318	-2.559934	0.708783	-13.144758	-2.116859	-4.619559	-0.641094	0.495897	-0.312847
-1.711302	0.523245	9.768273	-1.685437	1.318465	1.479573	0.50147	0.193815	-0.906916	-4.47987	-6.023901	0.581748	66.082456	-50.897166	-51.015045	0.024016	-0.150098	-0.204133	9.876218	-2.730391	1.332629	-11.856744	-0.589687	-3.210534	-0.690028	0.518329	-0.349062
-0.790162	1.045158	9.961263	-0.795366	1.580588	0.827434	0.473932	0.226667	-0.892961	-6.745927	-6.078977	3.310305	37.217782	-7.286503	-69.059566	0.024016	-0.156102	-0.210137	10.26547	-2.559601	0.884564	-11.73632	0.593168	-2.289174	-0.673559	0.517021	-0.349925
-1.075459	0.523192	10.012105	-1.133935	1.839753	0.540533	0.486805	0.191292	-0.889754	-4.115568	-4.9963	2.120445	34.202846	13.449265	-72.350597	0.03002	-0.162106	-0.192125	10.438438	-2.50152	1.00239	-12.046547	1.783398	-2.226688	-0.64242	0.504899	-0.317471
-1.309863	0.813069	9.776973	-0.672461	2.205061	-0.066618	0.484368	0.174033	-0.906809	-9.793016	-3.721901	3.896466	3.921552	64.826058	-60.591903	0.036023	-0.144094	-0.192125	10.319944	-3.023674	0.712311	-11.526147	2.65938	-3.008837	-0.702944	0.506385	-0.356041
-1.30791	1.161605	9.893441	-0.057143	2.441192	-0.529935	0.441138	0.205488	-0.893853	-9.253211	-2.867195	5.733728	5.126101	82.832254	-41.175958	0.042027	-0.150098	-0.198129	11.003139	-2.387916	0.78581	-11.71285	3.55367	-3.550532	-0.657989	0.51096	-0.333698
-0.900144	0.813658	10.189677	0.545946	2.245562	-0.919015	0.487449	0.170654	-0.852329	-9.801581	-3.033782	3.541247	13.49978	101.986251	-17.499677	0.048031	-0.168109	-0.198129	9.925721	-2.384703	0.992779	-12.944777	4.298137	-5.195451	-0.718559	0.480182	-0.311751
-1.246926	0.98784	10.067609	0.880488	2.145661	-1.022748	0.510572	0.283491	-0.876119	-10.25003	-3.548254	3.651468	-3.465041	132.945164	9.61057	0.054035	-0.168109	-0.204133	10.09431	-2.964797	0.822253	-13.560839	4.54136	-7.651263	-0.687802	0.51408	-0.361528
-1.473105	1.046525	10.236621	0.876903	2.210556	-1.264471	0.477013	0.223288	-0.838481	-9.563572	-4.123832	4.019524	-22.515188	156.949119	30.597283	0.066043	-0.150098	-0.192125	9.866412	-2.327219	0.877732	-13.714916	4.477873	-9.699882	-0.640194	0.50065	-0.329937
-1.137531	0.638774	9.779982	1.199429	1.382908	-2.192343	0.441138	0.205488	-0.893853	-8.81075	-4.356842	4.978059	-37.900648	171.69272	46.219532	0.072047	-0.144094	-0.210137	9.915699	-2.444965	0.478687	-14.575766	4.308286	-11.382821	-0.653537	0.502462	-0.35863
-1.54421	1.044904	9.541701	1.768713	2.157971	-1.410065	0.474314	0.246179	-0.912226	-8.35316	-4.358713	5.281753	-51.764725	180.176198	55.576257	0.066043	-0.162106	-0.210137	9.983222	-2.095072	1.052312	-14.483097	3.856626	-13.910528	-0.656617	0.534222	-0.389591
-1.137698	0.812902	9.780402	1.194992	2.026477	-1.951892	0.477778	0.262312	-0.87701	-7.547526	-4.076058	6.122461	-63.904472	185.619276	59.362362	0.078051	-0.150098	-0.210137	9.630527	-2.212811	0.474107	-14.02189	3.510071	-17.019869	-0.656663	0.501958	-0.329074
-1.486933	1.160933	9.543123	1.200436	2.211396	-1.974985	0.456448	0.187373	-0.87359	-6.742297	-4.022472	6.904574	-74.265387	190.880684	58.16125	0.096063	-0.156102	-0.216141	9.470061	-2.325897	0.984032	-13.191568	3.184664	-19.179547	-0.704743	0.496879	-0.321861
-1.258301	0.9284	9.489321	1.506081	2.236577	-2.16457	0.506343	0.228334	-0.872805	-6.327953	-3.73903	7.973676	-82.982045	193.511243	54.26076	0.084055	-0.156102	-0.234152	9.293816	-1.863436	0.754388	-11.869272	2.941864	-20.298539	-0.637968	0.496401	-0.342403
-1.302782	0.581737	10.123302	1.204156	2.711024	-2.504615	0.469059	0.192148	-0.927072	-5.810903	-2.538539	8.630326	-88.877452	193.407228	49.24827	0.114074	-0.132086	-0.222145	9.289084	-1.748695	0.526545	-10.854712	2.899406	-20.720324	-0.671806	0.494263	-0.323587
-1.303171	0.988036	10.12428	1.500068	2.616605	-2.943351	0.503524	0.191562	-0.870596	-5.392447	-2.541864	9.876936	-94.664872	193.668841	44.872866	0.120078	-0.10807	-0.24616	9.016984	-1.861027	1.148402	-9.87023	2.553238	-21.34934	-0.656663	0.501958	-0.329074
-1.313125	0.638522	9.603109	1.963084	2.85552	-3.311251	0.470348	0.150871	-0.852223	-5.278939	-1.969484	9.996095	-96.483984	192.902475	40.874039	0.132086	-0.114074	-0.252164	9.302485	-1.687644	1.211914	-9.408245	2.08573	-22.498343	-0.644173	0.527657	-0.343808
-1.025542	1.160768	9.667896	1.414592	3.179317	-3.40715	0.489624	0.228063	-0.891963	-3.902101	-1.517265	11.201366	-97.054406	190.762984	36.556259	0.132086	-0.120078	-0.24616	8.851444	-1.685682	1.431272	-8.885043	1.874897	-22.307114	-0.626378	0.517347	-0.340047
-1.365299	1.16166	9.892298	1.189629	3.15892	-3.738788	0.471113	0.189895	-0.890752	-3.262361	-1.005335	12.274408	-100.280219	187.288929	31.384233	0.150098	-0.114074	-0.258168	9.012695	-1.398644	0.979228	-8.853245	1.443901	-22.144009	-0.640194	0.50065	-0.329937
-1.313292	0.81265	9.603528	1.886464	2.928832	-4.039831	0.438319	0.168717	-0.891643	-2.739984	0.595593	13.284348	-98.560188	182.386517	27.485306	0.168109	-0.102066	-0.258168	8.841421	-1.745944	0.91718	-9.497511	1.015739	-20.669339	-0.65491	0.4792	-0.302736
-1.600177	0.754885	9.597674	1.671554	3.059208	-4.151603	0.452602	0.151727	-0.889541	-2.331414	0.994127	14.058246	-90.686521	175.638173	25.314174	0.174113	-0.10807	-0.24616	8.387229	-1.860564	0.964736	-8.634227	0.33329	-17.314857	-0.641993	0.491143	-0.295757
-1.484425	0.929042	9.658194	1.413657	2.978123	-4.484949	0.472522	0.208281	-0.891857	-0.456767	1.445827	14.683295	-79.90373	163.901506	23.397091	0.192125	-0.090059	-0.264172	8.902301	-1.455525	1.147989	-7.77099	-0.427068	-14.906802	-0.654437	0.497708	-0.34154
-1.419146	1.04605	10.064319	0.495768	3.154092	-4.303109	0.471495	0.209407	-0.910017	2.032883	0.865302	14.791123	-68.44717	142.981013	15.891933	0.192125	-0.084055	-0.264172	9.241833	-2.093856	0.980579	-7.984233	-1.231179	-14.583432	-0.670906	0.499016	-0.340677
-1.255848	0.754552	9.604532	0.858314	3.117851	-4.618803	0.47214	0.188769	-0.872592	3.685223	1.145502	15.58913	-70.695823	121.46393	3.067621	0.198129	-0.078051	-0.27618	9.183764	-2.094005	0.92236	-7.490326	-2.136046	-15.14094	-0.621499	0.495093	-0.343266
-1.308775	0.871252	9.834927	1.486462	2.768088	-5.045362	0.489241	0.208551	-0.872698	4.534443	1.028259	15.664633	-63.6621	102.388953	-11.020989	0.216141	-0.066043	-0.270176	9.471404	-1.8622	1.10032	-6.841703	-3.467239	-15.748904	-0.639767	0.486894	-0.308223
-1.427092	0.987029	9.659476	2.282678	2.84518	-5.488942	0.489241	0.208551	-0.872698	4.532505	1.314823	15.605126	-53.939555	94.170471	-20.896259	0.216141	-0.078051	-0.270176	9.360327	-1.571702	1.270658	-5.116693	-4.883483	-15.920894	-0.688274	0.495571	-0.322724
-1.024287	1.044822	9.725432	3.154453	2.428276	-5.985165	0.51549	0.216976	-0.961503	4.903	2.461509	14.430698	-46.088256	100.246581	-23.264852	0.222145	-0.072047	-0.258168	9.137742	-1.917574	1.492944	-2.593224	-5.839172	-15.487534	-0.688701	0.509327	-0.344438
-1.251164	0.639025	9.835511	4.153234	2.413809	-6.895696	0.473549	0.207155	-0.873696	6.028127	2.401315	14.157532	-36.436568	107.375375	-21.736624	0.234152	-0.066043	-0.27618	9.247806	-2.266231	1.265251	-1.053537	-6.754747	-14.448659	-0.618419	0.463332	-0.312305
-1.590112	0.988314	10.118566	5.119791	2.338231	-7.777409	0.457213	0.226397	-0.912119	7.721263	2.854643	14.130319	-31.772618	105.40761	-18.292351	0.24616	-0.066043	-0.27618	8.683674	-2.669317	1.480517	1.131066	-7.220712	-12.193288	-0.619746	0.472335	-0.316928
-1.646024	0.640253	10.174399	7.447497	2.507933	-8.986979	0.426473	0.202965	-0.876691	9.688367	3.651584	13.694929	-29.052643	91.110755	-14.795689	0.234152	-0.060039	-0.270176	8.515427	-2.262912	1.650255	3.377629	-7.790112	-9.109379	-0.671379	0.480508	-0.301873
-2.792786	-0.403402	10.149024	12.288632	1.83854	-10.015722	0.519981	0.231983	-0.908127	10.529469	3.706929	13.357126	-21.257358	69.115939	-9.195836	0.258168	-0.060039	-0.258168	8.971212	-2.958842	1.599018	5.808809	-8.390612	-5.840282	-0.686094	0.459057	-0.274673
-1.810243	0.699441	10.575813	11.771472	3.944898	-9.916921	0.505316	0.22946	-0.890965	11.416971	3.877602	12.489205	-8.621863	47.362824	-2.644158	0.264172	-0.054035	-0.264172	9.088363	-2.900384	1.77281	9.008869	-9.126751	-3.114483	-0.593486	0.482467	-0.281256
-2.453029	-0.404295	9.924623	14.183209	5.166093	-11.635334	0.471495	0.209407	-0.910017	11.797735	3.763245	11.671013	0.537934	31.360033	3.227972	0.264172	-0.048031	-0.258168	9.141245	-2.553908	1.604237	11.993994	-10.012918	-0.783997	-0.636642	0.487398	-0.337779
-1.476868	1.394362	10.064015	14.02604	8.129615	-11.87658	0.457213	0.226397	-0.912119	12.909972	2.558726	10.514874	7.434859	17.250161	7.480242	0.270176	-0.036023	-0.270176	8.735896	-3.133916	1.19408	13.626025	-10.901257	0.560529	-0.673178	0.471001	-0.267694
-1.81487	0.756925	10.344694	18.848784	10.160497	-12.152258	0.471495	0.209407	-0.910017	12.829041	0.895048	11.990649	4.316566	-2.234771	9.681279	0.24616	-0.024016	-0.258168	8.744565	-2.958124	1.651605	14.612853	-12.063919	1.265661	-0.666927	0.472009	-0.326806
-2.046654	0.698825	10.224353	23.271832	15.552984	-14.327737	0.475986	0.224414	-0.856641	17.753785	9.299162	13.840269	244.705585	-116.943432	-30.238905	0.264172	-0.042027	-0.258168	8.733974	-2.728904	1.138827	16.490783	-13.024886	1.512133	-0.638014	0.464136	-0.281886
-1.642873	0.930886	10.348542	23.004224	20.595745	-15.550479	0.485395	0.172906	-0.888649	19.355606	5.746556	11.282069	13.530013	-159.013085	35.071924	0.252164	-0.060039	-0.264172	8.966571	-1.743543	1.490354	17.537164	-13.412765	1.679676	-0.688793	0.444798	-0.223404
-0.940999	1.454279	11.057293	24.079683	23.699046	-14.868001	0.483341	0.175159	-0.924969	-1.213807	6.047574	4.98828	65.914058	-170.478937	-14.721722	0.24616	-0.060039	-0.252164	9.256588	-2.148335	1.722514	17.93765	-13.717093	1.872394	-0.669626	0.45775	-0.275536
-1.770373	2.039453	12.660359	23.47918	28.289696	-13.840148	0.47214	0.188769	-0.872592	-6.233291	4.619607	11.381952	16.203231	-161.86232	1.916196	0.240156	-0.036023	-0.24616	9.933708	-1.861533	1.451883	23.227121	-14.156277	0.779374	-0.636688	0.455134	-0.277262
-1.541296	1.342579	12.605439	31.753677	34.107398	-9.366987	0.504289	0.230586	-0.909125	-2.997539	0.932655	17.761232	2.887116	-140.370546	11.256846	0.222145	-0.066043	-0.24616	10.497361	-0.068408	1.35711	26.910205	-11.208727	1.403689	-0.670525	0.452996	-0.258446
-1.488741	2.568043	15.325668	36.602462	37.835526	-3.003499	0.471757	0.169257	-0.853327	4.129482	2.357902	9.225847	76.517268	-136.576238	1.809751	0.210137	-0.042027	-0.252164	11.724096	-0.01906	0.06903	16.99612	-5.365421	4.089851	-0.673178	0.471001	-0.267694
-3.815247	0.302551	13.59787	42.097226	57.462991	-5.536692	0.479112	0.120002	-0.921656	6.265939	5.039366	12.15229	-22.852792	-62.174316	-27.914962	0.204133	-0.054035	-0.252164	12.103689	-1.240675	-1.013357	11.296947	-1.01518	1.450396	-0.654483	0.465444	-0.281023
-1.363511	2.395061	15.847867	52.42594	70.367944	1.501367	0.51396	0.138928	-0.884444	1.542139	-1.134407	12.366976	-26.144187	-35.967812	-14.64629	0.222145	-0.054035	-0.252164	13.238948	-1.127946	-1.161583	17.559837	2.028325	-8.465597	-0.641567	0.477388	-0.274043
-2.416405	1.697035	14.784951	58.61217	86.758506	2.546974	0.48604	0.152268	-0.851225	-2.398574	-2.722571	9.816833	12.383701	-26.692959	0.650048	0.210137	-0.054035	-0.264172	12.448489	-0.545549	-0.775077	13.186617	4.741379	-11.182437	-0.605976	0.456767	-0.266522
-2.322273	1.527323	16.635747	50.171026	103.945773	5.409186	0.534143	0.155331	-0.830071	-0.42054	-1.582993	10.029836	28.069228	-30.106516	7.864823	0.216141	-0.042027	-0.270176	11.827619	0.094139	-0.442021	6.513182	5.652346	-7.936138	-0.720832	0.452167	-0.238768
-2.479411	1.355179	17.383491	55.624327	123.139774	5.639939	0.566554	0.156998	-0.809914	1.747032	-0.211576	8.299773	30.050772	-23.725222	2.114298	0.204133	-0.042027	-0.258168	11.84069	-0.250347	0.184416	11.033222	5.768715	-5.804118	-0.655383	0.460691	-0.263933
-2.481808	1.470985	17.268141	49.57056	141.018745	14.34145	0.611456	0.103778	-0.767287	0.903521	-0.553079	8.461083	4.157298	-12.99371	-8.247294	0.222145	-0.054035	-0.258168	12.144109	-0.594089	1.101944	16.417353	4.73944	-2.142222	-0.638441	0.477892	-0.303599
-1.994881	1.067594	18.663861	61.178941	165.311205	12.740458	0.62753	0.124687	-0.785553	-0.310292	-1.010308	9.971994	-5.862281	-9.785914	-5.050284	0.204133	-0.054035	-0.270176	13.126115	-0.824454	1.805145	16.91351	3.638443	4.339376	-0.653157	0.456442	-0.276399
-2.398717	0.893576	18.539812	63.420716	186.210084	18.771266	0.611073	0.084266	-0.748022	0.135003	-0.896477	9.626483	6.181389	-8.917806	-0.58035	0.198129	-0.054035	-0.264172	13.049684	-0.65512	0.834241	14.23773	4.10434	5.81282	-0.704363	0.450859	-0.23963
-3.113846	0.84003	20.085812	74.489563	210.581956	21.709379	0.629464	0.062772	-0.673279	-0.097871	-0.436949	9.326323	-2.718929	-6.020096	-2.357884	0.198129	-0.042027	-0.264172	13.7851	-0.483961	0.621302	14.202297	5.934512	4.271554	-0.718179	0.434162	-0.22952
-1.978185	-0.845998	19.410842	85.695032	235.388739	31.141387	0.662902	0.063312	-0.634963	-0.031189	-1.297216	9.741934	-7.255588	-3.927678	-1.25524	0.204133	-0.060039	-0.258168	13.724562	-0.94807	0.389704	12.539064	7.302649	5.66835	-0.673605	0.484757	-0.289407
-1.634579	-0.091777	19.419516	96.732571	256.837023	34.082545	0.678212	0.045197	-0.6147	-0.315725	-1.0098	9.676993	-8.609551	-1.884963	-0.580532	0.198129	-0.066043	-0.258168	13.147359	-1.006668	-0.021466	10.999115	8.630314	7.831339	-0.635361	0.446131	-0.272638
0.706281	0.317886	21.778805	129.639679	278.862385	35.672067	0.761545	0.086698	-0.575599	0.023498	-1.411768	9.625223	-12.367514	-0.467562	-0.847474	0.192125	-0.066043	-0.264172	12.34946	-0.078471	0.024064	10.8135	9.25174	9.161623	-0.66342	0.426493	-0.274131
-1.180718	-1.776298	19.077719	153.827135	302.261237	30.281686	0.778909	0.06633	-0.519016	0.134258	-1.010961	9.567685	-11.892257	0.157565	-0.701039	0.204133	-0.054035	-0.264172	11.206555	-0.888059	-0.287602	13.828584	8.462236	9.134972	-0.671852	0.461999	-0.26307
-1.506951	-0.380564	20.057066	158.639016	328.279688	26.620518	0.838093	-0.003879	-0.474286	-0.266194	-1.582083	9.207093	-8.737627	0.160792	-0.35195	0.192125	-0.048031	-0.27618	10.633494	0.386536	-0.350174	16.319418	8.045117	6.283137	-0.686567	0.440549	-0.23587
-1.938605	2.228393	18.667799	182.479399	329.557043	28.857402	0.829591	-0.01316	-0.348164	-0.77046	-1.237302	9.491705	-10.340622	0.560277	-1.318797	0.192125	-0.042027	-0.264172	8.923284	0.215734	-0.498934	20.652052	8.536706	-0.52534	-0.640667	0.482141	-0.291133
-3.793993	5.079351	20.71826	220.802204	325.363941	19.615218	0.874492	-0.06638	-0.305536	0.08575	-0.782433	10.038194	-10.793791	0.215144	-2.066167	0.216141	-0.042027	-0.24616	7.892424	1.490714	-0.6847	22.891786	10.107559	-5.412797	-0.698584	0.433358	-0.259939
-4.992132	-0.563567	14.959326	189.745544	334.056332	23.551683	0.894937	-0.090127	-0.194473	-0.378722	-1.753619	9.205224	-9.866944	0.31452	-4.658602	0.204133	-0.054035	-0.264172	7.544006	1.489819	-1.03401	25.50244	11.152237	-7.563995	-0.656282	0.455938	-0.246843
-4.086246	-2.017201	14.280343	138.996416	333.781431	27.557416	0.932484	-0.094091	-0.083516	-0.364937	-1.640354	9.972024	-8.755719	-2.217604	-5.294093	0.204133	-0.048031	-0.264172	7.420655	1.719529	-1.491949	24.269654	12.308083	-8.025632	-0.671471	0.415979	-0.180839
-5.493492	3.683468	18.831687	131.192917	303.63563	25.496714	0.912946	-0.131133	-0.100465	-0.374993	-1.181202	9.49921	-6.470246	-3.629758	-4.540594	0.216141	-0.054035	-0.264172	7.704029	1.255263	-1.602605	20.979478	12.491449	-6.610036	-0.631382	0.419124	-0.258767
2.441529	-0.276758	16.668468	185.261029	287.471751	29.997694	0.96413	-0.131449	-0.024831	-0.089029	-1.583305	9.623354	-5.095024	-4.384798	-4.886262	0.198129	-0.054035	-0.24616	7.311967	0.794203	-1.327131	17.444733	12.304747	-3.16854	-0.653629	0.437933	-0.237595
7.663536	-3.995551	-6.642162	208.048632	229.757219	59.332623	0.967856	-0.155466	0.067074	-0.544253	-0.550677	9.612834	-3.192105	-5.229661	-5.133253	0.186121	-0.054035	-0.264172	7.953098	0.738472	-0.572807	13.85067	11.334304	1.422406	-0.65273	0.442686	-0.254685
12.856567	-7.784484	-11.113458	81.365947	100.346662	33.003496	0.967473	-0.174978	0.086339	-0.597876	-1.524478	9.613473	-0.725619	-6.016065	-4.593438	0.198129	-0.060039	-0.264172	8.226552	0.735275	-1.138097	10.841777	9.677158	3.218574	-0.650077	0.424681	-0.245438
-3.38393	-1.710331	-2.406713	32.506043	37.459535	31.153898	0.971964	-0.159971	0.139714	-0.594722	-1.123837	9.848763	1.519967	-6.429891	-3.867171	0.198129	-0.066043	-0.270176	9.036386	0.041554	-0.554562	6.787493	7.876523	3.483215	-0.667872	0.434992	-0.249199
8.417005	-2.443651	11.234235	-29.601249	8.955436	29.534109	0.957299	-0.162494	0.156876	-0.373566	-1.295889	9.558413	4.301798	-6.54385	-3.357502	0.192125	-0.060039	-0.270176	9.043029	0.101028	-0.211746	4.178139	6.129306	3.417954	-0.631382	0.419124	-0.258767
2.494818	-0.291458	10.659161	30.673374	3.258363	10.844352	0.953453	-0.198139	0.140925	-0.712683	-1.294866	9.551893	5.851098	-6.382993	-2.939929	0.192125	-0.072047	-0.270176	10.067565	-0.248661	-0.250143	5.290385	3.791047	2.927637	-0.665219	0.416987	-0.239951
4.222814	-2.860671	5.081555	42.125625	14.914028	2.952481	0.909841	-0.186195	0.173147	-0.4862	-1.06648	9.614834	6.562668	-6.320611	-2.343698	0.192125	-0.060039	-0.258168	10.295099	0.445904	-0.185392	5.080136	2.023492	6.240027	-0.634081	0.404865	-0.207497
8.833658	-5.140777	0.255574	17.027616	-13.54858	-10.913113	0.956917	-0.182006	0.176141	-0.142161	-0.896133	9.91605	6.449065	-5.93948	-1.820648	0.210137	-0.048031	-0.270176	10.062491	0.039769	-0.477198	5.604075	1.856129	9.702714	-0.634508	0.41862	-0.229211
7.736218	-3.972522	2.837174	-12.145515	-53.878514	-20.126649	0.956917	-0.182006	0.176141	-0.374354	-0.665774	9.616297	5.321764	-5.451952	-1.902924	0.198129	-0.042027	-0.258168	9.605375	-0.307225	-0.601969	10.214348	2.615192	9.893397	-0.636261	0.441378	-0.255548
7.820063	-4.143492	4.167637	-23.92737	-87.189037	-26.837168	0.94199	-0.144378	0.136614	-0.310292	-1.010308	9.971994	3.501908	-5.021282	-2.118194	0.204133	-0.048031	-0.270176	9.889761	-0.713331	-0.65527	15.314969	3.92538	8.452992	-0.674551	0.447739	-0.2118
7.003999	-4.086207	3.515813	-30.695928	-115.791253	-29.378926	0.957682	-0.142982	0.137612	0.141864	-1.011671	9.980687	1.005528	-4.7381	-1.947476	0.192125	-0.036023	-0.264172	9.881183	0.211434	-0.993617	17.065682	4.662346	7.741881	-0.648751	0.415679	-0.240814
6.481482	-4.957185	3.156541	-44.409829	-142.216153	-26.532801	0.893887	-0.147442	0.11546	0.023392	-1.010823	9.683513	-0.315112	-4.265544	-2.178205	0.192125	-0.060039	-0.27618	9.666709	-0.24839	-0.372211	16.050636	4.885531	8.373513	-0.651403	0.433684	-0.250061
6.832558	-4.840595	3.510567	-62.933291	-169.725777	-20.347324	0.922572	-0.121758	0.043711	-0.098852	-0.837793	9.209033	-1.200676	-4.114148	-1.98178	0.198129	-0.048031	-0.258168	9.610676	-0.711448	-0.37544	14.481835	5.17226	8.389014	-0.666119	0.412234	-0.222861
6.210432	-4.838865	3.960513	-80.346101	-197.73179	-13.65848	0.90547	-0.14154	0.043817	-0.378829	-1.352674	9.263514	-2.995567	-3.552574	-1.756895	0.204133	-0.060039	-0.264172	9.608435	-1.2912	-0.549346	13.498585	4.669898	6.315663	-0.652303	0.42893	-0.232972
6.166037	-4.082578	4.654964	-94.443614	-222.998483	-6.538511	0.913208	-0.171283	-0.043776	-0.102623	-0.665611	9.031728	-3.334048	-3.150858	-1.440684	0.204133	-0.066043	-0.258168	9.394507	-0.882053	0.190188	12.639115	3.644079	2.450611	-0.665692	0.398478	-0.201147
4.986841	-3.729939	5.961539	-107.608012	-243.709506	1.082797	0.898925	-0.154294	-0.045878	-0.028717	-0.667405	9.976818	-4.571682	-2.834961	-1.715381	0.204133	-0.072047	-0.258168	9.726485	-1.116687	-0.317936	11.042662	2.265211	-0.951499	-0.668772	0.430238	-0.232109
3.79585	-4.191435	6.630196	-121.241724	-258.915921	10.041878	0.895844	-0.150915	-0.100359	-0.430085	-1.295718	9.557327	-4.227514	-2.46238	-1.39495	0.186121	-0.048031	-0.270176	9.381549	-0.595463	-0.436512	9.079304	0.183907	-2.748898	-0.703082	0.409592	-0.174489
3.238891	-3.956612	7.486547	-136.850072	-270.038146	21.355437	0.850942	-0.097695	-0.142986	-0.431449	-0.837379	9.556514	-1.554999	-3.141044	-1.288395	0.180117	-0.054035	-0.258168	9.263613	-0.827872	-0.668185	7.392391	-1.610611	-2.991618	-0.686613	0.408284	-0.175352
2.504052	-3.72232	8.050395	-153.085961	-278.372962	34.938462	0.847861	-0.094316	-0.197467	-0.257203	-0.952881	9.795978	2.364369	-3.366388	-0.178248	0.204133	-0.054035	-0.270176	9.265194	-1.059195	-0.612144	6.226044	-2.508456	-3.344091	-0.664747	0.435495	-0.278754
1.448165	-2.730206	9.823311	-169.001579	-283.219303	49.391583	0.844135	-0.070299	-0.289372	-0.034385	-0.953258	9.623324	3.53098	-3.59932	-0.235594	0.192125	-0.066043	-0.264172	8.914979	-1.292201	-1.07669	5.459053	-3.329656	-4.399661	-0.648751	0.415679	-0.240814
0.558616	-1.622871	11.310863	-181.644618	-283.144798	62.166501	0.788722	-0.125141	-0.361692	-0.198169	-1.06784	9.915268	3.865612	-4.44197	0.718023	0.186121	-0.066043	-0.264172	8.971456	-0.481502	-1.014792	4.598111	-3.497892	-6.174353	-0.734221	0.421714	-0.206943
0.022094	-0.050411	13.268908	-189.170155	-276.784194	71.043681	0.756693	-0.107296	-0.401113	-0.151153	-1.525334	9.327165	6.672972	-5.242095	1.24454	0.186121	-0.054035	-0.264172	8.618545	-1.062675	-1.652191	4.997611	-3.402372	-6.082663	-0.669672	0.425485	-0.215019
-0.471842	1.462134	14.476365	-192.57165	-266.199873	73.424385	0.730948	-0.036546	-0.407527	0.198895	-1.183719	9.982078	10.376207	-5.493016	2.422688	0.198129	-0.072047	-0.258168	8.560248	-0.947032	-1.709884	4.627042	-2.811399	-6.985347	-0.703982	0.404839	-0.1574
-1.07615	3.149478	15.913214	-190.276589	-252.807802	68.509721	0.68079	-0.037356	-0.465001	0.032298	-1.813526	10.038935	13.341186	-5.532293	1.972464	0.186121	-0.054035	-0.264172	8.390317	-0.830635	-1.655645	3.857011	-2.26416	-7.338622	-0.658082	0.446431	-0.212663
-1.695848	4.196395	16.539119	-182.565159	-237.696106	57.698671	0.66689	-0.000855	-0.486369	0.307523	-1.527307	9.689859	15.142626	-5.722807	2.945479	0.180117	-0.072047	-0.264172	8.462584	-1.17471	-0.913898	3.270832	-1.467174	-7.84963	-0.701283	0.419098	-0.208669
-1.79883	5.010641	17.174752	-177.779686	-223.298538	41.671245	0.618143	0.01672	-0.544947	-0.084107	-1.411935	9.918051	19.031601	-5.354751	4.032951	0.198129	-0.060039	-0.24616	8.06488	-1.057858	-0.864164	2.838731	-0.794075	-8.142836	-0.703082	0.409592	-0.174489
-1.842027	5.709026	17.926877	-175.767217	-208.247521	23.751122	0.588933	0.071336	-0.586577	0.825468	-1.357877	10.230336	18.078224	-5.69517	4.756529	0.186121	-0.042027	-0.264172	8.349483	-1.00053	-0.85827	2.313687	0.344739	-6.856876	-0.698157	0.419602	-0.238225
-3.309863	6.64223	19.171321	-173.592719	-189.043096	5.693461	0.58406	0.036817	-0.620688	-0.378935	-0.951728	9.321803	16.629318	-7.122851	4.686721	0.198129	-0.072047	-0.258168	8.016048	-1.171697	-0.466171	2.865414	1.192108	-5.680718	-0.651403	0.433684	-0.250061
-3.869776	7.573286	19.913719	-164.700685	-170.636776	-12.036074	0.529367	0.122034	-0.612043	-0.371946	-0.379616	9.79279	17.024689	-6.636294	4.579947	0.192125	-0.048031	-0.24616	9.094148	-1.522288	-0.674718	3.385543	2.298798	-5.489488	-0.666592	0.393725	-0.184058
-4.275201	7.86347	19.732972	-151.580364	-161.919472	-27.17686	0.515084	0.139023	-0.614146	-0.041522	-0.379827	9.327308	13.585956	-7.213675	4.142553	0.192125	-0.078051	-0.258168	8.591453	-1.345209	-0.170236	3.906264	3.347644	-3.461784	-0.701283	0.419098	-0.208669
-4.976766	8.210856	19.084133	-134.114572	-162.249876	-39.614101	0.514057	0.140149	-0.632306	-0.611469	-0.606784	9.021847	12.79574	-7.326941	3.978594	0.180117	-0.066043	-0.252164	8.705567	-1.461229	-0.168509	3.99657	4.497469	-0.33769	-0.684387	0.404035	-0.187818
-7.397469	8.328021	18.516074	-121.413858	-165.053686	-46.325493	0.482793	0.197018	-0.710256	-0.089242	-0.781414	9.739933	12.597526	-7.033136	3.293876	0.180117	-0.078051	-0.24616	9.278936	-1.171834	0.072436	3.809863	5.471919	-0.086027	-0.765406	0.401572	-0.17888
-9.884037	7.747611	17.482678	-113.208134	-167.301136	-46.52131	0.407797	0.206169	-0.68003	-0.26091	-0.437046	9.677064	11.199646	-7.586532	2.536614	0.186121	-0.066043	-0.264172	9.381674	-1.232586	-0.496496	3.962386	5.939904	-0.52425	-0.667918	0.402727	-0.188681
-12.979014	7.170608	17.593004	-106.038055	-162.172265	-39.148167	0.435717	0.192829	-0.71325	-0.260633	-0.895284	9.618876	10.050887	-8.129145	2.543566	0.192125	-0.066043	-0.264172	8.991194	-1.924969	-0.164981	4.700348	5.998968	0.242972	-0.665266	0.384722	-0.179434
-14.656011	7.344813	16.924314	-97.276087	-148.515306	-25.778954	0.393253	0.263308	-0.738822	0.310911	-0.840305	9.983642	13.322194	-9.528279	2.273119	0.198129	-0.072047	-0.258168	9.382254	-2.101295	-0.557531	4.824301	5.761467	1.900726	-0.652776	0.410422	-0.194168
-15.600457	7.284446	15.576147	-82.599218	-134.930054	-11.880375	0.377943	0.281424	-0.759085	0.413489	-0.610563	9.454408	16.812747	-10.592619	3.128693	0.186121	-0.066043	-0.258168	9.386532	-1.984451	-0.328636	5.287217	5.192796	3.445634	-0.670571	0.420732	-0.197929
-15.921244	6.816191	13.834871	-67.996349	-121.06171	-2.887655	0.318639	0.291971	-0.727862	-0.302515	-1.068311	10.385096	18.751972	-12.943667	4.267147	0.192125	-0.060039	-0.252164	9.374928	-1.81339	-0.898769	5.62795	4.312029	5.272372	-0.719551	0.4109	-0.173627
-17.279924	6.696634	11.842601	-61.213431	-101.775773	-1.309333	0.316202	0.274711	-0.744917	-0.542499	-0.785057	12.739162	9.306609	-20.58397	3.996812	0.186121	-0.090059	-0.264172	8.701631	-1.751763	-0.398192	5.29288	3.149789	6.918487	-0.681688	0.418295	-0.239088
-17.470184	11.257807	25.662087	-72.329907	-60.236732	-2.700108	0.314148	0.276964	-0.781237	0.314597	-2.444392	9.927484	39.648479	-31.154206	2.586953	0.186121	-0.072047	-0.264172	8.876295	-1.982901	-0.224588	4.618518	2.362962	7.758878	-0.686187	0.394529	-0.153639
-17.568495	7.444285	8.891292	-21.551577	-36.987101	-21.226026	0.291866	0.363847	-0.752436	-0.590418	-0.379645	10.201444	23.109979	-34.902569	3.19482	0.162106	-0.078051	-0.264172	8.98298	-2.332347	-0.623558	3.820092	2.034374	8.587973	-0.674124	0.433984	-0.190087
-19.931703	11.98024	11.455852	0.244898	-4.431036	-30.82668	0.309995	0.382503	-0.734383	0.321224	0.075155	10.69002	27.628412	-43.616244	6.70538	0.198129	-0.090059	-0.264172	9.270165	-1.868956	-0.444547	4.128883	1.538237	9.243399	-0.669672	0.425485	-0.215019
-21.038345	12.494682	7.736391	31.667493	19.4537	-25.734205	0.289429	0.346587	-0.769491	0.311188	-1.298543	9.925454	8.13869	-47.75779	7.117197	0.168109	-0.078051	-0.24616	9.156745	-2.679541	-0.507572	2.683596	1.802473	10.881023	-0.691919	0.444294	-0.193848
-17.324382	11.335158	9.830263	65.910579	50.344914	-25.065414	0.277201	0.361324	-0.735274	0.078598	-0.214109	12.8091	-8.111388	-56.056397	2.447538	0.180117	-0.066043	-0.24616	9.604749	-2.85598	-0.898996	2.590369	2.417358	12.731858	-0.737773	0.434966	-0.199101
-18.414393	12.148953	9.868318	103.371822	77.205899	-30.994089	0.290456	0.345461	-0.751331	-0.926203	1.04787	13.67231	-2.544482	-67.538659	-5.90839	0.174113	-0.066043	-0.24616	9.315857	-2.450925	-1.074064	2.559201	2.868873	15.320795	-0.65145	0.401419	-0.189544
-17.155247	15.688333	9.901987	145.700651	110.422118	-49.640384	0.239534	0.305626	-0.770276	0.597387	-1.414285	10.108091	7.35742	-79.815623	-7.488522	0.162106	-0.066043	-0.264172	9.882708	-2.858126	-1.235918	1.788045	4.200606	17.854734	-0.700856	0.405343	-0.186955
-16.926647	20.49903	7.202006	142.126656	159.13386	-92.28206	0.287255	0.289177	-0.729858	-0.273431	0.475438	12.211361	-15.783072	-87.568749	-6.433752	0.150098	-0.078051	-0.252164	9.428845	-2.567208	-1.129429	-0.367292	5.657364	19.063257	-0.705735	0.427597	-0.183737
-4.213299	8.169834	2.570825	59.709913	157.276938	-91.22587	0.33715	0.330139	-0.729073	0.073911	-0.099118	12.572897	-1.576036	-97.046915	-11.421568	0.162106	-0.078051	-0.258168	9.832749	-2.972228	-0.895017	-1.320916	6.022775	20.487037	-0.719978	0.424656	-0.19534
-1.008053	5.574667	10.776997	42.722429	126.074947	-64.180558	0.289047	0.327075	-0.750227	0.358319	-1.07384	12.521055	-13.413839	-104.67842	-9.379043	0.156102	-0.084055	-0.252164	11.074205	-1.239679	-1.261998	1.849958	4.608849	23.442185	-0.703082	0.409592	-0.174489
-5.029145	4.656362	13.353089	46.053083	110.691031	-21.107293	0.353487	0.310897	-0.69065	-0.314695	-0.270411	12.919596	-24.633225	-113.629316	-8.741714	0.150098	-0.078051	-0.258168	11.812306	-0.141126	-1.242363	7.058247	-0.216586	26.732009	-0.739573	0.425459	-0.164921
-3.415099	3.371521	10.781497	5.279001	73.667268	28.367632	0.368151	0.31342	-0.707812	1.026759	-1.08008	15.070016	-30.105027	-123.50818	-11.587198	0.144094	-0.084055	-0.24616	12.808282	-0.599923	0.144893	-2.158989	-3.428856	22.81188	-0.70261	0.428101	-0.213293
-0.799615	0.17326	9.438834	-39.650308	59.46473	37.624205	0.368151	0.31342	-0.707812	0.625177	-3.827604	14.30028	-12.132826	-140.442185	-17.963234	0.132086	-0.072047	-0.264172	12.434604	-2.38892	1.213611	-10.391438	-6.421618	23.509827	-0.73602	0.412208	-0.172764
-0.810709	0.534344	14.69853	-4.981367	21.610853	-12.735158	0.334331	0.293367	-0.726864	0.815787	-3.600976	15.483137	-14.523791	-154.737437	-23.244443	0.120078	-0.066043	-0.252164	11.422822	-3.368482	1.759791	-14.913023	-5.362211	24.7454	-0.707915	0.464111	-0.231788
-4.342977	0.577783	7.230944	62.637804	5.62558	-25.021282	0.35105	0.293637	-0.707705	0.731022	-2.515022	17.19004	-2.033757	-171.709502	-36.781783	0.120078	-0.078051	-0.252164	12.023613	-2.391015	0.577713	-9.102686	-5.630638	20.837759	-0.704836	0.43235	-0.200827
3.752492	5.976068	10.757213	30.301908	7.699059	-9.744773	0.40018	0.295574	-0.668391	-0.78744	-1.766533	17.690382	1.568695	-191.833222	-39.007789	0.10807	-0.072047	-0.258168	12.069601	-0.829766	0.186292	-17.037786	-4.157133	22.290051	-0.709761	0.42234	-0.137091
-2.291147	1.97431	9.529078	19.953136	10.383344	-1.015515	0.334331	0.293367	-0.726864	-2.062844	-1.249417	19.08048	-2.793331	-216.363047	-48.492557	0.102066	-0.072047	-0.24616	12.168061	-1.007363	-0.611534	-27.244328	-3.523885	28.917918	-0.771184	0.419073	-0.158572
-2.10301	0.815106	10.281304	-0.83303	6.380386	-3.436163	0.365594	0.236498	-0.648914	-1.091998	-0.966868	19.688447	18.693623	-250.041117	-49.270772	0.084055	-0.078051	-0.252164	13.924065	-0.8972	-1.032832	-27.673285	-3.899433	31.156754	-0.69102	0.449047	-0.210937
-1.779842	0.23169	9.188284	17.600519	3.424548	-12.552024	0.418691	0.333742	-0.669603	-1.879288	-4.859656	19.267136	36.082171	-284.36784	-56.774846	0.066043	-0.084055	-0.24616	14.666808	-1.013946	-0.904532	-23.521365	-5.338422	24.20926	-0.756469	0.440523	-0.185772
-1.057294	2.085678	8.109133	5.994097	6.549366	-6.647367	0.350405	0.314276	-0.74513	-1.892278	-4.519893	21.684447	49.843612	-316.888638	-62.609148	0.054035	-0.072047	-0.234152	14.788567	-0.433106	-0.442914	-21.062077	-5.733298	19.827792	-0.709288	0.440849	-0.175895
-1.031034	0.927898	9.378264	-3.950632	6.555449	-3.415983	0.347586	0.277504	-0.742921	-1.650688	-3.891982	22.631679	85.397438	-347.594904	-59.718897	0.024016	-0.084055	-0.228148	13.785772	-0.252112	0.679445	-19.711193	-5.730489	12.495074	-0.708815	0.459357	-0.214698
-2.635005	0.291266	9.460353	6.295971	2.664455	-6.875216	0.347204	0.257992	-0.723656	1.016425	-3.843716	23.272652	115.14487	-375.4999	-72.053973	0.006004	-0.114074	-0.216141	12.882665	0.272878	1.120529	-20.449878	-6.526671	1.499289	-0.763147	0.453271	-0.148374
-2.978247	0.349782	9.511449	4.729777	0.020705	-4.074063	0.378205	0.241273	-0.702396	-2.849933	-0.107002	22.54316	159.380957	-389.954774	-60.642704	0.006004	-0.102066	-0.192125	11.406975	0.682425	1.378547	-23.522089	-7.959283	-3.652887	-0.739953	0.471479	-0.247152
-1.203057	1.972973	9.435165	-2.16421	3.97056	-0.17256	0.382051	0.276918	-0.686445	1.529925	0.731311	27.344236	101.122759	-391.452673	-41.770568	-0.048031	-0.114074	-0.168109	10.780019	1.552385	1.427193	-28.344831	-9.717628	-4.830875	-0.741326	0.448217	-0.191259
-1.88511	1.045657	9.708287	-9.410322	5.10894	0.504835	0.379232	0.240147	-0.684236	0.763323	-3.148082	18.843161	247.827195	-419.00702	-60.710906	-0.03002	-0.10807	-0.156102	10.093332	0.973735	1.182681	-30.923162	-11.111023	-1.876231	-0.745732	0.48898	-0.226844
-1.136024	1.451651	9.897568	-10.82031	5.529838	1.778017	0.334975	0.272729	-0.689439	0.457913	-4.983056	20.373894	90.65603	-400.803686	-39.485952	-0.048031	-0.120078	-0.144094	9.469663	0.743926	1.283425	-28.153602	-11.924658	1.583044	-0.696325	0.485057	-0.229433
0.117008	0.636572	9.400424	-5.668496	5.290034	0.239968	0.336002	0.271603	-0.671279	-3.990864	-3.143373	24.531726	149.705795	-429.414769	-58.896448	-0.054035	-0.132086	-0.120078	8.73336	-0.122515	1.379025	-20.375733	-11.729765	3.210744	-0.756895	0.454279	-0.207486
-1.492927	1.450448	9.254748	-2.864941	3.5443	0.865606	0.363278	0.278901	-0.741923	-0.342672	-2.887188	1.776493	248.459175	-375.534869	-41.340455	-0.072047	-0.120078	-0.090059	8.885601	0.16242	0.470244	-11.463292	-10.414018	2.524703	-0.733289	0.482415	-0.181061
-1.257436	1.218753	9.547835	-2.640603	3.049644	0.564922	0.368796	0.292781	-0.670387	-9.990069	-6.52026	-1.115747	173.927751	-267.337353	-6.283596	-0.084055	-0.132086	-0.060039	8.706432	0.392507	0.068271	-6.888291	-7.68824	4.382332	-0.71374	0.449347	-0.150963
-1.414519	0.988566	10.295439	-1.672298	2.596584	0.278822	0.383078	0.275792	-0.668285	-23.475813	-7.788761	-6.503962	107.318227	-171.844181	-2.189428	-0.090059	-0.144094	-0.03002	8.697661	-0.304616	-0.448713	-3.946148	-3.618049	5.129543	-0.725284	0.460665	-0.213835
-0.665377	1.336518	10.48458	-0.171246	2.080157	-0.93932	0.348996	0.29589	-0.744026	-5.196312	-1.961874	5.279341	33.041062	-58.276751	59.633085	-0.102066	-0.13809	-0.024016	9.050583	-0.30267	0.128967	-1.463504	-0.552726	2.992062	-0.716393	0.467352	-0.16021
-1.717685	1.219059	9.480876	2.413386	2.17465	-1.638618	0.384106	0.274666	-0.650125	-13.544652	0.514475	12.546001	65.314059	56.170118	97.417423	-0.10807	-0.144094	-0.024016	9.277116	-0.245491	0.076642	0.743858	1.629941	-1.848515	-0.779143	0.473087	-0.186315
-1.598447	1.335592	9.714701	3.425502	1.762182	-2.749181	0.331129	0.237084	-0.70539	-1.106425	-6.677842	8.786827	158.613891	67.170085	69.137408	-0.102066	-0.126082	-0.03002	9.736041	-0.245613	0.256929	0.584342	3.81209	-4.499733	-0.726183	0.455912	-0.196746
-0.888238	1.511707	10.827316	7.23463	-0.015555	-4.043415	0.364305	0.277774	-0.723763	3.066266	-12.521527	1.268745	153.422617	63.913705	19.012495	-0.114074	-0.132086	-0.012008	9.512898	-0.881229	0.420809	-0.312313	5.892557	-5.042171	-0.779996	0.500598	-0.229742
-1.025375	0.98664	9.667477	4.763732	1.944975	-5.279303	0.379615	0.259659	-0.7035	-1.556162	-11.467492	-4.13003	44.488931	78.308097	-42.990243	-0.096063	-0.150098	-0.012008	9.468014	-1.283762	0.988764	-0.283153	6.244743	-8.108758	-0.731489	0.491922	-0.215241
-1.79817	1.223362	11.213033	5.069839	0.387983	-4.58656	0.417282	0.315357	-0.668498	-6.122984	-5.388539	0.431118	-44.315231	123.213612	-84.314384	-0.10807	-0.144094	-0.024016	9.523376	-1.052553	0.933849	-2.588005	5.277382	-12.992514	-0.711041	0.463607	-0.202232
-1.573523	1.570837	10.987184	3.201296	0.988522	-2.011653	0.39877	0.277189	-0.667287	-9.831807	-0.916838	5.306409	-44.998772	179.858932	-96.830191	-0.078051	-0.150098	-0.03002	8.954717	-0.298236	1.040189	-6.519653	3.480641	-14.960115	-0.761347	0.462777	-0.182554
-1.721923	0.870244	9.248779	1.724949	1.857135	-4.171684	0.367769	0.293908	-0.688547	-10.614195	0.115696	5.938371	5.000603	226.354854	-87.034662	-0.084055	-0.150098	-0.048031	8.678669	-0.121875	1.492083	-9.28443	2.875653	-11.596424	-0.746205	0.470472	-0.18804
-2.565266	0.524918	10.098017	4.013747	1.293208	-3.393603	0.384106	0.274666	-0.650125	-9.900898	-0.342728	4.714306	33.647894	260.828601	-66.379752	-0.078051	-0.13809	-0.042027	8.452022	-0.121158	1.54467	-9.407624	3.557027	-5.985059	-0.728363	0.492426	-0.244797
-1.591534	1.278388	10.061449	3.338399	0.981353	-4.062653	0.380642	0.258533	-0.68534	-9.132871	-1.660302	3.25685	31.434195	287.417189	-43.072271	-0.042027	-0.168109	-0.042027	8.446834	0.225169	1.317879	-8.915646	3.55901	-5.707189	-0.744879	0.461469	-0.183417
-1.365799	1.684045	9.893555	1.627123	2.266203	-2.319025	0.383461	0.295304	-0.687549	-8.009938	-2.808544	2.690611	8.489757	306.382788	-23.060198	-0.042027	-0.156102	-0.054035	8.615764	-0.528614	1.146564	-7.316531	3.341207	-6.213497	-0.681656	0.474242	-0.196116
-1.251832	1.335537	9.837188	2.47075	3.053958	-3.040139	0.364305	0.277774	-0.723763	-7.19706	-3.500266	3.769045	-25.439282	319.169898	-9.662737	-0.036023	-0.156102	-0.078051	8.721995	-0.646474	0.748646	-4.980795	3.493663	-8.345485	-0.747531	0.479474	-0.192664
-1.145113	1.392491	9.43491	5.053883	2.92981	-3.503903	0.348996	0.29589	-0.744026	-6.166328	-3.619137	4.49681	-53.185747	325.370855	-3.032996	-0.018012	-0.150098	-0.102066	8.608552	-0.298605	0.805062	-4.242166	3.059764	-9.463135	-0.727937	0.47867	-0.223083
-1.206208	1.682341	9.261022	4.870364	2.902232	-3.378438	0.363923	0.258262	-0.704498	-5.798318	-3.10737	6.154421	-76.795359	327.303185	-0.69069	0.012008	-0.162106	-0.096063	8.776686	-0.647114	0.635587	-3.25708	2.468392	-10.086433	-0.730636	0.46441	-0.171813
-1.308022	1.27769	9.89372	5.77024	3.328856	-2.526657	0.381024	0.278045	-0.704605	-5.215226	-3.282576	7.109595	-91.143761	326.59135	-1.018023	0.012008	-0.156102	-0.126082	8.42985	-0.879331	0.342318	-2.147745	1.409259	-10.055906	-0.742652	0.45722	-0.195883
-1.255484	1.567289	9.664303	5.681105	3.329168	-2.37173	0.363278	0.278901	-0.741923	-4.848836	-3.687082	8.532829	-98.144915	324.866359	-2.7592	0.054035	-0.13809	-0.132086	8.147374	-0.29901	0.510592	-1.74516	-0.000577	-11.764464	-0.697225	0.480304	-0.212343
-1.14397	1.39263	9.492725	6.910036	3.878779	-2.164455	0.380642	0.258533	-0.68534	-4.38168	-2.887976	9.484104	-107.101343	321.058884	-4.717376	0.054035	-0.144094	-0.13809	8.317419	-0.473303	0.45609	-1.527082	-1.303233	-12.589502	-0.708815	0.459357	-0.214698
-0.968209	1.218755	9.669179	8.036071	4.123334	-1.967263	0.34374	0.241859	-0.758872	-3.742813	-3.177836	10.381567	-113.882207	315.128411	-7.663545	0.084055	-0.144094	-0.150098	8.782658	-0.819488	0.92026	-0.664007	-2.295509	-13.142993	-0.760448	0.46753	-0.199644
-1.023534	1.45126	9.784225	7.708368	4.407305	-1.825574	0.395307	0.261056	-0.702502	-3.391615	-2.492669	11.153871	-120.036845	310.448368	-10.645083	0.096063	-0.126082	-0.156102	8.732814	-0.991487	1.260898	0.352535	-3.191677	-13.850824	-0.743079	0.470975	-0.217596
-1.310363	1.335453	9.77823	8.375477	4.880976	-1.730299	0.412026	0.261326	-0.683344	-3.294186	-1.637513	13.513442	-131.673734	309.65047	-11.509191	0.10807	-0.114074	-0.144094	8.438973	-0.935124	0.798792	1.461212	-4.000648	-14.162556	-0.714121	0.495367	-0.233194
-1.197231	1.857586	9.723959	7.979536	5.295937	-2.039994	0.377178	0.2424	-0.720556	-2.545178	-0.953743	14.411352	-135.018803	307.475467	-8.312681	0.13809	-0.114074	-0.168109	8.562882	-0.87509	1.315137	1.954861	-4.810403	-14.936378	-0.71374	0.449347	-0.150963
-1.767962	2.148776	9.886672	8.751542	6.543974	-2.496029	0.346821	0.23848	-0.704392	-2.3414	-0.041026	16.418994	-141.46894	301.819779	-0.374503	0.162106	-0.090059	-0.156102	8.852218	-0.932503	1.548874	2.724742	-5.511203	-16.628852	-0.778243	0.47784	-0.203404
-1.138254	1.393329	9.781799	9.730658	7.384043	-2.790389	0.362896	0.259389	-0.722658	-2.548302	0.817011	17.593128	-142.419881	293.723409	11.625338	0.162106	-0.096063	-0.174113	8.616902	-1.107578	1.143935	2.879847	-6.065122	-16.339889	-0.713221	0.50012	-0.250283
-1.257826	1.625052	9.548813	8.122229	8.023645	-3.673213	0.366359	0.275522	-0.687443	-1.440276	1.383348	19.559765	-146.581011	286.035498	26.670981	0.186121	-0.090059	-0.180117	8.746556	-1.104125	1.945478	3.003518	-6.314714	-15.935806	-0.713267	0.467856	-0.189766
-1.311673	1.509442	9.720835	7.266403	8.919242	-4.471734	0.395307	0.261056	-0.702502	0.451822	2.177076	21.187207	-138.676646	276.739907	39.53529	0.216141	-0.090059	-0.180117	8.915361	-1.220785	1.834147	3.126628	-6.319996	-15.476219	-0.772937	0.441831	-0.184909
-1.539805	1.219591	9.773379	7.90931	9.313407	-5.29591	0.380642	0.258533	-0.68534	2.465395	1.59504	23.05526	-126.203889	264.919443	48.888489	0.240156	-0.060039	-0.162106	8.910856	-1.221836	1.605778	3.679663	-6.131983	-15.294084	-0.762247	0.458024	-0.165464
-1.588327	1.510978	10.235453	8.378244	10.332953	-6.487525	0.379615	0.259659	-0.7035	5.457201	1.01359	22.818867	-110.39932	251.840487	52.386701	0.234152	-0.066043	-0.168109	8.852229	-1.51173	1.489153	4.354764	-5.59894	-15.547512	-0.72841	0.460161	-0.184279
-1.652629	1.568237	9.887561	8.942725	11.975673	-8.419768	0.348875	0.236228	-0.668072	8.436265	1.063372	21.991355	-101.918127	243.407645	52.155531	0.24616	-0.054035	-0.13809	8.281556	-1.452959	1.421061	6.383403	-5.329176	-15.512275	-0.71502	0.490614	-0.216104
-1.827191	1.68421	9.768782	10.759227	12.85449	-8.671316	0.412408	0.280838	-0.702609	12.28411	0.994084	22.301349	-105.713854	230.806433	41.322914	0.24616	-0.066043	-0.156102	8.734406	-1.802036	1.257218	8.227761	-5.124802	-15.354164	-0.780042	0.468334	-0.169225
-1.409694	1.917948	10.586748	13.885157	15.489146	-6.956701	0.379615	0.259659	-0.7035	16.6895	1.668401	22.325889	-118.58946	213.896082	17.659113	0.24616	-0.060039	-0.13809	8.233634	-2.029969	1.816952	7.457798	-4.447405	-14.150543	-0.763574	0.467026	-0.170088
-1.982852	1.163949	10.573502	18.608874	17.979033	-6.813922	0.410999	0.262452	-0.701504	19.546287	3.718955	24.382572	-97.772688	188.045829	-6.851134	0.264172	-0.066043	-0.13809	8.044773	-1.454607	0.959819	8.073309	-4.605322	-13.317733	-0.724857	0.44691	-0.192122
-2.265833	1.803256	10.800583	16.017023	22.334488	-7.276286	0.379232	0.240147	-0.684236	22.708816	3.485654	21.199908	-45.278289	152.710724	-28.552826	0.264172	-0.048031	-0.13809	8.625366	-1.974446	1.482545	10.041877	-4.785379	-11.926581	-0.748004	0.460965	-0.153861
-1.425958	3.14207	12.727686	18.839949	27.523969	-4.868921	0.379232	0.240147	-0.684236	26.604776	0.042776	17.447053	-27.856218	113.570087	-45.516951	0.264172	-0.060039	-0.13809	8.501002	-1.802895	0.967252	12.164539	-4.847439	-8.029287	-0.728882	0.441652	-0.145476
-1.522518	2.266595	10.70093	17.176767	39.553674	-5.343781	0.393897	0.24267	-0.701398	30.55225	-2.082445	13.63395	-47.315453	71.692911	-60.606545	0.264172	-0.042027	-0.150098	9.062107	-2.153514	0.5202	14.440947	-4.79995	-3.124448	-0.728882	0.441652	-0.145476
-1.854552	2.558679	11.330734	13.9601	48.15622	-6.655877	0.396334	0.259929	-0.684342	31.946019	-2.199463	12.599316	-87.148008	26.01111	-73.314516	0.282184	-0.042027	-0.13809	9.064473	-2.210885	0.634121	14.318648	-4.595833	1.610843	-0.763101	0.485535	-0.208891
-2.14258	2.500775	11.267064	-0.403351	59.053718	-7.70045	0.415872	0.296971	-0.667393	30.414283	1.184986	12.799988	-116.087319	-15.371671	-80.824521	0.282184	-0.048031	-0.156102	9.228773	-2.328596	0.294421	11.090352	-4.478884	3.425856	-0.744879	0.461469	-0.183417
-1.565795	4.242058	11.513945	-6.066708	69.401307	-10.257833	0.427335	0.24321	-0.663082	26.819621	6.749604	14.844602	-123.555921	-37.503376	-75.107317	0.282184	-0.024016	-0.150098	10.042532	-2.152557	1.16736	5.986313	-4.450265	3.428339	-0.76182	0.444268	-0.14375
-1.60802	2.734681	12.202946	-20.634098	82.692173	-10.190828	0.44341	0.264119	-0.681348	22.722631	9.451339	16.766511	-84.283443	-61.081008	-61.938226	0.27618	-0.042027	-0.162106	10.158898	-2.268051	1.283271	2.54296	-4.63417	2.618894	-0.729309	0.455408	-0.16719
-1.475512	3.317232	13.131666	-29.614652	97.201116	-10.970561	0.458337	0.226491	-0.641821	15.052329	36.419567	40.223462	-156.577043	-155.421611	-44.459228	0.27618	-0.036023	-0.150098	10.208754	-2.67528	0.882912	1.624159	-6.255586	1.672844	-0.744452	0.447714	-0.161703
-1.974668	1.926665	13.927432	-26.753783	110.045991	-12.19182	0.445082	0.242354	-0.625763	3.866654	14.317478	18.34205	345.392613	-205.991932	12.503704	0.282184	-0.03002	-0.162106	10.268849	-2.558812	1.055841	2.952196	-8.890643	0.701205	-0.72533	0.428401	-0.153318
-3.109246	1.290845	14.538998	-18.605599	124.702852	-11.997606	0.460391	0.224239	-0.605501	-4.592789	12.185248	6.564224	388.457738	-220.103755	103.90152	0.258168	-0.054035	-0.156102	9.761877	-2.498578	1.331428	5.17089	-10.873014	1.921323	-0.711987	0.426589	-0.124625
-2.258711	1.288753	14.03581	-8.038735	137.444236	-11.542291	0.479547	0.241769	-0.569287	-24.692356	6.193054	-5.902549	103.502733	-239.982936	188.501221	0.258168	-0.060039	-0.144094	10.606674	-2.328698	0.892373	10.618994	-12.978575	5.883664	-0.797838	0.478644	-0.172986
-2.654824	1.405927	14.317162	0.786186	151.413765	-11.911878	0.467701	0.276017	-0.554334	-2.520396	5.688017	16.818584	-66.238368	-213.510211	182.627101	0.240156	-0.054035	-0.156102	11.048456	-1.058516	0.336244	17.196736	-11.28651	13.005812	-0.782269	0.472583	-0.156759
-2.811153	1.582178	15.123559	5.507504	167.439836	-8.126953	0.492802	0.225906	-0.585345	14.20689	6.840608	17.197099	123.047017	-196.138998	141.819914	0.210137	-0.054035	-0.13809	11.319657	-1.062239	-0.34323	11.308002	-4.039621	17.393583	-0.764046	0.448517	-0.131284
-3.30426	-0.155947	16.207561	19.836754	185.38718	-3.544149	0.530087	0.262091	-0.531078	10.440498	-0.356501	10.94424	33.878136	-54.835636	27.202584	0.192125	-0.066043	-0.144094	11.925897	-2.284572	-1.478205	8.953498	2.479032	7.687738	-0.748004	0.460965	-0.153861
-4.000655	-0.671599	18.67748	28.793093	206.995545	2.936396	0.576136	0.267407	-0.546244	1.374512	-2.503603	9.18123	36.408154	-46.081416	-36.734728	0.186121	-0.066043	-0.144094	12.552057	-2.749257	-1.525011	9.427427	8.667526	-6.338765	-0.694145	0.448543	-0.181382
-2.139228	-1.715213	19.92565	47.201988	232.970764	11.999925	0.579217	0.264028	-0.491763	-1.968122	-0.55051	12.062588	-9.388912	-28.558624	11.488585	0.192125	-0.066043	-0.156102	12.156139	-1.821067	-1.30032	1.448606	14.496901	-13.551679	-0.793859	0.451637	-0.159114
-3.39774	-2.577168	22.961448	61.311551	265.265384	20.233471	0.645449	0.285748	-0.452556	0.887747	-1.478248	13.593549	66.316201	-32.554836	64.057593	0.180117	-0.084055	-0.156102	11.659508	-0.715806	-0.391988	13.833601	16.258677	-20.77509	-0.726656	0.437403	-0.157942
-2.869188	-2.278875	26.497991	77.48887	302.989547	28.610429	0.695606	0.286558	-0.395082	2.660683	-0.777721	2.597332	89.824505	-31.766271	-18.128529	0.180117	-0.072047	-0.150098	11.405962	0.624266	1.321192	40.401657	17.389806	-6.649827	-0.731062	0.478166	-0.193527
-1.486687	-2.918121	26.755145	106.577615	349.305965	37.216907	0.678384	0.207114	-0.319021	0.326317	0.189233	10.984818	-47.374818	-14.540879	-4.216838	0.186121	-0.060039	-0.13809	12.29209	0.977561	2.995335	41.263124	20.007442	20.055213	-0.760921	0.449021	-0.16084
-1.151845	-0.416415	29.310718	127.347736	388.80393	35.594049	0.681203	0.243885	-0.32123	-0.604736	-1.409284	9.259269	6.784287	-13.839724	-9.046098	0.180117	-0.072047	-0.150098	12.073225	0.458789	3.38811	39.254133	23.79695	14.879782	-0.745351	0.44296	-0.144613
-2.23901	2.197261	29.584364	173.232082	408.43844	33.873599	0.74808	0.244966	-0.244598	0.229826	0.47952	8.859217	1.290896	-11.032187	-7.182802	0.180117	-0.078051	-0.144094	11.612616	0.168902	3.092325	48.154765	29.630103	0.815445	-0.723577	0.405643	-0.126981
-6.442419	6.146968	28.990096	213.264405	410.192851	4.970028	0.791572	0.17336	-0.200865	-0.313424	-0.322697	9.911775	-16.360611	-8.004256	-7.953987	0.168109	-0.084055	-0.144094	11.869836	0.972837	1.788516	58.624628	36.097331	-5.120066	-0.71284	0.4541	-0.168053
-4.833632	2.952923	28.956599	236.540744	425.910103	11.724626	0.794271	0.15047	-0.127121	0.075693	-0.323281	9.565381	-15.402061	-6.921719	-5.694163	0.180117	-0.078051	-0.150098	12.22877	2.237087	-0.081858	52.12458	41.047833	-3.526463	-0.76182	0.444268	-0.14375
-6.185343	2.718119	27.310938	153.934686	411.427775	12.235979	0.827971	0.11086	-0.032115	0.077227	-0.838913	9.566294	-19.11217	-5.385262	-6.480616	0.174113	-0.066043	-0.156102	12.43684	1.942418	-1.106326	37.611156	41.01609	0.953446	-0.711087	0.431342	-0.141715
3.620702	0.341821	32.817331	192.169451	412.908209	7.507594	0.883384	0.165701	0.040205	-0.871141	-1.009009	10.197128	-18.406217	-5.113643	-6.303424	0.192125	-0.078051	-0.13809	12.410606	1.530835	-2.478378	22.248773	35.475537	-1.845021	-0.725757	0.442156	-0.175032
7.458224	-5.916546	14.789793	240.005074	382.705215	30.192739	0.868981	0.123028	0.114057	-0.809401	-0.207796	10.609794	-11.581283	-6.453324	-4.103224	0.180117	-0.072047	-0.144094	12.630404	0.427982	-2.992697	8.549524	28.807643	-7.819938	-0.72841	0.460161	-0.184279
19.25011	-16.987898	-21.873271	310.91878	277.600742	76.247939	0.90101	0.105183	0.153478	-0.047808	-0.092857	9.0318	-13.350496	-6.008217	-4.62846	0.186121	-0.066043	-0.13809	12.296753	-0.206618	-2.659793	-0.074371	21.868619	-9.876961	-0.695045	0.44379	-0.164292
9.871897	-7.281896	3.334017	38.463508	117.847579	48.831989	0.888782	0.11992	0.187695	1.617018	-1.818501	10.187361	-6.836125	-5.45604	-2.666511	0.186121	-0.066043	-0.144094	10.940012	0.493497	-2.112747	-5.376338	14.366308	-12.514813	-0.728836	0.473917	-0.205993
9.410765	-2.303586	-2.326671	40.148763	-27.343156	58.630378	0.920046	0.06305	0.265645	0.273717	-1.128323	10.986066	2.451756	-6.101334	-2.025677	0.186121	-0.060039	-0.162106	9.626699	1.190345	-2.249681	-9.392241	9.547108	-11.140003	-0.747531	0.479474	-0.192664
14.291085	-5.929791	12.209656	-5.15972	-78.739092	66.551933	0.877198	0.114018	0.259337	0.823358	-1.014021	10.170727	4.177113	-7.208099	-2.46843	0.186121	-0.060039	-0.156102	9.410416	1.077636	-1.68379	-8.491091	5.886174	-7.318751	-0.742652	0.45722	-0.195883
5.441084	-2.955121	14.467842	21.738813	-94.373597	67.898769	0.952194	0.104868	0.229112	-0.818115	-1.295236	9.962721	9.328169	-7.025471	-2.98391	0.186121	-0.078051	-0.150098	10.377553	0.959646	-1.722262	-5.496777	0.907889	-5.902597	-0.690593	0.435291	-0.189224
7.334558	-3.319438	8.667716	63.722721	-80.144954	57.642907	0.887372	0.101534	0.1888	-1.136394	-0.265183	11.252378	10.631583	-8.198192	-0.695954	0.174113	-0.066043	-0.162106	11.139328	0.905265	-0.623132	-3.027412	-3.337109	-6.861377	-0.738673	0.430213	-0.182011
11.837721	-5.605636	1.296742	51.37818	-102.179324	44.590807	0.869244	0.082878	0.170746	-1.568806	-0.317831	9.238867	14.635518	-8.448041	0.224128	0.198129	-0.066043	-0.13809	10.972787	0.443224	-0.457337	-0.532884	-5.004502	-5.983484	-0.743552	0.452467	-0.178793
11.496153	-4.908371	1.465005	15.903363	-146.703658	35.199439	0.917729	0.105453	0.172636	1.559624	-2.62012	10.010695	13.173054	-9.26325	-0.238562	0.192125	-0.078051	-0.144094	10.584673	-0.30653	-0.011901	5.460355	-3.827785	-3.868149	-0.694145	0.448543	-0.181382
11.656762	-5.018978	3.779603	-16.027486	-191.245673	24.989954	0.846624	0.049215	0.099317	0.876959	-1.128472	9.995016	15.15086	-9.559534	-0.916633	0.186121	-0.066043	-0.150098	9.967989	-0.650554	0.43087	9.513212	-1.738315	-7.075722	-0.657655	0.432676	-0.19095
10.588301	-4.0284	4.916557	-33.406738	-229.318203	15.61755	0.912211	0.091573	0.1011	-0.140264	-0.438098	10.092239	16.399698	-10.182512	-0.723844	0.168109	-0.072047	-0.144094	9.280495	-0.244703	0.247919	10.797857	0.616456	-11.89486	-0.743552	0.452467	-0.178793
9.046432	-3.619621	5.291378	-46.975366	-259.086621	10.835631	0.841751	0.014696	0.065206	-0.933988	0.022729	10.017213	15.448561	-10.090466	-0.528849	0.180117	-0.084055	-0.156102	8.584446	-0.07254	-0.392821	13.129923	2.393851	-14.095188	-0.660308	0.450681	-0.200197
7.961715	-3.559822	5.558875	-59.583873	-283.880783	9.749777	0.796849	0.067916	0.022578	0.563474	-0.614355	11.462587	3.965007	-15.823251	2.364001	0.186121	-0.072047	-0.150098	8.068566	0.506922	-0.514513	10.732762	1.556836	-17.514395	-0.742226	0.443464	-0.174169
6.699509	-3.906854	5.532891	-75.289186	-303.887491	13.640644	0.79415	0.090807	-0.051167	0.419945	-0.954825	9.750018	28.322097	-25.846098	-1.63647	0.180117	-0.084055	-0.144094	7.900227	-0.18723	-0.463954	11.225686	1.296396	-16.068116	-0.723531	0.437907	-0.187498
5.521679	-3.786247	6.896723	-94.700712	-319.547757	22.138132	0.79415	0.090807	-0.051167	-0.147871	-0.437387	9.679237	9.039904	-24.124401	0.627296	0.174113	-0.078051	-0.144094	7.376794	0.795929	-0.926359	10.947495	1.934384	-15.931473	-0.743125	0.438711	-0.157079
4.499145	-3.958116	7.396063	-109.031041	-326.563977	32.306837	0.771531	0.057144	-0.122596	0.077185	-0.094314	9.682975	10.885682	-27.420495	3.80997	0.168109	-0.084055	-0.162106	7.495982	0.391478	-0.697578	9.625234	1.954184	-16.306084	-0.743125	0.438711	-0.157079
3.272737	-3.488078	9.222108	-122.71898	-329.450228	43.0278	0.672626	0.073909	-0.238649	-0.053177	0.251304	8.79519	0.590392	-27.080071	5.596627	0.168109	-0.072047	-0.144094	7.219161	-0.18534	-0.363285	7.812745	1.368343	-15.506981	-0.723531	0.437907	-0.187498
2.530984	-3.196582	9.439207	-134.434457	-329.134673	54.322984	0.663861	0.104778	-0.169216	0.483453	-0.382883	10.222091	-6.302922	-26.980221	5.699086	0.174113	-0.090059	-0.150098	7.045054	0.335543	-0.478482	7.354194	0.472269	-13.317008	-0.693246	0.453296	-0.198471
1.582373	-2.727941	10.808448	-143.827787	-326.600144	65.348983	0.655262	0.094277	-0.295232	0.072327	0.077969	9.44667	0.29508	-28.576356	4.151685	0.180117	-0.090059	-0.144094	6.993526	-0.126462	-0.253343	7.449748	-0.587011	-9.988599	-0.711087	0.431342	-0.141715
0.391746	-2.3767	11.536876	-157.475508	-320.216043	75.412253	0.622206	0.113248	-0.352812	0.414192	0.248519	9.629886	-5.496506	-28.624779	3.246599	0.192125	-0.072047	-0.156102	6.930724	-0.01187	-0.539404	7.083519	-1.620715	-8.773737	-0.709761	0.42234	-0.137091
-0.276949	-1.735047	12.565364	-178.528865	-310.536727	83.922957	0.621179	0.114374	-0.370972	0.084109	0.134145	10.09557	-4.070656	-28.728758	1.735649	0.174113	-0.090059	-0.162106	6.70385	0.10464	-0.486291	5.946411	-1.660105	-7.066125	-0.721305	0.433658	-0.199964
-0.811938	-0.568746	14.580246	-193.951841	-300.238511	87.862155	0.605487	0.112978	-0.37197	0.807805	-0.898015	9.344522	0.440905	-27.620695	-0.458736	0.168109	-0.072047	-0.162106	7.15546	-0.186803	-0.706964	4.438848	-0.953167	-4.337915	-0.67545	0.442986	-0.194711
-1.699257	0.59691	16.183566	-202.78552	-285.532997	87.393077	0.554947	0.092655	-0.41018	0.800944	-0.782821	8.990317	2.946423	-27.872954	-1.214981	0.180117	-0.072047	-0.150098	7.154789	-0.418652	-0.765108	4.22092	0.341331	-2.962178	-0.740472	0.420706	-0.147831
-2.993199	2.110654	17.548465	-208.625637	-266.736832	81.151543	0.522536	0.090988	-0.430336	0.300983	0.306152	9.627611	1.49179	-27.223868	-1.151376	0.180117	-0.084055	-0.156102	8.057337	-1.233387	-1.264597	4.802719	1.412696	-2.402776	-0.706208	0.409088	-0.144934
-3.312407	3.333098	18.874282	-215.074593	-246.029595	71.335012	0.506582	0.129742	-0.488023	0.300578	0.077084	9.569017	3.347634	-26.869633	-1.103403	0.162106	-0.078051	-0.150098	7.72694	-1.230076	-0.700433	3.816436	2.494933	-1.821472	-0.7391	0.443968	-0.203725
-4.147107	3.511275	20.187296	-221.352318	-225.815264	58.957473	0.477252	0.124696	-0.453699	0.297595	-0.380849	9.333828	1.867642	-26.25022	-1.627963	0.156102	-0.078051	-0.13809	7.953701	-1.28869	-0.753283	2.859957	3.949422	-1.523908	-0.694099	0.480807	-0.241899
-5.292109	4.209319	20.339558	-221.86962	-211.862097	45.330247	0.487426	0.112212	-0.524237	0.588204	-0.153344	9.810857	-2.089082	-26.159172	-1.94186	0.174113	-0.072047	-0.162106	8.011657	-1.230645	-0.694802	1.813657	4.604796	0.932653	-0.756042	0.426767	-0.164058
-5.222452	5.72005	21.038111	-227.364143	-210.349778	32.869702	0.464762	0.179583	-0.476171	1.10048	-0.269767	9.99784	-5.333876	-26.979115	-2.649113	0.162106	-0.060039	-0.144094	8.239885	-1.462685	-0.691349	-1.047278	5.274065	0.932337	-0.707488	0.450355	-0.210075
-7.159848	6.82657	21.753497	-226.622757	-219.652119	27.27408	0.459888	0.145065	-0.510282	0.70559	-0.154091	10.049031	-5.748626	-28.26412	-2.716458	0.174113	-0.090059	-0.156102	7.89248	-1.405421	-0.983304	-1.538159	4.998791	2.557073	-0.74	0.439215	-0.186635
-11.09914	8.110003	22.776186	-232.102701	-216.749604	30.610654	0.460653	0.184089	-0.548811	0.31773	-0.210901	10.454527	-9.274154	-30.656993	-2.865395	0.156102	-0.072047	-0.174113	8.224447	-1.060828	-1.431707	-2.089607	4.405837	4.892281	-0.74	0.439215	-0.186635
-15.457153	10.436638	22.983983	-227.771987	-198.637661	44.088666	0.41396	0.199411	-0.57107	0.936461	-0.670709	10.231291	-7.490628	-34.946856	-3.730776	0.156102	-0.090059	-0.156102	8.181349	-0.652022	-0.688795	-1.903131	3.604408	5.370634	-0.740899	0.434462	-0.169545
-16.705163	13.167965	23.832627	-199.503432	-180.926874	60.679557	0.433498	0.236453	-0.554121	0.680625	-0.901463	11.642268	-3.687744	-41.003184	-4.566541	0.168109	-0.084055	-0.150098	8.522224	-0.826656	-0.739918	-3.498676	2.504991	7.926036	-0.726656	0.437403	-0.157942
-17.133448	13.455354	22.495585	-141.62376	-172.664051	64.165448	0.414725	0.238435	-0.609599	0.612898	-0.785692	11.050977	-2.942215	-48.056788	-5.849625	0.156102	-0.096063	-0.144094	8.01797	-1.576709	-0.410919	-6.139236	1.351163	11.211063	-0.727556	0.43265	-0.140852
-19.395638	11.35773	18.226643	-90.080932	-156.763763	52.344129	0.417544	0.275206	-0.611809	0.899736	-0.386005	11.3507	-1.238907	-55.849222	-6.287755	0.144094	-0.078051	-0.162106	8.377661	-2.152412	0.449593	-7.397894	0.781947	13.419505	-0.710614	0.449851	-0.180519
-22.695195	7.867385	13.6447	-76.037427	-123.168663	32.759544	0.368796	0.292781	-0.670387	0.343	-0.671473	11.753343	4.342231	-64.589243	-9.523779	0.162106	-0.072047	-0.144094	8.943829	-2.212235	0.289316	-8.442323	0.562508	14.94814	-0.712794	0.486365	-0.22857
-24.796094	5.187771	8.799642	-98.630023	-77.722785	15.084694	0.305383	0.307833	-0.711804	0.859751	-0.100997	12.293109	0.380644	-73.914186	-8.803458	0.132086	-0.090059	-0.156102	8.665643	-2.094296	0.626763	-8.349243	0.35799	16.421369	-0.727556	0.43265	-0.140852
-25.406664	5.299941	6.938419	-129.219786	-33.00775	3.866432	0.305766	0.327345	-0.731069	0.055843	0.131676	11.628488	-3.926035	-84.325856	-9.005684	0.132086	-0.072047	-0.162106	9.241606	-1.978063	0.981105	-7.856752	0.17199	16.978822	-0.711041	0.463607	-0.202232
-24.581897	8.088146	8.175239	-145.919841	5.212317	2.013632	0.260864	0.380566	-0.773697	0.571549	-0.042344	11.992573	-14.189118	-92.517854	-11.105184	0.144094	-0.066043	-0.150098	9.63526	-2.327552	0.70195	-4.226383	-0.938081	16.351255	-0.726656	0.437403	-0.157942
-22.781753	11.107575	9.432048	-132.572415	30.921645	3.332636	0.285965	0.330454	-0.804707	0.679347	0.988781	11.874919	-23.297678	-100.083759	-7.79777	0.13809	-0.090059	-0.156102	9.457229	-2.67643	0.297349	0.235767	-2.579394	17.116708	-0.710141	0.46836	-0.219322
-20.842566	12.903749	8.954908	-87.93879	45.691875	2.816446	0.296095	0.419004	-0.75575	0.859516	-0.387357	12.234616	-36.193217	-108.412842	-6.410569	0.13809	-0.084055	-0.144094	9.800811	-3.082124	0.359359	3.560496	-4.05099	19.951728	-0.711514	0.445098	-0.163429
-19.088011	12.202437	7.716738	-49.052644	61.367037	-3.240228	0.293275	0.382232	-0.753541	0.909516	-0.386919	11.881702	-48.943343	-116.297071	-5.896368	0.13809	-0.084055	-0.156102	9.630209	-3.197576	0.355454	2.639606	-4.300638	23.622442	-0.727083	0.451159	-0.179656
-16.750516	10.398736	6.892047	-28.704799	80.584144	-13.844136	0.30135	0.473035	-0.740903	1.209436	-0.733048	12.772747	-46.021791	-127.910904	-7.952898	0.126082	-0.078051	-0.162106	9.404461	-3.080802	0.465659	-0.500313	-2.494907	25.276283	-0.712367	0.472609	-0.206856
-10.126519	54.842648	74.343542	-39.903237	270.285347	26.054586	0.267147	0.43347	-0.74069	1.953436	-1.652552	13.142498	-44.007269	-140.092191	-15.545387	0.120078	-0.072047	-0.156102	8.835039	-3.658891	0.394676	-2.540585	2.28051	25.949711	-0.696798	0.466548	-0.190629
-9.664852	23.811686	11.978025	413.727561	198.410053	-137.066014	0.311142	0.441039	-0.792176	1.40241	-2.396765	13.781953	-37.182836	-152.279595	-23.344667	0.10807	-0.060039	-0.162106	9.055156	-3.776979	-0.00099	-6.364022	7.088323	27.071523	-0.7649	0.476029	-0.174711
2.935361	2.376104	9.865326	395.768854	183.98	-88.634548	0.382937	0.375605	-0.800928	1.411167	-2.053925	14.312346	-28.133292	-167.48791	-28.173411	0.114074	-0.090059	-0.186121	9.215838	-3.200459	-0.45172	-6.30489	8.582429	31.746724	-0.7658	0.471275	-0.157622
9.191131	-5.494872	-1.99204	271.405039	232.978582	-131.081986	0.347969	0.297016	-0.762186	0.974629	-1.824914	15.188249	-29.978975	-183.285591	-34.869769	0.096063	-0.066043	-0.162106	9.885734	-2.104422	-1.004132	-8.210468	9.389298	41.870482	-0.734615	0.491418	-0.185685
6.433169	8.706825	13.013319	283.674364	244.259252	-118.936856	0.4083	0.285343	-0.775249	0.905993	-3.604293	17.313229	-20.753965	-205.093035	-42.633092	0.090059	-0.060039	-0.13809	11.237925	-0.488681	-1.540663	-8.262805	6.356773	50.04404	-0.766653	0.498787	-0.201049
-10.3229	-4.061801	6.291488	103.451698	77.913048	-0.95966	0.419381	0.21207	-0.751673	-1.037034	-1.539658	19.513548	-24.016902	-230.544937	-42.137976	0.078051	-0.072047	-0.150098	15.548414	3.66911	-1.892879	5.516747	-10.14286	39.797852	-0.783595	0.481586	-0.161382
-2.299484	1.610851	3.28653	51.224461	80.088365	58.042587	0.4222	0.248842	-0.753882	-0.402485	-2.578818	23.125252	-0.340407	-264.72497	-41.080323	0.072047	-0.060039	-0.162106	18.501518	3.38513	0.618208	-12.203458	-22.310578	4.417558	-0.731916	0.505677	-0.236954
-9.936297	0.252838	14.458283	62.769954	29.95755	-18.708323	0.389406	0.227663	-0.754773	-0.372508	-4.987232	24.368519	63.377655	-314.691065	-53.931093	0.060039	-0.054035	-0.144094	16.637129	0.741273	3.936261	-42.179568	-18.677442	29.892348	-0.750611	0.511234	-0.223625
0.575817	6.194698	3.875051	58.277451	-0.282343	-44.409982	0.429172	0.180074	-0.802946	1.773294	-7.628247	23.88348	79.246053	-348.086222	-59.619567	0.042027	-0.060039	-0.150098	14.914314	0.104145	3.100292	-24.155571	-23.888991	18.213675	-0.75421	0.492222	-0.155266
-0.306559	4.349457	8.476331	29.123956	16.466123	-20.601856	0.451409	0.194225	-0.712252	1.887394	-1.796702	31.012146	111.346786	-370.407055	-47.377119	0.03002	-0.078051	-0.13809	13.069035	0.39201	1.923723	-25.942092	-23.512551	7.858166	-0.751038	0.52499	-0.245339
-5.848856	0.410467	9.396625	5.550363	12.156789	0.958182	0.403689	0.210674	-0.752671	1.434178	-4.706122	24.343784	223.466618	-413.231341	-63.382593	0.012008	-0.084055	-0.120078	12.159916	0.84427	-0.831491	-41.435996	-21.579313	25.743371	-0.721226	0.52187	-0.217509
-0.865408	0.353509	11.923002	-3.354135	7.649839	-5.860469	0.46543	0.217386	-0.766839	-2.40194	-3.841168	27.866293	124.070455	-423.715846	-55.620126	0.006004	-0.090059	-0.102066	12.686767	1.296577	-2.930536	-46.96445	-22.133669	39.916058	-0.738594	0.518425	-0.199556
-0.2298	2.02979	9.339106	9.163414	5.872725	-3.786302	0.422844	0.228204	-0.716457	4.395394	-7.065396	25.230454	157.856736	-451.901933	-52.503557	-0.018012	-0.078051	-0.090059	13.250569	1.294126	-3.204734	-45.77576	-17.825891	39.730838	-0.743519	0.508415	-0.135821
-1.606616	1.508742	9.310416	4.684259	5.255851	-4.01076	0.403689	0.210674	-0.752671	-2.878001	-0.91647	27.026421	140.37336	-476.0566	-59.788077	-0.036023	-0.084055	-0.066043	14.468573	0.891456	-2.098172	-38.089173	-19.53672	29.261472	-0.737648	0.555442	-0.277163
-0.334931	1.508635	9.79808	2.778131	5.094884	-1.985734	0.448328	0.197604	-0.766732	-2.28101	-3.217314	31.465274	115.148417	-494.28711	-68.792614	-0.054035	-0.102066	-0.048031	14.798226	0.959299	0.191409	-29.658885	-24.168807	13.878373	-0.771105	0.507285	-0.176117
-1.419758	1.684519	10.065857	2.075744	3.172503	-4.217674	0.413098	0.159166	-0.784679	-5.022527	-1.566954	8.643814	253.220382	-450.393846	-61.344074	-0.066043	-0.096063	-0.042027	13.684809	1.199205	1.483055	-21.018233	-25.951021	4.882759	-0.793826	0.507585	-0.116142
-4.804074	1.223601	10.055118	1.403296	-2.164829	-4.420903	0.430844	0.15831	-0.747361	-13.692839	-14.624408	-13.263739	250.880322	-303.913047	-42.675944	-0.066043	-0.10807	0	12.670762	0.798344	1.974772	-11.987388	-23.239787	-0.942649	-0.788001	0.522349	-0.196968
-1.59513	1.452096	9.888424	-7.129608	3.442646	-1.48193	0.419381	0.21207	-0.751673	-22.792192	3.554548	-7.453938	-17.685425	-149.138734	11.813098	-0.090059	-0.114074	0.018012	12.48991	0.738423	1.457301	-8.313567	-16.932013	-3.730077	-0.7448	0.549681	-0.200962
-0.338052	2.378996	9.684547	-11.038071	7.297292	-3.339272	0.41489	0.197064	-0.805048	-2.186664	0.943767	9.637682	28.250257	-9.192633	64.991822	-0.084055	-0.096063	0.03002	11.9205	-0.418893	1.326596	-9.248295	-11.725476	-4.314617	-0.7448	0.549681	-0.200962
-5.735579	-4.226715	11.988254	-4.574026	0.749381	-0.88932	0.450765	0.214863	-0.749677	-14.384328	-2.576658	12.476183	69.901455	74.376009	75.53717	-0.090059	-0.096063	0.03002	11.74471	-0.188018	1.095901	-3.819	-6.655544	-6.911021	-0.795106	0.548852	-0.181283
-7.730042	-2.024232	9.873371	10.193457	-6.018786	-5.429861	0.403044	0.231312	-0.790095	-0.277297	-7.709632	7.62495	166.609154	62.866979	45.591744	-0.102066	-0.114074	0.042027	10.827656	-0.59305	0.733488	2.684571	-0.397212	-6.103618	-0.811148	0.536404	-0.158706
1.953627	1.621657	9.49719	4.158145	1.568198	-8.152877	0.437892	0.250238	-0.752884	0.390545	-11.137077	0.389234	112.043101	62.286455	8.329091	-0.096063	-0.10807	0.018012	10.649841	-0.478493	0.388082	6.854373	4.479127	-7.050691	-0.726577	0.525615	-0.175487
-3.082792	0.409194	10.029636	3.022802	-1.045303	-1.540881	0.445126	0.141321	-0.745258	-3.834691	-9.511616	-4.825949	6.440719	87.491305	-33.381501	-0.102066	-0.102066	0.036023	10.656815	-0.013481	0.78983	9.305691	7.472523	-12.643031	-0.77821	0.533788	-0.160432
-1.181982	1.453104	10.474573	5.883786	-1.05121	-2.189751	0.417971	0.193685	-0.750568	-6.270106	-4.530976	1.78334	-49.767385	138.458228	-57.407597	-0.102066	-0.126082	0.03002	9.63782	-0.763035	0.994508	10.041911	7.677611	-17.598892	-0.808023	0.536908	-0.188262
-2.531759	-1.038322	11.713058	12.32947	-3.769356	-0.559936	0.432636	0.196207	-0.76773	-8.542725	-0.919742	4.741401	-34.991392	189.412714	-61.23051	-0.078051	-0.114074	0.036023	8.90014	-0.355493	1.152984	7.092965	6.13158	-21.188193	-0.792407	0.563111	-0.232553
-1.132175	2.206765	10.130644	12.041419	-4.755452	-2.243782	0.42079	0.230456	-0.752777	-8.303585	0.166609	5.628821	4.774869	230.849391	-53.988074	-0.084055	-0.102066	0.012008	7.7562	-0.064788	0.903404	3.56149	4.118424	-22.68987	-0.763968	0.53673	-0.148829
-1.740211	0.868008	8.323742	4.639398	-2.236635	-0.864261	0.415917	0.195937	-0.786888	-6.52185	-0.294545	4.130401	30.244119	262.967299	-47.256815	-0.078051	-0.126082	-0.006004	7.876628	-0.526872	1.189015	-0.155324	3.332879	-16.207119	-0.762214	0.513972	-0.122492
-4.317359	-1.10252	8.441001	8.18421	-2.433387	-2.423435	0.415534	0.176425	-0.767624	-5.960213	-0.925958	3.847384	26.639683	288.973157	-44.529466	-0.072047	-0.120078	-0.018012	7.581207	-0.239187	0.670868	-0.374956	5.495804	-13.475067	-0.80755	0.555417	-0.227066
-2.121217	-0.464209	9.295378	11.39037	-2.052975	-7.342846	0.452174	0.233249	-0.750781	-6.139381	-0.981826	3.313224	13.266087	307.91875	-43.940513	-0.084055	-0.126082	-0.03002	6.952237	-0.064772	0.545084	-0.132864	6.937269	-15.43416	-0.794633	0.567361	-0.220087
2.157871	4.172518	8.351615	8.512956	1.40887	-9.515815	0.415797	0.136275	-0.710934	-5.727956	-0.812664	4.205528	1.822558	319.564699	-42.71526	-0.066043	-0.132086	-0.036023	6.950769	0.108654	0.48878	-1.764753	7.822795	-16.595187	-0.761269	0.550989	-0.200099
-0.678592	0.812457	9.789545	12.520736	-0.301159	-11.667573	0.414507	0.177552	-0.785784	-5.65731	-0.814154	4.973617	-7.687117	325.704838	-40.089541	-0.060039	-0.132086	-0.054035	7.172684	0.222678	0.20835	-3.087749	8.233787	-16.489485	-0.736841	0.495667	-0.173219
0.821507	3.192018	10.345325	11.98021	1.407253	-9.384385	0.460818	0.142717	-0.74426	-5.494847	-0.985832	4.56418	-18.454376	329.855792	-35.907267	-0.048031	-0.144094	-0.060039	6.71724	0.744918	0.258798	-4.869775	7.694855	-16.761849	-0.790227	0.526598	-0.184501
-0.436158	1.684552	10.489991	11.62033	1.567339	-9.124792	0.414507	0.177552	-0.785784	-5.200765	-1.560522	5.10163	-31.938932	332.964826	-32.187783	-0.036023	-0.126082	-0.096063	6.313358	-0.008516	-0.095056	-6.650545	6.795214	-15.43532	-0.794679	0.535096	-0.159569
-1.190985	2.496894	10.072385	7.693721	4.567926	-9.244366	0.419381	0.21207	-0.751673	-5.012627	-1.963705	6.049603	-45.351019	334.626142	-29.367645	-0.012008	-0.132086	-0.102066	6.54608	0.339722	0.196487	-7.878215	5.998867	-14.414087	-0.775511	0.548048	-0.211702
-0.600433	1.801782	10.891545	12.049098	3.669059	-8.25415	0.432254	0.176695	-0.748466	-4.552012	-2.252241	6.471805	-61.336018	335.501475	-28.420949	-0.018012	-0.126082	-0.114074	6.713201	-0.066946	-0.030343	-6.431014	5.281819	-12.370961	-0.809822	0.527402	-0.154083
-2.465795	0.987332	9.349829	6.909971	6.656934	-7.306445	0.416944	0.194811	-0.768728	-3.849808	-1.912867	7.84124	-79.206215	335.510447	-28.388584	0.006004	-0.126082	-0.150098	6.664142	-0.064992	0.368176	-5.25977	4.173781	-11.054338	-0.808023	0.536908	-0.188262
-0.906552	2.728508	9.963029	6.125476	8.011398	-5.704246	0.415534	0.176425	-0.767624	-3.037335	-2.833657	8.86108	-94.128116	335.974006	-29.887149	0.018012	-0.126082	-0.168109	7.692499	-0.066251	0.559725	-3.93383	2.560166	-10.642752	-0.771105	0.507285	-0.176117
-0.679427	1.683097	9.791641	6.879507	8.311444	-4.304148	0.448328	0.197604	-0.766732	-2.703537	-2.151974	11.756303	-110.335999	333.486855	-29.271552	0.03002	-0.126082	-0.168109	8.374579	-0.009983	0.516411	-2.022131	0.305534	-9.907289	-0.788428	0.536104	-0.218681
-0.864777	2.320197	9.153787	4.323927	9.781314	-3.205152	0.418998	0.192558	-0.732408	-1.830729	-1.068614	13.304679	-119.33189	329.964874	-24.904317	0.048031	-0.102066	-0.186121	8.098315	-0.297056	0.90911	-0.387949	-1.559961	-8.784727	-0.760415	0.523478	-0.156671
-1.615982	1.739795	8.848457	2.332155	9.573631	-2.127334	0.446918	0.179218	-0.765628	-2.330477	-0.781532	13.825393	-128.3638	326.118862	-15.611218	0.060039	-0.114074	-0.216141	8.732802	-0.41226	1.320619	0.015672	-2.99717	-6.577629	-0.774658	0.520537	-0.168275
-1.49195	1.624716	9.312982	-0.111646	10.124179	-1.588247	0.449738	0.21599	-0.767837	-1.152487	0.012484	16.559712	-133.814905	321.048902	-3.715329	0.102066	-0.114074	-0.234152	9.421309	-0.759952	1.560925	-0.229016	-3.523541	-6.413809	-0.774658	0.520537	-0.168275
-1.306292	1.858396	10.010747	-0.413244	10.974846	-2.432351	0.401252	0.193414	-0.769726	-0.440567	0.007292	18.401757	-136.050148	314.3015	10.828419	0.126082	-0.102066	-0.240156	9.42289	-0.991274	1.616966	-0.289163	-3.997667	-5.485566	-0.807596	0.523152	-0.166549
-1.595296	1.626224	9.888844	2.210517	12.394547	-3.29206	0.461583	0.181741	-0.78279	0.483603	0.632751	19.59803	-137.05652	305.942499	27.199406	0.132086	-0.090059	-0.258168	9.645044	-1.572271	1.276289	1.678639	-3.845539	-3.765726	-0.795106	0.548852	-0.181283
-1.591589	1.33643	10.061589	3.132333	13.219975	-4.685774	0.42079	0.230456	-0.752777	1.686749	0.283996	20.447461	-139.478545	295.325206	41.559214	0.144094	-0.072047	-0.270176	9.535207	-1.339406	1.503457	4.046717	-4.013874	-2.831531	-0.830316	0.523452	-0.106574
-1.756031	1.627789	10.463562	4.693971	14.002282	-6.432603	0.41477	0.137401	-0.729094	3.400679	-0.410149	21.366281	-137.019095	281.482264	51.887981	0.174113	-0.048031	-0.27618	9.417498	-1.687608	1.271258	7.643668	-3.712719	-1.534599	-0.812948	0.526898	-0.124527
-1.55037	1.508546	9.253745	7.238917	13.74434	-8.33719	0.415534	0.176425	-0.767624	5.931856	-0.70817	23.774608	-134.099437	263.376383	55.501388	0.198129	-0.048031	-0.282184	9.476466	-1.571404	1.387095	11.670723	-3.385419	-1.642881	-0.761315	0.518725	-0.139582
-1.485148	1.683597	9.66001	11.419197	12.660206	-9.275587	0.42879	0.160562	-0.783681	8.868548	-2.492388	23.421259	-120.066089	248.931712	49.308382	0.228148	-0.024016	-0.27618	9.410524	-2.15262	0.86951	13.54452	-2.814502	-3.450578	-0.777357	0.506277	-0.117005
-1.827358	1.858338	9.769201	8.287278	12.498723	-9.391127	0.447946	0.178092	-0.747467	11.108342	-2.382692	22.343519	-124.974213	240.418806	36.183069	0.24616	-0.024016	-0.282184	9.013048	-2.15156	0.918719	14.404927	-2.858241	-5.983538	-0.813374	0.540653	-0.14624
-1.572491	1.687062	11.045279	9.292822	12.601411	-7.546758	0.450765	0.214863	-0.749677	15.869184	-3.538662	19.900907	-138.28274	222.541072	5.364546	0.258168	-0.012008	-0.270176	8.956218	-2.209343	0.91733	14.127572	-2.72092	-7.211644	-0.812948	0.526898	-0.124527
-1.928949	1.221517	10.40134	18.278377	17.359271	-8.176087	0.443072	0.143573	-0.781578	18.236301	-0.571925	23.12619	-177.656315	200.290167	-31.194053	0.288188	0.036023	-0.300195	8.506974	-1.97527	1.251924	13.545161	-3.438993	-6.800507	-0.793826	0.507585	-0.116142
-1.930092	1.221377	10.343526	19.217845	22.897927	-7.420897	0.477538	0.142987	-0.725102	20.575101	2.053798	24.759077	-150.572352	165.096802	-63.934439	0.288188	0.036023	-0.288188	8.44349	-1.5133	0.96744	12.99395	-4.50276	-7.849305	-0.780909	0.519529	-0.109163
-1.893121	3.19958	12.313979	12.022503	26.169595	-7.482216	0.421435	0.209818	-0.715353	22.885277	2.62535	21.440691	-87.853149	131.258686	-88.028212	0.330215	0.060039	-0.270176	8.622886	-1.859179	1.368887	11.518423	-4.67103	-8.067437	-0.796479	0.52559	-0.12539
-1.801179	1.977638	11.09922	24.599156	35.019339	-5.736967	0.433663	0.195081	-0.74957	24.636878	1.713909	15.165157	-67.250343	116.868895	-103.374352	0.330215	0.066043	-0.240156	8.61432	-1.513641	0.970819	10.229262	-5.580376	-7.74742	-0.762214	0.513972	-0.122492
-1.811912	2.440722	10.580005	16.232766	41.623251	-6.244783	0.461201	0.162229	-0.763525	26.737873	3.544647	12.961194	-84.398767	100.625098	-108.216868	0.330215	0.072047	-0.24616	8.723474	-1.399127	0.745228	10.262559	-6.546522	-6.623746	-0.827617	0.537712	-0.157844
-2.08327	1.688261	11.324066	12.791283	49.282062	-7.92643	0.429817	0.159436	-0.765521	28.418779	7.378432	12.809992	-118.807534	63.365555	-101.251177	0.360234	0.072047	-0.252164	9.235736	-1.284358	0.75589	7.834989	-6.889928	-4.090227	-0.808968	0.49989	-0.110655
-2.403732	3.026651	12.592347	9.430879	56.4394	-6.78867	0.494639	0.16277	-0.725209	28.741286	12.586013	15.815196	-109.318994	18.208662	-83.152601	0.366238	0.096063	-0.240156	9.624316	-1.345417	0.249682	3.593356	-7.250246	-1.933116	-0.793826	0.507585	-0.116142
-2.416336	1.864121	11.895775	8.436207	65.141808	-8.455062	0.460818	0.142717	-0.74426	25.302843	14.600223	16.57136	-62.919405	-24.622457	-54.624411	0.372242	0.10807	-0.234152	9.120734	-1.86362	0.636825	0.64235	-7.421909	-1.088615	-0.844132	0.506755	-0.096463
-2.134913	2.850009	11.672606	8.08839	74.249764	-9.47845	0.48382	0.195892	-0.692096	20.749982	13.814911	14.656844	-0.8659	-62.478776	-22.768036	0.378246	0.102066	-0.252164	9.345242	-1.92276	0.46979	2.366973	-8.465986	0.504702	-0.782282	0.496267	-0.053269
-2.691123	1.111241	12.466391	10.919922	83.584898	-8.459571	0.445509	0.160833	-0.764523	16.526819	11.082055	11.926298	36.342494	-90.792556	9.666984	0.360234	0.10807	-0.234152	9.05692	-1.807187	0.293408	6.399939	-10.387353	3.262393	-0.812948	0.526898	-0.124527
-2.974048	1.692505	12.693333	14.38317	93.666328	-9.228	0.497458	0.199541	-0.727418	12.172485	8.23668	8.190778	48.190678	-113.331454	36.18556	0.360234	0.10807	-0.240156	8.42853	-2.501481	0.106589	11.5092	-12.569842	3.860404	-0.778683	0.51528	-0.121629
-2.368915	1.289423	14.264783	19.671974	105.132854	-6.621538	0.494639	0.16277	-0.725209	7.762143	-3.662298	39.857171	-49.084205	-167.240617	54.736156	0.348227	0.090059	-0.240156	8.436425	-3.078868	0.446513	16.987843	-15.006025	3.273485	-0.780056	0.492018	-0.065735
-2.724032	1.810884	13.73885	25.793979	118.85506	-8.526011	0.529104	0.162184	-0.668733	-5.022284	1.963728	21.49521	455.901983	-261.083246	-62.921164	0.360234	0.096063	-0.216141	8.622453	-2.786047	1.250496	21.851224	-17.239319	2.953814	-0.810721	0.522648	-0.136993
-3.335815	1.755829	14.708988	20.475039	135.427523	-4.968858	0.526285	0.125412	-0.666523	-7.852426	-31.289682	6.694075	158.469251	-295.074113	24.48162	0.330215	0.078051	-0.240156	9.490664	-1.915628	2.070623	28.4331	-17.521432	6.81878	-0.798278	0.516083	-0.09121
-2.847855	1.468663	16.162803	17.965196	154.245349	-2.119663	0.572717	0.15024	-0.700954	0.280188	19.298347	26.875525	275.378394	-282.379234	41.226491	0.324211	0.060039	-0.24616	10.273991	-0.588232	1.521515	36.055473	-15.237191	14.146867	-0.796052	0.511834	-0.103676
-3.043395	1.763292	17.893373	17.591271	173.708924	1.224791	0.576825	0.145735	-0.628314	14.733429	12.174339	12.892599	127.370153	-105.543247	46.53661	0.288188	0.060039	-0.264172	11.624737	0.042481	0.809239	40.222816	-9.235169	11.705758	-0.812048	0.531651	-0.141617
-2.926402	1.596374	20.900464	23.137144	202.277201	3.060463	0.594954	0.164391	-0.61026	6.955565	4.869537	9.688714	114.292511	-72.178513	-6.403278	0.270176	0.048031	-0.24616	13.919845	1.824194	-0.963385	33.380441	10.216279	8.434793	-0.781382	0.50102	-0.070359
-2.652858	1.021035	23.1006	36.333653	236.314974	6.98632	0.644466	0.18584	-0.590211	2.590336	-0.906141	11.030212	34.29075	-25.540199	40.249509	0.27618	0.03002	-0.252164	17.284839	2.847937	-3.403134	8.858316	30.647943	15.046838	-0.77693	0.492522	-0.095291
-3.60504	0.444349	24.236068	49.891739	277.077691	14.357972	0.630829	0.182191	-0.554889	-0.989039	-6.678589	9.025001	75.463291	-32.503619	37.844082	0.282184	0.024016	-0.252164	17.019274	0.290962	-5.588707	-9.372301	42.720371	12.038663	-0.796525	0.493325	-0.064872
-2.67337	-2.863717	24.766723	68.480926	325.213022	22.860239	0.693214	0.168265	-0.531632	0.950759	2.191781	11.465219	92.501734	-40.286603	39.630132	0.288188	0.036023	-0.24616	12.854855	-2.469395	-3.458073	7.909714	26.021947	-10.572683	-0.794253	0.521341	-0.137856
-0.534094	0.568161	28.689704	72.139487	377.373789	27.695557	0.726652	0.168806	-0.493316	2.154693	1.972834	3.172681	79.426389	-29.17199	2.072168	0.27618	0.018012	-0.24616	11.561161	-0.596106	0.405576	35.223184	22.415593	-8.996416	-0.778256	0.501524	-0.099915
-0.719287	3.186034	31.061826	116.743399	413.024466	19.877818	0.758299	0.131449	-0.434631	2.019537	-0.846636	10.724243	-30.513174	-10.931129	7.39218	0.264172	0.018012	-0.258168	12.771049	1.677191	4.263527	42.09845	17.522405	16.844985	-0.810721	0.522648	-0.136993
-2.588282	5.208493	26.579548	149.665184	440.269328	0.288506	0.796872	0.126358	-0.305514	-0.022602	-0.897083	10.272225	12.149179	-13.0427	0.297937	0.264172	0.024016	-0.258168	13.101105	1.847569	3.700152	31.983179	16.95332	17.843632	-0.744846	0.517417	-0.140444
-8.935984	5.231549	33.388163	130.33058	443.500797	6.870035	0.821164	0.138256	-0.1785	0.240159	-0.43787	9.273843	10.764209	-10.393855	4.78281	0.264172	0.03002	-0.252164	10.878554	-0.117786	3.36183	37.827762	14.706059	4.837396	-0.792073	0.484827	-0.089805
-5.609064	2.601757	27.437718	141.900416	452.381273	-0.374663	0.878676	0.089811	-0.189354	0.128548	-0.552215	9.330873	-8.82623	-9.064669	-1.65125	0.270176	0.006004	-0.24616	11.824986	-1.167376	2.177309	54.152418	14.225624	-17.330119	-0.743565	0.47615	-0.075303
-1.936739	0.515422	30.279804	137.666469	444.395737	-0.937946	0.916605	0.105359	-0.097663	0.584134	-0.611176	9.516668	-3.795101	-6.993842	-0.743285	0.252164	0.012008	-0.258168	13.715859	0.613819	0.111341	42.369223	16.174757	-20.191518	-0.808968	0.49989	-0.110655
4.565347	-3.856615	25.255251	158.477564	416.296352	7.835505	0.90784	0.136228	-0.02823	-0.031572	-0.438033	9.858411	-12.170747	-7.23271	-3.019204	0.258168	0	-0.240156	13.734146	1.93691	-1.708436	12.414021	18.610935	-19.430261	-0.794299	0.489076	-0.077338
11.126591	-6.014062	0.125753	195.306562	366.242864	27.399748	0.935258	0.043714	0.033769	-0.176372	-0.726217	11.153663	-0.278336	-8.31019	-0.430183	0.270176	0.018012	-0.258168	11.42918	0.892491	-3.242614	-4.955217	18.431473	-11.505724	-0.756909	0.477962	-0.103996
23.824366	-19.745421	-8.265599	105.380421	234.490173	33.845901	0.958905	0.07625	0.123359	0.681577	0.249088	8.809316	-6.330662	-8.094928	-1.988816	0.264172	0	-0.258168	9.887537	1.300049	-3.442459	-2.676926	18.210801	-0.9057	-0.774704	0.488272	-0.107757
0.160387	-5.256481	-3.211594	80.680457	158.1986	84.699457	0.972805	0.039749	0.144726	1.621088	-1.360669	10.48155	-15.669188	-8.457768	-1.765314	0.27618	0.012008	-0.24616	9.33849	1.248021	-2.426326	-6.115988	16.196663	-2.253807	-0.761788	0.500216	-0.100778
15.707422	-2.987047	5.65676	-54.328949	-23.569988	68.123386	0.921882	-8.6e-05	0.125781	-0.645787	-0.035923	10.317749	-0.920454	-7.222936	0.682724	0.252164	0.03002	-0.240156	9.473115	0.441713	-1.457187	-12.080174	16.278527	-0.360908	-0.77783	0.487768	-0.078201
13.748192	-4.147127	5.152586	-1.934481	-108.409612	52.540435	0.966139	-0.032667	0.130984	-1.333779	1.055288	9.948779	0.819069	-11.156177	1.325232	0.264172	0.03002	-0.240156	9.54222	0.560284	-0.827521	-12.449183	16.573958	2.138214	-0.792499	0.498583	-0.111518
6.457304	-1.920353	10.791928	7.803801	-132.126581	45.557548	0.919446	-0.017345	0.108725	-1.402358	1.45752	9.35698	1.281231	-11.025361	2.583861	0.264172	0.024016	-0.24616	10.271675	0.324591	-1.384853	-11.732596	12.163748	-1.517595	-0.759135	0.482211	-0.09153
6.413869	-1.925663	8.594967	27.783716	-129.724039	35.584152	0.912136	-0.069123	0.057559	4.906783	-3.547768	10.607433	-2.986493	-8.081811	-0.811557	0.270176	0.024016	-0.24616	10.844714	0.208449	-1.20284	-11.229531	6.964302	-5.859775	-0.746645	0.507911	-0.106265
7.933418	-3.853529	4.112807	33.819699	-132.296639	24.821332	0.926538	-0.02645	-0.016292	1.620164	-2.501003	7.180657	-2.341912	-5.862645	1.377908	0.264172	0.018012	-0.258168	10.165797	-0.310465	-1.047444	-8.207111	2.687178	-8.313541	-0.776077	0.46501	-0.051864
7.622584	-3.972271	2.892703	25.080015	-146.607262	18.848246	0.927183	-0.047088	0.021132	-0.531938	0.421873	10.43711	0.43151	-7.97629	2.068632	0.282184	0.024016	-0.240156	10.165797	-0.310465	-1.047444	-5.036234	0.650721	-10.910258	-0.798278	0.516083	-0.09121
7.485923	-3.800687	1.792355	9.670957	-168.928091	15.180141	0.859924	-0.067681	-0.036235	0.756825	-1.299298	9.580146	-11.964812	-10.631669	5.130194	0.252164	0.03002	-0.252164	9.249734	0.501116	-1.23306	-0.304079	1.995771	-8.805566	-0.748871	0.51216	-0.093799
7.778913	-4.148522	2.086306	-9.975428	-194.388729	13.134082	0.934276	-0.056194	-0.103885	0.160636	-0.383383	11.100573	-13.960565	-20.939948	3.490912	0.264172	0.006004	-0.258168	8.675796	0.501202	-1.472691	0.31164	2.094525	-4.614294	-0.759988	0.509722	-0.134958
6.942372	-4.434967	3.282572	-29.349178	-217.946776	13.390675	0.883736	-0.076516	-0.142095	0.363838	0.357557	13.049519	-18.917307	-22.303765	5.005154	0.240156	0.03002	-0.24616	8.110436	-0.423477	-1.373975	-1.594607	2.208887	-3.587289	-0.723971	0.475346	-0.105722
6.719288	-4.027607	3.625867	-45.441818	-237.418518	14.654009	0.817242	-0.058085	-0.237992	0.288475	-1.697357	8.628161	12.65558	-37.647133	5.222018	0.270176	0.018012	-0.264172	8.391989	0.0386	-1.480426	-3.198289	4.168482	-4.834189	-0.780483	0.505773	-0.087449
5.585939	-3.560336	4.355718	-60.186413	-254.198995	16.882174	0.811342	-0.091478	-0.290263	0.206395	-0.783484	10.453369	-13.697359	-35.135314	5.290331	0.264172	0.024016	-0.252164	8.115953	-0.364266	-1.088252	-5.107769	5.581924	-4.63255	-0.729749	0.492847	-0.085414
5.422165	-3.965489	4.756014	-75.961301	-269.806496	20.955655	0.766702	-0.078408	-0.276202	-0.720396	-0.89321	9.197182	-4.20498	-36.018086	4.394219	0.252164	0.018012	-0.240156	8.114599	-0.248736	-1.144818	-7.197479	5.40185	-2.498631	-0.781382	0.50102	-0.070359
3.847245	-3.901976	6.342964	-91.013909	-282.173362	27.55966	0.748311	-0.056914	-0.350944	-0.092204	-0.151095	9.679817	-15.724997	-34.429908	4.17318	0.252164	0.012008	-0.258168	7.497575	-0.419071	-0.701258	-7.043562	5.339726	-2.312852	-0.760034	0.477458	-0.074441
2.883132	-3.957675	6.901541	-106.250923	-291.03644	37.2158	0.716283	-0.039069	-0.390365	0.752436	-0.554293	9.460826	-6.278129	-36.173416	2.543635	0.252164	0.024016	-0.27618	7.56611	-0.011019	-0.070278	-8.026177	4.459303	-5.753872	-0.729323	0.479092	-0.0637
1.699419	-3.663638	7.976718	-120.799712	-297.718293	48.107091	0.681173	-0.017844	-0.484266	0.538076	-0.841088	10.046989	-4.801083	-35.705113	0.758481	0.252164	0.006004	-0.270176	7.229399	0.338357	0.210002	-6.054778	2.700554	-7.415288	-0.747499	0.535422	-0.149692
0.806941	-3.079107	9.289567	-134.902606	-300.885207	59.927486	0.603095	-0.005315	-0.508521	0.763749	-1.070838	9.992741	9.067581	-35.64638	-0.854422	0.24616	0.024016	-0.258168	7.682932	-0.358099	0.044581	-3.406556	1.518409	-1.929412	-0.795198	0.484323	-0.060249
-0.31205	-2.087636	10.772267	-145.623124	-299.188949	69.544732	0.553965	-0.007252	-0.547835	0.136197	-1.297524	9.627193	16.643627	-32.399946	-4.753768	0.24616	0.018012	-0.270176	7.683489	-0.068354	0.102988	-5.862048	-0.094569	-0.590047	-0.780483	0.505773	-0.087449
