1757_acc_x	1757_acc_y	1757_acc_z	1757_gyro_x	1757_gyro_y	1757_gyro_z	1757_mag_x	1757_mag_y	1757_mag_z	1758_acc_x	1758_acc_y	1758_acc_z	1758_gyro_x	1758_gyro_y	1758_gyro_z	1758_mag_x	1758_mag_y	1758_mag_z	1759_acc_x	1759_acc_y	1759_acc_z	1759_gyro_x	1759_gyro_y	1759_gyro_z	1759_mag_x	1759_mag_y	1759_mag_z
2.62632	1.009624	9.447161	-2.45853	0.447744	0.167693	-0.311024	-0.136838	-0.780871	0.516899	-1.476108	9.347663	19.209649	-28.184965	-13.695365	0.124337	0.281333	-0.959922	9.669219	1.398364	0.068602	4.05552	1.202433	-2.485806	-0.529087	-0.199125	0.121284
2.5161	1.240438	9.673311	-2.184233	0.265684	0.071941	0.021924	0.251031	-1.032898	1.29996	-1.926825	10.948908	18.879414	-27.709901	-16.650315	0.200376	-0.206327	-0.95816	9.904838	0.642341	-0.050025	4.149466	1.044773	-1.996397	-0.47829	-0.402695	-0.285967
2.453444	1.009507	9.386967	-1.968974	0.2646	0.255311	-0.00706	0.244723	-1.004048	0.182818	-1.700356	9.849976	20.831424	-27.511723	-19.729471	0.200451	-0.191006	-0.959164	9.790282	1.514988	0.251018	4.394626	0.769093	-1.873719	-0.477593	-0.354944	-0.272951
2.457898	1.010472	9.614379	-0.98921	0.115519	0.250068	-0.007431	0.241195	-0.989972	1.455432	-1.139138	10.216884	21.223079	-26.137817	-22.736522	0.187551	-0.175761	-0.959892	9.90926	1.108186	0.251488	4.516137	0.773004	-2.210364	-0.547416	-0.352659	-0.335413
2.569066	1.009665	9.446047	-0.560245	0.023936	0.370016	-0.00706	0.244723	-1.004048	0.884398	-1.025209	10.431448	24.703517	-24.640562	-24.537608	0.187695	-0.20533	-0.972234	9.553097	1.050425	0.124824	4.515323	0.712455	-2.271197	-0.492403	-0.437763	-0.23778
2.573313	1.297838	9.674666	-0.011615	-0.371612	0.239337	0.007461	0.213278	-0.98349	-0.142802	-1.924273	10.748766	31.309618	-22.529469	-25.035356	0.161743	-0.20548	-0.971683	9.846922	0.642724	0.008782	4.424316	1.050815	-2.486418	-0.50611	-0.384432	-0.333528
2.921666	0.78158	9.906588	1.303496	-0.451397	-0.317768	0.021196	0.226675	-0.987255	0.713449	-1.306491	10.484224	33.800235	-21.051031	-25.881797	0.187626	-0.16044	-0.960895	10.25992	1.16471	0.078617	4.271567	1.358049	-2.670705	-0.533851	-0.404338	-0.27072
2.569108	0.952224	9.445806	1.426054	-0.513331	-0.227124	0.023096	0.192418	-1.005159	0.755276	-1.926898	9.691957	35.144624	-20.005199	-28.459736	0.174644	-0.220725	-0.970955	9.791228	1.108456	0.249287	4.087155	1.666748	-3.007694	-0.519947	-0.385462	-0.318071
2.682461	1.009341	9.391421	1.457488	-0.39026	-0.225214	0.00819	0.237634	-1.029133	-1.613044	-2.091803	9.245772	39.652607	-12.689095	-27.11949	0.147882	-0.208771	-0.928358	9.78613	0.932992	-0.050989	3.559806	1.795103	-3.770448	-0.548109	-0.419082	-0.301009
2.50975	0.779458	9.330262	1.180982	-0.420889	-0.347588	0.007447	0.230578	-1.000981	-3.250477	-1.97712	8.022585	45.186323	-6.48905	-17.250494	0.186734	-0.223866	-0.928181	10.259225	0.990235	0.017968	3.282848	1.948315	-3.892424	-0.519947	-0.385462	-0.318071
2.683575	1.009582	9.448274	1.029665	-0.082859	-0.402995	0.036074	0.216057	-0.998264	-1.677193	-1.81028	8.961602	33.594078	-3.599895	-3.235427	0.174569	-0.236046	-0.969951	9.900166	0.757504	-0.289158	2.99983	1.802564	-4.685311	-0.547688	-0.405368	-0.255263
2.342483	0.723106	9.554093	1.030888	0.070105	-0.339176	-0.020794	0.231327	-1.000283	-4.249925	-3.722482	6.867772	24.698733	-8.969916	17.698254	0.174939	-0.219653	-0.985305	9.842946	0.932362	-0.169703	2.720778	2.052904	-5.32729	-0.492269	-0.402073	-0.301565
2.341079	1.124955	9.498929	0.480185	0.064748	-0.092334	-0.020823	0.265925	-1.035267	-4.817033	-4.397086	7.194951	-5.473897	-13.820489	39.792417	0.18703	-0.222794	-0.942531	10.265963	0.933642	0.377163	2.565014	2.148533	-5.755043	-0.506039	-0.385258	-0.318
2.622115	0.664009	9.2183	0.113086	0.092372	0.031843	0.022339	0.202661	-0.994499	-4.965904	-4.454529	5.606577	-11.219165	-17.357662	53.780716	0.161298	-0.237193	-0.955326	9.788487	1.340265	0.130462	2.349122	2.396258	-6.122181	-0.520573	-0.43404	-0.315559
2.677184	0.606044	9.105466	0.296931	0.124658	-0.029497	-0.007045	0.227424	-0.986556	-3.716107	-6.257899	7.386274	-21.874238	-13.931458	62.531577	0.148837	-0.250444	-0.982746	10.024126	1.049098	0.073721	2.260135	2.606587	-5.786687	-0.534134	-0.401033	-0.332831
2.172946	0.723713	9.664459	0.359559	0.371494	-0.087002	0.037217	0.192044	-1.005508	-1.610617	-4.234794	6.469838	-35.33129	-8.265757	60.943	0.174644	-0.220725	-0.970955	10.257834	0.641284	-0.103329	1.830262	2.725818	-5.632892	-0.534064	-0.401859	-0.317304
2.742973	1.124906	9.563576	0.146553	0.647774	-0.143234	-0.006259	0.182582	-0.962233	-2.501789	-4.682576	7.809467	-45.048665	1.412307	48.452187	0.148617	-0.236196	-0.9694	9.9665	1.398184	0.193918	1.46263	2.875231	-5.418342	-0.533642	-0.388145	-0.271557
2.855338	1.009458	9.451615	0.146159	0.586311	-0.144232	0.021181	0.243974	-1.004746	-2.086611	-4.119503	8.441439	-46.945261	13.399638	30.780654	0.160632	-0.254657	-0.925623	10.081211	0.932316	-0.045487	1.221166	3.299137	-5.083313	-0.520364	-0.417847	-0.316396
2.561189	1.122859	9.048558	-0.006741	0.77242	-0.355443	0.02231	0.23726	-1.029483	-2.362219	-3.555137	9.058904	-41.51722	25.830007	15.709687	0.161518	-0.251441	-0.968672	10.025361	0.991269	0.13338	1.035775	3.206071	-5.021075	-0.520431	-0.435692	-0.284504
2.563374	1.180784	9.162506	0.329677	0.682146	-0.388547	-0.033029	0.214744	-1.03533	-2.980154	-3.328013	9.782111	-33.278358	36.183787	4.751779	0.148768	-0.205555	-0.971407	9.896885	1.221618	-0.406994	0.602362	3.238891	-5.386401	-0.492131	-0.385054	-0.31793
2.67809	0.893493	9.163526	0.576117	0.898761	-0.416404	0.034945	0.222772	-0.973528	-2.414148	-2.709787	9.398244	-27.275683	43.598605	-1.828532	0.174129	-0.207549	-0.943259	10.081231	1.397172	0.016398	-0.106978	3.640316	-5.996977	-0.548109	-0.419082	-0.301009
2.685595	1.297272	9.563187	0.423817	1.083131	-0.474305	-0.021537	0.22427	-0.972131	-2.699342	-2.821815	9.505384	-25.821533	48.328007	-5.048078	0.214828	-0.200892	-1.030185	9.31043	1.049482	-0.239019	-0.756672	3.486928	-6.177261	-0.50659	-0.453333	-0.252541
2.511977	0.77994	9.443968	0.57661	1.147744	-0.688371	0.023453	0.213246	-1.036727	-2.071735	-3.048559	9.235294	-27.929252	50.115904	-5.987651	0.227584	-0.186569	-1.017114	9.963874	1.107062	0.012961	-1.342316	3.763915	-6.543198	-0.478294	-0.384024	-0.333388
2.562468	0.893335	9.104446	0.606165	0.900642	-0.5698	0.00779	0.268705	-1.050041	-2.530619	-3.272972	9.282073	-31.277164	49.329596	-4.734227	0.149508	-0.17277	-1.002114	10.018624	1.047862	-0.225814	-1.804204	4.009495	-6.787187	-0.54846	-0.433622	-0.331228
2.459011	1.010713	9.671233	0.638146	1.147335	-0.627218	0.02121	0.209375	-0.969763	-2.40942	-2.653267	9.62485	-33.735456	48.177922	-2.127289	0.200671	-0.205255	-0.97251	9.84225	0.757887	-0.230351	-1.960178	3.950282	-7.030829	-0.492407	-0.419091	-0.2852
2.507358	1.008742	9.217521	0.699375	1.022608	-0.445414	-0.006288	0.217181	-0.997216	-1.890685	-2.99222	9.635446	-35.696042	47.307612	0.606173	0.213502	-0.175611	-0.960443	10.07845	0.699271	-0.226197	-2.358771	4.317184	-7.153381	-0.478711	-0.416408	-0.331714
2.510698	1.009465	9.388081	1.066353	0.995332	-0.600253	0.007418	0.265176	-1.035965	-2.175986	-3.047917	9.742633	-36.782479	47.010345	1.773813	0.188141	-0.173617	-0.988591	9.669759	1.16606	0.067613	-2.206024	4.351481	-7.459709	-0.505897	-0.386911	-0.286945
2.459011	1.010713	9.671233	1.404419	1.181991	-0.659529	0.006675	0.25812	-1.007813	-1.890469	-3.104881	9.635351	-38.958694	45.883108	1.175114	0.239454	-0.175461	-0.960995	9.665512	1.571851	-0.110377	-2.517321	4.29392	-7.916722	-0.547692	-0.386697	-0.302683
3.084522	0.779526	9.455103	1.464634	1.185407	-0.935659	-0.004773	0.196696	-1.018537	-2.000634	-2.541123	9.916605	-41.284711	45.036053	-0.376588	0.2399	-0.143748	-0.977352	9.494196	0.527629	0.061592	-2.456469	4.233592	-7.977776	-0.533993	-0.402685	-0.301776
2.745076	1.297714	9.678007	1.801967	1.123779	-0.784292	-0.020423	0.234855	-1.014359	-1.821439	-2.146849	10.260401	-43.708398	43.847171	-1.407688	0.201343	-0.127581	-0.991878	9.546899	0.874714	-0.235359	-2.336863	3.868529	-8.129272	-0.520715	-0.432387	-0.346615
2.332254	1.008142	9.043622	1.80235	1.279176	-0.935108	-0.006288	0.217181	-0.997216	-1.99897	-2.146715	10.030216	-44.6834	42.514962	-1.14427	0.24049	-0.141604	-1.006051	9.903872	0.584018	-0.110179	-2.46407	3.44077	-8.218452	-0.533922	-0.403511	-0.286248
2.227808	0.952955	9.552831	1.955238	1.187001	-0.87571	-0.007074	0.262023	-1.02154	-2.803762	-1.469145	10.12714	-43.152999	41.485369	-0.105126	0.214539	-0.141754	-1.0055	9.670029	1.049908	0.067118	-2.805583	3.22668	-8.338437	-0.506039	-0.385258	-0.318
2.564819	0.721492	9.217428	1.803889	1.462523	-0.840128	0.021553	0.247502	-1.018822	-2.342137	-1.413629	10.193498	-39.396735	40.604401	1.2764	0.226849	-0.159143	-0.976072	9.555028	1.167072	0.245132	-3.173722	3.097631	-7.816953	-0.506039	-0.385258	-0.318
2.39186	0.836259	9.157717	1.619676	1.525214	-1.022587	-0.005917	0.220709	-1.011292	-2.391888	-1.075206	10.589051	-35.066088	38.749021	2.772013	0.279789	-0.124987	-1.022232	9.723273	1.164689	-0.230821	-3.237335	2.573281	-7.416927	-0.520293	-0.418673	-0.300869
2.96762	1.008893	9.340135	1.496615	1.432099	-0.993078	0.00819	0.237634	-1.029133	-2.270736	-1.694868	10.817506	-29.357121	35.932607	3.889241	0.266593	-0.110813	-1.00861	9.606901	1.397758	-0.11222	-3.584334	2.090189	-8.146828	-0.533713	-0.387319	-0.287085
2.738602	1.009058	9.335681	1.282867	1.554024	-0.990482	-0.007431	0.241195	-0.989972	-2.279606	-0.850195	10.478379	-21.112397	33.36088	5.31923	0.278758	-0.098633	-0.96684	10.204746	0.933282	0.256248	-3.495759	1.508055	-8.022128	-0.534268	-0.436722	-0.269046
2.396231	0.952107	9.385612	1.101719	1.733036	-0.588366	0.02231	0.23726	-1.029483	-2.17065	-1.414	10.140485	-14.61712	31.658909	6.294039	0.292915	-0.094271	-1.024515	9.609082	0.933397	-0.054291	-3.310855	1.19841	-7.593466	-0.479196	-0.466638	-0.298147
2.395076	1.009307	9.329001	0.763839	1.671041	-0.680405	-0.020809	0.248626	-1.017775	-1.881183	-1.639814	10.20298	-9.416187	30.101406	6.097762	0.253246	-0.127281	-0.992981	9.788736	0.759258	0.068083	-3.309982	1.010459	-7.164717	-0.506598	-0.41599	-0.347382
2.687081	0.78054	9.617868	1.254348	1.829423	-0.893919	0.037217	0.192044	-1.005508	-1.764605	-1.13296	10.319104	-8.146504	27.825238	5.02798	0.278608	-0.129274	-0.964833	10.078585	0.641195	-0.226444	-2.970252	0.700108	-6.614365	-0.534343	-0.417225	-0.331994
2.619474	1.237942	9.107007	1.377606	1.953269	-0.922929	-0.005902	0.20341	-0.993801	-1.305768	-2.147913	10.158002	-9.600516	25.088125	3.519827	0.266668	-0.095493	-1.009613	9.545374	0.583839	-0.356409	-2.385366	0.455607	-6.431949	-0.519876	-0.386288	-0.302543
2.678007	1.008376	9.164009	1.438781	1.953903	-0.953763	0.022325	0.21996	-1.011991	-1.13525	-1.64131	10.105416	-14.407219	21.023094	1.656666	0.265927	-0.128277	-0.978907	9.903217	1.339254	-0.047058	-1.864328	0.339232	-6.830577	-0.492411	-0.40042	-0.332621
2.395242	0.779541	9.328035	1.714175	1.925155	-1.016359	-0.005917	0.220709	-1.011292	-1.313105	-1.472184	9.875374	-20.817787	17.296067	1.244506	0.279054	-0.097562	-0.98119	9.491455	0.759439	-0.057233	-1.709923	0.370376	-6.831284	-0.520364	-0.417847	-0.316396
2.970836	1.181941	9.511419	1.899361	2.110055	-0.983219	-0.020409	0.217556	-0.996867	-1.07285	-1.641228	10.333184	-26.240535	13.663624	2.344664	0.317761	-0.083088	-0.968671	9.551301	0.875703	0.004269	-1.152503	0.616143	-6.742792	-0.492966	-0.449824	-0.314582
2.581273	1.06976	10.071672	1.9003	2.29514	-1.04155	0.034173	0.250314	-0.98036	-1.316493	-0.965305	9.762521	-31.243221	14.072617	5.119256	0.291659	-0.113879	-0.966112	9.435045	0.58584	0.060739	-0.905524	0.336996	-6.283935	-0.548318	-0.435274	-0.300172
2.628506	1.067548	9.561108	2.331234	2.416941	-0.764798	0.00859	0.206564	-1.008226	-1.313213	-1.415854	9.875421	-38.048543	18.533709	8.302653	0.279349	-0.09649	-0.995539	9.661901	0.75755	-0.413373	-0.654385	0.329372	-5.45965	-0.478849	-0.433427	-0.315349
2.524966	1.299809	10.128377	2.943476	2.327956	-0.798675	-0.02078	0.214027	-0.982791	-0.909562	-0.515225	9.997921	-44.685968	26.463086	11.181583	0.318201	-0.111585	-0.995363	9.556803	0.876939	0.303803	-0.343855	0.140009	-4.787515	-0.493033	-0.467669	-0.282689
2.225581	0.952472	9.439125	3.587225	2.393119	-0.860805	-0.022295	0.234513	-0.961471	-0.851242	-0.909647	9.998798	-47.674744	37.102998	14.429546	0.344159	-0.051225	-0.985579	9.612498	0.411207	0.063298	0.088666	0.015736	-4.452309	-0.506665	-0.433835	-0.315489
2.455629	1.067431	9.500915	3.739392	2.30303	-0.98538	0.007061	0.244349	-1.004397	-0.216228	0.046929	10.182821	-47.716593	46.189948	17.017049	0.292921	-0.034061	-1.014179	9.433404	0.817897	0.001821	0.489857	-0.107702	-4.208678	-0.534761	-0.44961	-0.33032
2.855338	1.009458	9.451615	4.413283	2.213288	-0.927442	0.035688	0.229829	-1.00168	-0.211501	0.103449	10.409427	-45.083181	49.253798	17.666226	0.279279	-0.0516	-0.984201	9.262688	0.935937	0.358455	0.954359	-0.171946	-3.751625	-0.478294	-0.384024	-0.333388
2.287331	0.895954	9.667409	4.659947	2.523139	-1.045788	-0.006288	0.217181	-0.997216	0.542139	0.496599	10.708673	-40.632435	46.923265	17.060872	0.318578	-0.034983	-1.000381	9.787791	1.16579	0.069813	1.566862	-0.44125	-4.119301	-0.492615	-0.435284	-0.284363
2.506161	1.123383	9.161151	4.936691	2.897378	-1.408521	0.021567	0.230203	-1.001331	0.658371	0.552761	10.767778	-34.661951	42.592156	15.943576	0.343789	-0.067617	-0.970226	9.494196	0.527629	0.061592	2.522454	-0.468402	-4.122632	-0.520644	-0.433213	-0.331087
2.966507	1.008651	9.283282	4.629979	2.896642	-1.468986	-0.019265	0.193542	-1.004112	0.951812	0.777781	11.05721	-28.623219	38.925928	16.405234	0.35721	-0.03583	-0.986859	9.259947	1.167747	0.23963	3.172745	-0.347184	-3.789385	-0.506598	-0.41599	-0.347382
2.508305	1.238749	9.27534	5.000627	3.23432	-1.280556	0.007847	0.199507	-0.980074	1.404304	0.551265	10.670214	-23.400403	36.891104	18.94802	0.370261	-0.020434	-0.988138	9.325411	0.762316	0.538534	3.979043	-0.291002	-3.028522	-0.506732	-0.45168	-0.283596
2.568859	1.296873	9.447254	4.266151	3.071318	-0.759733	0.021939	0.233731	-1.015407	2.259529	2.579742	13.180989	-11.154529	9.094958	22.380953	0.343864	-0.052297	-0.97123	9.675106	0.760517	0.30551	4.63122	-0.421749	-1.991143	-0.492619	-0.416613	-0.331784
2.400726	0.89563	9.612783	4.115218	3.220435	-0.419526	0.007447	0.230578	-1.000981	1.248298	-0.346747	14.062996	-34.821967	11.731018	28.153271	0.319093	-0.048159	-1.028077	9.559835	0.993833	0.484018	5.25109	-0.270367	-1.627361	-0.52064	-0.451885	-0.283667
2.678049	0.950934	9.163767	3.688338	3.368613	-0.10921	0.037588	0.195572	-1.019584	2.270906	-0.69196	8.026452	13.204734	5.220331	43.357333	0.332144	-0.032764	-1.029356	9.611303	1.398746	0.127408	6.057607	-0.059347	-1.0506	-0.520573	-0.43404	-0.315559
2.338893	1.067031	9.384981	3.843288	3.426967	0.22864	0.007833	0.216807	-0.997566	3.637351	-0.129426	10.093757	-5.470961	-2.739177	52.111658	0.331409	-0.005339	-0.988314	10.201714	0.816389	0.076033	6.525286	0.149823	-0.411476	-0.54846	-0.433622	-0.331228
2.632628	1.528045	9.790451	3.258662	3.117976	0.133297	-0.006688	0.248252	-1.018124	4.156785	0.041027	12.878911	-8.081327	-18.361604	53.958247	0.383087	-0.051	-0.986406	9.785975	0.526212	-0.112627	6.286874	0.257424	0.933644	-0.506039	-0.385258	-0.318
2.740995	0.779775	9.448422	2.777087	3.59105	1.583757	0.051337	0.191669	-1.005858	4.803835	0.150687	10.854487	-3.781564	-29.849918	55.851521	0.331779	0.011054	-1.003668	9.795204	0.818817	0.427771	6.633419	0.617207	1.755878	-0.492686	-0.434458	-0.299891
1.770927	0.896086	9.600535	2.976293	2.227908	-0.095031	0.05058	0.201912	-0.995197	5.085965	0.600603	10.634353	8.682571	-40.474949	58.715746	0.370557	-0.019362	-1.002488	9.259097	0.586492	0.117344	6.884506	0.516553	2.702915	-0.47857	-0.418061	-0.300658
2.335429	1.238632	9.215146	0.885976	2.17375	-1.59263	0.009004	0.158194	-0.969826	5.967794	0.487037	11.501986	16.038172	-49.943878	57.671743	0.35684	-0.052222	-0.971505	9.494621	0.818256	0.122735	7.103315	0.915309	2.669656	-0.492966	-0.449824	-0.314582
3.134427	3.248264	9.182328	-2.765466	1.861147	5.497008	0.023082	0.209718	-1.022651	6.546428	0.824084	11.684278	26.417975	-57.19573	56.405569	0.306117	-0.048234	-1.027801	9.963044	0.990662	-0.047441	7.441374	1.07389	2.239786	-0.492549	-0.417439	-0.316256
3.940241	1.984694	9.363167	-0.97987	2.315819	6.787264	0.021939	0.233731	-1.015407	7.420274	1.72423	12.269567	45.810753	-64.7667	55.729281	0.331849	-0.033836	-1.015007	9.674816	0.411813	0.244119	7.869191	0.927538	1.749922	-0.506874	-0.450028	-0.314652
3.775614	1.354409	9.698291	-3.775419	2.102626	5.473173	0.008961	0.210092	-1.022302	5.053115	0.320007	11.765699	60.947893	-71.747887	55.055437	0.318207	-0.051375	-0.985028	9.906499	0.87514	0.070778	7.899891	1.145244	1.412576	-0.506039	-0.385258	-0.318
2.844043	-0.314351	8.82068	-5.204428	1.775937	1.178552	0.008576	0.223863	-1.025718	-1.406931	-1.865476	10.835497	46.431696	-64.942991	51.041658	0.304936	-0.052522	-0.970402	9.737423	0.761124	0.486331	8.145177	1.055623	1.289862	-0.464871	-0.434049	-0.299751
2.564985	0.491726	9.216463	-3.289444	2.52459	3.699941	0.021196	0.226675	-0.987255	-2.568234	-1.694708	10.358344	51.303436	-45.280051	60.21303	0.29225	-0.111735	-0.994812	10.031289	1.283133	0.494058	7.808822	1.390575	1.320045	-0.492686	-0.434458	-0.299891
4.451605	0.617105	12.038379	-11.181385	3.913626	5.370586	-0.018894	0.19707	-1.018187	-1.830332	-1.921858	9.864114	45.395756	-35.589059	67.611819	0.267334	-0.078029	-1.039317	10.204361	1.572366	0.318875	7.532376	2.163778	0.400463	-0.507083	-0.46622	-0.313815
3.344883	0.556349	11.050479	-6.720734	26.875479	-3.89874	0.007804	0.251405	-1.032549	-2.180021	-2.203054	9.630065	51.91725	-42.038439	72.270302	0.279719	-0.080097	-1.010893	10.616508	1.513098	0.266424	7.173392	3.197147	0.916404	-0.520573	-0.43404	-0.315559
3.099738	1.299877	10.253218	-9.050801	30.971628	-2.905397	-0.005931	0.238009	-1.028784	-2.533074	-1.357687	9.340325	53.050387	-51.853535	79.265165	0.306111	-0.108444	-1.038136	10.670562	1.279422	-0.032999	6.481896	4.09244	2.840125	-0.492824	-0.451476	-0.283526
3.276162	1.01351	10.482765	-11.55155	33.990695	-4.566568	-0.00706	0.244723	-1.004048	-1.275613	-0.459054	9.027842	28.756384	-54.921707	88.557587	0.267114	-0.06378	-1.02597	10.660233	0.98657	-0.633304	6.100442	4.799316	5.344371	-0.520923	-0.44858	-0.345778
2.57352	1.01063	9.67346	-11.763109	39.400347	-4.723375	-0.020051	0.238383	-1.028435	-0.820028	-0.795753	11.471523	0.96764	-48.634242	95.627834	0.266668	-0.095493	-1.009613	10.313974	0.931035	-0.220806	6.050486	5.025218	7.146774	-0.492619	-0.416613	-0.331784
2.406294	0.896836	9.897049	-13.983102	42.218512	-4.82452	0.035688	0.229829	-1.00168	-0.547921	-0.404931	8.080732	50.51346	-15.817862	78.943105	0.253322	-0.11196	-0.993984	10.55168	0.698438	-0.157486	5.834347	4.900819	7.270409	-0.519947	-0.385462	-0.318071
2.30395	1.014456	10.520688	-13.600276	44.58652	-4.817797	0.051723	0.177898	-1.002442	-0.66799	-0.740552	10.512324	29.649751	-10.070643	50.402127	0.266367	-0.156774	-1.005599	10.664075	0.755007	-0.454573	5.888477	4.542784	6.416114	-0.506665	-0.433835	-0.315489
2.354524	1.012967	10.180683	-15.113666	47.246639	-4.248831	0.037217	0.192044	-1.005508	1.436414	-1.308888	9.310508	41.707158	-3.209331	9.106295	0.22781	-0.140607	-1.020125	10.44108	0.81659	0.260156	6.473279	4.391624	6.445282	-0.520644	-0.433213	-0.331087
2.346729	1.011278	9.782712	-15.461738	50.348583	-4.228073	0.078078	0.194106	-0.967744	-2.391307	0.274484	8.042616	10.731317	-6.214259	0.512026	0.266518	-0.126134	-1.007606	9.851884	0.876264	0.309305	7.521192	3.8063	7.208394	-0.533922	-0.403511	-0.286248
2.64987	0.784924	10.64011	-16.846943	54.495149	-4.616711	0.05018	0.232982	-1.016105	-1.427674	-1.133938	9.92988	4.858171	-3.941139	2.564563	0.253542	-0.126209	-1.00733	9.795589	0.179734	0.365145	8.970861	3.593283	7.601501	-0.478782	-0.415582	-0.347241
2.717762	1.476593	11.21265	-17.659758	61.932782	-5.045501	0.051695	0.212497	-1.037425	-2.004884	-1.583599	9.804132	8.464542	-4.539057	2.530691	0.201343	-0.127581	-0.991878	9.619931	0.529089	0.483141	10.357712	4.065321	6.799545	-0.506874	-0.450028	-0.314652
2.488578	1.706525	11.209162	-20.576723	71.394311	-5.987372	0.07995	0.194448	-1.020632	-0.919364	-1.078957	9.487691	7.420556	-4.290151	-0.05724	0.24012	-0.157996	-0.990698	9.624623	0.878782	0.784159	11.684941	5.030052	5.659251	-0.506736	-0.433009	-0.331017
2.897817	0.788859	11.611067	-23.7351	81.781903	-7.434868	0.09217	0.22833	-1.003077	-0.969568	-1.134895	9.826272	5.730041	-3.550905	0.842766	0.214168	-0.158147	-0.990146	9.917793	1.226316	0.731237	12.336288	6.391288	4.397267	-0.506453	-0.436314	-0.268906
2.445431	0.675514	11.885942	-23.993943	94.382563	-7.811972	0.106305	0.210656	-0.985934	-0.958797	-1.078138	10.336076	5.046757	-3.893429	0.314732	0.265997	-0.173167	-0.990246	10.031019	1.399285	0.494552	13.298591	7.593439	3.837895	-0.493037	-0.448998	-0.33011
2.034007	1.535256	11.370089	-23.270154	103.159948	-9.358163	0.120397	0.24488	-1.021267	-1.146322	-0.909392	9.652916	8.691507	-3.821945	1.150735	0.253171	-0.142601	-0.991977	9.910651	1.457136	0.372785	13.550083	8.609816	3.251423	-0.478778	-0.434253	-0.299821
2.44048	1.363848	11.661425	-24.301579	114.585205	-9.445446	0.120783	0.231109	-1.017851	-1.088649	-0.96583	9.654078	7.750154	-2.517693	1.502056	0.253617	-0.110888	-1.008334	9.786441	1.74655	0.072286	12.972052	9.493276	3.402119	-0.533717	-0.368648	-0.334506
1.999437	0.965707	12.503624	-24.831253	127.512463	-9.080364	0.149009	0.24766	-1.036041	-2.570628	-1.07512	10.302226	4.406962	-3.110394	1.246847	0.227219	-0.142751	-0.991426	10.079881	1.977932	0.01887	11.306955	9.611544	3.224202	-0.520297	-0.400002	-0.348289
1.818227	1.710641	12.048596	-25.062953	140.746795	-11.348737	0.161258	0.246943	-0.983502	-0.853791	-1.473094	9.828405	3.389926	-2.938732	1.155251	0.227439	-0.157	-1.004772	9.829646	1.917182	-0.764569	10.224392	9.800352	2.340879	-0.506315	-0.419295	-0.285271
2.382646	2.168071	11.66369	-27.063042	155.070847	-12.98091	0.189513	0.228894	-0.966709	-1.254439	-1.415914	9.933269	2.565072	-2.213748	1.223453	0.214388	-0.172395	-1.003492	9.82922	1.626555	-0.825712	9.480075	10.085306	1.150246	-0.520435	-0.417021	-0.331924
2.789201	1.881779	11.954543	-28.783464	169.665858	-14.088083	0.190628	0.239479	-1.008937	-0.856532	-1.304197	9.715268	0.118754	-2.732542	0.784732	0.227144	-0.158071	-0.990422	9.886461	1.916553	-0.883282	9.597641	10.314075	-0.226607	-0.548113	-0.40041	-0.34843
2.638843	1.541838	13.029964	-32.066316	184.875593	-15.947525	0.247496	0.22421	-1.006918	-0.843581	-1.754367	10.281285	0.024747	-2.826519	0.907034	0.213728	-0.129649	-0.963454	9.6025	1.396769	-0.351847	9.964383	10.476875	-1.053905	-0.492411	-0.40042	-0.332621
2.413166	1.542727	13.196069	-34.934066	202.477595	-17.431868	0.218855	0.256029	-1.027127	-1.082713	-0.909263	9.937323	-1.075792	-1.978175	0.32885	0.215349	-0.153859	-1.047545	9.604046	2.152499	-0.168912	10.483986	10.580622	-2.034282	-0.520085	-0.402481	-0.301706
2.437621	1.605477	14.447078	-38.524478	217.029715	-18.473	0.260116	0.227021	-0.968455	-0.736566	-1.304223	9.944245	-1.660951	-1.8329	0.422308	0.22759	-0.126359	-1.006779	9.30829	2.443554	-0.173179	11.316306	10.770317	-2.343825	-0.464666	-0.399186	-0.348008
1.657624	2.587388	15.572654	-47.222676	235.718148	-15.444881	0.344811	0.259373	-1.005534	-1.197975	-1.4724	9.877791	-2.462568	-1.720028	0.361129	0.239975	-0.128427	-0.978355	9.550397	2.211946	0.129769	11.595585	11.699464	-3.357822	-0.520853	-0.449406	-0.33025
2.265485	2.122575	14.44591	-43.519662	249.804615	-24.059764	0.345597	0.214531	-0.98121	-0.853013	-1.247725	9.885235	-3.107456	-1.450259	0.055012	0.24049	-0.141604	-1.006051	9.194794	2.386737	0.064001	11.503598	12.319161	-4.155057	-0.478641	-0.417235	-0.316186
1.199304	1.438648	15.502066	-44.942223	256.030228	-29.383464	0.371151	0.29288	-0.988328	-0.857633	-1.360575	9.658581	-2.856596	-1.141478	0.212424	0.227144	-0.158071	-0.990422	9.374469	2.677454	0.248259	11.591703	12.700465	-5.50191	-0.535044	-0.446305	-0.392431
2.122341	2.588504	15.92268	-35.991527	262.770536	-32.550953	0.386429	0.251192	-0.97843	-1.316278	-1.077966	9.762426	-3.022767	-2.149353	-0.722574	0.227219	-0.142751	-0.991426	8.904405	2.737104	0.359517	12.446933	12.781147	-7.094582	-0.464528	-0.382167	-0.364373
1.061639	3.571829	17.326953	-11.110383	264.813876	-45.534223	0.398664	0.267775	-0.943383	-0.85731	-1.529567	9.658439	-1.185294	-0.81829	0.92603	0.214539	-0.141754	-1.0055	9.374449	2.212598	0.186374	13.73925	13.163625	-8.140161	-0.478991	-0.431775	-0.346404
2.458192	3.965405	15.594034	16.01505	264.074573	-66.730996	0.483016	0.261999	-0.931402	-0.909932	-1.5856	9.883741	0.364211	-0.430108	0.838652	0.213798	-0.174539	-0.974793	8.965893	2.621312	0.479936	14.934799	13.026025	-9.21346	-0.520435	-0.417021	-0.331924
1.026842	0.864115	15.43946	18.053267	263.121989	-76.662369	0.496765	0.258096	-0.917675	-0.970454	-1.303934	9.76949	1.291579	-0.358227	1.025082	0.226849	-0.159143	-0.976072	9.132186	2.037427	-0.17821	15.59749	12.406213	-11.168767	-0.492757	-0.433631	-0.315419
1.490218	-1.273175	12.711604	14.117864	264.740481	-74.78378	0.439139	0.283608	-0.909034	-0.860159	-1.30434	9.545349	1.632777	-0.232261	1.18075	0.214834	-0.140682	-1.019849	9.729126	2.909195	0.315758	16.265731	12.148459	-12.636835	-0.506665	-0.433835	-0.315489
0.351525	-2.41997	12.968774	-17.318696	256.09495	-59.00297	0.537997	0.263687	-0.893987	-1.085585	-1.303719	9.767072	1.816854	-0.351161	0.963918	0.214608	-0.186644	-1.016838	9.199176	1.92287	0.241744	17.159257	12.277195	-12.946282	-0.506945	-0.449202	-0.33018
1.695609	-2.48492	11.460223	-41.116601	260.569286	-38.185442	0.551746	0.259784	-0.88026	-0.510146	-1.192136	9.779256	2.183291	-0.712425	0.652339	0.227955	-0.170176	-1.032468	9.54669	2.385432	-0.04921	17.962904	12.524812	-12.950374	-0.493178	-0.447345	-0.361165
2.777461	-1.912499	11.199527	-62.266323	258.030052	-17.86031	0.607114	0.247701	-0.839429	-0.980233	-1.247983	9.316421	1.16071	-0.999131	0.309556	0.23931	-0.145892	-0.948652	9.665013	2.733866	0.014381	18.517835	12.62016	-13.105637	-0.50646	-0.398972	-0.363747
8.914681	-1.996894	6.033318	-57.323675	270.811476	-5.766573	0.592236	0.258318	-0.82842	-0.798081	-1.135266	9.773259	0.416131	-1.311164	-0.310707	0.240566	-0.126284	-1.007055	9.722888	1.803772	-0.168195	19.071563	12.904102	-13.750748	-0.506527	-0.416817	-0.331854
13.878014	-3.757547	-15.302627	161.916909	196.543883	-50.149838	0.690323	0.265939	-0.820204	-1.025147	-0.909371	9.938532	-0.390198	-1.595128	-0.653288	0.2399	-0.143748	-0.977352	9.488619	1.979035	-0.052041	19.442795	13.058392	-13.752829	-0.465642	-0.462303	-0.375716
10.874388	5.595658	-4.637509	11.407274	-140.430767	19.703917	0.660953	0.273403	-0.794769	-0.851265	-1.52933	9.941637	-0.794475	-1.84313	-1.026016	0.202298	-0.169254	-1.046266	9.605821	1.862366	-0.110242	20.098043	13.077126	-12.380105	-0.479271	-0.447141	-0.361095
10.307681	-3.487509	6.963417	19.655865	-190.613247	8.408327	0.620506	0.22297	-0.794134	-0.800499	-1.135361	9.65998	-0.735845	-2.116523	-1.30614	0.227295	-0.127431	-0.992429	9.546265	2.094805	-0.110353	20.462701	12.653955	-12.746124	-0.493037	-0.448998	-0.33011
4.475756	-2.894591	10.205473	45.724748	-137.779138	30.411024	0.576972	0.282707	-0.820826	-1.07546	-0.908978	10.277161	-0.736002	-2.14598	-1.491401	0.24049	-0.141604	-1.006051	10.078241	2.209989	-0.040048	20.51065	11.469298	-13.535196	-0.506669	-0.415164	-0.36291
2.754409	-2.377097	10.003681	80.101883	-104.663747	55.623151	0.56551	0.238582	-0.849041	-0.974404	-1.135085	9.599714	-0.551887	-2.293332	-2.047622	0.227659	-0.171248	-1.018118	9.963915	2.036773	0.13673	20.376341	10.18559	-13.681382	-0.479621	-0.461681	-0.391314
5.949409	-1.589995	6.60249	80.226717	-113.464409	77.858513	0.635727	0.25048	-0.854203	-1.074035	-1.021592	10.333705	0.650804	-2.403927	-1.554506	0.240786	-0.140532	-1.020401	9.661536	1.861489	-0.288862	19.977313	9.435457	-12.270611	-0.520923	-0.44858	-0.345778
8.127232	-0.856692	3.863252	73.144211	-137.734278	91.768848	0.594494	0.244889	-0.877892	-0.457416	-1.192433	9.553907	0.621469	-2.281658	-1.553314	0.214759	-0.156003	-1.018846	9.771595	1.97564	-0.705515	19.417913	8.603403	-11.867336	-0.479897	-0.495718	-0.358584
7.174908	-0.002126	2.029757	75.386089	-176.962459	93.945489	0.566296	0.193741	-0.824718	-1.2618	-1.359868	9.593479	1.601503	-2.915101	-1.250544	0.215059	-0.094721	-1.02286	9.717116	1.918688	-0.467235	19.320909	7.649076	-11.312351	-0.479479	-0.463333	-0.360258
6.390007	0.059514	2.867205	70.517522	-229.456537	93.260786	0.552918	0.201172	-0.852521	-0.959012	-0.965477	10.336171	2.386246	-1.953065	-1.48697	0.201192	-0.158222	-0.989871	9.418329	2.09285	-0.651716	19.261288	7.738105	-11.068078	-0.479479	-0.463333	-0.360258
5.967852	-0.277083	4.676149	63.219679	-267.544159	98.211462	0.5132	0.175096	-0.897529	-0.288347	-1.192899	9.387615	2.841509	-2.533651	-0.906645	0.214093	-0.173467	-0.989143	9.363194	2.791133	-0.350315	19.047369	7.640513	-10.577874	-0.479274	-0.42847	-0.408516
4.450767	-0.039926	6.12523	53.597193	-281.12925	103.750173	0.497936	0.199484	-0.889936	-1.028797	-1.529196	9.711452	3.64311	-2.617872	-0.536901	0.24034	-0.172245	-1.004044	9.595667	2.441148	-0.587025	18.312234	7.876904	-10.026254	-0.479479	-0.463333	-0.360258
3.62564	1.117006	7.8758	40.231071	-281.196798	109.641364	0.444126	0.139184	-0.899612	-0.890544	-0.345475	10.904297	0.884508	-1.394132	-5.490245	0.213798	-0.174539	-0.974793	9.836248	1.918666	-0.405127	17.977888	8.425375	-9.935979	-0.493458	-0.462711	-0.375856
3.253519	1.525659	9.347875	29.804098	-275.788784	114.172317	0.445255	0.132469	-0.924348	0.229218	-3.447279	9.170039	8.493153	-2.299666	2.429668	0.253767	-0.080247	-1.010341	9.475839	2.266696	-0.709781	17.237798	8.609097	-10.20922	-0.494151	-0.529134	-0.341452
3.433693	2.216763	9.808936	23.648764	-267.483831	117.32813	0.429606	0.170629	-0.92017	-0.965942	-1.134753	9.996191	2.983007	-1.293396	-2.743877	0.227955	-0.170176	-1.032468	9.189812	1.688341	-0.298407	16.896199	8.643512	-10.697112	-0.479897	-0.495718	-0.358584
3.252607	2.789373	9.353184	19.068508	-259.306867	116.125523	0.376496	0.169283	-1.010473	-0.556785	0.047765	10.402126	8.388574	-1.400742	-3.973711	0.24071	-0.155853	-1.019397	9.663892	2.268763	-0.107411	16.184217	8.459937	-10.93814	-0.451943	-0.478291	-0.374808
3.085049	3.135112	9.578703	10.41833	-252.581841	111.04952	0.318899	0.160196	-0.966849	-0.90937	-1.247569	9.940665	5.053861	-1.090188	-1.661212	0.227144	-0.158071	-0.990422	9.604856	1.804043	-0.170396	16.430443	7.933843	-10.264195	-0.493875	-0.495096	-0.374182
3.554795	3.884174	10.216132	0.896247	-246.950346	104.364402	0.305536	0.150328	-0.97716	-1.335235	-2.543413	8.74168	6.40001	-1.828631	1.353681	0.200822	-0.174614	-0.974517	9.312941	1.863535	0.00407	16.797114	7.382647	-10.07953	-0.479617	-0.480352	-0.343893
2.988848	4.000919	10.546598	-7.899387	-241.321941	95.531365	0.250182	0.145112	-1.000499	-5.21792	0.450904	10.417816	4.486438	-1.900778	-0.71406	0.24049	-0.141604	-1.006051	9.021587	2.15558	0.239431	16.760731	7.02049	-10.566636	-0.479617	-0.480352	-0.343893
3.467418	4.866794	11.639335	-16.476784	-234.451443	85.767176	0.206278	0.20132	-1.013115	-0.451719	-1.642887	9.780086	4.685565	-0.709932	0.438581	0.22803	-0.154856	-1.033471	9.361648	2.035403	-0.53325	17.249193	6.721086	-11.025379	-0.451663	-0.462925	-0.360118
2.9565	4.983015	11.857208	-20.825628	-225.177352	71.952236	0.1937	0.14661	-0.999102	1.213035	-2.378547	9.53133	10.406584	-0.063237	1.744397	0.23975	-0.174389	-0.975344	9.425627	2.268809	-0.231626	16.717125	6.36157	-11.938539	-0.522038	-0.528716	-0.35712
2.974232	5.101758	12.76734	-21.942805	-212.606278	56.248961	0.16696	0.144173	-1.037216	-0.915044	-0.177432	9.771647	6.808335	0.891702	-1.239329	0.226999	-0.128503	-0.97808	9.719722	1.744955	-0.348163	16.584165	5.69633	-12.72944	-0.465501	-0.463956	-0.34466
2.802837	6.136072	12.825197	-18.150527	-197.5218	37.872753	0.123126	0.113884	-0.962373	-0.212995	-1.642987	10.181399	7.5282	1.722424	-0.27482	0.240415	-0.156925	-1.005047	9.717386	1.802536	-0.467729	16.182687	5.168231	-12.083709	-0.507086	-0.447549	-0.361235
2.185002	4.990109	13.376653	-12.732247	-181.777495	18.856617	0.107848	0.155572	-0.972271	0.570623	-1.363697	9.179048	7.747183	1.968472	0.036084	0.227515	-0.141679	-1.005775	9.53497	1.743629	-0.770812	15.781661	4.48403	-11.131631	-0.45201	-0.496136	-0.342916
1.9116	4.131347	13.99285	-13.950752	-175.884813	11.381523	0.095628	0.12169	-0.989826	-1.20445	-1.247315	9.594783	8.027247	2.097073	-0.332349	0.252506	-0.160065	-0.962274	9.364639	1.222586	-0.476804	14.92084	3.82403	-9.719589	-0.480105	-0.511911	-0.357747
1.29842	4.250305	14.83388	-3.487216	-174.05403	11.534468	0.053652	0.109043	-0.985363	-0.391066	-1.3612	9.951451	7.410742	2.096279	-1.411835	0.187771	-0.190009	-0.973238	9.002029	1.570122	-0.901272	14.213245	2.9801	-8.215526	-0.479826	-0.496545	-0.343056
0.280166	5.689984	15.502107	14.312971	-171.224077	13.369129	0.065901	0.108326	-0.932824	-1.84638	0.389603	12.017154	5.123903	1.433309	-7.647486	0.240415	-0.156925	-1.005047	9.408384	1.160914	-1.314648	13.410707	2.295727	-7.384208	-0.466268	-0.51088	-0.373204
-0.599201	5.75605	17.360685	39.431285	-168.663632	14.841003	0.010162	0.116881	-0.959579	-0.390203	-1.811845	9.951071	6.462675	-18.897471	-0.20325	0.254057	-0.139385	-1.035026	9.35298	1.975349	-1.012752	11.81425	1.655783	-5.205518	-0.480105	-0.511911	-0.357747
-1.69759	4.950244	16.767619	71.285754	-164.944456	14.533701	-0.002444	0.09677	-0.98055	-1.123139	-1.021152	10.728974	1.457811	-14.344855	-2.720736	0.240045	-0.173317	-0.989694	9.11647	1.220407	-1.140182	9.876215	1.050255	-3.51471	-0.479826	-0.496545	-0.343056
0.098786	-12.928825	40.539144	-372.047105	-55.23275	212.871629	-0.017694	0.103859	-0.955465	-0.84345	-1.191015	10.338399	4.247866	-20.812263	-2.443687	0.227659	-0.171248	-1.018118	8.703492	1.163276	-1.148132	7.727663	0.775395	-1.335695	-0.451801	-0.479944	-0.343753
0.404264	-7.324395	21.303198	239.964398	-3.716323	27.429947	-0.018079	0.11763	-0.958881	-0.669091	-0.796929	10.455637	2.01665	-21.477689	-3.500247	0.240635	-0.171173	-1.018394	9.114789	0.522753	-1.322869	5.894309	0.302345	2.371325	-0.493805	-0.495922	-0.358654
-20.799985	-5.594684	5.326508	78.449559	-14.248486	-26.005842	-0.031028	0.059392	-0.930792	-0.953638	-1.24694	10.562492	1.75868	-24.819348	-4.150235	0.227069	-0.173392	-0.989418	9.006546	1.048179	-0.723776	4.363122	-0.654611	5.651771	-0.438661	-0.526665	-0.372227
-32.807265	-13.720343	-3.181707	-115.456708	-42.926192	-13.399767	-0.044034	0.070352	-0.972671	-0.602848	-0.909366	10.853228	0.710211	-27.188417	-5.006982	0.226478	-0.175536	-0.960719	9.291722	1.045279	-1.257436	3.278995	-2.139382	6.88536	-0.494155	-0.510462	-0.388873
-9.559399	-8.009775	47.305326	-351.484081	-9.33137	74.721321	-0.016936	0.093616	-0.966125	-1.175222	-1.358838	10.954039	-0.556996	-32.196739	-6.013453	0.201632	-0.186719	-1.016563	9.357611	0.930475	-0.897389	1.262938	-4.079994	7.513217	-0.480038	-0.494066	-0.389639
-29.879614	22.412698	25.044935	131.277716	91.211924	-87.333862	-0.059684	0.108511	-0.968493	-0.529159	-1.753863	11.533401	0.806732	-39.168393	-6.544079	0.228105	-0.139535	-1.034475	9.360507	1.105445	-0.716926	-1.072714	-5.313844	10.675771	-0.465989	-0.495514	-0.358514
-33.897003	-6.533872	11.603296	-18.790521	59.728732	-46.854299	-0.029542	0.073506	-0.987096	0.103976	-1.079035	11.603907	1.131395	-45.407241	-8.640461	0.200602	-0.160365	-0.961171	9.170139	1.625815	-1.376979	-3.171104	-6.994588	12.769864	-0.438177	-0.476435	-0.405794
-32.707492	7.804995	20.325094	-16.261766	106.761169	-63.920677	-0.002073	0.100298	-0.994626	-0.585624	-1.697377	11.588879	4.215784	-50.727709	-9.831487	0.214463	-0.157075	-1.004496	10.246425	0.81304	-0.701656	-3.662005	-7.777141	14.334253	-0.46613	-0.493862	-0.389569
6.333633	-6.78453	14.317005	51.424273	37.310891	-16.839183	-0.003216	0.124312	-0.987382	-0.469476	-0.965201	11.705192	5.912548	-55.851869	-10.92919	0.175611	-0.141979	-1.004672	10.360636	1.509188	-0.816302	-4.215393	-7.533802	14.273963	-0.465571	-0.463129	-0.360188
3.382265	2.492873	7.1949	-44.435483	1.871988	17.300788	0.025411	0.109792	-0.984664	-0.610873	-1.526997	13.117081	8.609283	-62.497061	-12.041203	0.202223	-0.184575	-1.045262	11.362445	2.610584	-0.73299	-6.385146	-9.327153	3.562047	-0.466264	-0.529552	-0.325784
4.295607	1.010352	9.934277	25.11381	14.916949	-9.582533	-0.00283	0.110541	-0.983966	-1.002197	-1.92013	13.618043	13.776489	-76.386972	-12.267583	0.175686	-0.126659	-1.005676	11.490942	2.84509	-0.130732	-4.985287	-13.267641	-5.317951	-0.493805	-0.495922	-0.358654
1.826571	1.585102	9.547691	26.081332	18.720271	-11.21034	-0.017336	0.124687	-0.987032	-1.044956	-2.708128	14.239206	21.173258	-92.387465	-13.99284	0.175906	-0.140907	-1.019022	11.725501	3.018531	-0.185495	-3.488075	-16.434075	-3.230056	-0.479826	-0.496545	-0.343056
2.425979	0.486502	7.963468	-3.640227	7.606951	-0.111235	0.03916	0.105889	-0.970937	-0.825767	-1.976641	13.791542	31.341302	-106.86339	-18.505958	0.16256	-0.157375	-1.003393	12.26516	2.67059	0.242274	-4.156263	-18.687663	7.449744	-0.535879	-0.511075	-0.389083
2.752871	1.299402	10.075978	-2.539343	7.494045	-0.545591	0.010905	0.123938	-0.987731	-0.880807	-2.032769	13.903564	39.46833	-118.837353	-20.313877	0.109695	-0.176211	-0.958237	11.796872	2.440108	0.412202	-3.475643	-19.369233	14.450044	-0.465501	-0.463956	-0.34466
1.829378	0.781403	9.658019	1.165958	7.958627	-2.051446	0.039917	0.095646	-0.981598	-0.557538	-3.496621	15.437645	52.68553	-131.151644	-21.31957	0.123111	-0.204633	-0.985205	11.02445	2.789331	0.159752	-1.841436	-20.01543	15.394772	-0.52218	-0.527063	-0.388176
2.800311	1.009982	9.564207	-5.585363	5.197783	0.13122	0.024668	0.102735	-0.956512	0.228479	-4.228896	17.151933	68.691581	-150.310864	-26.244331	0.084038	-0.175289	-0.972036	10.444348	3.199685	0.749547	-0.780895	-19.789897	11.691345	-0.507433	-0.48076	-0.344033
2.455712	0.952548	9.500432	-4.790534	4.518809	0.700587	0.011648	0.130994	-1.015883	-0.180931	-3.383374	16.917623	83.15388	-174.678705	-35.938382	0.070987	-0.190685	-0.970756	9.854456	3.084883	0.738048	-1.5033	-19.829349	9.340611	-0.452498	-0.527695	-0.356769
2.456784	1.010231	9.557526	-4.60759	4.428517	0.606589	0.011676	0.096396	-0.980899	0.079416	-3.553995	15.620815	86.930768	-199.152762	-46.011766	0.071207	-0.204933	-0.984102	9.849359	2.909419	0.437772	-2.188709	-20.346073	8.795388	-0.507433	-0.48076	-0.344033
2.517255	1.183237	9.729923	-2.894447	4.320558	-0.013454	0.025397	0.127091	-1.002156	-0.030364	-4.454925	15.787557	87.230856	-212.871171	-55.518542	0.031834	-0.236871	-0.966918	9.609183	3.257674	0.255133	-2.423414	-21.459606	6.967665	-0.479546	-0.481178	-0.328365
2.621701	1.238425	9.220714	-4.430195	3.509172	0.437798	0.025768	0.13062	-1.016232	1.201285	-3.723944	16.946352	87.098694	-216.748704	-63.78727	0.018782	-0.252267	-0.965639	9.43173	3.432307	0.252574	-2.253361	-22.734387	6.086764	-0.479062	-0.430948	-0.361932
2.740954	0.837216	9.448664	-6.823425	2.785624	0.923612	0.010162	0.116881	-0.959579	0.450456	-2.426941	16.931727	82.498951	-222.079109	-69.854574	-0.045582	-0.265818	-0.991956	8.964812	3.08592	0.481914	-1.935382	-23.903611	3.921143	-0.479964	-0.513563	-0.326691
2.517545	0.781147	9.728234	-4.224226	2.189066	0.385083	0.010905	0.123938	-0.987731	-0.014579	-2.59526	16.695355	78.498045	-233.469935	-72.99161	-0.073085	-0.286648	-0.918652	8.84597	3.434646	0.481197	-1.432917	-25.009101	1.571206	-0.493525	-0.480556	-0.343963
2.574758	0.838547	9.729589	-2.356045	2.076607	0.224538	0.010905	0.123938	-0.987731	-0.047996	-2.821909	15.109257	85.778896	-234.335568	-76.723986	-0.111568	-0.255161	-0.934182	8.904696	3.085808	0.420907	-0.910641	-25.096765	1.355791	-0.46578	-0.479322	-0.359351
2.738437	1.238824	9.336647	-0.429087	1.783868	-0.276453	0.02504	0.106264	-0.970588	0.168275	-3.724245	14.377019	100.205379	-233.871862	-77.324239	-0.112528	-0.273697	-0.890129	8.789134	2.97042	0.538025	-0.64516	-23.734683	2.81537	-0.451522	-0.464578	-0.329062
2.692317	1.241278	9.904064	1.040587	1.700975	-0.496707	-0.002844	0.127841	-1.001458	0.258536	-4.626793	13.132607	105.2576	-235.24842	-82.38884	-0.151312	-0.303491	-0.901644	8.856799	2.565484	0.956743	-0.036906	-21.167505	3.198241	-0.479338	-0.464986	-0.329202
2.798167	0.894616	9.450019	2.415926	1.436739	-1.026317	0.025783	0.11332	-0.99874	0.715887	-4.233436	13.029331	97.805465	-232.11881	-91.857166	-0.178155	-0.367066	-0.868379	8.732029	2.622346	0.595348	1.073976	-16.908709	2.83769	-0.45173	-0.48077	-0.328225
2.446763	1.008059	9.045849	2.660167	1.252798	-0.968674	0.025768	0.13062	-1.016232	-0.673953	-4.963525	12.546584	97.818256	-234.564505	-102.884922	-0.204772	-0.384681	-0.838124	9.20829	2.738407	0.844274	2.883235	-13.247648	1.377184	-0.493454	-0.481383	-0.328435
2.798125	0.952058	9.45026	2.749041	0.792599	-1.007077	0.039132	0.140488	-1.005921	-8.309725	-3.716123	5.367158	108.93687	-237.244009	-108.203888	-0.217968	-0.370507	-0.824502	9.62814	2.680869	1.211171	4.575885	-8.885638	0.127712	-0.465079	-0.450242	-0.298914
2.575623	1.183437	9.78789	2.718447	0.667095	-0.794352	0.039532	0.109417	-0.985013	-23.530917	-2.308632	-28.297027	108.955833	-136.677621	-61.89558	-0.245032	-0.419834	-0.777891	9.683875	3.144848	1.094436	5.528255	-5.798586	0.659663	-0.507012	-0.467047	-0.298287
2.344419	1.125679	9.669488	2.80837	0.485567	-1.012238	0.010133	0.15148	-0.994562	-11.02386	-7.157277	-6.185557	-5.871187	24.647248	-20.372927	-0.271059	-0.435305	-0.776336	9.566768	2.27373	1.028619	5.32378	-3.740786	-0.235742	-0.479546	-0.481178	-0.328365
2.679245	0.836293	9.220138	2.685397	0.329597	-0.861078	0.025397	0.127091	-1.002156	-11.28906	-6.639374	5.698306	-19.650336	107.224761	8.213194	-0.232351	-0.420831	-0.763817	9.274314	2.565527	1.204074	5.449309	-2.502602	-1.617425	-0.479338	-0.464986	-0.329202
3.023761	1.00861	9.284396	3.114003	0.145124	-0.681301	-0.016579	0.114444	-0.997693	-5.526527	-2.199472	6.502619	-50.340125	86.064437	26.167166	-0.205808	-0.418537	-0.793068	10.156254	2.56276	1.04086	5.516424	-1.363964	-2.264913	-0.507083	-0.46622	-0.313815
2.451465	0.664375	9.271813	3.419387	0.243618	-1.109933	0.039532	0.109417	-0.985013	-3.171438	-3.722762	8.871918	-56.174814	43.344669	32.643393	-0.218784	-0.418612	-0.792792	9.556324	2.503809	0.490446	5.675076	-0.347343	-2.912146	-0.465638	-0.480974	-0.328295
2.456826	0.952789	9.557285	4.918222	-0.085335	-1.303603	0.02654	0.103078	-1.0094	-4.639183	-4.174234	4.764474	-45.963032	30.105352	33.136526	-0.218784	-0.418612	-0.792792	10.141523	2.268919	0.200927	5.531446	0.284078	-1.906084	-0.521199	-0.482617	-0.313048
2.61762	0.720486	8.991129	5.163279	-0.083843	-1.334952	0.026183	0.08225	-0.977833	-4.996369	-4.57076	1.473	-59.953022	61.856051	30.38892	-0.243995	-0.385978	-0.822947	9.790188	2.502775	0.375034	5.049807	1.253606	-1.175467	-0.493245	-0.46519	-0.329272
2.738644	0.951617	9.33544	5.007967	-0.485464	-1.218359	0.010519	0.137709	-0.991147	-4.596255	-4.738264	4.028894	-67.749844	106.484041	23.581666	-0.205588	-0.432786	-0.806414	9.725109	2.269122	0.013504	4.28607	2.044591	-1.023663	-0.465776	-0.497993	-0.31193
2.337904	0.894465	9.327404	4.918395	-0.211044	-1.060301	0.010905	0.123938	-0.987731	-3.054803	-4.119628	6.213152	-70.068607	131.934249	11.43973	-0.230799	-0.400151	-0.836569	9.198636	2.155174	0.242733	2.440723	2.991584	-1.541063	-0.478849	-0.433427	-0.315349
2.567953	1.009424	9.389194	5.717908	0.442217	-1.420003	0.054038	0.095272	-0.981947	-1.884885	-3.107028	7.201057	-76.286436	142.208973	-2.428271	-0.17926	-0.356033	-0.811984	9.020196	1.806629	0.118134	1.308803	3.839905	-1.143699	-0.506736	-0.433009	-0.331017
3.141569	1.066692	9.457423	5.81293	1.153649	-1.776733	0.039146	0.123189	-0.988429	-2.746271	-2.936325	7.296345	-83.258586	151.865421	-12.295104	-0.178815	-0.324321	-0.828341	9.198501	2.213251	0.24298	-0.413296	4.539162	-1.324174	-0.479613	-0.499023	-0.296472
2.906735	1.410301	9.170152	5.56912	1.46156	-1.924368	0.025797	0.096021	-0.981248	-2.269471	-2.59854	8.099255	-88.868666	166.963988	-18.006503	-0.140037	-0.354737	-0.82716	8.96118	1.806764	0.117034	-1.677386	4.627647	-1.442269	-0.521408	-0.498809	-0.312211
2.676894	1.008135	9.107156	5.019088	1.673411	-1.858006	0.024668	0.102735	-0.956512	-1.902858	-2.316681	9.126258	-90.168677	183.477329	-21.141657	-0.112609	-0.349227	-0.899461	8.842743	1.981262	0.115575	-2.792403	4.198544	-1.741808	-0.493734	-0.496749	-0.343126
2.566756	1.124066	9.332824	4.56224	1.850787	-1.424452	0.067787	0.091369	-0.96822	-1.782006	-2.147668	9.412016	-91.15672	195.225726	-25.865286	-0.099633	-0.349152	-0.899736	9.195874	1.922129	0.062023	-3.68797	3.887535	-1.553705	-0.493245	-0.46519	-0.329272
2.563208	1.41055	9.163471	4.132252	1.914071	-1.759537	0.010133	0.15148	-0.994562	-0.033284	-2.150047	10.467796	-93.467729	199.957209	-32.694306	-0.086577	-0.273547	-0.89068	8.900118	2.213184	0.057757	-5.050001	3.240894	-1.606811	-0.50722	-0.483239	-0.29745
2.397427	0.837465	9.441983	4.194649	2.067668	-1.726552	0.011291	0.110167	-0.984315	0.66838	-2.150914	10.99206	-96.976936	197.937538	-39.776356	-0.047359	-0.33246	-0.916193	8.902994	1.923298	0.176335	-6.257156	2.407172	-1.262273	-0.479408	-0.46416	-0.34473
2.450927	1.411115	9.27495	4.2584	2.279946	-1.447271	0.011691	0.079096	-0.963407	0.102875	-1.135413	11.54722	-99.777784	191.160386	-43.884213	-0.033272	-0.283208	-0.962528	8.901064	1.806652	0.056026	-7.005862	1.489653	-1.530245	-0.493872	-0.513767	-0.326761
2.563043	1.640316	9.164436	3.586745	2.39451	-0.983453	0.011305	0.092867	-0.966823	-0.230191	-0.62727	12.163429	-102.249989	181.622672	-42.069961	-0.059224	-0.283358	-0.961977	8.78083	1.806427	-0.065988	-7.783152	0.536711	-1.339507	-0.507642	-0.496953	-0.343196
3.030276	1.239824	9.62648	3.37145	2.427021	-1.22765	0.039903	0.112946	-0.999089	-0.34258	-0.795951	12.274148	-104.196271	172.551644	-35.719243	0.017972	-0.240162	-0.923593	9.372113	2.27018	0.066808	-8.993821	-0.445531	-1.422123	-0.493596	-0.47973	-0.359491
2.743056	1.010023	9.563094	3.218006	2.489507	-1.379534	-0.001701	0.103827	-1.008702	-0.968631	-0.118467	12.657897	-104.934135	163.969061	-26.834845	0.031903	-0.28176	-0.978257	9.605956	1.80429	-0.110489	-9.681187	-1.362182	-1.751446	-0.479129	-0.448793	-0.330039
2.398209	1.297238	9.500766	2.975565	2.668232	-0.977246	0.01282	0.072382	-0.988143	-0.795719	-0.231451	12.661429	-106.734809	154.6526	-15.58476	0.019002	-0.266515	-0.978985	9.249388	1.920758	-0.236411	-9.963532	-2.192238	-1.440837	-0.493525	-0.480556	-0.343963
2.683368	1.29679	9.449481	2.576864	2.698494	-1.098279	0.025411	0.109792	-0.984664	-0.736622	-0.400503	12.719135	-109.143725	143.616853	-5.030227	0.057345	-0.208224	-0.940777	9.551477	1.747338	0.127791	-10.43379	-2.924255	-1.80239	-0.479826	-0.496545	-0.343056
3.025822	1.238859	9.399067	2.209626	2.570026	-0.76196	0.026168	0.099549	-0.995324	-0.960493	0.050856	13.054516	-111.243044	132.529848	4.476108	0.072023	-0.156828	-1.015813	9.196529	1.166893	-0.001098	-10.435433	-2.983226	-2.01604	-0.493178	-0.447345	-0.361165
2.742642	1.584439	9.565507	2.178149	2.478384	-0.824695	-0.016965	0.128215	-1.001108	-0.772751	-0.23055	13.737581	-112.665668	123.453952	12.184284	0.123036	-0.219953	-0.984202	9.315952	1.515574	0.1224	-11.053443	-3.479594	-1.552996	-0.493383	-0.482209	-0.312908
2.403984	1.011237	9.783825	2.575432	2.264428	-0.76798	0.039532	0.109417	-0.985013	-0.593017	-0.117928	14.08114	-112.866061	118.017233	18.573291	0.123996	-0.201417	-1.028254	9.43412	1.457228	0.124354	-11.05061	-3.547076	-0.941432	-0.521132	-0.464772	-0.344941
2.341162	1.010072	9.498446	2.85054	2.267801	-0.952725	0.011276	0.127466	-1.001807	-0.009548	0.219309	14.489991	-111.938037	116.098712	23.271842	0.124147	-0.170777	-1.030262	9.270006	1.576752	0.84043	-11.516115	-3.698216	-1.275214	-0.507504	-0.479934	-0.359561
2.453112	1.469039	9.388898	3.219499	2.359975	-0.798949	0.039917	0.095646	-0.981598	0.588235	1.28946	15.635773	-105.390617	115.926948	24.755218	0.124593	-0.139064	-1.046619	9.675011	1.748304	0.429526	-11.63982	-3.853179	-1.121213	-0.479479	-0.463333	-0.360258
2.287331	0.895954	9.667409	3.956043	2.673506	-1.041318	0.053681	0.074444	-0.950379	1.510622	1.851135	15.768869	-90.317882	112.646	21.528423	0.137569	-0.138989	-1.046894	9.738989	1.981709	0.73115	-11.145304	-3.356941	-1.614373	-0.493245	-0.46519	-0.329272
2.683451	1.181907	9.448998	4.233092	2.827756	-0.978273	-0.003187	0.089714	-0.952398	2.373564	2.131171	15.78724	-71.278058	105.266871	15.396953	0.112282	-0.121675	-1.076046	9.207284	1.750373	0.66035	-9.880777	-3.042723	-1.987202	-0.52162	-0.496331	-0.358794
2.454309	1.354397	9.445268	4.448268	3.139897	-1.311169	0.039903	0.112946	-0.999089	2.555931	2.131227	16.243984	-52.900797	96.957164	9.656544	0.15143	-0.135698	-1.090219	9.442788	1.517281	0.603856	-8.829159	-2.765859	-1.778395	-0.521687	-0.514176	-0.326902
2.229828	1.240645	9.667744	4.848954	3.573388	-1.427949	0.040646	0.120002	-1.027241	2.692901	1.847829	14.548185	-37.03515	88.175769	5.512569	0.190804	-0.10376	-1.107404	9.206183	1.750126	0.600443	-7.684304	-2.800541	-0.98775	-0.480105	-0.511911	-0.357747
2.62298	1.0089	9.276601	5.032291	3.450626	-1.369136	0.012805	0.089681	-1.005635	2.560954	1.79105	13.752765	-34.618609	81.347684	4.583387	0.229512	-0.089287	-1.094885	9.551747	1.631186	0.127296	-7.339756	-2.840628	0.050327	-0.492966	-0.449824	-0.314582
2.519482	1.18372	9.843629	5.340531	3.72864	-1.365505	0.02504	0.106264	-0.970588	4.334902	0.998607	13.223182	-38.37275	73.068351	7.365048	0.217056	-0.042328	-1.11197	9.208789	1.576392	0.719516	-6.872465	-2.848106	0.934998	-0.507713	-0.496127	-0.358724
2.91453	1.41199	9.568123	5.341983	3.974838	-1.392176	0.012062	0.082625	-0.977483	4.084652	1.336262	12.312397	-49.794514	62.1896	13.074268	0.204445	-0.086221	-1.137382	8.734594	1.518902	0.590651	-6.191927	-3.160382	1.789793	-0.521479	-0.497983	-0.327739
2.744253	0.895382	9.619464	5.833035	4.162907	-1.513206	0.039146	0.123189	-0.988429	3.960951	1.392477	11.913549	-67.178433	51.67684	21.464558	0.217126	-0.087218	-1.123308	8.973245	0.879773	0.65224	-5.632182	-2.981157	2.398178	-0.479964	-0.513563	-0.326691
2.866349	1.184195	10.020869	5.557736	4.128802	-1.328958	0.025411	0.109792	-0.984664	3.680855	2.407344	12.361475	-82.177671	46.728616	31.916213	0.256424	-0.0706	-1.139489	8.846564	1.284844	0.232422	-4.643961	-3.011665	2.730943	-0.479755	-0.497371	-0.327528
2.682254	1.296549	9.392628	5.127104	3.880947	-1.331747	0.012419	0.103452	-1.009051	3.739737	2.350953	12.419276	-87.982012	45.894979	45.067861	0.282156	-0.056202	-1.126694	8.786853	1.110504	0.170673	-3.77771	-2.827863	3.002001	-0.493525	-0.480556	-0.343963
2.516266	1.010672	9.672346	5.033873	3.602545	-1.213331	0.013205	0.058611	-0.984728	3.752865	3.703502	13.156729	-81.382745	46.276963	60.461811	0.230698	-0.024789	-1.141948	9.204928	1.343099	0.478899	-3.313621	-2.580858	2.938014	-0.465221	-0.448589	-0.329969
2.340789	1.527046	9.500618	4.385891	2.798435	-1.040525	0.039132	0.140488	-1.005921	5.425673	3.81318	13.361801	-61.235257	43.257081	78.60825	0.282897	-0.023417	-1.157401	8.907896	0.762272	0.291204	-2.663089	-2.491175	3.363121	-0.493667	-0.478904	-0.375019
2.900137	1.29397	8.828551	3.228645	2.834297	0.74213	0.026926	0.089307	-1.005984	6.411652	-1.934507	13.207597	43.598724	-1.277536	102.238233	0.295578	-0.024414	-1.143327	9.382651	1.052314	0.480964	-2.097143	-2.572108	5.47037	-0.479684	-0.498197	-0.312
3.146971	1.297665	9.742654	3.140546	1.695893	3.514628	0.025025	0.123563	-0.98808	10.141853	3.074192	15.894609	-62.394307	-13.860035	104.43289	0.270512	-0.021348	-1.185825	9.502884	1.052538	0.602979	-1.947903	-2.124164	9.532799	-0.507713	-0.496127	-0.358724
2.289475	1.01132	9.781598	5.277933	-0.086616	4.368856	0.040289	0.099175	-0.995674	11.100032	0.872137	12.063027	6.40859	-22.251768	114.487794	0.282828	0.021472	-1.146062	9.678967	0.99381	0.546126	-2.018093	-1.514909	12.708967	-0.493316	-0.464364	-0.3448
2.09928	0.318045	8.80886	4.334122	-1.674238	8.455116	0.012048	0.099924	-0.994975	14.172327	1.092601	13.146802	15.121214	-39.786104	106.765892	0.256725	-0.009319	-1.143503	9.857386	0.8775	0.60884	-2.132097	-1.719377	14.69716	-0.520994	-0.447753	-0.361306
3.260656	0.89525	9.686339	-3.329052	-0.543455	14.015405	0.011291	0.110167	-0.984315	17.282977	1.87555	13.382666	30.846394	-60.197831	92.700194	0.244195	0.022319	-1.159585	9.614584	0.934633	0.245244	-1.226868	-1.954557	17.048644	-0.479617	-0.480352	-0.343893
3.965918	2.807011	13.629414	4.908441	38.663362	-11.499948	0.025425	0.092493	-0.967172	18.235416	3.790439	15.046169	66.154817	-82.950094	75.451632	0.282156	-0.056202	-1.126694	9.853275	1.225214	0.430603	-0.358937	-2.519077	18.698827	-0.493037	-0.448998	-0.33011
1.761812	1.181364	9.146917	-14.954563	34.263798	2.470666	0.025797	0.096021	-0.981248	19.861538	3.900651	15.759789	124.667018	-102.178071	51.813625	0.257015	-0.068457	-1.168188	10.085883	0.817153	0.193646	-0.271201	-2.695974	18.088006	-0.479546	-0.481178	-0.328365
3.645583	2.167883	11.858746	-14.824949	43.168559	-2.230493	-0.001301	0.072756	-0.987794	-0.634563	-2.656988	9.209209	132.191636	-93.709604	19.285405	0.243888	-0.099173	-1.165905	10.380424	1.048782	0.200137	0.574802	-3.715553	16.408618	-0.464666	-0.399186	-0.348008
2.691079	1.413362	9.847935	-15.186639	54.581841	-3.454671	0.02544	0.075193	-0.949681	-3.574443	0.336458	11.9242	148.755133	-60.012315	2.215418	0.218081	-0.128892	-1.177696	10.329131	1.515503	0.68027	1.670461	-4.398395	14.787874	-0.507921	-0.512319	-0.357887
2.879296	1.761505	10.70552	-21.880745	56.68736	-2.174439	0.082665	0.080752	-0.979229	-6.964652	4.225424	7.100838	115.940124	-58.696561	14.04026	0.190653	-0.134401	-1.105396	10.741008	1.572387	0.628313	2.800451	-3.380148	11.355521	-0.479129	-0.448793	-0.330039
3.064463	1.706835	11.390856	-22.269221	64.203324	-3.921917	0.039146	0.123189	-0.988429	-2.385117	-1.696989	8.154235	55.182305	-98.21355	23.587263	0.203774	-0.163895	-1.118014	11.210282	2.326048	0.580424	4.494395	-1.290225	8.007799	-0.492828	-0.432805	-0.330947
2.340131	0.894948	9.441111	-15.857495	66.877072	-6.749113	0.08378	0.091337	-1.021457	6.036191	1.827557	-1.346812	61.825477	-15.489007	22.256881	0.191313	-0.177147	-1.145435	11.847625	2.205691	-0.066942	5.676465	1.678234	11.229264	-0.493108	-0.448171	-0.345637
1.183374	0.088941	8.790078	-5.619465	55.86556	-4.350731	0.067773	0.108668	-0.985712	-0.286252	-1.023812	9.501036	11.007517	-6.420765	-0.198852	0.191313	-0.177147	-1.145435	12.080543	2.611189	-0.180623	3.940901	5.4836	15.343815	-0.479267	-0.465812	-0.313674
2.544103	1.016703	11.093673	-1.475856	47.439116	-4.806326	0.081493	0.139364	-1.006969	-1.072765	-2.317241	10.275975	8.190785	-9.251312	0.479784	0.177822	-0.164045	-1.117463	12.244791	2.433589	-0.896946	2.899007	9.010596	17.042497	-0.507016	-0.448375	-0.345708
5.054653	0.922998	16.541001	8.691789	61.944463	-14.260738	0.083794	0.074037	-1.003965	-3.312611	-1.242473	10.569566	22.253009	-10.518058	5.811797	0.191163	-0.207788	-1.143427	11.468623	2.026587	-1.452145	3.200867	9.710475	20.461619	-0.506807	-0.432183	-0.346545
5.599386	1.790762	18.089675	15.499556	104.433856	-19.140947	0.096771	0.097676	-0.99707	-1.501624	-1.416147	9.135479	-1.722117	-6.704522	-0.273572	0.178488	-0.146581	-1.147166	10.899525	2.439414	-0.26328	4.865374	10.804184	18.799715	-0.520297	-0.400002	-0.348289
5.143179	1.43434	15.237779	14.907091	148.586795	-22.684586	0.125012	0.096927	-0.997769	-1.824803	-1.020286	10.20471	-12.064992	-8.936125	-2.64701	0.165581	-0.191545	-1.158229	10.956475	2.380708	-0.382241	8.628239	12.709652	16.270484	-0.506527	-0.416817	-0.331854
3.577847	0.626935	14.18098	18.629234	172.669749	-26.659085	0.140247	0.107138	-1.040346	-1.07516	-1.697653	10.219857	-13.91814	-6.591078	-3.796644	0.177527	-0.165117	-1.103113	10.614753	2.268086	0.269638	10.715728	14.659921	11.790935	-0.520923	-0.44858	-0.345778
4.342239	0.573298	15.21857	25.520779	198.858701	-22.970965	0.125384	0.100456	-1.011845	-1.139416	-1.359799	9.935735	-13.174574	-6.427736	-3.886906	0.177452	-0.180437	-1.10211	10.452571	2.504256	1.106022	11.758221	16.755308	7.71198	-0.507299	-0.44507	-0.407819
5.107656	2.185947	16.376864	29.564143	241.39655	-21.769151	0.167774	0.064733	-0.977909	-0.453035	-1.586604	9.723494	-14.500016	-6.199464	-3.854874	0.204	-0.117934	-1.121025	10.327531	2.677271	0.745121	11.97757	18.395151	5.991745	-0.534134	-0.401033	-0.332831
3.983159	2.06389	14.479073	23.675077	277.129165	-26.201041	0.181495	0.095429	-0.999166	-0.607468	-1.022217	10.626575	-13.87906	-6.004005	-4.407332	0.191388	-0.161826	-1.146438	10.210734	2.619712	0.80258	10.966445	19.652422	5.347557	-0.534205	-0.400206	-0.348359
3.594259	1.032645	15.035466	9.689555	291.217759	-20.778575	0.266604	0.079411	-0.997845	-0.846214	-1.641801	10.168101	-10.47211	-5.143776	-2.731333	0.177967	-0.193614	-1.129805	9.259468	2.794617	0.426273	9.246568	20.130027	5.901663	-0.534761	-0.44961	-0.33032
2.548447	1.444691	17.176416	-3.975438	297.973569	-7.563653	0.295659	-0.000779	-0.939236	-1.017379	-1.810422	10.220971	-8.029744	-4.961091	-2.480928	0.190873	-0.14865	-1.118742	9.494702	2.677678	0.370274	7.796399	20.002442	5.907524	-0.49297	-0.431153	-0.362002
3.174568	3.454206	17.083404	1.214979	294.334687	-6.717729	0.336849	0.05671	-0.968023	-0.851289	-2.149013	9.884476	-3.486285	-4.664384	-1.518655	0.165957	-0.114943	-1.163247	8.490462	2.62165	0.291412	6.670486	19.221315	4.142611	-0.492623	-0.397941	-0.379204
3.182871	3.386108	14.58274	20.366605	294.07645	-22.143029	0.378854	0.034759	-0.937503	-0.895749	-1.416039	10.563559	1.152384	-4.181098	-0.770245	0.15209	-0.178444	-1.130258	8.597625	2.560832	-0.305703	6.058518	18.275229	0.756797	-0.464666	-0.399186	-0.348008
2.609669	2.754424	14.512098	23.965896	290.822611	-28.831629	0.420058	0.074948	-0.948798	-0.960221	-0.965524	10.279531	1.71752	-3.439678	-0.515793	0.13934	-0.132557	-1.132993	8.765735	2.616525	-0.78141	5.009317	17.02766	-3.206585	-0.52051	-0.397523	-0.394873
1.682593	1.029187	13.861659	33.700612	293.459791	-35.411617	0.417814	0.071078	-0.881834	-0.855993	-1.58585	9.715031	3.241728	-2.564454	-0.105099	0.164921	-0.1488	-1.118191	8.815792	2.207633	-1.321202	3.333559	15.206717	-8.142789	-0.49297	-0.431153	-0.362002
2.200151	0.971855	13.985145	39.954392	293.85556	-35.269813	0.48916	0.076261	-0.911732	-0.454352	-1.530321	9.666901	3.864828	-2.099855	0.393271	0.165807	-0.145584	-1.16124	8.988999	2.43879	-1.496632	2.00988	13.486683	-10.880238	-0.507086	-0.447549	-0.361235
2.59652	0.913159	13.765286	40.467254	286.997955	-34.063898	0.504067	0.031045	-0.887758	-0.674943	-1.529511	10.115183	3.619901	-1.919603	0.487351	0.151864	-0.224405	-1.127247	9.288617	2.381028	-1.25175	1.409882	11.369017	-10.409556	-0.561604	-0.36823	-0.350174
2.97473	0.690623	15.533447	33.69365	279.900774	-30.969803	0.572812	0.011531	-0.819124	-0.686492	-1.811638	9.548549	4.302759	-1.636602	0.737339	0.178557	-0.19147	-1.158505	9.461668	2.205406	-1.488818	1.229062	9.807888	-7.406503	-0.520927	-0.429908	-0.393198
4.68952	-0.000643	15.393397	42.109689	277.593519	-29.835318	0.587704	-0.016386	-0.812642	-1.085477	-1.360049	9.767025	4.891686	-1.475829	0.739412	0.177602	-0.149797	-1.104117	8.926952	2.322031	-1.677948	1.237252	8.457162	-3.977201	-0.521624	-0.477659	-0.406215
12.272567	-1.888799	5.076141	110.381782	286.073627	-45.814229	0.627422	0.00969	-0.767633	-0.721952	-1.359985	10.623872	5.788261	-1.375083	1.141901	0.165512	-0.146656	-1.14689	9.465125	2.612927	-1.24746	0.720606	8.19258	-2.232027	-0.507228	-0.445897	-0.392291
10.033713	-6.481626	-21.753891	317.472771	186.909555	-65.879701	0.627836	-0.038679	-0.729234	-0.743711	-1.360838	9.604359	6.689589	-0.905953	1.486401	0.191244	-0.132257	-1.134096	9.062746	2.732496	-0.655599	0.043377	8.0949	-1.892922	-0.506043	-0.366587	-0.365421
7.558966	1.290429	-4.606483	-0.653447	-123.305028	42.154899	0.656063	-0.022129	-0.747424	-0.620549	-1.1354	10.003444	8.174453	-0.704959	1.767048	0.164701	-0.134551	-1.104845	9.414737	1.743405	-0.892827	-0.385	8.211298	-1.464051	-0.479062	-0.430948	-0.361932
10.211941	-4.804721	7.86529	0.770719	-129.87891	17.759396	0.685062	-0.033121	-0.758783	-1.246731	-1.021269	10.330079	8.829757	-0.175826	1.834493	0.165437	-0.161976	-1.145887	9.722888	1.803772	-0.168195	-0.356909	8.247674	-2.014451	-0.506949	-0.43053	-0.3776
4.91886	-2.266202	9.477946	14.520644	-82.851586	25.107112	0.669812	-0.026032	-0.733697	-0.742718	-1.24813	9.661094	8.952202	-0.208747	2.420001	0.192054	-0.144362	-1.176141	9.259583	2.271686	0.364141	1.629638	7.387922	-3.973519	-0.506949	-0.43053	-0.3776
3.643845	-0.327759	5.824169	14.366549	-52.324134	22.537132	0.643472	-0.059539	-0.750903	-0.560566	-1.135413	10.117932	7.960034	-0.554982	1.860852	0.178708	-0.160829	-1.160512	9.741055	2.04028	0.851211	3.709135	6.092988	-5.227903	-0.52114	-0.42743	-0.439782
7.538467	-0.617544	5.955533	-6.556535	-62.325227	17.52859	0.657949	-0.039086	-0.78282	-0.910363	-1.360278	9.883931	6.940163	-0.684539	0.933897	0.164846	-0.16412	-1.117187	10.392704	1.923137	0.982635	5.488993	4.873594	-5.014598	-0.478365	-0.383197	-0.348916
8.015691	-0.338912	4.033756	5.262976	-93.052669	9.881006	0.643857	-0.07331	-0.747487	-0.4027	-0.967314	9.442026	6.50563	-0.843754	0.993621	0.165141	-0.163048	-1.131537	9.794704	1.980832	0.55253	6.80654	4.273177	-5.658297	-0.507161	-0.428052	-0.424184
6.224018	-0.226363	3.146924	21.615429	-134.040142	2.758774	0.686562	-0.036307	-0.797595	-1.54436	-1.584462	9.813803	4.554777	-1.321783	-0.03003	0.178042	-0.178294	-1.130809	9.439082	1.690768	0.424877	7.727459	4.098006	-6.149779	-0.492832	-0.414134	-0.378367
4.998654	-1.367044	4.823194	18.676819	-162.938858	3.309879	0.658349	-0.070157	-0.761913	-0.510601	-1.586497	9.722285	3.159336	-1.796179	-0.529119	0.191093	-0.162898	-1.132088	9.368406	2.443666	-0.112171	8.806191	5.003191	-7.533259	-0.506464	-0.380301	-0.411167
4.102833	-1.649246	5.827527	0.043378	-179.322373	13.738672	0.631223	-0.058823	-0.803442	-0.846969	-1.247487	10.168433	2.294345	-1.864258	-1.177881	0.164696	-0.194761	-1.11518	9.303057	2.326166	-0.473207	8.879763	6.874795	-8.061993	-0.478924	-0.41393	-0.378297
3.847739	-1.642284	7.413846	-10.60844	-191.759799	29.267325	0.618231	-0.065162	-0.827829	-1.08513	-0.909358	9.824044	1.611246	-2.205771	-1.860043	0.164846	-0.16412	-1.117187	9.180353	2.441599	-0.714541	8.699935	8.106274	-8.89236	-0.49332	-0.445693	-0.392221
2.754912	-0.895721	7.168414	-11.241795	-206.458352	47.488356	0.591476	-0.0503	-0.883434	-0.501792	-1.135473	10.175781	1.948232	-2.445374	-2.07795	0.178783	-0.145509	-1.161516	9.709838	2.207585	-0.82544	8.337275	9.612418	-9.72337	-0.520648	-0.414542	-0.378508
2.589498	-0.434617	7.508123	-13.747296	-221.629283	65.827753	0.578113	-0.060168	-0.893745	-0.799744	-1.529675	9.659648	2.348023	-2.535696	-1.55445	0.165066	-0.178369	-1.130533	9.653873	2.789469	-0.584441	7.840256	10.083384	-11.068473	-0.506669	-0.415164	-0.36291
2.256982	-0.259631	8.070697	-16.93012	-230.712577	81.445842	0.575841	-0.02944	-0.861765	-1.189274	-0.965046	10.331335	1.516027	-2.477904	-2.633524	0.139114	-0.178519	-1.129982	9.948353	1.626532	-0.763604	7.034622	9.96381	-11.615067	-0.507161	-0.428052	-0.424184
2.735593	0.548802	9.163192	-19.96254	-233.390881	93.886387	0.550644	-0.086961	-0.886215	-0.618694	-1.473335	10.059799	4.327439	-2.441832	-2.692559	0.191093	-0.162898	-1.132088	9.602655	1.803548	-0.29021	5.759696	8.768729	-11.849227	-0.478853	-0.414756	-0.362769
2.272032	0.490486	8.869777	-26.608071	-232.713853	101.977418	0.52426	-0.06857	-0.955897	-1.255971	-1.24697	9.876772	4.886682	-2.1606	-2.411861	0.152976	-0.175228	-1.173307	9.539662	2.093322	-0.469795	4.579007	7.260201	-11.318233	-0.507299	-0.44507	-0.407819
2.287988	1.528052	9.726917	-35.161849	-230.833665	106.29271	0.480755	-0.043433	-0.947605	-0.499267	-1.191709	10.289013	6.493378	-2.053052	-1.669628	0.191684	-0.160754	-1.160788	9.662366	1.977888	-0.228461	3.864038	5.840392	-10.330941	-0.478644	-0.398564	-0.363606
3.38473	1.529195	10.202898	-43.151056	-228.430214	105.404584	0.466978	-0.004931	-0.996315	-0.508614	-1.36108	9.835754	7.359875	-1.862513	-0.98882	0.139629	-0.191695	-1.157678	10.017834	1.861173	-0.162446	3.208312	4.518578	-9.924974	-0.465713	-0.461477	-0.391243
3.044829	2.679239	10.428456	-51.625182	-225.738104	97.87163	0.41201	-0.023919	-1.016238	-0.619795	-1.529713	10.003112	8.357108	-1.203586	-1.351402	0.165066	-0.178369	-1.130533	9.480241	2.267685	-0.470153	3.292697	3.447624	-9.859048	-0.521136	-0.446101	-0.392361
3.392271	3.426696	10.665686	-60.691731	-222.426043	86.97842	0.39789	-0.023544	-1.015889	-0.909262	-1.3039	9.940618	8.733088	-0.770577	-1.192653	0.177741	-0.239575	-1.126795	9.420239	1.744641	-0.593293	3.468272	2.317405	-9.945972	-0.493111	-0.4295	-0.393058
3.134866	3.548059	12.138782	-66.670614	-218.35418	72.746636	0.398218	0.031882	-1.08244	-0.513557	-1.304939	9.609243	8.521168	-0.349847	-0.294627	0.164991	-0.193689	-1.12953	9.598678	2.093187	-0.468694	3.583583	1.556886	-10.309485	-0.507437	-0.462089	-0.391454
2.799626	4.41186	12.590545	-68.40427	-212.612122	59.448251	0.343265	-0.004404	-1.084872	-0.67967	-1.586031	9.888577	8.716933	0.451201	-0.502301	0.177892	-0.208935	-1.128802	9.367981	2.153039	-0.173314	4.042449	0.8203	-9.910346	-0.521416	-0.461467	-0.407052
2.178694	4.471688	13.033363	-65.424491	-205.6601	49.864643	0.31461	0.044715	-1.122573	-1.426812	-1.584582	9.9295	9.408121	1.436266	0.247925	0.178117	-0.162973	-1.131813	9.247437	1.339256	-0.418604	4.252434	0.335425	-10.275518	-0.507228	-0.445897	-0.392291
2.071156	4.071128	13.370565	-56.213146	-194.875199	43.881372	0.31611	0.041529	-1.161385	-0.570022	-1.248453	9.664721	9.814216	1.865634	1.023224	0.177892	-0.208935	-1.128802	9.667983	1.456193	0.008942	4.683951	-0.066359	-9.725075	-0.479274	-0.42847	-0.408516
1.901661	4.014293	13.480689	-50.429681	-179.985044	40.611229	0.28634	0.080063	-1.156858	-0.564732	-0.853902	9.948251	9.604086	2.35292	1.120385	0.15187	-0.164195	-1.116912	9.01539	1.979868	-0.120752	4.284213	-0.163037	-9.387	-0.520786	-0.431561	-0.362143
2.074414	4.186734	13.541607	-49.98486	-166.518107	38.529063	0.25807	0.11541	-1.191143	-0.679863	-0.853687	9.945833	9.611571	2.964598	1.373099	0.152756	-0.16098	-1.159961	9.718871	1.1637	-0.470449	4.127254	-0.624008	-9.231429	-0.535115	-0.445479	-0.407959
1.447049	3.900465	13.641858	-48.222758	-156.461862	33.934791	0.243935	0.133084	-1.208286	-0.866357	-2.487612	9.147876	7.767609	5.642684	-3.842517	0.177596	-0.210006	-1.114452	9.484062	1.571267	-0.353306	3.788975	-0.533775	-9.200074	-0.47983	-0.477873	-0.390476
1.386496	3.842341	13.469944	-44.986042	-144.59166	27.249887	0.21568	0.151133	-1.225079	-0.5632	-1.022846	10.004748	5.267822	5.824778	-3.719407	0.151424	-0.195908	-1.100555	9.536206	1.6858	-0.711153	2.830996	-0.595239	-9.501917	-0.4936	-0.461059	-0.406912
0.814697	2.808808	13.454466	-46.442151	-128.034425	20.194389	0.188582	0.127868	-1.231625	-0.143641	-0.853945	10.806307	2.845245	4.610387	-5.5831	0.178632	-0.17615	-1.159509	9.775436	1.744078	-0.526783	2.154137	-0.879917	-8.825774	-0.493458	-0.462711	-0.375856
0.024519	2.467152	14.00596	-52.448657	-108.1058	12.163837	0.145435	0.173833	-1.254901	-2.006256	-0.623597	12.52243	7.353473	-19.31365	-0.484124	0.139039	-0.193839	-1.128978	9.657809	1.57012	-0.529726	1.108215	-1.260846	-7.842221	-0.521416	-0.461467	-0.407052
-0.145841	2.065426	14.057783	-63.533639	-91.151957	3.945872	0.1309	0.222578	-1.292951	-0.405548	-0.742086	9.328937	3.168575	-20.672438	-2.473993	0.165726	-0.221114	-1.170572	9.721788	1.803525	-0.228102	0.127098	-1.585417	-6.370185	-0.506811	-0.413512	-0.393965
-0.126663	1.724878	15.022838	-76.681942	-84.62163	-5.171952	0.128999	0.256834	-1.275047	-0.831254	-1.246871	10.904747	1.527424	-25.816603	-2.156522	0.178042	-0.178294	-1.130809	10.304361	1.277513	-0.698578	-0.451904	-1.724696	-4.931033	-0.507157	-0.446723	-0.376763
-0.382954	1.846483	16.552787	-80.512954	-91.892836	-16.258891	0.073631	0.268917	-1.315878	-0.733825	-1.47312	10.057381	1.230879	-29.771545	-2.905123	0.125617	-0.225627	-1.112346	9.767308	1.45172	-1.007274	-1.029457	-1.68044	-3.492746	-0.521624	-0.477659	-0.406215
-1.186992	2.19123	16.424939	-73.992741	-110.487658	-27.867067	0.045033	0.248839	-1.283612	-0.379516	-1.079074	10.518084	-0.840334	-32.370935	-3.364222	0.165066	-0.178369	-1.130533	9.357901	1.279179	-0.835999	-1.944285	-1.547843	-1.839705	-0.492832	-0.414134	-0.378367
-17.734252	15.4789	31.219144	-125.701565	-117.692216	-10.291284	0.041975	0.324408	-1.275955	-0.848848	-1.529235	10.054916	-1.629591	-36.180758	-3.834323	0.165356	-0.237507	-1.155218	9.302997	0.931599	-0.658862	-2.829467	-1.28868	-0.58467	-0.507508	-0.461263	-0.406982
-4.003389	-8.897058	15.357303	-37.852385	-109.731885	-68.820329	0.028226	0.328311	-1.289681	-0.27153	-1.135904	10.180616	-3.100229	-37.756799	-4.868492	0.164175	-0.241794	-1.097819	10.070207	0.929844	-0.644556	-3.598295	-1.295235	-0.215101	-0.493529	-0.461885	-0.391384
-10.999366	4.721402	15.221795	-29.65911	-121.039967	-25.589587	0.028598	0.33184	-1.303757	-0.322597	-0.741198	10.519577	-5.34909	-39.77408	-5.599394	0.100406	-0.192992	-1.142501	9.421184	1.338109	-0.595023	-3.96217	-1.587629	1.315763	-0.493391	-0.444866	-0.407749
-12.607016	5.455992	12.067948	-10.425541	-82.735492	1.997728	-0.014164	0.364034	-1.323617	-0.667366	-1.698218	10.454878	-5.033808	-41.73079	-5.92687	0.139409	-0.177447	-1.144332	9.602054	0.641286	-0.474875	-4.598471	-1.580174	3.335219	-0.493458	-0.462711	-0.375856
-15.015172	-0.263178	17.45272	3.457047	-81.44084	7.376207	-0.084767	0.365907	-1.321871	-0.152234	-1.41763	10.352716	-4.7779	-43.532525	-6.622784	0.126653	-0.19177	-1.157402	9.307824	1.223216	-0.358091	-5.606195	-2.161231	5.939583	-0.478857	-0.396085	-0.41019
-17.560422	-2.737372	15.972022	-52.920227	-61.52098	19.821589	-0.071018	0.362004	-1.308144	-0.211332	-1.248578	10.29501	-4.327732	-44.540867	-6.324169	0.113012	-0.20931	-1.127423	9.481686	0.699137	-0.596642	-6.182626	-2.957378	8.787986	-0.49395	-0.475599	-0.43713
-15.672978	-2.209662	18.85248	-60.680543	-35.943323	16.671726	-0.07026	0.351761	-1.318805	-0.108074	-1.361929	9.730937	-1.652657	-45.518369	-6.424217	0.113162	-0.178669	-1.12943	9.010387	0.816617	-0.545045	-6.214625	-3.979844	10.046154	-0.506464	-0.380301	-0.411167
-13.868975	1.287397	17.595211	-32.576005	-9.907917	11.984804	-0.098902	0.383581	-1.339014	0.353335	-1.193752	9.79739	-0.500019	-44.766699	-6.569956	0.074379	-0.208463	-1.140946	8.889999	0.409613	-0.728697	-6.706557	-4.232632	10.66045	-0.520998	-0.429082	-0.408726
-13.404265	6.561513	15.239603	-8.555637	22.750071	-4.021851	-0.100045	0.407594	-1.331769	-0.091473	-1.192273	10.524033	2.985234	-45.15343	-6.324374	0.08684	-0.195211	-1.113526	8.773762	0.584606	-0.610342	-7.566969	-4.893228	12.133872	-0.521207	-0.445275	-0.407889
-13.44982	10.413273	15.993748	17.371807	57.281135	-35.740298	-0.100788	0.400538	-1.303618	0.541854	-1.24979	10.537284	5.308511	-47.142441	-7.205452	0.100111	-0.194064	-1.128151	8.65654	0.23642	-0.614026	-7.862619	-5.228907	14.918068	-0.507437	-0.462089	-0.391454
-19.167292	7.087015	16.152668	71.240165	93.149454	-114.747166	-0.072561	0.417088	-1.321808	0.255451	-1.361864	10.587784	9.177361	-48.935076	-6.973538	0.074454	-0.193142	-1.141949	9.239154	0.640118	-0.960733	-8.036402	-5.68555	17.61076	-0.521136	-0.446101	-0.392361
6.406155	4.277012	-4.900471	63.007715	174.303247	-141.700358	-0.072547	0.399789	-1.304316	-0.424993	-1.078492	11.083271	11.855279	-52.033973	-6.293151	0.086614	-0.241173	-1.110515	9.770589	0.987606	-0.889439	-7.773688	-6.61892	16.269315	-0.56321	-0.461253	-0.42279
1.089788	0.692956	15.724115	-82.384938	108.437838	-73.520829	-0.057283	0.3754	-1.311909	-0.473126	-1.585026	11.478112	16.477367	-57.800013	-6.747507	0.049168	-0.175828	-1.171101	9.586283	1.741764	-1.18906	-8.047197	-8.279686	8.178278	-0.548188	-0.380913	-0.411378
2.735503	7.123034	15.271755	39.881401	142.276138	-81.698651	-0.029085	0.426549	-1.365083	0.762427	-2.26226	12.692362	21.902999	-65.919996	-6.885508	0.060367	-0.242394	-1.095614	10.949737	2.437301	-0.741435	-9.68641	-11.418243	0.558209	-0.534485	-0.415572	-0.36305
0.854737	3.239748	6.751072	41.122565	124.132917	-33.555964	-0.014593	0.429703	-1.379508	0.031562	-1.922165	13.526525	28.850186	-78.282532	-7.40355	0.086174	-0.212675	-1.083823	11.379357	2.440064	0.164871	-8.379194	-14.917418	2.220589	-0.534764	-0.430939	-0.377741
1.8186	1.193668	12.046424	-16.439856	116.013021	-15.640244	-0.029056	0.39195	-1.3301	-0.074052	-3.104605	13.862949	35.045079	-94.138243	-10.176486	0.034861	-0.210832	-1.111419	11.738376	1.743083	0.348228	-7.253297	-17.92073	15.037576	-0.50646	-0.398972	-0.363747
-3.178924	2.852123	22.867647	-20.373261	-12.577683	24.693427	0.01402	0.432482	-1.394283	-0.307678	-1.977611	13.802422	42.242629	-111.300776	-13.146533	0.022035	-0.180266	-1.113151	11.382503	2.034026	0.282955	-6.572908	-20.464561	24.676091	-0.520648	-0.414542	-0.378508
9.952187	-9.419703	3.180691	28.734797	35.414456	-48.552203	0.041161	0.403849	-1.335262	0.34419	-2.879421	14.607915	49.978686	-129.894942	-16.962667	0.02159	-0.211979	-1.096794	10.9558	2.671088	-0.381005	-3.623388	-21.989728	19.384378	-0.506322	-0.381953	-0.380112
1.849923	2.267121	7.846108	32.427497	18.422857	-17.612927	0.029312	0.373495	-1.366893	0.825503	-2.372455	15.637526	56.515888	-150.527556	-21.447329	-0.04366	-0.228746	-1.080062	10.498091	2.152451	0.326849	-3.956452	-20.733072	13.082815	-0.507366	-0.462915	-0.375926
2.405625	3.367064	9.964278	-10.645139	2.990644	2.962004	0.028941	0.369967	-1.352817	0.893085	-1.921492	16.148871	62.8606	-174.286072	-27.442799	-0.017639	-0.273486	-1.091952	10.668112	1.859935	-0.090434	-5.417973	-19.531669	14.702387	-0.519742	-0.350598	-0.366328
2.616465	0.777686	8.934518	1.432735	6.640221	-2.226983	0.041932	0.376307	-1.32843	1.436077	-2.543533	14.57453	68.726624	-194.429099	-33.834206	-0.043811	-0.259387	-1.078054	10.616508	1.513098	0.266424	-6.582301	-18.525285	14.579534	-0.562096	-0.381117	-0.411448
1.782062	0.898499	10.169066	5.228464	5.888644	-2.15812	0.028926	0.387266	-1.370309	2.129495	-2.657393	14.702221	72.003887	-209.353507	-40.853932	-0.069688	-0.244217	-1.078506	10.548034	2.26649	-0.150811	-5.066432	-17.539433	8.486764	-0.534209	-0.381535	-0.39578
2.972157	0.894974	9.567065	8.40776	4.924994	-2.612291	0.098415	0.374808	-1.329827	1.800919	-2.599752	15.487969	70.035741	-226.63062	-50.644558	-0.135383	-0.292697	-1.045417	10.483961	3.020872	-0.328418	-3.538771	-19.031892	2.497768	-0.519947	-0.385462	-0.318071
2.005471	0.954568	9.889496	7.113458	3.687644	-2.444665	0.070173	0.375557	-1.329128	0.971394	-2.653138	17.055697	62.091991	-240.126552	-58.891847	-0.148284	-0.277452	-1.046145	10.903562	3.544342	0.100858	-2.838588	-21.34399	-1.405798	-0.533859	-0.366995	-0.365561
2.452496	0.779499	9.329149	6.131394	3.374013	-2.293593	0.083122	0.433795	-1.357217	2.667039	-3.105912	18.279808	59.837701	-245.751168	-67.179565	-0.174456	-0.263353	-1.032248	10.253939	2.790344	-0.034274	-2.402059	-22.969353	-3.783476	-0.561533	-0.369056	-0.334646
2.338852	1.124473	9.385223	5.271684	3.31202	-2.59881	0.057553	0.372746	-1.367591	1.033579	-2.540395	17.283559	64.552949	-251.716333	-70.903026	-0.200929	-0.310536	-1.014336	10.008395	3.079287	-0.516695	-2.52547	-23.683657	-2.771071	-0.561879	-0.402267	-0.317444
2.45435	1.296956	9.445027	3.557336	3.142005	-1.860598	0.05681	0.365689	-1.339439	0.115166	-2.651237	17.377401	67.627216	-260.350258	-73.60627	-0.240302	-0.342474	-0.997151	10.207858	2.909598	0.684002	-2.023884	-23.231931	-1.919299	-0.56223	-0.416807	-0.347663
2.392434	1.58324	9.217707	0.926155	3.147915	-0.748874	0.070588	0.327188	-1.290729	0.773293	-3.66547	18.465998	79.925192	-262.475926	-76.853938	-0.305628	-0.374562	-0.979416	9.903028	3.314827	0.200976	-1.584306	-22.376197	-1.711038	-0.561809	-0.403093	-0.301916
2.455712	0.952548	9.500432	-2.596852	2.970501	-0.097588	0.056796	0.382989	-1.356931	0.949246	-4.736026	18.525363	93.12622	-268.999763	-82.055545	-0.293613	-0.393023	-0.935639	9.420995	3.313683	-0.34699	-2.872646	-21.369013	-1.955679	-0.534485	-0.415572	-0.36305
2.459917	1.298162	9.729292	-3.785533	3.540475	0.651126	0.083908	0.388954	-1.332893	0.234045	-5.242703	17.320998	91.067583	-271.312003	-89.415981	-0.346553	-0.42718	-0.889479	9.363329	2.733057	-0.350563	-3.783281	-19.319629	-2.298349	-0.547834	-0.385044	-0.333739
2.738727	0.836734	9.334958	-6.357615	3.584008	1.180589	0.08618	0.358226	-1.364874	-0.722058	-5.242354	15.659107	89.608086	-268.010791	-99.27834	-0.346848	-0.428252	-0.875129	9.778373	2.848759	-0.222551	-4.57076	-16.86585	-3.254637	-0.547763	-0.38587	-0.318211
2.632054	0.781064	9.730461	-7.340412	3.397474	0.965712	0.05681	0.365689	-1.339439	-4.02358	-3.718335	12.081033	88.139523	-267.843075	-109.017506	-0.373761	-0.446938	-0.830525	9.18327	3.081424	-0.472194	-4.189586	-14.402148	-4.765309	-0.547971	-0.402063	-0.317374
2.798374	0.607409	9.448812	-6.636907	3.311004	0.747607	0.05681	0.365689	-1.339439	-7.949393	3.5439	-1.355957	106.215302	-278.978675	-108.712804	-0.400824	-0.496265	-0.783914	9.126299	2.675274	-0.415119	-2.75151	-11.826789	-4.874493	-0.547625	-0.368852	-0.334576
2.919931	1.642962	9.853354	-4.891818	3.23079	0.403935	0.056039	0.393231	-1.346271	-22.283535	-1.924506	-37.215529	109.40912	-169.180497	-37.157324	-0.428622	-0.518167	-0.69626	9.248713	2.211138	-0.235175	-0.97939	-9.64403	-5.349753	-0.506319	-0.400624	-0.332691
3.589666	0.949306	8.954171	-3.325833	3.824419	0.1944	0.042318	0.362535	-1.325014	-14.261301	-10.353398	3.594496	13.948322	65.696204	12.975462	-0.453909	-0.500853	-0.725412	9.317248	2.852311	0.367714	-0.196526	-7.646111	-6.034475	-0.534201	-0.418877	-0.300939
3.025822	1.238859	9.399067	-1.000008	4.001814	-0.944128	0.043819	0.359349	-1.363826	-10.180549	-5.514147	6.515178	-29.176202	108.972685	36.524379	-0.442119	-0.565275	-0.678624	9.561151	2.795426	0.791217	1.150349	-5.911685	-4.702922	-0.534414	-0.416399	-0.347522
2.504017	1.008018	9.046962	0.872179	4.597567	-1.215848	0.028183	0.380209	-1.342157	-4.611135	-4.058098	8.784771	-52.943875	67.447613	42.011556	-0.441453	-0.547811	-0.708327	9.741636	2.737686	0.973992	1.245571	-4.457301	-6.299407	-0.575929	-0.400819	-0.34857
2.843996	1.294253	8.88429	0.35398	4.806082	-0.84295	0.085008	0.416838	-1.392613	-3.341337	-4.795056	6.206538	-35.137552	39.139905	41.466812	-0.466219	-0.483463	-0.754839	9.745633	2.912903	1.214361	2.304709	-2.145498	-7.658967	-0.57572	-0.384626	-0.349407
2.231356	0.666471	9.722184	0.656137	4.475726	-1.401215	0.085051	0.36494	-1.340138	-7.244484	-4.228668	1.312858	-45.629186	71.537139	40.115796	-0.40208	-0.515873	-0.725511	9.985383	2.274021	1.335857	2.917003	-0.517107	-5.193489	-0.576134	-0.435682	-0.300312
2.396314	0.837224	9.38513	1.300266	4.445914	-1.219545	0.041904	0.410905	-1.363413	-7.083417	-4.227081	3.467581	-66.209771	126.932849	38.923934	-0.454209	-0.562134	-0.721397	9.85125	2.096355	0.434311	3.427423	0.818311	-4.009803	-0.534481	-0.434244	-0.315629
2.626403	0.894741	9.446678	1.672962	4.777679	-0.509859	0.099543	0.368094	-1.354563	-5.29612	-4.171613	6.335876	-66.859952	162.739848	33.822828	-0.374577	-0.495043	-0.798815	9.680669	2.156319	0.790698	3.125258	1.705879	-4.165753	-0.576067	-0.417837	-0.332205
2.576529	1.470886	9.845949	2.464701	3.888452	-0.37325	0.041932	0.376307	-1.32843	-4.014158	-3.441024	7.156043	-68.972332	183.264227	29.370104	-0.36123	-0.478576	-0.814444	8.964502	2.272361	0.358639	2.414314	2.203484	-5.204652	-0.56223	-0.416807	-0.347663
2.34545	1.240803	9.726824	2.897262	4.475047	-0.426298	0.072445	0.344829	-1.361109	-4.182773	-3.046197	7.379306	-78.597714	203.644435	27.345512	-0.386962	-0.492974	-0.827239	9.023943	2.562853	0.420883	1.266687	2.553838	-6.944167	-0.56195	-0.401441	-0.332972
2.515194	0.952989	9.615252	4.149286	4.118395	-0.987724	0.041918	0.393606	-1.345922	-3.755915	-1.637645	8.635025	-76.752861	225.109132	31.198648	-0.346408	-0.456749	-0.901822	9.316398	2.271056	0.245428	0.891579	2.438028	-7.706284	-0.534064	-0.401859	-0.317304
2.110782	1.354646	9.438587	3.96289	3.686602	-0.932869	0.08388	0.423553	-1.367877	-3.095909	-2.370131	9.837139	-70.094265	241.327997	36.175021	-0.294799	-0.457521	-0.888575	8.94703	2.210329	-0.600118	0.612618	2.315616	-7.796372	-0.548318	-0.435274	-0.300172
3.081797	1.468342	9.344293	4.269256	3.938751	-1.359006	0.043047	0.386891	-1.370658	-2.2811	-2.596631	10.250351	-65.692647	252.359331	38.600704	-0.280202	-0.481655	-0.972942	9.188576	1.74617	-0.358067	0.182146	2.529139	-7.887515	-0.562159	-0.417633	-0.332135
2.920221	1.240871	9.851665	4.575269	3.753708	-1.178886	0.055296	0.386175	-1.318119	-1.3528	-2.59807	10.609531	-65.055001	258.564856	36.566554	-0.240684	-0.479286	-1.002468	8.76612	1.977441	-0.844036	-0.46645	2.280515	-7.731175	-0.561529	-0.387727	-0.287226
2.743056	1.010023	9.563094	5.433052	3.915196	-1.51608	0.056039	0.393231	-1.346271	-0.501754	-3.050853	10.00425	-68.346672	261.533641	30.273293	-0.200055	-0.42774	-1.078055	9.071935	2.095391	-0.238971	-0.987371	2.24142	-7.087319	-0.534131	-0.419704	-0.285411
2.293763	1.242051	10.009976	7.173246	3.567091	-2.630806	0.083551	0.368126	-1.301326	0.892898	-2.940257	10.656394	-76.296759	259.990309	21.434236	-0.162163	-0.461372	-1.033826	9.306224	2.384983	-0.29324	-1.321801	2.200153	-6.169074	-0.548527	-0.451467	-0.299335
2.56861	1.641522	9.448702	7.417883	3.350682	-2.420349	0.070531	0.396385	-1.360696	0.799203	-2.770196	11.673631	-84.057727	253.975077	13.290845	-0.147636	-0.440617	-1.106854	8.606678	1.981802	0.111173	-2.150851	2.376916	-5.800178	-0.561879	-0.402267	-0.317444
2.460415	0.608864	9.726396	10.14043	3.252659	-3.503176	0.085037	0.382239	-1.357629	0.357074	-1.641917	12.627782	-87.735169	243.967537	10.228658	-0.056283	-0.393058	-1.126145	8.96199	1.458308	0.11555	-3.07276	2.336695	-5.185416	-0.548389	-0.434448	-0.3157
2.402912	0.953554	9.726731	12.131887	3.38871	-3.844052	0.056424	0.37946	-1.342855	0.137585	-1.584729	13.13275	-88.568826	232.151109	12.977398	-0.030186	-0.422477	-1.139039	8.721274	2.038866	-0.0661	-3.530652	2.512581	-4.603926	-0.56195	-0.401441	-0.332972
2.740622	1.296749	9.450594	13.722756	3.278787	-4.341118	0.057925	0.376274	-1.381667	0.150882	-1.584207	13.755785	-87.235466	218.590106	19.687499	-0.00497	-0.394902	-1.098548	8.840542	1.980768	-0.004239	-3.927527	2.627825	-4.052926	-0.575579	-0.386279	-0.318351
2.566963	0.836858	9.331617	14.276231	3.495093	-4.216521	0.057182	0.369218	-1.353515	0.393471	-1.077142	14.384083	-89.775895	201.874819	28.089647	0.021422	-0.423249	-1.125792	8.776003	1.514811	-0.366759	-4.574045	2.747856	-4.051157	-0.561671	-0.386075	-0.318281
2.333202	1.23815	9.10144	14.828218	3.402693	-3.974262	0.070916	0.382614	-1.35728	0.973375	-2.035744	14.508646	-87.55475	182.666438	33.264618	0.100829	-0.402119	-1.200199	8.954287	1.456577	-0.303798	-4.294261	2.868692	-3.808252	-0.54846	-0.433622	-0.331228
2.505089	1.065701	9.104056	13.324034	2.996172	-3.976539	0.044204	0.345578	-1.36041	1.311561	-0.797309	14.290384	-84.283288	165.658298	36.242623	0.140058	-0.340612	-1.20504	8.846314	1.865852	0.294801	-4.510513	2.558234	-3.439243	-0.534969	-0.465802	-0.329483
2.157476	2.099173	8.93116	11.463841	3.336404	-2.21755	0.100687	0.34408	-1.361807	1.051861	-0.964671	15.586908	-77.284159	143.5368	45.80137	0.127453	-0.324295	-1.220118	8.96091	1.922916	0.117528	-4.38747	2.372931	-3.22487	-0.561462	-0.369882	-0.319118
1.942318	1.412936	9.606047	12.394028	1.520239	-4.304536	0.070173	0.375557	-1.329128	1.973539	1.230685	15.834658	-80.708994	136.202707	40.977682	0.192703	-0.307527	-1.23685	9.024733	1.749542	0.357515	-5.035572	2.185487	-3.068818	-0.576343	-0.451875	-0.299475
2.688278	0.665898	9.674239	7.868767	1.688109	-1.988643	0.085794	0.371997	-1.36829	4.158876	-3.33661	15.366999	-85.976094	132.072155	34.58127	0.206049	-0.29106	-1.252479	9.197785	1.57392	0.120447	-5.590377	1.779519	-2.453627	-0.54818	-0.418255	-0.316537
2.673388	1.237177	8.937562	9.109713	4.529821	-2.712739	0.07246	0.32753	-1.343617	4.594298	-1.59208	14.358628	-80.350685	130.315764	14.128294	0.258763	-0.302865	-1.295628	8.780675	1.399648	-0.127626	-5.927878	1.433616	-1.656132	-0.562643	-0.467863	-0.298568
2.052497	1.239563	9.380138	8.208693	3.027481	-3.409269	0.043433	0.37312	-1.367242	4.74926	-0.295033	16.344523	-78.89595	116.781738	-3.17665	0.296586	-0.291607	-1.24006	8.896372	1.456959	-0.244991	-6.640745	1.065565	-1.804606	-0.589833	-0.419694	-0.30122
2.745118	1.240272	9.677765	5.058015	3.120719	-2.079942	0.086209	0.323627	-1.32989	4.705662	-0.012704	17.023226	-67.252749	93.011768	-19.495688	0.322688	-0.260816	-1.242618	9.363964	1.512966	-0.475568	-7.483392	0.305713	-2.561986	-0.534623	-0.432591	-0.346685
2.739426	1.41139	9.394224	3.956142	2.861024	-1.314284	0.071688	0.355072	-1.350449	5.123983	-0.071556	15.050464	-57.380919	71.53142	-28.980241	0.348565	-0.275986	-1.242166	9.549816	1.514539	0.006988	-7.461745	-0.79445	-2.648501	-0.533993	-0.402685	-0.301776
2.568983	1.124548	9.44653	3.127363	2.673119	-1.345621	0.086194	0.340926	-1.347382	4.686962	0.040531	13.456187	-67.824665	56.731165	-31.07791	0.349155	-0.273842	-1.270866	9.779548	1.396364	-0.348546	-7.678874	-1.941527	-1.23637	-0.547971	-0.402063	-0.317374
2.502406	1.697075	8.993005	0.378529	3.164946	0.234355	0.085437	0.351169	-1.336722	4.677591	-0.748523	12.945767	-90.767068	55.979071	-26.171631	0.361691	-0.24527	-1.244449	9.841035	1.280571	-0.228126	-7.332718	-2.822963	1.303302	-0.561316	-0.390206	-0.240642
2.39924	1.412363	9.558102	0.378539	3.071013	0.386167	0.057225	0.317319	-1.30104	3.81977	0.718019	13.325344	-117.361709	70.125446	-14.615549	0.400989	-0.228653	-1.26063	9.481861	1.570772	-0.47312	-7.324904	-3.986587	4.395749	-0.590601	-0.466619	-0.329764
2.162427	1.41084	9.155676	0.524722	1.777526	0.671403	0.043433	0.37312	-1.367242	4.080969	2.23984	14.917368	-122.962093	85.75583	2.706484	0.400989	-0.228653	-1.26063	9.019886	0.99307	-0.005141	-7.319814	-4.493027	6.048612	-0.54846	-0.433622	-0.331228
2.108306	1.698813	9.326329	0.860788	1.250056	1.24455	0.057939	0.358975	-1.364175	6.507333	3.418681	15.478895	-107.369867	91.025889	19.110702	0.400549	-0.200156	-1.233938	9.190642	1.80474	-0.238006	-6.457523	-4.767427	6.260749	-0.547971	-0.402063	-0.317374
1.825214	0.378347	9.428917	2.492748	0.233893	4.780754	0.070173	0.375557	-1.329128	8.05942	3.922698	15.455323	-83.403717	83.692204	29.569905	0.439772	-0.198859	-1.249114	9.316087	1.457498	0.122153	-5.562585	-4.641541	6.226342	-0.576279	-0.415359	-0.378788
2.044288	1.81229	8.984579	2.175123	-0.731916	11.205929	0.04459	0.331807	-1.356994	9.005477	3.243572	13.889396	-65.599513	72.632049	35.45523	0.451932	-0.246889	-1.21768	9.67196	1.166555	0.187426	-4.944384	-4.549134	6.376484	-0.575925	-0.41949	-0.301149
2.897164	2.327436	8.719188	-1.501844	-1.408714	12.46281	0.073231	0.299988	-1.336785	9.118829	-0.249468	13.492397	-15.064138	51.024266	44.345113	0.504727	-0.183163	-1.251497	9.673756	1.341277	0.307982	-4.623188	-4.32412	8.391516	-0.506035	-0.403929	-0.27058
6.039077	3.152822	14.296331	-18.418309	3.925806	12.168869	0.086952	0.330684	-1.358042	10.22243	0.767629	19.46096	-58.73762	39.537997	42.623351	0.439848	-0.183538	-1.250118	9.675261	1.167296	0.367147	-4.723681	-3.498655	11.352773	-0.548531	-0.432795	-0.346755
1.871831	-0.313405	8.858604	-1.555588	37.843095	-9.562473	0.071302	0.368843	-1.353864	9.98387	-0.192322	16.284709	-18.693414	23.43004	47.39746	0.491751	-0.183238	-1.251221	9.383056	0.878086	0.480223	-5.007359	-2.615196	14.559019	-0.575579	-0.386279	-0.318351
2.64236	1.932307	10.303818	-14.964009	29.716764	-0.363311	0.085837	0.320099	-1.315814	11.93444	2.165079	10.836181	-48.668284	12.912523	45.727193	0.479372	-0.12096	-1.26931	10.149166	0.876083	0.434621	-4.248764	-2.151165	17.274498	-0.589833	-0.419694	-0.30122
2.529296	1.473099	10.356514	-13.870295	41.089494	-5.487243	0.114436	0.340177	-1.34808	13.221219	1.884198	14.486265	3.413128	-8.859225	48.666516	0.478486	-0.124175	-1.22626	9.615934	0.353872	0.242772	-3.024044	-1.63028	20.568866	-0.54846	-0.433622	-0.331228
2.343223	1.240321	9.613118	-16.99534	45.081864	-3.818574	0.073574	0.338115	-1.385845	14.200917	4.473807	14.792196	5.525084	-37.306039	46.319686	0.479076	-0.122031	-1.25496	10.096442	0.064143	0.669687	-1.554269	-1.291727	23.832735	-0.534969	-0.465802	-0.329483
2.407117	1.299168	9.955591	-16.872207	45.738116	-4.728322	0.0988	0.361037	-1.326411	16.024578	5.258321	14.038591	46.2507	-67.289167	48.274217	0.479742	-0.104567	-1.284663	9.970727	0.527538	0.310023	-0.431894	-1.125005	25.845424	-0.575925	-0.41949	-0.301149
1.658272	1.413625	9.714186	-14.166975	46.916911	-4.594272	0.127784	0.367345	-1.355261	18.834408	4.860637	16.248591	96.076851	-95.213466	47.820946	0.452754	-0.138574	-1.239055	9.732866	0.353355	0.185066	1.29384	-1.427524	26.11574	-0.589904	-0.418868	-0.316747
2.226363	1.412246	9.497909	-12.026412	46.284109	-4.825401	0.099915	0.371622	-1.368639	21.476588	4.742781	16.020908	166.563942	-126.759275	44.696917	0.453119	-0.182391	-1.264744	9.728485	0.817222	0.007323	2.422732	-2.083773	24.892018	-0.562088	-0.418459	-0.316607
2.126619	1.013374	10.233083	-10.802129	46.32612	-5.318944	0.12857	0.322503	-1.330938	-1.674152	-2.767851	9.017435	163.574213	-132.910344	26.875137	0.426796	-0.198934	-1.248839	9.909084	0.236551	0.127966	3.520493	-2.863748	23.791287	-0.575161	-0.353894	-0.320026
2.827734	1.590429	10.987948	-9.701941	51.039835	-5.920202	0.155654	0.363067	-1.341884	-5.372933	-0.334399	13.867332	174.225071	-94.160431	24.494113	0.427676	-0.255928	-1.302223	10.269959	1.108859	0.617532	3.701506	-2.110348	21.983496	-0.603741	-0.419898	-0.30129
2.740363	1.021886	12.347782	-10.320687	61.265533	-8.236396	0.140776	0.373685	-1.330874	-2.381773	5.40132	8.953165	307.372694	-16.173856	36.660383	0.400098	-0.292078	-1.227916	10.208378	2.212438	0.621129	2.72886	-0.405227	16.476716	-0.603674	-0.402053	-0.333183
3.973055	2.176602	13.967878	-12.760954	78.852738	-10.182329	0.141919	0.349671	-1.338119	0.736599	4.043852	9.357146	103.250346	-14.427091	20.019407	0.425975	-0.307249	-1.227464	11.094606	2.733592	0.759674	2.196972	3.519698	9.429719	-0.603182	-0.389166	-0.271908
4.287123	2.239867	15.395014	-17.91334	109.437297	-13.442635	0.198773	0.351701	-1.353591	-1.151566	-0.064577	9.483709	-10.390489	-7.937786	2.697524	0.374436	-0.351366	-1.252049	11.949866	2.841043	-0.840811	1.824091	7.59467	8.647494	-0.575646	-0.404124	-0.286459
4.393262	1.491114	14.939279	-22.335548	148.117986	-15.530567	0.211365	0.389111	-1.350112	-0.946562	-3.049374	10.730893	-8.046749	-8.531863	-0.389314	0.412183	-0.355429	-1.195477	12.530144	3.302323	-1.307084	-1.243095	11.872246	11.02228	-0.575646	-0.404124	-0.286459
4.220261	1.663322	14.879809	-24.124956	181.992467	-18.470966	0.227014	0.350952	-1.35429	1.872652	-1.254368	8.187435	34.742077	-9.251797	9.934639	0.374065	-0.367759	-1.236696	12.691475	2.484898	-2.265754	-2.851691	13.808396	18.477088	-0.589416	-0.387309	-0.302894
4.630815	2.009853	15.40073	-26.200784	216.866	-17.95905	0.253741	0.370688	-1.333668	2.639744	0.322339	9.223991	29.97927	-7.606575	6.987618	0.386451	-0.369827	-1.208272	11.986948	1.383321	-2.22375	-3.036285	12.754595	25.66633	-0.589278	-0.37029	-0.319259
5.164744	2.415672	16.378943	-31.114479	255.592644	-20.351324	0.267104	0.380556	-1.323357	-0.481223	-0.123007	8.535295	3.673132	-5.044704	0.209695	0.374065	-0.367759	-1.236696	11.007248	2.611147	-0.7995	-2.039967	12.208536	22.60845	-0.602977	-0.354302	-0.320166
5.545068	2.985454	15.365795	-38.983523	292.928322	-23.647157	0.366719	0.350392	-1.31897	-0.921374	-1.924057	9.317061	-4.746154	-6.40903	0.251011	0.387116	-0.352363	-1.237975	10.553556	2.732582	0.210608	3.619952	14.179546	17.351454	-0.589278	-0.37029	-0.319259
4.31265	2.360299	16.703118	-51.326512	319.185747	-24.135152	0.379697	0.374031	-1.312075	-0.736805	-1.811245	9.887178	-0.688881	-5.560565	0.29354	0.400237	-0.381857	-1.250593	10.148842	2.909733	0.682902	8.797283	17.091182	12.67269	-0.602768	-0.338109	-0.321003
1.320089	3.820288	21.7658	-71.364706	335.986394	-16.933587	0.47744	0.343525	-1.2548	-0.750749	-1.473784	9.264427	-4.886327	-5.391564	-0.879624	0.387556	-0.38086	-1.264667	10.330022	3.026469	0.926325	10.247743	19.174484	9.906587	-0.602839	-0.337283	-0.336531
4.245773	2.715405	19.147021	-67.946453	360.516411	-21.45159	0.504524	0.384089	-1.265745	-0.857094	-1.642228	9.658344	-10.045185	-5.51111	-1.994771	0.347228	-0.371124	-1.193095	9.812757	2.740271	1.634068	9.872596	19.866062	7.979047	-0.58879	-0.338732	-0.305405
4.402055	3.47123	21.312803	-45.668677	346.352552	-24.629437	0.559906	0.354706	-1.207423	-1.200392	-1.472495	9.764512	-8.131394	-5.638929	-2.17947	0.400312	-0.366537	-1.251597	9.327828	2.564156	0.90564	7.429814	20.243019	6.182783	-0.603536	-0.385034	-0.349547
5.480992	4.088024	17.983395	-0.774338	345.74073	-41.670018	0.645372	0.359516	-1.23767	-0.56156	-1.248121	10.061198	-6.989756	-5.718034	-1.932714	0.360944	-0.338265	-1.224078	9.091088	2.855076	0.902474	4.274734	20.964986	3.317745	-0.561391	-0.370708	-0.30359
3.533897	1.618965	17.821453	13.579551	336.372913	-62.356415	0.713717	0.371071	-1.189944	-0.508614	-1.36108	9.835754	-5.875005	-5.518921	-2.083977	0.373845	-0.35351	-1.22335	9.429914	2.792729	0.070133	2.362676	20.520748	-1.716117	-0.575579	-0.386279	-0.318351
3.474768	-1.323823	14.682227	10.32303	325.148816	-61.916175	0.712231	0.356958	-1.13364	-0.845868	-1.191109	10.22512	-3.589847	-5.552656	-1.866678	0.361535	-0.336121	-1.252777	9.547656	2.443756	0.010944	1.524532	19.562516	-6.965142	-0.602772	-0.319438	-0.368424
4.685036	-3.046492	15.039489	-21.18004	307.603348	-40.790298	0.75385	0.348778	-1.106536	-1.322214	-1.134533	9.479181	-5.196021	-5.571227	-2.145607	0.334697	-0.339487	-1.209176	9.596477	2.092692	-0.588508	1.363391	17.926122	-11.479722	-0.561671	-0.386075	-0.318281
6.939007	-3.802851	13.20474	-43.461291	317.896143	-10.070081	0.823709	0.339848	-1.08013	-0.966935	-1.247462	9.939456	-5.629483	-5.638852	-2.023316	0.374511	-0.336046	-1.253053	9.941096	2.380284	-1.059924	-0.577772	15.522298	-13.386493	-0.561529	-0.387727	-0.287226
21.630686	-4.118121	9.397391	-10.396712	352.920675	8.744243	0.849735	0.30063	-0.978881	-1.075352	-0.965309	10.277113	-5.969797	-5.731538	-2.579415	0.347893	-0.35366	-1.222798	10.648999	2.02996	-1.108109	-1.958461	12.768548	-13.796187	-0.574952	-0.337701	-0.320863
5.97534	-9.579561	-21.618568	326.1108	214.631419	46.889328	0.862699	0.341569	-0.989477	-0.497842	-1.304322	10.345557	-4.729443	-5.348472	-2.482124	0.36183	-0.335049	-1.267127	10.450772	2.14182	-2.249147	-4.01713	9.670224	-13.65171	-0.575791	-0.3838	-0.364935
15.731092	4.54343	-8.014131	39.130021	-139.482105	77.431749	0.949337	0.287765	-0.991985	-0.856101	-1.529519	9.715079	-3.645089	-5.089828	-2.417024	0.361164	-0.352513	-1.237424	10.103008	2.260266	-1.895814	-6.356674	7.232825	-9.47544	-0.589628	-0.38483	-0.349477
11.21619	-2.902859	9.540922	27.688277	-162.070313	79.396975	0.877977	0.299881	-0.979579	-0.618478	-1.585996	10.059704	-2.900812	-4.836704	-2.167285	0.412848	-0.337965	-1.225181	10.278841	2.782545	-1.890288	-8.973004	5.072614	-5.574405	-0.547834	-0.385044	-0.333739
7.052418	-4.734826	10.191005	81.520135	-125.962004	68.670107	0.879105	0.293167	-1.004315	-1.083275	-1.247293	9.880399	-2.55497	-4.371601	-2.285694	0.360504	-0.309768	-1.197385	9.990498	2.726627	-1.536596	-10.441603	2.744755	-5.771908	-0.603465	-0.385861	-0.33402
6.211557	-2.112483	5.355118	117.258852	-88.607639	54.090746	0.852365	0.29073	-1.042429	-0.800607	-1.07903	9.660027	-2.582004	-4.036884	-1.94328	0.373625	-0.339262	-1.210004	9.819222	2.612117	-1.240857	-10.976273	1.024167	-5.211653	-0.58949	-0.367812	-0.365842
8.809127	0.118351	3.653303	70.927686	-92.102494	39.66553	0.839773	0.253319	-1.045908	-1.077554	-1.078065	10.163739	-2.921766	-4.040793	-2.005248	0.374436	-0.351366	-1.252049	9.596228	2.6737	-0.526129	-10.980984	-0.426149	-3.982244	-0.561671	-0.386075	-0.318281
10.198537	-1.028338	4.414291	45.704149	-114.655026	11.590955	0.839759	0.270619	-1.0634	-0.398103	-1.474146	9.611518	-2.640946	-3.793752	-1.725114	0.36102	-0.322944	-1.225081	9.245567	2.617175	-0.353258	-10.852474	-0.621851	-2.759294	-0.575649	-0.385452	-0.333879
8.233455	-1.720328	3.407034	53.398283	-147.970596	-11.421277	0.827525	0.254036	-1.098447	0.008589	-1.531089	9.789852	-2.761836	-3.609514	-2.000831	0.373625	-0.339262	-1.210004	9.426167	2.036504	-0.232615	-9.001346	-1.207427	-1.693522	-0.589561	-0.366985	-0.38137
6.551464	-1.091853	2.297189	57.544852	-190.541066	-25.773438	0.826753	0.281578	-1.105278	-0.851804	-1.247677	9.941874	-2.079819	-3.416898	-1.998367	0.374881	-0.319654	-1.268406	9.248288	1.92051	-0.296318	-7.007343	-1.305238	-3.381201	-0.589136	-0.371943	-0.288203
5.266287	-1.773443	3.860569	43.168762	-223.486564	-28.99701	0.756893	0.290508	-1.131684	-0.438852	-1.417044	10.403311	-0.998634	-3.403782	-1.904883	0.360875	-0.293375	-1.212739	9.424911	1.629478	-0.35416	-6.310678	-1.092674	-5.951924	-0.575929	-0.400819	-0.34857
4.181617	-2.161678	6.906677	26.481234	-240.157311	-22.625059	0.702283	0.292348	-1.183175	-1.075375	-1.584992	10.219952	-0.592213	-3.001444	-1.684759	0.374146	-0.292228	-1.227364	8.896527	1.863739	-0.183354	-6.031964	-0.659328	-6.352299	-0.57537	-0.370086	-0.319188
3.482346	-2.840787	9.16343	21.127013	-247.757799	-8.471142	0.688134	0.327321	-1.21781	-0.393807	-1.192304	9.838314	0.737521	-2.891989	-1.775085	0.36146	-0.351441	-1.251773	9.306183	1.455273	-0.417009	-5.844781	-0.103956	-6.752924	-0.589561	-0.366985	-0.38137
2.27571	-1.519485	8.975037	22.391934	-252.659551	9.140992	0.605697	0.281541	-1.230203	-1.082389	-1.078254	9.937181	0.958811	-2.433491	-1.12296	0.361164	-0.352513	-1.237424	9.187611	1.687847	-0.418221	-5.470268	0.385546	-6.634371	-0.589908	-0.400196	-0.364168
2.173366	-1.401865	9.598677	22.579635	-258.680861	27.349455	0.591562	0.299215	-1.247346	-0.335487	-1.586725	9.839191	2.137265	-2.051618	-0.964074	0.36117	-0.292303	-1.227089	8.951816	1.572235	-0.423117	-4.479539	1.312772	-7.223047	-0.562021	-0.400614	-0.3485
2.345254	-1.574314	9.601294	22.182206	-262.346559	41.088836	0.508339	0.298277	-1.284063	-0.794239	-1.247785	9.943083	2.881565	-1.769645	-0.436595	0.321721	-0.339562	-1.208901	8.713146	1.746509	-0.546591	-3.457132	1.834881	-7.076435	-0.631352	-0.385443	-0.349688
2.688449	-1.115031	9.609905	18.19515	-263.134015	49.181672	0.537695	0.308112	-1.326989	-0.395039	-1.812034	9.724513	4.553452	-1.414583	0.092358	0.38608	-0.38622	-1.192919	8.821139	1.802089	-1.083305	-3.175265	2.262245	-6.896128	-0.630793	-0.35471	-0.320306
2.539737	-0.650308	10.80241	11.110145	-265.280656	51.068062	0.452571	0.34143	-1.345801	-0.273063	-0.96696	10.124119	5.426776	-0.701732	0.624227	0.348559	-0.336196	-1.252501	8.947435	2.036101	-0.60086	-3.421866	2.354389	-7.01792	-0.589487	-0.386483	-0.318422
2.367311	0.268881	10.80293	-6.15349	-267.78418	45.006607	0.381954	0.360602	-1.361547	-0.742502	-1.360791	9.660999	7.251243	-0.440331	1.70728	0.348264	-0.337268	-1.238152	8.715077	1.863155	-0.426283	-3.605428	2.599388	-7.110108	-0.533717	-0.368648	-0.334506
3.233181	-0.247267	11.158579	-9.889524	-263.335086	31.046863	0.339578	0.379025	-1.377991	-0.385907	-1.530002	10.177867	8.52695	0.367594	2.548703	0.348264	-0.337268	-1.238152	9.249233	1.513978	-0.298048	-4.16177	2.724165	-7.536543	-0.59025	-0.452079	-0.299545
1.888274	-0.584649	12.608588	-29.899107	-258.374837	16.895762	0.255612	0.37103	-1.386556	-0.509607	-1.473788	9.779019	9.147931	0.649404	2.860287	0.361755	-0.350369	-1.266123	8.774653	2.095571	-0.364287	-4.349808	2.977677	-8.4539	-0.58914	-0.353272	-0.335624
0.989735	-1.729198	13.438743	-34.02563	-247.895377	10.883357	0.18461	0.403973	-1.405718	-0.11267	-0.855097	9.561445	9.835877	1.273939	2.466283	0.335583	-0.336271	-1.252226	9.650531	1.859017	-0.887931	-4.412802	2.638443	-8.207566	-0.589695	-0.402675	-0.317584
0.329281	-1.550586	14.790579	-49.084691	-233.047687	8.530463	0.112907	0.377962	-1.344252	0.01171	-2.772697	7.127956	12.43733	1.598142	0.128659	0.348484	-0.351516	-1.251498	9.36713	1.571784	-0.2956	-4.37909	2.726226	-7.810815	-0.603186	-0.370494	-0.319329
-0.572439	-1.374462	15.512577	-53.343376	-213.125108	16.011291	0.042275	0.414434	-1.377489	0.76497	-1.306836	10.202235	11.742337	2.500337	-3.223181	0.373845	-0.35351	-1.22335	9.427922	1.281516	-0.235829	-5.055555	2.254535	-6.797598	-0.589975	-0.418041	-0.332275
-0.716489	-1.195981	16.931288	-58.229345	-189.684306	22.078881	0.014777	0.422239	-1.404943	-1.030306	-0.740569	9.712116	10.839007	4.070975	-6.044448	0.348188	-0.352588	-1.237148	9.187186	1.397219	-0.479364	-4.992142	2.220384	-6.43093	-0.589833	-0.419694	-0.30122
-0.125845	-0.043464	17.913751	-62.042934	-178.402322	31.931878	-0.029471	0.44032	-1.368499	0.47846	-1.36258	10.252782	6.675192	4.654562	-4.901368	0.36124	-0.337193	-1.238427	9.014134	1.572841	-0.242296	-5.425921	2.098679	-6.642707	-0.562092	-0.399788	-0.364028
-0.138134	0.011324	17.288609	-48.725461	-171.285358	39.030588	-0.059598	0.458026	-1.332404	-2.362318	-0.344061	9.344805	7.513833	5.032308	-4.773626	0.360574	-0.354657	-1.208724	9.428887	1.339839	-0.175675	-5.76725	1.822151	-6.640152	-0.589278	-0.37029	-0.319259
-1.302525	0.525025	16.302008	-40.940389	-161.174919	45.672306	-0.103103	0.483164	-1.324112	0.057847	-0.348493	9.508859	5.872783	4.7059	-4.932331	0.387041	-0.367684	-1.236972	9.770339	1.568614	-0.827059	-6.047907	1.547736	-6.821193	-0.575929	-0.400819	-0.34857
-2.276177	-0.565901	16.221641	-41.992546	-143.74346	53.960313	-0.116452	0.455996	-1.316932	-0.583853	-1.359299	11.702443	2.210866	0.977294	-4.509936	0.360869	-0.353585	-1.223074	9.247302	1.397332	-0.418357	-6.416208	1.419003	-6.330264	-0.603745	-0.401227	-0.34871
-2.673783	-0.335121	16.385371	-48.945418	-119.868331	63.687757	-0.132087	0.476856	-1.295262	0.003754	-1.531278	9.563293	4.99998	-22.28242	-1.255407	0.37436	-0.366687	-1.251046	9.436861	1.225418	0.243179	-6.38048	1.037222	-4.892181	-0.631352	-0.385443	-0.349688
-3.251563	-0.795445	16.08804	-60.040595	-95.943229	72.538414	-0.173677	0.450438	-1.287383	-0.554044	-0.121131	10.515263	2.651599	-20.178137	-4.041717	0.360869	-0.353585	-1.223074	9.669914	1.57284	0.12925	-6.308357	0.95546	-2.874965	-0.617653	-0.401431	-0.348781
-21.879579	6.32982	26.667177	-286.10222	-127.934378	165.250427	-0.1626	0.508334	-1.262583	-0.896504	-1.021726	10.563891	0.161083	-24.04877	-3.157367	0.321646	-0.354882	-1.207897	9.897155	1.105466	-0.407488	-6.269765	0.723475	-1.131942	-0.603607	-0.384208	-0.365075
1.860501	-10.57461	13.702548	-16.637657	8.901087	51.124148	-0.163343	0.501277	-1.234431	-0.791282	-1.529343	10.056125	-0.93349	-27.614346	-4.026049	0.348113	-0.367909	-1.236144	9.783119	1.280953	-0.16932	-6.046211	0.274878	0.917101	-0.603954	-0.417419	-0.347873
-5.209092	8.108438	15.860172	-40.212897	-42.698462	78.434665	-0.161457	0.48432	-1.269828	-0.376752	-0.628287	10.688382	-1.900044	-30.782933	-4.397434	0.348113	-0.367909	-1.236144	9.662866	0.815873	-0.353219	-5.32272	0.219099	3.604328	-0.589979	-0.39937	-0.379696
-5.71963	1.248336	9.967794	-12.170089	-74.278482	66.069709	-0.149594	0.497374	-1.220705	-0.032891	-0.45999	10.639138	-2.75764	-35.057198	-4.317306	0.347598	-0.354732	-1.208449	9.791207	0.6436	0.187402	-4.631054	0.1651	6.108334	-0.575649	-0.385452	-0.333879
-7.800269	1.372955	11.860082	-24.895878	-93.750458	72.503584	-0.220583	0.513018	-1.222375	0.084287	-1.530485	10.640655	-3.610601	-38.992367	-4.511252	0.309701	-0.38131	-1.263013	9.67306	1.166802	0.247333	-3.420699	0.464917	7.111148	-0.603816	-0.400401	-0.364238
-13.925125	-0.518181	11.732975	-43.676788	-101.440725	94.870395	-0.207234	0.540186	-1.229555	-0.206389	-1.304719	10.521521	-4.271029	-42.45834	-5.748522	0.322457	-0.366987	-1.249943	9.14313	0.645333	0.235204	-2.42416	1.381111	7.5922	-0.576067	-0.417837	-0.332205
-15.471224	2.252959	14.726595	-47.319272	-88.92388	114.821821	-0.194628	0.560297	-1.208584	-0.439499	-1.079061	10.403596	-4.923032	-45.135737	-5.621524	0.309556	-0.351741	-1.250671	9.314676	0.643692	-0.061029	-0.659116	1.962963	8.133197	-0.617373	-0.386065	-0.33409
-14.078167	3.495089	9.928341	-46.882665	-71.670845	120.034736	-0.250353	0.551552	-1.217848	-0.270322	-1.135857	10.237256	-4.868047	-48.166608	-6.360646	0.335363	-0.322022	-1.23888	9.147532	0.646322	0.474832	0.186177	2.842031	9.195715	-0.603883	-0.418246	-0.332345
-8.402299	5.47086	16.355247	-16.826393	-58.634512	118.719599	-0.209863	0.550086	-1.166007	-0.142887	-1.248259	10.805975	-4.658273	-51.107979	-6.420544	0.309631	-0.336421	-1.251674	8.968823	0.413928	0.350728	0.816123	3.781507	10.258733	-0.575508	-0.387105	-0.302824
-8.12812	8.340559	15.861203	-7.95449	-49.053293	107.050496	-0.211392	0.587871	-1.162179	-0.149146	-1.135835	10.522872	-5.034059	-53.963419	-6.695852	0.270258	-0.368359	-1.23449	9.378094	0.644545	0.179699	0.736636	4.812101	11.140502	-0.575441	-0.36926	-0.334716
-8.5462	13.7949	15.194096	0.767551	-36.180771	68.061425	-0.197657	0.601267	-1.165944	-0.794801	-1.585815	9.886159	-4.37983	-55.949274	-6.622582	0.283459	-0.322323	-1.237777	9.138614	1.167275	0.057709	0.283773	5.413104	12.025679	-0.589837	-0.401023	-0.34864
-6.705198	15.404108	15.748162	42.84468	-11.913004	-8.014793	-0.168616	0.538378	-1.124827	0.261065	-1.136305	10.871172	-4.428988	-59.84326	-6.938777	0.310297	-0.318957	-1.281377	9.548655	0.119726	-0.238573	-0.052963	5.655662	12.117438	-0.590046	-0.417215	-0.347803
-9.275411	12.936952	15.915091	91.949442	20.485972	-91.101743	-0.181236	0.535566	-1.16329	0.313771	-1.756286	10.588661	-4.233991	-63.979009	-7.34966	0.244161	-0.33894	-1.221596	9.495701	0.353648	0.120757	-1.749471	5.433538	12.308039	-0.64526	-0.385647	-0.349758
-12.58182	6.035956	13.377982	157.735815	62.71458	-164.724267	-0.194213	0.511927	-1.170185	0.725969	-1.531339	11.05043	-2.880906	-69.386002	-8.142177	0.231851	-0.321551	-1.251023	9.309269	-0.345331	-0.48458	-4.154395	4.959097	12.991465	-0.547278	-0.33564	-0.351778
6.276872	22.30091	-7.839026	136.493666	136.511175	-156.862068	-0.192713	0.508741	-1.208997	0.327739	-1.474064	11.268573	-3.618145	-76.415347	-8.860014	0.257062	-0.354185	-1.220868	9.592825	0.348681	-1.015273	-6.612339	2.756987	12.124466	-0.617164	-0.369872	-0.334927
3.101221	-10.017553	9.864562	-94.313028	88.622415	-211.287781	-0.178192	0.477296	-1.188439	0.701905	-1.980595	12.578111	-3.496127	-86.375121	-10.192002	0.232071	-0.335799	-1.264369	10.351583	2.088217	-1.233178	-8.994166	-0.441519	4.1098	-0.589628	-0.38483	-0.349477
4.397143	16.453982	21.594751	57.178055	112.297201	-45.267211	-0.191956	0.498498	-1.219657	-0.14707	-1.978409	13.239652	-2.553542	-99.822568	-11.527152	0.257947	-0.35097	-1.263917	11.233854	3.363864	-1.211232	-11.659753	-5.339957	-8.204369	-0.602697	-0.338936	-0.305475
-2.913001	-5.270244	3.970886	50.59636	151.727078	-114.317642	-0.191556	0.467428	-1.19875	-0.626283	-2.708265	14.983983	-2.616056	-122.046745	-14.799938	0.193143	-0.336025	-1.263542	11.838976	2.610493	-0.484559	-8.49377	-10.529331	-8.099386	-0.602489	-0.322743	-0.306312
0.695091	6.152363	16.250923	-49.957603	105.313442	-9.675717	-0.1633	0.449379	-1.181956	-2.210195	0.394259	16.538651	-3.847488	-148.653299	-17.038206	0.154365	-0.305609	-1.264722	12.260623	2.727677	0.002893	-6.974233	-14.355865	4.59679	-0.561257	-0.335018	-0.367376
3.700384	0.029194	8.725125	16.027165	107.550838	-14.736494	-0.135088	0.483229	-1.217638	-1.642708	-0.003849	13.436439	-2.611776	-170.978798	-22.067981	0.140648	-0.338468	-1.23374	12.260468	2.320898	-0.058744	-9.399563	-18.479029	18.013007	-0.644496	-0.320051	-0.368634
1.972593	4.489265	17.121218	132.066565	25.359379	-38.338121	-0.122096	0.489568	-1.193251	-0.145317	-2.651991	15.956575	-0.424999	-196.357344	-28.267808	0.075699	-0.293954	-1.221022	11.425168	2.436962	-0.552911	-8.852934	-20.323848	19.150828	-0.589628	-0.38483	-0.349477
-0.944569	0.950168	8.297674	17.563868	7.956493	-16.820126	-0.078563	0.429832	-1.16656	-0.512418	-1.804809	17.704652	-3.827737	-223.880182	-32.582096	0.050413	-0.27664	-1.250174	10.894718	2.612653	-0.502166	-8.816053	-21.273284	10.41321	-0.60291	-0.336457	-0.352059
2.909838	-1.346652	9.215422	16.058038	12.666686	-9.991744	-0.106089	0.472237	-1.228997	0.207141	-2.311986	19.021443	-9.771276	-249.567974	-36.695171	0.049892	-0.323673	-1.232813	10.190501	2.324635	-0.336887	-9.338172	-20.319994	3.808594	-0.602839	-0.337283	-0.336531
2.467795	1.184968	10.126781	2.630053	7.578857	-3.196564	-0.077477	0.475016	-1.243771	-0.138837	-3.269053	18.900104	-24.558143	-285.831249	-42.985571	0.036621	-0.32482	-1.218188	10.127913	2.44018	-0.517214	-9.885688	-20.277438	-0.499049	-0.589282	-0.351619	-0.366679
1.894468	0.725609	10.056863	19.161005	7.301122	-7.174283	-0.136231	0.507242	-1.210394	1.145337	-4.568794	16.944432	-33.12142	-306.183	-47.571645	-0.067036	-0.29478	-1.217989	10.542572	3.194965	-0.326576	-9.318545	-21.233269	-2.513667	-0.617235	-0.369046	-0.350455
2.729819	0.834804	8.880133	11.642309	3.791144	-4.296133	-0.106832	0.46518	-1.200845	0.86406	-3.326267	20.0534	-38.154114	-311.913956	-59.438465	-0.106555	-0.297148	-1.188463	10.301701	3.368744	-0.569864	-3.943491	-22.075	-5.035196	-0.616818	-0.336661	-0.352129
2.51408	0.952748	9.558399	8.604956	2.503428	-3.112242	-0.146536	0.421805	-1.228362	0.662121	-0.679358	18.91921	-34.622095	-323.3531	-60.258102	-0.171359	-0.282203	-1.188088	11.024896	3.544813	0.28278	0.724721	-24.196275	-5.317032	-0.617373	-0.386065	-0.33409
2.739301	1.583715	9.394948	6.636189	1.607921	-3.550488	-0.119038	0.413999	-1.200908	0.75137	-2.706274	20.221423	-33.259432	-318.608421	-64.402021	-0.212354	-0.289932	-1.086812	10.851959	3.197504	0.457716	3.76357	-26.36344	-4.675898	-0.630305	-0.323151	-0.306453
2.504923	1.295467	9.105022	7.283448	1.631575	-2.662581	-0.105689	0.441166	-1.208089	-1.059537	-2.816637	18.937781	-13.400688	-331.194613	-64.850004	-0.276348	-0.287091	-1.128483	10.679582	3.082746	0.693548	4.854447	-25.388413	-3.951019	-0.58914	-0.353272	-0.335624
2.681141	1.296307	9.335775	3.79038	1.11243	-1.679576	-0.119795	0.424242	-1.190248	-2.259241	-4.447721	19.194216	-2.514984	-327.856271	-65.578724	-0.303035	-0.259816	-1.086889	9.906715	2.676486	0.31807	4.786997	-22.704511	-3.260659	-0.616468	-0.322121	-0.32191
2.614688	1.69651	8.881525	-1.11404	0.090125	-0.271341	-0.10456	0.434452	-1.232825	-2.220286	-5.462585	18.231698	0.751573	-331.490289	-71.992692	-0.342703	-0.292826	-1.055355	9.72785	2.037313	0.132328	4.813546	-18.998607	-3.767435	-0.603186	-0.370494	-0.319329
2.573727	0.723423	9.672253	-2.461839	-0.012191	0.068224	-0.105703	0.458466	-1.225581	-5.31501	-5.965602	16.071534	-2.896134	-340.265669	-85.583275	-0.394758	-0.323767	-1.052245	9.78428	2.675767	0.076241	5.891475	-14.797887	-4.433187	-0.603048	-0.353476	-0.335694
2.515276	0.838106	9.614769	-1.90937	0.019379	0.220486	-0.091954	0.454563	-1.211854	-8.671246	-2.479111	2.02042	-24.292349	-363.23046	-106.602457	-0.474385	-0.330648	-0.964492	9.429198	2.153398	-0.0524	6.934247	-10.868363	-5.494814	-0.602906	-0.355128	-0.304638
2.802538	1.010464	9.677913	-0.59456	-0.09079	-0.36778	-0.077077	0.443946	-1.222863	-16.724642	1.385445	-40.662553	84.940169	-208.088535	-77.78946	-0.500852	-0.317622	-0.936245	9.369372	2.501989	-0.052017	8.31439	-6.99618	-6.80187	-0.630793	-0.35471	-0.320306
3.031597	0.952857	9.682126	1.795905	0.2336	-0.890746	-0.105332	0.461994	-1.239657	-20.247961	-3.077367	1.43707	9.094994	173.08733	-29.118475	-0.540445	-0.335311	-0.905715	9.601149	1.977529	-0.349375	9.745845	-4.501126	-8.010843	-0.616601	-0.357811	-0.258125
2.34343	0.953113	9.611911	2.989919	0.274084	-1.261542	-0.106461	0.468708	-1.214921	-11.004385	-7.813602	16.233485	-5.469093	236.221084	-41.294446	-0.501222	-0.334014	-0.920892	9.592096	2.556559	-0.766251	10.880217	-2.991022	-5.760629	-0.63086	-0.372555	-0.288414
2.911479	1.009175	9.395875	4.861265	0.840853	-1.687073	-0.104946	0.448223	-1.236241	-1.733501	-4.509458	14.166542	68.971133	183.281308	-95.148531	-0.421966	-0.343525	-0.993291	10.017314	2.558333	-0.099572	10.984351	-1.367262	-5.982685	-0.644973	-0.407623	-0.240226
2.458887	1.183038	9.671956	5.413132	1.0306	-1.930924	-0.122839	0.482512	-1.165099	-5.345004	-0.737111	4.356382	88.432733	145.386902	-117.94804	-0.448583	-0.361139	-0.963037	9.494142	2.445127	0.309378	11.307146	0.593458	-6.176579	-0.61772	-0.419276	-0.316888
2.800021	1.412073	9.565896	6.730123	1.28956	-2.543873	-0.133173	0.431673	-1.218051	-11.203459	-1.800692	-0.636415	52.035748	181.90168	-99.706736	-0.383484	-0.375012	-0.977761	9.779838	1.745067	-0.287156	10.498908	2.282999	-4.195211	-0.603391	-0.405358	-0.271071
2.737074	1.583232	9.281241	6.943351	1.106519	-2.57813	-0.119067	0.448598	-1.235892	-11.782359	-1.513335	4.616798	50.224306	242.419991	-57.309418	-0.369923	-0.433003	-1.017072	9.191898	2.211767	-0.116461	9.619367	3.028139	-2.606355	-0.588786	-0.357403	-0.257984
2.511812	1.009707	9.444934	5.626135	1.098628	-2.421124	-0.091969	0.471862	-1.229346	-8.579321	-1.628117	9.099873	76.038515	269.990219	-19.005956	-0.330625	-0.416386	-1.033252	9.14043	1.806853	0.240149	8.73192	4.285108	-3.189821	-0.603741	-0.419898	-0.30129
2.222116	1.124073	9.26929	4.711024	1.613993	-2.164767	-0.105718	0.475765	-1.243073	-5.859962	-2.761703	7.004647	69.197573	273.844652	10.436677	-0.252844	-0.431256	-1.033903	9.439372	2.039471	0.486268	7.193405	5.515472	-4.382037	-0.617231	-0.387717	-0.303034
2.68807	0.953106	9.675445	3.762475	1.636464	-1.82432	-0.106461	0.468708	-1.214921	-4.497542	-3.497393	6.070171	44.793743	280.21596	32.831833	-0.213031	-0.427815	-1.077779	8.726351	1.749475	0.172292	6.429588	6.617113	-4.690146	-0.631002	-0.370903	-0.319469
2.340747	1.584488	9.500859	3.119185	1.757777	-1.94317	-0.093098	0.478577	-1.20461	-3.731382	-3.329091	6.935624	26.32671	289.122295	48.783455	-0.149332	-0.431728	-1.021759	8.727181	1.865875	0.232693	6.313356	7.410452	-4.540702	-0.63086	-0.372555	-0.288414
2.334522	0.951183	9.157086	3.366538	2.003036	-1.786555	-0.106075	0.454937	-1.211505	-2.200965	-3.893918	8.49585	13.786191	292.276051	57.129247	-0.13628	-0.416332	-1.023039	8.839691	1.399513	-0.126525	6.073847	7.954841	-4.022881	-0.602627	-0.339762	-0.289947
2.453278	1.239273	9.387932	3.554048	2.49421	-1.656439	-0.120181	0.438013	-1.193664	-0.453559	-3.840015	9.495038	3.183023	289.259137	57.953946	-0.082831	-0.455562	-1.107229	9.543753	1.280752	-0.353442	5.429882	8.380471	-3.992018	-0.603182	-0.389166	-0.271908
2.513257	0.550416	9.499856	5.699574	3.035701	-2.45119	-0.133945	0.459215	-1.224882	0.767942	-4.123457	10.086584	-6.620189	282.818158	50.266531	-0.018391	-0.42669	-1.081916	8.7683	1.51308	-0.786107	4.312727	8.452162	-5.394154	-0.617023	-0.371525	-0.303871
3.48522	0.894119	9.46338	4.597817	3.213896	-2.353118	-0.104575	0.451751	-1.250317	1.530452	-4.57498	10.724956	-18.909778	274.870446	38.739233	0.007485	-0.44186	-1.081463	9.186105	1.861828	-0.477386	2.879926	7.57411	-6.760038	-0.588998	-0.354924	-0.304568
3.309826	1.29561	9.29117	4.321043	3.121457	-2.445828	-0.105703	0.458466	-1.225581	0.970967	-4.178925	11.506154	-34.338291	265.876595	31.268807	0.020016	-0.473498	-1.065382	8.828437	1.978048	-0.663215	2.011039	6.525875	-6.262909	-0.630718	-0.374208	-0.257358
2.514779	1.527404	9.617665	4.169435	3.585538	-2.775202	-0.105289	0.410096	-1.187181	0.340081	-3.501631	11.663343	-45.682826	253.386174	32.676782	0.073772	-0.391236	-1.143252	8.94757	1.978025	-0.601107	1.079206	5.293568	-5.73411	-0.589207	-0.371117	-0.303731
2.913416	1.411749	9.51127	3.894722	3.643627	-2.589456	-0.106046	0.420339	-1.176521	0.532981	-3.951839	12.572824	-53.032899	235.106028	42.169564	0.137835	-0.438966	-1.11292	8.954713	1.747205	-0.242655	0.888786	3.688653	-4.411611	-0.589553	-0.404328	-0.286529
2.755388	0.897794	10.187995	7.230561	4.111018	-4.492915	-0.090811	0.430549	-1.219098	0.944016	-2.487574	13.092276	-63.333396	213.691177	56.746976	0.164013	-0.392855	-1.116483	8.659632	1.74788	-0.248157	0.663676	2.277269	-4.06788	-0.588786	-0.357403	-0.257984
2.9128	0.722209	9.451522	7.545453	4.588853	-3.136635	-0.134702	0.469458	-1.214222	1.409914	-2.769899	13.328269	-72.071146	186.757588	74.847734	0.189965	-0.392705	-1.117034	9.307149	1.513596	-0.356855	0.443439	1.632846	-3.941759	-0.60256	-0.321917	-0.32184
3.021534	1.008127	9.17069	5.008261	4.370338	-1.17011	-0.078205	0.45066	-1.198127	1.328823	-3.5007	14.854504	-81.604576	158.060799	93.36267	0.254625	-0.378081	-1.105067	9.125563	1.571088	-0.599537	0.500534	0.989738	-3.847211	-0.589416	-0.387309	-0.302894
3.083693	1.928357	9.45993	2.82098	3.297444	-2.315977	-0.104546	0.417153	-1.215333	1.997155	-4.40423	13.73546	-92.759747	139.679497	104.671875	0.216287	-0.376162	-1.132939	9.539217	1.337839	-0.592822	0.839409	0.463685	-3.143002	-0.658817	-0.371311	-0.31961
1.535638	1.871552	9.315918	4.006024	2.643966	-3.832765	-0.104546	0.417153	-1.215333	2.017275	-4.178101	14.698523	-106.112429	137.141207	106.208432	0.242905	-0.358548	-1.163193	8.952627	1.223779	-0.424601	0.656293	0.211053	-2.438202	-0.631139	-0.387921	-0.303104
2.509046	1.755964	9.334365	6.218843	3.856968	-4.187444	-0.105303	0.427395	-1.204673	3.072625	-2.827255	15.740934	-96.510608	134.160116	107.512374	0.25514	-0.391258	-1.132762	8.901719	1.051416	-0.007094	0.934939	0.613498	-2.807879	-0.616605	-0.33914	-0.305545
2.911106	1.526149	9.398047	2.728615	3.861653	-3.3186	-0.118667	0.417527	-1.214984	4.918776	-3.055884	15.949348	-86.758291	120.419648	100.476528	0.294293	-0.345071	-1.136601	9.19709	1.399444	0.059798	1.218681	1.192546	-2.506048	-0.644976	-0.388952	-0.287647
2.23655	1.184651	10.008621	6.731981	3.318751	-5.301746	-0.106075	0.454937	-1.211505	7.281591	-3.172869	16.112098	-84.716239	102.279496	85.682403	0.3072	-0.300107	-1.125537	9.01811	1.283203	-0.063812	1.503764	1.70695	-1.867726	-0.589207	-0.371117	-0.303731
1.64359	1.697697	8.976302	3.053254	5.250302	-0.966172	-0.118667	0.417527	-1.214984	7.783402	-3.512486	15.329739	-84.389346	87.132465	64.103209	0.346278	-0.269241	-1.128372	8.966257	1.517373	0.355425	1.667775	2.123467	-0.678367	-0.603115	-0.371321	-0.303801
3.878621	0.317725	9.07079	5.528271	4.657349	-1.872311	-0.120196	0.455312	-1.211156	8.988865	-3.627553	15.185113	-87.536282	80.387728	39.522697	0.333817	-0.282492	-1.155792	8.953032	1.049551	-0.425342	2.636694	2.847193	0.659436	-0.617369	-0.404736	-0.286669
2.626362	0.952182	9.446919	7.971113	4.538085	-3.9054	-0.089282	0.392764	-1.222927	8.636266	-2.387825	14.952344	-94.556758	83.255072	23.205663	0.334188	-0.2661	-1.171145	8.961005	0.935129	-0.006489	2.833499	3.384293	2.031504	-0.617578	-0.420928	-0.285832
1.31763	2.046455	9.880719	4.565916	4.813733	-5.209875	-0.105303	0.427395	-1.204673	8.472856	-0.922433	15.516346	-95.153797	89.430246	19.690409	0.359769	-0.282342	-1.156343	8.953032	1.049551	-0.425342	3.275613	3.707521	3.464847	-0.589207	-0.371117	-0.303731
1.002076	2.499922	8.398901	1.740801	6.011038	-0.827358	-0.091569	0.440792	-1.208438	9.209788	-0.642609	15.022543	-95.040607	98.776632	24.654548	0.346869	-0.267097	-1.157071	9.194598	1.050247	-0.121406	3.373163	3.729302	4.350741	-0.630655	-0.337691	-0.336671
0.330902	2.101706	9.179794	2.587403	4.326912	-1.041175	-0.075919	0.402632	-1.212616	3.935836	-0.984032	-0.261121	29.471591	50.510909	16.967988	0.386537	-0.234087	-1.188605	8.967607	0.936612	0.352953	3.77216	3.796337	3.921082	-0.602627	-0.339762	-0.289947
1.294745	1.35209	8.683908	0.51162	5.169662	-0.316138	-0.090826	0.447848	-1.23659	17.931013	0.302305	19.339377	-104.534845	43.329252	34.947432	0.398998	-0.220836	-1.161185	8.963786	1.63303	0.236106	4.172048	3.954827	3.521548	-0.631139	-0.387921	-0.303104
2.219392	1.812889	9.158479	3.596559	4.807553	-2.355003	-0.104532	0.399853	-1.197842	18.390987	1.367049	14.028244	-57.421023	55.47192	41.364698	0.399224	-0.174874	-1.164196	8.954557	1.340425	-0.304292	4.940612	3.775635	3.366801	-0.603182	-0.389166	-0.271908
2.517379	1.010913	9.729199	1.212852	4.71407	-0.509569	-0.133173	0.431673	-1.218051	20.078925	0.51963	14.855546	-1.882275	36.147507	47.969114	0.399588	-0.218692	-1.189885	9.137803	1.515732	0.059192	5.316599	3.703491	4.557774	-0.630442	-0.34017	-0.290088
2.223105	1.296639	9.326867	-0.436118	4.501096	1.331788	-0.119424	0.42777	-1.204324	21.260609	1.701696	16.409989	-13.512689	3.062837	44.794258	0.438076	-0.18997	-1.16402	9.49163	1.631073	0.066289	4.742951	3.647152	6.85244	-0.603044	-0.372147	-0.288273
