1824_acc_x	1824_acc_y	1824_acc_z	1824_gyro_x	1824_gyro_y	1824_gyro_z	1824_mag_x	1824_mag_y	1824_mag_z	1825_acc_x	1825_acc_y	1825_acc_z	1825_gyro_x	1825_gyro_y	1825_gyro_z	1825_mag_x	1825_mag_y	1825_mag_z	1826_acc_x	1826_acc_y	1826_acc_z	1826_gyro_x	1826_gyro_y	1826_gyro_z	1826_mag_x	1826_mag_y	1826_mag_z
-0.2543	-0.3384	9.827	1.3176	-0.6135	-1.014	-1.0126	0.2208	-2.5906	2.0855	1.3443	9.8677	-1.1889	1.2233	-0.1539	0.4383	-0.3302	-1.0807	9.6556	0.5954	-0.7322	0.9652	0.8671	1.0843	-1.2777	0.3081	0.5175
-0.3092	-0.342	10.1179	0.8289	-0.6208	-0.4852	-0.2977	0.4957	-0.4529	2.0799	1.4005	9.575	-1.2818	1.2853	-0.0309	0.4383	-0.3482	-0.7385	9.6583	0.0837	-0.6182	1.1177	1.0351	-0.0252	-1.2735	-0.066	-0.0093
-0.1958	0.0708	9.7645	0.5236	-0.5024	-0.325	-0.2823	0.4547	-0.5202	2.0194	1.3423	9.3979	-1.0649	1.1936	-0.1545	0.4323	-0.3602	-0.7325	9.9373	-0.2581	-0.8994	1.357	1.3889	-1.3508	-1.3053	-0.0852	0.025
-0.6765	-0.5122	9.7633	0.407	-0.322	0.0494	-0.3171	0.4764	-0.4881	2.247	1.5717	9.3448	-1.1179	0.8865	0.1242	0.4203	-0.3662	-0.7265	9.7068	0.0264	-1.075	1.6293	1.4833	-1.5733	-1.2414	-0.0835	0.0441
-0.3143	0.3029	9.8762	0.1367	-0.0819	0.3963	-0.2787	0.4955	-0.4351	2.4802	1.8024	9.5845	-1.2117	0.9156	0.0324	0.4323	-0.3422	-0.7325	9.6458	0.0263	-1.305	1.9796	1.6008	-1.2756	-1.2896	-0.0667	-0.0274
-0.621	-0.1592	9.5264	0.2341	0.1632	0.4619	-0.2972	0.4573	-0.4709	2.3101	1.4004	9.638	-0.9605	0.7017	0.0322	0.4443	-0.3542	-0.7385	9.7026	0.0262	-1.304	2.0608	1.4395	-0.634	-1.2885	-0.0461	0.0443
-0.3155	-0.396	9.7682	0.0842	0.3136	0.6516	-0.3717	0.5171	-0.4733	2.0788	1.4002	9.5164	-0.8025	0.5811	0.1856	0.4503	-0.3422	-0.7385	9.6489	0.0833	-1.1333	2.2893	1.6169	-0.2707	-1.3214	-0.0859	0.0069
-0.3164	0.246	9.7602	0.1458	0.2835	0.6809	-0.3186	0.5142	-0.4869	2.4886	1.4016	9.9928	-0.8662	0.6414	0.0935	0.4443	-0.3542	-0.7325	9.704	-0.2581	-1.2469	2.5694	1.464	-0.2188	-1.3047	-0.0656	0.0434
-0.0109	0.0092	10.002	-0.0687	0.2498	0.8982	-0.3008	0.4939	-0.5033	2.3685	1.4005	9.6977	-0.8331	0.5492	0.1245	0.4383	-0.3422	-0.7385	9.7598	0.538	-1.2453	2.3864	1.7673	-0.1494	-1.336	-0.0468	0.0611
-0.3132	0.2438	9.9354	0.1206	0.5269	0.8403	-0.3665	0.4428	-0.4421	1.9611	1.2271	9.3377	-0.5226	0.4917	0.246	0.4443	-0.3542	-0.7385	10.0459	0.3102	-1.1258	2.6047	1.6753	-0.0953	-1.3212	-0.0855	0.0247
-0.4426	-0.0996	9.4121	-0.314	0.4312	0.7821	-0.3014	0.5323	-0.4853	2.5865	1.5126	9.1168	-0.3725	0.6152	0.06	0.4443	-0.3602	-0.7325	9.99	-0.3721	-1.1274	2.5964	1.4049	-0.343	-1.2894	-0.0848	0.0253
-0.439	0.3644	9.6398	-0.4047	0.5524	0.7859	-0.3374	0.5338	-0.4874	2.2442	1.2834	9.1677	-0.4663	0.6761	0.0602	0.4323	-0.3422	-0.7445	9.705	-0.2581	-1.1897	2.585	1.3797	-0.7116	-1.306	-0.105	-0.0112
-0.7369	-0.337	9.7601	-0.1279	0.6173	0.5686	-0.3336	0.5167	-0.4377	2.2563	1.2862	9.8121	-0.3061	0.4948	0.3369	0.4323	-0.3422	-0.7385	9.9293	0.2534	-1.2996	2.6037	1.0502	-1.0835	-1.2582	-0.104	-0.0102
-0.1968	0.0715	9.7061	0.9227	-0.3743	-0.7578	-0.3367	0.515	-0.488	1.9081	1.3433	9.5715	-0.3381	0.5248	0.2754	0.4443	-0.3482	-0.7205	10.2731	0.1394	-1.1217	2.4492	1.1414	-1.0782	-1.2895	-0.0852	0.0075
-0.7483	0.3123	9.168	1.7293	-0.2753	-0.5813	-0.3709	0.4983	-0.4739	2.3186	1.575	10.1074	-0.6793	0.7092	0.5222	0.4383	-0.3362	-0.7385	9.8718	0.0259	-1.3581	2.3253	1.4462	-1.1028	-1.2728	-0.0462	0.0269
-0.0745	0.1866	9.8235	0.3384	-0.4428	-0.4137	-0.3019	0.4933	-0.52	2.5356	1.6293	9.4677	-0.837	0.9255	0.6754	0.4563	-0.3602	-0.7385	9.9965	0.2538	-0.7262	2.6051	1.5067	-1.0799	-1.321	-0.0667	0.0075
-0.5595	-0.3351	9.5881	0.1583	-0.3238	-0.1013	-0.3709	0.4983	-0.4739	2.1349	1.3999	9.459	-1.1515	1.0731	0.2769	0.4443	-0.3482	-0.7445	9.7025	0.1399	-1.3039	2.5047	1.8149	-1.351	-1.3053	-0.0667	-0.0099
-0.676	-0.046	9.8159	0.3161	-0.2621	0.1134	-0.3707	0.5177	-0.4565	2.2511	1.1124	9.5185	-1.3669	1.1033	0.4317	0.4323	-0.3542	-0.7145	9.4745	0.0833	-1.3653	2.4859	1.7933	-1.9652	-1.3048	-0.0472	0.0084
-0.4307	-0.3411	10.0574	0.2233	-0.3245	0.2054	-0.2802	0.5332	-0.434	2.3105	1.1703	9.637	-1.4053	1.3474	0.1231	0.4383	-0.3362	-0.7265	9.817	0.1398	-1.2446	2.3047	1.7751	-2.8203	-1.2411	-0.0458	0.0097
-0.3227	0.2504	9.4098	0.1597	-0.2628	-0.0692	-0.3738	0.5159	-0.5068	2.4281	2.0339	9.8774	-1.2527	1.4105	0.0911	0.4503	-0.3302	-0.7325	9.9334	0.3104	-1.0706	1.9792	1.7824	-3.3329	-1.3046	-0.0284	-0.0087
-0.1859	0.5887	10.3419	0.4339	-0.443	-0.1381	-0.3681	0.4806	-0.4409	2.0826	1.056	9.6906	-1.1353	1.6899	0.0888	0.4383	-0.3542	-0.7385	10.3822	0.3096	-1.3485	1.7908	1.8445	-3.4189	-1.2731	-0.0653	0.0262
-0.6778	-0.3364	9.7027	-0.244	-0.4506	0.024	-0.3727	0.5165	-0.49	2.3101	1.4004	9.638	-0.9486	1.5352	-0.1265	0.4323	-0.3422	-0.7265	9.3694	0.0269	-0.9096	1.6981	1.6006	-3.3874	-1.3056	-0.0859	-0.0106
-0.1322	-0.1066	9.9429	-0.2049	-0.1768	0.3678	-0.3573	0.5529	-0.5046	2.201	1.4019	9.9287	-0.6465	1.8163	-0.1607	0.4323	-0.3542	-0.7445	10.0442	-0.0311	-1.2405	1.5762	1.5996	-3.3223	-1.274	-0.104	0.0072
-0.38	-0.3346	9.5328	-0.2009	0.0061	0.464	-0.3529	0.4975	-0.4728	2.2559	1.5163	9.8132	-0.8863	1.5049	-0.1267	0.4383	-0.3542	-0.7385	9.5915	0.5951	-1.1339	1.4761	1.3896	-3.5361	-1.3053	-0.0667	-0.0099
-0.5514	-0.1075	10.0523	-0.3553	0.0045	0.4659	-0.3158	0.4965	-0.454	2.2003	1.1716	9.8691	-0.8861	1.4734	-0.1879	0.4263	-0.3662	-0.7385	9.7607	-0.2013	-1.2459	1.2684	1.2779	-4.2375	-1.3205	-0.0472	0.0259
-0.4341	-0.1638	9.88	-0.2354	-0.0543	0.2171	-0.315	0.4776	-0.4546	2.4776	1.3991	9.407	-0.7872	1.2603	0.0586	0.4443	-0.3542	-0.7265	9.4783	0.3678	-1.1362	0.9903	1.1556	-4.1994	-1.2897	-0.104	0.0247
-0.5533	-0.2228	9.937	0.0099	-0.0818	0.0904	-0.2967	0.4963	-0.4362	2.4847	1.113	9.7572	-0.576	1.4153	-0.128	0.4203	-0.3422	-0.7385	10.0428	0.2532	-1.2975	0.7544	0.9977	-3.7942	-1.2906	-0.1242	-0.0292
-0.5601	0.0735	9.5829	0.1571	-0.4156	-0.0725	-0.3147	0.4971	-0.4372	2.0777	1.4	9.4579	-0.7009	1.412	-0.3423	0.4323	-0.3482	-0.7265	10.271	0.1961	-1.2362	0.5876	1.0497	-3.1742	-1.2731	-0.0653	0.0262
-0.1977	-0.0445	9.6491	0.1192	-0.6591	-0.3541	-0.3204	0.5324	-0.5031	2.3681	1.6306	9.6987	-0.5463	1.446	-0.1898	0.4263	-0.3422	-0.7325	9.9296	0.0259	-1.2998	0.3485	0.8018	-2.8617	-1.3217	-0.105	0.0063
-0.5588	-0.044	9.6428	0.3413	-0.444	-0.1369	-0.3171	0.4764	-0.4881	2.1901	1.3418	9.3426	-0.6402	1.475	-0.2816	0.4323	-0.3542	-0.7205	10.1532	-0.6001	-1.525	0.3175	0.7713	-2.8611	-1.3054	-0.0855	0.0072
-0.0754	0.0706	9.7666	-0.0926	-0.5708	-0.0727	-0.333	0.4784	-0.4556	2.2442	1.2834	9.1677	-0.795	1.5044	-0.2809	0.4383	-0.3302	-0.7505	10.0461	0.1396	-1.1259	0.0467	0.9039	-3.6201	-1.2889	-0.0468	0.0088
-0.5062	0.0778	9.2336	0.005	-0.3566	0.0537	-0.2977	0.4957	-0.4529	2.6016	1.0559	9.8763	-0.9487	1.4398	-0.4025	0.4383	-0.3482	-0.7325	9.938	0.0263	-0.8419	0.1254	0.5753	-4.0553	-1.2895	-0.0852	0.0075
-0.0751	-0.1628	9.7695	0.1627	-0.141	0.0257	-0.3315	0.4406	-0.4568	2.3025	1.3411	9.2277	-0.7313	1.4123	-0.2807	0.4323	-0.3422	-0.7445	9.4853	-0.2575	-0.7933	0.0012	0.4535	-4.0525	-1.3061	-0.1423	0.0409
-0.131	-0.1657	10.0021	-0.1152	-0.2362	0.1808	-0.3374	0.5338	-0.4874	2.0229	1.1706	9.5729	-0.8223	1.2862	-0.433	0.4323	-0.3482	-0.7265	9.9373	-0.2581	-0.8994	0.0707	0.1757	-3.7803	-1.2891	-0.0472	-0.009
-0.2578	-0.1611	9.6496	-0.3556	0.0047	0.4351	-0.3338	0.4973	-0.455	2.6551	1.3425	9.7029	-0.6355	1.2269	-0.3723	0.4383	-0.3542	-0.7265	9.9348	0.083	-1.0136	0.3046	-0.0455	-3.2052	-1.2895	-0.0852	0.0075
-0.504	0.0179	9.3511	-0.4485	0.0345	0.3754	-0.3168	0.4959	-0.4708	2.1401	0.9408	9.6912	-0.4747	1.0147	-0.0954	0.4263	-0.3542	-0.7265	9.7614	0.0262	-1.1885	0.2702	-0.2573	-3.2981	-1.2584	-0.1044	-0.028
-0.5039	-0.0988	9.3526	-0.3809	0.1251	0.7763	-0.3186	0.5142	-0.4869	2.2536	1.5733	9.6963	-0.2582	0.986	-0.0965	0.4263	-0.3542	-0.7445	9.7066	0.1401	-1.0749	0.1803	-0.1978	-3.2027	-1.2584	-0.1413	0.0419
-0.1358	0.2458	9.7633	-0.5412	-0.0279	0.4675	-0.3704	0.4599	-0.4918	2.4834	1.2278	9.6991	0.1117	0.8943	-0.3747	0.4383	-0.3482	-0.7265	9.7127	0.311	-0.7314	-0.0023	-0.0774	-3.1041	-1.3054	-0.104	0.0421
-0.2561	0.1876	9.762	-0.5401	0.0332	0.4688	-0.3712	0.4788	-0.4912	2.4807	1.5149	9.5832	0.2068	0.7716	-0.3746	0.4443	-0.3362	-0.7385	9.9366	0.2537	-0.899	-0.4666	0.2272	-3.1185	-1.3206	-0.0845	0.078
-0.257	0.0716	9.705	-0.3894	-0.0868	0.3105	-0.3717	0.5171	-0.4733	2.2535	1.6883	9.6968	-0.2538	0.7693	-0.126	0.4323	-0.3662	-0.7265	10.0483	0.026	-1.0115	-0.6214	0.5319	-3.1422	-1.2582	-0.104	-0.0102
-0.3806	0.0739	9.5277	-0.5123	-0.0883	0.3736	-0.2998	0.4945	-0.4865	2.1974	1.6311	9.754	-0.6238	0.7655	-0.1238	0.4443	-0.3602	-0.7205	9.7036	0.0831	-1.2467	-0.9156	0.661	-3.6547	-1.2899	-0.1044	0.0069
-0.1374	-0.1613	9.6517	-0.6076	-0.1496	0.2197	-0.3011	0.4744	-0.5206	1.8467	1.1698	9.3353	-0.7526	1.0748	0.0287	0.4203	-0.3542	-0.7265	9.5944	-0.0872	-1.02	-1.3945	0.82	-4.1308	-1.3058	-0.1047	0.0066
-0.4476	-0.3294	9.123	-0.7915	-0.0291	0.1631	-0.3137	0.4977	-0.4204	2.3096	1.6879	9.6393	-1.0922	1.0708	-0.0307	0.4323	-0.3482	-0.7265	10.0466	0.5946	-1.0683	-1.5579	1.0678	-4.4312	-1.3051	-0.0663	0.0078
-0.615	0.0699	9.8739	-0.6633	0.1548	0.3192	-0.3387	0.5138	-0.5215	2.1378	0.9978	9.5743	-1.0893	0.9474	0.0008	0.4503	-0.3602	-0.7265	9.3126	0.027	-0.9106	-1.9259	0.9746	-4.298	-1.289	-0.0657	0.0259
-0.562	-0.0418	9.4676	-0.8167	0.2144	0.3224	-0.3166	0.5154	-0.4534	2.3674	1.4003	9.6391	-1.0015	1.0694	-0.2771	0.4263	-0.3482	-0.7445	9.19	-0.2008	-1.428	-2.0632	0.8749	-3.7109	-1.2745	-0.1235	-0.0111
-0.372	0.0097	9.9956	-0.7212	0.4602	0.2036	-0.3513	0.4597	-0.474	2.2502	1.63	9.5208	-0.5675	0.9498	-0.3096	0.4383	-0.3482	-0.7385	9.5919	0.3108	-1.1341	-2.2809	0.8303	-2.7214	-1.2729	-0.065	0.044
-0.5576	-0.1615	9.7027	-0.4715	0.4616	0.4465	-0.3377	0.5144	-0.5047	1.8462	1.4574	9.3366	-0.231	1.077	-0.3123	0.4443	-0.3362	-0.7385	9.938	0.0263	-0.8419	-2.6317	0.851	-2.0347	-1.3056	-0.0859	-0.0106
-0.3145	-0.3383	9.8259	-0.4423	0.4011	0.3833	-0.2969	0.4768	-0.4535	2.365	1.5148	9.5225	-0.0132	0.9546	-0.4051	0.4323	-0.3422	-0.7325	9.5293	-0.0306	-1.4788	-2.707	0.7513	-1.4494	-1.2574	-0.0838	0.0437
-0.2585	-0.3939	9.5941	-0.4725	0.462	0.3542	-0.2972	0.4573	-0.4709	2.0208	1.1125	9.4555	0.1441	0.8649	-0.2518	0.4263	-0.3422	-0.7445	9.816	0.1398	-1.3018	-2.7482	0.7721	-0.772	-1.2576	-0.0657	-0.009
-0.5007	-0.101	9.5278	-0.4697	0.4916	0.5701	-0.3152	0.4581	-0.4719	2.0821	1.401	9.6922	0.1145	0.771	-0.3433	0.4383	-0.3482	-0.7445	9.882	0.2538	-0.7856	-2.5173	0.796	-0.3178	-1.2745	-0.1235	-0.0111
-0.6737	-0.2226	9.9349	-0.598	0.3078	0.414	-0.3341	0.4778	-0.4724	1.8467	1.1698	9.3353	-0.1942	0.799	-0.3109	0.4383	-0.3542	-0.7325	9.6981	0.3104	-1.5327	-2.7003	0.7642	-0.2204	-1.3056	-0.1043	0.0244
-0.0816	-0.0417	9.4177	-0.5347	0.4001	0.4152	-0.2477	0.4909	-0.5169	2.3111	1.4582	9.6968	-0.0693	0.707	-0.3726	0.4443	-0.3542	-0.7205	9.6572	0.0836	-0.6754	-2.6423	0.7355	-0.3453	-1.3374	-0.105	0.0237
-0.1958	0.0708	9.7645	-0.656	0.5517	0.3893	-0.3374	0.5338	-0.4874	2.1952	1.6306	9.6368	-0.0349	0.6166	-0.1571	0.4323	-0.3362	-0.7505	10.1639	0.0828	-0.8949	-2.4387	0.7417	-0.7815	-1.2889	-0.0468	0.0088
-0.4989	-0.627	9.5928	-0.7442	0.795	0.4264	-0.3346	0.5161	-0.4544	2.4197	1.1113	9.346	-0.218	0.4584	-0.3395	0.4323	-0.3362	-0.7385	9.533	0.3676	-1.2496	-2.0071	0.7732	-0.8556	-1.2743	-0.1232	0.0066
-0.5557	-0.0462	9.818	-0.4355	0.7674	0.4527	-0.3356	0.5156	-0.4712	2.3621	1.284	9.3457	-0.0339	0.5227	-0.2795	0.4323	-0.3542	-0.7325	9.8283	0.254	-0.6149	-1.5648	0.6168	-0.5628	-1.2899	-0.1044	0.0069
-0.1408	0.016	9.4743	-0.1869	0.8001	0.5425	-0.3165	0.438	-0.5061	2.1395	1.2859	9.6928	0.3059	0.4952	-0.2813	0.4443	-0.3602	-0.7265	9.7127	0.311	-0.7314	-1.2413	0.5495	-0.1121	-1.2892	-0.066	0.0081
-0.5605	-0.3927	9.5304	-0.1251	0.8622	0.4508	-0.298	0.4762	-0.4703	2.2536	1.6308	9.6965	0.5874	0.3444	-0.1899	0.4443	-0.3422	-0.7385	10.1609	-0.0311	-1.0667	-0.7942	0.4214	0.3344	-1.29	-0.1232	0.0241
-0.2016	-0.3334	9.4192	-0.2198	0.7391	0.4493	-0.3202	0.5519	-0.4858	1.9627	1.6302	9.4567	0.4346	0.281	-0.1886	0.4323	-0.3482	-0.7385	9.5409	0.7092	-0.7915	-0.5633	0.4453	0.7886	-1.2743	-0.1047	-0.0283
-0.8543	-0.164	9.931	-0.098	0.618	0.4759	-0.3549	0.4963	-0.5064	2.4226	1.3422	9.5228	0.4395	0.1285	0.0274	0.4443	-0.3482	-0.7085	9.8827	0.4814	-0.7282	-0.1901	0.4141	0.8387	-1.2892	-0.0845	0.0431
-0.3128	-0.048	9.939	0.0528	0.498	0.3177	-0.3158	0.4965	-0.454	2.2543	1.1707	9.6945	0.0968	0.3111	0.0898	0.4263	-0.3662	-0.7385	9.8275	0.0834	-0.6723	-0.0048	0.5668	0.8036	-1.2579	-0.1033	0.0253
-0.6147	-0.1052	9.8761	-0.0694	0.5577	0.3513	-0.3178	0.4953	-0.4875	1.9646	1.8033	9.5746	-0.2762	0.4304	0.0298	0.4323	-0.3362	-0.7385	9.5358	0.5953	-1.0777	0.4097	0.5149	0.1762	-1.2743	-0.1232	0.0066
-0.378	-0.2193	9.6482	0.1095	0.2547	0.2194	-0.3691	0.48	-0.4577	2.3693	1.5733	9.757	-0.5796	0.3065	0.3396	0.4383	-0.3482	-0.7325	9.4216	0.311	-1.1373	0.7245	0.7099	-0.692	-1.2889	-0.0468	0.0088
-0.7977	0.1299	9.7532	-0.0109	0.4982	0.134	-0.3155	0.516	-0.4366	2.4226	1.3422	9.5228	-0.6109	0.3056	0.2783	0.4263	-0.3362	-0.7445	10.1607	0.1395	-1.0666	1.1587	0.9535	-0.7031	-1.322	-0.1242	0.0057
0.1051	0.1287	9.769	0.0236	0.62	0.2899	-0.3183	0.4563	-0.5222	2.1976	1.5161	9.7535	-0.952	0.4267	0.3718	0.4263	-0.3482	-0.7505	9.939	0.0263	-0.7847	1.2862	0.9214	-0.5842	-1.2901	-0.0862	-0.0458
-0.1405	-0.2175	9.4772	0.0833	0.4985	0.2866	-0.3338	0.4973	-0.455	2.2605	1.4023	10.047	-0.8291	0.4274	0.3096	0.4323	-0.3662	-0.7385	10.0535	0.0831	-0.7253	1.6254	0.8002	-0.6261	-1.3214	-0.0859	0.0069
-0.9205	0.365	9.6313	0.2096	0.6217	0.3491	-0.3353	0.4577	-0.5065	2.1427	1.4017	9.869	-0.5827	0.4296	0.2774	0.4383	-0.3422	-0.7265	9.5927	0.4815	-1.0768	1.5841	0.805	-0.9628	-1.2731	-0.0653	0.0262
-0.4933	-0.1061	9.9366	-0.0062	0.5885	0.4434	-0.3166	0.5154	-0.4534	2.2484	1.3994	9.4026	-0.4297	0.4297	0.1229	0.4263	-0.3422	-0.7325	9.7664	0.2539	-0.9021	1.8007	0.7747	-0.9695	-1.321	-0.0667	0.0075
-0.2602	0.0738	9.5298	0.0805	0.4074	0.1616	-0.3168	0.4959	-0.4708	2.135	1.3424	9.4587	-0.2134	0.4961	0.3671	0.4383	-0.3422	-0.7385	9.4763	0.3109	-1.2507	1.8983	0.7725	-0.8188	-1.2736	-0.0848	0.0079
-0.2556	-0.1626	9.7664	0.3245	0.3189	0.0028	-0.3511	0.4792	-0.4566	2.4266	0.9403	9.6967	-0.1537	0.5894	0.3661	0.4263	-0.3422	-0.7445	9.9298	-0.1447	-1.2999	1.7214	0.8902	-0.536	-1.2733	-0.0657	0.0085
-0.6781	0.655	9.7487	0.2912	0.1965	-0.0301	-0.3557	0.5152	-0.5058	2.4809	1.3998	9.5827	-0.247	0.6827	0.5198	0.4263	-0.3362	-0.7385	10.0438	0.3102	-1.2403	1.7886	1.1011	-0.3827	-1.2416	-0.0838	0.0263
-0.4398	0.1317	9.5843	0.0427	0.0716	0.0318	-0.3521	0.4786	-0.4734	2.1386	1.1706	9.6337	-0.3675	0.5263	0.46	0.4503	-0.3422	-0.7325	9.5862	0.6518	-1.42	1.6039	1.4358	-0.3745	-1.2897	-0.104	0.0247
-0.2545	0.5363	9.8744	-0.0202	0.0407	-0.0296	-0.2977	0.4957	-0.4529	2.3668	1.1125	9.5792	-0.8346	0.7698	0.5534	0.4323	-0.3542	-0.7265	9.5348	0.5952	-1.1349	1.4247	1.4327	-0.1541	-1.3056	-0.0859	-0.0106
-0.3227	0.2504	9.4098	-0.0778	0.2536	0.0372	-0.3369	0.4955	-0.5053	2.1333	1.7447	9.4019	-1.0216	0.8288	0.462	0.4443	-0.3362	-0.7325	9.8178	0.3105	-1.1872	1.151	1.4912	0.0082	-1.3059	-0.1235	0.0238
-0.5601	0.0735	9.5829	-0.1096	0.1614	0.0971	-0.3335	0.4394	-0.4903	2.1876	1.5138	9.2263	-1.3631	0.9175	0.402	0.4323	-0.3542	-0.7265	9.5938	0.4246	-1.0196	1.0339	1.549	0.2273	-1.3054	-0.0855	0.0072
-0.431	-0.1077	10.0544	-0.0775	0.192	0.1589	-0.3369	0.4955	-0.5053	2.2482	1.5145	9.4031	-1.2101	0.9176	0.2475	0.4323	-0.3362	-0.7445	9.7	0.481	-1.4181	0.6939	1.4267	0.2672	-1.321	-0.0852	0.0424
-0.1421	0.1918	9.4137	-0.0136	0.284	0.2216	-0.3529	0.4975	-0.4728	2.2501	1.0546	9.4596	-1.1228	1.1026	0.0922	0.4323	-0.3362	-0.7325	9.3144	0.2545	-0.796	0.6249	1.2471	0.0527	-1.2747	-0.1239	-0.0289
-0.4333	0.0689	9.9354	-0.0179	0.1012	0.0947	-0.3132	0.4593	-0.4384	2.3043	1.5716	9.3459	-0.9354	0.9805	0.0611	0.4383	-0.3542	-0.7265	9.7095	0.3108	-0.9031	0.4113	1.0322	0.1803	-1.2582	-0.1225	0.0247
-0.6208	-0.2759	9.5279	0.2619	0.1955	0.124	-0.3529	0.4975	-0.4728	2.3589	1.2257	9.1697	-0.6555	0.8594	0.0295	0.4383	-0.3422	-0.7385	10.0487	0.5947	-0.9539	0.4118	1.1844	0.1815	-1.3058	-0.1047	0.0066
-0.4396	0.0149	9.5858	-0.1067	0.2525	0.2221	-0.3158	0.4965	-0.454	2.3022	1.5136	9.2285	-0.4357	0.6761	0.0293	0.4383	-0.3482	-0.7385	9.8788	0.3106	-0.9572	-0.0149	1.242	0.4098	-1.2413	-0.0831	0.0618
-0.8016	-0.1006	9.5225	0.0772	0.1319	0.2787	-0.3168	0.4959	-0.4708	2.4254	1.6305	9.6998	-0.1564	0.6177	0.0894	0.4323	-0.3422	-0.7385	9.539	0.5385	-0.9061	-0.1374	1.3633	0.4452	-1.2745	-0.1235	-0.0111
-0.6109	0.1837	10.106	0.1099	0.1622	0.4019	-0.3006	0.5134	-0.4859	2.422	1.6872	9.5243	-0.4016	0.4901	-0.062	0.4323	-0.3542	-0.7265	10.2669	0.1391	-1.4651	-0.5905	1.3579	0.8275	-1.3212	-0.067	-0.0103
-0.1374	-0.1613	9.6517	0.4986	-0.0745	-0.4384	-0.3359	0.4961	-0.4886	2.1303	1.5714	9.2254	-0.4641	0.5518	-0.0006	0.4323	-0.3422	-0.7445	9.5343	0.1402	-1.1925	-0.6761	1.5982	1.047	-1.2902	-0.1235	0.0063
-0.1987	-0.1021	9.5915	0.7412	-0.2239	-0.6292	-0.3526	0.5169	-0.4555	2.2524	0.9976	9.5765	-0.7158	0.7651	-0.0618	0.4323	-0.3482	-0.7445	10.2044	0.537	-1.752	-0.8882	1.5655	1.2068	-1.2891	-0.0472	-0.009
-0.077	-0.3365	9.6549	1.8229	-0.9691	-2.3197	-0.3547	0.5157	-0.489	2.0775	1.515	9.4584	-0.8436	0.9488	-0.1236	0.4263	-0.3602	-0.7445	10.0465	0.6515	-1.0683	-1.1717	1.5067	1.0611	-1.3054	-0.0855	0.0072
-0.0767	-0.5115	9.6571	1.9743	-1.1509	-2.3256	-0.3145	0.4392	-0.4725	2.3631	0.7088	9.3431	-0.8808	1.512	0.6108	0.4143	-0.3422	-0.7445	9.9917	-0.0877	-1.0127	-1.2402	1.5098	0.8481	-1.3049	-0.0845	0.0605
-0.3785	0.1308	9.6438	0.6558	-1.1068	-1.4777	-0.3335	0.4394	-0.4903	2.2557	1.6888	9.8139	-0.6722	1.6637	0.0862	0.4443	-0.3542	-0.7205	10.1659	0.1398	-0.7804	-1.4436	1.5789	0.2709	-1.3383	-0.1252	-0.0302
-0.6762	0.0707	9.8144	0.2349	-0.7776	-0.9117	-0.3356	0.5156	-0.4712	2.3624	1.7443	9.4063	-0.8245	1.6645	0.333	0.4443	-0.3422	-0.7325	10.049	0.3104	-0.9541	-1.7586	1.6423	0.0965	-1.306	-0.105	-0.0112
-0.5601	0.1318	9.5822	0.0295	-0.3844	-0.5008	-0.2995	0.514	-0.4691	1.9006	1.1689	9.1606	-1.1018	1.5984	0.1813	0.4383	-0.3482	-0.7385	9.8231	0.3107	-0.901	-1.9472	1.6131	0.0097	-1.322	-0.1242	0.0057
-0.433	-0.1646	9.9384	0.0642	-0.3549	-0.193	-0.3555	0.5346	-0.4884	2.0766	1.3422	9.399	-0.9801	1.6294	0.0575	0.4323	-0.3482	-0.7325	9.9307	0.0259	-1.2426	-2.1295	1.52	0.1373	-1.2907	-0.143	-0.0121
-0.554	0.3025	9.9304	-0.2042	-0.1156	0.3384	-0.3341	0.4778	-0.4724	2.3683	1.5156	9.6982	-1.0442	1.6573	-0.1881	0.4383	-0.3422	-0.7325	9.4711	0.3106	-1.5368	-2.121	1.2417	0.4421	-1.3065	-0.1061	-0.0645
-0.1276	0.415	10.2283	-0.5725	0.0027	0.3763	-0.3142	0.4587	-0.4552	2.201	1.4019	9.9287	-0.7073	1.7214	-0.3134	0.4323	-0.3542	-0.7325	10.1035	0.4808	-1.0674	-1.9043	0.937	0.4639	-1.2743	-0.1417	0.0416
-0.195	0.3035	9.8199	-0.5069	0.1556	0.5018	-0.3343	0.4583	-0.4897	2.129	0.9958	9.1057	-0.6448	1.6596	-0.3748	0.4383	-0.3542	-0.7325	9.7604	0.0262	-1.2457	-1.9101	0.8788	0.2793	-1.2745	-0.1051	-0.0461
-0.1972	-0.3947	9.6535	-0.7187	0.2438	0.7832	-0.3168	0.4959	-0.4708	2.5413	1.5155	9.7601	-0.5475	1.3809	-0.5274	0.4383	-0.3482	-0.7385	9.9861	0.2533	-1.2986	-2.108	0.8844	-0.1142	-1.3218	-0.1239	0.0234
-0.2558	-0.0459	9.7649	-0.9971	0.272	0.695	-0.3701	0.4794	-0.4744	2.4305	1.2289	9.9323	-0.3295	1.2906	-0.4974	0.4383	-0.3482	-0.7385	9.4837	0.1974	-0.8501	-1.9935	0.6145	-0.3964	-1.321	-0.0667	0.0075
-0.5537	0.0691	9.9333	-0.8426	0.1812	0.8449	-0.3518	0.4981	-0.456	2.3628	1.5143	9.4053	-0.0165	1.0774	-0.498	0.4323	-0.3422	-0.7325	10.2212	0.424	-0.8364	-2.0839	0.7962	-0.3308	-1.2741	-0.1228	0.0244
-0.3195	0.1899	9.5857	-1.0613	0.0878	0.7533	-0.2995	0.514	-0.4691	2.3632	1.2842	9.4043	-0.1352	0.8915	-0.404	0.4263	-0.3422	-0.7325	9.9933	0.3105	-0.8979	-1.8913	0.8845	-0.1207	-1.2736	-0.0848	0.0079
-0.6176	0.4215	9.7527	-0.7487	0.2739	0.8149	-0.3547	0.5157	-0.489	2.132	1.1691	9.2822	-0.2541	0.7372	-0.2487	0.4503	-0.3662	-0.7445	10.1035	0.4808	-1.0674	-1.7867	1.0314	0.2461	-1.3207	-0.0475	0.0081
0.0431	-0.1032	9.6541	-0.873	0.3038	0.6941	-0.3529	0.4975	-0.4728	2.597	1.1698	9.6425	-0.2532	0.6748	-0.3098	0.4443	-0.3602	-0.7385	10.0508	0.5948	-0.8394	-1.5448	1.0037	0.0542	-1.3213	-0.1043	0.0418
-0.1299	-0.2248	10.0612	-0.7201	0.2137	0.6903	-0.3534	0.5358	-0.4549	2.1914	1.9174	9.4624	-0.2498	0.6156	-0.0329	0.4383	-0.3482	-0.7325	9.4258	0.3112	-0.9083	-1.4251	1.1885	-0.1015	-1.3046	-0.0284	-0.0087
-0.3224	0.017	9.4127	-0.5622	0.3676	0.7839	-0.3369	0.4955	-0.5053	2.3647	1.6873	9.5232	-0.5322	0.7653	-0.2473	0.4323	-0.3422	-0.7325	9.6524	0.5953	-0.9039	-1.1766	1.1578	-0.0785	-1.2899	-0.1044	0.0069
-0.561	-0.0425	9.526	-0.6557	0.2747	0.8446	-0.315	0.4776	-0.4546	2.1416	1.4014	9.8104	-0.5615	0.7034	-0.216	0.4323	-0.3482	-0.7265	9.5473	0.5957	-0.4482	-1.1673	1.1229	0.2283	-1.2735	-0.066	-0.0093
-0.07	0.0086	10.0593	-0.6548	0.3666	0.785	-0.3367	0.515	-0.488	2.1875	1.5713	9.2265	-0.6224	0.7355	-0.0315	0.4203	-0.3482	-0.7325	9.7703	0.4247	-0.6731	-1.28	1.0872	0.6001	-1.2582	-0.104	-0.0102
-0.1384	-0.1606	9.5933	-0.7185	0.2745	0.7531	-0.3171	0.4764	-0.4881	2.0155	1.6866	9.2237	-0.8422	0.8869	-0.1233	0.4323	-0.3482	-0.7385	9.7109	0.0834	-0.8461	-0.8253	0.986	1.2924	-1.3376	-0.1054	0.006
-0.3771	-0.1617	9.7058	-0.1987	0.159	0.4365	-0.3189	0.4947	-0.5043	2.0822	1.3435	9.6919	-0.6568	0.8894	-0.0629	0.4383	-0.3542	-0.7385	9.5962	0.1404	-0.9053	-0.6841	0.8255	1.8707	-1.274	-0.104	0.0072
-0.1947	0.07	9.8229	0.1665	-0.0503	0.2429	-0.3168	0.4959	-0.4708	2.4251	1.1701	9.6392	-0.3474	0.8622	-0.0031	0.4383	-0.3422	-0.7325	9.7068	0.0264	-1.075	-0.5864	0.8538	2.0217	-1.3219	-0.1054	-0.0115
-0.0742	-0.0468	9.8265	0.2463	-0.444	-0.351	-0.3372	0.5533	-0.47	2.2471	1.5142	9.3445	-0.1987	1.1426	0.0558	0.4383	-0.3542	-0.7205	9.4753	0.2539	-1.308	-0.3209	0.8456	2.5975	-1.2584	-0.1229	0.007
-0.4986	-0.1024	9.6446	1.3091	-0.8253	-1.4798	-0.3006	0.5134	-0.4859	2.364	1.457	9.4636	-0.2007	1.299	0.2393	0.4383	-0.3542	-0.7325	9.3094	0.0837	-1.0823	-0.2628	0.8474	2.4729	-1.289	-0.0657	0.0259
-0.8037	-0.0991	9.4057	1.6835	-0.7924	-1.1762	-0.2998	0.4945	-0.4865	2.3633	1.2267	9.404	-0.5085	1.36	0.4866	0.4383	-0.3542	-0.7265	9.5348	0.5383	-1.135	0.0786	1.1214	2.4648	-1.2418	-0.0842	0.0085
-0.1356	0.0707	9.7655	0.5163	-0.5301	-0.9714	-0.3372	0.5533	-0.47	2.2491	1.6873	9.4625	-0.32	1.0804	0.1491	0.4263	-0.3362	-0.7385	9.7048	-0.0306	-1.1895	0.0913	1.2823	1.8512	-1.2271	-0.1232	-0.0457
0.2192	0.0746	9.4215	0.4638	-0.2885	-0.4734	-0.3379	0.4949	-0.5221	2.0845	1.229	9.8086	-0.6896	1.0772	0.2127	0.4323	-0.3482	-0.7325	9.5953	0.0835	-0.9626	0.1752	1.4085	1.5424	-1.3058	-0.1047	0.0066
-0.4377	0.1886	9.7004	0.3784	-0.1079	-0.0686	-0.3369	0.4955	-0.5053	2.0809	1.4583	9.6339	-0.6572	0.9206	-0.0324	0.4443	-0.3542	-0.7205	9.4759	0.5952	-1.2505	0.402	1.3429	1.8731	-1.3062	-0.1054	-0.029
-0.3193	0.0731	9.5872	0.0462	0.2239	0.1273	-0.2998	0.4945	-0.4865	2.4184	1.2261	9.288	-0.4392	0.894	0.1816	0.4323	-0.3422	-0.7265	9.4877	0.3113	-0.6211	0.7356	1.2099	2.661	-1.2899	-0.1044	0.0069
-0.3778	0.3636	9.6992	-0.0427	0.406	0.1939	-0.2983	0.534	-0.435	2.4178	0.9383	9.2281	-0.0957	0.6489	0.0582	0.4383	-0.3542	-0.7445	9.4763	0.3109	-1.2507	1.0076	1.1681	3.4514	-1.3056	-0.1043	0.0244
-0.858	0.1884	9.7514	0.1105	0.2543	0.3117	-0.2998	0.4945	-0.4865	2.3101	1.4004	9.638	0.2161	0.4342	-0.096	0.4323	-0.3422	-0.7385	9.5358	0.5953	-1.0777	0.9981	1.1276	4.1581	-1.3213	-0.1043	0.0418
-0.4343	0.0113	9.8778	0.3179	-0.0167	-0.0966	-0.3359	0.4961	-0.4886	1.9584	1.5717	9.2221	0.4016	0.5003	0.1483	0.4443	-0.3362	-0.7265	9.7599	0.4242	-1.2454	1.1134	1.0867	4.8918	-1.2896	-0.0667	-0.0274
-0.3767	0.3628	9.7576	0.3794	-0.1083	0.0236	-0.2972	0.4573	-0.4709	2.191	1.4571	9.4017	0.3666	0.6534	0.0247	0.4143	-0.3482	-0.7385	9.9325	0.2535	-1.1279	1.1449	1.2693	4.8923	-1.2897	-0.104	0.0247
-0.0752	-0.1045	9.7688	0.7146	-0.3183	-0.0774	-0.3529	0.4975	-0.4728	2.2458	1.6865	9.2867	0.0024	0.4347	0.1818	0.4563	-0.3482	-0.7205	9.6431	-0.2582	-1.4769	0.9915	1.421	4.9289	-1.2899	-0.1044	0.0069
-0.3139	-0.0473	9.8806	0.4393	-0.1992	-0.0098	-0.3374	0.5338	-0.4874	1.96	1.2269	9.2791	-0.4905	0.3984	0.1542	0.4323	-0.3422	-0.7325	9.7575	-0.1446	-1.4175	1.0002	1.8276	4.1637	-1.2414	-0.0835	0.0441
-0.1221	0.2946	10.5218	0.3849	0.1047	0.2127	-0.3756	0.5342	-0.523	2.1925	1.2273	9.4593	-0.5202	0.3996	0.308	0.4383	-0.3542	-0.7385	9.6519	0.1971	-0.9615	0.637	2.0819	3.4084	-1.3062	-0.1054	-0.029
-0.3765	0.1877	9.7598	0.1985	-0.0197	0.3046	-0.2818	0.4937	-0.4855	2.1341	1.9175	9.4613	-0.6174	0.5197	0.0313	0.4323	-0.3482	-0.7145	9.4843	0.5387	-0.7926	0.5919	2.058	2.9486	-1.2897	-0.104	0.0247
-0.4983	-0.3359	9.6475	-0.0756	0.1297	0.4343	-0.2818	0.4937	-0.4855	2.1941	1.6304	9.5783	-0.6832	0.7042	-0.0002	0.4443	-0.3542	-0.7265	9.7027	-0.0876	-1.304	0.2755	2.0001	2.7425	-1.2567	-0.027	0.01
-0.4964	-0.1623	9.7621	-0.0172	-0.0529	0.3989	-0.3539	0.4969	-0.4896	2.1416	1.3439	9.8102	-0.7121	0.6112	0.0005	0.4383	-0.3722	-0.7385	9.6468	0.0832	-1.2477	0.2168	1.8157	2.8657	-1.2899	-0.1044	0.0069
-0.376	-0.1624	9.7642	0.0115	-0.0824	0.2441	-0.3369	0.4955	-0.5053	2.4791	1.1693	9.4645	-0.4685	0.7685	0.0289	0.4443	-0.3302	-0.7385	9.8783	-0.2013	-1.0148	0.1192	1.7874	2.7148	-1.2888	-0.0653	0.0437
-0.3226	0.1337	9.4112	0.2487	-0.3219	-0.3176	-0.2983	0.534	-0.435	1.8478	1.1701	9.3938	-0.0125	0.9555	-0.3129	0.4563	-0.3602	-0.7385	9.7611	0.3105	-1.1882	-0.0709	1.6065	2.5961	-1.305	-0.0475	-0.0093
-0.2527	0.0103	9.9394	0.6091	-0.7753	-0.578	-0.315	0.4776	-0.4546	1.9038	1.2847	9.3369	-0.1397	1.2351	-0.0373	0.4323	-0.3542	-0.7325	9.5916	-0.3148	-1.1918	-0.2944	1.8534	2.3589	-1.2895	-0.1037	0.0425
-0.4277	-0.1682	10.2304	0.2737	-0.5345	-0.5379	-0.3526	0.5169	-0.4555	2.3017	1.8587	9.23	-0.0199	1.4224	0.0224	0.4323	-0.3602	-0.7325	10.0981	-0.2019	-1.4113	-0.4957	1.9825	1.8436	-1.2581	-0.1037	0.0076
-0.5586	-0.2191	9.645	-0.0633	-0.5698	-0.2268	-0.3348	0.4967	-0.4718	2.2529	1.343	9.6366	-0.5432	1.3547	-0.0356	0.4263	-0.3422	-0.7385	10.1594	0.3101	-1.1237	-0.6633	1.7751	1.4475	-1.3212	-0.0855	0.0247
0.1635	-0.1617	9.657	-0.2772	-0.573	-0.0089	-0.3364	0.5344	-0.4706	2.7711	1.1701	9.7629	-0.7299	1.4458	-0.0043	0.4323	-0.3422	-0.7445	9.9284	0.1396	-1.3569	-1.0424	2.0528	1.1845	-1.273	-0.0465	0.0091
-0.2521	0.3597	9.9934	-0.4577	-0.3615	0.1209	-0.2655	0.5112	-0.5006	2.3677	1.9182	9.7	-0.7892	1.2259	-0.31	0.4383	-0.3542	-0.7505	9.7096	0.254	-0.9032	-1.3193	1.7166	1.2823	-1.2892	-0.066	0.0081
-0.192	-0.34	9.9448	-0.4504	0.0353	0.1909	-0.3722	0.4782	-0.508	1.7964	0.9414	9.6846	-0.4435	0.952	-0.2182	0.4323	-0.3482	-0.7565	9.8768	0.1968	-1.0718	-1.5702	1.5657	1.1964	-1.3063	-0.1427	0.0231
-0.9152	-0.455	9.8752	-0.4452	0.2485	0.3493	-0.3529	0.4975	-0.4728	2.4806	1.5724	9.5835	-0.6659	1.2271	-0.3107	0.4383	-0.3482	-0.7325	9.3676	-0.2007	-1.0242	-2.0549	1.3472	1.5779	-1.2897	-0.0855	-0.0102
-0.4293	0.2411	10.1668	-0.6982	-0.0284	0.2234	-0.3351	0.4772	-0.4891	2.649	1.0534	9.3502	0.0498	0.9252	-0.3131	0.4443	-0.3542	-0.7325	10.1511	0.2529	-1.5816	-2.4074	1.1393	1.2181	-1.274	-0.104	0.0072
-0.0801	-0.3343	9.4797	-0.8549	-0.2443	0.3437	-0.3181	0.5531	-0.4522	2.1401	1.6312	9.7529	0.4204	0.9299	-0.2231	0.4383	-0.3602	-0.7325	9.9265	0.0258	-1.4715	-2.6469	1.3487	1.4727	-1.3062	-0.1054	-0.029
-0.1396	-0.1015	9.5341	-0.6345	-0.0286	0.4071	-0.3691	0.48	-0.4577	2.0211	0.94	9.4547	-0.0107	0.9261	-0.1591	0.4203	-0.3422	-0.7325	10.0476	0.6515	-1.0111	-2.902	1.3521	1.2346	-1.305	-0.0475	-0.0093
-0.3824	-0.0997	9.4131	-0.664	0.0936	0.3487	-0.373	0.4971	-0.5074	2.3053	0.9965	9.3433	0.0804	0.8934	-0.436	0.4443	-0.3542	-0.7385	9.7673	0.3108	-0.8448	-2.9201	1.2692	0.6506	-1.29	-0.1232	0.0241
-1.0381	-0.1616	9.7526	-0.5979	0.2155	0.5658	-0.316	0.477	-0.4713	1.9578	1.2264	9.162	-0.1664	0.986	-0.1893	0.4383	-0.3602	-0.7385	9.76	0.3105	-1.2455	-3.117	1.3048	0.2881	-1.2733	-0.0657	0.0085
-0.073	-0.1059	9.8856	-0.5924	0.5208	0.6031	-0.3019	0.5706	-0.4674	2.1947	1.2278	9.5764	-0.5346	0.8892	-0.2173	0.4383	-0.3542	-0.7385	9.5966	-0.144	-0.9055	-2.9089	1.2784	0.0051	-1.2581	-0.1037	0.0076
-0.5545	-0.1053	9.8771	-0.6867	0.3667	0.6932	-0.3184	0.5336	-0.4696	1.8548	1.5745	9.8057	-0.657	0.9209	-0.0016	0.4443	-0.3602	-0.7325	9.815	0.0829	-1.3591	-2.7621	1.1298	-0.2463	-1.3214	-0.0674	-0.028
-0.4355	0.1287	9.8179	-0.7442	0.4874	0.9118	-0.2975	0.5152	-0.4356	2.3056	1.4569	9.4039	-0.3492	0.8917	-0.1569	0.4323	-0.3542	-0.7325	10.0459	0.3102	-1.1258	-2.4842	0.8864	-0.2566	-1.2738	-0.1037	0.025
-0.3166	-0.3369	9.7091	-0.9592	0.577	0.8857	-0.3014	0.5323	-0.4853	2.14	0.9983	9.6915	-0.2538	0.7693	-0.126	0.4383	-0.3482	-0.7265	9.71	-0.0872	-0.9034	-2.1464	0.9183	-0.3586	-1.3055	-0.067	-0.0277
-0.5577	-0.1031	9.7019	-1.142	0.6663	0.9822	-0.3341	0.4778	-0.4724	2.1326	1.4569	9.3421	0.215	0.4645	-0.1577	0.4503	-0.3362	-0.7265	9.7646	-0.0305	-1.0168	-1.7635	0.9741	-0.0009	-1.2747	-0.1054	-0.0639
-0.3737	-0.339	9.8832	-1.0498	0.6982	0.8894	-0.3312	0.4601	-0.4394	2.0233	1.6309	9.6335	0.3119	0.217	-0.2797	0.4443	-0.3482	-0.7325	9.8758	0.1398	-1.129	-1.8051	1.1474	0.647	-1.2577	-0.0845	0.0082
-0.5518	0.2427	10.0479	-1.0454	0.7271	1.2591	-0.3524	0.5364	-0.4381	2.3041	1.0538	9.285	0.3753	0.1564	-0.2182	0.4143	-0.3422	-0.7445	9.8241	0.3107	-0.8438	-1.4577	1.2358	0.8524	-1.3217	-0.105	0.0063
-0.1397	-0.0431	9.5334	-1.2038	0.6657	0.9829	-0.389	0.499	-0.4749	2.2491	1.6297	9.4622	0.3749	0.2194	-0.0957	0.4383	-0.3482	-0.7265	10.0517	-0.1445	-0.84	-1.4748	1.4731	1.285	-1.2891	-0.0472	-0.009
-0.2578	-0.1028	9.6488	-0.7516	0.2751	0.5382	-0.339	0.4943	-0.5389	2.311	1.5157	9.6971	0.1287	0.2175	-0.0328	0.4263	-0.3482	-0.7445	9.9375	-0.4287	-0.8995	-1.3865	1.5058	1.129	-1.2897	-0.0855	-0.0102
-0.4359	-0.3958	9.7661	-0.5731	0.0645	0.2239	-0.3518	0.4981	-0.456	2.3622	1.2265	9.3454	-0.1212	0.4013	0.0598	0.4263	-0.3422	-0.7385	10.0462	0.0259	-1.126	-1.5879	1.2997	0.6417	-1.3207	-0.029	-0.0268
-0.324	-0.3317	9.3003	-0.4786	0.2185	0.1645	-0.3186	0.5142	-0.4869	2.3609	1.3412	9.2874	-0.6184	0.5818	0.0616	0.4383	-0.3482	-0.7325	9.7075	0.2539	-1.0176	-1.678	1.3128	-0.2773	-1.2569	-0.0273	-0.0078
-0.2535	-0.1641	9.8832	-0.3604	-0.0241	0.0348	-0.3173	0.4569	-0.5055	2.1909	1.5146	9.402	-0.8996	0.7965	0.1849	0.4263	-0.3602	-0.7325	9.7054	0.3107	-1.132	-1.4261	1.173	-1.1463	-1.3057	-0.0674	-0.0455
-0.375	0.6532	9.8708	-0.419	0.0662	0.1912	-0.356	0.4957	-0.5231	1.9081	1.3433	9.5715	-0.939	1.2299	0.2748	0.4443	-0.3422	-0.7205	9.82	0.2537	-1.0728	-1.3971	1.1435	-1.2089	-1.2889	-0.0468	0.0088
-0.3771	-0.1617	9.7058	-0.3505	0.3101	0.4417	-0.3168	0.4959	-0.4708	2.1918	1.6874	9.4614	-0.94	1.2287	0.1518	0.4323	-0.3482	-0.7325	9.3696	-0.1437	-0.9097	-0.897	1.1719	-1.07	-1.2894	-0.0848	0.0253
-0.6192	0.0728	9.6403	-0.2291	0.343	0.1948	-0.3181	0.5531	-0.4522	2.2496	1.3422	9.4609	-0.6626	1.1361	-0.1258	0.4323	-0.3542	-0.7325	9.5981	0.3111	-0.7907	-0.705	1.0776	-0.8614	-1.2896	-0.0667	-0.0274
-0.3147	-0.2216	9.8244	-0.5668	0.4618	0.2017	-0.3704	0.5372	-0.4391	2.3075	1.6299	9.5219	-0.535	1.0158	0.0893	0.4383	-0.3602	-0.7265	9.3093	0.1975	-1.0822	-0.4659	1.0367	-0.1314	-1.2888	-0.0653	0.0437
-0.2617	0.4247	9.467	-0.2057	0.0696	-0.0882	-0.3361	0.4766	-0.5059	2.0724	1.9166	9.2259	-0.2582	1.0495	0.0875	0.4503	-0.3602	-0.7505	9.6499	0.0833	-1.076	-0.2909	1.1798	0.5098	-1.2735	-0.066	-0.0093
-0.1376	0.0138	9.6495	0.0069	0.0118	-0.3381	-0.3361	0.4766	-0.5059	2.026	1.3439	9.7494	-0.4812	1.8322	1.344	0.4443	-0.3482	-0.7325	9.5974	0.0835	-0.8481	-0.0946	1.2359	0.8424	-1.2569	-0.0458	0.0272
-0.6268	0.1947	9.23	0.1005	0.0123	-0.247	-0.3171	0.4764	-0.4881	2.137	1.5154	9.5766	0.5599	2.3102	1.7038	0.4323	-0.3422	-0.7265	9.7684	0.3109	-0.7876	-0.1259	1.1446	0.8426	-1.3054	-0.0855	0.0072
0.0501	0.1835	10.0592	0.1889	-0.3233	-0.1324	-0.3916	0.5362	-0.4905	1.9072	1.228	9.5124	2.3196	2.2041	1.6634	0.4443	-0.3542	-0.7505	9.8678	-0.088	-1.5871	0.0523	1.1177	0.5912	-1.2878	-0.0078	0.0455
-0.744	0.251	9.4024	-0.0846	-0.1127	-0.0321	-0.3008	0.4939	-0.5033	2.0233	1.6309	9.6335	-0.4577	2.3313	1.7711	0.4323	-0.3482	-0.7205	9.9282	0.3102	-1.3568	0.1328	1.093	0.1891	-1.2581	-0.0852	-0.0274
-0.3759	-0.2208	9.765	0.0445	0.1016	0.1554	-0.299	0.4756	-0.4871	2.3028	1.1685	9.2269	-1.8421	2.0351	1.3815	0.4263	-0.3482	-0.7385	9.5933	0.0265	-1.0771	0.3432	0.8523	-0.0035	-1.2885	-0.0277	0.0094
-0.3216	0.1913	9.4689	-0.1394	0.0683	0.3415	-0.3011	0.5517	-0.4679	2.3032	1.5714	9.2873	-1.2879	1.9127	0.9181	0.4503	-0.3482	-0.7385	9.821	0.3106	-1.0155	0.3768	0.8205	0.0875	-1.2411	-0.0458	0.0097
-0.1355	0.0123	9.7663	-0.3821	0.2486	0.4715	-0.3547	0.4384	-0.5417	2.0866	1.287	9.926	-1.4726	1.7524	0.5206	0.4503	-0.3602	-0.7505	10.0546	0.0263	-0.6681	0.6618	0.7263	0.2933	-1.2745	-0.142	0.0238
-0.7955	0.0701	9.8707	-0.3211	0.2803	0.3484	-0.2951	0.4585	-0.4374	2.3118	1.0556	9.695	-1.0034	1.3529	0.2744	0.4203	-0.3542	-0.7265	9.9903	0.2535	-1.0696	0.671	0.6914	0.6	-1.3209	-0.0479	-0.0097
-0.3118	0.0096	9.9967	-0.3195	0.3411	0.4112	-0.3168	0.4959	-0.4708	2.0222	1.6307	9.575	-0.3793	0.8923	-0.0645	0.4203	-0.3542	-0.7265	9.9318	-0.0309	-1.1854	0.774	0.6258	0.9344	-1.2737	-0.0664	-0.0271
-0.3745	0.303	9.8752	-0.2903	0.2191	0.439	-0.3166	0.5154	-0.4534	2.1979	1.2861	9.7524	0.122	0.3994	-0.4026	0.4323	-0.3482	-0.7325	10.2721	0.0824	-1.179	0.849	0.894	1.3338	-1.305	-0.0475	-0.0093
-0.7927	-0.4566	9.9941	0.1968	0.0733	-0.0009	-0.3186	0.5142	-0.4869	2.1373	1.2854	9.5756	0.1005	0.0299	-0.2159	0.4503	-0.3482	-0.7205	9.7666	0.0264	-0.9023	0.9344	0.8831	2.0993	-1.3366	-0.0479	0.0078
-0.4306	-0.3995	10.0581	0.2543	-0.2012	0.0232	-0.3341	0.4778	-0.4724	2.307	1.2846	9.4617	0.3172	-0.0621	-0.3702	0.4443	-0.3542	-0.7385	10.3847	-0.0315	-1.2343	0.7859	1.0934	2.2898	-1.2721	-0.0263	0.063
-0.7387	0.189	9.6951	0.1333	-0.0497	0.028	-0.3166	0.5154	-0.4534	2.3058	2.0322	9.4651	0.0789	-0.4668	-0.3972	0.4383	-0.3362	-0.7325	10.0965	0.253	-1.4682	0.6801	1.1908	1.8636	-1.306	-0.105	-0.0112
-0.2643	-0.04	9.2977	0.0178	0.3148	0.2219	-0.3353	0.4577	-0.5065	2.4762	0.9384	9.2878	-0.076	-0.5328	-0.6724	0.4263	-0.3662	-0.7445	9.7047	0.0263	-1.1895	0.5933	1.3244	1.0376	-1.2885	-0.0277	0.0094
-0.3174	0.2468	9.7018	-0.0789	0.131	0.1268	-0.3356	0.5156	-0.4712	2.0176	1.7446	9.3412	-0.1973	-0.6268	-0.6712	0.4443	-0.3362	-0.7265	9.7049	-0.1443	-1.1896	0.5368	1.2753	0.2092	-1.2891	-0.0472	-0.009
-0.6755	0.3034	9.8699	-0.2324	0.2214	0.0692	-0.3356	0.5156	-0.4712	2.2491	1.6873	9.4625	-0.4107	-0.7212	-0.6079	0.4383	-0.3422	-0.7265	9.4719	0.4813	-1.4795	0.1669	1.4878	0.2527	-1.3056	-0.0859	-0.0106
-0.3764	0.1294	9.7606	-0.1936	0.6183	0.2004	-0.2818	0.4937	-0.4855	2.0736	1.8593	9.2842	-0.1661	-0.7213	-0.8859	0.4383	-0.3602	-0.7265	9.5437	0.1406	-0.6774	0.0752	1.2434	0.315	-1.3362	-0.0472	0.0433
-0.2582	0.189	9.6452	-0.2578	0.4341	0.2587	-0.3359	0.4961	-0.4886	2.4131	1.7427	9.056	-0.2006	-0.4405	-0.5801	0.4503	-0.3542	-0.7325	10.2716	0.5374	-1.1787	-0.1236	1.2654	0.9049	-1.2736	-0.0848	0.0079
-0.3793	-0.0435	9.5876	-0.075	0.2832	0.2531	-0.316	0.477	-0.4713	2.0804	1.7458	9.6352	-0.3	-0.1326	-0.612	0.4263	-0.3422	-0.7325	9.9409	0.197	-0.6701	-0.1473	1.201	1.1509	-1.2731	-0.0469	-0.0087
-0.073	-0.1059	9.8856	-0.1994	0.2515	0.2232	-0.2828	0.4931	-0.5022	2.0764	1.5148	9.3998	-0.3361	0.1462	-0.5213	0.4503	-0.3422	-0.7265	9.6552	0.0835	-0.7899	-0.3587	1.0766	1.3406	-1.2738	-0.1037	0.025
-0.2645	0.1351	9.2955	-0.2916	0.1582	0.4069	-0.3181	0.4758	-0.5049	2.0722	1.3412	9.1647	-0.4929	0.4588	0.0002	0.4443	-0.3482	-0.7265	9.8789	0.1968	-0.9573	-0.2455	0.9902	0.9986	-1.2731	-0.0469	-0.0087
-0.3187	-0.3938	9.593	-0.1982	0.2818	0.2854	-0.315	0.4776	-0.4546	2.3637	1.6296	9.4644	-0.4062	0.6747	-0.1553	0.4263	-0.3662	-0.7325	10.1566	0.0256	-1.2956	-0.6651	0.9066	0.4573	-1.2726	-0.0273	0.0097
-0.1374	-0.1613	9.6517	-0.4162	0.0958	0.4071	-0.2983	0.534	-0.435	2.4227	1.2846	9.5225	-0.5015	0.8607	-0.0022	0.4263	-0.3362	-0.7385	9.8809	0.2538	-0.8428	-0.8763	0.8879	-0.3661	-1.2735	-0.066	-0.0093
-0.2571	0.13	9.7043	-0.3838	0.2493	0.3178	-0.3356	0.5156	-0.4712	2.2529	0.7101	9.5752	-0.8114	0.8873	-0.1234	0.4443	-0.3422	-0.7325	9.828	-0.3147	-0.6726	-0.8877	1.1371	-0.7633	-1.257	-0.0646	0.0443
-0.4966	0.0128	9.7599	-0.4474	0.1571	0.2858	-0.2985	0.5146	-0.4524	2.3055	1.5144	9.4042	-0.8434	0.8855	-0.2769	0.4263	-0.3602	-0.7325	9.6477	0.1969	-1.1904	-1.1608	1.1039	-0.571	-1.2577	-0.0845	0.0082
-0.4329	-0.2229	9.9391	-0.4472	0.1263	0.3467	-0.2998	0.4945	-0.4865	2.7691	1.0545	9.6453	-0.9627	0.7623	-0.0911	0.4443	-0.3482	-0.7385	9.9877	-0.2016	-1.2417	-1.2433	1.1295	-0.2303	-1.3053	-0.0852	0.025
-0.4915	0.1259	10.0505	-0.3221	0.2807	0.2562	-0.3168	0.4959	-0.4708	2.0765	1.3997	9.3993	-0.9314	0.7314	-0.1218	0.4323	-0.3602	-0.7385	10.1039	0.1396	-1.0676	-1.2616	1.2759	0.1709	-1.2567	-0.027	0.01
-0.6195	0.3063	9.6373	-0.0166	0.1622	0.1267	-0.3722	0.4782	-0.508	2.0767	1.2847	9.3988	-0.9008	0.7633	-0.0607	0.4323	-0.3542	-0.7385	9.7608	0.538	-1.1881	-1.1309	1.0595	0.411	-1.3042	-0.0461	0.0618
-0.6136	-0.1643	9.9352	0.1959	-0.0802	0.1496	-0.3163	0.5348	-0.436	2.1923	1.3423	9.4598	-0.9065	1.0418	-0.0316	0.4443	-0.3602	-0.7265	9.9951	0.5381	-0.7833	-1.0598	0.9942	0.7157	-1.3214	-0.0859	0.0069
-0.3774	0.0717	9.7029	0.1296	-0.0789	-0.2801	-0.3011	0.5517	-0.4679	2.3634	1.8596	9.4654	-0.8753	0.9473	-0.2463	0.4143	-0.3362	-0.7325	9.6479	0.0832	-1.1905	-0.9762	1.0291	0.4062	-1.2403	-0.0071	0.0287
-0.5007	0.657	9.5767	0.188	-0.2614	-0.3156	-0.3369	0.4955	-0.5053	2.4244	1.5727	9.641	-0.9382	1.1357	0.1217	0.4443	-0.3482	-0.7325	9.6458	0.0831	-1.305	-0.9204	1.1843	0.1906	-1.2572	-0.0465	-0.0084
-0.0208	0.3077	9.4727	0.1925	-0.1095	-0.1278	-0.3534	0.5358	-0.4549	2.5434	1.5736	9.8775	-0.8803	1.2903	0.0589	0.4443	-0.3422	-0.7385	9.9359	-0.0307	-0.9564	-0.5952	1.0698	-0.3116	-1.2738	-0.0852	-0.0099
0.0475	-0.2228	9.8892	0.104	0.1031	-0.0606	-0.3529	0.4975	-0.4728	1.9015	1.3417	9.22	-0.8768	1.1042	-0.0014	0.4323	-0.3602	-0.7145	9.5929	0.3108	-1.0769	-0.6066	1.0446	-0.6802	-1.2889	-0.0468	0.0088
-0.8545	-0.0473	9.9295	-0.0487	0.0086	0.2468	-0.2828	0.4931	-0.5022	2.5341	1.8591	9.4102	-0.7198	0.9824	0.0291	0.4443	-0.3542	-0.7265	9.6508	0.2539	-1.0187	-0.4489	1.0738	-0.5925	-1.289	-0.0841	0.0609
-0.2596	-0.3348	9.535	-0.1704	0.1603	0.1901	-0.3547	0.5157	-0.489	2.3627	1.5718	9.4056	-0.7187	0.9203	-0.0013	0.4443	-0.3482	-0.7265	9.5346	-0.1441	-1.1928	-0.4187	1.1351	-0.6237	-1.2569	-0.0273	-0.0078
-0.554	0.3025	9.9304	-0.2919	0.2813	0.1943	-0.3351	0.4772	-0.4891	1.9056	1.5153	9.4551	-0.7118	0.6114	0.0313	0.4383	-0.3422	-0.7205	9.877	0.0262	-1.0719	-0.2244	1.1616	-0.3527	-1.3043	-0.0092	-0.0081
-0.4377	0.1886	9.7004	-0.3528	0.3726	0.1355	-0.2969	0.4768	-0.4535	2.2004	1.114	9.8688	-0.6826	0.6415	-0.092	0.4263	-0.3482	-0.7265	9.4823	0.4817	-0.9072	-0.4591	1.0945	0.0839	-1.2894	-0.0664	-0.0096
-0.1994	-0.3348	9.536	-0.3164	0.4629	0.5061	-0.3328	0.4979	-0.4382	2.6543	1.1698	9.6436	-0.4007	0.4276	-0.1231	0.4263	-0.3362	-0.7385	9.7641	-0.4287	-1.0743	-0.1713	1.0294	0.3821	-1.3054	-0.0855	0.0072
-0.4962	-0.279	9.7636	-0.1647	0.4041	0.3491	-0.3529	0.4975	-0.4728	2.138	1.5732	9.6355	-0.374	0.6449	-0.0631	0.4383	-0.3422	-0.7385	9.6479	0.0832	-1.1905	-0.2223	1.2071	0.723	-1.273	-0.028	-0.0259
-0.0687	0.5907	10.1688	-0.2585	0.3113	0.379	-0.2977	0.4957	-0.4529	2.0754	1.457	9.341	-0.5542	0.4269	-0.03	0.4503	-0.3422	-0.7145	9.7086	0.2539	-0.9604	-0.0576	1.0806	1.0551	-1.2885	-0.0277	0.0094
-0.3166	0.4211	9.758	-0.3812	0.2482	0.5637	-0.3171	0.4764	-0.4881	2.4247	1.4002	9.6402	-0.3088	0.5231	0.0602	0.4383	-0.3542	-0.7385	9.9884	0.0259	-1.1843	0.1043	1.2602	1.2668	-1.2895	-0.0852	0.0075
-0.3807	0.1907	9.5262	-0.3492	0.3711	0.4737	-0.3032	0.5505	-0.5015	2.4263	1.1129	9.6975	-0.3714	0.5213	-0.0624	0.4443	-0.3482	-0.7325	9.7107	0.1971	-0.846	0.159	1.0503	1.0484	-1.3376	-0.0869	-0.029
-0.0743	0.0699	9.825	-0.1046	0.2209	0.4674	-0.2825	0.5126	-0.4849	2.4173	1.2258	9.2294	-0.6506	0.6751	0.1534	0.4323	-0.3482	-0.7325	10.1073	-0.0877	-0.8961	0.1261	1.0352	-0.0262	-1.2728	-0.0277	-0.0081
-0.0775	0.0721	9.6498	-0.3813	0.2175	0.5938	-0.3142	0.4587	-0.4552	2.072	1.5137	9.1655	-0.5905	0.7054	0.03	0.4263	-0.3542	-0.7445	10.0514	0.083	-0.8398	0.26	0.9536	-0.7069	-1.3373	-0.0677	-0.0284
-0.2063	0.0197	9.1812	-0.4108	0.3397	0.5353	-0.3014	0.5323	-0.4853	2.1969	1.2283	9.6936	-0.7136	0.6727	-0.0305	0.4323	-0.3482	-0.7205	9.5891	0.0263	-1.306	0.1263	0.8058	-1.0114	-1.2735	-0.066	-0.0093
-0.1386	-0.0438	9.5918	-0.412	0.3094	0.4732	-0.3369	0.4955	-0.5053	2.3121	1.5159	9.7557	-0.6495	0.5812	0.0311	0.4383	-0.3602	-0.7325	9.6483	0.5951	-1.1329	0.3617	0.7971	-0.4039	-1.2726	-0.0458	0.0446
-0.6668	-0.6355	10.2904	-0.3175	0.4018	0.5048	-0.3351	0.4772	-0.4891	1.9037	1.3423	9.3371	-0.5577	0.613	0.0304	0.4503	-0.3602	-0.7505	9.7612	0.2537	-1.1883	0.0884	0.9774	-0.2407	-1.2888	-0.0653	0.0437
-0.38	-0.3346	9.5328	-0.1623	0.4646	0.4734	-0.3356	0.5156	-0.4712	2.3034	1.4563	9.2868	-0.5011	0.8295	-0.0327	0.4443	-0.3542	-0.7265	9.5977	-0.2008	-0.8484	0.0748	0.8169	0.3423	-1.2897	-0.104	0.0247
-0.437	-0.3367	9.707	-0.1065	0.2832	0.192	-0.3385	0.5332	-0.5042	2.1343	1.8025	9.4608	-0.3732	0.6143	-0.0322	0.4323	-0.3422	-0.7505	9.7095	0.3108	-0.9031	-0.1347	1.0268	0.5653	-1.2733	-0.0657	0.0085
-0.3761	-0.1041	9.7635	0.0445	0.1016	0.1554	-0.3511	0.4792	-0.4566	2.6522	1.1117	9.5262	-0.2849	0.7687	-0.1565	0.4563	-0.3542	-0.7325	9.4825	0.3111	-0.9073	-0.386	1.0589	0.4502	-1.2578	-0.066	-0.0268
-0.4412	0.4242	9.5223	0.2811	-0.2299	-0.3161	-0.3145	0.5165	-0.4198	2.3076	0.9395	9.4602	-0.1921	0.8017	-0.0344	0.4383	-0.3422	-0.7205	10.1596	0.1395	-1.1238	-0.3593	1.2132	0.297	-1.2894	-0.0664	-0.0096
-0.4416	-0.042	9.4697	0.5279	-0.2273	-0.3499	-0.3014	0.5323	-0.4853	2.2486	1.2844	9.4021	-0.2845	0.7057	-0.2791	0.4263	-0.3602	-0.7445	9.9933	0.3105	-0.8979	-0.5864	1.1875	-0.0344	-1.3366	-0.0479	0.0078
-0.4978	0.0719	9.7008	0.2798	-0.2909	-0.3481	-0.3377	0.5144	-0.5047	1.7944	1.4588	9.6284	-0.3782	0.8937	0.0891	0.4383	-0.3542	-0.7385	9.6545	-0.2577	-0.8474	-0.7295	1.3489	-0.6741	-1.2577	-0.0845	0.0082
-0.1935	-0.0474	9.8827	0.1861	-0.2914	-0.4392	-0.3168	0.4959	-0.4708	2.3133	0.8258	9.7526	-0.6548	0.8285	0.0296	0.4323	-0.3542	-0.7385	9.4756	0.0265	-1.3081	-0.8678	1.508	-1.1604	-1.2894	-0.0848	0.0253
-0.31	0.1833	10.1113	0.0957	-0.4163	-0.041	-0.2982	0.4567	-0.4877	1.79	1.4577	9.394	-0.6554	0.8912	0.1215	0.4383	-0.3482	-0.7505	9.6529	0.1972	-0.9042	-0.7432	1.1724	-1.1053	-1.3049	-0.066	0.0256
-0.5009	0.0157	9.5263	-0.0859	-0.1122	-0.1551	-0.2807	0.4943	-0.4687	2.2458	1.629	9.2865	-0.7482	0.8899	0.0913	0.4443	-0.3482	-0.7445	9.6492	-0.1442	-1.1334	-0.7728	1.2937	-1.0727	-1.2731	-0.0653	0.0262
-0.4983	-0.3359	9.6475	-0.143	0.0083	0.0942	-0.3176	0.5148	-0.4702	2.478	1.169	9.406	-0.9354	0.9805	0.0611	0.4443	-0.3542	-0.7385	9.5462	0.5957	-0.5054	-0.6728	1.1685	-0.8309	-1.2885	-0.0461	0.0443
-0.6345	-0.3247	8.7694	-0.0136	0.161	0.4035	-0.298	0.4762	-0.4703	2.5942	1.5144	9.5269	-0.6639	1.1662	-0.2181	0.4383	-0.3422	-0.7385	9.937	-0.0307	-0.8992	-0.6524	0.8077	-1.1417	-1.2569	-0.0458	0.0272
-0.1955	-0.1627	9.7674	-0.2911	0.2502	0.3166	-0.3367	0.515	-0.488	2.0173	1.2268	9.2802	-0.4776	1.0744	-0.3109	0.4263	-0.3482	-0.7445	9.3667	0.5386	-1.0237	-0.5924	0.7781	-1.2052	-1.3193	0.0107	0.0455
-0.5009	0.0741	9.5256	-0.3215	0.2804	0.3177	-0.3191	0.4752	-0.5217	2.306	1.2268	9.4029	-0.0387	0.7706	-0.2195	0.4383	-0.3602	-0.7325	9.5418	-0.0301	-0.792	-0.4071	0.6261	-1.2119	-1.2895	-0.1037	0.0425
-0.4987	0.0143	9.6431	-0.3185	0.3407	0.5035	-0.3539	0.4969	-0.4896	2.5369	0.8816	9.4643	0.178	0.774	-0.0978	0.4563	-0.3542	-0.7085	10.1079	0.2535	-0.8386	-0.2699	0.4065	-0.7569	-1.2738	-0.1037	0.025
-0.4384	0.6555	9.6945	-0.1338	0.3429	0.4397	-0.3176	0.5148	-0.4702	2.424	1.1699	9.5806	0.2084	0.7419	-0.2515	0.4443	-0.3422	-0.7265	10.2702	-0.0314	-1.2936	-0.3867	0.5555	-0.5371	-1.2887	-0.065	0.0615
-0.5569	0.0713	9.7581	-0.6006	0.032	0.5926	-0.331	0.4796	-0.4221	2.0771	1.7451	9.4594	0.1197	0.6188	-0.0966	0.4323	-0.3482	-0.7505	9.9912	-0.4858	-1.0702	-0.3885	0.5869	-0.5982	-1.3221	-0.1057	-0.0293
-0.3779	0.4803	9.6978	-0.324	0.1277	0.3144	-0.3565	0.534	-0.5052	2.0101	1.6278	8.9306	0.0567	0.7118	-0.0046	0.4383	-0.3542	-0.7385	9.8204	-0.0875	-1.073	-0.4871	0.8638	-0.8082	-1.3361	-0.0283	0.0262
-0.3765	0.1877	9.7598	-0.2035	0.161	-0.0247	-0.3168	0.4959	-0.4708	2.5352	1.2264	9.4073	-0.2816	0.6459	-0.0637	0.4263	-0.3482	-0.7385	9.819	0.2537	-1.13	-0.5237	0.836	-0.9917	-1.2731	-0.0838	0.0612
-0.4966	0.0128	9.7599	-0.3005	-0.115	0.0013	-0.315	0.4776	-0.4546	2.0253	1.7465	9.7512	-0.1611	0.8341	0.0882	0.4323	-0.3422	-0.7445	10.0476	-0.2015	-1.069	-0.684	0.8994	-1.1707	-1.2895	-0.0852	0.0075
-0.2539	0.1278	9.8795	-0.2113	-0.2664	-0.0954	-0.2807	0.4943	-0.4687	2.4173	1.2258	9.2294	-0.4085	0.9258	0.2427	0.4383	-0.3422	-0.7385	9.9852	0.1395	-1.3559	-0.6743	1.0008	-1.877	-1.3046	-0.0284	-0.0087
-0.4363	-0.104	9.7624	0.1486	-0.5351	-0.6901	-0.3348	0.4967	-0.4718	2.5446	1.5163	9.9358	-0.8453	1.1372	0.1826	0.4323	-0.3542	-0.7505	9.8801	0.0832	-0.9002	-0.8775	1.1308	-2.4537	-1.3057	-0.0674	-0.0455
-0.3775	0.1885	9.7014	0.8105	-1.0746	-1.5097	-0.3364	0.5344	-0.4706	2.2513	1.6878	9.5796	-1.2497	1.3825	0.3986	0.4383	-0.3482	-0.7505	9.768	-0.201	-0.8452	-0.7085	1.1996	-3.0113	-1.3048	-0.0472	0.0084
-0.1343	-0.1051	9.8261	1.4615	-0.946	-1.4843	-0.2962	0.4579	-0.4541	2.4768	1.8592	9.4091	-1.2521	1.3477	-0.0007	0.4323	-0.3362	-0.7385	10.2763	0.0826	-0.9501	-0.4773	1.0246	-3.542	-1.2717	-0.0071	0.0636
-0.3746	0.3614	9.8744	-0.2325	-0.9651	-1.0021	-0.2977	0.4957	-0.4529	2.3114	1.2856	9.6961	-1.2501	1.255	-0.0001	0.4383	-0.3542	-0.7505	9.3071	0.3111	-1.1966	-0.3169	1.0365	-4.3764	-1.2889	-0.0468	0.0088
-0.444	0.1346	9.3507	-0.22	-0.3551	-0.7738	-0.3544	0.5352	-0.4716	2.4243	0.9973	9.5798	-1.1256	1.2259	0.0608	0.4443	-0.3422	-0.7265	9.4893	-0.1436	-0.5642	-0.2427	1.0757	-4.9929	-1.2902	-0.1051	-0.0286
-0.0871	0.137	9.1235	-0.0884	-0.2034	-0.2493	-0.3176	0.5148	-0.4702	2.8288	1.5728	9.8244	-0.722	1.0749	-0.0022	0.4383	-0.3542	-0.7205	9.8834	-0.0873	-0.7286	-0.2823	1.0188	-5.2687	-1.2731	-0.0469	-0.0087
-0.2566	-0.2202	9.7087	-0.3546	0.2811	0.1028	-0.3155	0.516	-0.4366	2.1296	1.2836	9.1655	-0.598	1.0134	-0.0947	0.4143	-0.3362	-0.7205	9.5382	0.3679	-0.9634	-0.0648	0.9576	-5.245	-1.3055	-0.067	-0.0277
-0.4407	0.074	9.5267	-0.5065	0.4323	0.108	-0.3338	0.4973	-0.455	2.4221	1.6297	9.5241	-0.2547	0.7999	-0.1569	0.4443	-0.3482	-0.7325	9.1369	0.1976	-1.1998	-0.0072	0.7623	-4.3571	-1.2894	-0.0664	-0.0096
-0.1937	0.1277	9.8805	-0.3493	0.4019	0.4129	-0.3351	0.4772	-0.4891	2.2497	1.2847	9.4606	0.0556	0.7421	-0.0662	0.4383	-0.3302	-0.7325	9.6006	0.0268	-0.6765	0.1418	0.3848	-3.5042	-1.2413	-0.0462	-0.008
-0.6235	-0.6239	9.3571	-0.4106	0.2165	0.748	-0.3178	0.4953	-0.4875	2.6501	1.0537	9.4087	-0.0061	0.7415	-0.0658	0.4323	-0.3542	-0.7265	9.5938	0.4246	-1.0196	-0.058	0.4073	-2.9449	-1.2582	-0.1225	0.0247
-0.314	0.0695	9.8792	-0.4071	0.3689	0.8435	-0.3526	0.5169	-0.4555	1.9129	1.1143	9.8047	-0.0043	0.6166	-0.188	0.4323	-0.3482	-0.7445	9.5912	0.0264	-1.1916	0.0911	0.3651	-2.1201	-1.2574	-0.0838	0.0437
-0.1371	-0.3947	9.6546	-0.1922	0.3101	0.8087	-0.3019	0.5706	-0.4674	2.3666	1.2275	9.5798	-0.0937	0.4926	-0.1253	0.4323	-0.3482	-0.7265	9.9894	0.1397	-1.127	0.0713	0.3294	-1.751	-1.2899	-0.1044	0.0069
0.1016	-0.3936	9.542	-0.3738	0.3374	1.1192	-0.333	0.4784	-0.4556	2.4266	1.5732	9.7581	-0.001	0.4938	-0.0951	0.4323	-0.3482	-0.7265	9.7611	0.3105	-1.1882	-0.0593	0.2715	-1.9627	-1.2885	-0.0277	0.0094
-0.3145	-0.3383	9.8259	-0.6869	0.336	0.7233	-0.3364	0.5344	-0.4706	2.1359	1.5152	9.5181	-0.3406	0.5216	-0.0626	0.4563	-0.3662	-0.7385	9.7662	-0.4286	-0.9599	-0.038	0.4894	-2.2996	-1.2566	-0.0082	-0.0071
-0.4996	-0.1017	9.5862	-0.7471	0.2117	1.0596	-0.3003	0.5328	-0.4685	1.846	1.5724	9.3371	-0.1919	0.7702	-0.0956	0.4503	-0.3542	-0.7385	9.4777	0.0265	-1.1937	-0.3967	0.3759	-2.8736	-1.2729	-0.0834	0.079
-0.5581	0.1887	9.6983	-0.5265	0.4582	1.0929	-0.3186	0.5142	-0.4869	2.304	1.8017	9.3469	-0.4357	0.6443	-0.0627	0.4383	-0.3542	-0.7265	10.1648	0.1966	-0.8376	-0.321	0.5973	-3.4579	-1.2416	-0.0838	0.0263
-0.6163	0.2457	9.8133	-0.6812	0.5183	0.9732	-0.3364	0.5344	-0.4706	2.2482	1.5145	9.4031	-0.5317	0.8294	-0.0018	0.4263	-0.3422	-0.7325	9.7045	0.1969	-1.1894	-0.2023	0.4778	-3.6161	-1.2736	-0.1033	0.0428
-0.6749	-0.1051	9.875	-0.4336	0.5513	0.9708	-0.3166	0.5154	-0.4534	2.0821	1.401	9.6922	-0.4058	0.6752	-0.0938	0.4443	-0.3422	-0.7265	9.94	0.0832	-0.7274	-0.2566	0.5047	-3.3684	-1.289	-0.0657	0.0259
-0.6759	-0.1628	9.8173	-0.498	0.4903	0.8165	-0.3508	0.4987	-0.4393	2.0266	1.6317	9.8093	-0.2811	0.6783	0.0898	0.4323	-0.3482	-0.7265	9.4772	0.4246	-1.1934	-0.1218	0.7129	-3.0328	-1.2894	-0.0848	0.0253
-0.614	0.1275	9.9315	-0.3753	0.4611	0.7836	-0.298	0.4762	-0.4703	1.9687	1.344	9.7483	-0.2867	0.8299	-0.2184	0.4203	-0.3542	-0.7445	9.7098	0.0834	-0.9033	-0.0755	0.7972	-2.5418	-1.2741	-0.1044	-0.0105
-0.7985	-0.0444	9.697	-0.2544	0.3404	0.7179	-0.3186	0.5142	-0.4869	2.1393	1.4584	9.6935	-0.1263	0.6171	-0.0029	0.4503	-0.3422	-0.7445	9.8142	-0.0878	-1.4164	-0.1679	0.6301	-1.4956	-1.3048	-0.0472	0.0084
-0.0764	0.013	9.7089	-0.2585	0.1575	0.6217	-0.3003	0.5328	-0.4685	2.3054	1.5719	9.4045	-0.1323	0.8636	-0.0966	0.4323	-0.3602	-0.7505	9.9298	-0.0878	-1.2999	-0.2703	0.5895	-0.7861	-1.2895	-0.0852	0.0075
-0.1978	0.0139	9.6484	-0.2317	0.0673	0.3734	-0.3719	0.4977	-0.4906	2.0784	1.6303	9.5175	-0.1613	0.8338	0.0574	0.4443	-0.3542	-0.7445	9.932	-0.2015	-1.1855	-0.2016	0.3426	-0.5443	-1.321	-0.0667	0.0075
-0.3172	0.0717	9.704	-0.0229	-0.0198	-0.1847	-0.2959	0.4774	-0.4368	2.0756	1.2844	9.3402	-0.2545	0.832	-0.0342	0.4383	-0.3542	-0.7325	9.939	0.0263	-0.7847	-0.6061	0.2824	-0.5942	-1.274	-0.104	0.0072
-0.2469	-0.3436	10.2357	0.1926	-0.0788	-0.1579	-0.3547	0.5157	-0.489	2.3608	1.3987	9.2876	-0.4119	1.0486	0.1498	0.4383	-0.3542	-0.7325	9.8129	0.0828	-1.4735	-0.7474	0.4125	-1.1727	-1.2578	-0.1218	0.0603
0.1664	0.0696	9.8292	-0.1156	-0.1437	-0.0017	-0.3348	0.4967	-0.4718	2.1931	1.5726	9.5194	-0.5953	0.9851	0.182	0.4443	-0.3482	-0.7265	10.157	0.5375	-1.238	-0.7652	0.4208	-1.756	-1.2582	-0.104	-0.0102
-0.3159	-0.1042	9.7646	-0.1443	-0.0526	0.0622	-0.3348	0.4967	-0.4718	2.0764	1.5148	9.3998	-0.5315	0.8615	0.1209	0.4383	-0.3422	-0.7265	9.5962	0.1404	-0.9053	-0.9966	0.519	-2.2399	-1.3207	-0.066	0.043
-0.3129	0.0104	9.9383	-0.1128	-0.0526	0.1233	-0.2797	0.4949	-0.4519	2.1916	1.112	9.4002	-0.7175	0.9218	0.1524	0.4203	-0.3362	-0.7505	9.9987	0.1401	-0.6119	-0.6661	0.6457	-2.5868	-1.3058	-0.0862	-0.0283
-0.8625	0.4248	9.5148	-0.2325	0.0984	0.2511	-0.3539	0.4969	-0.4896	1.9595	1.5719	9.2807	-0.7182	0.9527	0.1522	0.4383	-0.3542	-0.7205	9.8183	-0.0307	-1.1875	-0.5053	0.7649	-2.4063	-1.2895	-0.0852	0.0075
-0.2588	-0.1604	9.5912	0.1079	0.1015	0.3084	-0.3338	0.4973	-0.455	2.4935	1.1151	10.2258	-0.6588	1.014	0.0286	0.4323	-0.3602	-0.7265	9.653	0.1403	-0.9043	-0.4412	0.8553	-2.346	-1.241	-0.0455	0.0275
-0.4364	-0.0456	9.7617	-0.0762	0.1914	0.2819	-0.3542	0.4774	-0.507	2.0765	1.4572	9.3995	-0.598	1.0452	-0.0027	0.4263	-0.3662	-0.7325	9.819	0.1968	-1.13	-0.3646	0.7266	-1.8577	-1.3061	-0.1239	0.006
-0.7997	0.073	9.6371	-0.1641	0.4346	0.3498	-0.3364	0.5344	-0.4706	2.4282	1.2859	9.8154	-0.537	1.0768	-0.0033	0.4443	-0.3542	-0.7385	9.8736	0.3104	-1.2434	-0.4136	0.6596	-1.4266	-1.3057	-0.0674	-0.0455
-0.6219	-0.2752	9.4695	-0.2603	0.2813	0.2554	-0.315	0.4776	-0.4546	2.2572	1.4015	9.8712	-0.4756	1.0453	-0.1263	0.4383	-0.3602	-0.7445	9.8806	-0.3718	-0.9005	-0.305	0.5913	-0.908	-1.2745	-0.1235	-0.0111
-0.0796	0.0735	9.533	-0.1627	0.4033	0.5336	-0.3547	0.5157	-0.489	2.4845	1.2281	9.7577	-0.3137	0.771	0.1202	0.4323	-0.3422	-0.7445	9.9393	0.6519	-0.727	0.077	0.3427	-0.5527	-1.2887	-0.0465	0.0265
-0.2628	-0.3326	9.3598	-0.2555	0.4331	0.4739	-0.2967	0.4963	-0.4362	2.2509	1.2274	9.519	-0.3126	0.6771	-0.0022	0.4443	-0.3482	-0.7445	9.8231	0.3107	-0.901	0.1067	0.5262	-0.6135	-1.3061	-0.1239	0.006
-0.4404	-0.1594	9.5296	-0.2267	0.3113	0.4709	-0.3168	0.4959	-0.4708	2.0782	1.0549	9.4563	-0.0598	0.4017	0.0287	0.4323	-0.3422	-0.7385	10.1605	0.2533	-1.0665	0.2536	0.7128	-0.893	-1.3046	-0.0284	-0.0087
-0.438	0.3636	9.6982	-0.2896	0.2804	0.4095	-0.3348	0.4967	-0.4718	1.9667	1.2284	9.6306	0.0345	0.3732	0.182	0.4203	-0.3362	-0.7445	9.4227	0.2542	-1.0801	0.3093	0.8376	-1.1088	-1.2588	-0.1051	-0.0635
-0.3131	0.1855	9.9361	-0.3195	0.3411	0.4112	-0.2964	0.4384	-0.4715	2.0239	1.2858	9.632	0.099	0.1868	0.029	0.4383	-0.3482	-0.7385	10.049	0.3104	-0.9541	0.1189	1.1445	-1.285	-1.3049	-0.066	0.0256
-0.6155	-0.3379	9.8206	-0.2891	0.3109	0.4102	-0.2773	0.4382	-0.4537	1.9062	1.1702	9.4535	0.0447	-0.1221	0.1234	0.4563	-0.3482	-0.7325	9.821	0.3106	-1.0155	0.0063	1.444	-0.9412	-1.2741	-0.1044	-0.0105
-0.3139	-0.0473	9.8806	-0.1052	0.2826	0.315	-0.3181	0.4758	-0.5049	2.3096	1.6879	9.6393	-0.3016	0.1512	-0.0299	0.4383	-0.3542	-0.7385	9.8168	0.3104	-1.2444	0.0441	1.5322	-0.7265	-1.2737	-0.0664	-0.0271
-0.3752	0.0119	9.8204	-0.0732	0.3132	0.3768	-0.3374	0.5338	-0.4874	2.3108	1.6882	9.6979	-0.3956	0.2754	0.1236	0.4383	-0.3542	-0.7325	9.4828	0.0836	-0.9075	-0.025	1.627	-0.9695	-1.289	-0.0657	0.0259
-0.5631	-0.0411	9.4092	0.1096	0.1623	0.3712	-0.2833	0.5315	-0.4843	1.9697	1.4017	9.8071	-0.65	0.5806	-0.0304	0.4323	-0.3542	-0.7325	10.105	0.0828	-1.0105	-0.0492	1.38	-0.725	-1.3362	-0.0472	0.0433
-0.3789	-0.3353	9.5912	-0.3223	0.25	0.2863	-0.3377	0.5144	-0.5047	2.138	1.5732	9.6355	-0.6488	0.6138	0.2153	0.4443	-0.3482	-0.7325	9.5372	0.311	-1.0207	-0.1473	1.23	-0.8769	-1.2731	-0.0653	0.0262
-0.5029	-0.0412	9.4103	0.0113	-0.0208	0.1224	-0.3359	0.4961	-0.4886	2.3699	1.2283	9.7555	-0.561	0.7358	-0.0625	0.4383	-0.3482	-0.7505	9.9311	0.5378	-1.1849	-0.2249	1.0239	-1.3679	-1.2887	-0.0465	0.0265
-0.4974	-0.1615	9.7037	-0.2036	0.0995	0.0662	-0.3328	0.4979	-0.4382	2.4212	1.5144	9.465	-0.4095	0.861	-0.0642	0.4323	-0.3542	-0.7325	9.6556	-0.2577	-0.7901	-0.3918	1.0296	-1.7623	-1.289	-0.0657	0.0259
-0.3775	0.1885	9.7014	-0.2971	0.0066	0.1269	-0.316	0.477	-0.4713	2.1912	1.342	9.4012	-0.4077	0.768	-0.0944	0.4383	-0.3422	-0.7325	9.4752	0.3108	-1.3079	-0.6502	0.9126	-2.0935	-1.3046	-0.0284	-0.0087
-0.0735	0.2442	9.8812	-0.2654	0.0374	0.1579	-0.2993	0.5334	-0.4518	1.7905	1.1702	9.3927	-0.1642	0.9254	-0.066	0.4323	-0.3422	-0.7445	9.8129	0.0828	-1.4735	-0.6998	0.9373	-1.6923	-1.2574	-0.0653	0.0088
-0.8073	0.1949	9.2268	-0.1398	0.1608	0.159	-0.3359	0.4961	-0.4886	2.2557	1.6888	9.8139	-0.4117	0.9535	-0.0954	0.4443	-0.3602	-0.7265	9.6465	0.3106	-1.2475	-0.7326	0.9686	-1.7526	-1.2901	-0.1047	-0.0109
-0.2595	-0.4515	9.5364	-0.2292	0.3738	0.134	-0.3364	0.5344	-0.4706	2.0241	1.1133	9.6312	-0.4993	0.7682	0.0291	0.4443	-0.3662	-0.7385	9.9933	0.3105	-0.8979	-0.852	0.8751	-1.5961	-1.2586	-0.1232	-0.0108
-0.2542	0.3028	9.8773	-0.1073	0.3143	0.0697	-0.3555	0.5346	-0.4884	2.4231	1.6875	9.5829	-0.7158	0.7651	-0.0618	0.4383	-0.3542	-0.7325	9.8767	0.2536	-1.0717	-0.751	1.0846	-1.3516	-1.2731	-0.0469	-0.0087
-0.561	-0.0425	9.526	-0.0736	0.4057	0.1942	-0.3166	0.5154	-0.4534	2.4229	1.1696	9.522	-0.6847	0.8293	0.1527	0.4203	-0.3362	-0.7325	9.7111	-0.1441	-0.8462	-0.6502	0.8981	-1.0796	-1.2899	-0.0859	-0.028
-0.259	-0.0437	9.5897	0.1413	0.4084	0.0686	-0.3158	0.4965	-0.454	2.0774	1.5725	9.4586	-0.7746	0.7047	0.154	0.4323	-0.3542	-0.7325	9.6541	0.0835	-0.8471	-0.4039	0.7465	-1.1189	-1.3056	-0.1043	0.0244
-0.2549	0.0701	9.8218	-0.0155	0.2848	0.0371	-0.2818	0.4937	-0.4855	2.0784	0.9399	9.4558	-0.8121	0.95	-0.0316	0.4443	-0.3542	-0.7385	10.1107	-0.3151	-0.7246	-0.2519	0.7783	-1.2154	-1.3205	-0.0472	0.0259
-0.6717	-0.1073	10.0502	-0.043	0.4061	0.1631	-0.2802	0.4559	-0.4866	2.2984	1.1675	8.9926	-0.6572	0.9206	-0.0324	0.4323	-0.3482	-0.7205	9.8283	0.3109	-0.6149	-0.1897	0.5648	-1.1882	-1.2749	-0.1242	-0.0467
-0.1978	0.0139	9.6484	0.1059	0.0408	0.2148	-0.3362	0.5539	-0.4532	2.2474	1.3417	9.3437	-0.6546	0.797	-0.0316	0.4503	-0.3542	-0.7325	9.7099	0.0265	-0.9033	-0.0976	0.6262	-1.2212	-1.2892	-0.0845	0.0431
-0.497	-0.4534	9.7074	-0.047	0.1309	0.2187	-0.3717	0.5171	-0.4733	1.7976	1.517	9.8044	-0.592	0.7988	0.0909	0.4383	-0.3542	-0.7265	9.9295	0.0828	-1.2997	-0.0692	0.6884	-1.3137	-1.3209	-0.0479	-0.0097
-0.0814	0.5995	9.468	-0.0778	0.0383	0.3709	-0.2792	0.4565	-0.4699	2.3626	1.6293	9.4058	-0.4029	0.5837	0.0296	0.4323	-0.3542	-0.7265	9.88	0.14	-0.9001	0.0183	0.7823	-1.5	-1.2574	-0.0838	0.0437
-0.3162	0.1293	9.7616	-0.1108	0.0696	0.1259	-0.3691	0.48	-0.4577	2.0828	1.6313	9.7518	-0.4341	0.6146	0.0603	0.4263	-0.3362	-0.7325	9.7615	-0.0307	-1.1885	-0.23	1.1787	-1.5508	-1.3217	-0.0866	-0.0287
-0.6174	0.3048	9.7541	-0.2306	0.3129	0.1019	-0.3163	0.5348	-0.436	2.0843	1.4015	9.8093	-0.8016	0.5186	0.1245	0.4383	-0.3482	-0.7325	10.1596	0.1395	-1.1238	-0.3205	1.33	-1.4855	-1.2906	-0.1242	-0.0292
-0.6204	0.1903	9.5804	-0.1712	0.1299	0.1587	-0.3557	0.5152	-0.5058	2.3601	1.1684	9.228	-0.7424	0.7068	0.3382	0.4443	-0.3542	-0.7445	9.4753	0.2539	-1.308	-0.4138	1.513	-1.5119	-1.2736	-0.0848	0.0079
-0.2568	-0.1035	9.7072	-0.1406	0.1304	0.1276	-0.3343	0.4583	-0.4897	2.1349	1.3999	9.459	-0.9276	0.7046	0.3085	0.4263	-0.3482	-0.7325	9.6449	0.7655	-1.3044	-0.6967	1.6368	-1.6561	-1.2885	-0.0461	0.0443
-0.313	0.1271	9.9368	-0.1057	0.3136	0.2234	-0.2959	0.4774	-0.4368	2.1947	1.2278	9.5764	-0.9954	0.9501	0.1846	0.4323	-0.3482	-0.7265	9.6504	0.5383	-1.0184	-0.6522	1.4781	-1.1978	-1.2743	-0.1232	0.0066
-0.4436	-0.1572	9.3544	-0.3557	0.097	0.2834	-0.2988	0.4951	-0.4697	2.3702	1.0557	9.7547	-0.9995	1.072	-0.0005	0.4263	-0.3602	-0.7325	9.4881	0.027	-0.6213	-0.5578	1.0507	-1.1118	-1.3051	-0.0848	0.0428
-0.4976	-0.0448	9.7023	-0.263	0.1594	0.1913	-0.2998	0.4945	-0.4865	2.2563	1.2862	9.8121	-0.7211	1.0124	-0.0633	0.4383	-0.3482	-0.7325	9.7621	0.3106	-1.131	-0.6559	1.1751	-1.2923	-1.3054	-0.0855	0.0072
-0.2005	-0.3341	9.4776	-0.1064	0.2524	0.2528	-0.3354	0.535	-0.4538	2.0158	1.5141	9.223	-0.532	0.7974	-0.1245	0.4443	-0.3422	-0.7325	10.0459	0.3102	-1.1258	-0.5658	0.5973	-1.3303	-1.321	-0.0667	0.0075
0.1023	-0.1609	9.5975	0.0145	0.1932	0.0963	-0.3359	0.4961	-0.4886	2.2488	1.1694	9.4016	-0.2261	0.9562	-0.0044	0.4323	-0.3602	-0.7265	9.4798	-0.0302	-1.0792	-0.6152	0.6829	-0.9287	-1.2899	-0.0859	-0.028
-0.4382	0.5387	9.696	-0.0179	0.1012	0.0947	-0.3194	0.533	-0.4863	2.4795	1.5721	9.5249	-0.1893	0.6147	-0.1869	0.4563	-0.3422	-0.7325	10.1066	0.481	-0.8957	-0.6934	0.5845	-0.4355	-1.2895	-0.0852	0.0075
-0.564	-0.1571	9.3523	0.0146	0.1009	0.248	-0.2815	0.5132	-0.4681	2.5394	1.3425	9.6422	-0.2487	0.5535	-0.0633	0.4383	-0.3362	-0.7265	9.6536	0.4816	-0.8468	-0.3395	0.6394	-0.0155	-1.2581	-0.0852	-0.0274
-0.7418	0.1912	9.5199	-0.2013	0.0985	0.2815	-0.3359	0.4961	-0.4886	2.6583	1.4008	9.8789	-0.2449	0.4313	0.0911	0.4383	-0.3422	-0.7385	10.1058	0.2534	-0.9531	-0.1476	0.8194	0.1646	-1.3054	-0.0855	0.0072
-0.6207	0.4237	9.5775	-0.2322	0.0982	0.2818	-0.3019	0.5706	-0.4674	2.4217	1.2269	9.4637	-0.1818	0.3386	0.0298	0.4323	-0.3542	-0.7385	9.982	0.1963	-1.5275	-0.2401	0.9411	0.1683	-1.2587	-0.142	0.0063
-0.6819	-0.3918	9.4699	-0.1687	0.375	0.0103	-0.2627	0.4935	-0.4677	2.3025	1.3411	9.2277	-0.1829	0.4007	0.0601	0.4323	-0.3542	-0.7325	9.7663	0.3108	-0.9021	-0.3012	1.1846	0.1721	-1.3366	-0.0663	0.0427
-0.3193	0.0731	9.5872	-0.2302	0.3127	0.1327	-0.2985	0.5146	-0.4524	2.4158	1.4556	9.1718	-0.2489	0.585	-0.002	0.4323	-0.3602	-0.7505	9.5951	0.1972	-0.9625	-0.5049	1.1479	0.6081	-1.306	-0.105	-0.0112
-0.5574	0.4798	9.753	-0.2293	0.3123	0.2249	-0.2988	0.4951	-0.4697	2.4288	1.5738	9.8753	-0.3137	0.7074	-0.0638	0.4503	-0.3362	-0.7265	9.9319	0.7085	-1.1276	-0.7856	1.0878	0.5546	-1.2733	-0.0657	0.0085
-0.3734	0.2439	9.9343	-0.1668	0.3742	0.1947	-0.3192	0.5525	-0.469	2.3719	1.3438	9.8732	-0.4104	0.9234	-0.0031	0.4383	-0.3482	-0.7505	9.8206	0.595	-1.0153	-0.6616	0.8135	0.5794	-1.274	-0.104	0.0072
-0.6791	-0.1606	9.6421	-0.2306	0.2514	0.1929	-0.3346	0.5161	-0.4544	2.5349	0.7661	9.3467	-0.3203	0.9847	-0.1576	0.4443	-0.3602	-0.7265	9.7663	0.3108	-0.9021	-0.7631	0.787	0.3057	-1.3051	-0.0663	0.0078
-0.0719	-0.165	9.9447	-0.1104	0.0695	0.1567	-0.3735	0.5354	-0.4894	1.9642	1.4004	9.5142	-0.2259	0.8929	-0.1576	0.4143	-0.3302	-0.7325	10.5012	0.1391	-1.0603	-0.8659	0.6088	0	-1.2582	-0.104	-0.0102
-0.3785	0.1308	9.6438	-0.0436	0.3141	0.2534	-0.2846	0.5114	-0.5184	2.0234	1.5734	9.6333	-0.0976	0.7417	0.0576	0.4263	-0.3542	-0.7205	9.4161	0.5383	-1.4232	-0.9641	0.7027	-0.1806	-1.3059	-0.1235	0.0238
-0.3151	0.0702	9.8208	-0.2629	0.2824	0.0094	-0.3322	0.4595	-0.4562	2.4214	1.3994	9.4645	0.1214	0.5257	-0.1268	0.4443	-0.3482	-0.7265	9.8244	0.0833	-0.844	-0.6707	0.9397	0.2734	-1.3374	-0.1235	0.0587
-0.1914	-0.0489	9.9995	-0.0745	0.3138	0.2538	-0.3374	0.5338	-0.4874	2.1494	1.2882	10.22	-0.0615	0.4629	-0.0331	0.4383	-0.3482	-0.7265	9.872	0.7653	-1.3003	-0.753	0.9957	0.6143	-1.2897	-0.104	0.0247
-0.2531	0.3021	9.9357	-0.2893	0.434	0.1976	-0.3367	0.515	-0.488	2.0751	1.6295	9.3417	0.0307	0.4317	-0.1564	0.4323	-0.3482	-0.7325	9.7673	0.3108	-0.8448	-0.6148	1.0804	1.0718	-1.3051	-0.0663	0.0078
-0.3168	-0.2201	9.7076	-0.1698	0.3139	0.0089	-0.3369	0.4955	-0.5053	1.7876	1.5722	9.2774	-0.1853	0.4293	-0.1858	0.4383	-0.3422	-0.7385	9.4299	0.3114	-0.6794	-0.5428	1.0148	1.4071	-1.2734	-0.103	0.0606
-0.1384	-0.2189	9.594	0.1977	0.1652	-0.0604	-0.2799	0.4754	-0.4693	2.5341	1.8591	9.4102	-0.3723	0.5519	-0.0933	0.4263	-0.3542	-0.7565	10.0486	0.6516	-0.9538	-0.197	0.8905	1.5801	-1.2894	-0.0664	-0.0096
-0.5592	-0.5685	9.591	0.1354	0.134	-0.0603	-0.3155	0.516	-0.4366	2.0748	1.1117	9.2808	-0.215	0.4622	0.06	0.4503	-0.3602	-0.7385	9.819	0.2537	-1.13	-0.2732	0.8362	1.1211	-1.2731	-0.0469	-0.0087
-0.5029	-0.0412	9.4103	-0.0525	-0.0821	0.0296	-0.3719	0.4977	-0.4906	2.5291	0.9373	9.0545	-0.2507	0.6462	-0.0638	0.4563	-0.3482	-0.7325	9.8715	0.2534	-1.3579	-0.1978	0.9359	0.5358	-1.2743	-0.1232	0.0066
-0.6155	-0.2796	9.8199	0.041	0.0107	-0.031	-0.2975	0.5152	-0.4356	2.0838	1.6891	9.8106	-0.3126	0.6771	-0.0022	0.4383	-0.3482	-0.7325	9.8789	0.1968	-0.9573	-0.2409	0.972	0.1379	-1.2904	-0.1054	-0.0464
-0.1269	-0.1103	10.2349	-0.0476	0.1927	0.0663	-0.3341	0.4778	-0.4724	1.6746	1.918	9.3939	-0.2771	0.461	-0.0011	0.4323	-0.3602	-0.7325	9.8207	0.5381	-1.0153	-0.2705	1.0933	0.1705	-1.3056	-0.0859	-0.0106
-0.3786	0.1892	9.643	-0.0823	0.0402	-0.0596	-0.3178	0.4953	-0.4875	2.5876	1.5129	9.1754	-0.3095	0.4904	-0.124	0.4383	-0.3602	-0.7205	10.216	0.4238	-1.1226	-0.5747	1.3344	0.3351	-1.2901	-0.0862	-0.0458
-0.8661	-0.0392	9.2871	-0.1387	0.2834	0.0694	-0.3176	0.5148	-0.4702	2.3623	1.1689	9.3452	-0.2769	0.4295	-0.0624	0.4203	-0.3362	-0.7385	9.7052	0.4244	-1.132	-0.6357	1.334	0.3677	-1.3055	-0.067	-0.0277
-0.137	0.3632	9.7035	-0.1064	0.3139	0.1619	-0.3531	0.478	-0.4902	1.9095	1.171	9.6293	-0.5599	0.6737	-0.0929	0.4263	-0.3542	-0.7325	9.9336	0.1398	-1.0708	-0.9983	1.4516	0.656	-1.289	-0.0657	0.0259
-0.4365	0.0711	9.7602	-0.0144	0.2536	0.1902	-0.3147	0.4971	-0.4372	2.3674	1.4003	9.6391	-0.5637	0.8595	-0.0633	0.4323	-0.3602	-0.7385	9.5435	0.3112	-0.6773	-0.7771	1.3887	0.8026	-1.2574	-0.0653	0.0088
-0.3783	-0.0442	9.646	0.0155	0.1928	0.1885	-0.2805	0.5138	-0.4513	2.421	1.6295	9.4655	-0.7787	0.9217	0.2142	0.4383	-0.3482	-0.7325	9.9944	0.3105	-0.8407	-0.8395	1.2365	0.8032	-1.353	-0.0677	-0.0109
-0.3164	0.246	9.7602	0.016	0.2233	0.1892	-0.3171	0.4764	-0.4881	2.3643	1.2845	9.4628	-0.7773	0.7648	-0.0307	0.4383	-0.3422	-0.7325	9.8158	0.2535	-1.3017	-0.721	1.0257	0.6443	-1.2574	-0.0653	0.0088
-0.7976	0.0716	9.7539	0.0168	0.2537	0.2206	-0.3523	0.4591	-0.4908	2.1348	1.5149	9.4595	-0.8384	0.7966	0.1231	0.4263	-0.3482	-0.7445	10.1072	0.8222	-0.8382	-0.7552	0.9052	0.5522	-1.2745	-0.1051	-0.0461
-0.0776	0.1304	9.6491	-0.0781	0.0999	0.2492	-0.3142	0.4587	-0.4552	2.1282	0.823	9.0463	-0.5923	0.7667	-0.0318	0.4323	-0.3482	-0.7325	9.9994	0.4814	-0.5544	-0.4182	0.968	0.4197	-1.2895	-0.0852	0.0075
-0.6168	-0.1621	9.76	0.0701	-0.0805	-0.0641	-0.3304	0.4412	-0.44	2.4853	1.4009	9.817	-0.4388	0.7992	-0.0329	0.4323	-0.3722	-0.7385	9.358	-0.0304	-1.5392	-0.5161	0.8788	0.2683	-1.2897	-0.0855	-0.0102
-0.1972	-0.3947	9.6535	-0.018	0.0397	0.1856	-0.3361	0.4766	-0.5059	2.075	1.687	9.342	-0.2829	0.7395	0.028	0.4623	-0.3482	-0.7325	10.1079	0.3104	-0.8386	-0.2784	0.9751	-0.0761	-1.3059	-0.1235	0.0238
-0.7379	-0.3363	9.7017	-0.1757	-0.0835	0.0619	-0.3369	0.4955	-0.5053	2.6537	1.5148	9.6451	-0.4064	0.7698	0.09	0.4263	-0.3422	-0.7265	9.2516	0.9368	-1.0827	-0.3072	1.0655	-0.013	-1.2891	-0.0472	-0.009
-0.3182	0.014	9.6463	0.0698	-0.1727	0.0569	-0.3176	0.5148	-0.4702	2.0718	1.6287	9.166	-0.5954	0.9216	-0.002	0.4323	-0.3542	-0.7265	9.7614	0.8793	-1.1306	-0.1249	1.1586	-0.1406	-1.3053	-0.0667	-0.0099
-0.6146	-0.1636	9.8768	0.2893	-0.018	0.119	-0.3006	0.5134	-0.4859	2.2507	1.3424	9.5195	-0.598	1.0452	-0.0027	0.4443	-0.3542	-0.7265	9.8247	-0.1442	-0.8441	-0.0017	0.976	-0.1458	-1.2897	-0.0855	-0.0102
-0.4355	0.1287	9.8179	-0.0501	-0.0524	0.2148	-0.315	0.4776	-0.4546	2.5357	1.5718	9.4674	-0.7517	1.0442	0.0597	0.4443	-0.3482	-0.7265	9.4227	0.3111	-1.08	-0.0212	1.0316	0.224	-1.2891	-0.0472	-0.009
-0.1377	0.0722	9.6487	0.0742	0.0101	0.1838	-0.315	0.4776	-0.4546	2.3735	1.0565	9.9305	-0.9429	1.2885	-0.0636	0.4443	-0.3482	-0.7265	9.7603	0.1399	-1.2456	0.0155	1.0595	0.4075	-1.2586	-0.1047	-0.0458
-0.6216	-0.4503	9.4717	0.4952	-0.2576	-0.4731	-0.2787	0.4955	-0.4351	2.1347	1.5724	9.4597	-0.8739	0.9808	0.03	0.4323	-0.3482	-0.7385	10.0548	-0.1444	-0.6683	0.0793	1.0586	0.467	-1.3215	-0.1047	0.024
-0.7422	0.483	9.5162	0.7963	-0.5281	-0.7903	-0.3526	0.5169	-0.4555	2.3741	1.3443	9.9903	-0.7865	1.2294	0.0588	0.4383	-0.3602	-0.7325	9.6416	0.0829	-1.5339	0.0729	1.1225	0.2526	-1.2572	-0.0465	-0.0084
-0.4368	0.3045	9.7573	0.5798	-0.684	-0.5757	-0.3166	0.5154	-0.4534	1.9675	1.4012	9.69	-0.9389	1.1666	0.1215	0.4503	-0.3602	-0.7325	9.7653	0.3107	-0.9593	0.0723	0.9399	0.2512	-1.322	-0.1242	0.0057
-0.3793	-0.1019	9.5883	0.4302	-0.4107	-0.5371	-0.2988	0.4951	-0.4697	2.1379	1.6307	9.6357	-0.8123	0.9497	-0.0623	0.4503	-0.3542	-0.7325	10.049	0.3104	-0.9541	0.0135	1.0299	0.3458	-1.2887	-0.065	0.0615
-0.4336	0.244	9.9332	0.2197	-0.2307	-0.2845	-0.3184	0.5336	-0.4696	2.0729	1.629	9.2246	-0.9056	1.0429	0.0913	0.4203	-0.3362	-0.7325	9.7036	0.0262	-1.2467	0.0566	1.0083	-0.2702	-1.2899	-0.1044	0.0069
-0.2516	0.0096	9.9978	0.1627	-0.141	0.0257	-0.3557	0.5152	-0.5058	2.5359	1.4567	9.4669	-0.9298	0.7971	0.2773	0.4383	-0.3422	-0.7325	9.7583	0.0261	-1.3601	-0.127	1.0986	-0.2025	-1.2891	-0.0472	-0.009
-0.436	-0.3374	9.7654	-0.0196	0.0404	0.0319	-0.3563	0.5535	-0.4878	2.0259	1.4014	9.7497	-0.8391	0.8275	0.1229	0.4323	-0.3482	-0.7445	9.5981	0.3111	-0.7907	-0.1279	1.1295	-0.233	-1.3203	-0.0468	0.0437
-0.5542	-0.3388	9.8801	0.3414	-0.1056	-0.6524	-0.3338	0.4973	-0.455	2.5967	1.3424	9.6433	-0.6829	0.7999	0.3065	0.4383	-0.3482	-0.7325	9.2527	0.0838	-1.0833	-0.2726	1.0333	0.1086	-1.3528	-0.0674	0.0069
-0.2582	0.189	9.6452	0.696	-0.7105	-1.2236	-0.3549	0.4963	-0.5064	2.0817	1.6311	9.6932	-0.777	0.7969	0.092	0.4323	-0.3482	-0.7385	9.815	0.0829	-1.3591	-0.2917	1.2106	0.4793	-1.3049	-0.066	0.0256
-0.6185	-0.3941	9.6461	0.2673	-0.6241	-1.001	-0.3377	0.5144	-0.5047	2.3148	1.2289	9.8716	-0.8411	0.8566	-0.0616	0.4263	-0.3542	-0.7385	9.8182	0.0261	-1.1874	-0.2817	1.1145	0.8163	-1.3055	-0.067	-0.0277
-0.5577	-0.1031	9.7019	0.024	-0.5359	-0.7808	-0.3186	0.5142	-0.4869	2.0711	1.3409	9.1061	-0.873	0.982	0.1529	0.4203	-0.3542	-0.7385	9.5374	0.1404	-1.0208	-0.1995	1.3024	0.4466	-1.21	-0.0835	0.0092
0.1657	-0.1632	9.7738	0.0311	-0.3851	-0.347	-0.3727	0.5165	-0.49	1.6162	1.285	9.2728	-0.7226	1.1376	0.0897	0.4323	-0.3542	-0.7265	9.4754	0.1971	-1.308	-0.4241	1.1841	0.2065	-1.3067	-0.1249	-0.0473
-0.3783	0.7137	9.6948	-0.1819	-0.2963	-0.1887	-0.3348	0.4967	-0.4718	2.1948	1.1703	9.5762	-0.506	1.0456	-0.0647	0.4383	-0.3662	-0.7385	9.7036	0.0262	-1.2467	-0.3842	1.3323	0.4831	-1.2739	-0.1225	0.0422
-0.6152	0.245	9.8717	-0.2377	-0.1148	0.0928	-0.3168	0.4959	-0.4708	2.1359	1.5152	9.5181	-0.5401	1.1998	-0.0654	0.4263	-0.3482	-0.7325	9.8768	0.1968	-1.0718	-0.591	1.2057	0.8263	-1.2421	-0.1033	0.0079
-0.5613	0.1909	9.5231	-0.2035	0.0072	0.218	-0.3186	0.5142	-0.4869	2.3663	1.4	9.5805	-0.3188	0.9232	-0.1265	0.4323	-0.3542	-0.7385	9.8254	0.0833	-0.7867	-0.5429	1.2891	1.3786	-1.2744	-0.0862	-0.0632
-0.6108	0.1253	10.1067	-0.074	0.2828	0.3454	-0.3197	0.5136	-0.5037	1.8452	1.3996	9.2777	-0.4108	0.9229	-0.0645	0.4263	-0.3542	-0.7265	9.8178	0.3105	-1.1872	-0.5919	1.1916	1.8095	-1.3061	-0.1239	0.006
-0.4991	0.2477	9.6402	-0.3275	-0.117	0.3706	-0.3328	0.4979	-0.4382	2.2506	1.4	9.5197	-0.3475	0.7669	-0.2791	0.4143	-0.3542	-0.7385	9.7002	0.3104	-1.4182	-0.5144	1.0929	2.3287	-1.257	-0.0646	0.0443
-0.499	0.1894	9.6409	-0.2309	0.0977	0.4048	-0.3356	0.5156	-0.4712	2.3607	1.4562	9.2879	-0.192	0.7384	-0.1876	0.4263	-0.3482	-0.7325	9.6486	0.3107	-1.1331	-0.6611	0.9672	2.6087	-1.3058	-0.1047	0.0066
-0.0769	0.3632	9.7045	-0.0477	0.0697	0.2481	-0.3356	0.5156	-0.4712	2.2422	1.1678	9.0501	-0.005	0.6793	-0.0962	0.4263	-0.3362	-0.7325	9.5903	-0.1442	-1.2489	-0.5647	0.8742	2.7279	-1.2895	-0.0852	0.0075
-0.1973	-0.3363	9.6528	-0.1988	0.1898	0.3757	-0.35	0.4798	-0.4399	2.4772	1.6291	9.408	-0.1248	0.5238	-0.0638	0.4263	-0.3362	-0.7205	9.9855	0.7651	-1.2982	-0.5686	0.8455	2.6049	-1.2901	-0.1047	-0.0109
-0.2021	0.0752	9.4141	-0.1084	0.1302	0.2502	-0.3194	0.533	-0.4863	2.3789	1.1153	10.2236	0.1853	0.4657	-0.0039	0.4383	-0.3302	-0.7325	9.7625	-0.0306	-1.1313	-0.6267	0.8741	2.7298	-1.2887	-0.028	-0.0084
-0.5518	0.1843	10.0487	-0.2602	0.2505	0.3162	-0.3178	0.4953	-0.4875	2.1347	1.5724	9.4597	0.3104	0.3739	-0.0348	0.4383	-0.3482	-0.7325	9.8746	0.3104	-1.1861	-0.6218	0.9328	2.8838	-1.2747	-0.1239	-0.0289
-0.373	-0.0479	9.938	-0.321	0.2495	0.4092	-0.3526	0.5169	-0.4555	2.4247	1.4002	9.6402	0.187	0.3091	-0.218	0.4263	-0.3422	-0.7205	9.7648	-0.1443	-1.0169	-0.5886	0.7489	2.9735	-1.2899	-0.1044	0.0069
-0.3832	-0.3324	9.3576	-0.1686	0.1904	0.3138	-0.3158	0.4965	-0.454	2.0758	1.1694	9.3397	0.0955	0.3411	-0.0026	0.4323	-0.3422	-0.7505	9.7684	0.3109	-0.7876	-0.4133	0.9832	3.6154	-1.3212	-0.0486	-0.0452
-0.256	0.0709	9.7634	-0.0228	-0.1121	-0.0329	-0.3197	0.5136	-0.5037	2.4787	1.3993	9.4656	0.033	0.4029	0.0589	0.4443	-0.3542	-0.7565	9.3619	0.1972	-1.3101	-0.5249	1.0079	4.0184	-1.3217	-0.105	0.0063
-0.0721	0.0101	9.9425	0.1931	-0.1713	0.0246	-0.3142	0.4587	-0.4552	2.8255	0.9392	9.5873	-0.032	0.525	-0.0337	0.4263	-0.3602	-0.7265	9.5877	0.3106	-1.3631	-0.3279	1.0027	4.3812	-1.2738	-0.0852	-0.0099
-0.1971	0.2466	9.7039	0.438	-0.1986	-0.1328	-0.3189	0.4947	-0.5043	2.3602	1.7438	9.2892	-0.2168	0.5234	-0.0018	0.4263	-0.3422	-0.7265	9.7604	0.0262	-1.2457	-0.2313	1.2753	4.4726	-1.2736	-0.0848	0.0079
-0.4985	-0.1608	9.6453	0.1281	-0.3244	-0.0394	-0.2969	0.4768	-0.4535	2.1359	1.5152	9.5181	-0.2148	0.4625	0.0907	0.4323	-0.3542	-0.7385	9.5837	0.1398	-1.5921	-0.4598	1.4331	4.0813	-1.2902	-0.1051	-0.0286
-0.4418	0.0748	9.4683	0.0717	-0.0811	0.0896	-0.2836	0.512	-0.5016	2.2531	1.2279	9.6361	-0.28	0.6161	0.0594	0.4263	-0.3782	-0.7265	9.8791	0.0262	-0.9574	-0.3124	1.4671	3.8313	-1.2415	-0.065	0.0091
-0.8037	-0.1575	9.4064	0.0149	0.0392	0.3697	-0.315	0.4776	-0.4546	2.0803	1.8034	9.6354	-0.3731	0.6779	0.1518	0.4323	-0.3422	-0.7265	9.7623	0.1969	-1.1311	-0.4813	1.4432	3.3753	-1.2892	-0.066	0.0081
-0.0772	-0.1614	9.6527	-0.198	0.2202	0.4071	-0.3168	0.4959	-0.4708	2.5343	1.1111	9.3482	-0.3148	0.7695	-0.0335	0.4323	-0.3542	-0.7505	9.5943	0.0265	-1.0199	-0.5595	1.3593	2.8546	-1.306	-0.105	-0.0112
-0.4381	-0.336	9.6486	-0.0442	0.1605	0.4346	-0.3359	0.4961	-0.4886	2.4193	1.3414	9.347	-0.1633	0.863	-0.1271	0.4443	-0.3482	-0.7445	9.4706	-0.1444	-1.5944	-0.4796	1.1216	2.4508	-1.2247	-0.026	0.0284
-0.4925	0.0682	9.9928	-0.1365	0.221	0.3756	-0.3879	0.4996	-0.4581	2.7676	1.2843	9.5877	-0.2197	0.6468	-0.0333	0.4323	-0.3362	-0.7385	9.7089	-0.0304	-0.9606	-0.3842	1.029	2.5394	-1.3375	-0.0865	-0.0112
-0.0743	0.0115	9.8257	-0.3159	0.555	0.4158	-0.3361	0.4766	-0.5059	2.4247	0.7673	9.5788	-0.219	0.6477	0.0589	0.4383	-0.3542	-0.7325	9.4259	0.1974	-0.9084	-0.6887	0.8437	2.7314	-1.2895	-0.0852	0.0075
-0.7458	-0.0394	9.2892	-0.1699	0.1294	0.2817	-0.3158	0.4965	-0.454	2.0813	1.1707	9.6326	-0.2262	1.0195	0.1489	0.4323	-0.3482	-0.7265	10.0464	-0.0878	-1.1261	-0.4137	0.876	2.6005	-1.289	-0.0841	0.0609
-0.5557	0.0122	9.8173	0.1033	0.0419	-0.0311	-0.3518	0.4981	-0.456	2.3641	1.3995	9.4634	-0.294	1.6781	1.1902	0.4383	-0.3482	-0.7265	9.6465	0.3106	-1.2475	-0.2386	0.7896	2.2566	-1.2572	-0.0465	-0.0084
-0.858	0.1884	9.7514	0.3791	-0.1082	-0.0071	-0.3178	0.4953	-0.4875	2.1404	1.4012	9.7519	0.7434	2.1831	1.1504	0.4323	-0.3482	-0.7325	9.7619	-0.315	-1.1887	-0.354	0.7696	1.5224	-1.3053	-0.0852	0.025
-0.4329	-0.2813	9.9398	0.4096	-0.0154	-0.19	-0.3719	0.4977	-0.4906	2.0788	1.3427	9.5162	-0.3004	1.9875	1.2191	0.4383	-0.3542	-0.7325	9.7627	-0.1444	-1.1314	0.0709	0.7737	1.2332	-1.2728	-0.0462	0.0269
-0.3184	0.1891	9.6441	0.0703	-0.1421	0.0575	-0.3176	0.5148	-0.4702	2.4247	1.4002	9.6402	-1.1313	1.8857	1.1631	0.4443	-0.3542	-0.7265	9.7621	0.3106	-1.131	0.2117	0.8108	0.7683	-1.3048	-0.0472	0.0084
-0.6167	-0.2205	9.7607	-0.1126	-0.0219	0.0932	-0.2807	0.4943	-0.4687	1.6262	1.2298	9.7998	-1.1957	1.8816	0.7948	0.4443	-0.3422	-0.7325	10.0377	0.1962	-1.5837	0.3631	1.2087	0.6134	-1.2721	-0.0078	0.0281
-0.3782	-0.1026	9.6467	-0.3246	0.1895	0.162	-0.2995	0.514	-0.4691	2.0202	1.5151	9.4573	-1.0953	1.4797	0.7044	0.4203	-0.3542	-0.7385	9.9348	0.083	-1.0136	0.3976	1.1461	0.7347	-1.3056	-0.0859	-0.0106
-0.4433	-0.3907	9.3573	-0.3218	0.2191	0.3778	-0.3511	0.4792	-0.4566	2.3055	1.5144	9.4042	-0.9386	1.2623	0.4282	0.4323	-0.3422	-0.7565	9.531	0.2538	-1.3641	0.3136	1.2943	1.015	-1.2895	-0.0852	0.0075
-0.1401	0.2487	9.5297	-0.4722	0.4619	0.385	-0.2601	0.4563	-0.4521	2.6494	1.4563	9.4105	-0.3818	1.0162	-0.0345	0.4263	-0.3602	-0.7505	9.8182	0.0261	-1.1874	-0.017	1.1676	1.3619	-1.2571	-0.0462	0.0094
-0.7422	0.4246	9.517	-0.2905	0.3423	0.2263	-0.3181	0.4758	-0.5049	2.3715	1.5739	9.8742	-0.1926	0.8011	-0.0958	0.4503	-0.3482	-0.7385	9.8197	-0.3719	-1.1305	-0.2952	1.2892	1.3712	-1.2576	-0.0657	-0.009
-0.5587	-0.1607	9.6443	-0.1124	0.0088	0.0631	-0.3882	0.4802	-0.4755	2.3622	1.9169	9.4071	-0.066	0.616	-0.1877	0.4323	-0.3542	-0.7385	9.9259	0.4807	-1.4711	-0.4239	1.2305	1.2209	-1.2885	-0.0277	0.0094
-0.3183	0.0724	9.6456	0.0971	-0.2324	-0.1908	-0.2985	0.5146	-0.4524	1.8515	1.5737	9.63	-0.0334	0.4915	-0.31	0.4143	-0.3482	-0.7325	10.0997	0.1394	-1.2966	-0.6963	1.4553	0.4012	-1.3207	-0.066	0.043
-0.6189	-0.1023	9.6425	0.0987	-0.233	-0.037	-0.3395	0.5326	-0.5209	2.3633	1.2267	9.404	-0.4041	0.5186	-0.308	0.4443	-0.3542	-0.7385	9.9367	0.1968	-0.899	-0.8434	1.527	-0.362	-1.2885	-0.0461	0.0443
-0.2519	0.1846	9.9956	0.1315	-0.0797	-0.0956	-0.3338	0.4973	-0.455	2.1973	1.6887	9.7543	-0.5866	0.3928	-0.3369	0.4443	-0.3482	-0.7505	9.8103	0.4808	-1.5877	-1.2592	1.4417	-0.7805	-1.2741	-0.1044	-0.0105
-0.7936	0.1854	9.986	0.0381	-0.2034	0.0259	-0.3359	0.4961	-0.4886	2.3636	1.0542	9.4032	-0.5235	0.2683	-0.4902	0.4383	-0.3482	-0.7265	10.104	0.0827	-1.0677	-1.3205	1.35	-0.7486	-1.2724	-0.027	0.0275
-0.313	0.1271	9.9368	-0.3266	0.1288	0.0684	-0.3145	0.5165	-0.4198	2.1305	1.3989	9.2246	-0.7069	0.2049	-0.458	0.4443	-0.3482	-0.7325	9.7004	0.083	-1.4184	-1.5567	1.4055	-0.3724	-1.3214	-0.0859	0.0069
-0.069	0.0662	10.117	-0.3514	0.4336	0.1676	-0.3359	0.4961	-0.4886	2.0796	1.573	9.5758	-0.7371	0.1736	-0.4576	0.4323	-0.3602	-0.7265	9.6983	0.1397	-1.5328	-1.4798	1.3985	0.1169	-1.2894	-0.0848	0.0253
-0.2569	0.0132	9.7058	-0.3239	0.2507	0.1325	-0.3735	0.5354	-0.4894	2.1927	1.1122	9.4588	-0.7415	0.3585	-0.5202	0.4383	-0.3542	-0.7265	9.6507	0.3108	-1.0186	-1.5544	1.2071	0.7322	-1.273	-0.0465	0.0091
-0.3758	-0.3375	9.7664	-0.2581	0.4957	0.137	-0.3709	0.4983	-0.4739	2.1351	1.2849	9.4584	-0.558	0.422	-0.5524	0.4323	-0.3482	-0.7325	9.5893	-0.1443	-1.3062	-1.4451	1.0775	1.281	-1.2572	-0.065	0.0266
-0.4463	0.2528	9.2325	-0.2256	0.4339	0.3813	-0.3194	0.533	-0.4863	2.1348	1.5149	9.4595	-0.4019	0.3308	-0.5527	0.4263	-0.3482	-0.7505	9.8822	0.0264	-0.7857	-1.3342	1.1301	1.8619	-1.2729	-0.065	0.044
-0.1383	-0.2773	9.5947	-0.2279	0.2195	0.4997	-0.3011	0.5517	-0.4679	2.3069	1.3421	9.462	-0.3101	0.3944	-0.4615	0.4323	-0.3542	-0.7325	9.8824	-0.1442	-0.7859	-1.349	1.1835	2.3851	-1.3212	-0.067	-0.0103
-0.4989	0.131	9.6417	-0.259	0.2808	0.3784	-0.3367	0.515	-0.488	2.1374	1.2279	9.5753	-0.4001	0.3013	-0.3989	0.4383	-0.3482	-0.7325	9.759	0.3105	-1.3027	-1.2541	1.2435	2.4442	-1.2899	-0.1044	0.0069
-0.5028	-0.0995	9.411	-0.4725	0.3082	0.5969	-0.3014	0.5323	-0.4853	2.2502	1.6875	9.521	-0.4313	0.3958	-0.1842	0.4503	-0.3422	-0.7265	10.0506	-0.1445	-0.8972	-1.2134	1.3449	1.7371	-1.2571	-0.0462	0.0094
-0.2569	0.0132	9.7058	-0.5655	0.3074	0.5673	-0.3539	0.4969	-0.4896	2.0755	1.342	9.3404	-0.3402	0.4268	-0.2771	0.4383	-0.3602	-0.7265	9.7048	0.8225	-1.1316	-1.3343	1.1141	0.8478	-1.3043	-0.0277	0.0268
-0.3737	-0.339	9.8832	-0.5329	0.4301	0.5388	-0.3178	0.4953	-0.4875	2.2573	1.344	9.871	-0.7116	0.5799	-0.03	0.4263	-0.3422	-0.7325	9.5922	0.0265	-1.1343	-1.2599	1.2142	0.2318	-1.2728	-0.0277	-0.0081
-0.6163	0.2457	9.8133	-0.7183	0.459	0.4803	-0.2975	0.5152	-0.4356	2.5377	1.6873	9.5851	-0.7125	0.6424	0.0311	0.4443	-0.3362	-0.7265	9.8266	-0.0304	-0.7296	-1.2115	1.0986	-0.2008	-1.2261	-0.0842	-0.0089
-0.4397	0.0733	9.5851	-0.5003	0.4912	0.6013	-0.3178	0.4953	-0.4875	2.1998	1.5166	9.8706	-0.8052	0.6411	0.0009	0.4263	-0.3482	-0.7325	9.477	-0.2578	-1.2511	-0.9005	0.9457	-0.1499	-1.3067	-0.1249	-0.0473
-0.2549	0.0701	9.8218	-0.6193	0.6419	0.7906	-0.35	0.4798	-0.4399	1.901	1.6293	9.2213	-0.5289	0.6743	-0.0624	0.4563	-0.3302	-0.7325	9.8726	0.2535	-1.3007	-0.8025	1.0957	0.002	-1.2887	-0.0465	0.0265
-0.4978	0.0719	9.7008	-0.4658	0.7054	0.6055	-0.3186	0.5142	-0.4869	2.5912	1.3411	9.3504	-0.5308	0.767	-0.0629	0.4323	-0.3422	-0.7325	10.1034	-0.3154	-1.1252	-0.6004	0.9053	0.5476	-1.3058	-0.1047	0.0066
-0.1979	0.0722	9.6477	-0.2817	0.6154	0.632	-0.3181	0.4758	-0.5049	2.1338	1.3996	9.4004	-0.8374	0.6708	-0.0913	0.4383	-0.3542	-0.7385	9.5889	0.1969	-1.3059	-0.1626	0.812	0.6874	-1.3364	-0.0475	0.0256
-0.3236	0.0761	9.3536	-0.1953	0.2806	0.5621	-0.3693	0.4605	-0.475	2.4277	0.9406	9.7553	-0.7788	0.8263	-0.0618	0.4383	-0.3482	-0.7265	9.768	-0.201	-0.8452	0.2293	0.7112	1.3509	-1.3366	-0.0294	-0.0271
-0.4338	-0.3389	9.8822	-0.0431	0.2831	0.345	-0.2828	0.4931	-0.5022	2.1944	1.4003	9.5772	-0.6898	1.0134	-0.002	0.4383	-0.3542	-0.7445	9.7069	-0.0874	-1.0751	0.5204	0.4921	1.7706	-1.2732	-0.0284	-0.0436
-0.5576	-0.1615	9.7027	0.1933	-0.0791	-0.0964	-0.3003	0.5328	-0.4685	2.7633	1.2258	9.3531	-0.7499	0.983	0.1215	0.4503	-0.3602	-0.7265	10.0431	0.0258	-1.2977	0.923	0.5531	1.759	-1.2567	-0.027	0.01
-0.1976	-0.1612	9.6506	0.4101	0.0152	-0.1893	-0.2998	0.4945	-0.4865	1.6767	1.3432	9.4499	-0.5037	1.0485	0.2425	0.4383	-0.3542	-0.7325	9.9398	0.197	-0.7273	1.2325	0.5373	0.7356	-1.3055	-0.067	-0.0277
-0.4976	-0.0448	9.7023	0.1348	-0.0196	0.1209	-0.3171	0.4764	-0.4881	2.3696	1.4008	9.7563	-0.7208	1.1081	0.2435	0.4323	-0.3542	-0.7385	9.8204	-0.0875	-1.073	1.4716	0.5254	-0.5622	-1.2899	-0.0859	-0.028
-0.0146	0.3616	9.8224	0.1051	0.0104	0.1834	-0.3343	0.5356	-0.4371	2.0802	1.1705	9.574	-0.8403	0.9847	0.3986	0.4323	-0.3362	-0.7385	9.9949	0.7087	-0.7831	1.7184	0.5404	-1.6142	-1.3049	-0.066	0.0256
-0.3113	-0.3405	10.0011	-0.0168	0.07	0.2478	-0.3537	0.5163	-0.4722	2.8812	1.8593	9.5925	-0.9974	1.1065	0.368	0.4263	-0.3602	-0.7445	9.5928	-0.4285	-1.1347	1.6683	0.7322	-2.2565	-1.2733	-0.0657	0.0085
-0.4925	0.0682	9.9928	-0.1113	-0.0225	0.2162	-0.3341	0.4778	-0.4724	2.1316	1.3991	9.2832	-0.9016	0.8893	0.1844	0.4383	-0.3482	-0.7325	9.7098	0.1402	-0.9032	1.9567	0.8801	-1.9567	-1.3055	-0.067	-0.0277
-0.3162	0.1293	9.7616	0.0133	-0.0524	0.3677	-0.3171	0.4764	-0.4881	2.9859	1.1663	9.0058	-0.8994	0.765	0.1236	0.4263	-0.3422	-0.7205	9.8242	0.2539	-0.8438	1.9853	0.9887	-1.0348	-1.2888	-0.0653	0.0437
-0.7948	-0.4552	9.8773	0.1756	0.3765	0.4365	-0.3338	0.4973	-0.455	2.0776	1.4575	9.4581	-0.8699	0.8272	0.1231	0.4503	-0.3482	-0.7205	9.7032	0.3674	-1.2465	1.8848	0.9472	-0.2639	-1.2884	-0.0088	-0.0078
-0.5599	-0.0433	9.5844	0.0797	0.1616	0.4638	-0.3526	0.5169	-0.4555	2.2008	0.884	9.8678	-0.9043	0.9175	-0.0923	0.4383	-0.3482	-0.7445	9.985	0.2533	-1.3558	1.6866	0.8471	0.3558	-1.288	-0.0081	0.0278
-0.3724	0.3015	9.992	-0.0149	0.0692	0.4322	-0.3338	0.4973	-0.455	2.1989	1.3438	9.8113	-0.6544	0.7655	-0.0929	0.4443	-0.3602	-0.7385	9.8697	0.0827	-1.4725	1.6685	0.7496	0.7857	-1.2897	-0.0855	-0.0102
-0.6217	0.3661	9.5198	0.144	0.2535	0.5573	-0.3539	0.4969	-0.4896	1.7892	1.2849	9.3347	-0.5914	0.7043	-0.0929	0.4203	-0.3542	-0.7385	10.1575	0.1394	-1.2383	1.3936	0.7478	0.9169	-1.3375	-0.0865	-0.0112
-0.6125	-0.165	9.9936	-0.0727	0.3438	0.3774	-0.2663	0.5301	-0.5	2.0229	1.1706	9.5729	-0.4373	0.7058	-0.0938	0.4503	-0.3422	-0.7445	9.5936	-0.2578	-1.0773	1.4237	0.7786	0.8855	-1.2725	-0.0085	-0.0075
-0.0704	0.3004	10.0557	-0.1001	0.4343	0.5643	-0.3186	0.5142	-0.4869	2.2525	1.573	9.6377	-0.4033	0.5831	-0.0318	0.4383	-0.3422	-0.7205	9.8791	0.0262	-0.9574	1.1952	0.906	0.4939	-1.3051	-0.0663	0.0078
-0.4311	0.0091	10.053	0.0434	0.0713	0.0933	-0.3142	0.4587	-0.4552	2.655	1.4001	9.7032	-0.4922	0.4915	0.1843	0.4323	-0.3602	-0.7445	9.9946	0.0831	-0.8408	1.0706	0.9672	0.4674	-1.3049	-0.066	0.0256
-0.4901	-0.1083	10.1118	0.3743	-0.0446	-0.5592	-0.3171	0.4764	-0.4881	2.5356	0.9964	9.4063	-0.5262	0.6142	0.1223	0.4323	-0.3482	-0.7265	10.1079	0.3104	-0.8386	0.7535	1.2754	0.2028	-1.2885	-0.0277	0.0094
-0.4961	-0.3374	9.7643	0.6402	-0.4675	-1.0331	-0.315	0.4776	-0.4546	2.1933	1.4001	9.5186	-0.6483	0.6462	0.3687	0.4503	-0.3362	-0.7205	9.9282	0.3102	-1.3568	0.455	1.2236	-0.434	-1.2892	-0.066	0.0081
-0.5549	0.1865	9.8735	1.2752	-0.8859	-1.6652	-0.3341	0.4778	-0.4724	2.3107	1.0553	9.6365	-0.6191	0.6445	0.1534	0.4323	-0.3602	-0.7205	9.9881	0.3103	-1.1841	0.2911	1.3193	-0.7356	-1.2899	-0.0859	-0.028
-0.4972	-0.3366	9.7059	1.5791	-1.0653	-1.8574	-0.2975	0.5152	-0.4356	2.2475	1.2842	9.3435	-0.8675	0.735	0.1851	0.4323	-0.3482	-0.7205	9.7013	0.1967	-1.3611	0.1778	1.3897	-1.4077	-1.32	-0.0092	0.0093
-0.6788	-0.3357	9.6443	1.2114	-1.0087	-1.6671	-0.3385	0.5332	-0.5042	1.7944	1.4588	9.6284	-0.9662	0.9802	0.0613	0.4323	-0.3542	-0.7265	10.1069	0.2535	-0.8959	0.1016	1.6402	-1.8951	-1.2724	-0.027	0.0275
-0.2591	0.0731	9.5882	0.4798	-0.8665	-0.9782	-0.3367	0.515	-0.488	2.5966	1.3999	9.6435	-1.0953	1.1939	-0.0929	0.4143	-0.3542	-0.7205	9.6499	0.0833	-1.076	-0.1447	1.7614	-1.856	-1.2576	-0.0657	-0.009
-0.2582	0.189	9.6452	0.7283	-0.803	-0.9492	-0.3369	0.4955	-0.5053	2.4228	1.2271	9.5223	-1.0631	1.1324	-0.0927	0.4323	-0.3602	-0.7325	9.7636	-0.0306	-1.074	-0.3291	1.9131	-1.8185	-1.2726	-0.0458	0.0446
-0.4462	0.1944	9.2332	0.6	-0.9869	-1.1053	-0.3748	0.5154	-0.5236	1.9048	1.3425	9.3957	-0.9438	1.2555	-0.2785	0.4383	-0.3422	-0.7385	9.6483	-0.258	-1.1908	-0.2006	1.9109	-1.6688	-1.273	-0.0465	0.0091
-0.1989	0.0146	9.59	0.0478	-0.9633	-0.7903	-0.3168	0.4959	-0.4708	2.3673	1.4578	9.6394	-1.1652	1.4685	-0.4014	0.4323	-0.3482	-0.7265	10.0476	-0.2015	-1.069	-0.2041	1.9735	-1.7911	-1.3061	-0.1239	0.006
0.0997	0.1908	9.4763	0.0841	-0.8114	-0.5107	-0.3129	0.4788	-0.421	2.5425	0.8254	9.757	-1.2896	1.5294	-0.3703	0.4323	-0.3482	-0.7385	10.0421	-0.0311	-1.355	-0.1833	2.0392	-2.1292	-1.2894	-0.0848	0.0253
-0.4343	0.0113	9.8778	-0.249	-0.4792	-0.4071	-0.314	0.4782	-0.4378	2.2504	1.515	9.5203	-1.3554	1.7457	-0.3097	0.4143	-0.3362	-0.7325	9.5914	-0.1442	-1.1917	-0.1451	1.9589	-2.8992	-1.2576	-0.0657	-0.009
-0.561	-0.0425	9.526	0.1294	-0.2634	-0.0073	-0.3189	0.4947	-0.5043	2.3138	1.1711	9.8127	-1.1663	1.5306	-0.371	0.4323	-0.3662	-0.7325	9.9951	-0.2582	-0.8411	-0.2355	1.8503	-3.8192	-1.289	-0.0657	0.0259
-0.2575	-0.3362	9.6518	-0.1432	-0.0224	0.1243	-0.315	0.4776	-0.4546	1.9077	1.5733	9.5725	-1.1354	1.5628	-0.2792	0.4383	-0.3422	-0.7325	9.8228	-0.3149	-0.9587	-0.2625	1.6496	-4.6804	-1.2884	-0.0088	-0.0078
-0.1336	0.186	9.8809	-0.1719	0.0072	0.2791	-0.2781	0.4571	-0.4531	1.9639	1.573	9.515	-0.8179	1.1331	-0.2785	0.4383	-0.3542	-0.7325	9.8784	0.5949	-0.957	-0.4606	1.5943	-5.0744	-1.2716	0.0117	0.0465
-0.6755	0.3034	9.8699	0.0099	-0.1433	0.1813	-0.3011	0.5517	-0.4679	2.3673	1.4578	9.6394	-0.5069	1.0444	-0.1876	0.4263	-0.3602	-0.7385	9.8765	-0.4288	-1.1295	-0.4065	1.2018	-5.2942	-1.3202	-0.028	0.0265
-0.4402	-0.3345	9.5318	-0.1252	-0.4781	-0.3778	-0.3359	0.4961	-0.4886	2.3687	1.2855	9.6972	-0.2563	0.8614	-0.188	0.4383	-0.3482	-0.7325	9.8226	-0.1443	-0.9586	-0.4196	1.2079	-5.724	-1.2723	-0.0266	0.0452
-0.5036	-0.2739	9.3548	-0.7818	-0.9428	-0.4104	-0.3374	0.5338	-0.4874	2.3705	1.5161	9.8154	-0.3527	1.046	-0.1885	0.4383	-0.3482	-0.7385	9.9365	0.3674	-0.8989	-0.4585	1.364	-5.9981	-1.2733	-0.0472	-0.0265
-0.3734	0.2439	9.9343	-1.2188	-1.2221	-0.411	-0.298	0.4762	-0.4703	2.2513	1.6878	9.5796	-0.3245	1.2017	-0.0974	0.4383	-0.3362	-0.7385	9.9851	0.1964	-1.3558	-0.3775	1.7963	-6.4273	-1.2888	-0.0653	0.0437
-0.1952	-0.3378	9.7696	-0.6564	-0.9115	-0.2883	-0.299	0.4756	-0.4871	2.3676	1.2853	9.6386	-0.9748	1.3821	0.059	0.4383	-0.3482	-0.7385	9.8213	0.0263	-1.0157	-0.2283	2.1037	-6.6444	-1.2894	-0.0664	-0.0096
-0.3847	0.0185	9.2948	-0.8102	-1.0672	0.0178	-0.3701	0.4794	-0.4744	2.1887	1.514	9.2848	-1.4117	1.5932	-0.0319	0.4203	-0.3302	-0.7325	10.1639	0.0828	-0.8949	0.0079	2.6577	-7.0773	-1.321	-0.0667	0.0075
-0.1967	-0.0452	9.7075	-0.4077	-1.0635	0.1051	-0.2781	0.4571	-0.4531	2.6497	1.2837	9.4098	-1.8482	1.8049	-0.0614	0.4383	-0.3542	-0.7265	9.7099	0.0265	-0.9033	-0.1748	2.7172	-6.9791	-1.2895	-0.1037	0.0425
-0.2	0.0737	9.5309	-0.2797	-0.8795	0.2305	-0.3322	0.4595	-0.4562	2.7645	1.1685	9.4115	-1.8538	1.9883	-0.2775	0.4323	-0.3362	-0.7505	9.8826	-0.258	-0.786	0.0591	2.5264	-6.4038	-1.2736	-0.1033	0.0428
-0.6771	-0.0453	9.7575	-0.0558	-0.5729	0.4803	-0.3202	0.5519	-0.4858	2.2582	1.4593	9.9301	-2.0745	2.2022	-0.3082	0.4323	-0.3542	-0.7265	9.4176	0.1402	-1.3663	0.0086	2.2468	-6.0051	-1.2735	-0.066	-0.0093
-0.0756	0.2457	9.7644	-0.2343	-0.147	0.4611	-0.3348	0.4967	-0.4718	2.6543	1.8026	9.705	-1.8604	2.2975	-0.2793	0.4383	-0.3542	-0.7205	9.3631	0.0835	-1.2529	0.1327	2.0333	-5.9798	-1.2888	-0.0653	0.0437
-0.4333	0.0689	9.9354	0.0193	0.2835	0.4057	-0.3341	0.4778	-0.4724	2.3142	0.9411	9.8117	-1.2332	1.8409	-0.1881	0.4443	-0.3422	-0.7205	9.9306	0.0828	-1.2425	-0.1087	1.3293	-5.7016	-1.2583	-0.0856	-0.0451
-0.4997	-0.0434	9.5855	-0.6522	0.5809	0.6974	-0.3186	0.5142	-0.4869	2.4189	1.5714	9.3481	-0.5782	1.5078	-0.1592	0.4263	-0.3602	-0.7205	9.7602	0.1968	-1.2456	-0.3929	0.7383	-4.8067	-1.3061	-0.1239	0.006
-0.0766	0.1881	9.7067	-0.8086	0.5801	0.5148	-0.3385	0.5332	-0.5042	2.138	1.5732	9.6355	0.1417	1.0207	-0.1298	0.4443	-0.3482	-0.7265	9.8251	0.3108	-0.7866	-0.6083	0.2355	-3.698	-1.2896	-0.0667	-0.0274
-0.0757	0.3041	9.7637	-0.7382	0.8233	0.9497	-0.3341	0.4778	-0.4724	2.1383	1.3432	9.6344	0.1519	0.589	-0.0044	0.4383	-0.3422	-0.7145	9.8083	0.4807	-1.7021	-0.6421	-0.1129	-2.7472	-1.2572	-0.065	0.0266
-0.5539	0.2441	9.9311	-0.3384	0.705	0.9729	-0.3498	0.4993	-0.4225	2.6501	1.0537	9.4087	0.5044	-0.0573	-0.0641	0.4323	-0.3362	-0.7385	9.6456	0.1969	-1.3049	-0.4852	-0.3272	-2.6615	-1.3051	-0.0479	-0.0271
-0.0796	0.0735	9.533	-0.3773	0.5542	0.4473	-0.3181	0.4758	-0.5049	2.4199	1.6292	9.4069	0.449	-0.2405	0.2446	0.4323	-0.3542	-0.7265	9.6486	0.3107	-1.1331	-0.514	-0.2368	-2.5984	-1.2574	-0.0653	0.0088
-0.6214	0.1326	9.5227	-0.3505	0.3101	0.4417	-0.2974	0.4378	-0.4883	2.1302	1.6289	9.2257	0.0786	-0.2448	0.1854	0.4443	-0.3542	-0.7325	9.6448	0.0262	-1.3622	-0.4194	0.311	-2.5969	-1.3058	-0.1047	0.0066
-0.318	-0.1027	9.6478	-0.3218	0.2191	0.3778	-0.3544	0.4579	-0.5243	1.9607	1.5147	9.339	-0.4149	-0.1865	0.3416	0.4443	-0.3482	-0.7205	9.9891	0.3672	-1.1268	-0.2069	0.4655	-2.7556	-1.2892	-0.066	0.0081
-0.3714	0.3592	10.0496	-0.2314	0.1286	0.3132	-0.339	0.4943	-0.5389	2.3653	1.3423	9.5217	-0.8548	0.243	0.4645	0.4383	-0.3362	-0.7385	9.5403	0.3111	-0.849	0.2107	0.8387	-3.3182	-1.2895	-0.1037	0.0425
-0.3728	-0.1646	9.9394	-0.3893	0.0362	0.1287	-0.3361	0.4766	-0.5059	2.1334	0.9968	9.34	-1.1407	0.6106	0.4025	0.4443	-0.3482	-0.7385	9.7139	0.1404	-0.6743	0.3813	1.0897	-3.8437	-1.2743	-0.1047	-0.0283
-0.6163	0.3041	9.8125	-0.205	-0.023	0.1251	-0.3542	0.5547	-0.4543	2.3048	1.2841	9.3446	-1.2143	1.1028	0.2157	0.4503	-0.3422	-0.7385	9.656	0.2542	-0.7325	0.5725	1.0567	-3.6653	-1.2575	-0.1026	0.0609
-0.4317	0.4176	10.0478	-0.3892	0.0977	0.0378	-0.3699	0.4989	-0.4571	2.1914	1.227	9.4007	-1.0036	1.289	0.0597	0.4323	-0.3482	-0.7265	10.1678	0.2536	-0.6659	0.4322	1.1718	-3.1993	-1.2576	-0.0657	-0.009
-0.3193	0.0731	9.5872	-0.2922	0.1276	0.4062	-0.3158	0.4965	-0.454	2.1378	1.6882	9.636	-1.0981	1.3808	0.0597	0.4443	-0.3302	-0.7325	9.6529	0.254	-0.9042	0.471	0.9853	-2.9254	-1.2897	-0.0855	-0.0102
-0.6204	-0.5677	9.5315	-0.2946	0.1594	0.1302	-0.3377	0.5144	-0.5047	2.4752	0.8807	9.2289	-0.7597	1.3834	-0.0345	0.4383	-0.3482	-0.7265	9.534	0.3677	-1.1924	0.2414	1.0377	-2.3343	-1.2735	-0.066	-0.0093
-0.324	0.3679	9.3499	0.0724	0.0416	-0.0308	-0.316	0.477	-0.4713	2.8201	1.5132	9.3555	-0.6632	1.1671	-0.126	0.4383	-0.3482	-0.7265	9.7118	0.1403	-0.7888	0.1826	1.1277	-2.2396	-1.2895	-0.0852	0.0075
-0.3193	0.0731	9.5872	0.1255	-0.3233	-0.2854	-0.3003	0.5328	-0.4685	2.3037	1.2838	9.286	-0.785	1.1361	-0.0022	0.4263	-0.3482	-0.7325	9.8231	0.3107	-0.901	0.02	1.3446	-2.5096	-1.3062	-0.1054	-0.029
-0.2596	-0.3348	9.535	0.753	-1.3846	-0.6238	-0.2671	0.549	-0.4994	2.2463	1.3414	9.2852	-0.7575	1.2592	-0.0952	0.4443	-0.3422	-0.7445	9.6518	0.254	-0.9614	0.0414	1.5929	-2.8462	-1.3227	-0.1441	-0.0305
-0.319	-0.1603	9.5901	-0.4326	-1.9453	-0.8671	-0.2982	0.4567	-0.4877	1.7923	1.4007	9.5109	-1.2822	1.2847	-0.0923	0.4503	-0.3542	-0.7265	9.7076	0.197	-1.0177	0.1434	2.1213	-3.6133	-1.3373	-0.0862	0.0066
-0.5548	0.0698	9.8749	-0.427	-1.7322	-0.678	-0.3171	0.4764	-0.4881	1.7964	1.5743	9.746	-1.7513	1.5574	-0.1834	0.4323	-0.3422	-0.7385	9.8724	0.3672	-1.3006	0.1908	2.9205	-4.1614	-1.275	-0.1431	-0.0295
-0.3755	0.2454	9.8175	0.4123	-1.4799	-0.5601	-0.3537	0.5163	-0.4722	2.0822	1.286	9.6917	-2.0893	1.5554	-0.0277	0.4323	-0.3482	-0.7445	9.65	0.0264	-1.0761	0.3197	3.3593	-5.0529	-1.2905	-0.1427	0.0057
-0.3792	-0.1602	9.589	0.6981	-1.0497	-0.4928	-0.3717	0.5171	-0.4733	2.0301	1.5174	9.9845	-2.0328	1.7718	-0.0908	0.4443	-0.3602	-0.7205	9.8864	0.0265	-0.5568	0.3919	3.6433	-5.7595	-1.2572	-0.065	0.0266
-0.5586	0.5389	9.6939	-0.1352	-0.9046	-0.6638	-0.2825	0.5126	-0.4849	2.6491	0.9959	9.3499	-1.8498	1.8346	-0.1844	0.4443	-0.3362	-0.7385	9.9377	0.2537	-0.8418	0.2214	3.742	-6.276	-1.2589	-0.1424	-0.0114
-0.4922	-0.1068	9.995	-0.3245	-1.397	-0.2723	-0.3542	0.5547	-0.4543	2.3102	1.3429	9.6377	-1.3631	2.117	-0.2812	0.4263	-0.3482	-0.7445	9.7073	0.4245	-1.0175	-0.0609	3.7437	-6.3905	-1.2581	-0.1037	0.0076
-0.6206	0.307	9.5789	-0.758	-1.4625	-0.2682	-0.3518	0.4981	-0.456	2.251	1.1699	9.5187	-1.6504	2.451	-0.6195	0.4383	-0.3482	-0.7505	10.3331	0.0257	-0.9491	-0.1104	3.8293	-5.9888	-1.2738	-0.0852	-0.0099
-0.257	0.0716	9.705	-0.79	-1.6469	-0.0873	-0.3518	0.4981	-0.456	2.3111	1.4582	9.6968	-1.6519	2.5761	-0.4666	0.4443	-0.3302	-0.7265	9.8773	-0.2013	-1.0721	-0.0517	3.7089	-6.0838	-1.2248	-0.0633	0.0805
-0.3795	0.0732	9.5861	-0.8797	-1.4337	-0.1431	-0.2637	0.4929	-0.4844	2.6526	1.5146	9.5865	-1.2438	2.2402	-0.467	0.4383	-0.3362	-0.7325	9.8742	0.6516	-1.1859	-0.4419	3.7175	-6.6866	-1.2745	-0.142	0.0238
-0.0836	-0.0986	9.3016	-0.2893	-1.2139	-0.1457	-0.3918	0.5167	-0.5078	2.5437	1.401	9.8767	-1.1183	2.149	-0.4364	0.4503	-0.3422	-0.7385	9.6497	0.3108	-1.0759	-0.7801	3.8831	-7.6277	-1.3215	-0.0862	-0.0109
-0.4977	0.0135	9.7015	-0.1067	-1.2417	-0.3639	-0.2655	0.5112	-0.5006	2.4241	1.1124	9.5803	-0.8637	1.7805	-0.4357	0.4323	-0.3542	-0.7445	9.9313	0.3672	-1.1851	-0.8863	4.1331	-8.0835	-1.274	-0.104	0.0072
-0.2042	0.0183	9.298	-0.5051	-1.5239	0.3731	-0.3348	0.4967	-0.4718	2.2583	0.7689	9.8684	-0.7978	1.6278	-0.3123	0.4503	-0.3482	-0.7325	9.4172	0.5383	-1.366	-0.7849	4.4644	-7.838	-1.3063	-0.1427	0.0231
-0.4311	0.0091	10.053	-1.9991	-2.0263	0.0734	-0.3374	0.5338	-0.4874	2.3661	1.515	9.581	-1.1973	1.5618	-0.3096	0.4263	-0.3542	-0.7205	9.4784	0.3109	-1.1362	-0.843	4.7674	-7.7417	-1.306	-0.105	-0.0112
-0.5577	-0.1031	9.7019	-1.6908	-2.1153	0.1599	-0.3523	0.4591	-0.4908	2.1339	1.3421	9.4001	-1.447	1.7778	-0.0943	0.4323	-0.3482	-0.7445	9.8779	0.1399	-1.0146	-0.85	5.2583	-8.0141	-1.3062	-0.1054	-0.029
-0.0685	-0.3423	10.1221	-1.2889	-1.9883	0.0038	-0.3364	0.5344	-0.4706	2.1944	1.4003	9.5772	-1.6617	1.7135	-0.1234	0.4323	-0.3362	-0.7385	10.0414	0.5375	-1.3545	-0.8782	5.5458	-8.9636	-1.274	-0.0671	-0.0626
0.1108	-0.1667	10.0647	-0.943	-1.6798	0.0984	-0.2969	0.4768	-0.4535	2.1374	1.2279	9.5753	-1.628	1.5586	-0.1841	0.4383	-0.3482	-0.7385	9.9261	0.3101	-1.4713	-0.9055	5.5281	-9.8541	-1.2581	-0.0852	-0.0274
-0.1353	-0.1044	9.7677	-1.0331	-1.528	0.1028	-0.3199	0.4941	-0.5211	1.9094	1.2285	9.6295	-1.4424	1.5296	-0.185	0.4323	-0.3542	-0.7325	9.9348	0.083	-1.0136	-1.2543	5.288	-10.0914	-1.2907	-0.1615	0.0229
-0.4969	0.1879	9.7577	-0.5876	-0.6062	-0.098	-0.2998	0.4945	-0.4865	2.0271	1.3441	9.808	-0.9418	1.1946	-0.186	0.4323	-0.3542	-0.7445	9.6513	0.7089	-0.9611	-1.153	4.9648	-8.7756	-1.274	-0.0855	-0.0277
-0.8515	0.1256	10.1025	0.0207	0.6828	-0.0777	-0.333	0.4784	-0.4556	2.1384	1.2856	9.6342	-0.2248	0.8308	-0.188	0.4503	-0.3482	-0.7625	9.3654	0.7092	-1.0808	-1.1234	4.4939	-7.7662	-1.2911	-0.1622	-0.0127
-0.2571	0.13	9.7043	0.7723	1.3627	-0.1647	-0.3518	0.4981	-0.456	2.1428	1.2867	9.8685	0.9897	0.2869	-0.1612	0.4443	-0.3482	-0.7385	9.8218	0.4813	-0.9581	-1.1275	3.7948	-7.8332	-1.2905	-0.1427	0.0057
-0.1344	0.0116	9.8247	0.0335	1.6003	-0.304	-0.3166	0.5154	-0.4534	2.0901	1.1728	10.1012	1.7425	-0.3244	-0.2234	0.4503	-0.3482	-0.7325	9.8752	-0.2014	-1.1865	-1.3585	3.1164	-7.2171	-1.2583	-0.0856	-0.0451
-0.1923	-0.1649	9.9426	-0.1777	1.7806	-0.1129	-0.3333	0.4589	-0.473	2.3099	1.5154	9.6385	2.3398	-0.7801	-0.0091	0.4323	-0.3482	-0.7385	10.2133	0.0824	-1.2945	-1.1463	2.5555	-6.3061	-1.2745	-0.142	0.0238
-0.2631	-0.0991	9.3568	0.0636	1.4779	-0.184	-0.2818	0.4937	-0.4855	1.6796	1.574	9.6267	2.2073	-1.7385	0.151	0.4383	-0.3422	-0.7385	10.1618	0.0827	-1.0094	-0.8924	2.4308	-6.0995	-1.2753	-0.1807	0.0048
-0.375	-0.1048	9.8219	-1.5224	0.6666	0.0643	-0.3537	0.5163	-0.4722	2.0797	1.5155	9.5755	1.9066	-1.9225	0.6456	0.4443	-0.3602	-0.7325	10.7839	0.1387	-1.1124	-0.3877	2.7458	-6.8496	-1.3229	-0.1629	-0.0133
-0.8594	-0.3354	9.6412	-1.5264	0.3299	0.2108	-0.3369	0.4955	-0.5053	2.0789	1.2852	9.5159	1.2357	-2.1104	1.1116	0.4443	-0.3362	-0.7445	9.9919	0.6517	-0.9549	0.0533	3.0922	-7.659	-1.2584	-0.1229	0.007
-0.682	-0.3335	9.4692	-0.7784	0.5807	0.4529	-0.3341	0.5551	-0.4197	2.4231	1.0546	9.5215	0.5264	-2.0544	1.269	0.4323	-0.3482	-0.7385	9.9818	0.31	-1.5275	0.6872	3.6181	-8.2576	-1.306	-0.105	-0.0112
-0.3711	0.1257	10.0526	-0.6609	0.3384	0.2617	-0.3537	0.5163	-0.4722	2.2448	1.5712	9.2276	-0.3707	-1.9086	1.3042	0.4443	-0.3422	-0.7445	9.8778	0.2537	-1.0145	0.9983	3.5101	-9.2204	-1.2748	-0.1427	-0.0118
-0.6243	-0.0403	9.3497	-0.8513	0.0925	0.1665	-0.3142	0.4587	-0.4552	2.3667	1.17	9.5795	-0.5055	-1.4164	1.1791	0.4383	-0.3662	-0.7145	9.4195	0.3109	-1.2517	1.2876	3.3368	-9.8757	-1.3066	-0.1434	-0.0124
-0.1371	-0.3364	9.6539	-1.2931	-0.2771	-0.1435	-0.316	0.477	-0.4713	2.1897	1.6293	9.3439	-0.4565	-0.8602	1.0833	0.4383	-0.3362	-0.7385	9.658	1.1642	-0.5601	2.0925	2.7421	-10.8572	-1.2897	-0.104	0.0247
-0.0807	0.0743	9.4746	-1.2777	-1.0086	-0.4671	-0.3341	0.4778	-0.4724	2.7638	0.9382	9.3518	-0.1218	-0.7355	0.8348	0.4383	-0.3542	-0.7325	9.2575	0.4252	-0.7969	2.2624	2.185	-12.3417	-1.2907	-0.143	-0.0121
-0.3805	0.0156	9.5284	-2.4098	-2.0881	-0.6916	-0.3508	0.4987	-0.4393	2.3611	1.2262	9.2869	-0.0398	-0.3668	0.4941	0.4323	-0.3422	-0.7325	9.6544	0.7091	-0.7894	2.2258	2.1876	-12.525	-1.322	-0.1242	0.0057
-0.4987	0.0143	9.6431	-2.6039	-2.6093	-0.7005	-0.3184	0.5336	-0.4696	2.1976	1.4586	9.7532	0.001	-0.7348	0.7726	0.4203	-0.3482	-0.7325	9.5385	0.9935	-0.9057	2.9526	2.7136	-13.1264	-1.2752	-0.1619	-0.0124
-0.7351	-0.1051	9.874	-2.018	-2.603	-0.8	-0.3359	0.4961	-0.4886	2.081	1.3433	9.6333	-0.3455	-1.7249	1.0878	0.4443	-0.3542	-0.7325	9.4832	0.6524	-0.8498	3.6391	3.5647	-13.0479	-1.2272	-0.1605	0.0064
-0.4976	-0.0448	9.7023	-1.4525	-2.1706	-0.5824	-0.3184	0.5336	-0.4696	2.3117	1.8035	9.757	0.2704	-3.0462	1.3072	0.4383	-0.3482	-0.7205	9.8236	0.7088	-0.8435	3.8768	4.5607	-12.4632	-1.3073	-0.1817	-0.0136
-0.4333	0.0689	9.9354	-0.7675	-1.7354	-0.7353	-0.281	0.5521	-0.4334	1.852	1.2861	9.6287	1.3678	-3.7739	1.6431	0.4323	-0.3602	-0.7205	9.7103	0.5384	-0.8457	4.3528	5.2869	-12.1644	-1.2425	-0.1225	0.0073
-0.5603	0.2485	9.5807	-0.6811	-2.0702	-0.8052	-0.3534	0.5358	-0.4549	2.5466	1.6319	10.0535	2.6923	-5.1521	1.6128	0.4383	-0.3482	-0.7385	9.4736	0.8226	-1.3647	4.2002	5.7125	-12.1257	-1.3229	-0.1444	-0.0483
-0.2679	-0.504	9.07	-0.3476	-2.4026	-0.8781	-0.3158	0.4965	-0.454	2.3194	1.1149	10.1054	3.7056	-6.3783	1.6449	0.4563	-0.3482	-0.7385	9.7612	1.0499	-1.1304	3.924	5.8637	-12.0547	-1.2591	-0.1427	-0.0292
-0.5528	0.185	9.9903	0.5163	-2.7318	-0.4655	-0.3341	0.4778	-0.4724	2.3817	1.4036	10.4007	6.312	-8.5148	1.7959	0.4383	-0.3422	-0.7385	9.7557	0.4241	-1.4743	3.2942	5.4722	-12.3463	-1.3076	-0.2009	-0.0142
-0.3175	0.3051	9.701	-1.3655	-2.7211	-0.2572	-0.2998	0.5718	-0.4338	2.6654	1.1148	10.2291	8.5076	-11.5819	2.0779	0.4323	-0.3542	-0.7325	10.1633	0.5378	-0.8946	2.3334	4.8323	-12.292	-1.2917	-0.2006	-0.0139
-0.0157	-0.3373	9.7144	-2.3489	-2.487	-0.1475	-0.3354	0.535	-0.4538	2.5924	1.9303	12.5152	16.9267	-15.8228	2.2995	0.4263	-0.3482	-0.7205	9.3613	0.6522	-1.3097	0.758	4.1435	-13.08	-1.2599	-0.1814	-0.0482
-0.0736	0.3026	9.8805	-3.9839	-2.5352	0.118	-0.3377	0.5144	-0.5047	3.3219	1.235	11.6477	22.0751	-18.742	1.9487	0.4323	-0.3542	-0.7325	9.9238	1.3337	-1.5277	-0.832	2.974	-14.3017	-1.2916	-0.2002	0.0039
-0.1381	0.364	9.6451	-5.5944	-2.6727	-0.08	-0.3518	0.4981	-0.456	1.9971	1.4657	11.2719	15.1027	-26.2458	0.8358	0.4323	-0.3242	-0.7205	9.5211	1.5615	-1.821	-2.8624	1.9455	-14.7409	-1.2759	-0.1818	-0.0485
-0.3156	-0.3376	9.7675	-7.2009	-2.6273	-0.1819	-0.3343	0.4583	-0.4897	2.2948	1.3528	11.8627	23.2358	-31.1603	2.0773	0.4323	-0.3422	-0.7205	9.7503	1.4475	-1.7024	-4.7159	0.7993	-15.4628	-1.2747	-0.1239	-0.0289
-0.7359	-0.2794	9.8178	-7.3545	-2.5984	-0.1486	-0.3176	0.5148	-0.4702	2.6399	1.8703	11.9888	23.9039	-36.1873	2.81	0.4083	-0.3722	-0.7265	10.38	2.1295	-1.3471	-6.5075	0.2482	-15.2293	-1.2593	-0.1246	-0.0819
-0.3186	-0.4521	9.5938	-6.916	-2.289	-0.0551	-0.3518	0.4981	-0.456	4.0752	0.085	12.0083	32.8605	-41.3278	2.1735	0.4203	-0.3782	-0.7265	10.3842	1.2766	-1.176	-8.0723	-0.0942	-14.6935	-1.2912	-0.1626	-0.0305
-0.0712	0.126	9.9995	-6.043	-1.9145	0.1266	-0.333	0.4784	-0.4556	2.4694	1.0079	11.9816	33.5956	-46.3232	-0.3516	0.4143	-0.3662	-0.7205	9.9776	1.2198	-1.6984	-9.5473	0.083	-14.3099	-1.2762	-0.2009	-0.0491
-0.1322	-0.0482	9.9422	-5.4869	-1.9397	0.1806	-0.3508	0.4987	-0.4393	2.8842	1.3557	12.7524	36.0019	-52.8428	-2.3551	0.4143	-0.3602	-0.7205	10.1528	1.4473	-1.409	-10.8314	0.4103	-13.7772	-1.2765	-0.2386	-0.0148
-0.2469	-0.3436	10.2357	-5.3582	-1.6944	0.2766	-0.3534	0.5358	-0.4549	3.2901	2.4493	13.1165	46.1949	-58.6349	-4.5314	0.4083	-0.3542	-0.7265	10.0417	1.1631	-1.2968	-11.3373	0.9332	-14.1574	-1.3073	-0.1817	-0.0136
-0.3773	0.0134	9.7036	-4.3722	-1.8065	0.231	-0.333	0.4784	-0.4556	2.8086	0.4885	11.693	46.4809	-64.5952	-3.9445	0.4143	-0.3662	-0.7145	9.657	0.3111	-0.6752	-11.9148	1.0643	-14.8151	-1.2909	-0.1619	0.0051
-0.261	-0.1006	9.4736	-4.156	-1.8658	0.3193	-0.3537	0.5163	-0.4722	3.0573	1.2981	12.814	43.4015	-67.3141	-6.8602	0.4143	-0.3903	-0.7325	9.1429	1.2784	-0.7983	-11.7146	1.1796	-14.3592	-1.2919	-0.2009	-0.0317
-0.5619	-0.1002	9.4683	-3.6848	-1.526	0.536	-0.3529	0.4975	-0.4728	2.8158	1.4107	12.1658	63.8531	-70.8548	-4.4701	0.4143	-0.3662	-0.7085	10.0512	0.2536	-0.8397	-12.0672	0.8963	-13.7056	-1.2594	-0.1804	0.0051
-0.4386	0.0726	9.6434	-3.0686	-1.673	0.6173	-0.2977	0.4957	-0.4529	3.6089	1.5798	11.7133	60.2613	-72.0144	-5.4562	0.3963	-0.3782	-0.7085	10.1107	0.538	-0.6667	-12.0428	0.5946	-13.8931	-1.2912	-0.1626	-0.0305
-0.0748	-0.3379	9.7717	-2.388	-1.605	0.6103	-0.3176	0.5148	-0.4702	3.8467	1.639	12.1866	65.0839	-63.2665	-7.8719	0.4083	-0.3843	-0.7025	9.6047	0.8801	-0.3897	-11.9489	0.3344	-14.8506	-1.2918	-0.1821	-0.0489
-0.5587	-0.1607	9.6443	-1.9529	-1.3249	0.4263	-0.3346	0.5161	-0.4544	4.1688	1.4608	11.0208	85.023	-62.3823	-7.9327	0.3903	-0.3843	-0.7025	9.7159	1.0504	-0.5019	-11.3961	0.1233	-14.9918	-1.276	-0.2006	-0.0314
-0.3146	-0.28	9.8252	-2.3445	-0.8101	0.5654	-0.2794	0.5144	-0.4346	3.8045	1.2264	9.9002	81.908	-54.9621	-11.308	0.3903	-0.3843	-0.7145	9.7751	0.7661	-0.3866	-11.0831	0.0448	-15.893	-1.3082	-0.202	-0.0676
-0.3179	-0.2194	9.6492	-1.9768	-1.0205	0.6178	-0.3155	0.516	-0.4366	4.0843	1.2819	9.5545	87.4573	-49.0294	-11.3144	0.4023	-0.3843	-0.6904	9.9444	0.709	-0.4408	-10.182	0.241	-16.8403	-1.3559	-0.2214	-0.0336
-0.1952	-0.3378	9.7696	-1.4142	-0.7407	0.8013	-0.3204	0.5324	-0.5031	-0.3511	0.9385	8.1794	92.6287	-27.7158	-9.7201	0.3963	-0.4023	-0.6724	10.1765	0.8227	-0.1504	-9.5315	0.6981	-16.8868	-1.2445	-0.2191	-0.0313
-0.4307	-0.3411	10.0574	-0.8217	-0.3988	0.8013	-0.3147	0.4971	-0.4372	-3.6724	-2.6937	4.8199	78.6909	-5.1696	5.6534	0.4023	-0.3903	-0.6724	10.1157	0.7088	-0.3804	-8.3341	1.4202	-16.3022	-1.2615	-0.2585	-0.0684
-0.0748	-0.3379	9.7717	0.2671	-0.0219	0.9495	-0.3163	0.5348	-0.436	-3.2143	-1.2426	7.9974	42.1665	-3.3935	46.5469	0.3903	-0.4023	-0.6844	9.3801	0.5961	-0.2796	-7.549	2.0088	-17.0278	-1.2604	-0.2194	-0.0317
-0.0731	-0.0476	9.8849	0.7985	0.3191	1.0118	-0.2787	0.4955	-0.4351	-2.5457	-4.4262	3.6625	-4.0378	-9.465	69.2918	0.4083	-0.4323	-0.6904	9.7237	0.7095	-0.1016	-7.0492	2.8748	-17.9885	-1.2599	-0.1814	-0.0482
-0.1978	0.0139	9.6484	0.9946	1.024	0.9323	-0.3735	0.5354	-0.4894	-0.6118	-4.5783	9.0278	-12.8189	-5.9342	76.1155	0.3963	-0.3963	-0.6724	10.0058	0.311	-0.2111	-6.4859	3.9388	-17.9046	-1.245	-0.2571	-0.0148
-0.1366	0.0714	9.7071	0.6644	1.5703	0.9791	-0.3186	0.5142	-0.4869	0.3469	-3.9507	8.2878	-10.4985	-1.1171	66.36	0.3843	-0.4203	-0.6844	10.0617	0.9934	-0.2095	-5.846	5.179	-17.3607	-1.2763	-0.2197	-0.032
-0.3136	-0.2223	9.8828	0.4199	1.7821	0.8945	-0.2828	0.5704	-0.4496	0.7173	-4.7065	6.5933	-17.5973	7.1105	48.1875	0.3843	-0.4143	-0.6724	9.7203	0.88	-0.2731	-5.3826	6.0794	-16.4762	-1.2607	-0.2571	0.0027
-0.0705	-0.3992	10.0061	0.05	1.9626	0.6878	-0.3359	0.5734	-0.4359	0.1566	-4.1848	7.2876	-34.1144	16.1027	26.287	0.3903	-0.4083	-0.6784	9.8884	0.9935	-0.3844	-5.218	6.5176	-15.187	-1.293	-0.24	-0.0685
-0.6176	-0.3365	9.7038	0.2039	1.8721	0.7761	-0.3176	0.5148	-0.4702	0.2899	-4.1806	8.2857	-43.3486	24.7335	4.0713	0.3963	-0.3903	-0.6784	9.2616	0.4823	-0.5679	-5.4424	6.4152	-14.4128	-1.2762	-0.2194	-0.0142
-0.3183	0.0724	9.6456	0.5723	1.6614	0.89	-0.3336	0.5167	-0.4377	-0.5701	-3.1437	8.3324	-47.4847	31.636	-13.5223	0.3903	-0.4023	-0.6784	9.7182	0.9368	-0.3875	-5.6379	5.9785	-13.673	-1.2772	-0.2584	-0.051
-0.0676	-0.2263	10.1791	1.2556	1.6975	1.1897	-0.389	0.499	-0.4749	-0.6943	-2.6855	7.8636	-53.1202	35.9233	-24.8529	0.4143	-0.3903	-0.6664	9.6063	0.482	-0.3327	-5.8575	5.3702	-13.702	-1.2767	-0.2204	-0.0675
0.1046	-0.2791	9.7158	2.6734	1.3748	1.4109	-0.3356	0.5156	-0.4712	-1.1968	-1.9911	8.6183	-59.3612	37.5727	-30.0188	0.4083	-0.3843	-0.6844	10.0612	0.5952	-0.2671	-5.5779	5.0651	-13.6513	-1.2765	-0.2201	-0.0498
-0.3095	-0.1669	10.1157	3.4149	1.3514	1.4626	-0.3328	0.4979	-0.4382	-1.7687	-1.9324	8.6662	-62.6777	37.2688	-29.1372	0.4143	-0.3843	-0.6664	9.4884	0.6526	-0.5636	-5.5551	4.5508	-13.8712	-1.2613	-0.2766	-0.0157
-0.4887	-0.4009	10.1738	4.3476	1.6659	1.55	-0.3142	0.4587	-0.4552	-1.65	-1.759	8.9035	-66.5872	37.4016	-23.953	0.4263	-0.3843	-0.6724	9.0931	0.71	-0.4564	-5.034	4.0963	-14.0134	-1.2611	-0.2578	-0.0329
-0.7316	-0.3407	10.0521	5.117	1.5826	1.4155	-0.356	0.573	-0.4705	-1.075	-1.0115	9.0936	-71.6173	35.904	-16.6631	0.4203	-0.3722	-0.6724	9.6048	0.8232	-0.3897	-4.7058	3.7669	-14.3946	-1.2934	-0.278	-0.0519
-0.0784	-0.0439	9.5929	5.7269	1.2537	1.1855	-0.3348	0.4967	-0.4718	-1.6353	-1.3528	9.7254	-75.3553	33.1535	-9.2194	0.4443	-0.3602	-0.6664	9.2673	0.9375	-0.2242	-4.8061	3.496	-14.6089	-1.245	-0.2571	-0.0148
0.0402	-0.3344	9.4819	5.2883	0.8828	1.1829	-0.2964	0.4384	-0.4715	-1.0609	-0.8931	9.8556	-78.5857	30.8001	-2.8257	0.4323	-0.3422	-0.6664	9.3745	0.9371	-0.5655	-4.6854	3.0709	-14.6773	-1.2604	-0.2379	0.0033
-0.3183	0.0724	9.6456	5.1336	1.0044	0.9722	-0.3001	0.5523	-0.4512	-0.8948	-0.0893	9.6282	-80.3913	28.9709	1.8667	0.4503	-0.3422	-0.6784	9.5985	0.8229	-0.7331	-4.7289	2.9708	-14.0622	-1.277	-0.2396	-0.0681
-0.5587	-0.1607	9.6443	5.5038	1.3467	0.3907	-0.3364	0.5344	-0.4706	-0.1465	-0.1473	9.818	-83.1602	28.5118	5.3581	0.4383	-0.3542	-0.6664	9.486	0.88	-0.6779	-4.2296	3.0301	-13.9538	-1.2606	-0.2382	-0.0145
-0.0706	-0.3409	10.0053	5.6359	1.9596	0.2485	-0.2969	0.4768	-0.4535	-0.3706	0.0845	10.1076	-85.2988	29.5546	6.778	0.4683	-0.3362	-0.6664	8.9803	0.9946	-0.401	-4.0017	3.2992	-13.6204	-1.2615	-0.2585	-0.0684
-0.3144	-0.3967	9.8266	6.1715	2.5757	0.2859	-0.3166	0.5154	-0.4534	-0.2569	0.6019	10.1121	-86.4862	33.3499	7.2234	0.4743	-0.3242	-0.6724	9.1521	0.5963	-0.341	-3.8678	3.2336	-13.2869	-1.293	-0.24	-0.0685
-0.6144	-0.3387	9.879	6.3001	3.1901	-0.1944	-0.2991	0.5529	-0.4344	0.1999	0.8884	10.0636	-89.1394	39.0381	6.7134	0.4803	-0.3182	-0.6784	9.3831	0.71	-0.1078	-3.6414	3.3206	-12.9857	-1.2625	-0.316	-0.0703
-0.2565	-0.337	9.7102	4.8303	4.0618	-0.3416	-0.3338	0.4973	-0.455	0.6769	1.5824	11.1299	-88.0314	45.8704	5.4063	0.4743	-0.2882	-0.6604	9.5476	1.2213	-0.3904	-3.7877	2.7375	-12.648	-1.2613	-0.2766	-0.0157
-0.2496	0.0665	10.1138	4.4378	4.6385	-0.3857	-0.3897	0.5179	-0.4743	0.7863	1.4084	10.8385	-87.2095	53.0062	3.8225	0.4983	-0.3062	-0.6544	9.4871	0.8232	-0.6207	-3.9913	2.0913	-12.1554	-1.2619	-0.3149	-0.017
-0.079	0.3646	9.5877	4.4683	4.7312	-0.5686	-0.3001	0.5523	-0.4512	0.6776	1.8127	11.1896	-88.7348	59.1662	2.9651	0.4923	-0.3002	-0.6484	9.1462	1.1648	-0.6267	-4.018	1.053	-11.917	-1.2931	-0.2588	-0.0513
-0.1979	0.0722	9.6477	3.9068	4.5741	-0.8417	-0.3513	0.4597	-0.474	1.0917	1.9302	11.9007	-86.9423	63.4242	3.3594	0.4923	-0.2882	-0.6364	9.4825	0.368	-0.9072	-4.4478	0.0759	-11.6969	-1.2779	-0.2968	-0.0522
-0.019	-0.2183	9.5377	3.6242	4.2348	-0.7533	-0.3544	0.5352	-0.4716	1.6673	2.3326	12.0893	-81.7865	64.878	4.3653	0.5043	-0.2822	-0.6244	9.4299	0.3682	-0.6794	-4.2621	-0.8528	-10.6036	-1.2772	-0.2584	-0.051
-0.4983	-0.3359	9.6475	3.8923	3.7804	-0.9818	-0.2818	0.4937	-0.4855	1.7772	1.8135	11.7963	-76.2553	63.404	5.9703	0.5163	-0.2642	-0.6184	9.7102	0.6521	-0.8456	-3.9372	-1.6827	-10.0361	-1.2303	-0.2961	-0.069
-0.7954	0.0117	9.8714	3.4923	3.9295	-1.0658	-0.3895	0.4601	-0.5096	1.6602	1.9857	11.6777	-70.2803	60.02	7.8299	0.5343	-0.2582	-0.6064	10.17	0.1399	-0.5515	-3.3707	-1.7173	-9.7461	-1.2301	-0.2958	-0.0512
0.0352	0.2521	9.2409	4.1381	3.9987	-1.4414	-0.3163	0.4575	-0.4887	2.0711	1.9873	12.2126	-62.9013	54.3928	9.6331	0.5404	-0.2822	-0.6004	9.3255	0.5394	-0.1662	-2.3851	-1.806	-9.9299	-1.2458	-0.3142	0.0011
-0.0783	-0.1606	9.5943	3.1566	4.601	-1.7236	-0.3168	0.4959	-0.4708	2.4571	2.4434	11.4608	-59.0993	48.7267	11.2118	0.5464	-0.2702	-0.5644	9.5985	0.8798	-0.7331	-1.341	-1.5114	-9.252	-1.2291	-0.2752	0.0205
0.1012	-0.1601	9.5391	3.0078	4.9355	-1.7145	-0.3346	0.5161	-0.4544	2.5132	3.1335	11.465	-51.2428	43.9095	13.1611	0.5404	-0.2882	-0.5644	9.6613	1.0506	-0.3885	-0.4708	-1.3442	-8.1705	-1.2305	-0.3149	-0.0519
-0.1883	0.0073	10.174	4.4332	5.3171	-1.8778	-0.3161	0.5543	-0.4187	2.8542	2.8445	11.2946	-44.4383	39.4254	15.5141	0.5343	-0.2702	-0.5464	9.3776	0.9372	-0.3938	0.9097	-1.1999	-7.6268	-1.277	-0.2766	0.0017
-0.5009	0.0157	9.5263	5.8234	5.4849	-2.1069	-0.314	0.4782	-0.4378	2.7999	3.018	11.47	-37.3465	36.0926	18.3196	0.5404	-0.2702	-0.5524	9.4439	0.8238	0.1223	1.842	-0.9719	-6.5466	-1.277	-0.2766	0.0017
-0.2552	0.3036	9.8189	6.7198	5.586	-2.2083	-0.3369	0.4955	-0.5053	2.9167	3.0183	11.5894	-30.0228	33.5689	21.4263	0.5404	-0.2642	-0.5223	9.4466	0.3121	0.2363	3.5649	-0.8283	-5.9517	-1.2466	-0.3156	-0.07
-0.3173	0.13	9.7032	8.4886	6.0925	-2.2195	-0.3351	0.4772	-0.4891	3.7565	2.8972	10.5509	-23.0297	32.0613	24.4367	0.5464	-0.2702	-0.5163	9.5529	0.2547	-0.1623	5.3982	-0.7698	-5.791	-1.2618	-0.2961	-0.0341
-0.9777	-0.2784	9.7551	8.951	6.1591	-2.4084	-0.3539	0.4969	-0.4896	3.9899	3.6457	10.8516	-17.6782	32.4887	27.8447	0.5283	-0.2822	-0.4923	8.9888	0.8243	0.0567	6.9632	-0.7017	-6.2982	-1.2621	-0.3153	-0.0347
-0.741	0.3655	9.5761	10.582	6.3012	-3.1946	-0.2977	0.4957	-0.4529	4.6602	3.4104	9.9265	-14.3341	36.1472	31.7986	0.5464	-0.2882	-0.5043	9.1597	1.1654	0.1173	8.2869	-0.4234	-6.6121	-1.2611	-0.2578	-0.0329
-0.0711	0.0093	10.0009	9.3789	8.5207	-3.5927	-0.3529	0.4975	-0.4728	5.0551	3.1781	9.5817	-10.2958	42.1049	36.165	0.5223	-0.2942	-0.4923	9.7719	0.8229	-0.5583	9.7665	-0.3893	-6.8712	-1.2616	-0.2773	-0.0513
-0.3105	-0.1662	10.0573	9.6352	9.7805	-4.6757	-0.3552	0.4768	-0.5237	5.2184	3.6936	9.1773	-8.5011	47.8896	41.0375	0.5283	-0.2942	-0.4803	9.3229	0.9942	-0.2803	10.2166	-0.4434	-7.346	-1.2787	-0.3355	-0.0712
-1.8779	-0.6288	9.8604	8.6231	13.476	-6.8279	-0.356	0.4957	-0.5231	5.221	2.7737	9.2317	-5.7986	51.5488	45.7637	0.5163	-0.3062	-0.4983	9.6581	1.0505	-0.5602	10.4921	-0.5333	-7.4472	-1.2299	-0.3139	0.0015
-0.3839	0.9509	9.3999	9.0532	15.0062	-6.5233	-0.3191	0.4752	-0.5217	5.7361	3.1179	9.2432	-1.3293	54.2218	48.918	0.5223	-0.3182	-0.4863	10.0587	0.9364	-0.3813	10.1877	-0.993	-7.2266	-1.2141	-0.2766	-0.0681
-0.3664	0.5306	10.3394	5.4243	14.1761	-6.6496	-0.3568	0.5146	-0.5225	6.4745	2.3672	8.8441	3.298	54.7805	50.6701	0.5043	-0.3242	-0.4503	9.9932	1.2204	-0.84	10.3235	-1.3947	-6.8037	-1.2628	-0.3351	-0.0709
-0.2786	1.136	8.5822	5.9129	26.6364	-11.9827	-0.3184	0.5336	-0.4696	6.7643	2.3675	9.0253	7.9646	52.6902	50.1634	0.4983	-0.3242	-0.4683	10.3443	1.1636	-0.2614	10.2503	-1.0992	-6.1846	-1.214	-0.2951	-0.0331
-0.102	1.0387	11.6802	-18.1096	24.2985	-7.6107	-0.3333	0.4589	-0.473	7.1586	1.7899	8.6204	8.9395	46.903	48.5632	0.4863	-0.3482	-0.4683	10.5738	0.8222	-0.1431	10.5784	-0.2848	-5.6655	-1.246	-0.3146	-0.0166
-0.0812	-0.3335	9.4213	2.2034	30.7131	-9.8794	-0.2828	0.4931	-0.5022	7.1521	1.0404	8.2069	9.2287	39.3917	45.2253	0.4923	-0.3602	-0.4563	10.8451	0.7644	-0.8247	10.7803	0.6975	-6.2475	-1.2619	-0.3149	-0.017
-1.2021	0.9518	14.0552	2.8381	38.2697	-11.2919	-0.3186	0.5142	-0.4869	7.5592	0.7535	8.5063	10.4109	32.8651	40.432	0.4923	-0.3422	-0.4503	10.8585	0.8788	-0.0806	10.6887	2.3571	-7.3685	-1.2457	-0.3139	0.0189
-1.4633	-0.3915	9.5145	-0.1389	39.9055	-14.9403	-0.3204	0.5324	-0.5031	7.4783	0.3453	7.2146	6.4751	28.7487	34.4865	0.4683	-0.3542	-0.4503	10.7436	0.3101	-0.1976	11.1915	4.1664	-8.3217	-1.231	-0.3345	-0.0702
-2.3456	0.1203	10.66	4.3098	42.9071	-13.7009	-0.3529	0.4975	-0.4728	7.587	0.5739	6.9249	0.4681	28.7105	27.1768	0.4743	-0.3542	-0.4563	10.8512	0.8784	-0.4812	11.6046	5.7914	-9.1507	-1.2142	-0.2954	-0.0509
-0.8806	-0.2457	11.7994	-5.0997	48.2291	-9.2847	-0.2846	0.5114	-0.5184	6.9599	0.0578	7.0276	-7.5176	31.5519	19.155	0.4683	-0.3602	-0.4623	10.4035	0.8224	-0.1462	12.3928	6.7444	-9.812	-1.2609	-0.2574	-0.0151
-0.6283	-0.1374	12.4446	5.7269	53.1825	-6.7606	-0.3034	0.5311	-0.5189	7.1328	0.0578	7.0895	-15.1183	36.1478	9.8915	0.4623	-0.3722	-0.4623	10.9135	0.6511	-0.1942	12.7978	6.3472	-9.7044	-1.2474	-0.3728	-0.054
-0.4726	-0.5286	11.0513	9.4672	58.8691	-6.5919	-0.3359	0.4961	-0.4886	7.1396	0.6347	7.5022	-19.8146	40.4639	0.5822	0.4743	-0.3662	-0.4503	10.853	0.3098	-0.4244	12.3171	5.3184	-10.1284	-1.2631	-0.3543	-0.0715
-0.2848	1.0987	11.5595	5.4702	64.3917	-7.6214	-0.3374	0.4565	-0.5401	7.2056	1.3271	8.0336	-18.8261	42.8285	-8.7178	0.4563	-0.3602	-0.4683	11.0233	0.2527	-0.4213	11.888	3.7008	-9.8212	-1.2785	-0.3536	-0.0185
-0.41	0.8108	11.2691	2.4884	72.0657	-9.478	-0.3019	0.4933	-0.52	7.4938	0.9818	8.0961	-18.5001	45.111	-16.1694	0.4563	-0.3662	-0.4443	11.0853	0.196	-0.1342	11.6554	2.4906	-8.1953	-1.1995	-0.3714	-0.0353
-0.7682	0.2261	11.3869	-3.2646	78.1087	-7.9829	-0.3204	0.5324	-0.5031	7.4493	1.215	8.799	-18.2062	48.1857	-21.5666	0.4563	-0.3722	-0.4383	11.2504	0.1956	-0.4172	9.9667	2.4689	-6.67	-1.2787	-0.354	-0.0363
-0.7623	-0.2444	11.6847	-5.1987	86.6726	-8.5417	-0.2828	0.4931	-0.5022	7.8004	1.4463	9.2167	-14.0159	49.6078	-26.1164	0.4443	-0.3722	-0.4563	10.9149	0.3099	-0.1372	9.2278	2.8933	-6.5523	-1.2146	-0.3146	-0.0515
-0.9435	0.2227	11.6757	-5.1205	95.9486	-6.8652	-0.3037	0.5116	-0.5362	7.9186	1.9073	9.4553	-4.6979	47.7116	-30.7379	0.4623	-0.3782	-0.4383	10.743	0.8219	-0.1972	8.9965	3.662	-7.0923	-1.2298	-0.2766	-0.0506
-0.8766	-0.0736	12.0308	-4.7511	104.7736	-6.1556	-0.2864	0.5297	-0.5346	8.5155	2.0845	10.7559	7.0382	37.8266	-35.9098	0.4503	-0.3722	-0.4623	9.6665	0.1977	-0.1602	8.7221	3.7978	-5.9461	-1.2467	-0.3529	-0.0179
-1.6052	-0.0099	11.667	-3.4572	112.932	-4.6108	-0.2689	0.4899	-0.5683	-20.6352	43.8661	57.4066	-163.2196	2.8673	-39.5567	0.4443	-0.3542	-0.4563	9.61	-0.0297	-0.1614	9.4274	3.3616	-3.1129	-1.2466	-0.3156	-0.07
-1.1828	-0.0695	11.7335	-3.4603	121.7227	-4.0203	-0.3042	0.4726	-0.5709	-8.939	-6.6808	-1.5065	223.8266	31.3937	-19.2916	0.4623	-0.3722	-0.4263	10.3631	0.2544	0.7108	10.1286	2.8808	-1.4169	-1.2467	-0.3345	-0.0528
-1.4134	0.2737	12.3089	-2.0156	130.1296	-3.2101	-0.2715	0.5271	-0.5839	-14.5961	5.9866	12.5545	179.4334	-31.1698	18.124	0.4503	-0.3782	-0.4323	10.415	0.8229	0.4834	10.146	2.7638	-3.8767	-1.2318	-0.3732	-0.0892
-1.5301	-0.0786	12.4864	-4.6509	137.3587	-0.8366	-0.2869	0.4907	-0.5693	-3.7036	0.1012	12.5616	-11.9571	-63.167	36.986	0.4503	-0.3903	-0.4143	11.3205	1.2198	0.3859	9.209	2.9166	-8.1802	-1.2151	-0.3341	-0.0699
-2.1523	-0.7051	11.3159	-1.1129	145.9737	-1.0016	-0.2854	0.5303	-0.5178	-0.6411	1.1108	7.9989	117.5107	-85.4965	56.7977	0.4563	-0.3843	-0.4383	11.0097	0.309	-1.1653	7.1185	3.9642	-2.6703	-1.2471	-0.3536	-0.0534
-2.4418	-0.5377	11.9508	1.4893	152.5101	4.0897	-0.2163	0.5253	-0.564	0.1368	3.0159	9.9549	64.8811	-81.2067	76.8452	0.4443	-0.3843	-0.4263	11.0243	0.3096	-0.364	6.4746	7.1048	3.3354	-1.2151	-0.3341	-0.0699
-2.3774	-1.2987	12.1365	10.3878	160.974	8.6518	-0.2137	0.4881	-0.5484	3.1965	3.0602	8.1986	56.533	-65.8374	88.9755	0.4443	-0.3843	-0.4323	10.3353	-0.0311	-0.8347	3.2177	9.5348	10.0893	-1.2458	-0.3142	0.0011
-2.805	-1.3521	11.7795	26.0538	170.0889	12.4972	-0.1993	0.5239	-0.5797	3.2698	2.0858	8.9569	47.0517	-48.7202	74.7277	0.4323	-0.3843	-0.4263	10.5522	1.39	-1.2873	-0.9861	12.2428	10.1753	-1.1988	-0.3146	-0.069
-2.8525	-1.3608	12.4792	32.5608	179.2583	17.6275	-0.1128	0.5565	-0.6069	3.4306	2.0829	8.3744	19.6314	-46.4977	48.5033	0.4323	-0.3963	-0.4143	10.0223	1.731	-2.3266	-5.6231	13.2841	3.3473	-1.231	-0.316	-0.1052
-2.9705	-1.5372	12.5961	43.0332	186.9825	20.3085	-0.1251	0.5219	-0.5421	3.2777	0.6493	9.2433	0.375	-36.3298	6.698	0.4383	-0.3843	-0.4203	10.089	2.0726	-1.7529	-3.6521	12.767	-3.0766	-1.1672	-0.3328	-0.0512
-3.5052	-2.0078	12.9428	56.1922	196.3191	23.3291	-0.1305	0.4995	-0.6433	1.8575	0.597	9.8599	-3.627	-34.1921	-14.6477	0.4323	-0.3963	-0.4203	10.3399	3.0402	-0.3744	-4.5099	13.308	-6.8569	-1.167	-0.3324	-0.0334
-5.0604	-3.645	13.3446	56.1035	204.1546	31.8654	-0.0921	0.5186	-0.5903	1.4608	-0.0342	10.0251	-4.2697	-29.172	-16.118	0.4263	-0.3963	-0.4263	9.7066	2.6993	-0.9013	-9.5975	13.2616	-12.1134	-1.2002	-0.3728	-0.1064
-4.62	-1.3264	14.5491	60.6799	213.6217	40.8707	-0.095	0.5363	-0.6233	1.6326	0.7135	10.0903	1.8122	-25.0483	-11.7842	0.4323	-0.3843	-0.4263	9.4822	3.1547	-0.7334	-13.2248	12.148	-15.1175	-1.1837	-0.3899	-0.0178
-5.8078	0.9381	15.5505	87.7481	218.5538	42.9445	-0.0032	0.4945	-0.6193	1.4906	1.2826	8.6848	-0.577	-25.3463	-14.5339	0.4383	-0.3963	-0.4443	9.1992	3.3826	-0.6812	-15.342	11.7597	-11.3697	-1.2152	-0.353	-0.0528
2.6839	3.8968	16.1879	127.3702	219.2248	29.6679	0.0302	0.5301	-0.6328	1.4758	3.523	8.1091	-13.6897	-28.6303	-20.552	0.4203	-0.4023	-0.4263	8.5627	3.0985	-1.3797	-15.923	11.5474	-5.0238	-1.1826	-0.2951	-0.068
-4.8564	-0.7044	11.5018	98.8702	230.9891	23.8842	0.0656	0.4701	-0.6828	1.863	0.5983	10.1528	-34.7891	-30.4511	-26.6855	0.4383	-0.3903	-0.4443	8.6878	3.8381	-0.6902	-18.2702	12.3669	-4.8548	-1.2151	-0.3341	-0.0699
-5.0118	1.8023	16.3709	73.7226	234.0299	24.4812	0.1014	0.449	-0.6981	1.4512	0.4814	9.5588	-21.0902	-30.7093	-26.3342	0.4263	-0.3903	-0.4383	8.2721	2.7573	-1.7858	-22.7938	12.2437	-6.8715	-1.1689	-0.4102	-0.0892
-2.0925	3.585	18.2093	101.1706	247.6453	16.8359	0.1416	0.4498	-0.629	1.6426	-0.665	10.4942	-19.1521	-19.7489	-20.5114	0.4323	-0.3903	-0.4383	8.0504	3.4971	-1.446	-26.0673	11.0488	-8.4424	-1.168	-0.3715	-0.0702
-6.5526	-1.9024	14.1137	143.429	242.3236	5.1799	0.1612	0.4113	-0.6291	1.1152	0.4262	9.962	2.3996	-13.1884	-10.7213	0.4143	-0.3782	-0.4503	8.1129	3.0423	-1.1591	-27.8189	10.3251	-8.9182	-1.1839	-0.3718	-0.0705
-4.4101	1.1602	16.3311	113.9811	242.6723	18.0126	0.179	0.391	-0.6454	1.8601	0.3675	9.976	5.0962	-11.149	-7.277	0.4323	-0.3903	-0.4383	7.6579	3.0428	-1.2247	-27.891	10.0411	-8.2115	-1.1675	-0.3519	-0.0518
-4.5795	2.2606	17.0148	157.0998	222.776	5.322	0.2486	0.425	-0.6569	1.8539	0.7688	9.6849	7.1887	-8.9168	-5.6739	0.4263	-0.3963	-0.4443	8.5716	2.7007	-0.9221	-29.6147	9.5323	-8.8093	-1.1521	-0.3711	-0.0699
-2.1028	4.1002	14.3502	206.6823	182.9646	-10.5269	0.2682	0.3865	-0.657	1.5792	0.3117	10.2632	5.7387	-6.5262	-3.0985	0.4323	-0.3903	-0.4323	8.1657	3.7814	-1.3292	-29.5813	8.5238	-10.6622	-1.1523	-0.353	-0.1226
0.3982	1.9996	9.4589	254.9965	117.0403	-35.4145	0.345	0.3473	-0.6038	1.5141	0.3675	9.8523	10.4201	-5.4365	-0.8585	0.4263	-0.4023	-0.4383	8.174	2.9287	-0.9292	-29.5549	7.687	-11.7452	-1.2318	-0.3732	-0.0892
7.3007	-3.7608	-1.7884	265.0081	58.4403	-60.277	0.3976	0.3054	-0.6522	1.4534	0.4819	9.6759	9.8166	-5.9342	-0.514	0.4323	-0.3963	-0.4383	8.9756	3.1555	-0.5138	-28.8766	6.8351	-11.7723	-1.1687	-0.3913	-0.1063
15.8904	-12.3485	-6.433	143.5323	2.7673	-75.1214	0.3991	0.2676	-0.6533	1.623	1.1715	9.6238	8.5894	-8.1231	-1.7536	0.4383	-0.4023	-0.4083	9.4325	3.3257	-0.3337	-26.2172	5.7096	-11.8301	-1.1829	-0.3328	-0.0337
4.2126	-6.8839	10.221	-21.5916	-69.7368	-116.5386	0.3631	0.2692	-0.6554	1.9757	0.4251	10.0371	10.691	-9.263	-0.3149	0.4263	-0.3843	-0.4383	9.6629	3.1549	-0.1579	-23.9205	4.3217	-10.5579	-1.168	-0.3715	-0.0702
12.6017	-6.1698	8.3748	28.1893	-56.7363	-117.2814	0.3246	0.3274	-0.6557	1.1569	1.1705	9.2049	7.9228	-11.1812	-0.6867	0.4143	-0.4023	-0.4563	10.3432	3.7228	-0.145	-20.3808	3.0074	-10.1826	-1.1685	-0.391	-0.0886
8.7004	-5.5307	8.9403	16.8764	-61.7223	-127.7347	0.3406	0.3255	-0.6882	1.5111	0.8846	9.7374	6.6364	-10.8341	1.4391	0.4323	-0.3903	-0.4383	10.1218	3.3821	0.1367	-16.6875	1.5878	-8.8295	-1.1359	-0.3516	-0.0689
7.9821	-6.9486	5.7351	12.9309	-73.2425	-109.1134	0.3447	0.3278	-0.6211	1.7976	0.8266	9.7427	5.6209	-10.969	1.3537	0.4323	-0.4083	-0.4443	10.2449	3.2686	0.6538	-12.6198	1.0814	-7.4803	-1.1366	-0.3715	-0.1051
8.0775	-7.223	4.3393	-7.7376	-104.2394	-84.7381	0.304	0.3654	-0.6723	1.4536	0.9998	9.7368	1.2954	-10.1989	2.45	0.4323	-0.4023	-0.4503	9.448	3.4401	0.5249	-7.5808	0.416	-7.79	-1.1516	-0.3331	-0.0864
7.0253	-6.835	6.0671	-30.3448	-128.9577	-54.9126	0.2862	0.3857	-0.656	1.3418	0.6554	9.8503	0.6192	-9.8856	3.6198	0.4323	-0.3963	-0.4203	9.4923	3.4395	-0.1608	-4.0098	-0.5791	-8.4579	-1.1359	-0.3331	-0.1038
6.7881	-5.5543	6.3387	-39.153	-147.696	-26.3609	0.3006	0.4214	-0.6873	1.5179	0.7712	10.0884	0.0025	-9.6696	4.2368	0.4323	-0.4023	-0.4503	8.8111	3.4972	-0.1733	0.2791	-1.8508	-8.9344	-1.1839	-0.3718	-0.0705
6.017	-4.5699	7.0133	-43.8378	-169.0698	-0.9933	0.2285	0.4246	-0.6915	1.6738	1.1123	9.2731	0.7942	-10.3972	4.9125	0.4263	-0.4143	-0.4443	8.8089	2.8146	-0.3455	3.3884	-3.8529	-9.4122	-1.12	-0.3513	-0.0686
5.8995	-3.5222	7.2315	-44.881	-189.3475	19.4623	0.2104	0.4254	-0.6925	1.8033	0.7129	10.0351	1.6574	-10.1025	5.7047	0.4323	-0.3963	-0.4383	8.8619	3.3262	-0.5158	5.449	-5.5074	-10.7778	-1.1372	-0.4098	-0.1063
4.9996	-2.5901	7.4375	-42.558	-207.1472	33.1328	0.1365	0.4469	-0.7128	1.8564	0.5968	9.8013	3.8958	-10.6278	6.5858	0.4083	-0.3903	-0.4563	8.8071	2.5871	-0.4602	7.0132	-6.6275	-11.2023	-1.1371	-0.4095	-0.0885
5.4714	-2.409	6.9182	-47.5447	-228.4533	41.6217	0.1178	0.5633	-0.6432	1.7475	0.4832	10.0915	5.5467	-10.0888	6.2041	0.4263	-0.3903	-0.4383	8.461	2.8147	-0.7524	8.6525	-6.8235	-10.2695	-1.153	-0.4098	-0.0889
