1757_acc_x	1757_acc_y	1757_acc_z	1757_gyro_x	1757_gyro_y	1757_gyro_z	1757_mag_x	1757_mag_y	1757_mag_z	1758_acc_x	1758_acc_y	1758_acc_z	1758_gyro_x	1758_gyro_y	1758_gyro_z	1758_mag_x	1758_mag_y	1758_mag_z	1759_acc_x	1759_acc_y	1759_acc_z	1759_gyro_x	1759_gyro_y	1759_gyro_z	1759_mag_x	1759_mag_y	1759_mag_z
-4.063664	1.188727	9.772431	6.691356	3.425029	15.093674	0.654358	-0.414474	-1.084847	3.44834	1.44763	9.468423	-0.93813	-0.614588	3.086229	-0.068971	0.315136	-1.015193	10.168218	-0.688508	1.266643	16.513865	-0.676828	6.066335	-0.657396	-0.406507	0.038367
-3.732386	1.185825	9.153728	9.366213	3.005636	17.930994	0.800555	0.075077	-0.947567	3.041408	0.997551	9.233022	-1.280109	-0.744579	3.547086	0.233168	-0.33371	-0.679317	10.41129	-0.861793	1.629744	15.792932	-0.84337	4.174765	-0.434845	-0.180013	-0.514028
-3.504648	1.415184	9.102294	11.177258	2.630003	19.268916	0.745188	0.087161	-0.988398	3.108321	1.166814	9.68749	-1.466876	-0.811482	4.039524	0.233319	-0.303069	-0.681324	10.114164	-0.454833	1.566066	15.353859	-0.458307	2.27957	-0.4208	-0.16279	-0.530323
-3.340928	1.75802	8.709111	10.747077	2.412184	19.327943	0.773472	0.034513	-0.936621	3.565888	1.447509	9.58412	-2.677364	-1.142275	5.391709	0.206771	-0.365573	-0.662408	10.06038	-0.33731	1.864994	14.731963	-0.202255	0.96638	-0.393259	-0.196419	-0.497453
-3.282808	2.102869	8.768525	8.312746	1.281192	17.783345	0.758194	0.076201	-0.946519	3.444736	2.067171	9.355665	-3.076492	-0.819313	6.812709	0.207216	-0.33386	-0.678765	9.696244	-0.280649	1.319477	14.602926	-0.28501	0.050352	-0.407096	-0.197449	-0.481995
-3.22601	2.734685	8.772293	3.078538	0.012371	13.699341	0.757808	0.089972	-0.949935	3.046698	1.392102	9.516552	-5.118376	-0.888528	8.752578	0.207512	-0.332788	-0.693115	9.886342	-0.684866	1.980023	14.536053	-0.710015	-0.283569	-0.42087	-0.161964	-0.545851
-3.227698	1.987462	8.65545	-0.558352	-0.258292	8.982871	0.772714	0.044756	-0.925961	2.870291	2.068296	9.400216	-5.645955	-0.878817	10.941088	0.194316	-0.318615	-0.679493	9.704642	-0.104443	1.799473	15.235924	-1.186491	-1.292398	-0.421008	-0.178982	-0.529486
-3.279053	1.529178	8.936671	-3.847325	0.004585	6.144621	0.771957	0.054999	-0.915301	3.387255	1.391265	9.297248	-8.307905	-1.081551	13.34158	0.207216	-0.33386	-0.678765	9.34875	-0.278355	1.672315	15.380812	-1.509809	-2.513876	-0.476636	-0.19847	-0.482346
-3.740761	1.988318	8.759135	-5.194203	0.431664	5.879437	0.772728	0.027457	-0.908469	2.705602	1.67459	9.736095	-8.143403	-0.139642	14.985014	0.206996	-0.319612	-0.665419	9.822654	-0.569568	1.73979	13.732785	-2.110446	-4.155393	-0.421284	-0.21302	-0.496756
-3.280457	1.931027	8.881507	-4.483045	0.855117	6.773608	0.800941	0.061306	-0.944151	3.511972	2.067443	9.809991	-10.121006	-0.051729	16.464092	0.220638	-0.302073	-0.695398	9.409541	-0.568623	1.732087	12.806808	-2.360376	-3.967476	-0.4491	-0.213428	-0.496896
-3.443929	1.243542	9.273243	-3.401812	1.524055	7.854698	0.787206	0.04791	-0.940386	3.576468	2.236611	10.15118	-9.001616	-1.821639	17.341438	0.259195	-0.31824	-0.680872	9.520991	-0.105521	1.436731	11.479775	-2.425062	-4.084609	-0.421422	-0.230039	-0.480391
-3.562974	1.357543	9.044086	-2.754632	1.892363	8.165485	0.771957	0.054999	-0.915301	3.244673	1.449105	10.709658	-9.362825	-8.386253	17.060067	0.232578	-0.335854	-0.650617	9.579042	-0.163979	1.377677	10.248931	-2.279074	-3.836353	-0.407659	-0.209511	-0.558797
-3.558728	1.645715	9.272705	-1.741693	2.080432	8.257625	0.759708	0.055716	-0.967839	4.991187	1.725946	8.991544	-5.161418	-20.362935	18.516651	0.208472	-0.314252	-0.737168	9.342012	-0.221762	1.313121	9.23544	-2.19727	-3.221833	-0.393192	-0.178574	-0.529345
-3.33433	1.874351	9.050712	-2.66633	1.93465	7.18459	0.786863	0.009783	-0.891326	3.00944	2.637102	15.970884	-20.021622	-37.968147	13.427837	0.208328	-0.284683	-0.724826	9.284076	-0.686236	1.310043	7.543832	-1.68367	-3.187596	-0.379143	-0.180023	-0.49822
-3.79657	1.529068	8.812944	-3.871177	1.487216	5.494114	0.758594	0.045131	-0.925611	3.700468	1.391722	10.492724	-18.181251	-48.996653	10.360113	0.207587	-0.317468	-0.694119	9.807268	-0.108174	0.962978	5.273983	0.024278	-3.493147	-0.448962	-0.196409	-0.513261
-3.900975	1.416439	9.321912	-3.113102	0.98226	4.257044	0.801713	0.033764	-0.937319	3.523612	1.281579	12.979936	-14.553433	-55.20821	10.455429	0.207957	-0.301076	-0.709472	9.818003	0.01045	1.562541	3.252102	1.575453	-3.340417	-0.421146	-0.196001	-0.513121
-3.262268	1.417913	9.788985	-1.428233	0.961137	4.098516	0.772714	0.044756	-0.925961	3.619401	1.280604	12.07612	-11.231042	-66.16654	8.746082	0.194466	-0.287974	-0.681501	9.582208	-0.105162	1.557645	1.694378	2.845745	-2.485098	-0.421217	-0.195175	-0.528649
-3.49879	1.0143	9.38487	1.787701	0.512751	4.296642	0.801355	0.012937	-0.905752	2.980245	1.225222	11.779576	-12.003466	-75.899899	8.679544	0.194391	-0.303295	-0.680497	9.050502	-0.336498	1.486845	-0.431287	2.834626	-2.141161	-0.407585	-0.229008	-0.495849
-3.374757	1.705686	9.901671	3.043114	-0.041508	4.897362	0.772343	0.041228	-0.911885	3.497364	1.731227	11.790883	-8.692069	-84.979725	10.349199	0.168364	-0.318765	-0.678942	8.636269	-0.800655	1.35735	-2.037558	2.027218	-1.520242	-0.421075	-0.196827	-0.497593
-3.455561	1.930428	8.707608	6.321815	-0.494129	5.493908	0.759723	0.038416	-0.950348	3.483743	1.899697	11.16799	-11.15503	-93.859459	12.355324	0.129511	-0.30367	-0.679118	8.935481	-0.684189	1.602975	-2.877648	0.548353	-0.776639	-0.407447	-0.211989	-0.512214
-3.555387	1.646439	9.443264	4.536558	-1.13737	4.568583	0.801713	0.033764	-0.937319	3.220786	2.802567	12.408776	-4.532024	-100.042497	13.655677	0.129806	-0.302598	-0.693468	9.233323	-0.451819	1.789187	-3.620006	-0.629632	0.484748	-0.365581	-0.21303	-0.480947
-3.454572	2.102994	8.765185	5.608137	-1.223167	4.441436	0.786092	0.037325	-0.898158	3.197533	1.055278	11.161234	-6.646721	-108.301999	15.205831	0.167478	-0.321981	-0.635893	9.114575	-1.090879	1.664452	-3.344825	-1.710921	1.619747	-0.407309	-0.194971	-0.528579
-3.50832	1.873993	8.933665	3.578395	-1.337461	2.850724	0.799455	0.047193	-0.887847	4.180657	1.222627	11.408486	-5.674949	-114.228667	17.86068	0.103924	-0.347637	-0.704255	9.121488	-0.275837	2.147169	-3.722027	-2.75417	1.809472	-0.42052	-0.147424	-0.515632
-3.333133	1.759709	9.107082	3.785594	-1.565627	1.374377	0.784949	0.061339	-0.890914	3.662891	1.054606	11.397464	0.101399	-118.865459	20.254764	0.129957	-0.271957	-0.695475	8.770558	-0.216209	2.320534	-3.293419	-3.523014	2.36173	-0.407376	-0.212816	-0.496686
-3.444136	1.530749	9.274449	0.694583	-0.872896	1.363865	0.7731	0.030985	-0.922545	3.76166	1.391757	10.663851	8.571019	-122.980072	23.08783	0.10371	-0.273179	-0.680574	9.120233	-0.682864	2.025624	-4.066119	-3.615346	2.151026	-0.421843	-0.243752	-0.526137
-3.1096	1.643454	8.826788	2.385013	-0.534623	2.039184	0.744873	0.014435	-0.904355	4.68303	1.221041	10.683052	14.148178	-126.211012	25.927366	0.115649	-0.30696	-0.635793	9.300447	-0.624451	2.208894	-3.671146	-4.099541	1.785146	-0.4208	-0.16279	-0.530323
-3.042407	1.760467	9.340062	2.141951	-0.166289	1.984535	0.787949	0.054966	-0.968538	3.987864	1.616505	10.498958	21.85331	-127.438181	26.784605	0.063306	-0.278763	-0.607998	9.704332	-0.918002	1.676198	-3.609873	-4.191716	1.84649	-0.393677	-0.228804	-0.495778
-3.509558	2.046076	8.877536	1.073549	0.285856	2.332302	0.786077	0.054624	-0.91565	4.287456	1.785432	11.071541	29.794398	-127.011078	28.521708	0.038535	-0.274626	-0.664846	9.777944	-0.566219	2.517479	-3.358568	-3.858136	2.210749	-0.365444	-0.196011	-0.497312
-3.334122	1.587143	9.049505	1.841663	0.283871	2.820738	0.758979	0.03136	-0.922196	5.154587	2.403641	11.316754	40.006982	-122.610296	32.334912	0.076722	-0.307186	-0.634966	9.826091	-0.626903	1.919263	-3.139314	-3.273966	1.993223	-0.421146	-0.196001	-0.513121
-3.511743	1.988152	8.763589	1.168405	0.340448	2.976932	0.7731	0.030985	-0.922545	5.028662	1.727416	10.747372	48.230532	-114.479098	34.24131	0.038384	-0.305267	-0.662838	9.650413	-0.742402	1.975374	-2.578865	-2.537205	1.92655	-0.393539	-0.211785	-0.512143
-3.739606	1.931117	8.815746	2.522305	0.331099	4.352909	0.801355	0.012937	-0.905752	3.871609	0.94066	10.382692	53.122731	-105.964698	36.703793	-0.001209	-0.322956	-0.632308	9.714796	-0.683225	2.276256	-1.16444	-2.214236	0.758484	-0.44945	-0.227968	-0.527115
-3.909225	2.046607	8.926595	1.319375	0.253836	2.545746	0.799841	0.033422	-0.884431	1.27566	0.66362	10.044856	61.86682	-93.40209	37.42146	0.011031	-0.295456	-0.591542	10.358336	-0.627871	1.989074	-0.164163	-2.302041	-2.239864	-0.407026	-0.198276	-0.466467
-3.448756	1.759551	9.048002	0.553211	0.312765	2.456907	0.799069	0.060964	-0.891263	-1.346714	-0.96649	8.346531	60.914495	-73.881953	34.130886	-0.027752	-0.32525	-0.603057	9.776533	-1.380025	2.334297	0.931905	-2.27157	-4.811188	-0.435125	-0.195379	-0.528719
-3.454364	1.815786	8.763978	5.029269	0.360564	2.782141	0.814676	0.074703	-0.947916	-3.756262	-2.088337	8.578006	52.798881	-47.17174	28.655485	-0.053183	-0.278367	-0.619866	10.537586	-0.627781	2.112189	1.755238	-2.406391	-6.280479	-0.421146	-0.196001	-0.513121
-3.272497	1.70295	9.278514	0.464737	0.396187	3.194535	0.78682	0.061681	-0.943802	-6.056915	-2.478292	8.585958	44.062827	-23.224197	21.734063	-0.027972	-0.311001	-0.589711	10.12984	-0.567524	2.404268	2.178177	-2.636626	-7.533921	-0.421355	-0.212194	-0.512284
-3.512857	1.987911	8.706736	0.711669	0.861785	2.894717	0.800555	0.075077	-0.947567	-6.931191	-3.153115	8.000859	33.844704	-1.773929	13.491929	-0.040797	-0.280436	-0.591443	10.598377	-0.918049	2.17196	2.849534	-2.558824	-8.911962	-0.420867	-0.180635	-0.49843
-3.450983	1.759068	8.934296	4.870885	0.625172	1.069513	0.787949	0.054966	-0.968538	-5.918952	-2.648982	6.946894	26.839384	15.015626	6.470161	-0.041098	-0.341717	-0.587428	10.240844	-0.859905	1.985884	3.008165	-2.163134	-8.669939	-0.407305	-0.213642	-0.481158
-3.3394	1.183846	8.763551	-2.326266	0.889824	1.89189	0.831097	0.009001	-0.945262	-7.160329	-2.476623	8.109872	11.790573	47.967376	1.236676	-0.014926	-0.355816	-0.601326	10.067387	-0.510054	2.223694	3.418425	-1.372364	-8.094543	-0.393748	-0.227978	-0.511306
-3.55881	1.760598	9.273188	-1.254717	1.117255	1.248482	0.801355	0.012937	-0.905752	-6.848648	-2.307222	9.24885	4.078419	75.081822	-2.630774	-0.015071	-0.326247	-0.588983	10.29957	-1.208743	1.925594	3.087569	-0.085365	-8.435656	-0.449033	-0.195583	-0.528789
-3.105229	1.759302	9.054683	-0.732387	1.209797	1.432488	0.786077	0.054624	-0.91565	-6.500838	-2.307774	9.369383	5.515932	93.136882	-5.193675	0.011251	-0.309704	-0.604888	9.891014	-0.80003	2.219156	3.12201	0.777242	-9.020551	-0.421497	-0.210541	-0.543339
-3.271218	1.473425	9.334402	-1.009804	1.056589	1.277458	0.759365	0.017589	-0.91878	-5.194535	-2.536286	8.547404	3.133666	104.90857	-5.818337	-0.027972	-0.311001	-0.589711	9.708058	-0.626633	1.917062	3.189756	1.69736	-9.239112	-0.393819	-0.227152	-0.526834
-3.276785	1.472219	9.050136	-0.028256	0.996228	1.580329	0.773457	0.051813	-0.954113	-4.389828	-2.537843	8.507689	-6.280773	115.117608	-6.155919	-0.041839	-0.374502	-0.556721	9.358188	-1.496468	2.026565	2.639701	2.15169	-8.994803	-0.435192	-0.213224	-0.496826
-3.510588	1.930952	8.8202	-0.152105	0.780185	1.607842	0.800569	0.057778	-0.930075	-3.873033	-1.862846	8.519139	-18.28582	125.719893	-6.152561	-0.015001	-0.371136	-0.600322	9.536202	-1.43855	2.09002	2.611008	2.209606	-8.689368	-0.421146	-0.196001	-0.513121
-3.680989	1.586668	8.872265	1.214686	-0.21049	0.085086	0.787235	0.013311	-0.905402	-2.999318	-1.526053	9.047313	-26.556957	136.089915	-5.655259	0.011246	-0.369914	-0.615223	9.658791	-1.031052	2.393486	2.521465	2.669383	-8.813481	-0.4491	-0.213428	-0.496896
-3.845041	1.703364	9.267379	-1.99363	0.685315	1.09025	0.828453	0.036201	-0.899206	-1.829985	-1.471167	9.921133	-29.897681	145.595971	-4.114437	0.024002	-0.355591	-0.602153	9.18336	-1.030713	2.204962	1.784497	3.157738	-8.965946	-0.435751	-0.243956	-0.526208
-3.279012	1.471736	8.93643	0.521158	0.723608	1.451646	0.758622	0.010532	-0.890628	-0.904403	-0.684027	10.224337	-31.835803	153.763649	-1.383506	0.011616	-0.353522	-0.630577	8.94494	-1.437447	2.019109	1.355381	3.586022	-9.119239	-0.421564	-0.228386	-0.511447
-2.936723	1.643571	8.886982	0.060512	0.78675	1.116653	0.759322	0.069487	-0.971255	-0.197903	-0.684704	10.975159	-34.047942	159.986107	3.115899	0.025038	-0.321734	-0.647209	9.300697	-1.205459	2.146514	0.647833	4.108233	-9.577578	-0.407447	-0.211989	-0.512214
-3.155802	1.760791	9.394688	-0.55567	0.605408	0.594128	0.771957	0.054999	-0.915301	0.547252	-0.911569	10.820767	-36.970082	163.925723	8.671055	0.036978	-0.355516	-0.602429	8.76569	-1.437536	1.895994	0.127017	4.317327	-9.271084	-0.435401	-0.229416	-0.495989
-3.676618	1.702516	9.10016	0.181784	0.791146	0.779031	0.772743	0.010157	-0.890977	1.704389	-0.800827	11.128238	-39.430068	165.47279	15.620964	0.064701	-0.348934	-0.689079	9.120483	-1.263871	1.963245	-0.486931	4.403097	-8.902542	-0.435751	-0.243956	-0.526208
-3.673444	1.933006	9.271685	0.639407	0.580256	0.590279	0.773086	0.048284	-0.940037	2.176569	-0.575893	11.704495	-41.887169	164.900832	23.413106	0.037643	-0.338051	-0.632132	8.598431	-0.911975	2.493987	-0.886914	4.67949	-9.146898	-0.420729	-0.163616	-0.514795
-3.390636	2.1044	9.107417	0.915335	0.424756	0.862968	0.744459	0.062805	-0.942754	2.948684	0.660637	10.249833	-41.168538	161.312334	30.222169	0.05099	-0.321584	-0.647761	8.828568	-1.204378	2.137711	-1.28352	5.042611	-8.902709	-0.407797	-0.226529	-0.542432
-3.101272	2.449565	9.284991	0.610975	0.792802	0.80849	0.773129	-0.003614	-0.887561	4.246445	0.715829	11.749106	-61.572505	153.914618	39.874479	0.038309	-0.320587	-0.661835	9.057355	-0.916022	1.783907	-0.179607	4.809761	-9.66961	-0.421493	-0.229212	-0.495919
-3.052346	1.643412	8.827902	0.579388	0.607573	0.866906	0.771957	0.054999	-0.915301	5.830933	0.714105	13.197737	-49.589652	138.936167	39.365071	0.051285	-0.320512	-0.662111	8.529916	-1.088293	1.952982	-1.374846	4.636408	-8.105859	-0.435263	-0.212398	-0.512354
-3.733956	1.817441	9.099529	0.060861	0.87964	1.056827	0.787592	0.034139	-0.93697	5.591778	0.939526	12.796613	-44.193799	120.968741	37.834057	0.064776	-0.333614	-0.690082	8.649319	-1.204468	2.014596	-0.750971	4.252313	-6.242057	-0.463496	-0.245191	-0.51082
-3.214419	2.10524	9.33817	0.672522	0.698459	1.021454	0.802098	0.019993	-0.933903	6.330242	1.050406	12.359307	-40.380214	99.953051	35.161572	0.052987	-0.269192	-0.73687	9.001215	-1.205772	1.901385	0.407931	3.535603	-7.526404	-0.421426	-0.211367	-0.527812
-3.451273	2.161159	8.935985	0.614731	1.188838	1.121593	0.788364	0.006597	-0.930138	7.016515	0.879932	12.147114	-39.640296	77.703569	32.011929	0.039785	-0.315228	-0.733583	8.818549	-0.683672	1.660681	0.98824	2.709887	-7.341198	-0.435822	-0.24313	-0.541735
-3.330823	1.645308	9.220306	0.460945	1.0645	1.18135	0.787606	0.016839	-0.919478	7.767606	0.709634	12.275966	-39.119467	57.540738	27.618893	0.066183	-0.283365	-0.750492	8.766811	-0.972434	2.017786	1.538697	1.944299	-7.064488	-0.421217	-0.195175	-0.528649
-3.001322	2.561229	8.548611	3.076565	1.390376	3.325844	0.729995	0.025052	-0.893345	7.930416	0.821592	11.826571	-37.47202	43.252625	22.02125	0.091915	-0.268966	-0.737697	8.940538	-1.438436	1.779481	2.421508	0.913454	-7.643427	-0.407309	-0.194971	-0.528579
-3.224891	1.183763	8.765778	2.060004	1.682403	1.554802	0.800212	0.03695	-0.898507	7.816709	0.709194	11.880698	-32.699649	33.983553	14.225594	0.054312	-0.294473	-0.806612	8.34694	-1.379751	1.589004	3.307743	-0.217034	-7.457875	-0.43533	-0.230243	-0.480461
-3.500525	1.875681	9.331637	0.221756	1.828519	1.470465	0.787178	0.082509	-0.975369	8.689323	0.98961	12.352186	-26.297974	31.357681	6.250817	0.067659	-0.278006	-0.822241	8.820325	-0.973805	1.719351	3.547154	-1.413228	-7.055739	-0.42163	-0.246231	-0.479554
-3.73581	1.299984	8.983651	1.021081	2.200671	1.50488	0.760123	0.007346	-0.92944	9.071383	0.537357	11.340756	-18.250889	34.068263	-3.580767	0.068104	-0.246293	-0.838598	9.181024	-0.973132	2.085395	4.213291	-2.722651	-7.388075	-0.422193	-0.258292	-0.556356
-3.394717	1.586461	8.877833	1.305054	2.710489	2.73905	0.786463	0.040853	-0.912234	11.268818	11.908539	7.490559	16.759756	-14.987582	-20.163117	0.132538	-0.27763	-0.823619	9.477746	-1.205864	2.149816	3.704438	-4.029973	-8.327383	-0.435404	-0.210745	-0.54341
-3.670476	2.450704	9.444416	0.567261	3.120471	1.521135	0.816205	0.036918	-0.951744	11.774718	2.334916	11.455732	-20.323069	32.140873	-22.344598	0.080785	-0.24729	-0.824524	9.716302	-0.857206	2.335422	3.226133	-5.181395	-9.542584	-0.407451	-0.193318	-0.559634
-3.10193	1.817467	9.225484	-0.472391	3.640822	1.287243	0.787992	0.003068	-0.916062	10.468699	2.950684	4.238846	6.01825	27.498371	-39.570586	0.106291	-0.278852	-0.808718	9.416529	-1.206223	2.028901	3.363101	-5.675942	-11.954979	-0.450356	-0.291912	-0.539294
-3.380325	1.70448	9.617405	2.250201	3.949956	-0.463637	0.7731	0.030985	-0.922545	12.148565	0.246268	7.215678	-17.004497	38.9706	-38.426945	0.093906	-0.276784	-0.837142	9.776128	-1.205797	2.335039	2.464017	-5.918191	-12.500645	-0.43533	-0.230243	-0.480461
-3.44686	2.219565	9.163639	-2.245499	4.965443	0.301838	0.773086	0.048284	-0.940037	13.331565	1.37205	8.826714	-38.968965	42.810819	-49.565211	0.119933	-0.261313	-0.838697	9.71408	-1.322556	2.153723	0.826445	-6.22806	-12.676595	-0.407656	-0.228182	-0.511377
-3.107414	1.701378	8.940736	-0.963812	4.831008	-0.869419	0.786077	0.054624	-0.91565	12.896746	1.596894	7.345811	-26.513208	45.410356	-52.611833	0.132984	-0.245918	-0.839976	10.18704	-1.207237	2.222928	0.049166	-6.280661	-13.773677	-0.422119	-0.27779	-0.493408
-3.217345	1.530101	9.165197	-2.158321	5.042285	-1.015888	0.817762	-0.035466	-0.920589	14.170508	3.453857	7.883729	-27.315823	40.101635	-58.028769	0.146626	-0.228378	-0.869955	9.891554	-1.032334	2.218167	0.100506	-6.757558	-14.963402	-0.435471	-0.22859	-0.511517
-3.560255	2.21989	9.218265	-1.974244	5.167806	-1.167718	0.7731	0.030985	-0.922545	14.615171	5.424088	7.328664	-17.611975	28.383159	-56.719568	0.160192	-0.22616	-0.89893	10.41156	-0.977945	1.62925	-0.457504	-6.97115	-15.204835	-0.421079	-0.178156	-0.545014
-3.158936	1.472859	9.222923	0.131511	4.577656	-2.471438	0.813547	0.081417	-0.92318	15.289285	3.39409	6.37859	-2.216049	7.945882	-52.101743	0.172433	-0.198659	-0.858164	10.119625	-1.383308	1.741831	-0.461863	-7.459614	-15.294166	-0.422123	-0.259118	-0.540828
-3.672081	1.588598	9.32709	-3.16996	5.382559	-1.620809	0.773086	0.048284	-0.940037	15.375427	4.012419	5.078819	14.738451	-16.010954	-45.88385	0.171472	-0.217196	-0.814111	9.94891	-1.265267	2.098465	0.027709	-8.040589	-15.140371	-0.421284	-0.21302	-0.496756
-3.612807	1.876247	9.443116	-2.432362	5.818316	-1.799859	0.801355	0.012937	-0.905752	15.98506	4.576022	6.733931	15.963069	-40.62705	-40.270741	0.159231	-0.244696	-0.854878	10.122812	-0.859635	1.983683	0.241881	-8.378171	-14.95618	-0.435613	-0.226938	-0.542573
-3.223037	1.70122	8.881656	-2.741922	6.138798	-3.081832	0.815062	0.060932	-0.9445	15.019637	4.634707	7.336462	38.052056	-61.229615	-31.487422	0.159677	-0.212983	-0.871235	9.82551	-1.324309	1.796482	0.423065	-8.711766	-15.169159	-0.407935	-0.243548	-0.526067
-3.273118	2.564573	9.282134	-4.730738	6.557994	-2.915951	0.786806	0.07898	-0.961293	3.024823	-1.707168	8.211233	73.758268	-56.212962	-35.107951	0.14537	-0.247986	-0.811553	9.713	-0.857948	2.155701	0.324624	-9.166503	-15.59446	-0.450356	-0.291912	-0.539294
-3.44224	1.990764	9.390086	-5.282731	7.213634	-4.038443	0.772714	0.044756	-0.925961	10.197563	2.052888	7.62921	63.94936	-70.113151	-11.085895	0.133644	-0.288663	-0.880015	9.480642	-1.030894	2.330278	0.43962	-9.646953	-16.417675	-0.463772	-0.279228	-0.47809
-3.502752	1.875199	9.217931	-6.908159	7.772418	-5.190096	0.814318	0.053875	-0.916348	6.806039	2.059437	7.784442	39.170229	-70.739031	17.835718	0.108063	-0.272421	-0.894817	9.770221	-1.032805	2.036246	0.892953	-9.783098	-17.885484	-0.42191	-0.261597	-0.494245
-3.154689	1.761032	9.451541	-7.734467	8.265811	-5.670402	0.815447	0.047161	-0.941084	5.249013	1.219583	10.242024	36.152916	-69.293506	25.493356	0.133279	-0.244846	-0.854326	10.018255	-0.97255	2.699871	2.150079	-9.796216	-19.142866	-0.42191	-0.261597	-0.494245
-3.790428	2.277256	9.157199	-8.13271	8.983275	-6.761681	0.800541	0.092377	-0.965058	3.333209	1.447846	9.466005	70.185228	-68.289643	36.629528	0.119042	-0.324739	-0.805983	10.016054	-0.973044	2.580057	1.870441	-9.513729	-19.937712	-0.423028	-0.323062	-0.553008
-3.447393	1.415143	9.103408	-7.614306	9.337652	-7.984185	0.800569	0.057778	-0.930075	2.309317	0.325939	12.613905	68.265672	-65.284006	47.078628	0.120153	-0.275562	-0.852043	9.830202	-0.974617	2.0975	0.818634	-8.827862	-21.55674	-0.436306	-0.29336	-0.508169
-3.495864	1.589439	9.557843	-8.258061	10.023585	-9.105954	0.772714	0.044756	-0.925961	-7.28877	-3.880566	12.748298	117.028007	8.821478	55.315868	0.106216	-0.294173	-0.807714	10.190611	-1.322647	2.402154	-1.096442	-7.306927	-24.368331	-0.422119	-0.27779	-0.493408
-3.663256	1.705411	9.782397	-7.710258	10.85123	-11.394315	0.799441	0.064492	-0.905339	-4.512315	-2.873558	10.826002	52.130493	24.313514	30.938088	0.067138	-0.325039	-0.80488	10.310574	-1.206271	2.524663	-3.131468	-4.954543	-27.763959	-0.394094	-0.261189	-0.494104
-3.90011	1.76133	9.380213	-7.437789	11.738698	-13.650271	0.786863	0.009783	-0.891326	1.354924	1.960063	11.179947	1.79839	2.119023	17.111851	0.080189	-0.309643	-0.806159	10.062135	-1.092298	1.86178	-5.952023	-2.356187	-28.591156	-0.450072	-0.295217	-0.477183
-3.895407	1.417645	9.606177	-8.474861	13.816403	-15.699117	0.786463	0.040853	-0.912234	1.169056	2.915194	7.949879	73.850238	-22.523771	14.643452	0.080339	-0.279002	-0.808167	9.647651	-0.975448	1.794665	-9.013343	-0.359736	-27.48958	-0.450352	-0.310583	-0.491874
-4.22116	1.479196	10.509387	-8.646499	18.005453	-19.280397	0.787606	0.016839	-0.919478	4.403945	3.360277	8.584353	14.948723	-35.656856	9.255408	0.106581	-0.33799	-0.833403	9.88057	-0.56995	1.680983	-12.735426	1.228449	-22.625157	-0.436235	-0.294186	-0.492641
-4.684597	1.248555	10.215249	-14.965625	24.975568	-23.995064	0.801755	-0.018134	-0.884844	3.891592	0.995412	8.628121	-5.786533	-14.915647	4.882315	0.092719	-0.341281	-0.790078	9.652769	-0.335128	2.156825	-14.979234	2.545717	-17.672929	-0.40842	-0.293778	-0.4925
-3.887872	1.144472	12.901337	-17.837194	31.10488	-23.64178	0.786849	0.027082	-0.908818	3.181424	-0.635396	10.253578	-5.315567	-6.943377	5.855987	0.092575	-0.311712	-0.777736	10.059549	-0.453709	1.804593	-15.542201	4.114749	-15.783732	-0.436724	-0.325745	-0.506494
-3.789549	2.876844	15.070107	-2.515824	54.407028	-15.363144	0.799069	0.060964	-0.891263	3.357663	0.040436	10.484332	36.394587	-8.09153	9.207617	0.09309	-0.324889	-0.805431	10.000823	-0.104871	1.864883	-16.485952	4.461056	-14.10121	-0.436306	-0.29336	-0.508169
-3.740363	2.345554	11.71583	-4.485111	69.080733	-17.57259	0.842588	0.018527	-0.882063	2.936942	1.110854	9.740456	34.284014	-4.270212	6.870114	0.105475	-0.326957	-0.777008	9.941402	0.069492	1.864524	-16.812785	3.908595	-11.07197	-0.450352	-0.310583	-0.491874
-4.013107	2.11889	12.391534	-3.056267	81.559019	-17.251138	0.829582	0.029487	-0.923942	2.581532	0.66043	9.223067	29.633187	-3.456874	4.747296	0.066327	-0.312934	-0.762834	10.004955	0.01227	2.105005	-16.702543	3.471536	-7.219643	-0.436653	-0.326571	-0.490967
-4.120976	2.177862	12.730667	-6.541285	93.667394	-18.884504	0.855523	0.094065	-0.927643	2.873332	1.110725	9.456049	29.587514	-4.822931	2.544865	0.093015	-0.340209	-0.804428	10.539827	0.302424	2.355772	-14.474611	2.905257	-4.932905	-0.477683	-0.260761	-0.525581
-3.835652	1.947647	12.678416	-2.811056	108.087194	-20.961137	0.871186	0.038606	-0.914329	2.926863	1.95548	9.34469	21.993909	-4.546738	1.832452	0.092864	-0.37085	-0.802421	10.905043	-0.218845	2.899312	-11.694284	2.097518	-2.769222	-0.450285	-0.292738	-0.523767
-4.509302	1.893598	13.34705	-3.211258	122.747667	-21.641736	0.82771	0.029145	-0.871054	2.687038	1.899201	8.88669	17.794895	-4.531066	0.657759	0.092719	-0.341281	-0.790078	10.900412	0.826029	2.783948	-8.914287	1.414664	-0.850599	-0.422883	-0.343386	-0.474531
-4.496432	1.034629	13.968814	1.396385	137.958443	-20.11942	0.785734	0.016497	-0.86659	2.745489	2.068132	8.944681	4.917753	-4.553339	-2.189005	0.092575	-0.311712	-0.777736	10.658015	0.708934	2.419611	-5.536826	0.649728	3.297411	-0.422465	-0.311001	-0.476206
-4.495028	0.632779	14.023978	4.249719	155.375983	-16.255826	0.855551	0.059466	-0.89266	2.993861	1.44873	9.741949	-1.507374	-4.716601	-3.768021	0.079298	-0.373069	-0.773445	10.77124	0.881903	2.182926	-3.413277	-0.390859	4.089345	-0.436448	-0.291708	-0.539224
-4.606647	-0.28572	14.131597	9.986995	173.328177	-12.422579	0.884964	0.000104	-0.865619	2.871477	1.448661	9.399694	-4.988675	-4.022703	-4.103029	0.079373	-0.357748	-0.774449	9.939647	0.824481	1.867738	-1.259993	-1.615494	4.943182	-0.436861	-0.342764	-0.490129
-4.945103	0.405033	14.412077	14.685505	191.170631	-7.576103	0.912434	0.026897	-0.873149	2.752265	1.054373	9.170386	-5.788318	-3.813605	-4.810633	0.079442	-0.402638	-0.785788	9.882562	0.941262	1.986946	0.222048	-2.949141	7.236507	-0.422398	-0.293156	-0.508098
-4.144365	0.002121	14.369123	21.863359	210.032039	-5.02046	0.911305	0.033612	-0.848413	2.640568	1.787075	9.395143	-6.397833	-3.119156	-4.341801	0.091978	-0.374066	-0.759371	9.825321	0.651264	2.044516	1.456846	-3.909981	8.887123	-0.450143	-0.29439	-0.492711
-4.538548	0.118742	14.70293	29.726433	229.300012	-0.252083	0.952923	0.025431	-0.821309	2.935086	1.44879	9.684101	-3.951136	-2.512793	-3.224	0.079448	-0.342428	-0.775453	9.061838	0.944389	2.271074	3.893604	-3.934017	9.092367	-0.408557	-0.310797	-0.476135
-4.256688	0.060128	14.480844	38.363955	250.420827	3.777414	0.939574	-0.001736	-0.814128	3.22028	1.560817	9.576961	-5.271267	-1.88487	-3.34213	0.015975	-0.292554	-0.834484	9.052339	0.767936	1.73117	6.73854	-3.349563	9.751708	-0.422469	-0.29233	-0.523626
-3.870507	0.229026	13.750272	48.945087	266.058433	4.614693	0.995313	-0.010291	-0.787373	3.052504	0.885317	9.742684	-4.12703	-1.74992	-3.000761	0.079448	-0.342428	-0.775453	8.462582	0.595058	1.719424	9.163094	-1.701402	10.927111	-0.436165	-0.295013	-0.477113
-4.510866	0.974051	13.229483	65.765763	274.211895	7.274924	1.036561	-0.022	-0.746192	3.044257	0.772324	9.346112	-3.656827	-1.193275	-2.80988	0.091463	-0.360889	-0.731676	8.510884	0.941154	1.182846	9.984448	-0.059306	12.138926	-0.436728	-0.307074	-0.553915
-6.275276	0.34565	13.703988	78.196054	278.236066	6.752601	1.035417	0.002014	-0.738948	2.824121	1.167495	9.851365	-3.904059	-1.139508	-2.13133	0.092424	-0.342353	-0.775728	7.922519	1.117227	1.292397	10.030575	1.4952	12.681526	-0.435889	-0.260975	-0.509843
-8.609584	1.314405	11.44628	103.009771	275.088498	4.75925	1.035446	-0.032585	-0.703965	3.166641	0.772393	9.688367	-3.285621	-1.071546	-1.945188	0.053126	-0.35897	-0.759548	7.913985	0.999097	0.812647	9.348559	3.6144	14.568986	-0.422887	-0.324715	-0.521952
-10.935274	2.687181	9.645086	102.992075	258.04753	-3.338234	1.033203	-0.036455	-0.637001	3.336381	1.053627	9.578952	0.049293	-1.152479	-1.850826	0.092349	-0.357673	-0.774725	7.316796	0.708336	0.381058	7.915025	5.318145	14.963411	-0.408628	-0.309971	-0.491663
-11.005351	1.937587	8.958599	108.03168	225.930538	-9.61037	1.091957	-0.068682	-0.670378	2.935302	1.336129	9.684006	2.213201	-0.974936	-1.354072	0.067063	-0.340359	-0.803876	7.965548	0.416224	0.33202	4.69754	6.976059	16.220386	-0.436306	-0.29336	-0.508169
-10.179235	0.953222	7.265606	106.308956	189.098399	-6.769558	1.104948	-0.062342	-0.645991	3.054167	1.279725	9.856295	4.374596	-0.982189	-0.735844	0.040225	-0.343725	-0.760276	8.070665	0.76169	-0.323271	0.14001	7.973242	15.834766	-0.394653	-0.291921	-0.523486
-4.242667	-0.491228	6.408874	97.481697	148.187791	2.895071	1.061101	-0.075331	-0.58864	3.224638	0.546963	9.689387	4.683341	-0.921971	0.035705	0.092575	-0.311712	-0.777736	8.432465	0.762611	0.10268	-3.985243	8.443109	16.305968	-0.435956	-0.27882	-0.47795
1.342621	-1.99456	5.147247	81.932223	92.780874	16.850725	1.132832	-0.083919	-0.615122	2.811147	0.997982	9.228187	5.172885	-1.226778	0.711287	0.040295	-0.388614	-0.771615	8.912973	0.472881	0.529595	-6.674628	8.105157	15.522586	-0.421701	-0.245405	-0.495082
3.747006	-2.213721	8.091443	53.747413	37.487382	19.988833	1.146195	-0.074051	-0.604811	3.225223	1.504676	9.803472	4.925117	-1.204482	1.512841	0.1054	-0.342278	-0.776004	9.336955	0.532484	1.136615	-10.564001	7.665118	15.324808	-0.408423	-0.275107	-0.539921
5.001409	-2.732813	7.829502	57.92441	-6.449487	23.187776	1.103105	-0.097283	-0.558119	3.161051	1.166516	9.462141	5.847909	-1.442674	2.220264	0.080039	-0.340284	-0.804152	9.569448	0.647354	0.96179	-12.601141	6.668491	16.345647	-0.450076	-0.276545	-0.524604
4.059065	-1.818634	6.507926	61.94119	-21.105172	24.256606	1.117954	-0.073301	-0.604112	3.16621	0.997715	9.688557	5.750863	-1.78157	2.278473	0.066102	-0.358895	-0.759824	9.825166	0.244485	1.982878	-12.450354	5.154032	17.911249	-0.408632	-0.291299	-0.539084
4.631817	-2.106256	6.517855	37.049747	-50.772405	14.278948	1.133247	-0.132288	-0.576722	3.000575	1.730667	10.082024	6.397559	-1.927269	2.370029	0.053716	-0.356827	-0.788247	10.175691	0.359085	1.810255	-11.256611	3.715571	18.402868	-0.408699	-0.309144	-0.507191
4.940566	-2.388846	7.659278	34.414667	-75.987518	8.203682	1.134747	-0.135475	-0.615534	3.043503	1.166637	9.346444	5.961776	-2.207536	2.181922	0.053126	-0.35897	-0.759548	9.762848	0.243878	1.802057	-10.406744	2.315948	17.978527	-0.436586	-0.308726	-0.522859
5.043815	-2.219017	7.093698	35.790772	-93.997374	5.361799	1.119883	-0.142157	-0.587033	3.212811	1.673194	9.237218	5.592574	-2.118432	1.905057	0.054011	-0.355755	-0.802597	9.712501	0.304067	2.280459	-7.418864	1.649	18.429398	-0.422749	-0.307696	-0.538317
4.635074	-1.99065	6.688897	34.679618	-106.926766	0.800191	1.146967	-0.101593	-0.597979	3.219957	1.729809	9.577103	2.996845	-2.26939	1.192419	0.079819	-0.326036	-0.790806	10.473513	0.1266	1.934582	-5.301465	0.620071	18.090398	-0.435822	-0.24313	-0.541735
4.283753	-1.99209	6.284244	24.001058	-119.349235	-6.332605	1.162988	-0.136224	-0.616233	2.932776	1.392364	9.570774	2.193564	-2.337087	0.605365	0.041412	-0.279228	-0.807339	10.531719	0.474922	1.937166	-3.464582	0.185849	16.343493	-0.436306	-0.29336	-0.508169
3.899716	-2.045622	7.129005	12.490561	-131.953021	-14.140998	1.10612	-0.120954	-0.618252	3.049439	1.223205	9.629689	0.837617	-2.164908	-0.226373	0.053716	-0.356827	-0.788247	10.290983	0.590625	1.693631	-1.507094	0.129863	13.555116	-0.408979	-0.324511	-0.521882
3.503472	-2.15925	7.34814	6.654279	-144.264295	-21.071847	1.119855	-0.107558	-0.622017	3.100529	1.448182	9.34789	0.314518	-2.103397	-1.274336	0.093015	-0.340209	-0.804428	10.413687	0.475192	1.934965	-0.648274	0.607257	12.051992	-0.435609	-0.245609	-0.495152
2.645644	-1.986063	7.389015	1.099978	-155.810285	-27.623278	1.093471	-0.089167	-0.691698	3.386501	1.785579	9.297579	-0.734679	-2.081832	-1.922354	0.053421	-0.357898	-0.773898	10.286561	0.12478	1.392119	-1.738292	0.655086	10.007819	-0.394027	-0.243344	-0.525997
1.741988	-2.212512	7.995618	-6.61277	-165.03815	-33.394908	1.121355	-0.110744	-0.660829	3.385053	1.278509	9.183873	-1.598631	-2.087171	-2.786284	0.053571	-0.327258	-0.775905	10.873826	-0.05154	1.222661	-3.352042	0.32765	8.578664	-0.43533	-0.230243	-0.480461
1.224305	-1.982855	7.872855	-14.367991	-171.973028	-37.994387	1.0931	-0.092695	-0.677622	2.759541	1.67434	9.567385	-2.153329	-2.029676	-3.279406	0.053056	-0.314081	-0.748209	10.346272	0.299121	1.453868	-4.630137	-0.209224	6.8131	-0.436101	-0.258496	-0.556426
0.542612	-1.693944	8.144965	-20.732575	-178.340295	-40.564185	1.095343	-0.088825	-0.744586	3.509855	1.278673	9.639408	-2.150603	-1.872324	-3.894396	0.09331	-0.339137	-0.818778	10.517278	0.529784	1.158623	-3.598262	-1.136701	5.163315	-0.408423	-0.275107	-0.539921
-0.240803	-2.149036	9.037096	-26.691978	-185.227161	-40.566875	1.080465	-0.078208	-0.733577	3.159304	1.448122	9.405738	-1.80909	-1.7734	-4.2939	0.054457	-0.324042	-0.818954	10.286696	0.066704	1.391871	-2.812775	-2.158718	3.698277	-0.436377	-0.292534	-0.523696
-1.153989	-1.515792	9.192493	-33.25826	-192.260979	-38.72969	1.067074	-0.053477	-0.778871	3.050086	0.885222	9.629405	0.048581	-1.413973	-4.073036	0.053641	-0.372147	-0.787244	10.513531	-0.226441	0.855875	-2.861973	-3.676296	2.54428	-0.464051	-0.294595	-0.492781
-2.061152	-1.513199	9.629502	-38.926096	-199.131006	-34.714558	1.038818	-0.035429	-0.795665	3.16293	1.448264	9.575657	-1.590183	-1.642359	-5.155599	0.027394	-0.373369	-0.772342	9.813041	-0.22309	1.262018	-3.090032	-4.864672	2.031199	-0.393956	-0.24417	-0.510469
-2.285923	-1.224861	9.853667	-43.68202	-203.745754	-28.487706	1.040319	-0.038615	-0.834477	2.881471	1.280048	9.852668	0.319958	-2.017914	-4.97283	0.066252	-0.328254	-0.761831	9.801901	-0.167486	0.663196	-2.459553	-6.165038	0.812593	-0.393539	-0.211785	-0.512143
-2.853972	-1.280923	10.069703	-48.386908	-205.381163	-21.844781	1.012435	-0.017038	-0.865346	2.816329	1.448863	9.511764	1.848197	-0.692181	-3.108747	0.052906	-0.344722	-0.746202	9.815377	-0.280671	1.381584	-1.74073	-7.053546	-1.753042	-0.42219	-0.276963	-0.508935
-2.95516	-1.220503	10.749955	-52.283825	-205.196446	-15.32824	1.055911	-0.007577	-0.908621	3.216438	1.673336	9.407137	-0.076403	-1.623354	-5.123364	0.066322	-0.373144	-0.77317	9.750743	0.241159	1.143081	-1.258228	-7.527943	-3.036141	-0.421634	-0.22756	-0.526975
-3.523665	-0.644708	10.968645	-55.716752	-204.332579	-8.83293	0.984937	-0.009232	-0.892799	2.927379	1.054144	9.287292	2.481961	-1.850232	-2.965613	0.079002	-0.374141	-0.759096	9.16786	-0.046388	1.490282	-0.551682	-8.389737	-2.270531	-0.421564	-0.228386	-0.511447
-3.466286	-0.817075	10.969035	-60.253349	-202.785042	-3.396991	0.999415	0.011221	-0.924716	3.454838	1.842228	9.808592	4.624078	-0.909672	-1.968043	0.092795	-0.325961	-0.791082	9.28176	-0.163799	1.252361	0.889107	-8.741178	-3.282624	-0.449726	-0.262005	-0.494385
-3.611616	-0.409069	12.331858	-65.060136	-199.344914	0.50623	0.986051	0.001353	-0.935027	3.438669	1.447251	9.015306	2.737724	-1.229566	-3.606621	0.105099	-0.40356	-0.77199	8.993282	-0.16164	1.6063	0.725036	-9.250693	-4.349267	-0.436582	-0.327398	-0.475439
-4.124264	-0.982629	12.43313	-65.287643	-193.722588	3.726275	0.899813	0.024086	-0.911612	2.875534	1.223481	9.569423	6.563155	-1.437957	-1.817596	0.066177	-0.343575	-0.760827	8.928359	0.011487	1.306407	0.569181	-9.465361	-4.347678	-0.421981	-0.260771	-0.509773
-4.23795	-0.580214	12.489445	-68.697039	-185.848259	5.059977	0.956667	0.026116	-0.927085	2.692736	1.448747	9.112869	5.668222	-1.358335	-1.663384	0.066692	-0.356752	-0.788523	9.218052	-0.513356	0.950243	0.537068	-9.307805	-4.80674	-0.435747	-0.262628	-0.478787
-5.093592	-0.349103	12.644267	-76.748441	-174.353808	5.300478	0.900528	0.065741	-0.974747	3.448447	1.3913	9.468375	6.190684	-1.509023	-1.047902	0.052975	-0.389611	-0.757541	8.93056	0.011981	1.426221	1.340727	-8.284176	-5.914752	-0.43568	-0.244783	-0.51068
-5.255251	-0.46169	13.152122	-81.989475	-159.773774	5.767015	0.845918	0.067581	-1.026238	2.989025	1.44854	9.515391	5.014784	-1.677244	-1.050521	0.091978	-0.374066	-0.759371	9.040038	-0.571274	0.886787	2.918039	-7.604639	-6.015391	-0.436098	-0.277168	-0.509006
-5.705616	-0.287345	13.541909	-81.621955	-141.334587	7.138777	0.831797	0.067956	-1.025889	2.995069	1.448777	9.798589	3.530176	-1.819524	-0.929818	0.066617	-0.372072	-0.787519	9.336084	-0.513626	0.952444	3.498889	-7.189442	-7.516976	-0.43568	-0.244783	-0.51068
-5.933236	0.862134	13.655988	-79.241967	-119.780638	8.43269	0.789421	0.086379	-1.042333	3.158526	1.222752	9.348909	2.294466	-1.777697	-0.344663	0.079078	-0.35882	-0.760099	9.159346	0.300338	1.072417	3.367766	-6.833557	-9.44353	-0.436515	-0.309553	-0.507331
-5.830602	0.342423	13.030659	-81.354299	-95.255965	8.77582	0.818034	0.089158	-1.057108	3.331892	1.504129	9.409413	1.827589	-2.03071	-0.070102	0.079743	-0.341356	-0.789802	9.216141	-0.165147	0.891819	3.624731	-6.231307	-8.438832	-0.450494	-0.30893	-0.52293
-5.885837	0.630155	13.144458	-91.538996	-70.15423	6.238268	0.802399	0.110018	-1.035438	2.989803	1.673909	9.57222	4.206299	-1.886522	1.258855	0.092054	-0.358745	-0.760375	9.04363	-0.221829	1.127898	4.282007	-5.502423	-7.711229	-0.42219	-0.276963	-0.508935
-6.6193	1.035197	13.700203	-102.42338	-47.742551	1.84964	0.775286	0.104053	-1.059476	3.098327	1.335426	9.234516	1.453474	-2.22484	0.760026	0.053201	-0.34365	-0.760551	9.159846	-0.861677	0.947659	5.710627	-4.43019	-7.385348	-0.394098	-0.242518	-0.541525
-7.29629	0.980424	14.198278	-112.700914	-30.170401	-3.999547	0.788264	0.127692	-1.052581	3.277522	1.729701	9.578312	1.205352	-2.233007	1.530449	0.079593	-0.371997	-0.787795	9.400853	-1.093532	1.190699	6.277744	-3.426646	-6.628162	-0.436306	-0.29336	-0.508169
-8.66586	0.867501	14.398484	-119.407887	-19.894131	-10.253792	0.78865	0.113921	-1.049165	2.988594	1.673862	9.515581	1.384484	-2.606691	2.760007	0.053496	-0.342578	-0.774901	9.277743	-0.803871	0.950107	7.460079	-2.542289	-5.964315	-0.394724	-0.291095	-0.539014
-21.088812	5.137668	43.612997	-130.512051	-16.530202	-15.963874	0.801613	0.15486	-1.059762	3.228742	1.561149	9.973438	0.053204	-2.638239	5.00909	0.040885	-0.386471	-0.800314	8.988455	-0.453256	1.30553	8.877277	-1.789812	-7.256611	-0.436235	-0.294186	-0.492641
-0.34301	0.951258	-4.818446	49.463607	-10.752482	-1.942559	0.787492	0.155234	-1.059412	2.697248	1.617928	9.33957	-0.445066	-2.693693	7.844359	0.078927	-0.389461	-0.758092	9.114325	-0.509872	1.726832	9.144764	-1.45928	-9.551219	-0.394303	-0.277381	-0.493267
-18.710472	3.589604	4.269255	-25.256226	-29.700434	-4.274187	0.788635	0.13122	-1.066657	2.921897	1.391938	9.061018	-1.498961	-2.610524	11.852069	0.079078	-0.35882	-0.760099	9.053804	-0.335756	1.666566	5.715743	-1.238637	-5.444674	-0.436306	-0.29336	-0.508169
-19.435704	0.939105	2.198082	-122.182482	-46.327352	-33.372641	0.788235	0.162291	-1.087564	3.165348	1.448359	9.688937	-2.337389	-2.786511	13.699377	0.052906	-0.344722	-0.746202	8.284953	-0.101944	1.593342	9.146654	-0.745411	-4.634288	-0.422678	-0.308522	-0.522789
-25.288542	2.733953	4.42185	-135.400754	-76.667073	-31.067027	0.758494	0.166226	-1.048054	3.443959	1.841802	9.298836	-3.576864	-2.907269	15.701064	0.053791	-0.341506	-0.789251	8.642487	-0.160088	1.779418	9.424769	-0.15565	-5.37159	-0.422398	-0.293156	-0.508098
-26.216221	8.017549	4.028263	-109.058316	-116.399435	-22.555868	0.744702	0.222027	-1.114256	3.332108	1.391468	9.409318	-6.114703	-3.019862	18.626672	0.053271	-0.388539	-0.77189	8.532853	0.016388	2.257214	10.166888	0.091412	-5.344895	-0.395	-0.325133	-0.506284
-26.662541	7.216111	4.584508	-60.059616	-129.856069	-9.082915	0.743201	0.225213	-1.075444	3.214475	2.067602	9.350829	-8.497775	-3.014275	22.540139	0.066472	-0.342503	-0.775177	9.055174	-0.451661	1.725978	12.375627	0.714241	-2.696981	-0.422052	-0.259945	-0.5253
-25.625969	7.261668	1.990663	-21.163446	-107.200678	7.519259	0.758451	0.218124	-1.100529	2.753951	2.068464	9.341158	-14.343411	-3.235978	26.356102	0.040671	-0.312012	-0.776633	9.122008	-0.972997	2.084295	17.775649	1.319492	2.751331	-0.408837	-0.326163	-0.490826
-22.165756	8.183794	3.368955	-41.706459	-53.299284	20.536181	0.715703	0.233019	-1.102897	2.929604	1.786583	9.457827	-26.122582	-3.682241	29.548488	0.053641	-0.372147	-0.787244	9.292164	-1.323589	1.666765	24.236887	1.994207	4.80305	-0.436239	-0.275515	-0.540061
-19.151484	6.236347	5.23795	-15.232225	-1.746437	28.472869	0.728681	0.256658	-1.096002	3.172924	1.279652	10.028632	-30.127778	-5.007813	32.245124	0.04037	-0.373294	-0.772618	9.708308	-1.20764	1.854683	27.276526	2.902912	6.713255	-0.422816	-0.325541	-0.506424
-16.194007	5.827759	4.270807	21.399666	41.392799	39.033522	0.701197	0.247165	-1.105964	3.114042	1.336043	9.970831	-30.923064	-6.654182	33.9546	0.065436	-0.37636	-0.73012	9.097643	-1.385215	0.704706	27.663388	3.586378	8.786997	-0.380395	-0.277177	-0.493197
-14.779116	6.410106	6.403508	39.031304	62.651215	46.83996	0.687462	0.233768	-1.102199	3.006465	0.547868	10.250947	-31.141709	-9.292435	33.712379	0.02799	-0.311015	-0.790707	9.448689	-1.967775	0.469209	22.244937	5.571852	13.106887	-0.436377	-0.292534	-0.523696
-12.256265	6.881125	9.580239	71.748667	60.473181	57.164891	0.758065	0.231895	-1.103945	3.242878	0.491343	10.538933	-31.735209	-14.80912	32.11554	0.040451	-0.297764	-0.763287	9.442356	-2.08541	0.109273	14.439529	7.976755	14.49916	-0.380115	-0.261811	-0.478506
-9.665263	8.318676	10.432322	129.274581	41.12584	66.004491	0.757708	0.211068	-1.072377	3.790242	1.618217	12.023392	-35.986778	-24.433396	23.106614	0.053056	-0.314081	-0.748209	9.075344	-1.738863	-0.554822	-1.968168	11.558407	8.581182	-0.436448	-0.291708	-0.539224
-5.690239	0.368053	5.588713	191.345969	12.76267	74.806643	0.745473	0.194485	-1.107424	3.781649	1.054532	11.5698	-27.46561	-45.120375	13.998153	0.02784	-0.341656	-0.788699	9.132855	-1.565017	-0.612887	-15.459172	14.058183	1.802311	-0.395142	-0.32348	-0.537339
-1.131653	3.027638	10.519178	121.558145	14.896806	69.463149	0.773329	0.207507	-1.111539	3.202907	0.773815	11.387555	-30.849006	-51.809563	7.855667	0.014939	-0.326411	-0.789427	10.130917	-1.219846	-0.832324	-17.981761	15.435824	0.826851	-0.45021	-0.312235	-0.460818
2.662118	0.787578	11.265494	97.353181	32.753534	54.126809	0.787878	0.141463	-1.055997	3.777806	1.167051	11.399977	-30.777504	-60.879244	6.563255	0.040966	-0.31094	-0.790982	10.72247	-0.872245	-0.700022	-25.407133	14.220114	3.426873	-0.422469	-0.29233	-0.523626
1.8388	-0.837617	7.15084	93.921837	56.377934	31.77086	0.803127	0.134374	-1.081082	3.781025	2.012199	11.627246	-31.093723	-71.016301	8.188639	0.003074	-0.277309	-0.835212	11.201202	-0.871842	-0.331777	-41.579888	11.340307	4.202165	-0.42219	-0.276963	-0.508935
-0.896896	1.24775	10.743564	87.445175	85.460968	35.972274	0.817619	0.137528	-1.095507	3.333237	1.675552	12.183686	-33.462935	-82.082059	11.714535	0.001448	-0.313309	-0.761456	12.391604	-0.000683	0.352916	-47.495828	7.673815	-1.199165	-0.422402	-0.274485	-0.555519
-8.374238	4.258033	14.81626	96.809967	95.166226	18.502551	0.817248	0.134	-1.081431	3.392358	2.126183	12.298554	-36.411305	-94.908323	15.808253	-0.024354	-0.282818	-0.762912	12.527939	0.177478	1.374276	-45.460604	3.761018	-6.658448	-0.436586	-0.308726	-0.522859
-9.379195	-0.024347	7.163387	97.606814	39.560427	-39.11226	0.790907	0.100492	-1.098637	3.460372	2.351824	12.809709	-41.63285	-109.05881	20.781078	-0.024354	-0.282818	-0.762912	12.715607	0.818629	2.039272	-42.78171	0.454366	-2.46541	-0.422398	-0.293156	-0.508098
-4.458505	4.395087	7.277728	12.071274	9.081693	33.414876	0.832169	0.071484	-1.039965	3.129378	2.40937	13.482178	-46.07489	-125.072251	25.736079	-0.037255	-0.267573	-0.763639	12.735124	0.474376	3.056206	-39.398812	-2.122568	5.358822	-0.408002	-0.261393	-0.494175
-1.089034	1.703064	9.718798	44.694439	2.481474	2.733087	0.817634	0.120229	-1.078015	3.368725	1.451605	13.826045	-52.387369	-145.110983	27.597486	-0.024203	-0.252178	-0.764919	11.9138	-0.68476	3.155669	-24.050865	-2.740935	5.367307	-0.422123	-0.259118	-0.540828
-3.194909	1.30516	10.301294	49.782988	15.774518	-10.069	0.832154	0.088784	-1.057457	3.729594	0.944553	14.512547	-52.517022	-167.426938	27.930613	-0.09027	-0.31705	-0.716476	11.256959	0.244706	2.847986	-11.657198	-0.180807	1.642551	-0.422749	-0.307696	-0.538317
-3.861578	1.469979	8.413617	45.466657	16.593357	-2.744015	0.834041	0.071827	-1.092853	3.724435	1.113355	14.286131	-51.510142	-190.340114	27.457177	-0.090634	-0.273233	-0.690788	10.652647	0.649621	2.119829	-9.181456	2.51851	10.637192	-0.436172	-0.25767	-0.571954
-3.522712	1.755973	8.194093	42.762979	8.365269	0.779544	0.804256	0.12766	-1.105818	3.685326	0.945182	15.134374	-49.092099	-213.922537	28.303942	-0.064903	-0.258834	-0.677993	11.051995	0.413158	1.347754	-4.807151	5.184141	11.708988	-0.421914	-0.242926	-0.541665
-2.711502	2.274538	8.723531	29.842649	7.054231	5.395539	0.818391	0.109986	-1.088675	3.62016	0.494314	14.736308	-49.207394	-239.849289	30.050323	-0.141653	-0.270317	-0.732734	11.286014	0.818903	1.293979	-4.963683	7.202955	2.775043	-0.380257	-0.260159	-0.509562
-3.324184	1.704197	9.561666	27.884022	7.131704	5.893107	0.847804	0.050624	-1.061635	3.97326	0.888313	15.140371	-46.470817	-262.581857	31.984907	-0.116285	-0.212101	-0.694251	11.157983	1.804735	0.876633	-9.505878	8.261104	-0.54494	-0.380537	-0.275525	-0.524253
-2.718965	1.813317	8.323629	24.015377	5.601942	6.400718	0.790936	0.065894	-1.063654	3.558884	1.170293	14.622389	-45.145758	-284.681642	32.568149	-0.168635	-0.244114	-0.676791	11.176245	1.053455	1.772022	-10.41139	6.664959	-0.320103	-0.422123	-0.259118	-0.540828
-2.711295	1.98733	8.722324	16.070037	4.932041	5.308697	0.847804	0.050624	-1.061635	4.702724	1.280514	14.306825	-43.703052	-299.876844	33.990807	-0.221575	-0.278271	-0.630632	10.99603	0.995042	1.588753	-11.096675	3.319125	-2.379907	-0.422331	-0.275311	-0.539991
-3.794551	1.816758	8.927857	10.615187	5.031582	5.142015	0.876031	0.067174	-1.079825	5.398583	1.786432	14.604956	-33.364199	-309.746915	41.485435	-0.260723	-0.264247	-0.616458	10.82599	0.822703	1.944151	-10.69269	0.113165	-2.793942	-0.436519	-0.290881	-0.554752
-3.511495	1.643503	8.762141	5.314371	4.596892	6.070216	0.832955	0.026643	-1.015642	7.264037	3.473942	15.891135	-11.112445	-308.486053	46.972909	-0.260567	-0.173396	-0.60813	10.066368	1.34912	2.411326	-10.549019	-2.132852	-1.469562	-0.422678	-0.308522	-0.522789
-3.328721	1.818115	9.334736	2.318112	5.094175	7.068257	0.847418	0.064395	-1.06505	9.459956	3.242473	13.61587	15.020963	-303.256991	49.758979	-0.300606	-0.222798	-0.561243	10.123723	1.116186	2.291624	-9.409049	-3.617507	0.519974	-0.422611	-0.290677	-0.554682
-3.220851	1.759144	8.995603	-1.693086	5.346449	7.574568	0.876388	0.088002	-1.111392	8.812151	3.527126	15.640625	32.204611	-289.369559	59.160103	-0.340865	-0.257952	-0.50101	9.484294	0.713117	2.757043	-5.439503	-5.29598	1.522191	-0.409191	-0.322032	-0.568465
-3.331031	1.932516	9.221513	-6.96164	5.970321	7.323872	0.832912	0.078541	-1.068117	8.128273	3.078012	15.908937	64.835422	-276.827939	74.110337	-0.340269	-0.195598	-0.519374	9.664374	0.829606	2.94056	-2.530926	-6.457273	-0.530522	-0.422682	-0.289851	-0.57021
-3.335319	1.701785	8.993135	-8.09571	6.340754	6.719824	0.84859	0.005783	-1.037311	6.214408	2.292325	15.132064	79.056048	-275.516099	74.936458	-0.379938	-0.228608	-0.48784	9.714047	1.059797	2.463394	1.619141	-6.946543	-2.071344	-0.394795	-0.290269	-0.554541
-3.435269	1.590121	9.729516	-7.908496	6.363304	7.516984	0.804713	0.027392	-1.014943	2.694789	-0.01351	11.772489	62.073924	-267.824498	77.404116	-0.394094	-0.232971	-0.430165	9.658737	0.886446	2.641272	5.709178	-7.066454	-3.858189	-0.422123	-0.259118	-0.540828
-3.330575	1.300659	9.218858	-5.693978	6.288504	9.594706	0.86081	0.039665	-1.019756	-1.929345	-2.374055	7.88014	59.427995	-216.769116	68.998375	-0.3952	-0.221938	-0.37377	10.066908	1.116816	2.410337	9.269596	-7.736629	-5.854394	-0.408565	-0.273454	-0.570977
-3.274517	1.41526	9.163601	-4.867708	6.421202	9.073159	0.848561	0.040382	-1.072295	-8.875971	-4.841371	5.693958	57.580934	-133.226807	47.658841	-0.422113	-0.240624	-0.329166	10.481121	1.116118	2.477947	11.712993	-8.832089	-8.516832	-0.436519	-0.290881	-0.554752
-3.902296	1.703406	9.266266	-4.048484	5.854385	7.896267	0.877574	0.01209	-1.066161	-7.114991	-6.195304	7.201717	53.144029	-42.820829	-7.678897	-0.448505	-0.212277	-0.301922	10.057004	1.114591	1.871175	13.490574	-9.643331	-9.313975	-0.436381	-0.273863	-0.571117
-3.336805	2.218517	8.938454	-2.492695	5.256793	7.023414	0.833683	0.050999	-1.061285	-2.897611	-2.48212	11.030102	24.9125	-4.743922	-65.768848	-0.423149	-0.27448	-0.284109	10.104455	0.879432	1.212311	15.124926	-9.730794	-9.166673	-0.436101	-0.258496	-0.556426
-2.984904	1.415776	9.339728	-1.517555	4.995916	6.035032	0.862696	0.022708	-1.055152	-5.967943	-3.09685	10.002635	24.378926	30.527999	-97.104698	-0.44858	-0.227597	-0.300918	9.767966	0.884198	2.164218	15.564714	-8.937427	-8.835885	-0.408423	-0.275107	-0.539921
-3.446611	1.874916	9.162191	-1.034638	4.425088	5.073691	0.86231	0.036479	-1.058568	-6.367659	-1.631265	10.278604	25.856314	61.219313	-128.266704	-0.448435	-0.257166	-0.313261	9.766015	0.302696	1.982025	15.356882	-7.432144	-9.54521	-0.450218	-0.274893	-0.555659
-3.337546	1.701302	8.879429	-0.889136	3.884807	3.991143	0.875288	0.060118	-1.051673	-5.727294	-1.575835	10.631787	36.823804	77.458367	-139.06825	-0.421528	-0.29869	-0.3682	9.583734	0.185713	1.678695	13.064767	-5.119847	-9.150657	-0.40905	-0.323684	-0.53741
-3.267178	2.048805	9.564227	0.118006	3.588821	3.400756	0.848175	0.054153	-1.075711	-5.252185	-1.860165	8.603404	46.294612	92.662036	-149.326309	-0.408992	-0.270118	-0.341784	9.22564	0.011306	1.431723	11.053743	-2.440713	-8.636628	-0.422398	-0.293156	-0.508098
-3.160173	1.644943	9.166793	0.42178	3.472888	2.90732	0.889437	0.025145	-1.017039	-5.198138	-1.916745	8.434647	48.4865	116.866354	-149.237883	-0.395507	-0.343429	-0.380091	9.106798	0.360032	1.431006	8.820018	-0.463348	-8.362929	-0.39472	-0.309766	-0.491593
-3.387912	1.415584	9.218227	1.586662	3.634069	2.722582	0.833698	0.0337	-1.043794	-5.379189	-1.973085	8.034495	50.667339	143.058556	-144.475977	-0.357169	-0.345348	-0.352218	9.105812	-0.163146	1.308967	5.661615	1.572209	-8.116718	-0.394512	-0.293574	-0.49243
-3.447476	1.530026	9.10389	2.165136	3.209676	2.438012	0.876445	0.018805	-1.041425	-5.100147	-1.804964	7.644205	44.952167	170.464317	-135.116137	-0.369335	-0.357528	-0.393988	8.9867	0.301732	1.308744	3.391868	2.565902	-7.379777	-0.395004	-0.306461	-0.553704
-3.383541	1.531432	9.446122	3.05099	2.909292	2.185241	0.847061	0.043568	-1.033483	-4.875475	-1.411271	7.422814	33.674455	198.126653	-120.241127	-0.36956	-0.403489	-0.390977	8.398604	0.361653	1.4178	2.806906	2.375843	-6.948896	-0.409258	-0.339877	-0.536573
-3.33305	1.644826	9.1066	4.985414	2.87645	3.160497	0.84819	0.036853	-1.058219	-3.724621	-1.807788	7.390021	18.197419	223.724933	-102.92382	-0.316991	-0.385725	-0.421783	8.45816	0.129214	1.417912	1.303415	2.853228	-6.303943	-0.422678	-0.308522	-0.522789
-3.387912	1.415584	9.218227	5.386773	2.994979	3.713279	0.833683	0.050999	-1.061285	-2.831134	-1.695558	8.824239	6.72036	243.537944	-83.317718	-0.290749	-0.444713	-0.44702	8.340823	0.303959	1.476359	0.168468	3.210531	-5.751432	-0.450427	-0.291085	-0.554822
-2.929177	1.989909	9.286401	6.006632	3.353407	4.882671	0.902786	0.052312	-1.024219	-1.607731	-1.077569	9.586463	4.704153	254.548033	-61.910592	-0.251457	-0.488305	-0.473536	8.112037	0.015602	1.830163	1.750502	3.508532	-4.444434	-0.381163	-0.324102	-0.521741
-3.327732	1.990681	9.392313	4.228295	3.754351	4.035627	0.861553	0.046721	-1.047908	-0.682388	-0.797451	9.832601	5.747195	256.182236	-38.127397	-0.303801	-0.460108	-0.44574	8.465573	-0.217759	1.77587	2.37682	4.392822	-3.961932	-0.42226	-0.276137	-0.524463
-3.800242	1.987877	8.644315	5.175034	4.17533	2.537045	0.818034	0.089158	-1.057108	-0.220117	-1.079919	9.898675	3.726593	252.483965	-14.768565	-0.236999	-0.422661	-0.535225	8.523914	0.072486	1.778206	1.952364	5.433233	-4.148732	-0.408632	-0.291299	-0.539084
-3.04785	1.586936	9.055073	1.170366	4.940998	3.849044	0.889065	0.021616	-1.002963	0.702762	-2.039262	9.917211	0.77104	248.016832	7.288149	-0.236779	-0.436909	-0.548571	8.403276	0.24649	1.656933	2.457986	6.374172	-3.268756	-0.437007	-0.32244	-0.568606
-2.988493	1.759702	9.170616	1.878531	5.435641	3.885712	0.86271	0.005408	-1.03766	1.575375	-1.758847	10.388699	-6.687212	246.353155	27.304534	-0.236409	-0.420517	-0.563924	8.575497	-0.045532	1.359464	3.481341	6.863499	-2.908052	-0.380954	-0.30791	-0.522578
-3.1624	1.64446	9.053087	3.435357	5.085289	2.894183	0.860796	0.056964	-1.037248	1.92966	-1.984483	10.79224	-14.933148	248.095553	44.611055	-0.19689	-0.418148	-0.593451	8.870038	0.186097	1.365955	2.954929	7.238475	-3.855358	-0.394795	-0.290269	-0.554541
-3.732676	1.587916	9.155417	2.072949	6.032001	5.581533	0.874545	0.053061	-1.023521	2.634628	-1.816216	11.486564	-23.237051	252.30595	58.921192	-0.209571	-0.417151	-0.607525	8.348371	-0.10109	1.83407	3.150239	7.436884	-2.267782	-0.450773	-0.324297	-0.53762
-3.323728	1.072341	9.559011	5.935491	5.859386	6.119613	0.846675	0.057339	-1.036899	2.132488	-0.91563	9.608545	-23.074594	253.321601	63.124571	-0.183179	-0.445498	-0.634769	9.051468	-0.278174	1.546999	3.159793	7.325567	-0.372407	-0.409329	-0.33905	-0.5521
-3.332926	1.472501	9.105876	4.733087	7.632376	9.187874	0.860796	0.056964	-1.037248	5.402332	-0.804819	14.546135	-51.964593	251.96865	78.349915	-0.130089	-0.380701	-0.682935	8.644417	-0.043442	1.899727	7.632602	7.6485	-0.481835	-0.464268	-0.273445	-0.586785
-3.448673	1.644668	9.04752	6.735107	8.301416	10.634291	0.889808	0.028673	-1.031114	6.086233	0.263978	14.334985	-35.285997	235.740581	63.926272	-0.168281	-0.408351	-0.72315	8.533413	0.248939	2.31811	7.155323	7.737021	-3.292271	-0.394862	-0.308114	-0.522649
-2.868417	1.760825	9.457109	7.469202	8.559388	9.86972	0.849704	0.016368	-1.079539	6.493249	0.038044	14.513176	-29.769387	221.867223	56.238763	-0.116748	-0.424443	-0.7089	8.465998	0.072868	1.837013	9.791085	7.966585	-0.919047	-0.408699	-0.309144	-0.507191
-3.448507	1.414901	9.046555	7.040653	9.056726	9.20438	0.861939	0.03295	-1.044492	7.286345	1.050057	14.021198	-26.108786	207.300586	43.055085	-0.102366	-0.374119	-0.769585	8.409588	-0.10073	1.954984	11.359809	7.700075	-1.229083	-0.394933	-0.307288	-0.538177
-3.44888	1.931875	9.048726	7.318746	9.489635	9.08795	0.89018	0.032201	-1.04519	7.775188	0.14895	15.276182	-27.516398	192.606	30.051394	-0.101995	-0.357727	-0.784938	9.001255	-0.276062	2.025154	12.417898	6.967873	-4.010584	-0.40912	-0.322858	-0.552937
-3.685733	1.987794	8.646542	7.624449	9.524578	8.842308	0.904672	0.035355	-1.059616	8.422721	0.880678	16.026411	-25.787778	169.265537	14.806479	-0.088354	-0.340188	-0.814917	8.829149	-0.506972	2.260491	13.830747	6.952471	-4.993604	-0.40912	-0.322858	-0.552937
-3.041128	1.530942	9.39595	6.95292	10.077015	8.638554	0.889079	0.004317	-0.985471	9.573898	0.31517	15.993476	-23.274395	139.764142	1.073612	-0.049721	-0.341035	-0.801395	9.1823	-0.10125	2.268825	14.09739	6.322098	-6.061214	-0.450635	-0.307278	-0.553985
-2.928023	1.932708	9.343013	8.05641	10.363262	8.241367	0.861196	0.025894	-1.01634	10.667294	-0.13757	15.959426	-22.923967	110.315193	-11.611914	-0.061736	-0.322574	-0.845172	9.472709	0.013238	2.035194	12.979515	6.115636	-7.186948	-0.40912	-0.322858	-0.552937
-3.390097	1.35766	9.10428	8.151145	10.762493	8.308916	0.845932	0.050282	-1.008747	11.68346	-0.421969	15.018076	-27.229111	86.61223	-22.363225	0.003294	-0.291557	-0.848558	9.291799	-0.21965	1.791276	11.381664	6.130372	-6.203272	-0.437216	-0.338632	-0.567769
-3.448383	1.242577	9.045831	7.328108	11.277919	8.595659	0.876074	0.015276	-1.027349	13.552682	-0.31405	13.642075	-36.135018	73.00867	-30.89051	0.002993	-0.352839	-0.844543	9.224385	-0.395721	1.310179	9.821751	5.572839	-3.108227	-0.395216	-0.303983	-0.600288
-3.734862	1.529992	9.04147	8.044056	11.656023	10.77704	0.860438	0.036136	-1.00568	15.324367	0.076448	13.113487	-46.915265	72.632888	-36.54408	0.002999	-0.292629	-0.834208	8.938918	-0.741524	1.782448	8.727571	5.104013	0.443229	-0.366838	-0.291513	-0.523345
-3.73074	1.990489	9.270813	7.388067	12.726837	13.648239	0.876102	-0.019322	-0.992366	17.891926	-0.605316	12.034527	-54.593067	80.54341	-42.605872	0.056674	-0.285898	-0.921409	8.525129	-0.450198	1.775981	8.799755	4.432206	3.319127	-0.39563	-0.355039	-0.551193
-3.618292	1.760157	9.158368	4.772303	11.775592	12.444353	0.861596	-0.005177	-0.995433	20.929203	-2.301608	11.304222	-53.658823	100.049112	-47.83633	0.068539	-0.335	-0.875625	8.57148	-0.685604	1.05721	8.745872	3.392561	6.227868	-0.367605	-0.338438	-0.55189
-4.026867	1.758759	8.752602	5.531332	11.33038	11.361632	0.891723	-0.022883	-1.031527	24.039609	-1.633704	8.822499	-41.254268	124.286651	-61.363862	0.056825	-0.255257	-0.923417	8.757042	-1.032735	1.478376	8.532181	2.363086	8.097998	-0.436936	-0.323266	-0.553078
-3.905802	1.932448	9.096671	2.00219	10.732827	11.116752	0.919207	-0.013389	-1.021565	24.189978	-1.580934	5.089169	-43.98889	148.910353	-70.121665	0.108207	-0.30199	-0.907159	8.164565	-0.508948	1.40969	8.34372	1.561727	8.622109	-0.423237	-0.339255	-0.552171
-3.784653	1.991254	9.440258	2.033713	12.608432	8.356524	0.874959	0.004692	-0.985122	22.908967	0.108541	1.836747	-63.639605	167.806467	-74.788733	0.14662	-0.288588	-0.88029	8.870267	-0.859766	1.241691	7.256898	0.889286	8.201345	-0.381722	-0.354835	-0.551123
-3.826485	2.224439	10.236053	-0.378679	15.576424	5.835708	0.903943	0.010999	-1.013972	22.262327	2.700599	1.429153	-89.148695	171.623693	-70.918307	0.134009	-0.332481	-0.905703	8.98803	-0.743884	1.244387	5.063356	1.013859	7.230623	-0.395279	-0.340499	-0.520975
-3.660496	2.510316	9.956335	-2.143668	20.195169	1.65311	0.903572	0.007471	-0.999896	22.867087	5.179392	3.029238	-95.930062	157.006117	-59.633507	0.160262	-0.271049	-0.910269	9.411742	-0.568129	1.8519	1.760842	1.070423	6.539329	-0.381301	-0.341121	-0.505376
-3.211468	3.554589	12.470009	-2.673315	29.648443	-0.154454	0.903586	-0.009829	-0.982404	24.353414	6.417913	5.382727	-75.240543	125.428423	-48.80336	0.186138	-0.286219	-0.909817	9.929007	-0.28193	1.144158	-0.032397	0.824949	5.996836	-0.423241	-0.320583	-0.599591
-3.686454	3.895951	11.609752	-0.091078	42.729969	-3.598776	0.932198	-0.007049	-0.997179	26.472546	19.487895	11.496479	23.159193	16.371699	-53.569614	0.199485	-0.269752	-0.925446	9.703947	-0.278918	1.738825	-1.235759	0.667046	6.063077	-0.408912	-0.306666	-0.553775
-3.077397	3.316496	10.539379	-3.680994	51.492688	-10.867957	0.933327	-0.013764	-1.021915	24.613432	6.80826	1.425541	47.087044	-21.460888	-35.924517	0.263108	-0.288985	-0.868422	10.29714	-0.163375	1.930044	0.516475	0.093426	5.937211	-0.423233	-0.357926	-0.50475
-3.508502	3.03541	11.893739	-4.012137	61.649386	-17.817456	0.930698	-0.003863	-0.958367	21.900357	8.449105	3.861031	100.431656	-76.64885	-15.005729	0.238488	-0.254207	-0.927277	9.899142	-0.507672	2.699648	1.798451	-1.957388	6.523079	-0.395004	-0.306461	-0.553704
-3.967278	2.518526	11.825806	-5.613341	73.627398	-23.353713	0.931813	0.006722	-1.000594	18.215893	9.864361	3.898125	65.859554	-116.988577	11.108443	0.224771	-0.287066	-0.896295	10.135747	-0.740516	2.70306	4.268851	-4.0358	10.191842	-0.423308	-0.338428	-0.567698
-3.88837	1.83377	12.904232	-4.140563	85.530242	-26.477047	0.918092	-0.023974	-0.979338	-1.329271	1.679561	6.70742	24.395608	-123.082632	13.172539	0.226027	-0.267458	-0.954697	9.491781	-1.086498	2.9291	6.577205	-6.689614	13.252723	-0.422402	-0.274485	-0.555519
-4.352138	2.062662	12.612024	-0.710702	100.588284	-28.021095	0.932599	-0.03812	-0.976271	-0.01505	3.484143	11.831889	-34.05026	-115.815228	41.221989	0.159816	-0.302762	-0.893912	10.204397	-0.622274	3.243817	7.809847	-9.916041	12.163283	-0.381793	-0.354008	-0.566651
-4.033492	1.954568	14.265849	-0.797269	115.355081	-27.075232	0.930327	-0.007392	-0.944291	-2.137242	-4.342096	11.44073	-36.855036	-97.170666	79.636485	0.148171	-0.267908	-0.953043	10.095418	-1.201033	3.658492	9.497251	-12.567165	8.838193	-0.395145	-0.304809	-0.58476
-5.174784	1.324264	14.411484	3.441637	134.639194	-24.56539	0.958568	-0.008141	-0.944989	4.719059	-3.223259	17.36036	45.695675	-96.807177	43.509889	0.172647	-0.273118	-0.881845	11.112614	-0.561031	4.518616	14.270683	-12.383489	7.505738	-0.423658	-0.352968	-0.597917
-4.742701	1.158404	16.010441	4.765765	157.926592	-21.552653	0.972302	0.005256	-0.948754	2.077044	3.41997	7.403252	180.972846	-139.902693	13.069792	0.15937	-0.334475	-0.877555	11.638972	0.075848	4.351519	22.935379	-7.660874	6.320928	-0.409471	-0.337398	-0.583156
-4.778592	0.875822	17.08833	6.251709	185.509056	-15.526116	1.015436	-0.02341	-0.94297	5.416732	6.737504	7.816004	105.723997	-130.729265	-6.259819	0.106656	-0.32267	-0.834407	12.032568	0.419156	3.342288	30.461274	-1.762594	9.383131	-0.423099	-0.322236	-0.568535
-4.699151	0.995488	18.226987	9.225239	217.363254	-12.133493	0.98528	0.028895	-0.941859	2.389182	-5.2528	10.459323	121.949731	-53.892119	22.755869	0.067948	-0.337144	-0.846926	12.245678	0.820204	2.150283	28.379449	2.427151	11.693648	-0.381305	-0.32245	-0.552797
-3.769718	0.99772	18.92704	10.594174	252.682321	-9.323945	1.070417	-0.021722	-0.905555	3.627989	2.236266	9.869191	31.059432	-1.246568	-2.289229	0.120367	-0.35002	-0.875724	13.411851	1.221069	1.455139	26.349765	9.864569	7.600326	-0.381372	-0.340295	-0.520904
-3.234593	1.288897	19.961624	15.170249	291.861482	-7.626216	1.042219	-0.072871	-0.852381	0.906568	1.677363	9.018943	65.553252	-14.01314	19.499911	0.068099	-0.306503	-0.848933	13.03478	1.158611	0.190245	24.736607	14.6313	4.588111	-0.381234	-0.323276	-0.537269
-2.30359	0.659514	20.715876	23.698769	330.991893	-5.971246	1.055197	-0.049232	-0.845486	3.089757	1.391425	8.838086	34.001967	-21.827473	4.25987	0.119186	-0.354308	-0.818325	10.955044	1.102047	-0.627308	16.292741	11.641409	9.798384	-0.423028	-0.323062	-0.553008
-1.284389	-0.550158	20.105467	42.102126	366.599897	-4.156608	1.096429	-0.043641	-0.821797	2.818747	1.448958	9.625043	13.298422	-11.38406	-5.795382	0.106205	-0.414593	-0.828385	10.306521	0.348296	-0.702533	8.218138	7.754416	16.112219	-0.395071	-0.324306	-0.521812
-1.626766	0.944053	20.218766	63.515872	396.333857	-5.850426	1.122799	-0.044733	-0.769608	3.053951	1.392386	9.85639	25.118607	-8.927324	2.562115	0.068313	-0.380961	-0.872614	9.67412	0.237338	0.183471	8.76561	4.662448	13.587973	-0.42289	-0.306043	-0.569373
-4.142077	2.370534	17.504824	109.67471	406.846671	-15.626598	1.136948	-0.079706	-0.734974	3.386046	1.391218	9.240608	17.697321	-7.495989	-0.974861	0.080629	-0.33814	-0.832852	9.103767	0.243139	1.25079	9.845803	2.611845	11.11801	-0.437704	-0.370191	-0.581622
-10.579971	4.253094	13.238914	133.195645	401.913977	-22.951791	1.177052	-0.067401	-0.686549	2.526646	1.787338	9.449365	13.006878	-7.242265	-1.993437	0.080699	-0.38303	-0.84419	8.755212	1.174896	1.667492	11.784465	2.315769	10.837312	-0.422611	-0.290677	-0.554682
-14.593224	4.082464	12.87598	128.675479	362.308389	-26.098662	1.21947	-0.137722	-0.61763	3.217862	1.560722	9.463682	3.68901	-6.382545	-1.499138	0.042141	-0.366863	-0.858717	8.988516	0.94131	1.491184	12.59462	4.755446	8.866556	-0.437283	-0.356477	-0.535876
-10.725636	1.763608	8.622324	151.250692	316.216769	-12.528973	1.188972	-0.123544	-0.567459	2.590556	0.998792	9.676468	-3.501995	-5.891623	-1.438386	0.079963	-0.355605	-0.803148	8.508258	0.650032	1.001889	11.00491	9.198162	10.562764	-0.423095	-0.340907	-0.521115
-9.644218	0.485072	5.341805	141.211331	252.37291	-9.889167	1.216455	-0.11405	-0.557497	2.941669	1.167374	9.967062	-2.817941	-5.373353	0.355345	0.067283	-0.354608	-0.817222	8.910772	0.472387	0.409781	8.383525	12.887988	10.768607	-0.408983	-0.305839	-0.569302
2.087193	-3.271399	2.201167	117.778587	163.716144	-1.051013	1.215712	-0.121107	-0.529345	2.768303	0.885998	9.906558	-0.958936	-4.892463	0.762388	0.054897	-0.352539	-0.845646	8.855037	0.008408	0.526517	6.374735	15.035363	12.446748	-0.381931	-0.371027	-0.550286
10.984786	-5.410921	0.546644	68.670541	33.375905	11.967474	1.213483	-0.142277	-0.44489	3.05315	0.547333	9.7424	2.597504	-4.57079	0.675963	0.09331	-0.339137	-0.818778	9.803157	0.23954	0.784741	4.652245	14.431193	14.075875	-0.4094	-0.338224	-0.567628
9.928782	-6.941955	5.009253	22.680576	-46.823602	31.556148	1.229104	-0.145838	-0.484051	2.877605	0.772884	9.625683	5.54464	-3.582111	0.564853	0.093455	-0.368706	-0.83112	9.865339	0.298223	0.965809	3.713355	11.814948	15.314421	-0.423241	-0.320583	-0.599591
3.708366	-2.681697	6.099654	3.73309	-43.433728	39.331105	1.258117	-0.174129	-0.477918	2.880046	1.392662	9.796124	6.231426	-3.07821	-0.13863	0.080403	-0.384102	-0.829841	9.930938	-0.165284	1.264466	2.237152	8.041964	15.826842	-0.409542	-0.336572	-0.598684
5.508905	-2.734875	7.441552	-16.287578	-54.292378	31.730934	1.244739	-0.166698	-0.50572	3.282573	1.61723	9.804776	8.97995	-3.048356	0.634581	0.067647	-0.398425	-0.842911	10.223548	-0.050301	1.150649	-0.04645	3.687177	16.130999	-0.408979	-0.324511	-0.521882
6.15569	-1.58264	8.368276	-0.186364	-67.630643	32.479765	1.230247	-0.169851	-0.491295	3.047907	1.392149	9.573192	10.959323	-2.753923	1.65643	0.10606	-0.385024	-0.816042	9.871382	0.067155	1.264354	0.163812	0.310877	14.37349	-0.423729	-0.352142	-0.613445
6.355799	-1.64652	6.894309	22.539119	-86.603941	28.487999	1.230247	-0.169851	-0.491295	2.997248	0.94185	9.854802	12.497255	-3.227388	2.022899	0.080403	-0.384102	-0.829841	9.75636	-0.280536	1.380484	-0.039597	-1.020906	12.943971	-0.395425	-0.320175	-0.599451
7.062206	-1.59782	4.97602	22.438631	-115.986995	19.179911	1.200491	-0.148617	-0.469277	2.812702	1.448721	9.341845	14.12856	-3.581443	3.068851	0.054162	-0.325114	-0.804604	9.281085	0.126581	1.253597	-0.410873	-0.864562	12.48608	-0.408845	-0.288821	-0.585667
7.00186	-1.943151	4.802899	5.177545	-148.749827	7.688555	1.232119	-0.169509	-0.544183	3.275859	1.335292	9.464701	11.380679	-3.522319	2.758945	0.093304	-0.399347	-0.829113	9.450836	-0.049782	0.836809	-0.750273	-0.213318	11.506095	-0.409191	-0.322032	-0.568465
5.48259	-1.763918	6.138033	-9.022709	-178.17042	-2.009955	1.21837	-0.165606	-0.55791	3.039769	1.222825	9.176573	8.322079	-3.676742	1.675961	0.080479	-0.368781	-0.830844	9.043495	-0.163753	1.128146	0.108729	0.201635	10.125554	-0.367121	-0.288208	-0.585457
4.339811	-1.877489	6.228987	-16.070652	-201.512555	-10.710749	1.218356	-0.148307	-0.575402	3.331977	0.828115	9.352204	3.509248	-3.360241	0.195484	0.079813	-0.386246	-0.801141	9.223034	0.18504	1.312651	1.457556	0.749233	7.91737	-0.381722	-0.354835	-0.551123
3.270575	-1.413068	7.176264	-20.004519	-217.685429	-18.445701	1.232462	-0.131382	-0.593243	3.058656	0.829223	10.025835	-0.782177	-3.342727	-1.441682	0.094045	-0.366563	-0.85982	9.284231	-0.279456	1.37168	3.263418	0.967368	5.189549	-0.409124	-0.304187	-0.600358
2.295929	-1.125397	7.101688	-23.899162	-227.268664	-26.779568	1.149982	-0.125264	-0.658111	3.105149	1.561033	9.574543	-2.726852	-3.358766	-2.769008	0.081144	-0.351317	-0.860547	9.572284	-0.572242	0.956598	4.884801	0.780238	3.136789	-0.436865	-0.324092	-0.53755
1.057488	-1.119902	8.1574	-28.222874	-233.02742	-33.45544	1.191587	-0.116145	-0.648499	3.623777	1.27841	9.585186	0.267286	-3.477494	-2.243705	0.093084	-0.385099	-0.815767	9.690222	0.415275	1.082816	5.125578	0.823378	2.004862	-0.366908	-0.290687	-0.538873
0.766679	-1.005776	7.924903	-34.117654	-236.448123	-38.064527	1.192687	-0.088261	-0.708218	2.818184	1.110927	9.568119	2.089214	-3.5159	-2.211793	0.067207	-0.369928	-0.816219	9.871091	-0.281548	1.202964	4.74819	0.867138	0.600113	-0.422682	-0.289851	-0.57021
-0.423499	-0.887369	8.527386	-41.858005	-238.664423	-38.415664	1.179324	-0.098129	-0.718529	2.866187	1.05411	9.116164	3.261619	-3.623668	-2.211921	0.041105	-0.400719	-0.81366	9.682498	-0.051311	0.601583	3.780032	0.390344	-0.95281	-0.4094	-0.338224	-0.567628
-1.611325	-0.940804	9.242852	-49.721165	-238.276355	-35.165887	1.165946	-0.090698	-0.746332	2.592111	1.449531	9.790127	1.167108	-3.24543	-3.165511	0.054307	-0.354683	-0.816947	9.569563	0.124423	0.899658	2.19806	0.123253	-2.290555	-0.367468	-0.321419	-0.568255
-2.232092	-1.110743	9.684704	-55.204316	-237.151037	-28.138216	1.138048	-0.051822	-0.794693	3.164355	1.33565	9.632202	2.027066	-3.719066	-4.094365	0.067352	-0.399497	-0.828561	9.109944	-0.046005	1.549089	0.213154	-0.669081	-3.257576	-0.395425	-0.320175	-0.599451
-3.185007	-0.071507	10.750327	-58.565571	-236.034981	-19.430157	1.137648	-0.020751	-0.815601	2.937157	0.998193	9.740361	0.019926	-3.739512	-4.866878	0.080699	-0.38303	-0.84419	9.749218	-0.049716	1.022032	-1.180728	-1.655449	-3.003324	-0.408774	-0.289647	-0.570139
-3.751901	-0.184769	11.022975	-60.927909	-237.007681	-10.605995	1.081523	0.001575	-0.845772	3.505774	0.88417	9.412518	0.172671	-4.090243	-7.21315	0.068388	-0.365641	-0.873618	9.520296	-0.279996	1.376082	-2.459094	-2.843826	-3.879322	-0.42289	-0.306043	-0.569373
-3.681616	0.277617	11.708256	-59.897004	-240.222932	-0.693753	1.098687	-0.05707	-0.87127	2.481038	1.224567	9.957438	-2.045874	-3.773092	-8.444886	0.055268	-0.336147	-0.861	9.807538	-0.224326	0.962483	-3.80595	-4.578285	-5.210884	-0.42345	-0.336776	-0.598754
-3.854659	0.507266	11.649028	-61.719127	-243.070572	8.189422	1.068546	-0.022065	-0.852667	3.341647	0.828495	9.805321	1.310955	-4.472985	-7.431833	0.04081	-0.401791	-0.79931	9.864624	-0.341108	0.843276	-5.279533	-6.275646	-7.214497	-0.36733	-0.304401	-0.58462
-4.241006	0.568134	12.380565	-66.954561	-241.826957	15.73778	0.999786	0.014749	-0.938792	2.876396	0.772837	9.569044	2.684087	-3.352983	-7.234626	0.080183	-0.369853	-0.816495	9.633947	0.1836	1.20054	-6.153305	-7.221312	-7.756918	-0.42289	-0.306043	-0.569373
-4.449939	0.515201	13.399225	-71.563326	-236.233555	19.797589	1.000529	0.021806	-0.966944	3.219718	1.222787	9.520037	2.117505	-4.331073	-8.817015	0.054081	-0.400644	-0.813936	9.506415	0.007417	0.658436	-7.303358	-8.356541	-7.808457	-0.395212	-0.322654	-0.552867
-4.553852	1.264436	13.968666	-71.244018	-227.486453	24.47693	0.985666	0.015124	-0.938443	2.992652	1.448682	9.68531	4.008148	-3.75981	-8.100779	0.080479	-0.368781	-0.830844	8.931525	0.070305	1.486375	-7.05957	-9.18846	-7.133027	-0.395421	-0.338846	-0.55203
-5.12289	1.035808	14.127125	-72.152869	-218.113858	27.728686	0.958182	0.00563	-0.948405	2.939922	1.44898	9.910659	6.209395	-2.889447	-5.62414	0.053635	-0.432357	-0.797579	8.748009	0.01115	1.123385	-6.999726	-8.843262	-7.960039	-0.422611	-0.290677	-0.554682
-5.175691	1.036815	14.353424	-77.287768	-207.053713	29.609471	0.944376	0.07873	-1.032099	3.101415	1.617221	9.404672	6.289295	-3.785221	-4.461527	0.067207	-0.369928	-0.816219	8.809496	-0.104642	1.243805	-5.912696	-8.264516	-7.355518	-0.409191	-0.322032	-0.568465
-4.829813	0.864724	14.473087	-84.299494	-191.374973	30.282816	0.901628	0.093625	-1.034467	2.985506	1.392067	9.345425	7.24945	-3.445208	-3.008464	0.054307	-0.354683	-0.816947	8.396363	-0.568553	1.174217	-4.516056	-7.842326	-6.292948	-0.408983	-0.305839	-0.569302
-5.728772	1.845753	15.369023	-87.378175	-173.886147	30.177033	0.915377	0.089722	-1.02074	2.633423	1.73046	9.055258	7.923965	-3.63507	-0.790195	0.066982	-0.41589	-0.813208	8.503276	-0.048364	0.639481	-2.962724	-6.865528	-5.569761	-0.409124	-0.304187	-0.600358
-5.61546	1.960312	15.31488	-89.880853	-155.969618	27.746199	0.874502	0.104959	-1.075996	2.753174	1.843095	9.284329	6.868608	-3.989342	-0.239662	0.080548	-0.413671	-0.842183	8.619533	0.241499	0.583011	-2.369526	-5.821843	-5.729698	-0.423166	-0.340081	-0.536643
-5.846705	1.959995	15.19672	-91.129178	-138.134137	24.727823	0.874873	0.108488	-1.090072	3.22423	1.391968	9.746738	5.75856	-3.677402	1.488922	0.054451	-0.384252	-0.829289	8.567389	0.126966	0.940857	-2.452069	-4.475021	-5.858072	-0.395425	-0.320175	-0.599451
-7.2805	2.247757	15.056383	-99.070983	-119.993756	19.096499	0.788621	0.14852	-1.084149	2.987277	1.730145	9.458988	3.62176	-4.074852	1.853189	0.054006	-0.415965	-0.812932	8.086706	-0.45494	0.39042	-1.943194	-2.608905	-5.716013	-0.409746	-0.371435	-0.550426
-8.121624	2.424563	15.950054	-108.305759	-107.019408	12.832827	0.817619	0.137528	-1.095507	2.990904	1.730287	9.628907	2.595758	-4.551194	2.371707	0.080328	-0.399422	-0.828837	8.620748	-0.281185	0.580786	-1.740219	-0.500109	-5.48232	-0.381931	-0.371027	-0.550286
-10.30154	2.137965	15.679122	-111.409471	-100.059088	7.894927	0.816862	0.147771	-1.084847	2.986823	1.335784	9.402017	3.031749	-4.097999	4.25709	0.054006	-0.415965	-0.812932	8.622793	-0.68747	0.638962	-2.34749	1.156442	-6.160378	-0.395417	-0.357518	-0.50461
-11.192523	1.959266	14.012956	-115.339979	-96.712682	1.336506	0.789364	0.155576	-1.1123	2.590687	1.562145	9.733582	1.880265	-4.614425	5.97742	0.054301	-0.414893	-0.827282	8.622928	-0.745546	0.638715	-4.284274	2.380613	-6.892677	-0.408979	-0.324511	-0.521882
-14.026734	1.667816	12.479009	-120.548732	-101.740635	-4.802508	0.802327	0.196515	-1.122897	3.165348	1.448359	9.688937	1.475187	-4.637434	8.720606	0.05312	-0.41918	-0.769883	8.56986	0.011308	1.060177	-7.642009	3.387452	-7.802154	-0.423584	-0.372466	-0.534969
-18.027521	1.832144	9.844513	-123.127601	-114.599322	-8.101569	0.760708	0.204695	-1.150001	3.342317	1.110195	9.862198	0.289257	-5.373142	11.086146	0.0414	-0.399647	-0.82801	8.741697	0.35837	0.825334	-9.682163	3.824787	-9.386013	-0.437495	-0.353999	-0.582459
-24.309044	2.804483	7.680533	-125.411091	-134.569961	-10.627637	0.759565	0.228709	-1.142757	3.397142	1.278983	9.750269	0.318522	-5.323898	12.998047	0.028494	-0.444612	-0.839073	8.453779	0.59308	1.240169	-10.697773	4.09707	-9.444755	-0.437562	-0.371844	-0.550567
-27.001768	4.344766	4.679467	-128.348933	-147.395946	-11.686292	0.675214	0.234485	-1.154738	2.980024	1.72986	9.119151	-2.587947	-5.344569	15.215189	0.066542	-0.387392	-0.786516	8.931836	0.883863	1.60965	-8.737925	4.629777	-7.040087	-0.4094	-0.338224	-0.567628
-27.922791	5.033762	4.437135	-144.207571	-132.482734	-12.53322	0.758408	0.270022	-1.153005	3.100122	2.293187	9.405241	-5.233091	-3.999455	20.097446	0.066247	-0.388464	-0.772166	8.939923	0.24651	1.966372	-6.642421	4.953223	-2.098215	-0.409746	-0.371435	-0.550426
-26.460459	5.326689	6.058065	-138.84939	-86.310139	-3.701793	0.687062	0.264838	-1.123107	3.112187	1.673978	9.914476	-5.964531	-2.868328	23.900128	0.067207	-0.369928	-0.816219	9.128611	-0.971513	2.443736	-3.258522	4.365737	8.559053	-0.409538	-0.355243	-0.551263
-23.755766	4.810662	6.790465	-106.885805	-24.04717	14.084759	0.700382	0.326605	-1.165271	3.068912	1.787316	10.593037	-7.769946	-3.505307	28.732606	0.041626	-0.353686	-0.831021	8.593449	-1.610371	2.131578	2.29256	3.020731	16.309109	-0.423237	-0.339255	-0.552171
-20.918955	4.58562	8.435947	-60.905986	33.222842	34.783704	0.643929	0.293504	-1.128891	3.357494	1.392464	10.598749	-10.295826	-7.685023	29.983868	0.04059	-0.387542	-0.785964	9.528613	-1.963212	1.60854	3.661612	1.822214	20.283627	-0.423237	-0.339255	-0.552171
-18.135385	4.061791	7.351274	-7.116742	70.169927	58.622452	0.671784	0.306526	-1.133005	3.50561	1.84422	12.187455	-11.814253	-15.540538	27.869763	0.040219	-0.403935	-0.770611	9.121387	-2.600114	1.837745	5.282531	1.453035	24.008849	-0.395071	-0.324306	-0.521812
-15.392149	3.873925	4.221338	22.555806	81.730693	72.795974	0.700397	0.309305	-1.147779	4.036486	2.35313	15.53929	-21.766118	-28.715378	20.824932	0.028129	-0.400794	-0.813384	8.924551	-2.139304	0.818004	4.940786	1.770552	28.685677	-0.42282	-0.30687	-0.553845
-12.402986	3.402305	1.947446	22.716184	72.125446	74.478691	0.728252	0.322327	-1.151893	3.22067	-0.295848	12.122969	-23.161508	-58.554778	17.7217	0.041255	-0.370078	-0.815667	8.797695	-2.605867	0.274664	0.313237	2.631469	32.580767	-0.436936	-0.323266	-0.553078
-14.539094	5.600352	18.623303	176.403251	100.586428	95.894026	0.699625	0.336847	-1.154611	2.925444	1.676117	11.948666	-28.57587	-66.906348	13.164117	0.015448	-0.399797	-0.827458	8.620626	-3.070318	0.209477	-2.051446	3.629564	32.859707	-0.409124	-0.304187	-0.600358
-8.105793	7.356291	14.038915	215.540574	40.214705	65.128096	0.727137	0.311742	-1.109666	3.498249	1.900266	11.847665	-27.209997	-78.573353	12.710133	-0.010058	-0.368235	-0.843264	8.849568	-2.375182	-0.082688	-6.163056	6.122798	32.893271	-0.409053	-0.305013	-0.58483
-9.332088	7.589439	1.115541	287.304915	79.312769	50.258638	0.729795	0.267243	-1.13823	3.08927	2.520467	11.613166	-29.382097	-88.860156	14.702514	0.001812	-0.357127	-0.787144	8.847887	-3.072836	-0.265376	-15.172483	8.528113	33.831559	-0.437495	-0.353999	-0.582459
3.277462	5.744846	1.97817	166.816158	84.150774	13.307423	0.7718	0.245292	-1.10771	3.156591	1.844724	12.010283	-33.760231	-100.184766	16.189556	0.026954	-0.344872	-0.74565	9.614598	-1.912576	-0.126312	-18.882484	9.962665	29.894536	-0.394933	-0.307288	-0.538177
2.500815	4.811505	11.961283	139.24692	50.897207	-13.712194	0.787078	0.203604	-1.097812	3.227261	2.577483	12.691784	-38.982807	-112.261012	18.254215	-0.063733	-0.374966	-0.756063	11.031492	0.234233	0.208781	-18.985061	12.027482	19.491622	-0.42317	-0.32141	-0.584063
-0.066501	-7.56907	17.712694	88.950039	51.851124	-1.897444	0.745859	0.180714	-1.104008	3.476842	1.958127	13.545692	-44.912312	-128.717387	22.309541	-0.050537	-0.38914	-0.769684	13.419149	1.397027	1.875229	-22.375271	12.875806	7.273394	-0.423517	-0.354621	-0.566861
-6.028551	3.311855	8.890705	199.08374	122.686024	-9.343708	0.817591	0.172127	-1.130491	3.177624	2.467598	15.74781	-51.681229	-150.606013	24.522149	-0.050311	-0.343178	-0.772695	15.283074	2.214065	3.889732	-32.255558	10.881194	7.440961	-0.422402	-0.274485	-0.555519
-5.687226	7.90717	8.973543	116.344613	113.141423	-11.560747	0.78975	0.141805	-1.108885	3.141579	1.961537	16.709047	-56.885498	-180.757163	25.513279	-0.088134	-0.354436	-0.828263	15.604214	0.476053	5.085955	-37.025164	5.97232	16.10121	-0.40905	-0.323684	-0.53741
-4.743404	0.948561	7.200828	80.404139	94.642231	-31.357362	0.803113	0.151674	-1.098574	2.682026	1.455425	16.698949	-67.197828	-216.909766	22.679541	-0.128242	-0.358949	-0.770037	13.89201	-0.624217	4.869624	-19.564805	1.098709	8.297494	-0.409538	-0.355243	-0.551263
-3.76576	0.501634	10.343634	54.721993	67.135184	-43.96995	0.803127	0.134374	-1.081082	3.460251	1.004518	18.073636	-56.042226	-250.588897	24.943759	-0.10214	-0.328158	-0.772596	11.386921	-0.62448	3.38564	-13.2575	2.10543	-1.113229	-0.408494	-0.274281	-0.555449
-8.397926	0.678522	10.53843	90.851103	47.197919	-32.465629	0.817605	0.154827	-1.112999	3.466619	0.835763	18.356692	-53.079025	-284.597107	27.691474	-0.167755	-0.301108	-0.730175	10.82844	0.24219	2.001586	-13.904233	8.694253	6.345731	-0.436172	-0.25767	-0.571954
-6.215774	5.306951	5.258326	45.887964	39.99556	4.290059	0.832497	0.126911	-1.106516	2.770136	1.287511	18.116006	-46.520252	-320.44796	26.878443	-0.181321	-0.303327	-0.7012	10.502817	0.11979	0.318196	-16.945319	11.366698	10.134038	-0.408636	-0.272628	-0.586504
-3.155637	1.531025	9.393723	15.933161	25.999693	6.694165	0.847404	0.081695	-1.082542	2.749693	1.230374	17.153085	-44.40702	-351.026722	27.624887	-0.220469	-0.289303	-0.687027	10.785428	1.220335	-0.210766	-18.578903	12.005308	-1.905262	-0.451332	-0.355029	-0.567002
-4.133866	0.611458	9.086667	30.279343	23.261992	4.645689	0.817605	0.154827	-1.112999	3.476523	1.735142	16.206355	-41.026678	-374.108256	30.173266	-0.2869	-0.310358	-0.612896	10.510311	1.632239	0.923693	-19.755979	10.828298	-6.815834	-0.408286	-0.258088	-0.556286
-3.220934	1.874027	8.996086	22.64585	16.595695	6.675334	0.847032	0.078166	-1.068466	4.230041	4.719685	16.73434	-43.786012	-384.105029	35.590452	-0.299135	-0.277649	-0.643327	11.120105	0.763704	1.889499	-19.481262	6.021805	-0.406436	-0.436731	-0.288403	-0.601336
-3.410229	3.019363	8.144775	10.573426	15.564097	8.686643	0.859238	0.129348	-1.068403	6.916559	6.460249	16.056314	-16.606071	-387.43415	57.130125	-0.34072	-0.287521	-0.513352	11.31555	-0.046057	2.787943	-17.844911	1.517801	0.892776	-0.422611	-0.290677	-0.554682
-3.381355	1.589356	9.56007	3.718609	12.962679	7.621437	0.846275	0.088409	-1.057806	9.629663	5.04711	16.338506	-13.548988	-365.940367	79.976781	-0.380314	-0.30521	-0.482822	11.328641	0.479842	3.568958	-13.382832	-2.675991	-0.203637	-0.436243	-0.256844	-0.587482
-3.326204	1.416507	9.446753	7.725085	11.190022	8.378423	0.875259	0.094717	-1.086656	8.279393	4.487577	17.725008	21.769591	-356.821342	88.72902	-0.40641	-0.275791	-0.469928	11.38368	0.769345	3.391574	-8.687842	-5.566213	-0.084596	-0.422406	-0.255813	-0.602939
-3.337794	2.045952	8.880877	3.874011	8.664043	7.305795	0.846232	0.140307	-1.110281	7.693529	4.769928	17.260039	27.452714	-346.640542	93.521357	-0.421528	-0.29869	-0.3682	11.256959	0.244706	2.847986	-4.50146	-6.904268	0.609575	-0.43659	-0.290055	-0.57028
-3.276909	1.644543	9.05086	0.376999	8.093533	7.398589	0.875616	0.115544	-1.118224	2.640171	1.848126	14.773535	15.342775	-329.287411	99.079803	-0.434498	-0.238555	-0.357589	10.42224	1.058177	2.476599	-2.018901	-6.649648	-2.456896	-0.422473	-0.273658	-0.571047
-3.788734	1.473315	9.210674	0.190399	7.286717	7.999344	0.860395	0.088035	-1.058155	-3.440875	-2.20283	7.169175	43.940983	-250.879193	80.702746	-0.500559	-0.243218	-0.298812	10.42249	0.47717	2.41422	1.63304	-6.107008	-6.35406	-0.423103	-0.303565	-0.615956
-2.986183	1.645301	9.28384	-1.106925	5.682344	8.007671	0.86191	0.067549	-1.079476	-11.286211	-6.864601	5.811396	72.342944	-121.21156	45.539457	-0.462818	-0.30749	-0.252575	10.058624	0.417679	1.868208	4.56025	-5.130265	-8.111305	-0.380954	-0.30791	-0.522578
-3.502835	1.990082	9.218413	-2.003512	4.824325	7.413643	0.846618	0.126536	-1.106866	-7.309002	-3.658387	9.124762	72.066615	-18.188474	-23.541377	-0.463553	-0.280065	-0.211533	10.237469	0.591996	1.992065	7.155072	-4.32281	-8.399603	-0.394657	-0.27325	-0.570906
-3.848216	1.472874	9.095854	-3.444435	4.098959	8.448662	0.87413	0.101431	-1.06192	-2.598502	-2.93526	8.828032	28.99912	3.567885	-62.877926	-0.463188	-0.323882	-0.237222	10.249128	-0.160767	2.528013	9.21924	-4.063737	-9.08065	-0.394516	-0.274903	-0.539851
-3.680249	2.103883	8.93129	-3.195646	4.089674	9.367784	0.861896	0.084848	-1.096967	-6.970971	-3.602988	8.792225	25.853854	48.594044	-105.245765	-0.488839	-0.262751	-0.240685	10.232777	0.242304	1.691047	11.053772	-4.617464	-11.101638	-0.408219	-0.240243	-0.588179
-3.33202	1.75995	9.163936	-4.757217	4.109284	9.709925	0.874487	0.122259	-1.093488	-6.387	-1.632023	9.37237	20.105197	77.612151	-129.371927	-0.43686	-0.24713	-0.242791	10.185015	-0.336096	2.226636	12.923629	-5.179589	-12.297567	-0.422469	-0.29233	-0.523626
-3.676494	1.530191	9.099436	-4.233815	4.730862	9.31986	0.888622	0.104585	-1.076345	-5.498719	-2.590358	10.46585	35.91653	92.991808	-144.893438	-0.450507	-0.324879	-0.223148	9.652789	0.129727	2.21871	14.39498	-6.151204	-12.481618	-0.408916	-0.287994	-0.601195
-3.219448	1.357294	9.050767	-4.326502	4.920383	8.832547	0.861153	0.077792	-1.068815	-5.955789	-0.845349	8.079994	51.845764	105.726055	-158.838123	-0.43679	-0.29202	-0.25413	9.354947	-0.102644	2.032498	14.878881	-7.156005	-12.753613	-0.408561	-0.292126	-0.523556
-3.850691	1.817041	8.983596	-2.824766	5.397055	8.069312	0.916135	0.07948	-1.0314	-5.452122	-1.522902	7.353991	51.548592	126.524443	-153.700518	-0.436576	-0.366478	-0.277812	8.761329	-0.508815	1.780136	15.211703	-7.577345	-13.302882	-0.436869	-0.305421	-0.584971
-3.265816	1.704397	9.619632	-1.353161	5.402532	8.187831	0.845875	0.119479	-1.078714	-5.643752	-2.368342	6.386779	52.644752	147.469858	-150.008738	-0.397944	-0.367325	-0.264289	8.47121	-0.274599	2.075157	14.842059	-7.765671	-12.964488	-0.423237	-0.339255	-0.552171
-3.964045	1.759924	9.037981	-0.958849	5.009406	7.781643	0.873759	0.097903	-1.047844	-4.888534	-0.904771	6.856845	46.321027	175.801595	-138.328808	-0.410479	-0.395897	-0.290706	8.65154	-0.739118	2.196294	14.045316	-7.032864	-13.117899	-0.395142	-0.32348	-0.537339
-3.392863	2.103917	8.993711	0.542721	4.891754	7.928741	0.902343	0.135281	-1.097602	-5.173104	-1.974464	6.906539	43.187286	202.823494	-122.251707	-0.410259	-0.410145	-0.304052	8.177075	-0.680456	2.067924	12.261777	-6.272383	-13.328987	-0.464126	-0.275097	-0.55573
-3.446404	1.587708	9.160985	1.059196	4.719533	7.065792	0.874859	0.125787	-1.107564	-3.617929	-1.188652	7.053123	34.453608	228.980397	-107.17345	-0.422795	-0.438718	-0.330468	8.05217	-0.565517	1.706776	11.632148	-5.222084	-11.589809	-0.42219	-0.276963	-0.508935
-2.871509	1.415452	9.285102	1.299096	4.391673	6.262439	0.859638	0.098277	-1.047495	-2.637785	-1.359428	7.130171	22.959947	252.282543	-87.532782	-0.331449	-0.451369	-0.360094	8.051474	-0.739993	1.646128	9.946587	-4.068023	-11.375292	-0.409262	-0.321205	-0.583993
-3.504689	1.472626	9.102535	1.788132	4.836021	5.225579	0.903114	0.107738	-1.090771	-2.270849	-1.24656	8.157033	16.014726	266.890925	-64.24452	-0.317737	-0.478719	-0.401412	7.925759	-0.276598	1.286463	8.658397	-3.247413	-11.313423	-0.422887	-0.324715	-0.521952
-3.27027	1.703432	9.39222	2.093422	5.091298	4.523507	0.87413	0.101431	-1.06192	-0.645743	-1.86874	8.756756	7.6141	271.416615	-42.197292	-0.304316	-0.446931	-0.418045	8.052865	-0.391042	1.767425	7.770695	-2.30048	-11.498088	-0.451053	-0.339663	-0.552311
-3.453168	1.701144	8.820349	2.551426	5.380108	3.637535	0.888651	0.069986	-1.041362	-0.283403	-1.249039	9.614126	3.734878	269.515995	-21.103434	-0.278439	-0.462102	-0.417592	7.69091	-0.798742	1.279837	6.299547	-1.670682	-10.792883	-0.408215	-0.258914	-0.540758
-3.396079	1.930869	8.822427	3.134755	5.505056	3.699221	0.887908	0.062929	-1.01321	1.220635	-1.927571	9.928186	0.902464	264.848429	-0.867758	-0.23774	-0.455445	-0.504518	8.097981	-0.568619	0.988994	5.350111	-0.754867	-10.946616	-0.451612	-0.370395	-0.581692
-3.21516	1.588025	9.279145	4.39276	5.663188	3.820838	0.9035	0.093967	-1.087355	1.629422	-1.815427	10.219941	-3.267907	261.675796	17.532795	-0.250345	-0.439128	-0.519596	7.636025	-0.681466	1.518858	3.71788	0.446429	-12.321639	-0.451332	-0.355029	-0.567002
-3.446446	1.64515	9.161226	5.164209	5.7454	5.015972	0.916849	0.121135	-1.094536	2.671189	-2.211491	10.467928	-7.257752	262.632059	32.183181	-0.198442	-0.438828	-0.520699	8.107885	-0.566394	1.528156	2.309946	1.290902	-11.648252	-0.422469	-0.29233	-0.523626
-3.096238	1.646349	9.509025	5.959472	5.75364	4.615145	0.888622	0.104585	-1.076345	2.400178	-2.153958	11.254886	-18.61018	269.816941	44.42364	-0.222842	-0.418298	-0.592899	8.528431	-0.449457	1.955702	2.627779	2.112261	-11.10324	-0.450844	-0.32347	-0.553148
-3.557697	1.76084	9.330041	6.232609	5.449702	4.425416	0.874516	0.08766	-1.058505	3.518421	-2.324049	12.410505	-25.828351	278.50037	50.763026	-0.145652	-0.435312	-0.564851	8.465573	-0.217759	1.77587	1.737893	2.2251	-10.489352	-0.436728	-0.307074	-0.553915
-3.494917	1.819446	9.615661	7.190072	6.058679	5.321901	0.901214	0.141995	-1.072866	4.470228	-2.60624	13.8456	-30.002105	285.890017	54.810524	-0.105323	-0.445048	-0.636423	8.412714	-0.971624	2.011183	2.08683	2.952913	-9.760639	-0.464197	-0.274271	-0.571257
-3.616148	1.875523	9.272557	8.019781	6.337731	5.446716	0.873359	0.128973	-1.068752	4.939105	-2.55044	14.251796	-29.935127	286.232155	54.104863	-0.104658	-0.427584	-0.666126	8.294722	-0.041643	2.132751	3.35563	3.352292	-9.492095	-0.451332	-0.355029	-0.567002
-3.966189	1.644558	8.923792	6.989934	7.581018	6.512559	0.874516	0.08766	-1.058505	5.413057	-1.987428	14.941617	-33.231083	282.06339	53.289898	-0.103402	-0.407976	-0.724529	8.34424	-0.218231	1.593948	4.659382	3.52662	-8.152976	-0.42345	-0.336776	-0.598754
-3.442774	1.186341	9.329855	6.843861	8.279464	7.198997	0.959997	0.07517	-1.07126	5.688088	-0.354761	14.49592	-37.030025	274.653204	50.962341	-0.077299	-0.377185	-0.727087	8.762409	-0.973423	1.778158	6.638575	3.398432	-6.906529	-0.395075	-0.305635	-0.569232
-3.676453	1.47275	9.099195	8.196737	8.805055	7.479644	0.91612	0.096779	-1.048892	5.509825	0.659369	14.323228	-67.165192	263.902254	49.659425	-0.025176	-0.391133	-0.741536	8.413565	-0.390369	2.133469	8.959704	3.576735	-5.601648	-0.436794	-0.324919	-0.522022
-3.44092	1.703798	9.445733	4.651411	10.669634	6.937487	0.888651	0.069986	-1.041362	7.367723	-0.411454	17.701539	-66.633422	251.676063	42.971088	0.013237	-0.377732	-0.714668	8.650304	-0.681289	2.136635	11.26388	3.011091	-6.310205	-0.437287	-0.337806	-0.583296
-3.67897	1.874358	8.987178	10.411254	9.699943	8.070476	0.889394	0.077043	-1.069514	8.288947	1.389541	17.892318	-66.044318	238.597121	30.848296	0.053126	-0.35897	-0.759548	8.477793	-0.737971	2.372714	11.988326	2.98464	-3.501028	-0.450635	-0.307278	-0.553985
-3.611404	1.474397	9.49828	9.079312	10.991771	10.149944	0.902371	0.100682	-1.062619	9.647015	1.275729	19.505937	-61.48712	223.871218	15.876317	0.080264	-0.294323	-0.807163	8.541076	-0.679041	2.613689	13.716016	2.833802	-3.109258	-0.450773	-0.324297	-0.53762
-4.316853	2.275216	8.578647	10.108176	11.884684	13.136076	0.945519	0.054717	-1.039343	11.45274	0.93521	20.506002	-52.201135	201.950279	0.251237	0.118596	-0.356451	-0.789626	8.476962	-0.85437	2.312312	14.949968	2.930322	-3.144749	-0.437633	-0.371017	-0.566094
-3.559059	2.105248	9.274636	10.60286	12.375183	13.449278	0.889794	0.045972	-1.048606	15.230185	-8.68944	37.561099	-50.5414	175.151217	-20.021241	0.156864	-0.313481	-0.750415	8.532812	-0.913323	2.133445	15.903171	3.004311	1.863732	-0.450844	-0.32347	-0.553148
-3.445539	1.932599	9.219286	10.600044	12.164242	13.077872	0.931012	0.068862	-1.04241	15.76485	-18.515667	10.502087	257.808892	36.504318	-13.5999	0.158045	-0.309193	-0.807814	8.355764	-0.912918	2.130143	14.784493	2.957967	5.963558	-0.423308	-0.338428	-0.567698
-3.507372	2.104	8.991484	13.264202	11.744379	13.247373	0.917664	0.041695	-1.035229	21.952908	-6.137166	7.699032	-14.44073	108.841218	-69.910929	0.183186	-0.296938	-0.76632	8.822526	-0.973311	1.839165	15.128168	2.88855	6.879578	-0.408494	-0.274281	-0.555449
-3.727233	1.761447	9.440407	12.127943	11.808542	12.546379	0.918792	0.03498	-1.059965	20.619286	2.197746	2.5831	-36.699602	98.509839	-89.0187	0.195792	-0.313256	-0.751242	8.757447	-1.206963	1.477635	13.613762	2.610329	6.641874	-0.465032	-0.339041	-0.567909
-3.795871	2.103725	8.87221	13.135522	11.917971	11.441291	0.889051	0.038916	-1.020454	26.482938	1.177144	7.630782	-154.503922	119.168714	-93.500459	0.221744	-0.313105	-0.751794	9.111564	-0.742918	1.546122	9.66319	2.354883	6.321192	-0.4094	-0.338224	-0.567628
-3.850609	1.702158	8.983114	11.474484	11.615107	10.367842	0.905058	0.021584	-1.0562	27.874412	2.073936	5.509459	-188.685336	118.706335	-103.149011	0.209873	-0.324213	-0.807913	9.164538	-0.511985	1.248677	4.111879	2.523506	5.851463	-0.409467	-0.356069	-0.535735
-3.682103	1.586427	8.815412	7.654434	11.561145	5.440659	0.932927	0.017306	-1.042822	29.19777	2.40944	5.537548	-145.178312	135.166806	-123.138106	0.222629	-0.30989	-0.794843	9.336489	-0.687854	0.951702	0.802631	3.431219	2.711032	-0.409262	-0.321205	-0.583993
-3.871449	2.169693	10.860083	2.25425	12.712271	2.009513	0.888665	0.052687	-1.02387	29.841441	6.180727	3.686126	-87.818751	129.271689	-136.557377	0.237087	-0.244246	-0.856532	10.03617	-0.342749	0.547042	-2.965042	4.14333	0.581849	-0.45112	-0.357508	-0.520418
-4.112633	2.052322	10.229762	11.035216	17.370555	-1.344186	0.93177	0.05862	-1.05307	33.879392	13.898469	12.949235	-52.469585	53.294407	-146.499631	0.262153	-0.247311	-0.814034	9.498827	-0.517245	0.176955	-7.470858	4.011084	-0.01246	-0.409117	-0.341529	-0.505517
-3.612906	2.922781	12.402707	4.224841	23.967566	-5.878981	0.932913	0.034606	-1.060314	28.529056	8.324382	4.396438	37.123288	-11.605326	-123.095018	0.288771	-0.229697	-0.844289	10.327679	-0.228014	0.373318	-10.962556	3.578487	-0.792382	-0.409329	-0.33905	-0.5521
-2.20915	3.502716	13.966877	12.438041	46.971644	-3.964585	0.932141	0.062148	-1.067146	25.747268	9.23018	3.546214	120.097265	-81.511174	-91.976914	0.262373	-0.26156	-0.82738	10.213894	-0.633534	0.549108	-10.893111	2.256503	-3.078504	-0.436728	-0.307074	-0.553915
-3.014658	3.432544	10.825241	7.181272	69.519609	-5.453701	0.917278	0.055466	-1.038645	19.355806	10.763115	3.469945	128.574698	-148.743978	-46.279029	0.300635	-0.278799	-0.798504	10.11841	-0.860623	1.744056	-10.104533	0.328137	-2.674849	-0.408983	-0.305839	-0.569302
-3.336495	4.241799	11.959	-9.018559	80.045356	-18.976176	0.974532	0.026425	-1.03321	1.419858	3.699523	3.596547	147.816606	-171.090709	20.008925	0.236346	-0.27703	-0.825825	9.946459	-0.684754	2.04103	-8.631474	-2.137325	-0.37623	-0.423028	-0.323062	-0.553008
-3.496626	3.555038	12.521295	-8.433508	94.881855	-26.496663	0.98638	0.056779	-1.001579	1.880339	7.36515	9.327482	19.44547	-158.739848	54.989975	0.236566	-0.291279	-0.839171	10.088836	-0.737661	3.360936	-5.613806	-4.261362	1.976334	-0.450982	-0.340489	-0.536783
-3.581729	2.929536	13.994594	-11.364377	109.206194	-31.009638	0.958125	0.074828	-1.018372	0.974987	-1.129593	20.057667	-45.917446	-100.488973	105.095752	0.209798	-0.339534	-0.806909	10.531546	-0.209	5.048257	-3.963858	-5.965494	1.703421	-0.409329	-0.33905	-0.5521
-4.577086	1.961255	15.732894	-8.664806	129.317691	-31.610548	0.972288	0.022555	-0.966246	4.050346	-2.60615	13.044183	34.221345	-90.734272	96.716099	0.209578	-0.325285	-0.793563	10.939042	0.31175	4.818558	0.072421	-6.628639	2.150418	-0.436798	-0.306248	-0.569443
-5.120223	1.336085	17.197285	-4.916174	152.951947	-28.353644	1.029899	0.014342	-0.992379	2.599199	6.348566	7.869715	112.297009	-108.137654	57.078278	0.195942	-0.282615	-0.753249	11.360938	-0.152072	5.243631	5.348316	-5.839927	1.638533	-0.423446	-0.355447	-0.551333
-4.741065	1.343556	19.023265	-0.405547	184.773187	-23.769565	1.013492	0.062744	-0.977541	3.669913	7.641314	6.930902	62.7719	-130.250809	24.908976	0.15709	-0.267519	-0.753426	11.230821	0.310334	4.644339	12.686026	-3.417951	3.617592	-0.450565	-0.308104	-0.538457
-5.109099	0.718986	20.661556	2.187032	222.022037	-16.914069	1.028413	0.000229	-0.936075	4.209667	5.162465	7.73265	34.056242	-149.656311	-5.858158	0.169909	-0.358295	-0.762029	10.905874	-0.102446	2.959713	18.125292	-1.89714	9.275623	-0.409329	-0.33905	-0.5521
-3.839522	0.777687	21.197972	13.142402	261.503704	-14.493688	1.028027	0.014	-0.939491	1.594681	-9.07924	13.326584	47.027057	-73.910602	25.579533	0.117936	-0.313706	-0.749588	11.726732	-0.163648	2.675338	21.971816	-1.085307	17.877484	-0.46552	-0.370599	-0.581763
-2.524524	0.259277	21.107704	17.61249	302.977461	-12.267515	1.026913	0.003415	-0.897263	6.750584	-4.245132	12.70315	73.887777	-20.151873	8.377989	0.10511	-0.28314	-0.751319	11.837487	0.124978	2.319333	25.236831	-0.569939	16.48768	-0.409467	-0.356069	-0.535735
-1.838501	0.143656	21.06373	29.824489	343.417452	-11.061811	1.10975	0.018125	-0.863962	2.219524	3.026484	8.651409	96.663324	-12.479209	23.548028	0.10503	-0.35867	-0.760651	11.170007	-0.051967	1.28807	26.196612	1.751443	8.250897	-0.422611	-0.290677	-0.554682
0.045002	-0.950549	20.754772	40.085042	379.181035	-7.503621	1.095272	-0.002328	-0.832045	2.991073	0.37826	9.51449	74.605377	-14.71518	8.401793	0.091614	-0.330248	-0.733683	10.210228	0.469663	0.493898	18.870336	3.563916	7.932566	-0.450702	-0.325123	-0.522092
0.081177	0.481106	19.738563	55.218788	410.638045	-4.18291	1.137662	-0.038051	-0.798109	3.21961	1.279117	9.520084	57.823156	-11.629769	1.020152	0.116825	-0.362883	-0.703528	10.207622	0.643397	0.374826	12.369826	4.712947	12.902224	-0.395212	-0.322654	-0.552867
-1.015079	2.89299	19.386423	95.074129	429.743718	-11.285951	1.177795	-0.060344	-0.714701	3.195241	2.010513	8.444548	58.206946	-7.501284	8.182867	0.065291	-0.346791	-0.717778	9.546204	0.700239	-0.296007	11.205793	5.874007	12.625804	-0.437007	-0.32244	-0.568606
-7.248866	5.344492	13.876612	135.396908	436.936983	-25.76186	1.231633	-0.034643	-0.670041	3.260729	2.29239	8.842472	35.547491	-7.437248	1.25971	0.104954	-0.373991	-0.759647	10.140362	0.874105	-0.044634	9.351689	7.55172	9.476258	-0.436728	-0.307074	-0.553915
-12.993938	4.769878	12.739494	128.82295	405.030985	-26.293088	1.189672	-0.064589	-0.648086	2.87411	1.336094	9.512878	23.056419	-6.34862	-1.914809	0.12987	-0.407697	-0.715142	9.781438	0.583299	-0.352007	7.356428	10.321984	7.116765	-0.423308	-0.338428	-0.567698
-10.569726	3.036406	10.790277	149.828619	359.806729	-16.078634	1.202706	-0.110148	-0.571224	2.810847	1.786657	9.28549	12.907824	-5.369377	-2.560625	0.103849	-0.362958	-0.703252	10.317796	0.234617	-0.103959	2.155153	12.396393	5.87256	-0.395421	-0.338846	-0.55203
-9.928611	1.876946	8.410983	151.190487	301.317516	-11.636465	1.185956	-0.099872	-0.507327	3.053066	1.223347	9.799608	2.477874	-4.895664	-6.171162	0.103623	-0.408919	-0.700241	10.264417	0.177912	0.194228	-3.939687	13.162571	6.593959	-0.423934	-0.387006	-0.565187
1.795561	-3.559606	1.910127	158.890389	213.673557	0.685788	1.242453	-0.11867	-0.491232	2.830273	1.111402	10.134515	1.311509	-4.269597	-5.70346	0.117635	-0.374987	-0.745573	10.391117	0.237696	0.675931	-7.704536	13.093217	6.088331	-0.451124	-0.338837	-0.567839
12.447056	-3.764089	-3.623423	119.720056	36.18399	4.751492	1.226818	-0.09781	-0.469562	3.16226	1.166564	9.518781	1.011847	-3.537943	-5.63477	0.090728	-0.333464	-0.690634	10.806566	0.179169	0.803201	-10.374647	11.349095	5.219962	-0.43659	-0.290055	-0.57028
13.287378	-9.361529	3.984605	28.34719	-70.588299	14.902015	1.269579	-0.130004	-0.449702	3.33103	1.954773	9.409792	-0.064146	-3.151803	-5.816763	0.103999	-0.332317	-0.705259	10.756509	0.588061	1.342993	-13.531044	9.124174	6.311763	-0.40912	-0.322858	-0.552937
5.062466	-4.915151	7.935152	-5.097923	-94.234353	41.99596	1.213855	-0.138749	-0.458966	3.211364	1.166124	9.123512	-3.328655	-2.366592	-5.626616	0.091753	-0.420027	-0.75636	10.944812	0.009121	1.882984	-15.845499	6.822181	9.234786	-0.42289	-0.306043	-0.569373
4.957931	-3.304292	8.508213	-35.187283	-83.785901	35.629519	1.284857	-0.171692	-0.439804	3.210825	1.447777	9.123749	-3.601134	-1.968854	-6.02364	0.116379	-0.394595	-0.687171	10.657839	-0.162701	2.296088	-14.808499	3.990825	11.261858	-0.436519	-0.290881	-0.554752
7.410119	-1.227522	11.065203	-9.606265	-95.942944	36.278286	1.22909	-0.128538	-0.501543	2.815982	0.998172	9.454745	-5.238629	-1.961379	-5.654951	0.090722	-0.393674	-0.700969	10.658109	-0.278853	2.295594	-12.85723	2.176706	9.888003	-0.4377	-0.388862	-0.534202
7.594929	-1.69687	8.793602	32.430637	-104.309409	32.035396	1.242839	-0.132441	-0.487816	2.418422	1.337146	9.729765	-6.232218	-2.429272	-6.36944	0.090132	-0.395817	-0.672269	9.765184	0.186297	1.921624	-11.664086	1.515621	9.153272	-0.436034	-0.240651	-0.588319
7.877545	-2.16992	5.671433	41.119968	-128.28084	20.796973	1.214583	-0.114393	-0.504609	3.220927	1.222834	9.576677	-6.111215	-2.698862	-7.111888	0.090722	-0.393674	-0.700969	9.69997	0.01072	1.56034	-9.849669	1.593115	8.198815	-0.436936	-0.323266	-0.553078
7.057758	-3.149948	4.685239	19.413874	-160.397994	7.366394	1.215355	-0.141935	-0.497778	3.457879	0.884657	9.864426	-5.776442	-3.150507	-7.732662	0.103849	-0.362958	-0.703252	9.467072	0.070078	1.735906	-8.407981	1.767667	6.603396	-0.409329	-0.33905	-0.5521
5.812014	-2.284276	5.403452	-6.103368	-195.584136	-3.190544	1.245439	-0.107743	-0.586348	3.221142	1.110173	9.576582	-6.889096	-3.367401	-9.55454	0.064846	-0.378503	-0.701421	9.401028	-0.221898	1.314222	-7.216828	2.25921	3.845962	-0.436448	-0.291708	-0.539224
4.112073	-2.106848	6.280421	-18.830893	-230.09076	-11.902972	1.216069	-0.100279	-0.560913	3.562693	1.222045	9.414011	-6.771752	-3.82783	-9.250749	0.090873	-0.363033	-0.702976	9.154789	-0.10743	0.771152	-7.258645	2.466281	1.55286	-0.450777	-0.305625	-0.585041
3.155243	-1.815317	7.115495	-21.890778	-258.542033	-19.257079	1.218684	-0.092881	-0.641953	3.055484	1.223442	9.912887	-5.782021	-3.69504	-8.878701	0.103554	-0.36403	-0.688902	9.098109	-0.164877	0.889618	-6.225855	2.530588	-1.354663	-0.42289	-0.306043	-0.569373
2.138558	-1.007254	7.83792	-23.011012	-276.316711	-26.014272	1.219056	-0.089352	-0.656029	2.93146	1.448648	9.514182	-5.497807	-3.172613	-8.503347	0.091313	-0.39153	-0.729668	8.984364	0.359313	1.189177	-5.103463	1.886617	-3.770072	-0.423308	-0.338428	-0.567698
0.90049	-1.518732	8.89146	-26.691296	-282.542741	-32.024709	1.175151	-0.033144	-0.668645	2.813026	1.279729	9.341703	-5.277681	-2.80611	-7.852147	0.090798	-0.378353	-0.701972	9.282881	0.301304	1.374153	-4.837126	1.412049	-5.113491	-0.42289	-0.306043	-0.569373
-0.483762	-1.347584	8.353783	-33.138194	-281.730083	-35.765878	1.136176	-0.052164	-0.741805	3.224769	1.110315	9.7465	-3.887455	-2.731368	-7.202905	0.091093	-0.377281	-0.716322	8.986274	0.011105	1.247601	-4.634577	1.158639	-7.160627	-0.422823	-0.288198	-0.601265
-1.219245	-1.230232	8.794615	-41.691291	-276.687514	-36.211522	1.12357	-0.072275	-0.762776	2.527616	1.280363	9.448938	-2.900388	-2.841486	-7.203206	0.091093	-0.377281	-0.716322	8.811427	0.012004	1.364113	-4.149354	0.368551	-7.494786	-0.450427	-0.291085	-0.554822
-2.341033	-1.109454	9.966743	-51.637361	-270.794249	-33.571905	1.123942	-0.068746	-0.776852	3.107782	1.448467	9.687728	-2.251602	-2.775949	-6.585479	0.065141	-0.377431	-0.715771	8.631887	-0.336789	1.179608	-3.90606	-0.462466	-6.91104	-0.422753	-0.289025	-0.585737
-3.47276	-1.10573	10.62671	-53.97298	-266.799312	-25.954658	1.080022	0.004761	-0.80696	2.993106	1.843043	9.742281	-0.672869	-2.45333	-5.964446	0.090578	-0.364105	-0.688626	9.165794	-0.104958	1.370221	-2.403237	-1.404355	-7.003671	-0.450151	-0.257048	-0.587552
-4.146659	-0.81513	11.296792	-54.959438	-264.177516	-16.094275	1.08188	0.022402	-0.877339	3.337266	1.222666	9.635734	1.213819	-2.189129	-5.189608	0.078562	-0.345644	-0.732403	8.634223	-0.39437	1.299174	-2.098692	-1.520244	-7.52376	-0.450494	-0.30893	-0.52293
-4.319991	-0.18339	11.239253	-57.230214	-261.038776	-6.222385	1.011306	-0.010324	-0.84061	2.641323	1.392761	9.394811	2.168256	-2.451759	-5.376418	0.116599	-0.408844	-0.700517	8.396943	0.128854	1.296998	-1.607872	-2.134665	-7.09475	-0.464126	-0.275097	-0.55573
-5.004527	-0.584501	11.337908	-61.121825	-257.261634	3.66395	1.026498	0.051785	-0.935662	3.166665	1.392076	9.745529	2.13187	-2.79571	-4.424205	0.091758	-0.359817	-0.746025	8.518817	-0.102978	1.47793	-0.965703	-2.401649	-7.676462	-0.422473	-0.273658	-0.571047
-5.274221	-0.40835	12.18586	-67.684622	-253.016425	11.878375	0.968859	0.094596	-0.944513	3.394401	1.44788	9.637133	3.772054	-2.416612	-2.939379	0.078267	-0.346716	-0.718054	8.447831	-0.163639	0.817607	-0.761556	-3.092755	-8.804655	-0.408636	-0.272628	-0.586504
-5.154269	-0.234902	12.473077	-73.816156	-247.459864	18.579226	1.011235	0.076173	-0.928069	2.885421	1.111199	10.022445	5.59525	-2.190502	-1.147641	0.077301	-0.425461	-0.684336	8.689803	-0.337171	1.120801	-0.89737	-3.566229	-10.391051	-0.422823	-0.288198	-0.601265
-5.762296	0.459677	13.600786	-77.692597	-238.495648	24.13277	0.914248	0.096437	-0.996004	3.332562	1.785829	9.466289	6.484223	-2.673404	-0.596823	0.078117	-0.377356	-0.716046	8.631752	-0.278713	1.179855	-1.733056	-4.059904	-10.263428	-0.450498	-0.290259	-0.57035
-5.468312	0.576042	14.004808	-79.824995	-225.529133	30.114041	0.914991	0.103493	-1.024156	2.815228	1.392485	9.455077	5.954865	-2.988131	-0.384582	0.129945	-0.392377	-0.716146	8.452233	-0.16265	1.057234	-1.693893	-4.603442	-7.968927	-0.436798	-0.306248	-0.569443
-5.075284	0.516622	13.614389	-83.727365	-210.779287	35.39328	0.871887	0.09756	-0.994956	2.990126	1.504918	9.572078	6.290606	-3.17687	1.001077	0.077746	-0.393749	-0.700693	8.215183	-0.685289	0.930794	-0.540943	-4.746595	-5.558082	-0.422682	-0.289851	-0.57021
-5.246017	0.63187	13.668384	-93.810464	-192.339672	38.205212	0.885979	0.131785	-1.030289	2.873009	1.279716	9.456191	6.25293	-3.699381	1.119163	0.078632	-0.390533	-0.743742	8.565573	-0.512612	0.758417	-0.472042	-4.511752	-4.58148	-0.423028	-0.323062	-0.553008
-5.975109	1.15276	14.452024	-100.82408	-172.456099	39.590689	0.813833	0.188742	-1.042206	3.163816	1.617303	9.632439	6.835427	-3.915651	2.504751	0.104659	-0.375063	-0.745297	8.691173	-0.453076	1.180214	-1.302009	-3.619162	-5.407899	-0.436448	-0.291708	-0.539224
-5.446374	1.040399	15.1438	-103.187427	-153.241169	39.32694	0.843603	0.150208	-1.046733	3.056369	1.392481	9.969669	6.761521	-4.809968	3.143193	0.103183	-0.380422	-0.673549	8.865886	-0.395899	1.063948	-2.530584	-2.639079	-5.958234	-0.436172	-0.25767	-0.571954
-5.774477	1.273792	15.934028	-98.661966	-131.296065	39.639631	0.799698	0.206416	-1.059349	2.818747	1.448958	9.625043	7.742976	-5.264054	4.156802	0.077231	-0.380572	-0.672997	8.337347	-0.568418	1.173117	-3.155925	-1.348458	-3.792249	-0.450498	-0.290259	-0.57035
-6.490937	1.899873	14.44514	-110.859332	-106.116061	32.41833	0.771885	0.141496	-1.002759	3.217192	1.279022	9.406805	6.249458	-6.082801	4.548227	0.064921	-0.363183	-0.702425	8.688412	-0.686122	0.999504	-2.378261	-0.861932	-3.247271	-0.42254	-0.291503	-0.539154
-7.903369	1.905011	15.383805	-125.817814	-85.183997	24.277117	0.787478	0.172534	-1.076904	3.212141	1.391494	9.180342	4.485607	-6.320813	4.698584	0.116084	-0.395667	-0.672821	8.625804	-1.035432	0.757293	-2.714945	-0.122702	-3.860819	-0.43659	-0.290055	-0.57028
-8.985428	1.619797	15.645708	-138.575682	-69.677277	15.42776	0.758079	0.214596	-1.086453	2.873679	1.561416	9.513068	2.878751	-6.257248	5.93106	0.06418	-0.395967	-0.671718	8.745518	-0.338048	0.942181	-3.742489	0.048021	-5.936107	-0.422749	-0.307696	-0.538317
-11.631836	2.250906	14.971758	-148.470279	-61.997062	6.503883	0.756936	0.23861	-1.079209	2.762844	1.843474	9.737446	3.528813	-6.013149	7.382949	0.077822	-0.378428	-0.701697	8.628161	-0.628158	0.938744	-6.028866	0.607764	-7.611365	-0.40905	-0.323684	-0.53741
-15.920724	2.772195	15.174683	-148.832849	-69.132031	3.843642	0.727566	0.246073	-1.053774	3.053066	1.223347	9.799608	4.672703	-5.793846	8.896652	0.104144	-0.361886	-0.717602	8.098696	0.070712	1.111527	-8.887015	1.107703	-6.656005	-0.437078	-0.321614	-0.584134
-18.214102	5.39099	9.230749	-142.280961	-88.14862	7.870541	0.714946	0.243262	-1.092237	3.502086	2.179724	9.356969	4.083623	-5.898122	9.635029	0.090057	-0.411138	-0.671266	8.73934	-0.048904	0.643883	-8.554414	1.835498	-8.891634	-0.450777	-0.305625	-0.585041
-24.49735	7.844222	4.117797	-161.941433	-128.407864	3.225054	0.728309	0.25313	-1.081926	3.49086	1.728606	8.790193	1.524546	-5.474491	10.222927	0.090352	-0.410066	-0.685615	8.745113	-0.16382	0.942923	-10.49408	2.192523	-14.509356	-0.423095	-0.340907	-0.521115
-32.202654	15.565842	8.433239	-117.552146	-122.999842	19.008836	0.713417	0.281046	-1.088409	2.93012	0.885248	9.400429	3.411106	-5.12493	12.01599	0.038599	-0.379725	-0.68652	9.169136	0.825494	1.673711	-12.477351	3.322286	-17.960721	-0.422678	-0.308522	-0.522789
-29.674698	2.512203	5.472208	-61.268513	-148.484491	24.872452	0.683633	0.33688	-1.101374	3.101199	1.729882	9.404767	4.725202	-3.876805	11.258738	0.077746	-0.393749	-0.700693	9.354542	0.071584	2.03324	-15.835904	5.048384	-14.473079	-0.437078	-0.321614	-0.584134
-27.892964	6.004437	3.077877	-45.169638	-89.913606	40.464458	0.655749	0.358457	-1.132243	3.22654	1.448393	9.860064	3.497843	-3.132889	12.344157	0.078042	-0.392677	-0.715043	9.427979	-0.448268	2.750998	-13.045666	5.253096	-0.762266	-0.450639	-0.288607	-0.601406
-24.449542	4.867153	6.436225	-50.261101	-13.767597	49.595579	0.670241	0.36161	-1.146668	3.285853	1.16668	9.917676	2.658186	-3.372623	14.56078	0.090942	-0.407922	-0.714315	9.252956	-1.319003	2.743988	-1.670131	5.024204	10.506331	-0.451057	-0.320992	-0.599732
-19.02352	6.743788	3.026192	-8.83491	43.010073	62.876535	0.626793	0.31755	-1.068409	3.2491	2.294299	10.993568	-0.456681	-7.685266	16.241817	0.090207	-0.380497	-0.673273	9.304113	-1.727648	2.264103	1.872704	4.580222	16.211486	-0.450915	-0.322644	-0.568676
-14.894277	4.226928	6.278405	12.048358	73.905478	78.431354	0.641657	0.324232	-1.09691	2.966516	1.450023	11.15673	-2.585064	-12.110964	18.354139	0.090502	-0.379425	-0.687623	9.108337	-2.196302	1.1805	0.823538	3.55342	17.534568	-0.450498	-0.290259	-0.57035
-12.422336	6.710131	9.86044	23.524742	80.245725	87.605196	0.670612	0.365139	-1.160744	3.681853	2.128076	15.07873	-9.931837	-26.02203	21.169526	0.051794	-0.393899	-0.700142	9.038587	-2.314791	0.579836	-1.688585	3.420403	20.662192	-0.436519	-0.290881	-0.554752
-11.42581	7.87591	14.033357	69.45579	61.720307	87.110709	0.669898	0.323483	-1.097609	3.448738	2.745711	12.300285	-22.755028	-59.744697	26.95904	0.0644	-0.410216	-0.685064	8.916693	-2.547814	0.337019	-4.373138	3.511267	25.745862	-0.464543	-0.307482	-0.554055
-10.872148	9.984627	10.245377	154.273061	42.185996	74.870327	0.65542	0.30303	-1.065692	3.209991	2.126127	11.84181	-30.681124	-66.324359	23.311021	0.05187	-0.378578	-0.701145	9.386061	-2.78194	0.165112	-13.084424	3.766786	33.541012	-0.450568	-0.289433	-0.585878
-12.095626	7.4981	6.119309	193.159104	69.874968	47.341324	0.686276	0.30968	-1.14743	3.500128	2.182014	11.961182	-27.685084	-78.811438	20.075541	0.038819	-0.393974	-0.699866	8.671129	-2.723727	-0.207287	-18.076812	5.703982	36.759856	-0.422961	-0.305217	-0.5849
-0.375085	2.462915	-0.550417	174.097067	104.252028	18.366304	0.756922	0.255909	-1.096701	3.190218	2.35069	10.935766	-29.87753	-88.470726	19.885285	0.051574	-0.37965	-0.686796	8.790687	-2.433123	-0.084036	-17.99916	6.105131	33.486513	-0.436661	-0.289229	-0.585808
0.570707	3.495136	12.713817	112.485515	67.556809	-0.667201	0.757308	0.242138	-1.093285	3.143101	2.576547	11.444504	-38.030435	-97.90427	20.432387	0.012496	-0.410516	-0.683961	10.567545	-1.389827	0.432682	-21.122798	5.7021	21.088516	-0.450218	-0.274893	-0.555659
-0.567632	-0.594006	9.946579	151.671466	53.418614	-19.595832	0.757308	0.242138	-1.093285	3.802246	2.294705	12.646996	-40.985595	-109.00169	22.693591	4.1e-05	-0.363558	-0.701046	12.515564	0.290911	0.715794	-25.695917	5.69847	8.022665	-0.464059	-0.257252	-0.587622
-5.181998	0.518393	14.010134	145.746771	82.121898	15.604371	0.745102	0.190957	-1.093348	3.545633	2.409138	14.113676	-47.21745	-125.111611	24.840708	-0.01404	-0.3526	-0.644375	14.624917	1.341937	3.274849	-36.839039	5.805474	-0.250844	-0.436034	-0.240651	-0.588319
-2.758337	6.355824	9.421788	152.634932	96.802189	-8.066586	0.75998	0.180339	-1.104358	3.54078	1.397288	16.490477	-52.665098	-150.248846	24.309099	0.012722	-0.364555	-0.686972	15.249037	0.941472	5.08133	-54.230092	4.229817	1.195006	-0.42282	-0.30687	-0.553845
-4.308904	5.149464	9.10239	114.155079	91.488315	-34.757321	0.745116	0.173657	-1.075857	3.608447	1.172237	16.944613	-54.00201	-180.211569	22.777185	-0.013525	-0.365777	-0.672071	14.124388	0.013585	4.756932	-35.019465	-0.243814	8.573837	-0.43631	-0.274689	-0.555589
-4.675968	2.272087	7.776023	81.026382	74.21221	-50.311369	0.80197	0.175687	-1.091329	3.848033	0.721494	17.345546	-54.144069	-213.475149	20.473604	-0.039697	-0.351678	-0.658173	13.049183	0.361752	4.079631	-2.798659	-5.045302	4.812304	-0.436381	-0.273863	-0.571117
-3.992245	-0.831459	7.492089	81.280099	44.898608	-47.69039	0.814933	0.216626	-1.101926	4.215077	0.778032	18.37236	-48.69586	-251.684404	18.89622	-0.052378	-0.350682	-0.672247	11.386827	0.363307	3.509657	1.176987	-0.584364	3.676314	-0.408498	-0.255609	-0.602869
-2.858628	1.175994	7.011126	56.672037	28.94896	-9.046612	0.80157	0.206758	-1.112237	3.316221	0.555288	19.372341	-41.141243	-286.789705	19.817775	-0.092707	-0.340946	-0.600675	11.189005	0.300939	2.367877	-0.347472	3.610072	17.569107	-0.407868	-0.225703	-0.55796
-3.099579	1.645625	9.338466	48.991105	25.250585	-8.563228	0.78865	0.113921	-1.049165	2.909074	0.217869	19.137035	-30.878758	-325.270369	19.567397	-0.118288	-0.324703	-0.615477	10.928595	0.354116	1.045771	1.35871	6.763502	14.919127	-0.435826	-0.224459	-0.589156
-3.701322	1.984416	7.850599	40.37709	20.653021	-2.356692	0.859238	0.129348	-1.068403	2.544363	0.83744	18.28071	-23.395278	-358.928369	17.512972	-0.170707	-0.311827	-0.586678	10.67674	0.990278	0.265299	-7.473001	10.228451	-3.740175	-0.464339	-0.272618	-0.602313
-3.396618	2.677609	8.825564	25.909691	16.153744	3.622723	0.801613	0.15486	-1.059762	2.76651	1.287369	17.946087	-21.78327	-385.387664	16.01858	-0.170927	-0.297578	-0.573332	10.625022	1.166372	0.684289	-15.081387	10.960572	-9.125465	-0.43659	-0.290055	-0.57028
-2.879883	2.217945	8.890508	14.383629	14.514638	5.223954	0.759637	0.142212	-1.055298	5.208353	5.506527	16.812195	-11.166492	-397.425221	25.742272	-0.19828	-0.287767	-0.502035	10.754058	1.168574	1.285558	-18.134224	7.379912	-4.085275	-0.450151	-0.257048	-0.587552
-3.279344	1.931268	8.938361	8.165564	14.946195	5.279534	0.817248	0.134	-1.081431	8.212999	6.963701	14.838475	-21.440927	-397.097938	45.037005	-0.303048	-0.306904	-0.455777	10.666933	0.18798	2.836734	-19.67323	3.019292	-2.958659	-0.435964	-0.241478	-0.572791
-3.388244	1.875116	9.220158	-0.545768	13.487454	5.679571	0.773729	0.176436	-1.090631	10.671005	4.484391	19.247203	3.319048	-370.814205	78.030346	-0.263901	-0.320927	-0.46995	10.966861	0.943777	3.204891	-16.300228	-2.525601	-3.922398	-0.421985	-0.2421	-0.557193
-3.09731	1.588666	9.451931	1.441946	12.445319	6.239582	0.830254	0.12304	-1.039552	8.89433	2.910667	19.434957	42.529775	-360.869547	66.783373	-0.330106	-0.296021	-0.39883	10.018316	0.422017	2.885525	-10.721611	-6.820934	-3.677608	-0.436314	-0.256018	-0.60301
-3.099661	1.760508	9.338949	-0.457688	11.527189	7.824794	0.859238	0.129348	-1.068403	5.20751	3.030131	19.244402	62.636977	-347.846756	73.86609	-0.357094	-0.330028	-0.353222	10.431314	0.944003	2.95536	-4.988634	-9.373785	-0.324324	-0.436452	-0.273036	-0.586645
-3.108611	1.81602	8.884365	-3.11025	10.09245	5.877111	0.844003	0.119137	-1.025826	-0.310588	-0.456687	13.803702	54.863511	-321.047591	66.849364	-0.358495	-0.320067	-0.282477	9.953102	0.24644	2.524241	-0.527057	-10.520037	-0.335012	-0.463642	-0.224867	-0.589296
-3.561944	1.472667	9.101422	-5.414933	8.815849	6.384332	0.789778	0.107207	-1.073901	-6.726254	-4.450239	6.701893	80.792512	-231.681545	43.308112	-0.398158	-0.292866	-0.240608	10.184515	0.825919	2.351395	2.05309	-10.243642	-2.515615	-0.44973	-0.243334	-0.541806
-3.333216	1.874592	9.107565	-7.322477	6.730971	7.858604	0.845489	0.133251	-1.08213	-12.957431	-8.046943	2.88793	85.536481	-112.30287	3.74116	-0.398378	-0.278618	-0.227262	10.471332	0.590961	1.876653	4.884788	-9.478849	-4.516051	-0.46385	-0.24106	-0.588459
-3.275962	1.874551	9.108679	-7.41899	6.055154	7.786565	0.844374	0.122666	-1.039902	-8.042228	-4.222106	7.070755	26.537392	-26.822124	-57.972717	-0.398308	-0.323507	-0.2386	10.589635	0.474539	1.878359	6.48812	-8.665823	-5.68708	-0.449801	-0.242508	-0.557334
-3.269488	2.163206	9.451004	-6.223144	6.027917	7.96668	0.830597	0.161167	-1.088612	-4.55022	-2.649706	9.070364	-25.471385	6.094593	-76.798154	-0.398673	-0.27969	-0.212912	10.537336	-0.046774	2.174568	7.536988	-8.38361	-5.997839	-0.421847	-0.225081	-0.573558
-3.049212	1.931344	8.999668	-4.262327	6.039161	7.77722	0.858466	0.15689	-1.075234	-9.011633	-2.47117	10.335562	-17.075207	55.840828	-110.848555	-0.451023	-0.311703	-0.195452	10.29745	0.650184	2.053319	8.944442	-8.823458	-7.345532	-0.450013	-0.240029	-0.603917
-2.817926	1.874219	9.117586	-5.217912	5.581058	7.128528	0.816105	0.158013	-1.074187	-7.31581	-1.121225	11.731109	-5.211351	84.105834	-121.684258	-0.437381	-0.294163	-0.225431	10.305113	-0.277796	2.348898	10.568739	-9.26442	-8.510625	-0.463988	-0.258078	-0.572094
-3.163846	2.103751	8.998165	-4.852995	5.497187	6.543447	0.816876	0.130471	-1.067355	-6.345684	-1.743072	11.298022	23.012501	97.467583	-127.939294	-0.411215	-0.368472	-0.249664	9.6547	-0.218482	2.277134	12.546099	-8.799137	-8.458884	-0.463917	-0.258905	-0.556567
-3.274517	1.41526	9.163601	-5.251878	5.559223	6.330936	0.872601	0.139216	-1.058092	-6.683805	-0.730481	9.027247	39.567578	112.050215	-128.11994	-0.411215	-0.368472	-0.249664	9.890629	-0.160946	2.281783	12.674659	-7.75303	-9.014436	-0.422056	-0.241274	-0.572721
-3.334205	1.702026	9.049988	-4.914522	5.403665	6.634105	0.817262	0.1167	-1.063939	-5.858815	-1.465959	7.175657	41.189625	133.437169	-120.354861	-0.371922	-0.412064	-0.276179	9.309136	-0.099542	2.750281	13.13379	-7.434454	-10.087238	-0.449383	-0.210123	-0.559008
-3.052263	1.528529	8.827419	-4.237647	5.774891	6.699523	0.844389	0.105366	-1.02241	-5.525056	-1.072719	6.673486	35.536629	163.526317	-108.748698	-0.358356	-0.409845	-0.305155	9.010174	-0.797015	2.442277	13.785078	-6.50786	-10.735785	-0.435196	-0.194553	-0.544247
-3.226377	1.700496	8.711096	-4.762771	5.53391	6.053116	0.829082	0.181653	-1.067292	-5.284177	-2.199428	7.07385	29.984179	194.482357	-94.513616	-0.345675	-0.410842	-0.291081	8.536424	-0.099023	2.43644	13.873318	-6.344184	-11.74537	-0.47803	-0.293972	-0.508379
-3.165617	1.471412	8.881804	-4.18317	5.607131	5.255299	0.84286	0.143151	-1.018581	-4.604595	-2.032157	6.578743	19.11603	227.572807	-80.723445	-0.319057	-0.393228	-0.321335	8.648664	-0.449232	2.077717	14.307793	-6.565261	-10.920765	-0.450431	-0.272414	-0.602243
-3.391087	1.185094	9.046703	-2.468131	5.681473	4.822232	0.900085	0.148709	-1.04813	-3.661335	-1.638667	7.67457	9.616165	259.161988	-65.097235	-0.29193	-0.449	-0.389621	8.119294	-0.73815	2.126483	14.460265	-6.375188	-11.502867	-0.450498	-0.290259	-0.57035
-3.101806	1.645143	9.22476	-1.793079	5.807546	4.822338	0.871101	0.142402	-1.01928	-2.503528	-1.246224	8.038918	0.650513	284.116816	-50.553349	-0.304241	-0.431611	-0.419048	8.400359	-0.393336	1.414586	14.920075	-6.461507	-11.87084	-0.449801	-0.242508	-0.557334
-3.73713	1.586951	8.928005	-0.26167	5.848908	4.511932	0.843974	0.153736	-1.060809	-1.158757	-1.360558	9.029501	-4.679399	298.762765	-35.029858	-0.264653	-0.474132	-0.459914	8.174624	-0.099943	2.01049	14.273539	-6.124212	-12.175708	-0.477896	-0.258282	-0.572165
-3.385892	1.703274	9.33314	0.869729	5.642561	4.19865	0.83024	0.14034	-1.057044	-0.052256	-1.080432	9.675743	-10.961882	303.978808	-21.018612	-0.251306	-0.457664	-0.475543	8.05273	-0.332966	1.767672	14.67952	-5.728904	-11.812345	-0.436101	-0.258496	-0.556426
-3.50399	2.047282	9.161802	1.268532	5.455514	4.593135	0.829082	0.181653	-1.067292	1.290528	-1.420182	10.552858	-14.707595	302.104364	-8.339495	-0.250571	-0.485089	-0.516585	8.048328	-0.333955	1.528045	14.407693	-4.902437	-11.968105	-0.44973	-0.243334	-0.541806
-3.046861	1.759502	9.11265	2.924379	5.523313	4.712139	0.829125	0.129755	-1.014816	1.940024	-1.082721	11.359394	-14.925077	295.812647	3.312272	-0.1722	-0.497816	-0.545935	7.994119	-0.507059	1.76583	14.629258	-3.515398	-12.922881	-0.463496	-0.245191	-0.51082
-3.100402	1.243293	9.279924	2.032816	5.370722	4.252219	0.843588	0.167507	-1.064225	2.573675	-1.309228	11.372503	-14.014479	287.913075	10.201559	-0.146393	-0.468097	-0.534144	8.402851	-0.044138	1.59579	14.1478	-2.328933	-12.468403	-0.478522	-0.30686	-0.569653
-3.502711	1.817757	9.217689	3.75627	5.796108	5.388852	0.844746	0.126194	-1.053978	3.498433	-1.986824	11.504556	-18.970624	282.57574	16.402676	-0.157598	-0.46174	-0.619967	8.287829	-0.391829	1.71192	13.477521	-1.135874	-12.716148	-0.450009	-0.2587	-0.556496
-3.552047	1.647163	9.613824	3.666699	6.414821	5.000495	0.829868	0.136811	-1.042968	4.083673	-1.311509	12.02697	-27.746672	280.239559	19.640241	-0.119185	-0.448339	-0.593098	8.10858	-0.391919	1.588805	13.511617	-0.210518	-13.454119	-0.450427	-0.291085	-0.554822
-3.502752	1.875199	9.217931	5.689128	6.112087	5.419091	0.886722	0.138841	-1.058441	4.737635	-2.044233	12.945885	-38.09055	280.773927	20.870415	-0.027543	-0.459918	-0.637074	8.108985	-0.566147	1.588063	12.403968	0.153509	-13.543524	-0.450568	-0.289433	-0.585878
-3.614495	1.129024	9.326273	5.355973	6.44334	5.885437	0.871472	0.14593	-1.033356	4.999243	-1.367417	14.480559	-42.180436	282.396562	22.270612	-4e-05	-0.439088	-0.710378	8.5276	-0.565856	1.895301	13.151206	0.515049	-12.753404	-0.478802	-0.322226	-0.584344
-3.389067	1.472784	9.161615	5.699085	7.210061	6.172911	0.899713	0.145181	-1.034054	5.183812	-1.254605	15.050677	-42.07107	281.266449	22.105296	0.012641	-0.440085	-0.696304	8.585381	-0.508162	1.836741	12.875351	0.510898	-12.446787	-0.464193	-0.292942	-0.523837
-3.437413	1.474755	9.615327	6.412304	7.752603	7.406343	0.871101	0.142402	-1.01928	5.181764	-0.184325	15.051578	-44.345579	277.406363	22.866583	0.013231	-0.437941	-0.725003	8.292366	-0.448917	1.9513	13.542303	0.069311	-13.883399	-0.422686	-0.27118	-0.61763
-3.736141	1.759517	8.985582	3.997039	9.038947	6.820868	0.857723	0.149833	-1.047083	5.817987	0.772298	15.29224	-63.129665	267.769671	23.002123	0.090717	-0.453883	-0.711304	8.475727	-0.796542	2.252653	13.729691	-0.182935	-13.088325	-0.463846	-0.259731	-0.541039
-3.038859	1.473983	9.509415	4.553707	8.870486	8.349855	0.885979	0.131785	-1.030289	7.079703	0.321429	17.752751	-62.390851	255.212592	20.565445	0.117629	-0.435197	-0.755908	8.235126	-0.738914	2.00887	15.299476	-0.979223	-12.448454	-0.450635	-0.307278	-0.553985
-3.507331	2.046558	8.991242	5.268036	9.910625	9.070028	0.859252	0.112048	-1.050911	7.783509	1.729015	18.504758	-61.878149	236.761685	15.171978	0.117635	-0.374987	-0.745573	8.535438	-0.622201	2.314402	15.025378	-1.762918	-10.701799	-0.422544	-0.272832	-0.586575
