1757_acc_x	1757_acc_y	1757_acc_z	1757_gyro_x	1757_gyro_y	1757_gyro_z	1757_mag_x	1757_mag_y	1757_mag_z	1758_acc_x	1758_acc_y	1758_acc_z	1758_gyro_x	1758_gyro_y	1758_gyro_z	1758_mag_x	1758_mag_y	1758_mag_z	1759_acc_x	1759_acc_y	1759_acc_z	1759_gyro_x	1759_gyro_y	1759_gyro_z	1759_mag_x	1759_mag_y	1759_mag_z
-1.198509	0.89993	9.940605	-2.128898	-0.436691	-0.307649	0.159329	0.315798	-1.000582	0.931369	0.720645	10.094289	0.651843	0.253282	0.044147	0.794416	0.042566	-0.787009	9.673371	1.980361	0.370608	-6.652392	-0.837287	-1.184232	-0.547759	-0.404542	-0.27079
-1.256586	0.497639	9.880949	-2.405074	-0.624804	-0.095236	0.128199	-0.134336	-0.848	0.538836	0.327465	10.538612	0.279008	0.065796	-0.142985	0.085184	0.235147	-0.956084	9.852755	1.922374	0.493476	-6.714417	-0.712629	-1.429103	-0.503015	-0.308759	0.065173
-1.367713	0.441005	10.04904	-1.975809	-0.498135	-0.247753	0.143091	-0.162253	-0.841517	0.97365	0.494598	9.358994	0.86697	0.13558	-0.295959	0.046771	0.221745	-0.982953	9.974764	1.632466	0.674162	-6.80785	-0.959568	-1.244211	-0.517829	-0.372907	0.052923
-1.322133	1.185291	9.48476	-1.27128	-0.650242	-0.098913	0.155683	-0.124843	-0.838038	1.338014	-0.575664	10.158301	6.215199	0.336716	-1.923541	0.059822	0.23714	-0.984232	9.798141	1.923498	0.732003	-6.870916	-0.988172	-1.457784	-0.518246	-0.405292	0.054597
-1.139934	0.612922	9.997365	-0.627427	-0.647932	-0.039393	0.172075	-0.155946	-0.870368	0.349863	-0.010859	9.741746	5.597016	0.24131	-2.603202	0.09853	0.251614	-0.971713	10.08963	1.573378	0.496395	-6.93142	-0.990601	-1.243615	-0.503783	-0.355684	0.036628
-1.091794	0.898158	9.544861	-0.106289	-0.645847	-0.010191	0.170961	-0.166531	-0.82814	1.224978	-0.406362	10.269304	5.41091	0.091874	-3.560503	0.09897	0.223117	-0.998406	9.794839	1.922756	0.552283	-6.871504	-0.956007	-1.610748	-0.517549	-0.357541	0.067614
-1.430701	0.669606	9.764627	-0.167159	-0.522163	-0.100009	0.157569	-0.1418	-0.873434	1.161368	-0.406492	9.984897	4.084313	0.084479	-5.010552	0.059521	0.175859	-0.980218	9.68368	1.808358	0.909029	-6.686208	-0.831724	-1.734262	-0.50385	-0.373529	0.068521
-1.378025	0.840924	9.539052	-0.690383	-0.831219	-0.164862	0.199559	-0.146452	-0.860406	1.339785	-0.237586	10.271864	3.18363	-0.495836	-7.113332	0.059527	0.236069	-0.969883	9.737599	1.632758	0.609853	-6.903782	-0.798128	-2.100383	-0.51762	-0.356715	0.052086
-1.206137	0.668475	9.541668	-1.178222	-0.590435	0.085799	0.170975	-0.18383	-0.810648	1.218287	-0.068616	9.986391	2.559743	-1.136371	-8.846548	0.098304	0.205653	-0.968703	9.795244	1.748528	0.551541	-6.874939	-0.794234	-2.467254	-0.531804	-0.390956	0.084746
-1.254318	0.44068	9.994414	-1.669664	-0.683529	-0.036971	0.159112	-0.196884	-0.859771	0.944858	-0.011178	10.660069	3.279435	-2.987081	-10.467401	0.085774	0.237291	-0.984784	9.550126	2.328098	0.130263	-7.00071	-0.976322	-2.649303	-0.531599	-0.356093	0.036488
-1.155481	0.552103	9.201181	-2.099092	-0.778424	0.024059	0.128585	-0.148107	-0.844584	0.931214	-0.462391	9.980014	4.037155	-4.227526	-11.558085	0.0335	0.220598	-0.968328	9.37966	1.865131	0.424519	-7.219731	-1.126262	-3.01454	-0.490293	-0.387865	0.038373
-1.201683	0.66944	9.769081	-1.822317	-0.592049	-0.035045	0.157969	-0.17287	-0.852527	1.039547	-0.06853	9.699566	2.660597	-5.680432	-12.436805	0.046551	0.235994	-0.969607	9.912737	1.980562	0.554731	-7.96207	-1.279663	-3.225055	-0.503366	-0.323299	0.034954
-1.027735	0.72724	9.886369	-1.516969	-0.806437	0.021928	0.128971	-0.161878	-0.841168	0.821481	-0.123955	10.261079	1.528455	-7.344878	-13.31743	0.085404	0.220898	-0.96943	9.673101	2.096513	0.371103	-8.551979	-1.460261	-3.711049	-0.518038	-0.3891	0.05376
-1.201683	0.66944	9.769081	-1.579325	-0.991463	0.049768	0.157569	-0.1418	-0.873434	1.28058	-0.012204	10.214205	1.972642	-8.928217	-14.165151	0.072132	0.219751	-0.954805	9.85289	1.864298	0.493229	-9.634474	-1.550866	-4.195686	-0.545645	-0.373316	0.052783
-1.2042	1.071048	9.657064	-2.039324	-1.055421	0.080721	0.143448	-0.141425	-0.873085	0.945505	-0.349161	10.659784	2.418936	-10.300125	-14.517532	0.04618	0.219601	-0.954254	9.610783	2.095906	0.190282	-10.314659	-1.642867	-4.406717	-0.545436	-0.357123	0.051946
-1.433135	0.956331	9.652127	-1.609974	-0.991606	0.049854	0.200316	-0.156695	-0.871066	1.050857	-0.293425	10.209133	3.513218	-11.725146	-14.869919	0.085699	0.22197	-0.98378	9.680534	2.214395	0.790946	-11.089236	-1.762637	-4.922889	-0.503779	-0.374356	0.084049
-1.030992	0.611633	9.715327	-1.885766	-1.024321	0.111452	0.170203	-0.156288	-0.81748	1.400331	0.100431	10.443277	3.651234	-13.06892	-15.438057	0.072428	0.220823	-0.969155	9.559045	1.807144	0.547386	-11.617958	-2.004191	-5.408808	-0.503712	-0.356511	0.052156
-1.082969	1.014971	10.000168	-2.005804	-0.625378	0.118281	0.172075	-0.155946	-0.870368	1.21928	0.044092	10.043125	4.256511	-14.15766	-16.588998	0.032985	0.233775	-0.940632	9.903393	2.210889	0.076465	-11.864957	-1.942324	-5.561016	-0.518038	-0.3891	0.05376
-0.97048	0.727198	9.887482	-2.19284	-1.117948	0.110814	0.171718	-0.176773	-0.8388	1.409224	-0.124559	10.839564	4.458181	-15.433698	-18.019566	0.072132	0.219751	-0.954805	9.43495	1.573627	0.184755	-12.113718	-1.783961	-6.1721	-0.573461	-0.373724	0.052642
-1.143274	0.612198	9.826806	-2.743683	-1.029023	0.175181	0.200316	-0.156695	-0.871066	0.998343	-0.405789	10.434387	3.70355	-16.628686	-19.635054	0.032985	0.233775	-0.940632	9.796345	1.748775	0.611448	-12.543581	-1.602609	-6.110286	-0.504409	-0.404262	0.03914
-1.089567	0.898641	9.658567	-2.836382	-1.089873	0.082455	0.172461	-0.169717	-0.866952	1.226533	0.044377	10.382963	3.412753	-17.786933	-21.280626	0.058711	0.187963	-0.938172	9.736093	1.806739	0.550688	-12.977589	-1.754901	-6.321917	-0.518179	-0.387447	0.022704
-1.2603	1.013889	9.712562	-2.711495	-0.845531	0.270074	0.11445	-0.130434	-0.861727	1.171386	0.044579	10.495033	3.522792	-19.030084	-23.23498	0.045885	0.218529	-0.939904	9.729896	1.631028	0.190505	-13.254621	-1.911997	-6.01455	-0.490013	-0.372499	0.053063
-1.090432	0.55375	9.600266	-2.682636	-0.934107	-0.038128	0.142319	-0.134711	-0.848349	1.632879	-0.463258	10.504278	3.20305	-20.035397	-24.879043	0.059376	0.205428	-0.967875	9.739665	1.691329	0.729914	-13.836573	-1.704077	-5.616136	-0.489942	-0.373325	0.068591
-0.914546	1.014123	9.832949	-2.682953	-0.964491	-0.069289	0.158326	-0.152043	-0.884094	1.343412	-0.237444	10.441783	3.596983	-20.757693	-26.211447	0.006882	0.202984	-0.938073	9.439912	1.807167	0.485279	-14.14671	-1.701719	-5.9512	-0.573531	-0.372897	0.037114
-1.370971	0.325398	9.877998	-2.52924	-0.871232	-0.098883	0.144577	-0.14814	-0.897821	1.688027	-0.46346	10.392207	4.296031	-21.782359	-27.608261	0.04581	0.203209	-0.9389	9.612849	2.154477	0.310343	-14.332603	-1.731712	-6.072629	-0.489804	-0.356307	0.052226
-1.087299	0.841682	9.772032	-2.406297	-0.777769	-0.159054	0.128956	-0.144579	-0.85866	1.574775	-0.181497	10.503306	4.41188	-22.537049	-29.218641	0.04559	0.217457	-0.925554	9.261203	1.574774	0.361175	-14.884777	-1.614819	-5.735011	-0.531808	-0.372285	0.037325
-0.916732	0.956199	9.719002	-2.46767	-0.809134	-0.128719	0.156826	-0.148857	-0.845282	1.113605	0.157348	10.493919	4.779361	-22.921582	-30.671002	0.019783	0.187738	-0.937345	9.439217	1.632692	0.42463	-15.350304	-1.641713	-6.252741	-0.532154	-0.405496	0.054527
-0.809769	0.609778	9.321809	-2.772813	-0.657949	-0.03338	0.142705	-0.148482	-0.844933	1.45591	-0.125093	10.331017	5.146923	-23.219745	-31.259368	0.04559	0.217457	-0.925554	9.974534	2.678328	0.798426	-15.997517	-1.613452	-6.250532	-0.531737	-0.373111	0.052853
-1.320646	0.668558	9.539441	-2.345403	-0.745012	-0.312037	0.14342	-0.106827	-0.908069	1.462732	0.100513	10.671044	7.239175	-23.867408	-31.325775	0.033054	0.188885	-0.951971	9.793874	1.864433	0.492129	-16.433645	-1.885894	-6.67551	-0.517758	-0.373734	0.068451
-1.035322	0.438343	9.48719	-2.468367	-0.650607	-0.555493	0.155297	-0.111072	-0.841454	0.939808	0.101294	10.433605	9.705593	-24.263203	-31.666813	0.019488	0.186666	-0.922995	9.55891	1.86522	0.547634	-16.527135	-2.225859	-6.367936	-0.518459	-0.402813	0.008014
-1.094927	0.610227	9.373095	-2.345784	-0.556101	-0.70765	0.18471	-0.170433	-0.814413	0.921113	-0.237448	9.527087	11.004184	-24.183789	-31.911588	0.045955	0.17364	-0.951243	9.621632	1.691599	0.727713	-16.805428	-2.287404	-6.427757	-0.531386	-0.358571	0.083071
-1.368951	0.613088	9.992911	-2.407157	-0.587467	-0.677315	0.156826	-0.148857	-0.845282	0.346883	-0.348984	9.571543	6.538537	-22.965608	-29.899368	0.019933	0.218379	-0.939352	9.850959	1.747651	0.372921	-17.024004	-2.531317	-6.578608	-0.560037	-0.42375	0.086279
-1.374519	0.611882	9.708646	-2.039016	-0.586792	-0.58636	0.158326	-0.152043	-0.884094	-0.862984	-0.459429	9.489421	4.724567	-22.055307	-27.240713	0.020223	0.159241	-0.964037	9.735533	1.574188	0.489792	-16.99536	-2.744383	-6.669379	-0.532363	-0.421689	0.055364
-1.144346	0.554516	9.769712	-1.82404	-0.555754	-0.525138	0.157955	-0.155571	-0.870018	-1.215091	-0.74072	9.142093	2.516693	-20.336545	-22.354805	-0.00647	0.126307	-0.932779	9.449256	1.576841	0.963545	-16.472047	-2.803045	-6.732117	-0.518038	-0.3891	0.05376
-1.031981	0.439067	9.65775	-1.611031	-0.832035	-0.468905	0.201059	-0.149638	-0.899218	-1.273996	-1.304012	9.027131	-3.633939	-17.633107	-16.259975	-0.005799	0.203981	-0.952147	9.745032	1.750641	1.029696	-16.011706	-2.921531	-6.947147	-0.503988	-0.390548	0.084886
-0.858198	0.726633	9.776003	-1.916182	-0.586915	-0.525379	0.170918	-0.114632	-0.880615	-1.793833	-1.021437	8.959848	-10.514271	-11.709575	-11.644186	0.019488	0.186666	-0.922995	9.745032	1.750641	1.029696	-15.486387	-3.046099	-6.551159	-0.503992	-0.371877	0.037465
-1.264754	1.012924	9.48515	-2.039072	-0.805741	-0.25257	0.18621	-0.173619	-0.853225	-1.788889	-1.077578	9.186359	-18.625857	-5.519297	-8.044002	-0.019591	0.155801	-0.920161	10.036676	1.8073	0.855724	-14.807859	-3.013071	-6.553774	-0.545436	-0.357123	0.051946
-1.20391	0.668958	9.655374	-2.130677	-0.619344	-0.463953	0.186567	-0.152792	-0.884793	-1.497328	-1.134305	9.362275	-21.077479	-1.333691	-5.784763	0.006957	0.218304	-0.939077	9.796075	1.864927	0.611942	-14.34453	-2.795709	-6.709296	-0.531528	-0.356919	0.052016
-1.544014	0.555047	9.81877	-1.670275	-0.587857	-0.342094	0.157955	-0.155571	-0.870018	-1.029875	-0.965891	9.711926	-21.82081	1.070185	-4.405036	0.019192	0.185595	-0.908646	9.561381	1.749563	0.666953	-14.0087	-2.788185	-7.321771	-0.504059	-0.389722	0.069358
-1.201891	0.956648	9.770287	-1.148217	-0.557126	-0.128422	0.158326	-0.152043	-0.884094	-1.433695	-0.514492	9.703843	-22.916837	2.42934	-3.375084	0.005997	0.199768	-0.895024	9.738429	1.749158	0.670254	-13.886367	-2.444328	-7.996197	-0.531804	-0.390956	0.084746
-1.039077	1.012035	9.319044	-1.332423	-0.588369	-0.159067	0.143806	-0.120598	-0.904653	-1.096095	-0.233771	9.371496	-25.27759	3.897687	-2.745824	-0.006019	0.218229	-0.938801	9.50362	2.156724	0.787397	-13.822833	-1.950899	-8.365512	-0.545432	-0.375794	0.099366
-1.373447	0.669564	9.76574	-1.243251	-0.830318	-0.469936	0.171704	-0.159474	-0.856292	-1.262423	-0.402202	9.650925	-28.154774	6.064023	-2.017554	-0.019365	0.201762	-0.923172	9.804588	1.518202	1.029807	-13.886438	-1.792186	-8.946694	-0.532225	-0.40467	0.038999
-1.489028	0.611965	9.706419	-1.641309	-0.927156	-0.22502	0.143077	-0.144954	-0.859009	-1.427974	-0.345264	9.987183	-29.513278	8.589047	-1.623603	0.007177	0.204056	-0.952423	9.922526	2.505719	1.156025	-13.977694	-1.422296	-9.253735	-0.532434	-0.420863	0.039836
-1.20288	0.784082	9.71271	-1.272503	-0.803206	-0.162731	0.171304	-0.128403	-0.877199	-1.148825	-0.233473	9.596846	-29.939592	11.496765	-1.687515	-0.019365	0.201762	-0.923172	9.793739	1.922509	0.492376	-13.919076	-1.509429	-9.68138	-0.545712	-0.39116	0.084675
-1.201725	0.726882	9.769322	-1.151143	-0.861664	-0.378706	0.171304	-0.128403	-0.877199	-0.626008	-0.177923	9.834332	-29.721422	13.989024	-2.618222	-0.01966	0.20069	-0.908822	9.680648	1.691464	0.728814	-13.859388	-1.567548	-9.956363	-0.477011	-0.436239	0.040954
-1.141746	0.038024	9.881246	-0.813315	-1.018617	0.047122	0.157583	-0.159099	-0.855943	-0.740792	0.272984	9.888933	-29.292738	16.024464	-3.614957	-0.006904	0.215014	-0.895752	9.50306	1.924173	0.726501	-13.953767	-1.657442	-10.169515	-0.532572	-0.437881	0.056201
-1.033302	0.726034	9.602103	-0.599061	-0.985493	-0.075628	0.129714	-0.154822	-0.86932	-0.619641	-0.346678	10.117387	-28.063214	17.799346	-5.415159	-0.031895	0.2334	-0.939253	9.564682	1.750304	0.846674	-14.0805	-1.961885	-10.350965	-0.546409	-0.438912	0.071659
-1.433135	0.956331	9.652127	-0.629589	-0.985984	-0.04488	0.143834	-0.155196	-0.869669	-0.275349	-0.403702	10.067954	-25.849269	19.220827	-7.526352	-0.005723	0.219301	-0.953151	9.496748	2.271393	0.42845	-13.902191	-2.445286	-10.868829	-0.532572	-0.437881	0.056201
-0.745751	0.496301	9.663558	-0.966763	-0.95613	-0.104761	0.157212	-0.162628	-0.841867	-0.784545	-0.627722	10.453361	-22.958261	20.408044	-10.009252	0.006737	0.232553	-0.92573	9.677367	2.155578	0.610978	-13.748938	-2.47406	-10.991487	-0.504689	-0.419628	0.024449
-1.146283	0.151942	9.654316	-0.783627	-1.015693	-0.19826	0.130114	-0.185892	-0.848412	-0.439691	-0.346716	10.460852	-21.124909	21.029425	-12.406135	-0.019359	0.261972	-0.912837	9.737059	1.865063	0.610842	-13.413998	-2.557987	-11.634062	-0.546688	-0.454278	0.056968
-1.087299	0.841682	9.772032	-0.631336	-1.10613	-0.292172	0.14422	-0.168967	-0.866253	-1.126981	-0.908633	10.55915	-19.184239	20.39386	-14.59963	-0.019434	0.246651	-0.911833	9.501149	2.272382	0.668078	-12.9197	-2.558104	-11.452491	-0.476731	-0.420872	0.055645
-1.090432	0.55375	9.600266	-0.600481	-1.16919	-0.139946	0.143863	-0.189795	-0.834686	-0.218454	-0.68551	10.012286	-18.270373	19.249746	-16.028321	-0.031594	0.294681	-0.943268	9.205778	1.924354	0.601185	-12.673967	-2.524422	-11.667462	-0.546129	-0.423545	0.08635
-1.203128	1.128731	9.714158	-0.232583	-1.16782	-0.110314	0.171689	-0.142175	-0.873783	-0.506065	-0.797632	10.006147	-18.358132	17.166792	-16.480685	-0.044426	0.265037	-0.955334	9.682714	1.750034	0.848875	-12.271755	-2.494598	-11.455141	-0.532296	-0.403844	0.023471
-1.437341	0.610717	9.423267	-0.477265	-1.013914	-0.229781	0.157569	-0.1418	-0.873434	-1.540903	-0.232292	10.09814	-19.617109	15.341457	-16.407368	-0.03123	0.250864	-0.968956	9.676402	2.097254	0.550823	-12.119467	-2.645727	-11.577212	-0.504547	-0.421281	0.055504
-1.087133	0.611916	9.771066	-0.997741	-1.237034	0.258778	0.141962	-0.155539	-0.816781	-1.082928	-0.796602	9.937418	-21.061469	13.5997	-15.408555	-0.044055	0.28143	-0.970688	9.50277	1.57547	0.665111	-11.993547	-2.401833	-11.456591	-0.518313	-0.423137	0.08649
-0.859353	0.783833	9.719391	-0.598178	-1.019354	0.19983	0.171318	-0.145703	-0.859708	-0.964063	-0.853006	10.109707	-22.679441	12.861806	-13.536735	-0.018989	0.278364	-0.92819	9.388599	1.809033	0.903526	-11.746909	-2.338822	-11.549465	-0.51929	-0.486255	0.058783
-0.902008	0.614686	10.456644	-0.4451	-0.986864	0.107914	0.143077	-0.144954	-0.859009	-0.619772	-0.91003	10.060273	-24.746455	13.281195	-11.345488	-0.005862	0.30908	-0.930473	9.156416	2.507721	1.201626	-11.220945	-1.998881	-11.705792	-0.504898	-0.435821	0.025286
-1.089153	0.324225	9.656154	-0.259116	-0.772967	0.294862	0.158326	-0.152043	-0.884094	-1.257588	-0.402012	9.877483	-25.78432	14.479069	-8.991523	-0.057986	0.323028	-0.916024	9.036858	2.217117	1.078375	-10.727893	-1.965572	-11.799417	-0.504335	-0.423759	0.102088
-0.918793	0.725951	9.60433	0.137913	-0.798362	-0.013372	0.143448	-0.141425	-0.873085	-0.851781	-0.627994	9.999035	-26.323971	15.989624	-6.60321	-0.044865	0.293534	-0.928642	9.269311	1.402276	0.779781	-10.789767	-1.779107	-12.105682	-0.476452	-0.405506	0.070336
-1.087133	0.611916	9.771066	0.322391	-0.705308	-0.012391	0.184652	-0.101236	-0.88438	-0.51211	-0.797869	9.722949	-29.244338	17.347139	-4.187494	-0.04501	0.323103	-0.9163	9.211706	2.216217	0.961863	-10.728118	-1.716761	-12.197883	-0.504476	-0.422107	0.071032
-1.427402	0.727771	9.935427	0.290706	-0.733749	-0.227438	0.114836	-0.144205	-0.858311	-0.679193	-0.571987	10.00271	-31.299243	18.717429	-2.048395	-0.070447	0.309777	-0.943444	9.678468	2.155825	0.670884	-10.261887	-1.473852	-11.864571	-0.490915	-0.455114	0.088305
-1.312935	0.78513	9.937896	0.322413	-0.548867	-0.255192	0.143448	-0.141425	-0.873085	-0.850464	-0.684277	10.055628	-33.099496	20.616509	-0.582041	-0.083573	0.279061	-0.941161	9.566478	1.925027	0.967229	-10.042749	-1.47938	-11.254137	-0.532643	-0.437055	0.040673
-0.976048	0.725992	9.603217	0.291012	-0.609431	-0.34809	0.115593	-0.154447	-0.868971	-0.271399	-0.572552	10.23773	-34.02229	23.449583	0.401062	-0.070592	0.339346	-0.931101	9.50443	1.808268	0.785914	-9.363982	-1.695163	-10.858283	-0.518522	-0.43933	0.087327
-1.131932	0.327403	10.39413	0.628566	-0.483886	-0.439026	0.157583	-0.159099	-0.855943	-0.211763	-1.023256	10.295199	-34.074514	26.665325	0.802939	-0.083492	0.354591	-0.931829	9.507597	1.867086	0.965881	-9.210639	-2.09668	-10.429079	-0.560246	-0.439942	0.087116
-1.658647	0.727454	9.817267	0.4145	-0.392344	-0.46759	0.142705	-0.148482	-0.844933	0.478375	-0.686566	10.309991	-33.599288	29.984879	0.404741	-0.109444	0.354441	-0.931278	9.679818	1.575065	0.668412	-8.901024	-2.315369	-9.879069	-0.517967	-0.389926	0.069288
-1.141254	0.899889	9.941719	0.875356	-0.174379	-0.52671	0.129699	-0.137523	-0.886812	0.421564	-1.080772	10.30845	-33.065001	32.975952	-1.229797	-0.084604	0.305414	-0.885769	9.442653	1.575358	0.604104	-8.748298	-2.560472	-9.786771	-0.518802	-0.454696	0.072636
-1.079587	0.958254	10.170486	0.937121	-0.08155	-0.556047	0.129728	-0.172121	-0.851828	0.651179	-0.74322	10.31357	-33.121525	35.625101	-3.299796	-0.10989	0.322728	-0.914921	9.383097	1.807797	0.603992	-8.564076	-2.806725	-9.57234	-0.518384	-0.422311	0.070962
-1.201808	0.841765	9.769805	0.814246	-0.049999	-0.677853	0.157197	-0.145328	-0.859358	0.355884	-0.630305	9.967783	-33.024577	38.099061	-6.419548	-0.10974	0.353369	-0.916928	9.442943	1.924061	0.665494	-8.041274	-3.081716	-9.420118	-0.532639	-0.455726	0.088094
-1.490431	1.013814	9.651255	0.75283	-0.049938	-0.708343	0.142705	-0.148482	-0.844933	0.139219	-1.418027	10.528679	-32.628239	39.782625	-9.978485	-0.121899	0.401399	-0.948363	9.683254	1.51773	0.847886	-7.299977	-3.081577	-9.178319	-0.50489	-0.473163	0.120127
-0.916317	0.381784	9.716588	0.784898	0.133901	-0.644111	0.156826	-0.148857	-0.845282	0.996118	-1.138228	10.263852	-31.312057	40.897048	-13.788935	-0.06992	0.41702	-0.950469	9.805283	1.692677	1.090456	-6.991338	-3.018975	-9.210296	-0.51901	-0.470888	0.073473
-1.080452	0.613363	10.112185	0.75366	0.041562	-0.645522	0.115622	-0.189046	-0.833987	1.218479	-0.80096	9.929135	-30.92816	41.57111	-17.696967	-0.109219	0.400402	-0.934289	9.622463	1.807998	0.788114	-6.900002	-3.016435	-9.424563	-0.505382	-0.48605	0.058853
-1.719283	0.784214	9.645836	0.876635	0.197532	-0.796682	0.14382	-0.137897	-0.887161	1.283729	-1.026106	10.269991	-30.05325	42.004974	-21.422001	-0.13458	0.402396	-0.962437	9.442808	1.982137	0.665741	-6.622784	-3.263301	-9.118782	-0.504894	-0.454492	0.072706
-1.374353	0.382115	9.707681	0.967748	0.106461	-0.85976	0.171718	-0.176773	-0.8388	1.683515	-0.632641	10.165507	-29.125045	41.79421	-24.906764	-0.108188	0.374049	-0.98968	9.506071	1.576211	0.844832	-6.408287	-3.601523	-8.87346	-0.53243	-0.439534	0.087257
-1.089484	0.783758	9.658084	0.999586	0.197062	-0.705039	0.144591	-0.165439	-0.880329	1.508077	-0.463421	10.048743	-27.894572	41.094433	-28.026207	-0.160312	0.387997	-0.975231	9.738024	1.923386	0.670996	-6.285698	-3.972243	-8.474845	-0.51901	-0.470888	0.073473
-1.383178	0.265302	9.252373	1.060249	0.13658	-0.767533	0.14422	-0.168967	-0.866253	2.080105	-0.464641	9.890913	-26.574607	40.178811	-30.77779	-0.120719	0.405687	-1.005762	9.327787	1.634445	0.781871	-6.164663	-4.433151	-8.228597	-0.504965	-0.453666	0.057179
-1.260875	0.266908	9.652572	1.550494	0.139217	-0.799569	0.142705	-0.148482	-0.844933	2.47976	-0.63453	9.729315	-24.912012	39.4823	-33.55773	-0.14667	0.405536	-1.00521	9.325316	1.750103	0.662551	-5.95113	-4.893726	-7.982685	-0.519219	-0.487081	0.07431
-0.970314	0.497432	9.886517	1.704912	0.324323	-0.797005	0.14272	-0.165781	-0.827441	2.363097	-0.46537	9.670399	-23.188176	38.812397	-35.597519	-0.13399	0.40454	-0.991136	9.740785	2.156432	0.851706	-5.738924	-5.351777	-7.981268	-0.505032	-0.47151	0.089071
-0.910051	0.957647	10.06012	1.553639	0.630926	-0.791587	0.157183	-0.128029	-0.87685	2.890725	-1.029313	10.077283	-21.391761	38.972447	-37.844767	-0.171141	0.470956	-1.066072	9.566883	1.750799	0.966487	-5.528767	-5.899071	-8.223904	-0.532847	-0.471919	0.088931
-1.199291	0.440156	9.881822	2.657611	0.853286	-0.975159	0.171675	-0.124875	-0.891275	2.598063	-1.028964	9.84468	-20.36399	39.457317	-39.688661	-0.14549	0.409824	-1.062609	9.332749	1.867986	1.082394	-5.347288	-6.450572	-8.069125	-0.505102	-0.470684	0.073544
-0.914546	1.014123	9.832949	3.761106	0.983102	-1.129567	0.157183	-0.128029	-0.87685	3.799013	-1.313212	9.473352	-19.620102	39.478997	-41.568208	-0.145345	0.380255	-1.074952	9.269041	1.518428	0.780276	-5.22788	-7.032565	-7.944536	-0.491332	-0.487499	0.089979
-1.314954	0.49744	9.822983	3.914759	1.201721	-1.371801	0.186196	-0.15632	-0.870717	3.214874	-1.932149	9.007625	-20.270499	39.176264	-43.42127	-0.183972	0.441312	-1.078139	9.448155	1.576594	0.903638	-5.138988	-7.553176	-7.850691	-0.491124	-0.471306	0.089142
-0.971552	0.669516	9.830388	3.914979	1.388893	-1.614105	0.156811	-0.131557	-0.862774	3.625431	-1.481928	9.412944	-21.517449	38.100847	-45.467442	-0.144679	0.397719	-1.104655	9.506361	1.924915	0.906222	-5.139775	-8.079477	-7.236955	-0.51929	-0.486255	0.058783
-0.975799	0.381343	9.601769	4.221092	1.391367	-1.706951	0.128956	-0.144579	-0.85866	4.241488	-1.990799	8.576221	-22.869842	36.070421	-46.999159	-0.118351	0.474471	-1.110224	9.214312	2.042484	1.080935	-5.20259	-8.822634	-6.377467	-0.491754	-0.501213	0.044232
-0.918793	0.725951	9.60433	4.312444	1.299601	-1.708705	0.171704	-0.159474	-0.856292	4.419151	-1.42758	8.86352	-23.405954	32.640247	-48.544134	-0.143938	0.430504	-1.135362	8.911643	1.518497	0.593952	-5.293419	-9.571257	-4.998299	-0.547452	-0.519874	0.075844
-1.084782	0.440074	9.884049	4.709602	1.085991	-1.682652	0.114836	-0.144205	-0.858311	5.047212	-1.259964	8.650402	-23.895512	28.100801	-49.144522	-0.156399	0.417252	-1.162782	9.328867	1.169837	0.779893	-5.322704	-10.164196	-3.864576	-0.505866	-0.53628	0.09242
-1.370355	1.014937	9.937747	5.352625	1.153241	-1.928756	0.184681	-0.135835	-0.849397	5.041491	-1.429193	8.367062	-26.479237	21.777851	-48.315549	-0.143863	0.445824	-1.136365	9.094754	1.751879	0.957684	-5.630354	-10.911699	-2.667974	-0.53278	-0.454074	0.057038
-0.97048	0.727198	9.887482	5.259734	1.06166	-2.021982	0.143077	-0.144954	-0.859009	5.046696	-0.358628	8.7078	-28.765507	14.68297	-46.106874	-0.155953	0.448965	-1.179139	8.797317	1.34528	0.77073	-5.813332	-11.381892	-1.625947	-0.519219	-0.487081	0.07431
-0.977244	0.840634	9.546846	5.411703	0.940839	-2.147056	0.171332	-0.163002	-0.842216	11.011898	-12.362888	14.823597	-30.950612	6.041077	-41.601578	-0.181535	0.465207	-1.193941	8.801314	1.520497	1.0111	-6.153848	-11.939357	-1.071927	-0.50552	-0.503069	0.075218
-0.733544	0.556397	10.289184	5.225714	0.820877	-2.485823	0.129699	-0.137523	-0.886812	3.727223	21.624044	21.664123	76.021018	-21.815937	-38.000918	-0.168634	0.449962	-1.193213	8.983864	1.521328	1.313935	-4.768113	-12.707243	-0.27865	-0.464076	-0.517823	0.060738
-0.969408	0.784881	9.944576	4.088242	0.512785	-2.886245	0.116365	-0.181989	-0.862139	11.538792	-4.035434	5.217599	194.3353	-38.794687	-20.842576	-0.182056	0.418174	-1.17658	9.565512	1.866704	0.907075	-5.510127	-12.861263	-0.428042	-0.504752	-0.456144	0.103762
-0.909678	0.440673	10.057948	4.884033	0.488207	-3.103615	0.184695	-0.153134	-0.831905	-1.312735	-0.40181	9.989554	134.714886	-51.111248	-11.980675	-0.208083	0.402703	-1.175025	9.677367	2.155578	0.610978	-6.25268	-12.827979	-0.945078	-0.505591	-0.502243	0.05969
-1.134615	0.958778	10.283079	5.740568	0.340293	-3.261827	0.143077	-0.144954	-0.859009	-1.519237	-2.710171	10.889007	123.595588	-42.881283	2.427112	-0.169085	0.358039	-1.187191	9.620167	2.795291	0.792317	-7.117655	-12.765812	-1.339555	-0.477216	-0.471102	0.089212
-0.97077	1.129289	9.889171	5.767919	0.130876	-3.756006	0.15684	-0.166156	-0.827791	-0.191189	-0.402767	11.315234	119.710756	-29.523378	11.065452	-0.208233	0.372063	-1.173018	9.676983	2.794661	0.673604	-8.348462	-11.688347	-2.440487	-0.518727	-0.474193	0.135585
-1.141213	0.842447	9.941477	5.608452	-0.290004	-4.65178	0.144591	-0.165439	-0.880329	-1.551371	2.468999	7.156366	132.327017	-37.015383	18.215109	-0.169826	0.325255	-1.156484	10.205252	3.083332	0.56493	-11.518434	-9.909934	-3.965599	-0.533194	-0.50513	0.106133
-1.657533	0.727696	9.87412	5.270111	-0.444542	-4.714655	0.15684	-0.166156	-0.827791	-1.764455	0.442053	7.772858	65.308023	-61.58239	28.707277	-0.194748	0.298751	-1.211324	10.321893	2.734111	0.445834	-15.830384	-7.698547	-6.344342	-0.50552	-0.503069	0.075218
-0.903577	1.246302	10.402445	8.820484	-1.040496	-4.918574	0.129728	-0.172121	-0.851828	-0.251585	0.834228	8.597576	49.313069	-73.593525	28.451692	-0.208314	0.296532	-1.182349	10.555197	2.500525	0.269526	-19.162267	-5.998857	-9.182558	-0.491541	-0.503691	0.090816
-0.672167	1.016853	10.51964	9.405614	-0.764319	-4.639751	0.15644	-0.135086	-0.848698	1.320275	1.113682	9.480048	14.869088	-76.748495	26.511997	-0.208164	0.327173	-1.184356	10.440041	2.210909	0.385903	-19.79309	-5.818817	-12.023239	-0.477354	-0.488121	0.105577
0.572608	2.403988	12.766085	14.174248	2.115221	-4.545341	0.128971	-0.161878	-0.841168	5.84617	-0.299323	13.819919	12.227249	-76.704895	14.671829	-0.259848	0.312624	-1.1966	10.208533	2.619218	0.682766	-18.758775	-6.471599	-13.612976	-0.477842	-0.51968	0.091723
-1.13622	0.096672	10.165753	42.749285	8.712984	-10.899601	0.12857	-0.130808	-0.862076	10.238664	2.0545	9.554956	85.703243	-7.669518	21.706433	-0.272598	0.358511	-1.199335	9.328793	2.622479	0.965794	-15.770678	-7.077021	-13.193074	-0.463658	-0.485438	0.059063
-2.272975	-0.64755	10.538317	9.557946	16.563053	-9.326975	0.173247	-0.214558	-0.842628	1.445522	-1.646539	9.706701	-24.642215	-0.808595	10.217441	-0.260884	0.278768	-1.151543	9.638065	3.14795	1.812218	-15.166033	-6.924482	-9.987187	-0.533332	-0.522149	0.122498
-0.352697	1.311091	12.232007	15.813403	26.450476	-8.693556	0.15834	-0.169342	-0.866603	0.533069	-1.08113	10.140949	30.482393	-0.94502	-7.342454	-0.247688	0.264594	-1.165165	10.036426	2.388308	0.918104	-15.7361	-5.807746	-8.737468	-0.505587	-0.520914	0.10711
-1.406039	0.445147	11.014429	9.670572	33.576027	-8.100005	0.143091	-0.162253	-0.841517	0.359665	0.552873	10.251977	-18.511441	0.082204	7.795769	-0.247688	0.264594	-1.165165	10.57379	3.027659	1.350075	-13.225946	-4.301818	-8.570381	-0.519144	-0.506578	0.137259
-1.157765	1.540713	12.046824	11.806599	41.728475	-7.973633	0.171689	-0.142175	-0.873783	0.734988	-0.800999	8.843311	5.322593	-1.679161	-0.156278	-0.259998	0.281984	-1.194592	10.521221	2.622498	1.646779	-9.172897	-3.289526	-7.459136	-0.506213	-0.569492	0.109622
-1.046674	0.103627	11.815606	15.139946	50.818783	-8.786211	0.186582	-0.170091	-0.867301	1.151613	0.269143	9.588989	-21.843563	-2.472941	2.865961	-0.28676	0.293938	-1.151995	10.75551	2.912091	1.59251	-5.92405	-2.740837	-6.159388	-0.477558	-0.522985	0.153834
-1.027295	1.027034	12.842822	13.700879	60.895137	-9.108974	0.199959	-0.177522	-0.839498	0.872548	-0.518661	9.922118	-23.04761	-2.483397	2.125011	-0.273489	0.295085	-1.166621	10.336624	3.027952	1.285767	-4.381945	-2.674115	-6.165292	-0.491399	-0.505344	0.121871
-1.652142	0.339157	13.055091	20.014091	71.32285	-10.184411	0.242335	-0.195945	-0.823054	0.998235	-0.349458	10.434435	-23.631424	-2.359528	0.800161	-0.260218	0.296232	-1.181246	10.278979	2.912183	1.344079	-4.132555	-2.305845	-6.198514	-0.505307	-0.505548	0.121801
-0.681541	1.027268	12.963209	24.126414	82.130176	-10.449921	0.229343	-0.202285	-0.847441	0.93374	-0.518627	10.093246	-13.428703	-1.764765	-0.018076	-0.259848	0.312624	-1.1966	10.217762	2.911823	1.223165	-3.073753	-1.825258	-4.982181	-0.477562	-0.504313	0.106414
-0.676222	1.373123	13.248923	26.146741	91.918396	-11.155351	0.215208	-0.184611	-0.864584	0.825085	-0.743496	10.373837	-8.047472	-1.267451	0.022027	-0.273854	0.338903	-1.140932	9.799707	3.144083	0.976823	-3.217292	-1.908111	-2.933618	-0.505866	-0.53628	0.09242
-0.909611	1.257441	13.016574	29.48651	102.551884	-12.740267	0.186982	-0.201162	-0.846393	0.296439	-0.911944	9.853058	-5.575214	-1.261325	-0.808281	-0.259628	0.298376	-1.209946	9.499259	3.085446	0.671539	-5.186843	-2.636408	-1.211517	-0.533473	-0.520496	0.091442
-1.092675	1.484919	12.445668	34.230059	112.112892	-14.039968	0.241921	-0.147576	-0.861454	0.362036	-0.686398	10.250933	-5.422184	-1.410074	-1.210402	-0.247682	0.324804	-1.15483	9.551922	2.50282	0.250819	-6.79215	-3.538708	-0.284516	-0.505725	-0.537933	0.123475
-1.492591	1.8301	12.496174	32.863664	120.241126	-16.142821	0.243064	-0.171589	-0.868698	0.6403	-0.743647	9.803814	-5.083315	-1.468099	-1.056566	-0.259848	0.312624	-1.1966	9.193039	3.141725	0.067215	-8.149676	-4.597473	1.070225	-0.519774	-0.536484	0.09235
-1.19477	1.25789	13.06786	38.672643	129.01306	-17.918505	0.257213	-0.206563	-0.834064	0.936804	-0.856515	10.206241	-3.696874	-1.728058	-0.811411	-0.286465	0.29501	-1.166345	8.711836	3.25698	-0.420349	-9.324358	-5.651468	2.026971	-0.492309	-0.550616	0.062271
-1.360924	1.201779	13.348543	43.053487	138.931579	-18.475258	0.300689	-0.197102	-0.877339	1.0471	-0.85692	9.9821	-0.512291	-1.445785	-0.281965	-0.247908	0.278843	-1.151819	9.42032	3.604063	-0.345754	-10.101205	-6.698341	2.432105	-0.478188	-0.552891	0.108925
-1.061415	1.376791	14.037072	55.952493	148.511862	-18.264582	0.299589	-0.224986	-0.817619	0.932854	-0.687666	10.036464	0.822318	-0.881386	0.402939	-0.273263	0.341047	-1.169632	8.839232	3.491239	0.122003	-10.168297	-7.21604	2.190312	-0.505866	-0.53628	0.09242
-2.72068	1.378234	14.061634	64.99696	159.462418	-18.60327	0.356457	-0.240255	-0.8156	0.991413	-0.575065	10.094408	0.361286	-0.674422	0.682079	-0.299071	0.311327	-1.181423	9.246013	3.372658	-0.23023	-9.522352	-7.428143	2.219548	-0.478255	-0.570736	0.140818
-1.728715	1.783722	15.048755	85.285067	169.427885	-16.904716	0.354199	-0.226826	-0.766128	1.333071	-0.519523	9.93179	0.333939	-0.398627	0.653972	-0.259697	0.343265	-1.198607	9.309971	3.141208	0.009509	-7.198789	-6.261258	2.572325	-0.505516	-0.52174	0.122638
-0.912371	0.452536	12.842636	100.273055	177.764569	-20.032778	0.39809	-0.265735	-0.771004	0.814444	-0.236901	9.921147	-0.806027	-0.16781	0.65535	-0.273489	0.295085	-1.166621	8.957825	3.72352	0.185099	-5.481403	-4.091886	3.380968	-0.47798	-0.536698	0.108088
-3.661838	1.55826	15.692168	99.146431	181.623494	-16.80762	0.439694	-0.256616	-0.761392	1.043365	-0.800732	9.812229	-1.020572	-0.047089	0.533065	-0.273564	0.279765	-1.165617	8.660658	3.200769	-0.002349	-3.176463	-1.488979	3.879781	-0.506351	-0.58651	0.125987
-3.430411	0.397159	12.850254	119.893133	187.634518	-15.665457	0.44008	-0.270387	-0.757976	0.98878	-0.462499	9.981223	-2.594975	0.053769	0.810254	-0.260288	0.341122	-1.169907	8.540425	3.200545	-0.124363	-2.102544	0.949965	5.025682	-0.477767	-0.539177	0.154671
-2.457801	0.753449	15.769026	128.12555	176.794817	-15.2214	0.4546	-0.301832	-0.737418	0.988672	-0.406168	9.981271	-4.668109	-0.218214	0.867538	-0.260438	0.310481	-1.1679	8.662299	2.968712	0.056569	-2.234206	3.545766	5.38054	-0.477838	-0.538351	0.139144
-2.399723	1.15574	15.828682	172.406852	173.575024	-16.536181	0.440108	-0.304986	-0.722992	1.103025	-0.631753	9.926859	-5.875112	-0.416283	0.679628	-0.272453	0.328942	-1.211677	8.358009	3.141638	-0.427446	-2.638377	5.727487	7.236021	-0.520121	-0.569696	0.109552
-4.651684	0.393928	11.860369	195.215491	162.840657	-22.174691	0.510754	-0.358756	-0.672263	0.874858	-0.462236	10.035445	-6.68185	-0.702258	0.645308	-0.247167	0.311628	-1.182526	8.353202	3.314877	-0.666332	-3.506807	6.979444	10.106301	-0.505587	-0.520914	0.10711
-3.398596	-1.38936	11.479413	197.805377	163.64367	-18.795208	0.496662	-0.392981	-0.63693	0.82038	-0.180333	10.204392	-6.714656	-0.884427	0.304361	-0.234116	0.327023	-1.183805	8.882282	3.255091	-0.776489	-3.462142	6.642755	13.103186	-0.464143	-0.535668	0.09263
-4.32384	-0.114327	13.967329	184.511927	158.347972	-12.310148	0.53941	-0.407875	-0.634562	0.808938	-0.51879	9.637711	-6.006803	-1.11872	-0.005681	-0.260438	0.310481	-1.1679	9.114215	3.13741	-1.01221	-3.800552	5.925972	14.26935	-0.492163	-0.57094	0.140748
-1.400145	1.537984	11.360133	230.465986	155.597113	-5.556011	0.595506	-0.395603	-0.639375	0.995902	-1.025567	10.263947	-5.514552	-1.29503	-0.222834	-0.259992	0.342193	-1.184257	9.001009	3.429296	-0.71364	-4.458751	3.584277	15.688971	-0.505587	-0.520914	0.10711
3.319139	-1.082736	3.825606	219.260927	133.906942	-18.021811	0.567322	-0.464051	-0.568709	0.706327	-0.743423	10.2015	-4.252976	-1.706461	-0.503363	-0.285944	0.342043	-1.183706	8.749383	3.019596	-1.618376	-5.678443	1.097759	16.133192	-0.491821	-0.519058	0.076125
14.591033	-2.151469	-2.210993	189.704546	86.750601	-62.906728	0.609312	-0.468703	-0.555681	0.643256	-1.025205	9.916856	-2.342696	-2.052759	-0.104505	-0.286239	0.340971	-1.169356	8.928228	3.193913	-1.494519	-6.935383	-1.562912	15.661376	-0.54696	-0.506987	0.137118
7.36093	-5.239605	-0.375579	104.567354	37.153907	-141.043943	0.622332	-0.496962	-0.496311	0.934494	-0.91294	10.092914	-0.118345	-2.024738	-0.071608	-0.234411	0.325951	-1.169455	8.995237	3.544212	-1.01268	-7.568646	-3.458495	15.367051	-0.519357	-0.5041	0.090675
7.067252	-5.503362	5.073317	57.351083	-9.585596	-177.338343	0.622332	-0.496962	-0.496311	0.710731	-0.517911	10.428248	1.674836	-1.880551	0.116237	-0.260513	0.29516	-1.166896	9.403948	3.542278	-1.244604	-6.809813	-4.33334	14.451482	-0.491958	-0.536076	0.09249
5.053475	-4.802197	7.48081	10.208589	-29.543801	-195.856388	0.636439	-0.480037	-0.514152	0.589556	-0.517933	10.142632	2.510297	-1.748514	0.303191	-0.273414	0.310406	-1.167624	10.17446	3.541265	-1.050578	-7.847147	-5.789488	12.933879	-0.519353	-0.522771	0.138096
3.640919	-4.624735	8.420199	24.126574	-35.076217	-201.083441	0.663179	-0.4776	-0.476038	0.981527	-0.462783	9.641386	3.597932	-1.243548	0.216603	-0.259992	0.342193	-1.184257	10.182008	3.136216	-0.692867	-7.710669	-6.686724	11.012022	-0.52005	-0.570522	0.125079
2.546901	-5.314694	8.055029	26.026179	-41.95388	-190.208819	0.678014	-0.436319	-0.539523	0.70829	-1.137689	10.257808	4.340938	-1.140133	-0.090052	-0.312191	0.340821	-1.168804	10.483691	3.137024	-0.327924	-6.192424	-7.723395	8.2606	-0.518939	-0.471715	0.089001
1.095746	-5.66265	7.002388	22.620256	-52.690215	-166.580596	0.663951	-0.505142	-0.469206	0.989642	-0.913143	9.980844	4.559414	-0.982655	-0.304107	-0.273634	0.324654	-1.154278	10.193147	3.080612	-0.094045	-4.758989	-7.595214	5.228908	-0.505378	-0.504722	0.106273
0.46224	-6.697106	6.758384	9.67936	-65.583469	-132.926606	0.70667	-0.485438	-0.501822	0.931214	-0.462391	9.980014	4.43689	-0.950136	-0.827959	-0.272233	0.314693	-1.225023	10.193822	2.790232	-0.095282	-4.521775	-7.234847	2.995165	-0.533194	-0.50513	0.106133
-0.170325	-5.950393	6.635566	-10.362053	-80.077101	-93.976329	0.693278	-0.460708	-0.547116	1.104342	-0.688036	9.983451	4.837413	-1.065285	-1.198718	-0.273119	0.311478	-1.181974	9.415898	3.138218	-0.647266	-4.389984	-6.225938	3.081564	-0.533682	-0.536689	0.092279
0.289233	-4.973736	6.762283	-30.515867	-96.836942	-55.961297	0.677657	-0.457147	-0.507955	0.597133	-0.68664	10.482328	5.580765	-0.960059	-1.782806	-0.260513	0.29516	-1.166896	9.775477	2.673789	-0.403014	-3.76041	-5.161637	3.899425	-0.506351	-0.58651	0.125987
0.653377	-4.222661	7.852309	-42.545036	-114.106222	-24.028912	0.704755	-0.433882	-0.501409	0.586145	-0.630736	9.972619	6.039486	-1.379466	-2.403167	-0.261104	0.293017	-1.138197	9.481517	3.139567	-0.286724	-4.281203	-5.014677	4.29794	-0.533332	-0.522149	0.122498
1.524851	-3.243881	8.555351	-45.103371	-130.644441	-1.256858	0.678029	-0.453619	-0.522031	0.645243	-0.799788	10.030325	5.422123	-1.356036	-2.495914	-0.28661	0.324579	-1.154002	9.952816	3.022087	-0.338322	-4.849827	-5.145974	2.008352	-0.533473	-0.520496	0.091442
1.243442	-2.265962	8.838151	-42.865822	-144.887938	13.593416	0.704784	-0.468481	-0.466425	0.761259	-0.630964	10.089524	4.835224	-1.363081	-2.558112	-0.260218	0.296232	-1.181246	9.478216	3.138825	-0.466445	-5.264396	-5.524892	0.055622	-0.547027	-0.524832	0.169011
1.525218	-2.209692	8.616548	-42.850889	-157.187408	21.489105	0.650188	-0.48394	-0.500425	0.759512	-0.349359	10.033122	5.484533	-1.323379	-2.680507	-0.235076	0.308487	-1.139752	9.308445	2.850333	-0.111541	-5.269581	-5.670269	-0.677173	-0.505792	-0.555778	0.155368
1.057943	-1.751759	8.154746	-47.04662	-168.129073	24.512517	0.648644	-0.428856	-0.514088	0.867497	-0.40619	9.695655	6.416286	-0.913577	-2.583199	-0.29848	0.313471	-1.210122	9.423446	2.73317	-0.289555	-5.396621	-6.098319	-0.735795	-0.533473	-0.520496	0.091442
0.66347	-1.233047	8.490241	-54.315927	-177.497051	23.09344	0.592934	-0.454899	-0.50586	0.986924	-0.124563	9.924868	6.974626	-0.751587	-2.827762	-0.27408	0.292941	-1.137921	9.425357	2.384961	-0.231132	-4.936697	-6.122831	-1.165221	-0.491746	-0.538555	0.139073
0.902758	-1.575691	9.004925	-60.880624	-185.044564	18.727461	0.636796	-0.459209	-0.545719	0.581525	-0.743587	9.745965	7.994492	-0.707987	-2.826508	-0.246501	0.329092	-1.212229	9.249544	2.327537	-0.174773	-4.323211	-6.052502	-1.840154	-0.505516	-0.52174	0.122638
0.85684	-0.309282	9.634505	-65.44627	-189.938869	11.761467	0.60854	-0.441161	-0.562513	0.927911	-0.631525	9.809953	7.68716	-0.560393	-2.547836	-0.300107	0.277471	-1.136366	9.301417	2.558223	-0.532125	-4.135997	-5.621393	-2.056826	-0.477838	-0.538351	0.139144
0.463196	-0.939401	9.965174	-68.998653	-193.548771	3.157097	0.638311	-0.479695	-0.56704	0.809046	-0.575121	9.637664	7.934656	-0.526793	-2.516475	-0.273263	0.341047	-1.169632	8.895582	2.270271	-0.181623	-4.541313	-5.893717	-2.481931	-0.505516	-0.52174	0.122638
0.181171	-0.651021	10.188226	-73.741661	-195.769852	-6.341807	0.626462	-0.510048	-0.598671	0.86782	-0.575181	9.695512	8.089161	-0.524632	-2.547157	-0.259992	0.342193	-1.184257	8.722645	1.922962	-0.006687	-3.524935	-5.453309	-3.312892	-0.50489	-0.473163	0.120127
0.529193	-0.707746	10.422078	-80.449285	-197.712178	-16.812541	0.62569	-0.482506	-0.605502	0.86782	-0.575181	9.695512	8.396766	-0.642165	-2.733046	-0.273194	0.296157	-1.18097	8.72444	2.097684	0.113868	-2.10165	-4.433113	-3.873032	-0.491675	-0.539381	0.154601
0.643163	0.038911	10.427442	-89.848649	-197.369238	-29.171477	0.654689	-0.493498	-0.616861	0.762684	-0.743578	10.146069	8.889924	-0.727687	-2.764327	-0.247242	0.296307	-1.181522	8.720579	1.864391	-0.126748	-0.856796	-3.115567	-3.669894	-0.464001	-0.537321	0.123686
0.076559	-0.476442	10.698401	-102.135791	-191.414179	-43.916597	0.642054	-0.47901	-0.672816	0.805851	-0.800585	9.467555	8.9475	-1.063817	-2.829279	-0.248128	0.293092	-1.138473	8.544361	1.981196	-0.069648	-0.506142	-1.956379	-3.248828	-0.46393	-0.538147	0.139214
-0.70422	0.045695	11.765192	-118.685222	-178.587716	-61.484303	0.601579	-0.494844	-0.707164	0.878484	-0.462094	10.205364	8.9475	-1.063817	-2.829279	-0.286685	0.309259	-1.152999	8.59826	1.340741	-0.430709	-0.803325	-0.39523	-3.469136	-0.491679	-0.52071	0.107181
-1.201036	0.682027	12.724328	-129.975012	-163.247551	-78.936094	0.63132	-0.498779	-0.746675	0.53484	-0.743052	10.254513	10.153065	-1.016054	-3.105285	-0.247242	0.296307	-1.181522	8.839016	1.689893	-0.125289	-0.515282	1.262331	-3.936519	-0.491537	-0.522363	0.138236
-1.519036	0.802707	14.025751	-131.640732	-154.614619	-95.022805	0.633149	-0.446539	-0.852038	1.276284	-0.294046	9.98741	12.157625	-1.295013	-3.445553	-0.28595	0.281834	-1.194041	9.146877	1.401557	0.537953	-0.690522	2.391912	-3.788466	-0.505654	-0.538759	0.139003
-3.001136	1.034998	14.338884	-116.983024	-152.350064	-106.99592	0.619343	-0.373438	-0.935732	0.412479	-0.123438	9.969419	13.0523	-1.404495	-3.723373	-0.285875	0.297154	-1.195044	8.65523	1.746891	-0.487785	0.613845	3.030763	-3.001625	-0.477909	-0.537525	0.123616
-5.71989	0.973474	12.864981	-114.623552	-146.377257	-109.299284	0.590702	-0.341619	-0.955941	0.759727	-0.46202	10.033027	13.267456	-1.493345	-3.785739	-0.235001	0.323807	-1.140756	8.946989	1.280618	-0.723888	0.383759	3.339886	-0.43502	-0.491187	-0.507823	0.168455
-8.960418	0.004155	13.934472	-126.534653	-135.199995	-99.110035	0.521143	-0.242664	-1.083882	0.868706	-0.406142	9.752294	12.711314	-1.47215	-3.416041	-0.273715	0.249124	-1.16361	8.830618	1.513687	-0.605286	0.48476	3.479299	0.908718	-0.478117	-0.553717	0.124453
-12.04123	0.296013	14.444081	-130.718559	-118.993527	-81.866034	0.478352	-0.175872	-1.138725	0.584051	-0.799822	9.859197	14.133771	-1.360917	-3.598758	-0.260368	0.265591	-1.179239	8.23646	1.33982	-0.85666	0.559529	4.479225	1.851134	-0.519979	-0.571348	0.140607
-17.579838	11.740733	30.183444	-119.140792	-124.95045	0.582044	0.422213	-0.136246	-1.186388	0.532984	-0.405116	10.198158	15.313254	-0.887454	-3.377306	-0.273344	0.265516	-1.178963	8.183621	1.050811	-0.559462	-0.104677	4.667275	4.144913	-0.491608	-0.521536	0.122709
-18.982465	0.777829	4.877248	39.856955	-97.057001	0.270931	0.37868	-0.07651	-1.213079	0.64261	-0.687222	9.91714	16.796392	-0.809724	-3.005405	-0.27386	0.278693	-1.151267	7.772439	1.168403	-0.446857	-1.774599	4.487746	9.103267	-0.491958	-0.536076	0.09249
-20.796983	1.324921	11.607079	24.560479	-86.680192	36.023794	0.30812	-0.126535	-1.158858	1.052713	-0.631361	10.265488	19.273009	-0.321411	-2.536137	-0.2861	0.251193	-1.192034	8.353932	1.106999	-0.915355	-4.280292	4.249403	13.545499	-0.547724	-0.572583	0.155995
-22.740258	2.820775	11.802906	-21.583887	-72.145741	69.350255	0.27835	-0.088001	-1.154331	0.773671	-0.799482	10.655778	24.222229	0.233754	-2.804086	-0.247468	0.250346	-1.178511	8.249375	0.994084	-0.199167	-5.528068	4.80369	15.717591	-0.491537	-0.522363	0.138236
-35.647145	-13.129254	27.169818	0.230701	-46.09281	79.826512	0.235974	-0.069578	-1.170775	1.228089	0.495116	10.496621	29.294134	0.757807	-2.763966	-0.299591	0.264294	-1.164062	8.254722	0.58854	0.03873	-7.853443	5.227008	18.352759	-0.505725	-0.537933	0.123475
-25.679836	5.653829	2.096499	214.842679	13.789594	77.882337	0.207361	-0.072357	-1.156001	0.929251	-0.068125	9.923707	26.954086	1.397811	-2.019614	-0.273344	0.265516	-1.178963	8.680635	0.76479	0.766057	-7.370951	4.693831	22.755334	-0.505378	-0.504722	0.106273
-26.913634	11.212919	12.382237	14.727278	6.809365	134.40096	0.207775	-0.120727	-1.117602	0.699875	0.101345	9.975653	25.317728	1.496073	-1.46505	-0.234712	0.26467	-1.165441	9.023342	1.400591	0.236217	-5.499573	4.069778	27.550871	-0.519566	-0.520292	0.091512
-24.842882	11.533316	7.081807	201.119066	7.864875	123.033579	0.221524	-0.12463	-1.103875	0.644404	0.27054	10.087865	24.395831	1.910399	-0.968424	-0.259998	0.281984	-1.194592	9.315662	1.16687	0.06101	-2.689738	4.382619	27.844895	-0.491399	-0.505344	0.121871
-24.201747	12.799227	7.724748	232.320319	10.153381	99.38232	0.236045	-0.156075	-1.083316	1.336829	0.043972	10.158822	25.782693	1.682116	-0.877094	-0.299296	0.265366	-1.178412	9.493136	1.457093	0.125454	0.450979	5.519771	25.443678	-0.505725	-0.537933	0.123475
-14.668774	22.080665	3.914337	245.409452	-1.669301	-7.143804	0.221567	-0.176528	-1.051399	1.798683	-2.548237	9.996393	17.935103	0.83177	-8.01309	-0.260739	0.249199	-1.163886	10.138668	3.02366	0.144234	3.415938	5.924626	25.767266	-0.519357	-0.5041	0.090675
-1.091637	-4.859306	6.394923	-178.98807	-3.622719	53.778917	0.207847	-0.207224	-1.030143	-2.785943	3.214436	19.472983	-39.563936	-20.426924	8.37645	-0.298486	0.253261	-1.220457	11.266773	4.359068	0.709991	1.18824	4.071677	32.631864	-0.505866	-0.53628	0.09242
1.23184	-2.256029	11.168015	31.450747	6.669823	2.011265	0.222339	-0.20407	-1.044568	1.402346	0.553554	13.274427	90.060054	-46.841757	-10.556118	-0.286176	0.235872	-1.19103	12.93183	3.195992	1.275021	-11.159977	2.165656	38.188573	-0.491399	-0.505344	0.121871
-0.385061	2.038489	7.68801	-100.78615	9.764018	5.754163	0.207818	-0.172625	-1.065126	0.11196	-2.092747	11.886252	-2.304807	-62.078254	1.271771	-0.286696	0.188839	-1.173669	12.80897	2.904646	0.972049	-9.779029	0.309989	22.876688	-0.519144	-0.506578	0.137259
-2.465652	0.554504	9.516689	-100.870567	10.68064	6.198639	0.152108	-0.198669	-1.056898	1.005245	0.894913	16.266939	19.728934	-78.728166	-3.870128	-0.286916	0.203088	-1.160323	12.080563	3.076044	-0.118738	3.040208	-2.127562	2.698894	-0.491608	-0.521536	0.122709
-1.509158	-1.448169	11.515917	-106.598223	5.333627	1.068116	0.222325	-0.186771	-1.06206	1.0203	-1.529256	14.057165	48.841982	-97.215092	-10.165133	-0.274016	0.187842	-1.159595	11.475941	2.667401	-0.97017	6.592476	-3.185956	-0.212422	-0.547657	-0.554738	0.124102
-2.14642	-1.908934	11.103767	-39.282159	4.787934	-1.894557	0.178806	-0.144334	-1.071259	0.872258	-0.51394	15.300463	30.102308	-115.934397	-8.485749	-0.300703	0.215117	-1.118002	11.580343	2.373537	-1.747995	3.176609	-2.027774	4.929082	-0.519774	-0.536484	0.09235
-1.455327	-1.334051	11.346954	-7.660096	3.908737	4.532362	0.236802	-0.166318	-1.093977	0.761639	-0.344544	15.524745	50.120705	-132.697308	-10.455019	-0.365808	0.168781	-1.113612	11.803087	2.892961	-2.400344	-1.877671	-1.20879	9.772697	-0.504961	-0.472337	0.104599
-1.312437	0.095831	9.935	26.755208	2.693602	6.498899	0.223068	-0.179714	-1.090212	1.097984	-1.303236	15.021436	55.479838	-148.489396	-11.285804	-0.352091	0.201641	-1.144595	11.870232	3.185184	-1.918752	-8.416859	-3.090022	11.975514	-0.547173	-0.504508	0.090535
-1.209271	0.380544	9.369902	27.81673	1.134078	6.225164	0.17882	-0.161633	-1.053768	1.391584	-0.287157	18.085664	30.789812	-166.402018	-9.294867	-0.326585	0.170078	-1.128789	11.936316	4.406871	-1.373298	-11.512424	-6.403004	8.884866	-0.49084	-0.474611	0.151253
-1.08891	1.530739	9.718074	17.998061	0.029364	4.763464	0.20819	-0.169097	-1.079202	0.06057	-0.169917	20.435608	45.879875	-192.088231	-13.668727	-0.353793	0.15032	-1.069835	11.768341	4.293102	-0.897838	-11.276424	-8.248034	4.002505	-0.519353	-0.522771	0.138096
-0.634499	0.380612	9.494744	9.645292	-1.14921	2.284305	0.22231	-0.169472	-1.079551	0.219862	-0.114432	19.816247	62.906547	-218.198451	-15.763959	-0.341188	0.134003	-1.054758	11.199649	4.531701	0.290284	-7.682106	-9.548676	-2.086364	-0.519357	-0.5041	0.090675
-1.432638	0.267033	9.649231	3.266587	-1.198232	1.289839	0.250937	-0.183992	-1.076834	0.714181	-0.961355	18.636984	61.860274	-237.398593	-16.232897	-0.407248	0.12934	-0.99598	9.911852	3.781661	0.742116	-3.692948	-9.501393	-11.20829	-0.505236	-0.506374	0.137329
-1.087009	0.439591	9.770342	5.353626	-0.696443	1.261319	0.193698	-0.172251	-1.064777	1.164372	1.910449	18.422516	65.382271	-256.414479	-12.842909	-0.407393	0.158909	-0.983637	8.795332	3.146132	0.898208	-1.858358	-7.540608	-16.81667	-0.505169	-0.488529	0.105436
-1.207334	0.783117	9.485298	7.900272	-0.317521	1.413485	0.220796	-0.148986	-1.058231	0.202801	-0.286471	16.305658	87.185938	-266.22096	-15.88213	-0.472649	0.081932	-0.977241	8.211213	2.916414	1.18575	-1.802819	-4.451703	-16.770494	-0.490978	-0.49163	0.167618
-0.912853	0.210183	9.886424	5.17789	0.499852	1.403937	0.180692	-0.161291	-1.106656	-0.589115	3.771689	17.311661	52.900576	-281.057143	-11.772015	-0.448098	0.092043	-0.907047	8.013526	2.79597	0.043723	-0.962791	-1.696438	-13.761329	-0.519841	-0.554329	0.124242
-1.20028	0.267591	9.824245	4.198722	1.022928	0.955241	0.221539	-0.141929	-1.086383	0.591276	0.331888	15.691607	71.40054	-272.657838	-1.500611	-0.500227	0.045781	-0.902933	8.077079	2.738747	0.284204	-0.50277	-0.04116	-10.989947	-0.491608	-0.521536	0.122709
-1.258606	0.209949	9.766037	4.017831	1.451618	1.024065	0.207047	-0.145083	-1.071958	1.63807	4.501502	19.283962	102.325444	-251.56448	2.987978	-0.475312	0.012075	-0.858428	7.830145	2.678739	-0.319514	-0.303077	0.179949	-8.638569	-0.53347	-0.539167	0.138863
-0.922216	0.84011	9.434253	2.608058	1.351102	1.179828	0.209304	-0.158512	-1.12143	-2.816043	-0.737275	9.618	180.070717	-256.846063	-10.227028	-0.489243	0.053673	-0.803764	7.781283	2.100092	0.156168	-1.342946	-0.181425	-6.58549	-0.506071	-0.571144	0.140677
-1.153586	1.012118	9.316817	2.300393	1.259215	1.025881	0.193655	-0.120353	-1.117252	-3.146376	1.745057	13.236559	86.189846	-237.633962	10.78961	-0.515791	-0.00883	-0.784849	7.89837	2.506354	0.160099	-3.204	0.395229	-3.830958	-0.491395	-0.524015	0.169292
-1.317264	0.61184	9.709759	2.023887	1.228586	0.903509	0.236045	-0.156075	-1.083316	-2.725862	-2.714918	2.881063	230.577307	-211.646965	-6.06907	-0.50348	-0.026219	-0.755421	8.252061	2.679772	0.167444	-5.49285	1.180363	-0.678496	-0.519077	-0.488733	0.105366
-1.08342	0.095666	9.939454	4.165335	0.842914	0.553731	0.208561	-0.165569	-1.093278	-9.217935	-5.075393	-4.956894	173.562184	-152.787006	7.263334	-0.517122	-0.043759	-0.725443	8.896182	3.432533	0.003042	-7.021879	1.554517	1.067343	-0.505516	-0.52174	0.122638
-1.146573	0.554033	9.656005	6.278565	0.669092	0.483487	0.209676	-0.154984	-1.135506	-9.843567	-6.026869	0.690544	57.760932	-105.003004	15.876196	-0.568731	-0.042987	-0.738689	9.553718	2.677543	0.371374	-8.046212	1.532877	-0.151364	-0.505449	-0.503895	0.090746
-1.200777	0.956889	9.82714	7.042487	0.397474	0.354202	0.235659	-0.142304	-1.086732	-5.342731	-4.063138	1.466174	37.847173	-71.072884	10.000781	-0.518013	-0.107184	-0.692729	9.310085	2.618276	-0.052623	-10.188131	1.24234	-2.373287	-0.519282	-0.523597	0.153624
-0.922299	0.954993	9.434736	7.070251	0.061652	0.164657	0.20779	-0.138027	-1.10011	-10.403947	-3.656766	4.304172	-24.70574	-17.233517	17.853798	-0.543664	-0.046052	-0.696192	9.61509	3.084682	0.553926	-12.450452	0.573252	-3.523262	-0.519495	-0.521118	0.10704
-1.429629	0.727289	9.821721	6.426265	0.091118	0.01365	0.208947	-0.17934	-1.089862	-8.281552	-2.644658	6.784049	-23.224541	22.053055	24.041586	-0.542929	-0.073478	-0.737234	9.670515	2.735102	0.313915	-14.527495	-0.188827	-4.490084	-0.518869	-0.472541	0.104529
-0.975882	0.496226	9.602251	5.659381	-0.004308	-0.016361	0.22231	-0.169472	-1.079551	-7.31925	-1.461734	8.843413	-13.321902	43.842833	34.933427	-0.543664	-0.046052	-0.696192	9.842601	2.501156	0.016693	-15.893413	-0.610609	-5.583343	-0.547031	-0.50616	0.121591
-1.033343	0.783475	9.602344	3.546404	-0.019048	0.418832	0.20819	-0.169097	-1.079202	-5.927868	-3.043675	6.493445	10.048552	55.47599	40.401613	-0.529878	-0.058082	-0.738513	10.258361	3.256189	0.267238	-16.091303	-1.052462	-7.291951	-0.519983	-0.552677	0.093187
-1.088039	0.324467	9.713007	2.260354	0.096826	0.516421	0.194055	-0.151423	-1.096345	-4.405271	-3.55484	4.996389	1.859706	65.277479	44.315536	-0.503926	-0.057932	-0.739064	9.893779	2.557367	-0.401307	-16.841179	-1.098334	-9.030986	-0.505516	-0.52174	0.122638
-1.606012	0.956214	9.591933	2.384714	0.373985	0.520567	0.194084	-0.186022	-1.061361	-4.242054	-4.287887	4.489643	-17.686085	75.401956	42.304042	-0.490574	0.018745	-0.744358	9.720728	2.732989	-0.164239	-17.928718	-1.427663	-10.095095	-0.491679	-0.52071	0.107181
-1.086061	0.669598	9.828161	3.15015	0.317142	0.425437	0.193326	-0.175779	-1.050701	-3.725174	-4.288904	4.443884	-46.662174	87.289209	38.20604	-0.477604	-0.04139	-0.754969	9.958588	2.907171	-0.039282	-18.770271	-2.096368	-10.791743	-0.519562	-0.538963	0.138933
-0.973821	0.726475	9.716923	4.404902	0.23429	0.113799	0.194055	-0.151423	-1.096345	-3.3515	-3.274416	5.867981	-70.070556	99.862678	33.564447	-0.449585	-0.033736	-0.855969	9.550437	3.141657	0.253538	-19.727651	-2.220901	-10.909923	-0.505236	-0.506374	0.137329
-1.259021	0.784365	9.76845	5.384498	0.179491	-0.073919	0.207847	-0.207224	-1.030143	-3.099995	-2.372658	6.949728	-79.997663	115.674403	28.287718	-0.411097	-0.005014	-0.830104	9.548331	2.153375	0.009708	-20.281442	-2.225104	-10.693975	-0.53347	-0.539167	0.138863
-1.319367	0.439033	9.595329	6.303721	0.059118	0.074819	0.179934	-0.151048	-1.095996	-2.966623	-2.428493	7.801692	-79.601357	129.432282	24.232107	-0.396941	-0.000652	-0.887778	9.668179	2.792683	0.194349	-21.236749	-1.980991	-10.966723	-0.546681	-0.49162	0.151809
-1.143647	1.129172	9.828978	6.668983	-0.119732	-0.266487	0.193341	-0.193078	-1.033209	-2.09662	-1.415828	8.217157	-75.541508	142.161464	20.446713	-0.370983	0.059708	-0.877995	9.562096	2.388894	0.789486	-22.039286	-1.485307	-11.852424	-0.547169	-0.523179	0.137956
-1.428225	0.325439	9.876885	7.067895	0.037179	-0.387757	0.194041	-0.134124	-1.113837	-1.688072	-1.810706	8.451846	-73.228093	153.555398	15.875935	-0.369577	0.109957	-0.938405	9.676402	2.097254	0.550823	-22.809813	-0.712315	-12.922917	-0.51977	-0.555156	0.13977
-1.32436	1.184808	9.371054	7.370999	-0.295965	-0.700724	0.206675	-0.148611	-1.057882	-0.941147	-1.699494	8.411017	-75.5899	164.09976	10.244811	-0.317823	0.079616	-0.9375	9.496342	2.445621	0.429192	-23.951627	-0.279656	-13.745956	-0.519912	-0.553503	0.108714
-0.848343	0.95857	10.288646	7.124243	-0.449031	-0.855842	0.236059	-0.173374	-1.065825	-0.464585	-1.868731	9.15686	-80.923505	174.122173	3.619665	-0.304182	0.097156	-0.967479	9.444759	2.563639	0.847934	-25.087362	0.38984	-13.806157	-0.533891	-0.552881	0.093116
-1.135355	0.441563	10.224054	7.583943	-0.446884	-0.85713	0.194455	-0.182493	-1.075437	-0.579046	-1.586816	9.211319	-86.600881	183.862991	-2.854327	-0.226546	0.111854	-0.955787	9.318329	2.387703	0.365736	-26.378703	0.937371	-13.95689	-0.506004	-0.553299	0.108785
-1.258855	0.554598	9.767485	7.36911	-0.572204	-0.735876	0.208976	-0.213938	-1.054879	-0.852559	-0.853363	9.942206	-89.604157	192.617885	-8.010309	-0.212609	0.130465	-1.000116	9.025719	2.272721	0.479553	-26.784176	1.131131	-15.087041	-0.505933	-0.554125	0.124312
-1.371634	1.244462	9.881859	6.786975	-0.512764	-0.794571	0.207833	-0.189925	-1.047634	-0.487501	-1.022243	10.855551	-91.384966	200.487304	-11.26277	-0.134452	0.192197	-1.005785	9.383657	2.040348	0.664888	-26.851186	0.985842	-15.850083	-0.478047	-0.554543	0.139981
-0.970397	0.612315	9.886999	6.327512	-0.515606	-0.731958	0.223082	-0.197014	-1.07272	-0.830907	-0.796179	10.961766	-93.279864	206.900041	-12.125273	-0.133937	0.179021	-1.033481	9.324641	2.040483	0.663787	-26.738855	0.510407	-17.162251	-0.519979	-0.571348	0.140607
-0.90799	1.187895	10.174792	6.329215	-0.364032	-0.545491	0.208947	-0.17934	-1.089862	-0.642819	-0.626895	11.70185	-96.15711	211.544271	-11.403148	-0.082253	0.193569	-1.021238	9.269757	2.157759	0.902809	-25.732507	-0.458492	-17.772444	-0.506563	-0.584032	0.079403
-1.374602	0.726765	9.709128	5.961409	-0.334322	-0.605286	0.207804	-0.155326	-1.082618	-0.285362	-1.24675	12.218338	-101.091564	214.957095	-8.999423	-0.068762	0.180468	-1.049209	8.911953	2.332056	0.717227	-24.301318	-1.816557	-19.054599	-0.492376	-0.568461	0.094164
-1.191786	0.843936	10.281482	5.351034	-0.031603	-0.445269	0.180706	-0.178591	-1.089164	0.134436	-0.570827	13.076964	-106.228167	217.194509	-5.189476	-0.015967	0.244193	-1.083026	8.977552	1.868548	1.015884	-22.863791	-2.969315	-19.482118	-0.505933	-0.554125	0.124312
-1.20288	0.784082	9.71271	5.992656	-0.335917	-0.452061	0.223454	-0.193485	-1.086796	0.385463	-0.683113	14.044578	-109.506496	219.99054	1.093804	0.061298	0.2425	-1.055981	8.860485	1.927142	1.073838	-20.927393	-4.224035	-18.749746	-0.464139	-0.554339	0.140051
-1.436559	1.07049	9.48205	6.20892	-0.120835	-0.357184	0.194069	-0.168722	-1.078853	1.271482	-0.458507	15.139054	-111.910182	223.903833	11.489205	0.048913	0.244569	-1.084405	8.51189	1.929188	1.366769	-19.117617	-5.472885	-18.628108	-0.464698	-0.585072	0.110669
-1.029014	0.956765	9.830481	5.932301	-0.151116	-0.51022	0.181106	-0.209661	-1.068256	2.368097	-0.066099	15.332274	-108.674693	226.828385	24.808319	0.062334	0.276356	-1.101038	8.980178	2.15967	1.196841	-18.197735	-6.577674	-17.953882	-0.492722	-0.601672	0.111366
-1.086102	0.72704	9.828402	6.389832	-0.393087	-0.66881	0.194427	-0.147895	-1.110421	3.764491	0.154869	13.3803	-108.412524	219.204865	34.567364	0.152576	0.274738	-1.074268	8.688534	2.103011	1.370812	-20.074946	-7.211962	-16.416123	-0.493073	-0.616212	0.081148
-1.201725	0.726882	9.769322	6.725934	-0.26337	-1.127691	0.20859	-0.200167	-1.058295	8.77569	0.711324	16.37336	-164.497259	206.419853	45.370636	0.14034	0.307447	-1.104699	8.042907	1.524231	1.476049	-20.816271	-7.988151	-15.554084	-0.491675	-0.539381	0.154601
-1.433135	0.956331	9.652127	7.032172	-0.355178	-1.03806	0.208947	-0.17934	-1.089862	12.453691	2.283922	18.999631	-145.236166	191.61259	38.147646	0.217756	0.336395	-1.079661	8.402776	1.408505	1.781692	-20.011777	-9.387884	-13.013888	-0.50628	-0.587337	0.141514
-1.319616	0.783682	9.596777	5.866304	-0.294284	-1.463069	0.207833	-0.189925	-1.047634	16.573254	2.782189	17.954308	-130.809026	172.723246	22.58705	0.218277	0.383428	-1.097022	7.992694	1.526343	1.954204	-18.247819	-10.698079	-9.927457	-0.506422	-0.585684	0.110459
-0.974111	1.128565	9.718612	6.603337	-0.170009	-1.279161	0.236831	-0.200916	-1.058993	20.507624	4.125309	16.396312	-125.990509	151.086175	0.672078	0.295021	0.334701	-1.052616	7.57655	1.410395	1.766286	-16.415284	-11.7728	-5.925482	-0.534934	-0.633843	0.097302
-1.308522	0.843536	10.165549	8.93091	-0.06068	-1.836113	0.236831	-0.200916	-1.058993	65.295191	72.866021	4.772626	-584.656632	103.767071	84.58626	0.308669	0.41245	-1.07226	8.101923	1.524096	1.47715	-14.451148	-12.39709	-1.070254	-0.520538	-0.602081	0.111226
-0.960873	1.303785	10.401573	12.891041	0.751939	-1.40495	0.237203	-0.197388	-1.073069	33.368946	-7.397162	8.673668	378.85441	18.626521	-120.300272	0.373404	0.442394	-1.061296	8.638051	2.221276	1.849462	-12.211707	-12.146918	2.129556	-0.506422	-0.585684	0.110459
-1.202921	0.841523	9.712951	13.903099	0.817082	-1.314801	0.223096	-0.214313	-1.055228	38.056132	12.314593	14.394299	-148.007757	-3.452703	-59.545298	0.295988	0.413447	-1.086334	9.102477	2.218465	1.438917	-15.162307	-11.181605	2.410707	-0.478535	-0.586102	0.126127
-1.068452	0.960666	10.739017	17.808705	1.578168	0.925087	0.236817	-0.183617	-1.076485	36.89409	10.344611	13.688786	280.454787	-26.757375	-170.603553	0.283678	0.430836	-1.115761	9.151859	2.099953	0.900361	-17.034362	-10.242363	2.626949	-0.478114	-0.572388	0.171873
-0.695276	1.541347	12.283144	7.052707	6.633031	0.700857	0.166986	-0.209286	-1.067907	35.154401	13.840099	13.372261	81.203558	-43.695525	-138.819338	0.309109	0.383953	-1.098952	9.747793	1.983687	1.210405	-16.958133	-8.779605	3.169836	-0.506977	-0.635088	0.128498
-0.150378	2.179344	13.830853	15.48684	30.898944	-5.430708	0.221967	-0.207599	-1.030492	17.201981	16.406737	10.902759	329.373901	-24.213352	-159.690968	0.282196	0.365267	-1.054348	9.854031	2.794256	0.676905	-15.690375	-7.540193	2.059042	-0.548421	-0.620334	0.142978
-1.297677	1.24804	10.735769	7.764339	38.503566	-9.793254	0.222325	-0.186771	-1.06206	-1.083482	-4.636851	-1.218973	211.386834	-46.699388	-92.389675	0.283296	0.294024	-1.121078	10.382476	3.954561	0.691754	-13.858482	-6.160965	2.412585	-0.492234	-0.570114	0.12522
-0.421843	1.723156	14.562446	-2.057601	53.161741	-13.759166	0.238374	-0.256001	-1.04533	-8.270662	-3.428185	12.614846	-95.477915	-45.422032	-34.551149	0.257269	0.278554	-1.119523	11.445097	5.230545	0.896722	-11.785222	-4.146455	6.491033	-0.520326	-0.604559	0.157809
-0.892411	0.571761	13.866474	4.336355	73.178632	-17.654045	0.264701	-0.205194	-1.045615	-1.256557	-2.204684	9.762687	5.247004	-58.829049	-2.512535	0.230946	0.262011	-1.103618	11.198913	3.427514	0.105866	-9.851766	-5.209124	6.397408	-0.562471	-0.618885	0.111852
-1.406422	0.34261	13.912341	11.447728	92.75336	-17.632288	0.20899	-0.231238	-1.037387	0.023023	5.846963	8.437923	-158.672798	-8.024611	23.726022	0.229916	0.288365	-1.048227	10.620525	2.15317	0.568678	-11.533507	-4.127502	1.783192	-0.520467	-0.602907	0.126754
-1.0999	0.059537	14.940057	12.110478	108.860727	-15.348003	0.251337	-0.215062	-1.055926	0.870069	0.776941	9.923209	4.401497	-9.862666	11.630561	0.218051	0.337467	-1.094011	11.167367	2.504119	1.478669	-11.638581	-1.430444	1.220562	-0.478948	-0.637158	0.175222
-0.781958	0.927949	16.597984	26.304643	129.2664	-15.517106	0.293342	-0.237013	-1.025406	1.302704	1.451001	8.687378	-27.015423	-10.986193	0.495865	0.230657	0.321149	-1.078933	10.884256	2.56559	2.132389	-10.237909	0.322466	6.708615	-0.492514	-0.58548	0.110529
-0.981368	1.566486	18.131218	27.577407	150.98695	-15.167535	0.291813	-0.199229	-1.021578	0.240298	-1.02445	9.908393	-25.507338	-9.376801	-3.556216	0.205295	0.323143	-1.107081	11.011808	3.206629	2.736379	-6.669145	1.53327	9.165661	-0.492581	-0.603325	0.142422
-0.352144	0.819049	18.083476	44.432664	174.950707	-14.120893	0.306719	-0.244445	-0.997604	0.023034	-0.234823	10.583897	-25.768522	-7.029739	7.503412	0.257049	0.292802	-1.106177	10.181315	3.149454	2.481098	2.403616	4.189978	6.797193	-0.520538	-0.602081	0.111226
-0.901139	0.594763	19.265291	48.779711	197.308032	-12.144229	0.348681	-0.214498	-1.019559	1.90091	-0.858916	9.547117	-11.830682	-6.891947	4.094038	0.217826	0.291505	-1.091	10.048997	3.611366	1.761992	12.772364	7.098633	4.178365	-0.506071	-0.571144	0.140677
-0.503367	0.134217	19.100596	61.287158	219.919929	-7.794687	0.405949	-0.260838	-0.996632	1.111703	-0.744082	10.323241	-12.963359	-6.565772	-1.113594	0.25735	0.354084	-1.110192	9.336807	3.437769	1.508417	18.089882	10.35152	2.034693	-0.478531	-0.604773	0.173548
-1.63992	0.65395	19.535323	76.304993	238.316881	-4.594429	0.462445	-0.279635	-0.980537	0.667865	-1.249578	11.049458	-2.109442	-5.69019	-1.404435	0.205365	0.278254	-1.11842	9.024139	3.899344	0.60629	16.733456	13.485489	3.186063	-0.534029	-0.5699	0.109481
0.069354	0.523548	16.215026	100.652562	257.069889	-4.727491	0.460916	-0.241851	-0.976709	0.934602	-0.969271	10.092867	7.002838	-5.696416	-1.520477	0.20485	0.29143	-1.090724	9.247133	3.837761	-0.108439	11.205804	16.251537	8.908416	-0.506977	-0.635088	0.128498
-1.720009	0.521697	15.441417	87.161261	267.974448	-2.517763	0.547569	-0.312953	-0.961725	1.035789	-0.632025	9.472533	-1.253834	-6.415602	-1.349304	0.218121	0.292577	-1.10535	9.167189	3.368343	-1.309655	5.223308	17.663046	12.34668	-0.492447	-0.567635	0.078636
-0.881716	0.27438	11.478552	64.021777	276.448387	4.280312	0.587687	-0.317947	-0.895809	0.988564	-0.349838	9.981318	-6.507985	-6.607519	-0.954675	0.230582	0.305829	-1.07793	8.33409	3.484902	-1.684008	0.087646	17.246203	15.393332	-0.520259	-0.586714	0.125916
-1.487424	2.660419	18.637459	80.247153	254.11204	-1.343309	0.588073	-0.331718	-0.892393	0.991952	-0.856718	10.09417	-1.375771	-6.236796	-0.792719	0.243853	0.306976	-1.092555	8.499979	3.075245	-2.341413	-5.030868	14.52685	19.245739	-0.519703	-0.537311	0.107877
-0.976712	2.831406	18.420792	152.821073	238.958086	-2.780275	0.60035	-0.367034	-0.80487	1.158927	-1.02627	9.814457	3.235741	-5.562455	-1.183068	0.218347	0.338539	-1.108361	8.681024	3.250057	-2.097742	-10.601021	10.26064	21.670573	-0.492372	-0.587132	0.141585
-0.31217	0.433221	8.421457	224.525936	215.560117	-16.954253	0.685073	-0.369281	-0.806966	1.164325	-0.688049	10.097939	4.293259	-4.996538	-1.269074	0.243708	0.336545	-1.080213	8.856681	2.900701	-2.215738	-15.543463	5.227366	21.590228	-0.506489	-0.603529	0.142352
2.58538	-1.259928	16.029126	201.290284	193.673947	-13.900186	0.698479	-0.411311	-0.744179	0.933286	-0.912988	10.036274	2.598586	-4.679766	-1.421428	0.230877	0.306901	-1.09228	8.743071	3.366816	-1.916427	-19.162953	0.390744	20.709385	-0.492443	-0.586306	0.126057
7.032795	-3.14291	6.332865	255.743636	178.6245	-26.846675	0.697736	-0.418368	-0.716028	1.047877	-0.631551	10.038929	3.22422	-4.058813	-1.383922	0.244148	0.308048	-1.106905	9.570803	3.190945	-1.841855	-21.07731	-3.588198	20.307362	-0.506142	-0.570318	0.12515
10.938139	-4.042216	-1.778542	208.785181	129.188739	-58.620665	0.768753	-0.46861	-0.679374	0.644357	-0.968827	9.973543	5.178939	-3.360281	-1.252092	0.217976	0.322146	-1.093007	10.058493	3.600105	-0.932718	-22.297899	-5.793326	20.16947	-0.520188	-0.587541	0.141444
8.518159	-5.997106	-2.686309	135.028027	68.941405	-94.488233	0.782531	-0.507112	-0.630664	1.052928	-0.744022	10.265393	6.732652	-2.634974	-1.305286	0.230512	0.350718	-1.066591	10.177606	3.135227	-0.932495	-23.564569	-6.941617	21.341122	-0.505933	-0.554125	0.124312
7.017683	-6.260958	2.511791	77.77689	17.589434	-107.064802	0.795894	-0.497244	-0.620353	1.214961	-0.857433	9.759168	8.59369	-2.028612	-1.328587	0.217756	0.336395	-1.079661	10.48151	3.601385	-0.385853	-24.211402	-7.379744	22.079193	-0.520121	-0.569696	0.109552
5.564327	-5.735187	4.304311	6.516615	-13.542222	-109.483245	0.781016	-0.486627	-0.609344	1.104557	-0.800697	9.983356	9.742656	-1.553728	-1.384597	0.244073	0.292727	-1.105901	10.662826	3.660045	-0.142677	-23.72454	-7.552042	21.161207	-0.505658	-0.520088	0.091583
4.801198	-4.979423	6.281717	0.694101	-27.140362	-110.853751	0.822992	-0.473979	-0.613807	1.103002	-1.251436	9.869698	9.930779	-1.365171	-1.721678	0.204259	0.289287	-1.062025	10.5496	3.487076	0.094008	-21.421246	-7.060948	18.827369	-0.533682	-0.536689	0.092279
4.133649	-4.227843	7.294848	-8.100676	-34.828985	-106.012696	0.767639	-0.479195	-0.637146	0.649755	-0.630607	10.257025	10.116758	-1.359599	-2.214721	0.218196	0.307898	-1.106354	10.198514	3.139924	0.205736	-18.412198	-6.312509	15.511652	-0.520259	-0.586714	0.125916
2.750428	-3.94157	6.814506	-3.939279	-41.676926	-96.837995	0.779888	-0.479912	-0.584608	0.984699	-0.857002	9.754333	9.931714	-1.303036	-1.844372	0.231172	0.307973	-1.106629	10.090251	3.200495	0.742945	-16.116738	-6.116893	12.170681	-0.547586	-0.555564	0.13963
2.564313	-4.116907	6.071352	-4.253422	-51.799734	-82.672038	0.779845	-0.428014	-0.637083	1.156102	-0.181359	9.758529	8.729966	-1.101855	-2.12079	0.192835	0.309891	-1.134502	9.433795	3.490877	0.372635	-13.32467	-5.801562	9.255341	-0.506142	-0.570318	0.12515
1.481099	-4.344921	6.276642	-11.467954	-65.199029	-64.398845	0.793222	-0.435445	-0.60928	0.645913	-0.518088	10.087201	7.181956	-1.367982	-1.939714	0.230286	0.304757	-1.06358	9.315203	3.258596	0.309538	-9.717586	-4.856749	7.862342	-0.5341	-0.569074	0.093954
1.598202	-3.310332	6.453772	-21.876088	-80.946332	-43.794537	0.765724	-0.427639	-0.636734	1.101709	-0.57547	9.870267	6.32127	-1.041439	-1.967987	0.20463	0.305679	-1.077378	9.425802	3.140443	-0.108104	-6.701256	-4.525496	6.443863	-0.505725	-0.537933	0.123475
1.036793	-3.307505	7.011168	-30.85123	-97.700704	-23.366608	0.765367	-0.448467	-0.605166	1.45226	-0.744919	10.103937	6.632775	-0.852321	-2.150824	0.217606	0.305754	-1.077654	9.487579	3.373354	0.073706	-3.714742	-4.134122	5.116914	-0.51977	-0.555156	0.13977
0.882099	-2.269573	7.921821	-34.28643	-114.187587	-5.375587	0.79508	-0.417804	-0.67966	1.163786	-0.406397	10.098177	7.746452	-0.744404	-2.426306	0.204555	0.290358	-1.076375	9.598449	3.139049	-0.34443	-2.240632	-3.869274	3.673805	-0.519495	-0.521118	0.10704
0.487626	-1.750862	8.257317	-35.976077	-129.002628	9.538389	0.709585	-0.388014	-0.684396	1.277254	-0.801021	9.986983	9.263332	-0.479877	-2.422456	0.192244	0.307748	-1.105802	9.070449	2.734227	-0.236251	-1.316203	-3.616509	3.210795	-0.519566	-0.520292	0.091512
0.371506	-1.061722	8.201132	-37.695299	-141.410285	20.902567	0.72522	-0.408874	-0.706066	1.270563	-0.463275	9.70407	10.16067	-0.346454	-2.327923	0.20544	0.293574	-1.119424	8.772493	3.024788	-0.360331	-0.977208	-3.956494	3.669646	-0.505795	-0.537107	0.107948
0.251762	-1.522377	7.91271	-42.204417	-151.419261	28.38818	0.737069	-0.378521	-0.674435	0.926595	-0.575242	9.753361	10.656711	-0.187864	-2.171807	0.231247	0.323293	-1.107633	8.826391	2.384333	-0.721391	-0.268457	-3.984217	3.636648	-0.505587	-0.520914	0.10711
0.030124	-0.946107	8.30864	-49.714174	-158.697571	32.492333	0.710328	-0.380958	-0.712548	0.819926	-0.574694	10.14742	11.370987	0.126995	-2.04479	0.204259	0.289287	-1.062025	9.132767	2.734834	-0.05543	0.967177	-3.580552	3.477427	-0.547799	-0.553085	0.093046
-0.4789	-0.369871	8.642151	-56.976259	-163.978283	34.113875	0.654203	-0.358632	-0.742719	0.875505	-0.800219	10.03516	11.371806	0.188526	-2.075005	0.205735	0.294646	-1.133774	8.720889	2.67795	-0.003473	2.852202	-3.084997	3.529362	-0.505725	-0.537933	0.123475
-0.521761	-0.251811	9.38061	-63.530542	-168.355986	35.042816	0.641597	-0.378743	-0.76369	0.873972	-0.631275	9.978663	11.992778	0.441684	-2.071988	0.229766	0.257724	-1.046219	8.717588	2.677208	-0.183194	5.081689	-2.132537	3.883507	-0.533261	-0.522975	0.138026
-1.089686	-0.480197	9.595922	-68.272445	-171.733567	35.308228	0.598835	-0.346548	-0.78355	1.158843	-0.350256	9.871666	12.243115	0.690541	-2.130968	0.20441	0.319927	-1.064032	9.069329	2.269124	-0.358043	6.41347	-1.269697	3.721747	-0.519633	-0.538137	0.123405
-1.027196	-0.0195	9.883232	-73.62968	-175.42159	35.570369	0.612584	-0.350451	-0.769823	1.279025	-0.462943	10.100547	12.39797	0.751818	-1.821955	0.244073	0.292727	-1.105901	8.89309	1.921073	-0.362827	7.093508	-0.711607	3.227601	-0.533749	-0.554534	0.124172
-1.015113	0.21292	10.509581	-78.18869	-178.482867	35.135178	0.557202	-0.321069	-0.828146	0.754807	0.213804	9.863677	12.056316	0.537482	-2.533404	0.231242	0.263083	-1.117968	8.599671	2.154547	-0.247527	7.990229	-0.21644	2.977481	-0.560939	-0.506364	0.12152
-1.066267	1.01859	10.852964	-81.030266	-180.284427	32.814473	0.527061	-0.286063	-0.809543	0.63702	-0.293098	9.690914	12.301158	0.385482	-2.257267	0.204775	0.27611	-1.089721	9.307594	2.269079	-0.233827	8.57557	0.531794	1.810379	-0.505795	-0.537107	0.107948
-1.347795	0.617672	11.07312	-83.564189	-180.866021	28.826224	0.557202	-0.321069	-0.828146	0.300544	0.102242	10.137109	11.529737	0.437616	-2.349853	0.218341	0.278329	-1.118696	9.011278	2.327583	-0.298989	9.28387	1.125949	0.796393	-0.519424	-0.521945	0.122568
-1.454018	1.481308	11.529337	-87.325084	-180.230624	22.806713	0.430846	-0.293342	-0.870647	1.101947	-0.068448	9.927333	10.204621	0.666886	-2.471951	0.21738	0.259793	-1.074643	9.132861	1.747047	-0.179447	9.283122	1.841492	-0.368411	-0.547307	-0.540198	0.15432
-1.395733	1.596391	11.587787	-90.905473	-178.519513	14.228067	0.430818	-0.258743	-0.905631	1.505444	-0.350855	9.935559	11.414821	1.139728	-2.09634	0.20529	0.262933	-1.117417	9.12902	1.978609	-0.358178	8.882657	2.336107	-1.011138	-0.547311	-0.521527	0.1069
-1.27809	1.884239	11.761779	-96.282998	-174.31505	4.743966	0.430075	-0.2658	-0.877479	0.416537	-0.348618	10.139148	11.782647	0.87167	-2.591957	0.218196	0.307898	-1.106354	9.244406	1.222362	-0.598819	8.203721	2.707366	-1.652265	-0.491537	-0.522363	0.138236
-1.841644	1.7717	12.204987	-105.629283	-168.02056	-3.529902	0.358314	-0.222614	-0.88598	1.679026	-0.18214	9.995967	10.823295	0.707604	-2.810156	0.218416	0.293649	-1.1197	9.192013	1.688836	-0.178593	8.105943	2.59287	-2.445986	-0.561218	-0.521731	0.10683
-3.145839	2.752055	12.865716	-115.546326	-162.798725	-6.974153	0.34378	-0.173869	-0.92403	1.326057	-0.012786	9.649018	9.616448	0.595895	-2.134023	0.231097	0.292652	-1.105626	9.188441	1.804246	-0.35782	8.663039	2.901396	-2.5106	-0.519633	-0.538137	0.123405
-4.560047	3.676016	13.751389	-119.369645	-157.297842	-5.432362	0.316667	-0.179835	-0.948068	0.70635	-0.12374	10.258661	10.946047	0.647641	-2.779825	0.191943	0.246466	-1.101788	9.064481	1.512653	-0.720698	8.26408	2.989518	-2.29564	-0.533194	-0.50513	0.106133
-6.318066	3.451153	14.568702	-117.639031	-148.5794	-0.603453	0.329259	-0.142424	-0.944589	0.58563	0.2706	10.030017	12.896264	1.036689	-2.219485	0.243998	0.277407	-1.104898	9.188421	1.339391	-0.419704	7.564453	3.217187	-0.888318	-0.533678	-0.55536	0.1397
-7.177463	4.255956	14.555378	-110.349931	-135.216777	6.431454	0.288783	-0.158258	-0.978937	0.761714	-0.236603	10.146496	12.027529	0.719871	-2.346646	0.20507	0.277182	-1.104071	9.131045	1.107469	-0.361887	6.341949	3.564701	0.581467	-0.505374	-0.523393	0.153694
-9.122259	4.774822	14.633397	-101.448973	-118.672519	12.80781	0.272391	-0.127155	-0.946608	0.645613	0.270587	10.144505	13.482603	1.09822	-1.108593	0.231612	0.279476	-1.133322	8.653299	1.630244	-0.608093	4.589896	3.547978	1.596476	-0.533052	-0.506782	0.137189
-10.683759	4.830005	13.807631	-93.845755	-102.828576	17.949715	0.299846	-0.083063	-0.97163	0.878269	-0.349432	10.205459	13.336171	1.739413	-0.979023	0.204775	0.27611	-1.089721	9.012858	0.700959	-0.425725	3.211294	3.712343	2.976039	-0.533123	-0.505956	0.121661
-11.605439	4.886903	13.505791	-86.580838	-90.027605	20.068616	0.230001	-0.091433	-0.980544	0.884768	0.045166	10.545628	14.734438	2.400604	-0.909667	0.21782	0.231296	-1.101335	8.953572	0.817246	-0.426331	1.777228	3.957854	5.364045	-0.547381	-0.5207	0.091372
-13.287388	5.457937	12.395704	-78.30193	-80.772796	20.747096	0.230001	-0.091433	-0.980544	0.871124	-0.406048	9.865574	16.627671	3.100338	-1.086154	0.204404	0.259718	-1.074367	8.479917	0.527452	-0.556185	0.163717	4.223203	8.730728	-0.518869	-0.472541	0.104529
-14.733716	4.593972	11.568304	-68.140698	-73.804928	20.493751	0.244078	-0.039909	-1.033368	2.074037	-1.084562	9.550554	16.911537	3.363269	-3.241268	0.205215	0.247613	-1.116413	8.181265	0.643538	-0.740913	-1.047159	4.952317	11.757607	-0.547098	-0.524005	0.153483
-15.95907	4.072802	10.348834	-58.1017	-67.748766	21.943135	0.200974	-0.045842	-1.004169	0.876067	-0.462188	10.092085	6.548301	4.292069	-5.984046	0.204699	0.260789	-1.088717	8.185106	0.411975	-0.562181	-1.153336	5.633386	13.894362	-0.533123	-0.505956	0.121661
-16.885861	3.496638	9.760074	-50.834935	-59.973801	25.206888	0.229958	-0.039535	-1.033019	0.827549	0.495965	10.601438	13.881643	5.21913	-6.924586	0.204329	0.244397	-1.073364	8.597544	0.70141	-0.553242	-1.075241	5.881812	16.52162	-0.519703	-0.537311	0.107877
-22.865602	27.374774	18.098479	-196.914153	-6.627127	56.602147	0.186482	-0.048996	-0.989743	0.761953	0.270419	10.203562	13.489614	3.585807	-6.417072	0.231311	0.218194	-1.129307	9.073535	0.933623	-0.303822	-2.62425	6.142027	20.408048	-0.519144	-0.506578	0.137259
-17.625492	6.001119	4.243694	80.387474	15.34544	21.269474	0.187239	-0.059238	-1.000404	-1.0277	0.278291	15.317872	-17.878508	-6.556025	1.934533	0.231386	0.233514	-1.130311	8.546096	0.761352	-0.134747	-2.148316	6.056029	22.974461	-0.519566	-0.520292	0.091512
-20.444126	10.001722	12.446141	-16.254975	37.705539	39.848482	0.214723	-0.049745	-0.990442	1.307221	1.228206	11.574599	53.331096	-23.309819	-8.255469	0.192383	0.217969	-1.12848	9.612113	1.05029	0.125925	-3.367522	5.621132	26.160118	-0.56073	-0.490172	0.120683
-17.843665	6.405789	4.80946	82.638065	64.530594	23.62623	0.186467	-0.031696	-1.007235	0.405611	-1.588411	9.515069	5.49142	-29.674624	-0.064555	0.244067	0.232517	-1.116237	9.610297	0.410712	-0.056516	-3.612199	4.933385	27.509342	-0.533052	-0.506782	0.137189
-19.920373	7.532811	12.786904	98.59127	88.861527	14.347161	0.216252	-0.08753	-0.99427	0.822203	1.005134	13.092799	9.875781	-37.130378	-0.412602	0.179187	0.232142	-1.114858	10.02343	0.874623	0.013072	-2.394941	4.844146	24.723556	-0.518865	-0.491212	0.15195
-16.760453	15.263826	7.879878	93.256922	-8.134364	74.994865	0.229629	-0.094961	-0.966468	0.447967	-0.347385	11.611777	22.26373	-46.808453	-1.886105	0.217745	0.215975	-1.100332	10.141733	0.758201	0.014779	-2.346898	4.99447	22.032628	-0.532843	-0.49059	0.136352
-17.178753	9.585165	9.66638	268.098874	20.516801	45.863388	0.229615	-0.077662	-0.983959	1.032022	0.947566	12.134714	10.320849	-55.44346	0.885458	0.218115	0.232367	-1.115685	10.321853	1.8044	0.322065	-2.690442	5.312079	20.779064	-0.575055	-0.522761	0.122287
8.648929	18.045543	4.97602	174.161637	-8.092012	28.560333	0.244121	-0.091807	-0.980893	1.036056	0.102703	12.247281	16.892295	-65.757965	0.849876	0.204474	0.214828	-1.085706	11.131768	3.135292	-0.375726	1.997166	4.361175	16.731718	-0.533056	-0.488111	0.089768
1.4394	4.965475	7.451683	7.840501	-12.28463	13.117818	0.245322	-0.185018	-0.91817	0.764291	0.55455	13.034571	10.50664	-76.993445	3.815888	0.178371	0.184037	-1.083148	12.902874	4.758358	-0.096162	11.143873	-0.028384	15.466301	-0.532706	-0.473571	0.119987
0.741021	0.597279	6.680891	40.190423	5.934546	-2.74872	0.230815	-0.170873	-0.921237	0.851731	0.104937	14.394751	9.285679	-90.128811	6.982998	0.178007	0.227855	-1.057459	14.166092	3.482548	1.059739	-9.960664	-7.182911	28.660118	-0.532843	-0.49059	0.136352
-0.952369	2.499642	7.963071	-36.766219	7.860682	-6.206808	0.202946	-0.166595	-0.934614	1.896755	-1.36136	14.698476	20.305441	-107.977521	3.824131	0.152055	0.227705	-1.056908	11.877316	1.747511	1.48866	-16.952223	-9.060197	21.449554	-0.574571	-0.472531	0.08872
-2.137756	0.608319	8.727668	-71.955038	9.184629	0.8777	0.245693	-0.18149	-0.932246	2.14789	-1.529976	15.666043	22.161786	-125.138898	-0.537537	0.139374	0.228702	-1.070982	10.559943	0.93272	0.322758	6.953825	-8.515003	-5.322747	-0.532918	-0.471092	0.073403
-1.186959	0.327927	10.506723	-70.741975	5.723454	3.026022	0.218567	-0.170156	-0.973775	1.312583	-0.456894	17.0648	40.143366	-147.173137	-7.709078	0.138338	0.194845	-1.025925	10.242604	1.509458	-0.818503	8.812981	-9.208705	-2.667284	-0.546125	-0.442217	0.13377
-0.899201	-0.189013	10.566972	-58.101477	5.032559	-1.345734	0.217066	-0.16697	-0.934963	1.823418	-0.458149	16.735843	47.090821	-169.409864	-10.483072	0.125657	0.195842	-1.039999	10.701818	1.854114	-1.467192	4.98984	-8.405679	13.022135	-0.546547	-0.45593	0.088024
-1.646559	-0.591288	10.380248	-32.586252	4.530515	1.854146	0.23153	-0.129217	-0.984372	1.03013	-0.737818	17.285077	49.557724	-191.80097	-12.892233	0.061293	0.18229	-1.066316	11.047827	2.490657	-1.817311	2.309711	-7.702432	18.04142	-0.532847	-0.471919	0.088931
-1.631917	-0.817918	11.118373	-2.959936	2.423055	1.9493	0.24415	-0.126406	-0.945909	0.883705	-0.56746	18.527664	51.878813	-213.57852	-15.973573	0.008208	0.177702	-1.007814	10.752591	2.084552	-1.884451	-5.202651	-9.833634	17.46746	-0.518589	-0.457175	0.11922
-1.248378	-0.075087	10.276508	23.830005	3.096416	2.312471	0.244536	-0.140177	-0.942493	1.076305	-0.228994	19.494448	65.430702	-236.023921	-17.603592	-0.017964	0.191801	-0.993917	10.763075	2.784184	-1.222508	-10.412483	-12.465128	15.787143	-0.546684	-0.472949	0.104389
-1.155812	1.011635	9.203111	26.58667	3.144198	1.937301	0.203303	-0.145768	-0.966182	0.802145	0.842441	20.225619	66.505754	-256.024617	-18.633634	-0.044286	0.175258	-0.978012	11.408722	3.82782	-1.26586	-10.321859	-15.010346	13.50648	-0.545779	-0.409005	0.116568
-0.924485	0.897069	9.320789	12.35901	2.22636	1.165984	0.230029	-0.126031	-0.94556	0.463523	0.221305	17.78355	92.925105	-274.486894	-22.833966	-0.08366	0.143321	-0.960828	10.967695	4.184526	0.46412	-10.128241	-16.05394	10.973793	-0.518869	-0.472541	0.104529
-1.087998	0.267025	9.712765	3.072303	1.966144	1.341826	0.230044	-0.143331	-0.928068	2.466632	-0.627947	17.202115	75.477805	-285.913678	-14.268237	-0.110422	0.155275	-0.918231	10.213401	3.840545	1.107306	-7.488927	-15.745085	2.710331	-0.546614	-0.473775	0.119916
-1.25799	0.899489	9.825785	3.012418	2.243485	1.254502	0.230801	-0.153573	-0.938728	-0.679314	3.378539	18.441703	74.267114	-296.70161	-20.295081	-0.149205	0.125481	-0.929746	9.282057	3.496969	1.747192	-2.674935	-13.162205	-5.846367	-0.518309	-0.441808	0.13391
-1.321801	0.725758	9.48283	3.072829	2.277632	0.978874	0.231187	-0.167344	-0.935313	0.525718	-1.809038	15.1222	80.929559	-291.721624	-12.626	-0.202516	0.074932	-0.868233	8.984485	3.148446	1.560486	0.064748	-8.762998	-7.374786	-0.532493	-0.47605	0.16657
-1.145584	0.726599	9.713582	-1.186157	2.348546	1.114957	0.216294	-0.139428	-0.941795	3.84507	6.692861	17.74705	102.962159	-282.543317	-6.505797	-0.228908	0.103279	-0.84099	9.276265	3.147029	1.386267	3.270439	-3.340691	-4.142195	-0.545987	-0.425198	0.117405
-1.086061	0.669598	9.828161	-2.043264	2.278905	1.484304	0.230801	-0.153573	-0.938728	5.235713	-2.327661	11.993655	125.36116	-281.656496	-9.315103	-0.242549	0.08574	-0.811011	8.917476	2.798147	1.078647	10.253341	1.100156	-2.293827	-0.532217	-0.442013	0.13384
-1.084823	0.497515	9.88429	0.471319	2.380399	1.693389	0.244879	-0.10205	-0.991553	1.052671	-2.262704	12.811686	162.485826	-249.782239	-21.114685	-0.256932	0.035416	-0.750325	9.209795	2.564426	0.903439	14.587718	4.063032	-3.362778	-0.518589	-0.457175	0.11922
-1.318994	-0.077941	9.593157	3.445018	2.454351	1.808702	0.260542	-0.157509	-0.978239	2.446869	-2.546469	13.406858	112.272653	-242.546567	-9.029845	-0.336194	-0.015283	-0.688261	9.263984	2.272675	0.603769	15.5565	5.93595	-3.711406	-0.546405	-0.457583	0.119079
-0.970522	0.78464	9.887723	6.66087	2.256341	1.612221	0.230787	-0.136274	-0.95622	-1.463401	-1.417014	8.230455	182.66773	-241.100515	-27.547478	-0.336414	-0.001034	-0.674915	9.267981	2.447892	0.844138	14.095652	7.663894	-2.705813	-0.51866	-0.456348	0.103692
-1.663101	0.726489	9.589855	5.951394	1.515143	1.632885	0.260185	-0.178336	-0.946671	-11.045583	-5.134811	-12.411788	299.205586	-168.802415	-45.077044	-0.363031	-0.018649	-0.64466	9.144561	1.923994	0.480271	11.707135	8.989899	-1.603246	-0.490915	-0.455114	0.088305
-1.030044	0.84164	9.773145	5.087545	0.901717	1.165387	0.231558	-0.163816	-0.949389	-5.537634	-15.445671	-3.30355	25.872223	-99.26657	-13.194258	-0.376378	-0.035116	-0.629031	9.495782	2.21307	0.368296	7.835948	9.974087	-0.493669	-0.518105	-0.406945	0.085653
-1.152389	0.897476	9.373188	4.994687	0.872642	0.981175	0.245293	-0.15042	-0.953154	-3.452894	-0.344255	6.774263	18.46116	-28.100022	-32.90013	-0.363772	-0.051433	-0.613953	9.733913	2.2711	0.492759	6.566194	10.011165	-1.55894	-0.518451	-0.440156	0.102855
-0.574194	0.783385	9.668105	4.839955	0.657152	0.947451	0.258656	-0.140551	-0.942843	-9.158273	-8.845115	0.192923	33.751438	29.574692	-40.729823	-0.403296	-0.114012	-0.594762	9.494682	2.212823	0.308389	5.649656	8.90161	-4.025863	-0.559824	-0.426228	0.132863
-1.144346	0.554516	9.769712	4.350179	0.840991	0.79851	0.273548	-0.168468	-0.93636	-6.677011	-0.73258	6.649592	-53.386535	73.170356	-18.726286	-0.364293	-0.098466	-0.596593	9.613949	2.154724	0.37025	3.418298	8.480482	-5.482735	-0.504193	-0.425412	0.133144
-1.038129	1.242042	9.376863	4.656521	0.936703	0.615177	0.273148	-0.137398	-0.957268	-4.857042	-2.199234	8.215105	12.750812	87.758035	-16.894129	-0.337525	-0.050211	-0.628855	9.968357	2.967472	0.500127	0.852934	8.048364	-5.990928	-0.532221	-0.423341	0.08642
-1.262361	0.783641	9.597891	5.269934	1.032108	0.584294	0.245679	-0.164191	-0.949738	-4.140769	-1.863885	6.758475	1.627406	84.138959	-0.477167	-0.337971	-0.081924	-0.612498	9.603775	2.268651	-0.168418	-1.663415	7.267977	-8.300737	-0.531942	-0.407975	0.10111
-0.974851	0.61135	9.659587	4.258697	1.027038	0.61779	0.230801	-0.153573	-0.938728	-4.229511	-3.893052	5.113011	9.443815	85.299277	10.70055	-0.33701	-0.063388	-0.65655	10.015808	2.732314	-0.158737	-3.957863	7.191011	-10.522982	-0.518309	-0.441808	0.13391
-1.152306	0.782593	9.372705	2.328137	1.111262	0.532712	0.217423	-0.146142	-0.966531	-3.506223	-4.06444	3.939153	-15.518401	95.873392	23.024836	-0.310983	-0.047917	-0.658106	9.60144	2.326232	-0.287985	-6.131182	6.000931	-11.548479	-0.532989	-0.470266	0.057875
-1.081648	0.728005	10.055814	0.705825	1.285635	0.754891	0.23193	-0.160288	-0.963465	-3.899726	-3.950645	4.383902	-36.647607	111.358439	32.040898	-0.311133	-0.078558	-0.656098	9.481746	2.093704	-0.410988	-7.814685	4.260432	-12.420316	-0.546338	-0.439738	0.087187
-0.742576	0.726791	9.835083	1.226205	1.227299	0.691109	0.273162	-0.154697	-0.939776	-3.134644	-3.219038	5.249828	-55.808959	126.167183	40.312056	-0.285106	-0.063088	-0.657653	9.792929	2.270965	0.493859	-8.905573	2.509134	-12.041289	-0.504543	-0.439952	0.102925
-0.914381	0.784357	9.831984	1.744892	0.923457	0.592675	0.274691	-0.192482	-0.943605	-2.483076	-3.332174	6.112626	-66.474602	138.45557	47.362703	-0.284516	-0.060944	-0.686353	9.317768	2.155152	0.30484	-9.966285	1.100755	-12.275207	-0.518384	-0.422311	0.070962
-1.136717	0.78597	10.168648	2.418147	0.86688	0.436478	0.273548	-0.168468	-0.93636	-1.658357	-3.051271	7.036021	-68.23743	148.451758	51.962127	-0.270504	-0.027012	-0.731685	9.01678	2.328819	0.000545	-10.93068	0.368526	-12.787737	-0.532359	-0.44036	0.102785
-1.25539	0.382998	9.93732	2.508921	0.588985	0.58504	0.201402	-0.111511	-0.948277	-1.134093	-2.488651	7.387213	-70.168322	157.259234	55.223875	-0.244477	-0.011542	-0.73324	8.55359	2.273801	0.47075	-11.674141	-0.248446	-12.537622	-0.533056	-0.488111	0.089768
-1.150121	0.840517	9.486653	2.507524	0.56173	0.277922	0.243764	-0.112635	-0.949325	-0.783458	-3.334114	7.563674	-71.156222	164.62723	55.512244	-0.231281	-0.025716	-0.746862	9.437326	2.445756	0.428091	-10.535254	-0.675432	-12.26467	-0.532639	-0.455726	0.088094
-1.368045	0.900537	10.050971	2.842768	0.193131	0.393638	0.259785	-0.147266	-0.967579	-0.030703	-3.110003	7.806138	-78.029322	170.56271	52.605984	-0.230094	0.038782	-0.793926	9.034502	1.809843	0.896924	-9.273725	-0.634937	-12.788949	-0.51901	-0.470888	0.073473
-0.974851	0.61135	9.659587	3.179531	0.195748	0.300708	0.23193	-0.160288	-0.963465	1.12203	-3.224772	7.886861	-87.639796	174.770212	46.288924	-0.205028	0.035716	-0.751428	9.212921	1.693533	0.959638	-8.373835	0.226674	-12.979678	-0.546196	-0.44139	0.118242
-1.026538	0.612598	9.942739	2.566557	0.036446	0.545226	0.230801	-0.153573	-0.938728	0.843096	-3.449223	8.277104	-100.937794	177.967275	37.43082	-0.217934	-0.009248	-0.762491	9.034212	1.46114	0.835534	-8.272773	1.142172	-12.739934	-0.546822	-0.489968	0.120754
-1.088329	0.726557	9.714696	1.770732	-0.095417	1.00539	0.257899	-0.130309	-0.932183	1.728252	-2.773973	9.371959	-112.721691	181.099207	27.401911	-0.152018	0.024984	-0.808926	9.387364	1.866862	0.843867	-8.389361	1.718835	-12.344987	-0.518384	-0.422311	0.070962
-1.429339	0.325198	9.820032	2.076979	-0.187225	1.09502	0.23193	-0.160288	-0.963465	1.17043	-1.983509	10.266767	-119.185157	184.694212	17.752042	-0.164033	0.043445	-0.852703	9.211821	1.693286	0.899731	-8.359597	2.031464	-12.988342	-0.505102	-0.470684	0.073544
-1.318171	0.324391	9.6517	1.678722	-0.22086	1.187623	0.24645	-0.191733	-0.942906	1.364	-2.152018	11.233125	-119.687655	188.170468	9.709062	-0.12547	0.087487	-0.827842	8.913574	1.635143	0.714261	-8.641607	1.883821	-13.597808	-0.505378	-0.504722	0.106273
-1.212984	0.896794	9.201515	1.188858	-0.412408	1.615267	0.259442	-0.185393	-0.918519	0.623381	-1.136288	11.67138	-117.90663	191.656323	4.62766	-0.138001	0.119125	-0.843923	9.378135	1.574256	0.303469	-7.965576	2.04583	-14.242778	-0.532359	-0.44036	0.102785
-0.969574	1.014647	9.945542	0.698885	-0.353234	1.617639	0.259042	-0.154322	-0.939427	0.288114	-0.740901	12.174215	-115.470343	193.506465	2.736681	-0.098187	0.122566	-0.8878	8.55467	1.809193	0.468772	-8.31486	1.442902	-15.216533	-0.504961	-0.472337	0.104599
-0.974975	0.783675	9.660311	0.915126	0.14365	1.25708	0.217023	-0.115072	-0.987439	0.759193	-0.572345	12.693785	-114.074237	194.037542	3.85291	-0.086097	0.119425	-0.845026	8.911508	1.576573	0.5942	-8.541856	0.687157	-16.159435	-0.518522	-0.43933	0.087327
-1.308605	0.958419	10.166032	1.743929	0.581931	0.893805	0.259413	-0.150794	-0.953503	0.767093	-0.910043	13.033338	-118.545872	192.700434	7.65873	-0.032792	0.109764	-0.916874	9.081008	1.981216	0.23979	-8.644215	-0.350066	-16.459704	-0.532288	-0.441186	0.118312
-1.140964	0.497798	9.940029	1.743909	0.769798	0.59018	0.231958	-0.194886	-0.928481	0.150282	-0.006858	13.870392	-122.450234	189.922908	12.714678	-0.019365	0.201762	-0.923172	9.149213	1.343976	0.657519	-8.922222	-1.312572	-15.170626	-0.546684	-0.472949	0.104389
-1.148142	1.185649	9.601807	1.990653	1.110731	0.441672	0.24605	-0.160662	-0.963814	0.572366	0.105807	14.785183	-127.528751	187.390451	20.176856	0.032388	0.171421	-0.922267	8.850156	1.634289	0.473533	-8.99369	-2.598166	-15.103114	-0.518731	-0.455522	0.088164
-0.917638	0.66875	9.660942	2.877534	0.932576	0.252216	0.231172	-0.150045	-0.952804	0.307746	0.614269	15.912358	-130.133396	185.267172	30.759028	0.04544	0.186817	-0.923547	9.034212	1.46114	0.835534	-8.450387	-4.033216	-15.159352	-0.519569	-0.501621	0.044092
-1.028889	0.78444	9.829757	3.428295	1.062946	-0.176601	0.217809	-0.159913	-0.963115	0.796658	1.572212	17.338825	-120.601036	182.728282	44.121813	0.085184	0.235147	-0.956084	9.147417	1.169253	0.536964	-7.971054	-5.526184	-15.551232	-0.491124	-0.471306	0.089142
-0.922009	0.552902	9.433047	5.390569	0.975737	0.184348	0.274291	-0.161411	-0.964512	1.854097	3.484121	15.834138	-99.651904	179.036626	59.178405	0.084744	0.263644	-0.929392	9.213036	1.170602	0.897506	-7.17883	-6.716246	-15.548422	-0.532985	-0.488937	0.105296
-1.141006	0.555239	9.940271	5.571405	0.672406	-0.097114	0.260171	-0.161037	-0.964163	4.725607	1.957429	15.440186	-118.941861	167.560188	71.874805	0.097864	0.23415	-0.94201	8.794535	0.647379	0.528136	-10.626726	-7.359656	-13.668748	-0.533194	-0.50513	0.106133
-1.597146	1.015586	10.047	10.227419	0.606828	-0.540934	0.259428	-0.168094	-0.936011	8.564863	3.191246	17.503403	-141.24323	161.8155	78.058721	0.111656	0.28233	-0.973996	8.981913	0.939827	1.131742	-10.100618	-8.323967	-11.924145	-0.547102	-0.505334	0.106063
-1.205397	1.18569	9.600693	8.08059	0.444891	-0.690726	0.258285	-0.14408	-0.928767	12.04355	4.143442	18.822815	-129.646036	159.513846	73.050231	0.149924	0.325301	-0.934785	8.499995	0.41575	0.521645	-8.893899	-9.228124	-9.846106	-0.505098	-0.489355	0.120964
-1.485977	1.014779	9.878667	9.089761	0.111563	-0.699049	0.246065	-0.177962	-0.946322	14.954586	5.094663	17.809123	-114.674499	161.839601	60.197565	0.202123	0.326673	-0.950238	8.502756	0.648796	0.702355	-7.409852	-10.130964	-7.799603	-0.519428	-0.503273	0.075148
-1.077195	0.72897	10.283227	9.270027	-0.127523	-1.224811	0.244936	-0.171247	-0.921586	17.418634	6.55429	17.465862	-113.148399	168.435508	42.783123	0.241942	0.390323	-0.983779	8.214278	0.650954	1.056294	-7.393457	-10.441555	-4.375305	-0.54724	-0.522353	0.122428
-0.963923	0.90097	10.229325	13.003198	-0.438034	-2.129983	0.231172	-0.150045	-0.952804	20.569663	6.209762	16.795753	-79.23687	179.116449	16.063874	0.267223	0.312799	-0.964963	8.801813	0.358482	0.886341	-7.314886	-10.81499	-0.767462	-0.505587	-0.520914	0.10711
-1.545251	0.72713	9.762641	16.915929	-1.23627	-3.31962	0.287655	-0.151543	-0.954201	23.07299	6.485535	15.489832	-32.208376	188.335137	-19.351203	0.266928	0.311728	-0.950613	8.574302	0.942008	1.423574	-7.933191	-11.497065	-0.089586	-0.519774	-0.536484	0.09235
-1.025508	0.727722	10.000075	17.857153	-2.239388	-3.921336	0.244536	-0.140177	-0.942493	31.426889	21.129042	30.794183	-38.904293	150.203655	-18.872971	0.279909	0.372012	-0.940554	8.385844	1.114169	0.821945	-6.765579	-11.70255	-0.520714	-0.519495	-0.521118	0.10704
-1.134615	0.958778	10.283079	14.366957	-2.860124	-2.111937	0.246079	-0.195261	-0.92883	33.485219	-5.709656	6.186575	273.436622	102.488573	-152.035175	0.306307	0.403875	-0.957462	8.807491	1.231353	1.309398	-6.604405	-10.877082	-0.433549	-0.547311	-0.521527	0.1069
-1.535437	1.016509	10.275525	8.388843	-1.280439	2.500462	0.230801	-0.153573	-0.938728	38.392665	12.374665	19.383467	-78.850258	58.811633	-117.865071	0.266557	0.295335	-0.93526	9.444854	1.575852	0.723917	-6.924409	-9.176112	0.59863	-0.519707	-0.51864	0.060457
-1.174178	1.135004	11.192338	15.267468	3.067055	6.814038	0.259071	-0.188921	-0.904443	33.418504	12.43698	15.485904	262.795316	-2.287033	-186.214544	0.344859	0.327498	-0.953271	10.09017	1.341074	0.495406	-8.066896	-6.255222	1.689101	-0.533336	-0.503477	0.075077
1.060437	5.237633	17.333951	6.002027	27.737621	-4.258705	0.302947	-0.21053	-0.926811	33.533554	16.659501	13.170864	166.157888	-65.25329	-152.772159	0.293395	0.298701	-0.97886	10.442917	1.921024	0.504481	-9.382527	-3.6092	-0.274797	-0.519845	-0.535658	0.076822
-0.89644	0.615893	10.740909	37.598107	46.953762	-11.060584	0.273563	-0.185767	-0.918868	-3.184941	-5.753709	5.359765	324.004052	-75.277228	-184.825887	0.279973	0.266913	-0.962228	10.616549	2.442808	0.390193	-11.644328	-1.950689	-4.675488	-0.505449	-0.503895	0.090746
-0.38286	2.351111	13.656564	-2.369464	60.007994	-10.610622	0.246822	-0.188204	-0.956982	-10.684362	-2.864884	7.41276	-9.62716	-65.864874	-90.908669	0.254311	0.207625	-0.986361	11.504998	3.429312	0.710437	-10.660829	-1.382351	-6.057033	-0.533473	-0.520496	0.091442
-0.417182	1.436913	14.788652	17.379003	80.795955	-17.475732	0.260557	-0.174808	-0.960747	-3.779516	1.462206	10.505532	34.577895	-64.889949	-31.988991	0.227989	0.191083	-0.970456	12.022263	3.71551	0.002695	-5.276565	-0.002929	-4.493913	-0.505795	-0.537107	0.107948
-0.878268	1.03443	14.607495	10.631834	101.82619	-21.46971	0.27472	-0.227081	-0.908621	-2.64135	-2.655268	6.845883	12.006807	-92.218395	8.105077	0.241781	0.239263	-1.002442	11.615712	2.788227	0.230663	-6.076934	0.864479	0.089197	-0.533265	-0.504304	0.090605
-1.516933	0.975514	14.140181	14.505398	120.408568	-24.859346	0.329688	-0.208093	-0.888698	1.672055	-1.982759	12.202185	-20.9189	-111.115745	37.795406	0.254977	0.225089	-1.016064	11.335302	1.688178	0.87944	-9.110911	1.501571	2.511637	-0.533332	-0.522149	0.122498
-0.893168	0.986198	16.766558	4.675483	139.663618	-22.861597	0.272434	-0.179053	-0.894132	2.232518	0.268957	11.706415	22.376864	-96.096264	25.49334	0.189286	0.236819	-0.97264	10.401892	1.286031	1.399264	-6.471084	-0.019002	2.57046	-0.560596	-0.454482	0.056898
-0.978975	1.337202	18.243959	21.268195	166.004129	-22.849025	0.344551	-0.201411	-0.917199	0.166692	8.380565	7.310891	-96.050712	-4.970032	-3.137553	0.189362	0.252139	-0.973644	10.535236	2.277009	2.364178	-1.674284	-0.439196	6.406153	-0.505311	-0.486877	0.074381
-0.227163	1.740443	18.658095	18.722877	193.990704	-21.681011	0.357157	-0.1813	-0.896228	-0.085781	-1.250751	8.089692	26.716393	-10.49813	-7.378816	0.240449	0.204334	-0.943036	10.945608	2.507874	2.253056	5.085697	1.840739	10.099705	-0.532501	-0.438708	0.071729
0.197499	1.055921	19.856909	23.557052	222.463124	-22.704002	0.359058	-0.215557	-0.914132	1.197783	1.169944	9.13784	10.116133	-6.351477	-3.158367	0.201597	0.21943	-0.943213	9.950212	3.383534	2.777219	4.173263	5.073645	7.734071	-0.533615	-0.518844	0.060387
0.097382	1.174023	20.594255	36.88864	250.349674	-20.325685	0.414782	-0.206813	-0.904869	0.824415	-1.025196	10.31696	-1.919741	-5.178393	0.419662	0.201301	0.218358	-0.928863	10.395236	3.202045	1.287609	2.302522	7.904232	5.496129	-0.519361	-0.485428	0.043255
0.376932	1.22981	20.258945	63.488697	274.621815	-18.964517	0.458659	-0.228422	-0.927237	0.644165	-0.236483	10.030799	15.912306	-4.516864	-0.484255	0.163034	0.175387	-0.968074	9.918009	3.027661	0.978529	5.354994	9.471158	8.839705	-0.533682	-0.536689	0.092279
-1.085938	1.683623	18.641152	80.74055	295.438397	-20.117026	0.500292	-0.253901	-0.882641	0.875959	-0.405858	10.092132	10.767732	-3.189617	2.268508	0.189732	0.268532	-0.988997	9.726655	3.024852	0.196438	6.208039	10.242414	11.461555	-0.547311	-0.521527	0.1069
-0.819424	2.828145	17.685043	63.036248	310.713433	-20.768275	0.555645	-0.248685	-0.859301	0.854654	-0.01235	9.129591	7.717619	-2.75576	0.328193	0.163554	0.22242	-0.985435	8.589537	3.198185	-0.662425	3.441194	10.65157	12.356032	-0.54683	-0.452625	0.025912
-2.436977	1.217565	16.851165	78.681258	325.834367	-24.063855	0.597249	-0.239566	-0.849689	0.754353	-0.180557	9.806706	-1.493721	-3.442732	-1.597389	0.202187	0.221574	-0.971912	9.168964	3.07821	-1.250984	-0.131202	10.475346	13.378491	-0.547661	-0.536066	0.076681
-1.823098	1.673264	16.069401	68.215094	322.466731	-23.720453	0.623661	-0.292556	-0.745024	0.698427	-0.405724	9.861947	-3.466365	-3.100235	-1.533914	0.176461	0.267385	-0.974372	8.683879	2.495316	-2.041049	-3.431678	9.907162	13.943349	-0.519361	-0.485428	0.043255
-3.731166	3.131742	20.98268	78.360993	307.637723	-13.992132	0.694264	-0.294428	-0.74677	0.931107	-0.40606	9.980062	-2.166612	-2.871931	-1.099006	0.214648	0.234825	-0.944492	8.988884	2.961721	-1.4345	-5.840357	8.912029	14.690416	-0.547523	-0.519048	0.060316
-6.586904	-1.555504	12.325983	144.886682	300.047031	-23.999473	0.708042	-0.33293	-0.69806	0.874858	-0.462236	10.035445	-3.934382	-3.416392	-0.98253	0.163184	0.206028	-0.970081	8.934115	2.556066	-1.257611	-7.819207	7.300962	15.989071	-0.560943	-0.487693	0.0741
1.955032	-1.132244	18.915755	159.626617	275.206051	-12.23901	0.692792	-0.325841	-0.672974	0.411139	-0.686838	9.855665	-7.000999	-4.069718	-0.806525	0.175274	0.202887	-0.927308	9.346958	2.671273	-1.249413	-10.014424	5.25551	17.810239	-0.533269	-0.485632	0.043185
2.527561	-1.387356	13.072283	225.000127	265.951181	-8.713596	0.747788	-0.341453	-0.618067	0.877707	-0.687463	10.148534	-7.530267	-4.35519	-0.378197	0.189431	0.20725	-0.984982	10.062585	2.787535	-0.816365	-13.447721	2.997506	19.056149	-0.518936	-0.490386	0.136422
10.678626	-2.542497	-0.356508	274.47619	218.273479	-19.139769	0.792822	-0.404375	-0.630188	1.395495	0.100242	10.216718	-6.478549	-4.220609	-0.160216	0.201672	0.23475	-0.944216	9.709743	3.195372	-0.701423	-16.63667	1.210613	19.1985	-0.547177	-0.485837	0.043114
12.946152	-7.559704	-4.59583	197.837028	126.676887	-36.665451	0.817705	-0.419579	-0.521694	0.64492	-0.630796	10.030467	-5.893183	-4.336227	-0.099239	0.175425	0.233528	-0.929315	10.071948	3.022064	-0.276214	-18.185758	0.163761	19.331378	-0.518872	-0.45387	0.057108
6.41986	-6.725625	1.191105	141.988131	48.393188	-51.888536	0.803942	-0.398377	-0.552913	0.881118	-0.57466	10.318548	-4.471361	-4.286122	-0.313393	0.188991	0.235747	-0.95829	10.490834	2.906203	0.030529	-16.441494	-0.48807	17.891502	-0.560738	-0.452829	0.025842
8.309671	-7.301408	1.225437	51.943108	-6.345614	-47.948189	0.843317	-0.410428	-0.458845	0.706974	-1.081406	10.201215	-1.625598	-4.031576	-0.894305	0.202482	0.222645	-0.986262	10.250772	2.731526	-0.214242	-11.927903	-0.933143	15.156821	-0.546409	-0.438912	0.071659
7.043827	-5.450987	3.879644	-14.584425	-40.943693	-46.6318	0.859724	-0.45883	-0.473682	0.993161	-0.85667	10.15081	1.857368	-4.659313	-1.298509	0.188841	0.205106	-0.956283	10.248322	3.312039	-0.271677	-9.841262	-1.030938	13.499145	-0.519152	-0.469236	0.042418
5.073554	-3.304134	8.567293	-29.8102	-47.842532	-49.03153	0.816976	-0.443935	-0.476051	0.813104	-0.800301	9.807393	3.704955	-5.096788	-1.147232	0.188771	0.249996	-0.944944	10.126813	2.439933	-0.577121	-11.235507	-1.643929	13.140328	-0.561084	-0.486041	0.043044
4.734067	-2.728505	8.790437	-18.957603	-47.045121	-49.847415	0.832597	-0.447496	-0.515212	0.988349	-0.237177	9.981413	4.693629	-5.083842	-1.207964	0.188986	0.175537	-0.968625	10.669253	2.789893	0.093243	-11.591074	-2.638512	11.587502	-0.519081	-0.470062	0.057946
4.250255	-2.503956	7.474874	-3.072958	-56.427502	-48.266383	0.774972	-0.421984	-0.506571	0.989989	-0.462451	10.037863	4.540836	-4.962535	-1.299365	0.201446	0.188789	-0.941205	10.373747	2.499941	0.026597	-10.755115	-3.732206	8.196946	-0.518175	-0.406118	0.070125
3.433394	-2.908844	6.661652	4.117959	-75.412161	-43.994171	0.802799	-0.374363	-0.545669	1.389428	-0.519679	9.876359	3.685209	-4.23733	-1.32367	0.163109	0.190708	-0.969078	9.898336	2.965135	-0.100042	-9.27165	-4.264773	4.006796	-0.547318	-0.484184	0.012059
3.07461	-3.371505	5.857098	-0.645904	-96.733846	-36.596756	0.815419	-0.371552	-0.507206	0.983837	-0.406358	9.754712	2.577517	-3.88446	-1.166913	0.149473	0.233378	-0.928764	9.257402	2.736047	0.306212	-6.419398	-4.722444	1.920325	-0.547039	-0.468818	0.026749
2.627627	-3.253878	6.417203	-10.530726	-114.248914	-28.172182	0.816533	-0.360967	-0.549434	1.052928	-0.744022	10.265393	2.646398	-3.359945	-1.531578	0.175645	0.21928	-0.942661	9.373058	1.863648	0.065077	-3.733535	-4.191529	1.785811	-0.53341	-0.48398	0.012129
1.311723	-3.022917	6.449411	-21.029147	-127.754512	-18.423583	0.816905	-0.357439	-0.56351	0.705896	-0.518101	10.20169	3.018681	-3.261232	-1.838577	0.1755	0.248849	-0.930319	9.071104	1.978991	-0.299372	-1.755808	-4.006574	2.327906	-0.546901	-0.451799	0.010385
0.865894	-2.96249	7.066129	-29.129707	-139.956121	-8.845281	0.774929	-0.370086	-0.559046	1.162123	-0.800805	9.984565	3.084872	-2.951177	-2.236204	0.162374	0.218133	-0.928036	8.834905	2.037608	-0.303526	-0.24992	-3.836534	1.190798	-0.547106	-0.486663	0.058642
0.243268	-2.098723	7.455472	-35.519179	-152.291883	-0.347999	0.791322	-0.401189	-0.591376	1.513128	-0.575893	10.275207	3.208719	-2.9482	-2.451871	0.17572	0.2346	-0.943665	8.601466	2.329269	-0.126971	0.485449	-3.54565	-0.066337	-0.519081	-0.470062	0.057946
0.31347	-1.521454	8.141235	-40.05018	-165.025347	5.959721	0.747031	-0.33121	-0.607407	1.334819	-0.801129	9.988192	4.571587	-2.654763	-2.478684	0.202112	0.206253	-0.970908	8.535827	1.863066	-0.549398	0.427162	-3.117628	-0.068169	-0.532989	-0.470266	0.057875
-0.092837	-1.579811	7.848934	-42.681831	-176.619444	10.164305	0.72069	-0.364717	-0.624613	0.998451	-0.462119	10.43434	5.590099	-2.704165	-2.324216	0.227253	0.218508	-0.929414	8.594999	2.26971	-0.48666	-0.05628	-2.889821	1.399521	-0.518735	-0.436851	0.040744
-0.141432	-1.233191	8.304093	-43.933352	-187.113119	12.788087	0.777544	-0.362687	-0.640086	1.055477	-0.180575	10.435786	7.261887	-2.406809	-2.350742	0.162814	0.189636	-0.954728	8.713146	1.746509	-0.546591	-0.49158	-3.629604	1.801951	-0.58918	-0.501815	0.028213
-0.589902	-0.598831	8.809518	-45.326364	-195.762588	15.442188	0.665323	-0.352634	-0.665444	0.988995	-0.57516	9.981128	9.271111	-2.260682	-2.039393	0.17594	0.220352	-0.957011	9.077302	2.154703	0.060811	-0.407705	-4.295919	1.193562	-0.532918	-0.471092	0.073403
-1.433005	-0.767156	9.588035	-47.600417	-203.468611	18.604738	0.665294	-0.318035	-0.700428	1.040193	-0.406513	9.699281	10.878634	-2.148707	-1.97533	0.163259	0.221348	-0.971085	8.951702	2.095166	-0.360985	0.051729	-4.661004	1.163077	-0.519223	-0.46841	0.02689
-1.315938	-1.226289	9.702037	-50.905043	-209.772889	22.498226	0.664908	-0.304264	-0.703844	1.504559	-0.519894	9.878777	11.035398	-1.962956	-1.942529	0.188916	0.220427	-0.957287	8.662238	1.574146	-0.129085	0.602112	-4.774428	0.489238	-0.532505	-0.420036	0.024308
-1.373358	-0.996481	9.701889	-55.396988	-214.728849	26.355605	0.637067	-0.334585	-0.682238	1.218934	-0.406599	9.986106	11.841727	-1.707443	-1.93934	0.188546	0.204034	-0.941933	9.071624	1.281832	-0.362246	0.940753	-4.306498	-0.278295	-0.546826	-0.471297	0.073333
-2.157436	-0.532509	10.59788	-58.50348	-218.599122	29.981237	0.622547	-0.303141	-0.702796	1.222345	-0.293796	10.15612	12.464413	-1.330816	-2.058406	0.149398	0.218058	-0.92776	9.125273	1.222385	-0.660927	1.430259	-3.893832	-1.565668	-0.547314	-0.502855	0.059479
-2.205907	-0.358213	11.052315	-60.193755	-220.88232	32.58598	0.580142	-0.250119	-0.754224	1.39394	-0.350497	10.10306	11.133687	-1.560314	-2.370038	0.201597	0.21943	-0.943213	9.010833	1.5721	-0.422017	1.768403	-3.424954	-2.424877	-0.574992	-0.486245	0.042974
-2.199309	-0.241882	11.393916	-61.877024	-220.80488	33.205318	0.583172	-0.29109	-0.796864	1.274836	-0.801116	9.873704	11.102989	-1.5597	-2.524196	0.188106	0.232531	-0.915241	8.951526	1.223531	-0.484508	1.921248	-2.738835	-3.651191	-0.560525	-0.455308	0.072426
-2.19704	-0.298841	11.507381	-64.561677	-218.224695	32.45772	0.524803	-0.272634	-0.760071	1.153014	-0.463154	9.588373	11.937754	-1.517043	-2.738896	0.124036	0.220051	-0.955908	8.892105	1.397894	-0.484866	1.064313	-1.760569	-3.897252	-0.547385	-0.502029	0.043951
-2.244356	-0.181745	12.018428	-73.12893	-213.710951	29.704061	0.512569	-0.289217	-0.795118	0.870585	-0.124395	9.865811	12.278508	-1.450595	-2.861273	0.150208	0.205953	-0.969806	8.591947	1.687961	-0.72876	0.726796	-1.019767	-4.66361	-0.560947	-0.469022	0.026679
-2.120448	0.681966	12.535953	-77.933584	-208.497229	23.731254	0.484685	-0.26764	-0.825988	1.338577	-0.237634	10.215225	14.232375	-0.842056	-3.038617	0.176675	0.192926	-0.998053	9.016179	1.166556	-0.18412	-0.354184	-0.678655	-5.486488	-0.532918	-0.471092	0.073403
-2.67427	0.973689	13.492527	-84.956515	-203.232552	15.066931	0.454543	-0.232634	-0.807385	1.389343	0.156335	9.933568	14.352243	-1.117481	-2.88712	0.162889	0.204956	-0.955732	8.890444	1.165096	-0.605669	-0.937522	-0.343964	-5.516534	-0.546413	-0.42024	0.024238
-3.130244	1.20427	13.59829	-91.950372	-197.462869	5.275601	0.427431	-0.2386	-0.831422	1.562663	-0.801655	9.879749	14.789178	-0.773872	-3.006663	0.149392	0.157848	-0.938095	9.186895	1.048516	-0.540754	-0.910758	-0.305068	-6.311414	-0.532989	-0.470266	0.057875
-3.805624	0.46044	14.150322	-101.137446	-189.272572	-4.593355	0.414025	-0.19657	-0.894209	1.161476	-0.462822	9.98485	17.113263	-0.191699	-3.122316	0.188025	0.157001	-0.924573	9.304658	1.164398	-0.538059	-0.661018	0.000453	-6.191531	-0.588762	-0.46943	0.026539
-6.083718	0.694517	14.732132	-113.978802	-174.405515	-10.755519	0.357929	-0.208843	-0.889396	0.637905	-0.124059	9.747696	16.833522	-0.29004	-2.691928	0.17653	0.222495	-0.98571	9.070659	1.223509	-0.4224	-0.846798	0.156517	-6.558338	-0.588971	-0.485623	0.027376
-7.961897	0.583414	15.263435	-123.26078	-152.159684	-12.606403	0.355642	-0.160815	-0.874907	1.002401	-0.630969	10.604116	15.982343	0.830365	-2.188225	0.136046	0.141381	-0.922466	9.190622	1.339885	-0.299891	-1.189369	-0.148705	-6.739009	-0.546826	-0.471297	0.073333
-9.950296	0.703126	16.020889	-134.153269	-125.704607	-9.538383	0.344165	-0.18764	-0.920614	1.794696	-0.464008	9.998148	15.802216	1.284764	-1.690604	0.189055	0.130648	-0.979964	8.833899	1.049573	-0.48745	-1.584195	0.397311	-6.434572	-0.546826	-0.471297	0.073333
-12.111696	0.995044	16.718873	-137.798087	-100.153597	-2.672313	0.315896	-0.152292	-0.9549	0.592405	-0.74316	10.255722	15.383724	2.497608	-0.414931	0.162889	0.204956	-0.955732	8.953572	0.817246	-0.426331	-1.887204	0.32399	-5.363475	-0.547247	-0.48501	0.027587
-14.010291	1.396573	16.228992	-135.150222	-80.449612	6.993781	0.328859	-0.111354	-0.965496	1.498946	-0.745453	9.595389	14.805696	3.166589	-0.686197	0.162513	0.128354	-0.950713	8.89303	0.526507	-0.548482	-2.249302	0.214499	-3.772429	-0.560667	-0.453656	0.04137
-16.447226	1.333876	14.533245	-127.201391	-67.976027	19.163787	0.342951	-0.07713	-1.000829	1.56525	-2.153587	9.87861	5.097203	4.278276	-6.694388	0.149392	0.157848	-0.938095	8.601811	0.760475	-0.313367	-2.147671	0.13537	-1.999814	-0.547106	-0.486663	0.058642
-18.26047	2.016256	12.568617	-117.821244	-62.83054	32.834839	0.299489	-0.10389	-0.940062	1.062191	0.101363	10.775861	-3.906989	3.404124	-3.01099	0.137672	0.177381	-0.996222	8.775288	0.87548	-0.489292	-2.41608	-0.100244	-0.011146	-0.546897	-0.47047	0.057805
-18.760901	2.122303	10.399775	-120.976021	-60.875122	46.151746	0.298674	-0.02445	-0.999369	0.955368	-1.081126	11.055645	8.963825	0.051999	-4.637015	0.175859	0.144821	-0.966342	8.835519	0.352661	-0.490417	-2.554388	0.117438	2.555624	-0.589389	-0.518008	0.02905
-19.027037	2.631482	8.521341	-121.598148	-59.746976	57.546124	0.258199	-0.040284	-1.033717	0.214567	-0.117006	16.872196	-13.626675	-14.719681	1.88761	0.201446	0.188789	-0.941205	9.199945	0.644703	0.116491	-2.912928	0.032232	4.75792	-0.560876	-0.469848	0.042207
-19.046588	3.489003	7.558458	-119.778822	-57.85205	64.684024	0.242964	-0.050494	-0.99114	1.255461	0.721529	11.799522	59.281458	-33.727626	-7.460251	0.175934	0.160142	-0.967346	9.201451	0.470722	0.175656	-2.721047	-0.352774	6.562354	-0.519152	-0.469236	0.042418
-18.703067	5.039917	7.628507	-110.346577	-51.652747	66.780879	0.226557	-0.002092	-0.976302	0.645243	-0.799788	10.030325	13.322028	-40.55504	0.018547	0.163178	0.145818	-0.980416	9.439737	0.935532	0.361756	-3.051465	-0.184327	7.907592	-0.574575	-0.45386	0.0413
-18.133537	6.13041	7.530521	-95.870511	-39.40037	63.07561	0.229172	0.005307	-1.057342	0.995246	1.455502	13.153444	10.588883	-48.937907	0.919514	0.136786	0.174165	-0.953173	9.437225	0.121479	0.118668	-3.512912	0.3088	7.387309	-0.533265	-0.504304	0.090605
-17.178281	8.021657	6.704617	-80.576143	-22.92576	50.576392	0.240263	0.045903	-1.015051	0.954614	-0.686812	11.055977	28.317695	-58.909493	-1.693243	0.149907	0.144671	-0.965791	9.551146	0.468923	-0.057369	-4.255935	0.901841	5.981202	-0.574851	-0.487897	0.07403
-14.807389	9.461304	8.007071	-61.37664	-2.563225	27.427183	0.186796	0.02373	-1.073787	1.613481	0.439704	12.372934	7.716163	-68.188719	2.945478	0.150428	0.191704	-0.983152	10.035805	0.76119	0.671554	-6.409068	2.654088	4.391302	-0.54683	-0.452625	0.025912
-13.54342	9.57624	8.259462	-31.763767	21.059275	-2.63312	0.214265	0.050523	-1.081317	1.083627	0.271208	11.795516	20.884616	-77.243598	1.232179	0.111645	0.16191	-0.994667	9.617555	-0.34304	0.239805	-11.202952	6.146145	2.252541	-0.560667	-0.453656	0.04137
-6.837916	7.234607	26.167942	447.524953	96.465819	-66.223056	0.200131	0.068197	-1.098459	1.666966	0.045092	12.147253	13.349977	-86.617774	3.38341	0.12344	0.157698	-0.937544	9.250563	0.468362	-0.362406	-12.027159	9.108245	-0.509288	-0.560734	-0.471501	0.073263
-22.108667	8.413519	3.371033	152.793311	140.483528	-45.42168	0.283739	0.055364	-1.058327	1.060233	0.103652	13.380073	8.283025	-96.237446	5.565029	0.098594	0.146515	-0.993388	9.645664	0.63769	-1.312471	-12.939263	9.453097	1.326148	-0.56088	-0.451177	-0.005213
2.053102	1.309591	12.335626	256.818943	131.810789	-12.85813	0.258528	0.015143	-1.100269	1.54558	-0.234245	14.522252	7.401731	-112.081679	5.807638	0.097338	0.126907	-0.934985	9.823388	0.346904	-1.310406	-21.438526	7.074577	6.564137	-0.547177	-0.485837	0.043114
17.51695	-35.80107	14.298567	286.833828	15.384353	110.313089	0.329173	-0.038628	-1.049539	1.968742	-0.684885	15.436569	14.712947	-132.527213	2.712501	0.096527	0.139012	-0.892939	10.226252	1.912529	-1.655469	-18.870038	4.236769	6.782329	-0.560667	-0.453656	0.04137
5.542788	23.567575	-7.279662	511.93876	26.877856	-49.133572	0.300203	-0.062235	-1.003197	1.302026	-0.626313	16.554901	18.518537	-154.185119	-0.52077	0.044699	0.154032	-0.89284	10.799239	5.509914	-2.108391	-6.54078	-2.54654	10.346148	-0.53341	-0.48398	0.012129
-4.15039	19.241957	0.242499	101.674599	7.042821	-42.750858	0.274677	-0.175183	-0.961096	0.272592	-0.114729	19.590897	15.562509	-182.528544	0.551736	0.05797	0.155179	-0.907466	15.060628	8.292044	-0.998875	8.701077	-18.189698	34.728616	-0.547247	-0.48501	0.027587
-0.459407	7.205374	7.026377	-10.074372	-1.615624	-8.001782	0.330759	-0.14561	-0.983401	-0.539227	-0.334059	24.668929	7.081672	-222.590842	2.829084	-0.005874	0.18866	-0.951143	17.06138	4.813163	1.478788	-40.269173	-30.908624	67.865935	-0.547456	-0.501203	0.028424
-1.002611	2.041599	8.301146	-33.549862	-2.018511	-6.468638	0.315881	-0.134993	-0.972391	0.181948	-1.686194	25.985009	56.846264	-266.545516	-6.445756	-0.007356	0.123091	-0.88973	13.188877	1.747507	2.231752	-38.295567	-27.449349	23.785018	-0.547389	-0.483358	-0.003469
-0.442486	0.097622	10.520233	-46.770274	5.876859	2.008848	0.315867	-0.117694	-0.989883	1.092115	-1.688345	25.494595	73.547637	-306.523512	-13.457059	-0.033377	0.16783	-0.87784	8.915444	0.357223	0.648915	0.999139	-15.196529	-35.613268	-0.574437	-0.436841	0.024935
-1.817706	0.098376	10.436656	-21.473695	7.629294	-6.65328	0.303247	-0.120505	-1.028346	0.325332	-0.898981	24.686589	102.167671	-334.397738	-21.972289	-0.098778	0.120422	-0.8591	7.527591	1.631821	-0.868629	1.02801	-4.996022	-28.237162	-0.547106	-0.486663	0.058642
-1.598746	2.324154	7.097302	-18.538467	5.254139	-4.706849	0.330359	-0.11454	-1.004308	3.776666	-4.45937	18.924674	141.32759	-362.947668	-24.81349	-0.12569	0.101736	-0.814496	8.395266	2.555551	-1.686863	-8.138563	0.970037	-4.916055	-0.561017	-0.468196	0.011151
-1.363052	0.154762	10.275246	-56.366459	3.422999	5.768648	0.288012	-0.130716	-0.985769	1.033799	2.252799	23.119051	19.903211	-388.81251	-8.952789	-0.165429	0.113615	-0.771623	9.507925	2.957787	-2.083572	-12.028771	2.249391	9.059395	-0.561014	-0.486867	0.058572
-0.537319	-0.932141	11.480165	-20.726487	3.937056	2.117044	0.315881	-0.134993	-0.972391	3.96443	-4.121094	19.664901	125.130831	-369.101783	-22.174841	-0.244025	0.080381	-0.739262	10.290811	2.843341	-1.231065	-21.604827	-2.527996	18.164481	-0.518802	-0.454696	0.072636
-1.367755	0.498446	10.049282	-1.193551	6.193646	0.840124	0.260142	-0.126438	-0.999146	4.621456	0.106126	23.871877	111.739454	-366.302576	-25.178858	-0.258257	0.060698	-0.680584	11.600616	3.598325	-0.484758	-28.869751	-10.219296	20.00043	-0.574992	-0.486245	0.042974
-1.254608	0.842771	9.996103	-1.985023	7.050743	0.825665	0.301361	-0.103548	-0.99295	-1.301682	-2.145387	13.045413	187.375091	-362.544366	-39.168216	-0.284875	0.043083	-0.650329	11.335673	3.896303	1.188369	-20.653583	-16.935017	15.662177	-0.546617	-0.455104	0.072496
-1.486842	0.669889	9.820366	-2.173645	6.06197	1.208818	0.32923	-0.107826	-0.979572	4.118505	0.945613	16.558826	56.238576	-328.856301	-4.968441	-0.286721	0.021332	-0.563227	11.340925	4.478546	1.550283	-6.204658	-20.314772	7.342671	-0.547177	-0.485837	0.043114
-1.304726	0.212403	10.333454	4.927681	5.056912	0.589355	0.302132	-0.13109	-0.986118	-10.635125	-6.240671	12.109793	175.754585	-327.405493	-41.325789	-0.351456	-0.008613	-0.574191	10.302129	3.847085	2.725893	5.703755	-17.680603	-0.781842	-0.560734	-0.471501	0.073263
-1.434622	1.473064	9.597446	7.460131	4.037135	-0.59989	0.329216	-0.090526	-0.997064	-4.128414	-2.487815	1.889366	126.603534	-282.980521	-29.919605	-0.365538	0.002345	-0.51752	10.186567	3.731698	2.843011	12.340799	-11.990048	-7.556646	-0.547177	-0.485837	0.043114
-0.972417	0.324625	9.772087	0.075062	3.405195	0.607147	0.301018	-0.141675	-0.94389	-12.687366	-13.634782	-9.226759	296.997104	-178.618131	-83.305769	-0.365833	0.001273	-0.50317	10.535952	2.91634	2.486712	20.098653	-3.331467	-11.079407	-0.533131	-0.468614	0.02682
-1.830327	0.612696	9.813444	0.011307	2.848613	0.874295	0.301761	-0.134619	-0.972042	-5.426886	-4.456051	2.879414	-44.522547	-88.962454	-36.761636	-0.380586	-0.065443	-0.427131	10.354367	2.973832	2.24403	24.646139	5.202096	-9.486337	-0.547177	-0.485837	0.043114
-1.83474	0.554289	9.58579	0.901406	2.598566	1.603694	0.316653	-0.162535	-0.96556	-6.996563	-0.336577	7.888742	111.357736	-12.740073	-81.930317	-0.432345	-0.095312	-0.438371	10.750008	2.910855	1.292975	24.111901	11.404914	-9.025031	-0.546759	-0.453452	0.04144
-1.133744	-0.247495	10.278011	2.156052	2.171757	1.807819	0.288783	-0.158258	-0.978937	-10.710122	-8.84211	0.273562	27.841279	47.809668	-70.360691	-0.419369	-0.095237	-0.438646	9.910556	2.444923	0.496802	20.740298	14.738576	-10.128909	-0.547247	-0.48501	0.027587
-1.31483	0.325115	9.822259	6.227913	1.357905	2.05888	0.302104	-0.096492	-1.021102	-7.565958	-0.447923	8.159756	-10.04347	82.241456	-51.86235	-0.419369	-0.095237	-0.438646	10.079246	3.198023	0.143876	16.497717	16.375887	-10.18248	-0.54711	-0.467992	0.011222
-1.087092	0.554474	9.770825	7.447704	0.661318	1.645369	0.272748	-0.106327	-0.978175	-6.104861	-3.325194	6.263023	28.991977	92.639688	-38.410968	-0.419149	-0.109485	-0.451993	10.184053	2.729931	-0.634691	12.12484	16.908283	-9.924702	-0.518731	-0.455522	0.088164
-1.03454	0.898117	9.545974	6.402065	0.009694	1.760459	0.288369	-0.109888	-1.017337	-6.278481	-1.57853	6.374145	15.164448	98.153101	-13.181989	-0.419294	-0.079916	-0.43965	10.53815	2.729121	-0.628088	7.022853	16.544627	-12.013145	-0.532501	-0.438708	0.071729
-1.026497	0.555156	9.942498	5.632932	-0.360928	1.603312	0.302132	-0.13109	-0.986118	-5.727828	-3.045292	5.082291	11.691363	106.621586	11.31528	-0.380146	-0.09394	-0.453823	9.595802	2.383072	-0.587272	2.254508	15.106101	-13.578121	-0.547106	-0.486663	0.058642
-1.378807	0.38115	9.480268	5.694606	-0.549553	1.998748	0.316624	-0.127936	-1.000543	-5.628197	-3.158785	4.348299	0.741391	119.747807	35.237481	-0.405363	-0.121515	-0.494314	9.412847	2.556469	-0.889366	-1.194211	12.535413	-14.653505	-0.575272	-0.501611	0.028283
-1.423979	0.613612	10.105504	6.642881	-0.72777	1.839784	0.316982	-0.107109	-1.032111	-5.698413	-3.497182	3.72377	-18.704767	135.132242	57.943209	-0.367025	-0.123434	-0.466442	8.650308	2.443061	-0.664539	-3.158668	9.868856	-14.817024	-0.54711	-0.467992	0.011222
-1.487707	0.324998	9.762065	7.56294	-0.506268	1.656729	0.302504	-0.127562	-1.000194	-5.215137	-3.384482	4.809688	-34.799976	149.046786	77.462251	-0.430869	-0.089952	-0.510119	8.301984	2.328956	-0.372101	-4.656476	7.537668	-14.708798	-0.546968	-0.469644	0.042277
-1.020971	0.613804	10.227005	7.750118	0.04846	1.603871	0.27502	-0.137056	-1.010156	-3.757115	-3.780779	5.689173	-47.851425	161.493922	92.868994	-0.390685	-0.070119	-0.569349	8.653745	2.385727	-0.485065	-4.910319	6.02901	-13.845017	-0.547314	-0.502855	0.059479
-1.371427	0.957255	9.880653	9.373468	0.371706	0.868426	0.27542	-0.168126	-0.989248	-3.106517	-3.386939	6.552397	-56.379623	174.31863	101.284176	-0.340182	-0.059858	-0.499707	8.308992	2.156211	-0.013402	-4.75533	5.686448	-13.202193	-0.547665	-0.517395	0.029261
-1.601475	0.842296	9.818863	10.230199	0.410964	0.467917	0.316996	-0.124408	-1.014619	-1.483937	-3.952883	7.038889	-61.556179	187.860644	104.683292	-0.363772	-0.051433	-0.613953	7.957906	1.809059	0.098326	-4.322725	5.872489	-13.296326	-0.561155	-0.485214	0.027516
-1.152265	0.725151	9.372464	10.90256	0.544688	-0.20654	0.330745	-0.128311	-1.000892	-0.558401	-4.405109	7.227771	-66.823638	200.780844	99.750863	-0.337595	-0.005322	-0.617516	8.376251	1.925502	0.406058	-3.546483	6.051239	-12.566557	-0.561502	-0.518426	0.044718
-1.603536	0.612047	9.704192	10.229809	0.693809	-0.079508	0.302504	-0.127562	-1.000194	0.492498	-4.519141	7.929112	-71.660145	213.182401	90.496942	-0.336709	-0.002106	-0.660565	8.615347	2.041856	0.590675	-2.738215	6.44518	-11.929606	-0.575481	-0.517803	0.02912
-1.203046	1.013848	9.713675	9.312474	0.933979	0.049708	0.316639	-0.145236	-0.983052	0.787817	-4.012373	8.33206	-75.93902	225.28297	76.677375	-0.258853	-0.001656	-0.662219	8.438703	1.868033	0.586632	-1.687413	6.444222	-11.475007	-0.547318	-0.484184	0.012059
-1.142285	0.784764	9.884383	10.260784	0.97471	-0.443047	0.316267	-0.148764	-0.968976	1.675129	-4.463733	9.425967	-79.796986	236.183583	59.732567	-0.270423	0.048518	-0.722354	8.675349	2.5649	0.713815	-0.858605	5.895325	-11.353149	-0.533131	-0.468614	0.02682
-1.490265	0.784048	9.65029	10.135907	0.730369	-0.630667	0.288398	-0.144487	-0.982353	2.14202	-4.63335	9.718694	-85.125479	245.341877	39.378437	-0.257817	0.0322	-0.707276	8.260014	2.100495	0.524413	-0.087964	5.277461	-10.497305	-0.547803	-0.534414	0.045626
-1.312686	0.440481	9.936448	9.616241	0.724112	-0.291925	0.316639	-0.145236	-0.983052	2.78327	-4.408881	10.128659	-92.664446	253.073087	17.529347	-0.192347	0.034719	-0.737354	8.674228	2.099797	0.592023	0.150466	4.362529	-10.677164	-0.547665	-0.517395	0.029261
-1.152431	0.954918	9.373429	7.86923	0.747731	-0.378516	0.302147	-0.14839	-0.968626	2.572373	-3.788008	11.087218	-104.742275	258.780675	-3.325269	-0.203841	0.100214	-0.798492	9.089116	1.808719	0.658397	0.116088	3.934471	-10.705558	-0.534036	-0.532557	0.01464
-1.325349	1.012242	9.313477	6.857429	0.556532	-0.194703	0.31701	-0.141708	-0.997127	2.520552	-2.998989	11.426511	-116.87334	263.145449	-20.246608	-0.164103	0.088334	-0.841365	8.729247	1.924445	0.352754	-1.088871	3.872748	-11.067622	-0.575343	-0.500785	0.012755
-1.375922	1.013731	9.653482	7.135543	0.801588	-0.007513	0.274663	-0.157883	-0.978588	1.622843	-1.925989	12.597501	-126.401842	266.188512	-31.290681	-0.13741	0.121269	-0.872623	9.134948	2.270473	0.002499	-2.486662	3.328484	-12.160124	-0.561644	-0.516773	0.013663
-1.48911	0.726848	9.706901	6.765348	0.744318	-0.528734	0.34488	-0.145985	-0.98375	0.950538	-1.473292	13.489607	-135.060701	267.876567	-34.702525	-0.123473	0.13988	-0.916951	8.962686	1.632783	0.176199	-3.826367	2.542877	-13.557272	-0.534036	-0.532557	0.01464
-1.092949	0.955359	9.488249	6.489601	0.429802	-0.011696	0.316639	-0.145236	-0.983052	0.466082	-1.358333	15.06473	-140.018737	269.568762	-31.545402	-0.045693	0.12501	-0.917602	8.842183	1.748711	0.054679	-4.98739	1.148981	-15.227181	-0.533548	-0.500999	0.028494
-0.909802	0.612998	10.058672	6.796355	0.743418	-0.436833	0.301761	-0.134619	-0.972042	0.162268	-0.34203	17.097356	-139.109278	271.420578	-22.679044	-0.045467	0.170971	-0.920613	8.959519	1.573965	-0.003769	-5.685095	-0.586343	-16.25538	-0.561431	-0.519252	0.060246
-0.97048	0.727198	9.887482	8.540321	0.509544	-0.783003	0.302518	-0.144861	-0.982702	0.487485	0.334915	18.916437	-135.135304	274.391605	-5.783771	0.006807	0.187663	-0.937069	8.616562	1.519172	0.58845	-5.29652	-2.051922	-16.372029	-0.505945	-0.498112	-0.017949
