1757_acc_x	1757_acc_y	1757_acc_z	1757_gyro_x	1757_gyro_y	1757_gyro_z	1757_mag_x	1757_mag_y	1757_mag_z	1758_acc_x	1758_acc_y	1758_acc_z	1758_gyro_x	1758_gyro_y	1758_gyro_z	1758_mag_x	1758_mag_y	1758_mag_z	1759_acc_x	1759_acc_y	1759_acc_z	1759_gyro_x	1759_gyro_y	1759_gyro_z	1759_mag_x	1759_mag_y	1759_mag_z
-2.294168	-2.145855	9.394982	-0.102673	-0.061593	-0.031374	0.713889	0.163479	-0.980042	2.238164	-1.028886	9.157751	0.00334	0.275112	0.136327	-0.175782	-0.238072	-0.962506	9.605956	1.80429	-0.110489	-0.159834	0.363226	0.314663	-0.601504	-0.296968	-0.183764
-2.59867	-1.575093	8.482178	-0.009713	0.155002	-0.120125	0.547145	0.390438	-0.886266	2.314209	-0.577591	10.065573	0.005522	0.429643	-0.047103	0.161003	-0.238264	-0.940976	9.369486	1.979058	-0.114149	-0.03635	0.425479	0.252793	-0.588711	-0.3769	-0.195036
-2.358062	-2.204703	9.052508	-0.010129	-0.062902	0.121678	0.519276	0.394715	-0.899644	1.84125	-1.027895	9.432487	-0.150818	0.303414	0.198141	0.122	-0.25381	-0.939145	9.139754	2.097233	0.241385	0.24273	0.39242	0.588132	-0.602201	-0.344719	-0.19678
-2.303159	-2.032902	8.940639	0.020902	0.092639	-0.029223	0.518918	0.373888	-0.868076	1.908402	-0.35161	9.944021	-0.088289	0.365326	0.229635	0.1349	-0.269055	-0.938417	9.312131	2.211992	0.005553	0.244073	0.669302	0.433991	-0.602969	-0.391644	-0.225325
-2.870218	-1.916398	9.214253	-0.162987	0.09178	-0.028708	0.574257	0.396403	-0.862229	1.911035	-0.464176	10.057205	0.158629	0.338602	0.106255	0.135641	-0.236271	-0.969124	9.64644	2.671587	-1.004283	0.459015	0.578625	0.403082	-0.588502	-0.360708	-0.195873
-2.354638	-2.318862	9.222585	-0.10192	-0.001172	0.06161	0.590264	0.379071	-0.897974	2.425151	-0.91598	9.841148	-0.119028	0.36574	0.106302	0.134831	-0.224166	-0.927078	9.547385	2.559908	0.011438	0.24065	0.427422	0.160091	-0.560549	-0.343281	-0.212098
-2.242646	-1.917337	9.112795	-0.286605	-0.031025	-0.091684	0.562037	0.362521	-0.879784	2.078681	-0.352028	9.834368	0.006147	0.490168	0.076812	0.12237	-0.237418	-0.954498	10.025537	1.862904	0.256903	0.209366	0.583412	-0.146169	-0.574248	-0.327293	-0.213005
-3.215806	-2.146398	9.0929	-0.040951	0.062663	-0.121536	0.534911	0.373855	-0.921313	2.138771	-0.408371	9.948809	-0.147818	0.519477	-0.015505	0.148247	-0.252588	-0.954046	9.72785	2.037313	0.132328	0.302709	0.520043	0.098299	-0.560895	-0.376492	-0.194896
-2.467252	-1.858765	9.335995	-0.132775	0.061887	-0.090616	0.548288	0.366424	-0.893511	2.538103	-0.409268	9.787353	-0.088252	0.336876	-0.109757	0.135936	-0.235199	-0.983474	9.431534	2.095817	0.067167	0.333301	0.489565	0.098333	-0.560269	-0.327915	-0.197407
-2.465724	-2.432939	9.390435	-0.132196	0.248016	-0.240933	0.533811	0.345971	-0.861594	2.133351	-1.366275	9.608165	-0.242098	0.39544	0.014014	0.148027	-0.23834	-0.9407	9.247052	1.978339	-0.355978	0.147051	0.522326	-0.176214	-0.630017	-0.345128	-0.196921
-2.288766	-1.914883	9.680212	0.144007	0.154327	0.002093	0.562766	0.386877	-0.925427	2.31695	-0.746488	10.17871	0.006186	0.490369	0.045985	0.108879	-0.224316	-0.926527	9.614915	2.213047	0.430404	0.053797	0.212946	0.131229	-0.616109	-0.344924	-0.196851
-2.415275	-2.262103	9.051153	-0.069153	0.368448	0.006187	0.548288	0.366424	-0.893511	1.907624	-0.576979	9.887192	0.066766	0.398957	0.075953	0.135271	-0.252663	-0.953771	9.425492	2.326885	-0.231379	0.208776	0.274049	0.191502	-0.574732	-0.377522	-0.179438
-2.464818	-2.14549	9.448494	-0.2233	0.245153	-0.026041	0.562409	0.36605	-0.89386	2.536894	-0.409315	9.730713	0.095788	0.246428	0.012804	0.135346	-0.237343	-0.954774	9.435105	1.980406	0.246393	0.362293	0.213739	0.160671	-0.602272	-0.343893	-0.212308
-2.7621	-2.32002	8.873672	0.052216	0.216057	-0.057975	0.534153	0.384098	-0.910653	1.901688	-0.633547	9.603946	0.343604	0.310289	0.106122	0.136012	-0.219878	-0.984477	9.49192	1.979777	0.127679	0.545001	0.094569	-0.083926	-0.644134	-0.361524	-0.196154
-2.571449	-2.258601	9.843756	-0.008523	0.245459	0.034681	0.547131	0.407737	-0.903758	2.250815	-0.690382	9.781071	0.315166	0.49449	0.015447	0.135716	-0.22095	-0.970128	9.424391	2.326637	-0.291286	0.548136	0.150704	0.404802	-0.57411	-0.310274	-0.22937
-2.749686	-2.547132	9.498091	0.236814	0.308763	-0.026332	0.547545	0.359368	-0.865359	2.132488	-0.91563	9.608545	0.345709	0.464419	-0.015656	0.135346	-0.237343	-0.954774	9.790033	2.095995	0.313397	0.273336	0.299816	0.680153	-0.588364	-0.343689	-0.212238
-3.103483	-2.204405	8.98118	0.082328	-0.001357	0.15308	0.588364	0.413328	-0.88007	2.189407	-0.577755	9.610038	0.187262	0.155408	0.0428	0.173539	-0.209692	-0.914559	9.902698	2.036413	0.015816	0.302256	0.334615	0.282563	-0.588223	-0.345342	-0.181182
-2.643055	-2.434021	9.102829	0.144597	0.246522	0.00359	0.562409	0.36605	-0.89386	2.249259	-1.141121	9.667412	0.158707	0.339005	0.044603	0.148322	-0.237268	-0.95505	9.602385	1.9197	-0.289715	0.394092	0.336208	0.159971	-0.574315	-0.345137	-0.181112
-3.157728	-1.744108	9.152556	-0.009889	-0.063598	0.183002	0.531496	0.428597	-0.882089	2.364498	-1.197667	9.669783	0.12637	0.216557	-0.049125	0.135421	-0.222022	-0.955778	9.548466	2.095299	0.009461	0.484375	0.247609	-0.114999	-0.560269	-0.327915	-0.197407
-2.299036	-1.572405	9.169982	-0.099714	0.305451	0.127922	0.576158	0.362147	-0.880133	2.298494	-0.578208	9.329258	0.033804	0.215985	-0.141689	0.121855	-0.224241	-0.926803	9.60144	2.326232	-0.287985	0.147261	0.335636	0.130305	-0.588227	-0.32667	-0.228603
-2.409624	-2.37578	9.334936	-0.070016	0.214441	0.034354	0.534925	0.356556	-0.903821	2.129532	-0.634073	9.495503	0.035715	0.369108	-0.109337	0.174129	-0.207549	-0.943259	9.549141	1.804919	0.008224	0.054265	0.336249	0.03895	-0.560619	-0.342455	-0.227625
-2.976725	-2.201834	9.608791	-0.223486	0.120487	0.125273	0.562795	0.352279	-0.890444	1.960785	-0.802599	9.661652	-0.119887	0.275355	-0.141223	0.109024	-0.253885	-0.938869	9.723988	1.80402	-0.108288	-0.099418	0.396874	0.039217	-0.574594	-0.360504	-0.195803
-2.643262	-2.146813	9.104035	-0.162364	0.246482	-0.118199	0.588721	0.434156	-0.911637	2.42308	-0.465383	9.784887	-0.026035	0.368526	-0.140221	0.147662	-0.194522	-0.915012	9.602405	2.384556	-0.22783	0.269855	0.306436	0.038311	-0.574803	-0.376696	-0.194966
-2.123518	-2.146221	9.341469	-0.068083	0.459253	0.130331	0.533782	0.38057	-0.896577	2.128646	-0.803112	9.438721	-0.181245	0.334089	0.136765	0.13468	-0.254807	-0.925071	9.133692	1.863446	-0.119045	0.299679	0.370563	-0.237168	-0.601993	-0.328527	-0.197618
-2.810613	-2.088282	9.328348	0.053526	0.306166	0.127493	0.575758	0.393217	-0.901041	2.53644	-0.803676	9.673742	-0.117781	0.458137	0.045565	0.121924	-0.26913	-0.938141	9.135373	2.5611	0.063642	0.207104	0.339326	-0.206121	-0.61646	-0.359464	-0.227069
-2.231097	-2.48934	9.678913	0.113119	0.154879	-0.059145	0.577272	0.372732	-0.922361	2.534022	-0.803771	9.560462	-0.242994	0.333507	0.105881	0.109689	-0.236421	-0.968572	9.305933	2.03628	-0.35463	0.208581	0.398613	-0.023032	-0.587667	-0.295938	-0.199222
-2.412224	-1.859288	9.223402	0.236628	0.184097	0.124982	0.561652	0.376292	-0.8832	2.761435	-0.578975	9.452209	0.095048	0.185299	-0.018633	0.161003	-0.238264	-0.940976	9.485453	1.920217	-0.232009	0.021096	0.402676	-0.480815	-0.616109	-0.344924	-0.196851
-2.300683	-2.377069	9.052898	-0.070126	0.120855	0.155505	0.577658	0.358961	-0.918945	2.366377	-0.915919	9.783299	-0.090356	0.182746	0.012021	0.161003	-0.238264	-0.940976	9.187496	2.210778	-0.356089	0.084873	0.585175	-0.359666	-0.546782	-0.341424	-0.243083
-2.531845	-2.492269	8.934255	-0.101144	0.215689	-0.088208	0.56088	0.403834	-0.890031	2.139095	-0.577363	9.948667	0.001859	0.152854	0.073454	0.161078	-0.222944	-0.94198	9.076472	2.038304	0.00041	0.053558	0.523885	-0.35926	-0.60178	-0.331006	-0.151034
-2.296229	-2.376104	9.28031	-0.009353	0.153959	-0.028139	0.518904	0.391187	-0.885568	2.193141	-0.633943	9.77991	0.096139	0.276891	0.043935	0.173979	-0.238189	-0.941252	9.783025	2.26874	-0.045303	0.114817	0.493832	-0.389901	-0.588435	-0.342863	-0.227766
-2.356	-1.974454	9.16718	0.022125	0.245602	0.034595	0.562037	0.362521	-0.879784	2.077795	-0.521067	9.777587	0.004198	0.336844	0.075285	0.122075	-0.23849	-0.940149	9.664027	2.210687	-0.107658	0.238888	0.523919	-0.298806	-0.588223	-0.345342	-0.181182
-2.807888	-2.777098	9.439159	-0.101231	0.278543	-0.209858	0.547531	0.376667	-0.88285	2.311444	-1.028378	9.895275	0.064388	0.214767	0.104948	0.109319	-0.252813	-0.953219	9.373058	1.863648	0.065077	0.301639	0.49103	-0.054373	-0.602064	-0.327701	-0.213145
-2.528546	-2.434103	9.105056	0.267232	0.215668	0.064071	0.547545	0.359368	-0.865359	2.131411	-0.352325	9.609019	0.096529	0.307556	0.04424	0.109104	-0.178355	-0.929538	9.491515	2.154005	0.128421	0.302468	0.489454	0.098446	-0.601922	-0.329353	-0.18209
-2.705794	-2.550068	8.816967	0.267036	0.184936	0.063572	0.533782	0.38057	-0.896577	1.907624	-0.576979	9.887192	0.097621	0.399148	0.106808	0.122219	-0.268059	-0.952491	9.255046	2.328773	0.124761	0.331763	0.337247	0.03794	-0.574598	-0.341832	-0.243224
-2.413338	-1.85953	9.166549	0.082121	0.061845	0.000768	0.561223	0.441961	-0.939091	1.49903	-1.421467	9.53818	0.066182	0.367286	0.229778	0.161153	-0.207624	-0.942983	9.656459	2.15088	-0.527253	0.239595	0.336284	0.099404	-0.615901	-0.328731	-0.197688
-2.531021	-2.089937	8.992797	-0.039018	0.307475	-0.025559	0.546759	0.404209	-0.889682	1.850059	-0.576871	9.885983	0.190771	0.431391	0.045548	0.160707	-0.239336	-0.926626	9.485048	2.094445	-0.231267	0.237349	0.371602	-0.359199	-0.574177	-0.328119	-0.197477
-2.463538	-2.375015	9.504382	-0.194498	-0.06237	-0.000454	0.547545	0.359368	-0.865359	2.247835	-1.028507	9.610868	0.128827	0.429802	0.168794	0.122005	-0.1936	-0.92881	9.67009	2.444474	0.252772	0.022	0.432005	-0.358707	-0.644205	-0.360698	-0.211682
-2.125579	-2.37647	9.226798	-0.285972	0.029744	-0.029362	0.575786	0.358618	-0.866057	2.414833	-0.578376	9.388315	0.099297	0.522411	0.015551	0.135421	-0.222022	-0.955778	9.25489	1.921994	0.063124	0.267459	0.279945	-0.35887	-0.574315	-0.345137	-0.181112
-2.9799	-2.432324	9.437266	-0.284826	0.151628	0.06462	0.576101	0.431344	-0.9501	2.648722	-0.578665	9.56307	-0.086536	0.488992	0.076725	0.12274	-0.221025	-0.969852	9.426727	2.269056	-0.171719	0.330378	0.588268	-0.574509	-0.574248	-0.327293	-0.213005
-2.526692	-1.916647	9.220934	-0.130832	0.212764	0.157174	0.532282	0.383756	-0.857765	2.028476	-0.407966	10.17295	-0.02467	0.490179	0.015131	0.147876	-0.26898	-0.938693	9.373483	2.154275	0.12622	0.205583	0.466412	-0.665164	-0.602131	-0.345546	-0.181253
-2.417792	-1.860495	8.939136	-0.038855	0.2757	0.065928	0.576129	0.396745	-0.915117	1.893549	-0.80287	9.207327	-0.055525	0.489988	-0.015724	0.12134	-0.211064	-0.899107	9.254641	2.503001	0.125503	0.205658	0.497317	-0.695874	-0.57348	-0.280368	-0.184461
-2.755544	-2.146247	9.215514	-0.284913	0.214483	-0.05703	0.53341	0.377041	-0.882501	2.192471	-0.915643	9.723033	-0.118483	0.397209	-0.016697	0.135201	-0.207774	-0.942432	9.259853	2.155534	0.363647	0.23937	0.585099	-0.2991	-0.602276	-0.325222	-0.259729
-2.472405	-2.434386	9.049316	-0.161447	0.275128	0.066272	0.562009	0.39712	-0.914767	2.477234	-0.578294	9.616083	-0.151949	0.211621	0.166399	0.148322	-0.237268	-0.95505	9.076607	1.980228	0.000163	0.235465	0.28204	-0.572704	-0.615901	-0.328731	-0.197688
-2.820385	-2.435103	8.815223	-0.131509	0.183423	0.034027	0.575386	0.389689	-0.886965	2.309158	-0.46512	9.839109	-0.151014	0.273756	0.043705	0.134535	-0.225238	-0.912729	9.252845	2.328279	0.004947	0.268334	0.433523	-0.420732	-0.630506	-0.376686	-0.210775
-2.353691	-2.088855	9.280403	-0.008567	0.276887	-0.026144	0.561637	0.393592	-0.900691	2.249498	-0.634099	9.724479	-0.028997	0.152664	0.042599	0.174424	-0.206477	-0.957609	9.248578	2.269214	-0.234928	0.142529	0.375683	-0.786753	-0.616113	-0.326252	-0.244271
-2.237038	-1.973572	9.396819	0.022212	0.182748	0.156245	0.562037	0.362521	-0.879784	2.309266	-0.52145	9.839062	0.034234	0.275503	0.136356	0.1349	-0.269055	-0.938417	9.362904	2.44243	-0.411706	-0.009406	0.401935	-0.419576	-0.588573	-0.359882	-0.211401
-2.862009	-2.489125	9.609811	0.082264	0.217938	-0.211371	0.505912	0.384847	-0.909955	2.193249	-0.690274	9.779862	-0.119301	0.335678	0.013518	0.122665	-0.236346	-0.968848	9.787582	2.676508	0.255962	0.081465	0.281171	-0.541579	-0.561033	-0.393511	-0.178531
-2.980972	-2.490007	9.380172	0.05203	0.091391	0.093339	0.561666	0.358993	-0.865708	2.137994	-0.633741	9.89198	0.064466	0.215169	0.043296	0.121704	-0.254882	-0.924795	9.720977	2.151981	-0.226618	-0.100201	0.553604	-0.328282	-0.602201	-0.344719	-0.19678
-2.239099	-2.203821	9.282148	0.143614	0.092863	0.001095	0.576901	0.369203	-0.908285	2.422086	-0.578091	9.728153	0.126721	0.247021	-0.017994	0.161373	-0.221872	-0.956329	9.60225	1.977776	-0.289468	0.112464	0.280966	-0.511128	-0.560198	-0.328741	-0.181879
-2.916747	-2.890692	9.720715	-0.1629	0.028926	0.092942	0.546774	0.38691	-0.87219	2.189299	-0.521425	9.610086	-0.151404	0.243091	0.0434	0.148397	-0.221947	-0.956054	9.541728	2.151892	-0.349734	0.051702	0.310073	-0.388796	-0.574248	-0.327293	-0.213005
-2.178628	-2.030814	9.454544	0.145	0.214052	0.156401	0.548317	0.331825	-0.858527	2.541059	-0.690826	9.900395	0.063764	0.154242	-0.018967	0.12134	-0.211064	-0.899107	9.668139	1.862972	0.070579	0.023568	0.460073	-0.114344	-0.602272	-0.343893	-0.212308
-2.751131	-2.087841	9.443168	0.114745	0.275373	0.157484	0.53341	0.377041	-0.882501	1.900371	-0.577264	9.547354	-0.028607	0.183329	0.042904	0.186439	-0.224938	-0.913832	9.83957	2.384263	-0.163522	0.024141	0.490032	-0.053364	-0.574527	-0.342659	-0.227696
-2.183331	-1.68713	9.22858	0.083584	0.214114	0.12591	0.546774	0.38691	-0.87219	2.245094	-0.85961	9.497731	0.30698	-0.149473	0.009037	0.160927	-0.253585	-0.939972	9.905999	2.037155	0.195537	0.054386	0.522308	-0.206441	-0.602272	-0.343893	-0.212308
-2.530607	-2.664352	8.990384	0.084917	0.460664	0.068578	0.562423	0.34875	-0.876368	2.47745	-0.690955	9.615988	0.153017	-0.091511	0.225286	0.161298	-0.237193	-0.955326	9.131106	2.502035	-0.176233	0.084708	0.58549	-0.39023	-0.587738	-0.295112	-0.214749
-2.640211	-1.743998	9.276284	0.206986	0.494054	-0.115239	0.547502	0.411266	-0.917834	2.482501	-0.803426	9.842451	0.429425	-0.239698	-0.02259	0.134535	-0.225238	-0.912729	9.372518	2.095952	0.066066	0.239521	0.646908	-0.360521	-0.629738	-0.329762	-0.18223
-2.754596	-1.91624	9.273333	0.084514	0.493134	-0.084233	0.533025	0.390812	-0.885917	2.539743	-0.634543	9.843803	0.613075	-0.360812	0.099666	0.12252	-0.206777	-0.956506	9.725089	1.804267	-0.048381	0.206923	0.401766	-0.32867	-0.574319	-0.326466	-0.228533
-2.582252	-2.720546	9.273295	0.208262	0.521657	0.161218	0.576901	0.369203	-0.908285	2.131734	-0.521317	9.608877	0.583038	-0.299471	0.038596	0.13468	-0.254807	-0.925071	9.661536	1.861489	-0.288862	0.64014	0.493511	-0.177863	-0.588085	-0.328323	-0.197547
-2.468691	-2.950636	9.217703	0.084634	0.492786	-0.053571	0.532282	0.383756	-0.857765	1.906954	-0.858679	9.830315	0.826605	-0.572723	0.097731	0.148692	-0.220875	-0.970403	9.367576	2.327267	-0.172573	0.333045	0.5211	0.006495	-0.616668	-0.375656	-0.226232
-2.86869	-2.490573	9.268693	0.085387	0.553207	0.039412	0.560523	0.383007	-0.858464	2.425905	-1.310293	9.840816	0.674396	-0.391095	0.161071	0.135496	-0.206702	-0.956781	9.612289	1.921925	0.249447	0.207255	0.401135	-0.267542	-0.574181	-0.309448	-0.244898
-2.696311	-1.801157	9.331782	0.175168	0.215586	0.033667	0.532267	0.401055	-0.875257	2.48043	-0.35283	9.786191	0.552691	-0.239741	0.224134	0.108584	-0.225388	-0.912177	9.658545	2.674306	-0.345308	0.082672	0.434118	-0.542314	-0.574106	-0.328945	-0.181949
-2.413379	-1.802088	9.16679	0.14678	0.396705	0.312703	0.51929	0.377416	-0.882152	2.419645	-1.197869	9.557713	0.339239	-0.027427	0.164417	0.173979	-0.238189	-0.941252	9.54615	2.617736	-0.048221	0.205734	0.528222	-0.726585	-0.560616	-0.361126	-0.180205
-2.641076	-2.088889	9.217983	0.14653	0.491334	0.099567	0.576529	0.365675	-0.894209	2.30674	-0.465215	9.72583	0.244179	-0.212794	0.193325	0.134535	-0.225238	-0.912729	9.428233	2.095075	-0.112554	0.112164	0.498876	-0.878919	-0.574527	-0.342659	-0.227696
-2.93073	-2.031964	9.042097	0.206876	0.400468	0.005913	0.604027	0.357869	-0.866755	2.130417	-0.465034	9.552285	0.183715	-0.120778	0.070879	0.135126	-0.223094	-0.941428	9.720012	2.093658	-0.286773	0.267641	0.559033	-0.726956	-0.588782	-0.376074	-0.210564
-2.529825	-2.204579	9.049168	0.08484	0.429584	0.098741	0.533796	0.36327	-0.879085	2.073067	-0.577587	9.550981	0.21535	-0.059257	0.102345	0.160412	-0.240408	-0.912276	9.664297	2.094535	-0.108152	-0.041021	0.558555	-0.786961	-0.588644	-0.359055	-0.226929
-2.519804	-2.202407	9.560846	0.207509	0.461236	0.068234	0.575015	0.38616	-0.872889	2.243885	-0.859658	9.441091	0.152705	-0.121774	0.163329	0.134975	-0.253735	-0.939421	9.488504	2.501967	0.010091	-0.101588	0.463097	-0.450096	-0.574039	-0.3111	-0.213842
-2.580233	-2.432856	9.388208	0.145373	0.463384	-0.146228	0.562395	0.383349	-0.911352	2.240474	-0.972461	9.271078	0.061581	-0.00029	0.164463	0.187319	-0.281932	-0.967216	9.490415	2.153758	0.068514	0.082643	0.558368	-0.726283	-0.574386	-0.344311	-0.19664
-2.353566	-2.261179	9.279679	0.114539	0.338575	0.005172	0.534153	0.384098	-0.910653	2.306393	-0.915906	9.668811	0.029985	-0.061609	0.102172	0.12178	-0.239561	-0.925799	9.186821	2.501158	-0.354853	-0.133913	0.465823	-0.725057	-0.560482	-0.325436	-0.24399
-2.356208	-1.687247	9.168386	0.114232	0.214257	0.125825	0.588735	0.416856	-0.894145	1.911035	-0.464176	10.057205	0.096607	0.307959	-0.017412	0.135276	-0.192453	-0.943435	9.252285	2.095727	-0.055949	-0.100518	0.49211	-0.297425	-0.560686	-0.3603	-0.195733
-2.469064	-2.433662	9.219875	-0.039805	0.184548	-0.027555	0.590664	0.348001	-0.877066	2.137	-0.746449	9.835245	-0.027827	0.244658	0.043515	0.147807	-0.224091	-0.927354	9.489855	1.921206	0.007618	-0.470741	0.398065	-0.203947	-0.574039	-0.3111	-0.213842
-2.302169	-1.860336	8.998216	-0.00943	0.12288	0.002024	0.590278	0.361772	-0.880482	2.133589	-0.859253	9.665232	0.06696	0.399964	-0.078177	0.134975	-0.253735	-0.939421	9.425917	2.617512	-0.170236	-0.565049	0.339075	-0.447826	-0.560895	-0.376492	-0.194896
-2.356907	-2.261903	9.10912	0.05155	0.092782	-0.029309	0.533396	0.394341	-0.899993	2.305747	-0.577923	9.669096	-0.088174	0.337278	-0.171409	0.121704	-0.254882	-0.924795	9.607347	2.15324	0.010808	-0.87273	0.39883	-0.416434	-0.560549	-0.343281	-0.212098
-2.29524	-2.203538	9.337887	-0.040438	0.12378	-0.089876	0.533039	0.373513	-0.868425	2.197654	-0.464762	10.00661	-0.243229	0.303647	-0.017728	0.122295	-0.252738	-0.953495	9.551092	2.386421	0.190417	-0.873198	0.275526	-0.324156	-0.532524	-0.32668	-0.212794
-2.300025	-1.744971	9.112405	-0.134391	-0.152541	-0.155432	0.532639	0.404584	-0.889333	2.083169	-0.80253	10.003908	-0.116456	0.550936	-0.076823	0.109174	-0.223244	-0.940877	9.192728	2.328166	-0.05606	-0.964853	0.211493	-0.079015	-0.615759	-0.330384	-0.166632
-2.648006	-1.745687	8.878312	0.050097	-0.153421	-0.002638	0.547917	0.362896	-0.879435	1.678679	-0.632831	9.938948	-0.148793	0.428489	-0.170551	0.108584	-0.225388	-0.912177	9.30802	2.559706	-0.172684	-0.623309	0.301329	0.224948	-0.532733	-0.342873	-0.211957
-2.755585	-2.088806	9.215756	-0.070716	0.02866	0.154008	0.562437	0.331451	-0.858876	2.711661	-0.860235	9.7906	-0.178556	0.51989	-0.138838	0.161078	-0.222944	-0.94198	9.547791	2.38568	0.010697	-0.624365	0.210191	0.164261	-0.560832	-0.339976	-0.274209
-2.416305	-2.377227	8.993818	0.111863	-0.060592	-0.031975	0.560866	0.421134	-0.907523	2.194674	-0.802888	9.836407	-0.088797	0.305406	0.013242	0.160852	-0.268905	-0.938969	9.538136	1.802447	-0.590845	-0.532061	0.335088	-0.05061	-0.58829	-0.363187	-0.14929
-2.753358	-2.088323	9.329462	0.020869	0.030132	0.061765	0.534554	0.353028	-0.889745	2.41846	-0.578234	9.558234	0.098634	0.461685	-0.077538	0.160117	-0.24148	-0.897927	9.481071	2.384084	-0.409752	-0.222585	0.396115	0.07023	-0.574106	-0.328945	-0.181949
-2.522072	-2.145448	9.447381	0.112813	0.030561	0.061507	0.590278	0.361772	-0.880482	2.364413	-0.521653	9.726992	-0.146571	0.611874	-0.076242	0.147882	-0.208771	-0.928358	9.723739	2.385027	-0.045909	-0.284326	0.364989	0.101165	-0.588227	-0.32667	-0.228603
-2.591741	-1.918294	8.821848	0.267286	0.090307	0.276709	0.589507	0.389314	-0.887314	2.475594	-0.353019	9.559633	0.006965	0.551699	0.046596	0.161668	-0.2208	-0.970679	9.546265	2.094805	-0.110353	-0.376223	0.270366	0.346453	-0.602414	-0.342241	-0.243364
-2.696968	-2.433255	9.272274	0.053046	0.307557	0.004845	0.546002	0.414452	-0.879022	1.841489	-0.520873	9.489553	-0.055331	0.490994	-0.169854	0.134385	-0.255879	-0.910721	9.486979	2.211092	-0.110959	-0.406332	0.362023	0.346124	-0.588018	-0.310478	-0.22944
-2.524133	-2.375697	9.332709	0.205456	0.216772	-0.058405	0.520833	0.322332	-0.868489	2.418437	-1.197917	9.501073	-0.11856	0.396807	0.044955	0.147656	-0.254732	-0.925347	9.848353	1.921385	0.253849	-0.249512	0.699063	0.343948	-0.560686	-0.3603	-0.195733
-2.980025	-2.26	9.43799	0.114528	0.432509	-0.146641	0.576529	0.365675	-0.894209	2.191933	-0.633991	9.72327	-0.210892	0.426095	0.076	0.160337	-0.255729	-0.911273	9.540918	2.500348	-0.34825	-0.312897	0.608964	0.16123	-0.560895	-0.376492	-0.194896
-2.809831	-1.628508	9.387132	0.175911	0.369941	-0.025162	0.589521	0.372015	-0.869822	2.369572	-0.690455	9.953408	0.004431	0.338051	-0.109671	0.122225	-0.207849	-0.942156	9.375954	2.038617	0.24554	-0.252679	0.425648	0.161886	-0.602343	-0.343067	-0.227836
-2.585966	-2.204296	9.104907	0.296724	0.18786	-0.181809	0.561237	0.424662	-0.921599	2.480969	-0.634482	9.785954	-0.026229	0.367519	0.01391	0.134975	-0.253735	-0.939421	9.552867	2.096288	0.249088	0.084856	0.305771	0.038984	-0.602339	-0.361738	-0.180416
-2.644085	-2.549145	9.045493	0.266872	0.216711	-0.027915	0.546731	0.438808	-0.924666	2.478335	-0.521916	9.67277	0.219793	0.278862	-0.017602	0.161003	-0.238264	-0.940976	9.423446	2.73317	-0.289555	0.02634	0.29956	0.619922	-0.630159	-0.343475	-0.227977
-2.582833	-1.916364	9.276673	0.14369	0.123943	-0.029068	0.562409	0.36605	-0.89386	2.018135	-0.690045	9.662956	0.191238	0.462459	-0.015799	0.148247	-0.252588	-0.954046	9.785381	2.676014	0.136148	0.11911	0.206232	0.80341	-0.56069	-0.341628	-0.243153
-2.346885	-2.259732	9.620798	-0.039248	0.214237	0.06493	0.532653	0.387284	-0.871841	2.594113	-0.860115	9.674903	0.22221	0.463253	-0.077423	0.134535	-0.225238	-0.912729	9.841481	2.036054	-0.105098	-0.255394	-0.003866	0.286198	-0.588085	-0.328323	-0.197547
-2.35006	-2.490222	9.449273	-0.161437	0.181194	0.218084	0.546388	0.400681	-0.875606	2.417467	-0.690942	9.5015	0.22225	0.492107	0.200317	0.148397	-0.221947	-0.956054	9.431534	2.095817	0.067167	-0.006936	0.117803	0.437532	-0.574386	-0.344311	-0.19664
-2.519638	-2.432173	9.55988	0.020585	0.062254	-0.060384	0.533396	0.394341	-0.899993	2.416689	-0.916312	9.444671	-0.054901	0.550513	0.108191	0.147807	-0.224091	-0.927354	9.667598	2.095277	0.071568	0.116713	0.179741	0.406226	-0.588782	-0.376074	-0.210564
-2.814942	-2.261572	9.100212	-0.039871	0.059534	0.154421	0.547902	0.380195	-0.896926	1.890593	-0.521313	9.094285	-0.146453	0.64113	0.139846	0.096343	-0.252888	-0.952943	9.537866	1.918599	-0.59035	-0.006014	0.426535	0.160989	-0.574665	-0.359677	-0.211331
-2.529742	-2.319462	9.048685	-0.255771	0.093784	-0.243084	0.547902	0.380195	-0.896926	2.30838	-0.690489	9.78228	-0.395047	0.544591	0.354483	0.109915	-0.19046	-0.971583	9.496187	2.038842	0.367554	0.18031	0.424679	0.404826	-0.587876	-0.31213	-0.198384
-2.465149	-1.685957	9.450425	-0.192675	0.088856	0.216674	0.533039	0.373513	-0.868425	1.845116	-0.52073	9.659472	-0.703718	0.54208	0.138413	0.095608	-0.225463	-0.911901	9.671035	2.037942	0.251042	0.272719	0.456231	0.343215	-0.616389	-0.36029	-0.211541
-2.179576	-2.260821	9.396726	-0.070016	0.214441	0.034354	0.589907	0.358244	-0.866406	2.307171	-0.690537	9.72564	-0.673134	0.540862	0.38505	0.147436	-0.240483	-0.912001	9.540783	2.558424	-0.348003	0.272449	0.549891	0.159392	-0.532938	-0.377736	-0.1637
-2.690246	-2.489249	9.613152	-0.040121	0.154164	-0.058715	0.547545	0.359368	-0.865359	2.015825	-0.746471	9.54963	-1.042151	0.659623	0.262622	0.109099	-0.238565	-0.939873	9.555764	2.271258	0.42955	0.056739	0.735175	-0.085214	-0.574248	-0.327293	-0.213005
-2.697093	-2.260931	9.272998	-0.253075	0.305083	0.09769	0.54866	0.369952	-0.907586	2.531627	-0.184183	9.504344	-1.0134	0.505684	0.415255	0.12237	-0.237418	-0.954498	9.779723	2.267998	-0.225024	-0.372272	0.728578	0.405377	-0.588294	-0.344515	-0.19671
-2.748863	-2.1448	9.556633	-0.100544	0.213951	0.065102	0.561652	0.376292	-0.8832	2.240605	-0.409108	9.328191	-0.765856	0.539485	0.41579	0.134831	-0.224166	-0.927078	9.779163	2.035447	-0.285919	-0.341273	0.728374	0.435829	-0.602064	-0.327701	-0.213145
-2.473601	-2.319744	8.992946	-0.16255	0.121817	0.033115	0.561637	0.393592	-0.900691	1.906069	-1.027718	9.773533	-0.671809	0.633661	0.262662	0.135496	-0.206702	-0.956781	9.428253	2.55993	-0.050669	-0.463881	0.819699	0.435837	-0.560549	-0.343281	-0.212098
-2.524382	-2.031048	9.334157	-0.009506	0.0918	0.032187	0.56128	0.372764	-0.869124	2.300804	-0.521782	9.442585	-0.518936	0.512761	0.29241	0.160632	-0.254657	-0.925623	9.372113	2.27018	0.066808	-0.836063	0.605187	0.34652	-0.588156	-0.327497	-0.213075
-2.520834	-2.317532	9.50351	0.143624	-0.001071	0.152908	0.575758	0.393217	-0.901041	2.24872	-0.859468	9.66765	-0.517144	0.636628	0.108675	0.122	-0.25381	-0.939145	9.482152	1.919476	-0.41173	-0.900504	0.42395	0.103115	-0.574386	-0.344311	-0.19664
-2.423069	-2.263792	8.653182	0.20384	0.002344	-0.123221	0.576529	0.365675	-0.894209	2.311791	-0.577686	9.952294	-0.547493	0.667705	-0.014353	0.121704	-0.254882	-0.924795	9.553968	2.096536	0.308995	-1.053674	0.421504	0.287059	-0.588644	-0.359055	-0.226929
-2.583615	-2.376138	9.21789	0.052686	0.3086	-0.087141	0.575401	0.372389	-0.869473	2.596854	-1.029011	9.78804	-0.610372	0.603982	0.231588	0.109174	-0.223244	-0.940877	9.660456	2.326097	-0.286884	-1.26848	0.294587	0.655198	-0.602552	-0.359259	-0.226999
-2.467992	-2.37598	9.27697	-0.041551	0.064402	-0.274846	0.533796	0.36327	-0.879085	2.35716	-0.521938	9.387154	-0.612633	0.420395	0.168104	0.147656	-0.254732	-0.925347	9.428233	2.095075	-0.112554	-1.268585	0.387932	0.501938	-0.574456	-0.343485	-0.212168
-2.352536	-2.146055	9.337015	0.021175	0.15445	-0.058887	0.561294	0.355465	-0.851632	2.473045	-0.916467	9.38924	-0.67524	0.35808	0.198262	0.134755	-0.239486	-0.926075	9.665688	2.443485	0.013145	-1.391359	0.479572	0.471383	-0.588431	-0.361534	-0.180345
-2.523393	-1.858482	9.391734	0.022092	0.183096	0.125583	0.547131	0.407737	-0.903758	2.125474	-0.408893	9.325774	-0.396335	0.42334	0.137479	0.121484	-0.240633	-0.911449	9.548331	2.153375	0.009708	-1.270048	0.266519	0.410834	-0.574594	-0.360504	-0.195803
-2.634478	-1.972558	9.559584	-0.101931	0.092762	-0.090203	0.533025	0.390812	-0.885917	2.657399	-0.690994	9.959452	-0.273187	0.394042	0.168115	0.135346	-0.237343	-0.954774	9.723334	2.559255	-0.045167	-1.176328	0.357675	0.501748	-0.58864	-0.377727	-0.179508
-2.579368	-2.087965	9.446509	0.112006	0.095501	-0.244114	0.59065	0.3653	-0.894558	2.934131	-0.579299	9.455835	-0.302911	0.485645	0.169002	0.148322	-0.237268	-0.95505	9.482577	2.210103	-0.350587	-1.08606	0.331201	0.134792	-0.560407	-0.344933	-0.181042
-2.291816	-2.317697	9.507964	0.052129	0.278911	-0.179625	0.534168	0.366799	-0.893161	2.191263	-0.915691	9.666393	-0.179998	0.426487	0.076029	0.121635	-0.209992	-0.913457	9.542403	1.861512	-0.35097	-1.177549	0.266852	0.410497	-0.560269	-0.327915	-0.197407
-2.752985	-2.605297	9.32729	-0.224446	0.123269	-0.120023	0.561251	0.407363	-0.904107	2.18973	-0.746747	9.609896	-0.088913	0.304802	0.10572	0.135051	-0.238415	-0.940424	9.425782	2.675588	-0.169989	-0.928713	0.543045	0.408278	-0.601926	-0.310682	-0.22951
-2.927307	-2.146123	9.212174	-0.010336	0.0003	-0.030634	0.575	0.40346	-0.89038	1.626619	-0.350834	10.221174	-0.117195	0.51846	0.200306	0.134755	-0.239486	-0.926075	9.715745	2.034593	-0.526647	-1.114209	0.543325	0.31726	-0.616247	-0.361942	-0.180486
-2.698579	-1.744198	9.218317	-0.132459	0.092271	-0.059455	0.545988	0.431751	-0.896514	1.904406	-1.422127	9.659922	-0.335092	0.392654	0.260536	0.134831	-0.224166	-0.927078	9.610378	2.270134	0.191023	-1.146382	0.607861	-0.019124	-0.575016	-0.374217	-0.241549
-2.413379	-1.802088	9.16679	-0.132939	0.093661	-0.182103	0.518161	0.38413	-0.857416	2.30674	-0.465215	9.72583	-0.304822	0.332522	0.13665	0.173834	-0.20862	-0.928909	9.777678	2.674283	-0.2832	-1.05717	0.490249	-0.446765	-0.588711	-0.3769	-0.195036
-2.292723	-2.605146	9.449904	-0.040208	0.217018	-0.180365	0.589121	0.403085	-0.89073	2.414379	-0.972737	9.331344	-0.458123	0.422556	0.137422	0.161223	-0.252513	-0.954322	9.549546	1.630691	0.007483	-1.208017	0.824919	-0.325565	-0.560478	-0.344107	-0.19657
-2.241533	-1.917096	9.169648	-0.07078	0.247955	-0.210443	0.576901	0.369203	-0.908285	2.540952	-0.634495	9.900442	-0.366026	0.363409	-0.017233	0.148177	-0.207699	-0.942707	9.314602	2.096334	0.124873	-1.238533	0.886302	-0.35631	-0.588502	-0.360708	-0.195873
-2.235924	-1.973331	9.453672	-0.041661	-0.029184	-0.153695	0.575401	0.372389	-0.869473	2.303868	-0.859671	9.555579	-0.553573	0.206525	0.166025	0.148322	-0.237268	-0.95505	9.020217	2.271484	0.180019	-1.452691	0.820249	0.042098	-0.616322	-0.342445	-0.243434
-2.749893	-2.259924	9.499297	0.113665	0.278502	-0.118473	0.548274	0.383723	-0.911002	2.478551	-0.634577	9.672675	-0.364973	0.4548	0.076161	0.148027	-0.23834	-0.9407	9.247343	2.327042	-0.294587	-1.267271	0.789064	0.163827	-0.574248	-0.327293	-0.213005
-2.986664	-2.318889	9.09663	-0.100838	0.340007	-0.20886	0.603599	0.423538	-0.922647	2.306848	-0.521545	9.725783	-0.212296	0.30424	-0.048525	0.147882	-0.208771	-0.928358	9.485608	2.326997	-0.170372	-1.270302	0.639583	-0.171641	-0.561175	-0.391858	-0.209586
-2.646436	-2.377303	8.932511	-0.072539	-0.122566	-0.063119	0.562795	0.352279	-0.890444	2.135122	-1.028197	9.721729	-0.29956	0.732171	-0.013512	0.134755	-0.239486	-0.926075	9.663757	2.326839	-0.107163	-1.57943	0.515801	-0.139368	-0.546849	-0.359269	-0.21119
-2.479251	-2.206068	8.709163	0.081608	0.000729	-0.030891	0.575386	0.389689	-0.886965	2.594005	-0.803784	9.67495	-0.147467	0.54994	0.015626	0.147216	-0.226235	-0.898655	9.541593	2.209968	-0.349486	-1.426577	0.456752	-0.292454	-0.588364	-0.343689	-0.212238
-2.471374	-2.319262	9.106652	-0.257584	-0.151375	-0.308399	0.518518	0.404958	-0.888984	2.01792	-0.577384	9.663051	-0.179414	0.458158	-0.077797	0.12193	-0.208921	-0.927806	9.309795	2.269573	-0.114013	-1.735645	0.426	-0.382876	-0.588364	-0.343689	-0.212238
-2.696062	-2.145806	9.330334	-0.254931	0.091351	-0.02845	0.575786	0.358618	-0.866057	2.309027	-1.028473	9.781995	-0.210347	0.457565	-0.046999	0.109689	-0.236421	-0.968572	9.1963	2.212756	0.123166	-1.764186	0.545725	-0.138841	-0.56034	-0.327088	-0.212935
-2.634354	-2.144883	9.55886	-0.194048	0.218041	-0.333246	0.533796	0.36327	-0.879085	1.902011	-0.802538	9.603804	-0.213855	0.181581	-0.049746	0.121409	-0.255954	-0.910446	9.36578	2.152544	-0.293128	-1.952411	0.178616	-0.197533	-0.588227	-0.32667	-0.228603
-2.475994	-2.090461	8.880205	0.05142	0.187063	-0.211784	0.575372	0.406988	-0.904456	2.243454	-0.634336	9.441281	-0.118366	0.397813	-0.109176	0.173608	-0.254582	-0.925898	10.139458	2.210348	0.080866	-1.981886	0.393262	-0.259577	-0.58899	-0.392267	-0.209727
-2.525578	-1.916406	9.277787	-0.162244	0.246135	-0.087537	0.547902	0.380195	-0.896926	2.133913	-1.028244	9.66509	-0.274435	0.272993	-0.079714	0.13453	-0.285448	-0.923064	9.785091	2.327311	0.074758	-2.167607	0.300828	-0.258463	-0.587947	-0.311304	-0.213912
-2.693711	-2.317649	9.443316	-0.346679	0.121653	-0.027693	0.575029	0.368861	-0.855397	2.301797	-0.409074	9.499319	-0.118171	0.427472	0.04526	0.134975	-0.253735	-0.939421	9.499779	2.388287	0.608665	-2.136835	0.20791	-0.135879	-0.588431	-0.361534	-0.180345
-2.811394	-2.548056	9.269565	-0.409045	0.030562	-0.151666	0.5746	0.43453	-0.911288	2.42405	-0.972358	9.784461	-0.21101	0.396839	-0.140088	0.121189	-0.241705	-0.8971	9.718912	2.093411	-0.34668	-2.107118	0.023853	-0.073983	-0.588435	-0.342863	-0.227766
-2.636664	-2.030482	9.445636	-0.317734	-0.029777	-0.214245	0.588349	0.430627	-0.897561	2.588307	-0.35333	9.448771	0.036611	0.431042	-0.201205	0.161448	-0.206552	-0.957333	9.301957	2.325919	-0.533114	-2.075442	-0.039737	0.170709	-0.602969	-0.391644	-0.225325
-2.81185	-1.916199	9.272219	-0.378003	0.092169	-0.150754	0.54866	0.369952	-0.907586	2.593358	-0.465801	9.675235	-0.052835	0.70444	0.017239	0.147656	-0.254732	-0.925347	9.303057	2.326166	-0.473207	-2.198186	-0.072346	0.324124	-0.574665	-0.359677	-0.211331
-2.817459	-1.859963	8.988195	-0.37986	-0.121563	-0.276894	0.53301	0.408112	-0.903409	2.195105	-1.02821	9.836217	0.197477	0.981748	0.29765	0.135942	-0.174989	-0.973138	9.546825	2.327356	-0.049457	-2.354398	0.179381	-0.410021	-0.547125	-0.393307	-0.178461
-2.579161	-2.375173	9.445302	-0.165803	-0.119171	-0.400144	0.51849	0.439557	-0.923967	1.959684	-0.858977	9.604965	0.573354	1.442799	0.857444	0.148247	-0.252588	-0.954046	9.54723	2.153128	-0.050199	-2.295957	0.154687	-0.960243	-0.588573	-0.359882	-0.211401
-2.413131	-2.146737	9.165342	-0.25944	-0.365108	-0.434539	0.561652	0.376292	-0.8832	2.13031	-0.408703	9.552332	0.541954	1.411138	0.949588	0.148542	-0.251516	-0.968396	9.306359	2.326907	-0.293487	-1.860936	0.305089	-0.565222	-0.616109	-0.344924	-0.196851
-2.239555	-1.571964	9.284802	-0.230495	-0.516538	-0.621092	0.533425	0.359742	-0.865009	2.479329	-0.409208	9.729504	0.021315	1.771847	1.04524	0.148542	-0.251516	-0.968396	9.192728	2.328166	-0.05606	-1.923913	0.245265	-0.717522	-0.588573	-0.359882	-0.211401
-2.985799	-1.973998	9.154931	0.688629	-0.54263	-0.654829	0.56278	0.369578	-0.907936	2.192148	-0.746652	9.723175	-0.347388	1.920869	0.984769	0.147801	-0.284301	-0.937689	9.781634	1.91979	-0.1666	-1.986001	0.276893	-0.839698	-0.588364	-0.343689	-0.212238
-2.4649	-2.030607	9.448977	-0.446451	-0.701236	-0.684808	0.561237	0.424662	-0.921599	1.846648	-0.689675	9.715969	-0.998155	1.759113	1.013465	0.148328	-0.177058	-0.944715	9.428928	2.26955	-0.051906	-2.326156	0.277565	-1.021846	-0.575504	-0.405776	-0.255403
-2.532917	-2.549952	8.877161	-0.13938	-0.60761	-0.68417	0.533396	0.394341	-0.899993	1.90188	-1.365891	9.54669	-0.90602	1.671516	0.519418	0.135126	-0.223094	-0.941428	9.49111	2.328233	0.129163	-2.479898	0.24516	-0.898884	-0.546223	-0.310692	-0.213702
-2.752286	-2.030641	9.386556	-0.261426	-0.484559	-0.743155	0.533025	0.390812	-0.885917	2.192148	-0.746652	9.723175	-1.189956	1.179165	0.236841	0.147442	-0.180273	-0.901666	9.599799	2.558289	-0.346903	-2.66227	0.705229	-1.083795	-0.588782	-0.376074	-0.210564
-2.353856	-1.859089	9.281368	-0.258707	-0.116819	-0.645182	0.575386	0.389689	-0.886965	2.07691	-0.690106	9.720805	-0.946661	0.875855	0.203192	0.096273	-0.207999	-0.941605	9.250529	2.850716	-0.052735	-2.847251	0.642439	-0.991137	-0.602548	-0.377931	-0.179578
-2.57739	-1.742834	9.561663	-0.136322	-0.053045	-0.797838	0.547159	0.373139	-0.868774	1.612652	-0.633055	9.541262	-0.766831	0.448497	0.260744	0.135566	-0.251591	-0.96812	8.958054	2.677657	0.060835	-3.122876	0.793128	-0.868607	-0.574736	-0.358851	-0.226859
-2.752245	-2.088082	9.386315	0.452226	0.714146	-0.449715	0.589893	0.375543	-0.883898	2.420531	-1.02883	9.614494	0.550197	-0.424536	0.345607	0.147436	-0.240483	-0.912001	9.492346	2.270404	0.188822	-3.399361	0.728114	-0.592231	-0.574807	-0.358025	-0.242386
-2.692639	-2.259966	9.500411	1.464548	1.248261	-1.05731	0.546388	0.400681	-0.875606	2.182693	-0.859692	9.269963	1.220819	-1.178916	-0.216261	0.161223	-0.252513	-0.954322	9.782215	2.617196	-0.04382	-3.433616	0.486123	-0.866017	-0.60206	-0.346372	-0.165725
-2.295323	-2.088655	9.33837	1.961659	2.076133	-0.677269	0.574986	0.420759	-0.907872	2.474816	-0.578389	9.502804	1.215324	-1.579778	0.118858	0.148322	-0.237268	-0.95505	9.3647	2.617153	-0.29115	-3.618839	0.392744	-0.773212	-0.54629	-0.328537	-0.181809
-2.631754	-2.661374	9.670394	2.208554	2.134917	-0.339676	0.546388	0.400681	-0.875606	2.079004	-0.521019	9.834226	1.399244	-1.728136	-0.283234	0.12156	-0.225313	-0.912453	9.545455	2.443261	-0.10887	-3.404443	0.147858	-0.681132	-0.588502	-0.360708	-0.195873
-2.41977	-2.205626	8.823982	2.547325	2.069117	0.179634	0.520047	0.367173	-0.892812	2.25267	-1.028317	9.837426	1.30664	-1.728909	-0.344973	0.134831	-0.224166	-0.927078	9.785651	2.559862	0.135654	-3.373852	0.11738	-0.681097	-0.574248	-0.327293	-0.213005
-2.981262	-2.087916	9.381861	2.792919	1.943859	0.48357	0.533025	0.390812	-0.885917	1.897715	-1.084381	9.377008	1.000078	-1.548636	-0.374255	0.161003	-0.238264	-0.940976	9.309795	2.269573	-0.114013	-2.975755	0.09296	-1.140862	-0.588502	-0.360708	-0.195873
-2.292847	-2.432822	9.450628	1.687234	1.663861	0.328863	0.547159	0.373139	-0.868774	2.074145	-1.140892	9.550507	0.821965	-0.969155	-0.245324	0.121484	-0.240633	-0.911449	9.258887	2.097211	0.303493	-2.759414	0.030666	-0.957973	-0.588711	-0.3769	-0.195036
-2.6419	-2.491221	9.15944	1.194544	1.355298	0.233263	0.561266	0.390063	-0.886615	2.360332	-0.916156	9.500101	0.516922	-0.666424	-0.242559	0.161298	-0.237193	-0.955326	9.429914	2.792729	0.070133	-2.264656	0.278102	-1.052633	-0.588364	-0.343689	-0.212238
-2.356083	-1.859571	9.167662	0.33316	1.016371	-0.045777	0.506298	0.371076	-0.906539	2.194027	-0.464904	9.836691	0.211528	-0.394157	-0.270926	0.160858	-0.208695	-0.928633	9.607212	2.211316	0.011055	-1.958649	0.283624	-1.481644	-0.574456	-0.343485	-0.212168
-2.415358	-2.14722	9.051636	0.301092	0.832533	-0.110008	0.56128	0.372764	-0.869124	1.901126	-0.971577	9.547022	-0.306929	0.121088	-0.358704	0.12178	-0.239561	-0.925799	9.844532	2.617803	0.137002	-1.806579	0.381306	-2.002223	-0.588782	-0.376074	-0.210564
-2.756491	-2.376255	9.157696	-0.160028	0.458824	0.130589	0.53301	0.408112	-0.903409	2.305855	-0.634254	9.669048	-0.581234	0.423404	-0.232606	0.121704	-0.254882	-0.924795	9.483407	2.326502	-0.290185	-1.37929	0.298025	-2.675743	-0.574669	-0.341006	-0.258751
-2.808054	-2.547332	9.440124	-0.376354	0.369103	-0.176926	0.560894	0.386535	-0.872539	2.189084	-0.408764	9.61018	-0.859867	0.359553	-0.387605	0.133945	-0.227382	-0.884029	9.609588	3.083446	0.254391	-1.133546	0.331708	-2.890729	-0.574248	-0.327293	-0.213005
-2.12154	-1.801089	9.456623	-0.347028	0.028762	0.032134	0.520433	0.353402	-0.889396	2.541814	-1.085139	9.900063	-1.04036	0.754837	-0.22968	0.135346	-0.237343	-0.954774	9.546825	2.327356	-0.049457	-0.947056	0.329536	-2.616335	-0.588857	-0.356577	-0.273512
-2.299569	-2.376828	9.109751	-0.623888	-0.094758	-0.030413	0.575372	0.406988	-0.904456	1.894781	-0.18314	9.321128	-0.825737	0.634519	-0.169047	0.147876	-0.26898	-0.938693	9.371012	2.269933	0.006901	-0.979276	0.238918	-2.738034	-0.575083	-0.392062	-0.209657
-2.410655	-2.490904	9.277601	-0.775623	0.025368	0.155984	0.575372	0.406988	-0.904456	2.246195	-0.803232	9.554418	-0.641775	0.515017	-0.2934	0.147731	-0.239411	-0.92635	9.368001	2.617894	-0.11143	-0.728285	0.511013	-2.342933	-0.615901	-0.328731	-0.197688
-2.757853	-2.031847	9.102291	-0.746394	-0.158184	0.091581	0.562395	0.383349	-0.911352	2.135337	-1.140858	9.721634	-0.517613	0.576908	-0.138544	0.109394	-0.237493	-0.954223	9.371032	2.734788	0.068786	-0.352409	0.873744	-1.795902	-0.574248	-0.327293	-0.213005
-2.467951	-2.433421	9.276728	-0.838459	-0.158266	0.061177	0.533425	0.359742	-0.865009	2.302228	-0.634396	9.499129	-0.672239	0.574143	-0.015384	0.135126	-0.223094	-0.941428	10.024747	2.676216	0.320271	0.017785	1.092039	-2.073346	-0.546641	-0.343077	-0.212027
-2.582625	-2.203572	9.275467	-0.531377	-0.158573	0.213627	0.575772	0.375918	-0.883549	2.076132	-0.915475	9.663975	-0.51886	0.484511	-0.077808	0.109614	-0.251741	-0.967569	8.898613	2.387165	-0.001408	0.297423	1.151064	-1.769017	-0.588853	-0.375248	-0.226092
-2.581553	-2.145889	9.332561	-0.53094	-0.128537	0.27545	0.533768	0.397869	-0.914069	2.304861	-0.746962	9.612314	-0.734612	0.541688	0.138384	0.134831	-0.224166	-0.927078	9.134387	2.037921	-0.058397	0.453066	1.210907	-1.586491	-0.588085	-0.328323	-0.197547
-2.755295	-2.490897	9.214067	-0.500402	-0.22198	0.396515	0.547545	0.359368	-0.865359	2.016149	-0.915462	9.549487	-0.673136	0.51221	0.076484	0.109249	-0.207924	-0.94188	9.249273	2.443689	-0.174279	0.298793	0.962168	-1.248558	-0.587805	-0.312957	-0.182857
-2.467003	-2.203414	9.334547	-0.716762	-0.374208	0.179989	0.561637	0.393592	-0.900691	2.475032	-0.69105	9.502709	-0.423877	0.669475	-0.045064	0.135421	-0.222022	-0.955778	9.312536	2.037763	0.004812	0.05041	0.871403	-1.4306	-0.602552	-0.359259	-0.226999
-2.864319	-2.374724	9.496588	-0.716588	-0.499917	0.423288	0.532267	0.401055	-0.875257	1.906308	-0.520696	9.830599	-0.300964	0.610317	-0.138038	0.174279	-0.176908	-0.945266	9.300742	2.848603	-0.530889	0.205102	0.746762	-1.155502	-0.574594	-0.360504	-0.195803
-2.357072	-2.032137	9.110085	-0.931922	-0.529912	0.270081	0.603242	0.402711	-0.891079	1.78919	-0.745897	9.714713	-0.39162	0.762867	-0.19825	0.095972	-0.269281	-0.93759	9.134272	2.560853	0.003735	0.328313	0.561146	-0.910562	-0.602134	-0.326875	-0.228673
-2.74981	-2.374807	9.498815	-0.563194	-0.437042	0.362533	0.548303	0.349125	-0.876019	2.476349	-0.747333	9.559301	-0.544141	0.914231	-0.196867	0.109099	-0.238565	-0.939873	9.371957	1.8634	0.00517	0.237381	0.588881	-0.665863	-0.546778	-0.360095	-0.195663
-2.579243	-2.26029	9.445785	-0.499692	-0.130132	0.428673	0.576129	0.396745	-0.915117	1.731517	-0.689459	9.713551	-0.483328	0.824027	-0.351856	0.172873	-0.227157	-0.884856	9.249024	3.024696	-0.1119	0.485538	0.586931	-0.391688	-0.560828	-0.358647	-0.226788
-2.638849	-2.088406	9.331689	-0.161263	0.055485	0.461384	0.532282	0.383756	-0.857765	1.724587	-0.858735	9.373571	-0.360141	0.79493	-0.352046	0.096198	-0.223319	-0.940601	9.842466	2.559232	0.016941	0.211251	0.672974	0.067337	-0.602619	-0.377104	-0.195106
-2.349112	-2.260214	9.507092	-0.133038	-0.093859	0.090861	0.547517	0.393966	-0.900342	1.961348	-0.464568	9.718577	-0.269173	0.672642	-0.229876	0.147731	-0.239411	-0.92635	9.131356	1.921028	-0.238612	0.42874	0.670598	0.37219	-0.574039	-0.3111	-0.213842
-2.465848	-2.260614	9.391158	-0.285689	-0.002379	0.092787	0.561266	0.390063	-0.886615	2.251138	-0.859373	9.780929	0.008796	0.675767	-0.167966	0.135201	-0.207774	-0.942432	9.484508	2.32675	-0.230279	0.45891	0.671969	0.249822	-0.574665	-0.359677	-0.211331
-2.355918	-2.089337	9.166697	-0.469294	-0.03536	0.215451	0.533782	0.38057	-0.896577	2.189838	-0.803077	9.609849	0.040236	0.707629	-0.290936	0.159822	-0.242552	-0.883577	9.198926	2.503878	0.304123	0.613844	0.577918	0.524777	-0.560686	-0.3603	-0.195733
-2.464776	-2.202931	9.448253	-0.101724	0.029559	0.062109	0.562037	0.362521	-0.879784	1.905746	-0.858727	9.773675	0.099101	0.492753	-0.138885	0.135126	-0.223094	-0.941428	9.422751	2.558694	-0.350204	0.393775	0.274714	0.190828	-0.602272	-0.343893	-0.212308
-2.580523	-2.030765	9.389897	-0.163216	-0.001459	0.061781	0.561637	0.393592	-0.900691	2.308703	-0.859481	9.782138	0.161357	0.524604	-0.200174	0.109099	-0.238565	-0.939873	9.609278	2.269887	0.131116	0.055335	0.365263	0.191622	-0.546223	-0.310692	-0.213702
-2.406491	-2.087848	9.506702	-0.255521	-0.000845	-0.029947	0.559751	0.410549	-0.865295	2.359686	-0.578173	9.500386	0.099374	0.522814	-0.046101	0.135201	-0.207774	-0.942432	9.253405	2.56083	0.065843	0.023883	0.180039	0.345435	-0.588644	-0.359055	-0.226929
-2.696021	-2.203248	9.330093	-0.283919	0.274208	0.097277	0.589893	0.375543	-0.883898	2.188198	-0.577803	9.553399	0.097386	0.369288	-0.016801	0.134535	-0.225238	-0.912729	9.313231	2.212239	0.06546	0.117484	0.426664	0.191104	-0.60241	-0.360912	-0.195943
-2.696104	-2.088365	9.330575	-0.28369	0.367447	0.006788	0.562395	0.383349	-0.911352	2.130741	-0.634025	9.552142	0.314386	0.433161	0.014836	0.12171	-0.194672	-0.91446	9.785091	2.327311	0.074758	0.363846	0.303932	0.313049	-0.616668	-0.375656	-0.226232
-2.811892	-1.858757	9.272461	-0.407102	0.18144	0.096124	0.576158	0.362147	-0.880133	1.956836	-0.633749	9.491876	0.130268	0.523206	-0.046072	0.108659	-0.210068	-0.913181	9.663487	2.442991	-0.106669	0.487527	0.583149	-0.024923	-0.602343	-0.343067	-0.227836
-2.070635	-2.26211	9.114687	-0.163566	-0.09435	0.121609	0.560908	0.369236	-0.855048	2.36275	-0.916062	9.61338	0.162332	0.615592	-0.045128	0.135276	-0.192453	-0.943435	9.722793	2.791559	-0.044178	0.761891	0.528011	-0.514659	-0.574736	-0.358851	-0.226859
-2.812425	-2.66318	9.212229	-0.408794	-0.064067	0.061471	0.575	0.40346	-0.89038	2.358046	-0.352899	9.443936	-0.176958	0.642751	-0.168443	0.121855	-0.224241	-0.926803	9.254776	2.444925	0.125256	1.160582	0.471426	-0.82146	-0.616877	-0.391849	-0.225395
-2.468282	-1.973889	9.278659	-0.378736	-0.15612	0.059888	0.547888	0.397495	-0.914418	2.537433	-0.690968	9.730476	-0.239721	0.579631	-0.014981	0.135201	-0.207774	-0.942432	9.253945	2.328526	0.064854	1.317356	0.653311	-0.608957	-0.588853	-0.375248	-0.226092
-2.582667	-2.146131	9.275708	-0.255827	-0.125163	0.090706	0.532653	0.387284	-0.871841	1.904213	-0.689782	9.717178	-0.333027	0.51793	-0.138982	0.108879	-0.224316	-0.926527	9.01541	2.444724	-0.058867	1.322361	0.861134	0.001289	-0.574039	-0.3111	-0.213842
-2.518939	-1.857517	9.619147	-0.624828	-0.279844	0.027918	0.560894	0.386535	-0.872539	2.655197	-0.80375	9.846078	-0.084119	0.673384	0.016905	0.12274	-0.221025	-0.969852	9.136048	2.27072	0.062406	1.136428	0.955389	-0.304115	-0.561175	-0.391858	-0.209586
-2.470426	-2.089254	9.16447	-0.440512	-0.155015	-0.062588	0.576144	0.379446	-0.897625	2.070326	-0.40869	9.437844	-0.053537	0.643513	-0.045024	0.12193	-0.208921	-0.927806	9.606402	2.559773	0.012539	0.826453	0.895308	-0.516646	-0.574803	-0.376696	-0.194966
-2.749893	-2.259924	9.499297	-0.317396	-0.187261	0.120541	0.56128	0.372764	-0.869124	2.016795	-1.253445	9.549203	-0.239098	0.611503	-0.199632	0.12274	-0.221025	-0.969852	9.25244	2.502507	0.005689	0.918772	0.958081	-0.63953	-0.560828	-0.358647	-0.226788
-2.812715	-2.261089	9.213918	-0.164233	-0.217625	0.150275	0.546402	0.383381	-0.858114	1.960008	-1.027968	9.604823	-0.085211	0.581792	-0.045663	0.134831	-0.224166	-0.927078	9.553698	2.212688	0.309489	1.041593	1.021595	-0.823655	-0.588782	-0.376074	-0.210564
-2.698206	-2.261172	9.216145	-0.471303	-0.311251	0.149637	0.533039	0.373513	-0.868425	1.839695	-1.478634	9.318828	0.041211	0.798617	-0.13589	0.12156	-0.225313	-0.912453	9.601865	2.61686	-0.226842	1.039813	0.838688	-0.883901	-0.602619	-0.377104	-0.195106
-2.469106	-2.376221	9.220117	-0.318837	-0.183089	-0.247402	0.561623	0.410891	-0.918183	2.422841	-0.972405	9.727821	-0.112831	0.827523	-0.166554	0.147957	-0.19345	-0.929361	9.367576	2.327267	-0.172573	1.192894	0.872354	-1.129117	-0.574874	-0.37587	-0.210494
-2.640869	-2.376097	9.216776	-0.10441	-0.275673	-0.126852	0.561652	0.376292	-0.8832	2.133697	-0.915583	9.665184	-0.23403	1.010145	-0.195664	0.147141	-0.241555	-0.897651	9.778623	2.267751	-0.28493	1.193784	0.963807	-1.098994	-0.588364	-0.343689	-0.212238
-2.922521	-2.60469	9.437656	-0.25884	-0.366846	-0.281229	0.547531	0.376667	-0.88285	2.418783	-0.747225	9.558092	-0.419591	0.978135	-0.350272	0.134975	-0.253735	-0.939421	9.49084	2.444385	0.129657	1.381526	0.928209	-0.549376	-0.602828	-0.393297	-0.194269
-2.810778	-1.858516	9.329314	-0.013012	-0.398867	-0.067781	0.589121	0.403085	-0.89073	1.905314	-0.633404	9.773865	-0.388072	1.039051	-0.226329	0.147731	-0.239411	-0.92635	9.729781	2.153959	0.252637	1.411501	1.054146	-0.886275	-0.58899	-0.392267	-0.209727
-2.809043	-2.719898	9.382547	0.107811	-0.674882	-0.072615	0.548674	0.352653	-0.890095	1.900371	-0.577264	9.547354	-0.540788	1.189409	-0.070816	0.134831	-0.224166	-0.927078	9.542964	2.094063	-0.290074	1.655893	1.214601	-1.52974	-0.588573	-0.359882	-0.211401
-2.524175	-2.318255	9.332951	0.046318	-0.7059	-0.072942	0.562409	0.36605	-0.89386	1.900156	-0.464603	9.547449	-0.60059	1.313498	-0.408739	0.12215	-0.223169	-0.941152	9.667484	2.618208	0.1337	2.022969	1.314636	-2.20392	-0.546499	-0.344729	-0.180972
-2.755751	-1.85904	9.216721	-0.110011	-0.979379	-0.414284	0.56088	0.403834	-0.890031	2.187336	-0.127158	9.553778	-1.000928	1.429652	-0.19211	0.121924	-0.26913	-0.938141	9.781654	2.384645	-0.104715	2.142731	1.352919	-2.907468	-0.560824	-0.377318	-0.179368
-2.237944	-2.261021	9.338759	-0.570213	-0.980135	-0.535644	0.548288	0.366424	-0.893511	2.485026	-0.859662	9.955683	-0.909844	1.307968	-0.162418	0.174424	-0.206477	-0.957609	9.779318	2.442227	-0.224282	2.233257	1.29491	-3.182578	-0.575433	-0.406602	-0.239875
-2.183906	-2.434111	9.16859	-0.755555	-1.227197	-0.508458	0.547517	0.393966	-0.900342	1.681313	-0.745397	10.052133	-0.388538	1.036636	0.143584	0.108879	-0.224316	-0.926527	9.899011	2.674755	-0.101278	2.325018	1.265598	-3.274457	-0.574598	-0.341832	-0.243224
-2.81589	-2.491579	9.042394	-1.031979	-1.320681	-0.509181	0.561609	0.42819	-0.935675	2.133589	-0.859253	9.665232	-0.357877	1.035821	0.328569	0.148027	-0.23834	-0.9407	9.189582	2.734204	-0.174143	2.545691	1.474513	-2.695572	-0.574945	-0.375044	-0.226022
-2.355627	-2.491428	9.165008	-0.970276	-1.008555	-0.902971	0.589521	0.372015	-0.869822	2.249606	-0.690429	9.724431	-0.545502	0.878535	0.573479	0.161448	-0.206552	-0.957333	9.548061	2.269527	0.010202	2.053247	1.564193	-2.663655	-0.575086	-0.373391	-0.257077
-2.355835	-2.20422	9.166214	-0.444235	-0.488547	-0.466681	0.544859	0.438465	-0.871778	2.361541	-0.916109	9.556741	-1.224864	0.900174	0.634804	0.135126	-0.223094	-0.941428	9.248733	2.675993	-0.17329	1.434728	1.689693	-3.181571	-0.575224	-0.39041	-0.240712
-2.303775	-2.722442	8.880891	0.016972	-0.17769	-0.585629	0.56088	0.403834	-0.890031	2.359016	-0.859873	9.443509	-1.563142	1.018521	0.635709	0.122075	-0.23849	-0.940149	9.133712	2.328301	-0.057161	1.588336	1.598163	-3.151128	-0.546015	-0.294499	-0.214539
-2.298705	-2.031937	9.168052	-0.198197	-0.23946	-0.647349	0.518933	0.356588	-0.850584	2.190377	-1.08473	9.609611	-1.379023	0.928476	0.696618	0.122	-0.25381	-0.939145	9.431689	2.502596	0.128804	1.55625	1.289948	-2.935606	-0.547058	-0.375462	-0.210353
-2.469271	-2.146455	9.221082	-0.136595	-0.114856	-0.768174	0.54866	0.369952	-0.907586	2.135037	-0.352183	9.778938	-0.948843	0.721323	0.386623	0.147957	-0.19345	-0.929361	9.192884	2.734946	0.005577	1.401374	1.1355	-2.842621	-0.574807	-0.358025	-0.242386
-2.233573	-2.145173	9.566654	-0.011143	0.06524	-0.336256	0.547159	0.373139	-0.868774	1.910581	-0.858537	10.000234	-0.458435	0.392294	0.075464	0.121484	-0.240633	-0.911449	9.375549	2.212845	0.246281	0.937113	1.230334	-3.299825	-0.560899	-0.357821	-0.242316
-2.410655	-2.490904	9.277601	0.143887	0.154675	-0.028569	0.562766	0.386877	-0.925427	1.895189	-1.028145	9.263777	0.281933	0.310109	0.013587	0.135572	-0.191381	-0.957785	9.662947	2.675295	-0.10568	0.629564	1.072494	-2.931212	-0.546782	-0.341424	-0.243083
-2.416305	-2.377227	8.993818	0.206899	0.556908	-0.236889	0.547531	0.376667	-0.88285	2.367478	-0.859541	9.839986	0.339666	-0.025213	-0.17467	0.148027	-0.23834	-0.9407	9.664182	2.617466	-0.04602	0.566028	0.920585	-3.052506	-0.574527	-0.342659	-0.227696
-2.637611	-2.26049	9.387818	0.853215	1.021585	-0.292533	0.533753	0.415168	-0.931561	2.191478	-1.028352	9.666298	1.134999	-0.628926	-0.087548	0.148102	-0.223019	-0.941704	9.415878	2.673363	-0.709151	0.782689	0.919785	-2.900476	-0.58892	-0.393093	-0.194199
-2.522113	-2.088007	9.447622	1.134734	1.663719	0.115776	0.533782	0.38057	-0.896577	1.953448	-0.12687	9.379024	1.287988	-0.720571	0.158288	0.147951	-0.25366	-0.939697	9.371417	2.095704	0.006159	0.93874	1.009902	-2.687536	-0.602761	-0.375452	-0.226162
-2.978911	-2.259759	9.494843	1.165862	1.662472	0.238338	0.520433	0.353402	-0.889396	2.19368	-0.915596	9.779672	1.534283	-0.779168	0.21956	0.147662	-0.194522	-0.915012	9.667214	2.73436	0.134195	0.787694	1.127608	-2.290241	-0.574736	-0.358851	-0.226859
-2.417543	-2.205144	8.937689	1.196007	1.507566	0.358405	0.532639	0.404584	-0.889333	2.538295	-1.141612	9.730097	1.471209	-0.872551	0.311065	0.134385	-0.255879	-0.910721	9.489044	2.269662	0.009102	0.88309	1.495017	-2.29234	-0.575153	-0.391236	-0.225184
-2.588027	-2.434545	8.990236	0.921529	1.56496	0.60547	0.588378	0.396029	-0.862578	2.371666	-0.521369	10.066829	1.286702	-0.81317	0.249851	0.147882	-0.208771	-0.928358	9.427962	2.211227	-0.11206	1.317348	1.740026	-2.172832	-0.575083	-0.392062	-0.209657
-2.92739	-2.03124	9.212657	0.367607	1.381123	0.328067	0.548288	0.366424	-0.893511	2.134128	-1.140905	9.664995	1.380593	-0.719798	0.220026	0.147656	-0.254732	-0.925347	9.544199	2.036234	-0.230414	1.626585	1.770464	-2.051848	-0.574803	-0.376696	-0.194966
-2.356166	-1.744688	9.168145	0.304182	1.105294	0.231763	0.560137	0.396778	-0.861879	2.133828	-0.35223	9.722298	1.443393	-0.656476	0.035738	0.147511	-0.225163	-0.913004	9.423851	2.558941	-0.290297	1.966037	1.615898	-1.777278	-0.602481	-0.360086	-0.211471
-3.039464	-2.317882	9.322929	0.057228	0.827564	0.22796	0.560908	0.369236	-0.855048	2.257829	-1.197119	10.063842	1.043136	-0.539918	0.190716	0.134831	-0.224166	-0.927078	9.727715	2.095389	0.132576	2.49153	1.615261	-1.534678	-0.547334	-0.409499	-0.177623
-2.752162	-2.202965	9.385832	-0.126944	0.858828	0.106326	0.56278	0.369578	-0.907936	1.790722	-0.914842	9.77121	1.137104	-0.446143	0.099239	0.095683	-0.210143	-0.912905	9.667889	2.44398	0.132959	2.306123	1.584321	-1.564422	-0.57487	-0.394541	-0.163073
-2.518731	-2.144725	9.61794	-0.158531	0.673599	0.164743	0.547931	0.345596	-0.861943	1.905638	-0.802396	9.773723	0.955289	-0.143657	0.379554	0.147361	-0.255804	-0.910997	9.490975	2.386309	0.12941	2.583036	1.617485	-1.718395	-0.574523	-0.36133	-0.180275
-2.704846	-2.320061	8.874785	-0.311062	0.764731	0.197331	0.533382	0.41164	-0.917485	2.12502	-0.803254	9.268802	0.677982	-0.114708	0.102166	0.12178	-0.239561	-0.925799	9.255066	2.793629	0.186646	2.61313	1.587952	-1.810051	-0.561316	-0.390206	-0.240642
-2.63526	-2.432332	9.5008	-0.281474	0.580136	0.224914	0.561652	0.376292	-0.8832	2.652995	-0.916506	9.732704	0.399584	-0.148699	0.070775	0.135271	-0.252663	-0.953771	9.846017	1.978967	0.134282	2.673939	1.714001	-2.147059	-0.588573	-0.359882	-0.211401
-2.866629	-2.260324	9.383364	-0.343436	0.456574	0.253752	0.575758	0.393217	-0.901041	2.194781	-0.859218	9.836359	0.58452	-0.177214	0.101469	0.147361	-0.255804	-0.910997	9.07182	2.618322	-0.176839	2.488275	1.714596	-2.268639	-0.602969	-0.391644	-0.225325
-2.525412	-2.146172	9.276821	0.0267	0.827073	0.258708	0.561266	0.390063	-0.886615	2.077017	-0.746436	9.720757	0.554951	-0.084806	-0.020949	0.13446	-0.240558	-0.911725	9.25354	2.502754	0.065596	2.152787	1.923722	-1.901673	-0.560686	-0.3603	-0.195733
-2.517577	-2.201925	9.674552	0.670711	0.797608	0.409714	0.51889	0.408486	-0.90306	1.854224	-0.858382	10.055664	0.768909	-0.26585	-0.053405	0.135276	-0.192453	-0.943435	9.202497	2.388468	0.483349	1.876206	1.889928	-1.686573	-0.574248	-0.327293	-0.213005
-2.291076	-1.800482	9.566989	0.610125	0.889169	0.442045	0.547931	0.345596	-0.861943	2.191394	-0.352338	9.723507	0.676148	-0.296081	-0.300405	0.147951	-0.25366	-0.939697	9.312691	2.444543	0.066449	1.879961	2.131179	-1.351551	-0.588853	-0.375248	-0.226092
-2.994458	-2.320578	8.698659	0.3937	0.611929	0.407494	0.560908	0.369236	-0.855048	2.247188	-0.690524	9.611152	0.676733	-0.235758	-0.145664	0.095092	-0.212286	-0.884206	9.424796	2.152409	-0.292028	2.002555	2.101978	-1.443543	-0.560686	-0.3603	-0.195733
-2.475662	-2.549993	8.878274	0.241137	0.640555	0.53107	0.547917	0.362896	-0.879435	2.471729	-0.860184	9.332648	0.527369	0.161128	-0.172666	0.121484	-0.240633	-0.911449	9.138519	2.155062	0.181725	1.847455	2.196346	-1.749056	-0.589132	-0.390614	-0.240782
-2.520834	-2.317532	9.50351	0.176904	0.429666	0.129145	0.561266	0.390063	-0.886615	2.130417	-0.465034	9.552285	0.742887	0.102743	-0.203901	0.148617	-0.236196	-0.9694	9.541458	2.268044	-0.349239	1.723517	1.948661	-1.502926	-0.574665	-0.359677	-0.211331
-2.232874	-1.570516	9.625921	0.207956	0.397339	0.28187	0.547917	0.362896	-0.879435	2.07624	-0.971806	9.663928	0.590288	0.253705	-0.140866	0.12178	-0.239561	-0.925799	9.487519	1.978788	-0.111948	1.692864	1.88611	-1.380266	-0.616598	-0.376482	-0.210704
-2.124424	-2.43367	9.283409	0.145557	0.243741	0.248885	0.574272	0.379104	-0.844737	1.904429	-0.802443	9.717083	0.775808	0.256862	-0.263998	0.159972	-0.211911	-0.885584	9.075661	2.38676	0.001893	1.41556	1.760546	-1.164724	-0.574386	-0.344311	-0.19664
-2.873144	-2.491538	9.04128	0.022801	0.274944	0.157742	0.562052	0.345222	-0.862292	2.016495	-0.464771	9.606506	0.405079	0.252159	-0.264343	0.135126	-0.223094	-0.941428	9.072495	2.327942	-0.178075	1.511226	2.034296	-0.983002	-0.589061	-0.39144	-0.225255
-2.233821	-1.800524	9.568102	0.051506	0.124209	-0.090134	0.547159	0.373139	-0.868774	2.249606	-0.690429	9.724431	0.374575	0.282432	-0.264067	0.147876	-0.26898	-0.938693	9.250084	2.095233	-0.175762	1.421606	2.121635	-0.585779	-0.575016	-0.374217	-0.241549
-2.58246	-2.433338	9.274501	-0.040984	0.000157	-0.030548	0.576129	0.396745	-0.915117	2.486019	-0.746954	10.012418	0.466477	0.222278	-0.264591	0.134831	-0.224166	-0.927078	9.137419	2.154815	0.121818	1.109022	1.88022	-1.011372	-0.588782	-0.376074	-0.210564
-2.234811	-1.97309	9.510525	0.082514	0.123309	0.001766	0.561652	0.376292	-0.8832	2.313108	-0.633969	10.008886	0.589586	0.192778	-0.203129	0.148171	-0.267908	-0.953043	9.49028	2.211834	0.068761	1.018421	1.907325	-0.705547	-0.560899	-0.357821	-0.242316
-2.458095	-2.201484	9.789371	-0.040341	-0.033009	0.183587	0.617005	0.381508	-0.85986	1.904991	-0.464413	9.774007	0.80491	0.133387	-0.080234	0.108804	-0.239636	-0.925523	9.544509	2.849793	-0.107139	0.649162	1.935639	-0.612657	-0.602552	-0.359259	-0.226999
-2.351132	-2.547905	9.392179	-0.00978	0.029989	0.061851	0.532267	0.401055	-0.875257	2.48073	-1.141504	9.728888	0.98739	-0.079721	0.041106	0.121484	-0.240633	-0.911449	9.374469	2.677454	0.248259	0.710721	1.687675	-0.275506	-0.602552	-0.359259	-0.226999
-2.581678	-1.973565	9.333285	0.45171	0.308722	0.065053	0.547531	0.376667	-0.88285	2.254226	-0.577578	9.951085	1.111901	-0.016018	-0.081473	0.121855	-0.224241	-0.926803	9.849184	2.037784	0.31425	0.465367	1.746391	-0.122083	-0.574874	-0.37587	-0.210494
-2.524175	-2.318255	9.332951	0.206886	0.306534	0.157725	0.576515	0.382974	-0.911701	2.420423	-0.9725	9.614542	0.804636	0.103326	-0.173017	0.108804	-0.239636	-0.925523	9.960634	2.500886	0.018894	0.155047	1.749065	-0.487726	-0.575295	-0.389584	-0.25624
-2.413338	-1.85953	9.166549	0.114779	0.33788	0.066496	0.561251	0.407363	-0.904107	2.476241	-0.691002	9.559348	0.862487	-0.202741	-0.145186	0.160192	-0.22616	-0.89893	9.894745	2.61569	-0.341153	0.033343	1.869719	-0.36561	-0.60269	-0.376278	-0.210634
-2.750142	-1.915275	9.500745	0.080911	0.159256	-0.457665	0.546745	0.421508	-0.907174	1.736029	-0.520278	9.940252	0.772963	0.041604	-0.173657	0.148692	-0.220875	-0.970403	9.656344	2.673812	-0.465121	0.34193	1.839293	-0.274894	-0.575012	-0.392889	-0.194129
-2.47748	-1.573728	8.825523	0.297367	0.154695	0.032326	0.560508	0.400306	-0.875955	2.245764	-0.57791	9.554608	0.647632	-0.112282	-0.329428	0.147511	-0.225163	-0.913004	9.489335	2.618366	0.070492	0.126852	1.806035	-0.090579	-0.574945	-0.375044	-0.226022
-2.357197	-1.859812	9.110809	0.174132	0.187288	-0.181466	0.546774	0.38691	-0.87219	2.303006	-0.409027	9.555959	0.772222	-0.019524	-0.205093	0.134535	-0.225238	-0.912729	9.433309	1.805684	0.125837	0.311504	1.869456	-0.244365	-0.575083	-0.392062	-0.209657
-2.694907	-2.203007	9.386946	0.35945	0.277908	0.034149	0.547874	0.414794	-0.93191	2.360332	-0.916156	9.500101	0.527447	0.161531	-0.234318	0.12215	-0.223169	-0.941152	9.668429	2.211676	0.13197	0.000521	1.873391	-0.732261	-0.561037	-0.37484	-0.225951
-2.35802	-2.262144	9.052267	0.296461	0.032115	-0.000332	0.546774	0.38691	-0.87219	2.309373	-0.577781	9.839014	0.431218	-0.115831	-0.206325	0.160638	-0.194447	-0.915287	9.365375	2.326772	-0.292386	0.15229	1.847454	-1.130002	-0.560616	-0.361126	-0.180205
-2.411069	-1.916489	9.280014	0.356174	-0.11952	-0.156308	0.548674	0.352653	-0.890095	2.477211	-1.197977	9.558922	0.492849	-0.144504	-0.391529	0.121635	-0.209992	-0.913457	9.12767	2.559369	-0.355706	0.091001	2.001757	-1.283329	-0.602694	-0.357607	-0.258055
-2.759008	-1.974647	9.045679	0.234041	0.066385	-0.336943	0.576172	0.344847	-0.862641	1.899701	-0.858964	9.490477	0.527251	0.131872	-0.388753	0.134535	-0.225238	-0.912729	9.367151	2.03664	-0.233716	-0.031441	2.092768	-1.252757	-0.561246	-0.391032	-0.225114
-2.522895	-2.54778	9.388838	0.080451	-0.027221	-0.276686	0.60437	0.395996	-0.915815	2.305962	-0.690584	9.669001	0.555768	-0.051927	-0.35973	0.122	-0.25381	-0.939145	9.25356	2.967609	0.127481	-0.002312	1.940875	-1.343825	-0.574874	-0.37587	-0.210494
-2.463953	-1.800599	9.506795	-0.441636	-0.120459	-0.399371	0.547159	0.373139	-0.868774	2.073391	-0.746579	9.550839	0.432542	-0.023031	-0.328714	0.134755	-0.239486	-0.926075	9.248983	2.094986	-0.235669	-0.093485	1.938021	-1.098981	-0.574945	-0.375044	-0.226022
-2.693628	-2.432532	9.442834	-0.165606	-0.088439	-0.399645	0.547159	0.373139	-0.868774	1.958044	-0.633702	9.548516	0.586038	-0.11206	-0.483616	0.135421	-0.222022	-0.955778	9.543929	2.152386	-0.22992	-0.526701	1.846275	-1.249787	-0.561387	-0.38938	-0.25617
-2.363753	-2.033585	8.768967	0.141574	0.098774	-0.520158	0.548288	0.366424	-0.893511	1.906092	-0.408035	9.830694	0.799646	-0.294916	-0.238637	0.134385	-0.255879	-0.910721	9.43306	2.386691	0.188216	-0.65044	1.815557	-1.279755	-0.588853	-0.375248	-0.226092
-2.470178	-2.433904	9.163022	-0.103634	-0.058812	-0.27667	0.532296	0.366457	-0.840273	2.248074	-0.521485	9.667934	0.337715	-0.20719	-0.484761	0.12237	-0.237418	-0.954498	8.773418	2.1534	-0.423946	-0.558499	1.723805	-1.249088	-0.575433	-0.406602	-0.239875
-2.757895	-1.974405	9.102532	-0.043124	-0.181453	-0.278837	0.547917	0.362896	-0.879435	2.072721	-1.028279	9.493962	0.400089	-0.146083	-0.329963	0.161373	-0.221872	-0.956329	9.255316	2.212621	0.124267	-0.683684	1.85108	-1.768804	-0.57522	-0.409081	-0.193292
-2.589141	-2.434786	8.933383	0.138679	-0.487566	-0.315003	0.547145	0.390438	-0.886266	2.47514	-0.74738	9.502661	0.463202	-0.052499	-0.452294	0.121264	-0.226385	-0.898103	9.310085	2.618276	-0.052623	-0.872329	1.857349	-2.440523	-0.617365	-0.423407	-0.239249
-2.4649	-2.030607	9.448977	-0.261439	-0.734934	-0.34854	0.561266	0.390063	-0.886615	2.432966	-0.577665	10.237909	0.311383	0.159793	-0.388649	0.13387	-0.242702	-0.883026	9.368967	2.676217	-0.051275	-0.412803	1.802562	-2.900359	-0.603107	-0.408663	-0.20896
-2.180772	-2.146179	9.340355	-0.170128	-0.795274	-0.411119	0.547159	0.373139	-0.868774	2.592018	-1.029201	9.561482	0.279591	0.068815	-0.605376	0.147587	-0.209842	-0.914008	9.487809	2.327491	-0.050558	-0.380719	1.769246	-2.625256	-0.547475	-0.407847	-0.208679
-2.354887	-1.974213	9.224033	-0.599475	-0.859088	-0.380252	0.560108	0.431376	-0.896863	1.913992	-0.745734	10.170247	0.308576	-0.055264	-0.329134	0.146846	-0.242627	-0.883301	9.787292	2.327805	0.194572	-0.317864	1.64301	-2.227572	-0.560478	-0.344107	-0.19657
-2.526567	-2.088972	9.22021	-0.57089	-1.009476	-0.658791	0.533796	0.36327	-0.879085	2.417336	-1.254295	9.444386	0.554403	-0.17358	-0.515081	0.134535	-0.225238	-0.912729	9.717136	2.383544	-0.40535	-0.343404	2.036469	-1.832046	-0.547338	-0.390828	-0.225044
-2.235758	-2.203097	9.452707	-0.971129	-1.256497	-0.72299	0.574272	0.379104	-0.844737	1.905207	-0.577074	9.773912	0.553623	-0.23491	-0.515691	0.134605	-0.270127	-0.924067	9.316148	2.852064	0.307807	-0.494478	2.278427	-1.618717	-0.561383	-0.408051	-0.208749
-2.922977	-1.972834	9.44031	-1.339684	-1.475077	-0.572141	0.520047	0.367173	-0.892812	2.135792	-0.746497	9.778606	0.800892	-0.231171	-0.607939	0.122515	-0.266987	-0.966841	9.201667	2.272068	0.422948	-0.460781	2.428335	-1.313929	-0.602761	-0.375452	-0.226162
-2.463414	-2.547339	9.503658	-1.187743	-1.658406	-0.606226	0.533425	0.359742	-0.865009	1.896506	-1.084428	9.320369	0.677316	-0.232738	-0.608054	0.134981	-0.193525	-0.929086	9.843006	2.326928	0.015952	-0.70776	2.707485	-1.772804	-0.561246	-0.391032	-0.225114
-1.955178	-2.032186	9.174733	-1.464407	-1.751195	-0.668274	0.575772	0.375918	-0.883549	2.474601	-0.465728	9.502898	0.771245	-0.139165	-0.668705	0.122	-0.25381	-0.939145	9.660476	2.790953	-0.224999	-0.830728	2.923693	-2.01789	-0.560623	-0.323783	-0.275046
-2.755709	-1.916481	9.21648	-1.249333	-1.532635	-0.880017	0.532639	0.404584	-0.889333	2.19599	-0.859171	9.892999	0.64455	-0.386053	-0.671261	0.135421	-0.222022	-0.955778	9.661691	2.268268	-0.227224	-0.95388	2.860809	-1.894894	-0.602969	-0.391644	-0.225325
-2.302703	-2.664759	8.937985	-1.1252	-1.348713	-0.785381	0.574643	0.382632	-0.858813	2.424289	-0.465336	9.841527	0.613579	-0.386847	-0.609638	0.148322	-0.237268	-0.95505	9.302268	3.139477	-0.409839	-1.042173	2.945626	-1.253167	-0.561313	-0.408877	-0.193221
-2.867701	-2.318007	9.32627	-0.571293	-0.977006	-0.811603	0.547131	0.407737	-0.903758	2.309589	-0.690442	9.83892	0.88987	-0.535638	-0.765036	0.121704	-0.254882	-0.924795	9.368291	2.966598	-0.050039	-1.655516	2.937104	-0.639652	-0.546849	-0.359269	-0.21119
-2.755709	-1.916481	9.21648	-0.786267	-1.008044	-0.872824	0.549417	0.35971	-0.918247	2.021762	-0.689903	9.832875	0.978811	-0.811656	-0.58274	0.13468	-0.254807	-0.925071	9.132902	2.676758	-0.055677	-2.086754	2.9037	-0.51568	-0.603528	-0.422377	-0.254706
-2.759873	-2.319537	8.987378	-0.787347	-1.004915	-1.148783	0.534539	0.370327	-0.907237	2.421201	-0.74713	9.671371	1.31689	-0.959663	-0.73808	0.160267	-0.210839	-0.899934	9.420394	2.15142	-0.531655	-1.903929	2.629056	-0.515031	-0.561387	-0.38938	-0.25617
-2.355793	-2.261662	9.165973	-0.91101	-1.096293	-1.272585	0.547159	0.373139	-0.868774	2.136354	-0.408466	9.83553	1.591544	-1.231518	-0.833047	0.108734	-0.194747	-0.914184	9.539952	2.442025	-0.408404	-1.876939	2.760669	-1.402074	-0.574456	-0.343485	-0.212168
-2.642231	-2.031689	9.161371	-0.726891	-1.002195	-1.36359	0.589135	0.385786	-0.873238	2.027459	-1.140358	10.059054	2.113583	-1.470377	-0.804174	0.095903	-0.224391	-0.926251	9.480646	2.093457	-0.470895	-1.727099	2.831545	-2.289265	-0.589128	-0.409285	-0.193362
-2.416264	-2.434669	8.993576	-0.234794	-0.691891	-1.4213	0.547159	0.373139	-0.868774	2.368579	-0.803163	9.896673	2.389017	-1.652249	-0.589964	0.095237	-0.241855	-0.896548	9.196725	2.503383	0.184309	-1.327868	2.929169	-2.719048	-0.575362	-0.407429	-0.224347
-2.354721	-2.203979	9.223068	-0.145133	-1.029166	-1.457708	0.56168	0.341694	-0.848216	1.907193	-0.351657	9.887381	2.634141	-1.802842	-0.529608	0.174349	-0.221797	-0.956605	9.662947	2.675295	-0.10568	-0.674813	3.231409	-2.142173	-0.561458	-0.388553	-0.271698
-2.466962	-2.260855	9.334305	-0.145066	-0.904152	-1.639686	0.5746	0.43453	-0.911288	2.133266	-0.690261	9.665374	2.693707	-1.985446	-0.62386	0.109174	-0.223244	-0.940877	9.074986	2.67714	0.003129	-0.575818	3.43673	-1.2572	-0.561313	-0.408877	-0.193221
-2.525827	-1.571757	9.279235	-0.420889	-0.999374	-1.487098	0.576915	0.351904	-0.890793	2.306632	-0.408884	9.725877	2.971439	-2.012181	-0.685559	0.135051	-0.238415	-0.940424	9.14047	2.736564	0.363918	-0.417279	3.863655	-1.076436	-0.560619	-0.342455	-0.227625
-2.29322	-1.915848	9.4528	-0.451307	-0.906278	-1.577502	0.577301	0.338133	-0.887377	2.306632	-0.408884	9.725877	2.999994	-2.195781	-0.687361	0.122075	-0.23849	-0.940149	9.308155	2.50163	-0.172931	-0.413827	3.981287	-0.618569	-0.561175	-0.391858	-0.209586
-2.183124	-1.974337	9.227373	-0.542935	-0.876323	-1.546083	0.562037	0.362521	-0.879784	2.364067	-0.972345	9.669973	3.122943	-2.283392	-1.119726	0.134831	-0.224166	-0.927078	9.424816	2.617265	-0.230143	-0.199276	4.139743	-1.078543	-0.574945	-0.375044	-0.226022
-2.295281	-2.146097	9.338128	-0.419097	-0.566345	-1.725411	0.517375	0.428972	-0.881739	2.591826	-0.296857	9.618738	2.873376	-2.470922	-1.060135	0.122225	-0.207849	-0.942156	9.780709	2.791177	-0.102985	0.016119	4.234497	-1.293713	-0.547759	-0.404542	-0.27079
-2.521948	-2.317773	9.446657	-0.418201	-0.349831	-1.844568	0.533039	0.373513	-0.868425	2.423726	-0.803366	9.784603	2.899279	-2.897431	-1.434292	0.108879	-0.224316	-0.926527	9.723334	2.559255	-0.045167	-0.263173	4.112714	-1.444933	-0.575153	-0.391236	-0.225184
-2.521989	-2.260331	9.446898	-0.847012	-0.196088	-2.024845	0.54826	0.401023	-0.928494	2.307063	-0.634206	9.725688	3.947364	-3.096548	-1.774536	0.148252	-0.192378	-0.943711	9.253675	2.444678	0.065349	-0.079834	3.774996	-1.26061	-0.561454	-0.407225	-0.224277
-2.464445	-2.662464	9.446322	-0.755537	-0.288203	-1.995937	0.547159	0.373139	-0.868774	2.026466	-1.253066	10.00232	4.803769	-3.789069	-2.058185	0.160783	-0.224016	-0.92763	9.65922	2.383926	-0.346544	0.134111	3.344673	-0.984268	-0.561316	-0.390206	-0.240642
-2.647799	-2.032895	8.877105	-1.123239	-0.25884	-2.02507	0.504769	0.408861	-0.90271	2.368471	-0.746833	9.896721	5.812063	-4.722142	-2.775694	0.147807	-0.224091	-0.927354	9.129871	2.559864	-0.235892	0.344077	2.921918	-1.441449	-0.560895	-0.376492	-0.194896
-2.470509	-1.974371	9.164953	-0.968219	-0.075472	-1.869194	0.547531	0.376667	-0.88285	2.198085	-0.690084	10.006421	7.010549	-5.226765	-2.995543	0.160927	-0.253585	-0.939972	9.425086	2.501113	-0.230637	0.743143	2.678324	-1.41117	-0.57474	-0.34018	-0.274279
-2.52533	-2.261055	9.276339	-1.306376	-0.199278	-1.93157	0.575358	0.424287	-0.921948	2.478766	-0.747238	9.67258	8.208565	-5.705152	-2.536917	0.148692	-0.220875	-0.970403	9.249024	3.024696	-0.1119	0.306881	2.499222	-1.989422	-0.561108	-0.374013	-0.241479
-2.756781	-1.974164	9.159385	-1.797143	-0.263031	-1.931193	0.575029	0.368861	-0.855397	2.193034	-0.577613	9.779957	7.798293	-6.52857	-4.025173	0.108433	-0.256029	-0.91017	9.194524	2.502889	0.064495	0.427333	2.070461	-1.896125	-0.561037	-0.37484	-0.225951
-2.582543	-2.318455	9.274984	-2.995174	-0.448484	-2.329447	0.533025	0.390812	-0.885917	2.135122	-1.028197	9.721729	8.797924	-8.108067	-4.37918	0.134831	-0.224166	-0.927078	9.082264	2.388243	0.361335	0.828312	1.792181	-1.468374	-0.58899	-0.392267	-0.209727
-2.238068	-2.088696	9.339483	-3.980288	-0.847363	-2.79312	0.562037	0.362521	-0.879784	2.371104	-0.859399	10.009905	9.678692	-9.378253	-5.37759	0.109689	-0.236421	-0.968572	8.656371	2.676849	-0.304108	1.198323	1.389856	-0.887105	-0.561659	-0.442088	-0.176019
-2.129293	-1.860219	9.05841	-3.705279	-0.937576	-2.856715	0.561637	0.393592	-0.900691	2.088544	-1.083993	10.230229	9.674976	-9.941798	-8.311825	0.134975	-0.253735	-0.939421	8.897107	2.561146	-0.060573	2.120319	0.777922	-0.551334	-0.533851	-0.404338	-0.27072
-2.472405	-2.434386	9.049316	-4.225555	-0.879587	-2.762269	0.576158	0.362147	-0.880133	2.489084	-1.084842	10.125412	12.579967	-10.243163	-12.874946	0.12178	-0.239561	-0.925799	9.192053	2.618547	-0.054824	2.420208	0.049926	-1.037949	-0.575362	-0.407429	-0.224347
-2.060613	-2.259939	9.626365	-4.25724	-0.908029	-2.977319	0.560508	0.400306	-0.875955	2.892904	-1.53624	10.133495	10.775398	-9.34173	-18.262183	0.108879	-0.224316	-0.926527	9.019271	2.678017	0.18175	3.217925	-0.405402	-1.09979	-0.617157	-0.407215	-0.240086
-1.954023	-2.089386	9.231345	-4.379126	-0.816753	-2.944817	0.547531	0.376667	-0.88285	3.075379	-1.592515	10.590191	16.112313	-12.738157	-23.100642	0.121629	-0.270202	-0.923792	9.072515	2.792797	-0.11619	3.926821	-0.992245	-0.304926	-0.589061	-0.39144	-0.225255
-2.812632	-2.375972	9.213436	-4.684632	-0.664524	-2.941463	0.576144	0.379446	-0.897625	2.782763	-0.352799	10.471911	20.412746	-17.295389	-25.94771	0.122	-0.25381	-0.939145	9.305684	2.617288	-0.292251	4.35965	-1.334424	0.398086	-0.575224	-0.39041	-0.240712
-2.125828	-2.03182	9.228245	-5.021847	-0.697178	-2.910355	0.547117	0.425037	-0.92125	2.390361	-0.182627	10.973347	22.606313	-22.169313	-26.672583	0.108948	-0.269205	-0.937866	9.199621	2.678353	0.364772	4.331347	-1.525635	1.132614	-0.53343	-0.390624	-0.224974
-2.296229	-2.376104	9.28031	-5.145273	-0.78925	-2.972833	0.575401	0.372389	-0.869473	2.456735	0.268289	11.428052	19.743898	-26.051943	-24.678936	0.13387	-0.242702	-0.883026	9.547946	2.792459	0.072334	4.428882	-1.441731	1.926505	-0.561108	-0.374013	-0.241479
-2.241119	-2.491511	9.167235	-5.23734	-0.789332	-3.003238	0.533396	0.394341	-0.899993	1.92414	0.26869	10.737497	21.3644	-34.160811	-19.579355	0.134015	-0.272271	-0.895368	9.017091	3.142378	0.123821	4.313704	-0.898818	2.62729	-0.575642	-0.422795	-0.239038
-2.408594	-2.260655	9.392272	-4.685112	-0.663133	-3.064113	0.562009	0.39712	-0.914767	2.570203	-0.126335	11.316859	12.46938	-38.594544	-15.407287	0.13446	-0.240558	-0.911725	9.298966	3.138736	-0.58956	3.803917	-0.058702	4.031057	-0.589203	-0.389788	-0.25631
-2.23811	-2.031255	9.339725	-4.501448	-0.755514	-2.974138	0.547517	0.393966	-0.900342	2.413222	-0.125395	12.049547	12.107208	-44.821921	-11.184493	0.082481	-0.256179	-0.909618	9.783315	2.617444	0.016087	2.523489	0.654082	5.652187	-0.518896	-0.341842	-0.227415
-2.526153	-2.663387	9.217797	-3.886332	-0.571041	-2.727563	0.575758	0.393217	-0.901041	2.463642	-0.182118	11.710871	11.077383	-52.559806	-7.131351	0.095608	-0.225463	-0.911901	10.073724	2.731932	-0.217544	0.654854	0.934616	7.460921	-0.533709	-0.40599	-0.239665
-2.527474	-2.376421	9.16215	-3.363154	-0.480933	-2.328915	0.519276	0.394715	-0.899644	3.347674	-0.182928	12.691878	9.521428	-60.567512	-5.115916	0.082406	-0.271499	-0.908615	10.191486	2.847814	-0.214848	-1.742298	1.12843	8.599577	-0.588853	-0.375248	-0.226092
-2.526277	-2.491062	9.21852	-2.319019	-0.513405	-1.74975	0.560108	0.431376	-0.896863	2.63505	0.101548	14.375587	13.965629	-68.234176	-6.144204	0.095677	-0.270352	-0.92324	9.536806	2.848063	-0.526488	-4.707891	0.507569	8.460457	-0.561037	-0.37484	-0.225951
-2.241284	-2.261745	9.1682	-1.122085	-0.575199	-1.232841	0.547531	0.376667	-0.88285	2.778017	-1.42098	12.848664	22.794051	-78.223918	-4.664174	0.095231	-0.302065	-0.906883	9.956387	2.906677	-0.159096	-6.843151	-0.385601	8.319629	-0.588853	-0.375248	-0.226092
-2.583532	-2.491021	9.217407	-1.796862	-0.639463	-1.262611	0.532653	0.387284	-0.871841	3.122847	-1.759657	12.798994	25.40648	-86.792191	-7.55255	0.056674	-0.285898	-0.921409	9.3102	2.095345	-0.114755	-7.284487	-1.828	8.633761	-0.575571	-0.423621	-0.22351
-2.360206	-2.320068	8.938319	-1.980075	-0.61098	-1.138948	0.56128	0.372764	-0.869124	4.105925	-2.831674	12.931923	29.283417	-93.275006	-12.638735	0.043328	-0.302365	-0.90578	9.365375	2.326772	-0.292386	-8.744001	-3.024292	8.461367	-0.575153	-0.391236	-0.225184
-2.361236	-2.435193	8.880984	-2.440796	-0.672852	-1.291968	0.532667	0.369985	-0.854349	4.468344	-2.496011	11.071563	35.802819	-101.086769	-20.541194	0.01671	-0.31998	-0.875526	9.3091	2.095098	-0.174662	-9.713364	-4.492208	8.105106	-0.561037	-0.37484	-0.225951
-2.932957	-2.032446	8.928391	-3.575734	-0.863234	-1.230459	0.505541	0.381319	-0.895879	3.974563	-1.930739	12.250589	30.319128	-105.555826	-28.111704	0.0695	-0.316464	-0.919678	9.020777	2.504036	0.240915	-10.281015	-5.184186	6.796182	-0.560828	-0.358647	-0.226788
-2.180358	-2.720595	9.337942	-4.004543	-0.803425	-1.258921	0.546774	0.38691	-0.87219	4.495285	-2.044276	12.374654	38.681086	-109.067991	-33.13372	0.017011	-0.258698	-0.87954	9.666498	2.095029	0.011661	-9.028848	-5.839977	5.572202	-0.588364	-0.343689	-0.212238
-2.521948	-2.317773	9.446657	-4.064214	-0.683217	-1.042119	0.546402	0.383381	-0.858114	4.731432	-2.835528	9.887892	42.302732	-113.802472	-38.757333	0.01649	-0.305731	-0.86218	9.800477	1.865916	0.85157	-6.834628	-5.50036	6.021098	-0.546853	-0.340598	-0.258611
-2.580523	-2.030765	9.389897	-3.758492	-0.992583	-0.741345	0.533025	0.390812	-0.885917	5.16984	-1.14485	11.710244	41.665641	-113.664674	-47.017697	0.016635	-0.3353	-0.874522	9.329023	1.576616	0.84153	-5.104579	-5.314402	6.380717	-0.561179	-0.373187	-0.257007
-2.299818	-2.032178	9.111199	-3.876808	-0.629934	-0.244423	0.560894	0.386535	-0.872539	4.169637	-2.495898	10.555762	55.353936	-108.760587	-52.50646	-0.022218	-0.320205	-0.874699	9.864975	1.402162	1.09032	-4.021429	-4.759297	6.313015	-0.602619	-0.377104	-0.195106
-2.585759	-2.491504	9.103701	-3.479194	-0.813509	-0.156547	0.504798	0.374262	-0.867727	4.690415	-3.513155	7.904937	57.737763	-103.767408	-56.061424	-0.010573	-0.355058	-0.815568	9.44746	1.402118	0.842989	-2.750653	-3.742803	6.059046	-0.575083	-0.392062	-0.209657
-2.760862	-2.492103	8.929801	-2.494956	-0.474703	0.183474	0.533768	0.397869	-0.914069	3.850736	-4.188987	6.244894	43.269082	-93.245814	-60.468896	-0.075233	-0.369682	-0.827536	9.387478	1.34393	0.781735	-1.507972	-2.35903	5.772862	-0.575224	-0.39041	-0.240712
-2.416181	-2.549552	8.993094	-1.941397	-0.540197	0.763505	0.518547	0.370359	-0.854	1.597916	-3.283733	5.915308	35.358993	-84.035659	-62.788033	-0.062923	-0.387071	-0.798108	9.688331	1.228339	1.086277	-0.572046	-0.606761	5.241518	-0.546432	-0.326884	-0.212865
-2.409541	-2.490663	9.334454	-1.017984	-0.203068	1.226342	0.558994	0.420792	-0.854635	-7.986439	-4.168315	4.29788	12.345125	-56.979235	-56.033702	-0.049206	-0.354211	-0.829091	9.68447	0.995046	0.845661	1.739389	-0.006528	4.191104	-0.547546	-0.40702	-0.224207
-2.759707	-2.549303	8.986413	-0.828963	0.408951	1.542421	0.519261	0.412015	-0.917136	-10.453471	-4.214958	10.020671	5.54252	-32.696686	2.587493	-0.049727	-0.401244	-0.81173	9.803062	1.227327	0.908757	4.761903	0.685819	3.351631	-0.561175	-0.391858	-0.209586
-2.355586	-2.54887	9.164767	-0.429194	0.563427	1.635784	0.531867	0.432126	-0.896164	-10.413383	-6.696847	6.282788	18.944789	-6.723811	75.924847	-0.075528	-0.370754	-0.813186	9.396977	1.520383	1.321639	7.360679	1.951518	3.122233	-0.60304	-0.390818	-0.240853
-2.293753	-2.720271	9.392568	-0.488961	0.840423	1.579123	0.532253	0.418355	-0.892749	-7.205027	-7.548504	5.556821	8.078111	31.817535	120.330599	-0.075082	-0.339041	-0.829543	10.03351	1.748483	0.675757	8.630397	2.783883	2.93028	-0.602619	-0.377104	-0.195106
-2.404223	-2.144807	9.620167	-1.008591	1.303486	1.189464	0.559351	0.441619	-0.886203	-5.319874	-7.55263	4.91704	-9.013009	47.416297	139.497902	-0.049501	-0.355283	-0.814741	9.850824	1.805728	0.373168	9.347518	3.920158	2.738879	-0.574878	-0.357199	-0.257914
-2.363298	-2.665441	8.766312	-1.098483	1.547519	1.31636	0.518161	0.38413	-0.857416	-3.708905	-7.105003	4.951269	-25.276435	53.554729	139.545888	-0.062477	-0.355358	-0.814465	10.088644	1.050199	0.374356	9.408964	4.510736	1.849498	-0.575433	-0.406602	-0.239875
-2.527018	-3.008278	9.159496	-1.344423	1.485954	1.224064	0.518533	0.387659	-0.871492	-3.112762	-5.809578	6.040601	-40.865835	63.031743	127.108095	-0.074642	-0.367538	-0.856235	9.735938	1.39996	0.48905	8.814947	4.710454	0.078036	-0.60269	-0.376278	-0.210634
-2.528297	-2.778753	9.103608	-0.761769	1.33119	1.557216	0.546374	0.41798	-0.893098	-2.354694	-4.571234	6.623757	-50.928781	76.542765	108.30153	-0.062402	-0.340038	-0.815469	9.734297	1.632017	0.430132	7.041567	4.765301	-2.88037	-0.56069	-0.341628	-0.243153
-2.470261	-2.319021	9.163505	-0.301163	1.299476	1.831384	0.533025	0.390812	-0.885917	-1.993887	-3.782589	7.424628	-56.911667	90.08341	88.01925	-0.0492	-0.294001	-0.818755	9.435625	1.283247	0.183519	5.825976	4.320091	-4.615875	-0.561316	-0.390206	-0.240642
-2.69932	-2.261413	9.159292	0.07026	1.603643	2.264603	0.546759	0.404209	-0.889682	-2.459607	-1.697545	7.360072	-67.961718	98.921646	69.259381	-0.06092	-0.274468	-0.876882	9.72839	1.805009	0.131339	3.932608	3.622992	-5.889278	-0.575016	-0.374217	-0.241549
-2.86997	-2.261048	9.212805	0.438975	1.790445	2.205243	0.53301	0.408112	-0.903409	-0.849256	-0.68423	10.112267	-68.951295	107.244639	55.035395	-0.035784	-0.322423	-0.845723	9.611593	1.74745	0.188798	3.583498	2.212426	-5.667352	-0.575086	-0.373391	-0.257077
-2.647508	-2.434986	8.875416	0.100264	1.636951	2.050386	0.560866	0.421134	-0.907523	-1.665943	-0.739478	9.585539	-57.984841	108.153643	40.316029	-0.035263	-0.27539	-0.863084	9.077687	1.515619	-0.001815	3.912059	0.122515	-4.588912	-0.588924	-0.374422	-0.24162
-2.354845	-2.031655	9.223791	0.470137	1.851704	2.236816	0.534153	0.384098	-0.910653	-1.833026	-0.513596	9.8653	-58.478098	112.251223	31.230638	-0.022067	-0.289564	-0.876706	9.551051	1.45671	0.066648	4.912014	-1.672291	-5.195201	-0.575153	-0.391236	-0.225184
-2.07051	-2.434435	9.113964	0.901271	2.004236	2.514062	0.546745	0.421508	-0.907174	-1.773367	-0.344617	9.97993	-58.371907	115.287098	26.358984	-0.008721	-0.273096	-0.892335	9.444584	1.692004	0.724412	5.48264	-2.852123	-6.261289	-0.561179	-0.373187	-0.257007
-2.465724	-2.432939	9.390435	1.517306	2.373791	2.702299	0.544502	0.417638	-0.84021	-0.618324	-0.402961	10.173979	-57.416495	117.277734	23.666554	-0.034302	-0.256854	-0.907137	9.389004	1.634805	0.902785	6.150611	-3.481963	-7.238661	-0.575429	-0.425274	-0.192455
-2.697093	-2.260931	9.272998	2.317639	2.617802	3.194639	0.547888	0.397495	-0.914418	0.493852	-1.192972	10.989239	-58.871662	117.101683	24.341882	0.030357	-0.24223	-0.895169	9.554643	1.806155	0.307759	7.099031	-3.588587	-8.433465	-0.547338	-0.390828	-0.225044
-2.579161	-2.375173	9.445302	2.688587	2.829424	3.657021	0.560508	0.400306	-0.875955	1.765018	-1.138823	11.242441	-60.102836	112.813235	26.456294	0.043553	-0.256404	-0.908791	9.32188	1.807437	0.483078	8.882676	-3.20059	-9.847565	-0.589061	-0.39144	-0.225255
-2.291816	-2.317697	9.507964	3.088621	3.04571	3.720719	0.561637	0.393592	-0.900691	2.515655	-1.703482	11.314322	-61.674275	103.819533	30.496736	0.017897	-0.255482	-0.922589	9.445394	1.343548	0.722928	10.852214	-2.999873	-10.833586	-0.589199	-0.408459	-0.20889
-2.354555	-2.433745	9.222102	3.737075	3.598057	4.065168	0.518933	0.356588	-0.850584	3.551617	-1.592761	11.336178	-64.206772	92.404565	37.34874	0.070026	-0.209221	-0.926703	9.390105	1.635052	0.962692	12.052065	-2.462612	-12.093458	-0.54755	-0.388349	-0.271627
-2.412882	-2.491387	9.163894	4.015554	3.842067	4.344337	0.560537	0.365707	-0.840972	5.492803	-1.42805	10.641108	-71.630958	85.293539	46.613711	0.069511	-0.196044	-0.899007	8.974926	1.577427	0.834928	13.688386	-1.808691	-12.652581	-0.589061	-0.39144	-0.225255
-2.644334	-2.204496	9.046941	4.046508	3.966526	4.223602	0.560894	0.386535	-0.872539	6.906796	-1.316695	12.199486	-76.106127	91.311976	54.90193	0.095978	-0.209071	-0.927255	9.626149	1.169656	0.905209	16.200109	-1.484978	-10.554578	-0.533709	-0.40599	-0.239665
-2.645033	-2.779152	8.987675	4.785828	4.084194	4.990063	0.575772	0.375918	-0.883549	7.836005	-0.529413	12.672609	-81.993295	107.934326	64.897939	0.108954	-0.208996	-0.927531	9.209194	1.402164	0.718774	17.25817	-0.661287	-9.981693	-0.533568	-0.407643	-0.208609
-2.354514	-2.491187	9.221861	6.354655	4.544118	5.729028	0.589878	0.392842	-0.90139	8.767223	1.102969	13.316363	-74.586823	122.814963	76.274997	0.134836	-0.163956	-0.916743	8.97477	1.170647	0.77329	18.342861	-0.605684	-9.06907	-0.588924	-0.374422	-0.24162
-2.700599	-2.031888	9.103404	5.771633	4.637418	5.394887	0.547517	0.393966	-0.900342	10.604635	2.282366	13.242764	-61.095217	125.426582	87.319273	0.10955	-0.146642	-0.945895	9.272592	0.938162	0.897617	19.676786	-0.80242	-7.330992	-0.560619	-0.342455	-0.227625
-2.583863	-2.031489	9.219337	4.728991	5.01002	4.637268	0.546016	0.397152	-0.86153	13.167514	2.783447	12.051521	-46.348947	114.401766	91.661452	0.161604	-0.115701	-0.949005	8.968843	0.878784	0.412613	21.720873	-1.091525	-5.289405	-0.575362	-0.407429	-0.224347
-2.409583	-2.433221	9.334695	5.621285	5.661263	4.491949	0.561637	0.393592	-0.900691	16.35575	1.705662	10.362491	-35.84775	94.226328	85.795748	0.136312	-0.158597	-0.988492	9.85314	1.28329	0.43085	23.63821	-1.622949	-3.521227	-0.547617	-0.406194	-0.239735
-2.811767	-2.031082	9.271737	5.873112	6.64476	4.599209	0.547517	0.393966	-0.900342	18.041996	0.236128	8.3585	-31.942255	71.687513	67.229106	0.161454	-0.146342	-0.946998	9.08591	0.82019	0.354659	25.218563	-2.346061	-1.078514	-0.575713	-0.421969	-0.254566
-2.865267	-2.604732	9.438769	6.372396	7.967091	4.741931	0.561251	0.407363	-0.904107	18.704954	-0.385939	7.013135	-39.649218	53.411779	39.323683	0.175761	-0.111338	-1.00668	8.844498	1.226274	0.112361	25.326714	-2.623854	2.162099	-0.57578	-0.439814	-0.222673
-2.807769	-1.39826	9.501803	6.979303	10.308612	7.200918	0.50404	0.384505	-0.857067	18.360925	0.79779	7.176796	-48.008339	39.438889	8.132609	0.162785	-0.111413	-1.006404	9.258712	1.225576	0.179971	23.454773	-2.399461	3.482041	-0.575083	-0.392062	-0.209657
-3.157231	-2.433406	9.14966	9.449028	12.083307	8.909306	0.589121	0.403085	-0.89073	18.543695	0.344818	4.915668	136.933925	-50.171048	-24.855212	0.175466	-0.11241	-0.99233	9.736478	1.167656	0.488061	22.25581	-1.665549	3.085552	-0.533847	-0.423009	-0.2233
-3.039956	-3.179747	9.262456	13.106367	12.915104	10.230942	0.561266	0.390063	-0.886615	14.796966	7.2292	10.617696	126.300668	-58.293715	-22.879126	0.212993	-0.102224	-0.922412	9.507151	1.111603	0.842854	22.968402	-0.831101	2.498282	-0.589128	-0.409285	-0.193362
-3.030142	-2.890368	9.775341	13.313369	14.601741	13.354999	0.574629	0.399931	-0.876304	4.922971	3.016603	3.216604	139.181419	-75.402684	-3.586796	0.148258	-0.132168	-0.933376	9.566053	1.6344	0.906086	25.133405	-0.897756	3.774432	-0.547755	-0.423213	-0.22337
-3.203226	-2.603277	9.716354	13.688278	12.360426	18.714533	0.575015	0.38616	-0.872889	-0.355528	3.200942	9.333465	33.423848	-62.010548	8.730838	0.161454	-0.146342	-0.946998	9.736228	1.748663	0.550441	25.52115	-0.805906	6.859572	-0.630998	-0.389574	-0.272049
-3.237139	-2.540728	10.909397	15.10931	18.567714	19.393943	0.574657	0.365333	-0.841321	0.568219	1.398978	12.012142	12.023513	-51.977103	8.844182	0.148032	-0.17813	-0.930365	9.556594	2.387657	0.489952	25.101653	1.470265	11.404429	-0.547196	-0.39248	-0.193988
-3.226377	-2.021341	11.480099	16.757355	44.158722	15.481389	0.54756	0.342068	-0.847867	2.045831	-0.632624	10.965714	31.280621	-61.652506	-3.321177	0.148623	-0.175986	-0.959064	10.49373	3.081173	0.210991	24.468492	6.41177	12.514071	-0.561383	-0.408051	-0.208749
-3.73989	-2.939792	11.52307	16.067481	51.627959	15.052806	0.604385	0.378697	-0.898323	0.818226	-4.351555	7.030274	38.871098	-22.913445	1.570932	0.122596	-0.191456	-0.957509	11.613801	3.136436	0.17224	23.880674	10.387729	6.445316	-0.60332	-0.406184	-0.255543
-3.664452	-1.901784	12.49503	27.945658	61.33963	19.806842	0.589178	0.333888	-0.820763	2.121323	-2.662446	8.927399	27.905037	-15.841656	0.861714	0.136312	-0.158597	-0.988492	11.55382	3.078248	0.110985	24.474276	10.744409	1.734627	-0.561525	-0.406398	-0.239805
-2.759682	-1.675094	11.94528	26.625305	68.579996	22.994729	0.604385	0.378697	-0.898323	2.636394	-1.086161	8.939607	33.039654	-11.742818	12.43646	0.12208	-0.17828	-0.929814	10.962227	1.800937	-0.145086	27.075468	8.963051	6.287723	-0.589408	-0.424651	-0.208053
-3.061626	-1.563381	11.144252	20.298523	76.831395	21.675201	0.589893	0.375543	-0.883898	1.90814	-1.478315	9.829793	23.863307	-9.904266	8.871222	0.096499	-0.162038	-0.944615	10.786144	1.859665	-0.088233	24.328818	7.439322	13.671184	-0.561805	-0.421764	-0.254496
-3.399254	-2.021458	11.419906	12.719469	86.190271	19.70266	0.589921	0.340944	-0.848914	2.13158	-1.704353	9.494602	11.937813	-8.068746	5.118797	0.109544	-0.206852	-0.95623	10.608515	1.162664	-0.214315	15.745058	6.188333	13.372015	-0.58927	-0.407633	-0.224418
-3.849578	-1.904555	11.809452	9.188804	94.775693	19.821723	0.602899	0.364584	-0.842019	1.84222	-1.53487	9.43206	5.217909	-7.475987	-0.121518	0.148848	-0.130025	-0.962075	10.844195	1.801207	-0.147287	9.470334	4.670128	7.166647	-0.547822	-0.441058	-0.191477
-4.515184	-2.301564	12.87461	4.681157	103.720703	20.317419	0.647161	0.329203	-0.860971	2.433027	-1.873361	10.12354	10.121454	-5.521812	1.289124	0.135352	-0.177133	-0.944439	11.258293	2.323441	-0.017545	10.192136	2.592747	1.24455	-0.561942	-0.438783	-0.238131
-4.228705	-2.588979	12.878971	0.406779	111.167605	20.236137	0.660538	0.321772	-0.833169	2.373044	-1.873348	10.009051	15.206578	-4.157286	-0.573731	0.12186	-0.164031	-0.916467	10.554792	2.674753	0.270268	12.938186	-1.319588	-4.00348	-0.547196	-0.39248	-0.193988
-3.142849	-2.934899	12.784973	0.92014	122.220063	23.818036	0.673173	0.307284	-0.777214	2.251546	-1.704378	9.723578	14.634668	-3.026887	-1.0562	0.122156	-0.162959	-0.930817	10.494425	3.255648	0.27164	17.664187	-4.612733	-3.363077	-0.575291	-0.408255	-0.20882
-4.334756	-3.506272	13.270854	2.260635	134.309309	25.666548	0.645689	0.297791	-0.787176	1.499138	-1.477797	9.538133	14.360104	-2.811932	-1.640016	0.095608	-0.225463	-0.911901	10.024767	3.141071	0.382156	21.963337	-6.019193	1.02908	-0.562013	-0.437957	-0.253659
-4.277875	-2.98934	13.27414	-1.185809	145.172605	27.968836	0.68575	0.361994	-0.791227	1.901233	-1.027908	9.546975	14.936342	-3.576154	-0.876451	0.109249	-0.207924	-0.94188	11.081961	2.963176	0.101687	23.400404	-5.552732	3.741797	-0.561939	-0.457454	-0.19071
-4.490315	-2.813231	14.123206	-2.812708	158.388443	29.384241	0.688036	0.313966	-0.805715	2.175548	-0.916307	8.930078	9.771956	-1.561588	-0.120701	0.123041	-0.159744	-0.973866	10.848907	2.615755	0.215616	22.594347	-5.14378	2.367402	-0.561246	-0.391032	-0.225114
-4.767679	-2.811093	14.572463	3.431188	171.312935	29.852385	0.701399	0.323835	-0.795404	1.616686	-1.477918	9.65383	4.200271	-0.010707	0.414315	0.083153	-0.178505	-0.928986	10.315851	2.965179	0.147289	19.176859	-3.55499	-4.565517	-0.56173	-0.441262	-0.191547
-4.77712	-3.617446	14.057407	5.435668	185.408077	33.632615	0.71592	0.29239	-0.774846	1.503865	-1.421277	9.764739	2.13663	0.510974	1.034405	0.108439	-0.195819	-0.899835	10.072083	2.963988	-0.276462	19.110224	-1.779402	-13.619703	-0.589479	-0.423825	-0.22358
-5.746566	-4.362758	14.2059	4.672417	199.740904	42.330298	0.742675	0.277527	-0.719241	1.904513	-1.478457	9.659874	-0.639504	0.899168	1.930048	0.12252	-0.206777	-0.956506	8.712666	3.373379	-0.359948	20.978831	0.051662	-18.49408	-0.589408	-0.424651	-0.208053
-5.793882	-4.245662	14.716947	6.535198	208.541126	49.73433	0.770159	0.287021	-0.709279	1.673174	-0.914721	9.655513	-6.283738	1.592648	2.1482	0.109324	-0.192603	-0.942884	8.241192	2.619224	-0.431872	23.653109	2.409353	-17.812169	-0.561521	-0.425069	-0.192384
-5.606778	-3.89776	15.517678	21.601241	216.32207	57.604645	0.783922	0.265819	-0.67806	1.898254	-1.366033	9.376771	-11.775882	2.1045	2.303012	0.109029	-0.193675	-0.928534	7.833331	3.202412	-0.077662	25.11026	4.886908	-14.345547	-0.616877	-0.391849	-0.225395
-7.180811	-4.994302	14.004849	34.895191	221.693979	63.233277	0.811792	0.261541	-0.664683	1.850898	-1.647199	9.828442	-13.447955	1.749043	1.835709	0.134761	-0.179277	-0.91574	7.376318	2.85825	0.690841	23.950557	6.353473	-8.664174	-0.561454	-0.407225	-0.224277
-3.61405	-3.844181	14.988361	47.734073	221.507123	71.408976	0.839318	0.219137	-0.602246	2.245155	-2.155307	9.383361	-11.81294	1.556573	1.619313	0.135792	-0.20563	-0.971131	8.017658	2.913111	0.283845	22.18566	8.168532	-1.392773	-0.575153	-0.391236	-0.225184
-5.096175	-4.4861	12.342627	64.324316	222.41606	73.859026	0.83859	0.194781	-0.556602	1.956789	-1.873116	9.377553	-8.598609	1.689532	1.592393	0.12252	-0.206777	-0.956506	8.076849	3.78461	0.408467	21.578768	9.672443	3.828551	-0.562076	-0.474473	-0.174345
-4.994288	-3.971862	11.721642	69.297461	225.604677	79.046407	0.882066	0.204242	-0.599877	2.132142	-1.366322	9.551526	-5.477709	1.703085	0.885991	0.109104	-0.178355	-0.929538	8.302024	3.258667	-0.248332	20.449521	10.763953	4.377581	-0.590172	-0.490248	-0.189176
-4.201965	-3.51484	11.284337	81.401644	220.704329	80.127371	0.882837	0.1767	-0.593046	1.730046	-1.816212	9.542684	-3.285668	1.608658	0.82516	0.1094	-0.177283	-0.943888	8.295557	3.199107	-0.60802	19.670421	11.1494	2.330795	-0.561454	-0.407225	-0.224277
-4.269655	-2.942555	10.773958	99.237502	201.347996	74.642158	0.908849	0.154781	-0.509289	1.851244	-1.196507	9.885461	-1.591269	1.232984	0.606991	0.122376	-0.177208	-0.944163	8.756256	2.904927	-1.259429	18.606675	11.547405	-1.029186	-0.548031	-0.45725	-0.19064
10.509157	-5.446959	5.481486	111.266848	177.787095	71.772131	0.895486	0.144913	-0.519599	1.572203	-1.364628	10.275751	-0.078934	1.101281	0.23696	0.122376	-0.177208	-0.944163	8.687721	2.263754	-1.862318	16.581671	10.834373	-3.769056	-0.561171	-0.41053	-0.162166
18.055825	-5.122539	2.16299	49.740732	89.423967	31.453999	0.95274	0.115872	-0.514165	1.90121	-1.647591	9.489813	1.921771	0.515476	-0.075536	0.135722	-0.160741	-0.959792	8.68442	2.263012	-2.042038	13.848304	9.092575	-4.881633	-0.575425	-0.443945	-0.145034
11.702944	-3.48392	8.07035	39.326709	20.527989	-35.082053	0.922641	0.09898	-0.443086	2.188953	-0.972116	9.553067	2.996857	0.038758	-0.110239	0.122376	-0.177208	-0.944163	8.97813	2.378242	-2.095949	10.232885	6.920897	-3.177273	-0.547822	-0.441058	-0.191477
13.420955	-5.5533	8.038214	53.478561	-42.591365	-74.066887	0.909264	0.106411	-0.470889	2.19234	-1.478996	9.665919	2.747135	-0.149575	0.072656	0.109324	-0.192603	-0.942884	8.93317	2.962598	-1.25588	7.073812	4.048596	-1.593448	-0.575847	-0.457659	-0.19078
6.854817	-6.878415	5.859015	60.615092	-68.792079	-86.755774	0.923013	0.102508	-0.457162	1.848696	-1.759954	9.715068	2.926534	-0.607802	0.160728	0.10874	-0.134537	-0.903849	9.462114	2.960888	-1.36579	6.23507	1.294096	1.234515	-0.575988	-0.456006	-0.221836
4.642036	-7.918991	3.879354	39.956908	-67.640377	-82.903467	0.950111	0.125773	-0.450617	1.906716	-1.365701	9.773249	3.724469	-1.026117	0.033898	0.096869	-0.145645	-0.959969	9.287401	2.903712	-1.249525	6.495828	-1.467412	2.163649	-0.561592	-0.424243	-0.207912
3.848719	-6.997416	4.322451	20.163957	-69.737858	-71.436124	0.938234	0.130018	-0.517231	1.96251	-1.703887	9.660894	4.862855	-1.379596	0.031299	0.122891	-0.190385	-0.971859	9.592791	2.731034	-0.705602	7.0596	-2.727351	-0.032925	-0.576197	-0.472199	-0.220999
4.735575	-5.728051	5.822642	10.874486	-83.050535	-59.016302	0.937448	0.174859	-0.541555	2.476864	-1.648669	9.501903	5.290725	-1.74189	-0.002787	0.161379	-0.161662	-0.945994	9.717831	2.558019	-0.344702	6.849525	-3.922254	-2.868777	-0.575917	-0.456832	-0.206308
5.498107	-4.747983	6.807722	8.586432	-106.471053	-49.972197	0.936705	0.167803	-0.513403	1.902419	-1.647544	9.546453	4.978826	-2.018979	-0.437387	0.122816	-0.205705	-0.970855	9.055583	2.498462	-1.075936	6.414357	-3.513544	-4.091632	-0.561939	-0.457454	-0.19071
5.558785	-4.862183	6.978912	10.037774	-132.92069	-43.657316	0.866859	0.159433	-0.522317	1.844854	-1.647436	9.545244	5.093821	-2.749354	-1.061117	0.10896	-0.148786	-0.917195	9.657965	1.976899	-0.468088	6.387143	-3.054822	-4.093723	-0.58899	-0.392267	-0.209727
4.691185	-5.035816	6.506661	7.307896	-159.103445	-41.129971	0.908435	0.203151	-0.547688	1.841011	-1.534917	9.37542	4.660804	-2.814764	-1.277912	0.135056	-0.178205	-0.930089	9.356011	2.092243	-0.832537	5.571744	-1.848441	-2.721235	-0.561872	-0.439609	-0.222603
4.239872	-5.091479	6.838631	-1.101208	-180.396757	-41.05289	0.866416	0.242401	-0.5957	2.130694	-1.873392	9.43782	5.181119	-3.234398	-1.744086	0.109695	-0.176211	-0.958237	9.419989	2.325648	-0.530913	4.230213	-1.105927	-1.038988	-0.547475	-0.407847	-0.208679
2.869805	-4.515104	7.041732	-9.767147	-192.691309	-42.700084	0.869474	0.166832	-0.603357	1.906153	-1.703732	9.716324	4.221468	-3.42853	-2.055069	0.122671	-0.176136	-0.958513	9.411186	2.323671	-1.010169	1.832244	-0.755386	-0.267908	-0.533918	-0.422182	-0.238827
2.415276	-4.743814	7.202419	-17.744868	-196.875001	-45.935387	0.855325	0.201805	-0.637991	1.624371	-1.702956	9.993478	3.941944	-3.554317	-2.1182	0.096348	-0.192678	-0.942608	9.406784	2.322682	-1.249796	-0.673893	-0.965253	-1.541462	-0.534123	-0.457046	-0.19057
1.340762	-4.68269	7.863741	-25.070818	-199.294635	-49.849546	0.855311	0.219104	-0.655483	1.906692	-1.985384	9.716087	5.693986	-4.294188	-2.802362	0.109475	-0.161962	-0.944891	10.055287	2.611577	-1.236455	-2.753549	-1.59835	-3.150711	-0.547822	-0.441058	-0.191477
-0.248177	-4.276303	8.573342	-30.802799	-201.049822	-54.739285	0.799186	0.24143	-0.685654	1.899678	-1.478647	9.433316	6.492027	-4.740561	-3.330233	0.148403	-0.161737	-0.945718	8.934115	2.556066	-1.257611	-3.568177	-2.073321	-4.826398	-0.561872	-0.439609	-0.222603
-1.085506	-4.73063	9.634918	-34.663607	-202.800462	-59.266334	0.799958	0.213888	-0.678822	1.912005	-0.97115	10.056779	7.103812	-5.22257	-3.457845	0.135126	-0.223094	-0.941428	9.287651	2.322704	-1.311904	-4.440731	-2.586668	-5.768198	-0.589617	-0.440844	-0.207216
-2.045428	-4.784472	10.297985	-37.616245	-202.566553	-62.107189	0.828927	0.237495	-0.725164	2.313192	-1.309983	9.951677	8.086936	-5.668003	-3.769761	0.122526	-0.146567	-0.946171	8.940022	2.383074	-0.958818	-5.182086	-3.08348	-5.304719	-0.590172	-0.490248	-0.189176
-3.576366	-5.412073	11.004356	-42.964561	-199.569121	-62.779404	0.743418	0.284584	-0.747392	2.42502	-1.479332	9.784034	7.812755	-5.393726	-4.044705	0.096273	-0.207999	-0.941605	8.992841	2.207228	-1.317901	-5.890192	-3.274292	-4.842819	-0.576122	-0.491696	-0.158051
-4.546765	-4.83623	11.158399	-51.367448	-195.867038	-61.744012	0.742661	0.294827	-0.736732	1.906931	-1.478362	9.773154	8.801566	-5.408628	-4.537303	0.134981	-0.193525	-0.929086	9.113074	2.207452	-1.195886	-6.603123	-4.076879	-4.377981	-0.534052	-0.457872	-0.175042
-5.607384	-3.967788	12.56219	-55.67681	-190.909	-58.583163	0.729669	0.288487	-0.761119	2.193226	-1.309957	9.722701	11.70565	-5.428283	-5.275029	0.109544	-0.206852	-0.95623	9.706672	2.148767	-1.005408	-7.223175	-4.383092	-4.557645	-0.589617	-0.440844	-0.207216
-5.412362	-3.790521	13.760169	-55.838559	-185.55001	-53.832543	0.68765	0.327738	-0.809131	1.967238	-1.647367	9.8875	13.683162	-5.429837	-5.890008	0.10962	-0.191531	-0.957234	8.94813	2.210577	-0.540211	-8.461162	-4.471729	-5.286218	-0.575709	-0.44064	-0.207145
-6.323197	-3.32912	14.028549	-54.229139	-178.090181	-46.476182	0.700614	0.368676	-0.819728	2.309219	-1.760817	9.724739	17.29373	-5.74754	-6.568472	0.083593	-0.207002	-0.955679	9.182534	1.977238	-0.656612	-8.86493	-4.250223	-6.141534	-0.561659	-0.442088	-0.176019
-6.546937	-2.925657	14.31005	-52.480454	-168.141121	-38.896054	0.701042	0.303007	-0.763837	2.139395	-1.366037	9.891363	19.299866	-5.960747	-7.58629	0.12134	-0.211064	-0.899107	8.473935	2.153086	-0.669076	-8.497265	-3.90296	-7.061361	-0.561868	-0.458281	-0.175182
-7.468741	-2.696434	14.008934	-54.289015	-157.360693	-32.88756	0.672358	0.386725	-0.836521	2.137408	-1.591454	9.777894	19.548051	-5.89487	-7.801229	0.135346	-0.237343	-0.954774	8.825676	1.745002	-0.843925	-8.030696	-3.319164	-7.15752	-0.576402	-0.507062	-0.172741
-7.190927	-1.779265	13.620391	-58.099751	-147.784412	-27.322495	0.672358	0.386725	-0.836521	1.907493	-1.140332	9.830078	19.824011	-6.045276	-7.710019	0.134906	-0.208846	-0.928082	8.595269	2.153558	-0.487154	-7.501304	-3.078873	-6.54936	-0.547822	-0.441058	-0.191477
-8.555012	-1.776099	14.105345	-61.199588	-141.17102	-23.280048	0.658595	0.407927	-0.86774	1.798946	-1.421532	10.110621	21.304743	-6.180395	-7.617689	0.110135	-0.204708	-0.984929	9.24209	1.744799	-0.656501	-6.560661	-2.453352	-4.599815	-0.561379	-0.426722	-0.161329
-10.677921	-1.718089	13.836975	-63.88067	-138.001939	-16.38109	0.631111	0.398433	-0.877701	2.190377	-1.08473	9.609611	21.611866	-6.300348	-7.433668	0.12156	-0.225313	-0.912453	9.063422	2.442116	-0.656835	-6.116254	-1.730902	-3.321272	-0.548523	-0.470138	-0.251914
-12.420092	-1.664712	12.553043	-67.464327	-139.43343	-5.53687	0.630725	0.412204	-0.881117	2.133913	-1.028244	9.66509	21.487989	-6.303526	-7.187178	0.108954	-0.208996	-0.927531	8.473645	1.804383	-0.730466	-6.015962	-1.062335	-2.866394	-0.547613	-0.424865	-0.192314
-14.031632	-0.803617	12.127514	-79.130707	-144.074639	5.707102	0.630711	0.429504	-0.898609	2.134452	-1.309897	9.664852	22.769683	-7.485862	-6.766316	0.083147	-0.238715	-0.939322	8.718358	1.399041	-0.308447	-5.235848	-0.11476	-2.537557	-0.534194	-0.45622	-0.206098
-15.506643	0.406869	12.842721	-85.061408	-148.006744	16.42403	0.629939	0.457046	-0.905441	1.898623	-0.295658	9.490952	21.399591	-8.246952	-5.572705	0.12178	-0.239561	-0.925799	8.821544	1.627861	-1.084047	-3.897564	1.046106	-1.936698	-0.5755	-0.424447	-0.207982
-17.464884	1.037722	12.238985	-79.993748	-149.474026	28.528487	0.5746	0.43453	-0.911288	1.67583	-0.407604	9.825859	16.610318	-8.227183	-3.819177	0.109024	-0.253885	-0.938869	9.010718	2.095031	-0.359885	-2.055712	2.717119	-0.209274	-0.575709	-0.44064	-0.207145
-18.815182	1.08888	10.508024	-73.581393	-147.190597	41.302311	0.53181	0.501323	-0.966132	2.130741	-0.634025	9.552142	14.498114	-9.058414	-2.719338	0.120599	-0.243849	-0.8684	9.481571	1.222069	-0.53451	-0.677953	4.544796	0.999533	-0.562006	-0.475299	-0.158817
-20.401676	1.828053	8.434385	-75.15275	-141.71134	53.751458	0.531438	0.497795	-0.952056	2.313539	-0.859291	10.008696	12.2402	-9.187281	-1.458489	0.083367	-0.252963	-0.952668	9.720127	1.570727	-0.348905	-0.264409	6.136625	1.021002	-0.575776	-0.458485	-0.175253
-21.279262	3.14597	7.513584	-76.701815	-132.037558	65.133453	0.516918	0.52924	-0.972614	1.72448	-0.802405	9.373619	10.379737	-9.733543	-1.249622	0.109099	-0.238565	-0.939873	10.023896	2.094961	0.197985	-0.383122	7.276233	0.221354	-0.547897	-0.42156	-0.254425
-21.961494	4.181622	7.788831	-74.295296	-116.547735	75.034382	0.516532	0.543011	-0.97603	2.138856	-1.084385	9.8916	8.768317	-10.066229	-0.391041	0.121629	-0.270202	-0.923792	10.014823	2.209135	-0.280776	-0.389795	7.816768	-1.767776	-0.576406	-0.488391	-0.220162
-21.72217	5.332699	8.366642	-67.310593	-92.293034	81.171007	0.515775	0.553253	-0.96537	1.914207	-0.858395	10.170153	7.555446	-10.89664	-2.373266	0.083442	-0.237643	-0.953671	9.543834	3.140173	-0.105903	-0.79742	7.828252	-3.019408	-0.576614	-0.504583	-0.219325
-21.272509	6.13486	7.980957	-55.607792	-65.72419	82.886873	0.460836	0.499668	-0.95031	2.555435	-1.253609	10.522956	9.16752	-12.897478	-2.761798	0.084108	-0.220179	-0.983374	9.533775	2.731169	-0.706703	-1.454804	6.913242	-3.501654	-0.589758	-0.439191	-0.238271
-21.922462	15.18802	16.076392	-37.126776	-10.209758	93.513228	0.489048	0.533517	-0.985992	2.088436	-1.027662	10.230277	10.534184	-14.978383	-5.46341	0.108138	-0.257101	-0.89582	9.658235	1.860747	-0.468583	-2.778857	6.128892	-2.056693	-0.548172	-0.455598	-0.221696
-16.521521	7.06283	10.975631	42.479359	11.665341	78.129546	0.53221	0.470253	-0.945224	2.945549	-0.860524	9.965355	12.407794	-16.013351	-7.691787	0.134165	-0.24163	-0.897375	8.873532	1.335616	-1.503531	-4.654198	5.149233	0.338662	-0.575917	-0.456832	-0.206308
-13.326454	8.666701	10.533066	63.281346	49.129565	56.790328	0.517332	0.48087	-0.934215	2.146756	-1.422083	10.231154	15.192328	-18.407776	-11.289343	0.095237	-0.241855	-0.896548	9.16147	1.565761	-1.856481	-8.480421	3.899262	1.58101	-0.54796	-0.458077	-0.175112
-7.167384	6.990872	9.338703	90.030935	81.666377	22.135646	0.517304	0.515469	-0.969198	2.720554	-1.085226	10.186888	17.783449	-21.447827	-15.016757	0.095457	-0.256104	-0.909894	9.038496	1.797346	-2.09732	-11.697221	2.199604	2.150912	-0.547893	-0.440232	-0.207005
0.816926	-2.098896	7.52346	1.109422	81.564275	-2.480228	0.546316	0.487177	-0.963065	2.76955	-1.029335	9.791667	20.918453	-22.922974	-17.834165	0.083002	-0.209146	-0.926979	9.271759	0.63405	-2.397398	-15.350759	-0.174872	2.756183	-0.534611	-0.488605	-0.204423
2.171212	-2.136743	12.380228	-29.427398	87.553865	-6.64992	0.547474	0.445864	-0.952817	3.198194	-1.817768	10.932257	19.168328	-22.488776	-21.992883	0.095382	-0.271424	-0.908891	9.153923	1.97081	-2.214192	-18.723271	-2.61706	4.094294	-0.547546	-0.40702	-0.224207
-1.359219	-2.704487	13.275281	18.207391	86.605679	4.299422	0.545187	0.493892	-0.938329	2.62321	-1.53499	10.977045	23.462227	-25.716866	-31.207804	0.06958	-0.240933	-0.910346	9.68976	2.319287	-1.90327	-21.985048	-5.593601	3.906367	-0.548452	-0.470964	-0.236386
-2.730887	-0.819543	10.528686	57.806626	102.151692	28.663419	0.5742	0.465601	-0.932196	3.225782	-1.704016	12.235063	24.820281	-24.285328	-41.180059	0.107692	-0.288813	-0.879463	9.864918	3.131946	-1.896507	-21.365178	-8.829832	3.552802	-0.548314	-0.453945	-0.252751
-2.383569	0.100238	10.76664	48.421359	115.615344	43.166815	0.587935	0.478997	-0.935961	2.722523	-1.871469	12.903716	34.644045	-43.542705	-41.20946	0.056605	-0.241009	-0.910071	11.059027	3.829619	-1.032835	-18.018293	-11.679096	5.174168	-0.589896	-0.45621	-0.221906
-3.668589	-6.338817	9.180083	-0.383599	45.816212	41.130375	0.587163	0.506539	-0.942792	2.7995	-0.011768	13.982642	33.636811	-64.042824	-36.728529	0.06965	-0.285823	-0.921685	11.73502	3.65984	0.416293	-13.10812	-13.694703	9.536752	-0.54831	-0.472617	-0.205331
-3.459393	-2.653997	11.245578	8.22104	10.441247	-12.090911	0.615805	0.47472	-0.922583	2.374506	1.39649	13.069132	42.013949	-75.908674	-40.045594	0.055933	-0.318683	-0.890703	12.145973	4.588111	0.427952	-8.536298	-13.78802	11.262867	-0.547613	-0.424865	-0.192314
-3.418675	-2.887424	10.39293	11.135038	4.714345	-10.014816	0.644417	0.477499	-0.937357	2.446662	0.720938	13.692807	32.192509	-89.881205	-33.441499	0.069135	-0.272646	-0.893989	11.732279	3.891649	0.297469	-4.132838	-13.389046	9.686176	-0.575917	-0.456832	-0.206308
-1.622739	-3.643451	8.549273	23.394749	8.652726	-8.084584	0.602456	0.447552	-0.915402	2.456202	0.157965	14.08881	21.830112	-107.540889	-27.244295	0.056454	-0.271649	-0.908063	11.613146	3.891672	0.235361	-1.234412	-11.547188	7.068868	-0.562009	-0.456628	-0.206238
-2.588685	-3.066643	8.930728	15.934234	7.755537	-2.495948	0.587578	0.458169	-0.904393	2.765788	0.158279	15.114367	13.080796	-124.657932	-21.410227	0.003885	-0.289414	-0.877257	11.244744	3.889268	-0.550031	-0.573424	-8.00017	4.421016	-0.561246	-0.391032	-0.225114
-2.42311	-2.20635	8.653423	5.672742	6.034358	1.431125	0.575358	0.424287	-0.921948	3.237468	-1.250514	15.51933	0.079335	-145.47382	-12.225245	0.00396	-0.274093	-0.878261	9.996446	3.483346	-1.114033	-1.86943	-3.37348	3.181075	-0.533914	-0.440854	-0.191407
-2.297917	-3.123326	9.163467	8.480253	2.477687	-3.602998	0.587964	0.444398	-0.900977	2.112398	0.44508	19.573417	-4.046414	-164.307689	-17.101395	0.01634	-0.336372	-0.860172	10.042932	3.189864	-1.833052	-4.00794	-0.186504	7.788807	-0.57522	-0.409081	-0.193292
-2.759915	-2.262096	8.987619	7.296236	2.064041	-0.140797	0.658152	0.490895	-0.941123	2.070665	-1.753613	17.419263	6.172173	-193.490857	-12.481517	-0.022658	-0.291708	-0.848006	9.740283	3.130733	-2.25815	-7.10165	-0.17097	17.061411	-0.589057	-0.410112	-0.177834
-2.303899	-2.550117	8.881615	-1.830693	1.628284	2.025135	0.588306	0.482525	-0.950037	2.587629	-2.430644	17.316295	-7.446541	-215.178405	-13.386058	-0.035344	-0.350921	-0.872416	9.749782	3.307186	-1.718246	-8.555003	-1.903452	24.380683	-0.5755	-0.424447	-0.207982
-2.465434	-2.835029	9.388745	-0.048237	2.185928	2.36641	0.618448	0.44752	-0.968639	2.200841	-2.034912	18.101119	-10.863858	-236.50513	-17.207355	-0.034898	-0.319208	-0.888773	9.817872	3.192877	-1.238385	-7.969232	-5.195683	23.507784	-0.547964	-0.439405	-0.222533
-2.352986	-3.065361	9.276301	1.645236	2.922317	3.170857	0.602799	0.485679	-0.964462	1.953093	-2.373175	17.246404	-8.056612	-258.872616	-19.245963	-0.086872	-0.274619	-0.876331	9.717872	3.48773	-0.220932	-5.274442	-7.700067	18.160582	-0.533493	-0.42714	-0.145661
-2.074425	-3.18214	8.883414	2.179268	3.794754	5.054196	0.5746	0.43453	-0.911288	0.981237	-0.458063	15.01973	-15.520888	-282.853164	-25.192968	-0.127056	-0.294452	-0.817101	9.143677	3.725093	0.667656	-3.437248	-8.697057	11.678583	-0.575291	-0.408255	-0.20882
-2.412385	-3.180685	9.160999	5.159203	4.351369	5.974672	0.631425	0.471159	-0.961744	3.176928	-1.980508	18.008438	-7.712892	-306.132872	-33.987452	-0.140252	-0.280278	-0.803479	9.214352	2.972195	1.204704	-1.882177	-7.633772	6.991406	-0.533776	-0.423835	-0.207772
-2.472529	-2.262062	9.05004	5.894877	4.855195	5.21407	0.574986	0.420759	-0.907872	4.603047	-3.784059	19.961681	26.289885	-319.354159	-41.21206	-0.180436	-0.300111	-0.744249	9.167286	2.56827	1.800942	-1.309925	-6.643401	3.102964	-0.57578	-0.439814	-0.222673
-2.182626	-2.663636	9.224477	3.257789	5.097431	4.458921	0.629539	0.488116	-0.926348	4.895766	-4.688128	17.419394	54.47076	-336.07959	-50.263859	-0.259258	-0.379307	-0.708877	8.109687	2.920392	2.082152	1.609592	-6.210947	0.736949	-0.561592	-0.424243	-0.207912
-2.237156	-3.35241	9.334174	2.675655	5.75154	3.45921	0.616919	0.485305	-0.964811	3.917154	-4.686296	17.398842	85.090707	-332.624456	-53.934744	-0.272379	-0.349813	-0.696259	8.041037	2.80215	1.541395	7.458237	-5.671236	3.800098	-0.589617	-0.440844	-0.207216
-2.071209	-3.009092	9.054697	2.891247	5.937276	3.430941	0.629554	0.470817	-0.908856	6.960305	-5.030323	17.066153	92.701013	-319.720433	-58.054373	-0.311752	-0.381751	-0.679075	7.862328	2.569757	1.417291	13.418712	-4.63987	9.641976	-0.547751	-0.441884	-0.175949
-2.580191	-2.490297	9.387966	4.239728	5.254971	4.519989	0.616205	0.443649	-0.901676	3.399107	-3.053983	14.841764	131.697631	-300.580274	-62.395048	-0.286095	-0.382673	-0.665277	8.20403	2.217524	0.703528	16.535431	-3.23272	13.658648	-0.561104	-0.392685	-0.194059
-2.525904	-3.008036	9.216349	7.889232	4.920396	5.70006	0.601698	0.457795	-0.904742	0.886119	-5.47322	12.805356	170.566839	-273.750874	-64.285988	-0.378994	-0.390702	-0.562898	8.782086	2.213454	0.055556	17.391414	-1.411406	15.297441	-0.575563	-0.460964	-0.128669
-2.348946	-2.489981	9.506126	8.900316	5.019745	5.484095	0.603199	0.454609	-0.943554	-15.493794	-8.262944	8.042974	194.846425	-236.426433	-70.738832	-0.393231	-0.470594	-0.514555	9.19657	2.096604	0.122672	17.435139	-0.907985	16.914921	-0.5755	-0.424447	-0.207982
-2.586541	-2.951277	9.044917	8.349667	5.859428	4.395314	0.601698	0.457795	-0.904742	-19.910598	-8.6015	-2.12741	123.44626	-114.809171	-17.986726	-0.368096	-0.518549	-0.483396	9.133017	2.153826	-0.117809	18.123674	-0.769621	18.562396	-0.617082	-0.426712	-0.177137
-2.582294	-2.663104	9.273536	7.005315	7.124579	3.407727	0.631826	0.440089	-0.940837	-17.575333	-9.388485	4.771257	54.017162	-4.707379	55.963056	-0.393897	-0.488059	-0.484852	9.600899	2.558536	-0.286996	19.979273	-0.431844	19.07371	-0.617086	-0.408041	-0.224558
-2.296187	-2.433545	9.280069	5.722506	8.201452	2.784907	0.603227	0.42001	-0.908571	-15.610452	-8.485761	10.644579	38.602324	66.445645	120.113804	-0.419698	-0.457568	-0.486308	9.846463	2.734449	0.25731	22.434899	-0.587911	17.262089	-0.561313	-0.408877	-0.193221
-2.235261	-2.892395	9.449811	4.437896	8.845309	2.400392	0.630682	0.464102	-0.933592	-8.96384	-8.105135	9.369155	61.81679	87.389472	144.794051	-0.43268	-0.517853	-0.496367	10.315831	2.500323	0.085404	25.226511	-0.022495	13.825812	-0.589057	-0.410112	-0.177834
-2.645323	-2.377062	8.989364	2.721478	8.86907	2.313716	0.60247	0.430253	-0.897911	-4.266843	-9.412955	5.560271	74.087008	68.646799	143.07557	-0.420289	-0.459712	-0.457608	10.671724	2.674236	0.212562	27.043964	1.664257	11.060247	-0.561659	-0.442088	-0.176019
-2.241983	-2.836401	9.108934	1.034118	8.647128	2.222964	0.616962	0.433406	-0.912336	-2.577838	-10.039726	1.066058	41.432165	53.680865	123.072636	-0.407238	-0.444316	-0.458888	10.129689	2.150047	-0.458543	25.008739	3.892515	7.847638	-0.561171	-0.41053	-0.162166
-2.12966	-2.894408	8.997213	0.140969	7.904395	2.305466	0.617319	0.454234	-0.943903	-3.59592	-8.121695	2.065423	-10.457593	63.088866	92.844755	-0.432454	-0.471891	-0.499378	10.133145	2.557568	-0.217185	20.948361	6.249729	6.261733	-0.603174	-0.426508	-0.177067
-2.764037	-2.722593	8.758277	-0.595045	7.714489	2.488503	0.603213	0.437309	-0.926062	-4.69806	-4.50982	7.367193	-31.191031	96.218947	61.800695	-0.457885	-0.425008	-0.516187	9.423426	2.268314	-0.35144	14.23687	8.037345	5.605093	-0.575705	-0.459311	-0.159725
-2.127267	-3.123692	9.109954	0.109359	7.562735	2.606679	0.616548	0.481776	-0.950735	-5.567248	-1.914663	10.012093	-17.845634	139.998693	36.811428	-0.393226	-0.410385	-0.50422	8.713321	2.618143	-0.423069	7.727208	8.859133	3.760341	-0.589546	-0.44167	-0.191688
-2.471084	-2.721353	9.104963	1.03311	7.992741	3.009685	0.603199	0.454609	-0.943554	-5.471782	-1.746646	9.10842	-1.985292	183.249622	20.914869	-0.417927	-0.451136	-0.572406	8.712066	2.211117	-0.544613	5.584518	8.104044	2.090707	-0.617153	-0.425886	-0.192665
-2.578953	-2.662381	9.444095	0.485277	8.072971	3.840583	0.603199	0.454609	-0.943554	-4.566451	-1.748987	8.391447	2.72553	217.748974	13.585672	-0.391599	-0.374384	-0.577976	8.892571	2.618233	-0.299954	10.16808	6.464251	2.509821	-0.58892	-0.393093	-0.194199
-2.354224	-2.893278	9.220172	1.497997	7.886007	4.47864	0.631826	0.440089	-0.940837	-3.872494	-2.144499	8.518902	1.098919	240.387358	13.532326	-0.365132	-0.387411	-0.606223	8.954193	2.444364	-0.179781	15.831596	4.547684	3.445929	-0.562151	-0.454976	-0.237294
-2.816713	-2.893911	8.983851	4.969366	8.191407	6.068293	0.60247	0.430253	-0.897911	-3.027038	-2.203158	7.687394	-9.070533	255.146822	21.594228	-0.377373	-0.414911	-0.646989	9.023093	1.981599	0.298597	16.523128	2.907193	2.595472	-0.575291	-0.408255	-0.20882
-3.218898	-2.491771	8.920893	8.10049	7.596388	8.318939	0.616962	0.433406	-0.912336	-2.361179	-2.203063	9.229961	-18.467974	265.306112	32.231625	-0.32599	-0.461644	-0.630732	9.257091	1.922488	0.182937	15.59743	3.184536	2.077922	-0.589684	-0.458689	-0.175323
-2.75616	-2.835787	9.155766	10.797297	7.139672	9.039746	0.601727	0.423196	-0.869759	-1.760031	-2.259475	10.431434	-23.886239	270.302504	44.208416	-0.325249	-0.428859	-0.661439	9.201221	1.516585	0.29992	14.965727	4.207771	3.48125	-0.589617	-0.440844	-0.207216
-3.099811	-2.663214	9.149809	12.022217	6.772451	9.398247	0.64446	0.425601	-0.884882	-0.016923	-2.487414	11.203827	-24.578939	270.455625	56.973505	-0.297601	-0.437599	-0.747085	8.730483	1.866616	0.412414	14.953428	6.066424	4.175392	-0.589479	-0.423825	-0.22358
-3.041318	-2.835339	9.207051	12.544865	6.863948	9.674225	0.644789	0.481027	-0.951433	1.664755	-3.22241	11.748025	-28.115753	267.860022	67.920976	-0.257637	-0.403517	-0.792968	8.608474	2.156525	0.231728	15.11474	7.419589	3.52651	-0.589124	-0.427956	-0.145941
-2.812715	-2.261089	9.213918	13.742884	7.23691	9.799502	0.616219	0.42635	-0.884184	3.164305	-3.450439	11.892546	-33.997341	265.338744	76.986735	-0.231836	-0.434008	-0.791513	8.379687	1.868168	0.585532	14.656765	9.210171	1.777502	-0.574315	-0.345137	-0.181112
-2.809499	-2.088041	9.385201	13.557943	7.489547	9.129484	0.603242	0.402711	-0.891079	4.20849	-3.846408	12.253812	-43.130577	261.652893	79.902633	-0.178155	-0.367066	-0.868379	8.674633	1.925569	0.591281	14.717129	10.175429	0.152832	-0.602619	-0.377104	-0.195106
-2.237281	-3.180086	9.334898	15.229224	9.014696	10.836095	0.659324	0.432283	-0.913383	7.956631	1.895347	15.847675	-59.253778	250.590636	87.734455	-0.165104	-0.351671	-0.869658	8.844269	2.272137	0.236625	15.081348	10.529342	-1.408874	-0.560757	-0.359473	-0.211261
-2.631257	-3.350673	9.667499	13.447151	8.644233	10.25255	0.659309	0.449582	-0.930875	7.629603	-6.048851	13.286162	-43.811426	246.724676	76.731768	-0.125655	-0.304413	-0.887846	9.200141	1.981194	0.301898	16.526676	10.635155	-2.270361	-0.547751	-0.441884	-0.175949
-2.592232	-2.780159	8.761376	17.425666	11.124757	12.673345	0.687951	0.417763	-0.910666	7.716414	-5.148822	12.043267	-66.850268	236.796323	66.069639	-0.100004	-0.365544	-0.884383	9.088961	1.40194	0.596759	18.30096	9.550703	-3.280164	-0.602898	-0.392471	-0.209797
-2.652087	-2.263626	8.648728	19.487293	11.516805	14.176389	0.646332	0.425943	-0.93777	7.755467	-4.07693	13.969915	-78.996314	225.701011	53.524167	-0.085917	-0.316292	-0.930719	9.081258	1.400209	0.177411	19.491792	8.428517	-3.798676	-0.547613	-0.424865	-0.192314
-2.584521	-2.663587	9.15983	19.150633	10.512386	15.878284	0.659338	0.414983	-0.895892	7.600257	-3.737912	14.816166	-83.72163	214.977754	40.495402	-0.046248	-0.283283	-0.962253	9.089366	1.227712	0.596017	19.509853	7.086727	-4.189643	-0.575571	-0.423621	-0.22351
-2.655552	-2.092025	8.478893	18.35712	10.061055	17.406477	0.674573	0.425194	-0.938469	8.764563	-2.950871	15.520684	-87.857793	206.863149	27.647578	0.018412	-0.268659	-0.950285	8.730598	1.343685	0.350282	17.892705	5.833995	-4.880729	-0.58927	-0.407633	-0.224418
-3.276484	-2.032198	8.92171	15.128522	8.575128	17.023646	0.631083	0.433032	-0.912685	9.917511	-3.178301	15.601312	-93.468959	199.288506	13.601949	0.05771	-0.252041	-0.966466	9.266415	1.227306	0.599319	17.409846	3.852786	-5.72525	-0.561592	-0.424243	-0.207912
-2.751173	-2.030399	9.443409	9.510172	7.952404	15.43512	0.674602	0.390595	-0.903485	10.311037	-2.672413	15.213724	-102.817514	194.298877	-0.266415	0.109539	-0.267062	-0.966565	8.967067	1.168917	0.353942	17.357853	1.874729	-6.724147	-0.561171	-0.41053	-0.162166
-2.756574	-2.261372	9.158179	6.380384	8.637528	13.370024	0.646375	0.374045	-0.885295	11.88158	-2.336676	16.039603	-116.188546	198.773477	-12.687011	0.136452	-0.248376	-1.01117	8.844093	1.400502	0.113102	17.547838	-0.186621	-8.456976	-0.58899	-0.392267	-0.209727
-2.747625	-2.316883	9.612762	5.677781	9.75445	12.163575	0.646732	0.394873	-0.916863	13.661727	-1.945846	15.907493	-116.072333	209.032646	-26.580189	0.136232	-0.234127	-0.997823	9.259407	1.400051	0.240619	18.208688	-2.10689	-8.878056	-0.561734	-0.422591	-0.238968
-2.915965	-2.430918	9.779498	6.550925	12.375417	11.774336	0.64596	0.422415	-0.923694	14.732502	-1.948795	14.85431	-110.853133	217.181404	-40.42823	0.161593	-0.236121	-0.969675	8.777914	1.166602	-0.308335	19.432175	-3.915396	-8.079275	-0.603871	-0.474259	-0.190084
-3.660521	-2.08573	9.766471	9.031747	16.590628	12.387683	0.647104	0.398401	-0.930939	17.057172	-2.34895	13.204355	-115.030857	220.396158	-53.192046	0.227214	-0.202961	-1.001761	9.07338	0.526843	-0.36546	21.38455	-4.423677	-5.5779	-0.57578	-0.439814	-0.222673
-3.182153	-2.48381	10.797045	12.763677	24.462691	13.547508	0.703214	0.393374	-0.918259	18.038459	-0.832005	10.791893	-129.193806	213.856566	-64.026283	0.239379	-0.190781	-0.959991	8.662083	1.167367	-0.190722	21.848635	-5.01486	-4.445978	-0.589266	-0.426304	-0.176997
-3.249926	-1.796641	10.28715	16.213362	31.224927	14.874094	0.687579	0.414234	-0.89659	19.585026	1.925185	10.713578	-149.653569	196.649593	-66.803242	0.266958	-0.154631	-1.034298	9.488889	1.862883	-0.052536	20.922671	-5.451154	-3.982115	-0.533772	-0.442506	-0.160351
-3.093337	-2.374559	9.492134	17.259276	36.700221	14.868077	0.631468	0.419261	-0.909269	22.990334	6.087949	11.581367	-157.519072	176.748513	-59.640668	0.279638	-0.155628	-1.020224	9.790033	2.095995	0.313397	17.450808	-5.23915	-2.014577	-0.575217	-0.427752	-0.145871
-2.855619	-2.085587	9.952619	17.388271	43.353315	13.595902	0.647861	0.388158	-0.941599	29.46632	11.316133	13.533643	-139.393318	147.946558	-41.972612	0.318786	-0.169651	-1.034398	9.431554	2.560672	0.129051	12.690099	-4.826194	0.781901	-0.589128	-0.409285	-0.193362
-3.653556	-0.935211	10.169269	18.006842	50.198436	11.83478	0.674216	0.404366	-0.906901	32.881767	13.338574	14.682828	-89.699339	91.356579	-25.51059	0.370476	-0.094892	-1.011819	9.482307	2.326255	-0.350092	9.431174	-4.825011	2.505241	-0.589475	-0.442496	-0.17616
-3.693201	-0.644102	11.079011	14.541654	56.046012	9.639858	0.719621	0.344972	-0.933097	31.801762	10.972735	12.393492	-32.519456	15.47284	-24.061499	0.35831	-0.107072	-1.053589	8.881681	2.092829	-0.961155	9.825355	-5.428491	7.763724	-0.561316	-0.390206	-0.240642
-3.185949	-1.852677	10.62914	12.298429	62.661232	5.276529	0.716606	0.368644	-0.872965	24.243948	7.491077	8.43854	0.433002	-39.716557	-36.11271	0.345485	-0.076506	-1.055321	9.108186	0.521269	-1.682311	8.544097	-5.238658	15.592286	-0.589195	-0.42713	-0.161469
-3.461169	-1.735174	11.192586	-1.015781	66.554607	3.354113	0.689122	0.35915	-0.882927	15.255582	6.718884	7.796169	0.483772	-50.927403	-42.9441	0.370476	-0.094892	-1.011819	9.770009	0.2902	-1.012219	3.597384	-4.42052	17.593149	-0.575567	-0.442292	-0.17609
-3.975464	-3.113398	11.176774	-0.360835	77.831275	3.658216	0.689122	0.35915	-0.882927	10.141968	30.082201	45.301189	-87.126841	-95.073505	-52.947451	0.397168	-0.061958	-1.043078	9.720896	0.29256	-0.474157	-1.562609	-3.707673	8.988788	-0.575358	-0.4261	-0.176927
-4.583076	-2.993234	12.30207	-4.599273	88.585157	7.371937	0.74409	0.378137	-0.863003	4.66509	0.487985	9.776202	209.067677	-99.948978	-7.93622	0.331768	-0.109366	-1.024338	9.669313	0.410577	-0.055415	-3.513213	-5.572097	-6.613027	-0.561104	-0.392685	-0.194059
