1824_acc_x	1824_acc_y	1824_acc_z	1824_gyro_x	1824_gyro_y	1824_gyro_z	1824_mag_x	1824_mag_y	1824_mag_z	1825_acc_x	1825_acc_y	1825_acc_z	1825_gyro_x	1825_gyro_y	1825_gyro_z	1825_mag_x	1825_mag_y	1825_mag_z	1826_acc_x	1826_acc_y	1826_acc_z	1826_gyro_x	1826_gyro_y	1826_gyro_z	1826_mag_x	1826_mag_y	1826_mag_z
-4.567	2.2018	7.7347	-0.1395	0.1607	0.1898	0.3929	-1.1087	-1.7016	1.8453	2.6079	9.4003	-0.5934	0.7652	-0.1854	0.2342	-0.2101	-0.7985	9.3791	3.1553	-0.1631	-0.9833	0.5593	-0.7958	-1.0643	-0.261	0.5747
-4.9251	2.3752	7.9014	-0.2334	0.2218	-0.023	0.4111	-1.09	-1.6832	2.0134	2.2615	9.1677	-0.3472	0.8625	0.0276	0.2281	-0.1981	-0.7985	9.725	2.9845	0.1291	-1.0459	0.651	-0.8239	-1.0607	-0.5622	-0.1451
-5.3991	1.496	8.2543	-0.4505	0.0662	0.1301	0.3758	-1.1073	-1.6858	2.3115	1.9185	9.7575	-0.3455	0.7059	-0.1865	0.2221	-0.2041	-0.8165	9.498	2.9847	0.125	-1.3516	0.6795	-0.6916	-1.0464	-0.602	-0.2349
-5.1669	2.3178	7.8395	-0.4791	0.1879	0.1639	0.3892	-0.9948	-1.6813	2.071	2.0888	9.1681	-0.2235	0.769	-0.1876	0.2342	-0.1861	-0.7745	9.4949	2.9846	-0.0467	-1.1642	0.6179	-0.6362	-1.0458	-0.6194	-0.1467
-4.9196	2.1964	8.1956	-0.3239	0.3122	0.0416	0.3565	-1.1266	-1.721	2.1317	2.032	9.3446	-0.3756	0.7383	-0.0022	0.2161	-0.2101	-0.7865	9.3253	3.2692	0.0076	-1.3127	0.5234	-0.4175	-1.0298	-0.6002	-0.1635
-4.6878	2.5521	7.7282	-0.2964	0.0679	0.0975	0.3913	-1.0709	-1.7004	1.9562	2.2041	9.1664	-0.2531	0.7701	-0.0338	0.2161	-0.1861	-0.7985	9.0464	2.7579	0.2309	-1.379	0.3121	-0.5401	-1.031	-0.6581	-0.1831
-5.1035	2.3156	8.0157	-0.384	0.3109	0.1961	0.3921	-1.0898	-1.701	2.3086	2.3206	9.6421	-0.3751	0.7071	-0.0327	0.2281	-0.2041	-0.8045	9.4413	2.9279	0.1239	-1.3802	0.2517	-0.5713	-1.0305	-0.6201	-0.1997
-5.3389	2.2539	8.3042	-0.2013	0.16	0.1905	0.3929	-1.1087	-1.7016	2.3609	2.0316	9.349	-0.284	0.7698	-0.0336	0.2342	-0.1861	-0.7925	9.3796	2.7572	-0.1635	-1.4152	0.4365	-0.7224	-1.0616	-0.6009	-0.1641
-4.7464	2.1429	7.7907	-0.2635	0.1289	0.1906	0.3939	-1.1081	-1.6848	2.3	2.2035	9.173	-0.4055	0.6755	-0.0631	0.2221	-0.1921	-0.7865	8.9322	3.3267	0.2293	-1.0421	0.3749	-0.6726	-0.9975	-0.5616	-0.1794
-5.1062	1.9676	7.8449	-0.2321	0.2212	0.1	0.413	-1.1083	-1.667	2.1883	2.4345	9.3476	-0.2844	0.801	-0.0031	0.2281	-0.2101	-0.7865	8.9877	2.5873	0.1153	-0.9776	0.2823	-0.5831	-1.0618	-0.6013	-0.1819
-5.0937	2.0755	8.5442	-0.2897	0.3727	0.2578	0.4109	-1.1095	-1.7005	2.3627	2.2622	9.4672	-0.3459	0.7371	-0.156	0.2161	-0.2101	-0.7925	9.2648	2.9848	-0.2226	-0.7556	0.4628	-0.4346	-1.0296	-0.5999	-0.1457
-5.1627	2.3733	8.0723	-0.3525	0.311	0.2572	0.3897	-1.0331	-1.6992	2.2453	2.6069	9.3494	-0.5266	0.6136	0.0609	0.2281	-0.2041	-0.7925	9.2646	3.0985	-0.2225	-0.5348	0.5828	-0.3173	-1.0145	-0.6382	-0.1644
-5.2296	2.6696	7.7172	-0.139	0.1912	0.1904	0.3931	-1.0892	-1.6842	2.2995	2.491	9.1743	-0.3739	0.7721	0.3049	0.2221	-0.2041	-0.8045	9.2168	2.5871	0.2339	-0.411	0.5829	-0.3211	-1.0144	-0.6379	-0.1466
-5.2859	2.0838	7.8987	-0.0711	0.5584	0.1975	0.391	-1.0904	-1.7177	1.8401	2.434	9.1066	-0.4066	0.8013	0.1513	0.2342	-0.2161	-0.7805	9.664	3.0412	-0.1008	-0.3706	0.609	-0.0148	-1.0942	-0.6587	-0.1489
-5.1001	2.1383	8.1931	-0.0152	0.2231	0.1588	0.3761	-1.0878	-1.6685	2.3003	2.0309	9.1722	-0.4073	0.8004	0.0591	0.2161	-0.2101	-0.8045	8.9863	2.9285	0.0583	-0.5549	0.7606	0.0227	-1.0458	-0.6194	-0.1467
-5.0977	1.9617	8.3121	0.0153	0.1621	0.2186	0.3805	-1.1432	-1.6367	2.3018	2.434	9.2912	-0.5299	0.7682	0.06	0.2101	-0.2041	-0.8045	9.4964	3.4397	0.0681	-0.3071	0.7911	0.0155	-1.031	-0.6581	-0.1831
-4.9212	2.6057	8.132	0.0198	0.3755	0.3154	0.4446	-1.0544	-1.6967	2.3007	2.4338	9.2326	-0.4984	0.7376	0.06	0.2221	-0.2041	-0.7865	9.2653	3.3829	-0.1651	-0.4301	0.7602	0.0497	-1.0144	-0.6194	-0.1816
-5.1083	1.9691	7.7281	-0.0122	0.3449	0.2537	0.4088	-1.1106	-1.7341	2.0675	2.2031	8.9928	-0.5619	0.7982	-0.0015	0.2281	-0.1981	-0.7865	9.379	3.2121	-0.1631	-0.3056	0.9733	0.0477	-1.0296	-0.5814	-0.1807
-5.2828	2.14	8.0731	0.0774	0.1626	0.2486	0.3955	-1.1458	-1.686	2.3017	2.4916	9.2914	-0.4346	0.6458	0.0909	0.2221	-0.1981	-0.7985	9.323	3.4397	-0.1067	-0.0058	0.8561	-0.2695	-1.0629	-0.6776	-0.1666
-5.0442	2.1995	7.9598	0.1402	0.2858	0.1582	0.3929	-1.1087	-1.7016	2.6477	2.4915	9.4152	-0.4703	0.8298	-0.0329	0.2161	-0.2101	-0.7865	8.9859	3.2128	0.0585	0.0226	0.9487	-0.3618	-1.0783	-0.6584	-0.1485
-5.1041	1.9661	7.9617	0.0793	0.2541	0.2813	0.3758	-1.1073	-1.6858	2.3605	2.2617	9.3501	-0.4991	0.7367	-0.0322	0.2342	-0.2041	-0.7925	9.4422	3.0417	0.1812	-0.0084	0.9183	-0.3611	-0.9986	-0.6379	-0.1641
-5.2795	2.0794	8.2491	0.0457	0.1319	0.2176	0.4302	-1.0902	-1.6654	2.3613	2.4345	9.4094	-0.5587	0.7387	0.2447	0.2101	-0.2041	-0.7865	8.9811	2.9282	-0.2279	0.0279	1.1291	-0.2069	-1.0458	-0.6194	-0.1467
-4.739	2.1378	8.1995	0.2585	0.0124	0.0893	0.4145	-1.0687	-1.6155	2.077	2.4355	9.5211	-0.5612	0.7991	0.0907	0.2342	-0.1981	-0.7925	9.4417	2.6436	0.1237	0.0844	1.2231	-0.3922	-1.0294	-0.5811	-0.1629
-4.8594	2.1963	8.1966	0.259	-0.0186	0.1809	0.3933	-1.0697	-1.6668	2.3052	2.3773	9.4667	-0.6257	0.9218	0.0596	0.2281	-0.2041	-0.7985	9.4913	3.3826	-0.2181	0.046	1.2266	-0.6369	-1.0293	-0.5622	-0.18
-4.926	2.2008	7.8452	0.1385	0.102	0.2773	0.413	-1.1083	-1.667	2.2444	1.8588	9.2289	-0.5004	0.8303	0.0595	0.2281	-0.2041	-0.7805	9.4915	3.212	-0.2183	0.0144	1.3183	-0.6659	-1.03	-0.6006	-0.1813
-4.8071	1.7936	7.7356	0.1391	0.1017	0.3388	0.43	-1.1096	-1.6827	2.1899	2.1472	9.4048	-0.6255	0.9221	0.0904	0.2161	-0.1921	-0.8105	9.5003	2.8142	0.2393	0.1738	1.2857	-0.5173	-1.0301	-0.6194	-0.1641
-5.1035	2.3156	8.0157	0.0763	0.04	0.3382	0.4284	-1.0719	-1.6815	2.3577	1.9733	9.173	-0.5623	0.8612	0.1211	0.2221	-0.2041	-0.8045	9.1615	3.1559	0.3478	0.1092	1.0431	-0.5788	-1.0627	-0.6215	-0.2359
-5.7101	1.9115	7.7183	0.0448	0.0399	0.2771	0.3619	-1.1041	-1.6198	2.248	2.3199	9.4653	-0.6224	0.7355	-0.0315	0.2161	-0.2161	-0.7805	9.3844	3.0986	0.123	-0.1695	1.0126	-0.5707	-1.0135	-0.5992	-0.1276
-4.7545	2.6733	7.3753	0.0462	0.1624	0.2182	0.3931	-1.0892	-1.6842	2.3704	2.264	9.8773	-0.3787	0.8931	0.0276	0.2161	-0.2161	-0.7865	9.0987	2.9283	0.0032	-0.1666	1.0417	-0.4783	-1.0777	-0.6016	-0.1822
-4.7307	2.307	8.6645	0.012	-0.0519	0.2448	0.3743	-1.0695	-1.6846	2.477	2.4345	9.4702	-0.5002	0.7988	-0.0018	0.2041	-0.1921	-0.7865	9.151	3.1555	-0.2245	-0.1461	1.0161	-0.8172	-1.0458	-0.6194	-0.1467
-5.2256	2.7834	7.9493	0.1704	0.2249	0.1873	0.4292	-1.0908	-1.6821	1.9528	2.2608	8.9909	-0.4689	0.8315	0.1514	0.2342	-0.2041	-0.7925	9.2662	2.6436	-0.1656	-0.6615	0.8889	-0.434	-1.0619	-0.6201	-0.1648
-5.0993	2.3126	8.2493	0.141	0.2547	0.2805	0.4354	-1.1645	-1.6342	1.9039	2.493	9.4595	-0.4399	0.8931	0.0895	0.2161	-0.1921	-0.7925	9.4962	3.6671	0.0683	-0.7276	0.7384	-0.5562	-0.9976	-0.5804	-0.1622
-4.8649	2.3167	7.9032	0.0773	0.1934	0.1877	0.3751	-1.0884	-1.6852	2.5315	2.779	9.3557	-0.4687	0.7364	-0.0938	0.2221	-0.2101	-0.8045	8.8698	2.8147	-0.1156	-1.0685	0.6166	-0.5469	-1.0306	-0.6389	-0.1825
-4.6239	2.1413	7.9096	-0.0134	0.2532	0.2824	0.4132	-1.0888	-1.6496	1.8438	2.2048	9.2813	-0.5291	0.7058	-0.0011	0.2281	-0.2041	-0.7865	9.2141	3.0988	0.1198	-0.9167	0.5571	-0.6441	-1.0452	-0.5626	-0.1804
-4.8591	1.9629	8.1995	0.0446	0.0708	0.2163	0.4119	-1.1089	-1.6838	2.2426	2.2611	9.1721	-0.3432	0.7088	0.1207	0.2101	-0.1981	-0.7865	8.9871	3.0991	0.1157	-0.9521	0.3458	-0.7677	-0.966	-0.5985	-0.1444
-4.9818	2.1396	8.0784	-0.0186	0.04	0.1241	0.431	-1.1091	-1.666	2.1305	2.0893	9.2863	-0.5013	0.861	0.0285	0.2221	-0.2041	-0.7925	9.1512	3.0418	-0.2246	-1.0122	0.6192	-0.733	-1.0618	-0.6197	-0.147
-4.9267	2.7261	7.8386	0.1095	0.2547	0.2194	0.374	-1.089	-1.702	2.135	2.6657	9.5818	-0.4363	0.707	0.0291	0.2161	-0.1861	-0.7925	9.1512	3.0418	-0.2246	-1.1084	0.4684	-0.8235	-1.0305	-0.6386	-0.1647
-5.2239	2.3157	8.0136	0.2002	0.1949	0.1247	0.4281	-1.0914	-1.6989	2.0152	2.492	9.2859	-0.345	0.7383	-0.0331	0.2041	-0.2101	-0.7985	8.8066	2.9283	-0.4599	-1.1303	0.3422	-0.5166	-1.0611	-0.5814	-0.1458
-5.162	1.848	8.0789	-0.0172	0.1624	0.0652	0.4096	-1.1295	-1.7347	1.9098	2.2643	9.7513	-0.5599	0.7373	0.0911	0.2342	-0.1981	-0.7745	9.5522	2.5296	-0.046	-0.755	0.371	-0.4046	-1.0454	-0.5814	-0.1632
-4.7995	2.3713	8.1955	0.0752	0.0712	0.1851	0.3403	-1.0667	-1.6532	2.1887	2.2045	9.3465	-0.531	0.7985	-0.0016	0.2221	-0.2041	-0.7925	8.9857	3.3834	0.0587	-0.9337	0.5201	-0.183	-1.0785	-0.6403	-0.2012
-5.0995	1.7297	8.1982	0.0744	0.0408	0.1537	0.3975	-1.1446	-1.6524	1.7317	2.0329	9.3955	-0.4709	0.8607	-0.0331	0.2342	-0.1921	-0.8045	9.493	2.8708	-0.1613	-0.781	0.4601	-0.2495	-1.0461	-0.6013	-0.1994
-4.9812	2.4307	8.1332	-0.1707	0.1605	0.1594	0.4331	-1.1079	-1.6324	1.7337	2.1485	9.5132	-0.4401	0.8292	-0.1253	0.2161	-0.1921	-0.7985	9.0926	2.8711	-0.3403	-1.0653	0.4322	-0.4256	-1.0138	-0.5626	-0.2153
-5.345	2.0832	7.956	-0.047	0.1309	0.2187	0.4119	-1.1089	-1.6838	2.0698	2.779	9.1712	-0.348	0.9249	0.0887	0.2281	-0.1981	-0.8045	9.3781	3.0984	-0.2204	-0.9498	0.4667	-0.7053	-1.0294	-0.5811	-0.1629
-5.096	2.2521	8.4252	-0.1687	0.2212	0.2529	0.413	-1.1083	-1.667	2.1318	2.6074	9.4058	-0.6224	0.7673	0.0605	0.2281	-0.1921	-0.7805	9.2082	2.8142	-0.2238	-0.6698	0.6185	-0.6818	-1.046	-0.6197	-0.1644
-5.2846	2.7244	8.0074	0.0128	0.1323	0.0335	0.4101	-1.0906	-1.6999	2.4724	2.5485	9.2364	-0.529	0.7376	0.0909	0.2101	-0.1981	-0.8045	9.5519	3.6101	0.012	-0.7599	0.6171	-0.5869	-1.0312	-0.6585	-0.2009
-4.9164	2.1358	8.3715	-0.2053	-0.0844	0.1853	0.3913	-1.0709	-1.7004	2.0636	2.5474	8.8186	-0.4386	0.7995	-0.0022	0.2161	-0.1921	-0.7985	9.3838	2.7005	0.0654	-0.637	0.6176	-0.6213	-1.0616	-0.6009	-0.1641
-5.0986	2.6037	8.304	-0.1079	0.2222	0.1599	0.3921	-1.0898	-1.701	2.6503	2.262	9.5313	-0.5306	0.7673	-0.0322	0.2161	-0.2101	-0.8105	9.1563	3.0989	0.0616	-0.658	0.7958	-0.312	-1.0301	-0.6379	-0.1292
-4.6788	2.1377	8.2005	-0.201	0.2522	0.0695	0.4284	-1.0719	-1.6815	1.8469	2.3206	9.4576	-0.5605	0.7682	0.0909	0.2161	-0.2041	-0.7925	9.6605	3.3823	-0.2722	-0.7246	0.798	-0.4636	-1.0619	-0.6201	-0.1648
-5.2894	2.3195	7.7205	-0.4785	0.28	0.0736	0.4125	-1.1472	-1.7017	2.0179	2.205	9.4018	-0.5004	0.7985	-0.0325	0.2221	-0.2101	-0.8105	9.6081	3.2688	-0.0444	-0.785	0.6754	-0.4013	-1.063	-0.6407	-0.2365
-5.3504	2.2036	7.6626	-0.6646	0.1554	0.1962	0.3939	-1.1081	-1.6848	2.2479	3.0103	9.527	-0.3132	0.7398	0.0896	0.2342	-0.2041	-0.8045	9.6558	2.984	-0.5587	-0.7218	0.7967	-0.3715	-0.9811	-0.5417	-0.1607
-5.1596	1.6715	8.1979	-0.6323	0.2781	0.137	0.3967	-1.1258	-1.6518	1.8999	2.2619	9.2241	-0.4071	0.7689	-0.0022	0.2101	-0.2041	-0.7805	9.4957	3.1553	0.0106	-0.5695	0.5846	-0.4392	-1.0462	-0.6201	-0.1822
-5.1084	2.0274	7.7274	-0.7589	0.1551	0.0436	0.3955	-1.1458	-1.686	2.1323	2.3198	9.4045	-0.4661	0.6446	-0.0011	0.2161	-0.2041	-0.7865	9.2045	3.269	-0.3951	-0.5658	0.5828	-0.3164	-1.0158	-0.6776	-0.2189
-5.3424	2.4895	8.1261	-0.5123	0.127	0.0399	0.413	-1.1083	-1.667	2.0745	1.9746	9.3433	-0.3465	0.8316	0.0278	0.1981	-0.1921	-0.7865	9.6577	3.1547	-0.4441	-0.6919	0.4619	-0.3751	-1.0467	-0.6581	-0.1657
-4.9837	1.966	7.9638	-0.4181	0.1581	0.1317	0.3933	-1.0697	-1.6668	1.9602	2.4351	9.4017	-0.4363	0.707	0.0291	0.2101	-0.2161	-0.7925	9.0436	3.3265	0.1169	-0.4165	0.3112	-0.4767	-1.0614	-0.6006	-0.1464
-4.6219	2.2566	8.0249	-0.4518	0.0667	0.0071	0.4127	-1.1277	-1.6844	2.079	2.551	9.6388	-0.6259	0.9533	0.1209	0.2221	-0.1981	-0.7925	9.1576	2.8714	0.1186	-0.1047	0.4322	-0.4236	-1.0152	-0.6766	-0.1656
-5.0386	2.7204	8.3036	-0.4497	0.1581	0.0706	0.4318	-1.1279	-1.6665	2.4167	2.2613	9.2926	-0.6843	0.7663	0.0302	0.2281	-0.1981	-0.7985	9.3792	3.0415	-0.1632	-0.1396	0.373	-0.5459	-1.0609	-0.5626	-0.1629
-5.4087	2.3189	7.7768	-0.172	0.161	0.0364	0.357	-1.0876	-1.6863	1.9611	2.5504	9.4608	-0.6257	0.9218	0.0596	0.2101	-0.1981	-0.7925	9.4998	3.2123	0.2396	-0.2912	0.4934	-0.4483	-1.0467	-0.6396	-0.2006
-4.9201	1.7886	8.1423	-0.0788	0.254	-0.055	0.4109	-1.1095	-1.7005	2.7034	2.0883	9.2973	-0.3462	0.8637	0.1505	0.2221	-0.1861	-0.7925	9.2646	3.0985	-0.2225	0.1747	0.6757	-0.43	-1.0458	-0.6194	-0.1467
-4.9852	2.2585	7.9018	-0.1113	-0.0225	0.2162	0.4091	-1.0912	-1.7167	2.0705	2.3764	9.1694	-0.315	0.801	0.0278	0.2221	-0.1981	-0.7865	9.4362	2.8709	-0.1623	0.2371	0.5232	-0.4024	-1.0308	-0.6393	-0.2003
-5.0997	2.6628	8.2449	0.0148	0.193	0.127	0.3936	-1.0502	-1.6495	2.0747	2.4925	9.4042	-0.3141	0.834	0.2427	0.2221	-0.2041	-0.7985	9.2676	3.2124	-0.0507	0.2623	0.8001	-0.616	-1.0459	-0.6009	-0.1816
-5.0405	2.6051	8.1883	-0.1097	0.1922	0.0363	0.374	-1.089	-1.702	2.6469	2.3187	9.3558	-0.3159	0.8634	0.0889	0.2101	-0.1921	-0.7865	9.2089	3.0986	-0.1663	0.1653	0.6801	-0.737	-1.0778	-0.6204	-0.1651
-5.2216	2.1975	8.1319	-0.0499	-0.0217	0.1847	0.3758	-1.1073	-1.6858	2.1902	2.6076	9.4655	-0.4389	0.8943	0.2124	0.2281	-0.2101	-0.7805	8.9817	3.2695	-0.1704	0.4038	0.7455	-1.0509	-1.0142	-0.6191	-0.1638
-5.158	2.0202	8.3103	0.1072	0.1941	0.0951	0.3947	-1.1269	-1.6854	2.3601	1.8588	9.2897	-0.3777	0.8943	0.1505	0.2041	-0.1921	-0.7985	9.1519	3.3262	-0.1672	0.4352	0.8976	-1.0506	-1.0296	-0.5999	-0.1457
-5.1041	1.9661	7.9617	-0.0178	0.0704	0.1555	0.3769	-1.1067	-1.6691	2.2379	2.4326	8.9386	-0.4733	1.0482	0.1809	0.2161	-0.1981	-0.7925	9.2088	3.1555	-0.1663	0.4755	0.8933	-0.7446	-1.0303	-0.6198	-0.1819
-4.6816	2.6645	8.0771	0.1977	-0.0502	0.2732	0.391	-1.0904	-1.7177	2.3615	2.3194	9.4089	-0.5336	0.9858	0.1816	0.2221	-0.1861	-0.7925	9.4929	2.9277	-0.1612	0.6887	1.2607	-0.9016	-1.0455	-0.6002	-0.146
-4.562	2.4316	8.0238	0.0436	0.0097	0.2149	0.4292	-1.0908	-1.6821	2.3006	2.4913	9.2329	-0.533	0.8913	-0.0022	0.2161	-0.1981	-0.7985	9.3876	2.985	0.2946	0.5784	1.0715	-0.4389	-1.0289	-0.5615	-0.1445
-5.1069	2.4929	7.8383	0.167	-0.0198	0.2435	0.4663	-1.0918	-1.6633	2.1248	2.203	8.9939	-0.4119	1.0168	0.0578	0.2161	-0.1981	-0.8105	9.4893	3.3256	-0.3326	0.3602	1.2245	-0.4926	-1.0457	-0.6006	-0.1638
-5.1039	1.8494	7.9632	0.1665	0.0112	0.1519	0.4088	-1.0333	-1.6814	2.0177	2.32	9.4023	-0.5319	0.8291	-0.0325	0.2041	-0.2041	-0.8045	9.3741	2.9844	-0.4494	0.2437	1.1601	-0.2438	-1.0611	-0.5814	-0.1458
-5.1634	2.0822	8.0176	0.26	-0.019	0.2731	0.3934	-1.147	-1.7195	2.0195	2.5506	9.5205	-0.5636	0.9548	0.2127	0.2161	-0.1981	-0.7925	9.4859	2.6999	-0.562	0.1245	1.1274	-0.0869	-1.0455	-0.5818	-0.181
-5.0445	2.4329	7.9569	0.2907	0.0122	0.2119	0.3753	-1.0689	-1.6679	2.2427	2.2036	9.1719	-0.688	0.9521	0.0598	0.2101	-0.2041	-0.8105	9.1551	3.2126	0.0044	-0.5329	1.1915	-0.3125	-1.0296	-0.5814	-0.1807
-4.9828	2.082	8.0208	0.3203	0.013	0.0885	0.3727	-1.0317	-1.6835	2.5354	2.4347	9.5299	-0.5942	0.923	0.1516	0.2101	-0.1981	-0.8105	9.1525	2.8143	-0.1676	-0.4668	1.0372	-0.1621	-1.0464	-0.6389	-0.165
-5.0451	2.0835	7.9029	0.4115	-0.0777	0.0854	0.4266	-1.0536	-1.6977	2.2501	2.3779	9.5827	-0.5317	0.8612	0.0902	0.2101	-0.1981	-0.7925	9.4925	3.2689	-0.161	-0.4007	0.8828	-0.0117	-1.0462	-0.6201	-0.1822
-5.2825	1.9649	8.0753	0.4139	-0.048	0.2706	0.3751	-1.0884	-1.6852	2.3012	2.7791	9.2927	-0.5328	0.9552	0.2125	0.2221	-0.2101	-0.7925	9.1483	2.8142	-0.3965	-0.5228	0.8211	0.0529	-1.0452	-0.5626	-0.1804
-5.1018	1.8479	8.08	0.3215	0.0433	0.1507	0.4315	-1.1474	-1.6839	2.4797	2.1475	9.5861	-0.5658	1.0473	0.1815	0.2221	-0.1981	-0.7925	9.4885	3.0981	-0.39	-0.3713	0.975	-0.0733	-1.014	-0.6187	-0.146
-4.9852	2.2585	7.9018	0.1947	-0.1104	0.0874	0.4111	-1.09	-1.6832	2.5403	2.1482	9.7629	-0.4711	0.9558	0.2122	0.2221	-0.1921	-0.8105	9.2655	3.2692	-0.1651	-0.9606	0.9144	-0.0869	-1.0289	-0.5615	-0.1445
-5.1612	2.7804	8.184	0.4138	0.0444	0.1188	0.3555	-1.0498	-1.6851	2.7045	2.0886	9.3559	-0.5645	0.9537	0.0898	0.2221	-0.2101	-0.7865	9.3722	2.8706	-0.564	-1.3666	0.6721	-0.1688	-1.0452	-0.581	-0.1454
-4.7415	2.4311	8.079	0.1972	-0.0807	0.2726	0.4145	-1.146	-1.6682	2.0726	2.4344	9.2868	-0.3784	0.957	0.2424	0.2281	-0.2041	-0.7985	9.2687	3.1555	0.0065	-0.8994	0.7014	-0.0904	-1.0625	-0.6396	-0.1831
-4.9851	2.2002	7.9025	0.1986	0.0418	0.2137	0.413	-1.1083	-1.667	2.5281	2.2028	9.1188	-0.5916	0.7994	0.1524	0.2221	-0.1861	-0.8045	9.3214	3.0416	-0.2215	-0.3892	0.9384	0.3572	-1.0465	-0.6393	-0.1828
-5.2258	2.2005	7.8983	0.1683	0.1335	0.1238	0.3941	-1.0886	-1.6674	2.3017	2.4916	9.2914	-0.4075	0.8319	0.1204	0.2221	-0.2101	-0.7985	9.3152	3.0413	-0.5649	-0.329	1.0002	0.2944	-1.0618	-0.6013	-0.1819
-5.2255	1.967	7.9012	0.0093	-0.02	-0.0621	0.3959	-1.1069	-1.6513	2.0137	2.7218	9.2284	-0.3496	0.9865	0.0576	0.2101	-0.1981	-0.7925	9.4406	2.7004	0.0665	-0.4498	1.0597	0.3907	-1.0457	-0.619	-0.1289
-4.9186	2.1957	8.254	0.0732	0.0105	0.0916	0.4117	-1.1283	-1.7011	2.2485	2.6652	9.5254	-0.535	0.9522	-0.0947	0.2101	-0.1981	-0.8045	9.1513	2.928	-0.2247	-0.5077	1.1492	0.516	-1.045	-0.5807	-0.1277
-5.0484	2.2024	7.7262	0.0449	0.1629	0.0952	0.3761	-1.0878	-1.6685	2.3014	2.6641	9.2922	-0.3791	0.8925	-0.0338	0.2221	-0.2041	-0.7925	9.3801	3.2122	-0.1059	-0.9444	0.9982	0.4357	-1.0133	-0.5988	-0.1098
-4.5621	2.5483	8.0223	-0.1388	0.1604	0.2513	0.3722	-1.0707	-1.7182	2.3613	2.4345	9.4094	-0.348	0.8932	-0.0033	0.2221	-0.2101	-0.8105	9.096	2.6438	-0.1688	-0.7006	0.9696	0.3053	-1.0301	-0.6194	-0.1641
-4.9294	2.3781	7.6678	-0.1133	-0.0216	0.0317	0.4122	-1.0894	-1.6664	1.8418	2.0892	9.1637	-0.3787	0.8613	-0.0644	0.2281	-0.1981	-0.7865	8.9276	2.7578	-0.0573	-0.7253	0.8753	0.5203	-1.0296	-0.5999	-0.1457
-5.3963	2.5436	8.4747	-0.084	-0.1745	0.1203	0.4086	-1.1301	-1.7514	2.1397	2.4942	9.8154	-0.2848	0.8322	0.0274	0.2221	-0.1981	-0.7985	9.4386	3.4397	0.0098	-0.9163	0.6948	0.371	-1.0459	-0.6009	-0.1816
-4.5609	2.4308	8.0822	-0.2979	0.0377	0.0046	0.3576	-1.126	-1.7042	2.7058	2.6642	9.4757	-0.5341	0.9534	0.0282	0.2161	-0.2041	-0.8045	9.4436	2.8143	0.2383	-0.8777	0.7217	0.6159	-1.0306	-0.6389	-0.1825
-5.1678	2.2602	7.7818	-0.2662	0.0069	0.1265	0.43	-1.1096	-1.6827	2.1943	2.1482	9.6392	-0.4723	0.8907	-0.1254	0.2161	-0.1921	-0.7985	9.4344	2.6433	-0.277	-0.7541	0.6305	0.6114	-0.9983	-0.6187	-0.1635
-4.2584	2.0212	8.151	-0.2357	0.0074	0.0954	0.4294	-1.0713	-1.6648	2.4752	2.204	9.352	-0.348	0.9249	0.0887	0.2161	-0.2041	-0.7925	9.3838	2.7005	0.0654	-0.7525	0.5687	0.6723	-1.0301	-0.6194	-0.1641
-5.1626	2.3149	8.0731	-0.1745	0.0083	0.0331	0.4318	-1.1279	-1.6665	2.5309	2.4912	9.2958	-0.3172	0.9253	0.0885	0.2221	-0.1981	-0.7985	9.6567	3.0978	-0.5014	-1.041	0.6952	0.344	-1.03	-0.6006	-0.1813
-4.919	2.4875	8.2503	-0.0789	0.0695	0.2178	0.4281	-1.0914	-1.6989	2.246	2.2044	9.3476	-0.4113	0.9541	-0.034	0.2041	-0.2101	-0.8045	9.328	2.7575	0.1217	-1.0744	0.8182	0.2538	-1.0294	-0.5811	-0.1629
-5.3405	1.9052	8.1918	-0.1094	0.1306	0.158	0.3934	-1.147	-1.7195	2.3052	2.3773	9.4667	-0.4412	0.9549	0.0891	0.2281	-0.2041	-0.7865	8.982	2.9852	-0.1706	-1.2528	0.7842	0.5047	-1.0298	-0.6187	-0.1286
-4.9809	2.2556	8.1354	-0.1097	0.1307	0.1272	0.4328	-1.1273	-1.6498	2.1264	1.9157	9.0512	-0.4394	0.8301	-0.0331	0.2402	-0.2041	-0.8045	9.0948	2.7575	-0.2259	-1.3471	0.9068	0.447	-0.9983	-0.6187	-0.1635
-4.563	2.4323	7.9654	-0.1448	-0.0217	-0.0294	0.4145	-1.146	-1.6682	2.2523	2.3784	9.6999	-0.2569	0.9241	-0.0962	0.2161	-0.2221	-0.8105	9.0993	3.3264	0.0607	-1.0937	0.9347	0.624	-1.0145	-0.6382	-0.1644
-4.8616	2.2562	8.0791	-0.0483	0.1315	0.0957	0.4093	-1.0717	-1.6994	2.4194	2.6072	9.4699	-0.3188	0.9232	-0.1265	0.2101	-0.1981	-0.7925	9.378	3.2121	-0.2203	-1.1594	0.9364	0.5031	-1.0142	-0.6006	-0.1987
-4.6791	2.3712	8.1976	0.0414	0.0721	-0.0912	0.4124	-1.0699	-1.649	2.1943	2.7811	9.7006	-0.5009	0.798	-0.094	0.2221	-0.1921	-0.8045	9.0944	3.0987	-0.2256	-1.3758	0.7228	0.5386	-1.0474	-0.6595	-0.2368
-5.1032	2.0821	8.0187	-0.0782	0.1922	0.0974	0.4099	-1.11	-1.7173	2.5338	2.0891	9.4112	-0.317	0.8938	0.0273	0.2281	-0.2101	-0.7985	9.038	2.8144	-0.2269	-1.1641	0.9386	0.3496	-1.0621	-0.6389	-0.1476
-4.9893	2.2031	7.6689	-0.1467	-0.1747	0.0288	0.374	-1.089	-1.702	2.1314	2.2045	9.3454	-0.4119	0.9532	-0.1262	0.2281	-0.1921	-0.7985	9.5526	3.0415	0.0116	-1.1588	0.8142	0.5328	-1.0291	-0.5619	-0.1623
-5.2208	2.3719	8.1881	-0.0179	0.1012	0.0947	0.4083	-1.0723	-1.7161	2.3068	2.7229	9.5854	-0.559	0.7066	0.122	0.2342	-0.1981	-0.8045	9.2648	2.9848	-0.2226	-1.0921	0.8729	0.6849	-1.0461	-0.6013	-0.1994
-5.0414	2.4891	8.1314	0.1083	0.2244	0.1573	0.3763	-1.0683	-1.6511	2.2451	2.0891	9.2885	-0.4069	0.7056	-0.1555	0.2161	-0.1921	-0.7925	9.4898	2.9275	-0.3329	-0.8178	0.9665	0.5238	-1.0779	-0.5835	-0.2349
-5.1605	2.3135	8.1899	-0.1103	0.0386	0.2175	0.3931	-1.0892	-1.6842	2.1324	2.2623	9.4043	-0.315	0.7692	-0.0642	0.2101	-0.2101	-0.7925	8.9251	3.099	-0.1715	-0.5978	1.1479	0.6109	-1.0458	-0.6379	-0.1117
-5.28	2.4296	8.2447	-0.1119	0.1008	-0.0272	0.4145	-1.146	-1.6682	2.0784	2.2632	9.5789	-0.5623	0.8294	0.0291	0.2101	-0.2101	-0.7985	8.9818	3.1558	-0.1704	-0.6306	1.1488	0.5504	-1.0783	-0.6584	-0.1485
-4.9927	2.322	7.4922	-0.0797	0.1006	0.0954	0.4287	-1.1297	-1.7169	2.5249	2.087	8.9425	-0.5328	0.8916	0.0285	0.2342	-0.1921	-0.7865	9.1051	2.8717	0.3465	-0.7531	1.27	0.5858	-1.078	-0.6208	-0.1829
-5.1055	2.2003	7.9004	-0.0517	-0.1132	0.152	0.3949	-1.1075	-1.668	2.3618	2.1469	9.4081	-0.5025	0.8595	-0.1251	0.2161	-0.1981	-0.7925	9.0386	3.1557	-0.1694	-0.9173	1.2743	0.2835	-1.0464	-0.6204	-0.2
-4.7991	2.8375	8.248	-0.0164	0.1314	0.1876	0.4137	-1.1271	-1.6676	2.3059	2.6076	9.5263	-0.6248	0.8912	0.0905	0.2221	-0.2101	-0.7985	9.4361	2.9277	-0.1623	-0.923	1.2465	0.099	-1.0293	-0.5807	-0.1451
-4.7509	2.321	7.5549	0.0726	0.0108	0.0301	0.4114	-1.0705	-1.6658	2.0775	2.7808	9.5812	-0.7189	0.92	-0.032	0.2281	-0.1981	-0.7925	8.9807	3.2126	-0.2276	-0.8613	1.1857	0.0967	-1.0453	-0.5999	-0.1283
-5.0992	2.2543	8.25	-0.2057	-0.0842	0.1545	0.3789	-1.1055	-1.6355	2.0147	2.1467	9.2258	-0.4718	0.9549	0.12	0.2281	-0.1981	-0.7865	8.8687	2.8716	-0.1727	-0.7959	1.0927	0.2169	-1.0461	-0.5828	-0.2343
-4.4357	1.9608	8.3238	-0.0187	0.1323	-0.0277	0.3921	-1.0898	-1.701	2.0166	2.3198	9.3437	-0.4388	0.7674	-0.1249	0.2221	-0.2041	-0.8105	9.3308	3.0988	0.2936	-0.6104	1.0014	0.2106	-1.0139	-0.5814	-0.1981
-5.1617	2.4309	8.13	-0.1756	-0.0528	0.0318	0.4297	-1.1291	-1.7001	2.1892	2.5498	9.4067	-0.5341	0.9534	0.0282	0.2161	-0.2041	-0.8045	9.3846	2.928	0.1228	-0.4914	0.9732	0.0532	-1.077	-0.5817	-0.1461
-4.4489	2.3198	7.6186	-0.2372	-0.0843	0.0934	0.4124	-1.0699	-1.649	2.4115	2.0875	8.9989	-0.4744	1.0786	0.1193	0.2161	-0.2041	-0.7985	9.3791	3.1553	-0.1631	-0.2425	1.0642	0.0772	-1.0296	-0.5999	-0.1457
-4.5509	2.8321	8.661	-0.2706	-0.1758	-0.0004	0.3761	-1.0878	-1.6685	1.8467	2.4356	9.4581	-0.5929	0.8294	0.06	0.2161	-0.1981	-0.7985	9.3768	3.3258	-0.2775	-0.406	0.9768	-0.1951	-1.0291	-0.5619	-0.1623
-4.9819	2.198	8.0777	-0.2365	-0.023	0.064	0.4289	-1.1102	-1.6995	2.3648	2.3202	9.5847	-0.5328	0.8916	0.0285	0.2281	-0.2041	-0.7985	9.3212	3.2122	-0.2214	-0.4406	1.0089	-0.3168	-1.0457	-0.6006	-0.1638
-5.1011	2.139	8.1347	-0.0501	-0.0524	0.2148	0.3779	-1.1061	-1.6523	2.0228	2.5514	9.6962	-0.472	0.9228	-0.0027	0.2101	-0.2101	-0.7925	9.0448	2.3597	0.1161	-0.4067	1.0685	-0.2251	-1.0303	-0.6382	-0.1469
-5.2831	2.3734	8.0702	-0.1747	-0.0224	0.0632	0.3542	-1.0699	-1.7192	2.0706	2.3189	9.1691	-0.468	0.7691	0.0904	0.2161	-0.1921	-0.8045	9.2602	3.3258	-0.4513	-0.0932	1.0973	-0.1113	-1.0616	-0.6009	-0.1641
-5.0992	2.2543	8.25	-0.3	-0.0845	0.0019	0.3557	-1.1077	-1.7204	2.0171	2.0322	9.3424	-0.5974	0.9825	-0.0945	0.2221	-0.1981	-0.7985	9.2709	3.0419	0.1208	-0.2468	0.8833	-0.047	-1.063	-0.6591	-0.2015
-5.2163	2.1939	8.4239	-0.1109	0.1004	0.0651	0.4142	-1.0882	-1.6329	2.3635	2.435	9.5266	-0.5339	0.9855	0.1509	0.2221	-0.2101	-0.8045	9.4964	2.5866	0.0102	0.1004	0.9108	0.1579	-1.0448	-0.5803	-0.1099
-4.922	2.373	8.0766	-0.2653	0.0989	0.067	0.4318	-1.1279	-1.6665	2.3021	2.2615	9.2904	-0.6561	0.9221	0.1213	0.2161	-0.1921	-0.7865	9.3763	2.9277	-0.335	0.1959	0.8487	0.2468	-1.0299	-0.6191	-0.1463
-5.1033	2.1405	8.0179	-0.2309	0.313	0.0712	0.4158	-1.1259	-1.634	2.4194	2.6072	9.4699	-0.6585	1.0143	0.0593	0.2101	-0.1861	-0.7865	9.4427	2.7005	0.1809	-0.0883	0.8816	0.0711	-1.0452	-0.581	-0.1454
-4.93	2.087	7.613	-0.235	0.0686	0.0659	0.4302	-1.1675	-1.718	2.4176	2.3766	9.3517	-0.781	0.9506	-0.0011	0.2281	-0.2101	-0.7925	9.6635	2.6431	-0.1583	-0.0886	1.0647	0.0419	-1.0306	-0.6574	-0.1476
-4.5584	2.1376	8.2026	-0.1125	-0.0527	0.154	0.4302	-1.0902	-1.6654	2.3523	2.5474	8.9413	-0.7176	0.89	0.0604	0.2221	-0.1921	-0.8045	9.6076	2.8138	-0.102	-0.2394	1.1542	0.17	-1.0306	-0.6574	-0.1476
-4.8026	1.5572	7.9721	-0.1059	0.2214	0.3444	0.4297	-1.1291	-1.7001	2.0736	2.4922	9.3456	-0.6887	1.0148	0.1516	0.1921	-0.2101	-0.7925	9.72	2.8705	-0.1571	-0.1491	1.2468	0.0759	-1.0459	-0.6009	-0.1816
-4.8593	2.0796	8.1981	0.0445	0.1016	0.1554	0.3978	-1.1252	-1.6351	1.9008	2.3772	9.2832	-0.6563	0.9854	0.2745	0.2221	-0.2101	-0.7985	9.3794	2.9278	-0.1633	-0.0838	1.1234	0.1959	-1.0293	-0.5807	-0.1451
-4.9207	2.1971	8.1372	0.0138	0.1319	0.1257	0.374	-1.089	-1.702	2.4186	2.4344	9.4105	-0.7497	0.9833	0.1522	0.2221	-0.2101	-0.7985	8.6396	2.8717	-0.2914	0.013	1.1521	0.3161	-0.9987	-0.6194	-0.199
-4.9207	2.2555	8.1364	-0.1453	0.0093	-0.121	0.3973	-1.1641	-1.6698	1.9574	2.8372	9.2864	-0.4077	0.7998	-0.0024	0.2221	-0.2101	-0.8105	9.433	2.9276	-0.334	0.3327	1.0865	0.644	-1.0457	-0.6006	-0.1638
-5.1597	2.4878	8.2461	-0.0816	0.0091	0.0627	0.449	-1.1098	-1.6649	2.5957	2.6079	9.7075	-0.4694	0.7992	-0.002	0.2342	-0.1981	-0.8105	9.6074	2.9844	-0.1019	0.3619	1.1483	0.5822	-1.0293	-0.5807	-0.1451
-5.3954	2.6596	8.5316	0.012	0.1634	-0.0889	0.4292	-1.0908	-1.6821	2.0255	2.2643	9.8121	-0.4707	0.861	-0.0024	0.2221	-0.1981	-0.7925	8.8736	3.0993	0.1136	0.1755	1.2399	0.5578	-1.0454	-0.5814	-0.1632
-4.861	2.6056	8.1331	-0.0162	0.162	0.1575	0.3929	-1.1087	-1.7016	2.302	2.319	9.2907	-0.5006	0.83	0.0287	0.2161	-0.1981	-0.8045	8.9853	2.8715	0.001	0.4556	1.3918	0.5813	-1.0298	-0.6187	-0.1286
-5.2827	2.0816	8.0739	-0.1416	0.1308	0.0354	0.4315	-1.1474	-1.6839	2.1332	2.4351	9.4636	-0.6865	0.8588	-0.0011	0.2161	-0.1801	-0.7805	8.982	3.042	-0.1705	0.4925	1.2061	0.7938	-1.0459	-0.6009	-0.1816
-4.8637	2.1993	7.963	0.0147	0.2239	0.0662	0.4286	-1.0524	-1.6642	2.5842	2.2025	9.0613	-0.5323	0.8921	0.09	0.2281	-0.2161	-0.7985	9.1616	3.0422	0.3477	0.3325	1.3304	0.6153	-1.0308	-0.6393	-0.2003
-5.043	2.082	8.0197	-0.2686	-0.1766	0.1841	0.4104	-1.0711	-1.6826	2.0183	2.6078	9.4622	-0.5022	0.9234	0.0896	0.2221	-0.2161	-0.7985	9.376	3.0983	-0.3349	0.6487	1.0531	0.8494	-1.0135	-0.5807	-0.1626
-5.0996	2.5461	8.2464	-0.1422	0.0387	0.1256	0.3351	-1.0697	-1.737	2.0704	2.4339	9.1696	-0.4079	0.8631	0.1509	0.2281	-0.2041	-0.7985	9.0473	2.8148	0.2882	0.6692	1.3019	0.482	-1.0455	-0.5818	-0.181
-4.7392	2.3129	8.1973	-0.0469	0.1001	0.2795	0.413	-1.1083	-1.667	2.2981	2.6633	9.1165	-0.6537	0.7981	0.0913	0.2281	-0.2041	-0.8045	9.4879	2.7568	-0.4475	0.5802	1.3609	0.6081	-1.03	-0.6006	-0.1813
-5.2821	2.4311	8.1279	-0.1722	0.0688	0.1574	0.4454	-1.0733	-1.6973	2.3027	2.5493	9.3503	-0.5035	0.9216	-0.0947	0.2161	-0.2101	-0.7925	8.9849	3.2128	0.0013	1.0808	1.2368	0.7765	-1.0469	-0.6584	-0.1834
-5.1551	2.2514	8.4826	-0.1751	-0.0223	0.0325	0.4124	-1.0699	-1.649	2.2512	2.3782	9.6413	-0.4995	0.8315	0.1824	0.2342	-0.2041	-0.7865	9.2141	3.1557	0.1199	0.9518	1.0867	0.6255	-1.0626	-0.64	-0.2009
-5.2275	2.6681	7.834	-0.2355	-0.0234	0.1562	0.3761	-1.0878	-1.6685	2.0759	2.4352	9.4625	-0.7768	0.7972	0.1227	0.2342	-0.1921	-0.7985	9.6627	3.3255	-0.1578	0.668	1.211	0.4506	-1.0147	-0.6386	-0.1822
-4.8019	1.7899	8.0276	-0.1731	0.0384	0.126	0.3588	-1.1059	-1.6701	2.0783	2.3207	9.5792	-0.6561	0.9221	0.1213	0.2342	-0.2101	-0.7985	9.4907	3.0413	-0.2756	0.4824	1.2718	0.4567	-1.0614	-0.619	-0.1114
-4.923	1.5573	7.97	-0.2005	0.1289	0.3129	0.3722	-1.0707	-1.7182	2.0772	2.3204	9.5206	-0.626	0.9215	0.0289	0.2342	-0.2101	-0.7865	9.5483	3.155	-0.2173	0.1697	1.1817	0.3731	-1.0449	-0.5434	-0.1798
-4.9221	1.7317	8.0262	0.0166	0.223	0.2507	0.4446	-1.0544	-1.6967	2.4759	2.4343	9.4116	-0.6237	0.8291	0.0602	0.2161	-0.1981	-0.8045	9.3228	2.8141	-0.1645	0.3587	1.3022	0.4606	-1.0611	-0.5629	-0.1807
-5.0411	2.2557	8.1343	-0.0151	0.1923	0.2196	0.4111	-1.09	-1.6832	2.4739	2.3187	9.294	-0.7167	0.8276	-0.0007	0.2161	-0.1981	-0.7985	9.3753	2.8139	-0.3923	0.1413	1.3938	0.4371	-1.0305	-0.6201	-0.1997
-4.9808	2.1389	8.1368	-0.0464	0.223	0.1284	0.4292	-1.0908	-1.6821	2.3575	2.0884	9.1736	-0.5605	0.8	0.1829	0.2161	-0.2041	-0.7985	9.2699	3.0419	0.0636	0.3871	1.3948	0.3683	-1.0147	-0.6571	-0.1472
-5.0968	2.0777	8.369	0.1365	0.1028	0.0928	0.4122	-1.0894	-1.6664	2.1292	2.204	9.2283	-0.5645	0.9537	0.0898	0.2221	-0.2161	-0.7925	9.1493	2.8711	-0.3392	0.1103	1.3938	0.438	-1.0137	-0.5811	-0.1803
-5.0396	1.9048	8.1971	0.0471	0.2543	0.1587	0.4122	-1.0894	-1.6664	2.19	2.7226	9.466	-0.6892	0.9824	-0.0018	0.2161	-0.1921	-0.7925	8.9845	2.7009	-0.0563	0.2972	1.4543	0.4637	-1.014	-0.6187	-0.146
-5.0996	2.5461	8.2464	0.01	-0.1126	0.1512	0.4493	-1.0904	-1.6476	2.4117	2.6054	9.0598	-0.6253	0.8906	0.0291	0.2161	-0.1981	-0.7985	9.839	2.5862	0.1309	0.5154	1.3318	0.5176	-1.0144	-0.6379	-0.1466
-4.864	2.4327	7.9601	-0.016	0.3157	-0.0545	0.356	-1.0882	-1.703	2.1919	2.2627	9.5225	-0.7197	1.046	0.2131	0.2281	-0.2161	-0.7865	9.3253	3.2692	0.0076	0.2389	1.3917	0.5878	-1.046	-0.6197	-0.1644
-4.9205	2.0804	8.1386	0.014	0.1626	0.0956	0.3748	-1.1079	-1.7026	2.2445	2.4341	9.2901	-0.6854	0.8603	0.1525	0.2161	-0.1981	-0.7865	9.2723	2.8145	0.1779	0.1974	1.3356	0.2506	-1.0612	-0.6002	-0.1286
-5.1571	2.1362	8.3673	0.0768	0.0705	0.3389	0.4297	-1.1291	-1.7001	2.2387	2.6054	8.9979	-0.4378	0.8321	0.182	0.2221	-0.2101	-0.7985	9.2087	3.2692	-0.1662	0.2016	1.486	0.3746	-1.0145	-0.6567	-0.1295
-5.1026	2.4316	8.0727	0.2632	0.195	0.247	0.4286	-1.0524	-1.6642	2.3028	2.4918	9.35	-0.6887	0.983	0.0596	0.2281	-0.1861	-0.7865	9.5545	3.2122	0.1262	0.2949	1.303	0.4011	-1.0298	-0.6187	-0.1286
-5.0421	2.198	8.0766	0.0432	0.0406	0.1234	0.4281	-1.0914	-1.6989	2.3064	2.3201	9.525	-0.5973	1.0143	-0.0025	0.2281	-0.2161	-0.7805	9.6022	2.9273	-0.3881	0.2554	1.2765	0.1255	-1.0296	-0.5814	-0.1807
-5.221	2.547	8.1859	-0.0794	0.1005	0.1262	0.3763	-1.0683	-1.6511	2.412	2.4328	9.0591	-0.5634	0.8915	0.0595	0.2221	-0.2041	-0.7925	9.4363	2.814	-0.1624	0.5307	1.4306	-0.0044	-1.0303	-0.6198	-0.1819
-4.9765	2.0776	8.3712	-0.0785	0.1309	0.1576	0.4109	-1.1095	-1.7005	2.5286	2.5482	9.1789	-0.5929	0.893	0.244	0.2161	-0.2161	-0.7985	9.5003	2.8711	0.2393	0.4069	1.4305	-0.0007	-1.0459	-0.6009	-0.1816
-5.3411	2.3137	8.1867	0.0156	0.1005	0.3403	0.3779	-1.1061	-1.6523	2.1886	2.262	9.3468	-0.7461	0.829	0.1838	0.2161	-0.1921	-0.7985	9.1511	3.0986	-0.2246	0.4915	1.4954	-0.2793	-1.0138	-0.6184	-0.1282
-4.682	2.1983	8.0246	0.0427	0.0101	0.1227	0.3913	-1.0709	-1.7004	2.2457	2.3769	9.3484	-0.7796	0.9205	0.0913	0.2161	-0.2041	-0.7985	9.4926	3.1551	-0.1611	0.5302	1.5832	-0.0339	-1.0147	-0.6386	-0.1822
-4.9198	2.3131	8.1941	-0.016	0.1004	0.2792	0.414	-1.1077	-1.6502	1.9602	2.4351	9.4017	-0.6914	1.0749	-0.0331	0.2101	-0.2101	-0.7865	9.1522	3.0418	-0.1674	0.6612	1.458	0.207	-1.031	-0.6581	-0.1831
-5.1599	2.6045	8.2446	-0.1432	-0.0224	0.1243	0.3756	-1.1267	-1.7032	2.7074	2.3769	9.5329	-0.8113	0.9826	0.1526	0.2101	-0.1921	-0.7925	9.3795	2.8141	-0.1634	0.2412	1.2527	-0.3352	-1.014	-0.6187	-0.146
-4.9262	2.3759	7.843	-0.2366	-0.2075	0.3368	0.4707	-1.1472	-1.6315	1.9071	2.5513	9.6355	-0.7803	0.9515	0.0911	0.2161	-0.2101	-0.7865	9.6065	2.8138	-0.1592	-0.2965	1.1969	-0.6883	-1.0457	-0.5821	-0.1988
-5.345	2.0832	7.956	-0.1738	-0.0843	0.2464	0.3936	-1.1275	-1.7022	2.4765	2.0892	9.4101	-0.5641	0.9225	0.0593	0.2161	-0.1981	-0.8045	9.0992	2.5871	0.0029	-0.228	1.2243	-0.475	-1.0464	-0.6389	-0.165
-5.3411	2.3137	8.1867	0.0447	-0.0216	0.368	0.4274	-1.0725	-1.6983	1.7297	1.9174	9.2778	-0.6279	1.0461	0.1204	0.2281	-0.1861	-0.7865	9.3806	2.7572	-0.1062	0.1692	1.3183	-0.6705	-1.0784	-0.6399	-0.1835
-4.983	2.1987	8.0193	0.1071	0.1326	0.1861	0.3918	-1.0319	-1.6657	2.1257	2.9512	9.1145	-0.7189	0.9518	0.06	0.2221	-0.2101	-0.7805	9.3261	2.6437	0.0071	0.2651	1.4084	-0.5805	-1.0293	-0.5807	-0.1451
-5.4022	2.1978	8.1287	-0.1719	0.0687	0.1882	0.3779	-1.1061	-1.6523	2.4195	1.8593	9.408	-0.7173	0.8903	0.0911	0.2281	-0.1921	-0.8045	9.3262	2.5299	0.007	0.2599	1.5327	-0.7637	-1.0448	-0.5803	-0.1099
-4.6241	2.3164	7.9074	0.0157	0.2235	0.1584	0.3588	-1.1059	-1.6701	2.6465	1.8583	9.2952	-0.4066	0.8013	0.1513	0.2221	-0.2161	-0.8105	9.3778	3.3258	-0.2202	0.0758	1.4709	-0.6973	-1.0457	-0.6006	-0.1638
-4.7999	2.6631	8.1918	0.0119	-0.0826	0.2748	0.4111	-1.09	-1.6832	2.0739	2.3197	9.3448	-0.4714	0.8601	-0.0945	0.2281	-0.2101	-0.7985	9.8346	3.6666	-0.0399	-0.1963	1.1325	-0.446	-1.0931	-0.5824	-0.1642
-5.1657	2.2588	7.8986	-0.0447	0.1915	0.343	0.3947	-1.1269	-1.6854	2.3562	2.2031	9.1155	-0.5617	0.7667	-0.0627	0.2342	-0.1921	-0.7865	9.4943	3.4964	-0.0463	-0.2226	1.1303	-0.2916	-1.0471	-0.6588	-0.2012
-4.6846	2.5499	7.9034	-0.0816	0.0091	0.0627	0.4498	-1.1287	-1.6655	2.2455	2.4919	9.3489	-0.4399	0.8613	-0.0025	0.2101	-0.1981	-0.7985	9.8367	2.8136	0.0166	-0.4109	0.9181	-0.3491	-1.0293	-0.5807	-0.1451
-4.9842	2.3161	7.9594	-0.1093	0.0997	0.2188	0.3939	-1.1081	-1.6848	2.0752	2.2049	9.4029	-0.5006	0.83	0.0287	0.2342	-0.1981	-0.8045	9.6065	2.8138	-0.1592	-0.2796	0.9146	-0.1072	-1.0465	-0.6393	-0.1828
-4.7386	2.604	8.252	-0.2632	0.1287	0.2214	0.4263	-1.0731	-1.7151	1.9553	2.7217	9.1687	-0.5663	1.0149	0.028	0.2161	-0.1801	-0.7865	9.2103	2.8143	-0.1093	-0.1166	0.8195	0.1637	-1.0139	-0.5814	-0.1981
-5.1029	1.907	8.0209	-0.0484	0.1623	0.0349	0.3962	-1.0874	-1.6339	2.4751	2.8944	9.4137	-0.4669	0.707	0.06	0.2101	-0.1981	-0.7865	9.2009	2.8139	-0.6244	-0.2069	1.0316	0.2295	-1.0618	-0.6197	-0.147
-4.8647	2.2	7.9046	0.1046	0.0414	0.0918	0.413	-1.1083	-1.667	2.4187	2.3769	9.4103	-0.4365	0.7703	0.1824	0.2221	-0.2041	-0.7865	9.4363	2.814	-0.1624	-0.1578	1.1595	-0.2011	-1.0301	-0.6194	-0.1641
-5.0343	1.9011	8.4891	-0.0173	0.0394	0.2471	0.3921	-1.0898	-1.701	2.4258	2.0908	9.7605	-0.5616	0.7985	0.0293	0.2281	-0.2101	-0.7925	9.0388	2.9851	-0.1695	-0.3427	1.1285	-0.1651	-1.0777	-0.6201	-0.1473
-4.9166	2.3109	8.3693	-0.1057	0.3136	0.2234	0.3952	-1.088	-1.6507	2.4106	1.9147	8.9396	-0.5647	0.9852	0.1511	0.2342	-0.1981	-0.8045	9.2693	2.7006	0.0061	-0.1832	1.1264	-0.0162	-1.0934	-0.6016	-0.1648
-4.9251	2.3168	7.9021	-0.1088	0.1303	0.2195	0.4527	-1.1464	-1.6326	2.2477	1.8595	9.4047	-0.5344	0.9531	-0.0025	0.2281	-0.1981	-0.7925	9.1596	2.9853	0.2332	0.0081	1.3982	0.1339	-1.0149	-0.6389	-0.1999
-4.9798	2.1965	8.1945	-0.111	0.0389	0.156	0.3975	-1.1446	-1.6524	1.9668	2.4367	9.7532	-0.4407	0.9237	0.0585	0.2161	-0.1981	-0.7865	8.9821	2.9283	-0.1706	-0.1781	1.2459	0.1382	-1.046	-0.6197	-0.1644
-4.8001	2.0803	8.1407	0.0121	0.0711	0.0629	0.3913	-1.0709	-1.7004	2.0722	2.6645	9.2878	-0.4115	0.9538	-0.0647	0.2281	-0.2041	-0.7865	9.7169	2.8135	-0.3289	-0.1717	1.2124	0.3528	-1.0303	-0.6198	-0.1819
-4.8046	2.2583	7.9049	0.108	0.2245	0.1265	0.43	-1.1096	-1.6827	2.2463	2.6647	9.4083	-0.5022	0.8916	-0.0024	0.2281	-0.2041	-0.7985	9.2076	3.326	-0.2234	-0.4257	0.9715	0.1741	-1.0616	-0.6009	-0.1641
-4.8606	2.3138	8.1368	0.0139	0.0396	0.2775	0.4101	-1.0906	-1.6999	2.069	1.9733	9.0504	-0.4381	0.8319	0.1513	0.2281	-0.1861	-0.7865	9.7264	3.5532	0.244	-0.5504	1.0023	0.1474	-1.0293	-0.5622	-0.18
-4.9802	1.7303	8.142	-0.0168	0.2238	0.0051	0.4274	-1.0725	-1.6983	2.364	2.1474	9.5253	-0.5632	0.8918	0.0902	0.2281	-0.1981	-0.8045	9.2011	2.7002	-0.6245	-0.4013	0.9746	-0.0417	-1.0452	-0.581	-0.1454
-5.2299	2.0867	7.6661	0.1084	0.2859	0.0663	0.4117	-1.1283	-1.7011	2.3042	2.3195	9.4078	-0.4991	0.7685	0.0598	0.2041	-0.1981	-0.7985	9.209	3.0417	-0.1664	-0.583	1.0641	0.0874	-1.03	-0.6006	-0.1813
-4.985	2.1418	7.9032	0.0465	0.1008	0.3399	0.3939	-1.1081	-1.6848	1.7862	2.3774	9.281	-0.4399	0.7977	-0.1865	0.2161	-0.2041	-0.7925	9.2721	2.9851	0.178	-0.5603	1.1289	-0.1893	-1.0462	-0.6201	-0.1822
-4.8646	2.8996	7.9542	0.1077	0.0708	0.3385	0.3921	-1.0898	-1.701	2.1338	2.09	9.4621	-0.409	0.8934	0.0893	0.2161	-0.1921	-0.8105	9.3207	2.814	-0.2789	-0.372	1.0363	-0.1035	-0.9819	-0.5804	-0.1797
-4.376	2.3109	8.3204	0.1085	0.1936	0.2181	0.4281	-1.0914	-1.6989	2.3041	2.3771	9.4081	-0.4709	0.9243	0.1509	0.2281	-0.1921	-0.8045	9.4398	3.326	0.067	-0.1517	1.309	-0.0157	-1.0464	-0.6204	-0.2
-4.6822	2.315	8.0231	0.0775	0.1318	0.3094	0.4323	-1.089	-1.6318	2.2975	2.3755	9.0566	-0.4696	0.7989	-0.0327	0.2221	-0.2041	-0.8105	9.3231	2.5298	-0.1647	0.0977	1.2474	0.0378	-1.0296	-0.5814	-0.1807
-4.925	2.2584	7.9028	-0.1101	0.1308	0.0965	0.3921	-1.0898	-1.701	2.302	2.319	9.2907	-0.4384	0.768	-0.0635	0.1981	-0.2041	-0.8105	9.6622	2.8137	-0.2154	-0.1181	1.2468	0.075	-1.0454	-0.5814	-0.1632
-4.9211	2.5473	8.1328	-0.0136	0.284	0.2216	0.3957	-1.1263	-1.6686	2.2436	2.3189	9.231	-0.5029	0.9225	-0.0025	0.2281	-0.1861	-0.7805	9.1575	2.9852	0.1187	0.0692	1.1547	0.1301	-1.0462	-0.6386	-0.1473
-4.7373	2.4282	8.3126	-0.1081	0.13	0.281	0.3877	-1.0343	-1.7328	2.1894	2.4348	9.4061	-0.3175	0.8614	-0.1262	0.2221	-0.1981	-0.7985	9.4932	2.7002	-0.1614	0.0607	1.1282	-0.1464	-1.0611	-0.5814	-0.1458
-5.1626	2.3149	8.0731	-0.1108	0.0081	0.2168	0.4302	-1.0902	-1.6654	2.0248	2.034	9.7525	-0.496	0.6454	0.122	0.2281	-0.2221	-0.7925	8.9851	3.0422	0.0012	0.2389	1.1318	-0.3976	-1.0296	-0.5999	-0.1457
-5.1653	1.9669	7.9023	-0.1104	0.0695	0.1567	0.3939	-1.1081	-1.6848	2.5874	2.3183	9.2376	-0.5319	0.8927	0.1515	0.2101	-0.1921	-0.7985	8.9224	2.8145	-0.3434	0.0941	1.0052	-0.0562	-1.1098	-0.6214	-0.1835
-4.8621	1.8483	8.0258	-0.077	0.2225	0.1596	0.4289	-1.1102	-1.6995	2.1919	2.2627	9.5225	-0.5011	0.8931	0.1513	0.2221	-0.2041	-0.8045	9.4964	2.5866	0.0102	-0.1499	0.9729	0.0737	-1.0298	-0.6002	-0.1635
-5.1615	2.2558	8.1322	-0.2634	0.1595	0.1605	0.4292	-1.0908	-1.6821	2.5323	2.9518	9.4151	-0.5945	0.8273	-0.1551	0.2161	-0.2101	-0.7985	9.1525	2.8143	-0.1676	0.0624	1.0665	-0.0855	-1.062	-0.6016	-0.1997
-4.6776	2.0786	8.2597	-0.1106	0.1003	0.0958	0.4302	-1.0902	-1.6654	2.2448	2.2616	9.2893	-0.3797	0.9553	0.058	0.2221	-0.2041	-0.7925	9.153	2.4163	-0.1679	0.1526	1.1287	-0.1799	-1.0609	-0.581	-0.128
-5.343	2.1984	8.0714	-0.0458	0.2227	0.1899	0.43	-1.1096	-1.6827	2.2422	2.4911	9.1732	-0.4401	0.861	-0.0333	0.2221	-0.2041	-0.7985	9.2087	3.2692	-0.1662	0.0236	0.9483	-0.3311	-1.0294	-0.5811	-0.1629
-5.2195	2.1961	8.2487	-0.0766	0.1301	0.3421	0.4093	-1.0717	-1.6994	2.1873	2.3767	9.2887	-0.3471	0.9261	0.2116	0.2221	-0.1921	-0.7865	9.5494	3.0982	-0.1601	0.0162	1.0126	-0.5762	-1.0294	-0.5995	-0.1279
-4.9812	2.4307	8.1332	-0.2028	0.0684	0.1886	0.4292	-1.0908	-1.6821	2.2411	2.4909	9.1146	-0.5051	1.0149	-0.0338	0.2101	-0.1921	-0.7865	9.4886	3.0412	-0.3901	-0.0072	1.0091	-0.3297	-1.0777	-0.6016	-0.1822
-4.8609	2.4889	8.1346	-0.235	0.0686	0.0659	0.3916	-1.1287	-1.7357	2.3066	2.8379	9.5859	-0.6281	1.0458	0.0896	0.2342	-0.1921	-0.7925	8.9815	2.5302	-0.2282	-0.1659	0.9499	-0.4484	-1.0303	-0.6198	-0.1819
-5.0434	2.3739	8.016	-0.11	0.1923	0.0056	0.3784	-1.1444	-1.6702	2.2499	2.4929	9.5832	-0.4698	0.8304	0.0285	0.2101	-0.1981	-0.7865	9.3262	3.4399	0.065	-0.377	0.9472	-0.2577	-1.0775	-0.6012	-0.1645
-4.9218	2.2562	8.078	-0.2354	0.1611	-0.1166	0.3779	-1.1061	-1.6523	2.2423	2.4336	9.1729	-0.2864	0.8938	-0.0036	0.2342	-0.2041	-0.8045	9.2633	3.3259	-0.2796	-0.244	0.882	0.0451	-1.0134	-0.5619	-0.1797
-5.2262	2.4339	7.8953	-0.2942	0.1592	0.1609	0.4302	-1.0902	-1.6654	2.2996	2.4335	9.174	-0.5026	0.9228	0.0282	0.2342	-0.1981	-0.8045	9.3774	2.8708	-0.2778	-0.4003	1.0046	-0.0107	-0.9993	-0.6762	-0.1653
-5.0467	2.4928	7.8394	-0.1077	0.2529	0.1299	0.4261	-1.0926	-1.7325	1.9656	2.4939	9.6949	-0.6249	0.7958	-0.1854	0.2221	-0.1921	-0.7925	9.4917	3.0414	-0.2184	-0.3677	0.9124	0.049	-1.0303	-0.6198	-0.1819
-4.7478	2.4355	7.7286	-0.1107	0.1311	0.035	0.3751	-1.0884	-1.6852	2.1266	2.4336	9.1121	-0.3767	0.8004	0.0282	0.2221	-0.1921	-0.7925	9.5498	2.757	-0.1603	-0.2139	1.2177	-0.0146	-1.0292	-0.5992	-0.1102
-5.166	2.4338	7.8964	-0.2928	0.2817	0.102	0.3949	-1.1075	-1.668	2.3019	2.3765	9.2909	-0.5317	0.8294	-0.0018	0.2161	-0.2041	-0.8105	9.2652	2.5867	-0.2229	0.0037	1.1869	0.0094	-1.0459	-0.6009	-0.1816
-5.0451	2.0835	7.9029	-0.3864	0.1888	0.1627	0.413	-1.1083	-1.667	2.0149	2.6646	9.2867	-0.4379	0.8004	0.09	0.2161	-0.2041	-0.7925	9.659	2.9273	-0.387	0.064	1.2791	-0.0531	-1.0607	-0.5622	-0.1451
-5.2174	2.253	8.3647	-0.4775	0.2796	0.1658	0.3913	-1.0709	-1.7004	2.4788	2.0322	9.527	-0.5288	0.7061	0.0296	0.2161	-0.2041	-0.7925	9.4295	3.2687	-0.5054	-0.0897	1.0347	0.011	-1.0308	-0.6577	-0.1653
-4.7378	2.0787	8.2586	-0.4492	0.0656	0.2531	0.356	-1.0882	-1.703	2.2437	2.2613	9.2307	-0.3445	0.7389	0.0284	0.2281	-0.1981	-0.7865	9.3215	2.9847	-0.2216	-0.0839	1.0929	0.1956	-1.0614	-0.5821	-0.1813
-4.9893	2.2031	7.6689	-0.3888	0.0668	0.1293	0.3921	-1.0898	-1.701	2.3092	2.6084	9.702	-0.406	0.7067	-0.0326	0.2101	-0.2161	-0.7985	9.3735	3.4394	-0.4491	-0.123	1.1882	-0.079	-1.0454	-0.5814	-0.1632
-4.8001	2.8382	8.1896	-0.1679	0.3439	0.1326	0.4689	-1.1289	-1.6477	2.3024	2.089	9.2896	-0.3412	0.6161	0.1213	0.2221	-0.2101	-0.7925	9.3793	2.9847	-0.1633	-0.2161	1.0968	-0.0769	-1.0628	-0.6588	-0.1838
-4.9195	2.0797	8.197	-0.2011	0.1907	0.1604	0.4101	-1.0906	-1.6999	1.9556	2.5491	9.1679	-0.3758	0.7062	-0.1249	0.2221	-0.2041	-0.8045	9.3288	2.985	0.1791	-0.1305	0.8869	-0.2963	-1.0147	-0.6386	-0.1822
-5.2207	2.3135	8.1888	-0.106	0.1599	0.4354	0.4498	-1.1287	-1.6655	2.4779	2.5498	9.5293	-0.1926	0.8011	-0.0958	0.2221	-0.2161	-0.8045	9.3759	3.212	-0.3348	-0.1298	1.0999	-0.2946	-1.0465	-0.6577	-0.1479
-5.1616	2.3142	8.1315	-0.2923	0.3122	0.1027	0.4163	-1.1643	-1.652	2.2445	2.4341	9.2901	-0.5026	0.9546	0.1202	0.2221	-0.1921	-0.7925	9.0994	3.2695	0.0607	0.0212	1.1017	-0.422	-1.0459	-0.6009	-0.1816
-4.9818	2.1396	8.0784	-0.1124	0.0088	0.0631	0.4091	-1.0912	-1.7167	2.3546	2.4904	9.0582	-0.4712	0.8604	-0.0638	0.2161	-0.2101	-0.8105	9.1508	3.383	-0.2244	0.2708	1.1314	-0.3678	-1.0459	-0.6009	-0.1816
-5.1068	2.3761	7.8398	-0.0807	0.0395	0.0941	0.4137	-1.1271	-1.6676	1.8414	2.3193	9.1647	-0.6539	0.7979	0.0605	0.2221	-0.2041	-0.7925	9.4907	2.9844	-0.2757	0.5471	1.285	-0.467	-1.0291	-0.5804	-0.1273
-5.1042	2.0245	7.961	-0.0471	0.1617	0.1579	0.4148	-1.1265	-1.6508	1.7837	2.5494	9.1646	-0.5925	0.7982	0.0295	0.2221	-0.2161	-0.8045	9.4978	3.1554	0.1251	0.1674	1.3496	-0.7317	-1.0146	-0.6198	-0.1993
-4.8621	1.8483	8.0258	-0.0814	0.0398	0.0326	0.4425	-1.0556	-1.7302	2.3577	2.6062	9.2345	-0.5927	0.8297	0.0907	0.2101	-0.1981	-0.7925	8.9809	3.042	-0.2278	0.1373	1.3188	-0.7003	-1.0462	-0.6201	-0.1822
-5.3999	2.0796	8.247	-0.0189	0.0401	0.0934	0.4281	-1.0914	-1.6989	2.5346	2.2619	9.4705	-0.5304	0.7994	0.0905	0.2161	-0.1981	-0.7865	8.8717	2.9854	-0.001	0.2679	1.407	-0.4884	-1.078	-0.6208	-0.1829
-5.5233	2.0236	8.0704	0.0126	0.1017	0.0636	0.4132	-1.1661	-1.7023	2.2421	1.9158	9.112	-0.2859	0.8944	0.0578	0.2221	-0.1981	-0.7985	9.2634	3.2122	-0.2797	-0.0725	1.1326	-0.4497	-1.0289	-0.5615	-0.1445
-4.9226	2.0819	8.0218	-0.0774	0.1612	0.2197	0.4315	-1.1474	-1.6839	2.0786	2.1482	9.5784	-0.4716	0.9234	0.0587	0.2101	-0.2041	-0.8045	9.4915	3.212	-0.2183	-0.0793	1.0748	-0.6651	-1.0467	-0.6581	-0.1657
-4.7963	1.6111	8.3218	0.2026	0.2247	0.3099	0.4109	-1.1095	-1.7005	2.1858	2.6065	9.2312	-0.5643	0.954	0.1205	0.2161	-0.2101	-0.7925	9.3856	2.9849	0.1801	-0.2622	1.0734	-0.5674	-1.0782	-0.6211	-0.2006
-5.2178	2.5448	8.3611	0.1653	0.0732	-0.062	0.4135	-1.1466	-1.6849	2.2463	2.6647	9.4083	-0.4086	0.8622	0.0587	0.2101	-0.1921	-0.7865	9.3232	3.326	-0.1068	-0.2675	1.1673	-0.7509	-1.0455	-0.5818	-0.181
-5.1024	2.2565	8.0749	0.1976	-0.0193	0.2124	0.3748	-1.1079	-1.7026	2.4657	2.6045	8.8852	-0.5321	0.8606	0.0287	0.2402	-0.2041	-0.7925	9.5462	3.2118	-0.3317	-0.1037	1.0717	-0.4492	-1.0462	-0.6201	-0.1822
-4.925	2.2584	7.9028	0.1365	0.0413	0.1837	0.4315	-1.1474	-1.6839	2.2992	2.6636	9.175	-0.5922	0.7985	0.0602	0.2161	-0.2041	-0.7925	9.4925	3.212	-0.161	-0.3146	1.0994	-0.2583	-1.014	-0.6187	-0.146
-4.9897	2.4949	7.6652	0.0725	-0.0507	0.121	0.4111	-1.09	-1.6832	2.5335	2.2616	9.412	-0.5304	0.7676	-0.0015	0.2041	-0.1981	-0.7985	8.8736	3.0993	0.1136	-0.4781	1.012	-0.5307	-1.0464	-0.6204	-0.2
-5.166	2.4338	7.8964	0.1073	0.1633	0.156	0.3748	-1.1079	-1.7026	2.2444	2.4917	9.2903	-0.3467	0.8313	-0.0029	0.2101	-0.1981	-0.7925	9.6086	2.8139	-0.0448	-0.8229	1.1662	-0.6728	-1.0293	-0.5807	-0.1451
-5.102	1.9647	8.0785	-0.0497	0.009	0.1546	0.3952	-1.088	-1.6507	2.1307	2.6071	9.3472	-0.315	0.7692	-0.0642	0.2281	-0.1801	-0.7925	9.27	2.9281	0.0635	-0.8239	0.8315	-0.6754	-1.0619	-0.6201	-0.1648
-4.6842	2.2581	7.9071	0.0426	-0.0514	0.2136	0.4114	-1.0705	-1.6658	2.0742	2.1471	9.3441	-0.5652	0.8892	-0.1864	0.2161	-0.1921	-0.7925	9.7179	2.8704	-0.2716	-0.8321	0.9267	-0.951	-1.0296	-0.5999	-0.1457
-4.9273	2.3766	7.7846	-0.11	0.0385	0.2482	0.4289	-1.1102	-1.6995	2.187	2.5493	9.2895	-0.5009	0.8615	0.09	0.2281	-0.1981	-0.7925	9.6608	3.1548	-0.2724	-0.9247	1.018	-0.9475	-1.0301	-0.6009	-0.199
-4.6794	1.8466	8.1458	0.0754	0.1019	0.155	0.3939	-1.1081	-1.6848	2.6502	2.3195	9.5316	-0.4101	0.9237	0.0276	0.2161	-0.2101	-0.7865	9.4917	3.0414	-0.2184	-0.9263	1.1102	-1.0082	-1.0296	-0.5999	-0.1457
-5.0432	2.2571	8.0175	-0.1105	0.1618	0.0049	0.3921	-1.0898	-1.701	2.2462	2.7222	9.4085	-0.5013	0.8292	-0.0635	0.2221	-0.2101	-0.7925	9.2656	3.1554	-0.1652	-1.2679	1.08	-1.0289	-1.0452	-0.5626	-0.1804
-4.9247	2.0833	7.905	0.1053	0.0411	0.1533	0.3691	-1.0725	-1.7685	2.1359	2.781	9.6409	-0.4394	0.8619	0.0589	0.2161	-0.2161	-0.7925	9.6142	2.5297	0.2412	-1.4939	1.0843	-1.3294	-1.0301	-0.6194	-0.1641
-5.1034	2.2572	8.0165	0.0113	-0.0208	0.1224	0.4292	-1.0908	-1.6821	1.5537	2.4345	9.1011	-0.3168	0.8623	-0.034	0.2101	-0.1981	-0.7865	8.9792	2.7575	-0.3424	-1.7017	0.9277	-1.0172	-1.0621	-0.6204	-0.1825
-5.4022	2.2561	8.128	0.167	0.134	0.0008	0.3769	-1.1067	-1.6691	2.3063	2.3776	9.5252	-0.5969	0.9831	-0.0331	0.2041	-0.1861	-0.7925	9.6094	3.0414	0.0126	-1.7874	0.8329	-0.7695	-1.0462	-0.6201	-0.1822
-4.9878	2.6685	7.7798	0.0743	0.1331	0.002	0.4124	-1.0699	-1.649	2.185	2.4337	9.1718	-0.4694	0.8309	0.09	0.2161	-0.2041	-0.8045	9.4357	3.2689	-0.162	-1.5109	1.0473	-0.8683	-1.0618	-0.6013	-0.1819
-5.0401	2.2549	8.1927	0.1081	0.286	0.0356	0.3944	-1.1464	-1.7027	1.8959	2.6637	9.0502	-0.5337	0.9222	-0.0024	0.2221	-0.2041	-0.7805	9.2095	2.5868	-0.1667	-1.478	0.7721	-0.7793	-1.0461	-0.6013	-0.1994
-4.9819	2.198	8.0777	0.047	0.1928	0.2496	0.4145	-1.146	-1.6682	2.071	2.0888	9.1681	-0.3146	0.7698	-0.0027	0.2342	-0.1981	-0.8105	8.9877	2.5873	0.1153	-1.2861	0.9217	-0.5994	-1.063	-0.6591	-0.2015
-5.1039	2.6074	8.0121	0.0142	0.1933	0.0655	0.4289	-1.1102	-1.6995	2.3018	2.434	9.2912	-0.3765	0.7689	-0.0331	0.2221	-0.1921	-0.7805	9.2712	2.8713	0.1207	-1.4011	1.0699	-0.3183	-1.0287	-0.5612	-0.1267
-5.1653	1.9669	7.9023	-0.1081	0.1915	0.19	0.4284	-1.0719	-1.6815	2.36	2.5492	9.3514	-0.2871	0.9247	-0.0038	0.2161	-0.1981	-0.7925	8.9224	2.7576	-0.3435	-1.2786	0.9182	-0.3539	-1.0305	-0.6201	-0.1997
-4.6222	2.4317	8.0227	0.0159	0.2541	0.1283	0.4143	-1.1655	-1.6855	1.9069	2.7238	9.6362	-0.4055	0.7073	0.0289	0.2221	-0.1981	-0.7925	8.7542	2.8148	-0.2321	-1.1316	1.1352	-0.6331	-1.0142	-0.6006	-0.1987
-5.3465	2.4341	7.8932	0.0761	0.1631	0.1256	0.413	-1.1083	-1.667	2.0756	2.6077	9.4633	-0.409	0.8934	0.0893	0.2221	-0.1921	-0.8165	9.3807	2.7004	-0.1063	-1.057	1.3122	-0.2344	-1.0619	-0.6201	-0.1648
-4.9808	2.1389	8.1368	0.0771	0.2242	0.1269	0.3586	-1.1254	-1.6875	2.1335	2.2626	9.4628	-0.3767	0.7686	-0.0638	0.2221	-0.2041	-0.8045	9.0943	3.1556	-0.2256	-1.084	1.3713	-0.1102	-1.0474	-0.678	-0.2018
-4.6849	2.725	7.9012	0.1067	0.1636	0.0945	0.4124	-1.0699	-1.649	2.1857	2.664	9.2314	-0.437	0.7379	0.0289	0.2161	-0.1921	-0.7925	9.381	3.2691	-0.0486	-0.8976	1.2796	-0.0858	-1.0766	-0.581	-0.1105
-5.0426	1.7902	8.0234	-0.1403	0.1302	0.1584	0.3913	-1.0709	-1.7004	1.9042	2.3205	9.4587	-0.3765	0.7371	-0.1251	0.2281	-0.1801	-0.7925	9.2683	3.4968	0.0067	-0.9594	1.31	-0.0837	-1.0299	-0.6191	-0.1463
-4.9804	1.847	8.1405	-0.0153	0.1616	0.2497	0.3753	-1.0689	-1.6679	2.5888	2.7789	9.3568	-0.5311	0.7667	-0.0936	0.2221	-0.2041	-0.7985	9.4361	2.9846	-0.1622	-0.9063	1.1922	-0.3628	-1.046	-0.6197	-0.1644
-5.0412	2.314	8.1336	-0.08	0.1007	0.0647	0.3573	-1.0681	-1.6689	2.358	2.4337	9.2337	-0.3776	0.7674	-0.1867	0.2101	-0.1861	-0.7985	9.3749	3.212	-0.392	-0.8153	1.1932	-0.427	-1.0303	-0.6013	-0.2168
-4.867	2.3182	7.7864	-0.1361	0.3438	0.2244	0.3568	-1.1071	-1.7036	2.1305	2.0893	9.2863	-0.5904	0.769	0.214	0.2342	-0.2041	-0.8045	9.2636	3.0985	-0.2797	-0.8144	1.1927	-0.3963	-1.0462	-0.6386	-0.1473
-4.6807	2.7804	8.1341	-0.2622	0.1283	0.3136	0.3944	-1.0691	-1.6501	2.5958	2.5504	9.7073	-0.5907	0.737	0.0913	0.2342	-0.1981	-0.8045	9.3262	3.4399	0.065	-0.4366	1.0985	-0.1932	-1.0141	-0.6002	-0.1809
-5.22	2.6046	8.2435	-0.1685	0.3134	0.1319	0.3913	-1.0709	-1.7004	2.1245	2.3755	8.9947	-0.404	0.614	-0.032	0.2281	-0.2041	-0.7925	8.925	3.2127	-0.1714	-0.1624	1.1921	-0.3543	-1.0135	-0.5992	-0.1276
-5.0405	2.6051	8.1883	-0.3595	0.0678	-0.0248	0.4292	-1.0908	-1.6821	2.3572	2.2609	9.1743	-0.0979	0.7096	-0.0651	0.2281	-0.1921	-0.7865	9.3792	3.0415	-0.1632	-0.2803	1.2807	-0.1657	-1.0454	-0.5814	-0.1632
-4.9813	2.489	8.1324	-0.1406	0.1919	0.0367	0.4114	-1.0705	-1.6658	1.962	2.0328	9.4585	-0.376	0.7377	-0.0636	0.2221	-0.2101	-0.7925	9.4993	2.8142	0.1821	-0.4598	1.1863	0.054	-1.0305	-0.6201	-0.1997
-4.9217	2.1979	8.0788	-0.0509	0.071	-0.0593	0.4302	-1.0902	-1.6654	1.9042	2.3205	9.4587	-0.4368	0.7382	0.0596	0.2221	-0.2101	-0.7865	9.2092	2.8711	-0.1665	-0.3357	1.2472	0.0507	-1.031	-0.6581	-0.1831
-4.9768	2.311	8.3682	-0.2005	0.2828	0.0702	0.3931	-1.0892	-1.6842	2.3673	2.1482	9.701	-0.2498	0.6156	-0.0329	0.2221	-0.2101	-0.7865	9.3924	3.3833	0.581	-0.527	1.2802	-0.1276	-1.0472	-0.6591	-0.219
-5.0523	2.7299	7.5445	-0.2024	0.1913	0.0374	0.414	-1.1077	-1.6502	2.2963	2.4328	8.9983	-0.1598	0.7087	-0.0955	0.2281	-0.1981	-0.7805	9.1563	2.2458	0.0037	-0.4963	1.1889	-0.1293	-1.0139	-0.5999	-0.1632
-4.8059	2.4341	7.8443	-0.0426	0.3752	0.2547	0.3978	-1.1252	-1.6351	1.5563	2.1475	9.217	-0.4993	0.7682	0.0291	0.2101	-0.1921	-0.7985	9.379	3.2121	-0.1631	-0.2758	1.2177	-0.0127	-0.9826	-0.6187	-0.1809
-4.8009	2.6055	8.1341	-0.2019	0.2218	0.0381	0.3787	-1.125	-1.6529	2.6483	2.7793	9.4751	-0.4086	0.8304	-0.0333	0.2041	-0.1981	-0.7925	9.0962	2.4163	-0.1689	-0.0048	1.1908	-0.2669	-1.0457	-0.6006	-0.1638
-4.9217	2.1979	8.0788	0.0111	0.01	0.0616	0.3921	-1.0898	-1.701	2.0209	2.3783	9.5783	-0.3167	0.9259	0.15	0.2281	-0.1981	-0.7985	9.4947	3.1552	-0.0466	0.1512	1.2818	-0.2401	-1.0149	-0.6574	-0.165
-4.8599	1.7885	8.1433	-0.1732	0.0692	0.0652	0.4292	-1.0908	-1.6821	2.1343	2.4354	9.5222	-0.5619	0.7982	-0.0015	0.2221	-0.2041	-0.7925	8.9877	2.6442	0.1153	0.278	1.3109	-0.1515	-1.0613	-0.5817	-0.1635
-5.0477	2.4351	7.7817	-0.1403	0.1917	0.0674	0.3915	-1.0514	-1.683	2.3039	2.4921	9.4086	-0.5945	0.8909	0.0289	0.2161	-0.1981	-0.7805	9.955	3.0981	0.3051	0.3038	1.4657	-0.3354	-1.0308	-0.6577	-0.1653
-4.7944	1.7848	8.4364	-0.0788	0.1925	0.0359	0.4106	-1.1289	-1.7179	1.7389	2.3798	9.8071	-0.5312	0.83	0.0596	0.2221	-0.1861	-0.7985	9.2117	3.3831	0.0056	0.0825	1.4983	-0.4821	-1.0138	-0.6184	-0.1282
-5.3952	1.7848	8.4842	-0.1098	0.0692	0.2182	0.4472	-1.0916	-1.6811	2.304	2.4346	9.4083	-0.4736	0.9843	-0.0338	0.2281	-0.2041	-0.7925	8.9868	3.3266	0.1158	0.0498	1.56	-0.5421	-1.0303	-0.6198	-0.1819
-5.2209	2.4886	8.1866	-0.0805	0.0702	0.064	0.4093	-1.0717	-1.6994	2.3012	2.7791	9.2927	-0.4996	0.7679	-0.0016	0.2101	-0.1921	-0.7925	9.4428	3.4399	0.2387	0.0132	1.2579	-0.6971	-1.0142	-0.6375	-0.1288
-4.6157	2.3105	8.3746	-0.0782	0.1922	0.0974	0.4132	-1.0888	-1.6496	2.0171	2.0322	9.3424	-0.4387	0.8628	0.1511	0.2221	-0.1861	-0.7925	9.4932	2.7002	-0.1614	0.2334	1.4697	-0.6098	-1.0141	-0.6002	-0.1809
-5.1655	2.0837	7.9008	-0.1723	0.1612	0.0057	0.3756	-1.1267	-1.7032	2.2454	2.5494	9.3492	-0.5621	0.8297	0.0598	0.1981	-0.1861	-0.7805	9.4372	2.9278	-0.105	0.3077	1.5248	-0.2121	-1.0454	-0.5814	-0.1632
-5.0327	2.3082	8.6008	-0.2309	0.2515	0.1621	0.3959	-1.1069	-1.6513	2.3076	2.2628	9.5833	-0.626	0.9215	0.0289	0.2221	-0.2041	-0.8045	9.3792	3.0415	-0.1632	0.1223	1.3417	-0.1773	-1.0621	-0.6204	-0.1825
-5.1687	2.0859	7.7256	-0.2024	0.1298	0.1284	0.3921	-1.0898	-1.701	2.4197	2.4346	9.4691	-0.6229	0.7985	0.0911	0.2342	-0.2041	-0.7865	9.3842	3.2124	0.1231	-0.1657	1.346	-0.4759	-1.0303	-0.6198	-0.1819
-5.4018	1.9643	8.1316	-0.0206	-0.0207	0.0306	0.391	-1.0904	-1.7177	2.2534	2.3787	9.7585	-0.5312	0.8936	0.2436	0.2402	-0.2041	-0.8045	9.3881	3.44	0.3522	-0.4173	1.2868	-0.5918	-1.062	-0.6016	-0.1997
-4.6233	1.7328	7.9147	0.0143	0.1625	0.1264	0.4305	-1.0707	-1.648	2.2435	2.3764	9.2312	-0.5328	0.8916	0.0285	0.2221	-0.2101	-0.8045	9.4889	2.7569	-0.3903	-0.2943	1.3177	-0.6259	-1.078	-0.6392	-0.1479
-5.2841	2.3158	8.0125	0.0144	0.224	0.0354	0.3753	-1.0689	-1.6679	2.3007	2.4338	9.2326	-0.376	0.7377	-0.0636	0.2161	-0.2041	-0.7985	9.2696	3.2693	0.0638	-0.4434	1.315	-0.4371	-1.0303	-0.6198	-0.1819
-5.2259	2.2588	7.8975	-0.0455	0.2226	0.2207	0.34	-1.0862	-1.6705	2.4767	2.6071	9.471	-0.6215	0.7684	0.1834	0.2161	-0.2041	-0.7925	9.5537	2.9846	0.0688	-0.4789	1.3781	-0.5892	-1.0134	-0.5804	-0.1448
-4.9883	2.2023	7.7273	-0.0807	0.0395	0.0941	0.4083	-1.0723	-1.7161	2.2412	2.4334	9.1143	-0.4381	0.7365	-0.1247	0.2221	-0.2041	-0.7925	9.4866	2.9843	-0.5046	-0.3279	1.3799	-0.7166	-1.0616	-0.6009	-0.1641
-5.1619	2.5476	8.1285	-0.1378	0.2215	0.2526	0.3921	-1.0898	-1.701	2.416	2.6639	9.2944	-0.5645	0.9537	0.0898	0.2342	-0.2041	-0.7805	9.2658	2.9848	-0.1654	-0.2678	1.3808	-0.7799	-1.0147	-0.6571	-0.1472
-5.1646	2.1997	7.9577	0.0139	0.0396	0.2775	0.3952	-1.088	-1.6507	2.2447	2.3191	9.2896	-0.4398	0.9249	0.1815	0.2221	-0.1981	-0.7985	9.4911	2.7001	-0.2759	-0.1702	1.4091	-0.6289	-1.0141	-0.6002	-0.1809
-4.7425	2.3735	8.0213	-0.0776	0.2228	0.0981	0.4101	-1.0906	-1.6999	2.2502	2.3204	9.5825	-0.4678	0.7376	0.0291	0.2221	-0.1981	-0.7925	9.372	2.9844	-0.5639	-0.1705	1.2873	-0.6299	-1.0616	-0.6009	-0.1641
-4.6756	2.1355	8.3757	-0.1116	0.0392	0.0945	0.4456	-1.0538	-1.6799	2.2467	2.4347	9.4072	-0.2835	0.7386	-0.0642	0.2221	-0.1981	-0.7925	9.6589	2.9841	-0.387	-0.1676	1.3165	-0.5376	-1.063	-0.6591	-0.2015
-4.979	2.3708	8.2507	-0.1406	0.1304	0.1276	0.3758	-1.1073	-1.6858	2.1895	2.3772	9.4059	-0.4403	0.9243	0.12	0.2281	-0.2041	-0.7865	9.3792	3.0984	-0.1632	-0.2615	1.2864	-0.5657	-1.0628	-0.6588	-0.1838
-5.1638	2.4324	8.0132	-0.1126	-0.0219	0.0932	0.3913	-1.0709	-1.7004	2.6472	2.0887	9.3548	-0.4093	0.8931	0.0585	0.2221	-0.2041	-0.7985	9.2659	2.8711	-0.1655	-0.1028	1.3456	-0.4471	-1.0145	-0.6382	-0.1644
-4.9856	2.5503	7.8981	-0.0765	0.2531	0.1602	0.4302	-1.0902	-1.6654	2.239	2.4329	8.9972	-0.3418	0.6788	0.2131	0.2281	-0.1981	-0.7805	9.0914	2.9848	-0.3974	-0.4138	1.1937	-0.4697	-1.0308	-0.6393	-0.2003
-5.4017	1.8476	8.1331	-0.1449	-0.0832	0.0615	0.4292	-1.0908	-1.6821	2.4215	2.6652	9.5873	-0.4742	1.0153	-0.034	0.2221	-0.2161	-0.7985	9.2134	2.8713	0.0624	-0.4464	1.2555	-0.5297	-0.999	-0.6571	-0.1647
-4.9229	2.257	8.0196	-0.0824	-0.0828	0.1223	0.3941	-1.0886	-1.6674	2.014	2.5493	9.2276	-0.5337	0.9222	-0.0024	0.2221	-0.2041	-0.7985	9.2109	3.2124	-0.0518	-0.6085	1.0455	-0.7416	-1.0763	-0.5434	-0.1449
-4.9849	2.0834	7.904	-0.1415	0.0385	0.1871	0.4302	-1.0902	-1.6654	2.1888	2.7798	9.4077	-0.4412	0.9867	0.1811	0.2161	-0.1981	-0.7985	9.4318	3.0982	-0.3911	-0.6373	1.1054	-0.6788	-1.0464	-0.6389	-0.165
-5.3964	1.8439	8.4251	-0.171	0.0068	0.3713	0.4127	-1.1277	-1.6844	2.0199	2.3205	9.5195	-0.5645	0.9219	-0.0022	0.2221	-0.2041	-0.7925	9.5528	2.8709	0.0115	-0.6637	1.0728	-0.5247	-1.0782	-0.6396	-0.1657
-5.2215	2.1392	8.1326	0.0439	0.1018	0.0939	0.374	-1.089	-1.702	2.0155	2.3195	9.2852	-0.5643	0.954	0.1205	0.2281	-0.2101	-0.7925	9.3277	3.0418	0.1219	-0.5968	1.1619	-0.3723	-1.0457	-0.6006	-0.1638
-4.7443	2.1998	7.9067	-0.2029	0.0992	0.1277	0.4451	-1.0928	-1.7146	2.0722	2.6645	9.2878	-0.5339	0.8901	-0.1251	0.2221	-0.1981	-0.7805	9.612	3.4396	0.1846	-0.441	1.192	-0.346	-1.0147	-0.6571	-0.1472
-4.981	2.3139	8.1346	-0.1413	0.1307	0.0661	0.4099	-1.11	-1.7173	2.3035	2.0892	9.3482	-0.4432	0.9841	-0.0954	0.2101	-0.2101	-0.7985	8.8739	2.8718	0.1134	-0.5304	1.0989	-0.2212	-1.0142	-0.6006	-0.1987
-4.9195	2.138	8.1963	0.165	-0.0805	0.15	0.4655	-1.0729	-1.6627	2.2535	2.3212	9.7582	-0.346	0.8322	0.0893	0.2161	-0.1981	-0.7865	9.1523	2.9849	-0.1674	-0.7185	0.9475	-0.2782	-1.0291	-0.5804	-0.1273
-5.046	1.9675	7.846	-0.1422	-0.0228	0.2166	0.4096	-1.0522	-1.682	2.19	2.0897	9.4046	-0.5612	0.7991	0.0907	0.2221	-0.2101	-0.7985	9.6001	2.9273	-0.5025	-0.5952	1.0698	-0.3116	-0.9815	-0.5797	-0.1441
-5.5183	2.195	8.3602	-0.0796	0.1621	0.0045	0.3933	-1.0697	-1.6668	2.4206	2.5499	9.5282	-0.4401	0.8928	0.0587	0.2342	-0.2041	-0.7805	9.093	3.3261	-0.2827	-0.4706	1.3133	-0.3134	-1.078	-0.6392	-0.1479
-4.9251	2.3752	7.9014	-0.1093	0.0997	0.2188	0.3915	-1.0514	-1.683	2.3536	2.4327	8.9994	-0.346	0.8322	0.0893	0.2101	-0.2041	-0.7865	9.6663	2.8707	0.0135	-0.4023	1.2798	-0.1006	-1.062	-0.6016	-0.1997
-4.8714	2.4378	7.5513	-0.2056	0.0388	-0.0273	0.3787	-1.125	-1.6529	2.646	2.8363	9.3582	-0.3802	0.9865	0.0885	0.2221	-0.2101	-0.7925	8.9848	3.2696	0.0013	-0.5637	1.2524	-0.3111	-1.0455	-0.6187	-0.1111
-4.9205	2.0804	8.1386	-0.1403	0.1917	0.0674	0.4488	-1.1293	-1.6823	1.8952	2.4334	8.9906	-0.4426	0.9214	-0.1873	0.2342	-0.2161	-0.7805	9.3266	3.0987	0.0647	-0.6282	1.345	-0.4006	-1.0137	-0.5811	-0.1803
-4.7974	2.3699	8.3123	0.0136	0.1013	0.1558	0.397	-1.1063	-1.6345	2.2478	2.4349	9.4658	-0.4682	0.8006	0.1516	0.2161	-0.2041	-0.7925	9.2093	2.7574	-0.1666	-0.441	1.192	-0.346	-1.0299	-0.6375	-0.1114
-4.9264	2.4926	7.8415	-0.0791	0.1926	0.0052	0.4132	-1.0888	-1.6496	2.3035	2.7221	9.4096	-0.4102	0.8919	-0.0644	0.2161	-0.1921	-0.7925	9.2218	2.8148	0.5202	-0.5657	1.2228	-0.3728	-1.0464	-0.6204	-0.2
-4.9808	2.1389	8.1368	-0.2052	-0.0537	0.1552	0.4284	-1.0719	-1.6815	1.8491	2.3211	9.5748	-0.343	0.6455	-0.0326	0.2161	-0.1921	-0.7985	9.4983	2.7573	0.1248	-0.159	1.0686	-0.2325	-1.0298	-0.6002	-0.1635
-4.6831	2.199	7.9662	-0.0786	0.0694	0.2485	0.448	-1.1104	-1.6817	2.4732	2.0309	9.2341	-0.2544	0.8638	0.0578	0.2221	-0.1921	-0.7925	9.1565	2.9851	0.0615	-0.2417	1.0029	0.1074	-1.0623	-0.6208	-0.2003
-4.6198	2.2551	8.1417	-0.1706	0.0682	0.3112	0.3949	-1.1075	-1.668	2.5385	2.5505	9.7062	-0.4998	0.7994	0.0596	0.2281	-0.2101	-0.7985	9.3865	3.0987	0.2374	-0.0867	1.0942	0.1035	-1.046	-0.6197	-0.1644
-4.9193	1.963	8.1985	-0.2649	0.0679	0.1586	0.3596	-1.1248	-1.6707	1.7856	2.78	9.2828	-0.4408	0.8919	-0.0335	0.2281	-0.2101	-0.7865	9.035	3.5536	-0.3408	-0.0935	1.006	-0.1121	-1.0299	-0.6191	-0.1463
-4.9186	2.254	8.2532	-0.1119	0.1008	-0.0272	0.3954	-1.0685	-1.6333	2.2419	2.6637	9.1739	-0.5006	0.83	0.0287	0.2221	-0.1921	-0.7805	9.3225	3.0416	-0.1643	0.1282	1.0952	0.0357	-1.0465	-0.6577	-0.1479
-5.1051	1.9085	7.9041	-0.1431	0.1006	-0.0575	0.4106	-1.1289	-1.7179	2.2411	2.4909	9.1146	-0.4381	0.7683	-0.0327	0.2221	-0.1981	-0.7865	9.4927	3.0414	-0.1612	0.1535	1.0978	-0.1495	-1.0464	-0.6204	-0.2
-4.9804	2.6634	8.1886	-0.141	0.1305	0.0969	0.3926	-1.1281	-1.7189	2.1318	1.9745	9.3444	-0.4361	0.7391	0.1518	0.2281	-0.2041	-0.8045	9.153	3.2693	-0.11	-0.1156	1.1542	0.1663	-1.0134	-0.5804	-0.1448
-4.9769	2.3694	8.3675	-0.0475	0.1619	0.1271	0.3939	-1.1081	-1.6848	1.9538	2.3186	9.0497	-0.4082	0.831	0.0282	0.2161	-0.2041	-0.7805	9.1528	2.5869	-0.1678	-0.5038	1.2228	-0.3746	-1.0298	-0.6002	-0.1635
-4.9173	2.0782	8.3138	-0.1094	0.1306	0.158	0.3921	-1.0898	-1.701	2.3655	2.5505	9.6443	-0.4115	0.9856	0.0273	0.2281	-0.2041	-0.7745	9.3883	3.3263	0.3521	-0.2204	1.2512	-0.2292	-1.0296	-0.6184	-0.1108
-5.2231	2.4901	8.0698	-0.0172	0.0086	0.3079	0.3923	-1.0703	-1.6836	2.413	2.4906	9.1179	-0.4718	0.9231	0.028	0.2101	-0.2041	-0.8045	9.3161	3.1551	-0.5076	-0.1612	1.283	-0.3229	-1.0306	-0.6389	-0.1825
-5.2111	2.2486	8.7151	0.016	0.2848	0.0982	0.3962	-1.0874	-1.6339	2.0747	2.4925	9.4042	-0.4386	0.7995	-0.0022	0.2101	-0.2041	-0.7985	9.2696	3.3262	0.0638	0.0943	1.0661	-0.0558	-1.0457	-0.6006	-0.1638
-5.2806	2.0802	8.1907	-0.1101	0.1308	0.0965	0.3573	-1.0681	-1.6689	2.5861	2.4331	9.1795	-0.6233	0.8297	0.1216	0.2221	-0.2041	-0.7925	9.7222	2.7569	-0.0427	0.122	1.22	-0.1783	-1.013	-0.5612	-0.1442
-5.043	2.082	8.0197	-0.1363	0.3131	0.2545	0.3581	-1.087	-1.6695	2.3576	2.0309	9.1733	-0.4993	0.8318	0.2131	0.2221	-0.1921	-0.8105	9.4918	2.9845	-0.2184	0.2784	1.1583	-0.122	-1.0308	-0.6762	-0.1304
-4.6806	2.7221	8.1348	-0.0783	0.1616	0.1275	0.4137	-1.1271	-1.6676	2.3076	2.2628	9.5833	-0.4099	0.8922	-0.0336	0.2221	-0.1921	-0.7925	9.2729	3.1557	0.2354	0.0301	1.25	-0.1445	-1.0454	-0.5814	-0.1632
-5.0462	2.0842	7.8445	-0.1742	0.0081	0.0639	0.4085	-1.0528	-1.6988	2.4212	2.2048	9.5267	-0.5308	0.8306	0.1211	0.2161	-0.2041	-0.7865	9.4925	3.2689	-0.161	0.0321	1.2795	-0.0829	-1.0306	-0.6389	-0.1825
-4.6811	2.3143	8.0815	-0.2023	0.0374	0.2801	0.3931	-1.0892	-1.6842	2.4786	2.1472	9.5275	-0.563	0.8603	0.0289	0.2161	-0.2041	-0.7805	9.2652	3.4966	-0.165	-0.0626	1.3108	-0.1413	-0.9993	-0.6762	-0.1653
-4.7977	1.8453	8.2605	-0.1699	0.1294	0.2817	0.4135	-1.1466	-1.6849	1.9042	2.3205	9.4587	-0.7174	0.8585	-0.0009	0.2161	-0.2041	-0.7985	9.1547	3.6106	0.0047	-0.0373	1.283	-0.3266	-1.0296	-0.5814	-0.1807
-4.9256	1.9674	7.8481	-0.0161	0.1927	0.1274	0.3933	-1.0697	-1.6668	1.9613	2.4354	9.4603	-0.4361	0.7073	0.0598	0.2342	-0.1921	-0.7805	9.0374	3.2694	-0.2265	0.1605	1.2469	0.0666	-1.0459	-0.6009	-0.1816
-4.8561	2.0774	8.3733	0.1083	0.1629	0.2482	0.3562	-1.0687	-1.6857	2.3045	2.147	9.407	-0.4678	0.8012	0.2131	0.2161	-0.2101	-0.8045	9.1514	2.8712	-0.2248	-0.184	1.1877	-0.0465	-1.0772	-0.5636	-0.1988
-4.9781	1.7288	8.2588	0.046	0.1932	0.1574	0.373	-1.0896	-1.7188	2.0703	2.4914	9.1699	-0.6859	0.8279	-0.0009	0.2041	-0.2041	-0.7925	9.5591	2.8711	0.3548	0.0869	1.4048	-0.3294	-1.0313	-0.6957	-0.1488
-4.9777	2.195	8.3113	-0.046	0.1305	0.3109	0.3583	-1.0675	-1.6521	2.1266	2.4336	9.1121	-0.5013	0.8292	-0.0635	0.2221	-0.1921	-0.7745	9.3811	3.2122	-0.0486	-0.0365	1.2521	-0.2962	-1.0137	-0.5811	-0.1803
-5.0401	2.2549	8.1927	-0.018	0.0397	0.1856	0.4124	-1.0699	-1.649	2.2524	2.3209	9.6996	-0.4053	0.7076	0.0596	0.2342	-0.1921	-0.7865	8.9895	2.8717	0.23	-0.1992	1.1338	-0.5381	-0.9988	-0.6383	-0.1818
-4.9788	2.2541	8.2522	-0.2028	0.0684	0.1886	0.3931	-1.0892	-1.6842	2.5949	2.4351	9.6482	-0.4678	0.7376	0.0291	0.2281	-0.1861	-0.7985	9.3218	2.7572	-0.2217	-0.2833	1.2212	-0.2583	-1.0142	-0.6006	-0.1987
-4.9802	2.4883	8.1908	-0.1717	0.1609	0.0672	0.4294	-1.0713	-1.6648	2.187	1.9164	9.2281	-0.3802	0.9547	-0.0035	0.2161	-0.1981	-0.7865	9.0964	3.1557	-0.1111	-0.1315	1.1617	-0.3555	-1.0301	-0.6009	-0.199
-4.6743	1.9597	8.4363	-0.0814	0.0398	0.0326	0.4117	-1.1283	-1.7011	2.4189	2.2618	9.4098	-0.3473	0.9258	0.1809	0.2221	-0.1981	-0.7805	9.3788	3.4396	-0.1629	-0.6934	1.1636	-0.4923	-1.0296	-0.5999	-0.1457
-4.7974	2.4282	8.3115	-0.0449	0.3146	0.1304	0.4156	-1.1454	-1.6514	2.2388	2.5479	8.9977	-0.4405	0.924	0.0893	0.2281	-0.2041	-0.7925	9.2646	3.0985	-0.2225	-0.7199	1.1006	-0.3384	-1.0626	-0.64	-0.2009
-5.1592	2.1376	8.2505	0.0151	0.0699	0.3396	0.4289	-1.1102	-1.6995	2.3597	2.0889	9.2907	-0.437	0.7061	-0.0631	0.2342	-0.2041	-0.7865	8.9818	3.1558	-0.1704	-0.4451	1.072	-0.4698	-1.045	-0.5807	-0.1277
-4.6219	2.2566	8.0249	-0.0175	0.0703	0.1863	0.4307	-1.1285	-1.6833	2.1823	2.0879	8.9945	-0.282	0.7089	0.0589	0.2281	-0.1921	-0.7745	9.6118	2.7571	0.1269	-0.0305	1.0665	-0.0827	-1.0934	-0.6016	-0.1648
-4.9274	2.4934	7.7831	-0.0782	0.1922	0.0974	0.3769	-1.1067	-1.6691	2.0117	2.6063	9.1107	-0.4984	0.7376	0.06	0.2221	-0.1981	-0.7865	9.5485	3.0413	-0.2173	0.433	1.0975	-0.1271	-1.0294	-0.5811	-0.1629
-5.1011	2.139	8.1347	-0.1707	0.099	0.2503	0.3607	-1.1242	-1.6539	2.588	2.6061	9.2975	-0.4379	0.7686	-0.002	0.2221	-0.2041	-0.7925	9.441	3.2123	0.1241	0.2055	1.2244	-0.488	-0.9829	-0.6194	-0.2165
-5.1623	2.0815	8.076	-0.2628	0.1901	0.1612	0.3921	-1.0898	-1.701	2.1914	2.5503	9.5238	-0.4374	0.7691	0.0594	0.2281	-0.1921	-0.8045	9.0967	2.8713	-0.1113	0.0261	1.1604	-0.2681	-1.0301	-0.6009	-0.199
-5.1606	2.3718	8.1891	-0.1378	0.2215	0.2526	0.4454	-1.0733	-1.6973	2.6464	2.6063	9.3571	-0.5621	0.8297	0.0598	0.2041	-0.1921	-0.7865	8.9809	3.0988	-0.2277	-0.2235	1.1308	-0.3223	-1.0462	-0.6201	-0.1822
-4.9261	2.3175	7.8437	-0.1087	0.1918	0.1285	0.4305	-1.148	-1.7007	2.0734	2.6072	9.3461	-0.3771	0.8634	0.1507	0.2221	-0.2041	-0.7985	9.4946	3.269	-0.0465	-0.2516	0.8551	-0.2007	-1.0128	-0.5609	-0.1264
-5.1009	1.9639	8.1369	-0.0826	-0.052	0.0614	0.4679	-1.1295	-1.6645	2.3658	2.378	9.6435	-0.4055	0.7391	0.1209	0.2221	-0.2101	-0.7925	9.2084	3.5536	-0.166	-0.4969	1.0063	-0.1307	-1.0628	-0.6403	-0.2187
-5.4683	2.6684	7.8298	0.0133	0.1014	0.125	0.431	-1.1091	-1.666	2.3034	2.7796	9.4099	-0.1622	0.8326	-0.0655	0.2221	-0.2041	-0.7925	8.978	2.8712	-0.3996	-0.3445	0.8551	-0.198	-1.0296	-0.5814	-0.1807
-5.2214	2.0224	8.1341	-0.0477	0.2235	0.0054	0.3936	-1.1275	-1.7022	2.3666	2.5508	9.7029	-0.1642	0.9572	0.026	0.2101	-0.2041	-0.8045	9.3226	2.9847	-0.1643	-0.1272	0.733	-0.1747	-0.9819	-0.5804	-0.1797
-4.4433	2.0827	7.9135	-0.1084	0.1917	0.1593	0.4475	-1.0721	-1.6637	2.0724	2.5495	9.2873	-0.4086	0.7986	-0.1253	0.2161	-0.1861	-0.8045	9.7807	3.0412	0.073	-0.3391	0.7611	-0.0145	-0.9981	-0.5999	-0.1806
-5.3441	2.1992	8.013	-0.1113	0.039	0.1253	0.3578	-1.1065	-1.6869	2.3022	2.8369	9.3516	-0.3808	1.0174	0.0884	0.2281	-0.1981	-0.7925	9.2623	3.3259	-0.3368	-0.1265	0.946	-0.173	-1.0607	-0.5622	-0.1451
-5.4045	2.3743	8.0097	-0.0451	0.2224	0.2514	0.4098	-1.0327	-1.6646	2.133	1.9172	9.4027	-0.5029	0.9225	-0.0025	0.2342	-0.2041	-0.7985	9.7823	2.5863	0.1299	-0.1283	0.9773	-0.2342	-0.9981	-0.5999	-0.1806
-5.1614	2.1975	8.1329	-0.0493	-0.145	0.428	0.4261	-1.0926	-1.7325	1.907	2.6088	9.6357	-0.4738	1.0158	0.0275	0.2101	-0.2041	-0.7925	9.1502	2.9849	-0.2819	-0.1873	1.0064	-0.14	-1.0296	-0.5814	-0.1807
-4.7444	2.2582	7.906	0.136	0.0107	0.1831	0.3769	-1.1067	-1.6691	2.072	2.7795	9.2883	-0.4993	0.8	0.1211	0.2281	-0.1921	-0.8045	9.265	2.7573	-0.2228	-0.4729	1.1924	-0.3758	-1.0301	-0.6194	-0.1641
-4.9813	2.489	8.1324	0.0114	0.0099	0.0923	0.3949	-1.1075	-1.668	2.1255	2.4333	9.0536	-0.4077	0.7998	-0.0024	0.2161	-0.1981	-0.7985	9.8329	3.3253	-0.1547	-0.4996	1.038	-0.2226	-1.046	-0.6197	-0.1644
-5.1033	2.1405	8.0179	-0.0465	0.1615	0.2194	0.3758	-1.1073	-1.6858	2.5909	2.204	9.4128	-0.5038	0.9531	-0.0334	0.2161	-0.2041	-0.7985	9.3226	2.9847	-0.1643	-0.7164	1.0075	-0.2163	-1.03	-0.6006	-0.1813
-4.9787	2.1958	8.2529	0.0499	0.4069	0.1927	0.39	-1.091	-1.7345	2.1927	2.4355	9.5819	-0.4399	0.8613	-0.0025	0.2221	-0.2041	-0.7985	9.2142	3.042	0.1198	-0.9003	1.0066	-0.1494	-1.0625	-0.6396	-0.1831
-5.1054	2.1419	7.9011	0.1435	0.4998	0.1321	0.3581	-1.087	-1.6695	2.4168	2.2038	9.2923	-0.5901	0.6742	-0.0006	0.2161	-0.1921	-0.7865	9.3223	3.1553	-0.1642	-0.7721	0.9131	-0.0003	-1.0149	-0.6389	-0.1999
-4.6838	1.9663	7.9107	0.0159	0.2541	0.1283	0.3952	-1.088	-1.6507	2.6509	2.5498	9.5912	-0.4082	0.831	0.0282	0.2221	-0.2041	-0.7745	9.4998	3.2692	0.2397	-0.7048	1.124	0.153	-1.0789	-0.6595	-0.2019
-4.9209	2.3722	8.135	0.0149	0.1007	0.2788	0.3905	-1.052	-1.6998	2.3029	2.4343	9.3498	-0.4368	0.7382	0.0596	0.2281	-0.1981	-0.7985	9.2605	3.0415	-0.4515	-0.7039	1.1236	0.1837	-1.0144	-0.6194	-0.1816
-5.0412	2.314	8.1336	-0.0162	0.2235	0.0666	0.4119	-1.1089	-1.6838	2.1277	2.4338	9.1707	-0.3796	0.892	-0.0953	0.2221	-0.1921	-0.7925	9.2761	3.099	0.407	-0.6798	1.0353	-0.0328	-1.0616	-0.6009	-0.1641
-4.9249	2.2001	7.9036	0.1057	0.164	0.0022	0.4302	-1.0902	-1.6654	2.4152	2.4911	9.2351	-0.6224	0.7991	0.1525	0.2101	-0.2041	-0.8045	9.1488	3.2692	-0.3389	-0.6454	1.2166	0.0598	-1.0467	-0.6581	-0.1657
-4.9883	2.2607	7.7266	0.202	0.2249	0.2484	0.4137	-1.1271	-1.6676	2.3017	2.4916	9.2914	-0.5581	0.6442	0.0609	0.2342	-0.1861	-0.7805	9.4358	3.2121	-0.1621	-0.3991	1.0954	0.0207	-1.0938	-0.6208	-0.1654
-4.9863	2.3176	7.8426	-0.1425	-0.0226	0.1858	0.4323	-1.089	-1.6318	2.3024	2.089	9.2896	-0.714	0.7039	0	0.2221	-0.1981	-0.7925	8.9845	2.7009	-0.0563	-0.4001	1.0654	-0.0102	-0.9826	-0.6187	-0.1809
-4.9216	2.0811	8.0802	0.0442	0.1632	0.0337	0.4318	-1.1279	-1.6665	2.481	2.0327	9.6442	-0.688	0.9839	0.1518	0.2221	-0.2041	-0.8165	9.3774	2.8708	-0.2778	-0.4673	1.1898	-0.1916	-1.0315	-0.6776	-0.2015
-5.2288	2.0859	7.7245	-0.1067	0.2525	0.2221	0.4101	-1.0906	-1.6999	2.0757	2.5502	9.463	-0.6242	0.8603	0.0907	0.2221	-0.1921	-0.7925	9.438	3.0984	-0.0477	-0.3757	1.0685	-0.226	-1.0777	-0.6016	-0.1822
-5.1032	2.0821	8.0187	0.1689	0.1332	0.1853	0.3777	-1.1256	-1.6696	2.013	2.4915	9.1688	-0.623	0.8618	0.2444	0.2101	-0.1981	-0.7985	8.8724	3.2129	0.0564	-0.3401	1.0663	-0.0735	-0.9828	-0.6191	-0.1987
-4.7398	1.9634	8.1433	0.0455	0.1012	0.2477	0.3604	-1.1436	-1.6713	2.185	2.4337	9.1718	-0.4383	0.7998	0.0285	0.2101	-0.1981	-0.8045	9.3274	3.2693	0.1221	-0.3459	1.0081	-0.2581	-1.0614	-0.5821	-0.1813
-4.8039	2.491	7.9604	-0.2366	0.0078	0.0031	0.4294	-1.0713	-1.6648	2.1829	2.3757	9.0544	-0.1923	0.8332	0.0269	0.2101	-0.2161	-0.8105	8.9864	2.8147	0.0582	-0.1779	1.0325	0.1672	-1.0296	-0.6184	-0.1108
-5.225	2.3748	7.9545	-0.0507	0.0094	0.0623	0.3763	-1.0683	-1.6511	2.4773	2.262	9.4694	-0.3769	0.8319	0.0894	0.2221	-0.2101	-0.7925	8.98	2.9851	-0.285	-0.0543	0.9412	0.1628	-1.0137	-0.5995	-0.1454
-5.0368	2.1944	8.3686	-0.2317	0.1288	0.2825	0.4292	-1.0908	-1.6821	2.1401	2.2641	9.8143	-0.4969	0.6761	0.0911	0.2221	-0.1981	-0.7985	9.5455	2.8705	-0.3892	-0.1267	0.8851	-0.1735	-1.0462	-0.6201	-0.1822
-4.9138	2.6005	8.5408	-0.3274	-0.0555	0.2797	0.3941	-1.0886	-1.6674	2.1916	2.4353	9.5233	-0.2849	0.7687	-0.1565	0.2161	-0.2041	-0.7925	9.4937	3.0983	-0.1039	-0.3918	0.7263	0.2941	-1.0312	-0.6585	-0.2009
-5.2252	2.4916	7.953	-0.018	0.255	-0.148	0.4817	-1.0554	-1.6779	2.2441	2.6642	9.2911	-0.223	0.8014	-0.0342	0.1981	-0.1981	-0.7925	9.4921	2.7001	-0.2186	-0.4202	0.6337	0.3864	-1.0772	-0.5821	-0.1639
-4.5578	2.4286	8.2574	-0.2003	0.3135	0.0401	0.4127	-1.1277	-1.6844	2.0694	2.3761	9.1108	-0.3438	0.7398	0.1205	0.2221	-0.2101	-0.7985	9.4391	3.0985	0.0095	-0.5175	0.7271	0.2364	-1.0303	-0.6382	-0.1469
-4.979	1.6129	8.2018	-0.2313	0.344	-0.0204	0.3936	-1.1275	-1.7022	2.0216	2.6086	9.6379	-0.4086	0.8622	0.0587	0.2221	-0.2221	-0.7925	9.2677	3.0986	-0.0508	-0.4019	0.792	-0.0431	-1.0946	-0.6595	-0.1844
-4.9887	2.5525	7.7229	-0.0469	0.2539	0.0368	0.3929	-1.1087	-1.7016	2.3015	2.6066	9.2919	-0.3454	0.7377	-0.0946	0.2161	-0.1981	-0.7865	9.1515	2.7574	-0.2249	-0.4325	0.6089	-0.0129	-1.0467	-0.6581	-0.1657
-4.6236	1.9079	7.9125	-0.1759	-0.0527	0.0011	0.3549	-1.0115	-1.6671	2.012	2.4338	9.1099	-0.468	0.7691	0.0904	0.2221	-0.2041	-0.7805	9.0974	3.1557	-0.0539	-0.4243	0.8185	0.2343	-1.0139	-0.5999	-0.1632
-4.9262	2.3759	7.843	-0.0799	0.0699	0.1255	0.4135	-1.1466	-1.6849	2.3099	2.2058	9.7002	-0.5024	0.9231	0.0589	0.2161	-0.2101	-0.7805	9.2693	2.6437	0.0061	-0.3968	0.9115	0.1113	-1.0294	-0.5811	-0.1629
-4.9783	1.9039	8.2566	-0.1114	0.0699	0.0644	0.4096	-1.0522	-1.682	2.194	2.3208	9.6399	-0.3771	0.768	-0.1253	0.2221	-0.1981	-0.7985	9.2644	3.2691	-0.2224	-0.4887	0.9415	0.1451	-1.0626	-0.64	-0.2009
-5.2264	2.609	7.8931	-0.0796	0.0698	0.1563	0.3576	-1.126	-1.7042	2.0154	2.377	9.2854	-0.4088	0.8301	-0.064	0.2281	-0.2041	-0.8045	9.1521	3.1556	-0.1673	-0.2059	0.7568	0.2888	-1.0294	-0.5811	-0.1629
-4.6871	2.0269	7.7348	-0.2969	0.0988	0.0059	0.3967	-1.1258	-1.6518	2.1226	2.2025	8.8768	-0.4082	0.831	0.0282	0.2281	-0.1981	-0.7985	9.2015	3.212	-0.5669	-0.3012	0.8798	0.2004	-1.0628	-0.6588	-0.1838
-4.9799	2.2548	8.1938	-0.1742	0.0081	0.0639	0.4111	-1.09	-1.6832	2.478	2.4923	9.5291	-0.5002	0.8306	0.0902	0.2101	-0.1981	-0.7925	9.4981	2.9279	0.1249	-0.3566	0.8767	0.4171	-1.0289	-0.5615	-0.1445
-5.2206	2.2552	8.1895	-0.2328	0.0985	0.2203	0.3599	-1.1053	-1.6533	2.4207	2.4924	9.528	-0.4384	0.768	-0.0635	0.2161	-0.2101	-0.8045	9.2603	3.2121	-0.4513	-0.3573	0.938	0.3869	-1.0303	-0.6382	-0.1469
-5.0378	2.1367	8.311	0.0133	0.1014	0.125	0.397	-1.1063	-1.6345	2.298	2.7208	9.1167	-0.4687	0.7682	-0.0018	0.2101	-0.1921	-0.7925	8.9217	3.3263	-0.3431	-0.4238	0.9706	0.2355	-1.0298	-0.5818	-0.1984
-4.9275	1.7937	7.7335	-0.1394	0.2222	0.0988	0.3581	-1.087	-1.6695	2.302	2.319	9.2907	-0.5587	0.7387	0.2447	0.2221	-0.1921	-0.7865	8.9249	3.2696	-0.1714	-0.1763	1.2451	0.1996	-1.0616	-0.6194	-0.1292
-4.8037	2.3743	7.9619	-0.1388	0.2219	0.1603	0.3957	-1.1263	-1.6686	1.7858	2.665	9.2823	-0.7162	0.8281	0.0607	0.2221	-0.2281	-0.7805	8.9784	3.44	-0.3419	-0.1732	1.0303	0.3207	-1.0305	-0.6386	-0.1647
-4.8007	2.4888	8.1356	0.0107	-0.1129	0.2127	0.4122	-1.0894	-1.6664	2.3112	2.7239	9.8197	-0.5019	0.9237	0.1204	0.2101	-0.1921	-0.7985	8.9811	2.8714	-0.2279	-0.3071	1.0959	-0.0128	-1.0464	-0.6204	-0.2
-4.9249	2.2001	7.9036	0.0434	0.1328	0.0023	0.4289	-1.1102	-1.6995	1.8949	2.606	8.9913	-0.5002	0.8306	0.0902	0.2342	-0.2101	-0.7805	9.8901	2.984	-0.1539	-0.4613	1.0041	0.0218	-1.0462	-0.6386	-0.1473
-4.3123	2.0752	8.4996	-0.0164	0.1929	0.0967	0.3578	-1.1065	-1.6869	2.1302	2.2618	9.2871	-0.4383	0.7998	0.0285	0.2101	-0.2041	-0.7865	8.9809	3.0988	-0.2277	-0.7391	0.9427	0.0604	-1.0455	-0.5818	-0.181
-5.1052	2.0252	7.9026	-0.1391	0.222	0.1296	0.357	-1.0876	-1.6863	2.1388	2.3789	9.7563	-0.5026	0.9228	0.0282	0.2101	-0.1861	-0.7925	9.9466	3.2114	-0.1527	-0.4959	1.0363	-0.0998	-1.0606	-0.5619	-0.1274
-4.921	2.4306	8.1342	-0.1135	-0.0523	0.0618	0.4294	-1.0713	-1.6648	2.4743	2.0887	9.2929	-0.4707	0.9246	0.1816	0.2101	-0.2101	-0.8045	9.3857	2.8712	0.18	-0.4294	1.0037	0.0516	-1.0461	-0.6013	-0.1994
-5.2807	2.1969	8.1892	-0.172	0.0995	0.1273	0.3926	-1.1281	-1.7189	2.0187	2.3778	9.4612	-0.5922	0.8303	0.1522	0.2161	-0.2161	-0.7805	9.376	3.0983	-0.3349	-0.4728	0.9181	-0.3472	-1.0455	-0.6002	-0.146
-4.4986	2.4293	8.2	-0.1087	0.1918	0.1285	0.3921	-1.0898	-1.701	2.0213	2.1483	9.5773	-0.5024	0.9231	0.0589	0.2221	-0.1981	-0.7925	8.8678	2.7578	-0.2301	-0.4114	1.0707	-0.3786	-1.0782	-0.6396	-0.1657
-5.5862	1.6757	7.8985	-0.1401	0.1609	0.1283	0.4299	-1.0323	-1.6301	2.2958	2.7203	8.9996	-0.409	0.8616	-0.0027	0.2281	-0.2041	-0.7985	9.5487	2.8707	-0.2175	-0.3144	0.8555	-0.2296	-1.0299	-0.6191	-0.1463
-5.101	2.0223	8.1362	-0.1074	0.2528	0.1606	0.4284	-1.0719	-1.6815	2.6455	2.491	9.298	-0.6539	0.7661	-0.0315	0.2161	-0.2101	-0.7805	9.2635	3.1553	-0.2797	-0.2164	1.0055	-0.0777	-1.0306	-0.6389	-0.1825
-4.9199	2.4299	8.1926	-0.1393	0.1298	0.2506	0.374	-1.089	-1.702	2.3601	2.4917	9.3511	-0.4696	0.8625	0.1513	0.2281	-0.1921	-0.7925	9.1542	3.0988	-0.0529	-0.2189	1.1286	-0.1688	-1.0294	-0.5811	-0.1629
-5.2173	2.1362	8.3662	-0.0472	0.2541	0.0061	0.4472	-1.0916	-1.6811	2.539	2.2629	9.7049	-0.5916	0.7994	0.1524	0.2161	-0.1981	-0.7805	9.4928	2.9845	-0.1612	-0.1883	1.0068	-0.1707	-1.0457	-0.6006	-0.1638
-4.918	1.7871	8.2591	-0.0766	0.2839	0.0994	0.3941	-1.0886	-1.6674	2.4187	2.3769	9.4103	-0.2844	0.7692	-0.0951	0.2402	-0.1981	-0.7985	9.2129	3.2694	0.0627	-0.1842	1.0964	-0.0472	-1.0453	-0.5999	-0.1283
-5.2841	2.3158	8.0125	-0.2628	0.2516	0.0703	0.3931	-1.0892	-1.6842	2.6397	2.6622	9.0059	-0.4075	0.7365	-0.1556	0.2281	-0.1921	-0.7925	9.4381	2.9847	-0.0478	-0.4571	1.1241	0.1456	-1.0787	-0.6591	-0.1841
-4.8029	1.7906	7.9692	-0.0182	0.1629	-0.027	0.465	-1.1118	-1.6974	2.1848	2.5487	9.1723	-0.4734	0.9528	-0.0951	0.2161	-0.2161	-0.7925	9.491	2.757	-0.2758	-0.275	0.882	0.046	-1.0139	-0.5814	-0.1981
-5.1648	2.3747	7.9555	0.0131	0.0707	0.1551	0.3751	-1.0884	-1.6852	1.8393	2.9517	9.109	-0.5326	0.8601	-0.0327	0.2342	-0.2101	-0.7925	9.4886	3.0412	-0.3901	-0.4961	0.9754	-0.1003	-1.0778	-0.6204	-0.1651
-4.9796	2.0214	8.1967	-0.0159	0.1619	0.1882	0.3903	-1.0715	-1.7172	1.9613	2.4354	9.4603	-0.5299	0.7682	0.06	0.2101	-0.1801	-0.7865	9.257	3.3257	-0.623	-0.0895	1.0956	0.0114	-1.0141	-0.6002	-0.1809
-4.9282	2.2606	7.7276	-0.0453	0.2532	0.1906	0.4122	-1.0894	-1.6664	2.1299	2.4343	9.2879	-0.3472	0.8625	0.0276	0.2161	-0.2041	-0.7925	9.5999	3.0979	-0.5024	-0.3116	0.8542	-0.1375	-1.0779	-0.6019	-0.2
-5.2245	1.9663	7.9596	-0.0807	0.0395	0.0941	0.4111	-1.09	-1.6832	1.9039	2.493	9.4595	-0.3454	0.8013	0.0894	0.2221	-0.2161	-0.8045	9.1576	2.8714	0.1186	-0.2243	0.8873	-0.3242	-1.0623	-0.6393	-0.1654
-5.099	2.1375	8.2515	-0.2042	0.0997	0.0047	0.4459	-1.1116	-1.7152	2.299	2.1457	9.1141	-0.5308	0.8306	0.1211	0.2041	-0.2041	-0.8045	9.2686	3.2693	0.0066	-0.2538	0.7647	-0.2628	-1.0625	-0.6211	-0.2181
-4.6802	2.3719	8.1392	-0.2053	-0.0229	0.0943	0.3933	-1.0697	-1.6668	2.7651	2.0892	9.5328	-0.5648	0.8898	-0.1249	0.2101	-0.2041	-0.8045	8.6382	3.156	-0.3484	-0.2557	0.7351	-0.3245	-1.046	-0.6197	-0.1644
-4.9755	2.1352	8.4288	-0.1135	-0.0523	0.0618	0.3732	-1.0701	-1.7014	2.5315	2.779	9.3557	-0.6207	0.6742	0.0304	0.2221	-0.2041	-0.8045	9.3246	2.9848	-0.0499	-0.1974	0.7978	-0.4486	-1.0301	-0.6009	-0.199
-4.7416	2.4894	8.0783	-0.1709	0.1298	0.1895	0.4323	-1.1663	-1.6845	2.2445	2.4341	9.2901	-0.4061	0.77	0.1207	0.2221	-0.2041	-0.8045	9.1513	2.9849	-0.2247	-0.3493	0.7964	-0.3519	-1.0144	-0.6194	-0.1816
-4.748	1.7942	7.6783	-0.202	0.1911	0.0682	0.3748	-1.1079	-1.7026	2.5894	2.4338	9.3553	-0.4072	0.8322	0.1511	0.2101	-0.1981	-0.8045	9.3223	3.2122	-0.1641	-0.2518	1.099	-0.2295	-1.0452	-0.581	-0.1454
-4.8627	2.2569	8.0207	-0.0469	0.1924	0.1278	0.4111	-1.09	-1.6832	2.0728	2.3194	9.2863	-0.4678	0.7376	0.0291	0.2221	-0.1981	-0.7985	9.1524	2.8712	-0.1675	-0.1591	1.0382	-0.2328	-1.0137	-0.5995	-0.1454
-5.1029	1.907	8.0209	-0.0165	0.2237	0.0358	0.3944	-1.0691	-1.6501	1.8943	2.3181	8.9315	-0.4099	0.8922	-0.0336	0.2161	-0.1981	-0.7865	9.5477	2.8138	-0.2747	-0.028	1.2482	-0.0199	-1.0459	-0.5825	-0.2165
-5.1713	2.4375	7.6044	0.043	0.0714	0.0625	0.3926	-1.1281	-1.7189	2.5353	2.4922	9.5302	-0.4693	0.8627	0.182	0.2281	-0.1921	-0.7865	8.8141	2.758	-0.0594	-0.0707	1.1013	-0.3885	-1.0781	-0.6581	-0.1308
-4.7483	2.7857	7.7242	0.0114	-0.0516	0.1833	0.3758	-1.1073	-1.6858	2.0178	2.2625	9.4021	-0.3798	0.9235	-0.034	0.2221	-0.1981	-0.7985	9.4957	3.2121	0.0107	-0.0099	1.3456	-0.4499	-1.0461	-0.6013	-0.1994
-5.1635	2.1989	8.0161	-0.0162	0.2235	0.0666	0.4318	-1.1279	-1.6665	1.8432	1.917	9.2215	-0.4683	0.737	-0.0324	0.2281	-0.2041	-0.7865	9.4918	2.9845	-0.2184	-0.3183	1.4364	-0.4092	-1.0149	-0.6389	-0.1999
-4.9177	2.37	8.3102	-0.1088	0.1303	0.2195	0.3916	-1.1287	-1.7357	1.9589	2.5499	9.3437	-0.6226	0.7988	0.1218	0.2342	-0.2101	-0.7925	9.4418	2.5299	0.1236	-0.3377	1.2176	-0.0109	-1.0303	-0.6382	-0.1469
-4.6675	2.4215	8.8392	0.2331	0.3789	0.036	0.3581	-1.087	-1.6695	2.1817	2.4329	8.9961	-0.4097	0.8925	-0.0029	0.2221	-0.1921	-0.7925	9.271	2.985	0.1208	-0.3029	1.2463	0.1112	-1.0139	-0.5999	-0.1632
-4.9296	2.5532	7.6656	0.0153	0.2236	0.1277	0.43	-1.1096	-1.6827	2.0721	2.722	9.2881	-0.472	0.9228	-0.0027	0.2161	-0.1861	-0.7925	9.6062	3.0981	-0.159	-0.219	1.0677	-0.1693	-1.0301	-0.6194	-0.1641
-4.9156	2.3686	8.427	-0.1089	0.1611	0.1586	0.4122	-1.0894	-1.6664	2.4185	2.4919	9.4108	-0.4101	0.9237	0.0276	0.2221	-0.1921	-0.7985	9.8331	3.2116	-0.1548	-1.0935	1.0404	-0.3892	-1.0296	-0.5999	-0.1457
-5.3451	2.1999	7.9546	0.0143	0.1625	0.1264	0.4096	-1.0522	-1.682	2.3612	2.492	9.4097	-0.5918	0.7991	0.1216	0.2221	-0.1921	-0.7925	9.4936	2.359	-0.1617	-1.2194	0.95	-0.4476	-1.0462	-0.6386	-0.1473
-5.3951	2.4261	8.5346	-0.1427	0.0082	0.125	0.3795	-1.1438	-1.6535	2.3103	2.6087	9.7606	-0.535	0.9522	-0.0947	0.2161	-0.2161	-0.8045	9.3218	2.7572	-0.2217	-0.8167	1.0414	-0.4589	-1.0306	-0.6389	-0.1825
-4.7454	2.2006	7.8483	-0.203	0.0377	0.2186	0.4887	-1.148	-1.6305	2.1865	2.8368	9.2908	-0.5938	0.8918	0.1211	0.2041	-0.1981	-0.7925	9.1542	3.1556	-0.0529	-0.041	1.0104	-0.4209	-1.0454	-0.5814	-0.1632
-4.9883	2.2607	7.7266	0.0139	0.1011	0.1865	0.3931	-1.0892	-1.6842	2.4758	2.4918	9.4119	-0.5321	0.8606	0.0287	0.2161	-0.1921	-0.7925	8.9845	2.644	-0.0564	0.1984	1.3801	-0.7324	-0.9821	-0.5992	-0.1625
-5.2247	2.1414	7.9574	-0.0468	0.1616	0.1886	0.4318	-1.1279	-1.6665	2.081	2.6665	9.7564	-0.468	0.7691	0.0904	0.2342	-0.1921	-0.7985	9.0976	3.042	-0.054	0.2309	1.5623	-0.7012	-1.0625	-0.6396	-0.1831
-5.0441	2.1411	7.9606	-0.2008	0.1291	0.2821	0.425	-1.0931	-1.7492	2.0768	2.5505	9.5216	-0.502	0.8283	-0.1556	0.2101	-0.1981	-0.7805	9.326	2.7574	0.0072	0.3572	1.4697	-0.6135	-1.0616	-0.6009	-0.1641
-5.0959	2.1353	8.4267	0.138	0.1329	0.1857	0.4294	-1.0713	-1.6648	2.5926	2.4921	9.5313	-0.4656	0.677	0.1523	0.2281	-0.2101	-0.7805	9.3176	2.757	-0.4507	0.3334	1.3444	-0.368	-1.0142	-0.6191	-0.1638
-4.9183	2.7786	8.305	-0.0148	0.1922	0.2504	0.4111	-1.09	-1.6832	2.0708	2.2039	9.1686	-0.4074	0.8637	0.2124	0.2221	-0.1921	-0.7925	9.2022	3.4964	-0.5094	0.1139	1.3457	-0.4536	-1.0308	-0.6393	-0.2003
-5.0476	2.3768	7.7824	0.015	0.1622	0.1879	0.4088	-1.0333	-1.6814	2.1308	2.5496	9.347	-0.3159	0.8316	-0.0031	0.2101	-0.1981	-0.7925	9.8895	2.6428	-0.2114	-0.0091	1.3148	-0.4194	-1.0306	-0.6389	-0.1825
-4.9855	2.492	7.8988	-0.0202	0.0407	-0.0296	0.3941	-1.0886	-1.6674	1.7948	2.552	9.7504	-0.3452	0.7698	0.0282	0.2281	-0.1981	-0.7985	9.6633	2.8137	-0.1582	-0.0443	1.1643	-0.5425	-1.0303	-0.6198	-0.1819
-5.0402	2.3717	8.1912	-0.264	0.1598	0.099	0.3959	-1.1069	-1.6513	2.5912	2.6644	9.4735	-0.4689	0.8633	0.2434	0.2161	-0.1981	-0.8105	8.9812	2.8145	-0.2279	-0.0961	1.0682	-0.2037	-1.0303	-0.6198	-0.1819
-5.2228	2.315	8.072	-0.0497	0.009	0.1546	0.3771	-1.0872	-1.6517	1.8973	2.4915	9.108	-0.376	0.8013	0.1204	0.2221	-0.1921	-0.7805	9.1554	2.9851	0.0042	-0.0343	1.0378	-0.2058	-1.0139	-0.5999	-0.1632
-4.6831	2.199	7.9662	0.1058	0.1331	0.0631	0.4093	-1.0717	-1.6994	2.3047	2.6649	9.4679	-0.5293	0.7373	0.0602	0.2342	-0.1981	-0.7985	9.3801	3.1553	-0.1059	0.2092	0.9179	-0.3369	-1.03	-0.6006	-0.1813
-4.8002	2.1386	8.14	-0.0468	0.2231	0.0977	0.4137	-1.1271	-1.6676	2.3074	2.3778	9.5838	-0.2864	0.862	-0.0956	0.2161	-0.1921	-0.7985	9.3777	3.4396	-0.2202	-0.1364	1.103	-0.5095	-1.0467	-0.6396	-0.2006
-4.9787	2.1374	8.2536	0.0474	0.2542	0.1894	0.3905	-1.052	-1.6998	2.0235	2.1488	9.6944	-0.4059	0.7385	0.0594	0.2041	-0.1861	-0.8045	9.4454	2.985	0.3529	0.1495	1.0387	-0.2727	-1.0623	-0.6393	-0.1654
-5.1638	2.4324	8.0132	0.0152	0.2544	0.0668	0.4124	-1.0699	-1.649	2.1859	2.549	9.2309	-0.4694	0.7992	-0.002	0.2221	-0.1981	-0.7865	9.5526	3.0983	0.0116	0.2076	1.0101	-0.3976	-1.0619	-0.6201	-0.1648
-5.4048	2.5494	8.0075	-0.1111	0.0697	0.0952	0.4119	-1.1089	-1.6838	2.249	2.3777	9.5241	-0.4385	0.8313	0.0898	0.2402	-0.1981	-0.7985	9.1545	2.9282	-0.053	-0.1606	0.856	-0.2649	-1.0465	-0.6393	-0.1828
-5.0454	2.2586	7.9007	-0.0763	0.2838	0.1301	0.3929	-1.1087	-1.7016	2.4181	2.089	9.3504	-0.4365	0.7385	0.0904	0.2221	-0.2041	-0.7925	9.4959	2.9847	0.0105	-0.3088	0.8529	-0.0454	-1.0944	-0.6776	-0.1317
-5.4583	2.37	8.359	0.043	0.0099	0.1534	0.43	-1.1096	-1.6827	2.3648	2.3202	9.5847	-0.4721	0.8592	-0.1867	0.2101	-0.2041	-0.7925	9.6083	3.0982	-0.0446	-0.4385	0.7946	-0.2264	-1.0308	-0.6577	-0.1653
-4.9808	2.1389	8.1368	-0.1071	0.2526	0.1913	0.3789	-1.1055	-1.6355	1.9565	2.6644	9.227	-0.563	0.8603	0.0289	0.2281	-0.2101	-0.7925	8.8082	3.3833	-0.3451	-0.6598	0.8271	-0.3731	-1.0145	-0.6382	-0.1644
-5.0424	2.4315	8.0737	0.015	0.1622	0.1879	0.4292	-1.0908	-1.6821	1.955	2.2613	9.1081	-0.4377	0.7371	-0.0633	0.2221	-0.2041	-0.7985	9.6092	3.1551	0.0127	-0.6206	0.7623	-0.0982	-1.0144	-0.6379	-0.1466
-5.2819	2.256	8.1301	-0.1416	0.1308	0.0354	0.4101	-1.0906	-1.6999	2.4758	2.4918	9.4119	-0.4705	0.8295	-0.0636	0.2161	-0.2041	-0.8045	9.1614	3.2128	0.3478	-0.533	0.8563	-0.2845	-1.0141	-0.6002	-0.1809
-5.3497	2.4363	7.718	0.0163	0.2232	0.2199	0.414	-1.1077	-1.6502	2.5295	2.6635	9.238	-0.4386	0.7995	-0.0022	0.2281	-0.1921	-0.8165	9.3215	2.9847	-0.2216	-0.0025	1.0069	-0.1762	-1.0303	-0.6382	-0.1469
-5.0432	2.2571	8.0175	0.0436	0.0097	0.2149	0.4274	-1.0725	-1.6983	2.3039	2.4921	9.4086	-0.5907	0.737	0.0913	0.2101	-0.2101	-0.8105	9.2693	2.6437	0.0061	0.4385	1.034	0.0566	-1.0296	-0.5814	-0.1807
-5.224	2.3741	8.0129	0.2322	0.164	0.2774	0.4117	-1.1283	-1.7011	2.5251	2.6624	9.0037	-0.4687	0.8	0.0902	0.2221	-0.2041	-0.8045	8.9242	3.042	-0.2288	0.4092	0.9723	0.1184	-0.9978	-0.5807	-0.18
-4.9822	2.4314	8.0748	0.1079	0.1015	0.3084	0.4137	-1.1271	-1.6676	2.0761	2.3202	9.462	-0.4986	0.7691	0.1213	0.2221	-0.1981	-0.8105	9.2711	2.9282	0.1208	0.2177	1.2187	-0.0889	-1.0149	-0.6574	-0.165
-4.7449	2.6084	7.9016	-0.0474	0.0695	0.2789	0.3758	-1.1073	-1.6858	2.1354	2.4356	9.5808	-0.374	0.7085	0.1209	0.2281	-0.1981	-0.8045	9.435	3.0414	-0.2194	0.0574	0.9774	-0.2397	-0.9975	-0.5616	-0.1794
-5.2223	1.9648	8.0764	-0.0775	0.192	0.1589	0.391	-1.0904	-1.7177	2.0188	2.3203	9.4609	-0.4115	0.9856	0.0273	0.2281	-0.2041	-0.7865	9.2611	3.4396	-0.3939	-0.0993	0.9478	-0.2967	-1.0299	-0.6191	-0.1463
-4.9724	2.1914	8.6033	-0.079	0.008	0.3087	0.4462	-1.0922	-1.6979	2.6432	2.548	9.1811	-0.4692	0.7994	0.0287	0.2221	-0.2101	-0.8045	9.2063	2.6435	-0.3384	-0.0951	0.7934	-0.1444	-1.0455	-0.6002	-0.146
-4.7442	2.0831	7.9082	0.0121	0.0711	0.0629	0.3923	-1.0703	-1.6836	2.5272	2.03	9.0594	-0.5317	0.8612	0.0902	0.2342	-0.2101	-0.7985	8.8119	2.8716	-0.1738	0.1229	0.9148	-0.1193	-1.0457	-0.6006	-0.1638
-5.3472	2.143	7.8385	-0.1125	-0.0527	0.154	0.4451	-1.0928	-1.7146	2.2501	2.3779	9.5827	-0.3489	0.9238	-0.0342	0.2041	-0.1921	-0.7925	9.3214	3.0416	-0.2215	0.12	0.8857	-0.2116	-1.0289	-0.58	-0.1096
-4.7996	2.4881	8.194	-0.1398	0.1608	0.159	0.4117	-1.1283	-1.7011	2.1326	2.1473	9.4037	-0.4397	0.8298	-0.0638	0.2101	-0.1981	-0.8105	9.4317	3.155	-0.391	-0.108	0.8909	-0.5735	-1.0306	-0.6389	-0.1825
-5.2216	2.1975	8.1319	0.0435	0.102	0.0632	0.3774	-1.145	-1.687	2.3018	2.434	9.2912	-0.315	0.8328	0.1198	0.2402	-0.1981	-0.7985	8.9891	3.2129	0.2302	-0.0689	0.7956	-0.2989	-1.0625	-0.6211	-0.2181
-5.3427	2.723	8.1232	0.1384	0.1943	0.1255	0.3933	-1.0697	-1.6668	2.0736	2.4922	9.3456	-0.4993	0.8	0.1211	0.2101	-0.2101	-0.7985	9.4976	3.326	0.1252	-0.2426	0.729	0.1053	-1.0614	-0.6006	-0.1464
-5.3491	2.0277	7.7232	-0.1116	0.0392	0.0945	0.4104	-1.0711	-1.6826	2.0157	2.2045	9.2846	-0.4068	0.7692	0.0285	0.2281	-0.2101	-0.8045	9.4993	2.8142	0.1821	-0.3069	0.5777	0.0445	-1.0305	-0.6201	-0.1997
-5.1637	2.3157	8.0147	-0.0194	0.0096	0.0927	0.3763	-1.0683	-1.6511	2.3667	1.8604	9.6412	-0.2547	0.8635	0.0271	0.2101	-0.2101	-0.7925	9.3821	3.2691	0.0086	-0.1585	0.6112	-0.1747	-1.0456	-0.5633	-0.2159
-5.1647	2.258	7.957	0.0113	0.1022	-0.0594	0.3774	-1.145	-1.687	2.2969	2.7206	9.0581	-0.378	0.8304	-0.0642	0.2221	-0.1921	-0.8045	9.1559	2.587	0.0039	-0.4356	0.5189	-0.1057	-1.0457	-0.6006	-0.1638
-4.9859	2.7838	7.8952	0.013	0.163	0.0034	0.4114	-1.0705	-1.6658	2.0197	2.4356	9.52	-0.47	0.8619	0.0898	0.1981	-0.2041	-0.7865	9.3797	2.7003	-0.1635	-0.5264	0.5789	-0.0411	-1.0303	-0.6198	-0.1819
-4.9787	2.1374	8.2536	-0.0155	0.2848	0.0371	0.3696	-1.0335	-1.7338	2.4797	2.1475	9.5861	-0.4374	0.8009	0.1514	0.2101	-0.2041	-0.7985	9.1519	3.3262	-0.1672	-0.3757	0.7638	-0.1977	-1.0461	-0.6013	-0.1994
-5.1686	2.0275	7.7263	0.1038	0.0725	-0.0305	0.3913	-1.0709	-1.7004	1.8444	2.4926	9.3412	-0.4388	0.831	0.0591	0.2041	-0.2101	-0.7985	9.3783	2.9278	-0.2206	-0.3712	0.7007	-0.0447	-1.0144	-0.6194	-0.1816
-5.5214	2.1388	8.1857	-0.015	0.1	0.3714	0.3748	-1.1079	-1.7026	2.0745	2.6075	9.4047	-0.2527	0.7071	-0.1564	0.2221	-0.1981	-0.7985	9.3824	2.9848	0.0084	-0.2493	0.7016	-0.1098	-1.0303	-0.6198	-0.1819
-4.7441	2.7827	7.9578	0.0754	0.1634	0.0641	0.4318	-1.1279	-1.6665	2.0819	2.1489	9.7541	-0.4694	0.8309	0.09	0.2161	-0.2041	-0.7925	8.8106	3.0991	-0.2308	-0.177	0.6968	0.226	-1.0303	-0.6198	-0.1819
-4.8646	2.0833	7.9061	-0.0161	0.1927	0.1274	0.3931	-1.0892	-1.6842	2.3044	2.2045	9.4073	-0.2525	0.771	0.0584	0.2342	-0.1981	-0.7865	8.9803	3.5538	-0.2274	-0.4342	0.6402	-0.0741	-1.0459	-0.6009	-0.1816
-4.7477	2.3188	7.7301	-0.0809	0.0088	0.1242	0.3578	-1.1065	-1.6869	1.7838	2.4919	9.1644	-0.5007	0.7983	-0.0633	0.2342	-0.2041	-0.7925	9.5507	2.9276	-0.103	-0.2154	0.7307	-0.0184	-1.0139	-0.5999	-0.1632
-4.9262	2.3759	7.843	-0.083	-0.1749	0.2125	0.3944	-1.1464	-1.7027	2.2989	2.2032	9.1144	-0.5337	0.9222	-0.0024	0.2281	-0.1921	-0.7865	8.9747	3.0417	-0.5712	-0.4096	0.7346	-0.2892	-1.0303	-0.6198	-0.1819
-4.7953	2.4268	8.4283	-0.2036	0.0995	0.0662	0.3947	-1.1269	-1.6854	2.31	2.1483	9.6999	-0.4095	0.9246	0.1198	0.2221	-0.2041	-0.7865	9.3848	2.7574	0.1227	-0.3114	0.9151	-0.137	-1.078	-0.6208	-0.1829
-5.224	2.3741	8.0129	0.0166	0.223	0.2507	0.3714	-1.0518	-1.7176	2.0717	2.3192	9.2277	-0.3152	0.8007	-0.0029	0.2161	-0.1981	-0.7925	9.3803	3.0416	-0.106	-0.2845	0.8255	-0.2614	-1.0772	-0.5636	-0.1988
-4.6786	2.021	8.202	0.0739	0.0102	0.1531	0.3916	-1.1287	-1.7357	2.4783	2.3198	9.5283	-0.409	0.8934	0.0893	0.2221	-0.2101	-0.7865	8.9821	2.9283	-0.1706	-0.0697	0.8265	-0.3293	-1.0298	-0.6002	-0.1635
-4.565	2.317	7.85	0.0152	0.1006	0.3095	0.4127	-1.1277	-1.6844	2.4745	2.6066	9.3538	-0.5343	0.9849	0.0895	0.2221	-0.1981	-0.7925	9.1532	3.0987	-0.1101	0.2419	0.8562	-0.2769	-1.0457	-0.6006	-0.1638
-5.2787	2.2538	8.3053	0.0462	0.1624	0.2182	0.3944	-1.0691	-1.6501	2.2422	2.4911	9.1732	-0.5637	0.8595	-0.0633	0.2342	-0.1981	-0.7925	8.9254	2.8715	-0.1717	0.0326	1.1269	-0.0534	-1.0149	-0.6389	-0.1999
-5.2295	2.5528	7.7187	-0.0169	0.1008	0.1869	0.3758	-1.1073	-1.6858	2.1286	2.5491	9.2298	-0.2795	0.6167	0.1209	0.2161	-0.2041	-0.7985	9.3226	2.9847	-0.1643	0.2803	1.1574	-0.0606	-1.0299	-0.6191	-0.1463
-4.926	2.2592	7.8444	-0.0171	0.1316	0.1261	0.3586	-1.1254	-1.6875	1.847	2.2631	9.4573	-0.4112	0.9859	0.058	0.2221	-0.1921	-0.7985	9.659	2.8704	-0.3871	0.2509	1.0348	0.0008	-1.0623	-0.6393	-0.1654
-4.6179	2.4287	8.2563	0.0763	0.1938	0.0955	0.4478	-1.1299	-1.6991	2.019	2.2053	9.4604	-0.5022	0.8916	-0.0024	0.2041	-0.1981	-0.8105	9.606	2.3588	-0.2168	0.1624	0.9413	0.1563	-1.0461	-0.6013	-0.1994
-4.8606	2.2554	8.1375	0.1108	0.2541	0.3424	0.3949	-1.1075	-1.668	1.9661	2.2064	9.6936	-0.3789	0.8928	-0.0031	0.2281	-0.2041	-0.8045	9.3813	3.0416	-0.0488	-0.1183	0.8812	0.1028	-1.0306	-0.6574	-0.1476
-5.2274	1.7934	7.7866	-0.0158	0.0696	0.34	0.4307	-1.1285	-1.6833	2.3594	2.2614	9.2915	-0.3755	0.7701	0.0898	0.2101	-0.2101	-0.8045	9.4354	2.6433	-0.2197	-0.1879	0.8238	-0.1414	-1.0614	-0.6006	-0.1464
-5.1046	2.3747	7.9566	0.0133	0.1629	0.0341	0.3929	-1.1087	-1.7016	2.3505	2.3169	8.8231	-0.4647	0.6463	0.1833	0.2221	-0.2161	-0.7925	9.5451	3.2118	-0.3889	-0.188	0.7934	-0.1417	-1.0132	-0.5616	-0.1619
-4.9213	2.664	8.1313	-0.0483	0.07	0.1866	0.3761	-1.0878	-1.6685	2.4183	2.6069	9.4113	-0.4399	0.8931	0.0895	0.2221	-0.1981	-0.7925	9.7742	3.2116	-0.2703	-0.0959	0.8547	-0.1747	-1.0614	-0.5821	-0.1813
-4.9861	2.1425	7.8448	0.0741	-0.0514	0.2747	0.3947	-1.1269	-1.6854	2.419	2.2043	9.4095	-0.5912	0.7364	0.0298	0.2221	-0.1981	-0.7985	9.3198	2.7003	-0.3362	-0.156	0.8234	-0.1117	-1.0151	-0.6578	-0.1828
-4.9227	2.1402	8.0211	0.3547	0.1657	0.1837	0.3949	-1.1075	-1.668	2.0701	2.6065	9.1704	-0.5317	0.8612	0.0902	0.2281	-0.2101	-0.7925	9.719	2.8136	-0.2144	-0.0011	0.5491	-0.0878	-1.0306	-0.6389	-0.1825
-4.5574	2.1952	8.2603	0.2305	0.1647	0.1237	0.4488	-1.1293	-1.6823	2.5891	1.916	9.2944	-0.4046	0.6767	0.0598	0.2041	-0.1861	-0.7985	9.0894	2.9279	-0.5119	-0.2178	0.8538	-0.1096	-1.0782	-0.6396	-0.1657
-5.0473	2.1433	7.7854	0.0715	-0.1118	0.1197	0.3936	-1.1275	-1.7022	2.3021	2.2615	9.2904	-0.5002	0.7988	-0.0018	0.2281	-0.1921	-0.7865	9.5578	3.0417	0.2977	-0.2224	0.8864	-0.2628	-1.0298	-0.6002	-0.1635
-4.8625	2.1402	8.0222	0.0759	0.0709	0.2466	0.4137	-1.1271	-1.6676	2.3009	2.3188	9.2321	-0.5598	0.7691	0.1831	0.2281	-0.2041	-0.7985	9.152	3.2124	-0.1673	-0.2867	1.0399	-0.3518	-1.0144	-0.6194	-0.1816
-5.1564	2.3689	8.4227	-0.1096	0.0999	0.1881	0.4098	-1.0327	-1.6646	2.4194	2.6072	9.4699	-0.5027	0.891	-0.0638	0.2221	-0.1921	-0.7925	9.5523	3.2689	0.0118	-0.1899	1.099	-0.2314	-1.0618	-0.6013	-0.1819
-4.9163	2.0775	8.3722	0.0491	0.315	0.2522	0.3751	-1.0884	-1.6852	1.9614	2.3779	9.4601	-0.5321	0.8606	0.0287	0.2281	-0.2041	-0.7985	9.327	2.7574	0.0644	-0.2523	0.9164	-0.2309	-1.0303	-0.6382	-0.1469
-4.8046	2.2583	7.9049	-0.08	-0.0531	0.3074	0.4326	-1.1468	-1.6671	2.417	2.7217	9.3532	-0.502	0.8919	0.0284	0.2161	-0.2161	-0.8045	9.1516	3.5536	-0.167	-0.0688	1.1004	-0.3271	-1.0464	-0.6389	-0.165
-4.9798	2.1965	8.1945	0.0111	0.01	0.0616	0.3748	-1.1079	-1.7026	2.3593	2.3189	9.2918	-0.3758	0.7698	0.0591	0.2161	-0.1861	-0.7865	8.9748	2.928	-0.5712	0.2061	1.1327	-0.458	-1.0305	-0.6201	-0.1997
-5.3409	2.197	8.1881	-0.0178	0.0089	0.2464	0.3766	-1.1262	-1.6864	1.908	2.7241	9.6948	-0.5938	0.8918	0.1211	0.2281	-0.1981	-0.7925	9.6115	3.0415	0.1271	0.2367	1.011	-0.4599	-1.046	-0.6197	-0.1644
-4.9233	2.5488	8.016	-0.0154	0.1925	0.1889	0.4106	-1.0516	-1.6652	2.3057	2.0898	9.4654	-0.4995	0.8315	0.1824	0.2281	-0.1921	-0.7925	9.1492	2.9279	-0.3392	0.5155	1.0719	-0.4678	-1.0139	-0.5999	-0.1632
-4.7416	2.4894	8.0783	-0.0161	0.1312	0.2183	0.3941	-1.0886	-1.6674	2.527	2.8355	9.1216	-0.6235	0.8612	0.1829	0.2281	-0.2101	-0.8045	8.9827	3.3264	-0.1131	0.4308	1.2814	-0.2177	-1.0763	-0.5434	-0.1449
-4.8606	2.3138	8.1368	-0.0483	0.07	0.1866	0.43	-1.1096	-1.6827	2.5851	2.3753	9.1207	-0.5945	0.8909	0.0289	0.2101	-0.1981	-0.7745	9.654	2.7564	-0.6733	0.5206	1.1915	-0.3133	-1.0457	-0.6006	-0.1638
-4.8647	2.2	7.9046	-0.0175	0.1626	0.0345	0.4122	-1.0894	-1.6664	2.3064	2.9529	9.5864	-0.6281	1.0458	0.0896	0.2221	-0.1861	-0.7985	9.0958	2.8144	-0.1686	0.5133	1.2558	-0.5584	-1.0458	-0.6194	-0.1467
-5.2219	2.431	8.1289	0.4175	0.2274	0.1842	0.4295	-1.1486	-1.7175	2.065	2.3751	8.8765	-0.6268	1.0157	0.182	0.2221	-0.2041	-0.7925	9.0319	3.4966	-0.5125	0.3882	1.1649	-0.5861	-1.0149	-0.6574	-0.165
-5.0455	2.3753	7.8992	0.1661	0.0421	0.0603	0.4318	-1.1279	-1.6665	2.4241	2.4357	9.7034	-0.72	1.0139	0.0904	0.2221	-0.1921	-0.7925	9.2083	3.6104	-0.1659	0.5133	1.2558	-0.5584	-1.0624	-0.6581	-0.1482
-4.9857	1.9091	7.8478	0.3259	0.2875	0.1867	0.3758	-1.1073	-1.6858	1.8431	2.6649	9.2834	-0.6223	0.8944	0.4285	0.2221	-0.2101	-0.7925	9.092	3.3261	-0.3399	0.2087	1.3753	-0.3947	-1.0312	-0.6585	-0.2009
-4.9282	2.319	7.7269	0.2016	0.2251	0.2176	0.3931	-1.0892	-1.6842	2.1324	2.2623	9.4043	-0.72	1.0139	0.0904	0.2161	-0.2101	-0.7925	9.5941	2.7564	-0.8461	0.4469	1.3493	-0.7093	-1.0459	-0.6009	-0.1816
-4.4396	2.4883	8.142	0.1362	0.1029	0.062	0.3952	-1.088	-1.6507	2.3558	2.4332	9.1165	-0.7472	0.8911	0.2142	0.2101	-0.1981	-0.7865	9.3749	2.3589	-0.4499	0.5985	1.229	-0.807	-1.0298	-0.6002	-0.1635
-5.2774	2.078	8.3659	0.1997	0.1644	0.1241	0.4472	-1.0916	-1.6811	2.244	2.0888	9.2299	-0.906	1.1377	0.3058	0.2342	-0.1861	-0.7925	9.3889	2.8145	0.3517	0.4089	1.2002	-0.9245	-1.0784	-0.6399	-0.1835
-4.9851	2.2002	7.9025	0.3231	0.0426	0.3044	0.4106	-1.0516	-1.6652	2.2993	2.6061	9.1748	-0.9384	1.1354	0.0909	0.2161	-0.1981	-0.7925	9.2655	3.2692	-0.1651	0.6906	1.2599	-0.8402	-1.0144	-0.6194	-0.1816
-4.8023	2.1401	8.0232	0.1376	0.0101	0.3368	0.431	-1.1091	-1.666	2.3627	2.2622	9.4672	-0.9641	0.9828	0.3378	0.2281	-0.1981	-0.7985	9.2137	3.44	0.1201	1.0517	1.2648	-1.189	-1.0303	-0.6382	-0.1469
-5.0972	2.3112	8.3661	0.1649	-0.2035	0.3318	0.3929	-1.1087	-1.7016	1.8942	2.3757	8.9317	-0.8424	0.982	0.122	0.2221	-0.2101	-0.8045	9.3198	2.6434	-0.3363	0.4924	1.2046	-1.2342	-0.9988	-0.6567	-0.1469
-4.9274	2.4934	7.7831	-0.0489	0.0394	0.186	0.3918	-1.1093	-1.7183	1.8955	2.2609	8.9898	-0.688	0.9839	0.1518	0.2281	-0.2101	-0.7925	9.2082	2.8142	-0.2238	0.4092	1.2915	-0.9238	-1.0306	-0.6389	-0.1825
-4.553	2.0755	8.4954	0.0405	-0.0198	-0.0317	0.432	-1.1085	-1.6492	1.894	2.4907	8.9322	-0.8415	0.9514	0.1529	0.2161	-0.2101	-0.7925	9.2651	2.7004	-0.2228	0.7912	1.3477	-0.5967	-1.046	-0.6382	-0.1295
-5.5238	2.3738	8.066	-0.0161	-0.0226	0.461	0.3748	-1.1079	-1.7026	2.022	2.3786	9.6369	-0.6889	1.0145	0.1209	0.2161	-0.2101	-0.7865	9.3226	2.9847	-0.1643	1.0122	1.5286	-0.479	-1.0626	-0.6584	-0.166
-5.0985	2.487	8.3055	0.1372	0.1025	0.1543	0.3769	-1.1067	-1.6691	2.0217	2.5511	9.6377	-0.8426	0.9817	0.0913	0.2281	-0.2101	-0.7865	9.6036	2.643	-0.3311	0.7818	1.6568	-0.932	-1.0142	-0.6191	-0.1638
-4.6274	2.377	7.7315	0.0105	-0.1435	0.2428	0.3769	-1.1067	-1.6691	2.3148	2.5522	9.9947	-0.749	0.9842	0.2444	0.2161	-0.1981	-0.7925	9.5478	2.7	-0.2748	0.3897	1.6664	-1.5962	-1.0141	-0.6002	-0.1809
-4.919	2.4875	8.2503	0.1057	-0.0514	0.3359	0.4119	-1.1089	-1.6838	2.3037	2.6071	9.4091	-0.7166	0.9547	0.3673	0.2221	-0.1981	-0.7865	9.1616	3.0422	0.3477	0.0769	1.8506	-1.7083	-1.0303	-0.6382	-0.1469
-4.8648	2.2584	7.9039	0.0433	-0.0517	0.2751	0.3568	-1.1071	-1.7036	2.3037	1.9742	9.3477	-0.5647	0.9534	0.0591	0.2161	-0.1981	-0.7925	9.6603	3.5529	-0.2721	-0.1057	1.6357	-1.5816	-1.0459	-0.6009	-0.1816
-4.9273	1.6186	7.7357	-0.047	0.1309	0.2187	0.4119	-1.1089	-1.6838	2.4178	2.8945	9.4126	-0.4099	0.924	0.0584	0.2221	-0.2041	-0.7985	9.7736	2.8703	-0.3278	0.1471	1.481	-1.4061	-1.0936	-0.6204	-0.1476
-4.9176	2.2533	8.3116	-0.3339	-0.2066	-0.0926	0.413	-1.1083	-1.667	2.4158	2.146	9.2335	-0.5305	0.8627	0.2438	0.2221	-0.2041	-0.7925	9.3784	2.8709	-0.2206	-0.3148	1.3578	-1.301	-1.0299	-0.6191	-0.1463
-4.9224	1.9068	8.024	-0.3917	-0.1473	0.1862	0.3602	-1.1631	-1.6886	2.074	2.2622	9.3446	-0.3797	0.9553	0.058	0.2342	-0.1981	-0.7985	9.375	2.2452	-0.45	-0.2879	1.2683	-1.4255	-1.0137	-0.5995	-0.1454
-4.742	2.0233	8.0257	-0.3304	0.0381	-0.1488	0.4292	-1.0908	-1.6821	1.9572	2.9522	9.2869	-0.4079	0.8313	0.0589	0.2161	-0.1921	-0.7985	9.2593	3.1551	-0.5086	-0.2035	1.2722	-1.7045	-1.0301	-0.6194	-0.1641
-5.097	2.1944	8.3676	-0.3266	0.1288	0.0684	0.4472	-1.0916	-1.6811	2.4716	2.3757	9.1771	-0.4417	0.9225	-0.0644	0.2161	-0.2101	-0.7865	9.3209	2.6434	-0.2791	-0.1135	1.2432	-1.7996	-1.0623	-0.6393	-0.1654
-4.9833	2.4321	8.0164	0.0081	-0.0503	-0.1242	0.4111	-1.09	-1.6832	2.2521	2.4935	9.7004	-0.3804	0.9544	-0.0342	0.2101	-0.1981	-0.7985	9.379	3.2121	-0.1631	-0.3353	1.4283	-1.9759	-1.0134	-0.5804	-0.1448
-4.754	2.3232	7.3797	-0.1136	-0.0215	0.001	0.3921	-1.0898	-1.701	2.4787	2.0897	9.5272	-0.4711	0.8922	0.0282	0.2221	-0.1981	-0.8045	9.2605	3.0983	-0.4514	-0.2473	1.3697	-2.1326	-1.0471	-0.6588	-0.2012
-5.0448	1.8501	7.9058	0.014	0.2241	0.0047	0.43	-1.1096	-1.6827	2.3565	2.6635	9.1761	-0.3489	0.9238	-0.0342	0.2342	-0.1981	-0.7925	9.553	2.7571	0.0114	-0.1875	1.2793	-2.1966	-1.0294	-0.5811	-0.1629
-4.9807	2.0805	8.1376	0.0748	0.2252	-0.0883	0.3947	-1.1269	-1.6854	2.4206	2.5499	9.5282	-0.5024	0.9549	0.1509	0.2161	-0.2101	-0.7865	9.3181	3.212	-0.3931	0.0008	1.4915	-2.1391	-1.0459	-0.6009	-0.1816
-5.0399	2.1382	8.1942	0.5665	0.0774	-0.0977	0.4156	-1.1454	-1.6514	2.4165	2.3763	9.2931	-0.4709	0.9561	0.2429	0.2041	-0.1801	-0.7925	9.5493	3.2119	-0.16	0.2627	1.5604	-2.6995	-1.0459	-0.6009	-0.1816
-4.9229	2.3153	8.0189	0.535	0.1389	-0.2497	0.3947	-1.1269	-1.6854	2.818	2.0881	9.2995	-0.3791	0.8925	-0.0338	0.2101	-0.1981	-0.7925	9.2638	2.9278	-0.2799	0.564	1.6253	-2.9845	-1.0464	-0.6389	-0.165
-5.2199	2.4879	8.245	0.5607	-0.074	-0.4084	0.4083	-1.0723	-1.7161	2.2988	2.8936	9.1761	-0.352	1.1104	0.0876	0.2161	-0.2041	-0.8105	9.3817	2.7573	-0.049	0.7983	1.845	-3.4507	-1.0453	-0.5999	-0.1283
-4.984	2.1994	7.9609	0.8055	0.1448	-0.9604	0.3725	-1.0512	-1.7008	2.1362	2.6084	9.6401	-0.5361	1.0461	0.0276	0.2101	-0.1981	-0.8045	9.4369	3.1552	-0.1049	0.6123	2.0888	-3.4739	-1.062	-0.6016	-0.1997
-5.099	2.1375	8.2515	1.6358	0.124	-1.2788	0.3929	-1.1087	-1.7016	2.3606	2.2042	9.3498	-0.6641	1.2613	0.0271	0.2281	-0.2041	-0.7925	9.2655	3.2692	-0.1651	0.6954	2.2763	-3.8129	-1.0144	-0.6379	-0.1466
-5.0412	2.314	8.1336	1.9151	0.1878	-1.2501	0.3751	-1.0884	-1.6852	2.0755	2.0324	9.4021	-0.8155	1.1996	0.2127	0.2221	-0.2041	-0.7985	9.4906	3.0982	-0.2756	1.306	2.5244	-4.1365	-1.0301	-0.6194	-0.1641
-5.1024	2.2565	8.0749	1.9161	0.1874	-1.1579	0.4655	-1.0729	-1.6627	2.2532	2.4937	9.759	-0.7261	1.3236	0.15	0.1981	-0.1921	-0.7985	8.9797	3.2125	-0.2849	1.7919	2.8337	-4.4866	-1.0149	-0.6389	-0.1999
-4.981	2.3139	8.1346	1.1129	-0.0976	-0.7234	0.4163	-1.1643	-1.652	1.9084	2.4365	9.6935	-0.7567	1.3554	0.2729	0.2522	-0.2041	-0.7925	9.832	3.2115	-0.212	1.3913	3.107	-4.4417	-1.0298	-0.5818	-0.1984
-5.3484	2.2605	7.7786	1.6746	0.0288	-0.3894	0.4093	-1.0717	-1.6994	2.0789	2.6085	9.639	-0.7889	1.3851	0.1808	0.2221	-0.1921	-0.7925	9.6666	3.4963	0.0713	1.0553	3.3791	-4.3065	-1.0625	-0.6396	-0.1831
-5.1608	2.5469	8.1869	1.1799	0.0547	-0.4749	0.3732	-1.0701	-1.7014	2.2451	2.0891	9.2885	-0.637	1.4156	-0.0354	0.2221	-0.2041	-0.7985	9.5529	2.814	0.0114	0.9976	3.5294	-4.1807	-1.0142	-0.6191	-0.1638
-4.8597	2.4298	8.1937	0.9588	-0.0993	-0.6908	0.4446	-1.0544	-1.6967	2.1848	2.5487	9.1723	-1.0646	1.3211	0.2442	0.2221	-0.2041	-0.7865	9.3187	2.7571	-0.3934	1.2098	3.8974	-4.3685	-1.0305	-0.6201	-0.1997
-5.2288	2.0859	7.7245	0.4569	-0.3472	-1.0282	0.3568	-1.1071	-1.7036	2.2438	2.2038	9.2305	-0.8838	1.5081	0.2113	0.2221	-0.1981	-0.7925	9.4891	3.4962	-0.3325	1.4102	4.0879	-4.926	-1.0465	-0.6393	-0.1828
-5.1043	2.1412	7.9595	0.4852	-0.4073	-1.1836	0.4268	-1.0341	-1.6804	1.784	2.3769	9.1638	-0.9138	1.4454	0.1504	0.2342	-0.2041	-0.7865	9.3212	3.2122	-0.2214	1.763	4.7064	-5.6077	-0.9992	-0.6574	-0.1825
-4.982	2.2563	8.077	0.4219	-0.4996	-1.1848	0.4323	-1.1663	-1.6845	2.2433	2.4914	9.2318	-1.0067	1.4757	0.1815	0.2221	-0.2101	-0.8045	9.3253	3.2692	0.0076	1.8087	4.9578	-6.1602	-0.967	-0.656	-0.1463
-5.0416	2.6058	8.1299	0.5482	-0.4687	-0.9704	0.3933	-1.0697	-1.6668	2.3599	2.6067	9.3516	-1.2813	1.3177	0.1226	0.2161	-0.1981	-0.8045	9.6029	3.2117	-0.3306	2.0124	5.2992	-6.6244	-1.0135	-0.5807	-0.1626
-5.2859	2.0838	7.8987	0.4826	-0.8369	-0.7623	0.3743	-1.0695	-1.6846	2.6469	2.3187	9.3558	-1.0356	1.3508	0.0902	0.2281	-0.2101	-0.7865	9.1438	3.0983	-0.6252	2.3369	5.2764	-7.1567	-1.0142	-0.6191	-0.1638
-5.3435	2.5486	8.067	0.455	-0.777	-0.5454	0.4284	-1.0719	-1.6815	2.1998	2.1495	9.9321	-0.6955	1.3237	0.1191	0.2221	-0.2041	-0.7925	9.7166	3.041	-0.3287	2.3306	5.3707	-7.3709	-1.0132	-0.58	-0.127
-5.1062	2.7256	7.8938	0.2419	-0.6882	-0.387	0.3921	-1.0898	-1.701	2.1822	2.7783	9.0562	-0.5707	1.1998	-0.0345	0.2281	-0.1861	-0.7985	9.2657	3.0417	-0.1653	1.8011	5.2197	-7.4484	-1.0301	-0.6194	-0.1641
-5.0433	2.3155	8.0168	0.2087	-0.7491	-0.5109	0.4127	-1.1277	-1.6844	2.0733	2.6647	9.3464	-0.7552	1.2303	0.12	0.2161	-0.1861	-0.7925	9.2598	3.667	-0.451	1.7882	4.9979	-6.8353	-1.0465	-0.6393	-0.1828
-4.7987	2.5457	8.2517	-0.1271	-0.6926	-0.2287	0.3939	-1.1081	-1.6848	2.0687	2.1458	9.0512	-0.4489	1.2626	-0.0663	0.2281	-0.1741	-0.7985	9.27	2.985	0.0636	1.8178	4.8766	-6.8678	-1.0476	-0.6783	-0.2196
-4.9874	2.3183	7.7842	-0.0992	-0.8141	-0.324	0.357	-1.0876	-1.6863	2.476	3.0097	9.4728	-0.3828	1.1101	0.0878	0.2101	-0.1921	-0.7925	9.3804	2.9847	-0.106	1.6911	4.8474	-6.9565	-1.0144	-0.6379	-0.1466
-5.0435	2.4322	8.0153	-0.069	-0.752	-0.4768	0.466	-1.1112	-1.6807	1.8454	1.9175	9.3386	-0.1946	0.9256	-0.0044	0.2281	-0.2041	-0.7985	9.149	3.1554	-0.339	1.7188	5.0014	-7.079	-0.9979	-0.618	-0.1279
-4.5006	2.314	8.0847	-0.2256	-0.845	-0.5383	0.3926	-1.1281	-1.7189	2.1921	2.1477	9.522	-0.1309	0.8335	-0.0042	0.2402	-0.1981	-0.7985	9.4918	2.9845	-0.2184	1.9506	4.7346	-7.5797	-1.031	-0.6581	-0.1831
-4.9217	2.1979	8.0788	-0.6566	-0.7269	-0.5919	0.3735	-1.0506	-1.6841	2.3623	3.1251	9.5297	-0.1026	0.8942	-0.1584	0.2161	-0.1981	-0.7985	8.9834	2.7577	-0.1135	1.9261	4.3963	-7.3359	-0.9983	-0.6187	-0.1635
-4.6209	2.2558	8.0833	-0.7812	-0.7892	-0.5916	0.4508	-1.1281	-1.6487	2.0692	2.4912	9.1113	-0.1591	0.6778	-0.0953	0.2161	-0.2041	-0.7865	9.4915	3.212	-0.2183	2.0872	4.302	-7.1263	-0.9978	-0.5992	-0.1451
-4.7399	2.0218	8.1425	-1.1164	-0.5792	-0.4906	0.356	-1.0882	-1.703	2.4798	2.7229	9.6473	0.0549	0.773	-0.0664	0.2281	-0.1981	-0.7985	9.2045	3.3259	-0.3951	2.5759	4.2907	-6.3421	-1.015	-0.6762	-0.1479
-4.682	2.1983	8.0246	-1.2757	-0.7941	-0.6163	0.3748	-1.1079	-1.7026	2.1365	2.4359	9.6394	0.271	0.7755	-0.0369	0.2221	-0.1921	-0.8045	9.2122	2.985	0.0053	2.7109	4.2551	-5.9777	-1.0149	-0.6389	-0.1999
-4.6266	2.5513	7.7877	-1.5192	-0.6751	-0.4569	0.3751	-1.0884	-1.6852	1.8441	2.0322	9.2806	0.3375	0.5282	-0.0973	0.2161	-0.2041	-0.7925	9.1415	3.3257	-0.7395	2.386	4.1258	-5.4466	-0.9992	-0.6574	-0.1825
-4.8657	2.1424	7.847	-2.1356	-0.5588	-0.5081	0.432	-1.1085	-1.6492	2.6546	2.3205	9.7659	0.3681	0.5282	-0.1282	0.2221	-0.1861	-0.7865	9.4227	2.8703	-0.9063	2.8149	4.1745	-4.5986	-1.0308	-0.6393	-0.2003
-4.9866	1.7931	7.7908	-2.2897	-0.5605	-0.4755	0.4145	-1.146	-1.6682	2.5274	2.6054	9.1206	0.5254	0.4385	0.025	0.2101	-0.2101	-0.7985	9.0332	3.3261	-0.4554	2.7426	4.1648	-3.9205	-1.0785	-0.6588	-0.1663
-4.3786	1.9046	8.1504	-2.3509	-0.4691	-0.565	0.3923	-1.0703	-1.6836	2.3043	2.262	9.4076	0.5551	0.4692	-0.0368	0.2221	-0.1981	-0.7925	9.4909	2.8138	-0.2758	2.6403	4.1243	-3.211	-0.968	-0.6951	-0.183
-5.3462	2.2006	7.8962	-2.537	-0.4399	-0.685	0.3939	-1.1081	-1.6848	2.4108	2.4901	9.0007	0.5275	0.3143	-0.0357	0.2221	-0.1921	-0.7925	9.151	3.2124	-0.2245	2.5286	4.0881	-2.8085	-1.0315	-0.6776	-0.2015
-5.3488	1.7943	7.7261	-2.4478	-0.4683	-0.9636	0.413	-1.1083	-1.667	2.2419	2.6637	9.1739	0.7489	0.0695	-0.0048	0.2281	-0.2101	-0.7925	9.1999	2.757	-0.6817	2.6317	4.0529	-2.4739	-1.0308	-0.6393	-0.2003
-5.0388	2.1375	8.2526	-2.4755	-0.3776	-0.8075	0.3947	-1.1269	-1.6854	2.3115	1.9185	9.7575	0.8083	0.1308	-0.1284	0.2281	-0.1921	-0.7985	9.3245	3.0986	-0.0498	2.4677	4.1036	-1.7618	-0.9993	-0.6762	-0.1653
-4.9892	2.0864	7.6704	-2.038	-0.2831	-0.4726	0.3936	-1.0502	-1.6495	2.1294	2.089	9.2277	1.0261	0.072	-0.0372	0.2342	-0.1921	-0.7745	9.2643	3.326	-0.2223	2.0186	3.8829	-1.2277	-1.0313	-0.6773	-0.1837
-5.1665	2.0844	7.8424	-2.1947	-0.2837	-0.6859	0.3923	-1.0703	-1.6836	2.5424	2.2062	9.8803	1.0909	-0.0822	-0.0674	0.2221	-0.2161	-0.7985	9.3276	3.1556	0.122	1.5622	3.7266	-0.9388	-1.0145	-0.6382	-0.1644
-5.1039	2.6074	8.0121	-2.2235	-0.1003	-0.7739	0.4124	-1.0699	-1.649	2.3037	2.6071	9.4091	1.7084	-0.1066	-0.0401	0.2221	-0.2041	-0.8105	9.0921	2.3593	-0.3979	1.1659	3.6017	-0.7128	-1.0151	-0.6578	-0.1828
-4.7398	1.9634	8.1433	-2.4477	-0.3453	-1.1454	0.3555	-1.0498	-1.6851	1.9108	2.322	9.8102	2.11	-0.2285	-0.2876	0.2101	-0.1921	-0.8045	9.314	3.155	-0.622	0.703	3.4484	-0.6387	-1.0782	-0.6396	-0.1657
-4.682	2.1983	8.0246	-2.9184	-0.593	-1.4524	0.4478	-1.1299	-1.6991	2.3589	2.549	9.2928	2.4528	-0.4426	-0.4112	0.2281	-0.2041	-0.7925	9.2585	2.9845	-0.566	0.3928	2.9609	-0.6026	-0.9999	-0.6773	-0.2186
-5.0411	2.2557	8.1343	-3.1062	-0.6246	-1.6353	0.432	-1.1085	-1.6492	2.3053	2.3198	9.4664	2.3932	-0.536	-0.4103	0.2281	-0.1921	-0.7865	9.3186	2.814	-0.3934	-0.0182	2.6295	-0.8388	-1.0144	-0.6379	-0.1466
-4.7433	2.1991	7.9651	-2.8615	-0.6519	-1.8235	0.3931	-1.0892	-1.6842	2.473	2.2035	9.2349	2.8252	-0.5628	-0.4434	0.2221	-0.2101	-0.8105	8.8068	3.6676	-0.4021	-0.2806	2.1182	-1.2652	-0.9997	-0.6769	-0.2009
-4.7408	1.9642	8.0849	-2.9202	-0.623	-1.5761	0.4137	-1.1271	-1.6676	2.3009	2.3188	9.2321	3.1369	-0.6188	-0.1684	0.2221	-0.2101	-0.7985	8.968	3.3827	-0.9143	-0.844	1.6333	-1.4059	-0.9981	-0.6184	-0.1457
-5.108	2.4936	7.7799	-3.8382	-0.4514	-1.038	0.4091	-1.0912	-1.7167	2.1887	2.2045	9.3465	2.9208	-0.6531	-0.2898	0.2281	-0.2041	-0.7805	8.864	3.2695	-0.4014	-0.957	0.8967	-0.9782	-1.0154	-0.6585	-0.2183
-4.7427	2.5485	8.0191	-3.4667	-0.3557	-1.1021	0.3926	-1.0508	-1.6663	2.6457	2.376	9.2975	3.9425	-0.8279	-0.264	0.2221	-0.2041	-0.7865	9.0332	2.4161	-0.5134	-1.274	0.321	-1.1577	-0.9992	-0.6574	-0.1825
-5.2145	2.4259	8.5377	-4.1552	-0.4511	-1.8029	0.3411	-1.0856	-1.6538	2.1856	2.7215	9.2317	4.187	-0.828	-0.542	0.2281	-0.1921	-0.8105	9.2055	3.326	-0.3378	-2.2249	0.1032	-0.8237	-1.0148	-0.6759	-0.1301
-4.8707	1.9709	7.5572	-4.7485	-0.5467	-2.2588	0.4083	-1.0723	-1.7161	2.4158	2.7789	9.2949	4.1247	-0.7978	-0.5419	0.2281	-0.1921	-0.8045	9.4902	3.3825	-0.2754	-2.3765	-0.386	-0.6695	-1.0472	-0.6776	-0.184
-5.4675	2.0848	7.8371	-5.1878	-0.8251	-2.4746	0.3905	-1.052	-1.6998	2.4763	2.2042	9.4106	4.459	-0.5782	-0.5759	0.2161	-0.2161	-0.7925	9.3746	2.5864	-0.4497	-2.1665	-0.7181	-0.8628	-1.0313	-0.6773	-0.1837
-5.4107	2.262	7.6608	-5.4121	-0.9162	-3.0888	0.4132	-1.0888	-1.6496	2.6503	2.8949	9.5927	4.9247	-0.7916	-0.7617	0.2221	-0.1981	-0.7805	9.5408	3.3253	-0.6177	-3.2855	-0.9602	-0.9541	-1.0316	-0.7149	-0.1494
-4.8023	2.0817	8.0239	-5.2603	-1.0366	-3.1549	0.3542	-1.0699	-1.7192	2.2482	2.2049	9.4648	5.328	-0.8479	-0.6101	0.2161	-0.2161	-0.7925	9.2607	2.8708	-0.4516	-3.6219	-0.8403	-0.8202	-1.0154	-0.6769	-0.1834
-5.3997	1.9629	8.2484	-4.9144	-0.8819	-2.8176	0.43	-1.1096	-1.6827	2.0127	2.6641	9.1695	6.3466	-1.0583	-1.0757	0.2221	-0.2101	-0.7925	8.9165	3.3261	-0.6292	-3.8165	-0.9886	-1.0921	-1.0466	-0.6208	-0.2178
-5.4079	1.7936	7.7834	-4.1085	-0.7826	-2.7025	0.3751	-1.0884	-1.6852	2.8815	2.3196	9.6531	6.7481	-1.0216	-0.8939	0.2161	-0.2101	-0.7985	9.1419	2.9845	-0.7398	-3.5043	-1.0507	-1.0098	-0.9825	-0.6372	-0.146
-4.8602	1.9636	8.1412	-4.2036	-0.9671	-2.6438	0.4104	-1.0711	-1.6826	2.3711	2.4943	9.9369	6.7836	-1.2695	-0.9849	0.2101	-0.2161	-0.7865	8.9717	2.9278	-0.7429	-3.0281	-1.1635	-1.6395	-1.0303	-0.6198	-0.1819
-4.8003	2.197	8.1393	-3.7411	-0.5622	-3.3482	0.3346	-1.0314	-1.7191	2.5871	3.1237	9.2998	6.1491	-1.9264	-1.1001	0.2101	-0.1981	-0.7865	9.5449	3.3824	-0.3888	-4.5491	-1.2536	-1.7176	-1.014	-0.6187	-0.146
-5.1585	2.3703	8.3059	-3.9371	-0.7135	-4.1179	0.4104	-1.0711	-1.6826	1.1077	2.2656	9.7359	6.7011	-3.41	-1.6169	0.2281	-0.1981	-0.7925	8.9743	3.3829	-0.5709	-5.851	-1.2228	-1.7399	-1.0147	-0.6571	-0.1472
-4.9779	2.3701	8.3091	-4.0279	-0.6229	-4.084	0.3933	-1.0697	-1.6668	2.368	2.3785	9.7607	10.3319	-1.8969	-2.5077	0.2161	-0.1981	-0.7985	8.8643	3.042	-0.4015	-6.4423	-1.313	-1.8151	-1.0152	-0.6581	-0.2006
-4.6809	2.1392	8.0837	-3.9666	-0.7451	-3.9336	0.4281	-1.0914	-1.6989	2.3047	2.6649	9.4679	10.3286	-1.9646	-3.1218	0.2161	-0.2221	-0.7865	9.1504	3.6673	-0.2242	-7.6027	-1.3064	-2.272	-1.0145	-0.6382	-0.1644
-4.6831	2.199	7.9662	-3.5667	-1.0172	-3.6678	0.4104	-1.0711	-1.6826	3.0504	2.146	9.4799	12.9933	-2.7466	-3.6859	0.2161	-0.2101	-0.7925	9.204	3.6671	-0.3948	-8.9358	-1.6412	-2.2655	-1.0309	-0.6208	-0.2352
-5.0981	2.1952	8.3092	-2.5727	-0.7327	-3.5818	0.3915	-1.0514	-1.683	2.9988	2.0324	9.7712	13.9637	-3.6075	-4.2089	0.2101	-0.1981	-0.7805	9.3246	3.0417	-0.0498	-10.2559	-1.7079	-1.8578	-1.0144	-0.6379	-0.1466
-5.0366	2.0193	8.3708	-3.0734	-0.735	-4.1907	0.374	-1.089	-1.702	3.0546	2.2621	9.7148	16.3482	-4.5227	-5.4773	0.1981	-0.2101	-0.7985	9.3663	3.3822	-0.8498	-11.5988	-1.8857	-2.1878	-1.0481	-0.6978	-0.238
-5.1583	2.2536	8.3074	-3.5669	-0.525	-4.4567	0.4104	-1.0711	-1.6826	2.0315	1.978	10.1037	19.122	-5.163	-7.5179	0.2101	-0.2041	-0.7925	9.4294	3.3255	-0.5054	-14.1116	-1.8232	-2.2964	-1.0144	-0.6194	-0.1816
-4.9232	1.7324	7.9678	-3.1651	-0.0904	-5.0982	0.3782	-1.0866	-1.6349	1.7425	2.841	10.0435	13.5903	-12.0198	-3.9415	0.2101	-0.2161	-0.7805	8.9799	3.0419	-0.285	-15.7459	-1.8877	-2.033	-1.0467	-0.6396	-0.2006
-5.104	1.9078	7.9625	-3.4735	-0.3398	-4.6691	0.3897	-1.0331	-1.6992	1.7367	3.0122	9.7514	12.6616	-16.4829	-0.7444	0.2161	-0.2161	-0.7865	9.152	3.2124	-0.1673	-16.5529	-1.9785	-2.071	-0.9836	-0.6763	-0.1828
-5.0399	1.3802	8.1453	-2.794	-0.6712	-4.162	0.3372	-1.0685	-1.7035	2.0256	2.8972	9.8735	12.2556	-19.6475	1.8581	0.2101	-0.2342	-0.7865	9.84	3.4962	0.2461	-18.0098	-2.039	-2.0894	-0.9835	-0.6947	-0.1478
-4.9813	1.731	8.0836	-2.4128	-0.8564	-2.8792	0.4096	-1.0522	-1.682	2.42	2.895	9.5298	10.8717	-21.1109	2.3051	0.2041	-0.2281	-0.7745	9.442	3.2692	0.1814	-17.9491	-1.8251	-2.1509	-0.9995	-0.6766	-0.1831
-5.1027	1.7319	8.0231	-1.2618	-0.9098	-2.0337	0.3897	-1.0331	-1.6992	2.9318	2.548	9.3038	12.0255	-21.6861	2.3632	0.2281	-0.2281	-0.7685	9.2177	3.554	0.3491	-17.5058	-1.6467	-1.8555	-1.0154	-0.6585	-0.2183
-5.105	1.8501	7.9048	-0.575	-0.8752	-1.3957	0.3892	-1.0721	-1.7339	2.6487	2.5493	9.474	13.1819	-21.2808	1.4629	0.2041	-0.2101	-0.7805	9.3311	3.6676	0.3513	-16.5014	-1.1347	-1.482	-1.0144	-0.6009	-0.2165
-4.9848	2.0251	7.9047	-0.6379	-1.0599	-1.2144	0.3586	-1.1254	-1.6875	2.6484	2.7218	9.4748	14.0328	-21.0337	0.5038	0.1981	-0.2281	-0.7865	9.2249	3.668	0.7498	-15.6982	-0.4327	-1.6233	-0.9988	-0.6383	-0.1818
-4.802	1.9066	8.0261	-0.5398	-0.8151	-1.0873	0.4091	-1.0912	-1.7167	2.6471	2.8366	9.4167	14.9783	-20.7195	0.0047	0.2101	-0.2522	-0.7745	9.5096	3.7814	0.8124	-14.4574	0.4199	-1.6536	-1.0146	-0.6198	-0.1993
-4.6211	1.6729	8.0323	-0.5731	-1.1528	-0.7867	0.4161	-1.1065	-1.6167	2.6968	2.7772	9.0075	15.9929	-20.554	0.0592	0.1981	-0.2342	-0.7925	9.0563	3.1564	0.8035	-13.0649	1.1522	-1.7816	-1.0153	-0.6396	-0.2355
-4.9787	2.1374	8.2536	-0.263	-0.9041	-1.0619	0.4292	-1.0908	-1.6821	2.5851	2.3753	9.1207	15.8695	-20.3648	0.5812	0.1921	-0.2402	-0.7925	9.2243	3.2699	0.6923	-11.4817	2.004	-1.7607	-1.0145	-0.6382	-0.1644
-4.9149	1.8433	8.4336	-0.1385	-1.1186	-0.6376	0.4261	-1.0926	-1.7325	2.7559	3.0076	9.1268	16.1236	-20.7656	0.4285	0.2041	-0.2402	-0.7745	8.9361	3.4975	0.4583	-10.6098	2.4591	-1.6602	-1.0152	-0.6581	-0.2006
-4.7345	1.9598	8.4353	-0.0111	-1.0266	-0.4219	0.4274	-1.0725	-1.6983	2.7111	3.4134	9.8305	16.0845	-21.722	0.7109	0.1861	-0.2281	-0.7805	9.5037	3.44	0.4687	-10.0252	2.7963	-1.8287	-0.9992	-0.6574	-0.1825
-4.6154	2.1354	8.3768	-0.2263	-0.9677	-0.418	0.4637	-1.0546	-1.6789	2.9315	2.7781	9.3048	16.529	-22.2411	0.9265	0.1741	-0.2402	-0.7685	8.9389	3.782	0.6302	-8.7059	3.2594	-2.2946	-0.9992	-0.639	-0.2174
-5.228	2.2603	7.7807	-0.2848	-0.8467	-0.2916	0.3905	-1.052	-1.6998	2.5896	2.9517	9.4162	16.2408	-23.1714	0.9645	0.1861	-0.2462	-0.7745	9.3956	3.3266	0.7527	-8.229	3.3597	-2.9227	-0.9829	-0.6379	-0.1815
-4.8621	1.8483	8.0258	-0.8067	-0.761	-0.1294	0.4245	-1.0548	-1.7313	2.7655	3.1825	9.6548	17.1081	-24.7699	1.0304	0.1921	-0.2402	-0.7745	8.9886	3.5542	0.2305	-8.075	3.4211	-2.9575	-0.9838	-0.6766	-0.2005
-5.2834	1.8489	8.0184	-0.6849	-0.9436	-0.0119	0.351	-0.9944	-1.7169	2.8287	2.9536	9.9478	16.5618	-26.6311	1.0139	0.1741	-0.2402	-0.7625	9.1147	3.5545	0.9194	-7.6598	3.5981	-2.569	-1.0312	-0.6585	-0.2009
-4.9844	1.7332	7.9084	-1.0212	-0.8562	0.1788	0.3915	-1.0514	-1.683	3.1755	3.1264	10.1309	18.7848	-28.2488	0.8569	0.1681	-0.2522	-0.7685	9.1615	3.1559	0.3478	-7.8908	3.5438	-3.0235	-0.9829	-0.6194	-0.2165
-5.2233	1.9072	8.0187	-1.3907	-0.6143	-0.0881	0.3544	-1.0504	-1.7019	3.352	2.9546	10.3678	18.7574	-30.1115	0.1306	0.1741	-0.2522	-0.7565	9.2189	3.4403	0.4063	-8.3393	3.2154	-3.4736	-1.0149	-0.6389	-0.1999
-5.104	1.9078	7.9625	-1.3951	-0.8586	-0.1241	0.4287	-1.1297	-1.7169	3.0002	3.1834	9.9521	20.0897	-32.3374	-1.2468	0.1681	-0.2462	-0.7625	8.9899	3.3836	0.2876	-8.4745	2.855	-3.8105	-0.9835	-0.639	-0.2348
-4.9824	1.7901	8.0244	-1.6966	-0.4957	0.0105	0.4101	-1.0906	-1.6999	3.2309	2.2628	9.9524	21.1888	-35.2793	-2.8643	0.1621	-0.2522	-0.7565	9.161	3.554	0.3481	-8.6186	2.3623	-3.4106	-1.0153	-0.6396	-0.2355
-4.9225	1.9652	8.0233	-1.8515	-0.5278	0.0118	0.407	-1.0924	-1.7503	4.1435	2.0877	9.7349	17.49	-38.9537	-4.7874	0.1741	-0.2462	-0.7565	9.1101	3.0425	0.6328	-8.5577	2.0275	-3.4151	-0.984	-0.6585	-0.2532
-4.8038	2.4326	7.9611	-1.5086	-0.3719	0.0724	0.4041	-0.9974	-1.7305	3.3958	1.8581	9.5438	15.6505	-41.493	-6.4208	0.1621	-0.2462	-0.7505	9.0557	3.6683	0.8039	-8.5728	1.7298	-3.878	-0.9993	-0.6578	-0.2002
-4.4994	2.2549	8.1438	-1.5742	-0.5247	-0.0531	0.4091	-1.0912	-1.7167	3.7935	1.8567	9.3758	18.6745	-42.4438	-8.8604	0.1501	-0.2522	-0.7565	8.8891	3.2136	0.9722	-8.2865	1.7872	-3.6403	-0.9835	-0.639	-0.2348
-5.0389	2.1958	8.2518	-1.7634	-0.7403	-0.0862	0.4482	-1.091	-1.6643	4.1325	2.0851	9.1491	16.3943	-43.6725	-12.0354	0.1501	-0.2642	-0.7565	9.1631	3.5541	0.4625	-7.7411	1.9004	-3.0411	-0.9673	-0.6567	-0.1818
-4.9799	2.2548	8.1938	-1.6387	-0.6472	-0.1165	0.425	-1.0158	-1.6966	4.3634	1.7399	9.2105	13.4685	-43.8645	-16.0732	0.1501	-0.2522	-0.7445	9.3472	3.327	1.2095	-7.8884	1.8664	-2.7912	-1.0146	-0.6198	-0.1993
-4.9815	1.9061	8.0814	-2.1031	-0.4669	-0.5065	0.3915	-1.0514	-1.683	4.5787	1.4486	8.4521	11.757	-43.2742	-20.4606	0.1321	-0.2522	-0.7325	9.113	3.2132	0.8046	-7.782	2.3172	-2.3913	-1.0155	-0.64	-0.2533
-4.6776	2.0203	8.2604	-1.8887	-0.4947	-0.6329	0.3712	-1.0713	-1.735	4.8118	1.1039	8.6307	9.3563	-42.3237	-25.2455	0.1441	-0.2582	-0.7385	8.707	3.4977	0.3397	-7.2013	2.3065	-1.6405	-0.9675	-0.6571	-0.1996
-5.2211	1.8474	8.1363	-1.7274	-0.2191	-0.4136	0.4243	-1.0743	-1.7486	4.8617	1.5624	8.2824	6.1522	-40.1523	-30.8624	0.1381	-0.2582	-0.7385	8.7703	3.2704	0.684	-6.4916	2.4458	-0.7388	-0.9832	-0.6571	-0.1821
-4.6833	2.3157	7.9647	-1.7314	-0.3405	-0.6007	0.4096	-1.0522	-1.682	4.4685	2.1402	8.7459	4.5917	-38.0792	-35.5665	0.1381	-0.2582	-0.7385	8.7734	3.3274	0.8557	-5.296	2.5896	-0.1588	-0.9674	-0.6198	-0.2517
-5.1593	2.196	8.2497	-1.946	-0.2819	-0.5353	0.3895	-1.0526	-1.7166	4.4026	1.9657	8.2754	3.4631	-35.8423	-39.7825	0.1141	-0.2702	-0.7145	9.1679	2.9856	0.691	-4.4366	2.6398	0.584	-0.999	-0.6386	-0.1996
-4.858	1.9621	8.2579	-1.8784	0.0855	-0.5589	0.4106	-1.0516	-1.6652	4.0072	2.5431	8.6218	3.1573	-32.8788	-43.2701	0.1261	-0.2702	-0.7205	9.4463	3.1556	0.4102	-3.6322	2.7623	0.5302	-0.967	-0.6376	-0.1812
-5.2214	2.0224	8.1341	-1.9395	0.2384	-0.7393	0.3557	-1.1077	-1.7204	3.2062	2.5447	8.6649	4.0081	-27.6112	-46.3481	0.1201	-0.2702	-0.7385	9.2813	3.0992	0.6932	-3.1524	2.9077	1.0087	-0.9667	-0.6184	-0.1806
-4.9769	2.3694	8.3675	-1.6043	0.459	-1.5076	0.3903	-1.0715	-1.7172	2.5193	2.1433	8.6499	6.9197	-20.3034	-48.4672	0.1201	-0.2822	-0.7325	8.7143	2.7018	0.6825	-2.2355	3.021	1.5967	-0.9996	-0.6397	-0.2529
-4.9241	2.3744	7.9598	-1.9121	0.64	-1.6843	0.3745	-1.05	-1.6673	1.1965	1.8566	8.3304	6.6565	-13.8137	-48.6272	0.1321	-0.2702	-0.7205	8.9379	2.872	0.5151	-2.573	3.0804	1.6995	-0.9843	-0.6777	-0.2538
-5.0347	2.1929	8.4854	-1.6282	0.8557	-1.468	0.4214	-1.0566	-1.7816	0.275	2.0872	8.0795	3.931	-6.5496	-45.9815	0.1321	-0.2762	-0.7325	9.1014	3.2696	0.1751	-4.1654	2.9642	1.316	-0.9985	-0.6191	-0.1812
-4.7996	2.4881	8.194	-0.9468	0.7388	-1.11	0.3763	-1.0683	-1.6511	-0.8611	1.5161	8.5235	1.7257	1.9851	-40.3354	0.1321	-0.2642	-0.7205	9.1027	3.0991	0.2322	-5.1983	2.6338	1.0062	-0.9838	-0.6581	-0.2355
-5.1615	2.2558	8.1322	-0.1774	0.5016	-1.0018	0.408	-1.0918	-1.7335	-1.9056	1.5147	7.8008	0.0886	10.8994	-27.8738	0.1261	-0.2702	-0.7085	9.3924	3.3265	0.581	-5.6354	2.3307	0.9247	-1.0155	-0.64	-0.2533
-5.0942	1.7261	8.4902	-0.053	0.3795	-0.7292	0.4274	-1.0725	-1.6983	-3.1085	1.3442	7.7769	-2.2624	18.2981	-8.1466	0.1321	-0.2582	-0.7025	9.2219	3.5541	0.5781	-6.0448	1.9071	0.7492	-1.0153	-0.6212	-0.2704
-4.9778	2.2534	8.3106	0.077	0.7472	-0.6921	0.4104	-1.0711	-1.6826	-2.2721	1.2798	6.5629	-8.1396	24.6445	15.2969	0.1261	-0.2642	-0.7265	9.678	3.5537	0.7009	-6.1314	1.8272	-0.0478	-0.9985	-0.5821	-0.2511
-4.6733	1.959	8.4947	-0.0784	0.746	-0.7824	0.3555	-1.0498	-1.6851	-1.9105	0.4779	7.4446	-32.1653	36.3618	31.3181	0.1321	-0.2702	-0.7145	8.9959	3.5545	0.6311	-6.4116	1.3242	-1.0574	-1.0296	-0.5814	-0.1807
-4.804	1.7914	7.9108	-0.1766	0.5321	-0.9704	0.3562	-1.0687	-1.6857	-0.9165	0.4234	8.5175	-44.1445	45.968	39.9673	0.1201	-0.2702	-0.7265	9.3889	3.6675	0.4096	-6.4232	0.9334	-1.3982	-1.0153	-0.6396	-0.2355
-4.679	1.5548	8.1495	-0.2045	0.7459	-1.0269	0.4464	-1.0727	-1.6805	-0.1017	0.7127	9.2372	-47.2796	49.204	42.2408	0.1321	-0.2462	-0.7145	9.4989	3.1554	0.1823	-6.4108	0.6982	-1.9843	-0.9819	-0.5804	-0.1797
-4.9808	2.1389	8.1368	-0.603	0.7098	-0.6844	0.4263	-1.0731	-1.7151	0.4654	0.2501	8.8947	-49.4975	47.1262	40.7295	0.1441	-0.2462	-0.7205	9.2264	3.3268	0.8068	-6.4545	0.5213	-2.3839	-0.9988	-0.6383	-0.1818
-4.9238	2.1993	7.962	-0.5353	0.831	-0.3136	0.4129	-1.0309	-1.6143	0.8047	0.306	8.6672	-54.3266	44.9303	36.0994	0.1441	-0.2281	-0.7085	9.2816	2.8149	0.693	-6.1932	0.0724	-2.9177	-0.9992	-0.6574	-0.1825
-4.8023	2.0817	8.0239	-0.6904	0.6144	-0.0395	0.4274	-1.0725	-1.6983	0.7013	0.8267	9.3117	-58.0579	44.1837	29.8869	0.1561	-0.2342	-0.7205	9.2795	3.7247	0.6365	-5.8686	0.1104	-3.4495	-0.9519	-0.6759	-0.1999
-5.1567	1.8443	8.3709	-0.8454	0.6746	-0.19	0.3835	-1.0367	-1.7998	0.5308	0.7122	9.3665	-60.0993	45.1553	23.6851	0.1501	-0.2221	-0.7505	8.6492	3.5546	0.2815	-5.4735	0.1749	-3.7066	-0.952	-0.6575	-0.2348
-5.3423	1.6732	8.0779	-0.8758	0.9201	-0.5226	0.4425	-1.0556	-1.7302	0.8774	0.9424	9.5498	-60.8689	46.1182	18.4595	0.1561	-0.2161	-0.7325	9.6661	3.0982	0.0137	-5.5334	0.2045	-3.6431	-1.03	-0.6006	-0.1813
-5.1062	1.9676	7.8449	-0.6242	1.0746	-0.3379	0.4229	-1.017	-1.7301	0.8844	1.4043	9.962	-61.7417	46.4386	14.0682	0.1621	-0.1981	-0.7385	9.2853	3.2131	0.9222	-5.2244	-0.2828	-3.6255	-0.9842	-0.6588	-0.271
-4.7396	1.7884	8.1455	-0.1892	1.0778	-0.0973	0.3915	-1.0514	-1.683	0.9437	1.5198	10.0807	-62.3825	45.0428	11.0379	0.1741	-0.1981	-0.7445	10.0772	3.667	0.8227	-4.7089	-0.7347	-3.9519	-0.9836	-0.6393	-0.2526
-4.9196	1.4384	8.1467	-0.468	0.8908	0.1175	0.4274	-1.0725	-1.6983	0.8336	2.0964	10.374	-61.0973	43.2729	8.859	0.1741	-0.1981	-0.7385	9.279	3.2697	0.5789	-3.4883	-1.289	-3.5012	-0.9836	-0.6393	-0.2526
-4.7307	2.2487	8.6652	-0.5298	0.7672	0.3001	0.3905	-1.052	-1.6998	1.0737	2.1561	10.9645	-55.0777	43.5924	6.7014	0.1801	-0.1621	-0.7265	9.1681	3.6681	0.7488	-2.6313	-2.0605	-2.7648	-0.9826	-0.6187	-0.1809
