1757_acc_x	1757_acc_y	1757_acc_z	1757_gyro_x	1757_gyro_y	1757_gyro_z	1757_mag_x	1757_mag_y	1757_mag_z	1758_acc_x	1758_acc_y	1758_acc_z	1758_gyro_x	1758_gyro_y	1758_gyro_z	1758_mag_x	1758_mag_y	1758_mag_z	1759_acc_x	1759_acc_y	1759_acc_z	1759_gyro_x	1759_gyro_y	1759_gyro_z	1759_mag_x	1759_mag_y	1759_mag_z
-1.147811	0.726116	9.599876	-1.24119	-1.024097	0.354943	0.214265	0.050523	-1.081317	1.326619	0.325245	9.705943	-0.543595	0.974353	-0.011301	0.73658	0.413855	-1.067009	9.600609	2.209833	-0.348386	1.213004	1.672426	1.373151	-0.321196	-0.094445	-0.270044
-0.681033	0.957481	10.064574	-1.24356	-1.298947	0.197144	0.389285	-0.354359	-0.827784	1.682891	0.325025	10.222952	-0.513014	0.915831	-0.381795	-0.108072	0.043431	-1.053699	9.480376	2.209609	-0.470401	1.247033	1.821703	1.739074	-0.25665	-0.556729	-0.059921
-0.796158	0.268024	10.002598	-1.029295	-1.359757	0.226207	0.416754	-0.327566	-0.835314	1.500632	0.268638	9.766161	-0.514379	0.794178	-0.537146	-0.14737	0.026813	-1.037518	9.599914	2.035358	-0.409035	2.048247	1.980688	1.429781	-0.284253	-0.559616	-0.013477
-0.975923	0.553667	9.602493	-1.487676	-1.209286	0.321975	0.390057	-0.381901	-0.820953	1.099769	0.438479	9.871121	-0.478495	1.192809	-0.471497	-0.134319	0.042209	-1.038798	9.245257	1.803617	-0.476533	2.390369	2.100484	1.794729	-0.284671	-0.592001	-0.011803
-0.741379	0.612149	9.891453	-1.303524	-1.052682	0.139983	0.403391	-0.337434	-0.845625	1.279479	-0.068582	10.157518	-0.602111	1.19104	-0.440786	-0.160346	0.026738	-1.037243	9.656594	2.092804	-0.527501	2.484798	2.004004	2.283862	-0.28558	-0.637273	-0.071403
-0.288911	0.610612	9.616096	-1.302137	-0.931492	0.295288	0.43279	-0.379496	-0.836076	1.38507	0.494176	9.763933	-0.571527	1.189822	-0.194149	-0.147	0.043206	-1.052872	9.125854	1.919791	-0.538146	2.486758	2.124472	2.466661	-0.29872	-0.590552	-0.042929
-0.973738	0.611592	9.71644	-1.79346	-1.024935	0.20318	0.374407	-0.343741	-0.816775	1.737931	0.381153	10.11093	-0.661209	1.404708	-0.407881	-0.134469	0.011568	-1.036791	9.662501	1.919812	-0.228708	2.45894	2.335968	2.71026	-0.270487	-0.557759	-0.044463
-0.741297	0.497266	9.890971	-1.916381	-0.961957	0.02055	0.418683	-0.396421	-0.818235	0.995841	0.27013	10.378317	-0.842442	1.738862	-0.281392	-0.160196	0.057379	-1.03925	9.71615	1.860365	-0.527389	2.553368	2.239487	3.199396	-0.270487	-0.557759	-0.044463
-1.091711	0.783275	9.544378	-1.945883	-0.840215	0.114617	0.390028	-0.347302	-0.855936	1.448333	0.043614	9.991321	-1.278158	1.487655	-0.222584	-0.160491	0.056307	-1.0249	9.306048	1.513349	-0.416762	2.490329	2.086632	3.16979	-0.29809	-0.560646	0.00198
-0.913391	0.956923	9.889561	-2.159406	-0.62505	0.026725	0.388913	-0.357887	-0.813708	0.811941	0.439018	9.865076	-1.00011	1.491183	-0.222325	-0.14722	0.057454	-1.039526	9.47912	1.802582	-0.591945	3.077325	2.086532	3.381611	-0.298578	-0.592205	-0.011873
-0.973862	0.783916	9.717164	-2.280034	-0.318303	0.032057	0.418283	-0.365351	-0.839143	1.727159	0.324395	9.601126	-1.123921	1.459755	-0.34605	-0.146849	0.073846	-1.054879	9.541012	1.512561	-0.472267	2.85965	1.809817	3.444847	-0.297952	-0.543627	-0.014385
-0.748185	0.783027	9.551059	-2.462012	0.113518	-0.175076	0.36143	-0.367381	-0.82367	1.398344	-0.124986	10.329808	-0.821604	0.971027	-0.042385	-0.133729	0.044352	-1.067497	9.650822	2.20772	-0.826541	3.167621	1.594276	3.68927	-0.284604	-0.574156	-0.043696
-1.376663	0.496516	9.594457	-1.818339	0.33547	-0.51067	0.403791	-0.368504	-0.824718	1.501063	0.043316	9.765972	-0.637408	0.881384	-0.043129	-0.14715	0.012565	-1.050865	9.837869	1.221753	-0.408094	2.949615	1.318192	3.691377	-0.283836	-0.527231	-0.015152
-0.964913	0.728405	10.171748	-0.713014	0.460072	-0.205147	0.403763	-0.333906	-0.859701	1.167975	-0.068224	10.325019	-0.580296	0.542843	0.261832	-0.14759	0.041062	-1.024172	9.414332	1.917633	-0.892085	3.3237	1.218612	4.576851	-0.31186	-0.543831	-0.014455
-0.910791	0.440432	10.001095	-0.530828	0.309358	-0.392128	0.404148	-0.347677	-0.856285	0.985092	0.833056	9.925674	-0.366141	0.391457	0.383812	-0.15946	0.029954	-1.080292	10.010806	1.569063	-0.58303	3.142829	1.272191	5.24966	-0.256788	-0.573747	-0.043556
-0.745751	0.496301	9.663558	-0.439627	0.155433	-0.333556	0.36253	-0.339496	-0.88339	0.990335	-0.01176	10.094882	-0.090082	0.241459	0.41337	-0.173177	-0.002906	-1.049309	9.835263	1.395487	-0.527166	3.326321	0.996288	5.372569	-0.27014	-0.524548	-0.061665
-1.257783	0.612281	9.824579	-0.806128	0.181318	-0.056069	0.404148	-0.347677	-0.856285	1.556773	0.381144	9.710826	-0.459019	0.360623	0.22929	-0.161307	0.008202	-0.99319	9.659875	1.62869	-0.409665	3.139994	0.998145	5.128721	-0.283836	-0.527231	-0.015152
-0.798675	0.669632	9.890581	-0.93002	-0.003298	-0.089381	0.418312	-0.399949	-0.804159	1.620275	0.437604	9.99528	-0.522133	0.267039	0.351621	-0.160717	0.010346	-1.021889	9.362188	1.803099	-0.534239	3.169562	1.093807	4.761389	-0.284462	-0.575808	-0.01264
-0.74934	0.840227	9.494447	-0.684878	0.029274	-0.150893	0.418283	-0.365351	-0.839143	1.557874	0.437522	9.767513	-0.675473	0.356873	0.383219	-0.173247	0.041984	-1.037971	9.781074	1.687238	-0.227496	3.291282	0.911028	4.731256	-0.298232	-0.558993	-0.029075
-1.150986	0.495627	9.428352	-0.80877	-0.155342	-0.184205	0.40342	-0.372033	-0.810642	1.334519	-0.012454	10.045496	-0.674069	0.478727	0.507744	-0.161157	0.038843	-0.995197	9.64752	2.206978	-1.006261	3.476932	0.972558	4.760854	-0.298303	-0.558167	-0.044603
-1.195992	0.498322	10.052622	-0.779641	-0.526415	0.024356	0.432404	-0.365725	-0.839492	1.503481	0.043411	9.879251	-0.273264	0.393639	0.229767	-0.134099	0.02796	-1.052144	9.362593	1.628871	-0.534981	3.630451	0.912248	4.730022	-0.298232	-0.558993	-0.029075
-0.750205	0.495336	9.436146	-0.872612	-0.649077	-0.038705	0.418669	-0.379122	-0.835727	1.553901	-0.013312	9.540575	-0.395164	0.543987	0.446961	-0.134765	0.010496	-1.022441	9.719992	1.628803	-0.348657	3.599693	0.943042	4.699422	-0.284324	-0.558789	-0.029005
-1.148966	0.783317	9.543264	-0.719131	-0.649057	0.022189	0.402634	-0.327191	-0.834965	1.095495	0.77632	9.701486	-0.5487	0.604162	0.324123	-0.146855	0.013637	-1.065214	10.014647	1.3375	-0.404298	3.631236	1.097047	4.606881	-0.256232	-0.524344	-0.061595
-0.629263	0.84135	9.780939	-0.901798	-0.496951	0.086523	0.417526	-0.355108	-0.828483	1.263333	0.156124	9.421393	-0.795191	0.661752	0.416982	-0.160051	0.02781	-1.051592	9.772696	1.975888	-0.645608	3.661496	1.067198	4.545786	-0.270554	-0.575604	-0.01257
-0.807417	0.437936	9.434791	-1.023954	-0.467487	0.148689	0.404506	-0.326849	-0.887853	1.387357	-0.069082	9.820099	-0.731649	0.786201	0.26413	-0.14737	0.026813	-1.037518	9.539102	1.86077	-0.53069	3.753034	1.286702	4.055384	-0.298023	-0.542801	-0.029913
-0.639119	0.609413	9.268296	-1.177119	-0.437123	0.118955	0.417926	-0.386178	-0.807575	1.731887	0.380916	9.827732	-0.608813	0.726641	0.232809	-0.160937	0.024594	-1.008543	9.650396	1.917093	-0.887684	4.026723	1.294951	3.351386	-0.297885	-0.525782	-0.046277
-0.911082	0.842522	10.002784	-1.115669	-0.374677	0.058457	0.40452	-0.344148	-0.870361	1.736076	0.719088	10.054574	-0.577802	0.727637	0.140359	-0.133879	0.013712	-1.06549	9.959243	2.151936	-0.102403	3.963474	1.328786	3.015254	-0.270625	-0.574778	-0.028098
-1.087092	0.554474	9.770825	-1.14718	-0.528828	0.086711	0.404134	-0.330377	-0.873777	1.225456	0.607682	10.383437	-0.823825	0.816294	0.171871	-0.146704	0.044277	-1.067222	9.424506	1.803706	-0.353418	3.594707	1.356154	3.19984	-0.284253	-0.559616	-0.013477
-0.684208	0.726991	9.89305	-0.992759	-0.343721	0.089275	0.3908	-0.374844	-0.849105	1.441342	1.170034	9.765711	-1.164754	0.720391	0.108987	-0.146409	0.045349	-1.081571	10.012467	1.801861	-0.462227	3.624892	1.295401	3.169457	-0.297814	-0.526609	-0.03075
-0.516733	0.496136	9.668012	-1.329147	-0.19094	0.03139	0.389671	-0.36813	-0.824368	1.506676	0.268875	10.049359	-1.500224	1.082446	0.358942	-0.14737	0.026813	-1.037518	9.653833	1.859758	-0.70821	3.347768	1.448927	3.01691	-0.298161	-0.55982	-0.013548
-0.909802	0.612998	10.058672	-1.389691	-0.130805	0.124546	0.404549	-0.378747	-0.835378	1.272896	0.212834	9.874558	-2.118657	1.043137	0.481366	-0.147295	0.042134	-1.038522	9.357922	1.744034	-0.774114	3.560934	1.175342	2.925753	-0.283836	-0.527231	-0.015152
-0.631325	0.611102	9.666268	-1.266092	0.179867	-0.116105	0.388913	-0.357887	-0.813708	1.215546	0.10028	9.873254	-1.933447	1.016032	0.296277	-0.161307	0.008202	-0.99319	9.77281	1.452956	-0.70774	3.683002	1.271337	2.55809	-0.256299	-0.542189	-0.029702
-0.398883	0.496776	9.840799	-1.358419	0.02404	0.034968	0.419041	-0.375593	-0.849803	1.670133	0.042851	9.59968	-2.24473	0.828124	0.294158	-0.121343	0.042284	-1.039074	9.71476	1.511414	-0.648686	3.341091	1.306381	2.009019	-0.298299	-0.576838	0.002817
-0.917597	0.611309	9.660701	-1.358986	0.088285	-0.20933	0.416754	-0.327566	-0.835314	1.671449	-0.013432	9.656272	-2.430955	0.735388	0.046461	-0.148111	-0.005971	-1.006812	9.422575	1.687059	-0.473726	3.337864	0.939936	1.949653	-0.283974	-0.544249	0.001213
-1.258606	0.209949	9.766037	-1.573634	-0.006303	-0.087577	0.43279	-0.379496	-0.836076	1.382976	0.32509	9.650512	-2.336637	0.830973	-0.32245	-0.134759	0.070706	-1.012106	9.306879	1.629748	-0.35636	3.277537	0.875067	2.286379	-0.270487	-0.557759	-0.044463
-0.629962	0.266694	9.721673	-1.237246	-0.159083	-0.029692	0.388885	-0.323288	-0.848692	1.328929	0.38167	9.819269	-2.214891	0.679821	-0.416339	-0.14715	0.012565	-1.050865	9.366995	1.62986	-0.295353	3.551616	0.634186	2.011465	-0.298649	-0.591378	-0.027401
-0.68833	0.266494	9.663707	-1.359829	-0.25359	0.122464	0.459873	-0.338932	-0.847022	1.448225	0.099944	9.991369	-2.213528	0.772822	-0.569553	-0.148036	0.009349	-1.007815	10.125017	2.26521	-0.697676	3.673761	0.761085	1.613094	-0.283974	-0.544249	0.001213
-1.031981	0.439067	9.65775	-1.297549	-0.099644	0.124787	0.417897	-0.351579	-0.842559	1.622693	0.437699	10.108559	-2.030151	0.592996	-0.848646	-0.134614	0.041137	-1.024448	9.474428	1.45289	-0.892963	4.104026	0.392726	1.888363	-0.283418	-0.494846	-0.016826
-0.742452	0.554467	9.834359	-0.991416	-0.191104	0.183755	0.418283	-0.365351	-0.839143	1.391091	-0.12527	9.98997	-1.786075	0.351014	-0.881684	-0.146924	0.058526	-1.053875	9.429448	1.572391	-0.114779	4.013183	0.389241	2.194343	-0.311931	-0.543005	-0.029983
-0.746864	0.49606	9.606705	-1.053106	-0.252854	0.182929	0.417926	-0.386178	-0.807575	1.391222	0.438083	10.047084	-2.157782	0.283975	-0.72851	-0.172656	0.044127	-1.06667	9.428908	1.804695	-0.11379	3.300909	0.547834	1.401519	-0.27014	-0.524548	-0.061665
-0.915287	0.496908	9.773924	-0.992606	-0.281561	0.028949	0.389671	-0.36813	-0.824368	1.386495	0.381562	9.820478	-2.188599	0.283985	-0.790191	-0.108662	0.041287	-1.025	9.834048	1.918171	-0.524941	3.519581	1.164185	1.031028	-0.297677	-0.50959	-0.047115
-0.971303	0.324866	9.82894	-0.531693	-0.188958	0.182467	0.388156	-0.347644	-0.803048	1.738039	0.324822	10.110882	-1.939766	0.439036	-0.572652	-0.173768	-0.00505	-1.02061	9.722908	2.268628	-0.10631	3.458411	1.163018	1.122944	-0.284044	-0.543423	-0.014315
-0.053995	0.15212	9.902885	-0.59347	-0.187853	0.059991	0.43239	-0.348426	-0.856984	1.847341	0.211709	9.830007	-1.13624	0.479288	-0.479121	-0.16034	0.086948	-1.026907	9.429313	1.630467	-0.114532	3.525322	1.060123	2.223471	-0.298582	-0.573533	-0.059294
-0.520281	0.78262	9.49866	-0.592334	0.027965	0.002159	0.432004	-0.334655	-0.8604	1.624333	0.212424	10.165009	-0.73477	0.483579	-0.355443	-0.159976	0.043131	-1.052596	9.776942	1.570097	-0.467618	3.892943	0.972837	1.916923	-0.298019	-0.561472	0.017508
-0.57205	0.89875	9.782294	-1.022621	-0.220936	0.091356	0.417912	-0.368879	-0.825067	1.854055	0.493646	10.170082	-0.792855	0.788437	-0.198318	-0.120602	0.075068	-1.06978	10.013682	1.279177	-0.464452	4.014873	0.603368	2.193315	-0.283977	-0.525578	-0.046207
-0.458365	0.496335	9.725979	-0.837279	0.026125	0.06417	0.404534	-0.361448	-0.85287	1.107776	0.04445	10.210626	-0.394192	0.577671	-0.015125	-0.146259	0.07599	-1.083579	9.657404	1.744348	-0.528984	3.829328	0.448494	2.31698	-0.283627	-0.511038	-0.015989
-0.68833	0.266494	9.663707	-0.92954	-0.004688	0.033267	0.40342	-0.372033	-0.810642	1.0923	0.550856	9.531378	0.005369	0.45749	0.384767	-0.186298	0.026588	-1.036691	9.767463	1.858499	-0.945637	4.042676	0.453999	1.85773	-0.298023	-0.542801	-0.029913
-0.516981	0.840785	9.66946	-0.499919	0.120938	-0.027264	0.404134	-0.330377	-0.873777	1.324178	-0.294533	9.535502	-0.636275	1.030481	0.605745	-0.172436	0.029879	-1.080016	9.412556	2.207766	-0.950756	3.640663	0.17536	2.043896	-0.270136	-0.543219	-0.014244
-0.916483	0.61155	9.717554	-0.498926	0.180663	0.127044	0.375536	-0.350456	-0.841511	0.984291	-0.011997	9.811684	-0.721162	1.613947	0.303198	-0.133729	0.044352	-1.067497	9.718601	1.279852	-0.469955	3.796385	0.607635	1.705072	-0.284324	-0.558789	-0.029005
-0.916193	0.209459	9.715865	-0.500389	0.028395	0.001901	0.391185	-0.388615	-0.845689	1.504605	0.719472	9.993099	-0.68364	2.164289	0.616981	-0.121563	0.056532	-1.025727	9.60387	1.280864	-0.292435	3.671001	0.517945	1.461448	-0.298023	-0.542801	-0.029913
-0.573863	0.323852	9.666175	-0.344943	0.335733	0.067785	0.375507	-0.315857	-0.876495	1.262925	1.001129	9.478744	-1.603062	2.735155	0.621918	-0.160051	0.02781	-1.051592	9.773215	1.278728	-0.708482	3.763472	0.642527	1.277139	-0.283627	-0.511038	-0.015989
-1.087216	0.726799	9.771549	-0.774803	0.210803	0.066992	0.417926	-0.386178	-0.807575	1.563141	0.21239	9.993881	-1.752739	3.101772	0.532959	-0.14737	0.026813	-1.037518	9.365199	1.455138	-0.415909	3.394404	0.546276	1.584567	-0.283907	-0.526404	-0.030679
-0.736843	0.498231	10.118383	-0.866911	0.242148	-0.024238	0.44691	-0.379871	-0.836425	1.396034	-0.181411	10.216481	-2.182961	3.280069	0.565214	-0.160346	0.026738	-1.037243	9.538001	1.860523	-0.590597	2.992062	0.609796	1.218963	-0.255532	-0.495264	-0.001158
-0.685156	0.496984	9.835231	-0.897046	0.303121	0.007508	0.388142	-0.330345	-0.82054	1.681251	0.5503	10.166502	-1.506636	3.04217	0.748361	-0.148105	0.054238	-0.996476	10.250982	1.220808	-0.400391	2.744851	0.4547	1.342851	-0.269924	-0.545698	0.032339
-0.745999	0.840951	9.665006	-0.868024	0.18277	-0.209207	0.43279	-0.379496	-0.836076	1.668493	0.268125	9.54323	-1.507416	2.980841	0.747751	-0.160196	0.057379	-1.03925	9.710628	1.394274	-0.888808	2.372483	0.302628	1.130983	-0.270207	-0.542393	-0.029772
-1.031075	0.726516	9.715809	-0.927661	0.365485	-0.083394	0.402648	-0.344491	-0.817473	1.62213	0.099668	10.051635	-1.814489	3.101189	0.502075	-0.146409	0.045349	-1.081571	9.596592	1.569761	-0.65064	1.971379	0.394847	0.948617	-0.269719	-0.510834	-0.015919
-0.580461	0.207522	9.324574	-0.899372	-0.003154	-0.089467	0.390414	-0.361073	-0.85252	1.168429	0.326137	10.381991	-1.689938	3.165092	0.34867	-0.134394	0.026888	-1.037794	9.943816	1.683619	-1.002984	1.660574	0.336342	0.583265	-0.284529	-0.593653	0.019252
-1.088205	0.554233	9.713972	-0.714413	0.088509	0.034162	0.417912	-0.368879	-0.825067	1.740996	0.043264	10.223924	-1.69255	2.951045	0.254056	-0.133503	0.090314	-1.070508	9.892213	1.336781	-0.646127	1.56842	0.273254	0.736715	-0.270136	-0.543219	-0.014244
-0.917887	1.0134	9.66239	-0.744198	0.242373	0.006081	0.404892	-0.34062	-0.884437	1.383946	-0.181885	9.650085	-1.175222	2.315366	0.001526	-0.173542	0.040912	-1.023621	9.889067	1.742819	-0.76421	1.287847	0.30915	0.1263	-0.297956	-0.524956	-0.061805
-0.571843	0.611543	9.781088	-0.284116	0.243476	0.096778	0.402619	-0.309892	-0.852457	1.279048	0.15674	10.157708	-0.35137	1.499213	-0.190895	-0.120677	0.059748	-1.068777	9.775977	1.511774	-0.527772	1.010316	0.090873	0.433977	-0.325701	-0.526191	-0.046418
-1.031241	0.956282	9.716775	-0.098512	0.646282	-0.111885	0.418641	-0.344523	-0.870711	1.506137	0.550528	10.049597	0.380462	0.771257	0.018252	-0.160271	0.042059	-1.038246	9.892908	1.511257	-0.585478	0.825	0.028714	0.465507	-0.284115	-0.542597	-0.029842
-0.741379	0.612149	9.891453	0.118396	1.266438	-0.501114	0.417154	-0.358636	-0.814407	1.288049	-0.12458	10.553948	0.492813	-0.087401	0.256429	-0.147445	0.011493	-1.036515	9.778042	1.570344	-0.407711	0.882913	-0.212313	0.130255	-0.26951	-0.494642	-0.016756
-1.147769	0.668675	9.599635	0.51812	1.452341	-0.468576	0.389671	-0.36813	-0.824368	1.395064	0.325564	10.216908	0.70533	-0.36185	0.438839	-0.172952	0.043055	-1.05232	9.538386	1.221439	-0.653224	1.132774	-0.062261	0.49539	-0.270207	-0.542393	-0.029772
-1.139643	0.210831	9.995676	0.487385	1.515052	-0.59014	0.404206	-0.416874	-0.786318	1.162062	0.494892	10.098935	0.918586	-0.603822	0.34412	-0.172581	0.059448	-1.067674	10.188955	1.568905	-0.519822	1.470521	-0.368827	0.679008	-0.270345	-0.559411	-0.013407
-0.516733	0.496136	9.668012	0.427639	1.60418	-0.343176	0.43239	-0.348426	-0.856984	0.993207	0.382696	10.265133	1.132545	-0.784868	0.311664	-0.134469	0.011568	-1.036791	9.660435	1.861242	-0.348769	1.591324	-0.177281	-0.055855	-0.242392	-0.541985	-0.029632
-0.971594	0.726957	9.830629	0.180599	1.389304	-0.468629	0.431275	-0.359011	-0.814756	1.618288	0.212187	9.881811	1.040564	-0.725116	0.373841	-0.146704	0.044277	-1.067222	9.654508	1.569378	-0.709446	1.835533	-0.295915	-0.331238	-0.270207	-0.542393	-0.029772
-0.971345	0.382308	9.829181	-0.24936	1.076854	-0.196457	0.389671	-0.36813	-0.824368	1.557096	0.212153	9.710683	1.165388	-0.63115	0.313219	-0.121638	0.041212	-1.024724	9.8409	1.338647	-0.227879	2.329861	-0.296032	-0.149651	-0.270625	-0.574778	-0.028098
-1.023115	0.498439	10.112816	-0.436667	0.522476	-0.17426	0.361401	-0.332782	-0.858654	1.161176	0.325853	10.042153	0.983844	-0.327254	0.377751	-0.107921	0.074072	-1.055706	9.668118	1.398117	0.008695	2.362459	-0.050891	-0.181502	-0.297535	-0.511242	-0.016059
-0.685363	0.784191	9.836438	-0.621846	0.243641	-0.055587	0.417555	-0.389707	-0.793499	1.794503	0.268337	10.055404	0.158317	0.30834	0.044298	-0.14737	0.026813	-1.037518	9.238924	1.685981	-0.836469	2.454598	0.074322	-0.426936	-0.269928	-0.527027	-0.015081
-1.150944	0.438185	9.42811	-0.53083	-0.034951	0.154299	0.416754	-0.327566	-0.835314	1.437692	0.550209	9.538631	-0.817121	1.337997	0.115408	-0.160196	0.057379	-1.03925	9.303868	1.97771	-0.474691	2.422514	0.107637	-0.702043	-0.270554	-0.575604	-0.01257
-1.14315	0.439874	9.826082	-0.253808	0.056795	0.308332	0.432061	-0.403852	-0.790433	0.988911	0.100854	10.038337	-0.962663	2.069774	0.461676	-0.146629	0.059598	-1.068225	9.296009	1.5692	-0.955677	2.393038	0.322283	-0.764086	-0.298374	-0.557341	-0.060131
-0.747196	0.955592	9.608636	-0.224306	-0.064947	0.214265	0.390042	-0.364601	-0.838444	1.391761	0.15643	10.046847	-1.015329	2.80373	0.653901	-0.147295	0.042134	-1.038522	9.949744	1.975483	-0.642307	2.704673	0.379212	-0.24592	-0.284324	-0.558789	-0.029005
-0.287715	0.49597	9.672466	-0.194225	-0.000559	-0.030118	0.390042	-0.364601	-0.838444	0.872463	0.157353	9.979327	-1.648086	4.110239	1.252119	-0.134099	0.02796	-1.052144	9.716306	2.267145	-0.465752	2.613153	0.439113	-0.154186	-0.297464	-0.512069	-0.000531
-0.80185	0.439143	9.719057	0.29823	0.308702	0.004158	0.403777	-0.351205	-0.842209	1.392323	0.49446	10.103771	-1.728369	5.147214	1.940586	-0.146849	0.073846	-1.054879	9.361223	1.744776	-0.594393	2.422151	-0.109011	-0.456506	-0.284253	-0.559616	-0.013477
-0.908482	0.326031	10.114319	0.266819	0.342072	-0.240553	0.418283	-0.365351	-0.839143	1.791762	0.437233	9.942267	-1.614476	6.890995	2.759552	-0.161232	0.023523	-0.994193	9.771575	1.510785	-0.7674	2.262933	-0.47254	-0.85151	-0.270975	-0.589318	-0.058317
-1.039941	0.667144	9.260743	-0.010073	0.156045	-0.212111	0.404549	-0.378747	-0.835378	1.039893	0.382162	9.756585	-2.049237	9.210506	3.552975	-0.108442	0.027038	-1.038346	9.655473	1.627702	-0.649292	2.073755	-1.024128	-0.81763	-0.297255	-0.495876	-0.001368
-0.580378	0.092639	9.324091	-0.499613	0.245256	-0.147916	0.389285	-0.354359	-0.827784	1.731995	0.324585	9.827684	-1.33201	12.392578	5.958981	-0.147144	0.072775	-1.040529	9.607597	1.572233	-0.051571	1.207407	-1.238836	-1.057969	-0.29872	-0.590552	-0.042929
-0.977161	0.725751	9.546364	-1.176572	-0.3135	0.059627	0.419055	-0.392893	-0.832311	1.563464	0.043398	9.993739	0.379563	16.161054	9.697263	-0.107626	0.075143	-1.070056	9.544584	1.397151	-0.293041	0.829237	-1.721398	-1.848922	-0.241762	-0.512078	0.015278
-0.689734	0.668343	9.608543	-1.269893	-0.529052	0.056393	0.419041	-0.375593	-0.849803	1.502619	0.494055	9.87963	0.369826	20.468457	12.05225	-0.120973	0.058676	-1.054427	9.485412	0.990507	-0.355779	0.14548	-2.24133	-2.088463	-0.297744	-0.527435	-0.015222
-0.738205	0.842639	10.062978	-2.15779	-0.410622	0.091541	0.404206	-0.416874	-0.786318	1.043065	-0.012057	9.869532	-1.582171	22.664921	14.631323	-0.108587	0.056607	-1.026003	9.655338	1.685778	-0.649045	-0.416195	-2.727391	-2.603668	-0.311514	-0.51062	-0.031657
-0.458241	0.324011	9.725255	-1.388435	0.084666	0.097376	0.446539	-0.383399	-0.822349	1.461284	-0.406556	10.557338	1.399645	21.795056	17.492176	-0.082635	0.056757	-1.026555	9.426552	1.397421	-0.295242	-1.19539	-3.76987	-2.626434	-0.269928	-0.527027	-0.015081
-0.174403	0.610529	9.618323	-1.664083	0.208044	-0.053165	0.388913	-0.357887	-0.813708	1.227958	-0.068237	10.439508	2.937404	21.349102	18.352196	-0.133578	0.074993	-1.069505	9.249523	1.862681	-0.236658	-1.85249	-5.182112	-2.342253	-0.270136	-0.543219	-0.014244
-1.083917	0.784964	9.94235	-2.276429	0.359884	-0.140939	0.40302	-0.340962	-0.831549	0.299789	0.496556	10.137441	5.471758	19.107671	19.102675	-0.147295	0.042134	-1.038522	9.725784	1.978742	0.012267	-3.949783	-5.871424	-1.475621	-0.311719	-0.545484	0.016601
-0.565944	0.153217	10.063423	-2.551359	0.481176	-0.107508	0.40342	-0.372033	-0.810642	1.390983	-0.06894	9.990017	8.652594	16.948715	22.567483	-0.107921	0.074072	-1.055706	9.720687	1.803278	-0.288009	-4.31979	-6.152148	-1.075627	-0.283694	-0.528883	0.015904
-0.918793	0.725951	9.60433	-2.952673	0.143351	-0.295851	0.418283	-0.365351	-0.839143	1.049002	0.04451	10.152778	11.132008	15.343705	24.34163	-0.108141	0.08832	-1.04236	10.019049	1.338489	-0.164671	-5.236716	-5.860308	-0.034566	-0.283903	-0.545076	0.016741
-0.917431	0.381543	9.659735	-3.412949	0.017582	-0.235234	0.375922	-0.364227	-0.838095	0.521135	0.101432	9.688828	10.114627	12.976403	23.361552	-0.121193	0.072925	-1.041081	9.545549	1.455474	-0.232887	-5.663425	-5.747072	0.69995	-0.298023	-0.542801	-0.029913
-0.63248	0.668302	9.609656	-2.953362	-0.136365	-0.024384	0.403791	-0.368504	-0.824718	0.637151	0.270255	9.748028	9.537699	11.314569	23.190413	-0.094945	0.074147	-1.055982	9.483907	1.164487	-0.414944	-6.405439	-6.242614	1.041196	-0.283836	-0.527231	-0.015152
-0.915121	0.267142	9.772959	-2.644343	0.10814	0.224044	0.404549	-0.378747	-0.835378	0.760744	0.270371	10.146923	12.656061	8.836351	23.754039	-0.09487	0.089467	-1.056986	9.676362	1.167544	0.427054	-6.36594	-6.103747	2.415739	-0.297881	-0.544454	0.001143
-0.969325	0.669998	9.944094	-1.54042	0.299421	0.070636	0.402648	-0.344491	-0.817473	0.865341	0.720421	9.696603	14.406496	5.408183	21.563292	-0.107331	0.076215	-1.084406	9.791518	1.457159	0.310677	-6.143569	-5.401328	2.594962	-0.270554	-0.575604	-0.01257
-0.912936	0.325066	9.886906	-0.67907	0.669775	0.288851	0.433161	-0.375968	-0.850152	1.213714	1.057899	9.87406	13.162765	1.839797	16.224174	-0.108367	0.042359	-1.039349	9.558464	1.109738	0.424606	-4.153463	-3.687573	3.190847	-0.228342	-0.543433	0.001494
-0.909429	0.096024	10.0565	-0.277411	1.10049	0.417366	0.416783	-0.362164	-0.800331	0.927096	1.058486	9.924655	10.261227	-0.893824	11.292855	-0.094511	-0.01456	-1.093009	9.487498	1.513932	-0.173833	-2.686084	-2.35095	4.585089	-0.269857	-0.527853	0.000446
-0.913226	0.727157	9.888596	-0.674515	1.439112	0.209337	0.388885	-0.323288	-0.848692	0.921351	0.269574	9.584154	6.114199	-1.929718	6.901548	-0.082195	0.02826	-1.053247	10.086173	1.165857	0.255036	-2.42189	-1.514058	6.566813	-0.242459	-0.55983	0.002261
-0.745792	0.553743	9.6638	-0.702477	1.7442	0.398383	0.44501	-0.345614	-0.818521	1.047816	0.664146	10.153299	2.936318	-1.89125	4.2173	-0.120162	0.046571	-1.096472	9.720822	1.745202	-0.288256	-2.737119	-1.408899	5.161495	-0.283698	-0.510212	-0.031517
-0.799789	0.669391	9.833728	-0.760518	2.329205	0.285387	0.40492	-0.375219	-0.849454	1.448118	0.156275	9.991416	1.818167	-2.53786	2.452757	-0.081454	0.061045	-1.083954	9.844201	1.339389	-0.048158	-3.675873	-1.323938	2.536001	-0.29774	-0.546106	0.032199
-0.513268	0.324535	9.837848	-0.756934	3.19525	-0.191235	0.418269	-0.348051	-0.856635	1.050881	0.326258	10.266294	1.439874	-3.21197	1.644216	-0.095391	0.042434	-1.039625	9.493811	1.166712	0.124218	-3.489761	-1.139107	2.473318	-0.227924	-0.511048	-0.00018
-0.916483	0.61155	9.717554	0.042213	3.78704	-0.551934	0.388513	-0.326817	-0.834616	1.628175	0.099905	10.334833	1.079204	-2.419775	1.71346	-0.120533	0.030179	-1.081119	9.849163	1.572929	0.252365	-4.619457	-0.822804	4.034647	-0.256229	-0.543015	-0.014174
-0.967756	0.038382	9.998293	0.324905	5.051789	-0.838873	0.402648	-0.344491	-0.817473	0.636289	0.720899	9.748407	-0.402758	0.103609	2.138126	-0.095246	0.012865	-1.051967	10.02096	0.99028	-0.106247	-5.417798	-0.428341	4.06622	-0.270066	-0.544045	0.001283
-1.374519	0.611882	9.708646	-0.285508	5.886666	-1.528914	0.389313	-0.388957	-0.792801	1.039785	0.438492	9.756632	-4.589221	3.668734	2.108551	-0.107852	0.029182	-1.067045	9.67225	1.515258	0.248817	-6.054708	0.418585	4.767456	-0.269857	-0.527853	0.000446
-0.973406	0.152059	9.71451	0.549385	7.37153	-2.028545	0.404148	-0.347677	-0.856285	0.753514	0.88977	9.864246	-7.520667	6.416297	2.935049	-0.08234	0.057829	-1.040904	9.84007	1.222248	-0.28828	-5.488346	0.64733	6.506475	-0.297602	-0.529087	0.015834
-1.027652	0.612357	9.885886	1.598962	8.919544	-2.589105	0.387013	-0.32363	-0.795804	0.880279	0.495668	10.376089	-9.86587	9.22474	4.964932	-0.133653	0.059673	-1.068501	9.844627	1.630016	0.012985	-6.71543	0.662135	7.611175	-0.269995	-0.544872	0.016811
-0.900687	0.32772	10.51229	1.364628	11.015384	-3.198404	0.402291	-0.365318	-0.785906	0.93411	0.551748	10.207426	-11.213393	12.722671	6.63254	-0.134024	0.043281	-1.053148	10.018374	1.628869	-0.163434	-8.234104	0.423334	6.517489	-0.242667	-0.576022	0.003098
-1.196774	0.038548	9.993839	2.759873	13.72957	-3.464992	0.389285	-0.354359	-0.827784	0.927096	1.058486	9.924655	-11.387615	13.637377	7.073095	-0.08153	0.045725	-1.08295	9.953295	1.395217	-0.524965	-8.883692	-0.444326	7.379791	-0.256646	-0.5754	-0.0125
-0.964623	0.326314	10.170058	2.623468	16.684845	-3.937932	0.417154	-0.358636	-0.814407	0.983537	0.382317	9.812016	-11.001061	12.418587	6.660515	-0.107777	0.044503	-1.068049	10.014917	1.221348	-0.404793	-8.820647	-1.378175	8.973393	-0.298023	-0.542801	-0.029913
-0.962561	0.556563	10.28473	2.957553	20.925564	-3.747292	0.405692	-0.402761	-0.842622	0.978378	0.551119	9.5856	-10.782129	10.041289	4.910658	-0.094505	0.045649	-1.082674	10.18855	1.743133	-0.51908	-8.866422	-2.653886	8.093264	-0.270066	-0.544045	0.001283
-0.323523	0.098504	10.749872	2.730336	24.878597	-5.522512	0.389299	-0.371658	-0.810292	0.865234	0.776751	9.696651	-11.796872	7.859906	3.624186	-0.107186	0.046646	-1.096748	9.95179	1.569198	-0.58413	-7.47415	-3.748105	4.945303	-0.283836	-0.527231	-0.015152
-1.242893	0.041002	10.561256	1.928828	29.775863	-6.790041	0.44691	-0.379871	-0.836425	0.758003	0.439268	10.033786	-12.811931	5.648233	2.275761	-0.068548	0.106009	-1.07289	9.774336	1.743831	-0.58669	-6.200454	-4.944929	2.806935	-0.284182	-0.560442	0.00205
-1.628121	-1.449051	11.286278	1.044638	33.675551	-4.147917	0.460259	-0.352703	-0.843606	0.809524	0.438923	9.751797	-14.380939	3.584004	0.743391	-0.094575	0.090539	-1.071335	10.07822	1.745134	-0.101933	-5.139031	-5.373082	0.207258	-0.270278	-0.541567	-0.0453
-1.181469	-1.107146	10.728103	-3.983563	40.64664	-0.339929	0.44651	-0.3488	-0.857333	0.756232	0.10119	9.920222	-14.528038	1.570055	-1.033955	-0.081454	0.061045	-1.083954	9.777772	1.686496	-0.407217	-1.141361	-5.462739	-1.57943	-0.242459	-0.55983	0.002261
-0.869427	0.219592	12.103694	0.280345	46.544185	-1.053707	0.418683	-0.396421	-0.818235	1.513583	-0.181532	10.332178	-13.266064	1.189094	-1.283352	-0.081014	0.032548	-1.110646	9.719836	1.222023	-0.410295	2.404607	-4.705145	-2.635008	-0.283485	-0.512691	0.015067
-1.701229	-0.176087	13.449777	-0.541094	55.576975	1.487585	0.431618	-0.320884	-0.863815	0.744921	0.326085	9.410655	-10.765078	1.098184	-1.282243	-0.082265	0.07315	-1.041908	9.711343	2.033604	-0.766275	5.069109	-3.540173	-1.977846	-0.311301	-0.513099	0.014927
0.316146	0.584684	17.12937	26.056615	75.167107	8.230887	0.447682	-0.407413	-0.829594	0.706913	0.214291	10.315585	-8.176887	0.607795	-0.976757	-0.09406	0.077362	-1.099031	9.367691	1.804335	-0.234705	5.6434	-2.395027	-0.121071	-0.269648	-0.51166	-0.000391
-0.919917	0.106198	12.443217	28.37253	90.72445	11.022421	0.432775	-0.362197	-0.853568	1.153361	-0.012462	9.645392	-7.667984	1.778118	-0.779742	-0.081084	0.077437	-1.099307	9.311125	1.223957	-0.17837	6.029883	-1.648828	1.799442	-0.256158	-0.543841	0.001354
-1.231401	0.458092	14.086723	28.799678	99.690548	11.688274	0.461016	-0.362946	-0.854266	0.707451	-0.067362	10.315348	-7.590289	3.035743	-0.705518	-0.093834	0.123324	-1.102042	9.29983	0.872782	-0.83883	6.654352	-1.661426	3.233725	-0.297251	-0.514547	0.046052
-1.122543	0.571686	13.805167	32.943391	109.711804	12.912566	0.476695	-0.435704	-0.823461	0.646606	0.383295	10.201239	-6.469568	3.752717	-0.32755	-0.094135	0.062042	-1.098028	10.007484	1.103465	-0.824635	7.029768	-1.763526	4.363713	-0.256225	-0.561686	0.033246
-1.417391	0.110431	13.342845	35.17153	118.549101	12.068531	0.545011	-0.389549	-0.810718	0.99474	0.213752	10.32163	-7.079591	4.415867	0.233459	-0.120602	0.075068	-1.06978	9.711978	0.813513	-0.891281	6.196305	-1.609476	3.968666	-0.241411	-0.497538	0.045496
-1.135123	1.028564	13.181714	40.290914	124.296621	11.227267	0.532034	-0.413189	-0.817613	0.469506	0.158107	9.970865	-8.594661	4.275816	-0.046605	-0.081674	0.075293	-1.070607	9.407243	0.230956	-1.498324	5.142669	-1.323759	2.595753	-0.242179	-0.544463	0.016952
-1.665255	-0.008388	12.371406	47.15308	129.655633	10.129338	0.51637	-0.35773	-0.830927	0.641209	0.045075	9.917757	-7.869711	2.881913	-1.169693	-0.094575	0.090539	-1.071335	9.642228	0.695024	-1.491945	4.004327	-1.053189	2.659711	-0.284324	-0.558789	-0.029005
-2.098742	0.559321	10.717285	49.071479	132.425792	10.444851	0.544639	-0.393078	-0.796642	0.992083	-0.293365	10.151284	-7.610915	1.324769	-1.678217	-0.069949	0.11597	-1.002145	9.157433	0.460833	-2.22062	3.187496	-1.117034	5.597107	-0.311998	-0.56085	0.00191
-2.73691	-0.188893	10.247075	42.33729	132.594395	11.785613	0.574009	-0.400541	-0.822076	1.106244	0.213394	10.154129	-6.710189	-0.86128	-3.240626	-0.107626	0.075143	-1.070056	9.450043	0.575816	-2.334437	0.822135	-0.521351	6.336375	-0.269995	-0.544872	0.016811
-3.332133	-1.170051	9.037923	31.587139	129.49527	17.899213	0.573252	-0.390298	-0.811416	0.99474	0.213752	10.32163	-4.390529	-3.184064	-4.587454	-0.0945	0.105859	-1.072339	9.56819	0.052614	-2.394368	-0.770715	1.09854	5.906512	-0.256229	-0.543015	-0.014174
-3.078857	-0.200748	7.398853	18.366202	124.404774	22.515467	0.643498	-0.412999	-0.781595	0.825862	-0.518127	10.430666	-2.458673	-4.323053	-4.843847	-0.068698	0.075369	-1.070883	9.747304	0.11078	-2.271006	-2.678212	2.853567	4.132326	-0.28321	-0.478653	-0.017663
-3.334225	-0.723346	6.027753	-3.257989	117.129774	29.389306	0.630877	-0.415811	-0.820057	0.764024	-0.180178	10.259823	-1.992646	-4.13177	-5.057365	-0.09487	0.089467	-1.056986	10.105803	0.110958	-2.024775	-4.109598	4.522302	4.954774	-0.269857	-0.527853	0.000446
-3.030344	-0.432486	6.944176	-24.898603	106.733916	37.806551	0.6164	-0.436264	-0.788141	1.508747	-0.181721	10.10562	-0.839457	-3.262857	-4.400413	-0.094575	0.090539	-1.071335	9.515912	-0.003843	-2.036274	-5.514343	4.67773	7.190318	-0.297881	-0.544454	0.001143
4.044791	-0.557816	5.830998	-23.782502	82.835066	40.51161	0.659119	-0.41656	-0.820756	0.992214	0.269988	10.208398	-0.120389	-2.522299	-3.714259	-0.094205	0.106931	-1.086689	9.87414	0.112487	-1.78955	-4.894942	3.898484	8.81173	-0.283974	-0.544249	0.001213
9.384835	-0.271085	6.731703	-12.805658	35.624756	24.228424	0.671367	-0.417276	-0.768217	0.812134	-0.293326	9.80782	0.285993	-2.091511	-3.154746	-0.094575	0.090539	-1.071335	10.177329	-0.060685	-1.365441	-5.972679	3.239917	10.010819	-0.255882	-0.509804	-0.031376
9.370142	-0.606525	8.889559	1.316378	1.853914	-8.438222	0.685859	-0.414123	-0.782642	0.410516	0.270828	9.913111	0.099459	-2.185859	-3.155834	-0.081894	0.089542	-1.057261	10.406541	0.518299	-1.658101	-5.727653	2.436638	10.869597	-0.255878	-0.528475	0.016044
8.837052	-1.541663	5.01078	0.273146	-24.987457	-35.310706	0.671739	-0.413748	-0.782293	1.161607	0.100531	10.041964	-0.299047	-1.945632	-3.153766	-0.120156	0.106781	-1.086137	10.407912	0.402394	-1.598689	-4.843556	1.465393	10.443114	-0.297464	-0.512069	-0.000531
8.938081	-2.923479	4.268125	-7.579349	-55.354871	-57.930123	0.672139	-0.444819	-0.761385	0.992514	-0.518687	10.151095	0.196508	-1.81831	-2.905478	-0.120897	0.073996	-1.055431	9.993408	0.054389	-1.727689	-3.967456	0.695659	8.273488	-0.269369	-0.496294	0.0143
7.592226	-3.490868	5.660315	-18.055493	-75.928398	-69.861959	0.671753	-0.431047	-0.764801	1.278486	-0.18129	10.100784	0.439218	-2.153297	-2.785302	-0.133428	0.105634	-1.071512	10.582334	0.110867	-1.776344	-3.335134	0.35424	6.011045	-0.297952	-0.543627	-0.014385
6.170182	-2.511155	6.148258	-28.233215	-87.666736	-74.625628	0.686645	-0.458964	-0.758319	0.929706	0.326236	9.980678	0.46984	-2.154314	-2.569492	-0.069214	0.088545	-1.043187	10.226306	-0.004969	-1.903255	-3.721259	-0.796249	4.734238	-0.283903	-0.545076	0.016741
6.105838	-3.489308	5.745071	-35.268894	-98.591542	-76.68521	0.657604	-0.396074	-0.799436	0.471816	0.214532	10.084191	1.367988	-1.988212	-2.782914	-0.081674	0.075293	-1.070607	10.044701	-0.412333	-2.207822	-4.862351	-0.986094	4.953225	-0.269857	-0.527853	0.000446
5.42402	-3.028073	6.017905	-42.022501	-113.64156	-78.260386	0.657618	-0.413374	-0.781944	0.812265	0.270026	9.864934	1.884334	-2.7149	-3.190487	-0.120677	0.059748	-1.068777	10.106904	0.111206	-1.964868	-5.880454	-1.112741	5.018646	-0.269577	-0.512487	0.015137
5.330626	-2.965964	7.096128	-50.660505	-131.698369	-78.590337	0.672868	-0.420463	-0.807029	0.986493	0.100759	9.925058	1.873963	-3.570717	-3.630595	-0.081894	0.089542	-1.057261	9.754717	-0.236193	-1.913048	-6.154504	-0.250933	4.404244	-0.269995	-0.544872	0.016811
4.150595	-3.01771	8.209565	-53.762278	-147.121124	-78.525214	0.657604	-0.396074	-0.799436	0.581441	-0.067573	9.803174	2.396353	-3.779115	-3.570591	-0.08175	0.059973	-1.069604	9.343805	-0.234754	-1.800937	-6.280286	0.312158	3.148897	-0.283974	-0.544249	0.001213
3.41606	-2.670351	8.708215	-51.083183	-155.202355	-78.081282	0.686231	-0.410594	-0.796718	0.760181	-0.067659	10.089999	2.915387	-4.291352	-3.945201	-0.080939	0.047868	-1.111649	9.279867	0.461552	-1.978791	-6.459878	1.294773	2.716967	-0.283414	-0.513517	0.030595
2.226457	-1.804963	9.370689	-47.318974	-156.888226	-77.045637	0.657975	-0.392546	-0.813512	1.111834	-0.18073	10.380355	4.076211	-5.318491	-4.046964	-0.108512	0.071928	-1.027007	9.401896	0.636499	-1.736221	-7.198338	2.251743	1.614792	-0.283836	-0.527231	-0.015152
1.996118	-1.517831	9.310588	-46.774243	-154.38578	-75.104264	0.686588	-0.389767	-0.828286	0.923661	0.325999	9.69748	3.776436	-4.587437	-3.885797	-0.121418	0.026963	-1.03807	9.10502	0.462452	-1.862279	-7.10445	3.025651	0.75499	-0.255882	-0.509804	-0.031376
0.798312	-1.630878	9.514135	-50.63018	-150.566264	-71.778867	0.672096	-0.39292	-0.813861	0.811272	0.157318	9.808199	3.256155	-4.196251	-3.759014	-0.107256	0.091536	-1.085409	9.34396	0.172026	-1.739299	-7.999946	4.23594	-1.234126	-0.22848	-0.560452	0.017859
0.300797	-1.569204	10.414004	-54.666184	-146.853134	-67.28889	0.65949	-0.413031	-0.834832	1.509202	0.21264	10.162591	3.712541	-4.799661	-4.381204	-0.120232	0.091461	-1.085134	9.110907	-0.175396	-1.625371	-8.612016	4.877064	-1.326656	-0.269928	-0.527027	-0.015081
-0.253026	-1.27748	11.370578	-54.750511	-143.770112	-62.575212	0.673611	-0.413406	-0.835181	1.169315	0.495176	10.438773	3.396588	-5.355567	-4.386985	-0.082039	0.119111	-1.044919	9.290581	0.115321	-1.441113	-9.168935	5.034009	-1.906075	-0.241553	-0.495886	0.01444
-1.167817	-1.506342	11.40865	-52.605812	-142.122586	-57.83005	0.68846	-0.389425	-0.881174	0.989473	0.438884	10.095261	3.943631	-6.054231	-4.331837	-0.120822	0.089317	-1.056434	9.41232	-0.058435	-1.259933	-10.49216	4.776007	-1.074864	-0.283627	-0.511038	-0.015989
-2.014468	-1.388183	12.017815	-48.650743	-140.690563	-52.326795	0.702209	-0.393327	-0.867447	0.993854	0.044713	10.264848	6.511552	-8.19579	-4.782654	-0.095385	0.102644	-1.02929	8.40671	0.001442	-1.398207	-10.609973	4.578781	0.21014	-0.242041	-0.527445	0.000587
-3.676825	-1.732113	11.870369	-45.576123	-138.880706	-45.250553	0.731908	-0.345365	-0.959433	0.70404	-0.180165	10.145335	9.037832	-11.224089	-5.704736	-0.093985	0.092683	-1.100035	8.756135	0.115795	-1.630737	-9.647299	4.538073	1.521061	-0.297397	-0.494224	-0.032424
-4.536838	-1.61685	11.797297	-46.504327	-136.000407	-36.581283	0.676969	-0.39895	-0.944373	1.275314	0.212929	9.987837	12.555151	-13.969125	-5.821683	-0.095241	0.073075	-1.041632	8.699299	-0.348431	-1.573909	-9.482016	4.796918	3.169653	-0.297881	-0.544454	0.001143
-5.61766	-2.074147	12.115328	-47.516126	-131.829496	-27.860581	0.706696	-0.385586	-1.001375	1.329576	0.043687	9.818985	14.564114	-16.361574	-6.522063	-0.146629	0.059598	-1.068225	8.699299	-0.348431	-1.573909	-9.675819	5.220006	6.560947	-0.270345	-0.559411	-0.013407
-6.528039	-2.244602	12.381054	-46.76719	-124.557323	-20.720613	0.691432	-0.361198	-0.993782	1.165665	-0.124649	10.211693	15.07217	-17.732759	-6.874392	-0.108292	0.057679	-1.040353	8.349739	-0.404708	-1.341131	-10.553724	5.651689	8.884989	-0.311301	-0.513099	0.014927
-7.566662	-1.900896	11.964488	-45.686168	-112.566576	-14.670725	0.737152	-0.347866	-1.104021	0.869291	0.551571	9.86638	12.450718	-17.399471	-6.657393	-0.107701	0.059823	-1.069052	8.522946	-0.173551	-1.516561	-10.779078	6.665978	11.295627	-0.284462	-0.575808	-0.01264
-8.38707	-2.0193	10.981914	-48.821299	-97.56933	-9.786853	0.666892	-0.307866	-1.151334	1.391522	-0.350592	9.98978	8.009781	-16.900673	-7.14925	-0.08197	0.074222	-1.056258	8.822678	-0.754245	-1.333811	-11.196478	7.040984	13.343263	-0.256229	-0.543015	-0.014174
-8.804968	-1.448213	10.123736	-52.662645	-81.571318	-6.755627	0.695476	-0.270489	-1.201092	1.168083	-0.124554	10.324972	7.625072	-17.923263	-6.265724	-0.106665	0.093679	-1.114109	8.705882	-0.811803	-1.276352	-11.764011	7.563031	15.910409	-0.270066	-0.544045	0.001283
-8.749407	-0.644315	10.071375	-57.073134	-67.405657	-5.132668	0.667978	-0.262683	-1.228546	0.982974	0.044286	9.755092	6.417199	-18.068873	-5.096689	-0.108512	0.071928	-1.027007	8.824184	-0.928226	-1.274646	-12.453568	8.88946	17.557193	-0.297744	-0.527435	-0.015222
-23.20949	51.136464	54.108768	-184.348085	120.486168	-18.120861	0.61221	-0.219529	-1.290284	0.714812	-0.123408	10.655138	6.824405	-20.113943	-5.764077	-0.146774	0.089167	-1.055883	9.052255	-1.2792	-1.750982	-12.19339	10.199779	18.130774	-0.283694	-0.528883	0.015904
-17.291643	14.423889	12.867082	-80.259816	39.162503	-22.564332	0.641223	-0.24782	-1.284151	0.772054	0.045476	10.65649	4.900168	-20.757057	-4.93967	-0.120677	0.059748	-1.068777	8.705882	-0.811803	-1.276352	-9.926462	12.071119	18.388737	-0.256229	-0.543015	-0.014174
-20.83795	5.624834	9.692172	177.992701	49.60119	-8.232304	0.627846	-0.240389	-1.311954	1.049433	-0.180812	10.152588	8.876347	-23.720717	-3.578684	-0.120828	0.029107	-1.066769	8.941406	-0.580039	-1.270961	-8.184852	13.725505	18.741341	-0.297881	-0.544454	0.001143
-11.084446	11.592248	-3.448106	171.019992	114.170905	-47.436006	0.601505	-0.273897	-1.32916	1.387811	0.325279	9.87707	2.910585	-26.494502	-3.672716	-0.146184	0.091311	-1.084582	8.762427	-0.696281	-1.394571	-8.192828	15.172377	20.813069	-0.255811	-0.51063	-0.015848
-6.845293	4.285805	8.140128	109.398269	85.579941	-27.784746	0.62786	-0.257689	-1.294462	1.273458	0.550864	9.931482	-3.19963	-30.781209	-2.487134	-0.185262	0.060445	-1.081748	9.401991	-0.351288	-1.860238	-4.336901	15.958929	20.03115	-0.269648	-0.51166	-0.000391
-3.430888	2.325481	7.061671	32.29181	24.609755	-7.666818	0.627903	-0.309587	-1.241987	1.520836	-0.181247	10.672016	-4.920152	-34.396442	3.0246	-0.147741	0.010421	-1.022165	9.75945	1.04321	-1.48826	-2.945443	15.611411	15.656654	-0.297326	-0.49505	-0.016896
-0.651373	2.157922	8.706281	-22.224507	18.914852	33.121447	0.642381	-0.289134	-1.273904	0.692004	0.66675	12.353781	-15.084441	-41.879478	2.017183	-0.121789	0.010571	-1.022717	10.596971	1.392495	-0.812395	-4.30268	11.536653	15.803284	-0.311514	-0.51062	-0.031657
3.099903	1.070111	10.252253	-21.500864	48.944216	43.909404	0.656915	-0.337878	-1.235854	1.58268	-0.911173	13.503379	-23.32681	-53.606128	1.678182	-0.147075	0.027885	-1.051868	11.313968	1.392853	-0.319934	-6.152212	3.515021	21.808928	-0.283556	-0.511864	-0.000461
1.741474	-0.591562	10.957622	-5.290943	60.574797	16.762291	0.669907	-0.331538	-1.211467	2.165433	-2.095002	13.741031	10.465567	-68.096895	3.626825	-0.173687	0.070481	-1.011278	12.269771	1.160861	0.295753	-6.294957	-8.591579	30.090356	-0.298374	-0.557341	-0.060131
-0.667459	-0.877994	10.682236	11.034434	51.333687	-1.681508	0.686657	-0.341813	-1.275364	1.336146	-1.641366	15.365825	40.70096	-80.555094	1.955089	-0.212395	0.056007	-1.023797	12.273207	1.103526	0.475226	-10.936169	-17.304274	34.031246	-0.283277	-0.496498	0.01423
-1.830902	-0.134286	9.753454	8.771907	38.654327	4.405777	0.670622	-0.289883	-1.274602	1.326686	-1.362429	12.252093	42.250849	-90.317488	-3.381456	-0.200084	0.038618	-0.99437	11.202207	0.116192	-0.147854	-17.932692	-19.792848	26.792739	-0.325213	-0.494632	-0.032564
-0.981366	0.380137	9.317503	1.666064	34.915703	11.388088	0.685171	-0.355926	-1.21906	2.22141	-1.022446	16.460633	49.868305	-103.578212	-6.281609	-0.186964	0.009124	-1.006988	10.29262	0.170854	-1.482065	-16.34302	-20.292456	19.452918	-0.311443	-0.511446	-0.016129
-0.341665	-0.996986	9.778785	4.401995	28.384568	8.483446	0.699306	-0.3736	-1.201918	0.525292	-1.975693	17.78291	50.310634	-128.968688	-26.60197	-0.187184	0.023372	-0.993642	10.22152	0.633125	-2.080256	-11.694011	-17.903903	14.839615	-0.325492	-0.509998	-0.047255
-0.951462	-0.934746	10.790134	15.268091	23.148292	5.821733	0.698906	-0.34253	-1.222825	2.061449	-1.359631	17.023118	57.574815	-147.843237	-26.290417	-0.238717	0.039465	-1.007892	11.102921	0.862662	-2.242481	-10.213957	-14.294213	15.275522	-0.297397	-0.494224	-0.032424
-0.91017	-0.421191	9.997476	22.398901	21.92556	5.443996	0.685157	-0.338627	-1.236552	1.214399	0.163668	17.912498	66.504354	-172.105566	-29.945967	-0.26563	0.020779	-0.963288	11.40779	1.387144	-1.635685	-10.265745	-11.208616	12.63228	-0.31186	-0.543831	-0.014455
-1.152058	0.437944	9.371257	15.758986	13.81185	5.423242	0.727161	-0.360578	-1.206032	1.246054	-2.090846	16.49582	78.323103	-197.179582	-31.141103	-0.25347	-0.027252	-0.931854	12.590139	0.513303	-1.617385	-7.805276	-8.521526	2.06573	-0.297677	-0.50959	-0.047115
-0.69497	0.207605	9.322347	9.214684	7.345826	3.772971	0.726404	-0.350336	-1.195372	1.457218	-1.97699	18.312009	71.536608	-216.341871	-34.111206	-0.305154	-0.0418	-0.944097	12.478324	1.15414	-1.197518	-8.307537	-7.764516	-6.249027	-0.283347	-0.495672	-0.001298
-0.570149	-0.192398	9.834562	7.63367	4.479837	3.792278	0.713412	-0.356675	-1.219759	1.021734	-2.425824	19.43475	93.914898	-239.677155	-42.216288	-0.305449	-0.042872	-0.929747	12.486608	1.853277	-0.655389	-8.830856	-8.509739	0.571792	-0.269443	-0.476797	-0.048648
-0.696166	0.322247	9.265976	8.013099	2.126499	2.771584	0.713783	-0.353147	-1.233835	0.904856	-2.144003	19.37593	116.748392	-258.274093	-46.605612	-0.358389	-0.077029	-0.883588	11.61264	1.741623	-0.073321	-9.922023	-10.163868	6.360183	-0.283836	-0.527231	-0.015152
-0.059769	0.438121	9.619826	-1.032989	1.191331	2.935762	0.713798	-0.370447	-1.216343	1.667145	-2.090889	17.353876	135.032695	-280.002434	-50.96797	-0.37188	-0.063927	-0.855616	11.567099	1.628573	0.643967	-12.205167	-12.128308	3.290858	-0.325559	-0.527843	-0.015362
-0.164298	0.497817	10.129518	-3.513897	1.738473	2.461116	0.711912	-0.353489	-1.180947	1.166519	-2.370908	18.135713	151.357521	-290.494566	-53.956507	-0.398503	-0.141751	-0.835697	10.807187	1.806287	1.049751	-14.430148	-13.216527	-1.67767	-0.297464	-0.512069	-0.000531
-0.628932	0.381818	9.779009	-4.315841	1.342542	1.812972	0.685542	-0.352398	-1.233136	3.0327	-1.305417	16.703879	172.509766	-302.658016	-59.824396	-0.426447	-0.134084	-0.735701	9.919184	1.575266	0.852535	-14.828736	-12.787543	-1.892211	-0.283627	-0.511038	-0.015989
-0.913925	0.1525	9.829329	-5.949146	0.515631	0.884203	0.69892	-0.359829	-1.205333	4.938472	0.550312	17.198455	196.45086	-306.207403	-62.337117	-0.46604	-0.151773	-0.70517	9.39132	1.112368	0.960467	-16.066894	-12.748238	2.757659	-0.269648	-0.51166	-0.000391
-0.573697	0.094086	9.66521	-7.212131	-0.160426	0.355499	0.71304	-0.360204	-1.205683	2.293828	-0.571293	17.198536	211.434272	-295.61533	-65.240701	-0.479983	-0.230594	-0.671177	9.444969	1.052921	0.661785	-15.476726	-12.037039	8.131428	-0.269577	-0.512487	0.015137
-0.346741	-0.136328	9.554992	-7.275309	-0.530886	0.472331	0.70042	-0.363015	-1.244145	5.878617	0.434302	15.406444	229.105816	-265.688692	-46.681237	-0.507341	-0.280993	-0.610216	8.736215	0.821989	0.587684	-13.971345	-10.124251	10.011881	-0.283347	-0.495672	-0.001298
-0.684866	0.094893	9.833542	-6.90778	-0.684915	0.652777	0.726775	-0.346807	-1.209448	2.200095	0.155016	10.177051	229.847832	-220.768073	-35.322403	-0.521648	-0.315997	-0.550534	8.960714	0.586426	-0.067879	-11.797407	-7.631626	9.289109	-0.311652	-0.527639	-0.015292
-0.504976	-0.363075	10.232924	-6.692165	-0.593108	0.77632	0.670322	-0.379908	-1.173067	-12.000482	-3.383305	-8.467306	191.088536	-156.336724	-26.051534	-0.535805	-0.320359	-0.492859	9.125658	0.583301	-0.723553	-9.947598	-6.165578	7.166434	-0.297393	-0.512895	0.014997
-0.278476	0.038368	10.125361	-5.124547	0.214957	0.631601	0.714941	-0.39446	-1.223587	-15.267129	-8.566484	-16.409855	64.10778	-17.596979	1.952382	-0.576139	-0.370833	-0.431622	9.544294	1.048448	-0.354431	-6.935696	-2.935137	6.375993	-0.311585	-0.509794	-0.047185
-0.617382	-0.190185	10.345127	-2.578101	0.59492	0.691782	0.711854	-0.284292	-1.250914	-9.461863	-4.786726	2.511308	-75.121096	68.938445	52.27527	-0.536181	-0.396961	-0.487841	9.772095	0.813625	-0.830273	-5.746435	-0.418515	5.962338	-0.283698	-0.510212	-0.031517
-0.451435	0.153134	10.06565	0.085657	0.27071	0.556174	0.669536	-0.335066	-1.197391	-7.977512	-4.557576	10.072369	-86.356846	113.004954	72.961298	-0.548931	-0.351075	-0.490576	9.713774	0.988236	-0.770725	-3.057673	2.249265	3.280799	-0.25574	-0.511456	-0.00032
-0.278144	-0.421165	10.12343	2.073259	-0.176447	0.144504	0.726389	-0.333036	-1.212864	-5.504786	-3.210278	10.125491	-49.810277	103.440013	78.96957	-0.562133	-0.397111	-0.487289	10.429671	0.988346	-0.338172	-3.281937	4.938101	3.482724	-0.297606	-0.510416	-0.031587
-0.34369	0.266486	9.727241	3.448227	-0.783951	0.069337	0.712669	-0.363732	-1.191607	-3.548823	-4.061379	7.335111	-23.166075	87.164648	74.882452	-0.522239	-0.31814	-0.521834	10.430886	0.465662	-0.340397	-3.14921	8.246336	6.033835	-0.283623	-0.529709	0.031432
-0.743606	0.611667	9.777747	3.472806	-1.235749	-0.735444	0.685971	-0.418067	-1.177245	-4.098262	-4.345679	3.133872	-25.558621	80.074592	62.446219	-0.546714	-0.312931	-0.593031	10.663805	0.871159	-0.454078	-3.647081	10.616378	7.39973	-0.325559	-0.527843	-0.015362
-0.808117	-0.13672	9.375525	2.768153	-1.239735	-0.672145	0.714169	-0.366918	-1.230419	-4.58799	-3.613611	1.822107	-56.671197	85.728546	46.599243	-0.546639	-0.297611	-0.594035	10.855564	0.69974	0.327271	-5.577081	10.923915	3.615289	-0.311793	-0.525986	-0.046348
-0.91508	0.209701	9.772718	0.712932	-1.400549	-0.883519	0.672151	-0.327668	-1.278431	-5.290165	-3.103385	4.015762	-85.77427	101.45989	30.638851	-0.546338	-0.236329	-0.59805	10.501197	0.816703	0.321163	-7.625654	10.104185	2.312386	-0.269577	-0.512487	0.015137
-0.231408	0.265921	9.615762	-1.123847	-1.290031	-0.539087	0.726404	-0.350336	-1.195372	-5.356118	-1.636537	6.45008	-97.81124	123.179969	17.311119	-0.559245	-0.281293	-0.609113	9.794509	0.644342	0.367123	-10.103572	8.37811	2.726923	-0.297397	-0.494224	-0.032424
-0.453787	0.324976	9.952667	-1.826302	-1.081327	-0.257661	0.686314	-0.37994	-1.226305	-5.512298	-0.790545	7.296759	-94.522305	147.695367	8.709847	-0.545453	-0.233113	-0.641099	9.551281	0.410847	-0.057616	-11.047933	6.36241	2.09813	-0.297114	-0.497529	0.029687
-0.109271	0.497293	10.016925	-1.334106	-0.927811	-0.041907	0.713412	-0.356675	-1.219759	-5.282013	-0.171293	7.358756	-88.244809	169.462577	4.060648	-0.544121	-0.198185	-0.700505	9.315331	-0.111544	-0.12415	-12.400186	4.172469	0.432504	-0.26979	-0.510008	-0.031446
-0.51434	0.266852	9.780753	-0.385124	-0.982753	-0.229539	0.74201	-0.336597	-1.252025	-4.943527	0.278468	7.08319	-89.632675	183.95164	1.151762	-0.529745	-0.208071	-0.771526	9.313846	0.527292	-0.12143	-12.078317	2.964586	-0.968787	-0.31151	-0.529291	0.015764
-0.34237	-0.02048	9.782887	1.207784	-1.09824	-0.236001	0.685571	-0.386997	-1.198153	-4.887925	0.672626	7.028092	-99.356165	194.341721	-0.109064	-0.516248	-0.160963	-0.789162	8.83635	0.46906	-0.430016	-11.334043	1.58954	-3.807213	-0.297393	-0.512895	0.014997
-0.459354	0.32377	9.668402	2.889684	-1.423903	-0.64482	0.727147	-0.343279	-1.223524	-3.891026	1.854541	8.012512	-107.96363	202.716789	-0.248405	-0.527528	-0.169927	-0.873981	8.954092	0.120087	-0.489205	-11.101152	0.933531	-5.363576	-0.297811	-0.54528	0.016671
-0.221346	0.210651	10.127198	2.73626	-1.549285	-0.493076	0.714184	-0.384218	-1.212927	-3.333045	1.855136	9.892499	-112.400115	208.631912	-0.193083	-0.43588	-0.121296	-0.907622	8.959324	0.237475	-0.189176	-12.158535	0.201916	-5.967485	-0.297047	-0.479684	-0.002205
-0.40082	0.094203	9.725403	1.910074	-1.369104	-0.457101	0.684399	-0.328384	-1.225892	-2.804292	1.967254	10.413231	-113.010635	214.074933	-0.17021	-0.408081	-0.099395	-0.995275	9.200485	0.412399	0.115502	-12.770539	0.252996	-5.201474	-0.31151	-0.529291	0.015764
-0.061872	0.265314	9.505396	1.669194	-0.850586	-0.202637	0.712283	-0.349961	-1.195023	-2.789331	2.362184	11.149877	-111.914077	220.062534	-0.541306	-0.342241	-0.080483	-1.040707	9.082703	-0.168338	0.050922	-12.777447	-0.665317	-5.135944	-0.339259	-0.511855	-0.01627
-0.397687	0.382135	9.897169	0.628903	-0.64137	-0.104238	0.699291	-0.356301	-1.219409	-2.319245	2.418032	11.612713	-111.527105	228.466986	-1.998712	-0.327708	0.000481	-1.1034	9.621416	-0.109747	0.480421	-12.408134	-1.004251	-4.768924	-0.325839	-0.543209	-0.030053
-0.286311	0.09412	9.72763	0.175735	0.151341	0.277964	0.671808	-0.365795	-1.229371	-1.734136	2.529994	12.078014	-113.934558	238.159544	-4.586161	-0.274478	-0.0245	-1.174244	9.551976	0.585323	0.003033	-12.605168	-1.571927	-6.14077	-0.297881	-0.544454	0.001143
0.005611	-0.019764	10.016981	-0.096209	0.796117	0.22789	0.699277	-0.339002	-1.236901	-1.480559	2.981156	13.216021	-117.759273	248.085923	-8.313025	-0.17015	0.023133	-1.19381	9.318227	0.063426	0.056313	-11.32396	-2.410524	-7.42498	-0.325489	-0.528669	0.000166
-0.623074	-0.019067	10.061585	-0.032291	1.320928	0.052228	0.699291	-0.356301	-1.219409	-0.952692	2.924235	13.67997	-118.561227	255.083954	-12.590651	-0.130776	0.055071	-1.210995	9.25701	0.063066	-0.064602	-11.332706	-3.263232	-7.787611	-0.297952	-0.543627	-0.014385
-0.164997	-0.07684	10.070252	1.01056	1.511227	-0.039685	0.699663	-0.352773	-1.233485	-0.066782	3.205172	14.774494	-118.77209	257.557171	-16.697034	-0.078207	0.072836	-1.241801	9.203922	0.355065	0.294975	-10.478739	-4.484307	-7.723754	-0.283765	-0.528057	0.000376
-0.567265	0.440183	10.007776	2.142965	1.176734	0.104959	0.685171	-0.355926	-1.21906	0.363764	3.318169	16.085762	-115.488236	255.619145	-18.285871	-0.000861	0.146672	-1.205424	9.789526	-0.054054	0.004715	-9.906507	-5.946666	-8.085579	-0.298232	-0.558993	-0.029075
-0.569409	0.324817	9.893587	2.389685	1.361226	0.199251	0.726804	-0.381406	-1.174464	0.032555	3.488376	16.758326	-108.578213	249.9703	-16.5486	0.064239	0.132799	-1.220149	9.43707	-0.2853	0.05703	-11.016208	-7.63102	-11.221255	-0.283974	-0.544249	0.001213
-0.570605	0.439459	9.837217	2.733753	2.219114	0.580218	0.714541	-0.36339	-1.244495	0.559668	3.825769	17.222607	-99.500001	242.813093	-9.368156	0.116959	0.181204	-1.252962	10.085572	0.003594	0.070371	-10.824295	-8.826653	-13.844388	-0.255878	-0.528475	0.016044
-0.391995	0.211016	10.180711	2.960965	4.030145	0.885007	0.713783	-0.353147	-1.233835	0.914623	3.881832	17.683025	-94.620401	238.847679	2.5575	0.181323	0.194756	-1.226645	9.67439	0.121186	0.182976	-9.414182	-8.681864	-15.530947	-0.325418	-0.529496	0.015693
-0.340474	0.439535	9.898524	3.191671	6.425748	1.137951	0.685128	-0.304028	-1.271536	1.539296	4.556328	17.357054	-93.998871	238.284636	19.724023	0.207721	0.226619	-1.243553	8.857352	-0.514029	0.584199	-7.325619	-8.410709	-17.373335	-0.325768	-0.544036	-0.014525
-0.576913	-0.078962	9.493927	2.81136	9.063271	1.488589	0.698548	-0.363358	-1.191258	4.162186	5.285102	18.997981	-93.759187	237.288268	41.572752	0.246134	0.240021	-1.216685	8.978011	-0.223177	0.767356	-4.934015	-7.845586	-15.001097	-0.283765	-0.528057	0.000376
-0.222127	-0.249123	10.068414	1.684957	10.507185	1.085951	0.6863	-0.362641	-1.243796	7.294272	6.237897	20.2535	-88.643915	233.38101	63.829015	0.323694	0.239399	-1.203989	8.325397	-0.164358	0.575778	-3.3829	-7.016456	-8.868119	-0.284111	-0.561268	0.017578
-0.278434	-0.019074	10.125119	2.234979	10.483202	0.715965	0.726761	-0.329508	-1.226939	12.900547	6.509996	21.447153	-71.901089	222.718029	83.438346	0.375083	0.252876	-1.177397	8.205549	-0.803666	0.391137	-1.575633	-5.987131	-1.300291	-0.296834	-0.482162	0.044378
-0.509845	0.210375	10.007924	3.4021	11.263856	0.111936	0.726404	-0.350336	-1.195372	18.203378	3.570941	21.612547	-33.786794	203.384105	93.482386	0.388284	0.298912	-1.180683	8.038944	-1.03334	0.926009	-0.210425	-4.380703	3.546638	-0.270412	-0.577256	0.018485
-0.67703	0.03914	10.231272	6.008523	11.897927	-0.529288	0.713412	-0.356675	-1.219759	22.096076	1.419672	17.786027	5.503303	166.646688	92.254046	0.453164	0.299287	-1.182062	8.629126	-0.569834	0.998898	1.656564	-2.384916	9.368162	-0.29809	-0.560646	0.00198
-0.276332	0.153733	10.239549	9.385262	13.650208	-1.890596	0.740939	-0.39908	-1.157322	24.831779	-6.360773	15.855124	13.999646	119.937722	83.686733	0.451607	0.218398	-1.119645	9.675025	-1.098905	0.057971	3.072893	-0.602904	12.04429	-0.326044	-0.578073	0.018205
-0.281858	0.095085	9.955043	10.412919	16.800167	-2.793076	0.742039	-0.371196	-1.217041	23.562784	2.70666	11.137494	-22.951509	31.887036	82.133416	0.47793	0.23494	-1.13555	10.084276	-1.333143	-0.174943	4.89294	0.643924	10.411769	-0.297393	-0.512895	0.014997
-0.678019	-0.133426	10.173695	8.376222	20.341865	-4.263076	0.673322	-0.38628	-1.250691	32.533779	-6.544681	15.45058	35.495904	-8.437248	60.535811	0.503071	0.247195	-1.094056	10.207271	-1.099873	0.127781	5.590886	0.540279	2.921432	-0.339668	-0.581582	0.080246
-0.511906	-0.019873	9.893253	4.740516	23.328166	-6.197549	0.742782	-0.364139	-1.245193	25.235336	-4.000176	10.713792	26.345623	-52.461727	64.06803	0.529764	0.28013	-1.125314	10.147849	-0.92551	0.127423	7.111981	-0.939733	-4.289813	-0.270066	-0.544045	0.001283
-0.340143	-0.019998	9.896593	-3.666849	27.422464	-7.51758	0.741667	-0.374724	-1.202965	24.003076	4.28711	15.733883	5.584311	-96.263389	93.7397	0.502776	0.246123	-1.079706	10.103409	-1.038313	0.904617	8.053025	-2.42949	-4.836223	-0.297598	-0.547759	0.063254
-0.325626	-0.074303	10.635442	-12.658289	32.018485	-9.962562	0.740524	-0.35071	-1.195721	17.591612	3.3945	11.805291	55.489664	-132.854613	123.017572	0.49002	0.231799	-1.092776	9.509946	-1.037704	0.713892	8.366935	-3.55669	-2.203647	-0.298023	-0.542801	-0.029913
-0.678723	0.84308	10.177798	-17.578961	35.710238	-12.311315	0.697034	-0.342872	-1.169937	-4.67007	0.448735	9.127194	35.109888	-129.708354	127.87366	0.451682	0.233718	-1.120648	9.868985	-1.26983	0.959134	9.704427	-3.29459	-0.467676	-0.312207	-0.577043	0.002747
-0.654801	0.101407	11.368575	-16.989073	41.830288	-12.458888	0.755388	-0.344028	-1.224222	-6.747776	1.353762	8.914513	-0.94357	-102.106582	144.369813	0.452128	0.265431	-1.137005	9.810779	-1.618151	0.95655	10.043109	-0.89838	1.597946	-0.339814	-0.561258	0.00177
-1.129912	0.615093	10.509043	-11.168924	47.881295	-15.229628	0.726389	-0.333036	-1.212864	-3.941751	3.091916	5.747971	-54.618676	-89.151074	165.548356	0.438851	0.204074	-1.132715	10.156538	-0.4006	0.66881	9.01282	4.251963	3.074707	-0.312207	-0.577043	0.002747
-0.871322	-0.240423	11.988058	-4.838507	54.18921	-13.366412	0.768765	-0.351459	-1.196419	-0.964272	6.353102	5.360468	-76.499204	-126.402904	161.213166	0.439442	0.206218	-1.161415	10.274976	-0.575099	0.670269	5.713674	12.819776	7.569264	-0.297811	-0.54528	0.016671
-0.688957	-1.042557	12.499698	-3.038588	58.827102	-15.136427	0.76878	-0.368759	-1.178928	3.960809	6.91091	9.710461	-60.493026	-150.58028	135.236678	0.452273	0.235862	-1.149348	10.846835	-0.75488	-0.337885	3.844747	22.146934	13.124991	-0.29774	-0.546106	0.032199
-0.566778	-0.868627	12.90062	8.445887	70.529689	-12.709615	0.797406	-0.383279	-1.17621	9.521543	0.993865	18.993526	-27.942575	-140.309579	73.079212	0.4132	0.265206	-1.136178	11.188692	-0.700334	-0.990011	4.410951	29.055834	10.8281	-0.31151	-0.529291	0.015764
-1.595007	-1.039723	12.99356	10.913084	81.051574	-10.153389	0.768394	-0.354988	-1.182343	7.067179	0.938254	14.526024	-4.052379	-106.336383	10.541461	0.413275	0.280526	-1.137182	10.434842	-0.288832	-0.223797	3.485152	30.814017	-8.645659	-0.297393	-0.512895	0.014997
1.04807	0.134304	19.414925	32.51026	106.207618	2.062214	0.823376	-0.3533	-1.144928	0.381182	-3.500018	13.58909	7.90848	-73.74274	-10.519689	0.361887	0.267049	-1.163775	11.496518	1.393684	-0.017099	0.72553	30.450821	-27.732952	-0.312136	-0.577869	0.018275
-1.234747	-1.713306	16.748535	35.361438	132.33935	7.048289	0.811141	-0.369882	-1.179975	-2.094501	-4.565759	13.422927	51.650987	-54.196043	35.922291	0.348396	0.280151	-1.135803	12.649681	3.128072	-1.245718	1.299882	32.996868	-22.277517	-0.298023	-0.542801	-0.029913
0.147428	-1.183051	20.13065	36.404766	156.363954	15.378395	0.82379	-0.40167	-1.106529	-0.407745	-1.246819	11.876083	110.728228	-50.830892	67.697862	0.36048	0.2168	-1.103365	13.701123	3.529949	-1.763341	0.787785	36.059881	-2.090184	-0.284462	-0.575808	-0.01264
-1.275423	-1.537321	17.600942	54.527449	183.086625	22.782919	0.79592	-0.397392	-1.119906	1.869381	2.350927	8.360388	110.716699	-58.144521	50.945168	0.348245	0.24951	-1.133796	13.297023	2.022154	-1.477938	4.85038	33.448968	0.322011	-0.325347	-0.530322	0.031221
1.240275	-3.226078	26.167319	66.11057	214.038603	28.036397	0.906999	-0.383432	-1.087304	3.467222	1.446005	7.657164	61.092106	-50.126093	8.686269	0.361881	0.206839	-1.17411	12.592421	2.373219	-1.250032	6.357172	26.365052	-18.230544	-0.312136	-0.577869	0.018275
2.617525	-2.31963	23.470069	103.099162	256.585419	33.558516	0.908127	-0.390146	-1.11204	0.752282	0.270039	9.750446	12.293184	-44.845007	-11.986085	0.348315	0.204621	-1.145135	11.36229	2.203804	-0.794628	7.695765	17.916958	-26.17058	-0.284391	-0.576634	0.002887
1.964219	-2.151916	22.26463	125.062511	288.161789	30.513436	0.921148	-0.418405	-1.052669	0.087159	-1.136029	10.810906	27.288119	-43.157644	-6.377463	0.322212	0.17383	-1.142576	10.697301	2.376057	-1.644688	10.91019	12.079657	-10.783513	-0.298437	-0.593857	0.019182
1.130164	-3.422287	20.538139	147.929358	318.184506	34.554113	0.920005	-0.394391	-1.045425	1.549759	0.887882	9.428054	39.514556	-43.635243	-8.09872	0.310493	0.193363	-1.200703	11.170106	2.084596	-1.63712	12.365176	10.372846	3.919703	-0.297326	-0.49505	-0.016896
0.537561	-2.494564	22.462757	168.931229	345.422453	36.776465	0.961652	-0.43717	-0.983337	2.147753	2.237348	7.913221	-4.330591	-33.958132	-20.738608	0.282989	0.172533	-1.127399	10.574422	1.619855	-2.009544	11.56482	10.705608	-1.916543	-0.311931	-0.543005	-0.029983
-0.948941	-1.701168	19.652497	182.224745	370.652652	36.719453	0.960923	-0.461526	-0.937694	0.574642	0.326504	9.520308	-30.93524	-28.130183	-30.381601	0.309236	0.173755	-1.1423	9.862366	1.388182	-2.263366	8.258004	11.881296	-16.182008	-0.311931	-0.543005	-0.029983
-0.693324	-1.523219	21.022149	171.887169	386.340996	37.403128	1.003327	-0.514548	-0.886266	1.421612	-0.912759	11.348657	-11.157108	-24.632235	-25.090429	0.309456	0.159506	-1.155646	9.453965	2.203675	-1.908166	4.543784	13.571646	-21.188187	-0.298161	-0.55982	-0.013548
-3.224585	-2.685467	17.387698	170.128111	397.326349	39.487943	1.030854	-0.556952	-0.823829	0.931022	0.269953	10.03727	-7.09107	-18.062082	-23.048936	0.283065	0.187853	-1.128403	9.290102	1.742191	-1.254469	-0.418937	17.501263	-15.382869	-0.284044	-0.543423	-0.014315
-6.522507	-3.737117	12.602192	150.13723	379.145179	46.025536	1.043103	-0.557669	-0.77129	0.763161	0.270466	10.260202	-8.436935	-14.325887	-20.207637	0.296556	0.174752	-1.156374	9.47912	1.802582	-0.591945	-5.17954	20.961172	-11.40939	-0.339676	-0.54424	-0.014595
-3.789827	-3.545228	17.714062	129.39677	352.920403	46.915591	1.054965	-0.544615	-0.722167	0.943195	-0.405586	10.546458	-11.720096	-12.646229	-20.840942	0.28395	0.191069	-1.171452	9.774741	1.569603	-0.587432	-8.44386	22.339362	-12.687661	-0.326044	-0.578073	0.018205
0.744616	-1.297809	6.786634	135.699345	332.79031	54.418539	1.05538	-0.592985	-0.683768	1.173672	-0.518678	10.551198	-6.009394	-10.233675	-17.606362	0.270529	0.159281	-1.154819	10.005459	1.974606	-0.820927	-8.452988	20.648843	-11.915565	-0.270207	-0.542393	-0.029772
3.464402	-2.307509	-0.495842	117.220362	286.144755	56.25757	1.124882	-0.622742	-0.625794	1.345722	-0.181019	10.55511	-5.108731	-7.087598	-13.967584	0.270164	0.203099	-1.129131	10.018259	2.151801	-0.101303	-8.763953	17.112852	-7.313488	-0.339814	-0.561258	0.00177
10.762622	-4.654749	-10.763743	94.777886	202.616229	44.969049	1.107389	-0.619523	-0.533745	0.996487	-0.067853	10.378032	-3.366774	-6.030244	-12.845888	0.282619	0.15614	-1.112046	10.371951	2.325219	-0.093958	-8.073345	11.375152	-2.429302	-0.297673	-0.528261	0.000306
18.669748	-10.818817	-13.477443	23.064867	74.96881	19.06117	1.136388	-0.630515	-0.545104	0.763831	0.552166	10.317079	-0.462975	-6.023461	-12.935966	0.270459	0.20417	-1.14348	10.365983	1.103644	-0.578405	-8.819252	4.642611	0.570106	-0.339885	-0.560432	-0.013758
14.313332	-3.860474	1.072566	-109.945779	-43.706931	-45.267219	1.107018	-0.623052	-0.519669	1.217748	0.213036	9.986628	0.094918	-5.777921	-11.884946	0.270089	0.187778	-1.128127	10.602588	0.8708	-0.574992	-10.404895	-2.140907	2.319764	-0.340373	-0.591991	-0.027612
16.014982	-4.587144	6.103679	-118.922575	-117.394489	-79.75688	1.094369	-0.591264	-0.593115	0.532469	0.496219	10.255556	-0.155118	-5.96787	-11.455453	0.270013	0.172458	-1.127123	10.34768	0.925213	-1.597564	-10.855739	-6.393871	-0.653488	-0.311652	-0.527639	-0.015292
11.710371	-4.51642	8.407125	-95.434659	-145.787151	-104.680414	1.094369	-0.591264	-0.593115	0.940046	0.608316	10.490672	-3.266828	-5.217995	-10.248231	0.243766	0.171236	-1.112222	10.356369	1.450123	-1.056177	-10.454513	-9.84277	-1.219171	-0.31186	-0.543831	-0.014455
7.644897	-5.490225	8.267112	-72.53738	-140.796533	-106.905397	1.108833	-0.553512	-0.642524	0.751612	-0.011661	9.693569	-3.238462	-5.316645	-9.170227	0.257998	0.190919	-1.1709	9.709372	0.987247	-1.010353	-9.803414	-12.179172	-2.799622	-0.298094	-0.541975	-0.04544
6.601878	-6.136576	4.663783	-74.828364	-131.672381	-96.163631	1.094341	-0.556666	-0.628099	0.757656	-0.011423	9.976767	-4.284389	-4.848376	-7.779171	0.28314	0.203174	-1.129406	9.003244	1.047438	-0.903497	-8.216005	-12.050124	-5.862169	-0.340302	-0.592817	-0.012084
6.779012	-5.228775	2.056856	-91.864176	-133.945692	-81.668563	1.095069	-0.53231	-0.673743	1.338146	-0.012312	10.215414	-4.81252	-5.013401	-7.010546	0.231531	0.203945	-1.142653	9.114674	1.045684	-1.260738	-6.222054	-9.847036	-5.268674	-0.326044	-0.578073	0.018205
6.102596	-4.536566	2.614921	-116.95529	-148.365229	-67.901192	1.094269	-0.470169	-0.715558	0.936289	0.044821	10.263639	-3.733698	-5.127176	-6.270945	0.284101	0.22171	-1.173459	9.228304	1.044425	-1.498164	-4.974342	-8.441867	-4.668666	-0.298299	-0.576838	0.002817
5.97112	-3.263802	4.720453	-134.8107	-170.249308	-57.498255	1.066371	-0.431293	-0.763919	0.935727	-0.29321	10.206715	-3.395769	-5.304645	-6.611543	0.243917	0.201877	-1.114229	8.706503	0.815314	-1.029802	-3.749176	-5.965893	-4.104245	-0.298787	-0.608397	-0.011036
5.552466	-2.278279	6.762359	-138.71873	-194.90327	-52.273453	1.05185	-0.399848	-0.784477	0.925648	0.551416	9.810949	-1.91685	-5.621747	-6.829299	0.269793	0.186706	-1.113777	8.772392	0.700511	-0.669755	-1.973243	-4.876986	-2.31271	-0.340023	-0.577451	0.002607
5.539005	-1.23464	9.039713	-127.511539	-217.528077	-51.814239	0.996454	-0.353166	-0.860292	1.219196	0.720106	10.100334	-1.073263	-4.731514	-5.340038	0.244878	0.220413	-1.158282	8.773492	0.700758	-0.609848	0.102116	-3.211146	-2.969983	-0.270207	-0.542393	-0.029772
4.113869	-0.600299	9.355649	-109.47951	-235.974346	-53.668941	0.997583	-0.35988	-0.885028	0.644727	0.101548	10.087723	1.43673	-3.973046	-3.912398	0.218926	0.220263	-1.157731	8.361074	0.876178	-0.556902	1.161243	-1.9239	-2.857713	-0.326603	-0.608805	-0.011177
3.041417	-0.308927	10.131642	-95.542764	-247.651455	-54.634971	0.95555	-0.30333	-0.950532	1.163378	0.438608	10.155527	3.380313	-4.191664	-4.221286	0.270233	0.158209	-1.140469	8.599225	1.399064	-0.370555	1.891934	-1.155031	-0.052277	-0.339672	-0.562911	0.032825
1.442047	-0.881458	10.26861	-91.73696	-253.632825	-51.982072	0.913188	-0.302207	-0.949484	1.099445	0.607471	9.871263	3.776784	-4.614279	-4.471792	0.270829	0.220563	-1.158834	8.835539	0.817516	-0.428532	1.603881	0.326663	1.50041	-0.340578	-0.626854	0.020646
0.249809	-0.993299	10.756422	-95.245416	-254.766934	-45.670951	0.912774	-0.253837	-0.987883	1.268838	0.438014	9.704828	3.546254	-5.894121	-6.149403	0.244432	0.1887	-1.141925	8.835114	0.526889	-0.489675	2.475946	1.244619	1.767941	-0.326044	-0.578073	0.018205
-1.403557	-1.450182	11.063319	-99.713097	-254.465889	-36.082468	0.830308	-0.265018	-1.03526	0.70307	0.32681	10.145761	3.74457	-7.473941	-8.014611	0.243986	0.156987	-1.125568	8.593122	0.235566	-0.854754	4.856608	1.178738	3.043299	-0.284249	-0.578287	0.033943
-2.050774	-1.096351	13.098117	-100.849862	-256.966784	-24.95464	0.814273	-0.213088	-1.034498	0.985739	0.495073	9.92539	1.284657	-9.094531	-8.803393	0.257778	0.205167	-1.157554	8.112885	0.409143	-1.282165	4.038498	1.955631	4.54018	-0.312904	-0.624794	-0.01027
-1.984321	-1.496553	13.552366	-96.592845	-264.074839	-15.052687	0.744785	-0.20063	-1.07498	1.096465	0.269345	9.701059	-0.669232	-9.674043	-8.379141	0.270013	0.172458	-1.127123	8.639648	0.871795	-1.450003	2.228099	2.677572	5.093445	-0.35386	-0.578481	0.018064
-1.981105	-1.323504	13.723649	-87.442216	-271.812995	-7.291793	0.716915	-0.196353	-1.088358	0.759104	0.495646	10.090473	-1.626715	-9.541718	-7.022181	0.270899	0.175673	-1.170173	8.942527	-0.114937	-1.14917	-0.008864	4.319766	5.24653	-0.284671	-0.592001	-0.011803
-1.968898	-1.263409	14.349274	-80.186056	-276.572625	-2.482929	0.660748	-0.122129	-1.171004	0.939892	-0.57472	10.376397	-4.523542	-8.853435	-5.352971	0.257923	0.175598	-1.169897	8.772236	0.293731	-0.731392	-1.885478	5.484892	4.330844	-0.326532	-0.609632	0.004351
-2.01972	-0.917271	14.690727	-79.901569	-276.940737	0.239741	0.602765	-0.117444	-1.130795	1.171278	0.10091	10.495081	-1.542789	-9.958331	-4.097619	0.232417	0.207161	-1.185702	8.535341	0.177872	-0.796195	-4.064901	6.855802	4.118248	-0.29872	-0.590552	-0.042929
-1.31584	-1.086474	15.556161	-82.330832	-273.73085	1.096203	0.588259	-0.103299	-1.133862	0.87706	-0.34948	10.148819	0.184127	-10.239223	-4.684751	0.244727	0.189772	-1.156275	8.524202	0.233476	-1.395017	-5.755124	7.14962	4.703683	-0.339952	-0.578277	0.018134
-1.701157	-0.910482	16.345034	-88.694876	-266.369873	0.589991	0.532877	-0.073916	-1.192185	0.872787	-0.011639	9.979185	0.520103	-10.541379	-4.718313	0.231161	0.187553	-1.1273	8.698374	0.522956	-1.510293	-6.456201	7.721675	5.345338	-0.339747	-0.543413	-0.030123
-1.685444	-1.079429	17.140253	-96.292267	-258.306719	-2.661407	0.503507	-0.066452	-1.16675	1.337714	0.21301	10.215604	1.604636	-10.138451	-3.264525	0.192088	0.216897	-1.11413	8.231592	0.118493	-1.2812	-7.123523	7.853591	7.150425	-0.326115	-0.577247	0.002677
-1.557987	-0.502201	17.827131	-100.944858	-251.961617	-10.580318	0.475994	-0.041347	-1.211695	1.156903	0.663693	9.872519	1.699386	-9.926029	-2.738262	0.257333	0.173455	-1.141197	8.350164	-0.114081	-1.279988	-8.048448	6.980796	8.411097	-0.311931	-0.543005	-0.029983
-1.258235	0.879325	18.57758	-97.128996	-247.036667	-22.749054	0.334032	-0.027359	-1.197543	1.389882	-0.125318	9.93333	2.376557	-10.102211	-2.616158	0.270459	0.20417	-1.14348	8.300357	-0.286196	-0.802575	-7.810762	6.377751	7.648993	-0.325697	-0.544862	0.001003
-1.649527	0.077363	19.021232	-91.033578	-244.423651	-36.312458	0.332517	-0.006873	-1.176223	1.3386	0.382049	10.272386	1.350591	-10.549716	-1.819906	0.257408	0.188775	-1.142201	8.232402	-0.229963	-1.282683	-8.951052	6.031162	8.235509	-0.311927	-0.561676	0.017438
-3.242263	1.114884	19.562928	-83.876566	-240.075706	-47.796489	0.317253	0.017515	-1.168629	1.151051	-0.068888	9.532065	0.141084	-10.932805	-1.855516	0.231016	0.217122	-1.114957	8.358813	-0.518883	-0.86237	-10.2448	6.241584	8.147496	-0.312278	-0.576216	-0.012781
-4.378443	1.117643	19.995483	-71.131518	-232.210726	-55.160034	0.274892	0.018639	-1.167582	1.4457	0.15618	9.878137	-2.309894	-11.762121	-1.711594	0.204914	0.186331	-1.112399	8.176708	0.235769	-1.042178	-11.391992	6.34619	12.430307	-0.339747	-0.543413	-0.030123
-5.922785	0.544588	20.019859	-56.135132	-220.393012	-57.526864	0.245522	0.026102	-1.142147	1.794503	0.268337	10.055404	-2.630184	-12.684245	-1.998472	0.218845	0.144732	-1.167062	8.062206	-0.809082	-0.988922	-13.039367	6.834709	14.909806	-0.353442	-0.546096	0.01639
-7.535558	0.026603	19.474832	-42.546927	-206.2689	-55.03568	0.218024	0.033908	-1.169601	1.226426	0.100707	10.38301	-3.658318	-13.372063	-1.97531	0.244727	0.189772	-1.156275	8.410666	-0.753052	-1.281607	-14.816311	7.148382	16.504215	-0.325697	-0.544862	0.001003
-9.045246	-0.091786	18.36519	-31.678581	-189.580667	-46.574372	0.189782	0.034657	-1.168902	1.454162	0.156512	10.274614	-1.504358	-13.991055	-1.609796	0.204838	0.171011	-1.111395	8.952681	-0.693719	-0.672387	-15.913394	7.151023	18.831283	-0.312415	-0.593235	0.003584
-11.021671	-0.498982	16.790608	-24.951194	-171.272746	-33.56609	0.16157	0.000808	-1.13322	1.394287	0.100194	10.160079	-2.875131	-14.840957	-0.910304	0.218185	0.187478	-1.127024	8.426362	-0.400888	-0.38152	-15.255522	7.940832	19.58932	-0.311998	-0.56085	0.00191
-13.124195	-0.27665	14.647924	-23.420034	-152.501139	-17.591855	0.160027	0.055892	-1.146884	1.113366	-0.349674	10.436853	-5.44069	-17.360421	-0.44417	0.179107	0.156612	-1.12419	8.482482	-0.575992	-0.560882	-15.31688	8.40578	18.975971	-0.339672	-0.562911	0.032825
-14.715138	-1.089604	12.283504	-30.173668	-135.655336	-0.737187	0.117665	0.057015	-1.145836	1.865689	0.099759	10.679506	-6.845167	-20.877294	0.043811	0.179697	0.158756	-1.152889	8.898492	-0.401968	-0.372717	-14.023414	8.226892	18.972139	-0.339188	-0.512681	-0.000742
-15.911654	-0.812665	9.647199	-48.967696	-121.180223	14.057369	0.102444	0.029506	-1.085767	0.767219	0.045286	10.429931	-11.56913	-25.337882	2.400259	0.204763	0.15569	-1.110391	9.540391	-0.114556	-0.718817	-11.28868	7.850743	17.833035	-0.325697	-0.544862	0.001003
-17.179425	1.254695	9.290271	-74.691444	-102.860562	23.168329	0.088295	0.064479	-1.120402	1.414814	-0.518683	11.065791	-12.416788	-31.066617	4.531432	0.193119	0.190544	-1.169522	9.666127	-0.113096	-0.297268	-7.29978	6.939226	15.652682	-0.298511	-0.57436	-0.043766
-18.05843	3.906112	11.273414	-88.150059	-74.969883	25.561234	0.102801	0.050333	-1.117335	1.798777	-0.069504	10.225038	-14.452018	-37.854697	6.866929	0.179332	0.202573	-1.1272	9.726399	0.293796	-0.174623	-3.886039	6.409099	14.848116	-0.298161	-0.55982	-0.013548
-17.160197	6.384403	13.404057	-76.304418	-35.77237	19.601925	0.11615	0.077501	-1.124516	1.760229	0.100354	11.130205	-22.851836	-44.579915	10.646892	0.192823	0.189472	-1.155172	10.378027	-0.288203	-0.105084	-1.404954	5.862624	18.265233	-0.33933	-0.511028	-0.031797
-15.421988	7.191925	14.521048	-43.084773	4.215558	6.356647	0.057796	0.078657	-1.070231	1.436381	0.214515	12.142559	-12.540291	-54.756092	10.893145	0.179627	0.203645	-1.14155	10.200263	-0.927128	-0.230918	-1.048732	5.893501	21.320566	-0.311514	-0.51062	-0.031657
-12.764221	5.344369	12.803215	0.27958	32.537	-9.746017	0.086766	0.102264	-1.116573	1.878317	-0.18142	11.245665	-19.112993	-68.507524	13.710735	0.166727	0.218891	-1.142278	10.143833	-1.565582	-0.174831	-3.128048	5.884081	24.476696	-0.311372	-0.512273	-0.000601
-11.039352	3.666182	10.215493	22.961651	47.032351	-23.960389	0.072645	0.102638	-1.116224	2.179249	0.550907	11.932001	-23.95817	-77.77627	14.416263	0.191938	0.186256	-1.112123	10.197346	-1.566953	-0.473265	-6.924715	6.378719	28.584383	-0.353446	-0.527425	-0.031031
-22.404947	-0.126559	34.642832	-27.893283	187.724375	-27.108436	0.115793	0.056673	-1.092948	1.941711	-0.068629	11.530167	-17.419972	-90.762643	14.539086	0.14004	0.246166	-1.100685	10.428179	-1.684882	-0.768893	-10.510929	6.698156	31.958581	-0.297464	-0.512069	-0.000531
-11.270152	2.414497	12.990418	57.082696	170.193623	-22.822667	0.099772	0.091304	-1.074694	1.55221	0.723706	14.919536	-16.166626	-99.32055	12.01956	0.179703	0.218966	-1.142554	9.948461	-2.208464	-1.259176	-14.201098	7.008107	33.254445	-0.353517	-0.526599	-0.046558
-13.033977	3.152589	10.629173	94.726851	214.41484	-9.667368	0.116922	0.049959	-1.117684	2.310803	-1.082372	12.55608	-0.636813	-117.895591	1.828201	0.127353	0.186953	-1.125094	10.23858	-2.442679	-1.554197	-19.187103	6.97375	34.862376	-0.283139	-0.47948	-0.002135
0.91583	-1.170705	9.688852	69.080288	216.289978	-6.772084	0.187525	0.048086	-1.11943	1.840122	0.047153	14.868372	-2.783041	-122.228256	-6.108536	0.10066	0.154018	-1.093836	10.886387	-2.328259	-1.601505	-19.960997	5.828091	35.940652	-0.366728	-0.479052	-0.033612
0.503815	-3.84813	14.84112	101.043269	186.538026	5.593853	0.20316	0.027226	-1.1411	1.110096	-0.683079	15.644994	-0.634046	-145.870151	-14.017739	0.088061	0.230545	-1.098578	11.5913	-1.865766	-1.706136	-18.270593	4.412617	31.41676	-0.324866	-0.461421	-0.049766
8.296529	-2.428626	12.441312	133.383094	152.83553	-10.320265	0.21578	0.030037	-1.102637	1.776812	-0.741651	14.526661	-1.117924	-167.101857	-15.924538	0.062033	0.215075	-1.097023	11.534235	-1.284129	-1.525043	-14.025402	4.066683	18.992003	-0.3531	-0.494214	-0.048233
2.437891	-1.221987	11.423154	140.515858	159.731392	-14.154447	0.217666	0.01308	-1.138033	1.122208	-0.062921	16.268551	-5.413524	-189.162094	-16.301247	0.035566	0.228101	-1.068776	13.015802	1.27056	-0.827678	-7.085707	2.645114	-0.893656	-0.311025	-0.479061	-0.017803
-0.8941	3.546376	10.980629	141.786929	163.836167	6.303301	0.245179	-0.012025	-1.093088	1.662703	-0.401021	17.298659	-7.956124	-216.784017	-17.687384	-0.004542	0.223589	-1.01055	13.376562	2.6658	-0.27598	-2.233989	-0.914733	-21.766791	-0.324933	-0.479266	-0.017874
-1.087962	1.760746	9.775893	112.850961	140.368254	21.49106	0.287897	0.007679	-1.125703	1.410579	-0.73709	18.934879	-8.970562	-245.939956	-21.707755	-0.004027	0.210412	-1.038245	13.805372	3.017019	0.63181	-5.278279	-7.160772	-28.112331	-0.338495	-0.446259	-0.035146
-0.274312	0.441423	10.354462	72.575089	101.574513	7.054267	0.317267	0.000216	-1.151138	1.358234	-2.201481	19.045716	0.309968	-279.213284	-24.989968	-0.069937	0.23639	-0.981475	14.310204	2.209797	2.314545	-13.778596	-15.653611	-14.228942	-0.339192	-0.49401	-0.048162
-0.263663	-1.969191	10.799152	83.503157	62.699689	-17.745665	0.346294	-0.045375	-1.127513	0.516142	-3.269385	19.932915	8.322083	-314.972797	-27.372997	-0.122287	0.204377	-0.964015	14.275377	1.750516	3.569512	-18.12041	-21.636721	0.943159	-0.310746	-0.463695	-0.003113
-0.988503	1.010546	8.979039	83.233606	51.748964	-14.181074	0.332917	-0.037944	-1.155315	-0.53428	-2.141309	19.345707	20.994305	-353.389095	-29.069546	-0.174411	0.218326	-0.949566	11.897374	1.170953	2.504605	-18.75471	-18.373317	-1.362332	-0.352678	-0.4805	-0.002486
-1.708303	1.635904	7.319592	53.269824	50.40503	2.628637	0.374578	-0.098022	-1.075736	0.066938	-0.338672	20.718664	38.06587	-392.680268	-26.054708	-0.188128	0.185466	-0.918584	10.977613	1.339543	0.631726	-19.317355	-14.9734	-2.048896	-0.311163	-0.49608	-0.001438
-1.042494	-0.424968	9.085599	30.660879	44.561875	12.718704	0.361201	-0.090591	-1.103538	0.497694	0.053641	19.369317	39.024554	-426.547751	-24.941013	-0.228381	0.210522	-0.848015	11.483624	2.204276	-0.612706	-18.060388	-12.744401	4.659816	-0.296976	-0.48051	0.013323
-1.358634	-1.337994	10.439531	30.201871	30.235418	4.881922	0.389442	-0.09134	-1.104237	5.458361	1.115127	20.04058	37.235709	-447.814118	-20.128602	-0.268125	0.162192	-0.815477	12.590665	3.128207	-1.246818	-18.814955	-12.250201	6.891383	-0.339538	-0.527221	-0.03096
-0.983469	0.207329	9.203073	31.211418	17.616751	1.453848	0.389442	-0.09134	-1.104237	5.473939	0.944367	18.059261	30.139132	-461.777185	-19.132178	-0.361023	0.154164	-0.713099	11.692873	2.37203	-2.045328	-16.890557	-14.0752	0.658109	-0.283351	-0.477001	-0.048719
-0.815253	0.493689	9.037061	8.925803	13.527147	6.051622	0.348209	-0.096931	-1.127925	7.464472	-0.135449	11.476256	8.072022	-456.030201	-24.086883	-0.37459	0.151945	-0.684124	10.75068	2.432761	-1.942874	-11.033051	-17.944012	-10.652453	-0.296558	-0.448125	0.011648
-0.501304	-0.821883	10.401552	3.64438	12.029568	5.858484	0.403548	-0.074415	-1.122078	10.153296	-1.885183	13.286223	-62.887693	-430.828191	-15.262517	-0.427969	0.146285	-0.611272	10.63572	3.479636	-1.641091	-2.532975	-20.913164	-19.317322	-0.324583	-0.464726	0.012345
-0.511782	-0.192198	9.892529	6.15474	8.413357	3.247117	0.390571	-0.098055	-1.128973	9.067233	-0.357063	19.152635	-94.372889	-426.053383	-16.935975	-0.442641	0.155099	-0.525902	10.538305	3.1359	-0.566451	5.262839	-22.179475	-18.392202	-0.352745	-0.498345	0.029407
-0.926297	0.322171	9.204669	-0.74611	3.320399	2.325522	0.389471	-0.125939	-1.069253	6.921003	0.83168	21.146718	-92.681421	-390.996045	-25.680785	-0.495356	0.166904	-0.482753	10.480255	3.194358	-0.507397	10.942207	-21.577091	-12.578856	-0.338558	-0.482775	0.044168
-0.395004	-0.24924	10.008221	-5.979831	0.108673	1.5217	0.389842	-0.122411	-1.083329	2.31287	0.218141	18.162073	-45.712069	-331.524462	-44.319175	-0.510624	0.113364	-0.379018	10.970491	2.035219	0.335158	12.991837	-18.675886	-8.505044	-0.283068	-0.480306	0.013393
-0.176339	0.207956	9.502928	-5.334058	0.637595	1.22176	0.389071	-0.094868	-1.090161	-8.565787	1.458994	-3.465466	47.083631	-200.943578	-56.203023	-0.485332	0.15626	-0.339532	10.558343	2.094487	0.387609	14.575412	-14.43459	-7.002972	-0.310955	-0.479888	-0.002275
-0.224562	0.037602	9.955915	-7.833747	2.151669	2.204258	0.389428	-0.074041	-1.121729	-38.842232	-5.814813	-12.71311	76.958996	-28.743912	-17.754457	-0.51232	0.122254	-0.293924	10.737457	2.152653	0.510972	16.170264	-8.786467	-5.477074	-0.325142	-0.495458	-0.017036
0.121275	-0.077047	10.075819	-8.674026	4.412057	3.102101	0.374178	-0.066952	-1.096643	-1.763842	0.268341	2.394372	32.66302	121.325393	-13.122311	-0.487103	0.149829	-0.253433	10.674849	1.803343	0.26876	17.277159	-3.181232	-2.910076	-0.324721	-0.481744	0.02871
0.008128	-0.421372	10.128998	-7.807681	5.51926	3.393608	0.375307	-0.073666	-1.121379	-4.157303	-3.721215	8.511529	-32.14929	238.760384	-22.363381	-0.485482	0.125619	-0.337524	9.919589	1.401038	0.851793	18.098712	1.537664	-0.490574	-0.311022	-0.497733	0.029617
-0.165696	-0.651496	10.010986	-5.931978	6.480653	3.403834	0.374193	-0.084251	-1.079152	-5.315471	-2.029286	8.318855	-48.189993	271.988746	-50.620949	-0.472066	0.097197	-0.364492	9.560976	1.923791	0.667695	18.357305	4.434502	-2.491899	-0.297184	-0.496702	0.01416
-0.56553	-0.421199	10.06101	-4.334962	7.323742	2.891594	0.402791	-0.064173	-1.111418	-2.265793	-1.751009	11.044017	-28.720686	274.971896	-76.005538	-0.420238	0.082177	-0.364592	9.441688	1.517034	0.543949	19.694025	5.440011	-7.574771	-0.29635	-0.431932	0.010811
-0.107701	-0.134323	10.071124	-3.958245	8.301199	3.581077	0.375707	-0.104737	-1.100472	-1.572004	-0.794494	11.285888	9.369334	260.937985	-98.584403	-0.406301	0.100788	-0.40892	8.66884	1.575629	0.230356	19.903475	6.570734	-10.361947	-0.324579	-0.483397	0.059766
-0.333705	-1.225064	10.175791	1.382795	9.804649	3.283465	0.376079	-0.101208	-1.114548	-2.788244	-0.344207	8.26019	33.1014	243.686042	-111.158198	-0.378804	0.061408	-0.492559	8.844633	1.168198	0.112113	20.568458	6.474454	-12.655901	-0.310813	-0.48154	0.02878
-0.168006	-0.537096	9.897762	5.569147	7.512489	3.847507	0.373835	-0.105079	-1.047584	-4.918062	-0.004573	5.554893	36.535516	239.319314	-110.95234	-0.39193	0.030692	-0.490276	8.900773	1.457948	-0.005364	20.68191	5.903764	-13.631497	-0.297114	-0.497529	0.029687
-0.394631	-0.766214	10.006049	8.613251	5.113643	2.51173	0.403963	-0.122785	-1.083678	-6.656766	0.448878	5.009249	33.557142	251.453124	-99.399112	-0.364652	0.005561	-0.560569	8.850831	1.343909	0.472296	19.925061	5.094705	-15.519574	-0.324721	-0.481744	0.02871
-0.572335	-0.250322	9.720615	12.982754	3.387285	2.041749	0.388656	-0.046499	-1.12856	-7.259356	-0.393756	6.35459	33.303901	272.113244	-80.42266	-0.351972	0.004564	-0.546495	8.37567	1.228096	0.283278	19.077124	4.251574	-17.101542	-0.324792	-0.480918	0.013182
-0.568622	-0.766572	9.889002	13.677741	1.791493	2.105817	0.389456	-0.108639	-1.086745	-7.008952	0.451624	7.379649	38.065092	286.747339	-57.370971	-0.311788	0.024397	-0.605725	8.318045	1.577181	0.403474	16.502059	3.868656	-19.412831	-0.352887	-0.496693	-0.001649
-0.455682	-0.135039	9.837031	14.101555	0.556578	2.759211	0.403162	-0.060644	-1.125494	-6.490563	-0.338021	7.333226	42.200435	291.171589	-33.033236	-0.312083	0.023325	-0.591375	8.196536	0.705075	0.098031	17.15206	2.562245	-17.086511	-0.325	-0.497111	0.014019
-0.970765	-0.421874	9.825803	12.320969	-0.725983	4.000853	0.388685	-0.081097	-1.093577	-5.756635	-1.016005	6.612058	40.495064	288.024002	-8.897747	-0.298001	0.012367	-0.648046	8.013465	1.401403	-0.141932	14.999329	1.82948	-14.997211	-0.338558	-0.482775	0.044168
-0.337833	-0.134398	10.009817	12.043668	-1.380291	4.665694	0.418069	-0.10586	-1.101519	-4.44418	-1.30061	6.07323	28.824605	280.634689	12.629834	-0.232682	-0.015754	-0.676117	8.252251	0.704198	-0.08059	12.868525	0.648072	-13.883721	-0.352332	-0.447289	-0.019688
-0.162356	-0.650773	10.181545	16.48361	-1.661996	4.218996	0.387542	-0.057084	-1.086332	-3.917737	-1.244918	6.480635	8.34426	272.564501	32.202175	-0.21882	-0.012464	-0.719442	8.489841	0.994533	0.044862	11.767157	0.037661	-11.432037	-0.324929	-0.497937	0.029547
0.123833	-0.536097	10.187595	20.962929	0.128001	2.701827	0.402419	-0.067701	-1.097342	-3.613117	-1.808146	7.22252	-12.766571	268.151913	48.234795	-0.217859	0.006072	-0.763495	8.830982	0.409748	-0.729797	10.456305	0.594235	-9.504647	-0.296976	-0.48051	0.013323
0.178488	-0.019647	10.077174	26.281682	3.827203	1.213256	0.40472	-0.133028	-1.094339	-2.950454	-2.033515	8.594979	-28.744259	271.376722	62.559881	-0.16544	-0.006804	-0.792294	8.960154	0.353874	-0.128775	9.364379	1.797753	-7.947838	-0.324725	-0.463073	-0.018711
-0.118427	0.840012	9.563549	27.950129	6.706144	0.089866	0.389085	-0.112168	-1.072669	-2.674064	-2.764488	10.694863	-33.827183	278.287363	72.645115	-0.140374	-0.00987	-0.749796	8.784226	0.819382	-0.010284	7.916542	1.262113	-6.931524	-0.352678	-0.4805	-0.002486
-0.522632	0.954462	9.385677	23.80392	6.025345	-1.19732	0.376865	-0.14605	-1.090224	-1.512091	-2.653556	11.228892	-33.939188	287.116949	79.701195	-0.099819	0.026356	-0.824379	9.20008	0.586627	0.116244	6.518878	-0.027639	-6.920307	-0.339117	-0.513507	0.014786
-0.516526	0.208928	9.666806	17.977787	5.758567	-1.736911	0.389856	-0.13971	-1.065837	-1.262057	-2.87855	12.139772	-35.134529	295.407903	82.681144	-0.086328	0.013254	-0.852351	8.961639	-0.284962	-0.131494	5.76691	-0.628533	-8.228841	-0.324441	-0.466378	0.043401
-0.517929	0.610777	9.611642	14.150206	5.950932	-1.293411	0.389856	-0.13971	-1.065837	-0.792294	-2.653711	12.60275	-39.084968	300.561352	82.636811	-0.047696	0.012407	-0.838828	9.016004	0.294922	-0.307642	5.075284	-1.568207	-9.291478	-0.33933	-0.511028	-0.031797
-0.746988	0.668385	9.607429	10.320154	5.618085	-0.613096	0.362373	-0.149203	-1.075799	-0.424842	-3.442179	13.572213	-43.020351	301.842748	80.303094	-0.020852	0.075983	-0.872093	9.430487	0.178072	-0.240527	6.211213	-2.827712	-8.372759	-0.297118	-0.478857	-0.017733
-0.342411	0.036962	9.783129	7.374699	4.862975	-0.279542	0.389856	-0.13971	-1.065837	0.628283	-2.823772	14.444089	-45.962655	300.96961	77.054569	0.031121	0.031393	-0.884535	9.247532	0.351469	-0.542621	7.22565	-3.811722	-7.516031	-0.311163	-0.49608	-0.001438
-0.230171	0.093838	9.671891	4.525469	4.690449	0.216543	0.402048	-0.071229	-1.083266	0.765927	-3.217447	15.465687	-48.506608	299.798471	73.340926	0.044687	0.033612	-0.91351	8.891619	-0.287299	-0.731664	8.357293	-5.125137	-7.299933	-0.3387	-0.481122	0.013112
-0.450239	0.038492	10.12202	3.975401	4.839791	0.373893	0.389099	-0.129467	-1.055177	1.06157	-2.879671	15.868494	-52.96763	298.511034	69.655443	0.097407	0.082017	-0.946324	9.479985	-0.463372	-0.841215	8.682746	-6.308669	-8.090049	-0.282583	-0.430076	-0.020174
-0.345544	-0.25097	9.611363	2.573533	5.592798	1.156861	0.404363	-0.153855	-1.062771	1.084861	-3.047762	16.944504	-56.336217	295.619141	65.369071	0.135449	0.079027	-0.904102	9.00608	-0.172159	-0.908689	9.338179	-7.846052	-10.040968	-0.296558	-0.448125	0.011648
-0.569409	0.324817	9.893587	2.63709	6.118643	0.889215	0.445924	-0.092838	-1.105634	1.173533	-2.877645	18.418485	-58.769276	293.211965	58.960924	0.175489	0.128429	-0.950989	9.250928	-0.635577	-0.486917	10.529952	-8.566382	-10.958656	-0.311092	-0.496906	0.014089
-0.681525	0.095617	10.004101	2.427055	6.66802	1.14409	0.389485	-0.143238	-1.051761	2.334058	-3.273782	18.838808	-62.552792	293.654072	49.497033	0.214197	0.142903	-0.93847	9.240909	-0.11487	-0.963947	12.122715	-9.161341	-12.031186	-0.311301	-0.513099	0.014927
-0.916152	0.152018	9.715623	3.167794	7.407607	1.276649	0.375707	-0.104737	-1.100472	3.108811	-2.541796	20.157851	-64.905559	294.505415	36.369727	0.240444	0.144125	-0.953371	9.547689	0.061402	-0.298727	13.100922	-9.296862	-13.378712	-0.325071	-0.496284	-0.001509
-0.802673	0.036811	9.660514	4.028587	7.904699	1.159579	0.389456	-0.108639	-1.086745	3.501803	-2.146232	22.431021	-60.623562	292.06014	20.656418	0.293459	0.193602	-1.000534	9.084344	-0.400395	0.10984	13.090973	-9.619458	-14.721751	-0.338491	-0.46493	0.012275
-0.163801	-0.191481	10.126622	4.522354	8.898719	0.438286	0.362358	-0.131904	-1.093291	5.674141	-2.204891	24.458089	-51.184309	282.036912	3.54665	0.319115	0.19268	-0.986736	9.025327	-0.40026	0.108739	11.58998	-9.45744	-13.158557	-0.352607	-0.481326	0.013042
-0.511864	-0.077315	9.893012	5.659024	10.304625	-1.106203	0.389442	-0.09134	-1.104237	9.026148	-1.534607	25.20845	-38.237939	263.665564	-12.933819	0.357453	0.190761	-0.958864	7.969349	-0.74505	0.386983	10.06223	-9.675825	-10.309901	-0.310951	-0.498559	0.045145
-0.963426	0.211672	10.226429	7.716568	11.334925	-1.678076	0.389085	-0.112168	-1.072669	12.330452	-1.596179	26.353463	-21.247921	240.317095	-28.627721	0.422263	0.236026	-0.948904	7.78983	-0.628987	0.264362	9.313015	-9.750792	-6.272798	-0.297188	-0.478031	-0.033261
-0.455889	0.152169	9.838237	6.829468	12.296281	-2.794626	0.419226	-0.147173	-1.091272	17.481225	-1.663396	25.046227	-2.071678	219.094803	-42.602772	0.435604	0.192283	-0.974868	7.551854	-0.280238	0.201537	9.132716	-9.384491	-0.344852	-0.297118	-0.478857	-0.017733
-0.913759	-0.077266	9.828364	6.310189	13.040068	-3.547756	0.446682	-0.103081	-1.116294	21.713126	-1.843838	21.115342	14.104694	197.993886	-53.249542	0.486402	0.203616	-0.919576	7.722705	-0.456354	-0.155345	9.953089	-8.202953	6.951258	-0.366378	-0.464512	-0.003393
-0.668163	0.098512	10.686338	5.304739	14.301541	-4.076393	0.391385	-0.177495	-1.069666	25.820764	-2.306096	16.728684	12.064428	172.674181	-63.397868	0.486622	0.189368	-0.932922	7.892861	-0.806946	-0.572875	9.202655	-5.974767	13.056405	-0.352816	-0.497519	0.013879
-0.50073	-0.074902	10.461543	8.590165	16.301996	-5.678784	0.432618	-0.171904	-1.045977	28.40453	-0.569563	11.236292	-11.464351	138.669756	-71.368706	0.473721	0.204613	-0.93365	7.838537	-0.457119	-0.272958	6.582711	-3.747227	15.622838	-0.352328	-0.46596	0.027732
-0.392244	0.555666	10.182159	8.807583	18.016079	-7.675714	0.419198	-0.112575	-1.126255	29.418127	1.509631	7.692721	-48.264839	94.104769	-75.078165	0.5128	0.235479	-0.936484	8.831057	-1.042894	-0.915699	3.107248	-1.537579	19.629181	-0.297047	-0.479684	-0.002205
-0.90481	-0.132777	10.282948	7.281968	20.243004	-9.536635	0.432204	-0.123534	-1.084377	29.199639	4.834274	8.540278	-81.891846	49.775227	-72.92613	0.512504	0.234407	-0.922134	9.423149	-0.927598	-0.784386	2.370942	1.00205	22.248573	-0.296696	-0.465144	0.028013
-0.72781	0.327837	10.572484	6.952987	22.659169	-11.336605	0.389856	-0.13971	-1.065837	26.579386	8.898788	12.848123	-76.070299	12.958264	-61.759406	0.511989	0.247584	-0.894439	9.837518	-0.521516	-0.655139	-0.316131	2.864042	18.734112	-0.310187	-0.432963	0.026269
-0.267589	0.385429	10.695339	5.43888	27.012241	-13.684436	0.44521	-0.134494	-1.042498	24.041832	9.6944	15.343168	-26.009847	-21.019699	-43.685352	0.512655	0.265048	-0.924142	9.961997	-0.927083	-0.355134	2.572215	3.017631	16.705481	-0.33877	-0.480296	-0.002416
-1.020556	0.039389	10.224591	0.652703	32.424365	-15.91365	0.403963	-0.122785	-1.083678	20.835665	7.896044	13.236134	25.370094	-52.386197	-24.751233	0.563748	0.277453	-0.883199	9.89968	-0.927689	-0.535955	8.002908	2.125853	13.113784	-0.324236	-0.431514	-0.004857
-0.15407	0.212781	10.639989	-3.78388	36.544623	-20.61862	0.446724	-0.154979	-1.063818	18.580044	4.968059	9.732714	42.517756	-76.946012	-6.978509	0.525115	0.2783	-0.896722	9.660449	-0.985967	-0.720325	14.175572	0.550215	10.837079	-0.324095	-0.433167	0.026199
-0.504692	0.785997	10.294603	-2.706845	43.239487	-22.475884	0.446339	-0.141208	-1.067234	14.065826	3.679821	8.391257	26.275069	-89.460675	12.891592	0.5131	0.296761	-0.940499	9.373206	-1.041637	-0.306726	18.987575	-2.823369	10.407836	-0.310258	-0.432137	0.010741
1.148871	0.336161	12.882239	-10.361999	54.088663	-14.885673	0.447082	-0.134152	-1.095386	9.674259	3.12638	10.166804	9.198528	-91.567315	39.247137	0.512284	0.248656	-0.908788	9.563325	-0.980999	0.415706	23.869541	-4.47024	14.585548	-0.338353	-0.447911	-0.00409
-0.908932	-0.593275	10.053605	4.592353	60.960543	-18.589536	0.459702	-0.13134	-1.056923	-39.214404	-9.572632	69.253078	-29.829553	-106.832789	69.432984	0.486848	0.235329	-0.935933	9.450775	-1.444349	0.651154	28.416657	-4.85347	17.719292	-0.324307	-0.430688	-0.020385
-0.308224	0.503973	11.547505	-9.778439	67.241219	-20.102314	0.432575	-0.120006	-1.098453	-13.836041	-13.745193	-9.137753	-53.557992	-122.172158	88.778714	0.461341	0.266892	-0.951738	9.397376	-1.965909	0.887456	34.323063	-4.680826	14.884926	-0.352473	-0.445636	-0.050744
-0.624447	-0.29417	12.90192	-13.524003	79.241678	-17.688079	0.474937	-0.12113	-1.0995	-23.472416	-7.418603	-9.844086	-103.172472	-175.478237	161.41328	0.447625	0.234032	-0.920756	9.707903	-1.033412	1.855425	37.183711	-2.334887	-0.999644	-0.324166	-0.432341	0.010671
-1.025435	-0.006672	12.895332	-15.739801	97.926196	-18.880791	0.501735	-0.18789	-0.99142	-6.837667	1.967551	2.062852	-225.116333	-276.309058	206.480185	0.434579	0.278846	-0.909141	10.589365	0.590691	1.878854	34.843216	1.645846	-22.952209	-0.338215	-0.430892	-0.020455
1.225893	0.997251	19.763004	-20.686341	118.491601	-8.380235	0.516198	-0.150138	-1.040828	4.837668	7.984911	15.844155	-109.387058	-334.347184	207.693231	0.409073	0.310409	-0.924947	11.615381	1.509813	0.045504	28.632556	7.518836	-28.060705	-0.338841	-0.47947	-0.017944
0.004678	0.004927	15.813769	-0.212759	133.750998	-1.934584	0.47458	-0.141957	-1.067933	16.04625	3.747598	25.700232	46.927239	-292.177708	141.656611	0.37	0.339753	-0.911777	12.06247	1.386895	-1.324046	28.033931	14.140394	-11.894395	-0.352119	-0.449768	0.026895
0.709448	1.054824	19.696371	-2.20484	175.829316	0.380846	0.529919	-0.119442	-1.062085	16.930032	4.023719	21.303132	50.028581	-177.896525	25.812698	0.357314	0.28054	-0.936186	13.002388	2.778312	-1.360412	27.683519	19.101027	-15.461702	-0.337936	-0.415526	-0.005764
0.533485	-0.841829	19.400802	-7.758578	209.359334	6.983622	0.529933	-0.136741	-1.044593	3.032066	0.436203	11.440284	15.126327	-106.722251	-43.517636	0.3046	0.292345	-0.893038	14.327272	5.382694	-2.761742	13.886548	26.898918	-34.730254	-0.324654	-0.463899	-0.003183
2.024726	-0.485188	22.500154	-6.027739	247.705631	11.159671	0.586787	-0.134711	-1.060066	-3.42701	-2.256255	10.509655	7.551591	-98.172652	-23.740947	0.318536	0.310956	-0.937366	15.486842	5.782075	-3.816327	4.712909	38.744703	-26.656374	-0.352753	-0.461003	-0.065435
1.279553	-0.82954	22.427377	9.645912	290.842342	15.005536	0.601293	-0.148857	-1.057	-1.322279	-3.38556	11.968217	57.159969	-104.092611	11.537879	0.292434	0.280165	-0.934808	12.833715	2.302354	-4.180215	18.557982	37.630463	3.033676	-0.310817	-0.462869	-0.01864
1.591653	-0.491894	20.84362	28.021661	327.889624	14.911461	0.658904	-0.157069	-1.083132	2.195929	0.436526	10.007369	78.756617	-99.332531	1.151709	0.253136	0.263547	-0.918627	10.50378	-0.0096	-2.856263	33.326496	27.274218	0.767922	-0.282725	-0.428423	-0.05123
3.809469	-0.254535	23.047315	42.829984	362.196654	16.347062	0.685673	-0.189231	-1.010035	2.478359	0.097767	9.729931	54.849788	-87.792136	-27.391393	0.265961	0.232982	-0.916895	9.70524	0.870106	-1.250475	35.498478	17.299618	-16.062024	-0.338566	-0.445432	-0.050674
2.713607	-0.842439	19.670527	55.948856	395.807481	10.416576	0.797137	-0.189042	-0.974017	1.538229	-2.321285	11.293249	47.829797	-74.671704	-34.942367	0.253576	0.23505	-0.945319	10.192816	1.802198	-0.279205	25.451266	11.622517	-23.69918	-0.310053	-0.397273	-0.037517
-0.466735	0.934015	18.081732	57.632131	419.908106	10.068046	0.783031	-0.205966	-0.956176	2.057119	-1.477203	11.41812	63.96779	-54.817176	-18.918082	0.266036	0.248302	-0.917899	10.490699	2.964279	0.030776	16.801791	8.332942	-16.196014	-0.310962	-0.442545	-0.097117
-3.643193	0.413289	16.596991	44.932359	429.34036	6.516857	0.881504	-0.212117	-0.944544	1.829339	0.77435	9.037527	45.595068	-36.942486	-11.418319	0.226958	0.217436	-0.915065	11.49851	2.904897	0.288864	7.894206	7.276091	-2.834315	-0.366799	-0.478225	-0.04914
-2.440613	3.170095	16.745663	55.863312	433.79147	5.392507	0.88006	-0.278128	-0.835765	0.571662	-0.011622	9.350105	27.360674	-33.752002	-18.861447	0.240009	0.232832	-0.916344	12.014479	1.854357	-0.664193	-0.405609	9.123244	-0.918202	-0.338569	-0.426761	-0.098094
-3.481342	-0.016029	10.233323	25.814617	412.412086	3.260285	0.964398	-0.266604	-0.841276	1.117531	-0.631184	10.606534	26.066169	-30.957809	-17.200881	0.253425	0.204409	-0.943312	12.581146	2.486899	-1.848607	-0.52668	13.990074	-13.10433	-0.32424	-0.412843	-0.052278
-4.13757	-0.788268	17.605258	-16.9049	392.590805	4.532628	0.99001	-0.257453	-0.778427	1.176198	-0.574914	10.66443	28.639714	-21.944684	-7.028661	0.227774	0.265541	-0.946775	12.874161	2.427653	-1.963165	-2.713237	16.85835	-27.961216	-0.380569	-0.461411	-0.065575
-3.434928	-0.785387	18.414563	-8.024683	378.895192	8.884157	1.002272	-0.275469	-0.708396	1.501518	0.437677	9.822943	23.846203	-17.588749	-7.174176	0.200786	0.231535	-0.901167	12.273306	3.24009	-2.449964	-3.25869	16.524348	-31.349322	-0.36687	-0.477399	-0.064668
2.267142	-0.175087	14.436257	2.519585	360.329282	15.69675	1.073633	-0.287585	-0.720802	1.201471	-0.125611	9.193389	10.855213	-14.482041	-10.421461	0.200416	0.215142	-0.885814	11.282811	2.954725	-1.810932	-2.439214	11.614975	-26.653831	-0.338778	-0.442954	-0.097257
5.045048	-0.839938	7.213195	36.555131	312.776913	27.366577	1.085538	-0.326429	-0.619204	1.394179	0.156525	10.160126	4.100916	-11.312916	-11.104417	0.227549	0.21958	-0.943764	10.707745	2.145977	-1.106514	0.200955	7.488951	-17.201433	-0.36659	-0.462033	-0.049977
13.554105	-0.076215	-14.156802	69.416427	210.955974	16.876447	1.127157	-0.334609	-0.5921	1.446454	-0.238134	9.877805	1.602241	-8.61612	-11.017959	0.214202	0.203112	-0.928135	10.837612	2.264579	-0.444843	0.108933	4.413814	-12.69422	-0.352966	-0.458524	-0.112018
18.455919	-6.264323	-9.597936	-8.215326	3.352996	4.524929	1.084438	-0.354313	-0.559484	1.097112	-0.068638	9.700775	-3.243617	-5.916278	-11.272461	0.214943	0.235897	-0.958842	10.136406	1.628599	-0.161234	-0.899956	1.720235	-12.861072	-0.353383	-0.490909	-0.110344
9.620074	-2.99497	1.098586	-47.414887	-159.453503	10.640698	1.113051	-0.351534	-0.574259	1.271579	0.269117	9.817965	-4.66013	-5.537865	-10.930736	0.201151	0.187717	-0.926856	10.084013	2.095073	0.258992	-1.909487	-0.692637	-13.548774	-0.338703	-0.462451	-0.034309
12.819429	-4.882205	3.653401	-76.735723	-232.766093	32.011375	1.113394	-0.313407	-0.623318	0.644704	-0.518135	10.030562	-2.167657	-6.445893	-12.602437	0.214868	0.220577	-0.957838	9.898701	1.861196	-0.224553	-2.563837	-1.458121	-13.695549	-0.407967	-0.429434	-0.06739
8.087421	-4.057654	7.542962	-74.440265	-243.145163	47.442549	1.128286	-0.341323	-0.616836	0.986147	-0.349933	9.868039	-0.845241	-6.861383	-12.143094	0.175645	0.21928	-0.942661	9.779298	1.977371	-0.286167	-2.221278	-2.518996	-11.552542	-0.352753	-0.461003	-0.065435
6.621676	-2.430561	11.66993	-64.165577	-218.477708	62.988992	1.058412	-0.315094	-0.660733	1.223661	-0.350079	10.212712	3.527325	-7.854212	-11.255454	0.201672	0.23475	-0.944216	9.767598	1.800423	-0.945884	-1.695741	-3.79269	-9.470266	-0.380852	-0.458106	-0.127686
6.376737	-1.97424	10.871464	-47.751219	-185.195206	67.099447	1.058769	-0.294267	-0.692301	0.926487	-0.518911	9.753408	5.076924	-7.293489	-9.58395	0.201226	0.203037	-0.927859	9.001874	1.163342	-0.962909	-1.284229	-5.833007	-10.195471	-0.352824	-0.460176	-0.080962
7.898861	-0.84394	6.814045	-30.596716	-173.667123	61.136677	1.045406	-0.304135	-0.702612	1.035273	0.269311	9.529932	4.39407	-7.547845	-9.525373	0.188621	0.219355	-0.942937	8.525073	1.279586	-1.210846	-0.573194	-6.706702	-14.197222	-0.339263	-0.493183	-0.06369
8.71363	0.007653	4.617096	-23.678835	-188.761027	44.254954	1.047306	-0.338391	-0.720516	0.753167	0.439078	9.807227	4.853539	-7.791523	-8.880048	0.188621	0.219355	-0.942937	8.581483	1.453184	-1.328818	-1.347619	-6.547391	-15.081398	-0.325705	-0.507519	-0.093838
8.497477	0.700012	5.297775	-18.981736	-216.247417	20.553398	1.00493	-0.319968	-0.736961	1.166227	0.213381	10.268617	4.544722	-7.766185	-8.664252	0.188551	0.264244	-0.931598	7.932015	1.105966	-1.402313	-2.320674	-6.235273	-13.062441	-0.353103	-0.475543	-0.095653
6.802901	-0.385309	6.396847	-17.470157	-243.695763	-2.650995	0.962183	-0.305074	-0.739329	0.984291	-0.011997	9.811684	2.889604	-6.659343	-7.637268	0.214208	0.263322	-0.9178	8.222019	1.394682	-1.635202	-2.66667	-5.412911	-9.886865	-0.35345	-0.508754	-0.078451
5.957861	-0.956208	7.059969	-14.714657	-265.266011	-23.006188	0.921307	-0.289837	-0.794585	0.976176	0.438363	9.472226	-0.617425	-5.595623	-8.30772	0.175199	0.187567	-0.926304	7.93242	0.931738	-1.403055	-2.409735	-4.003372	-10.047324	-0.3538	-0.523294	-0.10867
3.80438	-0.834925	8.155201	-13.974046	-274.885529	-37.243639	0.920564	-0.296893	-0.766433	0.759943	-0.574681	10.032932	0.370834	-5.67085	-8.955052	0.188401	0.233603	-0.929591	7.990336	0.931356	-1.461861	-2.261042	-1.939905	-8.407436	-0.353521	-0.507928	-0.093979
2.56582	-2.208267	9.148268	-17.018382	-271.800122	-44.638908	0.894938	-0.288745	-0.846775	0.986278	0.21342	9.925153	-1.38729	-5.477928	-9.047031	0.162374	0.218133	-0.928036	7.879736	1.049509	-1.044219	-2.732307	-0.275977	-6.793936	-0.381266	-0.509162	-0.078591
-0.237131	-2.607845	9.205724	-25.07419	-260.845733	-45.266083	0.86744	-0.28094	-0.874228	1.208077	0.212657	9.533511	-0.205826	-4.908631	-9.41035	0.214717	0.189936	-0.955831	7.891686	0.645449	-0.446881	-3.680444	0.544295	-6.580488	-0.367637	-0.524324	-0.093212
-0.962426	-2.718088	10.157269	-35.668402	-247.661055	-40.174696	0.853663	-0.242438	-0.922938	1.107106	-0.23725	10.153749	-1.400287	-3.981935	-8.076512	0.201446	0.188789	-0.941205	7.885529	1.399448	-0.683294	-4.92143	0.802859	-8.349769	-0.35373	-0.52412	-0.093142
-1.818933	-2.831866	10.25379	-42.814607	-239.272334	-31.337011	0.824278	-0.217675	-0.914996	0.9931	0.439027	10.26518	-0.72105	-4.176096	-9.896721	0.213612	0.200969	-0.899436	7.70873	0.818846	-0.748975	-5.285343	1.379895	-8.076157	-0.367429	-0.508132	-0.094049
-1.561006	-2.768318	11.736666	-49.112272	-238.125897	-21.086243	0.825436	-0.258988	-0.904748	1.099661	0.49481	9.871168	-0.543877	-4.932337	-11.137195	0.18766	0.200819	-0.898884	8.064353	1.10891	-0.621322	-6.664702	1.82524	-7.24814	-0.353308	-0.510406	-0.047395
-1.47897	-1.61398	13.050227	-49.470693	-242.384801	-11.953078	0.784532	-0.209153	-0.994988	1.105897	-0.237297	10.09711	0.98625	-6.048183	-11.02375	0.215163	0.221649	-0.972188	7.947691	0.993275	-0.564111	-7.602807	1.974448	-4.25043	-0.367358	-0.508958	-0.078521
-1.222814	-2.182771	14.416742	-39.479608	-251.671861	-5.569342	0.726535	-0.187169	-0.972271	1.156987	-0.01232	9.81531	2.511884	-7.559679	-11.376652	0.200265	0.184501	-0.883806	8.183216	1.225039	-0.55872	-8.171133	2.311679	-1.560511	-0.353312	-0.491735	-0.094816
-0.991818	-1.837805	14.53635	-31.540637	-263.01717	-3.046874	0.712757	-0.148667	-1.020981	1.220166	0.213131	10.099907	2.545213	-9.826205	-11.707435	0.214573	0.219505	-0.943488	8.363815	0.644369	-0.438077	-9.333174	3.158625	-1.04078	-0.325496	-0.491327	-0.094676
-1.329653	-2.008675	14.81321	-27.331814	-271.306853	-2.917555	0.697894	-0.155349	-0.99248	0.994955	0.101091	10.321535	3.929052	-12.894673	-13.401506	0.187729	0.155929	-0.910223	8.242482	0.643897	-0.619999	-11.170119	3.686201	0.552621	-0.353312	-0.491735	-0.094816
-1.382122	-2.467201	15.037579	-27.292794	-273.435427	-5.1297	0.642555	-0.177865	-0.998328	1.121612	-0.236681	10.833425	3.600604	-16.912244	-13.965778	0.187955	0.201891	-0.913234	8.411942	0.11883	-1.098178	-13.319029	3.940195	1.873409	-0.367704	-0.542169	-0.061319
-1.782985	-2.352027	15.030267	-34.976847	-269.489583	-8.907845	0.587944	-0.176024	-1.049819	1.451721	-0.463266	10.104174	5.861278	-18.791307	-12.965341	0.17557	0.203959	-0.941658	8.184276	0.295576	-0.622583	-15.844039	4.608186	1.482044	-0.326189	-0.557749	-0.060272
-1.730475	-1.950943	14.805657	-49.024858	-262.133007	-14.881997	0.58643	-0.155539	-1.028498	1.583021	-0.068504	10.899878	7.171141	-20.131112	-11.867824	0.162374	0.218133	-0.928036	8.705537	0.756991	-1.089956	-16.851304	5.081993	2.644839	-0.353379	-0.50958	-0.062923
-1.422306	-1.429352	15.950458	-59.656513	-254.901333	-24.73291	0.559289	-0.126905	-1.08752	1.452714	-0.350558	10.160908	5.384875	-19.43753	-8.841275	0.162738	0.174315	-0.953724	8.469878	0.583303	-1.0951	-19.280901	4.751252	4.213967	-0.3538	-0.523294	-0.10867
-1.005071	-1.081374	16.812497	-62.091515	-248.671274	-37.875765	0.489458	-0.152575	-1.078942	1.284207	-0.012062	10.384124	6.021868	-17.4398	-3.580189	0.17535	0.218208	-0.928311	8.525593	0.582426	-1.27372	-18.884783	3.178093	5.625988	-0.368405	-0.571249	-0.121756
-1.740554	-0.964022	17.253329	-58.308408	-243.304382	-51.05157	0.460445	-0.124283	-1.085075	0.930029	0.157245	9.980536	5.910813	-16.34517	-2.367107	0.1881	0.172322	-0.925576	8.643065	0.349605	-1.332415	-19.422419	1.463175	5.63612	-0.354147	-0.556505	-0.091468
-2.01668	-1.133968	17.758715	-51.234135	-237.828468	-61.659038	0.461931	-0.11017	-1.141379	1.339678	-0.181256	10.271912	6.780316	-15.852565	-0.97425	0.149693	0.21913	-0.94211	7.993752	0.409166	-1.344272	-19.121492	-0.260396	6.774138	-0.339959	-0.540935	-0.076707
-3.720703	-1.474479	18.4061	-45.04992	-231.347172	-66.357596	0.374921	-0.059895	-1.124795	1.560831	0.155964	9.880555	5.302348	-15.416195	-0.231227	0.135681	0.185198	-0.896777	8.354431	-0.055016	-1.040113	-18.253008	-1.32286	9.251815	-0.38127	-0.490491	-0.126012
-5.773654	-2.045713	18.761573	-40.109324	-222.806942	-63.25715	0.375293	-0.056367	-1.138871	1.44436	-0.40722	9.764383	2.771526	-15.235074	-0.015666	0.201591	0.15922	-0.953548	8.536577	0.120043	-0.736536	-17.747901	-1.529839	11.696209	-0.395174	-0.509366	-0.078662
-7.606121	-3.136017	18.664503	-32.474135	-213.708625	-54.050442	0.375693	-0.087437	-1.117964	1.39528	0.212903	10.216813	1.522754	-16.206287	0.713548	0.162223	0.187492	-0.926028	8.717311	-0.518704	-0.61614	-18.283596	-1.351125	14.937306	-0.395245	-0.50854	-0.09419
-9.046059	-3.596444	18.17991	-28.811685	-205.542647	-40.246583	0.317296	-0.034383	-1.116154	1.503481	0.043411	9.879251	0.642519	-17.413316	0.700838	0.175494	0.188639	-0.940654	8.897951	-0.169664	-0.371728	-19.424463	-0.513326	19.30853	-0.409712	-0.539476	-0.123641
-11.19998	-3.774955	16.318689	-30.376356	-196.410132	-24.32738	0.304304	-0.040723	-1.140541	1.680019	-0.069431	10.052702	-0.438322	-19.73301	1.632578	0.162229	0.247702	-0.915693	9.071969	-0.286963	-0.548642	-19.427678	0.769127	22.481491	-0.381616	-0.523702	-0.10881
-12.788162	-3.783004	14.128207	-43.618804	-183.385833	-6.503388	0.261185	-0.029357	-1.128833	1.732449	0.718946	9.884656	-5.514348	-22.75561	3.818077	0.162374	0.218133	-0.928036	9.547784	-0.926385	-0.422744	-18.76148	1.6983	24.553309	-0.34003	-0.540108	-0.092234
-13.461926	-3.045217	11.901825	-71.067899	-164.881517	7.707307	0.247451	-0.042753	-1.125068	1.462624	0.156844	10.671091	-10.820622	-26.855658	6.17766	0.162003	0.20174	-0.912682	9.251488	-0.403025	-0.426021	-17.858477	2.212401	25.434084	-0.354147	-0.556505	-0.091468
-14.85505	-1.382277	10.97245	-99.048914	-139.248947	16.759827	0.177191	-0.002753	-1.172382	1.692347	0.438065	10.676164	-15.58082	-31.745182	8.375702	0.175274	0.202887	-0.927308	9.362243	-0.114399	-0.782025	-14.705293	3.077078	25.724225	-0.353797	-0.541965	-0.061249
-16.726967	0.633645	11.910653	-118.753663	-106.435179	22.102448	0.104716	-0.001222	-1.117748	1.575229	0.212864	10.560277	-19.950016	-37.429433	10.905285	0.136642	0.203734	-0.94083	9.310504	-0.40316	-0.42492	-11.92388	2.919292	27.151661	-0.381963	-0.556913	-0.091608
-18.777945	1.958705	12.444649	-121.86101	-70.842184	24.652033	0.119208	0.001931	-1.132173	1.67994	0.214606	12.770431	-16.940064	-45.842311	13.506181	0.109729	0.185048	-0.896226	9.553576	-0.576445	-0.061819	-6.901175	2.228755	27.625876	-0.339826	-0.505245	-0.140492
-18.970668	1.047527	14.255632	-107.759998	-38.85002	26.02046	0.104673	0.050676	-1.170223	2.050128	-0.350782	11.19251	-12.338445	-57.939288	14.961907	0.135461	0.199447	-0.883431	9.323284	-0.690821	0.232819	-4.492186	1.515556	29.393604	-0.381408	-0.50751	-0.109647
-19.411987	8.749849	15.416122	-92.382286	6.272069	27.07735	0.076475	-0.000473	-1.117049	1.871387	-0.350696	10.905685	-12.853742	-69.267292	15.403814	0.083702	0.169577	-0.894671	9.853444	-1.215215	0.120684	-2.568626	1.499735	31.587775	-0.339196	-0.475338	-0.095583
-19.077326	1.246555	20.505742	-34.859694	38.297902	31.510426	0.117322	0.018888	-1.096777	2.310803	-1.082372	12.55608	-15.493905	-82.609679	14.714152	0.110319	0.187192	-0.924925	9.683943	-1.619859	0.475094	-1.216691	2.448387	34.971732	-0.353312	-0.491735	-0.094816
-18.094326	1.452856	15.183673	23.857044	73.739022	27.563393	0.102773	0.084932	-1.152318	1.892345	-1.194895	11.811208	-14.831909	-96.216987	13.870382	0.123446	0.217908	-0.927208	9.680912	-1.736752	0.294879	-0.537982	3.229675	39.520769	-0.395524	-0.523906	-0.10888
-15.885306	8.340122	14.289554	38.710514	124.069013	22.512773	0.145535	0.052738	-1.132459	2.355844	0.893478	17.540815	-15.714859	-103.461736	3.377599	0.071472	0.262497	-0.914767	9.916281	-1.911768	0.238632	-1.259928	3.999975	41.690376	-0.395453	-0.524732	-0.093352
-15.741965	6.967474	15.707317	70.489104	171.97456	9.768977	0.1322	0.008271	-1.107786	2.887389	0.324956	12.739273	9.200136	-121.808063	-0.144934	0.096608	0.214542	-0.883608	10.568625	-1.854435	0.430705	-1.947092	4.945822	38.722798	-0.339266	-0.474512	-0.111111
-18.887696	5.534198	15.753749	115.894901	215.467665	-18.022915	0.146292	0.042495	-1.143119	1.817697	-0.627377	16.452502	-5.513139	-140.440322	-9.096994	0.018382	0.197699	-0.8666	10.848995	-1.684096	-0.341841	-1.980159	6.688728	35.810258	-0.394894	-0.494	-0.063971
-0.346424	-0.850559	3.698455	131.96714	256.347157	-22.955709	0.218038	0.016609	-1.152109	1.990304	0.44029	13.852817	3.827776	-163.711339	-8.488318	0.057976	0.215389	-0.89713	11.024808	-1.626673	-0.3982	-4.330795	9.395617	30.578213	-0.366803	-0.459554	-0.09656
2.37964	5.064838	17.472544	97.043704	288.386863	-22.425765	0.233687	-0.021551	-1.156287	1.793351	0.723701	15.434128	-10.446179	-183.756264	-12.490685	0.019268	0.200915	-0.909649	10.673918	-0.637334	-0.101065	-6.379174	14.782254	14.786617	-0.353036	-0.457698	-0.127546
-2.884292	1.794725	17.413201	133.102908	222.171375	-6.370111	0.289798	-0.026577	-1.143608	1.243753	1.007475	16.668347	-14.66026	-209.04599	-12.128697	0.006147	0.230409	-0.897031	10.871359	3.188469	-1.697832	8.488398	18.313035	-22.783525	-0.394272	-0.426751	-0.113903
-5.43267	1.203274	12.928367	134.541433	183.715809	62.267604	0.331417	-0.034758	-1.116503	0.709046	-0.17287	18.467729	-21.454463	-240.452842	-11.644522	-0.020615	0.242364	-0.854434	12.643896	6.090197	-1.173202	18.057022	16.197014	-51.528635	-0.381203	-0.472646	-0.157905
1.824924	0.780438	9.430607	107.91736	137.833466	47.924974	0.332203	-0.079599	-1.09218	0.689278	-0.340284	20.222206	-18.817016	-275.867766	-10.144354	-0.021571	0.284037	-0.800046	16.801686	5.505671	0.279215	19.562839	-5.587815	-26.743084	-0.380919	-0.475951	-0.095793
-2.810634	0.394532	12.350825	96.129609	82.818737	-17.332242	0.376822	-0.094152	-1.1427	0.49754	-1.129394	19.255042	-9.440636	-311.15672	-11.257772	-0.060799	0.222531	-0.795204	17.30669	2.445733	4.886646	-3.642053	-34.467963	28.339514	-0.408389	-0.443148	-0.113136
-3.875929	1.294518	7.673803	86.775219	44.341358	-20.721967	0.390585	-0.115354	-1.111481	-0.093267	-0.790902	18.563562	0.057674	-346.74532	-14.439415	-0.139321	0.204616	-0.763847	12.894433	0.715805	5.335858	-12.335812	-34.007605	22.224428	-0.353245	-0.47389	-0.126709
0.14875	1.06547	8.603579	47.174751	50.620976	2.772367	0.390957	-0.111826	-1.125557	0.057937	-0.057351	20.322424	8.183069	-385.573632	-14.787287	-0.165493	0.218715	-0.749949	9.831478	-0.102735	2.28093	-0.17671	-24.934074	-11.177931	-0.395036	-0.492347	-0.095027
-0.552292	-0.245979	10.743971	44.382966	53.940551	4.275727	0.389842	-0.122411	-1.083329	0.270952	0.110545	19.534447	29.225524	-421.190179	-12.441677	-0.19233	0.215349	-0.706348	9.893179	1.395105	-0.585973	2.1599	-15.247942	-9.521242	-0.36722	-0.491939	-0.094886
-3.834719	-1.798881	9.650631	57.963391	38.940411	-0.699345	0.418426	-0.085033	-1.133087	2.870227	1.176402	20.099506	20.106038	-448.202595	-8.154449	-0.232439	0.210836	-0.648122	11.804903	3.532539	-2.217903	-7.840556	-9.437866	13.776555	-0.339404	-0.491531	-0.094746
-1.813573	1.178384	7.770259	18.468717	1.596049	5.032907	0.405077	-0.1122	-1.125906	5.531636	1.507612	18.117584	24.073041	-468.857463	-6.136484	-0.271737	0.194219	-0.631942	12.315545	3.352399	-3.346972	-7.797459	-8.209141	31.041655	-0.366035	-0.412629	-0.068016
-0.629962	0.266694	9.721673	25.931848	-2.214828	-0.079978	0.41844	-0.102332	-1.115595	9.001032	1.386717	16.208846	17.449046	-470.446441	-11.151634	-0.325042	0.20388	-0.560094	12.019573	1.842108	-3.59853	-15.060291	-7.863972	21.77324	-0.366732	-0.460381	-0.081033
-0.641387	0.666372	9.154832	7.086683	0.452264	3.667062	0.447082	-0.134152	-1.095386	11.026841	-0.196362	13.928815	-46.306853	-447.543919	-3.053115	-0.365075	0.214688	-0.502871	11.370146	2.424601	-3.548256	-11.592107	-11.570534	-14.95921	-0.36722	-0.491939	-0.094886
-0.51203	0.152451	9.893977	3.902436	-2.769171	1.845163	0.40472	-0.133028	-1.094339	14.535408	-0.08565	19.267719	-106.12046	-443.094363	13.49776	-0.392654	0.178537	-0.428564	12.163247	3.125939	-2.033311	-6.755426	-14.977472	-38.76383	-0.381057	-0.49297	-0.079429
0.001732	0.726253	9.849558	5.350294	-1.312821	1.404649	0.376093	-0.118508	-1.097056	10.982705	1.726752	22.81801	-125.26161	-430.302969	4.052352	-0.419416	0.190492	-0.385967	11.771373	4.409995	-0.717623	-3.570041	-17.561149	-33.293858	-0.38064	-0.460585	-0.081103
-0.221387	0.268092	10.127439	3.766634	0.528868	0.979123	0.418855	-0.150702	-1.077196	4.415469	0.835129	19.678745	-90.867397	-362.25751	-22.897265	-0.433938	0.229947	-0.302603	10.892287	3.658021	-0.497716	-4.630793	-18.055599	-12.447589	-0.394548	-0.460789	-0.081173
-0.28322	0.439493	9.899637	4.513988	2.532643	0.764196	0.376465	-0.114979	-1.111132	-10.039923	1.915726	0.297126	36.931742	-208.167755	-36.832213	-0.474643	0.163081	-0.226013	11.13781	2.904224	-0.07718	-7.578293	-16.372277	4.180707	-0.367011	-0.475747	-0.095723
-0.056305	0.26652	9.789661	2.356017	5.068323	1.240966	0.40472	-0.133028	-1.094339	-34.680893	-5.425211	-9.11529	71.30003	-10.201244	5.700276	-0.435639	0.178626	-0.227844	11.146979	1.802262	0.277564	-7.073849	-12.976646	1.320262	-0.381057	-0.49297	-0.079429
-0.061007	0.610205	9.563697	-0.267796	6.64917	1.703559	0.420355	-0.153888	-1.116008	-3.75079	-1.642176	3.48324	54.278406	139.139544	-1.30562	-0.435564	0.193947	-0.228848	10.31525	1.802917	-0.037377	-2.739293	-7.724187	-14.153963	-0.339125	-0.476165	-0.080055
-0.908606	0.498356	10.115043	-3.418226	7.398535	2.092817	0.418469	-0.136931	-1.080612	-6.954576	-5.463757	6.696204	-39.288722	243.555813	-20.379286	-0.435489	0.209267	-0.229851	9.783045	2.733596	0.016582	-0.732099	-3.528052	-14.028459	-0.367567	-0.52515	-0.077684
-0.801477	-0.077831	9.716885	-5.404037	8.059405	2.630621	0.419241	-0.164473	-1.07378	-6.414142	-4.50616	7.840682	-77.7658	253.667695	-58.995732	-0.421112	0.199381	-0.300872	9.668564	2.1536	0.131722	-0.290063	-0.900439	-4.721621	-0.380986	-0.493796	-0.063901
-0.907327	0.268831	10.170931	-4.820669	8.090421	2.844118	0.405077	-0.1122	-1.125906	-2.248053	-3.440355	11.722269	-84.271218	231.937559	-96.451871	-0.420817	0.200453	-0.315222	9.262033	1.691173	0.421576	-0.900921	1.138859	-1.000555	-0.38064	-0.460585	-0.081103
-0.920523	0.03617	9.487728	-3.970168	6.89592	2.822256	0.391014	-0.181023	-1.05559	-2.775504	-1.073693	11.486822	-57.061967	204.084694	-125.463478	-0.420458	0.096426	-0.351245	9.079618	1.632266	0.118493	-0.569931	2.770153	-4.829809	-0.366941	-0.476573	-0.080195
-0.686186	0.381859	9.777895	-2.93831	5.803505	2.004177	0.447082	-0.134152	-1.095386	-5.535669	-0.338417	8.938478	-28.44937	190.94498	-140.11824	-0.406151	0.131429	-0.410927	9.376204	1.45761	0.18316	0.160807	2.72496	-12.044592	-0.394965	-0.493174	-0.079499
-0.683669	-0.019749	9.889913	-1.964329	4.826075	1.862818	0.432218	-0.140834	-1.066885	-7.345967	1.128616	7.826082	-3.919991	198.475486	-138.852422	-0.406151	0.131429	-0.410927	9.306048	1.513349	-0.416762	0.748335	2.254749	-16.65894	-0.352962	-0.477195	-0.064597
-0.339029	-0.019756	9.953447	0.268665	4.160432	1.845572	0.404749	-0.167627	-1.059355	-7.707637	0.790616	7.025589	16.269887	220.605068	-126.041384	-0.419202	0.116033	-0.409648	8.789884	1.227398	0.350888	1.884511	2.671337	-18.101298	-0.352615	-0.443984	-0.081799
-0.621836	-0.19115	10.117714	3.479687	3.350576	1.393821	0.390228	-0.136182	-1.079913	-7.200667	0.282197	6.469647	21.68688	245.049314	-107.640175	-0.366343	0.07466	-0.465139	8.608164	1.342966	0.108453	2.530829	1.713401	-16.937841	-0.367708	-0.523498	-0.10874
-0.568171	0.152734	9.949717	6.846063	2.691613	1.25075	0.405492	-0.16057	-1.087507	-6.799695	0.056026	6.36464	13.266288	264.659022	-88.866009	-0.391409	0.077725	-0.507637	8.312948	1.401717	0.103198	1.023416	1.266787	-15.677337	-0.380919	-0.475951	-0.095793
-0.568378	0.439942	9.950923	8.803724	2.367244	0.841163	0.405863	-0.157042	-1.101583	-5.87811	-0.227352	6.383746	-0.182529	275.025993	-71.081096	-0.325348	0.082388	-0.566414	8.085126	1.171684	0.517156	-0.220179	0.195183	-16.003869	-0.353663	-0.506275	-0.125035
-0.508938	0.497824	10.065984	7.911276	2.186005	0.196761	0.419584	-0.126346	-1.12284	-4.651534	-0.003581	7.258917	-13.198986	275.583346	-55.05743	-0.377478	0.036127	-0.562301	7.66323	1.635506	0.092082	-3.27457	-1.08509	-14.51986	-0.381616	-0.523702	-0.10881
-0.455024	0.497059	9.896538	6.532732	2.55356	-0.253316	0.404734	-0.150327	-1.076847	-4.475427	0.108899	7.432557	-24.37554	270.200128	-39.861574	-0.363541	0.054738	-0.606629	7.784138	1.345351	0.212861	-4.884942	-2.691892	-13.497899	-0.367567	-0.52515	-0.077684
-0.573904	0.381294	9.666416	4.293623	2.861555	-1.223243	0.391	-0.163724	-1.073082	-2.858653	0.04974	7.692917	-38.326566	262.713055	-26.692161	-0.2977	0.073649	-0.652061	8.667585	1.168603	0.108812	-4.595521	-3.738153	-9.826751	-0.339333	-0.492357	-0.079218
-0.176381	0.265397	9.503169	2.60782	3.167258	-1.765449	0.405134	-0.181398	-1.055939	-2.036244	0.274217	8.502986	-54.381289	257.266107	-15.969948	-0.29726	0.045152	-0.678753	8.713531	1.107425	-0.609218	-5.971729	-4.727012	-6.363666	-0.339263	-0.493183	-0.06369
-1.254152	0.210914	9.993449	1.812161	3.347927	-1.760223	0.403963	-0.122785	-1.083678	-1.143774	-0.345945	9.823309	-66.272855	255.783459	-8.873166	-0.283393	0.108653	-0.711743	8.593122	0.235566	-0.854754	-5.875719	-4.516026	-6.028846	-0.367008	-0.494418	-0.048303
-0.346	0.380887	9.614017	2.395567	3.159651	-1.182266	0.447096	-0.151451	-1.077894	-0.83043	0.217865	11.075899	-69.939641	256.821442	-6.152947	-0.269607	0.096623	-0.754064	8.831252	0.293596	-0.730292	-6.443151	-4.773776	-7.920354	-0.339121	-0.494836	-0.032634
-0.741255	0.439825	9.890729	3.597818	3.89618	-0.591063	0.431832	-0.127063	-1.070301	-0.244566	-0.064486	11.540868	-70.33722	261.761418	-8.631936	-0.230754	0.081528	-0.753887	8.361729	0.120943	-0.620023	-6.962894	-6.184523	-10.692754	-0.381266	-0.509162	-0.078591
-0.803994	0.323777	9.604868	4.710521	4.969627	0.067208	0.405106	-0.146799	-1.090923	0.104646	-0.797335	11.660784	-73.786879	274.042326	-16.157578	-0.202805	0.13407	-0.843548	8.430919	0.006881	-0.080255	-6.938726	-6.730588	-11.118078	-0.367846	-0.540517	-0.092375
-0.630004	0.324135	9.721915	4.899232	5.801619	-0.042485	0.418455	-0.119631	-1.098104	0.097608	-0.91028	11.320852	-83.957612	294.519029	-26.381259	-0.20251	0.135142	-0.857898	9.011757	0.700712	-0.485632	-6.141329	-7.713144	-10.474512	-0.381266	-0.509162	-0.078591
-0.569575	0.554584	9.894553	4.781538	6.757187	-0.333295	0.391757	-0.173966	-1.083742	0.13057	-1.077991	12.849979	-97.960617	317.422446	-36.429485	-0.124214	0.107095	-0.886245	9.017219	-0.227763	-0.309867	-4.976029	-7.914221	-11.333458	-0.339684	-0.506897	-0.109436
-0.68833	0.266494	9.663707	4.965022	7.479113	-1.579483	0.42037	-0.171187	-1.098516	-0.236099	-0.456131	14.597866	-110.180408	337.597051	-42.650061	-0.123989	0.153056	-0.889255	9.027839	0.413793	0.351828	-5.202199	-8.6715	-12.123586	-0.325563	-0.509172	-0.062783
-0.513351	0.439418	9.83833	4.109272	8.094244	-1.965709	0.419212	-0.129874	-1.108764	-0.263874	-0.229516	16.012836	-117.824952	348.678359	-44.117899	-0.070898	0.217854	-0.937422	9.260602	0.412511	0.176509	-6.513439	-9.545551	-13.826009	-0.368122	-0.574554	-0.059645
-0.342743	0.496494	9.785059	3.439357	9.111471	-2.499278	0.392143	-0.187737	-1.080326	0.692768	-0.511518	17.67449	-121.481594	348.126323	-41.629478	-0.018259	0.190729	-0.979567	8.860134	0.183872	0.826793	-8.12467	-9.536187	-15.287067	-0.366941	-0.476573	-0.080195
-0.341505	0.32441	9.841188	3.29047	10.28756	-3.277114	0.447082	-0.134152	-1.095386	1.386341	0.557659	17.916457	-123.540393	339.921489	-35.547739	-0.018699	0.219226	-0.952875	9.262783	-0.05185	0.234438	-10.179028	-8.975372	-14.029372	-0.340235	-0.574972	-0.043977
