1757_acc_x	1757_acc_y	1757_acc_z	1757_gyro_x	1757_gyro_y	1757_gyro_z	1757_mag_x	1757_mag_y	1757_mag_z	1758_acc_x	1758_acc_y	1758_acc_z	1758_gyro_x	1758_gyro_y	1758_gyro_z	1758_mag_x	1758_mag_y	1758_mag_z	1759_acc_x	1759_acc_y	1759_acc_z	1759_gyro_x	1759_gyro_y	1759_gyro_z	1759_mag_x	1759_mag_y	1759_mag_z
-1.32147	0.266226	9.480899	11.818646	0.683729	-1.249631	0.467723	0.320986	-0.958792	0.837488	-4.06676	10.654237	-50.379272	127.866967	39.22344	0.135432	-0.101603	-0.935107	9.150894	2.04163	0.840207	-0.461017	3.022067	3.389961	-0.527496	-0.031417	0.004218
-0.957942	0.327761	10.511177	11.574755	0.710187	-0.972486	0.469238	0.300501	-0.980112	2.5602	-3.112469	10.578031	-52.343182	123.958621	38.042237	0.148854	-0.069815	-0.95174	9.32246	2.504844	0.605858	-0.004164	2.00985	3.821029	-0.495403	-0.626289	-0.336429
-1.481192	0.556212	10.104149	5.627654	6.45166	-2.855491	0.469267	0.265902	-0.945129	3.782132	-3.621233	11.169387	-55.337298	119.009881	34.630075	0.149225	-0.053422	-0.967094	9.731691	1.80575	0.31106	-0.783046	0.687307	4.258056	-0.495541	-0.643307	-0.320065
-1.318046	0.152067	9.650976	8.672731	7.811036	-2.228795	0.484873	0.279641	-1.001782	5.33616	-4.131165	11.144961	-56.431568	112.628442	29.047112	0.174656	-0.100306	-0.950284	9.848779	2.212012	0.314992	-1.404985	-0.112129	4.447508	-0.467513	-0.645378	-0.273341
-1.364249	0.269404	10.218876	9.630338	9.170757	-2.485468	0.426505	0.298096	-0.964989	6.493728	-4.245744	11.452243	-61.08979	102.897196	22.688107	0.213734	-0.06944	-0.953119	9.7965	2.155555	0.673085	-0.447927	-0.079993	4.627272	-0.467584	-0.644551	-0.288868
-1.758307	0.2137	10.551959	5.344449	10.545773	-3.524179	0.426519	0.280797	-0.947497	8.163471	-3.798178	11.54432	-63.478953	89.193132	14.25677	0.201128	-0.053122	-0.968196	10.087584	1.979663	0.438218	0.388154	0.164564	4.928717	-0.468072	-0.67611	-0.302722
-1.596565	0.211404	10.043621	6.289852	14.575043	-3.400074	0.426476	0.332695	-0.999972	9.666539	-3.969735	11.858807	-68.450535	76.440689	5.093094	0.214104	-0.053047	-0.968472	10.210153	1.922306	0.6798	0.505926	0.20663	3.858352	-0.412515	-0.655796	-0.36539
-1.523639	0.099857	10.840195	9.961138	17.213289	-1.466323	0.482987	0.296598	-0.966385	10.76307	-2.901313	12.109236	-63.340187	66.93557	-3.166812	0.252667	-0.009005	-0.943611	9.970652	1.98018	0.495924	1.948155	0.100832	2.753341	-0.43963	-0.627125	-0.305093
-1.353155	0.329258	10.787648	11.43127	21.108756	-0.180517	0.511971	0.302905	-0.995236	11.915071	-2.002086	12.247452	-51.617389	60.134733	-9.113125	0.214695	-0.050904	-0.997172	9.440297	1.168084	0.422652	2.038053	0.94442	1.068005	-0.467375	-0.628359	-0.289706
-1.643591	-0.073591	10.552979	13.19904	24.718121	-0.648296	0.442512	0.280764	-1.000734	13.562386	-1.837073	11.26314	-39.607119	53.846741	-17.982605	0.240357	0.008385	-0.973038	9.79702	1.458395	0.610212	1.024628	1.585035	0.885239	-0.495541	-0.643307	-0.320065
-1.990707	0.270583	10.377187	12.291879	26.775433	-0.85759	0.455503	0.287104	-0.976347	14.293727	-1.163125	10.54311	-34.411677	45.982619	-28.784318	0.240577	-0.005864	-0.986384	9.688352	1.693195	1.148162	0.811761	0.95765	2.325478	-0.495821	-0.658673	-0.334755
-1.414247	1.017874	10.618871	19.936735	32.220615	1.785007	0.498236	0.289509	-0.991471	14.104238	-0.600113	9.803643	-33.453307	37.786304	-39.253424	0.267189	-0.04846	-1.026974	9.977525	1.865511	0.854871	4.022796	0.02943	4.457738	-0.439768	-0.644143	-0.288728
-1.665493	0.955773	9.477114	18.146763	35.665148	0.834114	0.47001	0.272959	-0.973281	14.454597	-0.037217	10.094569	-24.994796	26.906111	-46.722101	0.240652	0.009456	-0.987388	9.920845	1.808065	0.973337	5.088612	0.776188	6.559246	-0.467934	-0.659091	-0.319087
-1.704145	-0.131715	10.381065	10.747395	38.335919	0.776156	0.469995	0.290258	-0.990772	17.866142	4.752571	19.398554	-38.918788	36.160335	-59.12533	0.266604	0.009606	-0.987939	9.619587	2.097884	0.669537	5.007905	2.057471	6.859068	-0.467655	-0.643725	-0.304396
-1.811108	0.214706	10.778257	9.088853	43.006878	0.120827	0.497879	0.268681	-0.959903	15.828684	2.607636	10.012532	59.46305	24.433514	-57.929813	0.2798	-0.004567	-1.001561	9.869822	2.158634	1.452975	5.623738	2.464922	6.121346	-0.468139	-0.693955	-0.270829
-1.699489	1.133205	10.670639	7.71749	45.450423	-1.828931	0.48413	0.272584	-0.97363	17.906174	1.815271	10.225308	63.49827	15.757772	-64.270173	0.279725	-0.019887	-1.000558	9.914262	2.271437	0.675781	8.606983	3.639033	3.048538	-0.467446	-0.627533	-0.305233
-2.038846	-0.014653	10.829691	6.937709	52.631541	-1.280599	0.497879	0.268681	-0.959903	17.822628	2.999755	11.809795	102.69741	5.859342	-78.022772	0.279204	-0.066921	-0.983197	9.572675	2.100738	1.327412	12.5241	4.396107	2.17496	-0.467796	-0.642073	-0.335452
-1.8048	0.733128	11.121548	9.834336	59.645274	-0.74557	0.525363	0.278175	-0.949941	8.979387	8.422979	10.439952	123.908059	-7.225016	-61.490939	0.293361	-0.062558	-1.040872	9.810401	2.332997	1.452617	14.572261	4.502775	4.398183	-0.468076	-0.657439	-0.350143
-2.316749	0.734224	11.282086	9.499422	65.024812	-1.05584	0.539855	0.281329	-0.964366	-0.986537	11.767462	12.894461	172.208959	15.154222	33.225084	0.279204	-0.066921	-0.983197	9.811751	1.752237	1.450144	16.687592	4.195599	8.21254	-0.453471	-0.609484	-0.337056
-2.260442	0.504175	11.225381	10.994955	73.633727	-0.889524	0.55549	0.260469	-0.986036	3.69478	-1.660042	-0.832922	171.573523	40.547944	86.970319	0.240126	-0.097787	-0.980363	9.44723	2.447981	0.967253	19.205087	4.415258	11.503425	-0.467725	-0.642899	-0.319924
-2.250711	0.908438	11.738748	5.426046	83.887176	0.366579	0.511628	0.264778	-0.946176	8.893466	-22.2052	27.904911	-132.48139	83.034768	-26.244313	0.279494	-0.126059	-1.007882	9.394682	2.507676	1.325842	19.130971	5.18388	8.137845	-0.481708	-0.623606	-0.382943
-2.314232	0.332616	11.394103	-0.134739	93.26635	-2.593078	0.554376	0.249884	-0.943808	0.364398	-5.080416	9.964036	85.46317	-20.479007	-17.696272	0.292915	-0.094271	-1.024515	9.922586	3.900285	1.341679	13.736032	7.487543	-0.564295	-0.467237	-0.61134	-0.30607
-2.172176	0.740655	12.819346	-8.977755	101.886348	-5.003637	0.554733	0.270711	-0.975376	0.093658	-0.741431	11.151075	56.134511	2.061718	9.416949	0.304265	-0.130196	-0.951034	10.9915	4.364193	1.782813	10.207835	10.794394	-2.095427	-0.45375	-0.62485	-0.351747
-1.872376	0.513577	13.506185	-13.338218	115.608597	-5.81071	0.555505	0.243169	-0.968544	0.808268	-0.80049	9.580835	36.383345	-2.37121	1.865663	0.265927	-0.128277	-0.978907	11.566566	5.172941	1.078396	15.743243	14.175054	7.159696	-0.453821	-0.624024	-0.367274
-2.846898	0.628923	13.430886	-17.584046	127.664005	-5.93982	0.582602	0.266434	-0.961998	1.045568	-0.687976	9.925603	12.509287	-7.437566	-1.225079	0.279418	-0.141379	-1.006878	11.84782	3.542181	0.118465	27.478143	16.209303	18.600313	-0.454377	-0.673427	-0.349235
-3.814816	-0.690562	13.633818	-14.386152	142.680837	-4.171387	0.582231	0.262906	-0.947922	1.550228	-1.25282	9.256334	9.80952	-5.827763	0.576783	0.279343	-0.156699	-1.005875	10.952613	2.147415	-0.622857	32.553185	15.600294	17.117612	-0.482192	-0.673836	-0.349376
-2.265653	0.917647	13.898052	-23.47711	157.663882	-1.816108	0.582988	0.252663	-0.958582	1.088819	-1.420997	9.18988	1.168934	-5.286285	-0.534596	0.279198	-0.12713	-0.993532	9.650511	1.394161	-0.949816	26.469292	15.806321	3.964951	-0.495821	-0.658673	-0.334755
-2.979979	1.039582	15.419092	-22.700173	175.981984	-5.20066	0.63797	0.254351	-0.921167	0.760004	-1.870378	9.918562	-3.577673	-4.372388	0.549655	0.278533	-0.144595	-0.963829	8.942898	2.093188	-0.84024	11.934446	15.862114	-9.399492	-0.43998	-0.641664	-0.335311
-3.505492	-0.226171	14.835231	-38.340202	192.338068	-2.190788	0.639499	0.216566	-0.924996	1.275675	-1.871443	9.816163	1.73602	-4.362878	0.029947	0.266373	-0.096565	-0.995264	9.297326	3.370793	-0.648478	-0.85959	13.821708	-11.727128	-0.440398	-0.674049	-0.333637
-3.335806	0.475107	17.683008	-32.059409	212.356153	3.606272	0.666983	0.226059	-0.915034	1.220527	-1.87124	9.928234	5.975583	-3.813897	-0.670229	0.279048	-0.157771	-0.991525	9.433161	4.710968	0.49764	1.351754	8.719443	-11.55799	-0.439772	-0.625472	-0.336149
-3.102619	-0.673166	17.853196	-13.808716	237.385675	5.494239	0.705915	0.296977	-0.894349	1.612282	-1.70343	9.427082	8.356039	-3.689102	-1.067837	0.279494	-0.126059	-1.007882	9.13671	4.827548	0.432726	11.318589	1.31351	-10.733618	-0.495825	-0.640002	-0.382176
-3.521812	1.059097	19.898238	-6.694902	251.71573	6.565548	0.747176	0.267969	-0.835677	1.216254	-1.533399	9.758599	6.812275	-3.646766	-1.161142	0.291659	-0.113879	-0.966112	9.025395	4.30637	0.727834	17.516607	-3.073448	-4.378432	-0.454239	-0.656409	-0.3656
-2.720867	0.368977	19.854078	44.656381	265.879716	5.084139	0.818551	0.238554	-0.830591	1.561993	-1.083355	9.822872	2.457099	-3.640501	-1.195412	0.253617	-0.110888	-1.008334	8.430811	3.841876	0.415317	18.996121	-4.464163	-2.482307	-0.426076	-0.622789	-0.382662
-4.424707	-1.132951	17.541389	33.585788	297.062007	6.942016	0.789924	0.253074	-0.833308	0.989511	-1.476496	9.92373	0.514443	-3.3884	-1.31778	0.292024	-0.157696	-0.991801	8.961126	3.724262	0.36482	15.411196	-3.406118	-5.469441	-0.426356	-0.638155	-0.397353
-4.956301	-0.778961	19.635267	35.548351	303.954793	11.740447	0.803716	0.197273	-0.767106	1.210641	-1.758959	9.475212	-1.273132	-3.073814	-1.316091	0.265042	-0.131493	-0.935858	8.599191	3.781417	-0.060884	13.117942	-2.181637	-9.317675	-0.481566	-0.625258	-0.351887
-2.787661	0.6092	22.297499	75.33942	308.325133	10.777013	0.843805	0.226878	-0.736174	1.389812	-1.984367	9.761847	-2.014092	-3.080604	-1.717518	0.240126	-0.097787	-0.980363	8.240827	3.723163	-0.307361	11.463181	-0.220142	-10.268418	-0.426218	-0.621137	-0.413717
-0.747642	-0.328527	18.298268	90.925928	318.834224	8.112504	0.914837	0.159336	-0.682028	1.906369	-1.816393	9.71623	-1.674879	-3.165471	-2.149681	0.277942	-0.146738	-0.93513	8.303415	3.607617	-0.127035	8.280316	1.65124	-3.022806	-0.482334	-0.672183	-0.380431
0.172447	-0.992833	24.337389	109.427454	316.598658	4.373494	0.970204	0.147253	-0.641197	0.989057	-1.870857	9.866758	-2.418064	-3.384304	-2.953981	0.2399	-0.143748	-0.977352	8.644867	3.836392	-0.778419	4.306977	4.678404	4.587341	-0.481708	-0.623606	-0.382943
1.919944	-3.437867	17.02995	154.992418	321.389579	3.860188	0.941592	0.144473	-0.626423	1.147809	-1.533718	9.247634	-1.9573	-3.621334	-3.325902	0.264891	-0.162134	-0.93385	8.711546	2.908276	-0.48174	3.974602	6.375336	8.98174	-0.481566	-0.625258	-0.351887
3.956292	-1.381297	1.279373	169.758381	306.332205	-23.938185	0.969861	0.109126	-0.592138	1.679303	-1.590497	9.881502	-2.331074	-3.87096	-3.390341	0.266668	-0.095493	-1.009613	8.817763	3.25399	-1.077124	0.035505	6.995435	3.85822	-0.454451	-0.65393	-0.412184
3.493407	-10.36919	-5.189352	125.480433	223.430734	-23.043159	0.969476	0.122897	-0.595554	1.387849	-1.590101	9.705539	-2.365829	-4.20646	-3.732811	0.24012	-0.157996	-0.990698	9.526362	3.078142	-1.064661	-3.371868	6.047307	-3.246083	-0.481846	-0.640624	-0.366578
10.721469	-8.807768	-1.3482	53.715726	92.225758	-13.437988	1.0241	0.103757	-0.526571	1.270408	-1.646311	9.589795	-1.099396	-4.248903	-4.163804	0.278533	-0.144595	-0.963829	9.065238	3.081694	-0.474395	-7.798015	4.539224	-9.793532	-0.46745	-0.608862	-0.352654
14.800245	-5.655626	11.247115	31.250912	37.801798	56.177273	0.966489	0.11197	-0.500438	1.506044	-1.928205	9.820952	-1.714395	-3.983972	-3.668419	0.265482	-0.15999	-0.96255	8.123855	2.793969	-0.373425	-8.57504	4.979619	-17.157679	-0.440331	-0.656204	-0.36553
8.689443	2.025627	6.386875	54.016121	-39.290529	17.17651	1.024129	0.069158	-0.491587	0.817462	-1.814155	9.919819	0.265878	-3.68531	-3.293922	0.252286	-0.145817	-0.948928	9.12634	3.604985	-0.291349	-11.230606	4.480952	-17.176242	-0.454239	-0.656409	-0.3656
6.62929	-6.175641	8.983263	-16.708916	-84.941718	28.535968	0.99513	0.08015	-0.480229	1.17274	-1.927084	10.380094	2.82774	-3.779464	-2.676238	0.252361	-0.130496	-0.949932	9.358853	4.184711	-0.404289	-13.615024	1.049101	-8.533386	-0.440189	-0.657857	-0.334474
3.855688	-2.489873	10.706592	84.540098	-102.743866	67.076483	0.996273	0.056136	-0.487473	1.566459	-2.15354	9.93525	5.675567	-3.284627	-2.484059	0.252656	-0.129424	-0.964281	10.014478	3.777929	-0.09438	-9.158675	-1.822917	-1.384389	-0.440543	-0.653726	-0.412114
3.985445	-3.832907	5.588718	93.831345	-115.828728	74.991457	0.996645	0.059665	-0.501549	0.930044	-2.377818	9.751843	8.624849	-2.141422	-2.778598	0.2399	-0.143748	-0.977352	9.541363	3.255831	-0.225222	-10.684941	-3.87907	-1.246799	-0.39819	-0.623207	-0.366994
5.792247	-6.667245	1.292804	67.03577	-141.89823	87.642189	0.998531	0.042707	-0.536945	1.680835	-1.759441	9.938	11.684774	-1.808242	-0.892316	0.252656	-0.129424	-0.964281	10.195058	2.732403	-0.035622	-8.426381	-6.407418	-7.385838	-0.440543	-0.653726	-0.412114
6.279761	-4.305718	2.903492	17.134243	-170.660586	97.525639	1.026758	0.059258	-0.555135	1.224716	-1.533067	10.155077	13.270354	-0.991359	-0.821262	0.253472	-0.081319	-0.995992	10.135366	3.022918	-0.035486	-7.31367	-8.895775	-8.906037	-0.426423	-0.656	-0.36546
6.734357	-3.260239	5.701431	-12.777023	-197.082503	93.412843	1.01531	-0.002166	-0.565859	1.221328	-1.026188	10.042224	12.217439	-1.103927	0.286583	0.226038	-0.147039	-0.934027	9.065373	3.023618	-0.474642	-8.51946	-9.79746	-13.817543	-0.398261	-0.622381	-0.382521
6.762893	-2.679551	7.182025	-12.940136	-220.548804	82.05911	0.987797	0.022939	-0.610804	1.449603	-1.252036	9.933591	11.012668	-1.004403	1.488901	0.265852	-0.143598	-0.977903	8.245344	3.20122	-0.129866	-3.428328	-7.554372	-21.944687	-0.468568	-0.670326	-0.411417
7.166725	-2.277027	7.362068	2.956985	-239.211648	63.195108	0.989326	-0.014846	-0.614633	1.113319	-1.58904	10.32253	11.859886	-2.460529	0.735227	0.278237	-0.145667	-0.949479	8.246174	3.317619	-0.069464	-3.846633	-5.559894	-16.788363	-0.468639	-0.6695	-0.426945
6.006379	-2.739108	6.541924	-8.811135	-252.114073	37.72616	0.973662	0.040613	-0.627947	1.401385	-1.082557	10.385641	11.590842	-4.095379	1.705256	0.252951	-0.128352	-0.978631	8.607144	3.20214	0.296085	-5.62466	-2.50205	-2.524756	-0.426844	-0.669714	-0.411206
5.320155	-3.887441	6.523736	-28.954013	-258.700096	16.121139	0.919838	-0.002388	-0.655115	0.998859	-1.307125	10.376989	13.375791	-14.429352	0.524956	0.252581	-0.144745	-0.963278	8.550619	3.551473	0.476189	-5.831254	-1.306154	3.032739	-0.481917	-0.639798	-0.382106
4.116408	-3.484722	6.445189	-54.369527	-262.337591	-1.774078	0.892297	0.057316	-0.735043	1.55936	-0.970788	9.709687	9.31089	-13.468666	0.46958	0.214243	-0.142826	-0.99115	8.853362	2.622818	0.77727	-3.335086	-1.201622	2.656437	-0.454101	-0.63939	-0.381965
3.330973	-4.227504	7.222406	-82.514378	-266.90686	-17.316809	0.892311	0.040016	-0.717552	1.451543	-2.265985	9.932737	9.055484	-14.087567	0.833159	0.252876	-0.143673	-0.977627	10.215966	2.737101	1.102609	-4.948938	-2.860545	8.721925	-0.44089	-0.686937	-0.394912
2.388494	-3.760512	8.797294	-104.206502	-269.897993	-31.013513	0.865171	0.06865	-0.776573	1.393247	-1.25188	9.989022	13.123772	-14.94478	-0.867636	0.239535	-0.09993	-0.951663	9.682485	2.795897	0.973139	-3.539519	-5.201536	4.876861	-0.412519	-0.637125	-0.41281
1.331962	-3.925294	10.3673	-115.089671	-272.978716	-40.541322	0.822795	0.087073	-0.793017	1.574058	-1.702563	10.332107	10.684853	-19.670003	-0.484986	0.25221	-0.161137	-0.947924	9.324776	1.982407	0.66354	-2.475095	-4.55207	-4.329539	-0.440543	-0.653726	-0.412114
0.447193	-4.0902	11.940647	-119.414884	-275.069732	-45.133527	0.810932	0.074018	-0.84214	1.501794	-0.970681	9.708479	12.656247	-20.276274	-2.431592	0.278533	-0.144595	-0.963829	9.501014	2.330458	0.668325	-2.646041	-3.710121	-2.988211	-0.481503	-0.588742	-0.4312
-0.687465	-3.110453	12.49101	-120.880978	-271.678626	-49.000843	0.751792	0.120016	-0.812179	1.686125	-1.364891	10.22153	11.565648	-21.054699	-2.748488	0.252951	-0.128352	-0.978631	9.677232	2.213654	0.611225	-2.397118	-3.806674	-2.438532	-0.440335	-0.637533	-0.412951
-1.634931	-3.448849	13.778254	-116.918552	-261.582788	-55.812096	0.751392	0.151086	-0.833086	2.229107	0.156154	11.536401	18.79049	-21.527761	-5.491056	0.265626	-0.189559	-0.974892	9.562096	2.388894	0.789486	-3.095481	-3.891837	-0.357344	-0.439917	-0.605148	-0.414625
-2.331639	-2.416334	13.314411	-116.46845	-251.300801	-66.936346	0.682632	0.1879	-0.919212	2.156342	-0.74569	10.741479	12.708786	-26.08615	-4.893886	0.201343	-0.127581	-0.991878	9.146222	2.156793	0.601074	1.006495	-5.372995	-3.604745	-0.468084	-0.620097	-0.444984
-3.767785	-1.95673	13.061092	-127.768227	-241.571419	-85.707239	0.669612	0.216159	-0.978582	1.412026	-1.589152	10.838331	18.581482	-28.246353	-5.496365	0.239825	-0.159068	-0.976348	9.081974	2.03954	0.299944	-1.21353	-5.194611	-3.872614	-0.468084	-0.620097	-0.444984
-7.574058	-1.545349	14.523211	-128.774378	-219.365497	-96.390065	0.612387	0.210601	-0.949033	1.995796	-2.04059	11.189878	24.198314	-33.564999	-6.654519	0.187626	-0.16044	-0.960895	9.200971	2.097593	0.362299	-1.436575	-6.920313	-2.702211	-0.468359	-0.654134	-0.412254
-11.845669	-0.27346	15.638923	-128.024643	-184.755661	-101.782971	0.596709	0.283359	-0.979839	1.932078	-1.984388	10.905519	27.079443	-37.701693	-6.292565	0.213433	-0.130721	-0.949104	9.787697	2.153577	0.19383	1.218975	-8.718925	0.597518	-0.481988	-0.638972	-0.397633
-14.958047	1.460268	17.517926	-129.12632	-163.501096	-88.761325	0.555847	0.281296	-1.017604	1.531453	-1.307526	11.067544	32.127732	-44.266364	-10.361348	0.200527	-0.175686	-0.960167	10.071753	1.685574	-0.461621	-1.718836	-9.951478	6.390586	-0.454243	-0.637737	-0.413021
-17.825021	2.72533	17.297001	-125.827993	-165.7524	-73.343254	0.55319	0.325795	-0.989039	1.926727	-1.083242	10.736359	32.466631	-49.170641	-10.163207	0.200671	-0.205255	-0.97251	8.946044	1.687151	-0.722157	-0.997222	-10.779823	9.845756	-0.440264	-0.638359	-0.397423
-22.565269	4.79956	17.895505	-97.478935	-170.179639	-40.272081	0.510828	0.326919	-0.987991	2.103373	-1.252415	10.909762	35.671462	-54.733048	-11.664808	0.226033	-0.207248	-0.944362	9.063651	1.396253	-0.781099	0.523842	-11.352701	12.532755	-0.468564	-0.688998	-0.363996
-26.526142	6.753502	17.372054	-61.564998	-158.097837	-3.464846	0.495521	0.403206	-1.032873	2.26519	-1.253165	10.403632	28.036551	-60.161413	-12.526421	0.187921	-0.159368	-0.975245	8.765539	1.280035	-0.966817	-0.249501	-9.174083	14.542525	-0.467804	-0.60473	-0.430293
-29.470081	7.554731	16.12473	-48.108221	-132.395903	24.451945	0.455075	0.352773	-1.032238	1.93003	-0.914109	10.90642	30.244923	-66.294156	-13.232974	0.187325	-0.221722	-0.956881	8.168235	1.512206	-1.336274	-1.47592	-5.121123	15.566885	-0.453892	-0.623197	-0.382802
-30.033458	7.831938	13.671232	-29.772791	-98.204367	40.346821	0.453903	0.411386	-1.059978	1.358134	-0.349536	11.121363	24.986761	-71.672898	-12.427501	0.186734	-0.223866	-0.928181	8.474185	1.572079	-0.731455	-2.289911	-2.454785	20.692414	-0.467942	-0.621749	-0.413928
-27.465694	6.609284	10.3062	-24.710575	-68.480211	40.416472	0.483673	0.372852	-1.064504	2.525134	-0.970758	11.824695	15.956003	-72.586443	-12.228056	0.187255	-0.176833	-0.945542	8.779595	1.864256	-0.125648	-2.681658	-3.715402	24.154075	-0.496388	-0.652063	-0.458978
-26.393786	6.080326	21.179429	-48.471239	143.075706	-58.297903	0.426805	0.388121	-1.066523	2.227959	-1.13959	11.365392	13.946548	-84.853068	-12.043313	0.173463	-0.225013	-0.913556	9.661421	2.384421	-0.22673	-1.698047	-7.279874	23.128193	-0.481432	-0.589568	-0.415673
-26.474996	2.955622	2.296981	215.195707	4.982676	3.723946	0.47071	0.331913	-1.053908	2.292455	-0.970422	11.70658	6.199889	-91.840703	-14.091936	0.161228	-0.192303	-0.943987	10.141793	2.152767	0.200433	-2.29832	-11.35266	26.359547	-0.481369	-0.553052	-0.494986
-44.127079	22.535063	10.617548	104.518161	-6.342921	0.362666	0.372252	0.320764	-1.048047	1.980155	-0.574134	13.285568	9.778094	-104.545487	-16.034113	0.147882	-0.208771	-0.928358	10.142759	2.21109	0.260587	-6.680618	-15.08951	25.384477	-0.467662	-0.606383	-0.399237
-30.352156	9.91345	3.330671	45.720154	25.480438	-30.1428	0.456189	0.363358	-1.074466	2.919935	-2.152496	14.039897	7.602262	-117.995875	-18.512369	0.095903	-0.224391	-0.926251	10.151832	2.096916	0.739348	-8.816981	-18.501835	17.460795	-0.468359	-0.654134	-0.412254
-15.647898	14.049487	6.191488	147.778813	27.239373	-40.500095	0.47181	0.359798	-1.113627	2.707267	-1.869701	14.884893	1.985182	-134.981235	-22.230736	0.108954	-0.208996	-0.927531	10.635796	2.214707	1.407622	-12.539539	-21.424486	11.925133	-0.481991	-0.620301	-0.445054
2.90587	4.787248	6.342848	-66.811001	13.38533	30.921544	0.457718	0.325574	-1.078295	2.731074	-2.939127	15.903505	-0.335758	-152.663379	-25.891674	0.070321	-0.208149	-0.941053	11.279377	3.199773	1.244209	-14.946085	-25.065412	11.248219	-0.48248	-0.651859	-0.458908
-0.428082	-2.886684	11.133069	-106.704648	29.353667	13.112127	0.414585	0.354239	-1.084079	2.541806	-2.880753	17.824463	-9.662999	-175.509242	-37.685911	0.043704	-0.225763	-0.910798	11.915255	4.183108	0.661447	-14.776183	-29.540693	9.343347	-0.440126	-0.621341	-0.413788
-1.582908	-1.738954	10.660801	-48.636519	16.462803	-21.552088	0.429849	0.329851	-1.091672	2.461039	-3.780546	19.350555	-9.030265	-207.155769	-50.915521	0.069586	-0.180724	-0.900011	12.153271	4.764069	0.848042	-14.509048	-35.083311	4.233996	-0.481917	-0.639798	-0.382106
-2.113129	-1.109861	9.914343	6.244899	19.097115	-6.485335	0.443598	0.325948	-1.077945	1.429332	-5.240768	22.101694	-14.941517	-243.455112	-65.922327	0.029472	-0.245446	-0.85212	11.56585	4.53361	0.955863	-14.131475	-36.624176	-3.370199	-0.523152	-0.608852	-0.368463
-1.199658	-0.594032	9.820625	6.161066	6.292926	0.51389	0.429491	0.309023	-1.060104	1.669288	-4.621136	22.616807	-12.91198	-287.139482	-83.399711	0.030357	-0.24223	-0.895169	10.962443	3.602283	0.102206	-8.547732	-41.021406	-2.055257	-0.467383	-0.591017	-0.384547
-1.901974	0.494718	9.072758	3.009891	9.710307	4.135931	0.456975	0.318517	-1.050143	-0.422273	-4.446639	24.384687	-1.6838	-333.359589	-96.30165	0.00345	-0.200707	-0.84023	9.779494	3.313861	-0.10076	-3.631769	-43.205868	-2.032071	-0.495758	-0.622157	-0.414069
-0.974437	0.036935	9.657174	-13.709168	7.579618	3.597415	0.470695	0.349213	-1.0714	-0.144604	-3.318516	26.712695	23.946803	-391.369552	-113.099492	-0.06202	-0.203226	-0.810152	9.231302	3.543672	-1.008278	-4.012537	-41.075957	-7.052988	-0.481287	-0.609892	-0.337196
-1.25176	-0.018369	10.10619	-17.918748	7.558835	1.002455	0.456946	0.353116	-1.085126	-0.177983	-0.162713	28.130132	55.758264	-416.23708	-93.163107	-0.114665	-0.236311	-0.778342	9.12584	4.767	-0.166591	-7.12393	-34.942721	-9.790909	-0.453266	-0.57462	-0.385314
-1.658517	-0.996033	9.753175	-18.46961	7.710261	0.975834	0.456961	0.335816	-1.067634	3.187841	-0.78522	32.10665	97.257904	-436.439785	-72.493715	-0.193186	-0.254225	-0.746985	8.307857	4.538317	0.236363	-2.918018	-31.564833	-6.735617	-0.495407	-0.607617	-0.38385
-1.249118	-0.592302	10.217483	-16.448571	5.753403	3.606287	0.47071	0.331913	-1.053908	5.064883	-2.090096	25.577678	145.095624	-463.974015	-65.946985	-0.193927	-0.28701	-0.716278	8.064495	4.362898	-0.188129	1.73749	-30.485409	2.869528	-0.523219	-0.626697	-0.33657
-1.031691	0.036976	9.656061	3.49151	4.568358	2.425608	0.42912	0.305495	-1.046028	0.297408	-7.54521	25.472738	70.537461	-462.583867	-56.961688	-0.260728	-0.324457	-0.626793	8.014822	4.132707	0.289037	2.115969	-29.255132	8.24159	-0.537407	-0.642267	-0.351331
-1.60378	-0.594466	9.642271	-5.270893	4.268373	3.611315	0.427591	0.34328	-1.0422	-1.16942	-5.412346	13.554837	149.001934	-435.943066	-66.498147	-0.300247	-0.326826	-0.597267	8.603883	4.13111	0.240134	5.92012	-26.932	12.618143	-0.494639	-0.560692	-0.355306
-1.310661	-0.822992	9.987992	-5.085337	4.796531	3.190022	0.456589	0.332288	-1.053559	-9.510794	-3.950723	-7.792762	200.143525	-270.109793	-4.516121	-0.301427	-0.331113	-0.539868	9.137364	4.072313	0.369605	12.508886	-23.651122	22.940905	-0.481358	-0.609066	-0.352724
-1.205391	-0.365473	9.537325	-4.802444	5.403404	3.99642	0.471081	0.335442	-1.067984	-20.406586	-7.757008	-3.722279	55.144097	-209.849687	-21.174497	-0.329156	-0.397905	-0.463553	9.549087	3.722417	0.256011	15.336103	-19.300825	26.150197	-0.522802	-0.594312	-0.338244
-1.315571	-0.1921	9.763234	-6.203265	5.777554	5.662553	0.457347	0.322045	-1.064219	-8.260368	-5.744604	4.800264	-7.297758	-94.030812	-38.569951	-0.355774	-0.415519	-0.433299	10.316256	2.790951	0.146547	13.000628	-16.87521	18.504993	-0.481011	-0.575854	-0.369926
-1.316767	-0.077458	9.706864	-8.157859	6.436833	6.353563	0.442855	0.318891	-1.049794	-12.041092	-4.375263	16.497815	-3.649546	34.808163	-13.426483	-0.343458	-0.372698	-0.393536	10.323689	2.908833	0.56639	13.370771	-13.493513	8.064462	-0.481361	-0.590394	-0.400145
-1.07983	-0.24826	10.108565	-6.406138	6.932166	6.755239	0.415728	0.330226	-1.091323	-19.946442	-5.326027	7.272679	89.370688	67.184752	-2.733178	-0.394331	-0.399352	-0.447825	11.03671	3.198829	0.880365	12.298863	-9.292352	-2.251637	-0.481428	-0.608239	-0.368252
-1.486137	-0.306618	9.816264	-3.243925	7.557352	7.124298	0.414599	0.33694	-1.066587	-8.340035	-6.588018	6.383043	64.801855	80.921238	4.936598	-0.355479	-0.414447	-0.447648	11.320672	3.718613	0.348931	16.633432	-1.079548	-5.240477	-0.495474	-0.625462	-0.351957
-1.371711	-0.191817	9.818974	-5.02076	7.578045	7.283081	0.471467	0.321671	-1.064568	-10.115534	-7.997424	1.249235	31.530909	101.896427	3.854546	-0.329972	-0.44601	-0.431843	11.079355	3.13691	-0.017385	17.902844	7.460344	-5.377513	-0.481011	-0.575854	-0.369926
-1.595037	-0.36277	10.098061	-3.836371	6.488434	6.28063	0.470338	0.328385	-1.039832	-12.170656	-5.626808	2.227219	-25.429344	151.736922	-6.978362	-0.355479	-0.414447	-0.447648	11.006688	2.378595	-0.860396	21.574821	14.862048	-9.949158	-0.509311	-0.626493	-0.3365
-1.149167	-0.480638	9.481102	-2.767074	6.190304	5.904705	0.457332	0.339345	-1.08171	-12.095899	-4.891524	5.796131	-40.039364	197.87347	-8.44219	-0.342352	-0.383731	-0.449931	10.127238	2.73056	-0.515978	19.275495	16.401901	-26.541399	-0.550409	-0.578528	-0.339222
-1.88131	-0.362563	10.092494	2.165351	6.218903	5.400303	0.431006	0.288538	-1.081425	-11.378712	-4.15943	7.113965	-27.721713	242.856216	-12.670179	-0.302984	-0.412003	-0.477451	8.358975	3.199961	-0.367292	13.033703	19.261181	-33.040782	-0.495057	-0.593077	-0.353631
-1.431234	-0.134817	9.704395	5.243181	4.40617	3.889963	0.484845	0.314239	-1.036765	-10.191574	-3.542864	6.177	-10.624787	279.556065	-20.768377	-0.301213	-0.405572	-0.563549	8.025941	3.612248	0.825974	11.114558	21.072759	-31.392506	-0.453821	-0.624024	-0.367274
-1.661366	-0.134892	9.643088	5.569675	3.186484	3.163853	0.444769	0.267336	-1.050206	-8.928893	-4.10873	5.976564	-13.207211	308.75285	-30.035859	-0.300108	-0.416605	-0.619944	8.378938	3.611191	0.772669	10.168098	18.725886	-20.713662	-0.495266	-0.60927	-0.352794
-1.59945	-0.421177	9.870407	8.670016	3.3742	4.139332	0.456218	0.32876	-1.039483	-8.241711	-3.490482	5.878313	-30.296269	329.339024	-38.290847	-0.274225	-0.371565	-0.609157	8.324614	3.961018	1.072587	8.323467	17.352716	-0.958524	-0.536989	-0.609882	-0.353005
-0.912272	-0.593998	9.883045	15.55547	2.495923	3.093218	0.43062	0.302309	-1.084841	-7.918134	-2.588263	7.640944	-52.823839	338.600361	-38.185874	-0.222177	-0.400834	-0.622602	8.37189	2.854224	0.2902	8.525653	19.221578	10.676735	-0.523081	-0.609678	-0.352935
-1.258316	-0.192142	9.764347	21.23965	1.190858	1.24626	0.485602	0.303997	-1.047425	-7.316532	-2.250314	8.899389	-65.06092	344.166404	-28.615016	-0.155601	-0.409348	-0.709076	8.78875	3.609504	0.600652	6.910449	16.350512	12.652493	-0.495545	-0.624636	-0.367485
-1.943018	-0.363486	9.863968	24.851993	0.373117	1.651918	0.429863	0.312552	-1.07418	-6.484322	-1.462105	10.219688	-77.103739	346.406068	-10.630313	-0.142104	-0.36224	-0.726712	8.491427	2.679973	0.351566	4.988476	14.652003	7.624276	-0.536918	-0.610708	-0.337477
-1.882216	-0.650012	10.034434	32.249082	-1.448128	-0.055037	0.457361	0.304746	-1.046727	-4.396706	-1.859729	10.942552	-85.197315	348.20736	7.168875	-0.08998	-0.376188	-0.741161	8.955023	2.560763	-0.11938	3.785367	15.024786	12.578441	-0.494919	-0.576059	-0.369996
-1.890218	-0.364493	9.637669	33.67442	-3.245213	-0.916383	0.471081	0.335442	-1.067984	-2.887078	-2.932385	11.482839	-96.38558	346.445854	16.298481	-0.062332	-0.384927	-0.826808	8.666795	1.981914	0.17218	-1.12	16.630657	15.33951	-0.495687	-0.622984	-0.398541
-1.406903	0.100257	10.956128	33.513376	-3.630151	-2.271577	0.471524	0.252473	-0.994601	-0.867238	-3.048628	11.751615	-116.710965	342.270858	16.456336	-0.009687	-0.351842	-0.858617	9.247073	2.443195	-0.294093	2.01332	17.195374	18.015358	-0.467383	-0.591017	-0.384547
-1.826116	-0.592853	9.978936	36.527752	-3.461634	0.35994	0.445141	0.270864	-1.064282	0.848049	-4.289318	13.824656	-139.073776	330.61045	10.834617	0.016861	-0.289339	-0.877533	9.237979	2.092513	-0.834738	3.043846	15.373285	23.002888	-0.49471	-0.559866	-0.370833
-0.684384	0.337246	12.789754	38.358889	9.447843	1.085828	0.457375	0.287447	-1.029235	2.792004	-4.065798	15.960405	-152.90998	314.117052	7.206358	0.057265	-0.283754	-0.950109	8.880965	1.453498	-1.083688	-0.880175	16.713364	25.181088	-0.494919	-0.576059	-0.369996
-1.574544	0.560878	11.182131	34.382324	20.342988	0.845007	0.444012	0.277578	-1.039546	4.121406	-3.730057	16.271692	-149.060131	300.914918	7.016275	0.120894	-0.242777	-0.88275	8.763473	1.221464	-1.086878	-2.738508	19.085897	25.849017	-0.481428	-0.608239	-0.368252
-2.276808	-1.510138	10.307285	52.363267	21.827923	12.746712	0.486374	0.276455	-1.040594	4.751238	-3.224363	16.172138	-155.57193	283.542829	20.52604	0.148467	-0.266837	-0.967392	8.053328	0.641583	-1.282276	-4.186157	20.506252	24.074481	-0.523223	-0.608026	-0.38399
-1.575036	-0.300986	11.121658	55.657484	28.557474	6.069371	0.457761	0.273675	-1.025819	9.679809	-2.837788	17.974415	-179.08943	254.420202	42.198868	0.226918	-0.204033	-0.987411	7.294112	0.993772	-0.815843	-8.035145	21.255731	18.307483	-0.495269	-0.590599	-0.400215
-2.376805	-0.013198	11.107276	56.375557	35.255839	6.482843	0.445155	0.253565	-1.04679	14.111081	-1.942414	20.785752	-186.95683	221.406695	65.634786	0.227439	-0.157	-1.004772	7.942034	0.58526	-0.925283	-6.150275	24.577318	14.280545	-0.49499	-0.575232	-0.385524
-2.032455	0.388885	11.172499	60.76998	41.53337	7.553557	0.487131	0.266212	-1.051254	17.825314	-0.204122	19.733009	-183.408914	190.729698	80.686813	0.266518	-0.126134	-1.007606	7.655331	0.297286	-0.512673	-2.630795	27.686589	10.64618	-0.509457	-0.606169	-0.414976
-1.416309	0.787625	10.504199	63.241828	52.885715	10.153602	0.488288	0.224899	-1.041006	22.161438	0.746219	20.787357	-184.400856	169.095105	85.095602	0.279418	-0.141379	-1.006878	7.837342	0.530421	-0.208848	-2.404508	27.664121	6.977664	-0.467454	-0.59019	-0.400074
-2.102207	0.730922	10.547449	60.574045	51.873797	3.459499	0.502009	0.255595	-1.062263	27.858844	2.819873	21.022073	-168.946117	146.403437	76.403048	0.292915	-0.094271	-1.024515	8.202173	0.648235	0.397318	-1.028898	26.356389	6.703841	-0.495128	-0.592251	-0.369159
-1.366191	1.417993	10.166849	47.413732	56.496974	-0.41425	0.502766	0.245352	-1.072923	30.879983	4.503033	19.841496	-139.686286	122.3346	60.925021	0.344749	-0.049081	-1.014279	7.687555	1.118014	1.347902	0.515216	25.11177	3.342136	-0.495061	-0.574406	-0.401052
-1.617163	1.885453	11.982511	37.413901	67.66926	2.065575	0.502423	0.207225	-1.023864	30.883974	5.965527	17.465075	-108.650214	102.201337	46.351366	0.34534	-0.046937	-1.042978	8.686562	1.056654	1.126735	2.273069	24.710367	-1.613535	-0.467383	-0.591017	-0.384547
-0.90061	1.764	10.575176	37.826442	74.514321	-5.246044	0.503566	0.183211	-1.031108	32.576488	7.538315	16.030041	-88.733536	88.165078	38.242572	0.39806	0.001468	-1.075792	8.982764	1.521081	1.254029	4.630003	26.121396	-1.170366	-0.509599	-0.604516	-0.446031
-2.171643	1.545078	12.879577	7.460595	88.11781	-3.373354	0.517315	0.179308	-1.017381	31.13091	6.242692	12.884758	-51.404249	60.877753	27.827184	0.357951	-0.003045	-1.017565	9.808855	1.577267	1.269682	5.465456	22.482249	-1.003213	-0.508835	-0.53892	-0.464908
-1.511578	2.815091	14.489021	3.448858	105.345624	-6.945979	0.586403	0.197921	-0.997807	29.556464	7.31517	12.003424	-55.268116	29.50811	31.396616	0.358246	-0.001973	-1.031915	10.038742	1.865871	0.975785	8.501571	17.400912	3.319445	-0.523014	-0.591833	-0.384827
-1.201451	1.256442	12.726741	8.90677	120.302037	-6.933182	0.558491	0.254096	-1.06366	41.28169	4.757409	11.171756	106.844051	-90.675604	-53.17924	0.34505	0.0122	-1.018293	10.096253	2.039717	0.917721	14.112605	17.708869	13.934268	-0.467804	-0.60473	-0.430293
-2.380659	1.607028	13.89872	-15.659722	133.172261	-8.677361	0.544785	0.206101	-1.024911	42.263932	9.661574	17.197813	75.991882	-123.852962	38.918377	0.34549	-0.016297	-1.044985	10.204091	1.688518	0.319369	12.335786	20.078097	23.833265	-0.495344	-0.571101	-0.463163
-2.407435	1.039168	15.430227	-20.267067	155.508593	-8.178181	0.57114	0.222309	-0.990214	37.72645	12.707833	12.46284	127.748244	-153.116454	57.907863	0.320204	0.001017	-1.074137	9.863449	1.111288	0.96927	10.068119	20.729613	31.052791	-0.494856	-0.539542	-0.44931
-2.231093	0.867684	15.660256	-30.886113	177.355989	-7.822967	0.615016	0.2007	-1.012581	-2.233329	3.932976	4.991996	243.019482	-124.670671	9.910763	0.255174	-0.029999	-1.070751	10.464925	1.925968	1.702619	5.208672	23.293695	23.996577	-0.522813	-0.538298	-0.480506
-2.872121	0.361099	17.975699	-49.063018	201.155877	-6.862169	0.641014	0.19608	-0.946316	-6.599272	-8.895703	12.248828	133.009885	-14.00652	27.600788	0.267334	-0.078029	-1.039317	11.75867	3.432727	1.673349	-8.240483	28.5845	-7.125632	-0.509043	-0.555113	-0.464071
-2.353915	0.316353	21.054433	-67.58084	229.840306	-6.403618	0.654391	0.188649	-0.918513	-0.486716	0.998741	2.98798	64.568359	-28.127907	-4.656658	0.280234	-0.093274	-1.038589	13.883332	5.287288	1.960504	-21.043797	35.99395	-41.705035	-0.453199	-0.556775	-0.417206
-1.555497	-0.59167	23.793995	-95.783477	262.837724	-3.332147	0.667354	0.229588	-0.92911	1.436588	-3.052892	11.856611	-7.045789	-34.162622	0.651442	0.254427	-0.122993	-1.05038	14.048647	7.492289	1.613759	-9.903938	28.931575	-35.356563	-0.481507	-0.570071	-0.478621
-2.985692	-3.750159	23.696033	-115.055191	298.602571	13.436022	0.69561	0.211539	-0.912317	1.679903	-3.167847	9.766895	44.157359	-17.004518	8.631984	0.241972	-0.076035	-1.067465	12.080489	4.528686	0.067163	25.989242	23.914833	-5.271381	-0.508972	-0.555939	-0.448543
-0.032949	-1.951761	28.421142	-67.898477	346.723263	20.216333	0.737243	0.18606	-0.86772	1.18912	-1.25279	8.512765	44.643868	-23.144615	1.234169	0.228406	-0.078254	-1.038489	10.636509	2.666324	-1.704459	34.527717	26.515002	18.403328	-0.495411	-0.588946	-0.431271
0.765951	-2.617432	34.116917	55.577717	401.340929	39.177957	0.778861	0.177879	-0.840616	1.379626	-1.083411	9.366128	28.646171	-16.005386	-0.804035	0.228475	-0.123143	-1.049828	8.861063	2.436835	-2.037995	10.111999	36.014356	11.446689	-0.46704	-0.539134	-0.449169
0.737466	-2.63605	29.740342	153.333657	458.029749	69.587935	0.834214	0.183095	-0.817277	1.109908	-1.701843	10.152516	20.635474	-12.000063	-0.493204	0.279719	-0.080097	-1.010893	8.820774	2.906028	-0.958794	-2.888414	43.516884	-8.499819	-0.481436	-0.570897	-0.463093
-1.095422	2.121061	26.940051	183.239452	478.695034	50.432344	0.862884	0.116677	-0.762084	1.044767	-1.533029	9.811612	15.594015	-15.34908	-4.599847	0.202084	-0.094796	-1.022585	9.4198	4.301222	-0.28288	-9.293525	38.382036	-5.273761	-0.467461	-0.552848	-0.494916
1.322118	2.192002	30.567691	176.508684	491.589111	38.704345	0.902674	0.056257	-0.629617	1.157611	-0.969986	9.757865	6.010204	-13.62852	-4.960385	0.22796	-0.109966	-1.022132	8.835992	4.885063	0.127936	-6.185867	29.647963	6.126088	-0.454038	-0.602874	-0.461278
-1.635472	-4.051247	34.177824	63.354468	506.770384	0.855084	0.958027	0.061473	-0.606277	1.164302	-1.307732	10.040778	3.548268	-12.95151	-5.418051	0.227665	-0.111038	-1.007783	9.368642	4.709867	0.197005	2.899965	25.848808	9.809653	-0.481787	-0.585437	-0.493312
8.627593	-5.664134	35.052619	95.988333	451.173766	14.94376	0.942392	0.082333	-0.584608	1.218672	-1.533305	9.871879	-0.389318	-11.682594	-5.470258	0.227665	-0.111038	-1.007783	9.908396	3.37414	0.500757	5.402474	19.168651	14.723009	-0.453904	-0.567184	-0.525064
4.866838	-8.884282	6.550687	387.541823	412.991163	21.577298	0.969561	0.019101	-0.490603	0.99795	-2.095847	10.263046	1.697272	-10.280746	-4.77643	0.202008	-0.110117	-1.021581	11.031323	2.674662	0.518699	-5.289885	16.633254	19.572868	-0.481928	-0.583784	-0.524367
17.720278	-6.11923	-29.61594	238.104524	264.290235	-81.60378	0.967346	-0.019369	-0.388656	1.15778	-2.322014	9.643447	5.783264	-9.671769	-5.568609	0.22737	-0.11211	-0.993433	11.682026	2.964051	0.651854	-6.847222	9.974963	15.086355	-0.48144	-0.552226	-0.510514
31.623665	-24.358489	-7.20169	82.954064	1.593916	-120.045032	1.008565	0.003521	-0.382459	1.216146	-1.477069	9.758647	1.905242	-8.557035	-5.375679	0.201939	-0.065227	-1.010242	11.801004	2.557249	0.652324	-6.441439	7.065897	-2.231274	-0.467253	-0.536655	-0.495753
30.237232	-11.436683	18.967799	-137.723462	-112.753946	12.977614	1.008951	-0.01025	-0.379043	1.275483	-1.139099	9.873419	1.542115	-7.97807	-5.524354	0.22759	-0.126359	-1.006779	10.720296	2.90418	-0.324511	-10.47391	3.485912	-18.3049	-0.495419	-0.551604	-0.526112
22.856749	-6.124621	10.54939	50.208747	-78.328556	-22.8558	1.050541	0.016169	-0.386922	1.218133	-1.251652	9.872116	-0.277319	-7.697553	-5.060612	0.188882	-0.140832	-1.019298	10.653462	3.425516	-0.682828	-9.561975	1.951487	-35.259643	-0.495277	-0.553256	-0.495056
12.169976	-8.870204	11.239234	-74.502272	-110.388834	-9.706536	0.995559	0.014481	-0.424338	1.155062	-1.533434	9.587472	-0.406004	-8.126638	-5.342432	0.201783	-0.156078	-1.01857	10.836012	3.426347	-0.379992	-14.42303	1.607178	-27.296039	-0.468296	-0.617618	-0.491567
3.351807	-1.957527	14.222521	7.84665	-136.041388	18.988181	0.968075	0.004987	-0.434299	0.986639	-1.870951	9.753479	-0.871371	-8.371811	-6.270076	0.163005	-0.125662	-1.01975	9.303098	3.255877	-0.349438	-10.50041	2.387497	-21.538711	-0.440205	-0.583172	-0.524157
10.26292	-7.186486	1.604896	51.915472	-146.231016	13.513451	0.954726	-0.02218	-0.427118	1.104857	-1.589372	9.926053	-3.558479	-8.259022	-5.284629	0.214689	-0.111113	-1.007507	8.957244	3.026113	0.062319	-2.95292	3.948252	-24.93478	-0.46795	-0.584407	-0.508769
9.836507	-4.708931	3.311958	-47.965372	-232.289766	34.327963	0.941735	-0.02852	-0.451505	1.685216	-2.153613	10.107587	-1.826477	-8.055287	-4.942104	0.201418	-0.11226	-0.992881	9.430744	2.909128	0.130535	-1.041793	2.248403	-22.580695	-0.453695	-0.550991	-0.525901
8.610464	-3.998897	7.951196	-47.200467	-271.639452	42.578687	0.96919	0.015572	-0.476527	1.507708	-1.533796	9.934563	4.431993	-6.73758	-6.742803	0.201933	-0.125437	-1.020577	8.968519	2.912434	0.660893	2.142258	1.005572	-13.693788	-0.482204	-0.617822	-0.491637
7.604956	-3.245862	9.241912	-41.887235	-316.12014	54.10517	0.971833	-0.011628	-0.522584	1.165295	-1.195024	10.097513	9.578196	-5.519752	-9.501037	0.188367	-0.127656	-0.991602	7.256085	2.858026	0.568826	-0.621176	-1.799738	-24.365774	-0.440063	-0.584825	-0.493101
7.262868	-2.153742	9.353522	-20.636817	-341.078322	57.195371	0.914551	0.052011	-0.563002	1.390028	-2.097028	9.761752	14.636473	-3.447218	-7.133463	0.201343	-0.127581	-0.991878	7.133226	2.56668	0.265855	6.552144	-2.287755	-36.825464	-0.453695	-0.550991	-0.525901
6.615414	-0.835749	8.494027	-23.218215	-354.37632	53.553381	0.932844	-0.013348	-0.613236	1.518911	-1.702361	10.444177	26.747585	-0.891194	-8.762993	0.188737	-0.111263	-1.006955	5.886453	2.451633	-0.177097	7.712324	-2.068656	-28.030885	-0.468647	-0.632158	-0.521786
5.589288	-0.834038	8.701397	-51.233486	-362.216617	35.938767	0.891211	0.012132	-0.657832	1.400045	-1.645957	10.271888	35.74102	-0.496719	-9.43004	0.1633	-0.12459	-1.0341	7.298439	2.447403	-0.390314	1.6709	-3.232842	-9.210084	-0.425875	-0.569254	-0.47834
4.694374	-0.828791	9.76379	-72.523227	-358.143253	26.346189	0.893112	-0.022125	-0.675736	1.686687	-1.02686	10.278454	47.786356	2.300844	-5.909008	0.202228	-0.124365	-1.034927	8.016922	1.808924	0.099427	-4.669457	-5.316088	12.614449	-0.454459	-0.616587	-0.507025
3.684287	0.095603	10.827817	-91.371584	-357.735887	12.608063	0.893469	-0.001297	-0.707304	1.920103	-2.43317	12.999596	44.690745	-29.470954	-2.003981	0.215795	-0.122146	-1.063902	8.142948	2.159088	0.582366	-6.215441	-7.35238	31.551532	-0.426155	-0.58462	-0.493031
3.066162	-0.648268	11.380962	-106.965067	-353.345388	1.806859	0.866728	-0.003734	-0.745418	1.594609	-1.701757	11.29498	56.987802	-27.273848	-9.309245	0.201783	-0.156078	-1.01857	8.915545	2.681501	0.958338	-10.688365	-9.94436	29.256766	-0.495698	-0.56697	-0.540802
1.665529	-1.559783	12.884297	-130.308547	-357.398219	-0.491855	0.811346	0.025649	-0.803741	2.093646	-0.349075	13.231536	59.018854	-34.928551	-7.22578	0.213653	-0.14497	-0.96245	8.393028	1.813059	1.304167	-10.922121	-7.675672	22.735537	-0.481928	-0.583784	-0.524367
0.727296	-0.804618	14.687804	-143.879773	-352.464377	-4.114288	0.755979	0.037732	-0.844572	2.209095	-0.126305	10.573291	65.966376	-47.138442	-7.279912	0.135942	-0.174989	-0.973138	8.866102	1.405446	1.31124	-8.143203	-8.207897	13.038193	-0.495419	-0.551604	-0.526112
-0.828155	-0.505876	17.102516	-143.479549	-333.958642	-10.040935	0.770085	0.054657	-0.862413	1.6307	0.04367	10.448065	41.8917	-46.407672	-11.022153	0.161743	-0.20548	-0.971683	9.388849	1.228025	0.841147	-4.397219	-9.43099	23.178807	-0.453904	-0.567184	-0.525064
-2.599329	-1.020842	17.236385	-123.234239	-309.652514	-17.402901	0.755907	0.124229	-0.93203	0.995949	0.213799	10.378269	41.978299	-51.542553	-8.884375	0.136237	-0.173917	-0.987488	9.151819	1.170242	0.776591	-13.853012	-11.59447	28.022743	-0.495628	-0.567796	-0.525275
-3.591377	-1.311446	16.249747	-114.697214	-295.285602	-29.769846	0.687576	0.095373	-0.962265	1.769554	-0.349958	11.526303	33.084813	-54.236859	-12.833397	0.161963	-0.219728	-0.985029	9.738389	0.819447	0.546485	-13.975339	-10.913796	27.225127	-0.467812	-0.567388	-0.525134
-4.857655	-1.311982	15.884131	-122.014595	-292.457139	-54.182032	0.700554	0.119012	-0.95537	1.36273	-0.856368	11.290855	28.035472	-64.899497	-10.323117	0.148843	-0.190234	-0.972411	9.217012	0.880963	1.07599	-5.757969	-10.576752	24.075697	-0.509047	-0.536441	-0.511491
-7.360059	-2.972585	16.624083	-131.808141	-280.813228	-67.371529	0.647044	0.148737	-1.066581	2.28708	-0.688959	11.480259	22.581766	-71.393482	-12.919896	0.110135	-0.204708	-0.984929	9.459929	0.300899	1.377454	2.415038	-11.796941	20.65883	-0.481369	-0.553052	-0.494986
-11.218345	-3.651587	18.307916	-149.920205	-251.999577	-24.518113	0.604639	0.201759	-1.118008	1.718009	-0.969297	11.751131	22.112079	-81.757635	-14.502989	0.136087	-0.204558	-0.985481	9.100756	0.5911	1.13246	6.521077	-14.310092	19.616649	-0.481515	-0.532728	-0.573462
-19.441434	-1.732636	22.247846	-166.796506	-209.607628	14.800144	0.604239	0.232829	-1.138916	2.238731	-1.082833	11.875195	24.352189	-90.367922	-16.405558	0.149138	-0.189163	-0.98676	8.619533	0.241499	0.583011	5.120213	-17.456342	21.715361	-0.481857	-0.584611	-0.508839
-46.951815	26.916386	27.289213	-69.830844	-167.4173	6.7119	0.630951	0.269865	-1.135786	2.705622	-1.25245	12.167922	22.006948	-99.966258	-16.934408	0.134975	-0.253735	-0.939421	7.793421	-0.279542	0.505473	4.458354	-18.08333	20.008945	-0.523652	-0.584397	-0.524578
-52.503004	6.213867	20.615307	-50.367603	-189.87262	-20.391	0.588561	0.305587	-1.169722	2.322699	-0.349553	13.179732	17.592296	-112.157119	-19.247815	0.135051	-0.238415	-0.940424	7.729889	0.242536	0.326877	6.259892	-14.652575	23.073425	-0.481161	-0.53686	-0.495823
-46.284319	-9.536869	18.964966	-118.513538	-177.019223	25.217667	0.603411	0.329569	-1.215715	1.663668	-0.516018	14.637712	25.759972	-128.415748	-22.762911	0.083593	-0.207002	-0.955679	7.667321	0.822937	0.208435	7.747092	-10.683645	24.271838	-0.495561	-0.549951	-0.557167
-50.70805	21.978483	13.556037	258.387179	-43.011781	89.984177	0.572497	0.392117	-1.203943	1.897425	-1.07966	14.755353	15.507101	-147.525568	-20.494874	0.044809	-0.236796	-0.967194	8.315709	1.634763	0.283908	8.819146	-11.91475	13.544639	-0.467953	-0.565735	-0.55619
-56.795035	15.806874	6.421484	68.217867	-14.842072	51.843152	0.587747	0.385028	-1.229029	2.513032	-2.374869	16.522179	0.687061	-164.270569	-22.985148	0.056755	-0.210368	-0.912078	9.199425	1.341863	0.179365	9.670812	-11.116617	4.673864	-0.495068	-0.537064	-0.495893
-47.719236	14.632836	2.217128	143.979354	33.959664	48.156361	0.603368	0.381467	-1.26819	2.625165	-3.724871	18.957752	10.078205	-194.575879	-36.194801	0.017902	-0.195272	-0.912254	9.734838	1.399713	0.429143	8.856705	-17.373833	0.213847	-0.509398	-0.550981	-0.54171
-43.970951	24.140165	9.888555	111.355253	124.279129	-28.572033	0.574398	0.35786	-1.221848	2.719212	-3.836217	20.658054	9.884629	-225.364065	-46.67312	-0.00857	-0.242456	-0.894342	9.78287	1.861961	-0.10694	4.279149	-20.312617	1.864298	-0.467256	-0.517984	-0.543173
-38.956276	28.312821	6.025555	173.750211	191.517774	-138.332413	0.617517	0.346494	-1.233556	1.388498	-4.507652	22.950695	5.602776	-262.034465	-58.723247	-0.060625	-0.273397	-0.891232	8.784692	2.03972	0.174628	-3.853231	-23.584864	7.930494	-0.494931	-0.520045	-0.512258
-11.474466	5.8546	11.466522	-18.845208	165.106971	-81.986495	0.591162	0.330286	-1.268253	0.369568	-4.674039	23.721747	3.264109	-304.132011	-74.431663	-0.087607	-0.247193	-0.835289	8.717743	3.083988	-0.121557	-6.950521	-30.653822	4.338295	-0.50863	-0.504057	-0.513165
-0.679825	-5.981323	12.76321	8.505465	-18.858183	-24.897827	0.646901	0.321731	-1.241498	-1.12085	-4.163978	24.03058	-5.990035	-351.014564	-92.380912	-0.075002	-0.263511	-0.820211	10.237243	4.76221	-0.684844	1.521339	-38.697421	-13.37982	-0.495419	-0.551604	-0.526112
-3.48184	4.395106	7.467216	18.30339	6.528254	17.226562	0.660664	0.300528	-1.21028	-3.947781	-4.210544	29.066442	-5.569037	-409.472013	-109.542579	-0.141137	-0.283494	-0.76043	12.069296	6.501788	-0.283872	4.259612	-41.545515	-32.74943	-0.535816	-0.474559	-0.468396
-1.250652	1.533035	10.226412	5.030869	69.717143	0.628039	0.633166	0.308334	-1.237733	-1.708728	-2.975618	28.944714	42.412375	-474.671965	-115.852355	-0.166644	-0.251931	-0.776235	11.742035	6.799159	1.208434	-14.681784	-42.335656	-27.910423	-0.56475	-0.536432	-0.5273
-1.879563	-4.32627	10.01899	-8.256096	-7.901355	-3.20214	0.659907	0.310771	-1.19962	-0.65512	-0.376012	40.801497	90.775069	-498.968755	-91.705145	-0.220099	-0.272911	-0.70238	11.066388	5.587858	2.807523	-21.914193	-57.067595	-4.405775	-0.508488	-0.505709	-0.48211
-2.475632	0.494891	9.00477	38.290402	33.911246	6.543726	0.645015	0.338688	-1.206102	0.886936	-3.085835	37.321415	174.903605	-540.802501	-96.582918	-0.286235	-0.292894	-0.642599	10.770977	4.310119	2.616861	3.839286	-72.447819	19.35372	-0.522254	-0.507566	-0.451124
-1.886344	0.440654	9.86846	-31.216524	11.742778	3.347456	0.68852	0.31355	-1.214394	2.352231	-7.768019	32.762312	158.305201	-561.581692	-65.609214	-0.300843	-0.389179	-0.578902	11.00372	3.843982	2.379657	4.907692	-78.354375	20.295088	-0.522046	-0.491373	-0.451961
-1.834077	-0.364775	9.581929	-22.814708	12.806515	2.420542	0.644658	0.31786	-1.174534	-3.474826	-3.898936	0.03358	165.89658	-502.514196	-56.880077	-0.341027	-0.409012	-0.519673	11.322778	4.706895	0.592761	9.487232	-75.699672	19.409926	-0.522392	-0.524584	-0.434759
-1.651836	-0.994585	10.094293	-19.163323	11.278816	5.819928	0.675885	0.328038	-1.270349	-19.07325	-6.414185	-11.222776	253.22586	-299.815945	15.116074	-0.408193	-0.402642	-0.4045	11.777725	4.992486	-0.295803	8.916017	-63.998237	5.234681	-0.536367	-0.542634	-0.402937
-1.658067	-0.076727	9.813889	-20.914238	10.96857	5.359921	0.674428	0.279326	-1.179061	-23.981381	-8.931215	-1.477212	54.70101	-204.686357	-8.792709	-0.408714	-0.449675	-0.387139	11.358665	4.236713	-0.726068	3.759141	-52.601437	4.25146	-0.536158	-0.526441	-0.403774
-1.537949	-0.133045	10.10014	-19.510423	9.208905	6.61529	0.659507	0.341842	-1.220527	-6.76025	-9.96528	12.697417	-10.214847	-67.259934	-0.358332	-0.436657	-0.442008	-0.287143	11.644206	3.129873	-1.384239	8.394736	-44.024528	16.236483	-0.563907	-0.509004	-0.435807
-1.538772	-0.535377	10.041598	-19.665711	9.120169	6.246293	0.701869	0.340718	-1.221575	-15.794158	-7.690085	18.284336	19.87429	40.575906	59.96243	-0.461799	-0.454263	-0.328637	11.989634	3.069009	-1.857139	12.484292	-34.075915	16.663245	-0.56349	-0.476619	-0.437481
-1.646849	-0.189198	10.381937	-11.638091	9.197427	5.427106	0.716003	0.323044	-1.204432	-15.911759	-9.896486	7.183543	121.166216	26.777801	64.870657	-0.435916	-0.409224	-0.31785	13.452123	3.41137	-2.48712	17.612084	-21.271769	22.330262	-0.54972	-0.493434	-0.421046
-1.721463	-0.824873	9.46852	-7.967043	8.264377	5.186708	0.688534	0.296251	-1.196902	-6.251917	-10.649748	4.102135	69.197891	26.296284	61.0317	-0.475811	-0.488195	-0.283305	13.799212	3.583305	-2.839217	24.164054	-6.640451	26.394045	-0.53595	-0.510249	-0.404611
-1.705051	-0.419164	10.323005	-2.793316	7.58592	4.792786	0.701883	0.323419	-1.204083	-10.880391	-10.984778	-2.505999	9.67967	62.602982	37.235013	-0.449783	-0.472724	-0.28486	12.227184	2.429633	-1.855456	19.779459	3.945803	15.691155	-0.536296	-0.54346	-0.387409
-1.886836	-0.421211	9.807987	-0.74588	6.924292	4.3468	0.660264	0.331599	-1.231187	-12.413024	-6.638511	4.259347	-47.724553	132.086333	8.068061	-0.448823	-0.454188	-0.328913	11.425148	1.972107	-0.614796	9.649992	9.314071	10.719945	-0.59088	-0.481985	-0.344455
-2.060044	0.038205	9.749724	5.40008	5.648304	2.836343	0.702654	0.295876	-1.197251	-12.652404	-4.157343	6.747531	-42.50906	188.66081	-4.744083	-0.462019	-0.440015	-0.315291	10.789985	1.628103	0.090499	1.704068	18.086439	-0.235109	-0.577461	-0.51334	-0.358238
-1.607452	-0.135658	9.473642	7.330701	5.407297	3.194877	0.688891	0.317079	-1.22847	-12.937336	-3.142665	6.968899	-25.617176	236.24418	-8.788415	-0.447566	-0.43458	-0.387316	10.342066	1.634622	1.399647	-0.349336	18.635309	-15.571886	-0.534973	-0.447131	-0.376904
-1.991406	-0.304073	10.31792	8.455365	4.156085	2.864631	0.658006	0.345028	-1.181715	-11.459414	-2.808196	6.151021	-14.955762	282.720311	-7.422984	-0.447937	-0.450972	-0.371962	8.450268	2.103057	1.246597	-0.841929	14.733923	-37.827067	-0.53595	-0.510249	-0.404611
-1.481476	-0.59286	10.04247	14.709837	3.958335	3.886102	0.716403	0.291974	-1.183525	-11.51467	-2.751663	6.263139	-18.849933	323.831778	-6.739133	-0.433114	-0.429146	-0.45934	6.916253	1.932339	1.217244	-7.166735	11.752427	-62.291557	-0.57739	-0.514166	-0.34271
-1.133988	-1.454008	10.21609	16.279771	4.414783	4.931683	0.674771	0.317453	-1.228121	-10.230876	-2.978692	7.082499	-30.076925	356.792945	-5.95733	-0.419774	-0.472888	-0.485304	6.847218	2.453181	0.739113	-3.200138	12.190905	-64.873982	-0.577673	-0.510861	-0.404822
-1.595902	-0.70766	10.03976	24.400954	3.355896	6.761773	0.688162	0.292723	-1.182826	-9.579716	-2.246822	8.002647	-42.375573	383.45069	-3.296993	-0.3919	-0.435666	-0.573961	7.184964	2.855442	-0.09125	1.110395	16.526527	-33.015122	-0.535946	-0.52892	-0.35719
-1.376373	0.094425	9.592768	35.731935	1.550343	7.987806	0.675942	0.258841	-1.200381	-8.749384	-1.74036	9.209431	-52.664132	403.319076	2.472642	-0.338225	-0.428934	-0.661163	7.194578	2.508963	0.386522	-7.7489	15.665024	-0.067067	-0.56321	-0.461253	-0.42279
-1.882506	-0.247921	10.036123	41.518814	0.681995	8.325031	0.70264	0.313176	-1.214743	-7.749097	-1.065325	10.306704	-63.112752	415.421248	7.209133	-0.310872	-0.438745	-0.732459	7.366164	3.437033	0.214058	-17.227278	16.849262	18.239541	-0.563903	-0.527676	-0.388386
-2.161973	-0.418591	10.37095	45.737158	0.574158	6.011138	0.660664	0.300528	-1.21028	-4.791764	-2.196674	11.273643	-75.86544	416.912284	16.493214	-0.258233	-0.46587	-0.774604	8.489517	3.028182	0.293143	-13.313179	16.282863	29.997043	-0.563974	-0.526849	-0.403914
-2.161849	-0.590915	10.370226	37.787121	2.685311	14.440166	0.674799	0.282855	-1.193137	-3.681444	-2.648749	12.032548	-98.434526	416.011489	17.021006	-0.192022	-0.430567	-0.835389	8.611235	2.389571	0.412438	-14.867743	10.619729	35.777039	-0.591999	-0.54345	-0.403218
-0.266746	3.213134	13.776117	60.921243	16.288775	8.737471	0.647315	0.273361	-1.203099	-2.91386	-2.593061	12.954545	-119.506766	411.432204	17.020067	-0.125006	-0.467578	-0.948555	8.841352	1.632311	-0.005723	-11.679908	4.643045	40.991305	-0.550346	-0.542011	-0.418535
-1.730169	0.437152	9.075857	36.720392	34.957937	3.038548	0.705327	0.234078	-1.208324	-2.379864	-3.325759	13.644484	-145.119703	397.468873	16.582818	-0.124265	-0.434793	-0.979261	9.012203	1.456195	-0.362604	-8.136999	0.531541	46.409618	-0.535946	-0.52892	-0.35719
-2.773304	1.768986	11.391227	30.931363	26.656768	9.084321	0.676328	0.24507	-1.196966	0.840478	-4.512588	16.145481	-174.770595	372.071541	11.650669	-0.045078	-0.399415	-1.040322	8.886697	0.408871	-0.908417	-8.324602	0.008017	46.687965	-0.605277	-0.513748	-0.358379
-2.502864	0.558888	10.538931	34.912999	32.408138	-0.493811	0.689677	0.272237	-1.204146	4.870062	-4.91211	18.890625	-196.689136	346.628287	0.0038	0.046714	-0.380353	-1.086305	8.709919	0.293124	-0.912213	-6.823868	3.48566	51.068699	-0.591443	-0.494046	-0.421257
-1.449025	0.735533	11.753613	37.420377	42.402256	5.396237	0.662193	0.262744	-1.214108	8.271416	-4.12722	21.963304	-177.048418	329.337834	-13.285279	0.086603	-0.361592	-1.131185	8.529974	0.11856	-1.095977	-12.129227	8.41448	54.764064	-0.59151	-0.511891	-0.389364
-2.316252	0.044926	11.27919	39.360868	50.02309	3.521162	0.703426	0.268334	-1.19042	10.278005	-3.004619	21.723367	-178.497138	310.226613	-13.815938	0.16542	-0.342606	-1.176892	8.055084	-0.113406	-1.28549	-12.627653	15.26028	55.191831	-0.576839	-0.446091	-0.40817
-2.265554	-0.128888	10.938461	44.930507	55.054925	9.198936	0.71909	0.212876	-1.177106	17.297888	-1.156477	24.589911	-195.277286	284.683034	-6.19204	0.23126	-0.323695	-1.222324	7.535908	-0.051395	-0.636171	-8.370727	19.898206	48.916843	-0.576768	-0.446917	-0.392642
-2.248194	0.506829	11.850765	57.883009	63.158743	9.845362	0.718347	0.205819	-1.148954	21.896308	1.76404	24.63245	-200.662582	256.448723	8.381597	0.283754	-0.321251	-1.252126	7.019568	-1.208981	0.007956	-1.561289	24.402901	41.624645	-0.590254	-0.433408	-0.346966
-2.240731	0.96805	12.250667	60.203922	71.65043	9.854052	0.719833	0.219932	-1.205258	27.849792	3.612937	26.061243	-207.375014	228.978194	29.313163	0.349305	-0.243201	-1.272873	6.248962	-0.22018	-0.062053	7.696721	29.265331	36.095441	-0.576909	-0.445265	-0.423698
-2.354044	0.853491	12.30481	54.061612	79.841836	8.471586	0.719847	0.202633	-1.187766	35.206924	5.683086	25.877901	-168.799383	187.970678	34.207819	0.40151	-0.18162	-1.27799	5.970908	-0.912956	0.768174	17.502498	29.917628	29.636915	-0.591097	-0.460835	-0.438459
-2.499208	1.03173	13.666668	51.052984	91.151277	4.340094	0.761852	0.180682	-1.157246	41.643519	7.2456	22.957297	-119.663057	139.144043	35.672786	0.492191	-0.211735	-1.277913	5.747779	-0.793297	1.48315	19.24711	24.442152	18.346294	-0.562305	-0.397309	-0.410611
-2.908612	2.179163	13.265728	47.439931	106.536716	3.527284	0.775215	0.19055	-1.146935	40.849569	8.479845	15.525255	-115.080774	95.779976	31.699474	0.518589	-0.179872	-1.294822	7.618844	-0.394794	0.621491	14.285773	22.890062	9.935362	-0.618145	-0.414318	-0.410055
-2.631822	1.430044	12.756481	31.869986	119.72136	-3.236463	0.775601	0.176779	-1.143519	46.457543	33.85883	62.202269	-240.472289	-49.260408	-0.827006	0.53127	-0.180869	-1.280748	8.437657	-0.049712	0.278939	14.880686	15.198428	11.437057	-0.56286	-0.446713	-0.392572
-3.161598	0.807769	14.903109	14.330077	142.849027	-4.558	0.846989	0.130064	-1.120942	41.622412	17.93891	12.152979	24.075419	-96.523509	47.287509	0.544251	-0.120584	-1.270688	9.254134	0.352952	-0.183179	16.764659	11.873619	11.171011	-0.604517	-0.429481	-0.424675
-2.32688	1.159076	16.625738	9.52727	167.382904	-2.979782	0.830625	0.126568	-1.053628	51.258383	17.36318	18.75225	50.671115	-148.46352	60.111933	0.505983	-0.163555	-1.309899	9.544834	0.816143	-0.35542	20.423123	16.130558	3.068387	-0.60445	-0.411636	-0.456568
-2.389163	0.411171	16.337222	-5.420471	188.985318	-4.548203	0.87223	0.135687	-1.044016	59.046826	13.070226	22.025818	234.177871	-241.632656	46.230896	0.504583	-0.153594	-1.239154	10.137756	1.047839	-0.163706	27.122372	23.029912	-11.016709	-0.576563	-0.412054	-0.4409
-1.835932	0.304118	18.279766	-23.869897	217.258369	-2.869813	0.900099	0.13141	-1.030638	2.249499	12.149157	5.489692	141.060951	-166.65456	37.281446	0.40158	-0.226509	-1.289329	10.331311	1.051142	0.738199	25.318666	27.203421	-36.57579	-0.57635	-0.414532	-0.394316
-2.337296	0.434855	21.907712	-51.420299	254.697769	-6.597771	0.912734	0.116922	-0.974684	-4.142104	-20.90035	10.364963	172.681319	13.284805	57.563277	0.388309	-0.227656	-1.274704	11.06227	2.623508	2.195845	9.013456	34.682535	-90.926608	-0.619054	-0.459591	-0.469655
-2.329595	-0.068084	25.201906	-82.985301	291.780521	-8.081105	0.955467	0.119327	-0.989807	1.485088	6.401418	1.505575	169.114129	-45.606025	-13.13135	0.375107	-0.273692	-1.271417	13.426744	5.233754	2.79015	-24.359322	46.240493	-199.324709	-0.577189	-0.460631	-0.438389
-0.516741	0.69816	30.127813	-127.552894	332.213833	-13.060838	0.981822	0.135535	-0.95511	1.730436	-3.672877	12.088692	-30.061424	-25.91336	12.337281	0.375107	-0.273692	-1.271417	14.729795	8.704826	0.314204	-40.939855	41.197968	-196.70803	-0.56349	-0.476619	-0.437481
0.52112	2.320052	33.507832	-151.973657	378.432808	4.445428	1.023455	0.110055	-0.910513	0.958789	-3.111408	8.336446	63.247072	-29.644324	-0.418542	0.336029	-0.304558	-1.268583	11.972682	11.781155	-1.640333	-20.247414	29.424047	-83.587832	-0.564116	-0.525197	-0.43497
-0.230318	-2.321999	35.860526	-21.310959	437.017784	35.718034	1.06393	0.125889	-0.876165	1.903089	-1.365843	9.60333	52.404158	-29.474951	4.229475	0.335739	-0.24542	-1.243898	9.379766	7.313759	-2.067231	45.874362	36.513281	31.734309	-0.564537	-0.53891	-0.480716
2.670977	1.048974	32.180361	116.234115	513.228651	77.796991	1.074292	0.142129	-0.78823	1.436629	-1.421549	9.310413	31.12853	-14.799118	2.446912	0.335809	-0.29031	-1.255237	8.659535	2.547953	-3.358754	30.396748	38.621663	74.036076	-0.563978	-0.508178	-0.451335
3.210716	2.662512	33.50476	253.832712	536.064432	62.291598	1.145338	0.057288	-0.716593	1.282389	-1.589506	10.156238	25.416622	-15.085981	-2.308064	0.387637	-0.30533	-1.255336	9.195197	2.024795	-3.171354	-9.840395	52.331782	65.768097	-0.578307	-0.522096	-0.497151
0.037797	-3.672395	29.0404	145.063791	558.184374	17.188874	1.185871	0.003924	-0.612277	1.42983	-1.027472	9.027547	12.550103	-16.819224	-6.096646	0.309041	-0.338565	-1.222975	9.890208	2.672777	-0.580533	-22.482943	60.389379	42.629321	-0.536095	-0.489925	-0.483087
5.25676	-10.071376	38.094148	18.848948	537.712554	-14.062079	1.210754	-0.011281	-0.503784	0.931622	-1.307396	9.922663	-2.867332	-12.119872	-4.366799	0.361164	-0.352513	-1.237424	11.191655	4.181267	-0.190454	-12.164655	51.598158	8.641004	-0.591656	-0.491568	-0.46784
13.119542	3.992859	10.573127	165.668393	503.780211	3.363765	1.193661	-0.039133	-0.390827	0.993114	-2.096036	10.036487	1.863101	-11.897906	-5.686381	0.322312	-0.337418	-1.2376	12.851945	4.121141	0.259459	-7.529257	42.695473	-4.628373	-0.564541	-0.520239	-0.528137
11.151805	-10.739642	-23.284512	242.400458	415.363805	-57.618668	1.26202	-0.044876	-0.325609	1.510102	-2.153384	9.990681	2.386704	-11.928149	-4.730599	0.322167	-0.307849	-1.225258	14.052772	4.297365	1.420441	-10.484303	35.536213	12.134885	-0.564537	-0.53891	-0.480716
33.487295	-19.794291	-14.136343	164.1181	82.473598	-108.038164	1.244527	-0.041658	-0.23356	1.391476	-1.589958	9.875458	5.313119	-10.199587	-5.481753	0.321947	-0.2936	-1.211912	13.357203	3.604546	2.003337	-8.406121	25.644789	28.620071	-0.549932	-0.490955	-0.46763
46.29105	-13.963553	8.642126	-124.493196	-105.240566	-96.235457	1.273512	-0.03535	-0.26241	1.616255	-1.252596	9.65402	6.160888	-9.058361	-4.853168	0.334773	-0.324166	-1.21018	12.648968	2.676455	1.866363	-8.689589	15.335773	25.552213	-0.564049	-0.507352	-0.466863
26.463938	19.533072	20.445703	-65.676435	-134.715359	50.894604	1.289518	-0.052682	-0.298156	0.936673	-1.419868	10.149127	6.772808	-7.116917	-5.141649	0.308745	-0.339637	-1.208625	12.819104	1.861008	1.386948	-9.445608	2.581943	7.367383	-0.550283	-0.505495	-0.497848
18.216267	-9.85617	10.159247	9.091602	-102.86487	-175.093864	1.260091	0.023979	-0.342688	1.623185	-1.08332	9.994	5.965444	-7.549592	-6.194745	0.335438	-0.306702	-1.239883	11.271073	2.03578	0.640195	-13.272825	-3.653819	-18.016228	-0.577543	-0.4565	-0.516028
8.681605	-12.441155	8.314809	-58.228175	-184.527569	-47.33616	1.274969	0.013362	-0.353698	1.335466	-1.139112	9.987908	4.298908	-7.475943	-6.626941	0.334628	-0.294597	-1.197838	10.272356	2.445844	0.922753	-10.900992	-0.484273	-39.765122	-0.550354	-0.504669	-0.513376
1.111112	-4.440413	10.758646	11.751864	-169.368455	6.016095	1.303139	0.099109	-0.441855	1.103002	-1.251436	9.869698	2.078411	-7.312317	-7.829379	0.322237	-0.352738	-1.236597	10.030614	1.573513	0.495294	-7.22169	-1.580704	-41.911914	-0.564053	-0.488681	-0.514283
8.467047	-8.970714	0.425836	32.759892	-199.921982	12.727345	1.248914	0.087179	-0.48993	1.451004	-1.984332	9.932974	6.39954	-7.621813	-8.383876	0.283089	-0.338715	-1.222423	10.144305	2.96682	0.443522	-5.049546	-1.872057	-27.771722	-0.578311	-0.503425	-0.544572
8.84913	-3.479917	8.4695	-39.978878	-316.760437	57.063089	1.263406	0.090332	-0.504355	0.997519	-1.870525	10.263236	12.853876	-5.501422	-10.638835	0.309041	-0.338565	-1.222975	7.838969	3.145573	0.221625	-3.782762	-8.371525	-34.742446	-0.577957	-0.507556	-0.466933
7.899964	-1.46321	9.766638	-2.87746	-331.431673	60.581095	1.251544	0.077278	-0.553478	0.879431	-1.588751	10.147776	18.83665	-3.800887	-10.555458	0.296215	-0.307999	-1.224706	6.582158	3.086376	-0.760241	12.801962	-5.920791	-50.120983	-0.563982	-0.489507	-0.498755
6.671726	-2.616961	8.373954	-0.770172	-372.241763	77.32517	1.21214	0.123928	-0.68253	1.219342	-1.251605	9.928755	26.398615	-1.831031	-11.08468	0.309631	-0.336421	-1.251674	7.059613	2.214897	-0.575426	11.504161	-4.460995	-52.720025	-0.578449	-0.520443	-0.528207
6.325185	-1.525805	8.258152	2.546266	-385.76634	85.035392	1.241881	0.119992	-0.722041	1.542441	-1.363429	11.577253	30.404167	-2.176841	-6.676556	0.308745	-0.339637	-1.208625	5.587261	2.800022	-0.360837	2.772556	-3.816313	-32.282431	-0.578378	-0.52127	-0.512679
5.858035	-1.240196	7.795626	-21.24835	-388.135937	86.076936	1.173493	0.160335	-0.822242	1.311833	-1.81369	11.515399	40.725525	-21.120314	-6.455842	0.321721	-0.339562	-1.208901	6.296555	2.798649	-0.287725	8.597106	-9.191789	-25.097243	-0.578378	-0.52127	-0.512679
5.601537	-0.831384	9.326781	-66.377566	-390.039828	72.657742	1.173836	0.198462	-0.871302	0.736225	-0.573246	11.617632	47.131414	-27.90258	-12.036242	0.282423	-0.356179	-1.19272	6.526132	2.273694	-0.704896	9.992873	-10.154818	-5.417612	-0.550771	-0.537054	-0.511702
5.707997	-2.659181	11.764855	-85.129781	-390.143607	60.600997	1.120369	0.176288	-0.930037	1.428065	-1.757527	11.574504	49.114835	-31.686811	-6.30752	0.294363	-0.389961	-1.147939	7.118785	2.621542	-0.512688	-3.364911	-6.171275	9.985161	-0.577819	-0.490537	-0.483298
5.368961	-1.164246	12.048714	-99.558748	-385.084714	48.400078	1.050467	0.237116	-1.008918	2.381782	2.016458	13.46613	71.818089	-33.052358	-25.477289	0.308225	-0.38667	-1.191264	7.067452	2.158552	-0.156325	-8.65974	-2.287487	17.107724	-0.592837	-0.589549	-0.44729
4.019102	-0.813295	13.274206	-117.62387	-387.619545	36.545441	0.995071	0.283798	-1.084733	1.967092	0.324344	10.059078	59.133577	-48.607566	-16.36326	0.320685	-0.373418	-1.163844	8.61243	1.402031	0.348328	-11.246648	-0.129076	14.539186	-0.550491	-0.521688	-0.497011
1.660401	-1.261195	15.556486	-136.677332	-383.081284	27.628563	0.911419	0.348528	-1.177341	1.534349	-0.293386	11.294956	27.85554	-49.874424	-9.988948	0.282713	-0.415317	-1.217405	9.927697	1.228541	1.270399	-8.273448	-2.282762	25.665372	-0.564399	-0.521892	-0.497081
-1.001192	-1.82739	16.979919	-156.651275	-361.8563	23.492225	0.869429	0.35318	-1.190369	1.702556	0.156792	11.129044	41.986951	-58.62477	-14.041285	0.296134	-0.383529	-1.234038	10.28469	1.4027	1.457465	-11.918726	-8.274446	32.982851	-0.578098	-0.505903	-0.497989
-3.497993	-1.993066	18.067263	-152.554237	-333.74544	21.636826	0.812146	0.416819	-1.230787	1.856989	-0.407595	10.225963	32.655647	-61.295139	-13.119692	0.229998	-0.403512	-1.174257	10.104996	0.647128	1.211322	-18.644509	-14.695491	24.570004	-0.577681	-0.473518	-0.499663
-5.375887	-0.955097	18.660246	-145.102147	-311.468488	8.882937	0.741487	0.487889	-1.299008	1.853578	-0.520399	10.055949	31.143107	-63.531722	-11.75591	0.255875	-0.418683	-1.173804	9.39323	0.764159	1.01889	-12.996466	-17.301032	18.203816	-0.578303	-0.540767	-0.449731
-7.442122	-0.092947	18.396367	-137.328912	-293.140608	-24.670226	0.684619	0.503159	-1.301027	2.629169	-0.858739	11.317452	34.863196	-62.642107	-13.932812	0.229703	-0.404584	-1.159907	8.980772	0.009868	0.948066	-9.141175	-15.237346	21.083929	-0.578236	-0.522922	-0.481624
-11.091314	0.602382	19.123943	-148.211347	-253.134844	-40.338518	0.641099	0.545596	-1.310227	2.080218	-0.912949	12.551386	26.627914	-79.189537	-18.481352	0.25558	-0.419755	-1.159455	8.634513	-0.045667	1.360564	-4.754534	-18.093861	26.736889	-0.577681	-0.473518	-0.499663
-15.355285	-0.9966	20.511855	-190.220371	-199.15936	-20.875631	0.541498	0.55846	-1.297123	1.936852	-0.688502	11.246447	34.982496	-87.731104	-18.991095	0.216206	-0.451693	-1.14227	8.047248	0.130653	1.530022	5.292497	-26.40329	32.273351	-0.57761	-0.474345	-0.484135
-31.56807	5.127657	25.791692	-185.378765	-134.635472	5.859327	0.512471	0.604051	-1.320748	2.440009	-0.856696	13.238362	20.476605	-99.539457	-24.206529	0.190104	-0.482483	-1.139712	8.162654	-0.160739	1.351267	9.943549	-33.365243	35.805431	-0.578028	-0.50673	-0.482461
-56.222032	15.996139	23.994025	-15.343048	-127.23087	0.062336	0.511328	0.628065	-1.313503	1.998612	-0.742414	14.135019	26.182819	-117.284	-25.611321	0.190254	-0.451843	-1.141719	6.727424	-0.103625	0.306686	3.850764	-34.686719	34.335811	-0.591727	-0.490741	-0.483368
-52.877496	11.812664	13.414159	-100.737254	-176.536088	-39.813809	0.510571	0.638307	-1.302843	2.027409	-0.628615	15.494465	25.697818	-135.864176	-24.162508	0.151182	-0.422499	-1.128549	5.955677	-0.044783	0.053	-1.248321	-25.273642	24.282366	-0.605076	-0.460213	-0.454057
-47.580903	7.49394	11.907729	-74.991109	-127.70915	25.923927	0.425062	0.685396	-1.325072	2.284588	-0.796994	16.745229	27.327258	-158.538229	-26.482653	0.164303	-0.451993	-1.141168	6.382421	0.247866	0.840729	2.787993	-15.723063	10.039033	-0.577957	-0.507556	-0.466933
-69.918098	36.163738	9.320872	10.105444	35.719175	36.09169	0.424347	0.643741	-1.261936	2.770128	-1.867235	17.830152	15.133351	-185.040277	-29.34512	0.099718	-0.451296	-1.154139	8.088137	0.823722	0.635486	10.787765	-13.333403	3.518973	-0.619196	-0.457938	-0.50071
-48.646933	10.047385	4.339311	60.752867	50.714841	27.11362	0.411341	0.6547	-1.303815	2.112282	-2.653336	19.287611	13.215616	-215.30225	-38.864166	0.111143	-0.471901	-1.081662	9.330488	0.472925	0.776926	12.621987	-15.03182	8.685815	-0.646799	-0.460825	-0.454267
-52.207734	26.515753	13.148178	226.809114	96.171666	23.663911	0.454117	0.605207	-1.266463	2.169806	-4.284787	21.835018	21.222073	-249.825235	-49.835247	0.099128	-0.45344	-1.125439	10.030033	0.876106	0.372514	0.116371	-17.212508	14.151641	-0.59103	-0.44299	-0.470351
-60.154175	43.676909	8.462682	380.86697	190.630592	-173.04844	0.468609	0.608361	-1.280888	1.30231	-6.365348	24.136144	23.72969	-294.419629	-63.684585	0.019865	-0.504139	-1.063375	9.889357	2.091522	-0.70282	-7.626826	-15.897385	11.483601	-0.605355	-0.475579	-0.468747
-46.246183	14.316241	-4.404712	128.101203	127.74212	41.264258	0.513672	0.51084	-1.258025	0.735685	-6.417884	27.237977	5.680207	-340.765111	-81.790109	-0.045599	-0.446448	-1.022961	10.233766	3.889833	-0.988087	-1.060353	-14.429776	-18.772988	-0.619614	-0.490323	-0.499036
-3.046054	3.093485	12.1303	-415.092613	-52.574953	-0.611726	0.48503	0.542659	-1.278234	-1.873397	-6.296364	31.712421	-20.789875	-398.574821	-104.083807	-0.071922	-0.46299	-1.007057	11.581146	8.184353	-0.944482	16.75454	-18.083333	-76.378589	-0.618495	-0.428858	-0.440273
3.884127	-2.049	6.333061	7.941126	40.083347	24.363831	0.498365	0.587126	-1.302907	-5.891272	0.474176	35.483772	-12.954597	-462.724479	-104.00471	-0.163048	-0.464587	-0.990777	11.949379	10.627186	0.150829	15.041067	-15.610213	-94.312339	-0.619401	-0.492802	-0.452453
-4.316852	-1.446621	11.34765	34.059011	48.849505	-33.318124	0.498379	0.569827	-1.285415	-2.827634	-0.76094	46.813246	59.153257	-541.639307	-104.759702	-0.177946	-0.501735	-0.902395	9.978483	8.083107	1.720021	-13.549275	-20.827769	-49.129596	-0.619539	-0.509821	-0.436088
-1.662532	3.024633	9.713213	-21.399053	-6.759993	-3.513784	0.498379	0.569827	-1.285415	2.157701	-1.219525	48.502742	149.891422	-581.156326	-104.49261	-0.268998	-0.488011	-0.887119	9.893883	5.069358	3.14273	-16.844973	-40.906868	19.522583	-0.591999	-0.54345	-0.403218
-1.159438	-0.13816	8.970873	-4.592306	30.053128	17.55212	0.526663	0.51718	-1.233638	-0.765788	-10.290536	40.111057	209.44214	-622.415157	-83.585997	-0.322968	-0.495815	-0.785568	9.733416	3.620829	3.852131	5.280521	-65.94194	58.969895	-0.619468	-0.510647	-0.42056
-2.173605	0.268295	9.805315	-23.165687	0.841896	-5.102599	0.526249	0.565549	-1.272037	-0.474627	-17.081873	4.614097	134.597212	-536.012873	-79.646256	-0.415282	-0.561909	-0.722224	11.415908	4.714424	2.450975	8.110866	-69.653977	46.349586	-0.618842	-0.46207	-0.423071
-1.031401	-0.365114	9.654371	-10.276527	15.618922	6.171556	0.497636	0.56277	-1.257263	-19.887505	-9.004402	-11.864918	298.92546	-310.267457	-21.697697	-0.482598	-0.58618	-0.605044	12.03912	5.462488	1.148343	8.176231	-72.867458	34.838751	-0.619326	-0.5123	-0.389504
-1.325633	-0.13683	9.251797	-12.563682	9.96196	2.682149	0.5121	0.600523	-1.306672	-30.466687	-10.162364	-6.200252	69.431915	-219.293054	-9.388323	-0.458788	-0.608853	-0.504144	11.838942	4.992846	-0.174888	2.088731	-71.663796	13.884834	-0.632817	-0.480119	-0.391249
-1.37138	-0.65135	9.817043	-20.235317	15.75228	6.601054	0.498022	0.548999	-1.253847	-10.139443	-5.904512	11.101445	-65.579285	-91.955458	23.706439	-0.473246	-0.674498	-0.442455	11.818919	3.18705	-1.500504	10.706188	-65.97816	14.009871	-0.646374	-0.465783	-0.3611
-1.656704	-0.421135	9.869294	-16.88838	12.553175	5.496756	0.499151	0.542285	-1.278583	-15.259951	-6.784335	24.523913	8.924392	30.843663	125.594492	-0.485556	-0.657109	-0.471882	12.973121	3.527119	-2.854871	7.503203	-50.706287	26.328514	-0.66077	-0.497546	-0.375024
-1.4849	-0.478701	9.872393	-14.289594	11.67659	5.260361	0.498779	0.538756	-1.264507	-23.4242	-8.41654	8.499038	178.741997	5.407439	120.822005	-0.511502	-0.597049	-0.460995	14.97724	4.567897	-2.813005	3.647725	-34.435798	30.69742	-0.633439	-0.547367	-0.341317
-1.651178	-0.362487	10.153801	-5.120686	8.508444	3.802462	0.513257	0.559209	-1.296424	-5.836847	-10.030345	4.734155	98.97691	16.571051	129.533678	-0.511207	-0.595977	-0.475345	15.251797	3.923441	-4.008361	21.723119	-17.73006	30.246482	-0.618212	-0.432163	-0.378162
-1.258565	0.152508	9.765795	-0.979357	8.829854	4.255773	0.511385	0.558867	-1.243536	-10.176116	-11.717894	-1.925712	34.469937	59.695177	94.358007	-0.512533	-0.570695	-0.405604	14.251628	2.589988	-4.032754	26.308789	-5.395613	22.100702	-0.688236	-0.483414	-0.344946
-1.303115	-0.476654	10.387411	2.36922	5.374382	4.067307	0.527021	0.538007	-1.265206	-10.694294	-9.289801	3.670349	-27.86492	125.817829	49.58032	-0.498966	-0.568477	-0.434579	12.171294	1.558875	-1.800358	14.055524	-0.701775	7.63415	-0.674745	-0.515595	-0.343202
-1.546608	-0.479624	9.643867	8.404968	5.438864	3.560306	0.525877	0.562021	-1.257962	-10.814331	-5.850992	6.444956	-31.48924	182.799899	18.42031	-0.49749	-0.563117	-0.506328	12.076391	2.029192	-0.48263	2.195654	7.400018	-1.989087	-0.646792	-0.498168	-0.359426
-1.717258	-0.479259	9.69738	6.922989	4.180357	2.808102	0.497636	0.56277	-1.257263	-11.512992	-4.892317	6.148057	-13.017606	238.419057	-7.924277	-0.484364	-0.532401	-0.508611	11.046844	2.155192	1.295264	-2.297738	9.100246	-14.144168	-0.646162	-0.468262	-0.314517
-1.474464	-1.050945	10.381658	6.412811	5.08561	4.081642	0.525877	0.562021	-1.257962	-11.458899	-3.709531	6.093622	-10.295009	291.114627	-18.310142	-0.470282	-0.543359	-0.565282	9.350201	1.465162	1.979267	-0.871045	11.970379	-27.944566	-0.660908	-0.514564	-0.358659
-1.482921	-0.133569	9.987547	14.275234	3.315144	3.508893	0.525863	0.57932	-1.275453	-11.110827	-2.583378	6.328383	-13.741588	337.657066	-24.045444	-0.417047	-0.508131	-0.625791	8.699383	1.698704	1.908244	-0.866359	10.581822	-47.492296	-0.674395	-0.501055	-0.312983
-1.193226	-0.247936	10.163191	16.119051	2.745531	5.702358	0.499151	0.542285	-1.278583	-10.945378	-2.975963	8.652692	-13.297899	374.811087	-24.722973	-0.404447	-0.584658	-0.621048	7.571919	2.455269	1.650922	1.466561	13.218268	-53.165173	-0.633163	-0.51333	-0.374047
-1.818529	-0.303956	10.378114	24.156061	2.477581	8.220199	0.54227	0.530918	-1.290291	-10.086363	-1.907395	8.558448	-20.409544	411.089505	-19.619803	-0.363523	-0.53204	-0.710985	7.335564	2.107106	1.58513	-7.008622	14.205188	-53.902944	-0.660278	-0.484658	-0.31375
-1.910644	-0.471373	11.512225	25.441268	2.676672	7.453072	0.526249	0.565549	-1.272037	-8.505825	-1.74027	9.837302	-37.782742	433.144985	-7.052181	-0.284856	-0.543695	-0.754685	7.499427	2.568589	0.931433	-4.558354	14.948361	-24.339757	-0.66105	-0.512912	-0.389715
-2.026018	-0.816181	11.451697	40.997873	15.750119	7.436756	0.499108	0.594183	-1.331059	-6.655963	-2.64477	10.158426	-49.226375	442.52388	0.369155	-0.231181	-0.536963	-0.841886	7.385257	2.802152	1.169849	-5.045721	16.131994	3.038364	-0.64728	-0.529726	-0.37328
-1.387518	-0.527499	11.919977	62.478917	36.235471	6.603859	0.542656	0.517147	-1.286875	-4.27152	-3.324254	11.283575	-69.698068	443.747223	2.83114	-0.166082	-0.550837	-0.856611	7.903062	2.856046	0.461117	-7.905232	16.982827	14.445411	-0.660979	-0.513738	-0.374187
-1.983757	2.352754	13.739093	74.318679	31.746944	25.110481	0.527792	0.510465	-1.258374	-2.113042	-3.721465	12.630683	-90.349494	439.94534	-2.926572	-0.112406	-0.544105	-0.943812	8.622935	2.566518	1.072155	-7.637521	16.884927	24.012561	-0.674816	-0.514769	-0.35873
-0.526909	-2.378595	9.030563	76.530373	44.034389	-0.578005	0.542299	0.49632	-1.255308	-1.165724	-3.553154	13.896239	-114.233374	429.757232	-11.124198	-0.046861	-0.526266	-0.974894	8.736545	2.100404	0.772844	-6.812312	14.948852	31.080393	-0.633301	-0.530349	-0.357682
-1.150079	0.783075	9.486411	66.026373	46.138725	4.669265	0.530093	0.445138	-1.255371	1.624419	-4.40229	15.142987	-137.024945	407.593204	-28.811468	0.01898	-0.507354	-1.020326	8.965562	1.342897	0.294777	-2.496981	14.814798	36.659921	-0.632746	-0.480945	-0.375721
-2.120059	-0.766659	9.574673	43.300568	44.378221	1.578014	0.557562	0.471931	-1.262901	4.757212	-5.083175	16.283852	-164.70647	384.260689	-55.545366	0.033582	-0.471279	-1.094357	8.955368	0.991969	-0.305776	4.461729	15.761945	39.167678	-0.605631	-0.509617	-0.436018
-1.839992	1.025202	12.258703	58.162353	44.034956	2.695009	0.544556	0.482891	-1.30478	6.687331	-4.578524	17.796802	-185.597417	369.80897	-84.95792	0.137095	-0.471751	-1.082213	8.297636	0.410469	-0.859515	7.679578	17.05647	39.333277	-0.660495	-0.463508	-0.407754
-1.391237	1.539914	11.814958	56.964075	64.191553	15.936577	0.558348	0.42709	-1.238578	6.285568	-2.042659	18.073672	-202.801829	362.798515	-94.257548	0.215546	-0.408947	-1.102232	7.528455	-0.634133	-1.117898	6.65592	23.340364	34.782343	-0.646374	-0.465783	-0.3611
-2.344752	0.957959	9.861724	78.148371	66.43725	16.249398	0.587318	0.450697	-1.28492	9.699403	0.432763	21.884089	-241.541896	337.79765	-75.119356	0.282423	-0.356179	-1.19272	7.004182	-0.747587	-0.768856	7.172388	28.918792	30.963054	-0.66077	-0.497546	-0.375024
-2.054482	1.590574	10.097358	61.440255	71.061428	13.520811	0.601839	0.419252	-1.264361	14.948603	5.157861	25.621809	-256.040239	293.827019	-29.115923	0.37392	-0.33819	-1.224353	6.476048	-1.094333	-0.660429	6.752857	30.878239	24.749575	-0.646445	-0.464957	-0.376628
-1.909619	1.194914	11.632929	53.83793	78.777298	15.538706	0.629308	0.446045	-1.271891	21.472175	8.019487	26.893627	-249.999526	252.017333	33.516238	0.386752	-0.308546	-1.212287	5.955792	-0.567714	-0.009132	10.711	30.211961	16.576781	-0.660006	-0.43195	-0.3939
-2.766291	1.310901	11.730416	59.46516	82.874412	14.209173	0.6427	0.421314	-1.226597	29.523433	8.342096	26.723321	-226.133383	205.282925	81.290696	0.452152	-0.261137	-1.231026	5.245668	-0.68274	-0.142646	15.629581	29.820065	8.827643	-0.632191	-0.431541	-0.39376
-3.707569	0.112089	13.298305	60.3269	94.078994	12.763571	0.643829	0.4146	-1.251333	38.2724	9.224666	24.246982	-192.487593	162.129233	104.229288	0.466164	-0.227206	-1.276358	4.48533	-0.795654	0.201996	16.355916	24.870173	-3.346222	-0.64624	-0.430093	-0.424886
-2.719317	1.033826	14.117039	88.446585	116.681505	22.433453	0.630866	0.373661	-1.240736	41.870242	10.115736	20.360339	-169.105015	119.963797	108.97776	0.505908	-0.178876	-1.308896	4.80215	-0.675232	1.40613	15.928985	25.222134	-19.787662	-0.660219	-0.429471	-0.440484
-1.876919	2.178658	13.342624	93.722616	134.813841	18.573399	0.672856	0.369009	-1.227708	42.65116	12.195266	16.698653	-155.691954	77.780302	100.150926	0.519035	-0.14816	-1.311179	7.394074	-0.043079	1.277548	20.203153	22.865829	-24.161619	-0.645957	-0.433398	-0.362775
-2.414603	2.34653	12.196265	64.337714	144.807679	8.394261	0.701869	0.340718	-1.221575	39.493674	13.776539	14.482395	-102.026411	34.238244	89.554865	0.558408	-0.116222	-1.328363	8.666849	0.064417	-0.075606	28.247101	18.093156	-12.464106	-0.646587	-0.463304	-0.407684
-3.393429	3.162797	14.851696	4.863819	155.63072	-8.677906	0.74463	0.308524	-1.201715	36.650966	13.665921	10.686058	-54.705139	-1.287098	86.310404	0.598152	-0.067892	-1.3609	7.893057	0.529544	-0.387468	28.267848	18.957564	-4.339127	-0.646032	-0.4139	-0.425723
-3.019915	1.732782	16.330524	8.790462	179.310731	-6.893293	0.771757	0.29719	-1.160185	60.389876	28.828028	8.197452	-32.153142	-206.7423	19.509965	0.546173	-0.083512	-1.358794	8.011244	0.936053	-0.32363	22.479559	20.472358	-4.906068	-0.632541	-0.446081	-0.423979
-4.060268	1.386708	15.797356	0.476068	200.904436	-5.076692	0.771771	0.27989	-1.142694	59.9741	7.822517	13.774995	116.987665	-258.934553	31.566893	0.545947	-0.129474	-1.355783	8.141942	1.171054	0.398443	19.470611	22.827902	-5.945505	-0.674473	-0.462886	-0.423352
-3.731885	0.131713	17.901179	-25.882783	231.333659	-7.327391	0.798883	0.285856	-1.118656	-1.49587	-1.411189	14.797022	80.518564	-183.331	-41.636717	0.494784	-0.096989	-1.385387	8.625636	1.404998	1.067211	16.811653	19.692266	-8.335244	-0.646796	-0.479497	-0.406847
-2.281072	0.319689	21.851489	-61.657667	265.90438	-16.139044	0.883192	0.331978	-1.159151	6.333226	-11.786701	19.424818	266.270009	-91.079627	-33.326623	0.417224	-0.096367	-1.398082	9.866892	4.366017	1.582184	-4.767406	20.98978	-31.792934	-0.618704	-0.445051	-0.439436
-2.946825	2.577818	25.939848	-109.235978	298.940198	-27.487965	0.894698	0.324205	-1.07846	8.554149	9.716193	6.808855	369.724889	-85.857397	-16.113464	0.442574	-0.218781	-1.390605	14.923742	11.38111	1.586923	-70.836766	29.127378	-72.315877	-0.633447	-0.510025	-0.436158
-0.128727	3.867328	32.535596	-140.455283	346.376493	-32.944814	0.909218	0.29276	-1.057901	-2.082868	-1.020945	8.897164	-71.793885	-10.240672	-8.195372	0.389414	-0.238689	-1.331099	14.354607	13.988576	-0.149155	-68.706565	27.868955	-47.512431	-0.674753	-0.478252	-0.438043
0.81311	3.022936	36.755807	-127.122148	398.173387	-2.327634	0.949337	0.287765	-0.991985	2.560505	-4.293121	13.181248	68.4306	-36.588928	7.069521	0.376658	-0.253012	-1.344169	12.494707	7.652339	-2.6664	68.36341	11.329778	7.563453	-0.675033	-0.493619	-0.452734
-2.042873	-1.684474	36.850905	18.032111	458.817467	44.973846	1.003947	0.285925	-0.940494	0.975998	-1.364356	9.300789	69.126514	-38.459893	-0.963872	0.363538	-0.223518	-1.331551	11.493016	-0.318975	-6.851453	63.314237	4.787851	40.963534	-0.646799	-0.460825	-0.454267
-0.891513	1.061235	34.384335	226.66827	523.420916	54.499729	1.087198	0.252265	-0.868794	1.415971	-1.366025	8.347587	52.389847	-25.849024	3.094037	0.390005	-0.236545	-1.359799	8.65831	-0.42914	-7.024583	-36.313987	34.551373	48.214351	-0.619401	-0.492802	-0.452453
2.414277	0.19383	33.649354	219.366447	555.685362	21.809718	1.142209	0.219354	-0.796395	1.158581	-1.476961	9.757438	12.692302	-12.579402	-2.355036	0.33773	-0.253238	-1.343342	8.494476	3.074009	-2.640947	-59.455282	55.464557	3.108897	-0.660707	-0.461029	-0.454338
0.672832	-6.933949	32.107847	-4.749997	518.886971	-45.955791	1.224346	0.175109	-0.682467	1.275483	-1.139099	9.873419	10.041528	-15.004856	-7.067111	0.363387	-0.254159	-1.329544	10.532405	6.620956	-0.431803	-36.943415	52.248924	-24.36987	-0.660573	-0.42534	-0.518123
14.533738	1.100249	32.979626	4.192499	499.563016	52.360612	1.224017	0.119683	-0.615915	0.987286	-2.208935	9.753195	2.725044	-12.246683	-6.953091	0.362866	-0.301193	-1.312183	11.257105	6.623044	0.480006	-19.878374	37.654922	5.189983	-0.633309	-0.493006	-0.452523
2.871885	-21.290204	6.459592	436.681335	377.613623	11.414913	1.249286	0.090707	-0.504006	1.395341	-1.082794	10.102443	10.503602	-10.074211	-5.19888	0.324679	-0.268633	-1.342063	12.03883	5.113785	1.086952	5.349356	32.121465	31.260077	-0.646524	-0.426788	-0.486997
27.486087	-9.931067	-19.155746	237.886093	165.189859	-171.207896	1.263464	0.021135	-0.434388	0.982605	-1.026088	9.640911	6.373473	-9.447037	-5.966661	0.363161	-0.300121	-1.326533	12.645802	2.617638	1.686395	3.565153	31.930887	49.091333	-0.647083	-0.45752	-0.516379
46.065816	-23.479242	-0.324739	-24.400897	-44.975742	-142.284446	1.289032	0.082184	-0.424014	1.286662	-1.927347	10.325872	3.182458	-7.598155	-4.162833	0.351297	-0.251019	-1.372317	13.257662	1.807673	2.772262	-4.353799	29.097753	54.086778	-0.646595	-0.425962	-0.502525
4.371508	25.025783	38.168034	-105.057258	-189.916594	120.795595	1.276384	0.113972	-0.49746	1.4008	-2.040271	10.271556	11.37908	-9.350051	-6.393257	0.336474	-0.272845	-1.28494	13.674751	1.517089	2.95845	-9.418518	17.899459	40.675247	-0.61857	-0.409361	-0.503222
17.396262	-11.168501	12.069999	57.073744	-75.567461	-203.679443	1.290147	0.092769	-0.466242	1.105096	-1.08235	9.983119	14.653219	-9.396878	-6.945986	0.349595	-0.302339	-1.297558	13.483438	2.443991	2.300128	-14.782558	7.108531	11.49141	-0.631994	-0.359335	-0.536859
13.534762	-16.928737	7.537837	-20.915692	-110.566066	-48.021151	1.274869	0.134457	-0.47614	1.638661	-1.589726	10.673248	10.141964	-9.487592	-6.518931	0.324309	-0.285025	-1.326709	12.997833	2.558257	1.572936	-12.584385	1.793804	-24.003474	-0.647158	-0.438023	-0.579327
2.878724	-7.615499	7.36982	-26.403167	-135.581981	37.645155	1.275969	0.162341	-0.53586	0.519748	-1.701335	9.460752	14.729619	-8.289078	-7.397325	0.323278	-0.258672	-1.271318	10.983966	1.922034	1.053547	-8.169826	0.553692	-26.794199	-0.633175	-0.457316	-0.516308
6.889771	-6.206329	1.827568	16.710397	-181.392248	15.92631	1.2485	0.135548	-0.52833	1.158689	-1.533292	9.75739	13.098863	-7.903541	-8.566252	0.337134	-0.315591	-1.324978	9.329198	2.448251	0.965052	-11.577232	0.168103	-29.132836	-0.673922	-0.394811	-0.488812
10.080056	-4.508704	9.909867	-72.491146	-283.590132	46.811163	1.277098	0.155627	-0.560596	1.339931	-2.209297	10.100286	13.126379	-5.813007	-9.34696	0.33721	-0.300271	-1.325982	9.916288	1.400296	0.672072	1.52138	2.405198	-22.071249	-0.632966	-0.441124	-0.517146
7.665509	-3.187738	9.413826	-3.573774	-306.470954	38.515212	1.238095	0.171206	-0.66874	1.335442	-1.758795	9.930746	15.749367	-6.367448	-13.265442	0.350261	-0.284875	-1.327261	7.785009	2.391461	0.397032	2.446508	1.566608	-26.44024	-0.633175	-0.457316	-0.516308
6.498689	-3.938474	8.251357	0.42366	-354.887208	64.820176	1.265978	0.149629	-0.637871	1.108461	-2.208913	10.03881	22.783121	-4.563794	-12.841094	0.350405	-0.314444	-1.339603	9.18487	1.919656	-0.537046	7.05108	2.395043	-36.941273	-0.660298	-0.391302	-0.550853
6.322135	-1.92862	8.085903	1.9086	-383.413964	67.418727	1.198334	0.197028	-0.766224	1.332486	-1.477237	9.817704	29.530603	-3.235142	-10.664537	0.323643	-0.30249	-1.297006	6.647601	2.21609	-0.523222	9.953071	1.563694	-29.492454	-0.619267	-0.457112	-0.516238
5.118927	-2.27264	8.004219	-37.426219	-405.447574	61.441816	1.229576	0.189907	-0.844546	0.898665	-1.531662	11.054057	31.927622	-4.071054	-9.468649	0.324604	-0.283953	-1.341059	4.873565	2.800406	-0.673576	4.682132	4.909108	-61.99633	-0.660853	-0.440706	-0.532814
5.566185	-1.860707	10.401533	-66.643722	-416.601644	55.734686	1.172679	0.239775	-0.881549	1.274363	-2.207137	12.420092	30.262203	-13.540378	-8.885936	0.362571	-0.302264	-1.297834	6.764803	2.099421	-0.581422	15.403411	3.974713	-56.684717	-0.633108	-0.439471	-0.548201
5.017805	-1.395452	11.643096	-80.504394	-418.735996	50.957267	1.133675	0.255354	-0.989693	1.347615	-2.434334	10.439934	54.519889	-17.48282	-10.724435	0.310366	-0.363846	-1.292716	8.060822	2.154032	-0.676779	8.662348	3.368443	-3.307443	-0.605013	-0.423697	-0.53337
2.125366	2.117109	13.136062	-107.163085	-417.648493	31.091669	1.108078	0.228903	-1.035051	1.024783	-1.587781	11.566184	60.06584	-18.543361	-11.285409	0.349219	-0.378942	-1.29254	7.83082	2.388359	-0.320751	-6.201461	3.211748	24.500585	-0.605288	-0.457734	-0.50064
0.640511	-0.006668	13.211889	-130.975828	-409.252079	22.128118	1.051138	0.330669	-1.124529	1.910211	-1.928912	9.886054	76.30966	-35.337805	-9.558829	0.324303	-0.345235	-1.337045	7.726263	2.275444	0.395437	-10.683968	4.960333	25.425546	-0.633596	-0.47103	-0.562055
0.395443	-1.548697	15.246517	-144.345734	-397.391614	34.93068	0.95491	0.34069	-1.203124	1.259927	-0.348656	11.9119	49.004664	-33.211265	-7.894974	0.270848	-0.366215	-1.263189	8.676679	1.519284	0.649457	-8.268382	5.035076	16.062647	-0.61892	-0.423901	-0.53344
-1.308739	-3.210605	15.831498	-155.278529	-372.521933	30.796979	0.89837	0.411386	-1.271695	0.065814	-7.671697	9.219496	109.269864	-50.389791	-26.390153	0.29739	-0.363921	-1.29244	9.448	1.169814	0.842	-4.225045	-4.252131	13.402479	-0.591242	-0.440511	-0.516935
-2.966932	-3.151479	15.913155	-172.83962	-345.358656	30.460334	0.813204	0.496602	-1.342982	1.156964	-0.632003	9.758149	32.536707	-48.639743	-11.483452	0.309475	-0.427272	-1.260002	10.208452	0.759796	0.435227	-8.130535	-11.736882	26.015677	-0.605709	-0.471448	-0.546387
-3.526032	-3.263052	16.583774	-179.171723	-326.281842	20.23995	0.744102	0.495288	-1.380048	1.82591	-0.350114	11.470872	31.468793	-54.766167	-10.065493	0.29739	-0.363921	-1.29244	9.21259	0.415119	0.774478	-17.823362	-12.615303	30.732165	-0.66127	-0.473091	-0.53114
-5.600943	-1.81583	18.822731	-191.689117	-306.24841	-3.686698	0.68569	0.565642	-1.395731	2.119435	-0.801107	11.703096	32.991441	-64.107634	-13.918058	0.270252	-0.428569	-1.244825	9.690357	0.357199	1.082569	-13.57648	-11.777942	28.114327	-0.632828	-0.424105	-0.53351
-8.689021	0.829925	19.057969	-168.551321	-279.285925	-29.93795	0.586003	0.682303	-1.487577	1.250341	-1.025049	11.401575	30.813389	-70.095555	-12.46879	0.283598	-0.412101	-1.260454	8.631907	0.128067	1.241492	-3.649132	-14.228203	25.950197	-0.660711	-0.442358	-0.501758
-15.390121	3.431988	21.836944	-155.61532	-219.161109	-27.863894	0.513529	0.683833	-1.432943	1.460727	-1.136564	13.160934	29.015383	-75.657808	-14.43681	0.231399	-0.413473	-1.245002	7.929061	-0.275856	1.466184	1.634246	-15.940911	24.808179	-0.646386	-0.409769	-0.503362
-25.499048	5.685334	23.013741	-195.373676	-158.928247	-22.875814	0.483359	0.753438	-1.449323	2.139123	-0.349657	12.666349	32.004448	-94.029109	-23.433483	0.2443	-0.428719	-1.244274	7.389517	-0.450847	0.976283	0.857419	-20.371711	30.090115	-0.632482	-0.390894	-0.550712
-48.448533	17.448819	29.37975	-111.113533	-151.457758	25.304844	0.397106	0.79347	-1.4434	2.249958	-0.631714	12.441971	32.949922	-104.750677	-24.12497	0.219309	-0.410333	-1.287775	7.083702	-0.568796	0.371218	-3.064955	-23.353513	33.175621	-0.646457	-0.408943	-0.51889
-59.544213	13.97502	20.852044	-5.427498	-171.170476	27.654986	0.368851	0.811518	-1.460193	1.947437	-0.291377	14.474028	30.196709	-119.953867	-27.145116	0.205592	-0.443192	-1.256793	5.834729	-0.684338	-0.191548	-6.831283	-23.826992	27.383172	-0.64611	-0.375732	-0.536092
-49.536583	14.744604	14.62811	-77.248602	-153.184081	69.236742	0.394434	0.855268	-1.432327	1.784819	-1.13568	14.866167	36.917415	-140.222395	-25.738107	0.193131	-0.456444	-1.284213	6.356956	-0.164599	-0.598767	-6.145317	-18.999543	16.230814	-0.660644	-0.424513	-0.533651
-54.492702	57.358918	52.617215	-114.827174	-39.921401	101.192464	0.337566	0.870538	-1.434346	2.61435	-1.474271	15.958959	27.261777	-158.758909	-25.714236	0.204926	-0.460657	-1.227089	6.837504	0.475382	-0.048082	-2.273844	-10.23286	6.791278	-0.673713	-0.378619	-0.489649
-42.708815	24.976668	4.233589	150.270619	30.764639	118.250208	0.339066	0.867352	-1.473158	2.39486	-1.417083	16.463928	37.916103	-181.295501	-32.0023	0.139462	-0.402966	-1.186676	7.907882	-0.164402	0.328448	2.273917	-3.132508	4.968188	-0.646039	-0.376558	-0.520564
-43.564105	23.451783	10.177719	128.169549	95.623879	1.829329	0.339052	0.884651	-1.49065	2.061988	-1.641284	17.02288	30.232051	-202.896244	-34.41166	0.113429	-0.478646	-1.195456	8.862335	0.184367	0.946607	4.057599	0.308142	15.979428	-0.660085	-0.393781	-0.504269
-48.308921	22.595047	10.422799	233.294717	149.187388	-45.910948	0.366522	0.911444	-1.49818	2.03164	-2.597799	18.210297	21.794928	-230.739945	-41.877333	0.061971	-0.447234	-1.21071	9.628195	0.763371	0.963385	0.325539	-3.04943	31.782431	-0.645898	-0.37821	-0.489508
-9.705269	27.990642	3.353829	327.017951	217.947391	-207.203746	0.398592	0.807583	-1.499703	1.915714	-3.834613	20.754409	18.626133	-262.339703	-52.458392	0.0487	-0.44838	-1.196085	10.493379	1.337903	-0.036053	-5.798474	-10.769083	33.798006	-0.674135	-0.392332	-0.535395
-17.196671	-0.172858	11.272983	-19.367134	121.181469	-66.192928	0.413842	0.800494	-1.524789	1.23482	-4.337578	23.853444	8.484517	-303.236448	-64.986494	-0.030412	-0.468439	-1.136028	11.593494	4.294001	-0.781326	6.331198	-21.058397	-5.168942	-0.646319	-0.391924	-0.535255
-2.770389	9.168288	8.921934	-175.227328	-54.971055	-13.975655	0.456246	0.747472	-1.473361	-0.671866	-5.230921	28.794659	-14.189551	-353.265489	-78.909447	-0.043093	-0.467442	-1.150102	13.826251	8.52842	-0.721461	34.129118	-17.712342	-85.575614	-0.659876	-0.377588	-0.505106
1.280802	2.153376	8.005049	49.564161	76.73565	14.996516	0.455846	0.778543	-1.494269	-4.580378	0.130808	32.170765	-37.027698	-401.151781	-89.389447	-0.108638	-0.485281	-1.11902	14.162918	9.583003	1.684767	16.212393	-12.383185	-110.211656	-0.659597	-0.362222	-0.490416
-1.614458	-4.950573	11.840089	38.407509	25.103148	-26.968538	0.48333	0.788036	-1.484307	-4.100386	-2.852666	35.51845	-2.562637	-470.413466	-92.853361	-0.174479	-0.504192	-1.073589	11.307455	6.750569	3.236217	-20.181746	-26.376903	-53.050658	-0.660644	-0.424513	-0.533651
-2.614483	3.362226	7.877547	17.827377	14.116787	1.067482	0.471096	0.771454	-1.519354	1.479361	-2.910152	46.222437	89.678188	-527.69303	-98.864076	-0.214367	-0.522954	-1.028709	10.621149	3.968001	4.049841	5.79465	-50.715949	29.636278	-0.632128	-0.395025	-0.473073
-2.015577	0.78225	9.12859	3.527598	24.103587	3.50969	0.484102	0.760494	-1.477475	4.348897	-3.258624	40.451137	195.290159	-576.369474	-98.706602	-0.280052	-0.451014	-0.974949	10.439949	3.38641	3.744533	28.264232	-68.305421	58.897912	-0.674273	-0.409351	-0.51903
-1.880611	0.212094	10.15176	-17.529369	7.649621	-1.419959	0.471481	0.757683	-1.515938	5.699618	-13.86755	21.900699	146.321769	-579.46041	-69.649001	-0.335139	-0.568204	-0.837673	12.058483	4.711455	2.103639	13.096073	-71.948075	42.245606	-0.645965	-0.396055	-0.457616
-1.545702	-0.192176	9.701927	-21.723296	13.634076	5.773573	0.428005	0.748221	-1.472663	-0.118859	7.242668	-6.170282	263.476546	-385.71578	-50.711351	-0.440498	-0.589484	-0.762715	11.626412	5.289205	1.139898	7.005578	-69.690452	8.050148	-0.701246	-0.382332	-0.427678
-1.433876	0.439116	9.593102	-7.620112	11.305021	2.812418	0.456246	0.747472	-1.473361	-23.126986	-2.677665	1.376957	180.021914	-252.804102	-3.836439	-0.493363	-0.608321	-0.717559	11.444341	3.661504	0.650419	4.020396	-62.77002	-17.674471	-0.645894	-0.396882	-0.442088
-1.773606	-0.191769	9.754326	-28.146418	11.430314	5.050903	0.442097	0.782446	-1.507995	-17.864888	-12.033381	7.140638	6.115892	-159.755983	5.980327	-0.482899	-0.647462	-0.60103	11.415439	3.306372	-0.968551	7.60895	-58.300253	-5.148608	-0.660219	-0.429471	-0.440484
-1.768204	0.039204	10.039557	-16.872187	10.905	4.488578	0.455832	0.795842	-1.51176	-6.490632	-0.837938	15.371996	-23.735926	-64.797434	70.842351	-0.495134	-0.614752	-0.631461	12.048806	3.475654	-1.794401	6.695753	-49.3392	12.110988	-0.715362	-0.398729	-0.426911
-1.422368	-0.075445	10.159461	-17.387688	11.543736	4.868448	0.441368	0.75809	-1.462352	-16.321327	-7.123758	20.594945	86.656655	55.465084	130.219051	-0.534137	-0.630298	-0.62963	13.458881	3.819633	-2.066041	7.693922	-34.720619	21.177096	-0.67315	-0.366558	-0.412847
-2.055507	-0.075713	9.976654	-12.460368	10.649377	4.441059	0.45546	0.792314	-1.497684	-15.86796	-7.756413	6.733437	178.814963	28.041392	119.782947	-0.521381	-0.615974	-0.616559	14.455128	3.525227	-2.467918	12.90903	-21.009582	19.01414	-0.701104	-0.383984	-0.396622
-1.549001	-0.250341	9.531126	-4.704283	11.337872	3.816581	0.469238	0.753812	-1.448974	-5.789159	-12.061257	1.393129	103.742934	32.752721	111.41302	-0.495429	-0.615824	-0.617111	13.386639	3.351946	-2.847909	19.799143	-11.073386	12.858967	-0.659451	-0.382546	-0.41194
-1.604401	0.267157	9.645891	-4.869673	9.400434	3.846904	0.454746	0.750658	-1.434549	-9.128736	-11.888398	-1.394338	25.435198	81.904628	59.607267	-0.521231	-0.585333	-0.618567	12.926689	1.903103	-2.383638	19.738809	-2.752181	6.736979	-0.700616	-0.352426	-0.382769
-1.826572	0.039004	9.98159	-4.751676	8.66312	3.865248	0.484473	0.764022	-1.491551	-10.712028	-7.992431	5.652617	-28.811904	147.292166	10.392612	-0.507595	-0.628004	-0.658881	11.060451	1.796217	-1.221209	6.504066	2.242734	-1.674454	-0.715012	-0.384189	-0.396693
-2.242942	0.035917	9.177853	-1.784105	8.22299	3.236208	0.455875	0.743944	-1.459285	-11.252617	-4.835232	7.56893	-5.382395	203.406034	-24.019394	-0.467191	-0.622419	-0.731457	10.028278	1.631094	0.375728	2.148294	8.728717	-18.100598	-0.700825	-0.368618	-0.381932
-1.188855	-0.132088	10.391086	-1.952153	9.991652	4.400124	0.5127	0.780573	-1.509741	-11.16954	-3.879014	6.156164	13.852358	258.961898	-44.905639	-0.440944	-0.621197	-0.746358	9.57115	1.809864	1.206362	4.932445	7.807454	-37.509393	-0.687267	-0.382954	-0.41208
-1.716269	-0.306693	9.754957	-1.618868	8.971464	5.057259	0.5127	0.780573	-1.509741	-10.612773	-3.48649	5.318991	9.004305	306.481381	-56.334709	-0.401646	-0.60458	-0.762538	8.925138	1.870167	1.374225	3.378961	9.777149	-48.084299	-0.686917	-0.368414	-0.381861
-1.945286	-0.306527	9.750503	7.320257	6.788453	6.069392	0.512728	0.745974	-1.474758	-10.260989	-3.036208	5.666462	-5.186155	343.47799	-64.947459	-0.349007	-0.631705	-0.804683	8.503647	2.159762	0.94841	1.312925	11.322617	-50.344955	-0.673217	-0.384402	-0.380954
-1.833336	0.15244	9.640954	11.322315	5.1222	5.570789	0.49745	0.787662	-1.484656	-10.231176	-2.190017	7.139803	-20.271985	374.297012	-62.772246	-0.256844	-0.596251	-0.86602	7.210659	2.222044	1.223982	-4.531746	13.107718	-50.454513	-0.688244	-0.446071	-0.439787
-2.118205	-0.249203	9.690551	17.348748	3.303379	5.799884	0.498208	0.777419	-1.495316	-10.610927	-1.68134	8.264559	-30.711706	394.377078	-56.754725	-0.191599	-0.639694	-0.893087	6.497949	2.745607	1.033281	-4.238413	9.742765	-65.13347	-0.673914	-0.432154	-0.393971
-2.558999	-0.991992	10.531302	13.069763	9.04605	7.193534	0.49745	0.787662	-1.484656	-8.21789	-1.797139	9.843299	-45.041051	415.769827	-39.475911	-0.086246	-0.678623	-0.97838	6.671831	2.686384	0.856615	3.463598	8.450571	-58.80126	-0.645819	-0.416379	-0.37914
-0.335069	4.027531	16.165098	-29.586811	29.564596	7.067124	0.484845	0.767551	-1.505627	-6.300315	-1.687323	10.732882	-64.563804	419.659359	-26.536725	-0.047243	-0.663078	-0.980211	7.071333	2.856701	0.146177	0.990937	12.447671	-32.048027	-0.604308	-0.413288	-0.425512
-3.050641	-2.262853	8.75464	24.937747	40.024301	-1.38401	0.469609	0.75734	-1.46305	-4.787852	-0.450143	11.614951	-81.442086	410.724327	-11.719139	0.070722	-0.658115	-1.040092	7.328286	2.396002	1.226925	-1.568627	13.204625	0.380734	-0.687614	-0.416165	-0.394878
0.56964	1.88629	12.593354	33.525845	40.358689	7.858236	0.498222	0.76012	-1.477825	-3.506977	-2.310994	12.149738	-101.934945	404.230561	1.578907	0.110755	-0.668923	-1.097314	7.610317	2.79914	0.575182	-4.497083	9.032095	6.493433	-0.673426	-0.400595	-0.380117
-1.993343	-0.706647	10.202525	47.309829	49.083102	8.359024	0.497465	0.770362	-1.467164	-3.123918	-3.042515	13.855563	-131.124377	401.098094	7.844027	0.227319	-0.653999	-1.08645	8.083931	2.159223	0.581266	0.943034	4.76872	9.48943	-0.687472	-0.417818	-0.363822
-2.008274	-0.077926	9.466089	48.89945	39.102724	0.249431	0.526449	0.77667	-1.496015	-0.714627	-3.439351	16.170381	-148.218637	384.504975	14.293078	0.278337	-0.656914	-1.044504	8.438008	1.693558	0.525984	6.279893	3.295846	17.699437	-0.646307	-0.447938	-0.392993
-1.486303	-0.076851	9.817229	33.180058	41.915913	3.192505	0.541741	0.717683	-1.468625	1.074666	-5.301552	16.262932	-168.499702	359.781643	13.043848	0.344548	-0.621611	-1.105288	8.731408	0.995229	0.348798	8.440029	4.176353	27.958412	-0.645472	-0.383168	-0.396342
-2.062437	0.267488	9.636983	49.893913	42.764622	5.642216	0.528392	0.690515	-1.461444	5.07051	-5.758732	17.422119	-194.575487	335.853572	4.707345	0.422108	-0.622232	-1.092593	8.073157	1.110888	-0.142067	8.896534	7.052694	33.934835	-0.659939	-0.414105	-0.425793
-2.07815	0.436436	8.841764	54.382268	42.898126	9.250117	0.570382	0.685863	-1.448415	6.254827	-4.689232	19.089747	-225.937559	322.491672	3.161728	0.43546	-0.545555	-1.097887	7.831434	0.703413	-0.507641	6.906004	11.15248	36.123619	-0.659451	-0.382546	-0.41194
-2.059345	0.612861	9.80899	51.390589	41.53318	6.445895	0.556248	0.703537	-1.465558	11.115028	-2.835904	23.213063	-249.10403	303.400994	13.557956	0.463485	-0.477692	-1.188551	7.48363	-0.107853	-0.278077	5.901386	15.412659	37.941238	-0.631844	-0.39833	-0.410962
-2.394005	0.672482	10.257375	44.410625	41.98454	7.147995	0.586032	0.647704	-1.452593	18.086716	-0.1986	26.588819	-239.99822	276.883704	28.160888	0.51665	-0.397574	-1.237722	7.414149	-0.342494	-0.879236	6.9674	17.463288	38.202737	-0.673989	-0.412656	-0.456919
-2.78159	0.905433	10.932783	59.340905	48.640544	14.358362	0.55549	0.71378	-1.454898	24.121507	2.268437	26.491282	-218.017347	247.264344	49.865694	0.596213	-0.285593	-1.3038	6.837733	-0.570481	-0.172346	6.821371	20.179815	35.775118	-0.645335	-0.366149	-0.412706
-1.972316	1.021425	11.346826	68.262286	59.595946	13.928105	0.600896	0.654386	-1.481094	28.126046	2.710588	25.443493	-192.326962	224.264952	62.976542	0.686906	-0.195289	-1.283053	5.949055	-0.511121	-0.368326	10.344744	23.716686	32.199215	-0.617172	-0.33253	-0.429768
-2.999556	1.022894	11.497343	61.474661	67.071497	13.118534	0.573026	0.658663	-1.494472	32.555344	4.784181	22.877482	-167.51435	193.930683	57.422209	0.726135	-0.133782	-1.287895	5.024624	-0.039655	0.754276	16.02687	25.518565	25.566926	-0.645268	-0.348304	-0.444599
-2.476844	1.541184	11.907507	56.493392	74.933669	11.451406	0.629137	0.653637	-1.481793	38.729199	7.136906	21.197569	-151.157251	156.825265	44.178523	0.79043	-0.075341	-1.250239	5.636504	-0.384764	1.902028	19.12392	26.956724	14.758409	-0.659384	-0.364701	-0.443832
-2.402805	1.429878	12.760935	55.78939	89.994375	10.747623	0.615045	0.619413	-1.44646	39.688257	10.793699	17.937315	-130.006783	115.004773	29.042409	0.828402	-0.033442	-1.196678	7.744849	-0.509486	1.042546	25.410188	21.829275	15.76881	-0.631501	-0.346448	-0.475585
-2.55626	2.295727	13.727716	54.930224	106.999035	6.457267	0.630294	0.612324	-1.471545	42.704232	2.972646	34.525096	-130.846222	-85.090215	48.232274	0.866815	-0.020041	-1.169809	9.321488	-0.865543	0.112264	29.121572	11.698863	32.341417	-0.659384	-0.364701	-0.443832
-2.673778	1.835554	13.553	34.643562	124.261212	1.214911	0.686448	0.555399	-1.406391	48.364328	15.508903	17.784006	22.521216	-89.779671	49.819772	0.880312	0.027068	-1.187446	9.304327	-0.114016	-0.723219	20.53862	15.700289	35.869096	-0.659246	-0.347682	-0.460197
-3.265345	1.327238	15.471585	16.499926	133.668979	-6.829689	0.671555	0.583316	-1.412873	55.361744	13.692039	16.570625	144.083084	-158.873177	45.377152	0.892547	-0.005642	-1.157015	10.011056	0.988055	-0.645409	17.235003	21.775913	15.156774	-0.645338	-0.347478	-0.460127
-3.123988	1.160621	16.837562	6.991423	162.964136	-1.694938	0.730324	0.53379	-1.428759	56.958829	17.12013	10.832546	123.95349	-244.273179	94.862002	0.866444	-0.036433	-1.154456	10.252622	0.988751	-0.341473	17.930244	23.309821	-17.585586	-0.61766	-0.364089	-0.443622
-2.139445	1.047446	17.424539	-4.832341	188.251858	-1.924332	0.74253	0.584971	-1.428695	1.828906	16.893169	18.562916	145.921315	-242.798587	43.435131	0.827661	-0.066227	-1.165971	10.208898	1.515279	0.558255	13.6564	22.723124	-48.122157	-0.631639	-0.363466	-0.45922
-2.844615	0.826662	19.398957	-32.880883	219.808968	-6.697327	0.769285	0.570109	-1.37309	2.752197	-3.384245	22.244343	4.899311	-76.040124	1.940326	0.749956	-0.036036	-1.166324	12.453753	2.440353	0.843655	-3.574336	24.145777	-94.007001	-0.645405	-0.365323	-0.428234
-2.54842	1.875161	22.875793	-83.507972	259.975254	-19.362446	0.811232	0.617355	-1.412537	2.378783	-0.69246	7.689033	132.011831	-48.4934	4.628564	0.737791	-0.048216	-1.208094	14.970836	6.090617	0.247574	-41.80751	28.525434	-140.179428	-0.646035	-0.395229	-0.473144
-2.626029	1.033927	27.644493	-114.482332	296.018999	-15.681058	0.838387	0.571422	-1.336024	1.74688	-0.747557	7.732327	3.387869	-34.4187	3.801771	0.736529	-0.128034	-1.160026	14.452825	10.671792	-1.658719	-52.061878	29.139619	-105.490487	-0.660081	-0.412452	-0.456849
-1.634691	0.130364	31.467604	-112.021053	329.977129	9.153932	0.86437	0.584102	-1.28725	4.020579	-2.212974	11.685165	72.944714	-29.425575	27.275809	0.736679	-0.097393	-1.162034	12.261194	9.396643	-2.303943	8.246478	25.852215	-27.157678	-0.618779	-0.425553	-0.502385
2.022316	-1.859741	36.929239	2.674209	394.593949	30.727191	0.990755	0.521776	-1.209766	1.532442	-0.80284	8.463758	43.325446	-42.61032	-7.345602	0.73727	-0.095249	-1.190733	10.246429	3.93739	-3.502829	41.473325	29.952401	31.567568	-0.660223	-0.4108	-0.487904
0.298778	0.150991	36.676867	112.209855	476.171679	49.154883	1.031988	0.527367	-1.186077	2.461341	-2.381629	8.708332	30.016262	-22.197687	1.540094	0.711167	-0.12604	-1.188174	8.234297	2.081323	-4.087318	-1.865804	40.024947	36.659592	-0.61822	-0.394821	-0.473003
-1.48557	0.642388	30.336055	240.826826	495.694297	57.349228	1.060286	0.45742	-1.116809	0.597972	-1.756967	10.424787	21.39212	-13.475045	-3.250951	0.685586	-0.109798	-1.202976	8.687106	3.9487	-1.675427	-27.511397	53.14479	7.650008	-0.576917	-0.407922	-0.518539
1.525313	0.302821	32.098101	135.218417	524.447956	13.11065	1.114196	0.396625	-0.98469	1.295705	-0.577324	8.175915	15.127456	-20.876144	-9.094359	0.685731	-0.139367	-1.215319	10.430238	4.532962	0.156165	-20.432239	53.251453	-0.231035	-0.632202	-0.375528	-0.536022
0.489385	-6.809009	34.434852	-35.248693	495.838247	-24.832669	1.169907	0.422669	-0.992919	1.681289	-1.36508	9.994971	-12.907879	-9.822556	-4.721969	0.685366	-0.095549	-1.18963	11.100634	5.349732	1.429776	-18.679162	45.377285	10.314238	-0.632411	-0.39172	-0.535185
12.982281	-1.325211	29.643061	186.387691	463.29196	27.575548	1.239095	0.320186	-0.850902	1.108376	-1.532899	10.096019	0.543846	-8.613604	-4.051742	0.69752	-0.203789	-1.168531	12.108311	5.348426	1.688111	-8.260572	36.099255	17.626116	-0.618015	-0.359957	-0.521261
2.598519	-16.933407	4.369913	454.173386	390.026347	9.205176	1.236851	0.316315	-0.783938	1.113081	-2.096062	10.265464	0.66626	-8.560767	-2.509723	0.697821	-0.142508	-1.172545	13.291314	3.719349	1.64329	0.842894	32.39049	24.396939	-0.604737	-0.389659	-0.5661
30.18731	-8.72433	-18.529813	263.557552	143.903325	-168.896269	1.264778	0.24284	-0.700593	1.623939	-1.477634	9.993668	3.636234	-8.386985	-4.571073	0.724219	-0.110645	-1.189454	13.246833	2.676836	2.296715	-2.807944	26.221561	30.981511	-0.604178	-0.358927	-0.536718
38.522985	-20.7704	0.392418	-46.28642	-60.434098	-132.743051	1.251801	0.219201	-0.707488	1.496266	-1.872253	9.367882	4.895778	-8.923314	-4.513737	0.697896	-0.127187	-1.173549	12.173808	2.560642	1.677344	-6.742646	17.259353	23.610139	-0.59062	-0.373263	-0.566867
10.573561	19.702545	30.253145	-75.863574	-131.76049	51.922301	1.27927	0.245994	-0.715019	1.277985	-1.815018	9.92949	0.887108	-8.391004	-4.604153	0.671649	-0.128409	-1.158648	12.408097	2.850234	1.623075	-11.528986	8.793619	6.428347	-0.590896	-0.4073	-0.534137
17.386174	-11.98744	8.599696	9.569603	-60.203231	-184.440593	1.236123	0.291959	-0.738294	1.339177	-1.814983	10.100618	0.944994	-8.782846	-5.532836	0.685366	-0.095549	-1.18963	10.984972	2.910068	1.23747	-13.360988	1.405172	-13.303397	-0.604457	-0.374293	-0.551409
11.579701	-17.618556	7.042258	-38.853179	-112.106678	-46.951541	1.223503	0.289148	-0.776757	1.385862	-1.815518	9.59207	0.842714	-9.721805	-7.515227	0.672089	-0.156906	-1.18534	10.746686	2.445258	1.05137	-9.637866	1.854125	-37.70322	-0.590061	-0.34253	-0.537485
2.430699	-4.510671	7.999327	-2.725944	-111.656024	-4.198547	1.194475	0.334738	-0.800382	1.621414	-1.421398	9.880436	0.968864	-9.477722	-7.081111	0.645992	-0.127487	-1.172446	10.042644	3.028875	1.340171	-3.811951	2.350151	-27.460232	-0.618503	-0.391516	-0.535114
11.439285	-8.227094	0.259462	-39.416477	-182.057834	-7.966038	1.167349	0.346072	-0.841912	1.220743	-1.983901	9.928139	1.651334	-9.339991	-8.065677	0.685065	-0.156831	-1.185616	9.080488	2.678376	0.302664	-3.354274	-2.827458	-26.489939	-0.604249	-0.358101	-0.552246
9.663805	-3.132953	9.168774	-117.114774	-258.861495	21.401122	1.166963	0.359843	-0.845327	1.108353	-2.152582	10.038858	3.888223	-8.67388	-11.818207	0.672164	-0.141586	-1.186344	8.891895	2.908613	-0.298718	3.091506	-1.158559	-22.97665	-0.562037	-0.32593	-0.538182
7.622404	-4.276191	10.090365	-49.297137	-290.195494	22.874551	1.127231	0.351067	-0.907828	1.456294	-1.589782	10.216504	9.587367	-7.436633	-11.770492	0.685215	-0.12619	-1.187623	8.008719	2.969209	-0.195163	7.291949	-2.557414	-25.276958	-0.590967	-0.406474	-0.549665
6.983194	-2.037204	9.689556	-23.381477	-328.683645	48.728106	1.056242	0.366711	-0.909498	1.439501	-1.027093	9.480664	18.793559	-4.723867	-10.163913	0.671869	-0.142658	-1.171994	7.239288	2.505614	-0.391167	9.129173	0.516337	-32.020568	-0.604386	-0.375119	-0.535881
6.316941	-2.4468	7.799466	-18.682123	-350.556198	55.104546	1.016467	0.409832	-1.024474	0.811441	-1.194709	9.693782	23.411188	-3.156535	-6.414476	0.671944	-0.127337	-1.172997	6.941331	2.796175	-0.515247	11.062454	-0.71103	-48.734204	-0.576574	-0.35604	-0.583161
5.635372	-2.330213	8.070852	-41.529526	-369.298614	59.035626	0.946622	0.401462	-1.033388	1.040175	-1.418173	12.302641	12.607876	-7.262528	-4.367707	0.672164	-0.141586	-1.186344	6.890133	2.275109	-0.159131	14.548268	-6.693547	-39.858189	-0.576433	-0.357692	-0.552106
5.38007	-2.036043	9.658378	-65.526098	-380.704629	56.099147	0.862613	0.445365	-1.094428	1.667191	-2.210655	9.257945	26.006615	-27.005527	-2.611065	0.685285	-0.17108	-1.198962	8.108429	2.325652	-1.274006	11.249457	-9.676786	-18.687453	-0.56336	-0.422258	-0.548687
4.777819	-1.627465	11.069146	-82.489511	-385.093265	53.409512	0.822152	0.412232	-1.111285	1.527288	-1.026015	10.897863	21.876071	-23.758212	-0.732424	0.659188	-0.141661	-1.186068	6.873066	2.038849	-1.118631	3.808741	-6.404973	8.432038	-0.57685	-0.390077	-0.550432
4.353265	-0.183617	12.828717	-94.802606	-382.155488	44.509517	0.738529	0.442364	-1.168909	1.356771	-1.532619	10.950449	26.306198	-30.01736	-1.037712	0.632941	-0.142883	-1.171167	7.643598	2.502691	-0.862719	-4.086405	-2.476675	19.231774	-0.590829	-0.389455	-0.56603
2.742068	-2.88438	12.27452	-116.703113	-377.167936	35.516567	0.639699	0.427686	-1.148973	1.286686	-1.307663	10.383034	42.334738	-30.232209	-2.722488	0.632496	-0.174595	-1.15481	8.725386	1.691152	0.112138	-8.671407	0.946091	32.743644	-0.590199	-0.359549	-0.52112
1.877792	-2.125638	14.931936	-137.859704	-368.47249	30.996569	0.540441	0.478678	-1.184928	-0.654442	-6.314794	13.3384	71.851917	-31.157955	-33.750696	0.632791	-0.173524	-1.169159	8.908206	1.575831	0.414479	-9.853633	4.725683	36.581875	-0.562663	-0.374507	-0.535671
-0.321234	-1.254919	16.654575	-149.456679	-350.580692	17.429681	0.468709	0.487265	-1.158446	2.603352	-0.634413	10.12821	39.032333	-45.515478	-12.310334	0.632496	-0.174595	-1.15481	8.979462	1.52034	1.074308	-5.081516	5.407966	34.360178	-0.590479	-0.374915	-0.535811
-2.354267	-1.649487	18.034128	-151.70361	-323.311657	3.005664	0.411098	0.495478	-1.132313	1.945314	-0.68817	11.642924	30.475724	-47.761502	-9.071839	0.632496	-0.174595	-1.15481	9.213731	1.345077	0.958154	0.448837	-1.496523	29.542934	-0.576641	-0.373885	-0.551269
-3.977201	-1.065667	19.937255	-145.679194	-285.96325	-7.077972	0.339309	0.573263	-1.175798	1.680104	-0.745445	9.995493	34.315091	-54.248758	-8.609167	0.632791	-0.173524	-1.169159	9.567923	0.35648	0.84074	2.366575	-7.469038	28.036002	-0.56308	-0.406892	-0.533996
-5.012815	-0.261704	19.693178	-133.635248	-269.925458	-35.192981	0.295462	0.560273	-1.118446	2.390146	-0.069966	10.973442	29.124388	-51.868496	-7.449062	0.618999	-0.221704	-1.137173	8.923282	0.300878	1.068016	-5.579996	-8.662183	31.249778	-0.576571	-0.374711	-0.535741
-7.516571	-0.958388	17.481985	-116.904433	-264.213021	-78.865086	0.296219	0.55003	-1.129106	1.898952	-0.856627	12.15133	20.250258	-62.549402	-9.566163	0.568056	-0.203468	-1.180123	8.272308	0.127641	0.935355	-10.133412	-10.563256	30.144245	-0.561966	-0.326756	-0.522654
-9.888825	-2.053627	16.124126	-135.162195	-247.459334	-76.883574	0.194732	0.579852	-1.080606	2.282568	-0.85814	11.253558	24.217979	-68.811055	-10.611687	0.593712	-0.20439	-1.166325	8.042576	0.245816	1.290889	-0.890629	-15.487508	30.378832	-0.576708	-0.39173	-0.519376
-14.910482	-2.723314	19.774433	-165.300058	-209.381511	-18.015489	0.179125	0.566114	-1.023953	2.189974	-0.631702	12.327483	17.512929	-76.404707	-11.679033	0.580957	-0.218713	-1.179395	7.384035	0.012772	0.738634	9.239622	-20.019077	34.368543	-0.562316	-0.341296	-0.552873
-32.712744	4.554071	25.767009	-161.742428	-161.564987	44.235131	0.107008	0.588472	-1.000886	2.100314	-1.306504	13.457288	20.165189	-89.229716	-15.626938	0.568646	-0.201324	-1.208823	7.319766	-0.569336	0.375619	11.028535	-20.820797	35.619319	-0.56204	-0.307258	-0.585602
-57.47793	7.782428	23.821315	28.201393	-163.995642	18.996894	0.090258	0.598747	-0.936989	1.864547	-1.587962	13.169017	22.319949	-104.674764	-18.830565	0.567761	-0.20454	-1.165773	7.141887	-0.68533	0.311917	5.463828	-20.592385	38.236999	-0.561966	-0.326756	-0.522654
-43.906258	12.561624	15.637712	-129.247513	-209.759236	54.273818	0.090272	0.581448	-0.919497	2.584129	-1.475457	14.542969	25.017817	-121.356442	-24.481314	0.516077	-0.219088	-1.178017	7.615542	-0.395536	0.44177	-2.622429	-18.957606	40.03169	-0.534221	-0.325521	-0.538042
-41.935948	11.908492	11.01319	-67.378319	-150.807552	72.527013	0.047153	0.592814	-0.90779	1.625983	-0.796804	15.5425	30.446418	-141.958943	-30.877739	0.503842	-0.186379	-1.208448	6.962658	-0.220564	0.250686	-9.534491	-16.581287	35.581857	-0.575803	-0.327786	-0.507197
-39.987168	11.767751	5.310631	-84.51136	-106.497688	103.79412	0.030046	0.582262	-0.812325	2.035069	-1.473335	15.776951	32.018017	-161.586864	-29.900061	0.464393	-0.233637	-1.19026	8.498334	0.182952	0.400842	-10.199018	-11.70805	25.472787	-0.575523	-0.31242	-0.492506
-31.285247	24.98447	35.201078	-230.384783	81.791621	64.358352	0.072007	0.612208	-0.83428	2.692504	-3.388952	16.75151	18.443613	-187.943554	-38.988999	0.438221	-0.219539	-1.176362	9.265274	0.297348	0.415642	-8.659256	-8.442495	14.844593	-0.589085	-0.279413	-0.509778
-37.956257	21.551185	10.051466	179.418937	64.412617	57.317403	0.115884	0.590599	-0.856648	1.899909	-2.767239	17.414782	37.917587	-214.22483	-47.649664	0.425465	-0.233862	-1.189433	10.560753	0.584263	0.321274	-6.104116	-9.981506	10.746839	-0.561477	-0.295197	-0.5088
-45.942824	23.87375	14.39551	269.781572	123.229069	-17.451643	0.100634	0.597688	-0.831562	2.343921	-4.005747	19.234669	19.684036	-242.44617	-54.263659	0.399513	-0.234012	-1.188881	10.49801	0.293029	0.07931	-6.318132	-12.03478	14.027967	-0.575177	-0.279209	-0.509708
-56.861738	21.459912	12.013395	301.50019	184.670021	-140.347114	0.101778	0.573674	-0.838807	2.53022	-5.1862	22.464548	17.143633	-275.780798	-66.371527	0.333453	-0.238675	-1.130103	9.833177	0.872061	-0.709112	-14.036315	-13.257204	8.315424	-0.561269	-0.279005	-0.509638
-11.99037	0.257247	5.35204	261.669781	178.269154	9.596514	0.119342	0.483959	-0.843397	1.147554	-5.631969	25.039367	22.570694	-316.918546	-82.742004	0.282654	-0.250008	-1.185396	9.695843	3.01793	-1.480955	-15.542981	-18.823287	-27.744508	-0.533662	-0.294789	-0.50866
-1.134158	-7.116753	15.81843	-3.701615	-48.386472	-41.906609	0.147154	0.548879	-0.899987	-1.012531	-5.173754	29.014011	-6.77386	-364.428724	-96.028358	0.269238	-0.221586	-1.158428	11.384229	6.785742	-2.211762	5.643264	-21.482249	-118.252318	-0.56071	-0.248272	-0.480256
-3.369329	1.624519	4.332054	31.019338	6.52826	17.005969	0.133048	0.531954	-0.882146	-6.410514	-0.428622	32.641362	-33.08752	-420.131407	-98.297219	0.178407	-0.222111	-1.156498	13.593298	10.505276	-0.298109	27.581953	-17.308689	-183.036207	-0.575874	-0.32696	-0.522724
-2.537973	0.736079	11.675603	-5.036668	69.990257	-11.299416	0.118942	0.515029	-0.864305	-4.239844	0.86942	40.104552	31.827355	-501.871379	-101.243746	0.125542	-0.240947	-1.111342	11.699302	11.160929	2.663641	-9.397967	-25.8991	-122.176719	-0.590128	-0.360375	-0.505593
-2.070557	-0.825831	9.177573	-3.638139	5.540031	11.38592	0.146811	0.510752	-0.850927	2.307803	-1.901484	41.994663	135.371666	-549.608208	-97.164329	0.03434	-0.257865	-1.094058	9.011193	6.815147	3.493082	-24.34649	-45.156989	-9.740901	-0.56245	-0.376986	-0.489087
-1.926678	0.776618	7.823196	36.493752	31.987604	4.708285	0.078095	0.495668	-0.884577	4.878717	-2.925858	35.650353	179.27551	-593.368366	-75.986632	-0.044847	-0.293244	-1.032998	8.497513	3.56633	4.008495	14.05685	-61.843806	67.816826	-0.548684	-0.375129	-0.520073
-1.893848	0.036874	9.468799	-16.239014	11.846122	0.361941	0.147554	0.517809	-0.879079	6.461813	-10.995336	22.825067	142.421766	-589.428097	-63.370329	-0.12514	-0.317589	-0.915542	11.127079	2.973313	2.55787	17.248454	-73.500439	87.433333	-0.547499	-0.295819	-0.493202
-1.420017	-0.247287	10.272444	-18.897742	10.589989	4.335953	0.120428	0.529143	-0.920608	-3.988227	2.012634	-4.61435	279.644065	-369.293773	-30.344653	-0.191646	-0.353965	-0.840407	12.568024	4.531067	0.914663	16.34273	-79.953645	66.610724	-0.603335	-0.331499	-0.445226
-1.710784	-0.190604	10.039705	-11.595881	14.89694	6.960954	0.134563	0.511469	-0.903466	-24.74644	-3.745306	0.889089	144.84444	-254.477123	19.270883	-0.271053	-0.375095	-0.766001	12.918125	4.35504	0.680897	11.210016	-69.482366	4.152252	-0.561682	-0.330061	-0.460543
-1.830902	-0.134286	9.753454	-16.710546	11.757825	5.237982	0.175024	0.544602	-0.886609	-15.296804	-10.461735	6.290133	-28.770914	-152.478677	-10.776677	-0.258303	-0.420981	-0.763265	12.250915	4.061942	-0.350862	7.444973	-61.520099	-19.098524	-0.547286	-0.298298	-0.446619
-1.600688	-0.249093	9.814278	-12.870969	12.22137	6.583806	0.14794	0.504038	-0.875663	-7.645299	-5.399029	14.777581	-58.615301	-20.211307	27.60069	-0.285285	-0.394778	-0.707322	11.819344	3.477677	-1.439361	16.488109	-52.610426	-2.335101	-0.588518	-0.286023	-0.385555
-1.431193	-0.192258	9.704154	-19.622318	11.837814	5.124995	0.132662	0.545725	-0.885561	-16.956988	-7.74235	20.411206	89.475589	108.661763	94.303681	-0.233456	-0.409798	-0.707422	12.934338	3.822332	-1.716504	19.268015	-40.728807	20.644204	-0.588797	-0.301389	-0.400246
-1.407727	-0.302075	10.897586	-15.861536	10.129637	5.515746	0.162046	0.520962	-0.893504	-16.40138	-9.220748	5.87173	149.652808	72.886863	72.227889	-0.271719	-0.392559	-0.736297	14.277134	3.932164	-2.469489	21.505002	-24.814715	23.219561	-0.575236	-0.334396	-0.382974
-1.541414	0.038556	9.930305	-2.738642	10.95949	5.460796	0.105593	0.487862	-0.857124	-5.41363	-11.384705	2.873581	88.389274	66.871961	66.938883	-0.260074	-0.427412	-0.677167	14.800826	3.348211	-2.941312	26.489086	-10.263691	22.642949	-0.547771	-0.348528	-0.413052
-1.372784	-0.2495	9.761879	-4.591185	8.955847	5.218896	0.133062	0.514655	-0.864654	-9.382158	-11.156524	-2.41807	7.931839	116.261575	29.381689	-0.233752	-0.41087	-0.693072	13.326057	2.131495	-3.093829	30.532906	1.519884	23.275129	-0.602772	-0.319438	-0.368424
-2.048702	-0.24659	10.317048	-2.209092	8.115236	4.431702	0.132319	0.507598	-0.836502	-11.712348	-7.144063	7.387396	-41.871763	180.605221	-3.436507	-0.233381	-0.394478	-0.708425	11.596539	1.563686	-0.972666	20.270392	13.860519	6.59464	-0.588518	-0.286023	-0.385555
-1.598378	-0.363494	9.927502	2.601163	8.173299	3.989459	0.188416	0.519871	-0.841315	-10.640805	-4.778557	9.280255	-11.550252	236.297431	-17.808959	-0.220405	-0.394403	-0.708701	10.155093	1.167947	0.795299	5.383076	20.182423	-18.258636	-0.602426	-0.286227	-0.385626
-1.420472	0.384569	10.275098	0.732457	8.099632	4.300313	0.145682	0.517466	-0.826191	-11.369796	-3.764737	7.567414	14.457197	286.28008	-26.815725	-0.14211	-0.42245	-0.737048	9.516225	0.997429	1.321614	7.155915	18.376245	-35.276315	-0.603056	-0.316133	-0.430535
-1.715445	0.095639	9.813499	3.908674	6.832157	3.534558	0.162061	0.503663	-0.876012	-9.499126	-3.149748	6.305118	12.818688	329.437048	-30.548691	-0.116748	-0.424443	-0.7089	8.925253	1.347235	1.312093	8.902907	18.554532	-43.044029	-0.561403	-0.314695	-0.445852
-1.481849	-0.075886	10.044642	1.772931	7.670788	4.597019	0.147169	0.53158	-0.882495	-8.510304	-3.432854	6.77855	-2.7436	365.74549	-35.594004	-0.050687	-0.41978	-0.767677	7.981575	2.046803	1.417267	4.436188	16.063969	-61.101663	-0.57496	-0.300359	-0.415704
-2.051794	-0.591963	10.145041	10.89492	5.397125	5.545821	0.176181	0.503288	-0.876362	-8.007687	-3.319395	8.770702	-7.208505	386.103228	-36.966843	0.040885	-0.386471	-0.800314	6.682545	2.340153	1.394293	7.628271	15.948077	-63.587023	-0.575657	-0.34811	-0.42872
-1.707935	-1.051744	10.149792	21.256832	4.808267	7.49976	0.177339	0.461975	-0.866114	-8.977359	-2.303187	9.26076	-35.877458	408.623619	-28.010841	0.067126	-0.445458	-0.82555	6.611849	2.628196	0.79536	7.013974	15.975735	-57.597512	-0.561541	-0.331713	-0.429487
-1.42678	-0.133852	9.931808	28.958798	1.803997	7.244764	0.147169	0.53158	-0.882495	-7.290715	-2.47464	10.088631	-46.878288	414.285685	-17.050599	0.11837	-0.402413	-0.786615	7.316202	2.858138	0.629834	7.760039	19.409426	-16.643949	-0.561749	-0.347906	-0.42865
-2.516422	-2.259125	9.731164	35.996244	-0.011517	7.593665	0.161303	0.513906	-0.865352	-5.597141	-2.476817	11.256481	-71.06893	415.863594	-1.054837	0.158039	-0.369403	-0.818149	7.014248	2.973482	0.265385	-0.865969	20.871636	10.580614	-0.562096	-0.381117	-0.411448
0.605184	-0.161781	17.245507	19.275533	10.699001	23.85367	0.161689	0.500135	-0.861936	-3.45062	-2.31115	12.094308	-86.421443	412.213678	8.268238	0.235675	-0.354704	-0.806457	7.023031	2.510604	0.682755	-7.516297	20.239613	13.205809	-0.57461	-0.285819	-0.385485
-2.326765	-0.81911	10.707039	68.143856	32.477926	4.226452	0.162461	0.472593	-0.855105	-2.770518	-3.437191	14.202322	-105.948532	407.990398	12.95806	0.300184	-0.370721	-0.792483	7.78694	2.508107	0.51734	-4.449052	15.685459	16.853854	-0.54833	-0.37926	-0.442434
