1757_acc_x	1757_acc_y	1757_acc_z	1757_gyro_x	1757_gyro_y	1757_gyro_z	1757_mag_x	1757_mag_y	1757_mag_z	1758_acc_x	1758_acc_y	1758_acc_z	1758_gyro_x	1758_gyro_y	1758_gyro_z	1758_mag_x	1758_mag_y	1758_mag_z	1759_acc_x	1759_acc_y	1759_acc_z	1759_gyro_x	1759_gyro_y	1759_gyro_z	1759_mag_x	1759_mag_y	1759_mag_z
-1.663054	-0.882115	9.526245	-3.773159	-1.450919	-3.692913	0.510042	0.371761	-1.012315	1.731602	-1.365473	9.656343	1.764681	2.979849	2.569237	-0.08777	0.369154	-0.718591	9.258617	2.213363	0.303987	-1.557455	-1.268045	0.816518	-0.449049	-0.456154	0.119571
-1.490218	-0.824556	9.58668	-2.976119	-1.572908	-3.451841	0.49555	0.368607	-0.99789	1.098705	-1.533279	9.642902	0.063206	2.717203	1.917864	0.278382	-0.175236	-0.961822	9.377635	2.736271	0.428227	-1.527773	-2.0109	1.675725	-0.479475	-0.482005	-0.312837
-1.718206	-0.709266	9.639562	-3.986359	-1.643614	-3.051391	0.468466	0.328043	-0.986944	1.270301	-1.58998	9.589842	-0.865336	2.55333	1.730518	0.252656	-0.129424	-0.964281	9.500049	2.272135	0.608171	-1.437704	-2.595857	2.075514	-0.480102	-0.530582	-0.310326
-1.320641	-0.882605	9.476073	-3.285575	-1.847451	-3.762098	0.482187	0.358739	-1.008201	1.392038	-1.251928	9.932382	-0.9572	2.613684	1.700216	0.213948	-0.143898	-0.9768	10.021425	2.210618	0.078665	-1.436636	-2.908366	2.718834	-0.493663	-0.497575	-0.327598
-1.772368	-0.363852	9.810455	-4.636044	-2.192496	-3.702481	0.496693	0.344593	-1.005134	1.494865	-1.139957	9.368499	0.467519	2.936748	1.9512	0.23968	-0.129499	-0.964006	9.323811	1.924084	0.603386	-0.82654	-3.887197	2.935241	-0.479405	-0.482831	-0.29731
-1.322909	-0.825646	9.362608	-7.972769	-1.844175	-3.257856	0.49595	0.337536	-0.976982	1.508401	-0.632413	10.048601	-1.443011	3.281627	1.768123	0.226629	-0.144895	-0.962726	9.560436	2.156095	0.668684	-0.181518	-3.942263	2.566405	-0.479475	-0.482005	-0.312837
-1.832466	-1.053833	9.635887	-6.044503	-2.171823	-3.391405	0.52532	0.330073	-1.002417	1.45159	-1.026619	10.04706	-1.349938	3.313467	1.768515	0.252286	-0.145817	-0.948928	9.672831	2.212665	0.371597	-0.24837	-4.087864	1.83382	-0.5075	-0.498605	-0.312141
-1.251428	-0.477902	10.104259	-4.692332	-1.92558	-2.869931	0.481429	0.368981	-0.99754	1.332725	-0.970215	9.874771	-0.699208	3.503671	2.079212	0.239825	-0.159068	-0.976348	9.258482	2.271439	0.304234	-0.006015	-4.078781	1.038255	-0.507571	-0.497779	-0.327669
-1.890052	-0.594259	9.636704	-5.974702	-1.664041	-2.064611	0.468081	0.341814	-0.99036	1.445738	-1.7592	9.706606	-1.7172	3.584541	1.801743	0.2399	-0.143748	-0.977352	9.385183	2.331223	0.785938	-0.100848	-3.671057	0.028074	-0.49408	-0.52996	-0.325924
-1.321754	-0.882846	9.41922	-4.745837	-1.510219	-1.574956	0.467709	0.338286	-0.976284	1.73743	-1.252575	9.939635	-2.148593	3.642194	1.524515	0.187921	-0.159368	-0.975245	9.492346	2.270404	0.188822	0.700003	-3.04568	-1.016945	-0.478983	-0.469117	-0.251563
-1.375461	-1.169289	9.587459	-5.207798	-1.631122	-1.94361	0.452445	0.362674	-0.96869	0.983036	-1.251411	9.640722	-1.502305	3.465634	1.646592	0.213578	-0.16029	-0.961447	9.443929	2.44724	0.787533	1.932219	-2.883887	-1.450056	-0.493868	-0.532439	-0.279341
-1.605882	-0.767273	9.527841	-5.325525	-1.176276	-1.445187	0.468438	0.362642	-1.021927	1.452105	-1.927954	9.989661	-1.599198	3.127553	1.581496	0.25243	-0.175386	-0.96127	9.446515	1.808651	0.84472	2.893751	-2.798139	-0.537068	-0.493312	-0.483035	-0.29738
-1.428634	-0.651308	9.81593	-5.907061	-1.150001	-1.289745	0.468824	0.348871	-1.018512	0.922729	-1.082406	9.526376	-1.510181	2.823293	1.393573	0.240045	-0.173317	-0.989694	9.087901	2.331403	0.660622	3.40115	-2.357389	1.384458	-0.493659	-0.516246	-0.280178
-1.665322	-0.825156	9.41278	-4.307048	-0.659888	-0.489015	0.467295	0.386655	-1.014683	0.983813	-1.026041	9.697551	-0.738212	2.831079	1.702554	0.23953	-0.16014	-0.961998	9.794455	2.56184	0.614909	3.689281	-1.755643	2.45026	-0.493801	-0.514594	-0.311233
-1.601594	-0.536542	9.756219	-4.120839	-0.258819	-0.544369	0.452817	0.366202	-0.982766	1.047531	-1.082242	9.98191	-1.042944	3.164065	1.767276	0.238945	-0.102074	-0.922964	9.149523	2.157535	0.780794	3.600146	-0.924077	1.865909	-0.479893	-0.51439	-0.311163
-1.428717	-0.536425	9.816412	-2.374466	-0.248925	-0.702575	0.483359	0.300126	-0.980461	0.927002	-1.420247	9.69601	-1.324113	2.886571	1.456009	0.226183	-0.176608	-0.946369	9.439797	2.330099	0.547411	3.572906	0.000428	1.189204	-0.479684	-0.498197	-0.312
-1.485764	-0.823591	9.814092	-1.177652	-0.310371	-0.21633	0.469209	0.335099	-1.015096	1.335358	-1.082781	9.987955	-0.337718	2.744382	1.671186	0.226855	-0.098934	-0.965737	9.440877	1.86549	0.545433	3.860993	0.788558	1.979044	-0.5075	-0.498605	-0.312141
-1.480031	-1.052151	10.097392	-1.144395	-0.036074	0.002707	0.537183	0.343127	-0.953294	1.562424	-1.308677	9.822682	-0.341578	2.409287	1.32874	0.239611	-0.08461	-0.952667	9.680088	1.458913	0.667918	3.500897	1.637749	2.557001	-0.521479	-0.497983	-0.327739
-1.713669	-0.823184	9.866491	-0.959719	0.087712	0.004188	0.482558	0.362267	-1.022277	1.330391	-1.646323	9.704283	-0.561231	2.102515	0.924747	0.23968	-0.129499	-0.964006	9.382962	1.865873	0.604239	2.886872	2.717209	1.484355	-0.49345	-0.500054	-0.281015
-1.091416	-1.169978	9.47932	-0.06828	0.428521	0.129832	0.495936	0.354836	-0.994474	1.211419	-1.533589	9.532041	-1.058698	1.822074	0.644105	0.253542	-0.126209	-1.00733	9.675011	1.748304	0.429526	2.112049	3.467196	-0.319636	-0.493312	-0.483035	-0.29738
-1.656331	-0.938109	9.867122	0.975947	0.833943	0.041412	0.48293	0.365795	-1.036352	1.102463	-0.969784	9.869935	-1.278935	1.48363	0.393937	0.240195	-0.142676	-0.991701	9.023633	1.749295	0.297608	1.399796	3.905201	-1.51109	-0.494006	-0.549457	-0.262976
-1.825785	-1.052385	9.977005	1.471367	1.416311	0.386797	0.482187	0.358739	-1.008201	1.040254	-1.70221	9.584912	-1.990167	1.442541	0.608753	0.252141	-0.116248	-0.936585	9.731712	2.270606	0.372945	0.602702	4.204122	-1.112317	-0.465217	-0.467261	-0.282549
-1.662106	-0.652107	9.584063	2.116826	1.633047	0.511133	0.524548	0.357615	-1.009248	1.454223	-1.139185	10.160244	-2.948597	1.369463	0.545599	0.226698	-0.189784	-0.974065	9.800207	1.982068	0.852064	-0.125869	4.241836	0.90729	-0.508197	-0.546357	-0.325157
-1.434202	-0.652515	9.531664	1.506241	1.905031	0.67065	0.455075	0.352773	-1.032238	1.561885	-1.027024	9.822919	-3.689989	1.360459	0.483257	0.23931	-0.145892	-0.948652	9.48918	2.211586	0.008855	-0.361863	4.313805	2.741601	-0.493801	-0.514594	-0.311233
-1.49026	-0.767115	9.586921	0.526632	1.865897	1.010179	0.496707	0.327294	-0.987642	0.994562	-1.588967	10.150193	-4.684114	0.918409	0.50889	0.291879	-0.128127	-0.979458	9.561516	1.691487	0.666706	-0.947451	4.000752	3.234233	-0.479267	-0.465812	-0.313674
-1.374803	-0.53719	9.646966	0.100213	2.106617	1.291328	0.495907	0.389434	-1.029457	1.095533	-1.13906	9.529955	-5.400504	0.420971	0.164258	0.214168	-0.158147	-0.990146	9.556864	2.271505	0.489457	-1.390781	3.245165	2.200284	-0.507779	-0.513972	-0.326831
-1.494962	-0.423431	9.360957	-0.259092	2.894186	2.163855	0.48183	0.337911	-0.976633	1.214937	-1.477116	9.702007	-6.266731	0.289349	-0.146029	0.226999	-0.128503	-0.97808	9.609257	1.805031	0.069232	-1.556477	2.956048	0.521288	-0.507988	-0.530164	-0.325994
-1.60481	-0.70959	9.584935	0.330242	3.784293	2.513968	0.495536	0.385906	-1.015381	1.272718	-1.589885	9.703121	-5.586888	0.298777	-0.268701	0.23953	-0.16014	-0.961998	9.319834	2.213722	0.424901	-1.961148	2.744574	0.126444	-0.493592	-0.498401	-0.31207
-1.601262	-0.996074	9.754288	1.171339	5.188586	3.699729	0.439811	0.377162	-1.024645	1.097843	-1.082635	9.643282	-4.601491	0.065397	-0.177744	0.25162	-0.163281	-0.919225	9.078537	2.096874	0.120471	-2.295424	3.106652	0.492682	-0.480102	-0.530582	-0.310326
-1.133206	-0.994235	10.274874	2.984204	5.809566	3.888606	0.48293	0.365795	-1.036352	1.627782	-1.590152	10.163492	-4.449278	-0.11623	-0.241084	0.265117	-0.116173	-0.936861	9.206339	2.156905	0.662081	-2.792183	3.266654	-0.362043	-0.493379	-0.50088	-0.265487
-1.663012	-0.939556	9.526004	4.092019	6.271165	4.291593	0.509299	0.364704	-0.984163	0.816491	-1.307181	9.920245	-4.480678	-0.119238	0.159626	0.239159	-0.176533	-0.946645	8.9601	2.271372	0.119012	-2.668714	3.732569	-1.006531	-0.479964	-0.513563	-0.326691
-1.64936	-1.338752	10.206552	6.450369	5.879549	4.554444	0.483316	0.352024	-1.032937	0.809454	-1.420126	9.580313	-4.023144	-0.573535	0.186305	0.239755	-0.114179	-0.965009	8.733264	2.564517	0.655008	-2.842731	4.952992	-0.767224	-0.521408	-0.498809	-0.312211
-1.596891	-0.880226	9.982183	10.033078	5.685692	4.142308	0.497065	0.348121	-1.01921	0.990504	-1.363787	9.980464	-4.893652	-0.985169	0.489793	0.240195	-0.142676	-0.991701	8.604363	2.504239	0.053491	-3.260096	5.824692	0.574894	-0.521341	-0.480964	-0.344104
-1.489229	-0.651991	9.644257	12.039862	3.675214	3.367843	0.481815	0.35521	-0.994125	1.554848	-1.13997	9.482987	-5.576575	-1.297022	-0.037936	0.2399	-0.143748	-0.977352	9.140875	2.562336	0.363177	-3.862771	6.975776	1.457914	-0.494147	-0.547805	-0.294031
-1.885556	-0.650735	9.863875	14.87918	2.624045	2.361229	0.495579	0.334008	-0.962906	1.215045	-1.533447	9.70196	-7.215995	-1.471323	-0.01016	0.22715	-0.097862	-0.980087	9.016085	2.154343	-0.060103	-4.933102	7.917688	1.701801	-0.494289	-0.546152	-0.325087
-1.533122	-0.649054	10.32538	14.91101	3.497186	1.271294	0.468095	0.324515	-0.972868	0.981049	-1.476827	9.527253	-6.448183	-1.857555	-0.414147	0.252361	-0.130496	-0.949932	9.145277	2.563325	0.602804	-5.111732	8.681167	1.759931	-0.479684	-0.498197	-0.312
-2.398619	-0.64988	9.96756	15.589115	8.716216	-6.036911	0.511185	0.347747	-1.019559	0.933609	-1.081979	10.036132	-6.19966	-1.761418	-0.567132	0.25177	-0.13264	-0.921232	9.434585	2.677566	0.309266	-5.942472	9.047472	1.547249	-0.493033	-0.467669	-0.282689
-2.110855	-2.717982	9.96444	-4.625342	9.591873	3.327968	0.484459	0.32801	-1.040181	1.276129	-1.477082	9.873135	-5.952811	-1.759892	-0.320294	0.253322	-0.11196	-0.993984	9.194929	2.328661	0.063754	-6.502426	9.054934	0.632347	-0.480102	-0.530582	-0.310326
-0.11952	15.25219	21.785984	-84.90128	62.210328	-8.221095	0.481815	0.35521	-0.994125	1.046861	-1.363942	9.925034	-5.70433	-1.72126	-1.059583	0.240195	-0.142676	-0.991701	9.494992	3.026381	0.431664	-6.357957	8.70132	-0.619567	-0.479196	-0.466638	-0.298147
-2.458805	-3.395652	12.625845	58.512819	71.200673	24.41738	0.481815	0.35521	-0.994125	1.334904	-1.477142	9.930983	-7.122963	-1.525641	-0.904639	0.226559	-0.100005	-0.951387	9.668469	3.141387	0.255739	-5.089008	8.634597	0.354167	-0.480452	-0.545122	-0.340545
-1.710256	-1.556855	12.932308	30.606822	83.535725	6.421838	0.510442	0.34069	-0.991407	1.338746	-1.589661	10.100807	-6.905999	-1.519274	-1.459305	0.2399	-0.143748	-0.977352	9.90687	3.083265	0.379707	-4.726783	8.184944	-0.409071	-0.479964	-0.513563	-0.326691
-1.884304	-0.568121	15.774611	24.762455	99.519329	6.177181	0.55279	0.356866	-1.009947	1.160005	-1.589575	9.813983	-6.101678	-1.446344	-1.673729	0.252436	-0.115176	-0.950935	10.145405	2.967067	0.503429	-2.945469	8.266743	-1.79123	-0.494076	-0.548631	-0.278504
-1.333325	-1.549866	14.644581	44.081093	111.477265	21.617995	0.539441	0.329698	-1.002766	1.675676	-1.59064	9.711584	-4.772656	-1.398019	-1.795491	0.266373	-0.096565	-0.995264	9.318349	2.852558	0.427621	-1.467137	8.213091	-2.010265	-0.521479	-0.497983	-0.327739
-1.869646	-1.726402	13.553627	51.867157	127.875625	11.896112	0.524963	0.309245	-0.970849	0.990397	-1.307457	9.980512	-3.725123	-1.628806	-1.981911	0.226704	-0.129574	-0.96373	9.380241	2.562538	0.547299	-0.121139	8.365783	1.437729	-0.466052	-0.53203	-0.2792
-2.168908	-2.246063	12.863651	28.496815	141.146634	15.889684	0.581102	0.26962	-0.923186	0.928881	-1.138499	9.809526	-0.851823	-1.563097	-1.76315	0.239159	-0.176533	-0.946645	9.792659	2.387117	0.494354	0.089952	9.09308	5.131699	-0.479893	-0.51439	-0.311163
-1.605033	0.509268	12.54525	35.252619	148.273602	15.92479	0.580688	0.31799	-0.961586	1.277423	-2.153048	9.872566	-2.390615	-1.122315	-1.821661	0.252656	-0.129424	-0.964281	9.507597	1.867086	0.965881	-0.603203	9.029045	8.129836	-0.508134	-0.50984	-0.404471
-1.848894	-0.527891	11.740509	46.077502	148.074769	10.799924	0.608214	0.275585	-0.899149	1.443667	-1.308603	9.650345	-0.631977	-1.283964	-1.821854	0.240421	-0.096715	-0.994712	9.498928	1.807032	0.486379	-0.049837	8.909938	8.006141	-0.50785	-0.513145	-0.342359
-2.797173	-0.649107	10.073471	33.879408	140.039613	7.361764	0.637956	0.27165	-0.938659	1.388303	-1.19574	9.762511	-2.885436	-1.21716	-2.347078	0.227144	-0.158071	-0.990422	9.380761	1.865378	0.484425	-1.92292	10.565188	7.026954	-0.479684	-0.498197	-0.312
-0.729836	1.591309	10.52094	31.995257	123.228096	7.247166	0.6082	0.292885	-0.91664	1.730069	-1.196529	9.599845	-3.074035	-1.408132	-1.640085	0.213803	-0.114329	-0.964458	10.030074	1.805817	0.496283	-0.941218	11.481969	10.411739	-0.521691	-0.495504	-0.374322
3.595979	-0.083435	9.234093	56.151389	99.377989	9.795155	0.638342	0.257879	-0.935243	1.170885	-1.589148	10.323739	-3.541628	-1.80803	-2.353481	0.213508	-0.115401	-0.950108	10.021945	1.513459	0.015792	1.077833	10.839833	14.044829	-0.507783	-0.4953	-0.374252
3.469927	-1.062512	8.602379	35.294694	68.857895	-8.765666	0.677674	0.297726	-0.89365	0.927434	-1.645569	9.69582	-2.306273	-1.765913	-1.704681	0.240496	-0.081394	-0.995716	10.316621	1.687012	0.022036	-1.872031	12.238291	13.865441	-0.465776	-0.497993	-0.31193
3.641571	-2.441475	8.543075	46.569531	59.447569	-17.048079	0.650962	0.26069	-0.89678	1.04181	-1.251471	9.69857	0.814007	-1.697873	-1.362386	0.213728	-0.129649	-0.963454	10.788885	1.627856	0.030592	-3.385219	12.202981	7.880246	-0.465985	-0.514185	-0.311093
4.834923	-2.329392	8.112117	37.471784	43.381454	-29.398598	0.67956	0.280769	-0.929046	1.504189	-1.590269	9.764596	0.318921	-1.794128	-1.672021	0.200897	-0.159293	-0.975521	10.553921	1.628643	0.086097	-1.530478	9.989263	0.732133	-0.507571	-0.497779	-0.327669
6.827984	-2.735346	7.580869	34.935117	24.954274	-36.929945	0.70783	0.245421	-0.894761	0.752882	-1.30731	9.635839	1.712	-1.503924	-1.143939	0.240051	-0.113107	-0.979359	10.312509	2.034726	-0.156202	-0.935645	7.390382	-5.095026	-0.480035	-0.512737	-0.342219
6.849565	-2.685666	5.762925	31.516284	15.36565	-49.192946	0.651733	0.233148	-0.889949	1.223723	-1.645776	10.098342	1.74691	-1.167624	-0.92477	0.213948	-0.143898	-0.9768	10.67514	2.152046	0.330151	-4.135685	4.879043	-5.896615	-0.508268	-0.54553	-0.340685
7.270146	-3.888127	6.732154	12.209659	-13.11072	-50.397895	0.693709	0.245796	-0.894412	1.737084	-1.703266	9.882616	2.795977	-1.247097	-0.801404	0.240051	-0.113107	-0.979359	10.444557	1.688967	0.563399	-5.209548	2.536454	-1.572309	-0.479267	-0.465812	-0.313674
4.94791	-3.306463	7.996535	7.03395	-23.04699	-49.133367	0.678831	0.256413	-0.883403	1.102655	-1.702128	9.812679	3.046363	-0.969384	-0.582645	0.226924	-0.143823	-0.977076	10.613902	1.686831	0.147352	-4.553372	0.159202	-2.174589	-0.480172	-0.529756	-0.325854
4.315967	-3.421373	7.870098	7.480235	-33.717244	-43.234164	0.651748	0.215849	-0.872457	1.33853	-1.477	10.100902	4.189705	-0.896168	-0.180232	0.240051	-0.113107	-0.979359	10.147971	1.863623	0.498731	-5.331831	-0.791527	-2.197795	-0.480172	-0.529756	-0.325854
4.7693	-3.07802	7.653041	3.869888	-43.716853	-41.239001	0.650576	0.274461	-0.900196	1.154954	-1.477103	9.587519	5.273241	-0.698861	-0.115742	0.226704	-0.129574	-0.96373	9.607887	1.920936	0.009819	-5.227786	-2.275768	-3.566386	-0.493805	-0.495922	-0.358654
4.142924	-3.191724	7.81087	-1.713176	-55.947894	-38.507565	0.652491	0.222906	-0.900609	1.219234	-1.195274	9.928803	5.676726	-0.569496	-0.360756	0.200527	-0.175686	-0.960167	9.787676	1.688722	0.131945	-4.894618	-3.225642	-3.288001	-0.507779	-0.513972	-0.326831
3.801003	-2.32937	7.921514	-1.682141	-68.357256	-34.077461	0.652105	0.236677	-0.904025	1.793656	-1.816082	9.827091	6.264169	-0.502328	-0.112991	0.214324	-0.067296	-0.981818	9.557809	1.864973	0.487727	-5.460963	-3.233726	0.259339	-0.479826	-0.496545	-0.343056
3.234233	-2.614957	8.193438	-11.215675	-80.743454	-30.233023	0.650204	0.270933	-0.88612	1.037621	-1.589644	9.471727	8.60492	-1.053766	-0.332387	0.200897	-0.159293	-0.975521	9.67308	1.631657	0.309218	-5.440179	-2.83858	3.466528	-0.452081	-0.49531	-0.358443
2.960127	-2.497212	8.813738	-16.126729	-89.017532	-26.549863	0.595208	0.286545	-0.941027	1.160567	-1.251544	9.870907	9.311797	-1.321543	-0.211169	0.2399	-0.143748	-0.977352	9.148268	1.750508	0.65925	-4.757496	-3.09283	4.626696	-0.507713	-0.496127	-0.358724
1.87353	-2.668508	8.848711	-21.271812	-95.196545	-23.353493	0.565853	0.276709	-0.898101	1.620552	-0.970754	9.880815	9.175947	-2.27474	-0.066616	0.227295	-0.127431	-0.992429	9.856461	1.748888	0.672455	-3.65197	-3.204574	3.981383	-0.480105	-0.511911	-0.357747
1.188331	-2.150555	8.951227	-22.304973	-100.649758	-20.126555	0.592951	0.299974	-0.891555	1.330415	-1.02664	9.761444	7.04124	-2.546907	-0.101868	0.239605	-0.14482	-0.963002	9.788507	1.805121	0.192347	-2.944926	-2.701253	2.876126	-0.466335	-0.528725	-0.341312
1.18932	-1.977989	9.008804	-25.299856	-105.799237	-17.379832	0.6086	0.261814	-0.895733	0.806821	-1.30756	9.467129	6.880535	-3.068167	-0.415461	0.226409	-0.130646	-0.94938	9.324756	1.517552	0.601655	-2.784926	-2.152933	3.148002	-0.465776	-0.497993	-0.31193
0.396583	-1.860596	9.448522	-31.20354	-109.656854	-15.861293	0.565424	0.342378	-0.953992	1.56033	-1.477763	9.709261	5.792678	-3.631652	-0.761048	0.200527	-0.175686	-0.960167	9.61638	1.109355	0.365799	-1.685513	-2.656661	1.954448	-0.521825	-0.531194	-0.310537
-0.159466	-1.569355	10.29139	-35.072914	-111.220511	-15.139462	0.581116	0.252321	-0.905694	1.503542	-1.252286	9.764881	5.879432	-4.119516	-1.012453	0.214023	-0.128578	-0.977804	9.498638	1.458329	0.424989	-0.701973	-1.746801	0.082193	-0.52162	-0.496331	-0.358794
-0.891567	-1.50872	10.90254	-36.196733	-109.40835	-15.413494	0.523462	0.312431	-0.932037	1.166396	-1.138646	10.1542	3.50016	-4.180766	-0.953321	0.252581	-0.144745	-0.963278	9.734432	1.573941	0.429885	0.531398	-1.245689	-0.62761	-0.479822	-0.515216	-0.295635
-1.576926	-2.312163	10.942653	-35.440745	-106.08166	-15.606988	0.552461	0.301439	-0.943395	1.511442	-1.589984	10.104434	7.286179	-5.26437	-1.392641	0.187776	-0.1298	-0.962903	9.505241	1.459812	0.78443	0.176237	-0.219592	0.591294	-0.465567	-0.481801	-0.312767
-1.754837	-1.509064	10.658425	-38.257779	-100.838346	-15.452351	0.525006	0.257347	-0.918374	1.503327	-1.139625	9.764976	6.795356	-4.99485	-1.359528	0.200382	-0.146117	-0.947825	9.381011	1.284371	0.422046	0.457416	0.333278	0.465385	-0.465776	-0.497993	-0.31193
-2.781952	-1.679919	10.808218	-36.977908	-93.817326	-13.133683	0.481086	0.330854	-0.948481	1.334927	-0.857459	9.988145	6.670805	-5.144715	-2.131818	0.239755	-0.114179	-0.965009	9.022667	1.690971	0.237454	0.709946	0.75769	0.920891	-0.52155	-0.497157	-0.343267
-4.154246	-1.104026	10.897613	-37.419255	-88.45092	-9.334154	0.510071	0.337162	-0.977331	1.559575	-1.083449	9.709593	7.230161	-4.834222	-1.635033	0.187111	-0.147264	-0.933199	9.559585	1.57484	0.546397	0.348722	1.143307	1.959508	-0.45166	-0.481596	-0.312697
-4.38677	-0.874818	10.723565	-36.781296	-82.941559	-4.155396	0.46658	0.345	-0.951548	1.451135	-1.42098	9.990088	6.80701	-4.103731	-1.62811	0.226999	-0.128503	-0.97808	9.502905	1.517394	0.664864	0.228479	1.043844	2.663378	-0.480035	-0.512737	-0.342219
-5.518828	-0.411562	11.385463	-32.64244	-76.870656	1.727608	0.508942	0.343876	-0.952595	1.497929	-1.477845	9.481493	6.752239	-3.581187	-1.931238	0.200237	-0.116548	-0.935482	9.319503	0.935308	0.239742	-0.575094	1.075649	2.268811	-0.49408	-0.52996	-0.325924
-5.987175	-0.011311	10.866567	-21.312498	-72.766148	7.711097	0.481072	0.348154	-0.965973	1.508377	-1.252096	9.991439	8.755694	-3.951946	-2.303248	0.213063	-0.147114	-0.933751	9.678988	1.458665	0.608011	-1.198116	0.65085	1.722954	-0.507291	-0.482413	-0.312978
-6.470489	-0.47606	9.548107	-18.451843	-74.660586	13.253299	0.46658	0.345	-0.951548	1.737538	-1.308905	9.939588	8.017221	-3.745486	-2.486757	0.23975	-0.174389	-0.975344	8.903494	0.761283	0.051576	-1.03655	0.885719	2.729841	-0.507642	-0.496953	-0.343196
-6.533933	0.384398	9.266348	-37.720375	-81.053587	18.724589	0.466937	0.365828	-0.983115	1.673928	-1.309034	9.655181	9.042657	-3.271964	-2.573708	0.226108	-0.191928	-0.945366	9.487634	1.455856	-0.17408	-1.825861	1.231944	4.473182	-0.522247	-0.544908	-0.356283
-7.944469	0.84955	10.32065	-48.381912	-83.126877	23.658496	0.494807	0.36155	-0.969738	1.205505	-0.970474	9.305957	8.266819	-3.615059	-3.194302	0.213578	-0.16029	-0.961447	9.371647	1.049842	-0.118105	-2.156158	1.586452	5.572994	-0.494084	-0.511289	-0.373345
-8.901838	1.887821	11.158861	-42.373959	-80.117211	26.419136	0.451331	0.352089	-0.926462	1.502225	-1.196003	9.708289	8.084851	-3.370677	-3.407814	0.226924	-0.143823	-0.977076	9.784625	1.106972	-0.110154	-3.811049	2.772208	5.695585	-0.508197	-0.546357	-0.325157
-9.423601	1.599539	10.806514	-32.788327	-74.399318	30.409264	0.451702	0.355617	-0.940538	1.623616	-1.308642	9.99381	7.661233	-2.699914	-3.648108	0.23975	-0.174389	-0.975344	9.4919	1.514921	0.065795	-5.125313	3.739071	6.398711	-0.493592	-0.498401	-0.31207
-10.061485	2.000397	10.397983	-19.119239	-65.897087	31.826521	0.465423	0.386313	-0.961795	1.387202	-1.252118	9.705824	5.762745	-3.856235	-4.000239	0.240045	-0.173317	-0.989694	9.549526	1.165836	-0.054402	-5.769581	4.16532	6.368446	-0.479759	-0.4787	-0.374949
-9.794059	1.881205	9.436565	-16.811183	-58.393844	29.918062	0.437582	0.355992	-0.940189	1.265704	-1.083148	9.42035	7.528926	-3.434233	-4.148761	0.213873	-0.159218	-0.975797	10.025091	1.107421	0.133875	-6.604076	3.607289	6.802034	-0.5219	-0.511697	-0.373485
-10.714625	1.938345	9.191579	-16.035038	-49.647597	26.194409	0.408955	0.370512	-0.942906	1.676346	-1.30894	9.76846	9.343711	-3.939064	-3.135001	0.213578	-0.16029	-0.961447	9.963604	1.223214	0.013455	-7.381546	3.058309	6.379568	-0.494013	-0.512115	-0.357817
-10.661659	1.707572	8.964314	-14.155881	-40.425713	21.616644	0.437196	0.369763	-0.943605	1.732164	-1.027442	9.713267	9.723197	-3.230058	-2.973507	0.187551	-0.175761	-0.959892	10.030863	0.992505	0.432915	-7.486692	2.243712	5.252957	-0.479688	-0.479526	-0.359421
-11.180129	3.028618	8.846137	-12.156582	-30.47651	15.271662	0.451688	0.372917	-0.95803	1.501017	-1.19605	9.651649	10.980648	-3.862997	-2.20809	0.213502	-0.175611	-0.960443	9.49105	0.933667	-0.056491	-8.386963	1.227566	5.597274	-0.494151	-0.529134	-0.341452
-10.543028	2.167987	9.195884	-7.122306	-20.578133	9.192881	0.409312	0.39134	-0.974474	1.846409	-1.196697	9.658903	11.281532	-1.936401	-0.832259	0.226334	-0.145967	-0.948376	9.733582	0.992686	0.307599	-9.46476	0.538104	6.827044	-0.493663	-0.497575	-0.327598
-10.321597	1.878925	8.80116	-2.338327	-11.418194	3.04127	0.423804	0.394493	-0.988899	1.791369	-1.252825	9.770926	11.10737	-0.906804	0.811728	0.214168	-0.158147	-0.990146	9.733042	1.22499	0.308588	-10.882214	-0.089505	7.874372	-0.479129	-0.448793	-0.330039
-9.756474	1.359847	8.412152	-0.806307	-3.892349	-1.318328	0.437939	0.37682	-0.971757	1.743582	-1.308668	10.222786	9.424654	-2.062985	0.860533	0.213798	-0.174539	-0.974793	9.906924	1.165767	0.131921	-11.845735	-1.351202	8.281227	-0.52162	-0.496331	-0.358794
-9.476427	0.726336	8.073946	-1.15794	0.597895	-4.40319	0.409326	0.37404	-0.956982	1.854332	-0.914712	10.055617	8.701374	-2.940091	2.300155	0.226403	-0.190856	-0.959715	10.321948	0.816613	0.198048	-11.75015	-3.160883	5.84435	-0.508063	-0.510667	-0.388943
-8.571781	1.125351	7.52492	-2.095671	6.572386	-3.107313	0.423447	0.373666	-0.957332	1.319325	-1.306383	11.912303	9.260102	-12.495745	1.650683	0.226183	-0.176608	-0.946369	10.141908	1.629835	0.138301	-11.537729	-4.492044	1.540441	-0.508268	-0.54553	-0.340685
-8.33109	0.380858	8.094768	-1.250119	11.818684	0.77837	0.395963	0.364172	-0.967293	1.474989	-1.25104	11.123023	6.822338	-19.49439	2.688953	0.187255	-0.176833	-0.945542	9.90872	1.34049	0.252477	-10.67767	-4.796631	-4.20698	-0.521408	-0.498809	-0.312211
-7.7189	0.089334	7.19616	1.463758	15.950292	6.14315	0.409698	0.377569	-0.971058	1.694048	-1.082906	10.618244	7.990839	-27.349641	0.977899	0.201117	-0.173542	-0.988867	10.317566	1.28048	0.020305	-11.315252	-4.852158	-7.932896	-0.438449	-0.529143	-0.325643
-6.564282	-3.306676	19.252353	-5.020838	19.205388	11.857312	0.452445	0.362674	-0.96869	1.854632	-1.703387	9.998313	9.073883	-32.258779	-1.258829	0.225668	-0.163431	-0.918673	10.261696	0.874577	0.137288	-12.021784	-4.269742	-8.299847	-0.494222	-0.528307	-0.35698
0.964519	-8.456371	11.875476	143.834303	50.39588	70.190357	0.423461	0.356366	-0.93984	1.761762	-0.06859	11.186703	19.529026	-26.293255	-2.177604	0.225593	-0.178751	-0.91767	10.081211	0.932316	-0.045487	-11.692413	-3.967147	-4.910184	-0.50813	-0.528512	-0.35705
7.279734	46.297926	29.732872	171.438232	59.263241	-1.217207	0.438325	0.363048	-0.968341	4.287692	-1.254269	13.503274	40.284683	-36.321527	-32.347779	0.173984	-0.17798	-0.930916	10.380984	1.281334	0.261033	-10.872191	-5.834783	-4.445816	-0.494084	-0.511289	-0.373345
2.561225	2.616581	9.111685	124.286178	105.752273	-20.475649	0.466566	0.362299	-0.969039	2.847089	1.168396	10.927517	24.63325	-50.853416	-11.9434	0.148252	-0.192378	-0.943711	10.671589	2.732312	0.212809	-8.927675	-7.639253	-12.665098	-0.535875	-0.529746	-0.341663
-3.74117	1.01157	8.698179	83.047672	72.966403	-56.135539	0.453588	0.33866	-0.975934	2.268146	-1.534723	10.516675	34.565036	-59.335813	-13.530262	0.161379	-0.161662	-0.945994	11.375286	3.71749	0.110404	-1.463936	-9.427551	-26.465291	-0.494151	-0.529134	-0.341452
-2.465906	2.450316	9.581505	28.090266	37.656392	-21.612468	0.497493	0.282452	-0.963319	0.622448	2.753139	14.675342	-9.091049	-67.386461	-11.703287	0.186665	-0.178976	-0.916842	11.025976	3.080205	0.280802	4.302195	-12.080752	-28.184656	-0.479897	-0.495718	-0.358584
-1.610455	-2.147076	9.237784	2.431546	5.393042	-11.082845	0.469252	0.283201	-0.96262	3.528841	-2.326006	10.202769	15.031361	-72.014041	-7.722299	0.160563	-0.209767	-0.914284	10.518615	2.796232	1.527707	3.270499	-13.910122	-11.334707	-0.479897	-0.495718	-0.358584
-0.390384	-0.478041	10.234668	-25.391386	15.840943	4.807988	0.453974	0.324889	-0.972519	1.922051	-0.292373	13.284596	11.235105	-77.149384	-13.202024	0.161008	-0.178055	-0.930641	10.516934	2.098578	1.345019	5.797429	-14.381622	11.488875	-0.466127	-0.512533	-0.342149
-1.828468	-0.421011	9.865954	-0.09302	16.201566	-0.380441	0.495964	0.320237	-0.95949	1.731499	-1.701119	12.31691	16.233933	-89.808154	-14.556899	0.161303	-0.176983	-0.94499	10.234478	1.404813	1.935619	7.37736	-14.200412	18.176351	-0.493942	-0.512941	-0.342289
-1.608689	0.036426	9.417513	-8.622796	11.144777	-2.43151	0.483344	0.317426	-0.997953	1.619132	-1.250117	12.484791	15.138595	-100.737625	-15.529554	0.147442	-0.180273	-0.901666	10.824079	1.170912	1.885728	4.380952	-13.552051	10.634209	-0.480105	-0.511911	-0.357747
-1.203123	-0.422432	9.65079	-7.880508	14.482859	1.638115	0.510085	0.319863	-0.95984	2.27696	-1.475676	13.630691	11.114515	-113.753973	-17.542585	0.121484	-0.240633	-0.911449	10.587474	1.403756	1.882315	4.740524	-13.475506	-2.571047	-0.480448	-0.563793	-0.293124
-1.317466	-0.652115	9.647597	-23.145499	12.942948	3.803743	0.497465	0.317051	-0.998302	2.449656	-1.476	13.634318	12.000562	-129.630095	-23.340927	0.095833	-0.179502	-0.914912	10.343862	1.809345	1.520202	7.038799	-13.722844	-10.40188	-0.494009	-0.530786	-0.310396
-1.307279	-0.87971	10.15831	-18.092168	12.822292	2.959221	0.467738	0.303687	-0.9413	2.633771	-1.757549	14.147464	9.864451	-147.312541	-26.508494	0.082412	-0.211289	-0.89828	9.979901	2.737641	1.098207	6.287334	-13.300137	-13.090457	-0.507988	-0.530164	-0.325994
-1.309672	-0.650426	10.045569	-3.68609	8.720066	1.992396	0.466966	0.331229	-0.948132	2.413373	-2.489083	14.538489	8.704044	-163.830239	-32.530502	0.043484	-0.211515	-0.897452	10.32398	3.257537	0.62778	7.122305	-13.519132	-12.328441	-0.49373	-0.51542	-0.295706
-1.661158	-0.4221	9.641882	-7.859428	7.776247	2.203741	0.467352	0.317458	-0.944716	2.781733	-2.488828	15.621895	6.508534	-181.332499	-35.757885	0.043629	-0.241084	-0.909795	9.843877	3.373039	0.200123	7.190158	-14.803546	-9.358215	-0.480105	-0.511911	-0.357747
-1.427562	-0.593625	9.873024	-7.79948	8.06215	1.410858	0.49745	0.33435	-1.015794	2.040444	-1.754798	16.003273	9.394277	-202.60031	-40.374865	0.043189	-0.212586	-0.883103	9.720208	3.430148	-0.101366	5.247721	-14.158753	-10.271073	-0.507988	-0.530164	-0.325994
-1.835149	-0.422458	9.524835	-8.960232	8.67133	1.424099	0.481086	0.330854	-0.948481	2.059223	-2.09207	16.852582	-7.759873	-221.072766	-47.014608	0.00411	-0.243452	-0.880268	9.905634	3.141094	0.320048	1.813175	-14.117149	-12.52028	-0.494147	-0.547805	-0.294031
-1.320107	-0.078182	9.536304	-9.272079	8.215889	0.804241	0.495607	0.299409	-0.927923	1.981913	-1.639693	18.663011	-2.222929	-243.002273	-54.071032	-0.009526	-0.200782	-0.839954	9.313967	3.316425	0.249878	0.447971	-13.733236	-14.625778	-0.494569	-0.561519	-0.339778
-1.428551	-0.766191	9.815447	-11.231068	8.136579	1.575283	0.468081	0.341814	-0.99036	1.656856	-1.525579	19.618726	-2.087782	-263.974348	-54.094174	-0.048899	-0.23272	-0.82277	8.725581	3.027642	0.297545	-2.906602	-12.70158	-14.985265	-0.494151	-0.529134	-0.341452
-1.257819	-0.88144	9.761452	-11.142424	8.021385	0.929134	0.48183	0.337911	-0.976633	1.920858	-1.468352	21.209518	28.853493	-296.60173	-58.215387	-0.101243	-0.204523	-0.794975	8.843904	3.376076	0.361136	-4.452035	-13.503734	-8.92497	-0.480381	-0.545948	-0.325017
-1.371297	-0.766233	9.81656	-10.801541	8.262548	1.484091	0.468481	0.310744	-0.969452	3.232342	-1.245983	20.671116	62.362928	-323.15644	-56.725779	-0.114665	-0.236311	-0.778342	8.008199	3.666368	-0.132289	-5.534858	-13.03156	-4.675293	-0.494565	-0.58019	-0.292357
-1.662722	-1.341647	9.524314	-12.51022	9.233749	1.872805	0.467337	0.334757	-0.962208	2.975055	-1.021273	19.420399	70.033103	-343.732756	-52.454193	-0.154478	-0.239751	-0.734466	7.894413	3.260848	0.0435	-5.059267	-11.688788	-4.224997	-0.48059	-0.562141	-0.32418
-1.546318	-0.881715	9.642178	-16.060462	9.23328	3.171049	0.439496	0.304436	-0.940602	7.389107	-1.088998	15.946352	50.259707	-343.153651	-38.500502	-0.181391	-0.258437	-0.689861	7.543618	3.2624	0.216618	-5.181321	-10.477496	-0.134982	-0.494844	-0.595556	-0.307048
-1.372493	-0.651591	9.76019	-12.386063	8.541209	3.363897	0.511614	0.282078	-0.963668	3.108571	-4.40795	11.890531	41.375475	-330.494508	-41.834507	-0.194743	-0.335115	-0.684567	8.069126	3.318024	-0.072766	-2.094746	-11.214462	7.131525	-0.508126	-0.547183	-0.309629
-1.545246	-0.824032	9.699273	-9.51601	6.865154	3.267062	0.494821	0.344251	-0.952246	5.231227	0.310432	1.239195	78.226848	-264.508596	-46.328603	-0.220689	-0.275055	-0.673681	8.899308	2.56164	0.05924	0.205723	-10.307315	14.85195	-0.508402	-0.58122	-0.2769
-1.42851	-0.823633	9.815206	-7.345261	6.264864	2.88305	0.466966	0.331229	-0.948132	-5.104744	-2.657264	-0.735541	14.269531	-209.587144	-32.826344	-0.261834	-0.313424	-0.570398	8.960505	2.097144	0.11827	2.33631	-7.663222	17.215822	-0.480519	-0.562967	-0.308652
-1.72035	-0.824632	9.525373	-5.10372	6.732799	3.190876	0.495593	0.316709	-0.945414	-5.844145	-2.42544	5.080394	-42.091952	-150.254673	-34.224423	-0.2754	-0.315643	-0.541423	9.143481	2.388603	0.482249	5.879784	-6.310908	14.842889	-0.494009	-0.530786	-0.310396
-1.657652	-0.651142	9.811476	-6.082527	6.691231	3.745029	0.509699	0.333634	-0.963255	-8.090718	-3.036247	10.29779	-19.388779	-79.610518	-29.435182	-0.300988	-0.35961	-0.56656	9.846598	2.676373	0.257063	9.040678	-5.898384	11.528333	-0.479964	-0.513563	-0.326691
-1.201388	-1.283813	9.704023	-5.835707	6.812866	3.960966	0.524977	0.291946	-0.953357	-4.200485	-1.129144	9.418735	23.924423	-24.284602	-14.793402	-0.301427	-0.331113	-0.539868	10.155829	2.272133	0.979717	10.16825	-3.975108	6.349574	-0.480452	-0.545122	-0.340545
-1.660868	-0.824191	9.640192	-6.753011	7.052683	4.12084	0.495964	0.320237	-0.95949	-9.162121	-1.683655	8.747899	67.254677	47.773259	2.63582	-0.314919	-0.318012	-0.511896	10.797324	2.733772	0.634358	11.06657	1.674386	4.577197	-0.480728	-0.579159	-0.307815
-1.718288	-0.594383	9.640044	-5.77251	6.995453	4.147755	0.510471	0.306091	-0.956424	-6.733784	-3.042166	6.47652	73.125144	50.997094	8.560843	-0.287711	-0.298254	-0.57085	10.740509	2.734402	0.753072	12.603402	4.51469	-0.393193	-0.452632	-0.563385	-0.292984
-2.05472	-1.167102	9.972069	-4.913374	7.340977	3.844226	0.466594	0.327701	-0.934056	-5.327466	-4.84886	4.806037	63.76634	52.667988	2.034305	-0.27518	-0.329891	-0.554769	10.804467	2.502952	0.992811	13.81525	6.209055	-1.139172	-0.494565	-0.58019	-0.292357
-1.488033	-0.766632	9.700627	-6.844162	7.081247	4.274902	0.49635	0.306466	-0.956074	-6.581067	-4.848351	2.684985	37.724083	61.089057	-5.11664	-0.288382	-0.375928	-0.551482	10.1583	2.156475	1.099036	11.98242	9.647182	-2.952122	-0.494285	-0.564824	-0.277666
-1.490177	-0.881998	9.586439	-6.540978	6.622755	4.174577	0.497493	0.282452	-0.963319	-8.672735	-4.617524	4.452912	19.881867	80.529592	-13.045251	-0.288376	-0.315718	-0.541147	9.873933	1.810919	1.631213	6.229209	10.623434	-7.64243	-0.452774	-0.561733	-0.324039
-1.829457	-0.593577	9.808377	-4.552412	6.486049	3.491952	0.509313	0.347405	-0.966671	-7.061044	-3.040808	7.318861	15.169865	112.478845	-20.28381	-0.248933	-0.328669	-0.56967	9.580399	2.567325	1.808645	9.739463	11.735381	-4.512624	-0.494565	-0.58019	-0.292357
-1.490218	-0.824556	9.58668	-6.05306	6.162688	4.288364	0.508956	0.326577	-0.935103	-6.83715	-2.872485	7.040641	25.582371	141.384733	-25.62908	-0.249448	-0.315493	-0.541974	9.399489	2.334437	1.564727	8.654925	10.841193	-4.198812	-0.508406	-0.562549	-0.32432
-1.366926	-0.650385	10.044455	-7.345209	5.795205	3.6421	0.480315	0.358396	-0.955313	-6.172205	-3.269135	5.808744	25.248927	167.722948	-34.676747	-0.261394	-0.341921	-0.59709	9.096165	2.565685	1.140866	9.501066	10.069728	-6.21526	-0.480869	-0.577507	-0.33887
-1.831477	-0.881267	9.693464	-5.513506	4.823173	3.375692	0.482987	0.296598	-0.966385	-4.692213	-3.385262	5.047127	8.404	190.148173	-44.701206	-0.222096	-0.325304	-0.613271	8.625676	2.334709	1.19098	8.575507	9.166962	-5.015702	-0.494498	-0.562345	-0.32425
-1.372079	-1.226006	9.757777	-2.702686	3.296987	3.588136	0.537583	0.312057	-0.932386	-4.606282	-3.046249	6.407971	-15.690992	206.538111	-50.105967	-0.195333	-0.337258	-0.655868	9.217478	2.101301	1.260903	8.98507	8.034026	-1.802764	-0.466544	-0.544918	-0.340474
-1.714616	-1.053192	9.808673	2.469302	2.028359	3.736635	0.466952	0.348528	-0.965624	-4.523738	-2.200355	7.655962	-29.801002	216.889759	-49.521064	-0.182137	-0.351432	-0.66949	9.265625	2.040618	0.662687	8.259027	6.33146	8.783041	-0.494986	-0.593904	-0.338104
-1.248372	-1.62625	10.213139	8.930607	0.727701	4.524911	0.494835	0.326952	-0.934754	-4.73211	-1.635718	8.727753	-38.929481	226.23934	-40.619283	-0.181472	-0.333968	-0.699193	9.442673	2.040213	0.665988	7.555747	7.594077	13.639496	-0.466473	-0.545744	-0.324947
-1.772901	-1.168275	9.750224	16.83386	-0.196064	5.19249	0.495993	0.285638	-0.924507	-4.261245	-1.354501	9.247418	-47.408368	233.869196	-25.044622	-0.156041	-0.380851	-0.682384	9.088016	1.808472	0.59849	6.926405	9.23389	14.581505	-0.49408	-0.52996	-0.325924
-1.999858	-0.93786	9.860441	15.762351	-0.454577	5.866046	0.510085	0.319863	-0.95984	-3.377992	-1.580681	10.171596	-54.966449	238.774538	-7.800346	-0.116302	-0.39273	-0.725257	8.908362	1.98261	0.476116	5.748371	9.145239	7.953453	-0.494777	-0.577711	-0.338941
-1.66425	-0.767473	9.469875	18.301961	-0.806964	5.454339	0.496336	0.323765	-0.973566	-2.674125	-1.468791	10.809233	-64.874898	240.936627	7.658086	-0.063143	-0.372822	-0.784762	9.190102	2.037045	-0.237017	6.715879	10.706711	2.227006	-0.507642	-0.496953	-0.343196
-1.664001	-1.112122	9.468427	22.77613	-1.381105	6.413467	0.495593	0.316709	-0.945414	-1.573044	-2.146568	11.114831	-71.853766	242.247611	18.455642	-0.037555	-0.328855	-0.759625	8.367873	2.214152	-0.012054	6.447277	12.70371	-4.62757	-0.48031	-0.546775	-0.309489
-1.607369	-0.250541	9.47316	16.991642	-0.552869	6.903579	0.524577	0.323016	-0.974265	-0.482713	-2.261419	10.967787	-83.861272	241.579567	27.164079	-0.049871	-0.371675	-0.799388	8.316404	1.809238	0.344556	7.396015	12.658575	-5.853254	-0.49471	-0.559866	-0.370833
-1.429706	-0.708991	9.758835	15.161605	-1.436684	2.785101	0.496364	0.289167	-0.938583	0.302011	-2.317728	12.682643	-97.112162	240.118218	33.027388	0.016195	-0.306803	-0.84783	8.426734	1.807238	-0.072591	6.770727	11.868768	-0.682229	-0.480243	-0.52893	-0.341382
-1.895205	-1.169881	9.350025	18.709103	-0.486174	7.145052	0.496736	0.292695	-0.952659	1.708081	-2.488358	13.844307	-105.118816	237.788411	36.697376	0.002773	-0.338591	-0.831197	8.420266	1.747678	-0.43228	5.329232	10.855308	2.170192	-0.480798	-0.578333	-0.323343
-1.486795	-0.938716	9.756756	18.047015	-1.249271	3.69986	0.481458	0.334383	-0.962557	0.642011	-3.048572	15.066935	-103.777014	236.911056	42.393366	0.055048	-0.321898	-0.847653	8.895696	1.74734	-0.243755	6.440951	10.669762	2.747757	-0.508339	-0.544704	-0.356213
-1.706946	-0.879178	10.207369	23.146401	-0.885938	6.267114	0.510471	0.306091	-0.956424	2.028979	-2.712939	15.379431	-105.673148	229.087243	45.859472	0.107843	-0.258173	-0.88147	8.597854	1.514969	-0.429967	4.956566	9.492827	3.645096	-0.466961	-0.577303	-0.3388
-1.665162	0.496241	9.475183	27.402207	-0.229506	4.333512	0.510871	0.275021	-0.935516	4.228337	-2.603899	15.99186	-109.850059	209.169606	44.517038	0.134605	-0.270127	-0.924067	8.073582	1.401515	-0.080924	2.485017	7.688956	-0.249446	-0.494151	-0.529134	-0.341452
-1.956463	-0.251498	9.182213	19.061328	-0.157805	2.733324	0.484516	0.258813	-0.970214	6.001854	-3.17102	15.462466	-115.398202	183.361707	41.635014	0.121484	-0.240633	-0.911449	8.372234	1.28543	0.103804	0.880957	6.967077	-4.946777	-0.466402	-0.54657	-0.309419
-2.063343	-0.01996	9.578923	17.384922	1.154054	2.912807	0.453631	0.286762	-0.923459	6.37483	-2.665938	14.112005	-134.751243	163.135852	38.427541	0.147731	-0.239411	-0.92635	8.369898	1.343012	-0.015762	-1.518304	5.609072	-7.559884	-0.480527	-0.525625	-0.403493
-1.314913	0.439998	9.822742	11.75049	0.770902	4.57883	0.469638	0.26943	-0.959205	7.497046	-2.385195	15.494562	-164.074104	151.50341	36.561672	0.187695	-0.20533	-0.972234	8.436617	1.344607	0.404686	-2.41509	3.778961	-5.408612	-0.494502	-0.543674	-0.371671
-1.718081	-0.881591	9.638838	18.293025	0.470986	1.181708	0.513486	0.28242	-1.016556	9.443095	-1.992588	17.743732	-167.303191	145.433287	35.666239	0.174424	-0.206477	-0.957609	8.434437	1.808968	0.346757	-2.023962	2.342901	0.495344	-0.480873	-0.558836	-0.386291
-1.834118	-0.307334	9.582171	15.806298	-0.184931	1.086204	0.525734	0.281703	-0.964017	11.542269	1.04666	19.319083	-142.418647	141.161661	39.09674	0.213798	-0.174539	-0.974793	9.687366	1.170016	1.026123	-1.841833	1.451963	6.856202	-0.494643	-0.542021	-0.402726
-1.433213	-0.479949	9.589241	15.614472	-0.569659	-0.29955	0.497879	0.268681	-0.959903	13.366014	1.155161	18.508269	-107.38716	135.029725	37.429871	0.23975	-0.174389	-0.975344	9.208499	1.227689	0.658125	-1.420266	-0.359149	7.627435	-0.49471	-0.559866	-0.370833
-1.714782	-0.823426	9.809638	16.239536	-2.672913	-1.592924	0.511242	0.278549	-0.949592	14.06303	0.813737	16.088198	-84.074435	132.98274	30.183159	0.266888	-0.109741	-1.02296	10.21658	1.052154	0.915719	0.551805	-1.405328	8.909011	-0.480728	-0.579159	-0.307815
-1.841166	-1.34297	9.179855	13.781045	-3.509611	-1.998132	0.513143	0.244293	-0.967496	15.508181	0.583574	13.683937	-75.50904	139.520383	16.782603	0.266888	-0.109741	-1.02296	9.857677	1.226203	0.67023	2.246808	-1.11487	13.944821	-0.45264	-0.526043	-0.387825
-1.769193	-0.133362	9.98198	21.094848	-4.57239	-2.864506	0.524963	0.309245	-0.970849	16.429012	0.69451	13.703374	-73.567478	147.196203	-0.865879	0.319608	-0.061336	-1.055773	10.04656	1.34467	1.333002	0.930511	-1.793133	11.049063	-0.480594	-0.54347	-0.3716
-0.613975	0.627307	13.474312	0.055784	9.882635	-6.831972	0.510842	0.30962	-0.9705	18.085112	0.690863	13.115397	-62.1752	142.174206	-21.376093	0.371066	-0.092749	-1.040519	10.52085	0.414373	1.33785	-0.858567	-2.391388	6.168001	-0.480102	-0.530582	-0.310326
-1.791847	-0.240725	11.742829	3.094456	27.39971	-2.753068	0.483773	0.251756	-0.942062	18.870585	0.632218	12.169401	-55.300986	124.759511	-38.991505	0.332729	-0.09083	-1.068391	10.103335	0.41433	1.090519	-0.035461	-3.988386	1.160183	-0.480802	-0.559662	-0.370763
-1.643591	-0.073591	10.552979	7.541156	33.175863	-3.50003	0.468481	0.310744	-0.969452	19.917853	0.91002	10.040303	-53.700663	101.583061	-48.191005	0.423491	-0.045415	-1.058982	10.040612	0.587951	0.910439	-0.401784	-2.409912	5.157814	-0.480314	-0.528103	-0.35691
-1.666162	-0.295837	12.313346	7.537509	39.549633	0.835792	0.526863	0.274989	-0.988753	18.694735	2.03842	9.449468	-53.557029	76.399046	-48.93462	0.397909	-0.029173	-1.073784	9.743196	0.646208	0.785371	-1.39348	0.583463	11.137834	-0.480661	-0.561314	-0.339708
-1.80554	0.215912	11.062523	12.500342	53.175385	1.809685	0.483744	0.286355	-0.977046	17.885023	3.391814	9.377042	-54.741024	52.374181	-37.861609	0.397168	-0.061958	-1.043078	9.694353	0.532416	1.322938	-2.13586	3.289944	12.411367	-0.522597	-0.559448	-0.386502
-1.580686	-0.187309	10.837875	7.437772	56.898015	2.068776	0.525734	0.281703	-0.964017	16.676412	4.520782	9.465882	-46.735154	29.958596	-21.154478	0.436247	-0.031092	-1.045912	10.217526	0.645622	0.913988	0.417491	5.642194	13.582968	-0.48094	-0.576681	-0.354398
-1.565098	-0.183932	11.633819	2.080306	63.026079	1.447792	0.498279	0.237611	-0.938995	16.043801	6.099365	9.623831	-35.001606	7.359565	2.274926	0.41059	-0.03017	-1.05971	10.506564	0.876015	0.620945	3.89658	7.810161	15.149471	-0.507921	-0.512319	-0.357887
-1.899965	0.162896	12.08341	-0.086165	70.096827	0.280926	0.511628	0.264778	-0.946176	15.858131	5.930175	8.997026	-19.887639	-12.078227	21.978405	0.40978	-0.018065	-1.017665	10.095227	0.586827	0.671912	4.725964	9.464743	12.204213	-0.49471	-0.559866	-0.370833
-2.078202	-0.125634	11.737745	2.344845	76.624706	0.073373	0.542141	0.233301	-0.978855	13.087823	5.25905	8.541952	-3.433724	-28.584373	36.440894	0.423491	-0.045415	-1.058982	10.278452	0.297278	0.973512	8.229073	9.220664	10.389318	-0.508551	-0.542225	-0.402796
-2.063395	-0.58203	12.474904	9.209031	85.336516	1.452624	0.54137	0.260843	-0.985687	15.111639	-3.642892	10.897786	4.674009	-40.572636	51.774462	0.397689	-0.014925	-1.060438	10.097718	0.936025	0.853116	14.658883	7.905402	9.63874	-0.507921	-0.512319	-0.357887
-2.051105	-0.636818	13.100047	16.910952	100.440442	3.025382	0.538355	0.284515	-0.925554	28.965464	8.386006	11.369201	173.945324	-121.85988	41.822624	0.371668	0.029815	-1.048548	9.685685	0.472362	0.843435	18.633343	7.739629	9.288919	-0.494781	-0.55904	-0.386361
-2.498006	-0.634074	13.65967	13.345488	112.577981	4.122337	0.567367	0.256223	-0.919421	-11.308201	-4.21773	5.02067	38.2222	-119.71473	31.838138	0.358246	-0.001973	-1.031915	10.279303	0.878533	1.095798	19.510589	8.427182	5.217363	-0.508551	-0.542225	-0.402796
-1.550022	1.440396	15.391766	12.55819	132.37075	5.795775	0.581859	0.259377	-0.933846	5.687947	1.224972	17.328019	44.901567	-129.703276	-4.479738	0.358316	-0.046862	-1.043254	10.279884	1.575939	1.218579	17.494481	9.712125	-4.378244	-0.480385	-0.527277	-0.372437
-2.470666	0.061256	15.083893	14.470901	148.687946	6.116931	0.583017	0.218064	-0.923599	1.469098	5.229591	14.129166	251.809706	-110.145808	39.41197	0.319388	-0.047088	-1.042427	11.587238	2.911437	1.90745	7.502966	14.73618	-17.415247	-0.480456	-0.526451	-0.387965
-3.015202	-1.713227	16.429752	1.66572	167.371017	8.389604	0.610858	0.248385	-0.945205	10.012226	0.930753	12.323304	138.209572	-41.320512	36.150799	0.306337	-0.062483	-1.041147	13.007413	4.594132	2.360379	-10.963727	20.472236	-25.290178	-0.494502	-0.543674	-0.371671
-2.315077	-1.308739	17.12704	-7.381234	191.928879	14.028218	0.638356	0.24058	-0.917751	1.426105	2.183462	9.143529	75.650304	-25.996031	-4.318267	0.319753	-0.090905	-1.068115	12.641967	6.161264	1.941103	-22.915769	28.586449	-18.28793	-0.466619	-0.52542	-0.403423
-2.411355	-1.879211	18.032049	-12.739998	224.450612	17.363097	0.666225	0.236302	-0.904374	0.514248	-2.375201	11.837837	21.891347	-5.057487	4.725151	0.306262	-0.077803	-1.040144	12.631078	5.63586	1.279902	-1.370563	30.586583	5.767961	-0.508272	-0.526859	-0.388106
-2.288519	-1.073183	18.492479	-41.859741	249.797829	23.225415	0.679246	0.208043	-0.845003	0.990158	-1.814479	9.923445	35.770722	-14.093683	2.056894	0.29284	-0.109591	-1.023511	11.537448	3.016464	-0.787865	25.867845	29.67905	26.000532	-0.480385	-0.527277	-0.372437
-1.670037	0.085366	20.89627	-32.669277	274.277406	28.963219	0.707487	0.207294	-0.845702	0.967991	-0.970327	8.961284	36.034197	-17.963447	-1.218322	0.28031	-0.077954	-1.039592	10.037869	0.632047	-2.442999	23.543649	29.596058	18.428405	-0.550346	-0.542011	-0.418535
-1.076662	-1.002095	21.926176	-10.690827	317.75922	37.027516	0.763212	0.216039	-0.836438	0.912388	-1.364485	9.016382	20.431336	-13.503501	-0.754941	0.266888	-0.109741	-1.02296	9.05	0.637804	-1.62301	11.022761	38.901911	4.705344	-0.480806	-0.540991	-0.418184
-1.47011	1.182904	22.382376	-9.625797	347.23179	34.345857	0.789209	0.211419	-0.770173	1.381027	-1.815707	9.365512	19.07571	-10.706807	0.350758	0.266442	-0.141454	-1.006603	9.060795	2.150994	-0.837792	4.252019	33.902085	-8.204758	-0.494781	-0.55904	-0.386361
0.708551	2.573236	25.556286	66.140461	373.90934	34.991139	0.846477	0.165079	-0.747246	1.326549	-1.533805	9.534459	20.073641	-9.929405	0.636744	0.318717	-0.124762	-1.023059	8.479923	3.839516	-0.122744	-0.728055	25.644086	-16.031781	-0.466693	-0.505923	-0.466371
-3.050192	-0.157198	17.629068	98.321781	400.372019	20.304351	0.844605	0.164737	-0.694358	0.691235	-1.701706	9.407739	17.715821	-8.390558	-0.120556	0.292394	-0.141304	-1.007154	8.378843	4.598977	0.896686	0.808527	17.306196	-4.96529	-0.453408	-0.572967	-0.416369
-1.524786	3.149268	25.515273	54.846303	410.47769	17.926219	0.912965	0.158994	-0.62914	1.278547	-1.476987	9.986414	13.689718	-6.815988	-0.200623	0.278903	-0.128202	-0.979182	7.961983	3.843698	0.586235	10.749699	8.499355	10.016846	-0.466619	-0.52542	-0.403423
-0.585528	0.338553	26.601474	97.151823	410.071708	3.354114	0.984725	0.115808	-0.620639	0.872286	-1.645366	9.807891	10.729788	-6.508642	-1.371415	0.278903	-0.128202	-0.979182	8.732164	2.56427	0.595101	13.740762	8.29927	21.530626	-0.467178	-0.556153	-0.432804
-1.648885	-2.080724	24.80885	104.645894	386.470235	-23.120966	0.939734	0.126832	-0.556043	0.758364	-1.645103	9.862112	6.045612	-5.677498	-1.582715	0.292174	-0.127055	-0.993808	8.914289	2.274474	0.836794	6.545673	11.684945	25.911849	-0.494852	-0.558214	-0.401889
3.834521	-5.649456	24.104841	178.61661	394.786912	7.102672	0.99473	0.11122	-0.501136	1.448394	-1.252083	9.876951	6.424243	-5.087526	-1.977308	0.253171	-0.142601	-0.991977	9.620397	1.749428	0.668053	4.773044	15.592065	23.148423	-0.481645	-0.587089	-0.462256
3.869176	-3.845652	2.57439	234.125442	362.534104	-38.08564	0.995902	0.052608	-0.473397	0.920635	-1.251492	9.412954	2.817606	-4.548119	-2.37561	0.266222	-0.127206	-0.993256	9.910671	1.921992	0.43467	-2.462117	14.852564	9.331377	-0.467178	-0.556153	-0.432804
7.690311	-10.245895	-15.904977	220.228424	268.875739	-35.704969	0.979509	0.083711	-0.441067	0.9861	-1.589299	9.753716	-1.626974	-4.382456	-3.518172	0.280014	-0.079025	-1.025243	10.437705	2.268491	0.266336	-8.743461	14.586419	-5.559513	-0.466898	-0.540787	-0.418114
12.888469	-10.961783	-7.680135	49.106491	65.403022	-58.799115	1.020771	0.054703	-0.382395	1.160221	-1.702236	9.813888	-4.165473	-4.899615	-4.388536	0.267108	-0.12399	-1.036306	10.484501	2.788568	-0.329407	-14.545833	15.567306	-13.672279	-0.508275	-0.508188	-0.435526
24.357354	-6.397907	14.100912	1.054464	-3.28984	3.224935	1.049783	0.026411	-0.376262	1.392015	-1.871611	9.875221	-2.034283	-7.498589	-6.077363	0.254132	-0.124065	-1.03603	10.013742	2.673743	-0.278798	-18.680695	12.202253	-15.077539	-0.494927	-0.538716	-0.464837
8.089703	3.583759	7.973028	49.828454	-34.298292	11.688601	1.007393	0.062134	-0.410198	1.396203	-1.533438	10.102064	-3.782172	-6.479086	-5.945321	0.24049	-0.141604	-1.006051	10.603634	2.788545	-0.267299	-18.682014	6.612386	-12.881139	-0.438669	-0.489322	-0.467068
7.961545	-8.368823	6.783547	1.934071	-77.091658	2.820534	1.020799	0.020104	-0.347412	1.621306	-1.365067	9.880483	0.560871	-7.465461	-6.105773	0.266738	-0.140382	-1.020952	9.065757	2.384535	-0.537269	-19.355286	0.259725	-14.040211	-0.480948	-0.539338	-0.449239
4.817335	-3.916924	12.992499	26.461245	-95.889783	35.500798	1.006636	0.072377	-0.399538	1.503303	-1.759308	9.707815	0.837085	-7.614661	-6.199518	0.253542	-0.126209	-1.00733	9.367421	1.920487	-0.23421	-22.849892	-0.135969	-15.431394	-0.453132	-0.53893	-0.449099
5.013223	-4.581116	5.435064	99.301278	-104.090133	45.459839	1.023043	0.023974	-0.414376	1.339177	-1.814983	10.100618	3.578648	-8.222763	-6.357497	0.266662	-0.155703	-1.019949	9.779028	2.093523	-0.285672	-25.305673	-1.596623	-17.004593	-0.480806	-0.540991	-0.418184
6.978488	-5.050543	3.482248	56.970455	-152.768845	46.906704	1.023771	0.04833	-0.46002	0.926225	-1.645616	9.639181	6.423387	-7.973042	-6.198586	0.239454	-0.175461	-0.960995	9.553158	2.444992	0.310478	-23.372277	-4.898179	-19.471072	-0.495135	-0.554909	-0.464
6.104937	-5.32792	5.623643	28.862419	-199.266715	56.319311	1.008908	0.041648	-0.431518	1.271617	-1.646263	9.646434	6.622785	-6.780743	-5.261739	0.24049	-0.141604	-1.006051	9.681499	2.272719	0.8511	-20.276045	-12.646169	-11.530508	-0.453829	-0.586681	-0.462116
4.856309	-5.09483	6.168642	14.543875	-236.872703	67.859422	0.984068	0.004955	-0.487537	1.220982	-1.476879	9.985205	9.62453	-6.2579	-4.360119	0.279864	-0.109666	-1.023235	9.425397	3.314672	-0.107362	-18.587228	-19.274071	-8.846239	-0.467528	-0.570693	-0.463023
4.200143	-4.685486	7.748856	-4.591322	-265.117174	78.982175	0.983682	0.018726	-0.490952	1.277877	-1.758687	9.929537	13.271624	-6.11663	-4.818197	0.240346	-0.112035	-0.993709	9.315858	2.503361	0.246417	-15.338433	-21.371072	-14.92943	-0.494785	-0.540369	-0.433782
3.918982	-4.052216	8.030208	-7.234928	-281.505401	87.64377	0.970276	0.060756	-0.553739	1.560438	-1.534094	9.709213	12.942609	-5.176939	-3.7918	0.226698	-0.189784	-0.974065	7.301221	3.145304	-0.14772	-15.636797	-18.538345	-22.795343	-0.439153	-0.539552	-0.433501
4.324626	-3.074794	8.32637	-19.569967	-294.72677	89.794263	0.943178	0.037491	-0.560284	1.213166	-1.815194	9.588443	13.994593	-4.983239	-3.234125	0.279343	-0.156699	-1.005875	8.782646	2.446005	0.116452	-13.441867	-9.683611	-17.650698	-0.466902	-0.522115	-0.465534
4.060417	-2.782554	9.459071	-30.886545	-300.946675	82.798536	0.972919	0.033556	-0.599795	1.160891	-1.420536	9.870764	15.377847	-5.545636	-3.639367	0.24012	-0.157996	-0.990698	8.962591	2.62057	0.300216	-15.386556	-9.862402	-1.017839	-0.480948	-0.539338	-0.449239
3.142528	-1.805626	9.388505	-38.046071	-302.533875	73.321423	0.905332	0.011757	-0.658181	1.154308	-1.13912	9.587804	15.906442	-5.320688	-4.191606	0.24012	-0.157996	-0.990698	8.494168	2.448164	0.470391	-16.081294	-7.653572	4.017071	-0.453203	-0.538104	-0.464627
2.297239	-2.031875	10.053074	-52.207932	-302.049892	57.459598	0.877462	0.016035	-0.671559	1.047854	-1.251234	9.981768	15.594791	-5.539269	-4.19403	0.239755	-0.114179	-0.965009	8.683031	2.101775	1.071278	-12.529443	-4.044512	11.169692	-0.494576	-0.524176	-0.434619
2.077295	-2.259546	10.50248	-63.611856	-301.364226	41.223676	0.906032	0.070712	-0.738808	0.984676	-1.476685	9.697172	14.919442	-5.353833	-5.734119	0.23953	-0.16014	-0.961998	8.983169	1.346853	1.253287	-11.614051	-2.677894	24.273186	-0.48109	-0.537686	-0.480295
1.569136	-1.338419	10.894291	-77.090757	-300.348586	19.478003	0.865171	0.06865	-0.776573	1.677101	-1.703253	9.768128	16.613516	-5.873795	-7.340966	0.240415	-0.156925	-1.005047	9.575801	1.229845	1.383611	-12.009096	-3.590685	26.632795	-0.481019	-0.538512	-0.464767
1.121625	-3.576378	11.330797	-104.910041	-300.501479	2.627974	0.794182	0.084293	-0.778243	1.218133	-1.251652	9.872116	15.93728	-8.488125	-12.145766	0.266072	-0.157846	-0.991249	8.928824	1.231825	1.49132	-12.36285	-3.267075	1.109698	-0.48081	-0.52232	-0.465604
-0.41385	-4.090061	11.810238	-131.690572	-290.921203	-6.462633	0.795682	0.081107	-0.817055	1.557912	-1.477858	9.595981	12.510606	-5.409035	-6.661438	0.226629	-0.144895	-0.962726	8.935427	1.233308	1.850761	-11.832386	-0.831144	-12.442589	-0.508413	-0.525207	-0.419161
-2.37087	-2.69964	14.221741	-132.016853	-287.883904	-8.4979	0.697167	0.139156	-0.881161	1.149819	-0.688618	9.418264	17.604595	-2.823854	-2.90147	0.252656	-0.129424	-0.964281	8.164241	1.524702	1.657971	-10.207629	0.120556	-21.101147	-0.467599	-0.569867	-0.478551
-2.119624	-2.637539	15.363498	-142.277554	-276.281342	-15.548843	0.696796	0.135627	-0.867086	1.919235	-1.590549	10.339455	15.678442	-3.849652	-4.516269	0.227069	-0.173392	-0.989418	8.395363	1.755477	1.423734	-8.752292	-0.379511	-13.647726	-0.439224	-0.538726	-0.449029
-2.659219	-1.99803	17.06061	-125.315232	-265.23081	-25.23315	0.641414	0.16501	-0.925408	1.332725	-0.970215	9.874771	23.617412	-3.893186	-5.897563	0.253982	-0.154706	-1.034023	8.339628	1.291499	1.540469	-9.429498	-0.818712	-12.818067	-0.46669	-0.524594	-0.418951
-3.360132	-1.311129	16.367907	-108.888062	-250.414614	-36.235676	0.6418	0.151239	-0.921993	1.225709	-1.420359	10.211811	25.088535	-1.884456	-0.728148	0.227515	-0.141679	-1.005775	8.872705	1.40693	1.670682	-6.549643	-2.042988	-8.788703	-0.466272	-0.492209	-0.420625
-4.463016	-2.060459	15.54767	-107.999047	-244.053938	-54.111207	0.584146	0.21135	-0.948335	1.402463	-1.645862	10.385167	26.807784	-2.74838	-1.259432	0.266292	-0.172095	-1.004595	8.622334	1.404256	0.88749	-3.04146	-4.09777	-7.049629	-0.480881	-0.521493	-0.481132
-5.340928	-1.834173	14.565431	-118.459966	-244.798792	-76.765691	0.557033	0.205384	-0.972373	1.409501	-1.532917	10.725099	29.064488	-10.20844	-4.907829	0.252801	-0.158993	-0.976624	8.976006	1.112818	0.83295	-2.121028	-4.116836	-7.847458	-0.481157	-0.555531	-0.448402
-7.678628	-1.428212	15.033144	-141.021464	-236.231782	-87.208601	0.526892	0.24039	-0.95377	1.963419	-0.915165	9.774837	33.602713	-10.250467	-3.733138	0.227069	-0.173392	-0.989418	9.208904	1.053461	0.657384	-1.399404	-5.290108	-9.494753	-0.494923	-0.557387	-0.417417
-11.759049	-0.841645	17.115804	-156.469531	-211.71126	-69.276895	0.500523	0.241481	-1.005959	1.458196	-0.688351	10.387182	32.958766	-10.119527	-6.260233	0.226554	-0.160215	-0.961723	9.506476	1.401983	0.84409	-0.160994	-5.79211	-7.846562	-0.494647	-0.52335	-0.450147
-17.679868	1.92758	18.830883	-145.404353	-191.94753	-33.585984	0.472267	0.25953	-1.022753	1.648224	-1.533016	11.126412	21.640451	-32.391161	1.185385	0.212982	-0.222644	-0.943083	9.85258	1.050739	0.369954	-0.570598	-6.580738	-2.706968	-0.495065	-0.555735	-0.448473
-24.758526	6.93544	19.964572	-128.540927	-181.77377	-20.617294	0.444369	0.298406	-1.071114	1.530915	-1.025873	11.067782	27.925296	-34.060713	-3.327047	0.266587	-0.171023	-1.018945	9.494081	1.05056	0.123724	-0.201442	-6.232935	2.241212	-0.481298	-0.553878	-0.479458
-27.130709	8.827644	18.732967	-107.279021	-179.81267	-13.990976	0.48333	0.334725	-1.015445	3.586705	7.480876	16.496807	47.721422	-38.001171	-18.948959	0.226623	-0.205105	-0.973061	9.134887	0.875906	-0.183155	1.946764	-2.783998	6.648745	-0.523439	-0.586876	-0.477994
-25.827467	9.168445	18.077788	-91.950038	-175.533017	24.36815	0.399364	0.32673	-1.02401	0.50659	2.016242	9.180684	19.167981	-58.511776	8.877459	0.226623	-0.205105	-0.973061	9.133226	0.643108	-0.303958	1.82998	0.252534	14.673397	-0.439437	-0.536247	-0.495612
-27.134359	6.803638	15.541862	-31.875394	-159.499657	56.219973	0.397835	0.364514	-1.020181	1.271392	0.609484	12.535742	13.444466	-53.335009	-5.934872	0.213277	-0.221572	-0.957432	8.658916	1.108549	-0.37069	2.786259	1.528114	12.921569	-0.494994	-0.556561	-0.432945
-32.069696	7.883834	11.983762	-6.164049	-132.676278	66.238373	0.370351	0.355021	-1.030143	2.090404	-1.813905	12.947105	24.745798	-66.137665	-10.307243	0.200671	-0.205255	-0.97251	8.778454	0.934298	-0.309324	4.082632	2.713383	17.068266	-0.494159	-0.491791	-0.436293
-32.389807	6.025846	7.252779	-24.748534	-109.435887	72.861545	0.370723	0.358549	-1.044219	1.535019	-0.011686	11.351833	33.018478	-79.013232	-14.251147	0.225662	-0.223641	-0.929009	9.017395	0.643872	-0.186345	0.155584	-2.091881	21.935115	-0.481157	-0.555531	-0.448402
-27.994128	6.939066	6.716995	-41.878158	-66.037055	59.207398	0.342467	0.376598	-1.061012	1.718941	0.439109	11.922235	24.407825	-85.694454	-13.183868	0.200301	-0.221647	-0.957157	9.54773	0.991113	-0.174958	-0.912548	-5.625106	29.017314	-0.481227	-0.554704	-0.46393
-30.369004	-3.671517	36.973519	-70.400199	-9.459377	43.652953	0.384829	0.375474	-1.06206	1.908492	-1.4196	12.547333	23.303826	-97.413955	-15.304992	0.186954	-0.238114	-0.941527	9.794104	0.81857	0.367865	-4.04513	-7.460654	33.898145	-0.48081	-0.52232	-0.465604
-28.60545	14.654341	10.886244	210.249333	92.406302	-16.799745	0.455446	0.356302	-1.046314	2.190644	-0.350002	12.384359	17.192918	-109.210508	-15.488788	0.160337	-0.255729	-0.911273	10.088624	0.585344	0.312471	-7.907569	-10.159612	36.248452	-0.508417	-0.506535	-0.466582
-36.66488	14.548196	11.410997	159.40027	136.6038	-71.703438	0.428348	0.333037	-1.05286	1.961938	0.101169	12.493182	15.486512	-121.90774	-14.968955	0.135126	-0.223094	-0.941428	10.682472	-0.054348	0.44057	-8.988265	-13.668711	41.007831	-0.508421	-0.487864	-0.514002
-11.591004	7.482969	2.662405	205.582613	144.359528	-56.800049	0.427577	0.360579	-1.059692	1.910201	0.214175	12.775266	9.766534	-134.558017	-15.499999	0.147731	-0.239411	-0.92635	10.34212	-0.282876	1.151861	-13.350352	-16.543405	42.443721	-0.480672	-0.505301	-0.481969
-1.349164	3.699592	19.894798	168.396925	196.793528	-53.262874	0.486359	0.293754	-1.058085	1.332345	0.102496	12.649803	-1.102902	-148.845114	-15.219105	0.108358	-0.271349	-0.909166	10.68977	0.12161	0.86066	-16.14115	-17.923378	35.917915	-0.508138	-0.491169	-0.451891
-4.217644	3.056014	16.596956	53.698277	143.897787	-53.823599	0.444369	0.298406	-1.071114	2.183158	-1.249285	14.647976	0.650169	-164.646154	-21.9408	0.070171	-0.23879	-0.939046	11.799593	1.743443	0.469142	-10.711583	-21.869465	14.182525	-0.521908	-0.474354	-0.468326
-4.929955	3.830453	9.482564	41.260638	121.210244	-25.015365	0.516115	0.272519	-1.080104	2.45057	-1.079255	16.408781	-11.94212	-185.849671	-23.887833	0.082632	-0.225538	-0.911626	13.332588	3.773335	0.686127	2.125324	-24.043363	-25.552959	-0.521557	-0.459815	-0.438108
-2.327061	1.134144	10.772097	-21.463226	104.663301	18.629454	0.514629	0.258406	-1.0238	2.484133	-2.824315	17.823301	-29.051287	-210.196889	-28.459104	0.043924	-0.240012	-0.924145	14.347738	4.819622	1.488075	-1.511347	-23.703809	-53.741999	-0.508275	-0.508188	-0.435526
-1.004423	-2.255136	10.954029	-39.286347	71.844419	-1.847277	0.544413	0.202573	-1.010835	2.135334	-3.328449	20.306555	-32.624596	-242.182173	-41.325733	-0.00842	-0.211815	-0.896349	12.414646	4.769216	2.230303	-7.86541	-31.392796	-48.763705	-0.508488	-0.505709	-0.48211
-2.431816	-4.666162	11.029763	32.541314	22.992085	-19.37926	0.513857	0.285948	-1.030632	2.186383	-4.734815	22.570953	-16.480013	-278.777078	-58.660609	-0.047938	-0.214184	-0.866823	10.053514	3.089423	1.939488	-1.247624	-36.111358	-16.010234	-0.453065	-0.521085	-0.480992
-1.777983	1.243546	9.5898	33.268493	11.563832	-3.281336	0.527992	0.268274	-1.013489	1.029724	-3.831513	22.377615	2.272954	-321.549946	-76.362244	-0.074261	-0.230726	-0.850918	9.050199	2.162008	1.797011	8.12936	-39.609787	12.089912	-0.508138	-0.491169	-0.451891
-1.50111	0.379545	9.08007	6.210944	34.373569	6.858255	0.557748	0.24704	-1.035508	0.076005	-2.307666	23.661055	-37.087628	-351.145232	-76.471789	-0.100953	-0.263661	-0.81966	8.328685	2.683593	1.127055	8.998011	-38.871763	11.991545	-0.481294	-0.572549	-0.432037
-1.545412	-0.594266	9.700238	-37.843016	10.067857	4.68866	0.557005	0.239983	-1.007356	-1.556166	-0.667006	28.21397	7.002708	-404.884598	-86.216314	-0.140616	-0.236461	-0.777791	9.213657	2.797719	1.144056	2.809257	-36.930922	-0.404409	-0.508342	-0.526033	-0.403633
-1.589097	-0.878538	10.380155	-4.780413	12.037854	-1.017315	0.543227	0.278485	-1.056066	-0.385595	-0.384367	31.862111	63.774552	-443.242705	-84.640008	-0.17999	-0.268398	-0.760606	8.855104	4.715038	1.145612	-2.330208	-38.064321	-13.827287	-0.494155	-0.510462	-0.388873
-1.211332	0.150295	9.255231	15.129918	9.281051	0.873982	0.514629	0.258406	-1.0238	2.28794	-1.968062	30.275054	119.813194	-466.662983	-70.740873	-0.220394	-0.273983	-0.68803	8.614658	5.179445	0.963467	-4.380872	-40.562809	-24.289405	-0.494714	-0.541195	-0.418254
-1.489685	-0.020134	9.646911	-5.705135	8.480557	3.313015	0.571869	0.246665	-1.035857	7.666901	-5.131836	31.29106	103.083757	-488.287689	-45.692632	-0.248268	-0.311205	-0.599373	8.027082	4.542206	1.00965	-8.782115	-41.614424	-15.77333	-0.480389	-0.508606	-0.419858
-1.316228	-0.824198	9.703726	-3.81118	7.756407	2.897118	0.556976	0.274582	-1.04234	3.644569	-6.091162	20.6755	99.079855	-490.396824	-50.741259	-0.300391	-0.297257	-0.584924	8.378283	4.366426	0.83579	-3.474983	-43.086139	-1.727586	-0.466134	-0.475191	-0.43699
-1.669119	-0.194023	9.244875	-4.226049	9.059143	4.391513	0.557748	0.24704	-1.035508	-4.322598	-3.504726	-1.908759	152.969177	-368.653239	-36.605507	-0.354807	-0.336773	-0.467016	9.019852	3.375423	0.30453	1.340042	-45.117096	18.926597	-0.494856	-0.539542	-0.44931
-1.319942	-0.307948	9.535339	-13.316593	10.764817	4.75207	0.55812	0.250568	-1.049584	-15.089209	-5.125451	-10.458595	161.222868	-236.132098	-7.262059	-0.382536	-0.403564	-0.390702	9.96382	3.02456	0.260747	4.276849	-40.451596	36.012654	-0.507646	-0.478282	-0.390617
-1.429748	-0.651549	9.759077	-15.632934	12.249653	5.672211	0.57074	0.25338	-1.011121	-14.96508	-7.594578	0.524983	-4.439693	-198.624904	-27.307114	-0.395287	-0.357678	-0.393437	10.431392	2.615711	-0.031715	6.200656	-33.91466	34.415326	-0.508272	-0.526859	-0.388106
-1.431069	-0.364583	9.70343	-15.502922	12.166167	7.663816	0.571097	0.274207	-1.042689	-7.425266	-7.488979	8.722642	-47.83843	-66.638336	-23.13302	-0.408633	-0.374145	-0.377808	10.780237	2.032657	-0.387026	9.280216	-26.697715	17.740041	-0.536158	-0.526441	-0.403774
-1.544132	-0.823791	9.756126	-14.822738	13.028721	7.767876	0.543256	0.243886	-1.021083	-12.47027	-3.697154	18.017982	6.395578	61.338657	32.009485	-0.383491	-0.36189	-0.336313	11.657776	2.028901	-0.789867	13.824878	-18.508558	8.147885	-0.521762	-0.494678	-0.38985
-1.600854	-0.019327	9.815244	-15.772787	12.585717	8.499405	0.570754	0.23608	-0.993629	-18.600378	-6.116327	8.262693	119.352869	71.183397	39.412626	-0.370666	-0.392456	-0.334582	12.120852	2.606851	-1.19794	18.31537	-7.753096	1.814647	-0.507921	-0.512319	-0.357887
-1.258233	-0.307025	9.763865	-13.968933	12.07522	8.179253	0.598981	0.25263	-1.01182	-6.847523	-6.928993	6.187632	99.324367	71.454758	34.00389	-0.408928	-0.375217	-0.363458	12.361723	2.433071	-0.954652	21.075738	-0.846704	0.396347	-0.52155	-0.497157	-0.343267
-1.709339	-0.649895	10.094628	-10.7901	11.020097	7.662292	0.585975	0.26359	-1.053698	-7.4979	-9.186603	-0.22542	48.435118	89.971189	23.387528	-0.408558	-0.358825	-0.378811	11.419261	2.609954	-0.851704	21.645453	6.741087	3.353279	-0.52218	-0.527063	-0.388176
-1.658848	-0.536501	9.755105	-11.348341	10.473063	6.888344	0.529893	0.234018	-1.031394	-10.48954	-6.699834	2.714493	-16.50182	137.89079	0.84462	-0.408928	-0.375217	-0.363458	10.965103	1.511051	-0.026508	17.314717	9.891138	1.917444	-0.563273	-0.497769	-0.343477
-1.430861	-0.651791	9.702223	-9.700353	9.311982	6.956731	0.54287	0.257657	-1.024499	-11.031895	-4.27269	7.177763	-34.520584	182.875262	-3.777931	-0.36956	-0.403489	-0.390977	10.321023	1.688001	0.261663	11.891533	12.624616	-6.939018	-0.536296	-0.54346	-0.387409
-1.376947	-0.652556	9.532778	-8.360258	8.716874	5.777865	0.58446	0.284075	-1.032378	-11.008772	-3.088753	8.368191	-12.638386	229.534329	-6.378576	-0.355253	-0.368486	-0.450659	9.332074	2.158366	1.08363	8.468978	14.533998	-15.278659	-0.522459	-0.542429	-0.402867
-1.779831	-0.825073	9.410553	-5.579211	6.937768	6.599617	0.558877	0.240325	-1.060244	-10.100546	-2.076955	7.87863	4.580969	267.067465	-5.405228	-0.341762	-0.381587	-0.478631	9.270567	1.809303	0.901326	7.790484	13.441693	-19.33529	-0.494435	-0.525829	-0.403563
-1.65225	-0.42017	10.096706	1.792937	5.510718	5.359198	0.543999	0.250943	-1.049235	-8.850538	-3.601009	6.997712	0.693075	298.254825	-12.342193	-0.328786	-0.381512	-0.478907	8.094531	2.335924	1.181076	5.110404	10.812391	-26.310661	-0.508551	-0.542225	-0.402796
-1.759913	-0.648406	10.434633	7.441924	2.905418	4.319252	0.556991	0.257282	-1.024848	-7.366573	-3.266302	6.463032	-12.185402	322.154277	-18.156594	-0.302614	-0.395611	-0.492804	7.866865	2.51267	1.656671	5.755497	4.009352	-33.766644	-0.494781	-0.55904	-0.386361
-1.712845	-0.420852	9.925034	12.521841	1.07241	5.409519	0.599752	0.225088	-1.004988	-7.172848	-2.251775	7.543665	-42.246535	338.681043	-20.574754	-0.248644	-0.387807	-0.594355	7.327591	2.221527	1.166276	7.944754	2.00231	-25.270522	-0.536505	-0.559652	-0.386572
-1.835931	-0.882232	9.466051	16.689642	0.81007	5.853262	0.585246	0.239234	-1.008055	-6.440531	-2.476778	9.483729	-47.850624	345.204833	-18.325552	-0.248939	-0.388879	-0.580005	8.084917	2.682402	0.703305	7.003994	6.582226	-1.116286	-0.507992	-0.511493	-0.373415
-1.660211	-0.192093	9.6997	19.995138	-0.164153	6.379916	0.543642	0.230115	-1.017667	-5.610307	-1.913986	10.69056	-62.117425	351.423067	-9.520134	-0.208755	-0.369046	-0.639235	8.380828	2.798126	0.769208	4.139444	8.784186	18.659149	-0.536225	-0.544286	-0.371881
-1.313178	-0.421384	9.875975	19.055585	1.021956	7.107231	0.557376	0.243511	-1.021432	-4.844925	-1.971054	11.499182	-75.935838	354.4121	2.67555	-0.181477	-0.394178	-0.709528	8.439939	1.810204	0.646292	2.214307	10.296673	19.637065	-0.494643	-0.542021	-0.402726
-1.829498	-0.536135	9.808618	22.401603	1.427678	7.932189	0.571497	0.243137	-1.021781	-3.599702	-2.647908	13.166549	-89.019989	359.107276	12.700269	-0.154785	-0.361243	-0.740786	8.37513	1.4604	0.284267	2.658419	11.982334	19.474572	-0.50876	-0.558418	-0.401959
-1.474588	-0.87862	10.382382	23.871237	0.968703	8.349829	0.55852	0.219498	-1.028676	-2.986011	-2.309485	14.99139	-100.30172	359.530502	19.755275	-0.114896	-0.342482	-0.785666	8.79141	1.518272	0.471938	4.47897	10.030089	22.534097	-0.536296	-0.54346	-0.387409
-1.316518	-0.422107	9.705416	25.298956	0.354398	6.189075	0.586003	0.228991	-1.018715	-2.333951	-3.94364	15.739627	-104.161446	360.443568	27.0987	-0.075823	-0.371826	-0.798836	9.424216	1.455003	-0.414808	4.404223	10.334192	19.720657	-0.521829	-0.512523	-0.357957
-2.224878	-0.304873	10.086054	20.506193	-0.696469	4.744448	0.586003	0.228991	-1.018715	-0.683436	-3.94514	17.585944	-114.620807	354.954174	32.21501	-0.061886	-0.353214	-0.843165	8.776814	1.166355	-0.368242	3.878745	10.955799	18.588593	-0.508205	-0.509014	-0.419998
-1.714824	-0.765984	9.80988	25.895025	-1.065237	4.232268	0.559277	0.209255	-1.039337	0.936234	-2.99016	18.073716	-122.516803	344.367315	35.679461	-0.008501	-0.287345	-0.905681	8.716002	0.991767	-0.489898	1.857983	15.889529	14.079036	-0.521553	-0.478486	-0.390687
-1.885888	-0.191203	9.865805	31.169729	-0.144879	3.833367	0.572254	0.232894	-1.032441	2.922424	-4.232052	19.359847	-137.63839	321.696144	33.869057	0.005656	-0.282982	-0.963356	9.018495	0.644119	-0.126438	2.827148	17.38578	8.749959	-0.522321	-0.525411	-0.419231
-1.525783	-0.015508	10.726007	28.283459	5.090925	1.718714	0.54327	0.226587	-1.003591	6.850685	-5.140195	20.00769	-156.130691	287.874649	16.992547	0.045689	-0.29379	-1.020578	8.768935	0.292989	-0.911113	1.243314	15.255775	4.150627	-0.480877	-0.540165	-0.433712
-1.659755	-0.82395	9.697046	44.85155	5.100131	-0.444916	0.586361	0.249819	-1.050282	9.217825	-4.747632	23.114917	-172.763397	261.071602	-7.919658	0.098485	-0.230065	-1.054395	7.953288	0.006725	-0.388593	-1.897088	15.605036	-1.127108	-0.536091	-0.508596	-0.435667
-1.663675	-0.020492	9.529865	39.758582	4.031514	-0.44762	0.573055	0.170753	-0.990626	9.511476	-4.243296	20.743734	-148.955944	252.16166	-32.003373	0.138078	-0.212375	-1.084925	7.774889	0.58789	-0.389422	-2.12573	15.532115	-8.949713	-0.522109	-0.527889	-0.372648
-1.843399	0.20771	9.129518	44.206028	3.319017	1.858748	0.572654	0.201824	-1.011534	9.68174	-1.708651	20.862774	-182.351226	265.584297	-33.222076	0.215934	-0.211925	-1.08658	7.076039	0.359184	0.075639	-0.483367	14.522013	-17.201954	-0.494576	-0.524176	-0.434619
-1.358106	1.017591	10.563131	40.704683	1.480155	2.666966	0.573412	0.191581	-1.022194	13.959703	0.427171	24.69104	-193.622526	259.599154	-29.252514	0.26991	-0.143912	-1.177796	7.37303	0.0103	0.139565	-1.823719	11.219101	-20.695539	-0.480109	-0.49324	-0.405167
-1.747023	0.917997	14.078632	27.32796	27.882104	2.551902	0.558905	0.205727	-1.025261	19.778654	3.571221	25.325552	-179.620156	226.0357	-24.458278	0.256789	-0.114418	-1.165178	6.961598	0.708899	0.314549	-4.384034	7.575963	-21.28004	-0.494502	-0.543674	-0.371671
-2.329282	-0.417501	10.595022	56.687041	42.732281	11.264744	0.57304	0.188053	-1.008118	26.946535	6.711404	24.459809	-133.987048	185.67565	-25.409092	0.347621	-0.113893	-1.167108	7.085383	0.128858	0.553905	-6.377427	7.513976	-24.847723	-0.522325	-0.506739	-0.466652
-1.296191	0.731307	10.790451	63.59128	42.164543	7.249027	0.588318	0.146365	-0.99822	30.708527	8.277833	20.237524	-102.685993	164.270686	-17.027131	0.374314	-0.080958	-1.198366	7.681377	1.407158	1.049604	-6.188362	5.764767	-27.192913	-0.494368	-0.507984	-0.435456
-1.374286	1.198884	12.666306	40.196734	55.640169	4.438076	0.58869	0.149893	-1.012296	28.613977	8.898159	16.51416	-87.959494	146.689822	-12.288739	0.401597	-0.04588	-1.258324	8.735965	1.402997	0.650063	-4.611291	3.998544	-12.614025	-0.522739	-0.557796	-0.417557
-1.569925	0.332077	11.408578	50.852766	68.992413	4.68578	0.56082	0.154171	-1.025673	28.517212	9.798085	14.757882	-63.487034	113.35089	-6.250347	0.452244	-0.065187	-1.201024	8.672722	2.273778	0.532858	-0.558032	5.552016	10.132999	-0.495061	-0.574406	-0.401052
-1.914938	0.849059	11.347216	40.24661	74.563217	2.261493	0.600924	0.166476	-0.977249	27.429832	10.023355	12.357448	-43.930552	80.369346	4.905275	0.46544	-0.079361	-1.214646	10.256234	1.803052	-0.038477	2.780868	5.9574	22.376277	-0.52253	-0.541603	-0.418394
-1.99311	-0.119645	13.160185	28.897639	87.513224	1.799344	0.616945	0.131845	-0.995502	26.706539	10.586721	10.870786	-22.762761	45.699035	18.63536	0.466546	-0.090394	-1.271041	9.963064	1.455518	0.014444	9.10838	7.123164	33.108312	-0.507996	-0.492822	-0.420835
-2.723932	-0.288535	13.827223	31.835344	98.718847	-1.615076	0.602082	0.125163	-0.967001	25.537075	9.968482	9.939852	-4.666322	9.923187	30.255988	0.504964	-0.016782	-1.233837	10.024146	1.513953	0.135606	12.945668	6.920986	30.31345	-0.508484	-0.52438	-0.434689
-1.739441	2.758057	14.541179	34.856619	118.504733	2.316735	0.630337	0.107114	-0.950208	22.737215	9.577871	8.125665	1.660629	-16.163565	41.501373	0.517495	-0.04842	-1.217756	10.324689	0.584804	0.316873	17.019198	7.612404	29.928551	-0.508275	-0.508188	-0.435526
-2.530354	0.348022	14.97028	26.583629	142.078602	3.367886	0.686833	0.088317	-0.934113	19.210071	8.288133	7.201237	16.036126	-36.560918	46.5822	0.51823	-0.075845	-1.258798	10.80286	0.352655	0.624222	22.891704	12.740682	41.866886	-0.494088	-0.492617	-0.420765
-2.937454	-0.789621	17.514935	29.117313	173.309828	5.125826	0.673485	0.061149	-0.926932	44.486264	20.803662	9.101874	-4.259668	-192.742489	40.728314	0.505034	-0.061672	-1.245176	10.450674	0.005257	0.676043	29.048784	18.446964	54.230637	-0.54972	-0.493434	-0.421046
-1.980262	1.5042	16.804426	38.745508	189.865478	3.588666	0.701326	0.09147	-0.948538	18.931032	-1.11652	9.451648	131.351707	-246.289012	4.050229	0.479082	-0.061822	-1.244625	9.592382	-0.219089	2.096313	33.56054	23.88248	53.760278	-0.508555	-0.523554	-0.450217
-2.902729	-1.069349	19.276174	-5.877317	218.069887	11.443825	0.699825	0.094657	-0.909726	10.872415	1.33518	25.702671	12.648672	-255.203284	-14.137237	0.389061	-0.074452	-1.28474	9.602576	0.13184	2.696865	34.076002	24.639599	39.874055	-0.507929	-0.474977	-0.452728
-1.384754	-0.087407	20.844261	-6.934622	256.362881	8.236499	0.72768	0.107678	-0.91384	-2.57378	-2.248809	20.831361	137.910273	-229.088451	20.719743	0.361998	-0.123779	-1.238128	11.387252	0.653935	3.5708	28.363599	27.073254	12.584755	-0.50772	-0.458784	-0.453565
-1.574302	-0.768096	22.826769	-48.511052	286.371792	3.753678	0.741444	0.086476	-0.882622	8.014935	7.974689	11.042057	144.857949	-174.377637	85.274663	0.323145	-0.108683	-1.238305	12.740417	1.98633	3.541889	3.548564	33.86852	-40.714588	-0.536304	-0.506117	-0.48225
-2.221513	-1.965427	24.798198	-89.196885	311.00656	18.439195	0.797183	0.077921	-0.855867	11.078967	-3.525165	7.982486	129.634195	-89.697186	5.881836	0.257154	-0.158235	-1.190866	15.073539	4.821957	2.45979	-33.485817	47.260383	-105.888402	-0.522183	-0.508392	-0.435596
-1.041472	-0.10782	29.602736	-81.64864	347.396397	31.029632	0.838801	0.069741	-0.828762	4.080229	0.099091	14.689008	48.872355	-8.31251	6.255919	0.296967	-0.154795	-1.234743	14.515159	8.012904	1.38516	-51.115312	56.696361	-113.137167	-0.535816	-0.474559	-0.468396
1.786586	-1.184069	33.688168	29.476363	425.710479	55.132614	0.867085	0.017094	-0.776985	-1.335943	-0.909733	8.856335	49.03	-28.307513	-2.667137	0.231422	-0.172634	-1.203661	12.533532	8.474551	-0.446384	-14.917584	52.068638	-49.655671	-0.5363	-0.524789	-0.43483
-0.920075	-0.393663	29.944875	122.653394	479.229731	59.690256	0.907204	0.0121	-0.711069	2.438078	-1.985833	10.350003	55.619614	-31.984147	0.230275	0.257889	-0.185661	-1.231908	9.921409	5.164967	-1.76694	50.718016	32.04508	21.711325	-0.480739	-0.523146	-0.450077
0.657646	3.034257	25.898222	213.602616	483.225542	50.173348	0.962571	1.6e-05	-0.670238	1.194063	-1.308931	8.739276	35.95196	-22.326707	-4.745323	0.269609	-0.205194	-1.173781	8.950038	1.674654	-3.716402	44.275668	24.763091	55.123762	-0.48046	-0.50778	-0.435386
1.379373	-1.529876	33.337807	114.632571	505.424309	18.778506	0.98784	-0.028959	-0.558329	1.927219	-2.604261	10.621799	28.277871	-10.722324	1.83776	0.256928	-0.204197	-1.187855	8.53731	1.036516	-3.786731	-5.012757	31.922182	64.747195	-0.480948	-0.539338	-0.449239
-0.3516	-4.014342	29.599688	67.211843	438.520198	-6.523718	1.028744	-0.078795	-0.468089	1.15092	-0.63224	9.474951	22.602088	-10.637564	-3.406732	0.231422	-0.172634	-1.203661	9.499101	2.490953	-2.624712	-31.021357	41.207528	42.446073	-0.508417	-0.506535	-0.466582
9.416741	-5.437601	34.443789	82.361527	454.86703	40.830539	1.043636	-0.106712	-0.461607	0.987871	-1.251221	9.86728	9.494669	-9.087223	-3.340208	0.243431	-0.251305	-1.170219	10.822922	2.900449	-1.161006	-14.673826	34.917592	2.464014	-0.508279	-0.489517	-0.482947
3.366027	-12.045626	5.769374	430.233871	394.844462	-38.493461	1.040621	-0.08304	-0.401474	1.339739	-1.476953	10.157542	2.610611	-6.20945	-1.929876	0.230386	-0.206491	-1.158604	11.29287	3.363729	-1.210132	-7.110119	22.670571	-11.716155	-0.522884	-0.537472	-0.496034
25.765076	-3.980595	-24.960842	296.294368	247.834946	-95.939449	1.067805	-0.163572	-0.289978	0.826917	-1.701115	10.37303	14.207667	-7.591551	-2.520019	0.257003	-0.188876	-1.188859	10.478749	3.368339	-0.566562	-11.369307	18.75102	-6.884013	-0.522258	-0.488894	-0.498545
34.633761	-23.606667	-5.435058	97.160887	-50.089904	-170.191431	1.096403	-0.143493	-0.322244	1.332162	-1.308245	9.817846	15.657734	-7.726057	-2.581845	0.204584	-0.176	-1.16006	10.487377	2.498682	-0.210829	-8.873274	15.62971	2.962933	-0.522049	-0.472702	-0.499382
13.610006	8.990084	24.129369	-56.752204	-109.132619	49.35288	1.12273	-0.092686	-0.32253	0.984914	-0.969663	9.754238	9.168954	-8.044446	-4.008315	0.21785	-0.235063	-1.185021	11.024139	1.975772	0.036477	-10.697126	11.567933	13.533812	-0.507653	-0.440939	-0.485458
14.89433	-10.670775	7.079186	20.587862	-64.421738	-165.813894	1.054042	-0.142369	-0.321196	1.277769	-1.702356	9.929585	6.014137	-8.5047	-5.402681	0.230311	-0.221811	-1.157601	10.849427	1.918595	0.152742	-19.212254	8.094896	6.276124	-0.521699	-0.458162	-0.469163
10.152659	-14.341905	7.369294	-20.086535	-96.752095	-61.880267	1.066233	-0.073889	-0.338625	1.326549	-1.533805	9.534459	4.098457	-8.730988	-7.348617	0.192048	-0.204572	-1.186477	10.255849	2.442135	0.024149	-22.673077	4.171664	-11.907684	-0.52212	-0.471876	-0.51491
-0.573059	-5.421025	9.471485	21.028347	-84.15682	-0.784005	1.108995	-0.106083	-0.318765	1.096742	-1.139013	9.586595	2.515703	-9.332437	-7.540837	0.21785	-0.235063	-1.185021	10.561394	2.676237	0.629709	-19.382116	1.614785	-20.86115	-0.508354	-0.470019	-0.545895
5.311171	-10.233837	-0.038687	64.843049	-89.622523	0.227764	1.108223	-0.078541	-0.325596	1.160998	-1.476866	9.870717	-1.012151	-9.980796	-9.029846	0.244172	-0.21852	-1.200926	9.982217	2.215204	1.155889	-20.674808	-3.76873	-18.325017	-0.535682	-0.438869	-0.532182
8.52454	-6.21308	0.552238	-58.360255	-215.708369	38.24508	1.136822	-0.058462	-0.357863	1.556919	-1.590566	9.539247	1.812085	-11.585046	-11.448066	0.205024	-0.204497	-1.186752	10.688905	2.387564	1.109929	-14.85548	-10.153142	0.662581	-0.53589	-0.455061	-0.531345
8.05169	-3.01884	8.683254	-53.69746	-244.323835	45.92276	1.138708	-0.075419	-0.393259	1.105312	-1.195011	9.983024	1.860056	-10.178403	-10.755839	0.217705	-0.205494	-1.172678	10.280039	1.982719	1.280216	-16.055304	-19.324203	8.718475	-0.521841	-0.45651	-0.500219
5.977542	-3.537217	7.95876	-29.604756	-285.093536	63.92371	1.124944	-0.054217	-0.424477	1.62705	-0.576156	10.220985	3.725153	-9.092821	-9.017205	0.21741	-0.206566	-1.158329	9.677617	1.57457	0.548598	-12.765459	-23.861902	7.994661	-0.550491	-0.521688	-0.497011
5.70186	-1.236694	8.588229	-15.83262	-316.832458	70.542494	1.097818	-0.042883	-0.466007	1.27656	-1.702404	9.872945	4.482546	-7.768982	-8.356054	0.204949	-0.219817	-1.185749	8.828957	1.280889	-0.726089	-9.879491	-21.906885	-2.630669	-0.508142	-0.472498	-0.499312
5.242048	-0.317539	8.526328	-14.91657	-336.65128	62.677011	1.098175	-0.022055	-0.497574	1.449603	-1.252036	9.933591	7.456767	-7.171911	-9.488344	0.216819	-0.208709	-1.129629	8.592332	1.048877	-0.791386	-9.418516	-12.488974	-5.244489	-0.50772	-0.458784	-0.453565
5.083813	-0.544286	9.20426	-33.517825	-350.098469	46.692891	1.085541	-0.007568	-0.553529	1.571556	-1.026645	10.276036	10.229254	-5.184461	-7.924974	0.178476	-0.267001	-1.167837	8.483529	1.341753	-0.253189	-13.632901	-3.887954	-10.282274	-0.521561	-0.441143	-0.485528
4.466842	-1.345358	9.814017	-44.736182	-357.254208	35.295379	1.117183	-0.045759	-0.610944	1.913299	-1.647117	10.056209	14.985114	-5.275615	-8.199502	0.178627	-0.23636	-1.169844	9.438386	1.516293	0.364229	-9.959639	0.567005	0.899317	-0.536304	-0.506117	-0.48225
3.739978	-0.823985	10.711363	-59.065508	-361.903535	24.161353	1.104534	-0.013972	-0.68439	1.445653	-1.083186	9.763814	16.09653	-5.351086	-8.569289	0.204139	-0.207713	-1.143703	7.793367	1.637956	0.753259	-11.724721	0.478774	-5.970377	-0.522049	-0.472702	-0.499382
2.452076	-0.81676	12.163933	-75.666795	-365.461297	10.842899	1.064387	0.025621	-0.78529	1.222945	-1.871145	10.041513	15.569055	-5.713463	-10.453794	0.178552	-0.25168	-1.16884	7.147761	1.524031	0.92038	-10.846586	0.430152	-42.397225	-0.522187	-0.489721	-0.483017
0.915535	-2.939289	12.522912	-85.006703	-361.559482	7.682466	1.022397	0.030273	-0.798319	1.453099	-1.815246	10.046396	23.160193	-6.433144	-12.273658	0.203988	-0.238353	-1.141696	7.143629	1.40689	0.680258	-4.312281	2.665481	-40.384513	-0.522329	-0.488068	-0.514073
0.001276	-2.363728	12.621215	-109.208768	-352.584248	7.039076	1.008977	0.089602	-0.878597	1.220119	-1.026235	9.985585	25.563688	-4.268828	-10.338906	0.204874	-0.235138	-1.184745	7.334713	1.525851	1.462844	-6.592892	2.824066	-18.04077	-0.522258	-0.488894	-0.498545
-1.281182	-2.182971	14.358775	-135.794374	-341.927675	14.525645	0.981436	0.149306	-0.958525	1.692038	-1.928006	10.447614	29.836291	-5.957064	-11.153767	0.178332	-0.237432	-1.155494	7.752113	2.048826	1.772306	-13.862866	-1.278146	-5.404142	-0.494163	-0.47312	-0.483714
-2.835437	-1.998871	16.829857	-151.694015	-318.377549	12.96032	0.925311	0.171632	-0.988696	1.388327	-0.576057	9.819672	30.716332	-4.234969	-5.494489	0.203763	-0.284315	-1.138685	8.107176	2.106339	1.839063	-12.16417	-1.898646	-3.970932	-0.50863	-0.504057	-0.513165
-3.432618	-0.899788	18.527786	-141.324809	-289.913772	6.553961	0.855037	0.228931	-1.053501	1.498904	-2.376797	12.141587	24.652795	-9.719336	-3.85837	0.190567	-0.270141	-1.125063	7.873812	0.945359	1.829717	-11.336477	-6.295357	1.487192	-0.53526	-0.425155	-0.486436
-4.562118	-0.895582	19.30146	-129.453342	-263.299841	-4.609873	0.841216	0.319331	-1.154687	1.569785	-1.364723	10.162472	46.326932	-20.679595	-11.410187	0.204133	-0.267922	-1.154038	8.646098	0.654212	2.082414	-9.958617	-8.569647	3.021227	-0.549794	-0.473936	-0.483994
-4.617151	0.656105	19.477421	-108.387616	-250.722596	-33.297383	0.827082	0.337005	-1.17183	1.569485	-0.576048	10.219776	45.720719	-19.367003	-6.95846	0.203543	-0.270066	-1.125339	8.517352	1.000713	1.542534	-10.026061	-11.701282	-4.7265	-0.549865	-0.47311	-0.499522
-5.027813	-0.449752	15.998117	-101.946264	-251.258508	-78.268161	0.827796	0.37866	-1.234965	1.91641	-0.745639	10.283527	48.022762	-17.792428	-4.1048	0.190196	-0.286534	-1.10971	7.983445	0.768883	1.351921	-7.726458	-13.938346	-9.430568	-0.550212	-0.506321	-0.48232
-8.178495	-1.194695	15.820032	-133.268205	-244.769823	-90.77557	0.756822	0.377004	-1.219143	1.031652	-0.122808	12.020533	25.657915	-37.779863	-6.479452	0.178106	-0.283393	-1.152483	8.216614	0.593373	1.17586	-6.954079	-14.935385	-13.309739	-0.522329	-0.488068	-0.514073
-12.251898	-2.617375	18.17851	-152.286838	-216.578651	-58.844858	0.696853	0.519741	-1.26598	2.060637	-1.42073	11.588086	33.3107	-38.154188	-4.719834	0.164389	-0.316253	-1.121501	8.619013	0.938659	0.645885	-4.634916	-15.033013	-11.942481	-0.563911	-0.490333	-0.483228
-21.032937	0.683964	22.90904	-173.71461	-168.228191	22.146161	0.669355	0.527547	-1.293434	1.244016	-3.163652	13.607508	138.742239	-44.449724	-56.82466	0.178031	-0.298713	-1.15148	8.085511	0.5326	0.454529	-2.200226	-15.674137	-11.214797	-0.522467	-0.505087	-0.497708
-38.687347	9.32241	24.818439	-37.488348	-129.967373	31.574596	0.568968	0.585253	-1.304653	3.488316	0.773181	11.280321	33.099596	-60.599674	-15.424463	0.164239	-0.346893	-1.119493	8.192269	0.64601	-0.141844	2.080893	-12.445409	-5.500273	-0.508	-0.47415	-0.468256
-46.888506	8.713507	15.165671	-29.571604	-166.370664	6.82772	0.554118	0.561272	-1.25866	1.904326	-1.13809	12.377651	21.860252	-66.984826	-8.314197	0.137401	-0.350259	-1.075893	8.719283	0.527654	-0.372062	5.033205	-7.03564	7.727622	-0.550279	-0.524166	-0.450428
-33.13307	6.396208	13.150246	-113.915971	-153.807645	41.494831	0.540712	0.603302	-1.321446	2.609941	-1.307806	13.071691	25.822583	-76.21403	-10.62232	0.124645	-0.364583	-1.088963	8.710884	0.351448	-0.852059	7.335901	-1.403268	25.849184	-0.535886	-0.473732	-0.483924
-32.470668	7.23968	9.018066	-22.103408	-134.104396	52.802627	0.52392	0.665475	-1.310024	1.514366	-0.348139	13.049528	19.401952	-93.180695	-13.416431	0.112341	-0.286984	-1.108055	9.184654	0.118311	-0.784338	8.280243	2.637382	34.752997	-0.521912	-0.455683	-0.515747
-46.157529	8.03312	17.393408	19.883457	-17.562753	-1.692057	0.482315	0.656356	-1.319637	1.899491	-1.13828	12.151093	19.890963	-103.299246	-13.362454	0.138067	-0.332795	-1.105596	9.543288	0.060413	-0.538355	10.757191	3.278871	35.688678	-0.5363	-0.524789	-0.43483
-39.472567	8.090395	5.134649	83.1677	15.15081	4.361574	0.482315	0.656356	-1.319637	1.863947	-0.010613	13.283624	11.769036	-118.105822	-17.06124	0.098693	-0.364733	-1.088412	10.317661	0.292693	-0.103712	11.293548	2.664326	33.182823	-0.550283	-0.505495	-0.497848
-41.275558	17.991973	9.915069	147.813283	63.475809	10.542158	0.483044	0.680712	-1.36528	2.350048	-0.742824	14.425471	13.17752	-131.450622	-19.504721	0.072741	-0.364883	-1.08786	10.79033	0.059308	-0.095897	9.524222	0.510332	39.741878	-0.563494	-0.457948	-0.484902
-42.039287	20.848383	6.104615	194.283291	127.252752	-53.67115	0.510957	0.624536	-1.299427	1.86108	-0.797046	15.773894	16.071709	-154.347292	-22.781715	0.020467	-0.381575	-1.071404	10.269784	0.237224	0.49401	2.080006	-0.857283	39.286215	-0.591727	-0.490741	-0.483368
-41.489103	33.6747	-3.264469	254.449341	222.888739	-214.989615	0.528507	0.552121	-1.32151	2.8938	-2.151155	15.511318	21.110477	-176.40658	-28.391421	0.072446	-0.365955	-1.07351	10.15986	0.064997	0.910415	-2.152851	-4.809023	26.572337	-0.563773	-0.473314	-0.499592
-16.228283	4.491306	14.152999	-108.867281	205.549285	-101.812142	0.569739	0.557711	-1.297821	2.08072	-3.217922	17.757867	14.62238	-196.412115	-32.911003	0.007271	-0.367402	-1.057782	10.274496	1.051772	0.856912	-1.660254	-9.227967	10.390927	-0.563702	-0.474141	-0.484065
-5.776735	-1.771575	15.693826	-50.090005	51.819122	3.685155	0.598338	0.57779	-1.330087	2.08774	-4.116636	20.701159	26.240006	-231.27399	-45.485631	-0.019271	-0.369696	-1.028531	12.26653	2.554685	0.301686	1.137691	-22.458471	-22.409574	-0.549653	-0.475589	-0.452939
-2.872388	-2.905974	6.141197	-11.897231	9.090099	17.477777	0.569739	0.557711	-1.297821	1.463034	-3.267729	23.859181	1.331331	-266.926341	-51.562265	-0.032322	-0.385091	-1.027252	14.211599	5.977951	0.652122	8.076028	-31.812569	-64.796532	-0.59103	-0.44299	-0.470351
-0.417948	0.045488	11.77076	4.874804	53.066415	10.999222	0.610572	0.594372	-1.29504	1.4792	-6.419475	27.027134	-4.10848	-312.097335	-63.851596	-0.111504	-0.36026	-0.955856	15.039317	8.649289	1.098249	5.477649	-36.975784	-86.876591	-0.549999	-0.5088	-0.435737
-0.425239	-2.196662	11.306524	28.932683	6.940469	-22.850331	0.611715	0.570359	-1.302285	-0.088143	-6.921725	29.031884	-18.151023	-359.211254	-84.273187	-0.163633	-0.406521	-0.951742	12.167988	7.90512	2.059531	-9.712065	-44.95641	-56.665846	-0.536162	-0.50777	-0.451194
-1.401248	2.157254	8.40754	8.800116	25.005907	10.102515	0.596837	0.580976	-1.291275	-3.337	-2.351197	30.892563	-16.098796	-412.739922	-95.621195	-0.216643	-0.395789	-0.894244	10.708929	4.19336	2.435545	-7.319397	-54.985364	0.329718	-0.577469	-0.475997	-0.453079
-1.141	-0.995923	9.876902	-38.325398	13.771773	8.522251	0.610572	0.594372	-1.29504	-2.241589	-0.991681	41.899918	39.743874	-486.715384	-103.861107	-0.230504	-0.399079	-0.850919	9.001897	1.815912	2.333589	11.533082	-64.830379	39.343427	-0.577469	-0.475997	-0.453079
-3.146972	0.326441	9.786627	-11.030013	8.301875	-2.072099	0.612873	0.529045	-1.292037	1.497853	-1.055112	41.86517	153.293128	-527.437295	-108.118501	-0.282999	-0.401523	-0.821116	8.621835	2.566271	1.012249	12.434703	-63.91353	33.771712	-0.577114	-0.480128	-0.37544
-0.982687	0.667103	9.261857	-10.975625	16.224667	6.674081	0.597209	0.584504	-1.305351	6.610125	-1.072236	33.367171	193.770803	-570.843198	-85.738483	-0.323999	-0.469461	-0.730176	10.085734	3.722438	0.565449	8.752416	-57.204722	10.551679	-0.549231	-0.461875	-0.407192
-1.881185	-0.534887	10.09177	-25.485262	11.208739	3.996962	0.598752	0.52942	-1.291688	2.576283	-9.526901	18.83838	156.40004	-542.14239	-73.555599	-0.40333	-0.475271	-0.656773	10.675396	4.883103	0.701212	-3.110442	-52.713444	-16.87157	-0.605072	-0.478884	-0.406636
-1.775999	0.037515	9.641585	-11.048617	15.256667	5.278551	0.596852	0.563676	-1.273783	-7.994674	1.061029	-6.397759	242.649194	-352.926299	-39.675621	-0.445361	-0.516856	-0.510441	10.497517	4.767108	0.637509	-5.693275	-52.211952	-21.906703	-0.60521	-0.495903	-0.390271
-1.426822	-0.07641	9.932049	-19.210416	14.836846	3.731197	0.568582	0.599024	-1.308069	-26.536886	-2.786873	-2.034991	168.819218	-244.040278	10.114285	-0.446767	-0.567105	-0.450032	10.366665	4.125328	-0.146201	0.863808	-49.944874	6.572143	-0.563762	-0.529328	-0.357331
-1.426449	-0.593384	9.929877	-24.011335	11.92797	3.513733	0.613601	0.553401	-1.337681	-27.145787	-8.303172	1.287591	7.311557	-148.065246	8.656201	-0.473605	-0.57047	-0.406431	10.591529	2.785826	-0.926275	3.393033	-46.258055	29.440271	-0.590955	-0.462488	-0.407403
-1.698246	-0.590041	10.6634	-10.765403	11.694783	5.097179	0.597609	0.553434	-1.284444	-5.964123	-2.469919	18.325551	-25.969714	-67.681614	47.780566	-0.460999	-0.586788	-0.391353	11.536328	2.551361	-0.909657	3.754959	-37.47787	32.148373	-0.590951	-0.481159	-0.359983
-1.77575	-0.307134	9.640137	-11.41637	10.930469	4.473289	0.609443	0.601087	-1.270304	-22.343703	-7.57172	10.673815	85.433736	28.069473	112.276742	-0.487247	-0.58801	-0.376452	12.007356	2.550034	-0.96076	5.926207	-25.046564	16.613326	-0.590676	-0.447121	-0.392712
-1.713876	-0.535977	9.867698	-5.944488	8.8381	4.208864	0.625464	0.566456	-1.288558	-10.764665	-5.513401	6.106612	80.735327	26.757334	102.176959	-0.486286	-0.569473	-0.420505	13.123701	2.313928	-1.240375	8.387226	-13.540302	-0.964135	-0.60465	-0.46517	-0.36089
-1.725177	-0.308623	9.300132	-3.679666	8.482353	3.981893	0.612444	0.594714	-1.347928	-6.721254	-10.707932	0.978447	63.692992	45.750204	94.551135	-0.526024	-0.557594	-0.377632	13.048853	2.019974	-2.141315	16.448012	-3.504529	-7.428649	-0.60493	-0.480537	-0.375581
-2.055134	-0.592687	9.974482	-1.684651	8.671171	4.40856	0.626979	0.54597	-1.309878	-9.921931	-9.689335	-0.616459	0.431344	94.365716	50.338363	-0.47375	-0.540901	-0.394088	12.404888	1.673992	-1.915276	15.519071	7.190359	-6.712294	-0.562714	-0.467037	-0.314096
-1.711815	-0.305728	9.982369	-1.90461	7.402555	5.063251	0.59798	0.556962	-1.29852	-10.897066	-5.964541	5.254221	-38.084705	142.74573	17.769683	-0.459518	-0.521218	-0.452767	10.718034	1.509119	-0.629979	9.636947	15.601046	-17.488218	-0.619393	-0.530145	-0.357612
-1.885556	-0.650735	9.863875	-1.715151	8.044591	5.441143	0.62545	0.583755	-1.30605	-11.700358	-3.932512	8.239693	-35.02101	189.983044	-0.378158	-0.472569	-0.536614	-0.451487	9.915862	1.109669	0.610929	1.581878	16.669718	-25.989709	-0.605277	-0.513748	-0.358379
-1.947555	-0.249568	9.637038	3.956185	8.035464	5.854007	0.639185	0.597151	-1.309815	-11.937911	-2.016986	8.066551	-23.142028	239.055398	-7.802776	-0.458858	-0.563964	-0.492805	9.448581	1.867221	0.964781	-2.148579	13.916433	-33.174198	-0.605414	-0.530767	-0.342014
-1.26768	0.437785	9.312177	4.380536	6.861695	6.539046	0.639956	0.569609	-1.302983	-10.449757	-1.344107	7.758714	-11.009083	284.489943	-8.265356	-0.430984	-0.526742	-0.581462	8.981684	1.985689	1.256006	-1.745603	15.342137	-34.832406	-0.619185	-0.513952	-0.358449
-1.496899	-0.826004	9.245561	3.876436	5.647197	5.018082	0.640342	0.555838	-1.299567	-9.204256	-3.429319	9.311616	-6.504658	315.437614	-9.556483	-0.430764	-0.54099	-0.594808	8.458241	1.988635	1.665451	-7.243539	15.899856	-37.412254	-0.605068	-0.497555	-0.359216
-1.96001	0.034986	9.012861	6.864357	2.513409	6.123894	0.667069	0.575575	-1.278945	-9.265163	-1.682965	9.311877	-23.168429	343.756138	-6.266643	-0.391176	-0.583511	-0.635674	6.796911	3.443081	1.341285	-9.29101	7.119054	-43.870727	-0.577532	-0.512513	-0.373766
-3.025078	-0.6487	10.12587	-1.381632	2.824437	5.140677	0.682689	0.572014	-1.318107	-8.562936	-1.345801	9.893065	-32.814602	365.588529	0.571154	-0.311914	-0.532812	-0.697738	5.850857	3.270518	1.203122	-3.682097	3.00784	-49.615093	-0.577114	-0.480128	-0.37544
-0.614193	0.295003	16.371258	-16.715129	10.143498	6.6531	0.611715	0.570359	-1.302285	-6.753561	-1.066494	11.120209	-45.177238	378.445679	12.928261	-0.310218	-0.541701	-0.782833	6.608413	2.68553	0.615887	0.751915	1.989483	-32.425035	-0.549854	-0.529124	-0.357261
-1.994984	-3.062473	10.022072	26.328721	33.476228	-3.334554	0.640328	0.573138	-1.317059	-5.121634	-1.463066	12.059961	-60.714016	387.075881	24.501088	-0.19329	-0.570595	-0.797657	7.666032	2.798263	0.396561	-1.144299	5.361094	4.726083	-0.591719	-0.528084	-0.388527
-2.021553	-0.195704	8.78337	31.776796	25.315049	0.381302	0.639585	0.566081	-1.288907	-4.358131	-1.801881	12.755067	-77.102281	389.148959	31.321957	-0.217991	-0.611346	-0.865843	7.665336	2.623788	0.335913	-4.77606	7.087849	25.821957	-0.604997	-0.498382	-0.343688
-1.769375	1.028055	12.942053	10.307662	27.36958	0.139155	0.640328	0.573138	-1.317059	-2.173189	-2.761401	15.291133	-90.158011	390.699644	35.581473	-0.112626	-0.529857	-0.930466	8.086132	2.159718	0.701079	0.324064	5.90209	29.84434	-0.535528	-0.496535	-0.358865
-1.837613	-3.180617	9.28584	51.685761	31.609737	11.711681	0.641485	0.531825	-1.306811	-1.641179	-3.719516	15.867603	-104.554836	390.802794	34.02941	-0.033885	-0.526191	-0.97517	8.375691	1.692951	0.345162	3.707458	4.156852	25.254973	-0.605068	-0.497555	-0.359216
-1.660832	0.66953	9.70332	34.089443	31.92389	1.21809	0.668955	0.558618	-1.314342	-0.340869	-3.100876	17.537269	-113.830983	382.75719	30.118827	-0.019798	-0.476939	-1.021506	8.144257	0.648617	0.456124	3.513161	2.524911	20.311378	-0.619114	-0.514778	-0.342921
-2.233578	-0.59401	9.630023	27.25986	28.402326	0.015135	0.668969	0.541318	-1.29685	2.083654	-4.119163	17.813748	-132.355257	368.815654	20.931887	0.032916	-0.488743	-1.064654	8.066824	0.993253	-0.502003	3.997255	2.01643	19.364452	-0.605277	-0.513748	-0.358379
-1.829255	0.670378	9.870538	33.361123	31.117494	4.273822	0.668969	0.541318	-1.29685	4.610385	-4.459788	20.24431	-152.714891	345.829803	1.35681	0.137095	-0.471751	-1.082213	7.838017	0.240041	-0.210084	5.57362	5.026523	15.737449	-0.619322	-0.530971	-0.342084
-1.891538	-0.077526	9.582022	41.289395	30.050424	4.049649	0.669726	0.531075	-1.30751	9.303705	-5.256008	21.700918	-174.626776	308.676114	-36.115871	0.190034	-0.437594	-1.128373	7.595464	-0.283834	-0.636059	3.862348	8.87221	13.004884	-0.618625	-0.48322	-0.329067
-1.941987	-0.248362	9.921304	43.249651	29.717399	4.406598	0.682732	0.520116	-1.265631	12.288326	-5.48493	24.027967	-189.581606	288.659095	-74.642348	0.255435	-0.390186	-1.147112	7.659578	-0.108505	-0.334683	2.935453	14.713336	9.862666	-0.563273	-0.497769	-0.343477
-2.511481	0.154867	10.082417	50.558641	31.07985	6.49305	0.683504	0.492574	-1.2588	11.242116	-3.398997	23.724763	-154.986586	287.384601	-93.706608	0.30786	-0.342852	-1.165576	7.424344	0.008434	-0.278683	6.687627	19.965019	6.186798	-0.633372	-0.529522	-0.37321
-2.08538	0.562216	11.399522	59.216815	38.150342	15.261499	0.698739	0.502784	-1.301377	13.471194	-0.983799	20.546702	-191.679708	292.490741	-89.000238	0.399502	-0.354432	-1.209551	7.13571	-0.396186	0.013618	8.588166	22.011533	1.218816	-0.59144	-0.512718	-0.373836
-2.200138	0.906949	11.398743	82.667022	46.203469	13.883599	0.699882	0.47877	-1.308621	17.982024	0.811319	21.775306	-222.040172	276.134427	-80.55713	0.425164	-0.295144	-1.185418	5.96199	-0.392003	0.351051	5.916789	21.787599	-7.633448	-0.605418	-0.512095	-0.389434
-2.27294	0.846171	10.601445	87.422161	55.447006	16.381366	0.699525	0.457943	-1.277053	24.876575	6.095696	24.472406	-241.568431	232.378145	-65.689199	0.451782	-0.27753	-1.215673	6.373057	0.013337	0.300578	4.030743	21.011041	-13.062655	-0.605489	-0.511269	-0.404962
-2.323596	0.962543	10.941932	73.499031	59.657043	13.392707	0.714803	0.416255	-1.267155	30.21649	10.312608	27.022686	-187.435871	187.197412	-29.166915	0.543065	-0.185082	-1.223625	6.093673	0.366177	1.195162	0.035624	16.369111	-15.195758	-0.632746	-0.480945	-0.375721
-2.028582	1.194032	11.40329	54.950447	69.039308	10.348056	0.700311	0.413101	-1.25273	27.837565	12.677619	20.917093	-126.164452	145.227045	6.255205	0.53039	-0.123875	-1.227363	7.792652	0.998625	0.630726	4.566282	17.078768	-5.344553	-0.605418	-0.512095	-0.389434
-3.227833	1.540275	11.551914	44.037963	77.081293	3.947551	0.687305	0.424061	-1.294608	27.503773	12.44865	16.041061	-87.929165	112.362883	36.726662	0.60795	-0.124497	-1.214668	8.49934	1.170986	0.584766	12.609797	15.818244	6.918686	-0.604792	-0.463518	-0.391945
-2.727941	2.180968	13.723893	34.688716	95.123244	5.034458	0.714803	0.416255	-1.267155	28.203746	11.825669	13.734032	-55.140689	81.25941	62.896686	0.620625	-0.185703	-1.210929	9.444314	1.808156	0.724906	10.145328	13.534933	5.012955	-0.633025	-0.496311	-0.390412
-2.503786	1.20309	13.43998	43.051807	115.055651	3.678427	0.757179	0.397832	-1.250711	27.359077	9.966611	11.733156	-37.811495	51.342499	82.962493	0.621297	-0.108029	-1.230297	10.313495	2.557905	-0.034163	8.932676	12.807981	9.819472	-0.605698	-0.527462	-0.404125
-2.555763	1.606429	13.724821	24.218469	129.899329	-1.760863	0.798055	0.382595	-1.195455	29.048914	-3.591093	35.761096	-70.473502	-12.396031	80.483093	0.634788	-0.121131	-1.258269	9.911366	2.096467	0.495318	12.485473	10.109689	20.548355	-0.633025	-0.496311	-0.390412
-3.259488	0.926354	15.754161	1.031872	152.018312	-3.205199	0.783934	0.38297	-1.195105	38.334404	14.052958	6.02278	74.42993	-118.014152	91.019725	0.633312	-0.12649	-1.18652	10.214245	1.109736	0.796152	13.307798	8.738201	26.268251	-0.604934	-0.461865	-0.423001
-2.522027	1.154134	15.428483	19.833079	176.173292	0.721683	0.812161	0.39952	-1.213296	43.42247	7.680888	9.294414	78.938277	-192.84646	96.44658	0.569613	-0.122578	-1.24254	9.79918	0.529179	0.606256	13.957125	10.796493	40.441032	-0.618704	-0.445051	-0.439436
-2.452524	1.156746	16.05498	-7.895318	198.688447	-2.665816	0.827053	0.371603	-1.206813	46.614448	14.999493	11.236176	110.590446	-275.085189	98.615373	0.569167	-0.154291	-1.226183	9.757731	-0.396441	1.439896	12.519522	15.719674	57.881002	-0.605627	-0.528288	-0.388597
-3.437901	0.248078	18.3052	-28.315409	226.163019	-1.884122	0.896541	0.359145	-1.166331	-4.292974	2.151205	24.252599	60.151189	-284.527149	35.213318	0.47826	-0.170137	-1.223249	10.288471	-0.223428	1.450542	9.240177	20.048181	55.273199	-0.604584	-0.447326	-0.392783
-1.783147	1.234762	21.012576	-46.476324	261.987748	-8.42556	0.924811	0.323798	-1.132046	0.267748	-3.269665	19.078485	46.659103	-182.602933	30.20273	0.439408	-0.155041	-1.223426	12.429755	1.111909	2.574168	-12.974509	26.376995	15.397069	-0.618562	-0.446703	-0.408381
-3.215549	0.501163	23.823142	-87.885434	294.804042	-11.391477	0.937402	0.361208	-1.128567	22.150235	-0.444348	12.067489	212.055365	-120.817119	7.951084	0.438591	-0.203146	-1.191716	14.935043	5.573013	1.442386	-58.803261	37.087374	-48.019978	-0.64652	-0.445459	-0.439577
-2.522075	0.22725	27.07481	-125.781584	315.165799	-3.222462	0.993199	0.283456	-1.031845	0.5729	0.216132	12.124426	23.871419	-13.602801	-11.758652	0.375113	-0.213482	-1.261082	16.492482	9.686831	0.051886	-91.092916	52.935884	-73.944406	-0.618495	-0.428858	-0.440273
-0.039046	0.599633	34.057988	-75.674173	356.180059	0.52102	1.018396	0.340977	-1.007394	-0.069892	-2.994139	11.37211	49.20042	-21.342608	6.527397	0.360805	-0.248486	-1.2014	14.580066	10.499272	-1.178005	-41.272331	47.993078	-37.411573	-0.632403	-0.429063	-0.440344
-1.174594	-3.361556	34.360187	64.200683	432.843355	46.411052	1.046294	0.3021	-0.959033	3.883754	0.037414	8.174198	82.804852	-43.982331	-6.957537	0.374001	-0.262659	-1.215022	11.553473	4.459329	-2.937232	41.879452	32.366119	29.047814	-0.605426	-0.474753	-0.484275
-2.325011	-1.790607	25.365226	192.870505	471.959605	50.448252	1.128417	0.275155	-0.862597	0.85933	-0.803219	6.581354	22.998335	-23.720015	-9.1163	0.335589	-0.276061	-1.24189	8.531558	1.616287	-4.023886	10.925784	33.368012	39.855109	-0.59075	-0.427624	-0.455661
0.043409	3.35023	32.536765	188.307564	498.637361	30.62913	1.140694	0.239839	-0.775075	1.925017	-2.717017	10.508425	37.92601	-16.811788	4.559523	0.321802	-0.264031	-1.199569	8.89668	2.082805	-3.35633	-19.951903	48.601563	26.504173	-0.605426	-0.474753	-0.484275
-5.10479	-4.068585	29.450174	68.711872	495.202171	-4.74635	1.183113	0.169518	-0.706155	1.383684	-1.30859	9.535857	24.065669	-9.72779	-3.704787	0.386902	-0.277905	-1.214294	10.819931	3.713266	-1.217452	-26.932414	50.184948	21.875449	-0.618913	-0.461243	-0.438599
4.993814	-9.07701	42.241845	-9.864167	437.969459	-8.365619	1.250715	0.174018	-0.630277	0.695101	-1.194541	9.634724	7.391718	-12.092472	-7.410218	0.334848	-0.308846	-1.211184	11.903191	5.110099	0.126241	-24.542394	36.574385	16.368446	-0.60508	-0.441542	-0.501477
10.526551	-4.66666	26.85335	192.265043	458.295227	43.145265	1.262235	0.148945	-0.532095	0.826031	-1.870154	10.316248	1.734751	-9.816528	-5.357512	0.361025	-0.262734	-1.214746	11.48442	4.703029	-0.242634	-4.565011	31.73199	6.324223	-0.619334	-0.474957	-0.484346
9.119745	-12.56548	-7.305557	361.412931	371.734523	-39.529996	1.26152	0.10729	-0.468959	1.856703	-2.153984	10.054574	7.304496	-11.664308	-7.406031	0.347233	-0.310915	-1.18276	11.506524	3.720186	0.831487	-1.662329	28.56317	6.084316	-0.60452	-0.410809	-0.472096
32.500975	-11.318619	-20.314318	254.656883	57.768992	-184.824497	1.275298	0.068788	-0.420249	1.559121	-1.47781	9.652621	5.560614	-10.251948	-6.376078	0.29548	-0.280574	-1.183664	12.048208	2.501105	1.255548	-5.842964	24.359627	8.809211	-0.618499	-0.410187	-0.487694
30.974332	-14.980604	9.703841	-70.601037	-42.81898	-61.379789	1.27414	0.110101	-0.430496	1.440687	-1.646729	9.480142	1.003658	-9.14201	-6.769469	0.347679	-0.279202	-1.199117	12.050118	2.152896	1.313971	-6.358376	21.79145	8.487118	-0.604942	-0.424523	-0.517842
6.438846	10.370966	23.313737	4.045992	-87.830114	42.257626	1.245513	0.124621	-0.433214	1.100908	-1.420523	9.756276	-3.598309	-9.136466	-7.173876	0.347308	-0.295594	-1.183764	11.996739	2.096191	1.612158	-16.05684	15.882985	2.62098	-0.590963	-0.425145	-0.502244
12.426822	-10.670199	6.74704	52.142946	-56.345066	-95.243458	1.21953	0.111942	-0.481988	1.560545	-1.590424	9.709166	-2.021952	-9.11265	-7.758096	0.321953	-0.233391	-1.201576	11.931411	2.443546	1.313006	-21.067561	10.669094	-9.621924	-0.618779	-0.425553	-0.502385
3.379445	-8.123637	9.536974	-10.806864	-121.025081	13.275433	1.259248	0.138018	-0.436979	1.040278	-1.082527	9.642073	-6.075394	-9.769282	-9.000989	0.334263	-0.25078	-1.172149	10.809564	2.678416	1.293087	-19.330913	7.85481	-14.932203	-0.632966	-0.441124	-0.517146
5.047644	-8.43529	4.112389	95.895619	-105.826659	23.702386	1.247014	0.121435	-0.472026	1.104619	-2.096394	9.868987	-6.85441	-7.763131	-7.810221	0.347233	-0.310915	-1.18276	10.581182	2.215831	1.646149	-16.230212	5.251934	-13.586399	-0.577264	-0.441134	-0.501337
8.098065	-6.103455	-0.762694	27.653568	-162.825309	56.515864	1.27484	0.169056	-0.511124	1.38895	-1.533723	9.762226	-2.785754	-5.939181	-6.863982	0.308751	-0.279427	-1.19829	9.98934	1.519527	1.452457	-17.163965	-0.140468	-13.037772	-0.60508	-0.441542	-0.501477
7.797352	-3.426314	7.36949	-31.681747	-254.485577	55.658532	1.235494	0.146508	-0.570208	1.282712	-1.758497	10.156096	2.928019	-6.104345	-8.032478	0.347013	-0.296666	-1.169414	8.739961	1.578214	0.890433	-13.701115	-1.050359	-15.55184	-0.590896	-0.4073	-0.534137
6.138999	-4.688584	7.388743	-14.684683	-278.107925	51.026083	1.210282	0.106286	-0.61215	1.62668	-1.64653	10.106804	5.638925	-4.116886	-6.592463	0.334923	-0.293525	-1.212187	8.79307	1.751071	0.59274	-11.765558	-5.352739	-21.802772	-0.605221	-0.439889	-0.532533
5.110517	-2.963868	7.546499	0.400075	-305.169952	79.973202	1.225132	0.130268	-0.658143	1.222059	-2.040184	9.984731	7.206564	-4.911385	-8.664553	0.295706	-0.234613	-1.186675	8.083641	1.81052	0.519875	-10.699727	-11.760356	-31.798531	-0.619058	-0.44092	-0.517075
5.428552	-1.590828	6.308203	-11.746852	-328.634665	76.224912	1.184256	0.145505	-0.713399	1.567906	-1.64647	10.048956	14.527643	-5.021676	-10.416926	0.309272	-0.232394	-1.21565	7.474097	2.098047	-0.50831	-8.460131	-12.917555	-43.350412	-0.605009	-0.442368	-0.485949
5.580671	-1.238059	8.244883	-42.066646	-346.817308	57.807717	1.156001	0.163553	-0.730193	1.454654	-1.364507	10.160054	21.560178	-3.453699	-11.474637	0.29585	-0.264181	-1.199018	6.888222	2.623318	-0.217555	-8.81402	-10.558936	-43.818668	-0.633175	-0.457316	-0.516308
4.523765	-0.885867	9.817061	-55.687581	-354.047211	43.84126	1.115497	0.182318	-0.799525	1.559899	-1.252441	9.70945	26.096739	-3.791512	-11.967583	0.282874	-0.264257	-1.198742	7.120581	2.796264	-0.392132	-6.271819	-11.504431	-34.321277	-0.60515	-0.440716	-0.517005
4.257495	-0.823876	10.835091	-58.394159	-355.361282	28.374434	1.08877	0.162582	-0.820147	1.514422	-1.251859	10.274637	24.68563	-2.698467	-8.351037	0.334113	-0.281421	-1.170142	6.706927	3.029514	-0.398846	-5.544127	-10.564645	-15.505417	-0.619614	-0.490323	-0.499036
3.682314	-1.800691	10.649294	-71.35723	-354.571862	13.215141	1.061229	0.222286	-0.900076	1.22055	-1.251557	9.985395	26.678963	-3.865724	-8.85428	0.281989	-0.267472	-1.155693	5.877245	2.623883	-0.655611	-4.406305	-4.907697	-29.776252	-0.563427	-0.440103	-0.516794
2.438596	-2.198493	11.419051	-91.340392	-354.701688	0.23718	1.047837	0.247016	-0.94537	1.33823	-0.688325	10.158206	22.473105	-4.08645	-6.701926	0.334929	-0.233316	-1.201852	7.016969	2.276817	0.322325	-1.811515	-2.413711	-15.680067	-0.605501	-0.455255	-0.547224
1.209601	-2.937807	12.926451	-116.908089	-353.754424	-6.881002	0.979092	0.266531	-1.014004	1.479047	-1.47622	11.292752	26.083316	-9.250837	-7.089475	0.30779	-0.297963	-1.154237	7.436259	1.986728	0.628326	-4.605896	0.986617	9.497013	-0.633454	-0.472682	-0.530999
-0.604269	-3.564478	13.797814	-131.476817	-345.882038	-4.073799	0.921824	0.31287	-1.03693	1.796312	-1.308965	9.997437	33.717556	-13.490364	-5.121683	0.333887	-0.327382	-1.167131	7.798329	1.871496	1.053782	-4.439508	1.49175	10.991703	-0.605776	-0.489293	-0.514494
-1.783602	-3.041567	14.970518	-141.398353	-336.37024	8.008127	0.867214	0.314711	-1.088422	1.548588	-1.027546	9.199884	29.427628	-8.421639	-5.475499	0.306754	-0.331819	-1.10918	8.625906	1.288846	1.066716	-3.286051	-3.906241	9.851803	-0.632895	-0.44195	-0.501618
-2.786924	-2.230608	16.375181	-155.611715	-327.081866	13.596953	0.838944	0.350059	-1.122707	0.994014	0.835772	13.039643	26.307441	-13.222071	-4.2618	0.320396	-0.31428	-1.139159	8.74998	1.057508	1.367463	-11.06409	-7.212722	7.481122	-0.605776	-0.489293	-0.514494
-3.843747	-1.9933	17.946876	-147.015069	-310.024999	19.184759	0.810317	0.364579	-1.125424	1.391091	-0.12527	9.98997	27.560563	-25.991739	0.143959	0.307345	-0.329676	-1.13788	8.812723	1.348742	1.609427	-11.691278	-5.614819	-2.335118	-0.591589	-0.473723	-0.499733
-4.192675	-2.224023	17.654965	-132.288915	-290.796225	20.190451	0.781662	0.413698	-1.163125	2.06023	-0.575725	11.645437	15.750725	-29.328971	-0.176176	0.294218	-0.360392	-1.135597	8.76168	1.234455	2.02718	-8.010075	-6.687162	-9.769751	-0.618917	-0.442572	-0.48602
-5.617686	-1.762007	17.970176	-125.211992	-286.351986	11.10405	0.738914	0.428593	-1.165493	1.991452	1.736034	14.023827	33.764196	-34.670989	-11.251121	0.294444	-0.31443	-1.138608	8.458336	1.000848	1.541434	-7.203906	-11.446394	-7.702389	-0.619196	-0.457938	-0.50071
-5.532418	-1.366272	16.495912	-131.591751	-286.370191	-19.669287	0.669398	0.475649	-1.240959	1.279933	0.325779	10.21449	22.093308	-47.752769	1.495459	0.281613	-0.344074	-1.150675	8.399705	0.3619	1.477707	-3.77437	-14.30389	-2.291758	-0.64687	-0.459999	-0.469795
-7.802144	-0.383524	17.535684	-173.381416	-280.559311	-38.993643	0.654877	0.507094	-1.261517	1.162906	-0.967413	12.701915	13.936011	-48.754013	-6.659632	0.295029	-0.372496	-1.177642	8.808301	0.882897	1.307915	-3.826339	-15.719598	1.504972	-0.660991	-0.457724	-0.516449
-11.938949	-1.003188	19.612162	-180.030089	-265.670886	-14.255865	0.611015	0.511404	-1.221657	1.957811	-1.532701	12.15197	29.991806	-61.681803	-10.751972	0.294369	-0.329751	-1.137604	8.80556	1.114707	1.18909	-2.537933	-15.326554	5.349458	-0.605076	-0.460213	-0.454057
-19.413738	3.099208	23.860002	-186.424763	-239.409286	33.077492	0.581559	0.622664	-1.301174	2.172919	-1.195718	11.477414	30.382075	-67.528144	-11.888726	0.2432	-0.357476	-1.177543	8.198021	0.066239	0.095311	-0.198022	-13.349092	13.095087	-0.619401	-0.492802	-0.452453
-31.787947	9.438592	26.430721	-124.64747	-194.103817	29.28137	0.525792	0.665817	-1.362912	1.57806	-1.024023	13.276726	26.875911	-78.866647	-15.765164	0.268932	-0.343077	-1.164749	8.552408	0.414132	0.163304	1.09902	-9.150377	18.633497	-0.633384	-0.473509	-0.515471
-38.373186	9.890304	23.349353	-13.798744	-191.036511	42.809884	0.452917	0.698418	-1.329186	1.713413	-0.462464	11.581639	32.070695	-93.202655	-18.307967	0.255881	-0.358473	-1.163469	8.723644	-0.401068	-0.256204	5.615867	-3.25733	24.121832	-0.633175	-0.457316	-0.516308
-39.642748	12.621789	17.084826	-42.003869	-184.688237	54.613851	0.412027	0.730954	-1.401934	1.820105	0.156671	11.244741	24.024952	-98.885381	-14.085947	0.216362	-0.360842	-1.133942	9.193613	0.527068	-0.243445	8.57729	-0.3551	31.403401	-0.618913	-0.461243	-0.438599
-36.248286	9.610588	12.023422	-44.021821	-151.628189	64.966618	0.425404	0.723523	-1.374131	1.557209	-0.236155	12.371156	10.622034	-110.552684	-10.667527	0.164459	-0.361142	-1.13284	9.306973	0.641961	-0.480377	12.029324	2.485425	27.066963	-0.618287	-0.412666	-0.44111
-37.359617	10.398145	7.913335	-17.19801	-96.152842	54.355225	0.395992	0.782885	-1.401172	2.497766	-1.589148	13.182315	3.11401	-122.946649	-11.50575	0.190191	-0.346743	-1.120045	9.372862	0.527157	-0.12033	12.764962	3.89364	24.245215	-0.618779	-0.425553	-0.502385
-39.13096	22.464806	8.554876	42.97582	35.844793	-4.846748	0.339152	0.763555	-1.368207	2.765934	-1.813431	14.942789	3.117789	-140.271649	-18.151587	0.164534	-0.345822	-1.133843	9.550876	0.585075	-0.056874	10.047807	4.201447	23.122547	-0.590892	-0.425971	-0.486716
-42.446989	22.997736	11.675125	57.340088	98.854619	-13.984722	0.397521	0.7451	-1.405	2.369882	-2.263084	15.217145	11.060958	-160.066867	-26.141008	0.138136	-0.377684	-1.116935	10.095476	0.00582	0.609533	7.859399	2.425581	31.423298	-0.603477	-0.329847	-0.476281
-45.771465	25.067552	11.505524	263.76293	140.844767	-50.828063	0.355916	0.735981	-1.414613	2.727794	-2.488578	15.790605	16.86036	-180.928593	-35.159853	0.124495	-0.395224	-1.086956	9.688446	0.705408	1.024145	6.14003	-3.310805	35.400575	-0.632128	-0.395025	-0.473073
-25.251687	21.745613	4.161719	237.502809	200.579889	-85.339082	0.426919	0.703038	-1.395451	2.063365	-2.993264	16.965103	13.07815	-206.963718	-41.987335	0.073106	-0.4087	-1.113549	9.400738	-0.570601	1.252831	-0.451919	-11.649674	26.140291	-0.605009	-0.442368	-0.485949
-7.357235	11.000949	20.263353	87.044809	307.465822	-79.207498	0.429548	0.693137	-1.458999	2.3613	-3.610722	20.084595	25.797823	-237.845729	-55.631003	0.097952	-0.397517	-1.057705	9.506685	-0.108735	0.657941	-9.771585	-16.862139	15.316744	-0.646315	-0.410595	-0.487834
-5.290428	0.085082	20.143883	-20.439664	192.765262	-56.895293	0.50018	0.656666	-1.425762	2.05161	-3.946683	21.719605	17.552745	-277.38865	-63.921231	0.045904	-0.368249	-1.04426	10.964198	2.847294	0.098992	-3.100277	-30.173785	-8.239087	-0.632478	-0.409565	-0.503292
-9.448269	3.37516	9.62008	58.766502	139.555161	-12.866935	0.499437	0.649609	-1.39761	0.717594	-4.787252	23.842185	16.560287	-315.260577	-75.486931	-0.019202	-0.414585	-1.03987	12.774323	6.44135	-0.450635	12.594632	-39.088713	-45.684817	-0.646386	-0.409769	-0.503362
-1.135278	1.877842	10.286939	-21.876069	101.376519	4.869607	0.570797	0.637494	-1.410016	-2.050499	-2.582852	26.446859	-20.349878	-362.038517	-83.809837	-0.071771	-0.432349	-1.009064	12.904447	9.291008	0.582098	-4.829018	-39.92897	-56.188178	-0.646173	-0.412248	-0.456779
-1.02876	-0.939047	9.765664	-65.177745	-19.270863	0.303745	0.513171	0.663006	-1.401375	-3.424417	-1.2819	29.589545	-47.875651	-413.472984	-87.640189	-0.098313	-0.434643	-0.979813	10.858919	8.254321	1.497642	-4.966754	-45.444836	-28.48077	-0.590542	-0.411431	-0.456498
-2.625374	0.84449	10.139939	43.411431	34.56571	-16.523354	0.486059	0.65704	-1.425413	-2.448705	-0.546762	34.932417	2.356476	-472.600757	-96.754692	-0.138347	-0.423835	-0.92259	10.164288	3.842905	1.645368	3.980683	-55.774058	15.4527	-0.67378	-0.396464	-0.457756
-1.418229	-0.546599	7.429696	18.309713	33.952613	13.68578	0.557805	0.631154	-1.434403	1.441736	-0.547935	41.977667	102.531573	-528.89221	-92.701178	-0.217088	-0.427501	-0.877887	9.530146	1.639727	2.16303	5.014894	-67.710231	52.46651	-0.645894	-0.396882	-0.442088
-1.619177	0.0466	11.80423	-45.948323	15.266123	1.02438	0.543313	0.628	-1.419978	3.849314	0.001023	30.81911	141.065125	-572.820233	-69.618265	-0.308956	-0.461883	-0.8309	10.940511	2.332409	1.95278	4.410791	-67.612196	54.608548	-0.631986	-0.396678	-0.442018
-1.8349	-0.767107	9.523387	5.57127	8.57055	2.699339	0.542184	0.634714	-1.395242	2.222748	-7.944469	23.98424	94.764503	-562.685952	-48.779437	-0.34951	-0.498108	-0.756317	11.618379	4.00906	0.53539	10.695315	-67.409474	25.29622	-0.673918	-0.413482	-0.441391
-1.156387	0.264654	9.143121	-10.01971	13.390471	4.93859	0.570425	0.633965	-1.39594	1.784659	-4.645003	-4.329136	250.696132	-390.912729	-23.399878	-0.429213	-0.52031	-0.667561	11.846646	4.994576	0.24446	2.851753	-60.57302	-14.685953	-0.618074	-0.415145	-0.394527
-1.593758	-0.592295	10.153949	-15.989799	10.677559	3.224986	0.542227	0.582816	-1.342766	-15.753975	-1.56695	-0.845009	197.52545	-251.377722	9.355485	-0.470282	-0.543359	-0.565282	11.010515	4.994242	-0.310108	-2.243387	-50.296424	-19.667062	-0.660077	-0.431123	-0.409428
-1.657818	-0.421376	9.812441	-8.207965	12.919534	6.551065	0.584574	0.598992	-1.361306	-10.457337	-11.379087	-1.591635	23.247775	-196.371008	-12.98962	-0.484069	-0.531329	-0.52296	10.42456	3.660091	-0.266892	6.613072	-43.612502	11.258672	-0.687192	-0.402452	-0.349132
-1.489685	-0.020134	9.646911	-13.10275	10.673974	4.719311	0.554033	0.665068	-1.363611	-18.177192	-11.245116	6.059105	39.400686	-80.099546	9.542368	-0.471909	-0.579359	-0.491526	11.120879	2.609888	-1.036927	12.549541	-33.606802	33.443151	-0.673777	-0.415135	-0.410336
-1.370225	-0.70855	9.873655	-11.513223	10.41214	4.066471	0.612401	0.646613	-1.400404	-7.652298	-6.068222	22.47637	46.647141	52.362011	86.278101	-0.511132	-0.580656	-0.476349	12.133902	2.203038	-0.540695	8.585383	-22.02987	30.43688	-0.687334	-0.400799	-0.380187
-1.707112	-0.649412	10.208334	-2.267854	8.702312	4.134741	0.557062	0.624097	-1.406251	-17.561506	-7.52653	8.283268	161.844563	35.347996	61.535471	-0.49734	-0.532476	-0.508335	12.956692	2.258482	-0.704762	9.627992	-11.990923	9.354575	-0.672796	-0.370689	-0.335208
-1.952092	-0.13565	9.410108	2.658304	7.027501	4.768018	0.542556	0.638243	-1.409318	-4.791923	-8.285565	5.323781	94.610176	37.155916	48.24179	-0.549985	-0.565561	-0.476525	13.051925	3.066579	-1.837331	15.583102	-4.805368	-0.237253	-0.659034	-0.350161	-0.413614
-1.834201	-0.192451	9.582653	0.840343	5.075349	5.416199	0.542184	0.634714	-1.395242	-7.503082	-9.637484	-0.508997	44.971529	58.168	24.548166	-0.497855	-0.5193	-0.480639	13.108025	2.426619	-2.078577	19.412909	3.77255	-0.230934	-0.631005	-0.352231	-0.36689
-2.001386	-0.363686	9.806001	1.161836	3.588471	3.857755	0.555176	0.641054	-1.370855	-12.034112	-6.076862	3.192131	-12.965177	117.425565	2.832614	-0.510981	-0.550016	-0.478356	12.413867	2.547605	-1.312499	19.325656	9.140514	4.206015	-0.67343	-0.381924	-0.427538
-1.948544	-0.422134	9.579461	1.388619	4.58692	5.345349	0.584903	0.654418	-1.427857	-10.901072	-4.891972	7.859334	-11.898292	166.565277	-4.476981	-0.497045	-0.531404	-0.522685	12.018881	1.855346	-0.424565	16.155453	11.163967	-3.249531	-0.658896	-0.333142	-0.429979
-1.832839	-0.536859	9.638059	-2.524322	5.791596	5.928194	0.583803	0.626534	-1.368137	-11.021639	-3.314597	7.744965	13.932973	217.529256	-10.823415	-0.484514	-0.563042	-0.506603	10.98134	1.630912	0.87259	9.976039	12.152416	-18.145279	-0.65931	-0.384198	-0.380884
-1.261449	-0.480073	9.592582	-0.571213	4.948624	5.172866	0.513943	0.635464	-1.394543	-9.903986	-4.050425	6.125979	23.201711	263.359237	-15.569406	-0.470803	-0.590392	-0.547921	9.632792	2.100851	1.38842	4.666197	13.722384	-32.770179	-0.64624	-0.430093	-0.424886
-1.994912	-0.075031	10.148326	-0.145769	3.771711	6.133855	0.54257	0.620943	-1.391826	-8.311712	-3.94154	5.253689	8.27974	305.868737	-24.714333	-0.456421	-0.540068	-0.608607	8.98512	1.928355	1.43548	4.828536	12.210252	-40.310377	-0.659447	-0.401217	-0.364519
-1.605308	-0.020292	9.587831	3.437842	3.200035	6.512918	0.598666	0.633216	-1.396639	-7.925542	-3.771583	7.186831	-6.985171	340.812898	-35.044372	-0.415872	-0.564053	-0.693525	8.754017	2.162435	1.731602	7.592831	13.027013	-26.63578	-0.659451	-0.382546	-0.41194
-1.718537	-0.249734	9.641492	6.50888	4.260256	6.429308	0.569668	0.644208	-1.38528	-7.48815	-2.813296	8.895288	-17.717137	365.954306	-40.412787	-0.337576	-0.5921	-0.721872	7.971692	2.509433	0.93999	3.399014	14.413389	-23.113178	-0.673777	-0.415135	-0.410336
-1.777112	0.037274	9.584732	11.013282	3.782287	7.052575	0.58416	0.647362	-1.399705	-7.646233	-2.868734	9.571289	-19.564225	383.057351	-44.251151	-0.323124	-0.586665	-0.793896	7.319888	2.219796	0.746928	2.292958	12.131824	-24.71781	-0.659865	-0.433602	-0.362845
-1.831932	-0.24941	9.696118	12.850219	3.201412	7.528512	0.598295	0.629688	-1.382563	-5.844542	-2.364389	10.458786	-38.37074	401.648044	-32.613829	-0.257139	-0.597323	-0.85167	6.839245	2.567602	0.320259	4.077637	3.596452	-29.908658	-0.673497	-0.399769	-0.395645
-1.941987	-0.248362	9.921304	18.208684	2.550707	7.471846	0.583788	0.643833	-1.385629	-4.200826	-1.971813	12.022237	-50.471333	405.631275	-24.291576	-0.243127	-0.563392	-0.897002	7.299675	2.389574	-0.330655	7.859978	1.211069	-22.730208	-0.673985	-0.431327	-0.409499
-1.651261	-0.247604	10.154283	22.532434	2.718978	7.952798	0.584574	0.598992	-1.361306	-2.115783	-3.552568	12.517546	-64.4961	403.631243	-21.548391	-0.150825	-0.617717	-0.981016	7.665181	2.217008	0.274275	6.451257	8.073005	8.353367	-0.618495	-0.428858	-0.440273
-1.26232	0.726199	9.597649	24.163519	5.434531	13.082789	0.55629	0.651639	-1.413083	-1.513187	-3.101911	13.832726	-92.038295	402.904318	-19.82066	-0.096774	-0.534383	-1.073236	8.249685	1.807643	-0.075892	2.287426	12.324447	18.801797	-0.645122	-0.368628	-0.366123
-1.882755	0.096728	10.037571	25.604975	1.953394	3.546148	0.600181	0.612731	-1.417959	-1.201337	-4.284537	14.857287	-108.049735	397.715583	-19.792774	0.007104	-0.578672	-1.08678	7.960647	1.57725	0.217151	2.201973	11.655295	15.442923	-0.645961	-0.414727	-0.410195
-2.272235	-0.130335	10.597342	12.493782	6.171802	5.645809	0.529221	0.593776	-1.384645	0.164569	-3.440351	16.924829	-126.106946	390.202458	-14.425791	0.111797	-0.574856	-1.132036	8.428644	1.459029	-0.014167	4.833429	11.302994	17.88043	-0.632332	-0.429889	-0.424816
-1.656461	0.785378	9.931215	37.2496	2.950148	9.846163	0.613973	0.55693	-1.351757	1.158203	-4.34295	17.567658	-139.509972	371.93047	-10.95022	0.178674	-0.522088	-1.222523	8.012615	0.820149	-0.264218	9.035807	13.008815	17.062321	-0.701313	-0.400177	-0.395785
-0.927717	1.655672	12.108614	23.813246	19.409561	2.945659	0.585703	0.592278	-1.386042	3.143123	-4.289193	18.911519	-160.24835	345.46865	-9.535074	0.283517	-0.487632	-1.269786	7.951803	0.645561	-0.385874	9.344789	12.10488	12.877901	-0.617865	-0.398952	-0.395364
-2.26414	0.088774	8.097885	19.196994	19.069405	-1.462742	0.558577	0.603612	-1.427571	6.159015	-5.307941	19.936402	-186.725454	307.195207	-15.486593	0.400162	-0.397178	-1.24959	7.541566	0.356621	-0.274999	6.929396	10.653154	7.483507	-0.660286	-0.447316	-0.408591
-0.883363	-0.530284	11.361467	40.214418	16.620799	17.05152	0.557105	0.572199	-1.353776	8.38784	-4.803402	21.965153	-214.401254	283.94732	-24.433587	0.530286	-0.440245	-1.278036	7.550099	0.47475	0.204751	5.401465	11.02174	3.850135	-0.66001	-0.413278	-0.441321
-2.501709	0.501687	10.595543	18.118839	26.414407	0.837172	0.571954	0.59618	-1.399769	8.276883	-1.929951	22.418271	-215.244678	278.740812	-20.941052	0.634325	-0.333473	-1.272917	6.831306	0.29967	-0.408265	6.984865	14.453349	0.893932	-0.631706	-0.381311	-0.427327
-1.63357	-0.07142	11.064657	16.890556	27.605223	-1.685382	0.585703	0.592278	-1.386042	11.385247	-0.583743	22.597969	-226.593454	272.682217	-5.751018	0.710925	-0.352631	-1.216169	6.7859	0.128544	0.308775	10.205319	15.429102	-3.615081	-0.659869	-0.414931	-0.410265
