1812_acc_x	1812_acc_y	1812_acc_z	1812_gyro_x	1812_gyro_y	1812_gyro_z	1812_mag_x	1812_mag_y	1812_mag_z	1813_acc_x	1813_acc_y	1813_acc_z	1813_gyro_x	1813_gyro_y	1813_gyro_z	1813_mag_x	1813_mag_y	1813_mag_z	1814_acc_x	1814_acc_y	1814_acc_z	1814_gyro_x	1814_gyro_y	1814_gyro_z	1814_mag_x	1814_mag_y	1814_mag_z
-1.423693	-0.173545	9.772311	-0.386465	0.691556	-0.288376	0.826261	-0.332394	-0.741864	1.032285	-0.726718	9.289563	-0.138893	-1.329202	-0.234726	-0.348227	0.180117	0.012008	9.06312	3.639017	1.1745	-0.146522	1.28617	-0.071395	-0.131695	-0.094489	0.399986
-1.024206	-0.232257	9.664543	-0.317397	0.779632	-0.103045	0.436243	0.330444	-1.136561	1.373639	-0.38429	9.472475	-0.107226	-1.230911	-0.353189	-0.162106	0.012008	-0.066043	9.055123	3.695073	0.775118	0.06873	1.259983	-0.191971	-0.47601	0.413114	-0.342735
-0.906279	0.058264	9.840972	-0.384867	0.502391	0.039969	0.453345	0.350226	-1.136667	0.983436	-0.383605	9.759869	-0.017893	-1.363421	-0.272223	-0.156102	0.012008	-0.042027	9.172832	4.043275	1.007316	-0.084954	1.202225	-0.558477	-0.471131	0.39086	-0.345953
-1.364019	-0.173321	9.889084	-0.417223	0.566824	-0.109412	0.486401	0.331255	-1.079087	0.864324	-0.898185	9.345608	0.111918	-1.243029	-0.300124	-0.144094	0.006004	-0.060039	9.113306	3.637326	0.833074	-0.14634	1.19603	-0.191644	-0.443972	0.405746	-0.327371
-1.133601	0.116809	9.952169	-0.385251	0.533989	-0.019843	0.453727	0.369738	-1.155932	1.02977	-0.61193	9.17136	0.093198	-1.092251	-0.19706	-0.156102	0.012008	-0.048031	9.177462	3.407204	1.175701	0.191643	1.318722	0.082593	-0.455089	0.403308	-0.36853
-1.134188	-0.463757	9.892957	-0.327324	0.503316	-0.144717	0.470446	0.370009	-1.136774	0.976234	-0.153826	9.405462	-0.187289	-1.045023	-0.276547	-0.144094	0	-0.066043	9.396327	3.925976	0.782927	0.313903	1.599718	-0.167946	-0.475584	0.399359	-0.321021
-1.136919	0.000305	9.778445	-0.175272	0.406587	-0.121745	0.442526	0.383349	-1.103555	0.749112	-0.897641	9.225435	0.064259	-0.90378	0.372351	-0.156102	0.018012	-0.060039	9.173059	3.927483	1.006791	0.406196	1.544084	-0.47201	-0.472885	0.413618	-0.372291
-0.968128	-0.058324	9.60829	-0.071926	0.617272	0.037248	0.468654	0.332111	-1.116405	1.603424	-0.900807	9.595735	0.192921	-0.781695	0.313697	-0.162106	0.006004	-0.060039	8.831183	3.464731	0.940838	0.344467	1.609612	-0.810297	-0.456889	0.393802	-0.33435
-1.415414	-0.46278	10.176316	-0.32726	0.440544	-0.055619	0.499394	0.355542	-1.151833	1.031539	-0.841201	9.230766	-0.061797	-0.761556	0.138824	-0.162106	0.012008	-0.066043	9.053883	3.752707	0.718289	0.52892	1.612791	-0.870549	-0.50317	0.398229	-0.361317
-1.315997	0.057676	9.428267	-0.205516	0.469745	-0.17955	0.457191	0.385872	-1.120717	1.036461	-0.669831	9.525463	-0.055362	-0.670483	0.175336	-0.168109	0.012008	-0.060039	8.998737	3.984932	0.832398	0.376088	1.241729	-0.77101	-0.443499	0.424254	-0.366174
-1.190711	-0.173349	9.950327	-0.391782	0.381094	-0.087086	0.455399	0.347974	-1.100347	0.971823	-0.497073	9.11107	0.376722	-0.585021	-0.020313	-0.150098	0.006004	-0.066043	9.344799	3.46397	1.008066	0.622703	0.995476	-0.488708	-0.460441	0.407053	-0.326508
-0.964643	-0.115948	9.781595	-0.175656	0.438185	-0.181556	0.455782	0.367486	-1.119612	1.2106	-0.384388	9.823216	-0.026605	-0.60142	0.0242	-0.144094	-0.006004	-0.066043	8.781339	3.292733	1.281476	0.377108	0.812166	-0.730458	-0.441746	0.401496	-0.339837
-1.138983	-0.232146	9.662257	-0.352958	0.532329	0.04044	0.445345	0.42012	-1.105764	0.753693	-0.611687	9.519928	-0.145767	-0.469356	-0.024805	-0.150098	0.012008	-0.078051	9.563676	3.403516	0.555571	0.161706	0.873081	-0.885954	-0.474257	0.390356	-0.316397
-1.538748	0.116779	9.770724	-0.058267	0.250445	-0.192058	0.438297	0.328192	-1.100241	0.867818	-0.612129	9.581101	-0.254434	-0.218684	0.026127	-0.162106	0.012008	-0.054035	9.34423	3.753452	1.009381	0.161186	1.061517	-1.196177	-0.492053	0.400667	-0.320158
-1.602938	0.057954	9.422552	-0.355838	0.596799	-0.170759	0.452962	0.330714	-1.117403	1.032626	-0.841303	9.289766	-0.61348	0.235964	0.531897	-0.168109	0.018012	-0.054035	9.337814	3.578186	0.666039	0.16025	1.43295	-1.449477	-0.47601	0.413114	-0.342735
-0.960182	0.000697	10.013133	-0.220245	0.070858	-0.256702	0.436888	0.309806	-1.099136	1.370614	-0.097625	9.353967	-0.295581	0.278562	0.646689	-0.150098	0.006004	-0.066043	9.163947	3.404049	0.490595	0.406097	1.441871	-1.845969	-0.403456	0.395135	-0.383584
-1.020833	-0.173795	9.838127	-0.365638	0.19494	-0.034235	0.453989	0.329588	-1.099243	1.253164	-0.440531	9.057402	-0.411401	0.730004	1.019795	-0.156102	0.018012	-0.066043	9.170465	4.100646	0.893395	0.497948	1.570594	-2.184898	-0.441746	0.401496	-0.339837
-1.198657	-0.232369	9.545484	-0.49609	0.076888	-0.15822	0.452962	0.330714	-1.117403	1.256594	-0.498128	9.234504	-0.015659	0.657024	0.908018	-0.162106	0.012008	-0.066043	8.711438	3.579437	0.65365	0.313702	1.422317	-2.671814	-0.441746	0.401496	-0.339837
-1.25822	-0.348679	9.428432	-0.318788	-0.017255	-0.380215	0.452962	0.330714	-1.117403	0.810383	-0.66915	9.521116	-0.660324	1.199981	1.151698	-0.150098	-0.006004	-0.054035	9.285819	3.926992	0.951951	0.099036	1.202846	-2.514952	-0.493425	0.377405	-0.264265
-1.20203	-0.290831	9.3719	-0.902324	-0.097904	-0.094624	0.441117	0.364963	-1.10245	0.700433	-0.611821	9.695842	-1.083442	1.402977	1.180098	-0.150098	0.012008	-0.054035	8.941691	3.463715	0.771814	-0.208295	1.139115	-2.606882	-0.455562	0.384799	-0.329726
-0.73378	-0.290159	9.843562	-0.671388	-0.502434	-0.238965	0.44599	0.399482	-1.068339	0.750838	-0.382314	9.401521	-1.225001	1.490127	1.407159	-0.162106	0.012008	-0.060039	8.88452	3.579621	0.771214	-0.638812	1.165369	-2.670976	-0.486274	0.383166	-0.340466
-1.476732	0.05924	10.002986	-0.652479	-0.841058	-0.283882	0.419524	0.330174	-1.155719	0.858039	-0.611216	9.0501	-1.049122	1.721107	1.601001	-0.150098	0.006004	-0.066043	9.390127	4.214144	0.498781	-0.607631	0.954818	-2.910608	-0.440846	0.406249	-0.356926
-0.974875	-0.175248	9.261122	-1.364267	-1.556506	-0.632499	0.454372	0.3491	-1.118507	0.917648	-0.554398	9.228085	-1.399788	2.040217	1.726926	-0.144094	0.024016	-0.060039	9.451257	3.230317	0.609622	-0.699561	0.776573	-3.365748	-0.457788	0.389049	-0.31726
-1.368257	-0.522136	9.656986	-1.472032	-1.921359	-0.767159	0.441499	0.384475	-1.121715	1.034692	-0.44056	9.466056	-1.828084	1.825988	1.419719	-0.150098	0	-0.066043	9.497723	3.401527	0.097708	-0.66929	0.936096	-3.766895	-0.475157	0.385603	-0.299307
-1.368424	-0.348008	9.657405	-1.658812	-2.197899	-0.437926	0.455782	0.367486	-1.119612	1.145729	-0.497991	9.350331	-1.551047	1.78384	1.406945	-0.144094	0.024016	-0.066043	9.339395	3.346863	0.72208	0.038343	0.70368	-4.03297	-0.423097	0.363675	-0.292648
-1.249187	-0.231475	9.89123	-1.112437	-2.175389	-0.908377	0.436243	0.330444	-1.136561	1.03629	-0.612539	9.525361	-1.535238	1.603833	1.271211	-0.156102	0	-0.060039	9.003151	2.885426	0.941588	0.130491	0.709348	-4.338461	-0.469378	0.368102	-0.319616
-1.018547	-0.173516	9.953756	-2.288637	-3.128898	-0.95014	0.472501	0.367756	-1.100454	0.976852	-0.726649	9.347477	-2.037726	2.092256	1.258996	-0.162106	0.006004	-0.066043	9.169578	3.405364	0.776056	0.222939	0.511334	-5.37328	-0.4894	0.382662	-0.31091
-0.900285	-0.23125	10.129347	-1.80852	-3.541191	-1.009046	0.455519	0.407636	-1.176301	1.371231	-0.670448	9.295982	-3.558635	2.951381	0.936735	-0.156102	0.018012	-0.078051	9.329259	3.344497	0.208251	-0.085146	0.728898	-5.838767	-0.490726	0.391664	-0.315534
-0.504339	-0.174296	9.848413	-1.930246	-4.368121	-1.101235	0.421961	0.347433	-1.138663	1.034416	0.017678	9.524244	-5.445998	4.309622	0.876133	-0.150098	0.012008	-0.060039	8.993447	3.809928	0.546149	-0.055258	1.230856	-4.535067	-0.458688	0.384295	-0.30017
-1.25822	-0.348679	9.428432	-2.388173	-5.188247	-1.032357	0.45411	0.38925	-1.175197	0.911575	-1.069319	8.815998	-7.358056	4.776649	0.635653	-0.150098	0.012008	-0.060039	9.223142	3.404461	0.605906	0.252152	1.344107	-3.649062	-0.427976	0.385929	-0.28943
-1.132403	0.058906	10.009844	-2.69424	-5.916786	-1.2078	0.457191	0.385872	-1.120717	0.807975	-0.955307	9.344623	-7.367937	4.690656	0.506881	-0.162106	0.018012	-0.066043	9.046681	3.403488	0.317066	0.129408	1.169109	-4.349129	-0.438194	0.388245	-0.347679
-1.315021	0.231944	9.486501	-2.757994	-6.039431	-1.119644	0.440472	0.385601	-1.139875	0.81164	-0.726544	9.580218	-7.74165	4.473931	0.7847	-0.156102	0.006004	-0.066043	8.825666	3.40552	0.655114	-0.422622	0.39165	-6.108031	-0.475157	0.385603	-0.299307
-1.019467	-0.405826	9.895382	-3.837799	-7.638499	-1.434686	0.439445	0.386728	-1.158035	0.752265	-0.497001	9.460725	-7.052859	3.876792	0.937687	-0.156102	0.012008	-0.066043	8.646838	3.461918	0.252353	-1.405475	-0.155423	-7.232301	-0.423051	0.395939	-0.353166
-0.961325	0.000557	9.955318	-2.748773	-9.58087	-1.112525	0.435599	0.351082	-1.173986	0.868905	-0.612231	9.640101	-6.539661	3.707749	0.784575	-0.13809	0.018012	-0.054035	8.939211	3.578982	0.658155	-1.773449	-0.532764	-6.889085	-0.460014	0.393298	-0.304794
-1.196259	-0.348175	9.660834	-2.711254	-10.741974	-1.863966	0.45411	0.38925	-1.175197	1.083435	-0.382728	9.05404	-6.467951	3.266018	0.846347	-0.13809	0.012008	-0.078051	8.759712	3.403531	0.197251	-2.511167	-0.469386	-5.579335	-0.463567	0.406549	-0.296952
-1.418898	-0.405157	10.003011	-4.855583	-13.653438	-0.924126	0.411142	0.380556	-1.105551	0.586819	-0.783256	9.634973	-6.400865	3.222442	1.026535	-0.150098	0.018012	-0.078051	8.88295	3.231717	0.655452	-3.126464	-0.240816	-4.976231	-0.470705	0.377105	-0.324239
-1.144167	0.405765	9.432535	-7.041165	-14.998025	2.678607	0.460272	0.382493	-1.066236	0.704545	-0.898588	9.87335	-7.18236	3.52132	1.290439	-0.150098	0.018012	-0.060039	9.393404	3.693602	0.610599	-3.527356	0.22082	-5.447876	-0.486701	0.396921	-0.36218
-0.913026	-0.058659	9.493804	-11.333008	-13.025841	4.206266	0.438297	0.328192	-1.100241	0.808955	-0.554463	9.461913	-7.726274	3.501	0.938064	-0.156102	0.042027	-0.066043	8.714362	3.811811	0.825978	-4.419864	0.446139	-6.926014	-0.442173	0.415252	-0.36155
-0.217008	-0.580873	9.85315	-10.528571	-11.040419	1.487767	0.425807	0.383078	-1.122713	1.160814	-1.186718	10.059551	-5.779233	2.601955	1.087755	-0.13809	0.018012	-0.084055	8.654392	3.05822	0.593066	-4.821525	1.189974	-7.832414	-0.491199	0.373156	-0.276731
-0.498512	-0.289682	10.137208	-6.188123	-11.966953	-4.673605	0.436888	0.309806	-1.099136	0.983372	-0.727258	9.701478	-3.757575	1.681791	1.573319	-0.150098	0.012008	-0.078051	8.757801	3.229316	0.082278	-5.070466	2.498575	-7.435898	-0.42485	0.386433	-0.318986
-1.195061	-0.406078	9.718509	-4.022919	-14.728306	-7.435963	0.454372	0.3491	-1.118507	0.699453	-1.012665	9.578552	-3.251568	1.255212	1.589372	-0.150098	0.024016	-0.078051	9.042973	2.997162	0.086858	-4.057428	3.370032	-5.432003	-0.456889	0.393802	-0.33435
-0.738297	-0.34876	9.612163	-7.368094	-18.36303	-5.274964	0.439445	0.386728	-1.158035	1.147838	-0.841847	9.40994	-2.327732	0.532872	1.571268	-0.144094	0.018012	-0.090059	8.992332	3.230438	0.429336	-2.36502	3.233669	-1.015451	-0.442646	0.396743	-0.322747
-0.738241	-0.406803	9.612024	-11.165964	-19.643715	-3.250966	0.42619	0.40259	-1.141977	1.033819	-1.24235	9.290477	-1.911743	0.139265	1.623611	-0.144094	0.006004	-0.072047	9.047694	3.461647	0.374421	-1.285225	1.949933	1.742181	-0.473358	0.39511	-0.333487
-0.784786	-0.985916	10.129816	-11.390828	-20.524584	-3.709625	0.396215	0.418183	-1.145078	1.033371	-0.726819	9.348564	-1.449579	-0.468212	1.567849	-0.150098	0.018012	-0.078051	10.028232	3.404709	1.021319	-2.265272	0.342615	1.865941	-0.455562	0.384799	-0.329726
-0.783921	-0.695563	10.18833	-9.915496	-21.011976	-4.742595	0.425162	0.403717	-1.160137	0.52738	-0.897366	9.457089	-0.803998	-1.213635	1.620186	-0.156102	0.036023	-0.078051	9.73834	3.172378	0.729175	-4.200345	-0.663733	-0.078554	-0.506722	0.411481	-0.353475
-0.734114	0.058098	9.844401	-8.240568	-19.025675	-4.639709	0.4527	0.370865	-1.174092	0.983542	-0.78455	9.701579	-0.894041	-2.03035	1.26204	-0.144094	0.018012	-0.072047	9.677676	3.345392	0.557561	-5.152682	-1.251343	-2.578027	-0.472885	0.413618	-0.372291
-0.680909	-0.348816	9.613306	-7.922657	-15.848478	-3.386094	0.41076	0.361044	-1.086286	0.811064	-0.898319	9.521522	-1.083835	-2.766241	0.63457	-0.144094	0.03002	-0.078051	9.791005	3.055419	0.501407	-5.121507	-1.622696	-4.373785	-0.460014	0.393298	-0.304794
-0.439116	0.000755	10.254679	-7.626854	-12.299348	-2.269467	0.39545	0.379159	-1.106549	0.468282	-1.126061	9.279408	-0.930241	-4.1457	0.138759	-0.144094	0.012008	-0.066043	9.22089	3.403935	0.491722	-6.074521	-1.825436	-5.964658	-0.474684	0.404112	-0.338111
-0.275929	-0.174658	9.795171	-6.342085	-8.431561	-1.621643	0.378731	0.378889	-1.125707	0.92747	-1.29991	9.642406	0.730422	-6.43089	-0.31541	-0.150098	0.012008	-0.072047	9.620505	3.461298	0.55696	-7.49007	-1.478058	-7.846058	-0.471131	0.39086	-0.345953
-0.7359	-0.464566	9.727513	-4.490898	-7.650083	-1.572433	0.41088	0.420706	-1.16224	1.268888	-0.61383	9.883709	2.143197	-8.773024	-0.671509	-0.156102	0.018012	-0.060039	9.333992	3.229756	0.436093	-6.908337	-0.512067	-8.446466	-0.44042	0.392494	-0.335213
-0.625918	-0.233066	9.499099	-4.592323	-8.018752	-1.432369	0.396215	0.418183	-1.145078	0.753629	-0.95534	9.461537	2.644938	-10.668978	-1.089493	-0.162106	0.018012	-0.078051	9.391151	3.693076	0.496415	-5.278536	-0.56462	-7.671836	-0.459115	0.398051	-0.321884
-0.223922	-0.523669	9.506401	-4.250821	-4.931995	-0.366371	0.394806	0.399797	-1.143973	0.763409	-0.956254	9.992538	2.396688	-12.190216	-2.105175	-0.156102	0.036023	-0.072047	9.339725	3.752401	0.781012	-3.892957	-1.408977	-7.430704	-0.476483	0.394606	-0.303931
-0.448959	-0.464844	9.733228	-4.278751	-2.728007	0.672154	0.392369	0.382538	-1.161029	0.702819	-1.413915	9.697263	3.30299	-14.004539	-2.625349	-0.13809	0.018012	-0.060039	9.001558	3.695975	0.945268	-3.583688	-2.387228	-9.394444	-0.47781	0.403608	-0.308555
-0.959904	-0.289517	10.012434	-4.723858	-4.824078	1.727341	0.408061	0.383935	-1.160031	0.822783	-1.185797	10.112031	5.199009	-16.258628	-2.684326	-0.150098	0	-0.066043	8.831627	3.812372	0.999507	-4.349685	-3.823112	-12.393305	-0.474684	0.404112	-0.338111
-0.502053	-0.174016	9.964043	-4.097734	-4.500375	1.603515	0.394423	0.380285	-1.124709	0.871462	-1.471617	9.641624	8.299359	-17.605366	-2.636167	-0.150098	0.018012	-0.084055	8.949689	3.407659	1.171196	-4.746581	-5.209471	-14.290243	-0.437294	0.392998	-0.364769
-0.214834	-0.464508	9.969059	-1.230862	-1.413125	2.212239	0.396477	0.378033	-1.088389	1.270763	-1.244047	9.884825	11.370295	-17.723773	-3.435296	-0.156102	0.006004	-0.078051	8.148979	4.045586	1.044136	-4.437137	-6.089606	-14.604622	-0.455989	0.398555	-0.35144
-0.216032	-0.406605	9.911384	1.471984	0.698094	2.448621	0.424398	0.364693	-1.121608	1.035204	-0.612438	9.466361	13.138998	-16.088725	-3.425617	-0.150098	0.024016	-0.060039	8.091933	3.524369	0.983552	-3.790188	-6.553666	-13.764542	-0.458215	0.402804	-0.338974
-0.153794	-0.696315	10.143088	4.245378	2.788876	1.765701	0.377059	0.400653	-1.181291	0.810383	-0.66915	9.521116	13.073813	-14.639311	-3.14485	-0.168109	0	-0.066043	8.496395	3.409094	1.276371	-3.144497	-6.441227	-12.540215	-0.445299	0.414748	-0.331994
-0.553169	-0.753689	10.250576	8.531731	6.184726	1.80329	0.380523	0.416787	-1.146076	0.477509	-0.210498	9.926785	16.873827	-14.351371	-1.070277	-0.144094	0.012008	-0.054035	8.433149	3.176045	0.93164	-2.622913	-5.921859	-11.998899	-0.471558	0.404616	-0.367667
-0.3858	-0.522244	10.023305	11.302959	9.307774	2.232404	0.360985	0.379745	-1.163025	1.898614	-0.387347	10.367257	16.529233	-14.978918	2.795865	-0.162106	0.012008	-0.060039	8.261978	3.350076	0.92905	-2.194694	-4.968158	-11.896368	-0.492952	0.395914	-0.303068
-0.448792	-0.638972	9.732809	12.899303	13.417007	2.63827	0.360985	0.379745	-1.163025	1.337766	-0.386049	10.592391	13.156688	-19.547179	-4.482532	-0.144094	0.006004	-0.054035	8.665985	3.466387	1.22292	-1.182678	-3.773833	-11.001034	-0.405729	0.36712	-0.310601
-0.453197	-0.813659	9.501131	13.542941	15.796213	3.056845	0.429009	0.439362	-1.144186	1.494696	-1.994232	12.721413	3.822336	-28.838911	-5.944538	-0.144094	0.012008	-0.066043	8.839852	3.640523	1.398364	0.81377	-2.75946	-9.545687	-0.460014	0.393298	-0.304794
-1.015006	-0.289182	10.126921	9.638016	11.164896	2.531611	0.403188	0.349416	-1.194142	1.272155	-2.452093	12.835879	9.159602	-40.179854	-10.945683	-0.168109	0.024016	-0.054035	8.672173	3.757446	1.566787	2.256169	-1.47605	-8.099566	-0.476483	0.394606	-0.303931
-0.568919	0.173178	9.50122	4.797336	9.817255	2.407966	0.406651	0.365549	-1.158926	0.974685	-2.564404	12.004646	17.195963	-50.841911	-18.5671	-0.180117	0.006004	-0.072047	9.128846	3.756799	1.63289	3.207325	-0.448903	-6.313709	-0.475584	0.399359	-0.321021
-0.622322	-0.406774	9.672124	3.695292	11.090992	3.769982	0.395833	0.398671	-1.125813	1.411564	-2.908	11.128946	19.692542	-54.727617	-26.97488	-0.162106	0.006004	-0.066043	9.580217	4.160375	1.472463	3.112538	0.731299	-5.393433	-0.474257	0.390356	-0.316397
-0.446728	-0.406522	9.848998	2.129435	12.144109	4.125494	0.38814	0.327381	-1.157715	-0.410952	-2.614865	10.385664	14.779765	-53.860098	-38.147802	-0.150098	-0.012008	-0.072047	9.807433	3.870175	1.418562	2.894368	1.904248	-6.155863	-0.492053	0.400667	-0.320158
-0.735035	-0.174213	9.786027	1.114017	11.917675	4.659848	0.392369	0.382538	-1.161029	-2.971057	-3.922993	9.218096	11.944782	-50.518187	-46.641565	-0.174113	0.012008	-0.060039	9.516755	3.463892	1.068537	2.922824	2.911109	-5.842618	-0.452436	0.385303	-0.359282
-0.451801	0.115303	9.618996	0.142794	12.88793	5.425662	0.406651	0.365549	-1.158926	-4.081802	-2.489507	10.491829	10.583391	-47.874033	-50.812839	-0.174113	0.012008	-0.066043	9.80113	3.637012	1.074957	3.321872	3.325655	-4.534906	-0.439093	0.383491	-0.330589
-1.01537	-1.101919	10.06715	-0.352222	10.80407	5.65744	0.426572	0.422103	-1.161242	-7.008531	-3.679489	7.842535	9.530428	-43.035507	-47.990543	-0.168109	0	-0.042027	9.395758	4.215458	0.784241	3.784741	2.759241	-3.142938	-0.440893	0.373985	-0.296409
-0.736345	-0.000225	9.728631	1.158592	9.609484	4.472306	0.469419	0.371135	-1.154934	-6.768305	-2.593239	8.788955	-0.075375	-32.716892	-42.588787	-0.174113	-0.012008	-0.060039	9.904881	3.634419	0.56338	3.879285	1.887211	-2.112892	-0.46224	0.397547	-0.292328
-0.513483	-0.175414	9.385895	0.846336	11.932337	6.408729	0.359193	0.341847	-1.142656	-8.1376	-3.389821	7.938295	-9.31362	-24.751756	-31.848899	-0.168109	0	-0.054035	9.969355	4.389061	1.024661	4.835947	0.584438	-0.242431	-0.47383	0.376601	-0.294683
-0.844096	-0.173403	10.072815	-0.419938	12.763366	6.656323	0.377704	0.380015	-1.143867	-7.350162	-3.563679	7.717812	-23.141667	-11.852497	-19.01937	-0.156102	0	-0.054035	10.140082	3.867389	0.968582	5.66953	-0.741449	1.016194	-0.458688	0.384295	-0.30017
-0.962023	-0.463924	9.896386	0.666415	12.529942	5.826351	0.39545	0.379159	-1.106549	-7.556957	-3.106586	8.833656	-33.063448	2.337772	-9.001294	-0.168109	-0.006004	-0.054035	10.081217	4.272515	0.912204	6.225154	-1.655977	1.162728	-0.440893	0.373985	-0.296409
-1.133546	0.058767	9.952029	0.174973	11.86902	5.566408	0.398269	0.415931	-1.108758	-6.576843	-2.653073	9.97232	-35.399745	9.920943	-2.403327	-0.162106	-0.006004	-0.042027	10.083469	4.273041	1.026388	6.718535	-2.370594	0.172651	-0.47473	0.371848	-0.277594
-0.905945	-0.289992	9.840133	-0.32044	9.319149	3.792665	0.391604	0.343514	-1.122499	-5.891002	-2.655829	10.398361	-33.368617	12.195806	1.717168	-0.168109	0.018012	-0.054035	9.980618	4.39169	1.595583	6.717886	-2.255985	-1.359261	-0.473404	0.362845	-0.27297
-0.959793	-0.405602	10.012155	-1.618603	7.337048	2.611408	0.422343	0.366945	-1.157928	-5.108358	-2.31375	9.999964	-31.312093	13.023757	3.796916	-0.180117	0.006004	-0.060039	10.158205	4.392926	1.941514	7.484079	-1.312024	-2.386344	-0.488119	0.341395	-0.245769
-0.905945	-0.289992	9.840133	-2.193495	5.422593	1.843573	0.43727	0.329318	-1.118401	-5.110126	-2.084478	9.940558	-32.417379	15.502944	5.417625	-0.150098	0.012008	-0.060039	9.927736	4.045214	1.764156	8.370633	0.711211	-3.774253	-0.442646	0.396743	-0.322747
-0.965341	-0.580429	9.722662	-1.09339	5.149506	1.653409	0.404859	0.327651	-1.138557	-4.656883	-2.085943	10.008251	-34.668691	17.961359	7.171345	-0.180117	0.012008	-0.060039	10.044216	3.871823	1.879804	9.346187	3.953122	-6.688652	-0.407528	0.357614	-0.276421
-0.799281	-0.174996	9.437995	-1.165852	4.938008	1.493647	0.409088	0.382808	-1.141871	-4.387368	-1.340979	9.422363	-35.441647	20.562364	9.158547	-0.162106	0.018012	-0.054035	9.533296	4.220751	1.985429	9.705436	7.743618	-9.924985	-0.455135	0.371044	-0.308012
-0.685592	-0.233289	9.382327	-0.796204	4.834748	1.572298	0.425425	0.363566	-1.103448	-4.02835	-1.458414	10.491089	-35.963439	23.931073	11.711122	-0.168109	0.024016	-0.060039	9.309584	3.874616	2.150623	10.834697	11.096289	-11.923608	-0.470278	0.363349	-0.302526
-1.130005	-0.0569	10.125194	-0.606205	4.280252	1.208853	0.424398	0.364693	-1.121608	-3.868444	-0.770705	10.080129	-35.478422	28.254003	14.813521	-0.168109	0.036023	-0.072047	9.593732	4.163529	2.157569	11.688402	14.089324	-12.630752	-0.441365	0.355476	-0.257606
-1.013696	-0.46317	10.184317	0.746957	3.23071	1.011343	0.472883	0.387268	-1.119719	-3.525321	-0.657549	10.322447	-32.754637	33.380026	19.152777	-0.156102	0.018012	-0.066043	9.538825	3.700735	2.211432	12.943994	16.220934	-12.765202	-0.438666	0.369736	-0.308875
-0.899198	-0.173068	10.187301	2.966741	2.860966	1.218426	0.456164	0.386998	-1.138877	-2.848961	-0.029377	10.33437	-28.580131	38.902339	24.236949	-0.174113	0.03002	-0.078051	8.967481	3.527657	2.085197	13.49445	17.431626	-13.371468	-0.404829	0.371873	-0.327691
-1.019467	-0.405826	9.895382	2.984156	3.038667	1.714262	0.409733	0.36217	-1.104446	-2.954223	-0.08704	10.745299	-23.837094	43.961271	29.394076	-0.168109	0.042027	-0.048031	9.126491	3.234942	1.459247	14.691629	18.112198	-14.879564	-0.424896	0.354168	-0.258469
-0.436385	-0.463307	10.369191	4.077276	3.957504	2.214969	0.41678	0.454099	-1.109969	-1.947227	-0.26097	10.175162	-19.488952	48.343035	34.151158	-0.150098	0.036023	-0.066043	8.722257	3.234424	1.165903	16.628201	18.268617	-15.545691	-0.472931	0.381354	-0.311773
-1.013752	-0.405127	10.184456	5.74658	5.727809	2.370238	0.407296	0.344911	-1.121501	-1.940771	-0.605232	10.470772	-15.954298	52.176931	38.747996	-0.156102	0.042027	-0.066043	8.103423	3.411205	1.553948	17.703514	18.647832	-15.426359	-0.426223	0.363171	-0.263092
-0.79259	-2.9e-05	9.785303	6.097279	6.716022	1.455146	0.488193	0.369153	-1.099456	-1.209682	-0.836211	10.249303	-12.872015	55.373851	42.239044	-0.150098	0.036023	-0.060039	8.839624	3.756316	1.39889	19.423926	19.522932	-13.082232	-0.436913	0.346978	-0.282538
-1.363963	-0.231364	9.888944	8.89499	7.635879	0.784678	0.420551	0.329048	-1.137559	-0.808378	-0.551551	10.610403	-9.511531	58.918311	45.989267	-0.132086	0.042027	-0.066043	8.667452	3.29296	1.279224	19.730433	20.221933	-10.374608	-0.422198	0.368428	-0.309738
-0.901373	-0.289433	10.071392	10.68882	7.963747	0.327675	0.412552	0.398941	-1.106655	-0.413146	-0.781812	10.559416	-6.652124	62.691966	49.33981	-0.162106	0.03002	-0.072047	8.728229	3.06205	1.450575	19.914454	20.517086	-9.46288	-0.402603	0.367624	-0.340157
-0.910628	-0.174465	9.609154	11.888441	8.732818	0.300189	0.437653	0.34883	-1.137665	-0.193375	-1.583776	10.093182	-4.195801	66.694464	51.638473	-0.162106	0.054035	-0.078051	8.78325	3.466948	1.396449	21.113508	20.617456	-9.030557	-0.405302	0.353365	-0.288887
-0.621234	-0.348592	9.730079	12.42696	8.993219	0.48144	0.422988	0.346307	-1.120503	0.317815	-1.700098	10.221165	-2.965432	70.391481	52.479427	-0.144094	0.036023	-0.072047	8.330309	2.715468	1.441114	21.575477	20.180646	-10.180215	-0.436913	0.346978	-0.282538
-1.089596	-0.233179	9.258696	11.155045	8.967116	0.357804	0.44009	0.366089	-1.12061	1.103996	-1.816561	9.941581	-3.863578	72.763651	52.447914	-0.144094	0.042027	-0.066043	8.547252	3.639252	0.993088	22.777424	19.028554	-9.994101	-0.439139	0.351227	-0.270072
-1.481081	-0.17349	9.771168	10.053578	9.115508	0.665113	0.502858	0.371675	-1.116618	1.158448	-2.217474	9.766377	-6.08831	74.566385	51.902996	-0.144094	0.054035	-0.072047	8.549288	3.176344	1.048077	23.95053	17.185516	-8.691018	-0.419545	0.350423	-0.300491
-1.017626	0.058795	10.01213	8.462832	8.883974	0.418381	0.437008	0.369468	-1.17509	1.719595	-1.588759	9.658127	-8.221895	75.87615	51.199608	-0.144094	0.036023	-0.090059	9.003139	3.464653	1.001309	24.018104	14.692006	-7.837587	-0.38528	0.338805	-0.297593
-0.967207	0.173986	9.666664	8.74452	9.031266	0.356616	0.457574	0.405384	-1.139981	2.175224	-2.392318	9.727241	-10.310758	75.856356	50.31669	-0.120078	0.048031	-0.084055	9.013617	3.293329	1.51435	23.869588	12.455496	-7.970029	-0.367958	0.309986	-0.255028
-0.505426	-0.232478	9.790459	9.873195	9.462444	0.408616	0.473528	0.36663	-1.082294	1.837833	-1.875968	9.896808	-13.020801	77.13858	50.00314	-0.132086	0.048031	-0.084055	8.835119	3.755264	1.170521	24.180981	10.776772	-8.143523	-0.39687	0.317859	-0.299948
-1.013863	-0.289042	10.184736	11.109217	9.210064	0.705024	0.450908	0.332967	-1.153723	2.117235	-1.532862	9.783632	-13.708605	79.735403	50.256387	-0.13809	0.066043	-0.084055	8.678487	3.411382	1.850671	23.783763	9.61987	-8.975235	-0.355041	0.32193	-0.248049
-1.485431	-0.406219	9.53935	11.799732	9.436508	0.820149	0.424015	0.345181	-1.102343	2.633687	-1.592399	10.206515	-11.981355	81.912167	50.055175	-0.126082	0.060039	-0.084055	8.376877	3.408008	0.988657	24.183795	9.474267	-9.153224	-0.355041	0.32193	-0.248049
-1.476509	-0.172931	10.002427	13.323874	9.954904	0.46906	0.470064	0.350497	-1.117509	3.083905	-1.307199	10.1557	-9.976313	81.619716	49.284017	-0.10807	0.072047	-0.084055	8.319024	3.871293	0.989634	24.275503	9.718331	-9.005461	-0.366159	0.319492	-0.289208
-0.672685	-0.580008	10.017451	13.954674	10.24447	0.588197	0.435861	0.310932	-1.117296	3.993757	-1.711379	10.409798	-8.872588	77.824069	47.857675	-0.102066	0.054035	-0.084055	7.909386	3.753667	0.410303	23.075705	9.978494	-8.956772	-0.382628	0.3208	-0.288345
-1.484677	0.000219	9.598143	12.762005	10.676713	0.57318	0.43868	0.347704	-1.119505	4.324415	-1.425229	10.002809	-8.368351	71.049834	45.613446	-0.090059	0.066043	-0.072047	8.706364	3.867868	0.426596	22.091636	10.081267	-8.444484	-0.415992	0.337172	-0.308333
-1.768022	-0.173211	9.765453	14.375295	11.194799	0.067164	0.435861	0.310932	-1.117296	4.432809	-2.055177	9.652098	-8.699905	62.64252	42.584346	-0.114074	0.078051	-0.084055	8.531598	3.577675	0.193534	21.17065	9.564566	-7.428115	-0.400423	0.331111	-0.292106
-1.538859	0.232865	9.771003	15.408123	12.114425	0.630453	0.451291	0.352479	-1.172988	4.20394	-1.48147	9.587736	-10.928378	53.573	38.902003	-0.10807	0.066043	-0.078051	8.302016	3.925246	0.133515	18.834843	9.188217	-6.728469	-0.401749	0.340113	-0.29673
-0.902905	0.116726	10.014556	15.43739	12.755497	0.99224	0.451935	0.331841	-1.135563	4.149935	-1.596087	9.704853	-13.979858	45.51223	35.036076	-0.10807	0.072047	-0.084055	8.648522	3.751926	0.367852	16.837945	8.512259	-6.20357	-0.402649	0.33536	-0.27964
-1.475589	0.05938	10.060801	15.741508	13.704832	0.779527	0.4666	0.334364	-1.152725	4.310566	-1.882147	9.177619	-17.185643	38.82032	30.12028	-0.090059	0.072047	-0.060039	8.077394	4.042282	0.300812	15.5795	7.630389	-5.63934	-0.384854	0.325049	-0.275879
-1.308052	0.116697	9.83311	16.653103	14.783156	1.229979	0.483319	0.334634	-1.133567	4.300339	-1.365703	8.704704	-19.057702	33.111247	23.797557	-0.090059	0.078051	-0.078051	8.364352	4.621466	0.480348	14.197298	7.083239	-5.022369	-0.348363	0.309182	-0.285447
-1.359027	0.581932	10.179974	16.643027	15.085096	1.701012	0.468654	0.332111	-1.116405	4.699235	-1.367201	8.889311	-21.811898	28.420192	16.583029	-0.090059	0.090059	-0.090059	8.088543	4.102807	0.871996	13.428768	7.012923	-5.055455	-0.337246	0.311619	-0.244288
-1.479352	0.407217	9.888195	19.158992	16.15367	1.990694	0.447062	0.297322	-1.169674	4.636665	-0.7937	8.651208	-25.815963	24.655813	8.731231	-0.078051	0.078051	-0.072047	7.408728	3.467838	0.969774	12.443911	7.427631	-4.917439	-0.367531	0.29623	-0.233315
-1.703887	-0.056343	10.113764	18.793946	16.267688	3.409795	0.448472	0.315708	-1.170778	4.850896	-1.194211	7.948263	-28.312462	22.723244	0.323438	-0.090059	0.060039	-0.072047	7.584734	3.700396	1.259665	11.705164	7.865143	-4.044578	-0.315898	0.288058	-0.248369
-0.999869	-0.577578	10.877814	18.058823	16.171524	5.165225	0.433042	0.274161	-1.115087	4.639584	-0.67942	8.828006	-26.891487	23.640876	-8.075566	-0.096063	0.096063	-0.078051	8.155736	4.047163	1.386689	10.998412	7.915305	-1.816812	-0.379075	0.307549	-0.296187
-1.759965	-0.230276	10.170017	19.218793	17.820779	6.183311	0.482937	0.315122	-1.114302	4.797488	-0.048801	8.299147	-22.30325	25.246656	-16.731736	-0.078051	0.084055	-0.078051	8.44159	3.46763	1.389692	10.354555	7.43612	1.035245	-0.350163	0.299676	-0.251267
-1.357161	-0.172483	10.235972	16.003805	19.76681	7.531498	0.482554	0.29561	-1.095038	4.800407	0.06548	8.475945	-15.569494	25.077596	-25.302314	-0.072047	0.066043	-0.090059	8.374738	3.349585	0.87421	9.711187	6.689696	3.312364	-0.368431	0.291477	-0.216225
-1.52846	0.118037	10.291057	12.085766	24.451906	8.092095	0.478708	0.259965	-1.110988	4.803837	0.007883	8.653047	-8.173243	22.819562	-33.135213	-0.072047	0.096063	-0.090059	8.092729	3.119094	0.981712	8.945045	5.769634	4.797636	-0.363979	0.282979	-0.241157
-0.535518	1.106053	11.237899	11.298714	27.972369	6.605145	0.48191	0.316248	-1.132462	4.165504	1.214117	7.93096	-2.460101	19.717789	-38.395607	-0.072047	0.090059	-0.090059	8.548606	3.523722	1.049654	8.700897	5.026475	5.119402	-0.367958	0.309986	-0.255028
-0.930433	1.165323	11.576927	13.538262	35.590593	5.856318	0.501065	0.333778	-1.096249	3.996222	0.75639	7.869512	2.898783	18.149095	-40.638837	-0.066043	0.096063	-0.090059	8.777277	3.639323	1.111777	7.443153	3.868282	5.720601	-0.399569	0.303599	-0.248679
-2.09777	0.119153	10.510886	13.207344	41.559382	4.611887	0.477681	0.261091	-1.129149	10.968358	0.822541	24.45858	112.203523	-53.521698	-68.692211	-0.060039	0.102066	-0.096063	9.172854	2.884822	0.887875	6.526668	1.506643	7.177313	-0.398243	0.294597	-0.244055
-1.505124	0.817484	11.506844	10.291795	45.712566	3.812725	0.495165	0.300385	-1.14852	11.094527	-3.907428	9.075568	122.865657	-71.149449	-62.109098	-0.066043	0.078051	-0.084055	9.287742	3.52198	1.007203	4.750922	-1.567894	8.462424	-0.400896	0.312602	-0.253302
-1.164002	0.58456	11.339698	7.476379	52.005586	1.693326	0.479473	0.298989	-1.149518	5.174332	1.154569	7.47862	85.587829	-102.16324	-93.54837	-0.054035	0.102066	-0.072047	9.345482	3.116592	1.006489	4.883115	-5.246084	10.719877	-0.397389	0.267086	-0.200627
-1.678907	0.120859	11.386108	6.031456	58.112748	1.550648	0.475889	0.223193	-1.108779	0.109989	-1.982394	8.094407	48.383371	-112.687889	-108.647506	-0.066043	0.072047	-0.084055	9.17836	3.523259	1.233319	3.938475	-8.683785	12.384858	-0.390205	0.328795	-0.233857
-1.725477	0.760782	11.96465	5.69478	64.816115	2.995206	0.56037	0.323231	-1.127472	-6.80883	-1.386646	6.780818	0.540201	-108.598487	-55.890465	-0.078051	0.084055	-0.072047	9.573801	3.985108	1.129122	0.37794	-11.293951	11.845156	-0.414285	0.282149	-0.221478
-1.553479	0.934743	11.968498	7.417986	71.676928	2.380331	0.512529	0.280017	-1.091937	-2.002739	-3.530764	12.774782	-17.683016	-108.967396	-20.007814	-0.078051	0.072047	-0.084055	10.15221	5.723754	1.776284	-3.956287	-11.95211	9.206922	-0.3831	0.302291	-0.249542
-1.313417	0.703607	12.492844	6.235035	79.929248	2.533427	0.513556	0.278891	-1.073777	-0.937241	-1.814925	12.615383	48.602353	-129.101752	2.190956	-0.090059	0.090059	-0.084055	10.035047	6.244523	1.662213	-5.898097	-10.133014	6.829919	-0.403595	0.298342	-0.202033
-2.100404	0.242001	13.285131	7.846776	90.587328	3.78847	0.555376	0.22905	-1.085629	2.995199	0.008228	11.685196	59.060171	-113.263665	14.105776	-0.090059	0.078051	-0.066043	11.1605	6.760424	1.05909	-8.183643	-5.715998	6.684624	-0.399143	0.289844	-0.226965
-2.489856	-0.626852	13.853182	13.122865	102.325872	6.803818	0.562686	0.280828	-1.034463	4.095185	1.095914	10.229996	30.880443	-80.423874	2.125091	-0.102066	0.084055	-0.060039	11.837403	6.583793	0.729263	-16.528189	-0.136061	7.764315	-0.401795	0.307849	-0.236213
-2.592393	-0.276948	14.487697	17.185161	115.930973	10.872072	0.624809	0.307052	-1.067895	1.648822	0.646527	9.24008	5.662891	-57.24018	-18.311	-0.126082	0.060039	-0.072047	11.765261	6.290745	-0.072467	-24.410984	5.431247	10.070124	-0.384427	0.311294	-0.254165
-2.639438	-0.333677	15.006747	23.339839	132.041073	12.33471	0.608353	0.266632	-1.030364	-0.998306	-1.007349	9.427952	-10.432028	-48.618651	-17.327301	-0.10807	0.060039	-0.066043	11.196192	4.959739	-0.20396	-28.81888	9.839252	4.59199	-0.431654	0.278704	-0.203525
-2.398177	-0.622716	15.588768	31.308423	146.997397	13.584608	0.639999	0.229275	-0.971679	-0.593358	-1.582177	9.849575	-2.945347	-51.774476	-5.531673	-0.10807	0.072047	-0.066043	10.051593	4.43937	-0.571404	-32.514758	11.339895	-8.797837	-0.401323	0.326357	-0.275016
-2.667193	-1.432939	16.448319	39.536367	163.706938	16.856245	0.687719	0.212826	-0.93126	0.92764	-1.357203	9.642508	2.362522	-50.414598	-1.434315	-0.126082	0.054035	-0.084055	9.590768	3.686049	-0.926384	-34.481489	9.856631	-19.938161	-0.399569	0.303599	-0.248679
-2.542185	-1.37375	16.971077	48.394476	183.240517	21.970915	0.687075	0.233464	-0.968685	0.696981	-1.642476	9.343668	-1.28255	-44.863512	-7.559491	-0.120078	0.060039	-0.066043	8.983754	4.155204	0.090989	-30.843942	5.556347	-20.308262	-0.430281	0.301966	-0.259419
-2.468264	-0.73324	17.840979	55.399013	204.043328	28.068151	0.716284	0.178848	-0.927055	0.306842	-1.298137	9.689453	-1.825495	-43.355183	-11.491798	-0.132086	0.072047	-0.066043	8.721904	3.98734	1.226412	-25.327255	0.325232	-14.1928	-0.412059	0.2779	-0.233944
-2.352987	-1.255736	17.842007	64.140648	225.474349	32.163405	0.78457	0.198314	-0.851527	0.32638	-2.388216	10.576385	6.166117	-43.719343	-8.684071	-0.120078	0.072047	-0.072047	8.507862	4.454384	1.966208	-19.965958	-4.195701	-8.584172	-0.354615	0.308174	-0.226335
-4.042349	-1.540367	19.425833	75.579211	249.785591	39.063611	0.770932	0.194665	-0.816205	0.784268	-1.760073	10.996962	20.222469	-41.811545	-4.313132	-0.126082	0.060039	-0.066043	8.052316	4.455294	1.957198	-15.809121	-6.396516	-3.402976	-0.402649	0.33536	-0.27964
-1.40272	-3.690785	19.35761	92.565934	270.377959	43.539925	0.832553	0.141715	-0.754419	1.733828	-1.991024	10.366839	31.175748	-37.93776	-1.681331	-0.132086	0.066043	-0.066043	8.457108	4.745557	2.308949	-10.706966	-5.651292	-1.863563	-0.418691	0.322912	-0.257063
-2.710126	-1.249896	20.088782	104.020194	284.679033	50.334694	0.814042	0.103547	-0.753208	1.211942	-1.930979	9.648956	48.735771	-22.165972	-1.709653	-0.13809	0.072047	-0.072047	8.343449	4.629992	2.306171	-5.088692	-2.590472	-5.207561	-0.384427	0.311294	-0.254165
-2.442115	-1.774934	19.110388	123.702603	290.922153	53.516155	0.910248	0.109674	-0.7109	1.258363	-0.7274	9.29391	40.421681	-11.699414	1.643416	-0.120078	0.072047	-0.048031	7.612765	4.344091	2.746953	-1.807905	0.601714	-11.10587	-0.369711	0.332744	-0.281366
-4.011302	0.894436	18.218735	122.62773	296.528722	48.789707	0.949204	0.124095	-0.601048	0.244101	-0.667344	9.451249	33.987782	-9.522878	0.34804	-0.144094	0.054035	-0.078051	6.878463	4.752422	3.076704	-2.863663	4.870086	-12.617512	-0.368858	0.305233	-0.237938
-3.753094	-1.090109	13.769104	115.250028	302.38544	49.449965	0.930311	0.066415	-0.580572	1.093492	-0.841879	9.526854	30.793424	-11.425443	-2.253853	-0.13809	0.048031	-0.060039	6.751517	4.51791	2.388295	-6.781954	11.130464	-8.287594	-0.384473	0.279029	-0.193648
-2.323741	-0.279462	13.568376	92.20015	306.997642	49.942478	1.01006	0.032121	-0.500733	0.858039	-0.611216	9.0501	25.834866	-8.070666	0.582974	-0.132086	0.048031	-0.054035	6.962044	5.266428	1.596927	-13.161507	18.048145	-4.9038	-0.397343	0.29935	-0.261145
-1.221921	-0.053994	11.279203	77.366927	310.890653	53.327957	0.983549	0.063847	-0.468618	1.033094	-0.268581	9.406752	23.094724	-8.265036	-0.009788	-0.13809	0.054035	-0.060039	7.172354	5.551512	0.746364	-18.060535	22.534128	-5.737654	-0.399996	0.317355	-0.270392
1.098125	-0.350541	9.648739	66.830981	309.813623	58.08847	1.00335	0.060738	-0.394979	0.917818	-0.611691	9.228187	17.025399	-8.092993	-1.910548	-0.13809	0.042027	-0.060039	7.76889	5.253681	-0.78405	-20.128178	25.688898	-7.412403	-0.400896	0.312602	-0.253302
2.847814	-1.698063	5.230363	66.179761	305.832535	62.189247	1.036023	0.022255	-0.318134	0.412807	-0.381393	9.454002	11.05806	-7.42317	-2.732346	-0.13809	0.042027	-0.060039	8.738052	5.25201	-0.707812	-19.235757	25.223586	-8.344976	-0.371038	0.341746	-0.28599
10.687673	-3.93551	-4.559071	61.665995	281.887416	71.614569	1.05236	0.003013	-0.279711	1.041553	-0.555754	9.82026	9.954684	-7.954735	-2.386382	-0.132086	0.078051	-0.060039	9.126644	4.611725	-1.273741	-18.302695	21.016713	-4.847365	-0.351062	0.294923	-0.234177
8.28777	-2.378709	-9.804346	1.388164	168.426949	71.811832	1.069341	-0.036867	-0.203864	1.033542	-0.784112	9.348665	8.135591	-7.402072	-1.975765	-0.132086	0.054035	-0.054035	8.613711	4.265107	-1.342547	-20.835912	13.922683	2.429876	-0.400896	0.312602	-0.253302
8.387191	-0.436778	1.124971	-68.042885	48.431973	60.311708	1.090934	-0.002078	-0.150595	1.036461	-0.669831	9.525463	5.573787	-6.65301	-1.741885	-0.126082	0.054035	-0.054035	8.498357	4.438761	-1.401103	-26.840628	5.536769	7.11856	-0.380874	0.298042	-0.262008
10.170607	1.665957	7.291513	-73.966108	-37.264748	42.046766	1.040274	-0.082063	-0.11285	0.58407	-0.954829	9.458277	5.357795	-6.06398	-0.954548	-0.13809	0.042027	-0.048031	8.343181	4.500679	-0.604929	-31.12347	-3.431547	7.02825	-0.369711	0.332744	-0.281366
7.784752	1.206888	8.4565	-37.72025	-93.020825	17.958597	1.091196	-0.042228	-0.093905	0.817243	-0.784344	9.87532	5.521498	-6.418382	-0.272434	-0.120078	0.060039	-0.048031	8.861074	4.616762	-0.308806	-31.347414	-12.861477	6.297605	-0.451202	0.311772	-0.233624
5.76387	0.917084	7.779835	-13.450388	-121.515192	-6.158926	1.074477	-0.042498	-0.113063	1.160942	-0.499412	10.176333	6.71367	-6.879176	-0.1599	-0.13809	0.042027	-0.042027	8.990284	4.272574	0.434068	-28.960513	-21.206301	6.870942	-0.367012	0.347004	-0.332635
4.005283	0.101545	5.835702	-2.058342	-132.374118	-24.935212	1.051475	-0.095673	-0.165228	0.57836	-0.496083	9.221464	9.145489	-7.993872	0.730943	-0.144094	0.042027	-0.048031	9.157838	4.792774	0.325628	-25.778944	-27.525183	7.860328	-0.403549	0.330607	-0.26255
2.256174	-1.061133	4.353248	-3.177166	-137.43587	-37.919279	1.035138	-0.076431	-0.203651	1.039998	-1.128374	9.644275	10.852574	-9.118015	0.627696	-0.150098	0.054035	-0.060039	9.512102	5.258417	1.019594	-22.665099	-31.231974	8.299436	-0.422198	0.368428	-0.309738
1.421054	-1.637651	5.606631	-10.901389	-135.421465	-44.313777	1.019446	-0.077828	-0.204649	0.864558	-0.611825	9.404101	11.183163	-9.485425	0.839344	-0.13809	0.036023	-0.054035	9.630847	4.506325	1.189706	-20.390887	-31.166323	5.771661	-0.405302	0.353365	-0.288887
1.07101	-1.638016	5.3107	-23.106234	-131.33814	-46.850222	1.049803	-0.073909	-0.220813	0.816093	-1.127895	9.757929	11.407865	-10.098162	1.07001	-0.13809	0.03002	-0.066043	9.8549	4.678771	1.023723	-18.921712	-28.847677	1.505137	-0.418691	0.322912	-0.257063
1.472727	-1.638406	5.3187	-35.867955	-137.628743	-48.302383	1.01572	-0.053811	-0.296554	0.52917	-0.038385	9.691567	11.410114	-10.559854	0.978508	-0.144094	0.054035	-0.042027	9.578738	4.913028	1.47588	-18.163928	-24.565101	-1.465073	-0.403076	0.349115	-0.301354
2.052324	-1.638263	5.619204	-42.438625	-159.829193	-48.63036	0.985363	-0.05773	-0.280389	1.035715	-0.784315	9.466665	9.8602	-10.29502	0.742793	-0.132086	0.042027	-0.060039	9.694309	5.202808	1.593632	-17.315475	-19.339978	-1.795764	-0.387979	0.324546	-0.246323
2.183634	-0.997809	6.490249	-44.181042	-189.921142	-48.419624	1.031532	0.007248	-0.37151	1.08972	-0.669697	9.349549	7.292655	-9.426098	-0.097072	-0.114074	0.048031	-0.054035	9.520327	5.086568	1.418451	-16.438653	-13.022898	-1.356414	-0.401749	0.340113	-0.29673
2.150472	-1.226989	7.702657	-45.810839	-215.770241	-47.945671	0.982664	-0.034839	-0.354134	1.373639	-0.38429	9.472475	4.206045	-8.904896	-1.002186	-0.126082	0.036023	-0.054035	8.94267	5.259555	1.008332	-16.051171	-8.054316	-3.396419	-0.37459	0.354998	-0.278147
2.110705	-0.528186	8.628227	-47.726389	-233.395208	-47.279866	0.965683	0.005041	-0.429982	0.97617	-0.497479	9.347071	3.098867	-9.610136	-2.057925	-0.13809	0.048031	-0.054035	9.227614	5.143193	1.013437	-16.705134	-4.883646	-6.990805	-0.436486	0.333222	-0.260824
1.031648	-0.409646	9.184938	-48.868586	-243.01823	-45.784297	0.899189	0.023472	-0.525879	0.802435	-0.553854	9.107912	3.35487	-10.850582	-1.745035	-0.150098	0.054035	-0.048031	8.611044	4.741273	1.455946	-18.583579	-3.909426	-10.204442	-0.403076	0.349115	-0.301354
0.470785	-0.871894	9.808352	-49.701792	-244.814974	-43.241231	0.917318	0.042128	-0.507825	1.32643	-0.957755	9.885404	2.814828	-10.977214	-1.857145	-0.150098	0.048031	-0.066043	8.727615	5.668439	1.690773	-20.674824	-3.78811	-11.87016	-0.436486	0.333222	-0.260824
-0.563093	0.057791	9.790015	-52.107491	-240.770795	-39.351371	0.853905	0.05718	-0.549242	0.924274	-0.955953	9.523797	2.169646	-10.288554	-2.593041	-0.132086	0.03002	-0.042027	8.386991	4.568827	1.621928	-21.10484	-3.866951	-11.044812	-0.439139	0.351227	-0.270072
-1.12956	-0.521241	10.124076	-57.133802	-233.313663	-34.586712	0.850824	0.060559	-0.603722	1.158534	-0.785569	9.99984	2.09761	-9.958654	-4.052701	-0.132086	0.048031	-0.048031	8.721552	4.740256	1.286922	-21.811268	-4.097475	-10.553884	-0.423097	0.363675	-0.292648
-1.926582	-0.055282	10.456081	-63.658149	-224.839979	-29.194577	0.81944	0.057766	-0.605718	1.148989	-0.498295	9.527331	1.008931	-9.2716	-4.988933	-0.126082	0.042027	-0.042027	8.487476	4.507549	0.938812	-21.99683	-3.934095	-13.464381	-0.417791	0.327665	-0.274153
-1.860524	-0.750872	10.86025	-69.602395	-217.833315	-23.418049	0.771074	0.094853	-0.683562	1.145494	-0.784351	9.291838	1.969745	-9.802882	-5.119749	-0.144094	0.036023	-0.060039	8.438758	4.335813	1.336542	-22.306198	-3.513424	-17.299154	-0.403975	0.344362	-0.284264
-2.015235	0.122171	11.783954	-73.179711	-213.463081	-18.539363	0.738281	0.073674	-0.684453	0.814729	-0.669556	9.757117	3.077841	-10.541175	-4.403845	-0.13809	0.042027	-0.036023	7.972848	4.45015	0.814229	-22.984123	-3.061825	-19.393202	-0.420018	0.331914	-0.261687
-2.002606	0.065666	12.419777	-74.125286	-210.398483	-15.640816	0.690943	0.109634	-0.744136	0.755184	-0.38272	9.637522	3.904073	-10.928543	-4.211484	-0.126082	0.03002	-0.048031	8.493335	4.39307	1.223747	-22.583839	-3.358885	-19.690034	-0.437813	0.342225	-0.265448
-1.986351	0.996445	13.289234	-72.359171	-207.55479	-15.443745	0.67807	0.145009	-0.747344	1.15276	-0.670477	9.704636	5.48451	-11.876154	-4.607865	-0.13809	0.042027	-0.060039	8.487362	4.565445	0.939075	-21.138672	-3.409633	-19.19169	-0.419072	0.368932	-0.339294
-2.552232	0.997979	13.682508	-68.484221	-203.078887	-17.215983	0.674988	0.148388	-0.801824	1.147902	-0.498194	9.468331	5.76013	-12.575686	-4.539132	-0.144094	0.048031	-0.054035	8.376513	4.74015	1.108888	-18.832801	-3.364165	-18.262729	-0.421298	0.373181	-0.326828
-2.199345	0.418197	14.092671	-64.301298	-196.997925	-19.937963	0.660706	0.165377	-0.803926	1.261857	-0.441344	9.529403	5.956759	-12.655171	-4.953148	-0.132086	0.03002	-0.054035	8.443263	4.336865	1.564911	-15.696653	-3.37249	-17.144537	-0.421344	0.340917	-0.266311
-3.05381	0.942254	14.423673	-61.701986	-189.620034	-22.11063	0.630087	0.201608	-0.844452	0.701392	-1.299229	9.63806	6.557158	-12.930884	-4.343645	-0.13809	0.042027	-0.036023	8.038232	4.741622	1.273407	-12.531118	-2.823725	-16.375569	-0.404402	0.358118	-0.305977
-3.455305	0.710473	14.415113	-61.940358	-181.52831	-23.667025	0.546754	0.160107	-0.883553	1.43491	-0.155799	9.768156	7.028941	-12.870376	-3.522474	-0.126082	0.060039	-0.048031	8.142767	4.91298	0.81971	-10.350983	-1.610037	-15.810843	-0.388833	0.352057	-0.28975
-4.193937	0.131608	14.745746	-62.305235	-173.933089	-24.660237	0.598703	0.198815	-0.846448	1.144067	-0.669665	9.232635	8.329768	-13.190461	-3.21943	-0.13809	0.024016	-0.048031	7.810573	4.68418	1.268639	-9.307761	-0.683061	-15.45969	-0.390632	0.34255	-0.255571
-5.321293	0.309364	15.763971	-61.22215	-167.955402	-24.959869	0.536317	0.212741	-0.869704	0.866391	-0.497443	9.521898	10.707696	-13.811739	-2.789429	-0.150098	0.024016	-0.042027	7.521249	4.162367	0.975181	-8.818496	0.428247	-15.60518	-0.436014	0.351731	-0.299628
-5.905295	0.134535	15.231789	-60.132732	-162.671304	-24.03534	0.473932	0.226667	-0.892961	1.434271	-0.671228	9.651069	10.80641	-14.215329	-2.880713	-0.144094	0.03002	-0.048031	7.742708	4.507976	0.695802	-9.648944	0.5447	-15.887627	-0.418691	0.322912	-0.257063
-6.526445	0.310532	15.739969	-60.033803	-158.752908	-22.593348	0.523445	0.248116	-0.872912	1.610008	-0.557763	10.008127	11.129063	-14.392568	-3.89277	-0.13809	0.03002	-0.048031	7.746428	4.335075	0.86629	-10.66181	-0.146651	-15.571171	-0.389733	0.347304	-0.272661
-6.869186	-0.153336	15.789808	-61.653095	-155.418371	-22.417858	0.475341	0.245053	-0.894066	1.265458	-0.556233	9.706607	10.848551	-15.430544	-6.359782	-0.156102	0.036023	-0.036023	7.920193	3.987882	0.982276	-11.675348	-0.48016	-14.590108	-0.397724	0.34537	-0.343376
-6.985773	0.543148	15.731384	-62.921506	-153.394475	-23.924046	0.459649	0.243656	-0.895064	1.381757	-0.556878	9.88578	12.415353	-16.526429	-9.206788	-0.150098	0.036023	-0.042027	7.875184	4.222472	1.610215	-12.381798	-0.684107	-13.824509	-0.373264	0.345996	-0.273523
-7.318839	0.719008	16.303093	-63.333003	-151.684514	-26.685741	0.380927	0.276824	-0.956743	1.325749	-0.728585	9.884998	13.645935	-17.570896	-12.74923	-0.13809	0.03002	-0.03002	7.926723	4.105252	1.325355	-12.258521	-0.779076	-13.515777	-0.422198	0.368428	-0.309738
-15.121834	0.515812	24.931505	-135.455235	-76.028735	-24.70448	0.415775	0.29575	-0.919532	1.834254	-0.672827	9.894677	14.299028	-19.334597	-15.760581	-0.162106	0.024016	-0.024016	8.103753	3.816743	1.61288	-12.353452	0.435858	-12.871559	-0.424896	0.354168	-0.258469
-12.770847	6.108737	10.659574	-69.053688	-108.80161	-47.643175	0.367672	0.292687	-0.940686	1.159514	-0.384725	10.11713	13.299923	-20.256201	-16.927011	-0.144094	0.036023	-0.048031	7.81419	3.989949	1.379669	-11.495828	2.19867	-9.115129	-0.440466	0.36023	-0.274696
-16.984613	2.97514	9.181036	-29.150244	-97.002457	-44.746278	0.320978	0.308009	-0.962944	1.039891	-0.727428	9.702565	13.020235	-21.328048	-17.016512	-0.144094	0.018012	-0.036023	7.403187	4.567081	0.803492	-10.976655	4.240237	-3.776594	-0.420018	0.331914	-0.261687
-23.1529	4.261862	10.621668	-46.723432	-93.361621	-44.912284	0.321241	0.267859	-0.906255	1.148648	-0.38371	9.527128	12.968858	-21.878314	-18.317226	-0.150098	0.03002	-0.048031	7.126252	4.048159	1.138048	-10.117118	5.311947	1.127377	-0.384427	0.311294	-0.254165
-24.883064	3.849072	7.234286	-50.783878	-74.201152	-28.323594	0.293058	0.321349	-0.929725	1.430052	0.016485	9.531851	8.716732	-23.461432	-16.749646	-0.144094	0.024016	-0.054035	7.008987	4.047598	0.964519	-9.257024	5.978567	4.41968	-0.416892	0.332418	-0.291243
-30.440707	7.570738	7.768323	-46.72719	-44.429471	-8.557414	0.295877	0.35812	-0.931934	1.235509	1.102474	11.413581	3.297841	-26.364851	-14.575286	-0.162106	0.024016	-0.048031	6.839727	4.395843	1.076902	-7.350646	6.149704	6.872701	-0.406201	0.348611	-0.271798
-34.121935	11.070387	13.251489	-28.044704	-16.930725	2.487357	0.308488	0.362896	-0.985416	1.615165	-0.100033	10.361316	-0.002221	-34.110634	-11.923206	-0.150098	0.006004	-0.042027	7.357518	3.990596	1.313566	-5.168176	6.571713	9.168446	-0.377716	0.354494	-0.248591
-35.199123	12.103804	8.146874	13.135876	25.482345	11.868394	0.294468	0.339735	-0.930829	1.452084	0.644468	10.828738	-4.180789	-37.893311	-11.735773	-0.13809	0.03002	-0.042027	8.039586	4.626092	1.329973	-1.170923	6.542891	10.322202	-0.416846	0.364683	-0.35176
-36.979492	13.498553	8.114795	48.278924	96.196505	10.606205	0.326879	0.341401	-0.910673	1.005297	0.301671	11.056655	-4.450506	-44.155166	-10.736813	-0.150098	0.024016	-0.060039	8.214921	4.626802	1.56172	3.440584	6.908311	12.265283	-0.407528	0.357614	-0.276421
2.289362	4.863972	6.333204	32.232876	114.808459	32.747933	0.297931	0.355868	-0.895614	1.004551	0.187188	10.997857	-9.285516	-49.914721	-10.281435	-0.162106	0.018012	-0.024016	9.058934	4.62273	1.064785	9.340457	8.63142	14.642536	-0.392812	0.379064	-0.303622
2.25764	-0.923641	13.137944	7.942075	81.921911	36.864858	0.326879	0.341401	-0.910673	1.631123	0.013029	11.246116	-12.238409	-57.125284	-9.771211	-0.156102	0.024016	-0.036023	9.564882	5.083563	0.791563	14.160394	11.890914	15.81618	-0.455135	0.371044	-0.308012
-0.620914	-0.921976	12.618277	-11.787522	58.838079	26.666742	0.311569	0.359517	-0.930936	1.411054	0.184979	11.595466	-17.84113	-65.009201	-8.527892	-0.156102	0.03002	-0.042027	9.790152	6.356828	0.801851	21.53114	15.734353	16.928819	-0.419545	0.350423	-0.300491
-0.259036	-1.101385	10.602342	11.328413	65.958001	23.964644	0.311187	0.340005	-0.911671	1.536088	-0.561077	12.12996	-22.996529	-76.419025	-9.165056	-0.162106	0.036023	-0.036023	9.875275	5.204833	2.11084	28.629581	17.903022	19.179803	-0.401749	0.340113	-0.29673
1.534048	-1.449689	11.330713	30.876951	81.051559	3.155086	0.374982	0.344465	-0.889519	1.660612	-1.135255	12.66415	-26.413065	-91.807433	-12.96414	-0.168109	0.03002	-0.042027	10.002574	4.686429	2.73874	27.282982	15.728002	24.238503	-0.436014	0.351731	-0.299628
-0.904858	-0.231809	9.898088	43.878856	72.037349	-14.300735	0.38721	0.329728	-0.923737	1.844808	-1.308964	13.434717	-27.949146	-107.795906	-18.662977	-0.180117	0.036023	-0.018012	9.322861	4.57279	2.895976	22.127988	11.694094	29.564388	-0.419545	0.350423	-0.300491
-1.262205	0.231329	9.256385	42.168948	71.179548	-4.272259	0.420004	0.350907	-0.922845	1.413767	-0.736808	14.664012	-31.520689	-125.972379	-22.542905	-0.174113	0.036023	-0.036023	9.647513	4.626061	2.046614	16.384879	8.428376	25.970043	-0.391059	0.356306	-0.277284
-6.445431	0.234101	8.228481	30.742373	44.857292	24.898136	0.385801	0.311342	-0.922632	1.662665	-0.739621	15.907362	-33.960644	-145.827022	-23.851575	-0.198129	0.036023	-0.042027	9.45426	5.142475	0.96085	9.840751	5.298321	16.679834	-0.38926	0.365812	-0.311464
-1.49538	1.624297	9.139538	17.114415	-1.853994	5.608593	0.355444	0.307423	-0.906468	1.559512	-1.14114	16.377901	-31.929714	-168.78435	-26.511086	-0.186121	0.036023	-0.042027	9.278539	7.632361	0.968774	9.999561	2.482236	10.415249	-0.422244	0.336164	-0.249221
-0.1029	0.115528	9.857113	27.188103	0.222187	-1.635365	0.43775	0.350051	-0.885527	1.699823	-1.544964	17.796789	-33.012244	-193.079546	-29.01962	-0.204133	0.03002	-0.018012	9.885655	7.684538	0.010859	16.830242	0.668548	12.390206	-0.404829	0.371873	-0.327691
-1.507007	0.636034	8.5012	12.661593	4.342595	2.393454	0.40111	0.293227	-0.90237	1.591813	-1.774199	18.031022	-23.607201	-218.885758	-30.770034	-0.228148	0.042027	-0.024016	10.405596	6.758486	0.302251	23.022172	-3.307797	21.231821	-0.410654	0.35711	-0.246866
-1.135553	-0.231726	9.835701	-2.873279	-1.429488	2.097812	0.367672	0.292687	-0.940686	2.530954	-2.519664	16.752811	-19.606614	-241.143983	-34.105694	-0.222145	0.042027	-0.018012	10.335593	6.52386	-0.385033	24.176102	-9.626562	26.766973	-0.388406	0.338301	-0.268037
-1.195728	0.290434	9.720186	1.029923	-0.162979	3.248872	0.371518	0.328332	-0.924735	2.532708	-2.754044	19.879139	-16.201346	-257.287132	-37.3366	-0.240156	0.042027	-0.03002	10.185718	6.181554	0.63767	21.476895	-13.309687	18.703006	-0.437386	0.328469	-0.243734
-1.531611	-0.172596	10.116914	-0.682044	-1.208142	4.22455	0.338725	0.307153	-0.925626	3.142023	-2.239272	19.300177	5.628223	-274.496923	-41.027814	-0.258168	0.048031	0	9.287572	6.476011	1.30607	19.143504	-16.203552	5.23966	-0.440939	0.341721	-0.235892
-0.961325	0.000557	9.955318	3.385925	-0.543609	4.002346	0.369464	0.330584	-0.961055	4.136683	-1.552902	18.197516	11.131776	-279.67815	-43.291739	-0.27618	0.036023	0.006004	8.892461	6.419699	1.4692	20.379881	-19.349085	1.404421	-0.439139	0.351227	-0.270072
-1.313489	-0.174215	9.543338	1.915988	0.410981	4.626572	0.385418	0.29183	-0.903368	4.057634	-2.003729	13.832315	10.665363	-286.633994	-47.771347	-0.270176	0.048031	0.012008	8.561609	6.654596	2.034415	23.029545	-21.425039	3.087788	-0.440466	0.36023	-0.274696
-0.788994	-0.173738	9.958328	0.796855	1.040562	3.517762	0.32406	0.30463	-0.908464	3.560521	-2.227272	11.346021	-13.991127	-283.207685	-49.282857	-0.294191	0.048031	0.036023	8.010207	6.080713	2.876907	23.734646	-20.580943	2.552068	-0.48542	0.355655	-0.297039
-0.739941	0.173484	9.555606	-1.350155	1.608073	2.186366	0.369081	0.311072	-0.94179	2.122646	-2.621621	9.903561	-38.957992	-278.880264	-52.858598	-0.306199	0.036023	0.036023	8.170912	5.498779	2.306735	22.894202	-16.587821	-0.848205	-0.407055	0.376123	-0.315225
-1.021976	-0.173935	9.780312	-4.51553	1.794137	1.474707	0.366645	0.293813	-0.958846	-7.286427	-3.788519	5.006383	-44.049108	-254.004028	-68.548002	-0.324211	0.036023	0.060039	8.123434	5.26941	2.761295	20.694592	-10.106365	-5.812228	-0.456554	0.315517	-0.191602
-0.673464	0.232589	10.019407	-6.291883	1.661845	1.083668	0.371518	0.328332	-0.924735	-4.195836	-2.135195	4.355203	-26.479222	-177.432901	-90.128042	-0.318207	0.036023	0.060039	8.00709	4.226451	2.525942	18.125627	-3.366531	-9.927919	-0.452056	0.339283	-0.277051
-1.135553	-0.231726	9.835701	-5.88323	1.866538	1.082361	0.420648	0.330269	-0.885421	-8.093097	-0.811426	7.698812	4.445747	-77.784294	-88.567949	-0.318207	0.024016	0.078051	8.01519	4.691725	2.984782	16.603036	3.228421	-11.679537	-0.449449	0.289014	-0.207286
-1.13965	0.464367	9.663934	-6.013037	1.810834	0.899802	0.386828	0.310216	-0.904472	-6.436687	-0.073395	8.791009	33.949597	-15.993029	-85.117841	-0.318207	0.03002	0.078051	7.556265	4.691846	2.804496	16.406042	8.905104	-8.264254	-0.507287	0.328443	-0.193637
-0.898055	-0.172928	10.245116	-6.22499	2.159	0.613547	0.388237	0.328602	-0.905577	-6.168514	-0.702941	7.912556	54.915918	9.417179	-80.816145	-0.318207	0.012008	0.072047	7.779533	4.69034	2.580632	17.134969	13.334402	-2.612964	-0.439612	0.332718	-0.231268
-1.191632	-0.405659	9.891954	-5.452837	2.766007	-0.266096	0.368317	0.272048	-0.903261	-4.630478	-1.448149	5.407294	67.30828	28.274621	-77.45841	-0.330215	0.006004	0.066043	8.235296	5.152864	2.648837	17.126964	17.030886	0.176262	-0.456081	0.334026	-0.230405
-1.072506	-0.173041	10.126058	-3.183994	3.482286	-0.779557	0.355444	0.307423	-0.906468	-4.334102	-2.41888	2.937533	68.015339	48.086028	-75.13003	-0.306199	0.006004	0.060039	8.404328	4.920411	2.53698	15.551095	20.158908	-1.342254	-0.47165	0.340087	-0.246632
-0.903993	0.058544	9.956601	-1.26055	3.583593	-0.668323	0.352362	0.310802	-0.960948	-4.281482	-2.934174	2.644532	56.611398	65.570097	-73.778663	-0.306199	0.006004	0.072047	7.771638	5.267727	2.240708	14.468655	22.51741	-4.277793	-0.420917	0.327161	-0.244597
-1.361733	-0.173042	10.004713	0.7011	3.773788	-0.370989	0.369726	0.290434	-0.904366	-4.287767	-2.647205	2.349024	38.729961	79.439183	-72.392819	-0.294191	-0.012008	0.078051	8.211986	4.973654	1.449113	14.403507	23.890023	-5.992187	-0.441838	0.336968	-0.218802
-0.788771	-0.405909	9.957769	3.114195	3.48845	0.048879	0.355826	0.326935	-0.925733	-4.168613	-2.877223	2.646604	21.252006	90.197441	-70.726459	-0.288188	0.012008	0.078051	8.103617	5.033093	1.732584	14.465052	23.888062	-5.808297	-0.436486	0.333222	-0.260824
-1.187059	-0.4051	10.123213	4.221377	3.211119	0.163967	0.386445	0.290704	-0.885207	-3.543063	-2.707626	2.894253	5.595032	99.687197	-70.04269	-0.288188	0	0.072047	7.696231	4.915993	1.267438	14.191956	22.620279	-3.180592	-0.4089	0.334352	-0.220528
-1.306631	-0.173377	9.890227	4.027291	2.844876	0.306335	0.373955	0.345591	-0.907679	-3.308228	-2.365467	3.428992	-9.281624	110.357611	-69.37333	-0.282184	-0.006004	0.072047	7.865264	4.683541	1.155581	13.583103	20.467549	0.995052	-0.455228	0.306515	-0.186978
-0.962635	0.174545	9.897923	3.817754	2.877909	0.557146	0.373955	0.345591	-0.907679	-2.95247	-2.482597	4.320718	-18.438772	121.698189	-68.899911	-0.27618	-0.006004	0.078051	8.088304	4.797827	0.932243	11.806324	17.928257	3.399415	-0.420917	0.327161	-0.244597
-0.963834	0.232448	9.840248	2.300556	2.888624	0.471413	0.385801	0.311342	-0.922632	-2.944459	-2.25424	4.792313	-24.729607	132.989682	-67.451546	-0.252164	-0.012008	0.072047	8.373589	4.507776	0.93656	9.506439	15.297952	3.233962	-0.443638	0.327461	-0.184622
-1.136752	-0.173823	9.778026	1.801982	2.747438	0.508025	0.434286	0.333918	-0.920743	-2.489043	-2.255908	4.978007	-30.625748	143.9871	-64.3047	-0.252164	-0.006004	0.072047	7.968115	4.564892	0.586386	7.757961	13.238038	0.183277	-0.438286	0.323716	-0.226644
-1.257411	-0.000283	9.487085	1.404003	2.755865	0.670628	0.36588	0.254789	-0.920316	-2.03808	-1.856224	4.985989	-39.459939	154.40499	-58.459873	-0.240156	0.006004	0.054035	8.030132	4.276347	0.814566	6.408696	11.208847	-4.60938	-0.407574	0.325349	-0.215904
-1.017237	-0.347504	10.011152	1.217094	2.604866	0.821666	0.356471	0.306297	-0.888308	-1.228781	-1.344806	6.062292	-51.205989	164.104868	-49.09254	-0.228148	-0.006004	0.042027	7.758362	4.569553	1.495355	5.980515	9.957064	-7.335362	-0.423143	0.33141	-0.232131
-1.192077	0.058682	9.893071	0.629007	2.495591	0.953394	0.399701	0.274841	-0.901265	-1.032397	-1.23327	7.540353	-62.056948	170.836215	-34.353419	-0.228148	0	0.048031	8.428496	4.970571	0.882697	6.413915	8.652153	-7.822728	-0.437813	0.342225	-0.265448
-1.188815	0.23323	10.066935	-0.148802	2.237014	1.11406	0.355564	0.367085	-0.982422	-1.571449	-0.890349	9.003882	-69.063918	172.73669	-14.904278	-0.210137	-0.012008	0.03002	8.145475	4.68192	0.932843	6.754571	7.721886	-6.789989	-0.386653	0.315543	-0.241699
-1.422494	-0.231448	9.829986	-0.28041	1.868724	1.285418	0.371136	0.30882	-0.90547	-1.049435	-0.263087	9.838547	-76.090901	172.488386	6.938066	-0.198129	-0.006004	0.018012	8.494791	4.798871	1.339772	6.603378	6.808046	-5.209738	-0.402222	0.321604	-0.257926
-0.967961	-0.232452	9.607871	-0.097284	1.582868	1.574919	0.354417	0.308549	-0.924628	-0.081231	-0.553056	10.211529	-82.860453	172.76424	29.819537	-0.192125	-0.006004	0.012008	7.811927	4.56865	1.325205	6.943724	6.028299	-3.996989	-0.455654	0.320271	-0.208692
-0.967905	-0.290495	9.607731	0.504757	1.809195	1.875498	0.370109	0.309946	-0.92363	0.959856	-0.501065	11.52899	-85.412498	173.855681	52.131541	-0.180117	0	0.018012	8.044762	4.858992	1.616485	7.375869	5.192169	-5.106939	-0.500655	0.283431	-0.170518
-1.251751	0.058459	9.776299	1.141463	2.126533	2.209552	0.397646	0.277094	-0.937585	1.19989	-0.445774	12.300238	-81.714335	173.337173	72.842182	-0.180117	0.006004	-0.006004	7.59429	4.571471	1.83453	7.777045	4.367437	-7.012554	-0.453428	0.316021	-0.221158
-1.137197	0.290518	9.779144	0.988706	2.223687	2.156054	0.384009	0.273445	-0.902263	1.497701	-0.448047	13.131673	-73.500442	170.195495	91.919664	-0.162106	0.018012	0.006004	7.819469	4.744179	1.725639	7.871894	3.184089	-7.718661	-0.432034	0.324724	-0.285756
-1.204372	-0.233068	9.25641	0.586762	2.328607	2.017121	0.386445	0.290704	-0.885207	1.563872	-1.136437	13.546979	-63.756869	165.789328	109.004767	-0.162106	0.018012	-0.006004	7.764448	4.339281	1.779765	7.598108	2.006448	-7.050519	-0.400942	0.280337	-0.192785
-1.305488	-0.173237	9.948041	0.722406	2.882666	1.761617	0.367672	0.292687	-0.940686	1.841037	-1.136782	13.257412	-56.215223	161.867747	124.006546	-0.144094	0.036023	-0.012008	7.939328	4.571577	2.012564	6.431012	1.631336	-5.457637	-0.437859	0.30996	-0.204931
-1.131259	0.059046	10.067659	-0.161648	3.275614	1.768212	0.386828	0.310216	-0.904472	2.284095	-1.366401	12.735509	-52.578907	159.638757	135.46028	-0.144094	0.03002	-0.018012	7.779203	4.284802	2.5217	5.570111	1.80991	-3.753617	-0.388879	0.319792	-0.229233
-0.899309	-0.056982	10.187581	-0.049075	4.108077	1.463573	0.399056	0.29548	-0.93869	2.22945	-1.996448	12.735539	-53.966763	159.734334	144.06547	-0.150098	0.048031	-0.012008	8.056923	4.977676	2.245025	5.844964	2.716523	-2.672092	-0.421817	0.322408	-0.227507
-0.909652	-0.000197	9.667388	-0.647074	4.412553	0.604071	0.372163	0.307693	-0.88731	2.05921	-1.766767	12.731873	-56.898545	161.259986	150.996957	-0.126082	0.060039	-0.024016	7.713239	4.86204	2.123557	8.178724	3.999708	-2.536378	-0.435633	0.305711	-0.217397
-1.022087	-0.057849	9.780591	-0.707687	4.664415	0.310263	0.385801	0.311342	-0.922632	2.129856	-1.768257	13.499962	-57.406572	163.033125	156.035297	-0.120078	0.066043	-0.024016	8.048255	4.801884	1.787499	10.850612	5.211865	-3.528857	-0.43516	0.32422	-0.2562
-1.373163	-0.174439	9.426565	-0.510023	4.965764	0.40962	0.384391	0.292957	-0.921528	2.47104	-1.368537	13.682772	-55.903946	163.94581	160.451602	-0.096063	0.054035	-0.018012	8.16891	4.224007	2.072584	13.030278	6.460835	-5.350649	-0.415611	0.291152	-0.226102
-1.138229	0.174293	9.72105	-0.327661	5.088138	0.104718	0.384391	0.292957	-0.921528	2.821023	-1.370575	14.279294	-52.956164	163.462645	164.818431	-0.10807	0.078051	-0.024016	8.048494	4.106864	1.727252	14.380778	7.487128	-5.244848	-0.403168	0.284587	-0.180319
-1.023453	0.174182	9.723336	-0.14895	4.993144	-0.056228	0.351215	0.252266	-0.903154	2.713694	-1.828979	14.513933	-47.459207	162.024125	168.167481	-0.090059	0.072047	-0.036023	8.216513	3.816252	1.55804	15.239979	8.36618	-3.884268	-0.449922	0.270505	-0.168483
-0.960015	-0.173431	10.012714	0.421692	5.032392	0.481887	0.367289	0.273175	-0.921421	2.44403	-1.4284	15.274791	-39.944902	160.140681	171.260453	-0.072047	0.090059	-0.018012	7.764676	4.223489	1.779239	15.914185	9.484976	-2.316154	-0.420018	0.331914	-0.261687
-0.795043	0.173819	9.670093	1.289404	5.227461	0.285917	0.396237	0.258708	-0.93648	3.290502	-1.717216	15.173598	-30.441182	157.473423	172.318158	-0.084055	0.054035	-0.042027	7.817228	4.164427	1.551734	15.144697	9.921198	-1.382266	-0.434779	0.2782	-0.173969
-1.47531	-0.230834	10.060102	2.235921	5.630207	0.524434	0.417829	0.293497	-0.883211	4.033373	-1.892019	15.60103	-20.53001	154.324434	171.016352	-0.066043	0.084055	-0.018012	7.994372	3.818022	1.838996	14.805648	10.229412	-1.788844	-0.450775	0.298017	-0.21191
-1.48359	0.058402	9.656098	2.975277	6.15866	0.986954	0.383364	0.294083	-0.939688	4.199544	-2.579532	15.310508	-11.726853	150.907312	165.726685	-0.072047	0.090059	-0.018012	8.384181	4.278556	1.449338	15.236484	9.919323	-3.247429	-0.400042	0.285091	-0.209875
-0.852208	-0.058296	9.668391	3.347376	6.775372	0.178337	0.353007	0.290164	-0.923524	5.656693	-2.811915	14.631165	-5.592274	147.848605	154.693885	-0.066043	0.078051	-0.006004	8.385864	4.568564	1.564836	15.914297	9.264249	-3.962642	-0.402695	0.303095	-0.219123
-1.081817	-3.1e-05	9.663959	3.386847	7.333993	-0.227488	0.418212	0.313009	-0.902476	6.935676	-4.532171	13.243199	-3.107589	145.764704	135.892529	-0.060039	0.066043	-0.012008	8.438644	4.39371	1.336805	16.870252	8.162194	-3.22848	-0.351062	0.294923	-0.234177
-1.360757	0.001226	10.062947	3.122398	7.897758	-0.411961	0.416802	0.294624	-0.901372	8.660657	-5.279515	11.6852	-9.358956	144.063427	108.137607	-0.036023	0.072047	0.006004	8.500206	4.336751	1.566037	16.719449	7.012675	-2.285073	-0.450822	0.265752	-0.151393
-0.845517	0.116671	10.015699	2.715822	8.834575	-0.577735	0.397646	0.277094	-0.937585	10.230675	-5.454947	11.007928	-24.55371	141.981782	74.221602	-0.054035	0.072047	0	8.554897	4.336112	1.452979	16.507505	5.790217	-0.606265	-0.36933	0.286724	-0.199135
-1.584539	-0.055896	10.347309	3.462823	9.031193	-0.648534	0.372545	0.327205	-0.906575	11.07996	-5.228537	11.141822	-39.749546	138.448954	36.030879	-0.054035	0.084055	-0.006004	8.665632	4.219303	1.28343	15.55751	4.67265	1.647243	-0.401369	0.294093	-0.214499
-1.60528	0.115717	9.307063	3.333952	9.866761	-0.70283	0.382719	0.314721	-0.977112	11.811859	-5.00138	11.037542	-46.554836	132.514868	-2.880454	-0.036023	0.096063	-0.006004	8.780872	4.103545	1.342248	14.023656	3.423465	4.022982	-0.449922	0.270505	-0.168483
-0.684894	0.231192	9.441259	3.231547	10.547346	-0.733562	0.415393	0.276238	-0.900267	12.266763	-4.83117	11.222932	-43.241677	124.576881	-40.262776	-0.042027	0.084055	0.012008	8.723372	3.813914	1.282716	12.398136	1.901811	6.098682	-0.418737	0.290648	-0.196546
-1.251751	0.058459	9.776299	3.86212	11.025232	-0.881719	0.416157	0.315262	-0.938796	12.246245	-4.141935	10.21871	-36.060304	116.501218	-71.746753	-0.042027	0.078051	0.012008	9.183764	3.640366	1.519306	11.11056	0.398808	7.19706	-0.43298	0.287706	-0.208149
-1.474501	0.117562	10.118755	4.876958	11.924298	-1.052271	0.371136	0.30882	-0.90547	12.28557	-3.109522	9.450968	-31.155882	108.957159	-95.668315	-0.042027	0.084055	0.006004	8.839738	3.69842	1.398627	8.65316	-0.503768	8.152885	-0.403168	0.284587	-0.180319
-1.422884	0.174851	9.830964	5.239307	12.874131	-1.419141	0.397264	0.257582	-0.91832	11.816284	-1.731923	8.731836	-25.775716	99.279982	-110.313436	-0.018012	0.102066	0	8.617028	3.989671	1.680897	5.457162	-1.001277	10.104608	-0.42139	0.308652	-0.205794
-1.648841	0.001364	9.999417	5.781266	13.540225	-1.649139	0.386445	0.290704	-0.885207	11.405179	-0.182819	8.131487	-20.695601	82.630237	-112.959601	0	0.102066	0.024016	8.039609	3.467638	1.210531	3.829152	-1.449271	12.094179	-0.397389	0.267086	-0.200627
-1.761053	-0.288458	10.112062	6.75613	13.692772	-1.177101	0.400465	0.313865	-0.939794	10.400612	-1.555581	8.586365	-16.334073	57.851686	-103.169919	0	0.090059	0.024016	7.926735	3.526025	1.265634	3.154436	-1.975664	13.968343	-0.418737	0.290648	-0.196546
-1.533508	-0.579174	10.000306	8.709022	14.717424	-1.089759	0.412311	0.279617	-0.954747	11.368348	3.423932	9.77601	60.483992	-17.165829	-88.849153	0.006004	0.078051	0.018012	8.334347	3.527331	1.730255	3.771075	-2.542468	15.513959	-0.42011	0.267386	-0.140653
-1.541342	-0.75428	9.595183	10.35655	16.653507	0.539677	0.416802	0.294624	-0.901372	10.847032	4.733787	15.425738	100.85742	-54.89281	-57.328251	0.012008	0.090059	0.012008	8.337396	3.122582	1.842599	4.232986	-2.897353	15.035342	-0.400042	0.285091	-0.209875
-0.887348	0.583024	10.82508	8.347991	17.563076	3.314013	0.40252	0.311613	-0.903474	11.053144	1.584763	13.842663	165.179984	-86.231244	-25.813176	0.012008	0.096063	0.03002	8.608018	3.987568	1.22416	4.110716	-3.25853	14.492563	-0.468617	0.276062	-0.155154
-1.746502	-1.157422	10.803743	6.835973	22.82345	6.744231	0.417185	0.314136	-0.920636	10.813187	-1.042868	9.596061	186.429736	-117.378906	5.971115	-0.012008	0.072047	0.03002	8.61862	3.179121	1.677217	3.434506	-3.196206	15.924888	-0.449922	0.270505	-0.168483
-0.883847	1.461266	13.948031	6.848959	37.623205	5.334802	0.417447	0.273985	-0.863947	3.426438	-0.611003	4.322158	164.886009	-153.809037	24.995975	-0.012008	0.084055	0.03002	8.730129	3.815491	1.625269	1.281743	-3.164431	14.047009	-0.402695	0.303095	-0.219123
-1.090333	0.296247	12.149549	15.594915	55.950102	6.09351	0.337315	0.288767	-0.924522	-4.798325	-0.177496	-0.437042	34.606111	-160.448692	49.875977	-0.006004	0.078051	0.03002	8.727205	3.583117	1.452941	0.390308	-3.667786	10.047453	-0.435206	0.291956	-0.195683
-1.548796	0.819216	12.199478	5.571511	63.232846	6.508615	0.412956	0.258978	-0.917322	-4.766051	2.10033	7.816748	-26.577472	-155.611832	59.049666	-0.012008	0.060039	0.024016	8.670581	4.567995	1.570468	-1.912332	-5.261995	8.175844	-0.440985	0.309456	-0.175375
-1.243233	0.472918	13.129391	4.93424	74.138914	5.168612	0.413983	0.257852	-0.899162	1.618234	4.710907	11.296792	-3.095741	-187.854683	44.978819	-0.042027	0.078051	0.042027	9.461234	5.607486	1.362598	-4.94961	-7.705023	11.274543	-0.483287	0.286877	-0.188471
-1.696234	0.067763	13.408343	1.662089	86.22737	5.895626	0.416802	0.294624	-0.901372	4.464572	4.075551	9.288321	0.385194	-204.413502	6.43702	-0.03002	0.078051	0.03002	10.033693	6.360053	1.605646	-8.297901	-8.13592	18.942895	-0.470843	0.280312	-0.142688
-1.282641	-0.395571	13.993373	0.698491	100.761285	8.043385	0.445367	0.260645	-0.897166	5.353316	1.26262	11.0796	-33.61144	-183.965628	-36.141536	-0.036023	0.066043	0.042027	11.16794	6.414623	1.400066	-13.437437	-5.339497	24.446986	-0.455228	0.306515	-0.186978
-1.775409	-0.101922	15.197895	5.176241	118.623372	10.779117	0.499371	0.297101	-0.823741	1.877762	-1.421486	12.138003	-55.277931	-153.227836	-57.589883	-0.054035	0.078051	0.024016	11.557078	6.64331	0.952264	-12.714003	0.851196	24.98013	-0.453002	0.302266	-0.199444
-1.534148	-0.390961	15.779916	5.439341	137.699008	14.123288	0.51468	0.278986	-0.803479	0.505767	-4.972198	13.769135	-16.35927	-129.389095	-54.414654	-0.066043	0.084055	0.018012	10.975142	6.699452	0.31325	-10.916633	7.460025	20.922026	-0.486412	0.286373	-0.158915
-1.816238	-0.680337	16.004762	9.204045	158.949361	16.067716	0.484706	0.294578	-0.806579	1.004621	-4.22822	13.364594	17.988535	-100.819729	-9.284088	-0.072047	0.060039	0.018012	10.871392	6.702045	0.824827	-14.554858	11.055525	13.020453	-0.420963	0.294897	-0.18408
-1.85598	-1.200569	16.869583	12.075344	180.895316	18.520345	0.528318	0.282635	-0.838801	2.481153	-2.567179	10.971983	54.355984	-74.459566	18.557313	-0.060039	0.072047	0.03002	9.836743	5.890915	0.229953	-21.783105	11.645052	4.404432	-0.518877	0.307497	-0.195992
-1.891929	-0.907645	17.967619	15.206252	201.828333	20.252839	0.562401	0.262537	-0.76306	1.389974	0.707547	7.465627	57.124461	-56.443839	17.356453	-0.078051	0.078051	0.03002	8.928722	4.329532	0.204835	-26.119762	11.940428	-0.549874	-0.469897	0.317329	-0.220295
-2.403962	-0.7905	18.188871	23.598259	221.479125	19.912779	0.575656	0.246674	-0.779117	0.048825	0.30927	8.20726	12.80577	-68.861341	-6.705767	-0.090059	0.072047	0.024016	8.027993	4.217925	0.700119	-27.250441	9.36925	2.470406	-0.450775	0.298017	-0.21191
-2.45873	-1.138421	18.302519	32.534264	242.966594	21.743937	0.626578	0.286509	-0.760172	1.131532	0.237711	14.833854	0.79705	-89.750861	-21.796135	-0.090059	0.072047	0.03002	7.295398	3.75781	1.025928	-23.272518	4.93554	9.323146	-0.453002	0.302266	-0.199444
-2.572252	-1.254255	18.357768	37.020418	264.492494	25.027158	0.629277	0.263618	-0.686428	9.638991	2.000288	7.680942	66.973282	-23.60903	47.464865	-0.084055	0.060039	0.03002	6.380825	3.237511	0.777174	-16.162325	1.720644	13.044787	-0.488592	0.322886	-0.206966
-2.85239	-1.195096	18.699082	54.459532	277.346938	26.668542	0.675708	0.288446	-0.720858	0.318348	-0.783723	10.396542	42.716252	-12.206374	5.235867	-0.084055	0.072047	0.03002	5.370021	4.053789	1.559871	-16.834465	-0.388389	10.06231	-0.454282	0.343533	-0.264585
-4.631455	-2.354365	18.60304	64.541557	287.340369	31.148564	0.662715	0.264159	-0.648111	1.037718	-0.727225	9.584564	38.928028	-12.086812	5.999244	-0.102066	0.066043	0.036023	5.041421	4.289211	2.239271	-15.200738	-1.832184	13.74401	-0.459207	0.333522	-0.200849
-3.122575	-0.786423	19.561566	82.569445	290.907685	34.962093	0.722664	0.232973	-0.64191	0.295634	-1.182537	9.099249	49.387015	-17.920843	3.298134	-0.10807	0.054035	0.036023	5.256566	4.980884	1.676009	-11.665612	-1.233142	17.633169	-0.475676	0.33483	-0.199987
-0.453278	-0.495136	21.118026	95.442181	288.823528	33.867698	0.742465	0.229865	-0.568272	1.14298	-0.669563	9.173635	50.0156	-15.353514	5.38682	-0.096063	0.060039	0.036023	6.169126	4.805638	1.750333	-7.368637	1.746676	16.577936	-0.505915	0.351705	-0.24953
-2.749643	-0.333007	15.23572	90.479158	296.654911	31.800944	0.825033	0.232342	-0.490642	1.247965	-0.153663	8.820893	43.32538	-14.587261	0.425559	-0.072047	0.066043	0.036023	6.101251	5.20866	1.237217	-2.458611	5.479131	14.866294	-0.456081	0.334026	-0.230405
-0.937477	-1.266545	13.998135	74.124113	304.90158	32.894883	0.793267	0.210037	-0.473373	1.14967	-0.727465	9.527737	32.556494	-11.859953	0.404679	-0.090059	0.048031	0.054035	7.016279	5.497374	1.48492	-1.020997	8.758319	16.0213	-0.438759	0.305207	-0.187841
-0.196397	-3.241558	13.661354	58.355233	316.385835	37.286451	0.809603	0.190795	-0.43495	1.033223	0.418725	9.523534	26.779715	-11.171773	-0.330156	-0.102066	0.054035	0.036023	8.485645	6.013118	1.002739	-5.178012	11.895268	20.024296	-0.488165	0.309131	-0.185252
1.278885	-3.593357	12.823011	50.434219	329.597567	46.697366	0.86117	0.209992	-0.378581	0.802904	0.018867	9.224897	22.841813	-10.393671	0.450049	-0.10807	0.048031	0.036023	10.748166	6.294632	0.306905	-14.316845	15.58376	23.987656	-0.506814	0.346952	-0.23244
6.723024	-4.8257	9.576546	56.569829	335.202459	57.815819	0.879561	0.188497	-0.303838	0.982413	-0.03985	9.75926	16.409822	-8.307768	0.848518	-0.090059	0.042027	0.054035	12.15722	6.230475	-0.4074	-24.190499	17.59319	22.787021	-0.441792	0.369232	-0.279319
8.012454	-3.05946	-3.454399	49.798358	272.018922	75.220758	0.882642	0.185119	-0.249358	1.208086	-0.2696	9.705012	12.899352	-8.554813	1.269305	-0.090059	0.048031	0.048031	11.581269	5.535015	-0.821462	-32.454156	14.609355	18.744331	-0.470751	0.34484	-0.263722
9.57724	-3.523487	-2.673065	18.33271	144.126376	74.782141	0.959693	0.173716	-0.243263	0.802563	0.133452	9.224694	11.452042	-9.302657	1.861111	-0.090059	0.054035	0.048031	10.667924	5.53631	-0.953666	-37.484297	9.280053	14.406351	-0.459161	0.365787	-0.261367
9.978322	-0.955634	3.235905	-29.885992	33.068125	67.087284	0.888423	0.158849	-0.121133	1.259279	-0.670209	9.352809	6.979176	-8.368248	0.723865	-0.090059	0.042027	0.03002	9.810055	5.710917	-1.141048	-40.237522	3.037515	9.490037	-0.508141	0.355955	-0.237064
9.22634	-0.012701	8.771214	-37.383621	-37.865045	51.024531	0.914289	0.147761	-0.190672	1.209748	-0.097926	9.822708	3.838506	-7.487476	-0.465254	-0.096063	0.036023	0.042027	10.171873	5.772862	-0.106368	-42.835262	-4.128189	2.883132	-0.479655	0.361837	-0.213858
7.149229	0.633556	11.100867	-6.157259	-77.823264	32.074551	0.96662	0.205982	-0.172832	1.152824	-0.326824	9.763027	2.042701	-7.506199	-1.019261	-0.084055	0.048031	0.060039	10.118195	5.831661	0.064045	-41.526144	-12.177623	-0.807443	-0.42447	0.340413	-0.236755
5.361886	-0.236477	10.60082	38.561922	-93.12842	14.673849	0.947727	0.148302	-0.152356	0.973081	-0.554467	9.170172	0.342147	-7.532051	-1.515382	-0.078051	0.03002	0.054035	10.820103	5.54502	0.98972	-38.745018	-18.358985	-1.138515	-0.444872	0.400992	-0.310281
4.447952	-0.88068	7.864844	66.443362	-97.491014	-0.103369	0.94529	0.131042	-0.169412	1.369293	-0.383884	9.236474	-1.599268	-7.099779	-1.664318	-0.084055	0.024016	0.036023	10.318978	6.070003	1.609963	-36.677136	-21.857524	-1.138029	-0.477856	0.371344	-0.248038
3.707018	-2.395689	5.130201	71.430084	-98.423169	-11.750159	0.878414	0.129961	-0.246044	1.034117	-0.612336	9.407361	-2.49212	-7.116979	-2.961866	-0.090059	0.036023	0.048031	10.949882	4.911349	1.731279	-34.247434	-22.454583	-2.242772	-0.491199	0.373156	-0.276731
3.102998	-3.153461	3.555956	58.84871	-100.235829	-19.28726	0.911972	0.190164	-0.283682	0.630767	-0.209487	9.045043	-2.729722	-7.144692	-3.41858	-0.090059	0.036023	0.048031	10.783102	5.144327	1.95732	-32.809023	-19.978339	-4.769873	-0.496078	0.39541	-0.273512
3.086075	-3.387728	2.688175	33.342967	-106.46423	-23.123303	0.922408	0.13753	-0.29753	0.80919	-0.268103	9.520405	-2.700583	-7.243786	-3.33328	-0.102066	0.03002	0.024016	11.135342	5.493652	2.536577	-32.236923	-15.447437	-10.193804	-0.478283	0.385099	-0.269751
3.191985	-3.67917	2.227244	0.139638	-120.046523	-23.411581	0.864514	0.166463	-0.267411	0.595853	-0.898653	10.107177	-3.046057	-7.748521	-3.507621	-0.096063	0.036023	0.060039	10.849727	5.378165	2.473328	-32.126871	-10.497277	-15.35478	-0.541932	0.386082	-0.278766
3.042013	-2.979696	3.381788	-29.281851	-142.325227	-20.816207	0.860405	0.170968	-0.340051	0.917818	-0.611691	9.228187	-1.54688	-8.161639	-2.785089	-0.090059	0.048031	0.048031	10.786481	5.145116	2.128597	-31.892424	-6.104282	-20.043465	-0.494325	0.372652	-0.247175
3.19058	-2.453231	5.119774	-45.636605	-169.642006	-17.271643	0.832485	0.184308	-0.306832	0.86051	0.018595	9.284984	-1.284349	-7.891627	-2.808219	-0.090059	0.042027	0.036023	10.226399	4.974667	2.573283	-29.932981	-3.082188	-23.834708	-0.526363	0.38002	-0.262539
2.990832	-1.346425	6.678856	-53.96247	-195.416713	-13.701813	0.826202	0.131403	-0.339838	1.377581	-0.613765	9.649881	-0.459209	-8.210377	-2.73504	-0.090059	0.054035	0.060039	9.929863	4.682863	1.938324	-27.693154	-1.566798	-27.038969	-0.494325	0.372652	-0.247175
2.443073	-1.168526	7.997585	-58.976573	-216.16607	-10.340379	0.799047	0.183767	-0.345148	1.48932	0.187887	9.709634	-0.447614	-8.551767	-2.757358	-0.096063	0.042027	0.042027	8.957538	5.147179	1.750004	-24.774589	-0.947826	-29.14823	-0.461387	0.370036	-0.248901
1.772481	-0.933452	8.909465	-61.374334	-230.926945	-6.52005	0.811013	0.209181	-0.436055	1.202078	-0.440869	9.351316	-0.371457	-8.631343	-3.074279	-0.102066	0.060039	0.042027	8.844676	4.626339	1.745386	-22.071787	0.183507	-28.792874	-0.51122	0.387715	-0.268025
1.274164	-0.81463	9.824494	-62.075054	-240.069521	-2.692522	0.767018	0.201613	-0.384569	1.204826	-0.269296	9.528012	-0.301609	-8.276762	-3.363125	-0.084055	0.042027	0.048031	9.06502	4.392458	1.349194	-20.382625	0.936336	-28.556544	-0.512547	0.396717	-0.272649
0.407014	-0.176025	9.519813	-64.55298	-245.809076	1.072684	0.749272	0.202469	-0.421887	1.14396	-0.268719	9.290925	0.205147	-8.145497	-3.311316	-0.090059	0.042027	0.054035	8.603171	4.160206	0.99658	-19.523422	1.513608	-29.574734	-0.492053	0.400667	-0.320158
0.412729	-0.175326	9.808886	-69.258887	-249.686435	3.500582	0.649602	0.180209	-0.499411	1.370379	-0.383986	9.295474	-0.170674	-7.263907	-3.797399	-0.090059	0.036023	0.060039	8.671377	4.162721	1.568627	-18.816846	1.575626	-31.101806	-0.477856	0.371344	-0.248038
0.148037	0.466217	10.961004	-74.995612	-251.446913	3.870261	0.666059	0.220629	-0.536942	0.92502	-0.841469	9.582594	0.26547	-7.150909	-3.929626	-0.090059	0.054035	0.042027	8.270988	3.352179	1.385787	-18.263119	1.294968	-32.37705	-0.5134	0.424229	-0.316077
0.156792	0.873633	11.4245	-80.463967	-252.362389	2.648624	0.661186	0.18611	-0.571053	1.205231	-0.040228	9.586606	1.230619	-6.995579	-4.109274	-0.096063	0.036023	0.042027	7.988285	4.048293	1.554587	-17.955111	1.026524	-32.61388	-0.510321	0.392468	-0.285115
0.280014	0.410159	11.830372	-81.695061	-253.514993	-0.792112	0.654596	0.27439	-0.541254	0.982754	-0.154435	9.759463	2.170186	-7.070692	-4.611826	-0.084055	0.042027	0.042027	7.930773	4.337889	1.554775	-17.093248	0.6589	-31.897174	-0.541033	0.390835	-0.295856
0.057684	1.223957	12.23246	-79.919731	-253.996893	-7.454827	0.621157	0.273849	-0.57957	1.035609	-0.383369	9.524955	3.252776	-7.46973	-4.985829	-0.096063	0.054035	0.054035	7.187587	4.106993	1.367806	-15.923383	0.050309	-31.203815	-0.42575	0.38168	-0.301896
0.991619	1.515237	13.060853	-77.709271	-252.593057	-17.931006	0.60021	0.218422	-0.595414	0.809765	-0.096327	9.579101	3.476672	-7.857549	-4.30802	-0.096063	0.03002	0.048031	8.099806	4.105436	1.442918	-14.784646	-0.457648	-31.124733	-0.508141	0.355955	-0.237064
1.576932	1.516078	13.65043	-78.471413	-249.489152	-32.268991	0.553516	0.233744	-0.617673	1.312731	0.360885	9.352068	3.411313	-7.894444	-3.566287	-0.102066	0.036023	0.048031	7.349054	4.857465	0.974957	-13.676673	-0.884	-30.374758	-0.475584	0.399359	-0.321021
0.444528	0.996623	14.377905	-77.459319	-242.843382	-45.708436	0.537824	0.232348	-0.618671	0.976298	0.189827	9.463853	3.730982	-7.820925	-3.449571	-0.096063	0.036023	0.048031	6.675097	4.108017	1.357669	-11.799519	-1.439347	-28.54706	-0.489873	0.364153	-0.272107
-1.603634	0.30421	15.202302	-81.003826	-232.281085	-50.59817	0.556335	0.270516	-0.619882	1.434164	-0.270282	9.709359	3.723321	-7.977228	-3.428413	-0.090059	0.036023	0.054035	7.128619	3.990789	1.251969	-9.676765	-1.892009	-27.240436	-0.491626	0.386911	-0.298444
-3.890493	-0.389098	15.55961	-86.077991	-218.912861	-48.156225	0.444054	0.243481	-0.643923	1.322148	-0.613696	9.707795	3.906233	-8.472247	-3.621339	-0.102066	0.048031	0.042027	7.070208	4.164329	1.194539	-7.248489	-1.487179	-25.646184	-0.495651	0.381654	-0.251799
-5.885252	-0.501559	16.213103	-90.338527	-200.57657	-38.990935	0.441356	0.266371	-0.717668	1.425194	0.188768	9.295546	4.344714	-8.754017	-3.933497	-0.096063	0.048031	0.042027	7.178907	4.510428	0.970001	-4.819484	-1.25373	-22.824449	-0.460014	0.393298	-0.304794
-7.893838	-0.499612	16.173099	-95.141387	-177.622898	-26.383825	0.418309	0.31423	-0.650338	1.432332	-0.384664	9.591562	4.670389	-8.879573	-4.169726	-0.10807	0.03002	0.036023	7.174959	4.799121	0.800038	-3.344425	-0.555653	-19.070444	-0.476529	0.362341	-0.243414
-9.323607	0.315076	16.435555	-107.376138	-153.222277	-15.037237	0.461921	0.302287	-0.682559	1.385358	-0.671768	10.062984	5.892521	-9.552984	-5.339035	-0.090059	0.024016	0.042027	7.178588	3.525664	0.851348	-2.115623	0.209301	-15.900521	-0.509894	0.378713	-0.263402
-10.906498	1.538604	17.678411	-115.133467	-135.64624	-6.338379	0.430919	0.319006	-0.70382	1.448632	-0.386187	10.476564	8.034372	-10.998725	-7.333076	-0.084055	0.042027	0.066043	7.68465	3.9286	0.577863	-2.576294	0.338589	-12.602632	-0.42575	0.38168	-0.301896
-12.000915	2.177712	17.484787	-111.99561	-135.233868	0.35744	0.385133	0.27354	-0.631965	1.445244	-1.073188	10.182782	10.004072	-14.112203	-10.571434	-0.084055	0.036023	0.060039	7.693558	3.409373	0.975142	-5.279099	-0.588768	-10.179335	-0.491199	0.373156	-0.276731
-62.930381	27.309484	115.066095	-360.635506	-100.286369	48.879896	0.357333	0.346542	-0.674699	0.929601	-0.555515	9.877087	11.783567	-16.663742	-13.117863	-0.090059	0.048031	0.060039	7.40817	3.178093	0.911367	-8.997559	-1.066144	-7.955473	-0.457361	0.375293	-0.295546
-13.148146	5.445282	0.247949	-77.447925	-116.761066	37.57977	0.387307	0.330949	-0.671599	1.727394	-0.55851	10.246301	13.970574	-19.607197	-15.055229	-0.090059	0.036023	0.060039	7.289323	3.408855	0.681798	-10.840674	-1.355991	-4.410718	-0.457834	0.356784	-0.256743
-30.936619	4.708116	-0.050376	93.602135	-91.427813	8.240518	0.397743	0.278315	-0.685447	1.269528	-0.098401	10.000795	14.936506	-21.834463	-16.624116	-0.090059	0.048031	0.048031	7.172627	3.118812	0.506954	-10.346861	-1.665371	0.339819	-0.474257	0.390356	-0.316397
-33.385117	4.719926	3.772923	-24.097696	-68.599344	8.70568	0.366742	0.295034	-0.706707	1.226389	-0.214034	10.707914	14.861686	-24.999026	-17.28804	-0.096063	0.036023	0.042027	7.176893	3.814883	0.79557	-7.423212	-2.430717	4.808058	-0.476956	0.376097	-0.265128
-36.949175	5.723628	9.252366	-18.925843	-33.110814	6.18993	0.367386	0.274396	-0.669283	1.663438	-0.614921	9.832315	13.603036	-29.738042	-16.649929	-0.114074	0.042027	0.042027	6.77143	3.292771	0.385675	-5.822916	-2.76375	7.94397	-0.427976	0.385929	-0.28943
-40.276316	10.254884	9.486047	-0.00584	21.146748	-10.947343	0.364567	0.237624	-0.667074	0.757962	1.960247	13.231284	-0.679602	-34.571161	-14.988018	-0.090059	0.036023	0.042027	7.449107	3.869319	0.17345	-3.08676	-2.671452	8.140042	-0.492952	0.395914	-0.303068
-44.599377	15.713393	8.719681	47.548433	91.104467	-35.788819	0.394542	0.222032	-0.663973	1.40121	-0.15776	11.006073	-0.421467	-49.775466	-11.181995	-0.096063	0.048031	0.048031	8.137148	4.332439	0.474529	1.675565	-1.589303	5.26564	-0.444018	0.373481	-0.266853
-30.696471	13.453447	-7.768453	103.46677	160.295785	-76.866707	0.413053	0.2602	-0.665184	1.424669	0.355537	12.362163	-6.949523	-56.085663	-9.55683	-0.10807	0.036023	0.054035	9.22841	4.737918	1.011597	8.834425	0.177384	1.623596	-0.493852	0.39116	-0.285978
-6.80327	-1.893833	16.133647	81.200731	105.360963	-3.27657	0.399798	0.276062	-0.649127	1.306708	0.184508	12.065294	-12.847353	-67.48926	-8.559467	-0.10807	0.036023	0.048031	10.325975	5.37656	1.89227	18.452586	2.600186	1.252096	-0.52679	0.393776	-0.284252
-3.454623	0.239089	11.5244	38.364181	27.926133	18.459306	0.461921	0.302287	-0.682559	1.38805	0.239295	13.423283	-19.280669	-80.37916	-9.58509	-0.10807	0.03002	0.060039	10.441306	6.36136	2.070267	27.45845	4.572362	5.964785	-0.475584	0.399359	-0.321021
-0.205362	3.012548	7.723811	7.2956	38.404201	42.978322	0.397743	0.278315	-0.685447	1.809468	-0.394348	14.73001	-24.697799	-96.92373	-12.86018	-0.114074	0.042027	0.054035	10.630133	7.523678	3.106562	36.777921	4.821009	17.661429	-0.508994	0.383466	-0.280492
3.411299	-0.873055	10.560422	2.192268	70.542454	26.356667	0.462948	0.301161	-0.664399	1.781286	-1.886014	16.029566	-27.840945	-118.755319	-19.679073	-0.10807	0.036023	0.042027	10.881239	6.543979	4.19135	45.183507	2.636122	39.806488	-0.496551	0.376901	-0.234709
-1.741925	1.223167	11.156361	-13.102603	5.287189	-5.511862	0.417926	0.294718	-0.631073	1.389867	-2.572533	16.141178	-24.782964	-143.854343	-30.210293	-0.120078	0.036023	0.054035	10.401103	4.988635	5.658512	42.588239	-4.088323	50.987619	-0.508141	0.355955	-0.237064
-1.24902	-0.405603	9.890811	-8.91708	1.42655	5.506441	0.430537	0.299494	-0.684555	1.42236	-2.174633	17.969473	-22.997315	-170.038237	-39.220129	-0.126082	0.03002	0.054035	9.56829	5.908684	3.934186	35.579012	-7.138174	29.675806	-0.526363	0.38002	-0.262539
-0.671233	0.290911	10.135176	-2.216253	-1.711869	-1.138133	0.410999	0.262452	-0.701504	0.823934	-1.602169	19.313508	-17.965882	-202.624059	-43.905502	-0.150098	0.036023	0.060039	8.776322	6.419401	1.352763	26.22352	-6.597747	3.984522	-0.526317	0.412285	-0.323056
-1.601042	0.464532	9.53916	7.353909	0.696696	0.047353	0.493305	0.30508	-0.680563	0.774488	-2.519083	19.550047	-7.624272	-235.698904	-46.558553	-0.150098	0.042027	0.042027	9.455819	6.069606	1.136332	19.855703	-6.194603	-3.735877	-0.531669	0.41603	-0.281034
-0.788018	0.00053	10.016562	0.721505	-2.732234	0.247527	0.444054	0.243481	-0.643923	0.597728	-2.288793	19.19238	4.837973	-268.252427	-49.007967	-0.156102	0.048031	0.048031	9.335846	6.300105	0.84967	15.891792	-6.507293	3.712796	-0.530815	0.388519	-0.237607
-0.968184	-0.000282	9.60843	1.822488	-1.59859	0.787426	0.394924	0.241544	-0.683238	0.458574	-3.379376	20.666053	4.385771	-297.016692	-54.51682	-0.168109	0.042027	0.072047	10.351246	6.585436	0.41452	17.588878	-7.849098	15.038458	-0.477856	0.371344	-0.248038
-1.427456	0.174292	9.599705	-2.453437	-2.356482	1.499687	0.444437	0.262993	-0.663188	1.204535	-3.497191	21.270384	27.553657	-327.141457	-60.848624	-0.168109	0.03002	0.054035	9.645868	5.770732	-0.80161	21.256389	-10.806192	21.212704	-0.528162	0.370514	-0.228359
-1.422828	0.116808	9.830825	-3.55482	-2.553123	2.281779	0.40818	0.225681	-0.699295	1.691095	-2.637511	20.216638	42.267217	-345.27958	-64.805152	-0.198129	0.024016	0.060039	9.301183	5.01771	-1.040154	17.569483	-12.501159	16.705957	-0.531242	0.402275	-0.25932
-0.904746	-0.347895	9.897808	-1.309865	-2.467576	2.934797	0.473384	0.248526	-0.678248	3.826138	0.163747	20.016955	51.702398	-343.322342	-64.094927	-0.204133	0.042027	0.072047	8.505444	4.845876	-0.999618	12.80519	-14.436024	4.736423	-0.496978	0.390656	-0.256422
-1.479129	0.175046	9.887636	0.984914	-2.721463	3.542133	0.473767	0.268038	-0.697512	3.77559	-2.919353	13.710506	58.603888	-349.524604	-68.145586	-0.216141	0.036023	0.072047	8.083003	5.20205	0.705714	14.164731	-17.88639	-1.17087	-0.493425	0.377405	-0.264265
-1.247401	0.291188	10.008117	1.416444	-2.154155	4.013572	0.426308	0.244337	-0.681242	1.634745	-1.93471	11.131567	27.628307	-342.936822	-63.87505	-0.216141	0.036023	0.096063	8.612261	5.842093	1.632216	17.002834	-21.702389	0.217441	-0.527736	0.356759	-0.206645
-0.967541	0.522242	9.667502	0.276076	-0.888693	3.756499	0.474794	0.266912	-0.679352	-0.079783	-2.500593	9.978979	6.969285	-335.249751	-64.485738	-0.252164	0.018012	0.102066	8.743713	6.077657	2.548995	19.315071	-24.336442	-0.014903	-0.513447	0.391964	-0.255559
-0.909931	0.290016	9.668086	-2.69931	-0.069454	3.677517	0.410999	0.262452	-0.701504	-6.591687	-2.75602	3.012676	4.00915	-327.341433	-76.859127	-0.24616	0.006004	0.120078	8.976787	5.672978	2.780029	23.003656	-24.124853	-2.936154	-0.51302	0.378209	-0.233846
-0.845573	0.174713	10.015838	-3.703481	0.795191	3.186827	0.488432	0.270561	-0.714674	-13.51082	-4.956573	-4.901784	-11.960456	-247.279919	-92.944162	-0.252164	0.03002	0.13809	8.880136	5.50346	3.63337	27.913725	-20.067306	-3.799065	-0.547284	0.389827	-0.236744
-1.248044	-0.231336	9.949045	-3.024163	1.247913	2.516962	0.412026	0.261326	-0.683344	-9.54534	-2.57396	2.188864	-60.523221	-124.851394	-85.69927	-0.252164	0.012008	0.126082	8.660144	4.984424	3.969052	32.018	-13.399649	-5.705576	-0.530388	0.374763	-0.215893
-1.023731	0.464395	9.724034	-3.54854	1.66909	1.996654	0.426308	0.244337	-0.681242	-11.352167	-0.626383	5.630563	-63.475209	-23.860127	-72.521646	-0.270176	0.018012	0.132086	8.265488	4.696527	4.13113	31.872736	-4.093962	-7.237341	-0.529962	0.361008	-0.194179
-1.017292	-0.289461	10.011292	-4.056697	1.627794	1.487527	0.409589	0.244066	-0.7004	-11.35005	0.112904	8.932167	-41.336021	44.765901	-60.202102	-0.24616	0.006004	0.144094	8.256933	4.462839	3.673342	29.022243	5.251084	-5.450726	-0.545958	0.380824	-0.23212
-1.13441	-0.231587	9.893516	-4.502702	1.553278	1.036677	0.440591	0.227347	-0.679139	-9.673853	0.052326	7.902864	-3.502	88.287681	-45.056937	-0.27618	0.012008	0.132086	8.648665	4.518362	3.338935	25.342462	14.485573	-1.066284	-0.573163	0.333675	-0.190185
-1.255236	0.116082	9.602994	-4.965118	1.784516	0.782133	0.41408	0.259073	-0.647024	-8.388052	-1.038526	6.985783	21.286786	113.836364	-32.416471	-0.264172	0.012008	0.132086	8.637277	5.152856	2.827997	22.865294	21.971469	0.306615	-0.495224	0.367898	-0.230085
-0.910517	-0.290551	9.608874	-4.652312	2.02494	0.601216	0.414462	0.278585	-0.666289	-7.109688	-2.185959	5.655802	27.152158	125.416192	-24.467758	-0.252164	0.012008	0.126082	8.859988	4.861605	2.545727	21.2528	27.473266	-2.245881	-0.561146	0.340865	-0.166116
-1.080729	0.058152	9.721913	-4.530119	2.304805	0.151416	0.416899	0.295845	-0.649233	-5.61462	-3.104093	3.857761	16.675289	129.691466	-21.67975	-0.252164	0	0.126082	8.441443	5.263207	1.569117	20.783327	30.720706	-4.709388	-0.545104	0.353313	-0.188693
-1.188425	-0.173069	10.065957	-3.920601	2.777549	0.431377	0.42951	0.30062	-0.702715	-4.382696	-3.622256	3.174579	-3.158549	133.707203	-24.657626	-0.240156	0.006004	0.13809	8.611829	4.915225	1.513826	21.243913	30.947246	-5.140365	-0.516146	0.377705	-0.20429
-1.015062	-0.231139	10.127061	-1.782192	3.030742	0.268707	0.447901	0.279126	-0.627973	-3.408952	-4.313678	3.784272	-27.769395	141.135843	-31.261491	-0.228148	0.012008	0.132086	8.374488	4.623832	0.994178	21.433309	29.107463	-2.802765	-0.509467	0.364957	-0.241688
-0.90943	-0.232368	9.666829	-0.802439	3.525347	0.479647	0.412791	0.30035	-0.721874	-3.074736	-3.397819	3.671167	-53.356652	151.829474	-38.82635	-0.24616	-0.006004	0.10807	8.138615	4.159013	0.530832	21.626221	25.901566	0.75933	-0.507668	0.374463	-0.275868
-1.256268	-0.000143	9.5449	1.230018	4.178978	0.519299	0.460129	0.264389	-0.66219	-3.002534	-2.826689	4.615241	-73.48631	165.160152	-44.194904	-0.222145	0	0.10807	8.186878	4.562334	0.134154	21.72705	22.578679	3.864824	-0.561573	0.354621	-0.18783
-1.42386	0.000583	9.77273	1.370204	4.41663	0.89244	0.445464	0.261866	-0.645028	-3.144287	-2.313287	6.204072	-85.71985	178.880559	-46.239418	-0.222145	0.006004	0.096063	7.454954	4.334067	0.518106	19.950449	19.651132	3.525574	-0.525936	0.366265	-0.240825
-1.072506	-0.173041	10.126058	1.742163	4.468815	0.855182	0.442	0.245733	-0.680244	-2.94475	-1.80111	7.917423	-90.685458	192.299801	-44.919393	-0.210137	0.018012	0.096063	7.626911	4.333989	0.578577	17.126337	17.33238	0.5057	-0.512639	0.332189	-0.151615
-0.790415	0.116336	9.901212	1.552825	4.63295	0.469153	0.397361	0.258803	-0.666182	-2.540974	-0.88664	8.513407	-89.844848	203.954191	-39.039079	-0.204133	0.018012	0.102066	7.619823	3.926874	0.177092	14.117299	15.197477	-2.672396	-0.540179	0.363324	-0.252428
-0.974986	-0.059163	9.261401	-0.151645	4.524263	0.474645	0.427718	0.262722	-0.682346	-2.128292	-0.774872	9.464813	-86.510837	214.546896	-29.23736	-0.180117	0.012008	0.084055	7.060743	4.393811	0.738854	11.754271	13.135262	-4.013612	-0.493471	0.34514	-0.203747
-1.255347	0.232167	9.603274	-1.555834	4.538101	-0.072034	0.456665	0.248256	-0.697406	-1.271912	-0.377295	10.011404	-83.700919	223.079395	-16.551467	-0.180117	0.006004	0.078051	7.292452	4.68389	0.973042	10.068542	10.901832	-3.573265	-0.493898	0.358896	-0.225461
-1.140515	0.174013	9.60542	-2.269108	4.684009	-0.354678	0.445846	0.281378	-0.664293	-0.075222	-0.381788	10.565225	-84.25293	230.444129	-0.883833	-0.180117	0.03002	0.072047	7.468026	3.98958	1.144542	8.751579	8.736935	-3.316039	-0.506388	0.333197	-0.210727
-1.021111	0.116418	9.838825	-2.480235	4.906208	-0.432211	0.426691	0.263849	-0.700506	0.235522	0.015666	12.162952	-85.204918	236.358274	18.37989	-0.162106	0.036023	0.060039	7.241254	4.627421	1.257113	8.816896	7.086699	-3.552684	-0.523756	0.329751	-0.192774
-1.360367	-0.405073	10.061969	-2.595703	4.935958	-0.122652	0.428745	0.261596	-0.664186	0.488894	0.699753	13.759085	-79.575326	236.181786	41.05707	-0.162106	0.024016	0.066043	6.670922	4.512503	1.188233	8.235619	5.799462	-4.015323	-0.558493	0.322861	-0.156868
-1.367281	-0.347869	9.71522	-1.789265	4.975507	-0.079079	0.37885	0.220635	-0.664971	0.722749	0.641068	14.176535	-68.765437	231.592207	64.802298	-0.156102	0.03002	0.066043	7.017769	4.165494	1.421782	7.747694	4.105839	-3.856327	-0.528208	0.33825	-0.167842
-1.139038	-0.174103	9.662396	-0.461183	5.222873	-0.497759	0.444437	0.262993	-0.663188	0.903792	0.066719	14.711811	-57.605569	226.004119	90.07092	-0.144094	0.036023	0.036023	7.465091	4.336433	1.031935	7.04367	2.80483	-3.4935	-0.544631	0.371822	-0.227496
-1.135776	0.000444	9.83626	0.356407	5.381173	-0.143981	0.446491	0.26074	-0.626868	1.35239	-0.564354	14.42662	-47.07892	220.450699	113.444626	-0.150098	0.048031	0.048031	7.251959	4.340305	1.769628	6.770382	1.413085	-2.850986	-0.559774	0.364127	-0.222009
-1.134466	-0.173544	9.893655	0.729199	5.652424	-0.447294	0.413435	0.279712	-0.684449	2.030325	-1.196413	14.322776	-42.486717	214.95081	132.957977	-0.150098	0.03002	0.036023	7.757133	4.047959	1.378805	5.789507	0.223547	-1.972286	-0.491672	0.354647	-0.237927
-0.39943	0.57903	9.389998	0.005846	6.445304	-0.733686	0.427718	0.262722	-0.682346	2.704021	-2.229011	13.924642	-48.165795	212.395863	147.41286	-0.13809	0.054035	0.024016	7.529235	4.685538	1.434284	4.869396	-0.658278	-1.130984	-0.542878	0.349064	-0.201159
-1.192411	0.406939	9.89391	0.57675	6.923535	-0.788733	0.461156	0.263263	-0.64403	3.614555	-2.862361	14.179146	-59.621741	211.896364	157.671291	-0.144094	0.042027	0.018012	8.055479	3.992649	2.06928	4.870621	-1.071694	-0.112084	-0.591431	0.325476	-0.155143
-0.910517	-0.290551	9.608874	-0.128976	7.253091	-1.002895	0.443027	0.244607	-0.662084	3.734689	-2.691535	14.594016	-71.65246	211.456133	164.374358	-0.144094	0.072047	0.006004	8.452841	4.049486	2.020334	6.010096	-1.720837	1.224246	-0.545958	0.380824	-0.23212
-1.197903	0.174069	9.604277	-0.461913	7.508862	-1.045595	0.444054	0.243481	-0.643923	4.758901	-2.809797	14.967779	-82.183767	210.936966	169.042964	-0.13809	0.048031	0.006004	7.881372	4.513532	1.954082	7.454714	-1.465526	1.746032	-0.560673	0.359374	-0.20492
-1.309948	-0.289882	9.716503	-0.014868	7.959166	-1.068286	0.415227	0.317609	-0.704818	4.945228	-2.23911	15.973027	-88.970022	210.257962	171.991736	-0.150098	0.066043	0.006004	7.664202	3.70554	2.402634	8.929002	-0.884296	0.975859	-0.540652	0.344815	-0.213625
-1.192132	0.116725	9.893211	1.058127	8.576462	-1.00732	0.441618	0.226221	-0.660979	6.193686	-2.472435	16.23334	-89.78177	208.926075	173.694469	-0.13809	0.078051	0	8.061007	3.472632	2.295282	11.724066	0.239272	-0.136228	-0.538945	0.289792	-0.12677
-0.912914	-0.174745	9.493524	1.996256	8.921533	-1.046006	0.460129	0.264389	-0.66219	7.105498	-2.074927	16.722017	-85.189606	204.42316	173.424524	-0.126082	0.084055	-0.024016	8.465788	4.342122	2.706754	15.226254	1.402648	-1.276027	-0.490345	0.345644	-0.233303
-1.192719	-0.463842	9.833999	1.855153	9.325334	-1.026067	0.47864	0.302557	-0.663401	8.23966	-2.250518	16.921055	-73.841064	195.401581	170.306055	-0.120078	0.090059	-0.03002	8.234078	4.052044	2.472566	18.08313	2.460219	-2.01924	-0.507287	0.328443	-0.193637
-1.4182	0.059324	10.061944	1.79858	10.108009	-1.87879	0.409589	0.244066	-0.7004	9.590695	-2.2541	16.652134	-61.031724	182.747264	163.600497	-0.114074	0.090059	-0.042027	7.658104	4.515038	2.177946	19.77241	3.274791	-1.814953	-0.493898	0.358896	-0.225461
-1.363265	0.233117	9.947877	2.219382	10.417306	-2.823418	0.443027	0.244607	-0.662084	10.808855	-1.797277	15.377224	-48.998911	169.289247	153.353559	-0.084055	0.114074	-0.078051	7.540395	4.166836	1.945748	19.832234	4.195802	0.182623	-0.493471	0.34514	-0.203747
-1.19414	-0.173768	9.776883	2.429093	11.338745	-3.065588	0.430154	0.279982	-0.665291	13.216865	-3.062603	14.010179	-35.833749	158.486994	136.75368	-0.102066	0.090059	-0.060039	7.771445	3.645839	2.062071	18.692945	5.127248	2.540511	-0.540225	0.331059	-0.191911
-1.308917	-0.173657	9.774597	3.189413	11.93511	-3.120286	0.442	0.245733	-0.680244	15.633972	-4.099673	13.173729	-18.075598	149.183772	109.430507	-0.084055	0.114074	-0.072047	7.821858	3.528355	1.720119	17.061198	6.240604	4.616252	-0.526409	0.347756	-0.202022
-1.41505	0.349957	10.236087	3.458972	12.667883	-3.188274	0.410999	0.262452	-0.701504	15.569274	-17.792933	13.608819	88.189534	104.319745	70.461596	-0.078051	0.096063	-0.060039	7.355732	3.179258	1.13861	15.276416	6.966754	5.813191	-0.544677	0.339558	-0.166979
-1.303146	-0.231001	10.063531	6.157168	13.451014	-2.639626	0.427335	0.24321	-0.663082	19.954902	-5.708526	8.246316	25.557639	101.942615	20.874017	-0.060039	0.126082	-0.066043	7.358985	3.81717	1.36987	12.662285	7.345528	7.013722	-0.540225	0.331059	-0.191911
-1.764259	-0.521048	9.938059	6.347965	14.02101	-1.887335	0.409207	0.224554	-0.681135	21.192437	-5.201346	11.10023	27.587605	79.841036	-31.518915	-0.060039	0.102066	-0.090059	7.352683	3.584007	1.026266	10.573807	6.663281	9.954373	-0.563372	0.345115	-0.15365
-1.932772	-0.752633	10.107515	10.321366	14.389133	-0.469265	0.461538	0.282775	-0.663295	17.186396	-11.151751	13.510556	22.729804	53.485492	-71.621187	-0.042027	0.114074	-0.096063	7.922798	3.235491	1.035951	8.826396	4.869115	13.778941	-0.522003	0.306993	-0.166436
-1.578879	0.002846	10.636523	8.333811	15.756548	2.567841	0.475821	0.265786	-0.661192	19.518749	-0.496496	9.93939	11.935005	22.639488	-100.983836	-0.048031	0.114074	-0.072047	8.083481	3.812011	0.585221	7.572117	2.615797	17.983742	-0.523756	0.329751	-0.192774
-1.395228	-0.053966	11.21796	12.614465	19.649362	6.934913	0.410999	0.262452	-0.701504	12.475513	-3.40854	16.650583	73.067888	-18.01715	-107.33395	-0.024016	0.120078	-0.072047	8.150913	3.061347	1.039667	6.196036	-0.211013	21.497722	-0.51084	0.341695	-0.185795
-1.365034	0.646319	12.780635	14.259805	29.501726	10.723216	0.425281	0.245463	-0.699402	14.310037	12.001186	14.418215	93.592934	-68.433673	-85.673533	-0.042027	0.10807	-0.090059	7.973997	3.29196	0.751879	4.171331	-2.244944	20.585948	-0.57359	0.34743	-0.211899
-1.361872	-0.507213	15.783066	22.250836	53.490061	11.029526	0.425281	0.245463	-0.699402	18.998743	13.538841	11.556744	128.324025	-134.595714	-26.217006	-0.018012	0.120078	-0.090059	8.156089	3.294247	1.32618	3.52913	-4.018744	17.748861	-0.560247	0.345619	-0.183206
-1.354357	0.241278	13.29999	22.058098	69.303249	12.630925	0.4281	0.282234	-0.701611	1.419158	8.129257	-11.242916	71.840462	-211.670626	55.896312	-0.03002	0.10807	-0.072047	7.994485	3.760125	1.838733	4.1778	-5.431486	16.439461	-0.5602	0.377883	-0.243723
-1.206711	0.535432	14.979603	21.651413	85.233179	12.866952	0.493567	0.26493	-0.623874	-1.22701	3.508203	16.139432	-122.556719	-219.664254	-11.672887	-0.054035	0.114074	-0.084055	7.886196	5.499348	2.301104	1.231225	-7.232854	19.737745	-0.513066	0.345944	-0.173329
-1.018043	0.014838	15.791181	17.46874	107.354474	13.691453	0.505795	0.250193	-0.658091	3.997765	3.48508	20.663329	0.530109	-219.98726	7.935975	-0.060039	0.120078	-0.084055	8.168853	7.120141	2.371188	-3.898038	-8.370203	30.164974	-0.542924	0.3168	-0.140641
-1.652979	0.022073	18.49476	17.233422	133.585931	14.927043	0.523924	0.268849	-0.640038	4.174282	2.645209	8.636424	36.445932	-233.035306	-46.938986	-0.084055	0.114074	-0.096063	8.972123	8.04673	2.790806	-11.311067	-6.38562	34.788583	-0.577615	0.342173	-0.165253
-2.360248	-1.075403	20.385133	18.058633	165.886387	18.709242	0.521105	0.232078	-0.637829	4.841948	-0.406832	16.793608	-40.170225	-212.75	-85.896479	-0.078051	0.114074	-0.084055	11.405599	7.69078	2.038367	-11.021308	0.481858	28.57585	-0.578988	0.318911	-0.10936
-1.083071	-0.84264	21.16243	22.207134	203.009071	21.69356	0.488311	0.210899	-0.63872	2.34469	-5.6678	15.33913	-9.438095	-157.159504	-41.885768	-0.084055	0.102066	-0.084055	13.506323	6.816285	1.676451	-2.872025	12.345189	24.674757	-0.580268	0.360178	-0.174501
-1.36371	-0.261097	21.505001	25.36945	239.598559	22.937311	0.570235	0.234015	-0.598515	1.555391	-4.858618	12.491575	65.701687	-121.84281	5.279986	-0.102066	0.102066	-0.090059	12.915389	6.291098	0.520979	-4.189048	23.429454	26.092629	-0.54733	0.357562	-0.176227
-1.270529	-1.824113	23.236814	33.536949	271.834549	22.018981	0.569208	0.235141	-0.616675	0.404583	0.19214	9.098986	87.222839	-98.786738	24.083862	-0.120078	0.126082	-0.078051	10.396392	5.134495	-0.333123	-10.911161	30.78378	16.221903	-0.562899	0.363623	-0.192453
-1.47148	-3.039433	24.616862	50.855893	300.864343	23.929912	0.57088	0.213376	-0.56109	7.874344	1.06988	19.090567	59.463879	-83.146625	6.566948	-0.102066	0.090059	-0.072047	8.469456	4.503343	0.025338	-14.388451	30.859995	4.029121	-0.579368	0.364931	-0.191591
-0.321683	-3.969089	24.6953	71.33705	335.135757	33.285376	0.605728	0.232303	-0.523878	6.62381	-2.341859	5.86106	85.368345	-36.603913	44.450073	-0.126082	0.078051	-0.072047	7.691749	3.756488	0.919627	-13.369178	29.039044	5.78956	-0.562	0.368377	-0.209543
-1.377248	-1.881066	23.639092	83.135861	362.175822	38.577277	0.693214	0.168265	-0.531632	0.669993	-0.614087	11.110759	46.452026	-17.790868	9.006404	-0.126082	0.102066	-0.066043	6.432797	4.047158	0.610703	-18.007826	27.668007	7.600886	-0.598917	0.398	-0.221689
0.003862	-1.069245	23.899739	101.519997	367.76217	42.832133	0.699497	0.22117	-0.498626	1.041361	-1.586713	9.645087	53.090675	-18.872306	12.342113	-0.13809	0.078051	-0.060039	6.31924	4.452924	0.667383	-18.987861	26.439695	11.11066	-0.585147	0.382432	-0.171282
-0.704652	2.709284	25.975295	136.833273	356.028387	36.560134	0.718653	0.2387	-0.462412	1.58689	-1.185645	8.65224	53.06108	-18.98715	6.371903	-0.144094	0.096063	-0.054035	6.140185	4.625114	0.265148	-16.588645	25.703697	9.030352	-0.578042	0.355929	-0.186967
-0.532344	-1.491643	17.068617	158.5584	354.164619	33.614199	0.766253	0.162589	-0.346039	1.145729	-0.497991	9.350331	49.899069	-15.237128	3.884294	-0.144094	0.066043	-0.066043	5.966864	5.319949	0.207831	-12.619996	23.887685	2.579362	-0.552636	0.393572	-0.194722
2.337858	-2.081895	14.234773	136.178797	355.384467	30.681087	0.81192	0.148392	-0.341941	1.133392	0.36231	8.817807	35.88399	-11.910815	0.465909	-0.144094	0.072047	-0.066043	6.821002	5.89747	0.284446	-7.697973	22.795332	3.91571	-0.608754	0.354295	-0.197707
5.112519	-3.656525	12.321304	115.217974	361.253314	36.799091	0.812947	0.147266	-0.323781	1.092703	-0.211764	9.584737	14.821323	-6.27583	-0.415901	-0.132086	0.084055	-0.066043	7.631825	6.420362	1.044777	-2.124958	20.682916	16.748062	-0.549937	0.407832	-0.245991
6.117543	-4.29949	10.894971	110.268776	366.0459	40.842211	0.834157	0.162543	-0.251247	0.932392	-1.128541	9.937103	16.593438	-8.703247	0.538345	-0.132086	0.090059	-0.054035	9.727145	5.42876	0.396874	0.495931	18.92075	30.350876	-0.530815	0.388519	-0.237607
15.635849	-6.550959	-3.94673	130.019916	347.633239	55.847184	0.87932	0.069173	-0.15193	1.259513	-0.383848	9.411301	19.523001	-10.020042	0.161984	-0.144094	0.066043	-0.066043	12.271232	5.593124	-0.465131	-7.981798	16.395763	38.590078	-0.531715	0.383766	-0.220517
13.586938	-4.311226	-14.615773	82.916945	208.108151	51.879578	0.880085	0.108197	-0.190459	1.26403	-0.441547	9.647403	16.824201	-9.056755	0.569091	-0.13809	0.078051	-0.048031	11.982352	5.418952	-0.699919	-23.774369	11.307943	29.632416	-0.548611	0.398829	-0.241368
12.656506	-3.013526	-6.482533	-13.394058	48.447998	42.354555	0.91596	0.125997	-0.135087	1.371871	-0.155019	9.413068	14.494173	-8.662894	0.864465	-0.126082	0.060039	-0.066043	11.010141	5.825372	-0.888502	-39.781299	5.259816	10.847806	-0.579322	0.397196	-0.252108
11.991537	-1.015065	3.507029	-73.560443	-59.111045	26.255251	0.927806	0.091748	-0.15004	1.199223	-0.211496	9.23291	10.74004	-8.8055	1.269904	-0.132086	0.060039	-0.060039	10.437773	6.173362	-1.012372	-47.269489	-1.11653	0.648518	-0.546811	0.408336	-0.275547
9.022799	0.280949	10.097081	-62.326101	-114.35333	6.818225	0.911087	0.091478	-0.169198	0.966284	-0.09562	8.874359	7.440156	-8.694044	1.798743	-0.144094	0.066043	-0.078051	10.841222	5.999928	-0.776908	-47.187663	-9.758256	0.757601	-0.547284	0.389827	-0.236744
6.529501	0.51948	11.666162	-8.222688	-127.155403	-11.495886	0.922288	0.077868	-0.221576	1.481203	0.360475	9.296328	2.843349	-7.038807	1.237601	-0.156102	0.072047	-0.066043	11.078005	6.001576	-0.315665	-46.271753	-20.137958	0.942043	-0.598917	0.398	-0.221689
4.982289	-0.414603	8.801285	37.350673	-123.053047	-24.541656	0.926134	0.113513	-0.205625	1.491877	-0.6715	9.711156	0.760192	-6.150456	0.814035	-0.144094	0.066043	-0.060039	10.965359	5.94417	-0.261089	-46.314063	-28.74713	-3.385159	-0.598917	0.398	-0.221689
4.053021	-1.757274	5.254225	55.515653	-120.278058	-33.414898	0.937335	0.099903	-0.258003	1.147838	-0.841847	9.40994	0.454502	-5.999053	-0.03045	-0.132086	0.066043	-0.060039	10.812777	5.832925	0.648481	-44.1186	-34.585771	-6.694147	-0.614486	0.404061	-0.237916
3.58651	-3.332142	1.889195	49.577704	-125.338431	-36.87328	0.914978	0.026089	-0.272742	1.142234	-0.784047	9.114838	-0.052865	-5.660159	-0.731968	-0.144094	0.066043	-0.078051	10.311788	5.141557	1.14902	-40.024881	-36.910802	-7.688731	-0.569059	0.427144	-0.254376
2.773122	-3.680877	1.352022	25.266261	-135.981243	-35.205026	0.917917	0.122523	-0.350906	0.973549	0.018254	9.287157	0.160306	-5.361807	-1.245954	-0.150098	0.054035	-0.072047	10.263173	5.491152	1.606208	-37.755447	-34.775847	-9.224743	-0.565979	0.395384	-0.223415
2.604665	-3.970504	1.521339	-6.299049	-148.126664	-31.012131	0.919972	0.120271	-0.314585	1.147327	-0.669969	9.409636	-0.696396	-4.96303	-2.209082	-0.126082	0.054035	-0.054035	10.054671	4.858953	2.512286	-36.290525	-30.439407	-11.091414	-0.564653	0.386381	-0.218791
3.085574	-2.865344	2.689433	-31.582333	-162.398894	-25.252942	0.946865	0.108057	-0.365965	1.092533	-0.154472	9.584636	-0.412386	-4.948414	-2.125755	-0.132086	0.066043	-0.054035	9.877311	4.741924	2.165829	-34.829641	-24.305731	-12.235135	-0.582402	0.428956	-0.283069
2.834011	-2.802691	4.476116	-47.533099	-178.029463	-19.312891	0.929119	0.108913	-0.403283	1.650974	-0.441927	9.183009	-1.007751	-4.736237	-3.29579	-0.150098	0.078051	-0.060039	10.165634	4.626351	2.342211	-34.722752	-17.497045	-12.51479	-0.585147	0.382432	-0.171282
2.356411	-1.636445	6.49214	-56.612312	-192.362172	-13.574424	0.877934	0.109228	-0.478917	0.808039	-0.611654	9.403014	-0.840269	-4.716629	-3.795101	-0.13809	0.072047	-0.066043	9.767474	4.974789	2.392997	-35.659792	-11.411812	-14.496138	-0.60067	0.420758	-0.248026
2.078447	-1.460921	6.949363	-59.623457	-206.142288	-8.263	0.862242	0.107832	-0.479915	1.259748	-0.097487	9.469794	-1.760914	-4.547052	-4.492482	-0.162106	0.054035	-0.060039	9.647297	4.162627	1.987419	-35.700795	-7.462209	-18.441911	-0.570385	0.436147	-0.259
1.865762	-1.168389	7.812711	-60.186668	-220.538036	-3.187778	0.878317	0.12874	-0.498182	0.92943	-0.498222	9.876986	-1.705012	-4.808775	-4.294965	-0.150098	0.072047	-0.066043	9.640983	4.508691	1.703535	-34.664081	-4.399506	-23.676657	-0.601097	0.434513	-0.26974
1.429294	-0.932978	8.960422	-60.949443	-234.324176	0.450473	0.806184	0.073628	-0.589661	1.03269	-0.49765	9.348158	-2.555426	-4.955549	-4.36618	-0.144094	0.060039	-0.054035	9.182513	4.277227	1.522197	-32.824357	-2.812773	-27.894136	-0.553063	0.407328	-0.216435
1.164713	-0.407521	10.11226	-62.915589	-244.652107	3.373254	0.776975	0.128245	-0.631291	1.202759	-0.670038	9.351722	-1.802389	-5.167188	-3.912646	-0.150098	0.066043	-0.072047	9.004357	4.565473	1.17758	-30.000666	-1.038343	-29.480117	-0.570385	0.436147	-0.259
0.53927	-0.522296	10.388482	-67.264489	-250.752803	5.640199	0.788558	0.134147	-0.702933	1.144812	-0.555181	9.291432	-1.689482	-5.647859	-4.318445	-0.144094	0.072047	-0.054035	8.780315	3.8138	1.283842	-27.328872	0.264737	-28.33361	-0.583774	0.405694	-0.227176
0.319949	-0.462773	10.904382	-74.415	-254.656548	8.002953	0.75653	0.151992	-0.742354	1.205508	-0.498466	9.528418	-1.665552	-5.772795	-4.327328	-0.132086	0.084055	-0.054035	8.832423	3.407098	0.997667	-25.484434	0.451887	-27.012735	-0.650977	0.419928	-0.228348
-0.169613	0.063466	12.282908	-81.893412	-258.383632	9.311178	0.706635	0.111031	-0.743138	1.375472	-0.269909	9.590272	-1.920958	-5.852195	-4.384947	-0.144094	0.078051	-0.060039	8.772204	3.927753	0.884723	-24.838367	0.246192	-27.065667	-0.617185	0.389801	-0.186646
-0.739034	0.180667	12.503016	-86.867962	-260.830259	8.83998	0.689009	0.171549	-0.856411	0.978514	-0.554975	9.465173	-2.034173	-5.63922	-3.625446	-0.13809	0.048031	-0.048031	7.990549	3.469592	1.60905	-24.867088	-0.666013	-27.564665	-0.65145	0.401419	-0.189544
-0.368415	0.183547	13.839614	-88.749487	-260.696887	4.886839	0.656598	0.169883	-0.876567	1.263519	-0.269669	9.647099	-0.873645	-6.131381	-3.482867	-0.13809	0.072047	-0.048031	7.770421	4.166907	2.064437	-24.557445	-1.557904	-27.083491	-0.589553	0.423195	-0.206867
-0.128155	0.939276	14.42415	-89.685518	-258.324531	-2.694377	0.548546	0.198004	-0.903922	1.539767	-0.327205	9.298633	1.133365	-6.828762	-3.662366	-0.150098	0.060039	-0.072047	7.941376	3.529442	2.007832	-22.711449	-2.042361	-25.930566	-0.618039	0.417312	-0.230074
-0.223611	1.057849	15.404995	-89.648729	-254.401561	-13.107222	0.485133	0.213057	-0.945339	1.31746	-0.498705	9.471591	2.520877	-7.04289	-3.664729	-0.132086	0.066043	-0.054035	7.307673	3.818598	1.654205	-19.51283	-2.534007	-25.229027	-0.586427	0.423699	-0.236423
-0.998526	1.120164	16.834502	-88.019874	-249.33932	-24.427376	0.452077	0.232028	-1.00292	1.371402	-0.72774	9.296083	2.99173	-6.779918	-3.139592	-0.144094	0.054035	-0.060039	7.881168	3.470871	1.835166	-16.839638	-1.942983	-25.656593	-0.606449	0.438258	-0.227718
-1.627009	0.598671	16.936301	-85.022236	-243.024372	-33.161476	0.388282	0.227568	-1.025072	0.972164	-0.611658	9.111273	2.355738	-6.607579	-2.950895	-0.13809	0.066043	-0.054035	7.195027	3.761192	1.708781	-14.904942	-1.109953	-26.491391	-0.566833	0.422895	-0.266842
-3.492244	0.604001	18.343952	-80.975714	-233.004799	-37.8876	0.310587	0.259609	-1.068591	1.201673	-0.669937	9.292722	5.05854	-7.062572	-2.398422	-0.156102	0.072047	-0.060039	7.46533	3.641413	0.971689	-12.723853	-0.377177	-26.557835	-0.569958	0.422391	-0.237286
-5.561759	0.72167	18.12964	-81.168519	-218.307174	-38.715237	0.292841	0.260466	-1.105909	1.37398	-0.498875	9.472678	5.122414	-6.900297	-2.575764	-0.126082	0.072047	-0.042027	6.953295	3.410852	0.960501	-11.21886	0.388174	-25.252204	-0.606922	0.41975	-0.188915
-8.406998	0.553259	19.286182	-84.120618	-201.392593	-36.361286	0.217845	0.269616	-1.075684	1.76527	-0.499662	9.244284	5.571671	-6.907157	-2.221678	-0.132086	0.066043	-0.042027	6.724498	3.932374	0.958362	-10.419305	0.628117	-22.164097	-0.571758	0.412885	-0.203106
-11.150535	0.905583	19.810305	-85.543091	-186.485029	-31.926184	0.141177	0.300531	-1.101043	1.143726	-0.55508	9.232432	6.073873	-7.663275	-1.855767	-0.13809	0.054035	-0.078051	6.77548	3.525408	0.615095	-8.942927	0.771754	-18.213712	-0.605122	0.429256	-0.223094
-13.233488	0.731362	18.901517	-85.635635	-181.970939	-26.299613	0.107618	0.240328	-1.063405	1.318206	-0.384222	9.530388	5.530067	-8.052523	-1.706444	-0.144094	0.066043	-0.042027	7.181296	3.294604	0.96448	-9.52485	0.433713	-12.428091	-0.584674	0.400941	-0.210086
-15.15724	0.961736	17.361174	-89.789378	-190.900601	-22.381484	0.121901	0.223339	-1.061302	1.036695	-0.383471	9.583955	7.320403	-9.06563	-2.207358	-0.150098	0.066043	-0.066043	7.061334	2.945876	0.618098	-11.981166	-0.380855	-7.06983	-0.583774	0.405694	-0.227176
-13.915333	0.305302	10.507111	95.999196	-130.568031	-9.590167	0.083282	0.329464	-1.070924	1.546798	-0.499691	9.652938	7.736598	-9.716771	-2.573298	-0.126082	0.054035	-0.060039	7.009783	3.642323	0.962679	-16.098094	-1.162124	-3.281233	-0.58998	0.436951	-0.228581
-25.53298	5.166922	23.752954	-39.651626	-127.710663	-29.563977	0.050106	0.288773	-1.052551	1.041553	-0.555754	9.82026	7.904528	-10.648082	-3.319045	-0.150098	0.066043	-0.066043	6.594514	3.523384	0.097887	-19.539317	-1.764135	-0.686031	-0.555716	0.425332	-0.225683
-27.514422	9.534449	4.999586	8.803277	-108.510608	-47.037635	-0.010225	0.300446	-1.039487	1.663843	-0.385853	9.890909	9.683456	-11.924244	-5.288976	-0.144094	0.066043	-0.060039	7.112976	3.349985	0.392695	-22.364538	-2.846728	1.770676	-0.652776	0.410422	-0.194168
-29.646164	1.582703	4.128744	-0.624689	-71.104131	-44.391147	-0.012017	0.262548	-1.019118	1.493198	-0.38524	9.828649	11.474049	-13.083491	-7.128245	-0.13809	0.060039	-0.066043	7.463976	3.756943	0.915122	-22.578008	-3.584563	1.756054	-0.607348	0.433505	-0.210628
-36.084838	6.826164	9.503425	-22.503284	-10.616893	-38.82043	-0.025655	0.258899	-0.983796	1.724709	-0.38643	10.127996	13.505606	-14.745332	-8.483132	-0.144094	0.072047	-0.054035	7.799322	4.102325	0.637996	-20.394544	-4.054277	0.127104	-0.574411	0.43089	-0.212354
-37.927759	5.259813	9.058373	-8.990422	44.798484	-13.918311	-0.028092	0.24164	-1.000852	1.289194	-0.501174	11.004509	15.205098	-16.999589	-11.872938	-0.150098	0.066043	-0.048031	8.018881	3.694492	0.183924	-15.998125	-4.22629	-1.129841	-0.603323	0.438762	-0.257274
-38.123224	15.016517	11.274238	41.834438	110.333518	-6.629107	-0.074403	0.276474	-1.042375	1.563098	-0.501214	10.537941	21.573156	-22.659242	-17.50556	-0.156102	0.054035	-0.060039	8.088759	4.566241	0.931191	-8.221265	-3.689999	-1.865096	-0.585101	0.414697	-0.231799
-2.032423	1.361801	-3.528171	108.467965	163.710028	-12.407283	-0.030791	0.264531	-1.074596	1.514292	-0.902699	10.891566	23.748277	-28.033592	-21.082205	-0.13809	0.054035	-0.060039	8.549254	4.914024	1.227239	1.124658	-3.392744	-1.699405	-0.635834	0.427623	-0.233835
-0.196902	1.815757	16.794366	65.466808	149.01049	16.217209	-0.010608	0.280934	-1.020223	1.114607	-0.271087	10.764842	21.781741	-32.349586	-23.14224	-0.162106	0.054035	-0.048031	8.848703	6.01743	2.094247	11.179851	-3.581893	0.867007	-0.588653	0.427948	-0.223957
-1.094738	0.12156	11.917871	33.182586	110.913934	17.987186	-0.008171	0.298193	-1.003167	1.298697	-0.04385	11.593698	20.473743	-37.998889	-21.72611	-0.13809	0.060039	-0.048031	9.889324	6.656185	2.973794	21.574222	-4.064329	2.830323	-0.619365	0.426315	-0.234697
-3.506308	1.684007	8.984044	12.059669	102.448528	29.816364	0.046139	0.193465	-0.992548	1.016022	2.529343	15.06362	-0.799992	-50.154449	-15.426941	-0.13809	0.054035	-0.054035	11.493645	6.771159	3.519684	32.828755	-3.934	5.518059	-0.637633	0.418116	-0.199655
0.831729	-1.508741	10.62308	7.072254	92.443799	20.905464	0.030185	0.232219	-1.050235	1.623559	-0.730859	10.716434	7.275385	-70.340436	-15.377281	-0.156102	0.048031	-0.066043	12.033051	6.83434	4.900295	46.149289	-4.911394	18.51855	-0.653203	0.424177	-0.215882
-2.00994	-0.631825	12.013396	13.24924	63.459106	-2.710198	0.033649	0.248352	-1.01502	1.767728	0.12504	12.54609	-1.163099	-77.775409	-17.95835	-0.150098	0.054035	-0.042027	11.476052	4.521462	5.278163	50.862511	-6.875777	33.024041	-0.588181	0.446457	-0.262761
-1.701267	-0.40432	10.228555	19.429335	38.13334	-4.936153	0.044468	0.21523	-1.048132	1.834027	0.123956	13.078178	-5.60022	-90.889147	-19.28739	-0.150098	0.054035	-0.054035	10.345753	4.178199	5.653706	46.271538	-4.064637	23.515084	-0.620265	0.421562	-0.217608
-0.228297	0.462638	9.335333	17.639935	36.108795	-1.951444	0.124982	0.21996	-1.006822	1.551877	-0.390722	13.014658	-13.072948	-105.535545	-22.119003	-0.162106	0.066043	-0.048031	9.02343	4.872943	5.060035	38.227902	1.527724	5.38984	-0.604742	0.383236	-0.140863
-1.170568	0.518636	8.103075	5.57186	45.290791	0.973878	0.077906	0.21577	-1.009816	1.272475	-0.733828	13.127834	-18.651229	-119.192331	-26.347111	-0.162106	0.060039	-0.03002	8.969483	4.802429	2.319348	27.484761	6.041087	1.985469	-0.635407	0.413867	-0.212121
-1.014642	0.523556	10.186692	-7.247161	57.305141	10.114882	0.126774	0.257858	-1.027192	1.517942	-0.679044	14.194082	-26.945558	-135.38117	-32.83393	-0.174113	0.054035	-0.03002	9.524047	4.913667	1.588938	17.176437	9.227061	1.672663	-0.621165	0.416808	-0.200518
-2.143672	0.062563	11.087751	-4.072973	61.896373	15.148271	0.111727	0.235823	-0.990765	1.193633	-0.908511	14.954971	-31.490504	-154.271257	-38.301464	-0.186121	0.054035	-0.048031	9.902492	4.850243	0.568901	6.619171	13.394189	-3.037905	-0.621591	0.430564	-0.222231
-4.849004	-1.038751	10.568858	-0.454135	0.987549	-6.20303	0.108263	0.21969	-1.02598	1.592871	-1.024593	15.139781	-29.894532	-173.575603	-39.721819	-0.198129	0.060039	-0.036023	9.376578	5.94867	-0.007163	0.860893	16.985892	-4.192066	-0.604269	0.401745	-0.179667
-0.260149	0.059469	10.605136	18.504245	-2.025214	1.809682	0.10929	0.218564	-1.00782	1.504271	-0.110111	16.610988	-19.556883	-194.23425	-33.787273	-0.204133	0.060039	-0.054035	9.87925	6.930045	-0.392203	1.356629	16.066598	2.438294	-0.604696	0.4155	-0.201381
-1.490504	0.115606	9.309349	18.927781	2.226157	0.812972	0.076879	0.216897	-1.027976	1.098428	-1.425325	15.838714	-10.927428	-218.115033	-29.636029	-0.204133	0.060039	-0.018012	10.142579	6.345254	-1.531044	3.120838	11.900502	10.068108	-0.652776	0.410422	-0.194168
-1.266833	0.288813	9.025266	4.891208	0.187859	3.87437	0.107618	0.240328	-1.063405	2.426374	-2.806496	17.164147	-7.216788	-237.404658	-31.843219	-0.216141	0.048031	-0.018012	9.68941	5.709567	-1.485853	1.257297	6.525269	7.338444	-0.624717	0.43006	-0.192675
-1.127552	-0.230748	10.240404	8.72191	-1.396849	1.915209	0.073033	0.181252	-1.043927	2.720179	-2.922948	17.759785	4.782686	-257.647449	-38.493793	-0.228148	0.048031	-0.018012	8.398292	6.006134	-0.539876	1.146319	0.441753	-1.971723	-0.622537	0.393546	-0.144624
-1.422995	0.290936	9.831244	9.34934	-0.840779	2.839921	0.055931	0.161469	-1.043821	2.437773	-1.891137	17.929525	14.389286	-272.840522	-43.466118	-0.234152	0.066043	-0.018012	7.612463	5.952459	0.015016	5.036459	-6.835455	-5.972255	-0.589126	0.409439	-0.185154
-1.137142	0.232475	9.779004	9.340695	-0.9924	2.681101	0.071361	0.203016	-1.099512	4.193458	-0.17846	18.432166	18.87348	-282.422578	-45.789907	-0.252164	0.054035	-0.012008	7.460324	6.188855	0.983255	8.621706	-14.570709	-4.15257	-0.623391	0.421058	-0.188052
-1.020079	0.232644	9.89692	8.335874	-0.252875	2.338085	0.090517	0.220546	-1.063298	2.54925	-0.626139	14.980543	33.808994	-291.021723	-53.254117	-0.258168	0.048031	0.012008	6.962942	5.382483	1.654544	10.633217	-19.983642	-3.221019	-0.623437	0.388793	-0.127534
-1.079642	0.116334	9.779868	5.226688	0.481611	1.953205	0.081752	0.251416	-0.993865	5.836352	-1.095074	15.457381	15.966682	-290.988976	-48.460016	-0.27618	0.054035	0.024016	7.374605	5.616427	2.348586	12.366011	-24.542259	-2.280198	-0.592252	0.408935	-0.155598
-1.417113	0.117507	10.119898	2.571801	1.083901	1.338182	0.042413	0.217483	-1.084453	2.596543	-1.541872	14.334252	18.994998	-295.159756	-54.867112	-0.282184	0.048031	0.018012	7.147515	5.269504	2.342503	13.543757	-28.377963	-0.961523	-0.620738	0.403053	-0.178804
-0.846994	0.464787	9.958722	-0.466334	1.358541	0.657696	0.070978	0.183504	-1.080247	-0.115507	-3.647895	10.923926	24.793575	-293.089249	-62.706471	-0.300195	0.048031	0.03002	7.502246	4.924334	2.975697	13.639306	-29.81314	-1.233584	-0.5887	0.395684	-0.16344
-1.311704	0.348448	9.660225	-4.063328	1.49277	0.076408	0.063623	0.23276	-1.011919	-12.705214	-4.684134	2.072768	26.880951	-249.934295	-76.959513	-0.288188	0.024016	0.066043	7.669253	4.575563	2.74913	11.819258	-27.720347	-5.420917	-0.622964	0.407302	-0.166338
-1.140626	0.290099	9.6057	-6.849418	1.475684	-0.01086	0.061569	0.235012	-1.048239	-8.906118	-2.973297	0.019608	14.883958	-150.67851	-75.935527	-0.318207	0.048031	0.066043	7.732283	4.345178	3.034666	9.409448	-23.353135	-10.55123	-0.621637	0.3983	-0.161714
