1812_acc_x	1812_acc_y	1812_acc_z	1812_gyro_x	1812_gyro_y	1812_gyro_z	1812_mag_x	1812_mag_y	1812_mag_z	1813_acc_x	1813_acc_y	1813_acc_z	1813_gyro_x	1813_gyro_y	1813_gyro_z	1813_mag_x	1813_mag_y	1813_mag_z	1814_acc_x	1814_acc_y	1814_acc_z	1814_gyro_x	1814_gyro_y	1814_gyro_z	1814_mag_x	1814_mag_y	1814_mag_z
-1.765959	0.059239	9.881642	12.823202	43.688315	5.075171	-1.520953	-2.053244	-0.576083	2.08475	-0.847619	11.197331	-17.465447	-74.632462	-8.571609	-0.594387	0.060039	0.360234	9.423221	5.148635	2.272843	14.187114	-1.382248	-2.379267	-0.684401	0.427719	-0.084329
-0.966595	-0.464483	9.665127	7.049224	37.52877	7.404246	-1.550545	-2.01814	-0.598448	2.074522	-0.331175	10.724416	-17.64313	-79.690044	-9.229542	-0.582379	0.072047	0.348227	9.36233	5.437442	2.101755	12.797939	0.719862	-4.790559	-0.503901	-0.014686	0.856909
-0.510054	-0.174994	9.55934	4.815032	36.777907	8.1294	-1.535236	-2.036255	-0.578185	1.96485	-0.732084	10.840954	-16.462926	-84.236198	-10.058577	-0.594387	0.078051	0.336219	9.139403	5.265259	2.32483	12.546966	2.886228	-4.383366	-0.483834	0.003019	0.787687
-0.683139	-0.407138	9.497537	4.463103	38.923032	7.309061	-1.52198	-2.052118	-0.594243	2.470883	-1.306136	10.615748	-13.552246	-88.790801	-12.681899	-0.600391	0.090059	0.354231	9.455159	5.258531	1.018468	12.23631	4.339153	-3.439997	-0.499922	-0.041693	0.870781
-0.623131	-0.75517	9.613471	6.238379	40.400674	8.427717	-1.519806	-1.994708	-0.633876	2.699475	-1.421606	10.738298	-11.060289	-93.305482	-15.720223	-0.600391	0.090059	0.330215	8.549368	4.856128	1.226976	12.018297	5.422845	-4.383865	-0.504755	0.012825	0.813482
-1.246789	-0.347281	10.00658	8.913155	40.803752	9.817028	-1.534088	-1.977719	-0.635979	2.76537	-1.651758	11.211792	-6.599096	-98.875065	-18.619722	-0.594387	0.096063	0.360234	8.608905	4.68285	1.341498	9.278535	6.639139	-6.047837	-0.472717	0.005457	0.828846
-1.565179	-0.931343	8.380654	6.332351	5.789313	3.520106	-1.537935	-2.013364	-0.65193	2.592275	-1.192704	11.08972	-3.995503	-105.310564	-22.465539	-0.594387	0.090059	0.348227	8.652663	5.08512	0.716451	6.201723	7.496896	-6.543057	-0.514592	-0.030879	0.837464
-1.408722	-0.287814	10.523624	7.24863	-2.22392	2.221853	-1.539727	-2.051262	-0.631561	2.935674	-1.537786	11.273849	-1.338468	-112.596553	-26.151623	-0.594387	0.10807	0.348227	8.524682	5.950902	0.090128	5.49516	7.242534	-6.51037	-0.466984	-0.044309	0.869055
-0.799448	-0.000868	9.438414	12.306887	0.622828	0.323861	-1.536263	-2.035129	-0.596345	2.840086	-1.195416	12.27407	1.645354	-121.820559	-29.912235	-0.594387	0.10807	0.372242	8.353067	5.777291	0.028868	5.436132	6.360479	-4.930363	-0.503002	-0.009933	0.839819
-1.144698	-0.232844	9.373183	7.7786	2.375283	2.642634	-1.53588	-2.015617	-0.61561	3.802963	-1.885823	12.293761	5.743891	-133.25731	-33.886402	-0.588383	0.132086	0.354231	9.050459	6.068825	0.785896	5.716339	5.159774	-2.240081	-0.503002	-0.009933	0.839819
-0.967096	0.057901	9.666384	3.361115	-0.448105	1.500972	-1.509752	-2.066855	-0.62846	2.964097	-1.597718	12.807955	9.57165	-143.867455	-37.983329	-0.582379	0.13809	0.372242	8.540551	6.475912	0.948876	8.395722	3.559957	0.44174	-0.515491	-0.035632	0.854554
-1.134355	-0.289629	9.893376	4.678392	-0.180645	1.908478	-1.521215	-2.013094	-0.632772	3.257902	-1.71417	13.403593	14.787442	-155.31819	-41.999326	-0.594387	0.162106	0.366238	8.542793	7.055665	1.122781	11.661193	1.08978	2.38225	-0.487478	-0.048258	0.916563
-1.079141	-0.40605	9.77861	4.262797	-0.506634	1.782729	-1.519161	-2.015347	-0.596452	3.70731	-1.887106	13.235591	24.288719	-167.424767	-45.285854	-0.594387	0.150098	0.372242	8.489126	6.535237	1.233473	14.497564	-2.018538	3.601209	-0.468737	-0.021551	0.842717
-0.792312	-0.290243	9.784604	3.918191	-0.902538	2.141374	-1.541136	-2.069648	-0.630456	4.338229	-2.061671	13.719849	30.918245	-177.573648	-49.17723	-0.588383	0.162106	0.366238	8.377162	6.130452	1.286473	16.561982	-3.995765	2.281851	-0.503428	0.003823	0.818106
-1.479827	-0.289435	9.828703	2.919948	-1.152884	2.12426	-1.551955	-2.036525	-0.597343	3.485642	-1.543178	13.525636	42.990941	-187.825156	-51.38714	-0.600391	0.168109	0.38425	7.25519	6.136671	2.12033	16.996658	-6.065112	-0.389876	-0.518617	-0.036136	0.88411
-0.789803	-0.522134	9.899675	1.482519	-0.840974	2.385157	-1.490596	-2.049325	-0.592247	4.613583	-1.088145	13.487556	48.159321	-194.027439	-52.900666	-0.582379	0.168109	0.378246	7.195675	5.151494	1.886367	16.01566	-7.492058	-2.10541	-0.516818	-0.02663	0.84993
-1.372131	-0.058214	9.48466	-0.376498	-0.820059	2.216289	-1.523007	-2.050992	-0.612403	4.51793	-1.089429	14.429386	51.651753	-198.078384	-52.607367	-0.588383	0.186121	0.372242	7.246532	5.381652	1.603084	14.04987	-8.346636	-1.912649	-0.533287	-0.025322	0.850793
-1.319482	0.115299	9.254963	-1.608083	-0.695776	2.281229	-1.539727	-2.051262	-0.631561	4.467497	-0.569229	11.773464	51.073385	-205.436679	-52.378302	-0.588383	0.198129	0.372242	6.915794	5.558652	2.168036	12.573205	-7.945201	-1.287608	-0.470064	-0.012548	0.838093
-0.895769	-0.172649	10.360746	-3.164268	-0.195277	2.491576	-1.536907	-2.01449	-0.63377	5.221917	-0.974217	12.791304	37.417015	-210.342599	-50.434175	-0.600391	0.216141	0.390254	6.913314	5.673919	2.054378	12.325798	-7.201408	0.00897	-0.503901	-0.014686	0.856909
-1.139038	-0.174103	9.662396	-4.498152	-0.250929	2.398761	-1.552982	-2.035399	-0.615503	4.931883	-1.029947	12.372971	40.271167	-215.471179	-52.165682	-0.594387	0.222145	0.38425	6.301579	5.678588	2.784187	13.798931	-5.967108	0.661135	-0.535513	-0.021072	0.863259
-1.368591	-0.17388	9.657825	-4.643731	0.061467	2.353933	-1.541136	-2.069648	-0.630456	4.581431	-1.60063	11.659465	38.699155	-219.747066	-55.289421	-0.588383	0.216141	0.38425	6.681263	5.55753	1.820978	15.793824	-4.435105	0.269313	-0.503901	-0.014686	0.856909
-1.134243	-0.405715	9.893097	-4.394998	0.14807	2.290458	-1.538317	-2.032876	-0.632665	4.396361	-2.228711	10.713319	37.261778	-221.337819	-56.390551	-0.588383	0.24616	0.390254	6.225262	5.790026	1.81302	17.326171	-2.327329	-0.077178	-0.521697	-0.004375	0.853148
-0.954078	-0.404903	10.301229	-5.325725	0.174964	2.130331	-1.569701	-2.035669	-0.634661	3.302269	-3.827326	9.338511	30.162515	-223.507649	-61.373739	-0.594387	0.258168	0.378246	6.467221	6.024573	2.560774	18.737112	-0.89451	-0.469841	-0.497696	-0.045942	0.858314
-1.247765	-0.521549	9.948346	-4.643213	0.594389	1.642381	-1.537935	-2.013364	-0.65193	2.47177	-3.42034	7.257581	27.149843	-226.46395	-68.844671	-0.600391	0.264172	0.366238	6.628711	5.616592	2.048484	19.410381	0.462013	-0.467095	-0.502575	-0.023688	0.861533
-0.904969	-0.115724	9.898367	-5.0422	0.572067	1.803746	-1.567909	-1.997772	-0.655031	-2.771968	-5.056464	1.438624	18.852108	-214.183343	-86.063612	-0.612399	0.252164	0.372242	6.631635	5.848966	2.220811	19.991813	1.742494	0.454469	-0.519943	-0.027133	0.879486
-1.127608	-0.172706	10.240544	-5.339379	0.886823	1.884857	-1.539727	-2.051262	-0.631561	-7.756645	-4.634397	-2.255635	0.403182	-153.786309	-102.332548	-0.612399	0.27618	0.390254	6.914224	5.210748	2.052275	20.911995	2.91887	2.481315	-0.537266	0.001686	0.836921
-1.250664	0.116641	9.834253	-4.286974	0.951902	1.831954	-1.567909	-1.997772	-0.655031	-3.897508	-3.387381	-1.121973	-39.870479	-75.558868	-100.33003	-0.624406	0.264172	0.390254	7.653133	5.324799	2.01035	22.354357	4.263989	3.895349	-0.519044	-0.02238	0.862396
-1.138983	-0.232146	9.662257	-3.603884	1.151414	1.671113	-1.567264	-2.01841	-0.617606	-5.715237	-2.532148	4.621575	-80.724708	9.652895	-85.392193	-0.618402	0.282184	0.372242	7.481734	5.614622	2.008285	22.781359	5.79409	4.382096	-0.537739	-0.016823	0.875725
-0.796606	-0.581015	9.552647	-2.754334	1.621911	1.639683	-1.539344	-2.03175	-0.650825	-7.641666	-2.760123	7.356956	-87.424673	67.123177	-72.490291	-0.636414	0.282184	0.360234	8.109567	6.019171	2.136698	22.285364	7.449909	3.882263	-0.52127	-0.018131	0.874862
-1.365804	-0.695985	9.772196	-0.79449	2.189586	1.341376	-1.566882	-1.998898	-0.636871	-6.035831	-2.194306	8.743371	-66.632267	97.400147	-60.201994	-0.642418	0.288188	0.354231	7.707585	6.019179	1.957538	21.636583	8.6779	3.177437	-0.489658	-0.011744	0.868512
-1.071084	-0.463114	10.183174	-0.07397	2.541184	1.247012	-1.551955	-2.036525	-0.597343	-4.67672	-1.625878	9.004436	-43.35775	103.986928	-50.020282	-0.666434	0.270176	0.330215	8.03821	5.900075	1.392848	20.341067	10.355399	2.611632	-0.508353	-0.006187	0.881841
-1.366138	-0.347729	9.773035	0.104168	2.666104	0.758958	-1.594037	-1.946534	-0.64218	-4.174799	-1.913164	8.601722	-29.161884	98.204921	-40.952158	-0.684445	0.282184	0.300195	8.039791	5.668752	1.448889	19.568758	11.90585	2.785615	-0.506981	0.017075	0.825948
-1.138173	0.11625	9.72091	0.201623	2.786241	0.792135	-1.554654	-2.013634	-0.671088	-4.103223	-1.852355	6.361787	-27.541808	96.542411	-30.91585	-0.702457	0.294191	0.282184	7.645465	5.786393	1.6699	18.058959	13.209258	2.472009	-0.487432	-0.015994	0.856046
-1.422216	-0.521662	9.829287	0.017406	2.759088	0.887077	-1.550807	-1.977989	-0.655137	-3.801925	-2.651715	4.186722	-41.910363	109.910578	-18.283923	-0.708461	0.294191	0.252164	7.91835	6.072678	1.105924	16.457708	14.148271	1.860515	-0.489612	0.02052	0.807995
-0.737432	-0.058407	9.670677	-0.290029	2.766354	0.955802	-1.556446	-2.051532	-0.650719	-3.801968	-1.907117	4.303403	-63.487965	133.612709	-1.854345	-0.708461	0.306199	0.240156	8.031122	5.49296	0.991363	15.288831	14.267345	1.117435	-0.537312	-0.030579	0.897438
-1.359224	-0.404933	10.119784	-0.339695	2.980248	1.179683	-1.580137	-1.983035	-0.620813	-3.943614	-1.79466	5.833944	-84.637067	158.662128	16.37387	-0.750488	0.312203	0.180117	7.914869	5.550559	0.875189	14.151126	14.17679	0.073534	-0.535467	0.011192	0.802742
-0.903993	0.058544	9.956601	-1.258216	3.09387	1.4201	-1.519806	-1.994708	-0.633876	-3.960439	-1.626368	8.015559	-101.207742	180.842771	36.349255	-0.750488	0.336219	0.144094	7.684047	5.955763	0.75834	13.413457	13.939729	-1.087165	-0.543044	0.019186	0.85723
-1.362486	-0.57948	9.94592	-1.147738	3.129865	0.807764	-1.540754	-2.050136	-0.649721	-3.365329	-1.459038	9.678126	-104.550453	194.118484	56.504528	-0.786512	0.348227	0.120078	7.971699	5.608341	0.876578	12.646725	13.130682	-0.889012	-0.517717	-0.031383	0.86702
-1.482922	-0.638111	9.654421	-0.463805	3.203409	0.855646	-1.567002	-2.05856	-0.560917	-2.418979	-1.351139	11.996316	-91.148326	196.09449	74.056881	-0.780508	0.360234	0.072047	7.176302	5.262818	0.916326	11.851207	11.573903	0.121537	-0.507881	0.012321	0.843038
-0.911271	-0.696989	9.550081	-0.149966	3.474583	0.675968	-1.565855	-2.000024	-0.61871	-1.291443	-1.125175	11.899642	-71.782668	190.314724	88.854699	-0.792516	0.41427	0	7.916553	5.840566	0.990688	10.379795	9.820351	1.438859	-0.52127	-0.018131	0.874862
-1.360645	-0.114859	10.062668	0.820322	3.943535	0.519367	-1.540754	-2.050136	-0.649721	-0.162651	-0.956605	11.862071	-56.852482	182.836457	99.967089	-0.786512	0.450293	-0.048031	7.628469	5.26112	0.754059	8.508415	8.022758	1.256394	-0.602715	-0.006839	0.862087
-1.193918	-0.405939	9.776324	0.93142	4.494585	0.539359	-1.60173	-2.017824	-0.674082	0.842343	-1.187624	11.174034	-51.051083	175.771892	107.670151	-0.774504	0.504328	-0.10807	7.917463	5.377395	0.988585	6.359365	6.675593	1.459592	-0.511433	0.025573	0.85088
-0.848279	-0.580261	9.840577	0.104714	4.731741	0.568751	-1.551835	-1.976863	-0.673297	1.569255	-1.47549	10.716667	-54.117115	171.503813	111.397779	-0.756492	0.540352	-0.156102	8.031805	5.145582	0.989786	4.641522	5.079459	2.282577	-0.526149	0.004123	0.87808
-1.136196	-0.75425	9.776629	0.539659	4.96977	0.323714	-1.582574	-2.000294	-0.637869	2.420884	-1.306575	10.968663	-59.839022	169.567175	113.179383	-0.738481	0.594387	-0.210137	7.245076	4.975851	1.487059	3.413984	4.219538	3.458135	-0.493684	-0.017002	0.915158
-1.134522	-0.115501	9.893795	0.77809	4.811655	0.158756	-1.555419	-2.052658	-0.632559	3.226326	-2.054879	11.634197	-63.283923	167.525499	112.216741	-0.690449	0.684445	-0.258168	7.532716	5.207657	1.665018	2.463074	3.286929	3.566404	-0.524349	0.013629	0.843901
-0.85324	-0.174521	9.610297	1.587302	5.257313	-0.239446	-1.554271	-1.994122	-0.690353	3.400295	-1.712144	11.931849	-64.48673	164.156334	109.297103	-0.654426	0.720469	-0.294191	7.244621	5.207437	1.488111	2.619035	2.312088	3.314589	-0.559513	0.020494	0.858093
-0.968603	-0.754976	9.548798	2.399589	5.450184	-0.159155	-1.553627	-2.014761	-0.652928	3.626778	-1.483757	11.99479	-65.093558	161.467019	104.824821	-0.600391	0.7685	-0.336219	8.218959	5.438666	1.850861	2.74332	1.734867	3.083966	-0.574229	-0.000956	0.885293
-1.711499	-0.46362	9.708083	2.454379	5.390035	-0.376842	-1.542425	-2.028371	-0.705306	4.59121	-1.601544	12.190466	-64.90031	160.441257	101.757425	-0.558363	0.852555	-0.354231	7.586178	4.685424	1.43541	3.29696	1.649281	3.119512	-0.555534	-0.006513	0.871964
-1.253481	-0.522248	9.659272	3.311449	5.761919	0.045888	-1.541016	-2.009985	-0.70641	4.388868	-1.545803	13.484022	-59.208524	158.520397	98.278455	-0.49232	0.882574	-0.342223	7.539929	4.977648	2.00652	3.081757	1.672749	3.423656	-0.543044	0.019186	0.85723
-0.916288	-0.233207	9.31994	3.23634	6.161546	0.247443	-1.556063	-2.03202	-0.669983	4.387781	-1.545702	13.425022	-48.188189	153.319607	94.920502	-0.432281	0.930606	-0.336219	8.218857	4.917335	1.791403	4.157281	1.957331	3.728684	-0.488759	-0.006991	0.851422
-1.366416	-0.057516	9.773734	3.368335	6.498241	0.135897	-1.539727	-2.051262	-0.631561	4.047066	-1.3727	13.359197	-34.641796	146.327316	91.078014	-0.360234	0.972633	-0.342223	8.048016	5.496903	1.847745	5.570739	2.367775	4.093778	-0.554588	0.030505	0.794357
-1.200998	-0.174606	9.429994	3.527373	6.805073	-0.099755	-1.532679	-1.959333	-0.637084	3.867387	-1.25669	12.824733	-23.385931	139.326098	87.472437	-0.312203	0.984641	-0.324211	8.62275	5.091542	2.085537	6.921861	3.090761	3.992521	-0.545271	0.023436	0.869696
-1.19849	-0.406498	9.545065	4.088299	7.069757	-0.285573	-1.556063	-2.03202	-0.669983	4.140823	-1.829452	12.241179	-16.902772	134.355276	84.571662	-0.252164	1.01466	-0.294191	8.963045	5.785617	2.095448	8.334478	3.707306	2.854189	-0.572903	-0.009958	0.889917
-1.13834	0.290378	9.721329	3.816803	7.292731	-0.300521	-1.58642	-2.03594	-0.653819	4.144658	-1.65798	12.476875	-13.859855	131.292594	82.443011	-0.198129	1.038676	-0.27618	9.016848	5.089695	1.865052	9.961918	4.509041	1.804466	-0.510533	0.030326	0.83379
-1.483367	-0.173769	9.655539	3.737212	7.600961	-0.163733	-1.520188	-2.01422	-0.614612	3.570706	-1.999117	11.935617	-12.204927	128.802808	80.586729	-0.162106	1.04468	-0.240156	8.730334	4.858152	1.744185	11.404169	5.614999	0.746688	-0.513232	0.016067	0.88506
-0.965731	-0.17413	9.72364	5.055967	8.149841	-0.080858	-1.582191	-1.980782	-0.657133	3.794781	-2.056888	11.822064	-12.506749	126.298839	78.800583	-0.114074	1.050684	-0.186121	8.500536	4.742289	1.62497	11.831821	6.707091	-0.224473	-0.529274	0.003619	0.907636
-1.364019	-0.173321	9.889084	5.590943	8.412365	-0.052233	-1.551572	-2.017013	-0.616608	4.14127	-2.344982	12.183093	-13.875911	123.52298	77.128395	-0.090059	1.04468	-0.144094	8.282444	4.976695	2.135345	12.167789	7.607799	-0.763501	-0.559087	0.006739	0.879806
-1.024484	0.057957	9.665241	6.281309	8.764353	-0.115305	-1.538579	-1.992726	-0.689355	4.534499	-2.632333	12.014206	-15.585587	121.352995	75.445618	-0.066043	1.020664	-0.10807	8.104754	4.454129	1.729956	12.658882	7.980747	-0.70834	-0.544417	-0.004076	0.913123
-1.188481	-0.115026	10.066097	6.471809	8.850458	-0.024618	-1.60032	-1.999438	-0.675187	4.4718	-2.746138	11.659322	-17.946784	119.780598	72.990977	-0.066043	1.01466	-0.060039	8.223146	4.454953	1.960577	13.09024	7.643015	-0.300583	-0.588899	0.009858	0.851976
-1.128473	-0.463059	10.182031	6.974752	9.20859	-0.17466	-1.537552	-1.993852	-0.671195	5.26073	-2.691029	11.556433	-23.022433	121.241041	70.057219	-0.072047	0.984641	-0.042027	8.04499	4.743199	1.61596	13.676855	6.690107	0.397538	-0.571957	0.027059	0.81231
-1.480216	0.116864	9.829682	8.206126	9.788108	0.094905	-1.524941	-1.989077	-0.724677	5.646075	-2.519431	11.032733	-29.735737	126.517897	66.840714	-0.066043	0.954621	0.006004	7.825783	4.398115	2.009522	14.970804	5.710724	1.405922	-0.524822	-0.004879	0.882704
-1.143722	-0.058577	9.431417	9.166599	9.917972	-0.014269	-1.523652	-2.030353	-0.649827	6.664343	-2.465308	11.111192	-34.360185	135.022246	63.260943	-0.090059	0.954621	0.03002	7.919397	4.393156	0.984116	16.727054	4.223215	1.939215	-0.524822	-0.004879	0.882704
-1.308917	-0.173657	9.774597	9.334991	10.376006	-0.060577	-1.569319	-2.016157	-0.653926	8.245462	-2.355393	11.082414	-35.364175	145.263424	59.228425	-0.096063	0.93661	0.048031	7.818354	4.16469	1.608826	17.805025	3.469311	2.023663	-0.52345	0.018383	0.826811
-1.536406	0.059016	9.886214	10.027165	10.695548	-0.002787	-1.508605	-2.008319	-0.686254	9.713947	-2.01607	11.110058	-34.06473	155.350894	56.245014	-0.13809	0.900586	0.066043	7.589455	4.164882	1.547229	18.113466	3.099858	2.400905	-0.560413	0.015741	0.875182
-1.650904	-0.231086	9.883229	11.58768	10.990243	0.186139	-1.555419	-2.052658	-0.632559	10.230123	-1.617369	11.591129	-29.658781	162.617611	54.697513	-0.156102	0.864563	0.054035	7.308345	4.050447	1.712348	16.669276	2.76513	3.104351	-0.559986	0.001986	0.896896
-1.645189	-0.230387	10.172303	11.399721	11.951285	0.077282	-1.50796	-2.028957	-0.648829	12.213569	-1.56655	11.924061	-17.584404	163.479774	52.275449	-0.180117	0.864563	0.060039	7.132327	4.397115	1.482178	15.473419	1.557997	4.991568	-0.560413	0.015741	0.875182
-1.705253	0.175688	10.056508	10.947509	12.490025	-0.164876	-1.556063	-2.03202	-0.669983	22.240347	5.64461	32.924044	118.077975	91.768754	33.204669	-0.216141	0.840547	0.048031	7.410855	4.105487	1.143942	14.184547	0.793624	7.938446	-0.544844	0.00968	0.891409
-1.819862	0.001671	10.053803	13.218854	13.46944	0.371429	-1.535498	-1.996105	-0.634875	16.286391	2.039499	6.629062	112.423557	86.499441	22.814833	-0.216141	0.846551	0.012008	7.532056	4.396581	1.547154	11.266903	-0.219886	11.860984	-0.543944	0.014433	0.874319
-1.481946	-0.463843	9.712655	15.615486	14.928653	1.627331	-1.506933	-2.030083	-0.630669	18.538286	-2.678491	14.642614	157.066577	65.774171	8.091834	-0.216141	0.822535	-0.006004	7.469721	3.700361	1.20032	9.086802	-0.854392	17.70536	-0.595577	0.022606	0.889374
-1.576203	-0.403173	10.751174	13.800383	16.079348	4.406982	-1.506551	-2.010571	-0.649934	22.333305	0.412474	9.520096	127.979072	45.59654	-4.476355	-0.222145	0.786512	-0.036023	7.578204	3.583027	0.916586	9.271824	-0.827065	20.152332	-0.525676	0.022632	0.839277
-2.026417	-1.330433	11.144498	14.251946	17.916444	6.610897	-1.495087	-2.064332	-0.645622	22.826164	0.990292	5.694937	102.559039	10.703907	-3.565828	-0.24616	0.79852	-0.066043	7.920091	3.466551	0.922818	10.408129	-0.395555	18.863966	-0.561739	0.024744	0.870559
-1.005941	1.699752	16.489011	11.757922	31.808235	9.013229	-1.50796	-2.028957	-0.648829	22.037988	2.132809	9.098617	81.438126	-41.234673	-4.24469	-0.264172	0.780508	-0.078051	7.578204	3.583027	0.916586	8.808867	-0.471411	16.441088	-0.579108	0.021298	0.888511
-1.222714	0.533476	14.170196	22.929272	59.953761	9.934198	-1.513096	-2.023325	-0.73963	21.553279	15.998128	9.537358	87.191504	-141.064136	48.776352	-0.27618	0.774504	-0.084055	7.07279	4.570392	1.367656	5.152005	-1.152618	17.996952	-0.582661	0.03455	0.896354
-1.400482	0.416859	13.877414	18.39638	73.528168	10.263254	-1.479657	-2.022785	-0.701314	-0.583791	2.899826	1.879894	-6.59306	-193.361171	51.270538	-0.282184	0.780508	-0.096063	7.637582	5.784553	1.270254	-0.410688	-1.819574	21.13252	-0.580435	0.030301	0.883888
-1.371461	-0.043989	15.321665	15.171578	94.121976	10.513304	-1.461529	-2.004129	-0.68326	3.804727	4.805144	19.595732	-11.482163	-202.797127	19.919114	-0.300195	0.780508	-0.102066	7.698564	6.596303	1.560522	-4.282511	-2.321503	24.884949	-0.601782	0.053863	0.887969
-1.54718	-0.153284	18.034108	8.026965	118.87041	11.974484	-1.430789	-1.980698	-0.718689	9.843529	2.272672	15.764545	23.604589	-169.283758	-18.114489	-0.294191	0.786512	-0.090059	8.314667	7.809036	1.178785	-5.175578	-1.851876	23.462487	-0.580861	0.044056	0.862174
-1.572062	-0.6717	19.650521	9.375417	148.749742	13.719476	-1.431817	-1.979571	-0.736849	3.257655	4.596488	8.261585	-18.447519	-152.658004	-77.076803	-0.330215	0.780508	-0.10807	9.629766	7.923527	1.490676	-6.016327	2.135067	18.380585	-0.578635	0.039807	0.849708
-1.681599	-1.367542	19.877817	13.895333	183.668597	17.124006	-1.370458	-1.992371	-0.731752	-0.324582	-2.789654	11.98006	-41.285313	-126.552615	-58.056808	-0.342223	0.756492	-0.102066	10.877444	8.209454	1.288399	-9.16611	7.821346	16.610902	-0.612946	0.019161	0.907327
-1.380299	-0.84362	20.636382	16.76143	220.284191	21.523754	-1.339719	-1.968939	-0.767181	16.957771	-4.126259	26.764414	-8.298071	-28.151131	18.705528	-0.360234	0.7685	-0.090059	10.584753	7.107626	0.763944	-14.162098	14.779609	20.490179	-0.575129	-0.005709	0.902383
-1.181233	-1.479042	21.968013	18.810918	255.133631	23.883823	-1.277978	-1.962227	-0.781349	3.030063	0.35885	7.497749	102.016493	-35.897631	32.028072	-0.342223	0.756492	-0.114074	9.336961	6.879594	0.966483	-17.804031	20.962115	22.009253	-0.548823	0.036687	0.877538
-1.217991	-1.534514	23.007397	30.516393	282.604338	22.135604	-1.18447	-1.933209	-0.812785	1.662367	2.31139	7.173217	39.338254	-19.313917	3.573956	-0.348227	0.762496	-0.10807	7.628447	6.419573	0.873501	-20.764139	24.665109	21.876879	-0.579962	0.048809	0.845084
-1.000566	-2.000615	22.374888	49.512791	309.221888	23.72424	-1.165697	-1.935192	-0.757307	0.145465	-1.126561	10.15789	22.004034	-14.211909	7.961282	-0.366238	0.750488	-0.10807	6.946617	5.089058	0.796848	-23.075078	26.927465	22.331886	-0.594677	0.027359	0.872284
-0.371608	-0.78247	22.332581	58.820386	330.775764	29.369524	-1.043243	-1.92064	-0.803803	1.493304	-0.786186	9.770359	55.140032	-23.509275	15.431053	-0.354231	0.732477	-0.114074	5.973633	4.7423	0.490663	-25.323219	28.129143	17.918633	-0.564865	0.02424	0.900114
-1.348028	0.314244	19.42621	71.544015	337.740876	29.291948	-0.985992	-1.928935	-0.871347	1.697778	-0.097531	8.711485	32.137199	-12.186392	5.096257	-0.342223	0.750488	-0.10807	6.31957	4.858461	0.726315	-24.707553	27.15336	11.919697	-0.616452	0.064677	0.854652
-2.185596	2.291604	20.685741	85.94068	321.883162	25.150953	-0.86461	-1.812224	-0.816508	1.668914	-1.360028	10.010635	30.255715	-9.206735	1.461967	-0.348227	0.7685	-0.120078	6.26183	5.26385	0.727029	-20.492536	25.123152	5.658582	-0.595577	0.022606	0.889374
-0.954798	1.060389	16.141728	116.810275	318.489584	14.681877	-0.834253	-1.808304	-0.832672	1.538169	-0.155226	9.239328	27.300931	-7.384659	-1.775025	-0.354231	0.744485	-0.120078	6.312904	5.957441	0.502941	-15.907318	22.899379	2.431688	-0.630268	0.04798	0.864763
0.39423	-1.389555	11.712696	99.885071	315.013566	15.674744	-0.682634	-1.747336	-0.718044	1.026915	-0.382557	9.052954	14.540595	-3.915496	-3.622902	-0.366238	0.726473	-0.126082	6.537287	6.535424	0.395891	-12.3056	21.807308	10.917602	-0.596857	0.063873	0.824233
2.045452	-1.86423	8.161352	84.446923	318.040018	18.243945	-0.639404	-1.778791	-0.731	0.58831	-0.554289	9.752567	10.795703	-3.613343	-2.818395	-0.354231	0.750488	-0.114074	8.247405	5.605669	0.425472	-8.792443	19.423125	21.756982	-0.643138	0.0683	0.797266
3.928039	-3.0355	4.670718	63.26505	322.324415	23.446289	-0.566124	-1.665143	-0.697316	1.030516	-0.497447	9.230157	7.667982	-3.422128	-2.754249	-0.342223	0.738481	-0.120078	10.52153	5.716123	0.299771	-9.549944	15.044751	25.065567	-0.630268	0.04798	0.864763
9.32849	-5.201975	-0.83276	54.834812	313.459313	35.01883	-0.48702	-1.678799	-0.654901	0.864047	-0.439947	9.403796	5.459393	-2.79479	-2.850062	-0.354231	0.744485	-0.132086	11.362619	5.479677	-0.369492	-19.247807	7.508196	23.108628	-0.614699	0.041919	0.88099
9.127473	-3.245796	-7.998183	26.094004	236.525472	57.97327	-0.436862	-1.677988	-0.597427	0.918393	-0.439915	9.286883	3.869127	-3.218711	-2.386779	-0.354231	0.738481	-0.132086	10.490564	5.419281	-1.300123	-29.719365	1.971507	17.859377	-0.579535	0.035054	0.866798
7.705105	-3.235825	-4.501199	-42.118509	123.121461	65.972559	-0.398168	-1.623417	-0.544264	1.152888	0.016829	9.821419	2.292589	-3.729874	-1.466026	-0.354231	0.726473	-0.126082	10.151157	5.420489	-1.192697	-36.995834	-2.490616	13.06102	-0.627142	0.048484	0.835207
9.148542	-0.900026	1.890303	-99.99016	22.152086	69.590195	-0.396114	-1.625669	-0.507944	0.873422	-0.669929	9.876204	0.529583	-4.266168	-0.50921	-0.360234	0.732477	-0.126082	9.68726	6.230372	-1.540579	-40.979727	-8.021406	10.751755	-0.630695	0.061735	0.843049
9.610133	0.797411	7.91395	-95.109402	-52.952234	62.384151	-0.394322	-1.587772	-0.528313	0.979664	-0.211423	9.582564	0.642718	-5.551618	0.17683	-0.342223	0.732477	-0.150098	9.75839	6.465261	-0.796204	-40.283809	-16.538121	9.117955	-0.628469	0.057486	0.830583
7.332688	1.969908	11.743472	-42.229677	-97.738014	48.343615	-0.405141	-1.554649	-0.495201	1.036802	-0.784416	9.525666	-0.434131	-6.010734	0.310142	-0.354231	0.738481	-0.132086	10.163762	5.886815	-0.505488	-37.461902	-27.060111	8.061988	-0.609301	0.070438	0.77845
5.542613	1.563937	11.128914	18.336359	-116.660358	32.830689	-0.434088	-1.540183	-0.480141	0.743231	-0.381604	8.98852	-1.825571	-5.645823	-0.759322	-0.354231	0.732477	-0.13809	9.943417	6.120696	-0.109296	-34.799599	-35.150925	6.153588	-0.612	0.056178	0.82972
4.343327	0.455811	8.44392	61.201305	-121.794484	18.336892	-0.412878	-1.524906	-0.407607	0.463489	-0.610124	9.101493	-2.625212	-5.510464	-1.49418	-0.354231	0.750488	-0.132086	9.952882	5.891213	0.34639	-32.117607	-38.469007	4.807475	-0.615126	0.055674	0.859276
3.304299	-1.350532	5.124715	76.636837	-124.644189	4.98699	-0.49313	-1.569786	-0.392228	1.26077	-0.441242	9.470403	-2.831836	-5.539425	-1.952094	-0.360234	0.744485	-0.120078	9.958741	5.776734	0.631325	-29.754232	-37.117759	2.464431	-0.646264	0.067796	0.826822
2.521423	-2.283103	3.199733	66.813721	-129.455721	-4.786805	-0.532251	-1.542836	-0.306631	1.148072	-0.555486	9.468433	-2.002106	-5.362173	-2.434456	-0.354231	0.756492	-0.132086	10.20938	5.607848	1.776884	-28.381777	-32.794017	-0.686922	-0.628896	0.071242	0.808869
2.389415	-3.388038	2.269756	39.461639	-136.074889	-10.245428	-0.495349	-1.526162	-0.233099	1.08955	-0.612405	9.349447	-1.478348	-4.954302	-2.33462	-0.360234	0.732477	-0.132086	10.439861	5.376333	1.894522	-27.196587	-27.088768	-2.097409	-0.630695	0.061735	0.843049
2.173801	-3.61831	2.958402	6.372281	-143.830581	-13.658478	-0.495087	-1.566313	-0.17641	0.923081	-0.554906	9.523086	-1.390421	-4.391733	-2.456256	-0.348227	0.744485	-0.126082	9.992312	5.321186	2.284894	-25.398504	-20.360612	-1.723801	-0.630695	0.061735	0.843049
1.970847	-2.744093	4.343481	-20.819286	-152.67773	-16.217429	-0.524155	-1.611509	-0.085397	1.028173	-0.439951	9.112055	-1.788458	-4.315367	-2.405984	-0.360234	0.750488	-0.120078	9.533615	5.205515	2.104082	-22.245329	-14.764126	-2.448324	-0.643611	0.049792	0.83607
1.879518	-2.16062	5.556703	-35.720534	-161.26785	-18.691213	-0.487897	-1.574197	-0.04929	0.973656	-0.382691	9.228867	-1.8593	-4.534406	-2.324744	-0.360234	0.744485	-0.10807	9.194765	5.496468	2.269916	-19.244484	-9.938598	-5.052093	-0.614653	0.074183	0.820472
1.727316	-1.519468	6.595477	-43.757437	-169.886353	-21.176532	-0.496782	-1.602989	0.096097	1.031837	-0.211188	9.34765	-1.344555	-4.873298	-2.21067	-0.348227	0.732477	-0.132086	9.37134	5.439545	2.558492	-18.301871	-5.915604	-8.99413	-0.594204	0.045868	0.833481
1.575893	-1.690914	7.632294	-47.758304	-178.686077	-22.726307	-0.496782	-1.602989	0.096097	0.975382	0.132636	9.404954	-1.064606	-4.886218	-2.19077	-0.372242	0.732477	-0.120078	8.622636	5.149439	2.085799	-17.236694	-1.681616	-12.604015	-0.627142	0.048484	0.835207
0.956973	-1.456594	8.256243	-49.780182	-186.75969	-22.643251	-0.477747	-1.645122	0.208265	1.25734	-0.383645	9.293301	-1.301933	-4.75763	-2.081181	-0.366238	0.750488	-0.126082	8.736409	5.207108	2.088315	-16.047703	2.214358	-16.052514	-0.595104	0.041115	0.850571
0.159087	-1.280989	8.529734	-53.099577	-193.485974	-21.740638	-0.470819	-1.612856	0.278696	0.979771	-0.612369	9.524274	-1.968043	-4.350657	-2.185387	-0.354231	0.744485	-0.132086	8.157864	4.684812	1.560857	-14.887247	5.403396	-17.313129	-0.628042	0.043731	0.852297
-0.042168	-0.987059	9.97123	-59.316008	-198.66954	-19.941839	-0.411635	-1.683065	0.323427	1.150651	-0.326621	9.645027	-2.517929	-3.713596	-2.031822	-0.354231	0.744485	-0.144094	8.332289	5.148693	1.794707	-13.939271	7.587644	-17.113995	-0.628942	0.038977	0.869386
-0.481898	-0.926196	10.945077	-65.341315	-202.329236	-17.382145	-0.329832	-1.719611	0.439586	1.139507	0.132632	9.113213	-2.760386	-3.543927	-2.104839	-0.360234	0.720469	-0.126082	8.601692	4.912859	0.999997	-12.989423	8.921842	-17.445703	-0.613799	0.046672	0.8639
-1.161301	-1.040495	11.3936	-70.851653	-206.843185	-14.105827	-0.254191	-1.7494	0.446785	1.159216	-1.014739	10.000246	-2.669906	-3.67813	-1.993118	-0.360234	0.738481	-0.132086	8.491196	4.334648	1.1093	-11.914349	9.306968	-17.724139	-0.608874	0.056682	0.800164
-1.665444	-0.806287	12.019835	-74.462514	-212.558624	-9.915587	-0.211343	-1.800368	0.453093	0.923422	-0.669491	9.523289	-2.817717	-3.939587	-2.220847	-0.360234	0.756492	-0.126082	8.037106	4.741359	1.216314	-10.561267	9.196959	-17.439028	-0.592405	0.055374	0.799301
-2.564613	-0.396722	12.985377	-75.957925	-219.136308	-5.291519	-0.088627	-1.825967	0.463286	1.428837	-0.67072	9.356069	-2.229449	-3.728206	-2.568625	-0.360234	0.744485	-0.114074	8.096313	4.162544	1.271904	-9.022671	8.685346	-16.776562	-0.594204	0.045868	0.833481
-2.214791	-0.164186	13.281867	-76.01298	-225.400788	-1.636085	-0.048216	-1.894194	0.452539	0.705461	-0.841397	9.932248	-1.642072	-4.208518	-2.775309	-0.354231	0.744485	-0.120078	7.581332	4.858062	1.20783	-7.852615	7.934411	-16.814029	-0.614226	0.060428	0.842186
-2.373462	0.069828	13.972775	-75.306067	-229.565407	-0.021034	0.041445	-1.900821	0.405151	1.210835	-0.098028	9.881708	-0.964673	-5.224577	-2.339724	-0.366238	0.726473	-0.132086	7.820937	4.570753	1.781942	-7.420187	7.028383	-17.341257	-0.608874	0.056682	0.800164
-2.145107	0.127508	13.919671	-77.047014	-231.093786	0.354836	0.110158	-1.962876	0.341919	1.202078	-0.440869	9.351316	-0.152739	-5.601787	-1.744437	-0.354231	0.720469	-0.13809	7.577737	4.393839	0.977359	-7.018678	6.158058	-18.236527	-0.62359	0.035232	0.827364
-2.652513	0.18717	14.372043	-80.263373	-229.957689	0.050181	0.134997	-1.972837	0.25422	1.147902	-0.498194	9.468331	0.183346	-5.675659	-1.792297	-0.366238	0.744485	-0.120078	7.458333	4.334856	0.689382	-7.109701	5.583184	-18.804841	-0.595958	0.068626	0.807143
-2.638462	-0.159409	15.064981	-84.520276	-226.326798	-0.61616	0.194422	-1.923722	0.147042	0.982115	-0.669864	9.642376	0.839172	-5.609087	-1.811867	-0.348227	0.732477	-0.132086	8.14188	4.217698	0.702372	-6.708448	4.994885	-18.054946	-0.658754	0.042097	0.841556
-3.543291	0.191414	15.741309	-88.091031	-220.715581	-1.125767	0.183386	-1.951483	0.003971	0.926682	-0.669795	9.70029	0.862489	-5.766638	-1.791916	-0.354231	0.750488	-0.114074	8.083583	4.333341	0.644679	-6.185392	4.899406	-17.377003	-0.597284	0.077628	0.80252
-3.816293	-0.038802	16.428813	-90.909058	-213.173445	-2.521265	0.221218	-1.937157	-0.156476	1.091041	-0.383438	9.467041	0.914563	-5.855126	-1.923102	-0.348227	0.732477	-0.126082	7.57098	4.392262	0.634806	-6.369798	4.840364	-17.682496	-0.575982	0.021802	0.858955
-4.332589	0.948564	16.478716	-95.879178	-203.572904	-6.256248	0.14536	-1.968252	-0.339859	0.862556	-0.668914	9.286202	0.953259	-6.482833	-2.42834	-0.372242	0.744485	-0.132086	8.360746	4.73647	0.309597	-6.86186	4.923082	-17.47295	-0.562166	0.038499	0.848845
-4.896796	1.588848	16.989157	-101.3534	-191.664033	-13.581846	0.158091	-1.903814	-0.469295	1.088186	-0.154066	9.348635	0.959999	-6.62684	-2.066966	-0.360234	0.744485	-0.120078	8.137489	4.15875	0.47374	-6.954427	5.208056	-16.103642	-0.57371	0.049817	0.785972
-5.017566	1.878474	16.698495	-106.06153	-179.861534	-23.67992	0.094154	-1.808461	-0.624091	1.142234	-0.784047	9.114838	1.27065	-7.300084	-1.936013	-0.360234	0.744485	-0.120078	8.473278	4.851773	0.255283	-7.816587	5.83113	-15.449816	-0.638686	0.059802	0.772334
-6.283702	2.053407	16.500325	-110.43297	-168.285398	-33.611571	-0.011297	-1.804451	-0.82984	1.211346	-0.269905	9.882013	1.384986	-7.626147	-1.744752	-0.354231	0.756492	-0.10807	8.520313	4.7335	-0.257945	-9.386788	6.897533	-14.290107	-0.575083	0.026555	0.841866
-16.979146	-6.322136	52.502331	-147.447548	-146.374729	-42.341897	-0.040386	-1.690172	-0.947423	0.869587	-0.8414	9.640507	0.852075	-7.562167	-1.937608	-0.360234	0.726473	-0.114074	7.900251	4.388688	0.013549	-11.509853	7.849757	-12.090786	-0.592878	0.036866	0.838105
-6.613585	6.30874	0.033456	-65.104259	-112.121454	-51.295396	-0.104705	-1.614332	-1.082954	1.212198	-0.556367	9.88252	1.2135	-7.953277	-2.470307	-0.354231	0.738481	-0.120078	7.899124	4.388425	-0.043543	-13.878427	8.374093	-12.238027	-0.641385	0.045542	0.823604
-12.571358	6.938747	17.889519	-35.776152	-109.517045	-58.118366	-0.13315	-1.520691	-1.163113	0.92617	-0.497918	9.699985	3.110563	-8.53214	-2.452776	-0.348227	0.738481	-0.120078	8.080887	3.985175	0.471825	-16.76855	8.514228	-11.706261	-0.575083	0.026555	0.841866
-14.46516	4.785681	14.841406	-6.515811	-122.904304	-68.376367	-0.227182	-1.469408	-1.245056	1.323575	-0.728382	9.766998	4.454732	-8.917005	-3.298945	-0.354231	0.738481	-0.126082	7.571549	4.10278	0.633491	-20.362493	7.429028	-9.712308	-0.590652	0.032616	0.825639
-15.640412	4.841483	13.431131	7.420014	-134.09823	-60.093523	-0.290594	-1.454356	-1.286472	1.318377	-0.441514	9.53049	5.260824	-9.308203	-3.600579	-0.360234	0.738481	-0.120078	7.453157	4.101956	0.40287	-22.51	5.799053	-6.9639	-0.593305	0.050621	0.816391
-22.220335	2.405143	11.271446	21.681401	-154.663178	-42.212046	-0.349134	-1.404785	-1.293778	1.323	-0.900158	9.708302	5.725993	-10.322302	-3.03353	-0.378246	0.738481	-0.120078	7.806307	3.988109	0.980024	-23.550742	4.234484	-3.568795	-0.571957	0.027059	0.81231
-31.208179	-0.369795	12.068142	39.487364	-146.96813	-5.987588	-0.344905	-1.349628	-1.297092	0.810511	0.018156	9.637898	5.792419	-11.359575	-2.298952	-0.366238	0.738481	-0.114074	7.120837	4.510279	0.911782	-23.975203	2.199142	1.094476	-0.589752	0.03737	0.808549
-32.422517	-0.086573	8.692725	23.568303	-101.189241	41.960979	-0.422218	-1.298074	-1.359876	0.527849	-0.324645	9.574074	6.533568	-12.347206	-1.863862	-0.366238	0.750488	-0.120078	7.805852	4.219695	0.981075	-24.216083	0.426661	4.712683	-0.591552	0.027863	0.842728
-31.906536	1.879474	5.875982	30.505642	-19.256692	74.169834	-0.519954	-1.382249	-1.325125	1.098115	-1.300523	9.704666	7.060856	-12.727177	-2.154637	-0.360234	0.720469	-0.114074	8.704658	4.736313	0.430539	-22.215863	-0.378104	4.864437	-0.572857	0.022306	0.8294
-30.877149	13.502074	12.108398	25.107335	89.87867	75.816508	-0.516752	-1.325966	-1.346599	1.384506	-0.385306	10.062476	7.768872	-13.420462	-3.708275	-0.360234	0.738481	-0.102066	9.055202	5.374857	0.954018	-17.603833	-0.893072	2.117982	-0.556814	0.034754	0.806823
-16.412241	9.324486	-5.066696	98.023874	177.518724	49.500312	-0.530007	-1.310103	-1.330542	1.023407	-0.673722	11.884383	7.313009	-15.306155	-9.37573	-0.360234	0.738481	-0.132086	9.62071	4.503959	0.675876	-11.300754	-1.444884	-0.863237	-0.587953	0.046876	0.774369
4.118816	-1.226785	8.60874	34.637317	186.671852	43.95533	-0.473905	-1.376933	-1.340291	1.16695	-0.328144	10.53003	14.202807	-24.423458	-15.898079	-0.378246	0.732477	-0.126082	9.523365	5.261046	1.590516	-5.42788	-1.68267	-0.581469	-0.602623	0.05769	0.741052
3.712555	-1.735254	14.147413	-16.602792	168.488587	22.115582	-0.501705	-1.303931	-1.383026	0.837783	-0.385327	11.054613	13.252508	-29.520602	-18.694161	-0.38425	0.720469	-0.132086	9.693285	5.723876	1.595997	-0.90772	-1.718193	1.462258	-0.573237	0.068326	0.747169
-2.642508	-1.901389	14.771715	-22.090595	147.347697	26.940267	-0.470321	-1.301138	-1.38103	0.528709	0.472037	12.816575	1.982682	-38.766743	-14.241246	-0.38425	0.726473	-0.102066	9.353195	6.072462	1.705001	5.209534	-1.078109	2.673104	-0.576363	0.067822	0.776725
-2.387776	0.931749	10.391498	14.83324	125.468528	27.945163	-0.410372	-1.332323	-1.374829	1.479334	-0.847267	12.070381	-2.301073	-54.555202	-12.780203	-0.366238	0.732477	-0.120078	9.304363	5.958623	2.102995	12.618978	-0.753843	3.531198	-0.573283	0.036062	0.807686
-0.038153	-0.406073	10.203887	11.802906	122.635786	20.046388	-0.393532	-1.27239	-1.431625	1.082633	0.242279	12.178846	-9.523915	-64.206223	-13.847582	-0.378246	0.726473	-0.114074	10.007045	6.425161	3.146271	18.987525	-1.983783	7.080565	-0.603522	0.052937	0.758142
-3.187745	-1.730253	13.316479	4.982408	89.784622	11.983171	-0.317509	-1.282667	-1.44369	1.039877	-0.732537	12.769487	-16.517374	-77.048268	-16.487988	-0.38425	0.714465	-0.096063	10.364483	5.848932	3.892598	21.885811	-4.759988	12.818513	-0.607974	0.061435	0.783074
-0.614209	-0.521882	10.076548	17.963619	68.654336	11.723653	-0.346839	-1.287713	-1.409366	1.218299	-0.791153	13.24485	-23.433833	-90.395579	-19.627313	-0.378246	0.732477	-0.090059	10.029126	6.082777	4.229445	20.320952	-5.971267	14.673186	-0.589279	0.055878	0.769745
-0.675502	-1.218897	9.842469	16.500632	61.791862	4.997817	-0.315072	-1.265408	-1.426635	1.457012	-1.022121	13.898604	-28.29462	-106.59198	-23.457013	-0.396258	0.726473	-0.084055	9.373479	5.497967	2.672939	15.184183	-5.419064	12.400189	-0.595531	0.05487	0.828857
-0.617471	-0.696429	9.902685	16.177517	57.120016	0.321375	-0.288944	-1.316645	-1.439485	1.468901	-1.36689	14.489215	-28.603184	-124.210682	-25.812577	-0.402262	0.720469	-0.078051	9.578386	5.665944	1.53639	10.598685	-3.827854	10.778882	-0.577689	0.076825	0.772101
-0.907897	-0.638527	9.723665	16.990362	55.430395	3.013577	-0.304254	-1.29853	-1.459748	1.479256	-1.196028	15.078912	-30.811484	-141.302204	-28.961751	-0.41427	0.732477	-0.072047	9.30211	5.958098	1.98881	6.686449	-1.065231	7.176644	-0.628942	0.038977	0.869386
-0.497314	-0.347585	10.194883	21.944592	55.25757	6.097506	-0.316482	-1.283793	-1.42553	1.136304	-1.366477	14.836696	-28.403596	-160.302666	-31.473973	-0.408266	0.714465	-0.036023	8.718264	5.840025	1.234824	4.955657	2.42286	3.99744	-0.629795	0.066489	0.825959
-2.044398	-0.461889	10.279373	29.621052	25.484324	6.525867	-0.287917	-1.317772	-1.421325	1.043677	-1.654425	15.897033	-22.777624	-178.880092	-33.396036	-0.420274	0.702457	-0.036023	8.765856	6.011498	0.780001	3.047893	3.232665	5.650545	-0.593732	0.064377	0.794677
-3.100944	-0.928163	9.043571	36.090789	-3.296089	-4.955656	-0.287917	-1.317772	-1.421325	1.426891	-2.227223	15.138653	-20.858978	-198.361677	-35.828696	-0.432281	0.714465	-0.012008	8.345502	6.760215	-0.252124	-0.049735	0.2157	8.150585	-0.610201	0.065685	0.79554
-0.626363	0.231276	9.500217	27.063738	-0.638793	0.838084	-0.255506	-1.316105	-1.401169	1.844836	-2.058671	16.384958	-12.316491	-216.168971	-38.178468	-0.432281	0.690449	-0.012008	7.595569	5.948516	-0.841367	-1.426112	-2.942558	7.145984	-0.628042	0.043731	0.852297
-1.267698	-0.00154	8.966752	21.346687	2.452901	2.078849	-0.272608	-1.335887	-1.401062	1.232689	-1.255818	17.020586	-3.200678	-236.782417	-40.265441	-0.444289	0.696453	0.012008	7.552016	6.588907	-0.097404	-1.910696	-6.395345	4.012097	-0.612427	0.069934	0.808006
-1.314799	-0.000227	9.485942	11.056281	-0.294391	2.332836	-0.288944	-1.316645	-1.439485	1.896328	-1.829265	16.149638	3.040596	-255.735091	-42.636012	-0.438285	0.684445	0.03002	7.49464	5.662153	-0.21692	0.28314	-11.214109	2.239389	-0.628896	0.071242	0.808869
-0.910461	-0.348593	9.608734	12.269758	0.264558	1.868558	-0.27158	-1.337013	-1.382902	2.740648	-1.029626	16.105516	6.922441	-266.055453	-43.470313	-0.456297	0.684445	0.048031	7.345994	5.841441	0.922333	4.969611	-16.522857	4.589769	-0.617778	0.073679	0.850028
-0.855693	-0.000672	9.495086	9.713174	0.390441	2.148413	-0.297326	-1.266264	-1.389316	3.759555	-0.460074	16.301061	14.663118	-270.194683	-42.564293	-0.456297	0.678442	0.066043	7.133988	5.845576	1.717118	11.007314	-20.893807	8.883017	-0.582142	0.085323	0.797033
-1.130647	-0.579424	10.066122	7.968066	0.100196	1.994615	-0.316602	-1.343456	-1.349576	2.689064	-0.852978	13.332204	24.622305	-274.920602	-45.239298	-0.444289	0.642418	0.072047	6.983545	5.792753	2.741136	15.904883	-24.253663	12.229114	-0.597757	0.05912	0.841323
-1.139428	0.232196	9.663375	5.196886	0.105368	2.519091	-0.288682	-1.356796	-1.382796	5.791543	-2.465525	12.80481	9.96168	-274.520335	-39.950246	-0.474309	0.636414	0.084055	7.050954	6.200542	3.315023	20.829146	-26.052318	13.642955	-0.581715	0.071567	0.818747
-0.559441	-0.173961	9.9629	1.058185	-0.005375	2.918517	-0.289064	-1.376308	-1.363531	3.70454	-3.146931	12.883823	2.821958	-272.759865	-42.792972	-0.474309	0.636414	0.096063	7.449682	5.562623	3.262924	25.74746	-25.545753	12.526062	-0.546978	0.078458	0.782841
-0.907867	0.522466	9.784275	-1.511671	0.191347	2.529291	-0.297326	-1.266264	-1.389316	2.137028	-4.169431	10.437304	-2.146985	-272.376072	-47.781811	-0.498324	0.612399	0.132086	7.682745	5.737171	3.553678	27.339964	-23.121629	9.511807	-0.58574	0.06631	0.865392
-1.13522	-0.579983	9.834863	-4.540131	0.366097	2.394542	-0.316602	-1.343456	-1.349576	1.271209	-4.680679	9.359915	-13.540065	-272.354638	-56.611071	-0.486317	0.612399	0.132086	7.28404	5.216637	3.486336	26.095946	-17.53527	5.79726	-0.616879	0.078432	0.832938
-1.259697	-0.000562	9.371456	-6.303357	0.476824	2.227088	-0.355941	-1.377389	-1.440163	-6.911671	-4.074144	3.834494	-17.117621	-261.093811	-71.86931	-0.49232	0.594387	0.150098	7.683667	4.694773	3.491854	24.417722	-10.280722	2.867422	-0.598184	0.072875	0.819609
-0.963667	0.05832	9.839829	-6.977661	0.648423	2.250165	-0.305784	-1.376578	-1.382689	-11.917974	-4.050992	-1.098058	-10.961186	-207.308785	-82.836594	-0.49232	0.600391	0.174113	8.024633	5.620696	3.55991	24.243048	-1.582722	0.952038	-0.633348	0.07974	0.833801
-0.739162	-0.639113	9.55365	-6.454311	0.886563	1.819672	-0.255506	-1.316105	-1.401169	-6.819882	-3.494625	-0.293273	-24.133982	-117.792595	-73.209394	-0.498324	0.576375	0.180117	8.647857	5.502863	3.400496	25.236422	7.390567	0.015243	-0.570125	0.092514	0.821102
-0.962246	-0.231754	9.896945	-5.808581	0.871219	1.681454	-0.251015	-1.301098	-1.347793	-7.025839	-3.329103	3.890001	-42.197914	-20.296981	-53.05996	-0.504328	0.576375	0.180117	8.805058	5.557264	2.719032	27.802637	14.633323	1.359723	-0.565246	0.07026	0.817884
-0.90508	0.000362	9.898647	-3.676408	1.002689	1.422253	-0.27299	-1.355399	-1.381798	-9.006699	-2.067915	6.975657	-43.368777	47.701971	-36.719853	-0.510332	0.576375	0.168109	8.633557	5.325757	2.65751	30.74306	19.647149	2.482634	-0.596857	0.063873	0.824233
-1.081594	-0.232201	9.6634	-2.407165	1.124435	1.305404	-0.274279	-1.314123	-1.456647	-7.438421	-2.763782	9.189221	-13.035141	82.686916	-26.397092	-0.510332	0.558363	0.174113	8.295163	5.385124	2.822291	31.844052	22.202679	2.551621	-0.616879	0.078432	0.832938
-0.678567	-0.406579	9.728796	-1.158166	1.522884	1.261519	-0.28548	-1.300512	-1.404269	-5.345026	-2.770291	9.347427	20.699454	93.852301	-22.301522	-0.504328	0.564367	0.174113	8.288974	5.094065	2.478424	31.012312	22.809466	2.257815	-0.619105	0.082682	0.845404
-0.903269	-0.696011	9.954785	0.628064	1.604331	0.825133	-0.318656	-1.341203	-1.385896	-5.150119	-2.882613	7.640972	41.523875	91.545134	-21.815557	-0.516336	0.540352	0.168109	8.394408	5.381479	2.082346	29.321408	22.747568	2.953608	-0.619105	0.082682	0.845404
-1.374529	0.057592	9.36931	0.984377	1.899073	1.103803	-0.290354	-1.335031	-1.43838	-4.229898	-3.110823	5.417845	45.266085	87.827298	-22.715578	-0.516336	0.540352	0.162106	8.160002	4.743234	1.675304	27.786962	21.578841	4.042925	-0.59951	0.081878	0.814986
-1.083825	-0.290523	9.54763	1.491529	2.254652	1.136912	-0.301937	-1.340933	-1.366738	-3.984034	-3.910115	3.300693	31.293514	93.741253	-23.961123	-0.504328	0.546356	0.126082	8.613182	4.799695	1.570393	26.192005	19.928506	4.500809	-0.587021	0.107577	0.800251
-0.973732	-0.175108	9.318937	1.409763	2.626924	1.093026	-0.269526	-1.339266	-1.346582	-3.670996	-3.908701	1.891209	2.510085	112.218193	-23.924007	-0.516336	0.540352	0.096063	8.432785	4.508188	1.05187	24.443205	18.147942	3.278741	-0.607515	0.103628	0.84776
-1.200998	-0.174606	9.429994	0.733767	3.050461	0.69866	-0.318919	-1.301053	-1.442586	-3.669398	-4.08068	1.950514	-34.093238	140.361917	-22.82762	-0.528344	0.516336	0.084055	8.203658	4.624173	0.990799	22.726036	15.89232	1.058557	-0.588347	0.116579	0.795627
-0.793232	-0.522553	9.726231	0.796561	3.079587	0.698363	-0.331147	-1.286316	-1.408368	-3.472503	-4.141021	3.428879	-66.485689	170.170911	-20.726334	-0.516336	0.528344	0.072047	8.027652	4.391615	0.700908	21.039324	13.733523	-1.46958	-0.619105	0.082682	0.845404
-1.138118	0.058208	9.72077	0.213599	3.124057	0.836285	-0.259352	-1.35175	-1.41712	-3.2046	-3.229186	5.850609	-87.058054	192.860958	-18.151513	-0.510332	0.540352	0.042027	7.518644	4.914757	0.921506	19.78352	11.530323	-2.709812	-0.604389	0.104132	0.818204
-0.912217	0.289737	9.552457	-0.738625	3.240188	0.955368	-0.270171	-1.318628	-1.384007	-2.710107	-2.48991	8.276989	-93.557959	205.596687	-13.883566	-0.504328	0.52234	0.03002	7.910262	5.028177	0.587362	19.081657	9.227919	-2.996626	-0.569698	0.078758	0.842816
-0.967096	0.057901	9.666384	-1.472287	3.443311	1.042269	-0.255506	-1.316105	-1.401169	-1.823812	-1.923298	10.47528	-87.383905	210.396214	-6.75345	-0.504328	0.534348	-0.006004	7.571765	4.566214	0.692686	18.626577	6.590914	-3.243769	-0.604862	0.085623	0.857008
-0.844738	-0.695927	10.013742	-2.592688	3.258131	1.000177	-0.301172	-1.301909	-1.405267	-1.763969	-1.58012	10.711758	-73.590896	210.136861	3.452137	-0.480313	0.540352	-0.018012	7.52349	4.74212	1.149086	19.615108	4.695493	-2.705133	-0.641779	0.115246	0.844862
-1.016149	-0.289321	10.069106	-2.355287	3.069268	0.83398	-0.269144	-1.319754	-1.365847	-0.84798	-1.125726	11.436334	-60.251753	208.25066	15.361091	-0.456297	0.540352	-0.042027	7.68936	4.972312	0.925148	19.864564	3.226861	-2.639147	-0.590619	0.088564	0.868611
-1.142189	-0.464736	9.488253	-1.710051	3.211066	0.457754	-0.287272	-1.33841	-1.3839	0.330173	-1.472146	10.928761	-55.201294	209.266883	28.991927	-0.432281	0.546356	-0.090059	8.093833	4.277811	1.158246	20.173816	2.41215	-3.230297	-0.575004	0.114768	0.82432
-1.307996	0.058654	9.832971	-0.93475	3.157481	0.62048	-0.255506	-1.316105	-1.401169	1.536472	-1.42026	12.013482	-54.180957	211.391101	43.703408	-0.41427	0.558363	-0.090059	8.142551	4.449546	0.760515	19.712722	2.292928	-3.841719	-0.619105	0.082682	0.845404
-0.796606	-0.581015	9.552647	-0.509608	2.993648	0.511967	-0.289709	-1.355669	-1.400956	1.264741	-1.420423	12.598051	-51.608966	210.262188	58.116958	-0.372242	0.558363	-0.10807	7.984451	4.27909	1.384362	18.698203	2.246152	-3.601404	-0.58882	0.098071	0.834431
-1.365915	-0.5799	9.772476	-0.348913	3.04854	0.693758	-0.270553	-1.33814	-1.364742	2.064238	-1.996343	12.96828	-47.928555	206.683754	73.257656	-0.324211	0.588383	-0.102066	7.984326	4.916213	1.444345	16.484973	2.055205	-2.90541	-0.639553	0.110997	0.832396
-1.368535	-0.231923	9.657685	0.144337	2.879263	0.858436	-0.273252	-1.315249	-1.438487	2.42023	-1.827112	13.918498	-42.486262	200.837151	88.124995	-0.294191	0.588383	-0.120078	8.438633	4.972937	1.396526	14.363953	1.921711	-1.873818	-0.58972	0.093317	0.851521
-0.905945	-0.289992	9.840133	0.612536	3.209151	0.585822	-0.289971	-1.315519	-1.457645	2.477261	-1.99916	13.919889	-38.040521	192.623717	101.5163	-0.240156	0.582379	-0.10807	7.703785	4.512296	1.608151	12.519516	1.85338	-0.872839	-0.588393	0.084315	0.856145
-0.621068	-0.52272	9.72966	1.551944	3.678914	0.429989	-0.274662	-1.333635	-1.437382	2.361239	-2.456752	13.682528	-36.958552	184.65087	113.654306	-0.174113	0.600391	-0.084055	8.377639	4.740413	1.16598	11.228208	1.862231	-0.482381	-0.605762	0.08087	0.874097
-1.251417	-0.289798	9.775461	1.229377	4.116631	0.577872	-0.269144	-1.319754	-1.365847	2.815845	-2.916557	13.751033	-39.334737	177.61743	124.340722	-0.150098	0.600391	-0.072047	8.384067	4.336453	1.4496	10.736771	1.588017	-0.998609	-0.58882	0.098071	0.834431
-0.959095	0.058879	10.071088	0.45746	4.293637	0.389576	-0.303227	-1.299656	-1.441587	3.219941	-3.204922	14.172148	-45.154589	172.318455	134.397996	-0.120078	0.612399	-0.03002	7.988831	4.917265	1.672714	11.168206	1.084946	-1.841007	-0.587493	0.089068	0.839055
-1.251473	-0.231755	9.7756	-0.408771	4.379982	0.260916	-0.303992	-1.33868	-1.403058	3.5042	-3.0341	14.295277	-52.407059	167.893492	143.204424	-0.090059	0.612399	0.006004	8.331742	4.279722	1.67658	11.814444	0.74095	-2.900039	-0.593272	0.106569	0.859363
-0.952014	-0.172453	10.417417	-1.022035	4.550383	0.251934	-0.324174	-1.355084	-1.457432	3.966988	-3.32284	14.835479	-57.314068	163.273751	150.307841	-0.054035	0.594387	0.03002	7.704695	4.049125	1.606048	12.951451	0.921359	-3.785086	-0.624457	0.086427	0.887426
-0.960127	-0.057346	10.012993	-0.887674	4.979749	0.113578	-0.285098	-1.281	-1.423534	4.428924	-3.325117	15.375174	-59.884219	157.242307	156.371535	-0.042027	0.582379	0.066043	7.937417	4.397362	1.897591	14.58018	1.307885	-3.693538	-0.572778	0.110518	0.811854
-0.854161	-0.406831	9.551923	0.315068	6.060554	-0.206773	-0.289327	-1.336157	-1.42022	4.605684	-3.555407	15.732841	-57.991171	150.186638	161.189026	-0.042027	0.570371	0.114074	8.042168	5.032155	1.50309	16.270202	1.813692	-3.329159	-0.607988	0.085119	0.886564
-1.250385	-0.173572	9.833555	1.257616	6.904832	-0.744567	-0.303992	-1.33868	-1.403058	4.943843	-2.869022	15.797143	-53.955081	143.046596	165.306013	-0.042027	0.594387	0.132086	7.986135	4.569098	1.49986	17.283882	2.199436	-3.69968	-0.624411	0.118691	0.826909
-1.083936	-0.174438	9.54791	1.490781	7.516261	-0.877793	-0.306046	-1.336428	-1.439378	5.499599	-2.984397	15.277211	-49.401351	136.211061	167.97346	-0.024016	0.588383	0.162106	8.211997	4.394428	1.389392	17.283071	2.456874	-4.531462	-0.579029	0.10951	0.870966
-1.368201	-0.580179	9.656846	2.152037	7.836612	-0.819236	-0.290736	-1.354543	-1.419116	6.456724	-2.47146	15.17677	-43.788181	129.513128	168.976012	-0.042027	0.582379	0.174113	7.76512	4.57113	1.837908	16.422779	2.171772	-4.621231	-0.660047	0.107047	0.879905
-1.709966	-0.869779	9.764919	2.069757	8.020996	-0.626352	-0.287272	-1.33841	-1.3839	6.784293	-2.242298	14.592882	-38.930454	123.634229	168.639204	-0.036023	0.582379	0.192125	7.645158	4.222402	1.491526	15.440511	1.563697	-3.694846	-0.609314	0.094121	0.88194
-1.010545	-0.172537	10.35846	1.568814	7.787136	-0.562931	-0.273635	-1.334761	-1.419222	7.297848	-5.008888	23.631301	-34.793054	120.478342	166.805987	-0.042027	0.594387	0.204133	8.154485	4.684023	1.389581	14.951096	0.592058	-2.635042	-0.576376	0.091506	0.880214
-1.593572	-0.173099	9.884512	1.516204	8.128277	-0.639347	-0.301817	-1.28127	-1.442692	6.465551	-2.863001	9.456638	9.1986	98.829233	153.578872	-0.036023	0.594387	0.216141	8.154485	4.684023	1.389581	13.446924	-0.332144	-1.490043	-0.57595	0.07775	0.901928
-1.299327	-0.63688	10.235997	1.57433	8.599359	-1.446477	-0.241224	-1.333094	-1.399066	7.594237	-2.293485	9.477355	6.31111	116.782647	148.723571	-0.048031	0.600391	0.198129	7.928293	4.453156	1.441116	13.633778	-1.179652	0.029283	-0.573251	0.09201	0.850658
-1.198545	-0.348455	9.545205	1.763993	8.811435	-1.564511	-0.283044	-1.283253	-1.387214	12.892002	1.305431	6.270182	16.731179	125.226652	127.406144	-0.036023	0.612399	0.180117	8.482641	4.10096	0.651511	14.005104	-2.105065	0.756192	-0.608887	0.080366	0.903653
-1.084047	-0.058353	9.548189	2.983867	9.241026	-1.575864	-0.253069	-1.298845	-1.384113	12.195961	-4.767279	7.387819	-8.306133	135.889636	94.423606	-0.036023	0.618402	0.192125	8.20491	3.987313	0.987907	13.790194	-2.178082	1.368427	-0.607988	0.085119	0.886564
-1.192608	-0.579927	9.83372	4.019208	9.61229	-1.462989	-0.272225	-1.316375	-1.420327	15.78799	-6.900171	8.817038	-16.488584	132.052454	54.051044	-0.012008	0.63041	0.198129	8.033181	3.871598	0.926911	13.113273	-1.757457	3.434791	-0.547464	0.083633	0.925134
-1.245535	-0.463227	10.064115	4.737889	9.714075	-1.292537	-0.223095	-1.314438	-1.381013	18.041265	-2.548164	6.080867	-40.557409	123.593922	2.170163	-0.018012	0.63041	0.192125	7.971391	4.04435	0.698204	13.052591	-1.800807	6.3104	-0.629762	0.122436	0.868931
-1.882966	0.001028	9.763586	4.71962	10.115055	-1.306194	-0.27299	-1.355399	-1.381798	15.05323	-2.138896	6.494566	-36.568082	110.692135	-44.117124	-0.012008	0.642418	0.180117	8.149878	4.161641	1.101754	12.131532	-2.150855	8.485034	-0.559907	0.090198	0.879351
-1.545105	-0.406443	9.422578	5.06621	10.2902	-1.276679	-0.226941	-1.350083	-1.396964	14.965546	-4.088325	7.557847	-17.616796	94.090746	-86.010956	-0.006004	0.66043	0.192125	7.475113	4.396695	1.546028	11.333509	-2.609307	9.80648	-0.583954	0.0995	0.934702
-1.304345	-0.173098	10.005856	5.188072	11.336648	-1.48107	-0.270816	-1.297989	-1.421431	15.362661	-0.944558	11.216794	29.04767	64.332625	-108.519587	-0.018012	0.666434	0.192125	7.645613	3.990816	1.490474	10.381091	-2.792885	11.059548	-0.595498	0.110818	0.871829
-1.184606	-0.578949	10.238423	4.930477	12.429531	-2.10236	-0.274017	-1.354273	-1.399958	15.188224	1.061087	11.268981	61.166188	30.918345	-119.16607	-0.024016	0.66043	0.192125	7.76446	3.760055	1.720044	10.872837	-2.534976	12.677137	-0.595971	0.09231	0.910633
-1.883719	-0.405411	9.704794	6.274173	12.949827	-2.235166	-0.27158	-1.337013	-1.382902	17.225472	8.953762	15.777018	84.895355	-8.087458	-126.77307	-0.03002	0.654426	0.180117	8.046252	3.527112	1.553347	12.747292	-1.998952	13.225284	-0.595071	0.097063	0.893543
-1.189123	-0.63755	10.007024	8.073772	13.193656	-1.015006	-0.273635	-1.334761	-1.419222	15.948676	7.757822	13.749238	162.31339	-45.003467	-114.725241	-0.042027	0.66043	0.156102	7.751843	3.872956	1.092556	13.792028	-1.737238	12.980164	-0.562133	0.094447	0.891817
-1.416779	-0.230749	10.11906	11.504773	14.132854	0.225503	-0.274017	-1.354273	-1.399958	16.078056	4.090258	14.052909	219.980908	-85.355972	-100.695632	-0.054035	0.666434	0.168109	7.655078	3.761334	1.94616	13.546356	-1.890353	12.76831	-0.597724	0.115068	0.884295
-1.577513	-0.229185	10.693779	8.884006	14.38304	2.865066	-0.284836	-1.321151	-1.366845	11.381445	5.604325	7.767233	225.925986	-136.628405	-60.779341	-0.054035	0.654426	0.144094	8.391962	3.759066	1.789525	11.855666	-2.252722	10.993782	-0.565732	0.075434	0.960176
-1.143483	0.645118	12.380504	4.787689	19.754655	5.41392	-0.272225	-1.316375	-1.420327	-15.581313	10.002075	-4.495397	70.114775	-172.935957	-29.096341	-0.060039	0.66043	0.132086	7.81485	4.801024	1.497533	10.503474	-2.706052	9.437256	-0.580829	0.100004	0.905146
-0.880782	0.648948	14.061704	7.960361	45.280561	3.91152	-0.207403	-1.313042	-1.380015	-6.409393	0.611374	10.382795	-26.134252	-197.23247	-13.215484	-0.066043	0.654426	0.114074	8.115994	5.615211	2.420319	4.725235	-3.794499	7.74932	-0.629382	0.076416	0.951162
-0.920246	-0.161498	14.925826	9.080139	62.726381	5.151456	-0.238787	-1.315835	-1.382011	1.846172	1.153799	13.902353	40.589814	-232.011376	26.596667	-0.072047	0.66043	0.120078	8.217811	6.596856	1.913211	-1.851818	-4.48484	11.614111	-0.581301	0.081495	0.94395
-1.497111	-0.625702	14.739834	8.367476	80.540548	5.563818	-0.22386	-1.353462	-1.342483	5.482541	3.49966	9.249896	45.491101	-242.092751	-17.893478	-0.072047	0.666434	0.120078	9.633042	7.402985	1.602494	-9.973838	-1.661201	16.918202	-0.597297	0.101312	0.906009
-1.364269	-0.391407	15.667716	8.930691	99.127745	7.872299	-0.196584	-1.346164	-1.413128	5.320084	-1.087722	11.967678	38.596668	-201.789004	-58.956945	-0.072047	0.66043	0.120078	12.009234	7.220838	0.849718	-17.52164	5.167432	19.165897	-0.60175	0.10981	0.930941
-1.417085	-0.390792	15.897832	9.425376	122.822568	10.758868	-0.224122	-1.313312	-1.399173	3.007066	-1.424793	12.100735	-2.417534	-136.01256	-54.41918	-0.102066	0.648422	0.120078	13.980395	7.443447	-0.194563	-20.216418	14.22336	24.018071	-0.580875	0.06774	0.965663
-1.434857	0.020453	17.921184	8.183056	152.297483	13.373962	-0.192093	-1.331157	-1.359752	0.344235	-1.817119	11.637373	3.76588	-106.265853	-32.268182	-0.10807	0.642418	0.114074	13.346033	6.921528	-0.666055	-21.491045	20.672819	28.112519	-0.599051	0.12407	0.879671
-1.010754	-0.673794	19.025988	6.892892	181.502771	15.642906	-0.186838	-1.277126	-1.344906	-3.261185	-10.174796	13.941568	84.848642	-45.793008	15.487329	-0.10807	0.666434	0.10807	10.729463	6.637805	-0.604992	-28.076617	22.211581	15.930853	-0.581301	0.081495	0.94395
-1.103979	-0.496899	20.122602	10.75507	213.146448	16.636424	-0.125862	-1.309438	-1.320544	1.964396	1.621405	8.123871	50.360687	-20.860505	9.81085	-0.120078	0.654426	0.114074	9.270348	6.06653	0.390755	-31.914835	18.198757	-3.876457	-0.618219	0.111118	0.931804
-0.923733	-1.773167	20.469846	14.994451	244.998146	17.598879	-0.091658	-1.269873	-1.320758	1.006291	0.707623	8.107022	33.415863	-17.168752	4.204893	-0.114074	0.654426	0.090059	8.087497	5.782329	0.993804	-32.333734	12.784016	-8.922115	-0.550544	0.115393	0.894173
-2.063217	-2.061289	20.850991	24.162129	270.497737	18.519518	-0.074939	-1.269603	-1.301599	0.312169	-0.897699	10.042744	17.198244	-11.35347	6.00163	-0.096063	0.648422	0.102066	7.236533	4.162936	0.96955	-28.417571	8.413657	-2.254373	-0.533648	0.10033	0.915023
-1.11423	-3.161357	22.369807	43.118635	297.192529	23.596317	-0.010117	-1.266269	-1.261287	1.098967	-1.586985	9.705174	33.616828	-15.352298	9.042089	-0.120078	0.648422	0.096063	6.441363	3.70162	1.008771	-23.244705	5.62685	4.046792	-0.599097	0.091806	0.940189
-0.83618	-2.233931	21.973055	56.397894	322.514807	29.821487	0.053295	-1.281321	-1.219871	1.493006	-1.4162	9.653476	34.587699	-12.389553	5.210489	-0.102066	0.642418	0.102066	6.438997	3.758991	0.89485	-16.692537	4.395152	7.872441	-0.617792	0.097363	0.953518
-3.072743	-1.251798	19.156888	76.607114	337.892694	28.597174	0.088143	-1.262395	-1.182659	0.871526	-1.127964	9.700015	38.671414	-11.741397	1.488006	-0.10807	0.654426	0.090059	6.051645	4.341643	1.517609	-10.7577	3.857974	7.733301	-0.567485	0.098192	0.933839
-1.102053	1.070672	20.29982	83.764072	337.78764	29.125742	0.109353	-1.247118	-1.110125	1.257106	-0.670006	9.234808	41.644884	-12.250833	1.100043	-0.10807	0.648422	0.102066	5.894546	4.808572	2.258531	-5.469511	3.534802	5.016648	-0.617365	0.083607	0.975231
0.132904	2.176088	21.887476	96.270497	325.288169	24.158986	0.157074	-1.263567	-1.069707	1.428561	-0.212482	9.414257	33.611737	-10.51898	0.08149	-0.120078	0.636414	0.096063	6.454855	4.863228	1.813319	-2.215319	5.326701	2.606997	-0.60085	0.114564	0.913851
-1.544824	0.014081	15.260561	96.437243	323.50896	13.966109	0.17623	-1.246037	-1.033493	1.105168	-0.384758	10.234044	31.852648	-11.285272	0.683445	-0.10807	0.642418	0.084055	6.283912	4.921466	1.810203	0.758717	8.856141	2.632888	-0.582628	0.090498	0.939326
0.190046	-1.618429	12.97949	84.326273	322.619698	14.706328	0.19744	-1.23076	-0.960959	0.85725	0.0189	9.107983	29.321246	-11.979297	0.545509	-0.120078	0.624406	0.078051	6.443593	4.8606	1.242397	1.42699	12.728185	6.553238	-0.597297	0.101312	0.906009
1.40424	-3.657296	10.455895	63.798763	330.377039	19.271567	0.224977	-1.263612	-0.974914	0.913664	0.419675	9.167359	20.531592	-9.80537	1.746086	-0.102066	0.648422	0.078051	7.402835	5.319997	0.864001	-5.250517	15.829763	12.898586	-0.565686	0.107699	0.899659
4.217444	-4.653791	7.61993	44.048697	336.879971	30.888056	0.292236	-1.243019	-0.917547	1.142767	0.132328	9.290214	13.091078	-7.654153	1.721849	-0.10807	0.636414	0.084055	9.143731	6.237555	-0.238722	-16.722289	17.961539	16.579788	-0.611967	0.112126	0.872692
13.744561	-6.555886	-6.758414	36.279757	300.812606	59.300941	0.292499	-1.283169	-0.860857	0.922974	-0.15396	9.581376	10.610031	-7.427291	2.351935	-0.096063	0.642418	0.084055	10.835477	6.05651	-1.062106	-26.379991	19.428443	12.885035	-0.599524	0.105561	0.918475
11.288626	-3.076158	-8.937182	-0.471696	174.07425	67.808505	0.298137	-1.209626	-0.865276	1.199223	-0.211496	9.23291	5.926333	-7.688777	2.227277	-0.10807	0.642418	0.090059	11.171961	5.822928	-1.34186	-32.678844	17.280836	5.744364	-0.601323	0.096055	0.952655
10.258722	-2.240872	-0.055753	-63.202113	47.842766	67.141637	0.280653	-1.248921	-0.845904	0.972122	0.132941	9.227954	3.710649	-8.493119	1.576351	-0.102066	0.648422	0.084055	9.977847	5.536098	-1.309734	-37.584846	11.461848	1.479355	-0.581728	0.095251	0.922236
11.342567	0.274615	8.467314	-81.909538	-32.599153	56.731929	0.300836	-1.232517	-0.791531	1.539938	-0.384497	9.298734	1.986351	-7.801883	1.065291	-0.102066	0.618402	0.078051	9.350003	5.710775	-1.378426	-42.483334	2.970338	1.802869	-0.581728	0.095251	0.922236
9.821678	1.215476	12.831469	-39.029048	-75.475866	39.401511	0.253115	-1.216069	-0.831949	1.376558	-0.27001	9.649272	0.020712	-6.8982	-0.319585	-0.102066	0.624406	0.072047	9.304209	5.771414	-0.808368	-46.028931	-5.760867	0.793475	-0.547891	0.097388	0.90342
7.120195	0.869276	12.545652	23.425304	-92.850924	21.76854	0.255934	-1.179297	-0.834159	1.652295	-0.155668	9.300501	-0.684165	-6.668737	-1.144562	-0.10807	0.63041	0.078051	8.74671	6.007029	-0.190565	-44.132922	-14.839673	-1.187921	-0.581728	0.095251	0.922236
5.546582	0.048064	8.351315	67.992184	-99.500407	6.683764	0.220059	-1.197097	-0.88953	1.024977	-0.095994	8.993446	-3.057414	-6.121155	-1.363117	-0.102066	0.642418	0.078051	9.27665	6.299693	0.73436	-37.600416	-21.382943	-0.848147	-0.546564	0.088386	0.908044
4.45527	-1.119054	5.321578	79.261108	-107.830376	-5.26371	0.202958	-1.216879	-0.889424	1.041788	-0.269394	9.878753	-4.45009	-5.932869	-1.454936	-0.096063	0.642418	0.090059	9.454477	5.605909	1.020045	-31.477352	-23.995976	-3.446135	-0.596398	0.106065	0.888919
3.679332	-3.327866	3.682596	66.677884	-117.855009	-13.382782	0.138135	-1.220213	-0.929736	1.150586	-0.670274	9.586636	-3.82163	-6.127664	-1.79932	-0.102066	0.648422	0.084055	9.760933	5.436646	2.109639	-27.268499	-23.399048	-9.187464	-0.563506	0.071185	0.94771
3.719965	-3.736316	2.815539	40.403892	-128.349468	-18.964911	0.123733	-1.262886	-0.855884	1.210835	-0.098028	9.881708	-1.949366	-6.703584	-2.398794	-0.114074	0.636414	0.072047	9.926575	5.782631	1.886226	-25.953542	-20.816028	-12.818886	-0.579548	0.058737	0.970287
3.839424	-3.851954	3.048805	9.435383	-139.829128	-24.384058	0.072166	-1.282083	-0.912254	1.040978	-0.72753	9.761565	-0.602229	-6.14261	-2.90626	-0.102066	0.618402	0.084055	10.282546	5.379828	2.576249	-26.1783	-16.609676	-11.480073	-0.563933	0.084941	0.925997
3.57766	-2.687608	4.375624	-15.335129	-152.950028	-29.864936	0.056474	-1.283479	-0.913252	1.208086	-0.2696	9.705012	-1.036942	-5.598224	-2.855539	-0.096063	0.636414	0.078051	9.877516	5.784585	2.284745	-25.604091	-12.161949	-9.224986	-0.545711	0.060875	0.951471
3.268265	-2.160558	6.162282	-27.393651	-166.18149	-33.910717	0.006961	-1.304928	-0.933302	0.979089	-0.383199	9.523868	-0.69381	-5.548408	-2.895722	-0.102066	0.636414	0.090059	9.370999	5.613234	2.559281	-23.062515	-7.979241	-10.195315	-0.547037	0.069877	0.946848
2.599791	-1.751076	7.19021	-32.798196	-178.722011	-36.069607	-0.004885	-1.27068	-0.918349	0.979089	-0.383199	9.523868	-0.848058	-5.900937	-3.159966	-0.114074	0.642418	0.066043	9.20175	5.382253	2.611943	-19.445568	-3.803449	-13.943079	-0.582201	0.076742	0.961039
2.148687	-1.749653	7.58577	-37.726497	-192.567719	-35.910157	-0.083345	-1.277662	-0.923339	1.433419	-0.384765	9.650562	-0.719674	-5.935153	-3.784928	-0.096063	0.636414	0.084055	9.085384	5.497747	2.496032	-16.229219	0.768493	-17.885766	-0.552816	0.087378	0.967156
1.587212	-1.573431	8.210722	-40.465069	-206.894441	-34.019792	-0.11781	-1.277077	-0.979815	1.3106	-0.383511	9.117387	-1.115796	-5.694017	-3.909587	-0.114074	0.648422	0.084055	8.62118	4.743638	1.969775	-14.025308	4.629495	-20.196335	-0.532794	0.072819	0.958451
1.152863	-1.163613	9.474481	-40.759417	-219.303275	-30.7643	-0.153423	-1.335027	-0.978497	1.086589	0.017913	9.28933	-1.402516	-5.648484	-3.370857	-0.114074	0.636414	0.078051	8.615207	4.916013	1.685103	-12.434535	7.93642	-20.784466	-0.517225	0.066757	0.974678
0.577783	-1.105154	9.405376	-41.270932	-228.610122	-26.551154	-0.248339	-1.38243	-0.945956	1.376899	-0.384595	9.649475	-1.40019	-6.043252	-3.550788	-0.102066	0.66043	0.066043	8.430863	4.9132	0.996618	-11.639293	9.718491	-20.454473	-0.547937	0.065124	0.963937
-0.208562	-1.044236	10.256736	-43.728051	-234.707411	-21.395898	-0.281778	-1.382971	-0.984272	1.433419	-0.384765	9.650562	-0.922348	-6.114897	-3.170989	-0.126082	0.636414	0.084055	8.548367	4.218742	1.109901	-11.148278	10.146843	-20.002957	-0.528342	0.06432	0.933519
-1.239764	-0.520571	10.353049	-51.058808	-237.691534	-16.088417	-0.356774	-1.37382	-0.954047	1.151055	-0.097553	9.703621	0.100613	-6.056521	-3.328051	-0.084055	0.618402	0.084055	8.043306	4.453191	1.500461	-10.500114	9.054146	-20.157653	-0.543012	0.075134	0.900202
-0.939107	-0.519172	11.052541	-58.555164	-238.819117	-11.189521	-0.404232	-1.397522	-0.937776	1.430904	-0.269978	9.532358	-0.057781	-5.262442	-2.931406	-0.096063	0.636414	0.090059	8.089772	4.624401	0.988546	-9.913111	7.836274	-20.187425	-0.54661	0.056122	0.968561
-0.931439	-0.169938	11.458083	-64.031264	-239.237147	-8.142909	-0.466356	-1.423746	-0.904343	1.145558	-0.440698	9.350229	1.072063	-5.094279	-2.899881	-0.10807	0.642418	0.102066	8.039927	4.452402	1.329184	-9.017216	6.008733	-20.170809	-0.514526	0.081017	0.923408
-1.082053	0.007012	12.553554	-67.566279	-237.822752	-7.909056	-0.574528	-1.455287	-0.855745	1.535591	-0.384091	9.062733	1.403984	-4.871229	-2.681306	-0.102066	0.642418	0.078051	7.694434	4.683882	1.152202	-7.967596	4.102442	-20.916228	-0.527016	0.055318	0.938142
-0.49794	0.065756	13.085457	-68.86077	-234.92338	-10.417697	-0.616468	-1.465108	-0.767938	1.204145	-0.040126	9.527606	2.373946	-5.371587	-3.397662	-0.126082	0.63041	0.072047	7.291667	4.509938	0.915161	-6.857534	2.654833	-21.549611	-0.495404	0.061704	0.931793
-1.246272	0.0662	12.954968	-72.775406	-233.023365	-11.224391	-0.628052	-1.47101	-0.696296	1.535485	0.016854	9.121023	2.754986	-5.724559	-3.495964	-0.10807	0.648422	0.078051	7.524059	4.452638	1.147772	-5.903495	2.293332	-21.169047	-0.50922	0.045007	0.941903
-1.746318	-0.395684	13.75297	-76.311834	-233.596729	-9.635954	-0.625353	-1.4939	-0.622551	1.083563	0.304578	9.170822	2.878976	-5.662624	-3.589213	-0.10807	0.624406	0.072047	7.35167	3.525848	0.968911	-5.105334	2.929623	-20.017189	-0.525689	0.046315	0.942766
-3.274947	-0.68188	14.762077	-78.345984	-233.486715	-6.893933	-0.670113	-1.540493	-0.532536	1.144536	-0.096944	9.34962	3.574168	-6.235614	-3.311282	-0.090059	0.636414	0.090059	7.120052	4.336327	0.853901	-4.27817	4.38297	-18.150037	-0.559054	0.062687	0.922778
-3.777668	-0.737745	15.445428	-81.505467	-229.025158	-2.785075	-0.715255	-1.606598	-0.423256	0.922463	0.017917	9.581071	4.015118	-6.040012	-2.665762	-0.102066	0.63041	0.084055	7.346813	4.277713	0.801051	-3.050571	5.559944	-15.907293	-0.513672	0.053506	0.966835
-4.868965	-0.968999	15.365337	-88.03691	-219.198369	0.402131	-0.680789	-1.607183	-0.36678	1.265011	-0.040703	9.764693	4.168449	-5.987793	-2.018988	-0.102066	0.642418	0.072047	7.118027	4.220008	0.739191	-1.977654	7.054198	-14.529187	-0.477182	0.037638	0.957267
-5.252505	-0.850288	16.282652	-97.014659	-205.56202	2.092755	-0.66701	-1.703347	-0.269458	1.374726	-0.384392	9.531475	4.901473	-6.52772	-2.389311	-0.114074	0.624406	0.078051	7.346369	3.930071	0.742382	-1.579455	7.70095	-14.419699	-0.51012	0.040254	0.958993
-7.181399	-0.265174	17.401484	-104.533203	-192.54198	0.942437	-0.598079	-1.704518	-0.156506	1.543368	-0.442094	9.475836	6.046957	-7.131717	-2.469691	-0.114074	0.642418	0.072047	7.060765	3.235358	0.619412	-2.594468	8.060615	-12.659474	-0.523036	0.02831	0.952014
-8.691486	0.379688	19.395678	-101.59007	-184.638624	-4.395142	-0.535049	-1.739082	-0.095825	1.208662	-0.097825	9.763708	7.180022	-7.863228	-4.226667	-0.102066	0.636414	0.090059	7.851657	3.579829	0.351296	-4.43856	8.088152	-9.856084	-0.461613	0.031577	0.973494
-22.993406	2.684261	30.21239	-85.203516	-184.866171	-13.136601	-0.443071	-1.788113	-0.050203	1.38312	-1.015218	9.886593	9.525893	-9.152935	-5.229112	-0.10807	0.63041	0.060039	7.500976	4.157635	-0.052478	-6.466494	7.893434	-6.68153	-0.492325	0.029944	0.962754
-12.821723	17.692678	-23.237035	293.627627	-81.070523	-70.607527	-0.322409	-1.811459	-0.076329	1.151332	-0.555791	9.645433	11.078957	-9.92606	-6.540481	-0.10807	0.648422	0.084055	7.449096	4.448546	0.233171	-7.479019	7.264159	-4.347872	-0.512773	0.058259	0.949745
-20.954408	2.687509	8.581139	78.077278	-78.696895	-12.839574	-0.302608	-1.814568	-0.002691	1.555151	-0.385918	10.124736	11.889993	-11.297403	-7.708734	-0.114074	0.63041	0.078051	6.820706	3.754252	0.046351	-9.076081	6.810223	-1.929689	-0.474529	0.019634	0.966515
-29.268177	5.824097	6.053691	10.406337	-62.099159	-46.727767	-0.197638	-1.839311	-0.029816	1.055339	-0.442489	10.58706	13.754433	-14.232213	-10.715465	-0.120078	0.636414	0.066043	7.438629	4.040642	-0.339591	-12.175569	4.758269	1.618507	-0.508793	0.031252	0.963617
-35.864065	7.63756	9.105249	-23.168448	-23.635247	-42.608558	-0.136541	-1.81196	-0.081409	1.503489	-0.558031	10.359955	15.183957	-16.365103	-13.253226	-0.120078	0.624406	0.078051	6.75688	4.389911	-0.237344	-14.689664	2.191976	5.212311	-0.459813	0.041084	0.939314
-42.216575	8.625656	7.016195	-24.523832	28.124551	-37.364795	-0.115976	-1.776045	-0.0463	1.343199	-0.386556	10.887392	18.147674	-21.064955	-16.691488	-0.102066	0.63041	0.060039	7.042495	4.505398	-0.174095	-15.023089	0.407643	7.484542	-0.445098	0.062534	0.912114
-52.352179	8.231861	7.911391	22.356692	97.769285	-25.688769	-0.027987	-1.760908	-0.149272	1.350124	-0.158097	11.299987	21.082856	-24.850337	-19.76106	-0.120078	0.63041	0.066043	7.273192	4.737317	0.002738	-11.791107	-1.236575	7.41771	-0.52261	0.014555	0.973727
-51.176555	13.038118	3.785471	88.001653	191.616714	-22.325998	0.034399	-1.774834	-0.126015	0.789275	-0.156799	11.525121	21.034889	-31.095518	-20.994533	-0.114074	0.636414	0.072047	8.021646	6.30167	0.595398	-3.979862	-2.227038	6.351059	-0.458487	0.032081	0.943938
-3.815018	-3.753813	16.30424	50.864197	151.139712	56.720685	0.018324	-1.795742	-0.107749	1.964062	-0.101969	10.898838	15.100939	-39.874673	-16.705558	-0.126082	0.63041	0.054035	8.882552	6.301541	0.954845	6.04366	-2.486155	5.340504	-0.478981	0.028132	0.991447
-8.061111	-1.07227	19.289127	54.966815	65.686877	26.522652	0.034016	-1.794346	-0.106751	0.3655	0.529231	13.167215	9.32861	-58.070972	-12.655823	-0.126082	0.612399	0.054035	9.968263	8.385489	1.385352	13.882033	-2.048449	0.968312	-0.478082	0.032885	0.974357
-3.350566	0.927189	8.118434	59.30528	11.248063	5.755234	-0.008951	-1.803041	-0.037105	1.384896	-0.161346	13.187993	-2.165735	-69.947258	-11.763481	-0.132086	0.636414	0.066043	11.45723	8.674117	1.872686	20.062291	-2.676357	-5.253874	-0.443391	0.007512	0.998969
-0.741028	0.115302	9.497652	39.701509	0.384408	-6.448787	0.055226	-1.779069	-0.034217	1.239244	-0.163068	14.482736	-7.336043	-86.556438	-13.444549	-0.132086	0.624406	0.078051	13.680106	7.872651	4.823503	25.576613	-6.274259	2.291391	-0.488299	0.035201	0.916108
-1.441142	1.333608	8.966538	17.505994	2.294641	-8.440297	0.019352	-1.796869	-0.089589	1.294655	-1.251388	14.249751	-10.412843	-106.128222	-20.120933	-0.13809	0.624406	0.054035	12.822766	6.323097	7.367533	25.599793	-13.319672	29.031544	-0.493651	0.038946	0.95813
-0.527003	0.809775	8.752308	-5.181383	7.006475	-2.451436	0.039917	-1.760953	-0.05448	1.746854	-1.99735	14.141764	-15.959415	-125.557875	-30.408338	-0.132086	0.648422	0.066043	10.69673	5.743611	6.295574	18.843433	-16.005136	37.100273	-0.493651	0.038946	0.95813
-0.504617	0.115918	9.849112	-15.539229	2.723159	-6.964937	0.001485	-1.855675	-0.050953	1.59824	-1.368754	15.376391	-20.484587	-144.087933	-39.717797	-0.162106	0.636414	0.066043	9.899813	5.905635	3.427114	6.345132	-11.867212	16.233345	-0.474956	0.033389	0.944801
-1.191743	-0.289574	9.892233	-17.547663	1.988177	-3.249783	-0.028489	-1.840082	-0.054054	1.196957	-0.565162	15.190362	-21.56265	-164.857745	-43.020866	-0.156102	0.63041	0.060039	9.407874	6.65105	1.651664	-0.349817	-4.82117	-9.932336	-0.494977	0.047949	0.953506
-1.599985	-0.638279	9.536505	-16.457845	0.462306	0.481525	0.038507	-1.779339	-0.053375	0.872265	0.064554	16.067728	-20.956725	-185.307737	-42.005424	-0.168109	0.606395	0.060039	8.204648	5.840786	1.167595	-7.07092	1.401719	-26.079288	-0.477182	0.037638	0.957267
-1.592317	-0.289044	9.942047	-6.300601	-0.757442	0.098288	0.066045	-1.812191	-0.06733	1.479896	-0.680599	15.195999	-15.914522	-205.363833	-37.910802	-0.168109	0.624406	0.066043	8.242684	5.141184	0.137908	-12.976958	3.057332	-22.815355	-0.490998	0.020942	0.967378
-1.14269	0.057649	9.489511	-3.240905	-0.964601	0.29208	-0.008951	-1.803041	-0.037105	0.97073	-2.340038	14.894162	-10.129004	-220.263243	-35.460122	-0.174113	0.618402	0.066043	8.674568	5.71398	-0.992296	-14.687068	-0.227112	-7.302044	-0.413106	0.022901	0.987995
-1.200776	-0.406777	9.429435	-6.131664	-1.554424	1.803423	0.053817	-1.797454	-0.033113	2.059558	-0.798208	15.97407	-0.728042	-234.06671	-36.594898	-0.204133	0.612399	0.066043	8.601527	5.304876	-1.851645	-17.470355	-5.015326	5.395081	-0.429148	0.010453	1.010572
-1.306408	-0.405548	9.889668	-5.414208	-1.595206	3.43491	0.033896	-1.854008	-0.030797	2.386424	-1.428128	15.214705	6.960773	-248.694474	-38.98784	-0.222145	0.618402	0.072047	7.75401	5.945283	-1.466002	-15.369675	-9.175941	6.695639	-0.45986	0.008819	0.999832
-0.784032	-0.579478	10.188609	-1.508719	-1.423692	3.563033	0.021406	-1.799121	-0.053269	2.00485	-1.771908	15.915709	10.408508	-257.499209	-41.069386	-0.216141	0.624406	0.060039	6.807259	6.010108	-0.400134	-5.21535	-13.306389	2.3501	-0.441591	0.017018	0.964789
-1.019801	-0.05757	9.896221	2.602921	-0.548125	3.592937	-0.007542	-1.784655	-0.038209	4.047948	0.512233	16.77677	16.519157	-258.807688	-43.539719	-0.240156	0.624406	0.096063	6.942886	5.841186	0.686081	6.634463	-18.945804	-0.085724	-0.425549	0.029466	0.942212
-1.0193	-0.579954	9.894963	5.993797	0.289707	3.27171	-0.007159	-1.765143	-0.057474	3.249913	-0.854276	13.10707	27.820682	-265.680946	-45.504728	-0.24616	0.594387	0.072047	7.015039	5.555007	1.428091	15.62511	-24.12368	1.153139	-0.444244	0.035023	0.955541
-1.364019	-0.173321	9.889084	7.671786	1.758915	2.894893	0.021406	-1.799121	-0.053269	4.470735	-1.657785	11.775393	6.771314	-260.946451	-44.095422	-0.24616	0.600391	0.10807	7.209065	5.791772	2.631456	21.414002	-27.341833	3.950323	-0.443817	0.021267	0.977255
-0.795908	-0.116534	9.611579	4.694675	3.112358	2.012783	0.022433	-1.800247	-0.035109	3.430202	-2.626252	10.341555	-6.613749	-259.052177	-46.238772	-0.264172	0.606395	0.102066	8.201765	5.853517	3.906893	27.4129	-28.073035	8.678903	-0.422896	0.011461	0.95146
-0.90377	-0.173627	9.956042	-1.399315	3.497666	1.440039	-0.008951	-1.803041	-0.037105	1.818017	-3.248753	8.601241	-18.381988	-255.790704	-54.877236	-0.270176	0.594387	0.102066	8.32895	5.39301	4.535056	30.976227	-26.153053	12.384747	-0.464312	0.017318	1.024764
-0.674329	-0.057764	9.960894	-3.379975	3.771642	1.009424	0.052145	-1.77569	-0.088697	-6.662824	-4.415503	1.952531	-22.567765	-233.823721	-70.384607	-0.27618	0.606395	0.114074	7.995186	4.816306	4.868223	28.65821	-21.260308	11.157838	-0.443817	0.021267	0.977255
-0.852153	-0.116338	9.668251	-6.818204	3.836494	0.696547	0.034661	-1.814984	-0.069326	-12.98867	-2.558862	-0.708343	-24.77194	-168.013455	-82.100429	-0.312203	0.600391	0.126082	7.93847	4.700627	4.866571	23.13142	-12.20317	5.382427	-0.397963	0.030595	0.982509
-1.31795	-0.29086	9.311799	-10.491894	4.340025	0.28505	0.018969	-1.816381	-0.070324	-8.353402	-2.807115	2.44809	-54.316446	-77.550643	-71.971427	-0.312203	0.594387	0.126082	7.754682	4.987559	4.236493	19.478281	-1.834113	3.593122	-0.377942	0.016036	0.973803
-1.077022	-0.231642	9.894659	-9.422229	5.053386	0.075007	-0.024905	-1.764287	-0.094792	-10.830381	-2.12344	9.181906	-57.455057	7.008067	-52.020387	-0.318207	0.582379	0.150098	7.298454	5.335847	4.22906	20.441932	6.949768	5.076744	-0.428294	-0.017058	1.053999
-1.189234	-0.521465	10.007304	-5.723153	5.569674	0.161074	0.021023	-1.818633	-0.034004	-10.286165	-0.925488	11.31356	-22.412008	47.075207	-38.109675	-0.348227	0.582379	0.13809	7.731919	5.677321	3.154896	21.379762	13.352825	3.832251	-0.414005	0.018147	1.005085
-1.019912	0.058515	9.8965	-2.577598	6.256015	0.145049	0.022171	-1.760097	-0.091798	-8.494202	-1.903086	10.288056	22.458486	61.29452	-24.917861	-0.318207	0.588383	0.156102	7.556811	5.560818	2.922623	21.031531	17.230868	0.284367	-0.412252	-0.004611	1.031423
-0.854383	-0.174661	9.552482	-1.83574	6.643922	-0.40672	0.004687	-1.799391	-0.072427	-6.565622	-2.763565	7.495603	46.061798	64.437467	-16.888433	-0.318207	0.588383	0.156102	7.652917	4.861365	1.951154	19.765735	18.989596	-3.678128	-0.4327	0.023705	1.018414
-1.424669	-0.347813	9.714077	-0.235531	6.385627	-0.394248	0.019996	-1.817507	-0.052164	-6.395559	-4.019096	4.257173	40.568186	71.402367	-13.676553	-0.342223	0.588383	0.150098	8.72187	5.725021	1.405575	18.751231	18.888326	-3.895331	-0.411306	0.032407	0.953816
-1.422439	-0.289491	9.829846	1.442616	5.726007	-0.46123	0.050353	-1.813588	-0.068328	-5.68077	-4.248553	3.150702	15.666067	86.611841	-13.186585	-0.312203	0.582379	0.150098	8.957083	5.378765	1.751055	18.266159	16.399483	0.319369	-0.412679	0.009145	1.009709
-1.244615	-0.230916	10.122489	1.960418	5.559738	-0.572045	0.00084	-1.835037	-0.088378	-5.844789	-4.649495	3.384154	-16.554282	105.250948	-14.621236	-0.318207	0.594387	0.13809	8.88865	5.492043	1.179533	19.013655	12.871927	5.359905	-0.395737	0.026346	0.970043
-1.193109	-0.057543	9.834977	3.36656	5.732943	-0.201086	0.019352	-1.796869	-0.089589	-5.025646	-3.795337	5.049849	-44.287908	122.706583	-16.665678	-0.324211	0.594387	0.150098	8.202862	5.029448	0.992639	18.775388	9.69802	6.380343	-0.479454	0.009623	1.030251
-1.081372	-0.464372	9.662841	4.492062	6.134642	-0.2419	-0.008569	-1.783529	-0.056369	-4.43876	-3.054473	6.357399	-62.204513	138.676954	-18.482325	-0.336219	0.600391	0.144094	8.029325	5.260849	0.876127	17.025501	8.191992	3.16392	-0.415332	0.02715	1.000461
-1.365051	-0.289547	9.830989	4.373771	6.16609	-0.054441	-0.008569	-1.783529	-0.056369	-4.185793	-2.599455	7.894938	-70.669915	152.393013	-18.778186	-0.336219	0.576375	0.156102	7.68655	4.682042	0.752557	13.735348	7.761495	-1.553851	-0.412206	0.027654	0.970905
-1.419343	0.059184	10.004129	5.247137	6.357763	-0.00621	0.023842	-1.781862	-0.036213	-4.170452	-1.91357	8.837723	-72.323357	164.249239	-16.442907	-0.324211	0.600391	0.162106	7.407124	4.857614	1.033175	11.305467	7.886791	-3.77196	-0.4069	-0.008356	0.989401
-0.855638	-0.058715	9.494946	3.165353	6.231462	-0.236946	0.022433	-1.800247	-0.035109	-3.306871	-1.745772	9.73872	-68.540192	174.207749	-10.841846	-0.336219	0.600391	0.168109	7.629049	4.392411	0.693024	9.738988	7.220661	-3.550834	-0.44647	0.039272	0.968007
-1.195228	-0.23195	9.718928	2.319813	6.291766	-0.764437	-0.023878	-1.765413	-0.076632	-3.292723	-0.65884	10.680794	-62.754681	181.497164	-2.858166	-0.336219	0.582379	0.174113	7.348713	5.031154	0.975745	9.957219	6.018006	-2.848892	-0.396637	0.021593	0.987132
-0.962468	0.000417	9.897504	1.615231	6.526526	-0.799165	0.004304	-1.818903	-0.053162	-2.664723	-0.947684	10.988256	-60.303939	186.928825	5.868659	-0.342223	0.588383	0.174113	7.575928	4.740954	0.921844	10.421654	4.510673	-4.126609	-0.393511	0.022097	0.957576
-0.728288	-0.057289	10.133195	0.569708	6.927781	-1.093983	-0.025288	-1.783799	-0.075527	-1.138419	-1.410524	10.959407	-64.670011	191.690761	14.490643	-0.354231	0.570371	0.156102	7.815635	4.974976	1.555414	9.900229	3.79355	-5.794987	-0.39621	0.007837	1.008846
-1.482391	0.000499	9.713773	0.633716	6.799339	-0.825747	0.022815	-1.780735	-0.054373	0.342424	-0.843249	11.694647	-71.51594	196.15433	23.677281	-0.354231	0.576375	0.162106	7.186324	5.32308	1.430418	9.470281	3.493525	-6.585569	-0.382394	0.024534	0.998736
-1.130981	-0.231167	10.06696	1.287219	6.779324	-0.628189	0.00815	-1.783258	-0.037211	0.643665	-0.903119	12.703185	-73.528905	198.911597	34.77145	-0.336219	0.582379	0.168109	7.648867	4.628728	1.721734	9.131005	3.975231	-6.292707	-0.410407	0.03716	0.936726
-0.844961	-0.463756	10.014301	1.831418	6.175809	-0.329761	0.006096	-1.781006	-0.073531	1.233406	-0.391628	14.129141	-68.053436	198.111442	48.298673	-0.354231	0.588383	0.168109	7.469471	4.974608	1.320288	9.284064	4.280908	-6.115459	-0.429102	0.042717	0.950055
-1.311203	-0.173936	9.658967	2.13501	5.794456	-0.047048	-0.012415	-1.819174	-0.07232	1.181979	-0.277381	14.422853	-55.893179	193.561379	63.842489	-0.342223	0.564367	0.174113	7.413437	4.51155	1.317059	9.684063	4.216376	-5.56127	-0.411352	0.000143	1.014333
-1.250385	-0.173572	9.833555	3.065331	5.861933	-0.035831	0.001868	-1.836163	-0.070218	1.244954	-0.621813	14.719549	-44.177354	187.336614	81.392599	-0.342223	0.55236	0.180117	7.305182	4.513092	1.600267	10.422993	3.849509	-4.998249	-0.413579	0.004392	1.026799
-1.421351	-0.231308	9.887801	3.75492	6.277116	-0.218526	0.00366	-1.798265	-0.090587	1.468901	-1.36689	14.489215	-35.151834	181.371154	97.386842	-0.330215	0.564367	0.180117	7.479721	4.919077	1.833854	10.423556	3.658811	-4.53504	-0.423796	0.006708	0.96855
-1.366082	-0.405772	9.772895	3.638553	6.495608	-0.206786	0.023842	-1.781862	-0.036213	1.917265	-2.284324	14.145531	-30.804526	176.613146	111.372344	-0.342223	0.540352	0.162106	7.755666	4.221386	1.322502	9.501842	3.424287	-3.953432	-0.44737	0.034519	0.985097
-0.917654	-0.001176	9.262684	3.921451	6.830368	-0.474794	0.009942	-1.745361	-0.05758	2.30489	-2.513874	13.681542	-32.597042	172.872147	122.835194	-0.336219	0.546356	0.144094	7.815305	4.569439	1.496482	8.950986	2.476662	-2.496906	-0.349456	0.021918	0.99701
-1.245758	-0.231056	10.064674	3.4979	7.150072	-0.512714	0.027689	-1.746217	-0.020262	2.758878	-2.400856	13.808033	-38.181024	171.08983	130.917963	-0.348227	0.516336	0.162106	7.706367	4.918359	1.781267	8.922841	1.453487	-1.708698	-0.430428	0.05172	0.945431
-1.531277	-0.520852	10.116075	4.348701	7.463007	-0.275611	-0.008951	-1.803041	-0.037105	3.153471	-3.146546	13.639959	-45.460035	170.939516	137.160141	-0.348227	0.504328	0.144094	7.529906	4.917386	1.492428	9.201957	0.444515	-1.622629	-0.413106	0.022901	0.987995
-1.595579	-0.463592	9.768183	4.796652	7.724568	-0.000483	0.007123	-1.782132	-0.055371	3.844809	-2.806156	14.419391	-52.748808	171.619382	141.264354	-0.354231	0.510332	0.144094	7.647172	4.917947	1.665957	10.588039	-0.636889	-1.926536	-0.428675	0.028962	0.971768
-1.257244	-0.174411	9.486666	4.75102	8.124235	0.139254	0.03889	-1.759827	-0.07264	3.625421	-2.863376	14.769147	-57.231285	171.890067	143.820738	-0.378246	0.49232	0.126082	7.477366	4.397221	1.660212	13.387179	-1.176632	-2.449506	-0.381494	0.029287	0.981646
-1.480439	0.349034	9.830241	4.693543	8.405575	-0.06174	0.057281	-1.781321	0.002103	4.640834	-2.57988	14.729199	-59.19997	170.631426	144.490536	-0.372242	0.456297	0.114074	7.536675	4.339736	1.77526	16.739522	-1.58786	-2.911313	-0.396637	0.021593	0.987132
-1.256045	-0.232314	9.544341	5.757729	8.714528	0.047891	0.00815	-1.783258	-0.037211	4.80873	-2.752066	14.614763	-59.958454	167.475238	143.05065	-0.372242	0.456297	0.096063	7.596883	4.398308	1.947925	18.921524	-1.157063	-3.276598	-0.409553	0.009649	0.980153
-1.593349	-0.40527	9.883953	7.022024	9.009694	0.793945	0.05279	-1.796328	-0.051273	5.931684	-2.812056	14.223597	-62.419681	163.5926	139.68178	-0.38425	0.450293	0.066043	7.546129	4.689481	2.290666	20.363813	0.057037	-3.358171	-0.419311	0.054157	0.98659
-1.304567	0.059073	10.006415	7.751715	10.153527	1.312529	-0.008186	-1.764017	-0.075634	6.766906	-2.240673	13.648879	-68.238968	161.608841	136.031717	-0.378246	0.450293	0.024016	7.937986	4.10788	1.896276	20.422416	1.364451	-2.623543	-0.417558	0.031399	1.012927
-1.192496	-0.696012	9.83344	9.796866	11.315011	2.503442	0.048944	-1.831973	-0.067224	8.106841	-2.529602	12.731464	-71.975994	162.74921	130.468991	-0.402262	0.420274	0	7.596781	3.876977	1.888467	20.082352	2.28961	-1.239907	-0.39929	0.039598	0.977885
-1.131037	-0.173125	10.0671	11.457036	12.508455	4.377138	-0.007924	-1.804167	-0.018945	9.289362	-1.788176	12.634963	-71.997923	165.695927	121.337075	-0.402262	0.420274	-0.054035	8.161026	4.222167	1.672938	19.066836	2.751659	-0.185605	-0.413106	0.022901	0.987995
-1.639696	0.002482	10.461936	12.735129	14.251797	5.029557	-0.008186	-1.764017	-0.075634	11.156487	-2.824963	12.61365	-67.403162	167.209765	106.851144	-0.378246	0.402262	-0.114074	7.258716	4.341882	2.112181	17.959912	2.873604	0.998428	-0.430001	0.037964	0.967145
-1.830903	-0.406025	9.474677	11.553295	16.757089	6.566305	-0.018743	-1.771045	0.014168	17.076131	1.032898	24.811533	-70.574969	163.36669	78.900982	-0.372242	0.402262	-0.180117	7.585507	4.453575	1.377267	17.100002	2.675763	3.292246	-0.427775	0.033715	0.954679
-1.542858	0.587744	12.487993	12.482659	23.287778	6.843002	-0.012797	-1.838686	-0.053056	20.173276	-2.06323	20.688854	-47.509613	144.144853	45.574892	-0.354231	0.396258	-0.210137	7.185778	4.454109	1.312291	15.563879	2.538885	7.110203	-0.398436	0.012086	1.021312
-1.551836	0.412498	12.025056	15.664227	36.004029	7.56469	-0.011388	-1.8203	-0.05416	14.191471	-12.798684	10.152985	42.236981	126.808625	13.736197	-0.330215	0.372242	-0.27618	7.353923	3.526374	1.083095	13.013544	2.287134	11.628736	-0.39711	0.003084	1.025936
-1.559614	0.179349	11.619793	15.122129	42.30272	7.408422	0.003277	-1.817777	-0.071322	22.510555	-1.077945	9.702996	16.962919	111.037069	-39.456538	-0.288188	0.372242	-0.324211	7.061539	3.988536	0.737014	11.847638	1.713913	16.253832	-0.428248	0.015206	0.993482
-1.442608	0.23756	11.737848	17.984965	50.479837	7.401167	-0.009978	-1.801914	-0.055265	21.416577	-1.994362	11.511893	26.288561	79.481449	-77.875537	-0.264172	0.360234	-0.366238	7.522387	3.583403	0.972552	10.990403	0.409925	18.75667	-0.413106	0.022901	0.987995
-1.611566	0.470317	11.908423	17.073949	59.149481	8.023357	0.02205	-1.819759	-0.015844	21.945519	7.624663	14.159626	22.600427	45.727481	-106.757183	-0.240156	0.366238	-0.408266	7.301473	4.106766	1.370058	8.966247	-1.735435	19.162529	-0.377942	0.016036	0.973803
-1.477889	-0.166028	12.834208	15.847633	69.834762	8.246851	-0.012415	-1.819174	-0.07232	19.634198	5.631525	11.051704	56.794675	-4.447188	-110.356559	-0.210137	0.336219	-0.438285	7.758373	3.990326	1.435635	5.928987	-4.508624	19.730411	-0.417085	0.049908	0.974124
-1.642386	0.183373	13.236321	15.368985	82.375005	8.773225	0.055871	-1.799707	0.003208	18.135551	7.752799	12.847614	89.064738	-44.844229	-98.687124	-0.204133	0.330215	-0.480313	7.936302	3.817873	1.780778	3.751462	-6.726308	20.748769	-0.380641	0.001776	1.025073
-2.023083	-0.278063	14.267868	16.231434	97.642956	9.960374	0.036071	-1.796598	-0.070431	18.285038	7.925992	11.788566	140.415332	-93.812535	-59.284733	-0.186121	0.312203	-0.49232	7.592504	3.760133	1.659573	2.617242	-8.205744	20.379404	-0.431801	0.028458	1.001324
-1.765177	-0.042622	15.718368	15.170398	116.548488	12.473353	0.02487	-1.782988	-0.018053	6.433981	18.763849	-7.213161	129.923444	-180.349609	36.612518	-0.180117	0.294191	-0.516336	7.36258	4.281393	1.600342	2.002931	-8.513048	19.92449	-0.465119	0.077093	0.920819
-1.456407	-0.15633	16.822284	17.070765	139.794488	13.932853	0.010587	-1.765999	-0.020156	-2.940737	-3.52489	10.928391	-88.725371	-194.559339	14.294931	-0.216141	0.312203	-0.528344	7.421742	6.019485	1.894815	-3.560816	-8.959868	20.60834	-0.430001	0.037964	0.967145
-1.699857	-0.208784	19.013391	16.321284	168.289754	15.181867	-0.005105	-1.767395	-0.021154	0.989042	4.640875	20.072705	7.761794	-213.214288	28.50047	-0.24616	0.306199	-0.528344	7.304557	7.698708	1.900185	-12.229611	-8.87737	26.401005	-0.434027	0.032707	1.01379
-1.258832	-0.668764	20.985976	15.275017	203.458479	15.672797	0.009178	-1.784385	-0.019051	5.684082	4.068926	11.081146	49.260303	-217.081304	-0.663639	-0.252164	0.288188	-0.534348	8.211008	8.912186	1.809541	-19.340563	-4.473378	31.367762	-0.449123	0.057277	0.95876
-1.364019	-1.131877	21.44509	24.584006	238.980588	15.381897	0.028071	-1.726705	-0.039527	3.360218	1.90002	10.332449	4.043996	-204.981244	-58.554598	-0.288188	0.294191	-0.534348	9.843023	7.282531	0.692999	-18.012206	5.468136	27.413456	-0.44827	0.029766	1.002187
-0.912021	-1.351246	26.885977	23.626071	275.665882	20.180824	0.025634	-1.743964	-0.056582	1.885027	-4.228713	12.083977	-10.1234	-166.343567	-58.033414	-0.318207	0.282184	-0.540352	11.877441	7.158963	-0.066272	-17.527536	20.975491	21.337618	-0.448696	0.043521	0.980474
-1.84189	-3.499612	26.168742	55.291951	320.463685	26.401676	0.025252	-1.763476	-0.037318	0.066793	-4.279638	11.518304	36.404459	-131.136565	-15.23626	-0.324211	0.252164	-0.534348	11.418983	6.348272	-0.307331	-24.688654	32.769977	17.447417	-0.483434	0.036631	1.016379
-1.187326	-2.517606	24.508205	66.055304	359.199055	34.765441	0.023842	-1.781862	-0.036213	0.103285	-1.929601	10.807227	60.61629	-127.255637	7.589769	-0.354231	0.252164	-0.534348	8.737142	5.715181	-0.705709	-33.149618	35.750062	18.066798	-0.434454	0.046463	0.992077
1.588983	-2.234451	22.772652	79.651983	388.167252	37.556922	0.064328	-1.689393	-0.00342	1.283313	0.014864	10.767595	62.039815	-132.353118	3.502838	-0.342223	0.258168	-0.540352	6.695113	3.404209	-0.585492	-34.502816	36.490125	22.813221	-0.462939	0.04058	0.96887
1.67833	2.587508	24.635466	97.599556	387.653851	35.611766	0.077966	-1.685744	-0.038742	4.426004	-5.600575	5.647467	147.187136	-75.713624	33.086861	-0.378246	0.234152	-0.528344	6.132438	3.406924	-0.254202	-35.668448	35.404089	22.770979	-0.479835	0.055643	0.94802
2.260253	1.594022	22.101813	121.247073	371.524158	26.349806	0.098532	-1.649828	-0.003633	1.746925	0.18937	8.358063	79.757705	-27.950546	8.627963	-0.390254	0.228148	-0.534348	5.231231	4.685356	0.361575	-41.134758	32.17774	14.712014	-0.480262	0.069399	0.926306
-1.035861	-1.670776	14.804278	109.989859	366.060612	17.132725	0.128506	-1.665421	-0.000533	0.631151	-1.06867	8.928565	75.455945	-29.43037	6.557127	-0.38425	0.222145	-0.540352	4.89708	6.599248	0.934414	-46.378885	26.470895	10.901504	-0.527915	0.050564	0.955232
2.514887	-2.146588	11.579726	91.812296	366.963805	18.029518	0.150361	-1.670782	0.109426	1.48427	-0.670789	9.298155	58.827014	-24.778972	3.689556	-0.38425	0.192125	-0.528344	5.519179	6.481153	0.717908	-41.938015	20.721744	13.902978	-0.481161	0.064646	0.943396
5.95267	-3.318661	8.409025	57.953394	372.335938	24.769645	0.177636	-1.663484	0.038782	1.2518	0.017808	9.05659	48.921202	-17.531074	5.101514	-0.390254	0.210137	-0.534348	6.862951	6.646855	-0.396116	-34.611027	17.021384	21.6433	-0.413959	0.050412	0.944568
6.572899	-3.72697	7.842472	39.580839	384.64102	33.015873	0.234841	-1.570744	0.090733	1.368845	0.131646	9.294561	23.655945	-10.707781	-1.299413	-0.390254	0.186121	-0.528344	10.098025	6.34826	-0.904156	-22.671327	13.850728	38.845354	-0.509174	0.077272	0.881386
12.785611	-3.65043	-5.788007	60.226585	351.239282	51.785034	0.204867	-1.555152	0.087632	1.602231	-0.49976	9.595025	14.938205	-7.645575	-1.06428	-0.38425	0.186121	-0.546356	13.903771	5.990894	-1.344104	-12.754057	7.086903	46.639275	-0.462939	0.04058	0.96887
14.207539	-0.81603	-9.162514	11.782788	203.504615	44.670232	0.3021	-1.550151	0.148101	1.03693	-0.09711	9.642448	8.119548	-5.176218	-2.295983	-0.41427	0.186121	-0.528344	14.022617	5.760132	-1.114534	-26.881855	-0.684173	29.893788	-0.5123	0.076768	0.910942
13.608109	0.07336	-1.717171	-44.633916	47.393338	29.025371	0.253615	-1.572727	0.146211	1.148882	-0.09735	9.585621	3.625691	-3.807658	-2.230278	-0.396258	0.192125	-0.528344	12.906163	5.825561	0.005047	-42.704024	-7.408409	5.161985	-0.477136	0.069903	0.89675
12.672908	0.383636	6.12462	-59.905836	-73.156765	10.959034	0.318175	-1.529243	0.129834	0.473204	-0.954691	9.574104	2.769551	-3.990435	-1.623694	-0.402262	0.186121	-0.534348	11.498883	7.280284	0.954029	-47.884976	-13.633041	3.168141	-0.494078	0.052702	0.936417
9.201544	0.571834	10.448097	-17.467806	-147.178461	-3.57293	0.36666	-1.506667	0.131723	1.261175	-0.212174	9.528997	2.157875	-3.608413	-1.886001	-0.38425	0.180117	-0.52234	11.669042	7.048094	0.899264	-44.797445	-18.5806	10.823152	-0.498057	0.079709	0.922545
5.548242	0.461685	11.357518	36.262368	-176.369114	-13.169362	0.379271	-1.501892	0.078241	1.035949	-0.497954	9.525158	0.052584	-3.458361	-1.861656	-0.38425	0.186121	-0.528344	11.849564	6.702477	1.357803	-41.489936	-26.488628	9.556274	-0.445525	0.07629	0.8904
2.948081	-1.112382	7.429864	74.213581	-180.885674	-17.923578	0.347504	-1.524197	0.09551	0.976	-0.440187	9.346969	-0.426949	-3.85349	-1.653237	-0.38425	0.186121	-0.534348	11.058547	6.995129	1.685903	-37.543081	-32.368854	2.251279	-0.480262	0.069399	0.926306
2.434024	-2.221595	4.585142	85.702351	-178.554436	-19.445254	0.361404	-1.560698	0.116877	0.634944	-0.152601	9.280942	-0.890468	-3.836473	-1.604392	-0.390254	0.192125	-0.534348	10.834949	6.591098	1.850834	-32.437882	-33.982552	-4.534918	-0.490952	0.053206	0.906861
1.476641	-3.096236	2.541241	71.669873	-173.725892	-18.852387	0.43781	-1.551463	0.085547	1.086695	-0.383032	9.231041	-0.591261	-4.034479	-1.627968	-0.402262	0.186121	-0.528344	10.051838	5.727136	2.459137	-28.230225	-32.544574	-7.05366	-0.496304	0.056951	0.948883
1.964893	-3.448486	1.10532	38.829141	-170.941554	-16.73538	0.47304	-1.513025	0.103494	0.971547	-0.038835	9.169258	-1.619684	-3.425312	-1.736938	-0.396258	0.180117	-0.528344	9.93852	5.437882	2.45557	-26.948453	-28.571248	-7.322412	-0.525689	0.046315	0.942766
2.208693	-2.808423	1.863021	2.159724	-174.903329	-15.843309	0.483597	-1.505997	0.013692	0.801008	-0.439168	9.048709	-2.122476	-2.701809	-2.074014	-0.38425	0.186121	-0.516336	10.271511	5.261407	2.004802	-27.942679	-24.190985	-8.010457	-0.476709	0.056147	0.918464
2.523542	-2.108695	3.315782	-21.96412	-185.73109	-16.753674	0.527854	-1.538579	0.018895	1.03303	-0.612235	9.348361	-2.723994	-2.424404	-2.714258	-0.378246	0.180117	-0.516336	9.765108	5.03216	2.279075	-28.999256	-19.604557	-10.263514	-0.46114	0.050086	0.934691
2.665473	-1.815239	4.706321	-36.140306	-200.149575	-19.820297	0.553337	-1.569178	-0.03138	0.808785	-0.497171	9.461811	-2.852823	-2.524472	-4.23034	-0.396258	0.174113	-0.52234	9.482644	5.033254	2.387628	-28.702292	-15.452783	-13.08038	-0.495404	0.061704	0.931793
2.645415	-1.404273	6.614044	-42.520954	-215.138735	-23.309552	0.613406	-1.540701	-0.101133	1.602125	-0.098815	9.653314	-3.058803	-2.409424	-5.637123	-0.396258	0.186121	-0.52234	9.411515	4.798365	1.643252	-28.436395	-11.364902	-17.822949	-0.494977	0.047949	0.953506
1.575447	-1.226573	7.633412	-44.303524	-227.997846	-24.86498	0.6403	-1.552915	-0.152513	1.087782	-0.383134	9.290041	-3.508085	-2.860869	-6.14424	-0.396258	0.198129	-0.540352	8.841968	4.857399	1.632253	-28.877624	-7.389412	-23.851493	-0.530995	0.082325	0.924271
1.191321	-1.688429	8.491515	-46.630609	-237.614516	-23.799189	0.633754	-1.565669	-0.242208	1.598631	-0.384871	9.417821	-4.104924	-2.523313	-6.749915	-0.38425	0.186121	-0.528344	9.004698	4.391784	1.176791	-28.241468	-4.013337	-29.891077	-0.444671	0.048778	0.933828
0.118035	-1.627233	9.33716	-50.69029	-244.231318	-20.338309	0.641874	-1.5759	-0.349066	1.041276	-0.097516	9.878448	-5.221202	-2.018409	-6.584229	-0.396258	0.180117	-0.540352	8.598882	4.622588	0.827406	-27.572175	-1.434041	-33.832084	-0.44647	0.039272	0.968007
-0.217484	-1.277525	9.793659	-56.191403	-248.172871	-16.122039	0.68976	-1.63372	-0.504096	0.975019	-0.841031	9.22968	-4.914142	-1.970734	-5.974217	-0.408266	0.186121	-0.528344	8.659102	4.101933	0.940351	-26.100701	0.304677	-34.1398	-0.458014	0.05059	0.905135
-1.11289	-1.215797	10.931806	-62.372363	-249.986232	-10.885344	0.68398	-1.607451	-0.632321	0.748153	-0.210234	9.283217	-4.475102	-2.331283	-5.39519	-0.390254	0.192125	-0.528344	8.385762	4.047234	1.505378	-22.874059	1.323596	-29.894229	-0.46204	0.045333	0.951781
-1.739922	-0.86637	11.151331	-69.310264	-250.068066	-4.7343	0.651089	-1.629851	-0.885351	1.264883	-0.728009	9.647911	-3.046856	-3.030364	-4.502977	-0.38425	0.192125	-0.52234	7.704013	4.396503	1.607625	-19.000354	1.818983	-24.929584	-0.459813	0.041084	0.939314
-2.467847	-0.689283	12.061928	-74.764711	-249.392345	1.657229	0.613925	-1.606374	-1.015572	1.879332	-0.843758	9.247066	-0.824898	-3.945717	-3.684402	-0.390254	0.186121	-0.534348	7.941592	3.992876	2.067027	-16.356259	2.028053	-22.350837	-0.474056	0.038142	0.927711
-2.675682	-0.686405	13.155836	-78.982468	-248.718758	8.049985	0.521348	-1.637739	-1.218113	0.870226	-0.325972	9.757594	0.491906	-4.747812	-3.103808	-0.408266	0.174113	-0.52234	7.312963	3.993602	1.940454	-14.788892	2.289858	-22.164955	-0.424177	0.052728	0.886319
-3.870602	-0.625936	13.652306	-82.008556	-248.835348	13.618067	0.384896	-1.61701	-1.445123	0.810617	-0.382789	9.579609	1.180212	-4.963732	-1.937393	-0.390254	0.180117	-0.528344	7.431708	3.24151	2.110566	-13.499735	3.085168	-23.063513	-0.459387	0.027328	0.961028
-3.343877	-0.567137	14.183066	-82.882377	-248.578162	16.858336	0.220907	-1.563429	-1.658177	1.150651	-0.326621	9.645027	0.783212	-4.564601	-1.526508	-0.396258	0.186121	-0.528344	6.796981	4.051733	1.759304	-11.719546	4.200739	-24.486857	-0.457587	0.036835	0.926848
-2.824176	-0.335047	14.367356	-83.047766	-247.223595	17.162426	0.010486	-1.534676	-1.836801	1.486849	-0.441924	9.474749	1.083981	-5.323838	-1.52433	-0.396258	0.192125	-0.528344	7.299573	3.353324	1.195364	-10.154859	5.464182	-25.731269	-0.421097	0.020967	0.91728
-2.288362	-0.217087	15.360773	-83.004395	-243.142706	13.386715	-0.237909	-1.420437	-1.987622	1.209514	-0.384287	9.764216	1.845515	-6.498248	-1.101965	-0.408266	0.180117	-0.52234	7.192888	3.70277	1.594334	-8.651253	6.706017	-25.568458	-0.494551	0.034193	0.97522
-2.552387	-0.272057	16.511214	-82.175669	-234.105314	3.317327	-0.516781	-1.369779	-2.046325	1.31746	-0.498705	9.471591	1.909339	-6.794279	-1.432316	-0.396258	0.192125	-0.534348	6.906033	3.644917	1.474256	-7.699143	7.358523	-23.314965	-0.489199	0.030448	0.933198
-3.04117	-0.558416	17.887783	-75.172209	-221.629131	-9.201871	-0.758368	-1.282936	-2.05076	1.434228	0.073371	9.76775	1.698096	-7.163378	-3.086258	-0.38425	0.192125	-0.528344	6.952157	3.989815	0.96313	-7.023182	7.898451	-19.898043	-0.476282	0.042392	0.940177
-4.650269	-0.61518	17.74001	-71.47786	-208.452853	-21.429662	-0.949799	-1.195282	-1.997722	0.803011	-0.382079	9.166607	0.706901	-6.945145	-4.056095	-0.420274	0.192125	-0.510332	7.58057	3.525656	1.030508	-6.930736	8.049503	-17.607005	-0.490098	0.025695	0.950288
-6.546255	-0.729709	17.586383	-77.674005	-196.559389	-33.107737	-1.18176	-1.099063	-1.857982	1.160878	-0.843065	10.117942	-0.673979	-6.897477	-4.435514	-0.390254	0.192125	-0.534348	7.003811	3.814698	0.678007	-7.114525	7.850647	-16.746944	-0.457587	0.036835	0.926848
-8.086369	-0.959259	18.017482	-86.402454	-188.432954	-43.44378	-1.345052	-0.963866	-1.661978	0.939317	-0.900082	10.349698	-0.269048	-7.486779	-3.622688	-0.408266	0.186121	-0.528344	7.401401	3.755743	0.628535	-8.465636	7.2385	-15.852989	-0.489626	0.044203	0.911484
-9.339765	-0.956917	18.454855	-93.62672	-184.986498	-54.374039	-1.403374	-0.853411	-1.4931	0.981944	-0.612572	9.642275	0.963753	-9.113619	-0.92862	-0.402262	0.174113	-0.52234	7.900831	3.519979	-0.047486	-11.413932	6.099493	-13.823697	-0.491852	0.048453	0.92395
-11.780956	0.260683	16.9066	-97.071598	-188.201115	-64.995171	-1.542713	-0.826861	-1.270313	1.552168	-0.843852	9.889548	1.867605	-9.470424	0.375418	-0.402262	0.174113	-0.52234	8.130743	3.577946	0.071466	-15.161168	5.066727	-9.293109	-0.490571	0.007186	0.989091
-13.63144	2.053207	13.348799	-104.7319	-203.936312	-74.655161	-1.512829	-0.640387	-1.028222	1.375983	-0.441786	9.590577	4.468912	-10.266895	0.415199	-0.402262	0.180117	-0.528344	8.062981	3.923072	-0.441912	-17.831626	3.901503	-3.193885	-0.494977	0.047949	0.953506
-29.125725	26.069543	49.102653	-319.374285	-118.38911	-59.282254	-1.527014	-0.622176	-0.778187	1.090466	-0.555214	9.408346	5.774269	-10.549283	0.009695	-0.396258	0.186121	-0.528344	7.39048	3.579425	0.056825	-21.146401	2.152754	2.456489	-0.472257	0.047649	0.893532
-18.980598	16.300248	22.061154	-104.360888	-187.474415	-74.965398	-1.465821	-0.593604	-0.577641	0.871249	-0.669726	9.758203	6.32832	-11.091885	-0.168862	-0.408266	0.180117	-0.528344	7.274671	3.984664	-0.000679	-23.44713	0.361236	5.635864	-0.474483	0.051898	0.905998
-25.625876	10.489047	16.424477	-8.637125	-164.879862	-83.675277	-1.493906	-0.538893	-0.348973	1.269975	-0.613931	9.942709	7.134695	-11.829557	0.774341	-0.396258	0.192125	-0.52234	6.876068	3.98546	-0.008563	-24.979066	-1.593864	8.089111	-0.460667	0.068595	0.895887
-32.180451	4.507715	12.465153	32.07708	-128.529827	-85.990823	-1.421894	-0.543443	-0.18154	1.493944	-0.270757	9.887446	7.839328	-12.215321	1.033023	-0.396258	0.192125	-0.504328	6.769724	4.161217	0.389618	-24.882178	-3.583256	8.013429	-0.476755	0.023883	0.978981
-39.029085	1.421194	5.386246	29.165821	-51.37001	-62.192556	-1.3693	-0.525373	-0.107011	0.805354	-0.439574	9.284709	8.182554	-12.098581	0.90442	-0.408266	0.168109	-0.516336	6.992423	4.449193	0.167069	-20.514572	-4.854871	4.426879	-0.491852	0.048453	0.92395
-40.743995	2.983952	2.870838	23.808043	63.433007	-31.135958	-1.320935	-0.56246	-0.029167	1.315394	-0.899447	9.295301	8.518578	-12.239377	0.944983	-0.402262	0.180117	-0.516336	7.570525	4.623847	0.635857	-13.811378	-5.644268	1.269839	-0.47363	0.024387	0.949425
-35.171185	13.964803	9.65453	27.573379	200.367095	-26.642249	-1.359674	-0.515998	0.037165	1.323405	-0.67109	9.766896	8.873615	-12.610166	-0.544188	-0.402262	0.174113	-0.504328	8.434685	5.26163	1.226564	-6.494012	-5.73485	1.097184	-0.492751	0.0437	0.94104
-1.334587	2.275427	14.403362	37.431996	217.587829	-4.718312	-1.364547	-0.550517	0.003054	1.668637	-0.90179	10.068823	11.729452	-14.276899	-3.041834	-0.41427	0.186121	-0.510332	8.774536	5.608063	1.177807	-0.561964	-4.877477	1.965566	-0.491379	0.066961	0.885147
1.66543	0.068588	15.151264	54.820967	187.141182	12.290407	-1.291223	-0.537903	-0.082756	1.550804	-0.385512	9.888736	14.681251	-16.198133	-6.671961	-0.41427	0.180117	-0.504328	9.579717	6.708868	1.712398	5.371298	-4.533031	2.295322	-0.475383	0.047145	0.923088
-2.593381	0.992949	11.601176	30.167513	168.222939	31.873103	-1.350527	-0.527356	-0.051532	1.148612	-1.47707	12.418979	17.625211	-20.299938	-13.718014	-0.408266	0.168109	-0.504328	10.387628	6.420159	2.240681	11.549807	-3.764136	3.13649	-0.507894	0.036005	0.946527
-2.517271	1.974952	9.69795	18.079861	150.288699	45.024904	-1.368153	-0.466837	-0.164804	1.320536	-0.446825	12.715412	24.737529	-31.961919	-25.172235	-0.41427	0.180117	-0.504328	10.806947	6.771735	3.334893	17.269261	-3.804209	4.422129	-0.476755	0.023883	0.978981
1.03601	-1.62108	12.245043	23.661301	146.878436	33.198983	-1.373409	-0.520868	-0.179651	1.033315	0.012671	12.532166	28.450785	-43.990719	-34.054514	-0.426277	0.180117	-0.516336	11.451343	6.77469	4.260756	24.010431	-6.155006	11.547193	-0.463366	0.054335	0.947157
-2.509262	-1.848264	12.809582	26.621465	110.684899	8.965454	-1.380643	-0.41195	-0.187276	0.549419	0.813761	13.99597	16.820843	-56.460946	-31.835002	-0.408266	0.168109	-0.498324	10.846036	6.375398	5.274186	29.463867	-9.834985	20.439157	-0.494551	0.034193	0.97522
-1.765094	0.349592	9.940155	44.537847	84.225111	3.510826	-1.352723	-0.42529	-0.220496	1.244144	-1.07995	14.602361	15.14379	-85.742006	-30.777726	-0.426277	0.168109	-0.486317	9.936297	6.261688	5.312732	29.527711	-11.246657	16.496482	-0.526116	0.060071	0.921052
-1.020413	0.5809	9.897758	35.545026	68.502143	1.88703	-1.371234	-0.463458	-0.219285	1.015616	-0.620827	14.538202	-4.780673	-102.350032	-33.59192	-0.444289	0.192125	-0.49232	9.738983	7.124692	4.057269	22.693553	-9.214752	3.934479	-0.510074	0.072519	0.898476
-6.178548	0.644789	10.141918	15.314228	41.50953	8.777051	-1.360033	-0.477069	-0.271662	0.865617	-0.622143	15.596945	-10.592547	-124.401319	-35.351871	-0.444289	0.204133	-0.474309	9.199941	5.729368	2.556428	14.383893	-6.645264	-2.714939	-0.496777	0.038442	0.987686
-3.39845	-0.638929	8.518222	15.644603	14.507572	0.8148	-1.327239	-0.45589	-0.270771	0.98328	-1.081128	15.776931	-18.741853	-146.393803	-38.105103	-0.462301	0.186121	-0.462301	9.506005	6.067915	0.794906	6.195982	-2.920736	-4.496939	-0.512773	0.058259	0.949745
-1.133657	0.174852	9.952309	19.208065	1.118839	-6.787217	-1.338441	-0.44228	-0.218393	1.554547	-0.567911	16.199885	-24.808027	-169.341563	-40.346213	-0.474309	0.216141	-0.450293	9.102089	7.052162	0.620214	2.650907	0.991053	-4.69847	-0.532367	0.059063	0.980164
-1.088453	-0.23304	9.316511	18.766862	2.399467	-4.951738	-1.357979	-0.479321	-0.235342	0.660697	-0.795267	16.713906	-23.986958	-192.984713	-42.016813	-0.462301	0.228148	-0.41427	9.940368	6.525445	-0.22164	2.863927	2.371302	-0.477981	-0.48476	0.045633	1.011755
-1.206016	0.289176	9.199853	7.624712	2.459559	1.244016	-1.373288	-0.461206	-0.255605	0.904075	-2.229478	17.428793	-18.743787	-212.993657	-40.708907	-0.480313	0.24616	-0.41427	9.596911	6.294016	-0.343634	2.597386	-1.334994	5.41762	-0.511873	0.063012	0.932656
-1.248211	-0.057208	9.949464	8.755974	-0.440764	-0.582758	-1.30462	-0.422227	-0.199342	1.560619	-2.974091	16.145149	-0.900076	-236.529939	-42.156974	-0.486317	0.240156	-0.378246	8.618409	5.888046	-0.935542	2.180139	-6.920716	5.667243	-0.513246	0.03975	0.988549
-1.136975	0.058347	9.778585	8.81618	-0.553355	0.816914	-1.374053	-0.50023	-0.217075	1.146808	-2.341159	15.251423	3.675161	-251.5688	-44.865126	-0.516336	0.240156	-0.330215	8.055177	5.601016	-0.662658	0.224031	-12.333624	1.22515	-0.49853	0.0612	0.961349
-1.198712	-0.174327	9.545624	6.645956	-0.634866	2.02641	-1.340495	-0.440027	-0.254713	1.65802	-1.369229	15.554478	7.475797	-262.786785	-48.042035	-0.516336	0.288188	-0.330215	7.275308	5.954193	0.236627	-0.009865	-17.858532	-2.501709	-0.514999	0.062508	0.962212
-1.194307	0.00036	9.777302	8.064519	-0.608151	1.810431	-1.369825	-0.445073	-0.220389	1.879453	-1.999518	15.20594	13.86226	-273.201848	-51.416149	-0.52234	0.294191	-0.282184	6.947163	5.95803	0.914975	2.830411	-22.898305	-3.317723	-0.482534	0.041384	0.999289
-1.248099	-0.173293	9.949184	6.194136	-0.47277	2.318843	-1.372906	-0.441694	-0.274869	3.126909	-0.800837	15.640716	20.125493	-271.394856	-55.856785	-0.534348	0.300195	-0.258168	6.501879	5.324183	1.359811	6.621078	-26.599831	-2.660981	-0.481634	0.046137	0.982199
-1.307076	0.290964	9.891344	5.085916	-0.22619	2.202515	-1.354777	-0.423038	-0.256816	3.895462	-2.285181	11.116642	13.572756	-275.457621	-57.858166	-0.528344	0.312203	-0.228148	5.77603	5.444872	2.087893	10.408191	-28.634373	-0.758338	-0.514526	0.081017	0.923408
-0.90547	0.40666	9.899625	2.272632	-0.213413	2.239353	-1.341904	-0.458413	-0.253609	4.79628	-2.573964	10.898535	-5.243146	-270.457995	-58.522735	-0.540352	0.324211	-0.210137	6.92717	5.503384	2.738695	14.71479	-29.174837	2.091152	-0.484287	0.064142	0.972952
-1.312513	5.2e-05	9.601572	-1.371786	-0.05488	2.240817	-1.35375	-0.424164	-0.238656	2.838863	-2.965764	8.856294	-18.298116	-265.219399	-64.731092	-0.534348	0.330215	-0.180117	7.221465	5.215437	3.199749	18.647963	-27.870052	4.192378	-0.48386	0.050386	0.994665
-1.017404	-0.173376	10.011571	-3.234039	-0.282929	2.275718	-1.373288	-0.461206	-0.255605	0.940587	-3.873469	6.875053	-28.278958	-258.405791	-75.496683	-0.55236	0.330215	-0.13809	7.339629	5.332053	3.430896	21.252887	-24.243427	3.602356	-0.500756	0.06545	0.973815
-0.73024	-0.405825	10.016727	-5.088011	-0.327757	2.409627	-1.386544	-0.445343	-0.239547	-7.409999	-4.984892	1.172417	-32.987915	-232.890962	-94.131957	-0.55236	0.366238	-0.126082	7.460274	5.333403	3.775701	21.916825	-19.22685	0.645228	-0.436207	0.069221	0.965739
-0.79917	-0.291081	9.437716	-5.42273	-0.039542	2.246064	-1.335621	-0.405508	-0.220602	-11.728259	-2.793304	0.200972	-38.318745	-168.909871	-97.656431	-0.558363	0.360234	-0.10807	8.258151	5.563659	3.849613	21.89905	-11.847286	-1.055235	-0.487413	0.063638	1.002508
-0.860265	-0.001231	9.263827	-5.328799	0.082717	2.126615	-1.337031	-0.423894	-0.219498	-7.060356	-1.951243	2.23556	-60.623679	-105.687829	-86.321236	-0.540352	0.390254	-0.084055	8.769298	5.098938	3.743462	21.173178	-3.811646	-0.083247	-0.483387	0.068895	0.955862
-1.135609	-0.173684	9.835841	-5.211025	0.208411	1.701145	-1.356569	-0.460935	-0.236447	-9.922901	-1.720418	6.36766	-74.346258	-27.841786	-61.558117	-0.55236	0.390254	-0.078051	8.701536	5.444064	3.230083	19.927001	3.231829	1.214789	-0.48694	0.082147	0.963704
-0.853296	-0.116478	9.610436	-4.75251	0.355927	1.268472	-1.310138	-0.436108	-0.270877	-11.017709	-1.262121	8.351121	-50.935295	31.93259	-43.485101	-0.546356	0.38425	-0.090059	9.044094	5.559438	3.294459	18.100131	8.634048	1.11027	-0.521204	0.093765	0.960806
-0.962913	0.464759	9.898622	-4.215259	0.77389	1.181189	-1.35516	-0.44255	-0.237551	-8.74457	-1.040987	9.102183	-11.236102	68.838752	-27.072749	-0.510332	0.390254	-0.084055	8.347715	5.326063	2.594786	16.645047	12.630967	-1.03944	-0.467818	0.062834	0.972089
-0.901428	-0.23139	10.071532	-2.336347	0.790131	0.831599	-1.338441	-0.44228	-0.218393	-6.950434	-2.018788	8.194679	13.311619	84.950068	-16.885709	-0.498324	0.378246	-0.090059	8.804274	5.383312	2.661151	14.669889	15.571166	-2.616922	-0.501229	0.046941	1.012618
-0.967905	-0.290495	9.607731	-0.847958	1.123986	0.534896	-1.339085	-0.421641	-0.255818	-5.673944	-2.536005	6.863581	22.145562	89.978195	-12.062589	-0.486317	0.402262	-0.114074	8.342652	5.035266	2.308011	12.912939	17.364598	-3.126741	-0.490539	0.063134	1.032064
-1.133156	-0.347532	9.951051	0.354862	0.99924	0.562299	-1.373288	-0.461206	-0.255605	-4.917167	-2.993381	4.932601	14.837731	93.128719	-11.68757	-0.456297	0.402262	-0.132086	8.616789	4.68469	1.741143	11.313969	17.514291	-2.160079	-0.489166	0.086396	0.97617
-0.902738	-0.057402	10.014136	0.920707	1.260949	0.590157	-1.355804	-0.421911	-0.274976	-4.439556	-3.507501	3.173289	-10.175786	100.02338	-14.384873	-0.432281	0.402262	-0.132086	8.611942	4.857328	1.513563	10.36401	16.261685	-1.126824	-0.455375	0.056269	1.017872
-0.803686	-0.349683	9.206317	1.753055	1.36543	0.330189	-1.37508	-0.499103	-0.235236	-3.485585	-3.395205	2.837558	-44.733523	112.859472	-18.270266	-0.408266	0.444289	-0.150098	8.482743	4.62229	0.710969	9.322881	14.36131	-1.944731	-0.490965	0.076889	1.01035
-0.857812	-0.17508	9.379037	2.379329	1.563593	0.38456	-1.379189	-0.494598	-0.307876	-3.86211	-2.880308	3.950041	-81.07196	132.406975	-22.371162	-0.390254	0.438285	-0.174113	8.14469	4.507968	0.874962	7.882121	12.29158	-4.076032	-0.471371	0.076085	0.979931
-0.858091	0.115134	9.379736	2.291667	1.500283	0.689636	-1.339468	-0.441153	-0.236553	-3.383299	-2.712332	5.433434	-107.94306	155.14815	-25.065916	-0.38425	0.456297	-0.180117	8.087405	4.681771	0.874625	6.442005	10.000484	-5.743429	-0.454048	0.047266	1.022496
-1.136696	-0.231866	9.777886	2.144737	1.750758	0.672857	-1.326595	-0.476528	-0.233346	-3.963081	-2.198886	7.780574	-122.7498	175.264674	-24.874916	-0.324211	0.486317	-0.198129	7.338247	4.623251	0.402983	5.740693	7.483059	-5.994671	-0.522531	0.102767	0.956182
-1.259418	-0.290776	9.370757	1.776491	1.853168	0.655257	-1.355804	-0.421911	-0.274976	-3.075125	-1.4606	10.096561	-123.68629	189.892032	-20.842262	-0.288188	0.486317	-0.198129	7.690941	4.74099	0.981188	5.131929	4.896823	-5.662694	-0.490539	0.063134	1.032064
-0.853185	-0.232564	9.610157	1.155406	1.745978	0.696178	-1.354777	-0.423038	-0.256816	-2.770666	-0.776177	11.398779	-112.408645	198.023417	-12.601859	-0.264172	0.528344	-0.210137	7.749022	4.161912	0.979686	4.89235	2.19521	-5.509571	-0.48694	0.082147	0.963704
-0.682497	0.115386	9.556609	0.453582	2.041809	0.694452	-1.354133	-0.443676	-0.219391	-2.35792	-0.320756	12.408577	-97.657367	202.028461	-2.064379	-0.234152	0.558363	-0.204133	7.577157	5.262548	1.038394	4.282469	0.070469	-5.310647	-0.52215	0.056747	1.038413
-0.910406	-0.406636	9.608595	-0.521313	1.607005	0.608089	-1.323776	-0.439757	-0.235555	-0.991502	-0.383053	12.965759	-84.807085	204.822359	9.946771	-0.186121	0.588383	-0.186121	7.639629	4.742418	1.265523	3.978263	-1.28559	-5.036149	-0.492338	0.053627	1.066243
-1.015117	-0.173096	10.127201	-1.196855	1.936171	0.362633	-1.356187	-0.441423	-0.255711	-0.142047	-0.213935	13.099755	-72.917458	208.8206	23.459069	-0.144094	0.624406	-0.162106	7.981971	4.394357	1.270703	4.256963	-2.085003	-4.6185	-0.48694	0.082147	0.963704
-0.961103	-0.231614	9.954759	-1.065699	2.053798	0.517143	-1.370469	-0.424434	-0.257814	0.8412	-0.448032	14.298637	-60.536679	211.487503	37.05175	-0.10807	0.642418	-0.13809	7.466547	4.742233	1.14796	4.381122	-2.601842	-4.78936	-0.470044	0.067083	0.984555
-0.899421	0.059103	10.18786	-0.973814	2.11456	0.395217	-1.341522	-0.438901	-0.272873	1.226716	-0.333727	13.775039	-49.218543	211.653272	52.312459	-0.066043	0.672438	-0.10807	8.386536	4.800413	1.62298	4.289193	-2.807117	-5.488562	-0.476296	0.066075	1.043667
-0.739829	0.057399	9.555327	-0.684843	2.35155	0.520319	-1.354133	-0.443676	-0.219391	1.739397	-0.221082	14.020616	-38.924039	208.65589	68.795106	-0.018012	0.708461	-0.060039	8.154371	4.74192	1.389843	4.073616	-2.683538	-5.737272	-0.541745	0.057551	1.068832
-1.074736	-0.231363	10.010288	0.412885	2.783533	0.573087	-1.394236	-0.516633	-0.271449	1.630853	-1.366691	14.079474	-34.307646	202.906942	85.397677	0	0.708461	-0.018012	8.325099	4.220248	1.333764	4.134945	-2.620571	-5.799574	-0.457601	0.060518	1.030338
-0.956475	-0.289098	10.185879	0.849622	2.989113	0.448911	-1.367005	-0.408301	-0.222598	1.69434	-1.883001	14.376475	-34.019559	196.750637	100.83198	0.006004	0.732477	0.012008	7.934379	4.222884	1.725526	3.8883	-2.292327	-5.410899	-0.494091	0.076385	1.039906
-1.143666	-0.116619	9.431277	0.179004	3.315308	0.417131	-1.342931	-0.457286	-0.271769	2.542644	-2.057435	14.393079	-35.939651	190.114012	113.041227	0.036023	0.756492	0.078051	7.929192	4.569211	1.498734	4.287989	-2.206776	-4.646095	-0.507008	0.064442	1.032927
-0.957952	0.059019	10.128902	0.420703	3.406158	0.048406	-1.339085	-0.421641	-0.255818	2.705789	-2.458282	13.984048	-39.437394	184.6444	123.868617	0.048031	0.786512	0.132086	7.936518	4.281307	1.839973	4.81112	-2.304978	-3.784612	-0.456274	0.051516	1.034962
-1.071585	0.05927	10.184431	0.088531	3.598731	0.12533	-1.35375	-0.424164	-0.238656	2.771961	-3.146673	14.399354	-44.810261	179.978576	133.363857	0.054035	0.804524	0.162106	7.770865	4.514548	2.123106	6.225481	-2.317751	-3.807298	-0.493664	0.06263	1.06162
-0.86152	0.114714	9.206292	0.068661	3.843837	0.258106	-1.388215	-0.423578	-0.295132	3.117427	-3.091012	14.759774	-49.311381	176.142755	141.768735	0.042027	0.79852	0.216141	8.278849	4.512472	1.904874	8.10034	-2.073288	-4.26167	-0.510133	0.063938	1.062482
-0.962301	-0.173711	9.897084	0.548511	4.135334	0.533706	-1.35375	-0.424164	-0.238656	2.723218	-3.204505	14.81137	-51.836246	171.821734	148.959182	0.060039	0.828539	0.282184	8.049734	4.049231	1.784082	10.005982	-1.883405	-5.142809	-0.462953	0.064263	1.07236
-1.136975	0.058347	9.778585	0.994981	4.460515	0.658686	-1.356187	-0.441423	-0.255711	3.754248	-2.693362	15.656019	-53.343682	166.336649	154.433074	0.042027	0.840547	0.306199	8.28572	4.456153	2.247164	12.742246	-1.814509	-5.435553	-0.524376	0.060996	1.050879
-1.659128	0.000107	9.479085	0.988237	4.948643	1.015048	-1.369442	-0.425561	-0.239654	4.650954	-2.695379	15.260404	-54.590011	159.948688	156.815486	0.036023	0.852555	0.342223	8.167556	4.339537	2.016017	14.771175	-1.610131	-5.12353	-0.497644	0.089637	1.047748
-0.90508	0.000362	9.898647	0.592378	5.300831	0.794448	-1.358623	-0.458683	-0.272767	5.258947	-2.466866	14.563949	-58.465527	155.729538	157.364835	0.036023	0.882574	0.360234	8.112524	4.513865	2.129864	16.645936	-1.169235	-4.359038	-0.4585	0.055765	1.047428
-1.137197	0.290518	9.779144	0.637034	5.950425	0.483914	-1.358241	-0.439171	-0.292031	6.202393	-2.468139	13.638419	-62.012342	154.297303	156.136774	0.024016	0.870567	0.38425	7.989628	4.51199	1.670874	17.289611	-0.249905	-3.826359	-0.493618	0.094894	1.001102
-0.956531	-0.231055	10.186019	0.856755	6.632693	-0.318387	-1.323011	-0.400733	-0.274085	6.754847	-1.838611	13.058167	-64.569081	154.033167	153.219551	0.03002	0.888578	0.402262	8.282569	4.339572	2.075362	17.286688	1.031541	-3.458483	-0.463852	0.05951	1.08945
-0.904913	-0.173767	9.898227	1.596047	7.568956	-0.419743	-1.370087	-0.404922	-0.277079	7.639046	-0.923035	12.129927	-71.439193	151.753812	150.113798	0.018012	0.900586	0.426277	7.936746	4.165514	1.839447	17.345213	2.343025	-2.999217	-0.509706	0.050182	1.084196
-1.242662	0.117619	10.238957	0.874355	8.454936	-0.763469	-1.386161	-0.425831	-0.258812	8.389631	-1.499495	12.91207	-74.509478	145.901085	142.78359	0.03002	0.90659	0.444289	7.713933	3.935435	2.062259	18.112661	2.954176	-2.244633	-0.479894	0.047062	1.112026
-1.471406	0.466238	10.293038	1.453333	9.30471	-0.986804	-1.341904	-0.458413	-0.253609	9.880061	-1.964093	14.003138	-63.285792	136.334628	127.288425	0.042027	0.900586	0.456297	8.281887	4.68695	2.076939	19.434793	3.104686	-0.956439	-0.459781	0.097032	0.982287
-1.081817	-3.1e-05	9.663959	2.177258	9.779735	-1.106738	-1.358241	-0.439171	-0.292031	12.0307	-2.944541	14.046156	-37.434683	126.699946	103.815278	0.036023	0.912594	0.480313	7.927633	3.64208	1.323252	20.542381	3.001904	0.703486	-0.531008	0.106008	1.02776
-0.962246	-0.231754	9.896945	3.388039	9.807036	-0.951042	-1.328267	-0.454764	-0.288931	13.88387	-4.0373	13.257942	-3.482613	120.19516	71.812704	0.060039	0.90659	0.498324	8.037902	4.336084	1.214474	21.280523	3.107771	2.448331	-0.486999	0.073566	1.127711
-1.134355	-0.289629	9.893376	3.954793	10.225044	-1.100142	-1.359651	-0.457557	-0.290927	15.985844	-4.726819	10.704445	26.171944	116.40599	31.9748	0.042027	0.90659	0.510332	7.920864	4.21973	1.04042	21.127095	3.170189	4.311716	-0.512359	0.068187	1.074949
-1.022198	0.058236	9.780871	4.284715	10.957042	-1.230715	-1.371496	-0.423308	-0.275974	17.071149	-5.64244	8.131795	39.538132	112.178827	-11.7961	0.054035	0.900586	0.546356	7.578306	4.104357	0.976044	19.928398	3.239051	6.933922	-0.462953	0.064263	1.07236
-1.12995	-0.114942	10.125054	4.105431	11.616994	-1.871648	-1.349214	-0.510191	-0.304775	17.638042	-4.37911	5.368507	32.767707	103.885046	-51.99158	0.054035	0.900586	0.534348	8.158444	3.816103	1.499822	17.776443	3.355205	9.7028	-0.483874	0.07407	1.098155
-1.132514	0.174992	10.010123	3.595824	12.374302	-2.225699	-1.359651	-0.457557	-0.290927	17.460153	-3.40412	5.06852	15.655308	88.849169	-81.217376	0.048031	0.918598	0.55236	7.933924	4.45447	1.726577	15.840175	3.236058	11.988927	-0.466505	0.077515	1.080202
-1.252671	-0.173852	9.717925	4.880876	12.925697	-2.264157	-1.356831	-0.420785	-0.293136	16.970888	-2.258869	6.295714	6.741848	66.227867	-98.955373	0.018012	0.900586	0.546356	8.322619	4.335515	1.220106	14.765374	2.722879	12.637302	-0.479894	0.047062	1.112026
-1.413628	0.059883	10.293203	5.631778	14.231393	-2.381174	-1.345751	-0.494058	-0.26956	15.559073	-0.822805	6.561011	6.693896	39.021381	-104.257868	0.006004	0.924602	0.576375	8.153825	3.872948	1.271716	14.151537	2.147444	11.668676	-0.515485	0.067683	1.104504
-1.025238	-0.348482	9.606448	8.762158	15.254259	-2.199659	-1.374315	-0.460079	-0.273765	16.086873	6.496119	48.66969	-242.265354	-1.444621	-164.56727	-0.006004	0.918598	0.576375	7.864501	3.351135	0.978258	13.567732	1.824839	10.205005	-0.546197	0.066049	1.093764
-1.530468	-0.172456	10.174729	9.624126	15.685951	-1.652355	-1.337938	-0.363105	-0.313612	12.690801	13.384022	12.615347	140.436333	-96.986794	-64.498693	-0.03002	0.912594	0.594387	7.805749	3.698364	0.921617	11.076937	1.650579	7.473692	-0.483401	0.092578	1.059351
-1.582197	-0.113659	10.462799	9.747115	16.745289	-0.511641	-1.34563	-0.434395	-0.345514	12.572068	0.325851	10.217312	247.30555	-148.509018	-35.790015	-0.036023	0.912594	0.582379	7.190522	3.760141	1.480413	8.463569	1.400815	5.599802	-0.534134	0.105504	1.057316
-1.402951	-0.345158	10.812558	11.028785	16.590853	1.590704	-1.312575	-0.453367	-0.287933	-5.483782	-1.033923	-0.979561	178.231939	-159.257446	-30.230525	-0.018012	0.930606	0.564367	6.845495	3.180808	1.242658	8.096086	0.943145	7.229401	-0.511933	0.054431	1.096662
-1.37524	-0.632018	12.199413	19.657405	25.86809	4.547566	-1.312192	-0.433855	-0.307198	-14.339872	9.18642	1.427774	41.55612	-166.444814	15.193693	-0.018012	0.942613	0.546356	6.616686	4.281557	1.30024	5.670629	-0.181469	10.790169	-0.483447	0.060314	1.119868
