1546_acc_x	1546_acc_y	1546_acc_z	1546_gyro_x	1546_gyro_y	1546_gyro_z	1546_mag_x	1546_mag_y	1546_mag_z	1548_acc_x	1548_acc_y	1548_acc_z	1548_gyro_x	1548_gyro_y	1548_gyro_z	1548_mag_x	1548_mag_y	1548_mag_z	1549_acc_x	1549_acc_y	1549_acc_z	1549_gyro_x	1549_gyro_y	1549_gyro_z	1549_mag_x	1549_mag_y	1549_mag_z
-1.97	-0.6599	9.3483	-0.0031	-0.5246	-0.2433	0.7768	-0.7407	-1.3356	2.606	-0.3646	9.4982	-0.273	0.5027	-0.0903	0.5165	-0.3008	-1.755	9.9496	-1.752	-0.8514	-0.9429	0.1493	0.0872	-0.1081	-0.3362	-0.072
-1.7297	-0.4864	9.7559	-0.0028	-0.4644	-0.2093	0.3069	0.716	-0.8732	2.4332	-0.3643	9.5531	-0.1506	0.3101	0.0209	0.5348	-0.2537	-1.7764	9.8365	-1.6931	-0.6257	-0.6975	0.1403	0.3	-0.1321	-0.2942	-0.3422
-2.3834	-0.8905	8.9946	0.1818	-0.3433	-0.2016	0.3269	0.762	-0.8073	2.78	-0.4225	9.5012	-0.1488	0.3993	0.0887	0.5364	-0.2312	-1.7126	9.7088	-1.636	-1.1405	-0.6086	-0.1325	0.1313	-0.1321	-0.2822	-0.3422
-1.965	-0.2556	9.6368	0.0923	-0.1528	-0.2842	0.3617	0.7403	-0.8724	2.26	-0.0753	9.6083	-0.1184	0.3357	0.1155	0.5521	-0.3	-1.7329	9.713	-1.4026	-0.912	-0.856	-0.335	-0.2154	-0.1201	-0.2942	-0.3602
-2.3216	0.1478	9.2858	0.122	-0.0427	-0.0015	0.3426	0.7412	-0.9173	2.3175	-0.5373	9.5508	-0.0872	0.3337	0.1463	0.4991	-0.2779	-1.7769	9.4802	-1.4603	-0.8027	-1.104	-0.3787	-0.7076	-0.1141	-0.2822	-0.3482
-1.9102	-0.3138	9.4653	0.0605	-0.0728	-0.0035	0.3072	0.6916	-0.8505	2.3789	0.0403	9.7846	-0.1188	0.2727	0.1425	0.4838	-0.2565	-1.6708	9.7775	-1.5184	-0.6264	-1.1022	0.0213	-0.6869	-0.1261	-0.2822	-0.3422
-1.6177	-0.6601	9.5277	0.2759	-0.0669	-0.1862	0.3448	0.7865	-0.8296	2.5572	-0.1329	10.0196	-0.2081	0.5187	0.1899	0.4993	-0.3016	-1.734	9.8895	-1.5774	-0.9091	-0.4884	0.3736	-0.3046	-0.1261	-0.2882	-0.3482
-1.8582	-0.1416	9.1793	0.0614	-0.0964	-0.1584	0.3437	0.7639	-0.8734	2.0384	0.099	10.1845	-0.3666	0.2169	0.1089	0.5518	-0.2998	-1.7542	9.5389	-1.3439	-0.8013	0.3927	0.4058	-0.5868	-0.1261	-0.2822	-0.3422
-1.7966	-0.718	9.2941	-0.0905	-0.0005	-0.185	0.3068	0.7641	-0.8966	2.2075	-0.2481	9.8971	-0.303	0.4019	0.0896	0.4984	-0.3245	-1.7551	9.8857	-1.1704	-1.079	0.6053	0.5628	-0.7341	-0.1141	-0.2822	-0.3362
-1.7286	-0.4286	9.8135	-0.1237	-0.1335	0.0228	0.2899	0.8103	-0.8538	2.4328	-0.0178	9.5535	-0.4876	0.5325	0.0058	0.5172	-0.2542	-1.7768	9.893	-1.6934	-0.7385	0.6323	0.3252	-1.0235	-0.1261	-0.2882	-0.3542
-1.9065	-0.4287	9.6375	-0.0932	-0.1928	-0.0417	0.3255	0.7637	-0.8739	2.5532	-0.3064	9.7873	-0.4896	0.4448	-0.093	0.5001	-0.2316	-1.7774	9.6486	-1.345	-1.1978	0.2632	0.3113	-1.4517	-0.1261	-0.2882	-0.3362
-2.0919	-0.1413	9.1172	0.0287	-0.1678	0.0527	0.3233	0.7184	-0.9616	2.0824	-0.3641	9.3728	-0.3335	0.4654	0.0628	0.5518	-0.2998	-1.7542	9.4712	-1.4032	-1.2583	0.5054	0.2209	-1.5813	-0.1261	-0.2882	-0.3542
-2.1401	-0.486	9.5753	-0.185	-0.1916	-0.0422	0.2718	0.762	-0.8309	2.4848	-0.2493	9.2062	-0.2398	0.361	0.273	0.5332	-0.3467	-1.7541	9.65	-1.6359	-1.1416	0.5404	0.1404	-1.0016	-0.1141	-0.2942	-0.3422
-1.7281	-0.1402	9.8717	-0.1543	-0.1331	0.0226	0.3254	0.6918	-0.85	2.3195	-0.4217	9.6669	-0.3364	0.1871	0.0758	0.4991	-0.2779	-1.7769	9.9418	-1.753	-1.2502	0.8212	0.1432	-0.2042	-0.1081	-0.2882	-0.3422
-2.4299	-0.37	9.6273	-0.0611	-0.0669	-0.0962	0.325	0.7643	-0.8961	2.3182	-0.2486	9.6092	-0.4552	0.4599	0.2183	0.4994	-0.2782	-1.7556	9.5913	-1.6941	-1.1428	0.6744	0.2171	0.4158	-0.1141	-0.2822	-0.3602
-1.6181	-0.4295	9.5283	-0.0608	-0.0066	-0.0622	0.3429	0.7169	-0.8945	2.14	-0.1332	9.3741	-0.334	0.3378	0.1477	0.5877	-0.2992	-1.7108	9.7122	-1.6356	-0.9696	0.4937	0.0232	0.7454	-0.1201	-0.2882	-0.3302
-1.739	-0.4298	9.2959	0.0621	0.0829	-0.0259	0.3608	0.7414	-0.9168	2.4924	-0.4798	9.612	-0.3967	0.2789	0.1131	0.5349	-0.3008	-1.7119	9.5967	-1.5188	-0.8576	0.6753	0.0574	0.5919	-0.1201	-0.3062	-0.3482
-2.03	-0.314	9.2905	-0.1187	0.2776	-0.1703	0.3619	0.7641	-0.873	2.4322	0.4441	9.5541	-0.335	0.3101	0.0838	0.4999	-0.255	-1.7558	9.7076	-1.5779	-1.1973	0.6442	0.0288	0.5292	-0.1261	-0.2762	-0.3542
-1.9115	-0.2563	9.4079	-0.1832	-0.0345	-0.0952	0.3626	0.7873	-0.8514	2.4262	0.2704	9.2058	-0.2111	0.4356	-0.0018	0.4993	-0.3016	-1.734	9.4637	-1.6952	-1.6578	0.5505	-0.0241	0.2812	-0.1141	-0.2942	-0.3542
-1.395	0.2609	9.132	-0.2752	-0.0935	-0.1297	0.3261	0.7869	-0.8523	2.0257	0.2713	9.4886	-0.3331	0.4961	0.0648	0.5175	-0.2545	-1.7554	9.7085	-1.4032	-1.1399	0.3658	-0.1089	0.0938	-0.1141	-0.2942	-0.3482
-1.9181	-0.4301	9.0625	-0.2771	-0.2801	-0.109	0.3624	0.7635	-0.8508	2.3231	0.0405	9.8996	-0.1226	0.3554	-0.2868	0.4988	-0.3248	-1.7337	9.2388	-1.8101	-1.1498	-0.1561	-0.1821	-0.3669	-0.1261	-0.2762	-0.3422
-1.9171	-0.3146	9.1203	-0.1566	-0.4682	-0.0875	0.3426	0.7412	-0.9173	2.4352	-0.3064	9.6692	-0.1833	0.3197	-0.1647	0.4991	-0.2779	-1.7769	9.7078	-1.7526	-1.1977	-0.3094	-0.1144	-0.5159	-0.1321	-0.2822	-0.3422
-1.5122	-0.431	9.013	-0.0638	-0.2592	0.0472	0.3258	0.7394	-0.8512	2.0875	-0.3059	9.6629	-0.0258	0.3987	0.0571	0.534	-0.3237	-1.733	9.5922	-1.5193	-1.0854	-0.0284	0.0443	0.228	-0.1381	-0.2762	-0.3422
-1.6722	-0.1406	9.7578	-0.1223	-0.2117	-0.2887	0.3627	0.7392	-0.828	2.3124	-0.5955	9.2606	-0.0569	0.4008	0.0263	0.5345	-0.3005	-1.7332	9.2959	-1.2864	-1.2044	-0.0214	0.0485	1.0584	-0.1201	-0.2942	-0.3422
-2.1437	-0.4288	9.4029	-0.0923	-0.187	-0.1643	0.3074	0.7154	-0.8511	2.5476	-0.0181	9.4976	0.0057	0.3952	0.1188	0.518	-0.2313	-1.7556	9.4193	-1.5187	-0.9179	-0.0218	-0.1688	1.1086	-0.1081	-0.3002	-0.3542
-2.1982	0.0331	9.6329	0.001	-0.0325	-0.1861	0.306	0.7171	-0.9176	2.1452	-0.0751	9.6643	-0.2773	-0.0291	0.0615	0.5508	-0.3461	-1.7538	9.5934	-1.5774	-1.0286	-0.2698	-0.4319	0.728	-0.1381	-0.2942	-0.3422
-1.5022	-0.2568	9.531	-0.0301	-0.035	-0.125	0.3257	0.7875	-0.8745	2.0833	-0.2485	9.4309	-0.1485	0.3655	0.1486	0.5526	-0.2768	-1.7331	9.537	-1.6935	-0.9161	-0.3937	-0.6106	0.5659	-0.1381	-0.2822	-0.3422
-1.6735	-0.6597	9.6416	-0.0603	-0.0905	-0.2511	0.3428	0.765	-0.9178	2.1955	0.1553	9.2595	-0.3352	0.3762	-0.0051	0.5535	-0.2539	-1.712	9.5978	-1.4604	-0.8005	-0.3355	-0.6945	0.2844	-0.1261	-0.2882	-0.3362
-1.9758	-0.0262	9.1198	-0.247	-0.3422	-0.1121	0.3805	0.6918	-0.8264	2.0222	-0.2487	9.2559	-0.183	0.3504	-0.1627	0.5518	-0.2998	-1.7542	9.4775	-2.0428	-0.975	-0.4602	-0.7135	-0.0538	-0.1201	-0.2942	-0.3482
-2.0266	-0.2559	9.4631	-0.1825	-0.0007	-0.1549	0.3255	0.7637	-0.8739	2.3198	0.1558	9.7257	-0.2104	0.4648	0.0312	0.5156	-0.3472	-1.7545	9.8234	-2.044	-1.3101	-0.4022	-0.3895	-0.5602	-0.1261	-0.2762	-0.3422
-1.9174	-0.1993	9.1205	-0.3364	-0.1221	-0.1624	0.3429	0.7169	-0.8945	2.1468	-0.5369	9.7217	-0.1192	0.4371	-0.0642	0.5542	-0.2544	-1.6693	9.9472	-1.6359	-0.9651	-0.6758	0.0177	-0.6905	-0.1141	-0.2942	-0.3362
-1.852	-0.3716	9.4663	-0.1838	-0.0388	-0.0033	0.3071	0.7397	-0.8738	2.3781	-0.133	9.7264	-0.3003	0.4865	0.2504	0.5167	-0.2774	-1.7765	9.0704	-1.9254	-0.7547	-0.279	0.324	-0.7393	-0.1261	-0.2942	-0.3482
-1.793	-0.7752	9.4665	-0.2138	-0.0635	-0.1277	0.2707	0.7394	-0.8748	2.3181	-0.1331	9.6093	-0.0563	0.1704	0.3218	0.5354	-0.2776	-1.7121	9.7109	-1.5193	-1.0262	-0.1568	0.4779	-0.7631	-0.1141	-0.3002	-0.3362
-1.971	-0.141	9.3495	-0.0011	-0.2205	-0.1348	0.3611	0.7171	-0.894	2.3149	-0.1333	9.4353	-0.0882	0.306	0.0824	0.4994	-0.2782	-1.7556	9.5868	-1.6364	-1.3706	-0.1247	0.4399	-0.5501	-0.1261	-0.2822	-0.3422
-1.7928	-0.3139	9.5251	-0	0.0191	0.0318	0.326	0.7631	-0.8517	1.9732	0.0985	9.7774	0.1282	0.2348	0.201	0.5689	-0.3224	-1.7536	9.4235	-1.3435	-0.6896	-0.3958	0.2429	-0.0969	-0.1201	-0.2822	-0.3362
-2.1416	-0.3132	9.5182	-0.181	0.0961	-0.2419	0.3237	0.7178	-0.9394	2.6573	-0.0187	9.1516	0.0954	0.1799	0.0734	0.5342	-0.3003	-1.7546	9.949	-1.1699	-0.85	-0.4257	-0.0407	0.1039	-0.1441	-0.2822	-0.3302
-2.1976	-0.2551	9.6322	0.002	0.2071	-0.0196	0.3801	0.7642	-0.8725	2.5515	-0.5952	9.6709	-0.0579	0.1779	0.1671	0.518	-0.2313	-1.7556	9.5961	-1.9846	-0.9157	-0.6402	-0.034	-0.0478	-0.1381	-0.2942	-0.3482
-1.7266	-0.313	9.9288	0.0348	0.4829	0.0261	0.3425	0.7894	-0.9406	2.1391	-0.191	9.316	0.0647	0.0498	0.2203	0.5516	-0.3232	-1.7327	9.7125	-0.9369	-0.9109	-0.5176	-0.2255	0.1257	-0.1201	-0.2882	-0.3482
-1.9038	-0.659	9.752	0.1582	0.6047	0.0334	0.3066	0.7403	-0.896	2.32	-0.0175	9.7255	-0.2124	0.2143	0.1081	0.5352	-0.2539	-1.7551	9.7081	-1.0539	-1.1391	-0.3969	-0.1284	-0.0547	-0.1201	-0.2882	-0.3542
-1.8449	-0.4284	9.8112	0.1889	0.4308	-0.2216	0.3437	0.7639	-0.8734	2.1978	0.04	9.3754	-0.0616	0.0656	-0.0576	0.5312	-0.3689	-1.8393	9.4169	-1.4026	-1.0316	-0.2131	-0.2281	0.1231	-0.1141	-0.2762	-0.3482
-1.9149	-0.2567	9.2354	0.0045	0.2818	-0.2922	0.3066	0.7403	-0.896	2.0296	-0.3059	9.6619	0.0023	0.0217	0.1877	0.5531	-0.2536	-1.7333	9.7132	-1.5772	-0.9124	0.0298	0.0546	-0.1101	-0.1321	-0.2822	-0.3362
-1.748	0.0304	8.8945	-0.0891	0.2126	-0.1121	0.2889	0.7396	-0.8743	2.0807	0.1555	9.3154	0.0664	0.3664	0.0546	0.5183	-0.255	-1.7127	9.7165	-1.5186	-0.7414	0.2162	-0.0867	0.4037	-0.1321	-0.2762	-0.3362
-1.7398	-0.0263	9.2969	-0.0886	0.2155	-0.1735	0.3611	0.7171	-0.894	2.2552	-0.3644	9.3179	-0.243	0.1488	0.1971	0.4991	-0.2779	-1.7769	9.5934	-1.5774	-1.0286	-0.0297	-0.0758	0.1295	-0.1141	-0.2762	-0.3602
-1.6198	-0.1414	9.4715	-0.0272	0.2455	-0.1714	0.2882	0.7163	-0.8959	2.2596	0.2712	9.6088	0.0366	0.4269	0.0897	0.5364	-0.2312	-1.7126	9.4115	-1.5779	-1.3168	0.0907	-0.1652	0.0009	-0.1141	-0.2882	-0.3482
-1.8487	-0.2558	9.6391	-0.0287	0.1487	-0.0844	0.3428	0.765	-0.9178	2.2039	0.1559	9.7236	-0.244	0.0888	0.1621	0.5338	-0.3001	-1.7759	9.4761	-1.7519	-1.0313	0.1848	-0.1451	0.3087	-0.1261	-0.3002	-0.3422
-1.6141	-0.7174	9.7001	0.0321	0.1744	0.0095	0.343	0.7888	-0.9184	2.6048	-0.1914	9.4404	-0.3358	0.1841	0.1377	0.5703	-0.2763	-1.7327	9.5922	-1.5193	-1.0854	-0.0234	-0.1629	0.9244	-0.1261	-0.2822	-0.3362
-2.0923	-0.545	9.0587	0.1252	0.3275	0.0183	0.3071	0.7397	-0.8738	2.1972	-0.3643	9.3169	-0.0561	0.4945	0.0014	0.5341	-0.2532	-1.8191	9.5346	-1.5191	-1.0296	-0.1417	-0.3007	1.4102	-0.1261	-0.2762	-0.3302
-1.9666	-0.0251	9.5798	0.064	0.1827	-0.1742	0.3071	0.7397	-0.8738	2.4909	-0.1334	9.5544	-0.3053	0.1851	0.1066	0.5693	-0.3227	-1.7323	9.8275	-1.6942	-1.0814	0.0136	-0.4389	1.8322	-0.1261	-0.2882	-0.3482
-2.2019	-0.4287	9.4017	0.1531	0.0186	0.002	0.3615	0.7646	-0.8952	2.3178	-0.7683	9.5505	-0.3038	0.3404	0.0856	0.551	-0.2993	-1.7969	9.772	-1.5773	-0.9113	0.2221	-0.4537	1.2763	-0.1321	-0.2822	-0.3362
-1.6306	-0.5463	8.8954	0.1517	-0.1356	-0.0063	0.3073	0.7635	-0.8744	2.599	-0.5383	9.0919	-0.2139	0.2864	-0.1046	0.5358	-0.2779	-1.6908	10.0605	-1.8112	-1.1911	0.2434	-0.5436	0.226	-0.1261	-0.3002	-0.3542
-2.031	-0.3718	9.2328	0.1517	-0.1356	-0.0063	0.3608	0.7414	-0.9168	2.3133	-0.4799	9.3188	-0.2091	0.4588	0.155	0.4986	-0.3011	-1.7767	10.0069	-1.4029	-0.9064	0.4176	-0.2616	-0.9292	-0.1201	-0.2882	-0.3422
-1.6689	-0.0825	9.9305	0.1829	-0.0449	0.0295	0.3813	0.7869	-0.8287	2.3772	-0.2486	9.6682	-0.2445	0.2531	-0.0445	0.5345	-0.3005	-1.7332	9.5928	-1.0535	-1.0274	0.3572	-0.2005	-0.8948	-0.1141	-0.2822	-0.3482
-2.0327	-0.0836	9.176	0.0943	0.297	0.0165	0.326	0.7631	-0.8517	2.2597	0.1557	9.6086	-0.0563	0.1704	0.3218	0.5347	-0.2771	-1.7548	9.6511	-1.5776	-1.0845	0.3926	-0.1887	-0.3103	-0.1321	-0.2942	-0.3362
-1.5664	-0.6611	9.1838	0.0655	0.3089	-0.2289	0.326	0.7631	-0.8517	2.2032	-0.1329	9.6652	0.0661	0.1406	0.2572	0.5189	-0.2083	-1.7345	9.6586	-1.3438	-0.6851	0.2757	0.0437	0.164	-0.1201	-0.2822	-0.3602
-1.9174	-0.1993	9.1205	0.0955	0.363	-0.0722	0.3075	0.7873	-0.875	2.023	-0.0754	9.3141	0.1241	0.0594	0.0033	0.5521	-0.3	-1.7329	9.5968	-1.577	-0.8577	0.5837	0.1842	0.507	-0.1261	-0.2822	-0.3542
-1.917	0.2044	9.179	-0.0869	0.4594	-0.0989	0.3248	0.7405	-0.8955	2.1403	-0.3064	9.3739	-0.0866	0.3307	0.2082	0.5509	-0.3227	-1.7753	9.3559	-1.4028	-1.1466	0.7941	0.1932	0.1676	-0.1261	-0.3002	-0.3422
-1.9733	-0.1413	9.2345	0.0983	0.6142	-0.1509	0.3435	0.7401	-0.8729	2.137	-0.1911	9.2	-0.1808	0.243	0.1408	0.5536	-0.2305	-1.7336	9.6542	-1.3443	-0.913	0.9745	0.138	-0.0828	-0.1201	-0.2942	-0.3542
-1.9102	-0.3138	9.4653	0.0639	0.3856	0.1133	0.3437	0.7639	-0.8734	2.3131	-0.3067	9.319	-0.1497	0.2087	0.2005	0.5355	-0.2542	-1.7337	9.8297	-1.6357	-0.9673	1.0624	-0.0683	-0.4017	-0.1321	-0.2882	-0.3422
-1.7368	0.2047	9.47	-0.0296	0.0841	-0.0264	0.3626	0.7873	-0.8514	1.9661	-0.0752	9.3711	-0.2427	0.3746	-0.0056	0.4982	-0.3009	-1.798	9.8862	-1.6361	-1.0801	0.7543	-0.2713	-0.7172	-0.1201	-0.2762	-0.3542
-1.7384	-0.7181	9.2953	0.0329	0.2964	0.0468	0.3428	0.765	-0.9178	2.6023	0.0971	9.3247	-0.2709	0.3953	0.2132	0.5176	-0.3016	-1.6909	9.7179	-1.7513	-0.685	0.3572	-0.263	-0.8673	-0.1381	-0.2822	-0.3422
-2.0271	-0.0253	9.4637	-0.1181	0.3687	-0.1347	0.3444	0.7871	-0.8518	2.3199	0.098	9.7256	-0.3331	0.4639	0.0938	0.5514	-0.2995	-1.7756	9.4793	-1.6351	-0.8601	0.2346	-0.6034	-0.7918	-0.1321	-0.2942	-0.3542
-1.9111	-0.4292	9.4075	0.0635	0.2666	0.0147	0.3616	0.7165	-0.8718	2.2051	0.0405	9.7815	-0.2436	0.1841	0.1062	0.5528	-0.2534	-1.7547	9.1817	-1.2859	-1.0357	0.4235	-0.3785	-0.1666	-0.1261	-0.2882	-0.3422
-2.0244	-0.198	9.5783	0.0328	0.1787	-0.0824	0.3247	0.7886	-0.9189	2.3719	-0.1912	9.3782	-0.1494	0.4346	-0.0021	0.5005	-0.2789	-1.6915	9.8283	-1.403	-1.0237	0.7014	-0.3331	0.2639	-0.1261	-0.2882	-0.3422
-1.9147	-0.372	9.2351	0.0032	0.3025	-0.076	0.2889	0.7396	-0.8743	1.8509	0.2137	9.4274	0.0029	0.246	0.016	0.5523	-0.2766	-1.7545	9.6588	-1.5184	-0.6856	0.7013	-0.3013	0.2348	-0.1261	-0.3002	-0.3422
-1.9046	-0.8321	9.6941	-0.0586	0.1534	-0.1766	0.3062	0.7409	-0.9182	1.9686	-0.3638	9.4867	-0.3055	0.2189	0.0467	0.5174	-0.2779	-1.7338	9.0107	-1.0521	-0.7537	0.4297	0.0355	0.3776	-0.1141	-0.2882	-0.3542
-1.7898	-0.6595	9.6393	0.0626	0.1152	-0.0549	0.3076	0.7392	-0.8516	2.3232	-0.075	9.8994	-0.3343	0.3394	0.1167	0.552	-0.2529	-1.7974	9.5917	-1.0536	-1.0843	0.3996	0.0031	0.4376	-0.1321	-0.3062	-0.3542
-1.7944	-0.0834	9.4681	-0.0275	0.1853	-0.2054	0.3614	0.8128	-0.9185	2.3114	0.2129	9.2617	-0.2737	0.2138	0.1393	0.534	-0.3237	-1.733	9.5423	-1.4017	-0.6305	0.1217	-0.1049	0.0346	-0.1381	-0.2822	-0.3482
-1.5637	-0.3148	9.3572	0.061	-0.0699	-0.0648	0.3244	0.7411	-0.9177	2.2602	-0.1908	9.6082	-0.2432	0.4744	-0.1543	0.551	-0.2993	-1.7969	9.4754	-1.1698	-1.0299	-0.1581	-0.1742	-0.6125	-0.1261	-0.2762	-0.3602
-1.9664	-0.1404	9.5796	0.0306	-0.0975	-0.128	0.3617	0.7403	-0.8724	2.3121	-0.3645	9.2609	-0.3959	0.3727	0.0881	0.5338	-0.3001	-1.7759	9.2342	-1.6943	-1.3774	-0.2206	-0.1678	-0.7961	-0.1321	-0.2822	-0.3482
-1.4979	-0.0833	9.7614	-0.0024	-0.3747	-0.143	0.3432	0.7644	-0.8956	2.1473	-0.1327	9.7802	-0.1208	0.2173	0.0147	0.5516	-0.3232	-1.7327	9.6513	-1.7522	-1.0849	-0.0658	-0.1789	-0.4905	-0.1141	-0.2882	-0.3422
-1.6786	-0.4297	9.4121	0.1515	-0.2827	-0.1678	0.3246	0.7648	-0.9183	2.2012	-0.1908	9.5491	-0.1786	0.4275	0.1528	0.5167	-0.2774	-1.7765	9.8285	-1.5194	-1.024	0.3079	0.0366	0.3786	-0.1321	-0.2762	-0.3482
-1.6166	-0.6023	9.5854	0.3341	-0.2908	-0.0441	0.3793	0.7172	-0.8936	2.493	-0.1332	9.6704	-0.1859	0.0722	-0.1497	0.5353	-0.2305	-1.7766	9.12	-1.6937	-1.2087	0.3398	0.3123	0.4234	-0.1201	-0.2822	-0.3422
-2.3246	-0.0832	9.1127	0.0914	-0.1879	-0.1939	0.3074	0.7154	-0.8511	2.4302	-0.48	9.3789	-0.3056	0.1866	0.0756	0.5531	-0.2536	-1.7333	9.5384	-1.9262	-0.8597	0.2805	0.4944	0.5256	-0.1021	-0.2882	-0.3422
-2.0807	-0.5436	9.6338	-0.0305	-0.1835	-0.2559	0.3608	0.7414	-0.9168	2.5486	0.0398	9.5557	-0.4277	0.3777	-0.0045	0.5528	-0.2534	-1.7547	9.6003	-1.7512	-0.6872	0.1551	0.1024	0.291	-0.1381	-0.2822	-0.3602
-1.9596	-0.6586	9.8658	-0.0021	-0.3145	-0.1091	0.326	0.7631	-0.8517	2.3153	-0.422	9.4349	-0.4554	0.5904	0.0715	0.5523	-0.2766	-1.7545	9.4746	-1.461	-1.0875	-0.2374	0.2179	0.6385	-0.1201	-0.2822	-0.3362
-1.6137	-0.3137	9.7586	-0.1543	-0.3082	-0.2019	0.3245	0.6929	-0.8944	2.378	-0.0175	9.7265	-0.3062	0.1897	0.0137	0.5517	-0.3703	-1.6681	9.5969	-1.6934	-0.858	-0.5119	0.253	0.5811	-0.1321	-0.2762	-0.3602
-1.911	-0.4869	9.4074	-0.0607	-0.1802	-0.3174	0.3417	0.7424	-0.9617	2.2042	-0.1328	9.7232	-0.2134	0.1866	0.0442	0.552	-0.3234	-1.7113	9.5876	-1.3452	-1.3129	-0.1488	0.2905	0.2726	-0.1381	-0.2822	-0.3542
-2.2543	-0.3702	9.6882	-0.1193	0.1571	-0.2382	0.3253	0.7399	-0.8733	2.378	-0.0753	9.7264	-0.2423	0.2103	0.2011	0.5165	-0.3008	-1.755	9.3547	-1.3447	-1.2034	-0.151	0.5495	-0.1137	-0.1261	-0.2942	-0.3542
-2.1998	-0.3131	9.517	0.0075	0.6505	-0.2418	0.3251	0.7161	-0.8728	2.5472	-0.48	9.439	-0.0294	0.1235	0.0082	0.5186	-0.2552	-1.6914	9.8181	-1.2296	-1.536	-0.2408	0.5126	0.1004	-0.0961	-0.2762	-0.3422
-1.567	-0.3728	9.1845	-0.1449	0.6553	-0.3039	0.3076	0.8111	-0.8755	2.0901	0.0985	9.8375	-0.0301	0.062	0.0042	0.518	-0.2313	-1.7556	9.7115	-2.0432	-1.0275	-0.4822	0.3807	0.4337	-0.1261	-0.2822	-0.3302
-1.8584	-0.0263	9.1796	-0.114	0.7152	-0.2698	0.2892	0.7871	-0.8754	2.2607	0.2135	9.6667	0.0656	0.2404	0.1085	0.5352	-0.2539	-1.7551	9.4834	-1.3434	-0.6315	-0.6335	0.1905	0.6403	-0.1201	-0.2882	-0.3422
-2.1466	-0.7174	9.2297	-0.1164	0.467	-0.2524	0.3248	0.7405	-0.8955	2.4933	-0.3642	9.6701	-0.2137	0.2204	-0.0157	0.5347	-0.2771	-1.7548	9.5299	-1.345	-1.257	-0.5145	0.0127	0.3841	-0.1201	-0.2882	-0.3602
-1.5024	-0.1415	9.5313	-0.0842	0.6811	-0.21	0.3434	0.7882	-0.8962	2.7765	-0.1918	9.3275	-0.1843	0.0969	-0.0239	0.5357	-0.2307	-1.7553	9.9461	-1.5778	-1.0219	-0.6371	0.0792	0.2656	-0.1081	-0.2762	-0.3542
-1.7976	-0.1991	9.2953	-0.1188	0.3349	-0.075	0.3447	0.7628	-0.8291	2.0886	-0.3059	9.7209	-0.1808	0.3075	0.0829	0.516	-0.324	-1.7547	9.659	-1.693	-0.686	-0.49	0.1294	-0.3788	-0.1201	-0.2942	-0.3362
-1.7317	-0.0253	9.6994	0.0021	0.1497	-0.1149	0.325	0.6924	-0.8722	2.2699	-0.4788	10.1299	-0.0855	0.4229	0.2142	0.5523	-0.2766	-1.7545	9.2994	-1.4606	-1.0339	-0.826	-0.2082	-0.3321	-0.1321	-0.3002	-0.3482
-2.0242	-0.3133	9.578	-0.0601	0.0271	-0.1219	0.343	0.7888	-0.9184	2.1495	-0.1902	9.8962	-0.1221	0.1911	-0.0802	0.5699	-0.276	-1.7541	9.6518	-1.2282	-1.0267	-0.9457	-0.2468	-0.0564	-0.1081	-0.2882	-0.3422
-1.9693	-0.4291	9.4063	0.1554	0.2668	-0.0155	0.3253	0.7399	-0.8733	2.7782	0.1548	9.444	0.0043	0.4995	-0.1228	0.5518	-0.2998	-1.7542	9.7132	-1.5772	-0.9124	-1.1274	-0.3743	0.123	-0.1321	-0.2822	-0.3542
-2.0837	-0.7747	9.4607	0.0013	0.0278	-0.1522	0.3252	0.7881	-0.8967	2.0832	-0.1908	9.431	-0.0875	0.3352	0.1154	0.4986	-0.3011	-1.7767	9.8287	-1.7523	-1.0246	-0.9732	-0.2266	0.2832	-0.1321	-0.3002	-0.3422
-1.8565	-0.4298	9.2361	0.0024	0.1806	-0.1133	0.3452	0.8341	-0.8308	2.6033	0.1549	9.3828	-0.2739	0.3444	-0.0074	0.4823	-0.2555	-1.7562	9.3534	-1.1702	-1.26	-0.7615	-0.3168	0.1537	-0.1381	-0.2882	-0.3422
-2.0856	-0.4289	9.404	-0.0318	-0.1921	-0.072	0.3432	0.7644	-0.8956	2.2562	-0.3643	9.3759	-0.2123	0.2788	0.0502	0.5693	-0.3227	-1.7323	9.9476	-1.9269	-0.9658	-0.5157	-0.2017	0.3422	-0.1381	-0.2882	-0.3422
-2.0281	-0.0831	9.406	-0.0014	-0.2513	-0.1364	0.3261	0.7869	-0.8523	2.3083	0.1549	9.0876	-0.1811	0.2768	0.0809	0.4988	-0.3248	-1.7337	9.7655	-1.7528	-1.2536	-0.5464	-0.1379	0.2843	-0.1321	-0.3062	-0.3602
-2.0803	-0.7742	9.6332	0.0304	-0.0401	-0.0327	0.3066	0.7403	-0.896	2.0264	-0.2484	9.4879	-0.2744	0.4119	-0.1272	0.5156	-0.3472	-1.7545	9.7106	-2.2762	-1.085	-0.5791	-0.2231	0.0649	-0.1381	-0.3122	-0.3542
-1.6231	-0.2571	9.2987	-0.1852	-0.2224	-0.0438	0.3253	0.7399	-0.8733	2.3752	-0.3065	9.5521	-0.2708	0.4598	0.1553	0.5162	-0.3006	-1.7763	9.3548	-1.4611	-1.2037	-0.4881	0.0908	-0.1348	-0.1261	-0.2882	-0.3422
-1.9039	-0.6014	9.7521	-0.0321	-0.223	-0.0736	0.3083	0.7143	-0.8067	2.3175	-0.5373	9.5508	-0.215	0.1942	-0.1106	0.5877	-0.2992	-1.7108	9.8261	-1.4033	-1.1377	-0.491	0.1959	-0.529	-0.1141	-0.2822	-0.3422
-1.9117	-0.141	9.4082	0.0307	-0.0386	-0.0633	0.3076	0.7392	-0.8516	2.3162	-0.3065	9.4931	-0.2723	0.3045	0.1763	0.5513	-0.3229	-1.754	9.8914	-1.2861	-0.7945	-0.3076	0.2231	-0.4676	-0.1261	-0.2942	-0.3242
-1.8524	-0.1409	9.4668	-0.0584	0.1548	-0.2072	0.3081	0.8105	-0.8533	1.7984	-0.0168	9.7161	-0.0582	0.2117	0.1072	0.5511	-0.3464	-1.7324	9.6501	-1.6942	-1.1417	-0.1207	0.1116	0.0785	-0.1261	-0.2822	-0.3422
-1.7919	-0.1984	9.5829	-0.151	0.1502	-0.0851	0.3804	0.7399	-0.8497	2.4329	-0.1333	9.5534	-0.1495	0.3378	0.0848	0.5353	-0.2305	-1.7766	9.5942	-1.2862	-0.9709	-0.4531	0.1353	0.39	-0.1201	-0.2882	-0.3482
-1.5614	-0.3145	9.4722	-0.2456	-0.1585	-0.0715	0.3426	0.7412	-0.9173	2.2612	-0.1329	9.6663	-0.1177	0.3327	0.1774	0.5324	-0.3462	-1.7968	9.5976	-1.344	-0.8002	-0.4845	-0.0173	0.3515	-0.1321	-0.2702	-0.3482
-2.0252	-0.3711	9.5203	-0.2136	-0.0914	-0.1907	0.3252	0.7881	-0.8967	1.9706	-0.3636	9.6027	0.0971	0.2691	0.1413	0.5536	-0.2305	-1.7336	9.6511	-1.6358	-1.0846	-0.2704	-0.1163	0.4984	-0.1261	-0.2882	-0.3482
-2.0838	-0.1403	9.5197	0.0018	0.0895	-0.1489	0.3624	0.7635	-0.8508	2.3156	-0.653	9.4346	-0.0902	0.0555	0.1593	0.5169	-0.3011	-1.7336	9.5966	-1.4023	-0.8573	-0.2709	-0.3962	0.5761	-0.1321	-0.3002	-0.3422
-1.7937	-0.4293	9.4673	0.0019	0.1483	-0.0843	0.3437	0.7639	-0.8734	2.6682	-0.4221	9.7312	-0.1494	0.2072	0.2315	0.5173	-0.3013	-1.7123	9.3546	-1.2283	-1.2031	-0.3938	-0.2345	0.3703	-0.1261	-0.2882	-0.3482
-1.8576	-0.4299	9.1786	-0.0302	-0.007	-0.062	0.3258	0.7394	-0.8512	2.7217	-0.1915	9.5005	-0.059	0.0857	0.1611	0.5349	-0.3008	-1.7119	9.5401	-1.4602	-0.7446	-0.3632	0.0779	0.2325	-0.1261	-0.2822	-0.3302
-2.0898	-0.6024	9.1736	0.0337	0.3301	-0.0128	0.3077	0.763	-0.8522	1.9709	0.2716	9.6616	-0.1503	0.244	0.1097	0.5164	-0.3243	-1.7334	9.7165	-1.5186	-0.7414	-0.3351	-0.0385	0.011	-0.1261	-0.2822	-0.3362
-1.8531	-0.3717	9.4088	0.0034	0.2451	-0.1713	0.3255	0.7637	-0.8739	2.2601	-0.133	9.6083	-0.1176	0.2344	0.2952	0.5521	-0.3	-1.7329	9.65	-1.5777	-1.1414	-0.06	-0.0448	0.1314	-0.1141	-0.2762	-0.3482
-1.851	-0.2561	9.5241	-0.057	0.3091	-0.199	0.3244	0.7411	-0.9177	2.196	-0.1911	9.2591	-0.2127	0.2158	0.0771	0.5174	-0.2779	-1.7338	9.2408	-1.6352	-1.0355	0.4595	-0.1186	0.3693	-0.1261	-0.2822	-0.3302
-1.5679	-0.4883	9.1268	-0.0288	0.2061	0.0108	0.3449	0.7384	-0.8063	2.1454	-0.2483	9.664	-0.3665	0.2814	0.051	0.5162	-0.3006	-1.7763	9.7107	-1.3447	-1.0258	0.5489	-0.3308	0.2346	-0.1141	-0.2942	-0.3542
-1.9753	-0.8912	9.0602	-0.306	-0.0652	-0.0669	0.3247	0.7167	-0.895	2.4909	-0.1911	9.5543	-0.1491	0.433	0.0288	0.4994	-0.2782	-1.7556	9.5414	-1.6347	-0.6881	0.1815	-0.2891	-0.0063	-0.1261	-0.2702	-0.3482
-1.9722	-0.1411	9.292	-0.2735	0.1504	-0.0552	0.3438	0.7158	-0.8501	2.2556	0.0976	9.3765	-0.364	0.4644	0.094	0.5704	-0.2529	-1.7543	9.54	-1.3438	-0.7443	-0.0942	-0.3116	-0.1897	-0.1261	-0.2822	-0.3482
-1.9637	-0.3131	9.6941	-0.3061	-0.2696	-0.3238	0.3247	0.7167	-0.895	2.3166	-0.5952	9.4927	-0.2709	0.363	0.2422	0.5516	-0.3232	-1.7327	9.6563	-1.2858	-0.7989	0.3017	-0.1899	-0.2481	-0.1381	-0.2822	-0.3482
-1.5557	-0.2561	9.7599	-0.2128	0.0011	-0.1857	0.3248	0.7405	-0.8955	2.0299	0.2139	9.7206	-0.2423	0.3731	0.0254	0.5335	-0.3469	-1.7328	9.3632	-1.9258	-0.8061	0.6101	-0.2072	0.2097	-0.1261	-0.2822	-0.3422
-1.6157	-0.4869	9.6431	-0.3063	-0.1548	-0.1332	0.3253	0.7399	-0.8733	2.6013	0.0971	9.2667	-0.3023	0.4311	0.1226	0.569	-0.299	-1.7752	9.3675	-1.8089	-0.5779	0.7672	-0.1647	0.7641	-0.1261	-0.2882	-0.3542
-1.5124	-0.3157	9.0133	-0.3359	0.0557	0.0008	0.3429	0.7169	-0.8945	2.1505	-0.1902	9.9542	-0.3329	0.6252	-0.051	0.535	-0.2774	-1.7335	9.646	-0.996	-1.3109	0.4321	-0.1301	0.7379	-0.1321	-0.2942	-0.3362
-1.793	-0.1986	9.5254	-0.2774	-0.3403	-0.1429	0.3437	0.7639	-0.8734	2.4912	-0.4221	9.554	-0.3022	0.5601	0.0068	0.5343	-0.2769	-1.7762	9.649	-1.6943	-1.1987	-0.0238	-0.2553	0.9196	-0.1261	-0.3002	-0.3422
-2.2606	-0.1403	9.4013	0.0594	-0.255	-0.0747	0.3446	0.6908	-0.8051	2.2615	-0.4216	9.6659	-0.3017	0.6232	-0.0202	0.5694	-0.2992	-1.7539	9.946	-1.5196	-1.0218	0.2471	-0.2765	0.5473	-0.1261	-0.2822	-0.3482
-1.9787	-0.3149	8.9466	0.026	-0.4763	0.0361	0.3804	0.7399	-0.8497	2.0839	0.0403	9.4893	-0.4252	0.5607	0.0384	0.5347	-0.2771	-1.7548	9.5266	-1.4037	-1.4281	0.2752	-0.2362	0.2417	-0.1201	-0.2882	-0.3542
-1.7959	-0.4872	9.3522	0.0266	-0.5014	-0.0881	0.3064	0.7165	-0.8954	2.434	-0.1332	9.6114	-0.1469	0.5853	0.0698	0.516	-0.324	-1.7547	9.8326	-1.2278	-0.7954	0.0601	-0.3208	0.0546	-0.1321	-0.2882	-0.3422
-1.9039	-0.6014	9.7521	-0.2474	-0.4318	-0.1784	0.2881	0.7645	-0.9193	2.2008	0.0979	9.5495	0.0361	0.2994	0.1746	0.4637	-0.3024	-1.7561	9.8309	-1.6938	-0.9105	0.0905	-0.1642	-0.0298	-0.1201	-0.3002	-0.3482
-2.0928	-0.2568	9.0594	-0.0634	-0.3725	-0.174	0.2882	0.7163	-0.8959	2.2001	-0.1331	9.4912	-0.0239	0.3574	0.2717	0.5343	-0.2769	-1.7762	9.3521	-1.0539	-1.3167	-0.3645	-0.1365	0.1906	-0.1201	-0.2942	-0.3362
-1.7274	-0.4861	9.8709	0.0005	-0.0354	-0.1248	0.3253	0.7399	-0.8733	2.665	-0.3068	9.5573	-0.3652	0.3076	0.1459	0.4989	-0.3014	-1.7553	9.5404	-1.7513	-0.7453	-0.3892	-0.1271	0.8678	-0.1141	-0.2882	-0.3482
-2.2661	-0.2563	9.1135	-0.0611	-0.0669	-0.0962	0.3248	0.7405	-0.8955	2.1482	0.0406	9.8385	-0.3031	0.3696	0.1186	0.5343	-0.2769	-1.7762	9.4779	-1.4023	-0.9165	-0.4171	-0.1367	1.175	-0.1261	-0.2942	-0.3542
-2.0819	-0.5438	9.5763	0.0027	0.1246	-0.2392	0.3793	0.7172	-0.8936	2.2633	-0.1905	9.7822	-0.2736	0.2783	0.0814	0.4981	-0.3243	-1.7764	10.0555	-1.2878	-1.4177	-0.4747	-0.0865	1.5471	-0.1201	-0.2942	-0.3422
-1.9152	-0.1414	9.2357	0.0029	0.2423	-0.11	0.3246	0.7648	-0.9183	2.0302	0.0406	9.7203	-0.3648	0.3384	0.1479	0.5526	-0.2768	-1.7331	9.6066	-1.4011	-0.3446	-0.4747	-0.0865	1.5471	-0.1261	-0.2822	-0.3662
-1.8532	-0.8907	9.35	-0.1809	0.0094	-0.3695	0.3808	0.7875	-0.8509	2.5478	-0.1335	9.4974	-0.2137	0.1558	0.0422	0.5339	-0.2766	-1.7975	9.8239	-1.4618	-1.2517	-0.388	0.1498	0.8822	-0.1261	-0.2822	-0.3242
-2.0271	-0.602	9.4048	-0.0639	-0.318	-0.0174	0.3791	0.6935	-0.893	1.9049	0.0401	9.1961	-0.1514	0.184	0.0748	0.5526	-0.2768	-1.7331	9.5899	-1.4032	-1.1991	-0.5175	-0.0697	0.0723	-0.1261	-0.2762	-0.3542
-1.7958	-0.5449	9.352	-0.2438	-0.0014	-0.1246	0.343	0.7888	-0.9184	2.4352	-0.3064	9.6692	-0.3355	0.3777	-0.036	0.5334	-0.2998	-1.7973	9.8895	-1.5774	-0.9091	-0.6697	-0.0684	0.0737	-0.1321	-0.2882	-0.3542
-1.5048	-0.6608	9.3575	-0.0608	-0.1522	-0.2544	0.3261	0.7869	-0.8523	2.0903	-0.017	9.8373	-0.3027	0.4003	0.1206	0.535	-0.2774	-1.7335	9.5924	-1.6357	-1.0857	-0.8521	-0.0371	0.1075	-0.1321	-0.2762	-0.3482
-1.6145	-0.4868	9.7007	-0.1515	-0.0276	-0.2483	0.3071	0.7397	-0.8738	2.0252	-0.1907	9.43	-0.0901	0.3474	-0.1322	0.4825	-0.2792	-1.7132	9.302	-1.7514	-0.9207	-0.9415	0.1126	0.2698	-0.1201	-0.2882	-0.3482
-1.5041	-0.43	9.4156	-0.245	-0.038	-0.0036	0.3253	0.7399	-0.8733	2.2033	-0.2484	9.6651	-0.3667	0.3475	-0.0378	0.5342	-0.3003	-1.7546	9.6454	-1.4619	-1.369	-0.6358	0.0743	0.419	-0.1381	-0.2822	-0.3422
-2.2032	-0.3135	9.3445	-0.3356	-0.0296	-0.1574	0.3616	0.7165	-0.8718	2.4312	-0.4222	9.437	-0.1145	0.5772	0.2244	0.5703	-0.2763	-1.7327	9.5966	-1.4023	-0.8573	-0.4818	-0.0589	0.6876	-0.1201	-0.2822	-0.3422
-1.7935	-0.5446	9.467	-0.0591	0.0917	-0.1799	0.3964	0.6948	-0.9369	2.4869	-0.3069	9.3221	-0.4275	0.3439	0.0554	0.5194	-0.1852	-1.7348	9.8894	-1.461	-0.9088	-0.392	-0.1788	0.5576	-0.1201	-0.2882	-0.3302
-2.0372	-0.1418	8.9458	0.0006	-0.006	-0.0925	0.3068	0.7641	-0.8966	2.141	-0.0754	9.4322	-0.304	0.3741	0.0257	0.5708	-0.2531	-1.733	9.5308	-1.1703	-1.1997	-0.396	-0.3199	0.1506	-0.1141	-0.2822	-0.3482
-1.7963	-0.2566	9.3527	-0.2426	-0.0516	-0.3732	0.3797	0.7648	-0.8947	2.6655	0.0974	9.6159	-0.1786	0.4275	0.1528	0.5002	-0.2787	-1.7129	9.8227	-1.4037	-1.3086	-0.7923	-0.4088	0.1492	-0.1261	-0.2882	-0.3422
-1.7356	-0.4294	9.4685	-0.3095	-0.4662	-0.0884	0.3057	0.7414	-0.9404	2.2609	0.0403	9.6665	-0.3643	0.4336	0.092	0.5515	-0.2761	-1.7972	9.5992	-1.7513	-0.7442	-0.6941	-0.1543	0.8381	-0.1261	-0.2822	-0.3542
-1.9186	-0.1418	9.0632	-0.1843	-0.2167	-0.1665	0.3793	0.7172	-0.8936	2.1455	-0.3638	9.6639	-0.3638	0.5612	0.0071	0.4819	-0.2553	-1.7775	9.7139	-2.1594	-0.9138	-0.2048	-0.1663	1.0795	-0.1261	-0.2882	-0.3542
-1.9214	0.0885	8.9487	-0.3089	-0.5207	-0.245	0.4176	0.7153	-0.8038	2.3135	0.1553	9.3776	-0.2415	0.4991	-0.0285	0.5347	-0.2771	-1.7548	9.4204	-1.5186	-0.8609	-0.0546	0.1221	0.6935	-0.1141	-0.2882	-0.3482
-1.7898	-0.6595	9.6393	-0.3387	-0.4278	-0.2402	0.3063	0.6927	-0.8949	2.0951	-0.5364	10.0687	-0.333	0.5284	0.0359	0.4981	-0.3243	-1.7764	9.7073	-1.2869	-1.1966	0.0349	0.2225	0.4213	-0.1141	-0.2942	-0.3422
-1.7907	-0.1983	9.6404	-0.2136	-0.062	-0.1584	0.3065	0.7884	-0.9194	2.3114	0.1552	9.2616	-0.334	0.5329	-0.057	0.5534	-0.2773	-1.6904	9.4715	-1.636	-1.2589	0.1821	0.3035	-0.2214	-0.1141	-0.2822	-0.3482
-1.9652	-0.1403	9.6371	-0.1836	-0.1829	-0.2261	0.3082	0.7624	-0.83	1.9111	-0.7679	9.4852	-0.3975	0.4125	-0.0956	0.5371	-0.2317	-1.6699	9.8325	-1.1696	-0.7953	0.2741	0.3315	-0.1592	-0.1141	-0.2942	-0.3662
-2.0243	-0.2556	9.5781	-0.0596	0.0594	-0.1509	0.3257	0.7875	-0.8745	2.144	0.0403	9.6064	-0.3653	0.4382	-0.0009	0.5352	-0.2539	-1.7551	9.5955	-1.4025	-0.9143	0.3681	0.2891	0.176	-0.1321	-0.2942	-0.3362
-2.0881	-0.3139	9.2893	-0.0906	-0.0593	-0.2496	0.3245	0.6929	-0.8944	2.6615	-0.0184	9.3836	-0.518	0.4009	0.1837	0.518	-0.2313	-1.7556	9.7141	-2.334	-0.9143	0.3441	0.233	0.9728	-0.1201	-0.2822	-0.3302
-1.6157	-0.4869	9.6431	-0.2443	-0.0043	-0.0633	0.3615	0.7646	-0.8952	2.0771	-0.3067	9.0828	-0.3669	0.2507	0.049	0.5521	-0.3	-1.7329	9.2376	-1.6938	-1.2065	0.3149	0.3851	1.0424	-0.1321	-0.2942	-0.3422
-1.9684	-0.3137	9.4641	0.0635	0.121	-0.1775	0.3611	0.7171	-0.894	2.1459	0.2137	9.7226	-0.243	0.3761	-0.0365	0.5347	-0.2771	-1.7548	9.3446	-1.2877	-1.716	0.1042	0.1895	1.4337	-0.1261	-0.2762	-0.3362
-2.0227	-0.4861	9.6351	-0.1507	0.2105	-0.0512	0.3428	0.765	-0.9178	2.4928	-0.0178	9.6706	-0.3344	0.2748	0.1746	0.5357	-0.2307	-1.7553	9.5322	-1.403	-1.1432	0.0428	-0.0273	1.4844	-0.1321	-0.2762	-0.3542
-2.0278	-0.256	9.4056	-0.1805	0.1578	-0.2386	0.3257	0.7875	-0.8745	2.4288	-0.1336	9.3213	-0.1806	0.2092	0.2007	0.4631	-0.349	-1.7343	9.7054	-1.5782	-1.3112	0.2537	-0.0203	1.2063	-0.1141	-0.2942	-0.3422
-1.7862	-0.7167	9.8117	-0.1809	0.1844	-0.145	0.2889	0.7396	-0.8743	2.4363	-0.3641	9.7271	-0.2708	0.2647	0.36	0.5704	-0.2529	-1.7543	10.0656	-1.3448	-0.9052	0.4903	-0.1516	0.4288	-0.1201	-0.2882	-0.3362
-1.5597	0.0317	9.588	-0.0897	0.1215	-0.1478	0.345	0.8103	-0.8302	2.2563	-0.422	9.3758	-0.244	0.3162	-0.0715	0.5333	-0.3232	-1.7757	9.8924	-1.1695	-0.7372	0.1509	-0.1628	-0.0917	-0.1081	-0.2882	-0.3302
-2.0245	-0.1403	9.5784	-0.2132	0.0276	-0.0921	0.3617	0.7403	-0.8724	2.7818	-0.2492	9.6175	-0.2395	0.3272	0.3329	0.5515	-0.3466	-1.7111	9.7085	-1.345	-1.1398	-0.0926	-0.3493	0.0236	-0.1201	-0.2822	-0.3422
-1.6761	-0.4871	9.527	-0.1852	-0.2224	-0.0438	0.326	0.7631	-0.8517	2.3133	-0.4799	9.3188	-0.1227	0.2587	-0.2	0.5528	-0.2534	-1.7547	9.597	-1.7516	-0.8581	-0.2089	-0.2756	0.6433	-0.1201	-0.2882	-0.3422
-1.796	-0.4296	9.3523	-0.0633	-0.3137	-0.1094	0.3608	0.7414	-0.9168	2.3162	-0.3065	9.4931	-0.2143	0.2234	-0.0776	0.5349	-0.3008	-1.7119	9.7122	-1.6938	-0.9697	0.0079	-0.2604	1.0728	-0.1201	-0.2942	-0.3482
-1.9167	-0.5452	9.1197	-0.0932	-0.1928	-0.0417	0.3979	0.765	-0.8942	2.3199	0.0403	9.7256	-0.2416	0.4669	0.0004	0.5694	-0.2992	-1.7539	9.5866	-1.52	-1.3703	0.1298	-0.0739	0.9893	-0.1381	-0.2642	-0.3542
-2.1504	-0.5449	9.0576	-0.0016	-0.1366	0.0542	0.2897	0.7866	-0.8532	2.1981	-0.191	9.3751	-0.1197	0.3095	0.0207	0.5528	-0.2534	-1.7547	9.4172	-1.6354	-1.0321	-0.1456	0.0902	0.7541	-0.1201	-0.2642	-0.3362
-1.9092	-0.256	9.5229	-0.0014	-0.2513	-0.1364	0.3062	0.7409	-0.9182	2.4886	-0.0181	9.4385	-0.1493	0.304	0.1446	0.535	-0.2774	-1.7335	9.8818	-1.6948	-1.3081	-0.3033	0.1439	0.0817	-0.1201	-0.2822	-0.3602
-1.7342	-0.5446	9.5257	-0.0923	-0.1576	-0.132	0.306	0.7171	-0.9176	1.7326	-0.4215	9.2504	-0.1805	0.2738	0.1428	0.5329	-0.323	-1.7971	9.3626	-1.4019	-0.8048	-0.2386	0.1286	0.5416	-0.1321	-0.2882	-0.3362
-1.5662	-0.7764	9.1836	0.001	-0.0031	-0.1538	0.2878	0.7169	-0.9181	2.1996	0.2711	9.4917	-0.1518	0.3161	-0.1029	0.5174	-0.2779	-1.7338	9.6588	-1.4602	-0.6854	-0.6637	0.0647	0.7263	-0.1201	-0.2822	-0.3542
-2.1505	-0.4872	9.0577	-0.1528	-0.0363	-0.0644	0.3062	0.7409	-0.9182	2.2548	-0.0179	9.3183	-0.3041	0.3096	0.0836	0.516	-0.324	-1.7547	9.4205	-1.5768	-0.8611	-0.6015	-0.2851	1.0458	-0.1201	-0.2822	-0.3602
-2.1392	-0.3706	9.633	-0.1864	-0.434	-0.1474	0.3431	0.7407	-0.8951	2.3813	-0.1905	9.9003	-0.3065	0.2557	-0.0751	0.5157	-0.3238	-1.7761	9.8174	-1.6373	-1.594	-0.3877	-0.3206	1.1344	-0.1261	-0.2882	-0.3482
-1.6763	-0.4294	9.5271	-0.0914	-0.1224	-0.2223	0.3624	0.7635	-0.8508	2.489	-0.3068	9.4382	-0.1795	0.5288	-0.0269	0.5715	-0.2536	-1.6903	9.656	-1.9845	-0.8576	-0.4825	-0.1502	0.6521	-0.1261	-0.2762	-0.3482
-1.9095	-0.083	9.5233	-0.1226	-0.1263	-0.1305	0.3066	0.7403	-0.896	2.1999	-0.0176	9.4913	-0.4261	0.6298	-0.1123	0.5523	-0.2766	-1.7545	9.6598	-1.3436	-0.6282	-0.6394	-0.162	0.0993	-0.1381	-0.2822	-0.3422
-2.1405	-0.3131	9.5757	-0.0315	-0.248	-0.1979	0.3442	0.7633	-0.8513	2.0837	0.2135	9.4896	-0.3655	0.5688	-0.1476	0.5174	-0.2779	-1.7338	9.8885	-1.6358	-0.9662	-0.6059	0.0135	0.3849	-0.1201	-0.2882	-0.3482
-1.7397	-0.6606	9.2379	-0.0323	-0.2244	-0.043	0.325	0.7643	-0.8961	2.0874	-0.1905	9.6631	-0.3362	0.3485	-0.0689	0.5342	-0.3003	-1.7546	10.0628	-1.8109	-1.0772	-0.6368	0.2033	0.2413	-0.1321	-0.2882	-0.3602
-1.8495	-0.4289	9.5812	-0.1224	-0.1249	-0.1612	0.3435	0.7401	-0.8729	2.2002	-0.2486	9.491	-0.1808	0.3075	0.0829	0.5701	-0.2997	-1.7112	10.0073	-1.8104	-0.9074	-0.6358	0.2619	0.3365	-0.1081	-0.2822	-0.3422
-1.9677	-0.6596	9.4633	-0.0001	-0.1265	-0.1604	0.3434	0.7882	-0.8962	1.8508	-0.537	9.3684	-0.1469	0.3579	0.3034	0.535	-0.2774	-1.7335	9.8912	-1.0532	-0.7939	-0.515	0.2023	0.2402	-0.1261	-0.2882	-0.3482
-1.6172	-0.3141	9.5861	-0.0299	0.0532	-0.0281	0.3068	0.7641	-0.8966	2.3101	-0.4224	9.1448	-0.0275	0.2772	0.0182	0.5518	-0.2998	-1.7542	9.4655	-1.3457	-1.543	-0.2131	0.1788	-0.071	-0.1261	-0.2882	-0.3362
-1.4992	-0.0258	9.7041	-0.1522	-0.032	-0.1564	0.3435	0.7401	-0.8729	2.259	-0.0754	9.5503	-0.1171	0.5248	0.0347	0.5333	-0.3232	-1.7757	9.8845	-1.1123	-1.1358	-0.18	0.0744	0.2923	-0.1261	-0.2822	-0.3482
-1.5661	-0.2574	9.2423	0.1209	-0.1367	0.0242	0.3633	0.7624	-0.8064	2.1468	0.2715	9.7807	-0.274	0.2476	0.0794	0.5172	-0.2542	-1.7768	9.5377	-1.3441	-0.8583	-0.2371	0.1227	0.7258	-0.1081	-0.3002	-0.3362
-2.2582	-0.1977	9.5161	-0.1217	-0.0912	-0.2208	0.3806	0.7637	-0.8503	2.7233	-0.5956	9.558	-0.3404	0.1408	-0.2377	0.4809	-0.3017	-1.777	9.6557	-1.7517	-0.857	-0.4201	0.0627	0.7242	-0.1081	-0.2882	-0.3542
-1.8563	-0.4874	9.236	-0.3062	-0.096	-0.0686	0.3075	0.7873	-0.875	2.2613	-0.2484	9.6661	-0.3666	0.4442	-0.1247	0.5706	-0.2765	-1.7114	9.7075	-1.4615	-1.197	-0.2994	0.2224	0.5162	-0.1081	-0.2942	-0.3482
-1.5658	-0.3727	9.242	-0.1844	-0.2461	-0.1988	0.3257	0.7875	-0.8745	2.5477	-0.0758	9.4975	-0.2743	0.5087	-0.214	0.5353	-0.301	-1.6905	9.5323	-1.5194	-1.1435	-0.1195	0.0441	0.2595	-0.1081	-0.2882	-0.3542
-1.8537	-0.0834	9.4095	-0.216	-0.3691	-0.2056	0.2881	0.7645	-0.9193	2.1395	-0.5374	9.3156	-0.4277	0.41	-0.0335	0.571	-0.2768	-1.69	9.8262	-1.5197	-1.1379	-0.1213	0.1453	-0.012	-0.1261	-0.2762	-0.3422
-1.8543	-0.3718	9.3513	-0.2739	-0.0849	-0.3137	0.3437	0.7639	-0.8734	2.4959	-0.0175	9.8446	-0.367	0.3812	-0.0977	0.4996	-0.2548	-1.7771	9.5366	-1.286	-0.9151	-0.2714	-0.0499	0.3481	-0.1141	-0.2762	-0.3482
-1.6824	-0.2571	9.24	-0.3057	-0.1799	-0.2575	0.306	0.7171	-0.9176	2.1409	0.0401	9.4324	-0.1193	0.3403	0.0227	0.5529	-0.3005	-1.6902	9.478	-1.5188	-0.9168	-0.2365	-0.3179	1.0104	-0.1261	-0.2882	-0.3302
-2.0303	-0.7177	9.232	-0.0593	-0.0259	-0.3091	0.3612	0.789	-0.9179	2.4983	-0.2483	9.9604	-0.1189	0.4033	-0.0043	0.5174	-0.2779	-1.7338	9.8271	-1.3449	-1.0806	-0.2909	-0.6557	1.9464	-0.1321	-0.2882	-0.3542
-1.56	-0.4296	9.5294	-0.2447	-0.1527	-0.1942	0.3248	0.7405	-0.8955	2.086	0.0404	9.6054	-0.2433	0.1503	0.1661	0.5521	-0.3	-1.7329	9.8297	-1.6357	-0.9673	-0.4138	-0.8383	1.9072	-0.1201	-0.2822	-0.3602
-1.9724	-0.6025	9.2334	-0.2742	0.0005	-0.1554	0.3077	0.763	-0.8522	2.3123	0.2707	9.3198	-0.1188	0.2727	0.1425	0.5179	-0.2547	-1.7341	9.6464	-1.4035	-1.3119	-0.356	-0.7952	1.5092	-0.1261	-0.2882	-0.3422
-2.0259	-0.6018	9.4623	-0.061	-0.1243	-0.1915	0.3077	0.763	-0.8522	2.0871	-0.8257	9.6042	-0.428	0.4115	-0.0644	0.5007	-0.2555	-1.7131	10.2948	-1.0547	-1.1848	-0.3021	-0.7374	0.6508	-0.1201	-0.2702	-0.3482
-2.0821	-0.4285	9.5766	-0.214	-0.2105	-0.2893	0.3248	0.7405	-0.8955	2.0845	-0.3639	9.4888	-0.2729	0.3721	0.0565	0.5535	-0.2539	-1.712	9.8909	-1.8101	-0.8527	-0.307	-0.5619	-0.0165	-0.1261	-0.2582	-0.3482
-1.91	-0.4291	9.465	-0.1855	-0.2533	-0.0455	0.4171	0.764	-0.8494	2.6626	-0.1338	9.4415	-0.3037	0.4049	0.0277	0.515	-0.3233	-1.8188	9.7757	-1.9262	-0.7413	0.0281	-0.4397	-0.0743	-0.1261	-0.2762	-0.3362
-2.1979	-0.0822	9.6326	-0.2153	-0.1603	-0.0407	0.3258	0.7394	-0.8512	2.4962	-0.1908	9.8444	-0.2728	0.4044	0.0275	0.5354	-0.2776	-1.7121	9.7151	-1.2859	-0.7978	-0.0619	-0.1312	-0.0576	-0.1201	-0.2822	-0.3362
-2.1378	0.0909	9.7492	-0.3665	-0.0895	-0.1916	0.3253	0.7399	-0.8733	2.3805	-0.3638	9.8421	-0.365	0.4367	0.0301	0.553	-0.2771	-1.7118	9.7125	-1.9267	-0.9703	-0.2753	-0.1602	-0.0573	-0.1261	-0.2822	-0.3602
-1.9198	-0.1419	9.0057	0.0292	-0.2517	-0.1362	0.3259	0.8113	-0.8751	2.4941	-0.1909	9.7284	-0.3636	0.5274	0.067	0.517	-0.2776	-1.7552	9.7755	-1.7515	-0.7408	0.0009	0.2366	-0.0082	-0.1081	-0.2882	-0.3542
-2.033	-0.545	9.1174	-0.1224	-0.1543	-0.1935	0.3442	0.7633	-0.8513	2.0832	-0.1908	9.431	-0.1487	0.4961	0.0019	0.5005	-0.2789	-1.6915	9.5953	-1.286	-0.914	0.1538	0.3891	-0.0015	-0.1261	-0.2762	-0.3242
-2.0844	-0.4287	9.4615	0.0596	-0.1373	0.0545	0.3063	0.7647	-0.9188	2.3194	-0.364	9.667	-0.1795	0.4966	0.0021	0.5521	-0.3	-1.7329	9.8287	-1.7523	-1.0246	0.0897	0.3082	-0.3434	-0.1201	-0.2882	-0.3362
-1.9644	-0.5439	9.6361	0.0292	-0.1649	-0.0086	0.3806	0.7637	-0.8503	2.3204	-0.3639	9.725	-0.3993	0.291	-0.1345	0.5699	-0.276	-1.7541	9.4204	-1.5186	-0.8609	0.1506	0.527	-0.4556	-0.1261	-0.2942	-0.3482
-2.1451	-0.3136	9.3457	-0.0894	0.0067	-0.3383	0.3254	0.6918	-0.85	2.0339	-0.4211	9.8938	-0.1183	0.368	0.0866	0.5168	-0.3245	-1.712	10.0115	-1.5188	-0.6788	-0.1545	0.469	-0.4868	-0.1201	-0.2822	-0.3302
-1.9701	-0.0256	9.4073	-0.0307	-0.0393	-0.033	0.2891	0.7633	-0.8749	2.314	-0.1911	9.3772	-0.3051	0.2819	0.0197	0.5528	-0.2534	-1.7547	9.5303	-1.6943	-1.2579	-0.3082	0.3194	-0.5856	-0.1381	-0.2822	-0.3482
-2.0308	-0.4871	9.2325	-0.1518	0.0577	-0.0901	0.2893	0.739	-0.8521	2.202	-0.0175	9.6074	-0.3337	0.3041	0.2076	0.5698	-0.2995	-1.7325	9.5376	-1.2276	-0.858	-0.1267	0.166	-0.6566	-0.1321	-0.2882	-0.3542
-1.6133	-0.5443	9.758	-0.1232	-0.2469	-0.1984	0.3439	0.7877	-0.874	2.2031	-0.0751	9.6653	-0.4894	0.3788	-0.0042	0.5509	-0.3227	-1.7753	9.8861	-1.5196	-1.0799	-0.0938	0.2501	-0.4065	-0.1201	-0.2882	-0.3302
-2.0298	-0.3716	9.2903	-0.2457	-0.1879	-0.1038	0.3068	0.7641	-0.8966	2.4326	0.0976	9.5537	-0.3637	0.658	-0.0797	0.5178	-0.2781	-1.7125	9.4771	-1.6353	-0.974	-0.5174	0.1804	-0.0376	-0.1201	-0.2882	-0.3602
-1.7957	-0.0259	9.4108	-0.247	-0.226	0.0478	0.3255	0.7637	-0.8739	2.4933	-0.4219	9.6701	-0.2737	0.4412	-0.0943	0.5359	-0.2544	-1.7124	9.3627	-1.5184	-0.8051	-0.7946	0.0694	-0.3486	-0.1381	-0.2762	-0.3542
-1.7364	-0.6025	9.4105	-0.2754	-0.2112	-0.259	0.3615	0.7646	-0.8952	2.2618	0.1558	9.7247	-0.3978	0.4463	-0.1555	0.5521	-0.3	-1.7329	9.9482	-1.4611	-0.9077	-0.611	0.19	-0.3131	-0.1261	-0.2762	-0.3482
-2.0867	-0.429	9.3465	-0.2463	-0.1922	-0.0119	0.363	0.7148	-0.8052	2.4314	0.213	9.4958	-0.3361	0.413	-0.1268	0.5173	-0.3013	-1.7123	9.6554	-1.4606	-0.8563	-0.702	0.158	-0.2525	-0.1321	-0.2942	-0.3482
-1.625	-0.4304	9.1832	-0.2145	-0.2428	-0.2603	0.3252	0.7881	-0.8967	2.259	-0.0754	9.5503	-0.1528	0.2884	-0.1668	0.5708	-0.2531	-1.733	9.8324	-2.0429	-0.8544	-0.6724	0.0357	-0.2899	-0.1381	-0.2822	-0.3482
-1.7942	-0.1987	9.4679	-0.2758	-0.0684	-0.0054	0.3243	0.7892	-0.9411	2.1431	-0.0752	9.5482	-0.1522	0.2531	-0.076	0.5174	-0.2779	-1.7338	9.7132	-1.5772	-0.9124	-0.7636	-0.4022	-0.0659	-0.1321	-0.2762	-0.3422
-2.2069	-0.1986	9.1723	0.0331	0.0934	-0.2407	0.327	0.8339	-0.8312	2.026	0.0403	9.4883	-0.2421	0.3393	0.0853	0.554	-0.2307	-1.7122	9.8949	-1.3439	-0.6237	-0.8539	-0.3746	0.0592	-0.1261	-0.2942	-0.3362
-1.7241	0.2062	10.1025	-0.0021	-0.1688	0.0832	0.3434	0.7882	-0.8962	2.7264	-0.5954	9.732	-0.3337	0.4992	0.0029	0.4989	-0.3014	-1.7553	9.4823	-1.2854	-0.6883	-0.6119	-0.5891	-0.0461	-0.1381	-0.2762	-0.3482
-2.1452	-0.256	9.3458	-0.1836	-0.1535	-0.1938	0.3243	0.7892	-0.9411	2.266	0.1561	9.9567	-0.4585	0.4428	-0.0623	0.5513	-0.3229	-1.754	9.6559	-1.8681	-0.8573	-0.7971	-0.2026	-0.5165	-0.1261	-0.2822	-0.3422
-1.7349	-0.1987	9.5265	-0.2468	-0.3407	-0.1428	0.3248	0.7405	-0.8955	2.2611	-0.0752	9.6663	-0.4001	0.165	-0.0806	0.5703	-0.2763	-1.7327	9.8883	-1.5194	-0.9659	-0.7982	0.24	-0.8625	-0.1141	-0.2762	-0.3422
-1.9631	-0.659	9.6933	-0.3095	-0.4662	-0.0884	0.3076	0.7392	-0.8516	2.2585	-0.5373	9.4917	-0.3674	0.3505	-0.0997	0.5335	-0.3469	-1.7328	9.5343	-1.2863	-1.029	-0.1254	0.9123	-0.8637	-0.1261	-0.2702	-0.3482
-1.6183	-0.3142	9.5286	-0.245	-0.1542	-0.1635	0.3263	0.8107	-0.8529	2.3716	0.0975	9.3786	-0.3026	0.4649	0.0627	0.5174	-0.2779	-1.7338	9.6523	-1.6939	-1.0278	0.452	1.0999	-1.1047	-0.1261	-0.2882	-0.3602
-1.9608	-0.6588	9.8083	-0.1537	-0.1876	-0.134	0.3253	0.7399	-0.8733	2.2553	-0.4221	9.3178	-0.2128	0.3464	-0.0696	0.517	-0.2776	-1.7552	9.4149	-1.5775	-1.1459	0.5099	1.1112	-1.4736	-0.1141	-0.2942	-0.3422
-1.678	-0.1413	9.4703	-0.061	-0.1537	-0.2238	0.3257	0.7875	-0.8745	2.0885	-0.2481	9.721	-0.214	0.2219	-0.0467	0.5344	-0.2534	-1.7977	9.3715	-1.4008	-0.3491	-0.0103	0.4992	-1.4704	-0.1261	-0.2762	-0.3422
-2.0195	-0.3704	9.8079	-0.0002	-0.0985	-0.0975	0.3448	0.7865	-0.8296	2.2087	-0.3635	9.955	-0.3656	0.2446	0.1728	0.5017	-0.2091	-1.7135	9.2407	-1.5188	-1.0352	-0.3124	0.0225	-0.9392	-0.1201	-0.2822	-0.3662
-2.0272	0.0324	9.4638	-0.0891	0.067	-0.3043	0.3439	0.7877	-0.874	2.487	-0.3646	9.3221	-0.1498	0.4038	-0.0041	0.5004	-0.3023	-1.6699	9.484	-1.8673	-0.6328	-0.4601	-0.5259	-0.1363	-0.1201	-0.2822	-0.3482
-2.1416	-0.8898	9.4593	0.0017	0.0306	-0.2135	0.3431	0.7407	-0.8951	2.025	-0.0175	9.4302	-0.2424	0.3086	0.0833	0.5371	-0.2317	-1.6699	9.4218	-1.8095	-0.8047	-0.242	-0.5156	0.4466	-0.1321	-0.2822	-0.3362
-1.678	-0.7179	9.4114	-0.1505	0.1825	-0.1141	0.3426	0.7412	-0.9173	2.2536	0.0397	9.2604	-0.3963	0.3419	0.0861	0.4996	-0.2548	-1.7771	9.1861	-1.2271	-0.8077	0.0333	-0.4911	0.5687	-0.1141	-0.2942	-0.3422
-1.7931	-0.7176	9.4666	0.0628	0.0872	-0.1179	0.2716	0.7383	-0.8304	2.2653	-0.1327	9.8983	-0.3318	0.4901	0.1886	0.5181	-0.2784	-1.6911	9.5899	-1.4614	-1.1992	0.2778	-0.4028	0.6328	-0.1261	-0.2702	-0.3422
-1.7395	-0.7759	9.2376	-0.1187	0.2482	-0.2026	0.3244	0.7411	-0.9177	2.4872	-0.5379	9.3218	-0.3966	0.3757	0.0262	0.5528	-0.2534	-1.7547	9.537	-1.6935	-0.9161	0.3046	-0.3575	0.1737	-0.1201	-0.2822	-0.3542
-1.9103	-0.2561	9.4654	-0.1188	0.3055	-0.1074	0.2882	0.7163	-0.8959	2.2625	-0.3638	9.724	-0.2722	0.3691	0.1184	0.5157	-0.3238	-1.7761	9.355	-1.5775	-1.204	0.3329	-0.3182	-0.1013	-0.1261	-0.3002	-0.3422
-2.0328	-0.026	9.1761	-0.0271	0.3044	-0.1068	0.3429	0.7169	-0.8945	2.205	0.0982	9.7816	0.0352	0.3685	0.0238	0.5514	-0.2995	-1.7756	10.1156	-1.5206	-1.3602	0.2118	-0.2258	-0.0647	-0.1321	-0.2702	-0.3422
-1.8513	-0.7175	9.4655	0.1253	0.2995	-0.0446	0.3442	0.7633	-0.8513	2.3197	-0.5949	9.6667	-0.0251	0.2006	0.3236	0.5342	-0.3003	-1.7546	9.5322	-1.403	-1.1432	0.2133	-0.5136	0.2585	-0.1141	-0.2822	-0.3422
-2.0244	-0.198	9.5783	0.0049	0.517	-0.0338	0.3621	0.7878	-0.8735	2.0302	-0.0171	9.7203	-0.1483	0.2994	0.2375	0.5536	-0.2305	-1.7336	9.2385	-1.5191	-1.1491	0.2472	-0.5584	0.6864	-0.1201	-0.2822	-0.3422
-2.3257	-0.66	8.9963	0.1261	0.3626	-0.072	0.3975	0.7174	-0.8931	2.3175	0.3288	9.6099	-0.2705	0.426	0.2152	0.5355	-0.2542	-1.7337	9.4726	-1.6941	-1.202	0.6132	-0.6577	0.8013	-0.1261	-0.2702	-0.3422
-1.9045	-0.3131	9.7528	-0.0279	0.2412	-0.0795	0.3441	0.6914	-0.8273	1.9704	-0.1904	9.603	-0.274	0.2799	0.0505	0.5174	-0.2779	-1.7338	9.9462	-1.6942	-1.0222	0.3982	-0.3672	0.4491	-0.1201	-0.2882	-0.3542
-1.6223	-0.084	9.3566	0.155	0.1478	-0.114	0.3077	0.763	-0.8522	2.4887	-0.0758	9.4385	-0.2736	0.3106	0.0525	0.5001	-0.2316	-1.7774	9.4749	-1.752	-1.0882	0.0627	-0.2056	0.3065	-0.1261	-0.2822	-0.3482
-1.967	-0.4288	9.5214	-0.0572	0.1914	-0.3282	0.3066	0.7403	-0.896	2.1377	0.0399	9.2583	-0.2126	0.3126	-0.0097	0.5342	-0.3003	-1.7546	9.8331	-1.6353	-0.7964	0.0929	-0.0173	0.1931	-0.1201	-0.2942	-0.3542
-1.9076	-0.4865	9.5799	0.0628	0.0872	-0.1179	0.3257	0.7875	-0.8745	2.2586	0.2133	9.5507	-0.3662	0.2476	0.1109	0.5347	-0.2771	-1.7548	9.8927	-1.4024	-0.7378	0.2138	-0.2337	0.1808	-0.1201	-0.2942	-0.3422
-2.2047	-0.1407	9.2874	-0.0284	0.1795	-0.0828	0.3247	0.7167	-0.895	2.3155	0.2132	9.4937	-0.0561	0.3317	0.1771	0.5338	-0.3001	-1.7759	9.6528	-2.1596	-1.0289	-0.0298	-0.0441	0.1004	-0.1381	-0.2942	-0.3602
-2.0228	-0.4284	9.6352	0.0941	0.1794	-0.1127	0.326	0.7631	-0.8517	2.66	-0.5382	9.267	-0.1499	0.307	0.0828	0.4994	-0.2782	-1.7556	10.2984	-1.3453	-1.0146	-0.3636	-0.2962	0.3668	-0.1141	-0.2822	-0.3422
-2.0366	-0.4301	8.9452	0.063	0.1181	-0.1162	0.3063	0.7647	-0.9188	2.0851	-0.0174	9.5473	-0.0864	0.4275	0.1213	0.5693	-0.2521	-1.8184	9.4228	-0.7032	-0.6881	-0.3643	-0.325	0.3038	-0.1201	-0.2942	-0.3422
-1.6173	-0.2564	9.5862	0.0911	-0.1894	-0.1632	0.3437	0.7639	-0.8734	2.6626	-0.1338	9.4415	-0.2423	0.2103	0.2011	0.5008	-0.2321	-1.7347	9.5947	-1.6937	-0.9719	-0.1256	-0.4642	-0.2281	-0.1201	-0.2762	-0.3422
-2.3151	-0.7741	9.5136	0.1226	-0.0384	-0.0935	0.3246	0.7648	-0.9183	2.3241	0.0406	9.9576	-0.0269	0.2419	0.109	0.5521	-0.3	-1.7329	9.9524	-1.2277	-0.6793	-0.3095	-0.1451	-0.5175	-0.1081	-0.2942	-0.3662
-1.6816	-0.6607	9.239	0.0336	0.2713	-0.0775	0.3069	0.716	-0.8732	1.7964	-0.0747	9.6	-0.2105	0.368	0.118	0.5317	-0.3457	-1.8395	9.7628	-1.4038	-1.3666	-0.1872	0.0712	-0.5687	-0.1261	-0.2822	-0.3482
-1.7925	-0.4292	9.5248	0.1551	0.1772	-0.0817	0.3066	0.7403	-0.896	2.0854	-0.2484	9.547	-0.0907	0.123	0.0395	0.4989	-0.3014	-1.7553	9.5324	-1.5776	-1.1437	-0.247	-0.0265	-0.3888	-0.1141	-0.2822	-0.3482
-2.0345	-0.3722	9.0603	0.0644	0.1855	-0.2355	0.379	0.7416	-0.9163	2.4343	-0.3642	9.6111	-0.1221	0.1911	-0.0802	0.4814	-0.2785	-1.7773	9.6553	-1.3442	-0.856	-0.2167	-0.0575	-0.3907	-0.1321	-0.2762	-0.3422
-2.0282	-0.6021	9.3473	0.0013	0.0572	-0.1199	0.342	0.7899	-0.9628	2.2021	-0.0752	9.6073	-0.1215	0.1881	-0.0183	0.5703	-0.2763	-1.7327	10.0039	-1.7526	-1.0782	-0.4932	-0.0146	-0.6937	-0.1141	-0.2762	-0.3482
-1.7919	-0.1984	9.5829	0.0044	0.3391	-0.197	0.308	0.7386	-0.8294	2.6592	0.097	9.2678	-0.029	0.1543	0.0102	0.5165	-0.3008	-1.755	9.944	-1.7527	-1.1363	-0.2819	0.0222	-0.9395	-0.1261	-0.2642	-0.3422
-2.0787	-0.4281	9.7491	-0.059	0.1505	-0.1153	0.3613	0.7408	-0.8946	2.2002	-0.2486	9.491	-0.0555	0.4592	0.0922	0.5338	-0.3001	-1.7759	10.121	-1.3453	-1.075	-0.4652	-0.0368	-0.9718	-0.1321	-0.3002	-0.3482
-2.1427	-0.371	9.4605	0.0648	0.2752	-0.1693	0.3613	0.7408	-0.8946	2.6686	0.0976	9.7899	-0.1223	0.0943	0.0067	0.57	-0.2526	-1.7757	10.0038	-1.6362	-1.0779	-0.1011	0.1219	-1.2125	-0.1261	-0.2762	-0.3482
-1.5094	-0.0847	9.1864	0.0338	0.4183	0.0841	0.3258	0.7394	-0.8512	2.0814	-0.4219	9.3147	-0.3353	0.3116	0.0528	0.5699	-0.276	-1.7541	9.8327	-1.286	-0.7956	-0.0676	-0.0152	-0.7895	-0.1201	-0.2882	-0.3482
-1.6247	-0.0267	9.2417	0.1872	0.2163	-0.2638	0.3622	0.7397	-0.8502	2.266	-0.71	9.8976	-0.118	0.3665	0.1175	0.5194	-0.1852	-1.7348	9.6568	-1.6933	-0.7999	-0.0945	0.0338	-0.387	-0.1381	-0.2882	-0.3362
-2.0752	-0.4276	9.9216	0.0039	0.423	-0.0081	0.2722	0.7615	-0.8087	2.2581	-0.1909	9.4922	-0.0901	0.0877	0.1303	0.5706	-0.2765	-1.7114	9.6532	-1.4609	-0.9703	0.0284	-0.128	-0.1811	-0.1321	-0.2822	-0.3482
-1.9692	-0.4868	9.4062	0.1885	0.4573	-0.128	0.3622	0.7397	-0.8502	2.3176	-0.5951	9.5507	0.0675	0.199	0.3231	0.5515	-0.2761	-1.7972	9.6621	-1.4598	-0.5145	-0.0631	-0.158	-0.1819	-0.1261	-0.2942	-0.3482
-1.6217	-0.3723	9.3559	0.252	0.5297	-0.3696	0.3427	0.6931	-0.8939	2.5471	-0.4223	9.4391	0.0048	0.1724	0.2596	0.5344	-0.2534	-1.7977	9.5423	-1.4017	-0.6305	-0.063	-0.1898	-0.1528	-0.1261	-0.2822	-0.3422
-2.3225	-0.5443	9.1691	0.1879	0.3662	-0.1636	0.308	0.7386	-0.8294	2.6095	0.1554	9.7309	-0.0233	0.3221	0.3626	0.517	-0.2776	-1.7552	9.4205	-1.635	-0.8612	0.1165	-0.116	-0.581	-0.1261	-0.2882	-0.3422
-1.6755	-0.2563	9.585	0.1882	0.5132	-0.0021	0.3257	0.7875	-0.8745	2.2604	-0.364	9.608	-0.0884	0.1447	0.2272	0.5528	-0.2534	-1.7547	9.0621	-1.4607	-1.1523	0.2058	-0.1714	-0.7998	-0.1201	-0.2882	-0.3602
-1.5596	-0.0259	9.5879	0.2191	0.4569	-0.1278	0.2882	0.7163	-0.8959	2.4922	-0.3643	9.6121	-0.1208	0.0222	0.2193	0.517	-0.2776	-1.7552	9.6008	-2.1587	-0.6882	0.4219	-0.2783	-0.4074	-0.1321	-0.2762	-0.3422
-1.852	-0.3716	9.4663	0.097	0.6055	0.033	0.362	0.7159	-0.8496	2.0868	-0.5947	9.6045	-0.182	0.0862	0.1927	0.5173	-0.3013	-1.7123	9.4767	-1.3443	-0.9733	0.4236	-0.4728	-0.11	-0.1261	-0.2822	-0.3422
-1.8556	-0.2567	9.2941	0.1868	0.2428	-0.1702	0.326	0.7631	-0.8517	2.3233	-0.1905	9.8993	-0.151	0.2148	0.0768	0.5687	-0.2987	-1.7966	9.589	-1.6362	-1.2566	0.3632	-0.3492	-0.1031	-0.1441	-0.2882	-0.3542
-2.0206	-0.3705	9.7504	0.1283	0.4932	-0.2187	0.3445	0.8109	-0.8524	2.5542	-0.2486	9.8454	-0.0259	0.2697	0.1729	0.5007	-0.2555	-1.7131	9.8904	-1.3444	-0.8516	0.4522	-0.2468	-0.4368	-0.1261	-0.3002	-0.3422
-1.5572	-0.66	9.6439	0.0953	0.5072	0.1507	0.3444	0.7871	-0.8518	2.4381	-0.0752	9.8435	0.0666	0.2681	0.1724	0.5704	-0.2529	-1.7543	9.5955	-1.4025	-0.9143	0.6346	-0.435	-0.3865	-0.1261	-0.2822	-0.3482
-1.9152	-0.1414	9.2357	0.2193	0.5745	0.0014	0.3424	0.7174	-0.9167	2.6656	-0.0181	9.6157	-0.058	0.1134	0.225	0.534	-0.3237	-1.733	9.7108	-1.4029	-1.026	0.7868	-0.4045	-0.4169	-0.1141	-0.2642	-0.3482
-2.1482	0.0897	9.2316	0.2195	0.6054	0.0031	0.3612	0.789	-0.9179	2.2601	-0.133	9.6083	0.1254	0.0534	0.1271	0.4994	-0.2782	-1.7556	9.6531	-1.4027	-0.9701	0.515	-0.411	-0.1383	-0.1141	-0.2822	-0.3362
-1.9113	-0.3716	9.4076	0.097	0.4893	-0.1269	0.3257	0.7875	-0.8745	2.3686	-0.0182	9.2044	-0.1188	0.2405	0.1714	0.5345	-0.3005	-1.7332	9.5956	-1.5189	-0.9145	0.7279	-0.4118	-0.1709	-0.1441	-0.2882	-0.3602
-1.7351	-0.66	9.4679	0.0343	0.3344	-0.1048	0.325	0.7643	-0.8961	2.3152	-0.3643	9.435	-0.1496	0.0459	0.3762	0.5875	-0.2755	-1.7537	9.5328	-1.9269	-1.1445	0.817	-0.2787	-0.5029	-0.1261	-0.2762	-0.3362
-1.8547	-0.1412	9.3518	0.0356	0.4298	-0.1612	0.3255	0.7637	-0.8739	2.0275	-0.3638	9.5458	-0.1197	0.1144	0.2253	0.5363	-0.2547	-1.691	9.5957	-1.5771	-0.9147	1.0292	-0.1515	-0.6825	-0.1141	-0.2702	-0.3422
-2.2558	-0.774	9.5723	-0.0264	0.3675	-0.1342	0.3624	0.7635	-0.8508	2.0879	-0.5946	9.6625	-0.1181	0.302	0.1754	0.5	-0.3021	-1.6913	9.7077	-1.6944	-1.1976	0.8147	-0.2698	-0.7792	-0.1201	-0.2822	-0.3482
-1.906	-0.7169	9.6368	0.0658	0.4854	-0.0351	0.3449	0.7384	-0.8063	2.0803	-0.3642	9.2568	-0.1181	0.3342	0.1465	0.4637	-0.3024	-1.7561	9.7112	-1.7522	-1.0268	0.6326	-0.1452	-0.7712	-0.1141	-0.3062	-0.3482
-1.91	-0.4291	9.465	0.0955	0.363	-0.0722	0.3449	0.7384	-0.8063	2.3094	0.155	9.1456	-0.2422	0.2425	0.1721	0.5504	-0.3459	-1.7751	9.7745	-1.8099	-0.798	0.3914	-0.0587	-0.5187	-0.1201	-0.2882	-0.3422
-2.0846	-0.3134	9.4618	0.0641	0.1253	-0.2695	0.344	0.7395	-0.8507	2.3768	0.0401	9.6686	-0.2113	0.3065	0.114	0.5521	-0.3	-1.7329	9.7654	-1.6946	-1.2534	0.3928	-0.0329	-0.3637	-0.1321	-0.2762	-0.3362
-2.0869	-0.3137	9.3468	-0.0284	0.1795	-0.0828	0.3613	0.7408	-0.8946	2.1459	0.156	9.7226	-0.1501	0.1457	0.2275	0.5884	-0.2526	-1.7326	9.537	-1.6935	-0.9161	0.208	-0.1485	-0.5526	-0.1201	-0.2942	-0.3362
-2.1486	-0.314	9.1731	0.0627	0.174	0.0097	0.2892	0.7152	-0.8515	2.1453	-0.1905	9.6641	-0.0576	0.1764	0.198	0.5892	-0.2296	-1.7115	9.7777	-1.693	-0.6268	0.0861	-0.21	-0.5241	-0.1021	-0.2942	-0.3482
-2.0923	-0.545	9.0587	0.125	0.326	0.049	0.3257	0.7875	-0.8745	2.1435	-0.3639	9.5479	-0.0908	0.0585	0.0974	0.4993	-0.3016	-1.734	9.8307	-1.5192	-0.9101	-0.1591	-0.0452	-0.7903	-0.1201	-0.2942	-0.3422
-2.2585	-0.6014	9.4577	0.0937	0.2059	-0.0191	0.3437	0.7639	-0.8734	2.7249	-0.249	9.6745	0.0671	0.2006	0.2922	0.5525	-0.3003	-1.7115	9.7629	-1.462	-1.3668	0.0228	0.0504	-0.9405	-0.1261	-0.2882	-0.3422
-2.0941	-0.1992	9.0021	0.0641	0.2415	-0.1096	0.2886	0.7639	-0.8971	2.4865	-0.8266	9.2635	-0.0878	0.1416	0.2891	0.57	-0.2526	-1.7757	9.6478	-1.6362	-1.2555	0.1178	0.2235	-0.5941	-0.1321	-0.2882	-0.3482
-2.0917	-0.2566	9.1169	0.1239	0.0864	-0.1175	0.3234	0.7422	-0.9621	2.2603	-0.3062	9.608	-0.181	0.114	0.2566	0.5521	-0.3	-1.7329	9.8896	-1.6356	-0.9092	-0.2476	0.1323	-0.5343	-0.1321	-0.2882	-0.3482
-1.7455	-0.0846	9.0093	-0.0559	0.4619	-0.1601	0.3811	0.7631	-0.8281	2.6073	-0.5377	9.556	-0.0893	0.246	0.0475	0.5173	-0.2308	-1.7983	9.1794	-1.2862	-1.1497	-0.339	0.133	-0.5335	-0.1201	-0.2882	-0.3542
-1.7412	0.0889	9.2397	0.1906	0.6453	-0.1794	0.3237	0.7178	-0.9394	2.2581	-0.1909	9.4922	0.0015	0.1553	-0.021	0.5188	-0.2318	-1.713	9.5955	-1.4025	-0.9143	-0.1257	-0.0256	-0.4513	-0.1081	-0.2822	-0.3422
-1.908	-0.2559	9.5804	0.0685	0.6483	-0.2107	0.3425	0.6693	-0.8934	2.6022	0.1549	9.3248	-0.0877	0.2062	0.2312	0.5521	-0.3	-1.7329	9.5922	-1.4611	-1.0853	-0.4911	-0.2418	-0.3365	-0.1201	-0.2882	-0.3542
-1.6784	0.0893	9.4709	0.1267	0.57	0.1235	0.3429	0.7169	-0.8945	2.2593	-0.3063	9.55	-0.0887	0.1785	0.1673	0.534	-0.3237	-1.733	9.9441	-1.8109	-1.1364	-0.5832	-0.5825	-0.2613	-0.1201	-0.2762	-0.3602
-1.9084	-0.6596	9.522	0.1897	0.6395	-0.0568	0.3081	0.8105	-0.8533	2.5383	-0.0187	8.9755	-0.0567	0.1073	0.3488	0.5155	-0.3001	-1.819	9.7164	-1.4604	-0.7413	-0.6115	-0.7161	0.0703	-0.1321	-0.2942	-0.3542
-2.0315	-0.1412	9.2334	0.0968	0.4585	-0.1285	0.3431	0.7407	-0.8951	2.3195	-0.4217	9.6669	-0.0566	0.1396	0.3198	0.5179	-0.2547	-1.7341	9.9507	-1.7519	-0.7945	-0.6091	-0.5999	0.2915	-0.1261	-0.2822	-0.3542
-1.9805	-0.0268	8.8898	0.096	0.5115	0.0587	0.3442	0.7633	-0.8513	2.3717	-0.018	9.3784	-0.1515	0.0872	0.1616	0.5357	-0.2307	-1.7553	10.0035	-1.4033	-1.0773	-0.363	-0.1106	0.3457	-0.1381	-0.2762	-0.3542
-2.0309	-0.4294	9.2327	0.1894	0.6087	-0.0584	0.3075	0.7873	-0.875	2.1452	-0.0751	9.6643	-0.0584	0.0504	0.2519	0.5338	-0.3001	-1.7759	9.9321	-1.1138	-1.7044	-0.214	-0.0366	-0.0822	-0.1261	-0.2822	-0.3422
-1.6248	0.031	9.2419	0.1602	0.6765	-0.1779	0.3615	0.7646	-0.8952	2.3727	-0.0179	9.4365	0.095	0.1492	0.0714	0.5514	-0.2995	-1.7756	9.6557	-1.6935	-0.8569	0.0292	0.1509	-0.2281	-0.1261	-0.2822	-0.3362
-1.9099	-0.4867	9.4649	0.2524	0.7944	-0.0788	0.3624	0.7635	-0.8508	2.609	-0.2489	9.6724	-0.1513	0.2486	0.0169	0.5516	-0.3232	-1.7327	9.7098	-1.5194	-1.0832	0.0257	0.1329	-0.6288	-0.1321	-0.2882	-0.3482
-1.677	-0.6602	9.4691	0.2498	0.5153	-0.063	0.3084	0.7862	-0.8306	2.432	-0.1911	9.4953	-0.0908	0.0908	0.0684	0.5151	-0.3704	-1.7543	9.3593	-1.4606	-0.9758	-0.0091	-0.1627	-1.0128	-0.1201	-0.2702	-0.3482
-1.7913	-0.4867	9.5822	0.0977	0.4936	-0.2188	0.344	0.7395	-0.8507	2.3133	0.3285	9.3778	-0.2429	0.2456	0.1102	0.5339	-0.3472	-1.7114	9.5345	-1.4609	-1.0295	0.1127	-0.0387	-1.0689	-0.1261	-0.3002	-0.3422
-2.2636	-0.948	9.1693	0.0651	0.3355	-0.1353	0.3258	0.7394	-0.8512	2.2621	-0.0751	9.7244	-0.2762	0.0631	0.0675	0.5364	-0.2312	-1.7126	10.0713	-1.4605	-0.6206	0.2987	-0.053	-0.6714	-0.1321	-0.2762	-0.3482
-2.1438	-0.3711	9.403	-0.1505	0.2119	-0.0818	0.3429	0.7169	-0.8945	2.1997	-0.6528	9.4325	-0.3336	0.3363	0.1786	0.4984	-0.3245	-1.7551	9.4727	-1.7523	-1.2022	0.4512	-0.0236	-0.6711	-0.1081	-0.2822	-0.3422
-1.8003	-0.0264	9.1808	0.0927	-0.0043	-0.1533	0.3251	0.7161	-0.8728	2.6076	0.0398	9.6147	-0.2764	0.1292	-0.0214	0.5348	-0.2537	-1.7764	9.7133	-1.6355	-0.9126	0.1165	0.1659	-0.72	-0.1201	-0.2882	-0.3542
-1.8511	-0.1985	9.5242	0.0016	0.1174	-0.0859	0.343	0.6688	-0.8712	2.4335	0.2132	9.6118	-0.1207	0.0545	0.1904	0.5519	-0.2763	-1.7758	10.0631	-1.1122	-1.0186	0.2412	0.1848	-0.3818	-0.1201	-0.2822	-0.3482
-1.9125	-0.3141	9.3503	0.0339	0.2153	-0.2034	0.3611	0.7171	-0.894	2.0883	-0.1327	9.7212	-0.0587	0.0842	0.192	0.5534	-0.2773	-1.6904	9.5959	-1.7517	-0.9151	0.3958	0.3622	-0.1894	-0.1321	-0.2942	-0.3482
-2.206	-0.6598	9.1712	-0.0568	0.3399	-0.1973	0.2697	0.7405	-0.9192	2.2623	-0.1906	9.7242	0.035	0.2071	0.1686	0.5523	-0.2766	-1.7545	9.5977	-1.4022	-0.8003	0.3617	0.1261	-0.5089	-0.1081	-0.2882	-0.3662
-2.0325	-0.7756	9.1168	-0.0265	0.2499	-0.2634	0.3421	0.7418	-0.9395	2.4376	0.2712	9.844	-0.1474	0.2304	0.3882	0.5693	-0.3227	-1.7323	9.8843	-1.8692	-1.1946	0.2061	0.2345	-0.9632	-0.1321	-0.2942	-0.3602
-2.0319	-0.4872	9.175	-0.0277	0.1838	-0.1748	0.2873	0.7175	-0.9403	2.2044	-0.2483	9.7231	0.0654	0.0791	0.2532	0.5696	-0.3229	-1.7109	9.9457	-1.2285	-1.0211	0.2355	-0.1687	-0.8922	-0.1381	-0.2882	-0.3602
-1.7954	-0.1412	9.4105	-0.0877	0.3668	-0.1039	0.3435	0.7401	-0.8729	2.494	-0.1332	9.7285	0.1902	0.2	0.2605	0.5345	-0.3005	-1.7332	9.8278	-0.9373	-1.0226	-0.0372	-0.078	-0.7622	-0.1141	-0.3002	-0.3362
-1.56	-0.4296	9.5294	0.0044	0.3685	-0.1647	0.3434	0.7163	-0.8723	2.2027	-0.5949	9.6066	-0.0261	0.1729	0.2598	0.535	-0.2774	-1.7335	9.4692	-1.5781	-1.3727	0.0568	-0.2454	-0.372	-0.1321	-0.2822	-0.3362
-1.9656	-0.544	9.5786	0.0328	0.2081	-0.0501	0.3441	0.8114	-0.8746	2.4929	-0.0755	9.6705	0.0063	0.3276	0.2386	0.5523	-0.2766	-1.7545	9.3586	-1.8682	-1.0338	-0.1239	-0.5336	0.0143	-0.1201	-0.2882	-0.3542
-2.0952	-0.1994	8.9446	0.1252	0.2113	-0.1416	0.3246	0.7648	-0.9183	2.2553	-0.4221	9.3178	-0.2115	0.1775	0.2298	0.5168	-0.254	-1.7981	9.5348	-1.6937	-1.03	-0.2724	-0.4528	0.4194	-0.1081	-0.2822	-0.3482
-2.0224	-0.6591	9.6347	-0.0896	0.1803	-0.0831	0.3613	0.7408	-0.8946	2.3176	0.2133	9.6097	-0.1497	0.241	0.1716	0.5358	-0.2073	-1.7769	9.417	-1.4608	-1.0317	-0.3028	-0.3275	0.3647	-0.1261	-0.2942	-0.3422
-1.8525	-0.6599	9.4081	0.0017	0.0012	-0.2458	0.3437	0.7639	-0.8734	2.2575	-0.5374	9.4337	-0.1208	0.2496	-0.0143	0.5534	-0.2773	-1.6904	9.7731	-1.5772	-0.8544	-0.2463	-0.217	-0.2143	-0.1201	-0.2942	-0.3302
-2.2059	-0.7175	9.171	0.0311	-0.0358	-0.1247	0.363	0.7867	-0.8292	2.2024	-0.3639	9.6069	-0.0564	0.3009	0.1751	0.5007	-0.2555	-1.7131	9.5453	-1.1102	-0.4589	-0.7078	-0.0387	-0.8469	-0.1141	-0.2942	-0.3602
-2.3698	-0.1969	9.7439	0.0008	0.0249	-0.0909	0.3257	0.7875	-0.8745	2.0855	-0.3638	9.5468	-0.0565	0.2687	0.204	0.5535	-0.2539	-1.712	9.7584	-1.4044	-1.5945	-0.2805	-0.1712	-0.6728	-0.1261	-0.2762	-0.3482
-1.7384	-0.1415	9.3541	0.219	0.5437	-0.0002	0.3434	0.7163	-0.8723	2.4944	-0.4219	9.7281	0.067	0.3311	0.1454	0.5344	-0.324	-1.7117	9.5924	-1.694	-1.0859	-0.5509	0.0049	-0.3232	-0.1321	-0.2942	-0.3362
-1.6787	-0.372	9.4122	0.0954	0.2748	-0.1691	0.3253	0.7399	-0.8733	2.2623	-0.2484	9.7241	0.0363	0.2011	0.2924	0.5162	-0.3006	-1.7763	9.7762	-1.3439	-0.6829	-0.1233	0.0589	-0.2009	-0.1261	-0.2702	-0.3362
-1.5003	-0.0259	9.6466	0.1271	0.4272	-0.13	0.3067	0.6922	-0.8727	2.1421	-0.133	9.4901	-0.1226	0.0958	-0.0243	0.5181	-0.2784	-1.6911	9.5309	-1.2285	-1.1998	-0.0915	0.1162	-0.0752	-0.1201	-0.2882	-0.3542
-1.9122	-0.487	9.3499	-0.0265	0.3955	-0.0712	0.3448	0.7865	-0.8296	2.2576	-0.5952	9.4336	-0.0246	0.2959	0.2677	0.4801	-0.3246	-1.7982	9.1898	-1.576	-0.6377	0.1224	0.174	-0.0125	-0.1261	-0.2822	-0.3422
-1.9102	-0.3138	9.4653	-0.0573	0.4238	-0.0084	0.3439	0.7877	-0.874	2.3114	-0.6533	9.2025	-0.1478	0.4592	0.1237	0.5349	-0.3008	-1.7119	9.7673	-1.4032	-1.1388	-0.3022	0.0456	0.2611	-0.1201	-0.2942	-0.3542
-2.2082	-0.7177	9.056	0.1854	0.1753	-0.0509	0.3988	0.7639	-0.8498	2.6007	-0.3072	9.2082	-0.1162	0.5202	0.1275	0.5513	-0.3229	-1.754	9.5897	-1.2285	-1.1987	-0.1521	0.084	-0.0149	-0.1321	-0.2882	-0.3422
-1.6318	0.0878	8.897	0.0906	-0.1054	0.0257	0.2886	0.7639	-0.8971	2.4887	-0.0758	9.4385	-0.1476	0.3287	0.2704	0.5514	-0.2995	-1.7756	9.8275	-1.636	-1.0813	-0.2745	-0.1006	0.0073	-0.1321	-0.2822	-0.3602
-1.7377	-0.4874	9.3533	-0.0001	-0.0397	-0.0329	0.3615	0.7646	-0.8952	2.7228	-0.1914	9.5585	-0.1835	0.1584	-0.0199	0.4986	-0.3011	-1.7767	9.5916	-1.9269	-1.1434	-0.3965	-0.036	-0.0499	-0.1261	-0.2882	-0.3482
-1.7294	-0.6017	9.7556	-0.0308	-0.0981	-0.0977	0.3455	0.8098	-0.808	2.494	-0.1332	9.7285	-0.0265	0.3372	0.0531	0.5173	-0.3013	-1.7123	9.7773	-1.3438	-0.6259	-0.3337	-0.0752	0.1936	-0.1201	-0.2942	-0.3482
-2.0241	-0.3709	9.5778	-0.0293	0.0282	-0.1524	0.3418	0.6942	-0.9383	2.4358	0.0979	9.7277	0.0965	0.077	0.284	0.4999	-0.255	-1.7558	9.2442	-1.6348	-0.8646	0.0937	-0.0827	0.3127	-0.1141	-0.2822	-0.3362
-2.0263	-0.4289	9.4627	0.0039	0.3068	-0.168	0.3253	0.7399	-0.8733	2.1411	-0.1331	9.4321	-0.1174	0.1038	0.442	0.5178	-0.2781	-1.7125	9.5421	-1.2271	-0.6301	0.1556	-0.1497	0.4624	-0.1321	-0.2942	-0.3482
-2.023	-0.3131	9.6355	0.2203	0.4067	-0.3764	0.3434	0.7882	-0.8962	2.2552	-0.3644	9.3179	-0.1168	0.2959	0.2992	0.5164	-0.3243	-1.7334	9.5321	-1.2865	-1.143	0.3412	-0.0688	0.7726	-0.1321	-0.2942	-0.3482
-1.677	-0.6602	9.4691	0.2816	0.6104	-0.1192	0.3448	0.7146	-0.8057	1.847	-0.0176	9.195	-0.0906	0.0247	0.1573	0.535	-0.2774	-1.7335	9.7697	-1.5194	-1.0251	0.367	-0.1446	0.2457	-0.1261	-0.2762	-0.3542
-2.029	-0.1985	9.3482	0.1571	0.4813	0.0268	0.2897	0.7866	-0.8532	2.0781	-0.2489	9.1409	-0.0578	0.2102	0.1381	0.4998	-0.2784	-1.7342	9.4237	-1.4599	-0.6899	-0.0324	0.0601	-0.2631	-0.1261	-0.3002	-0.3362
-1.9098	0.0323	9.5236	0.156	0.3579	0.0202	0.3619	0.7641	-0.873	2.6109	-0.0755	9.7886	-0.1801	0.3368	0.1159	0.5505	-0.393	-1.7106	9.5353	-1.1697	-0.9718	-0.0678	-0.2336	-0.7086	-0.1261	-0.2822	-0.3362
-1.796	-0.4296	9.3523	-0.0584	0.271	-0.0473	0.3063	0.7647	-0.9188	2.148	0.1561	9.8386	-0.151	0.247	0.0478	0.516	-0.324	-1.7547	9.7066	-1.6945	-1.2545	-0.0341	-0.0273	-0.4214	-0.1321	-0.3062	-0.3302
-1.8002	-0.6608	9.1217	-0.1823	0.2331	0.1342	0.3247	0.7167	-0.895	2.2518	-0.1336	9.1442	-0.1492	0.3363	0.1157	0.5353	-0.301	-1.6905	9.6515	-0.9371	-1.026	0.0912	-0.1047	0.0348	-0.1201	-0.3002	-0.3422
-2.1464	-0.2561	9.2883	-0.1501	0.3016	-0.0156	0.3606	0.7176	-0.9162	2.0273	-0.1905	9.546	-0.089	0.2122	0.1074	0.5348	-0.2537	-1.7764	9.4124	-1.3449	-1.2593	0.5459	-0.0063	-0.2713	-0.1381	-0.2942	-0.3302
-2.2098	-1.0639	8.9402	0.0323	0.0303	-0.2133	0.3788	0.7178	-0.9158	1.9707	-0.4214	9.6027	-0.1797	0.3675	0.1179	0.5336	-0.2764	-1.8189	10.1223	-1.4616	-1.0183	0.6348	-0.0598	-0.5515	-0.1261	-0.2702	-0.3422
-2.0199	-0.1398	9.8084	0.0021	0.1497	-0.1149	0.2884	0.7401	-0.8965	1.9067	0.2135	9.3124	-0.0549	0.2288	0.3877	0.5354	-0.2776	-1.7121	9.7685	-1.4613	-1.082	0.7561	-0.0589	-0.614	-0.1261	-0.2882	-0.3362
-1.8624	-0.3151	8.9489	-0.0297	0.0253	-0.091	0.3069	0.716	-0.8732	2.4353	-0.3641	9.6691	-0.1508	0.1487	0.1656	0.5333	-0.3938	-1.6896	9.6495	-1.1702	-1.1405	0.6643	-0.1504	-0.618	-0.1261	-0.2942	-0.3422
-1.9729	-0.3719	9.234	-0.0909	0.0261	-0.0914	0.3437	0.7639	-0.8734	2.1447	-0.5371	9.6057	-0.2384	0.3872	0.3678	0.4994	-0.2782	-1.7556	9.5899	-1.4032	-1.1991	0.7285	-0.2262	-0.192	-0.1381	-0.2822	-0.3542
-1.6781	-0.0836	9.4704	-0.0318	-0.1627	-0.0396	0.3247	0.7886	-0.9189	2.1442	-0.1329	9.6062	-0.3937	0.5571	0.1001	0.5703	-0.2763	-1.7327	9.9457	-1.2285	-1.0211	0.6979	-0.4761	-0.0817	-0.1081	-0.2822	-0.3482
-1.9088	-0.429	9.5225	-0.0632	-0.2548	-0.0448	0.326	0.7631	-0.8517	2.3163	-0.3642	9.493	-0.2101	0.4633	0.0621	0.5164	-0.3243	-1.7334	9.7664	-1.578	-1.1962	0.2128	-0.0422	-0.0244	-0.1321	-0.3062	-0.3542
-2.0846	-0.3134	9.4618	-0.1538	-0.1303	-0.0387	0.3069	0.716	-0.8732	2.3779	0.0402	9.7266	-0.272	0.4981	0.0026	0.5716	-0.2302	-1.7119	9.7095	-1.2284	-1.0825	-0.0027	0.0628	-0.3554	-0.1261	-0.2942	-0.3542
-1.6749	-0.5446	9.5844	-0.0613	-0.1845	-0.2254	0.3432	0.7644	-0.8956	2.3201	-0.0752	9.7254	-0.395	0.3681	0.181	0.5165	-0.3008	-1.755	9.5883	-0.9958	-1.2551	-0.1264	-0.0544	-0.5143	-0.1381	-0.2822	-0.3362
-1.6211	-0.0839	9.4141	-0.1205	-0.0252	-0.3095	0.3252	0.7881	-0.8967	2.1457	-0.4792	9.6637	-0.1186	0.1422	0.2892	0.5703	-0.2763	-1.7327	9.5363	-1.0531	-0.9145	-0.0336	0.0332	-0.3875	-0.1321	-0.2822	-0.3482
-1.9707	-0.3139	9.3491	0.0301	-0.1003	-0.0666	0.3439	0.7877	-0.874	2.314	-0.1911	9.3772	-0.1481	0.4285	0.1217	0.5521	-0.3	-1.7329	9.7661	-1.2869	-1.1955	0.1813	0.0563	-0.2035	-0.1261	-0.2822	-0.3542
-1.6197	-0.7757	9.4124	-0.1512	0.0326	-0.2144	0.325	0.7643	-0.8961	2.1463	-0.1327	9.7222	-0.0561	0.2994	0.206	0.5348	-0.2537	-1.7764	9.5957	-1.5771	-0.9147	0.2458	0.3546	0.0882	-0.1201	-0.2762	-0.3482
-2.0904	-0.3141	9.1743	0.0635	0.0342	-0.3051	0.3253	0.7399	-0.8733	2.547	-0.3646	9.4391	-0.2725	0.4029	0.0585	0.5887	-0.2528	-1.7113	9.5321	-1.3448	-1.1431	0.0331	0.2294	0.2064	-0.1261	-0.2882	-0.3242
-1.6767	-0.1988	9.5277	0.0673	0.4661	-0.282	0.3432	0.7644	-0.8956	2.1413	-0.3063	9.4319	-0.277	-0.0306	0.0924	0.5518	-0.2998	-1.7542	9.4803	-1.5767	-0.803	-0.1797	0.1985	0.268	-0.1201	-0.2822	-0.3542
-1.9652	-0.717	9.5782	0.0347	0.2785	-0.2308	0.3255	0.7637	-0.8739	2.3177	0.1556	9.6097	-0.2736	0.2783	0.0814	0.5355	-0.2542	-1.7337	9.5889	-1.578	-1.2565	-0.4511	0.0024	0.6905	-0.1261	-0.2882	-0.3602
-1.9174	-0.1993	9.1205	-0.1497	0.2457	-0.1415	0.306	0.7171	-0.9176	2.4315	0.1553	9.4957	-0.2428	0.2778	0.0813	0.4989	-0.3014	-1.7553	9.7671	-1.2286	-1.1384	-0.4201	0.0627	0.7242	-0.1141	-0.2882	-0.3482
-2.2622	0.0902	9.3443	-0.2418	0.1572	-0.2083	0.3993	0.7633	-0.8276	2.4875	0.0396	9.3806	-0.2134	0.1866	0.0442	0.5172	-0.2542	-1.7768	9.656	-1.9845	-0.8576	-0.5741	-0.1485	0.6222	-0.1201	-0.2882	-0.3482
-2.0926	-0.3721	9.0592	-0.1539	-0.1891	-0.1033	0.325	0.6924	-0.8722	2.1969	-0.1333	9.3171	-0.3055	0.2834	-0.0112	0.5535	-0.2539	-1.712	9.8897	-1.7521	-0.9095	-0.699	-0.2607	0.3099	-0.1321	-0.2942	-0.3422
-1.3885	-0.661	9.3598	-0.1209	0.0882	-0.0883	0.325	0.7643	-0.8961	2.3143	-0.4221	9.3769	-0.211	0.305	0.145	0.5337	-0.3235	-1.7544	9.9445	-1.1704	-1.0779	-0.6392	-0.2255	0.1575	-0.1201	-0.2762	-0.3362
-2.0891	-0.3716	9.2317	-0.1806	0.099	-0.3032	0.3437	0.7639	-0.8734	2.257	-0.1332	9.4342	-0.3378	0.1287	0.0099	0.5342	-0.3003	-1.7546	9.8987	-1.8092	-0.4539	-0.4241	-0.1409	0.3446	-0.1261	-0.2942	-0.3362
-2.0198	-0.1974	9.8083	-0.029	-0.0278	-0.2783	0.3447	0.7628	-0.8291	2.3756	-0.5952	9.5517	-0.15	0.2102	0.1696	0.5704	-0.3234	-1.6682	10.1198	-1.229	-1.1317	-0.4544	-0.3917	0.4856	-0.1321	-0.2822	-0.3482
-2.1479	-0.6599	9.1723	0.124	0.1159	-0.0852	0.3255	0.7637	-0.8739	2.3192	-0.1908	9.6672	-0.2416	0.2395	0.234	0.5174	-0.2779	-1.7338	9.6546	-1.6936	-0.9138	-0.6683	-0.3244	0.3678	-0.1261	-0.2942	-0.3542
-2.2557	-0.255	9.631	-0.2141	-0.0943	-0.1294	0.3257	0.7875	-0.8745	2.3129	-0.1912	9.3192	-0.149	0.238	0.2335	0.569	-0.299	-1.7752	9.8765	-1.9284	-1.5935	-0.4256	-0.3543	0.272	-0.1201	-0.2822	-0.3422
-2.0219	-0.313	9.693	-0.0918	0.0203	0.0312	0.3263	0.8107	-0.8529	2.084	-0.0175	9.4893	-0.1816	0.1815	0.1368	0.5892	-0.2296	-1.7115	10.0058	-1.4031	-0.9634	-0.367	-0.3142	-0.0338	-0.1201	-0.2942	-0.3482
-1.8517	-0.4869	9.466	0.0316	0.0259	-0.1214	0.3626	0.7873	-0.8514	2.206	0.0983	9.8396	-0.0262	0.3034	0.113	0.5339	-0.2766	-1.7975	9.8936	-1.2276	-0.6804	-0.0353	-0.0541	-0.5458	-0.1441	-0.2882	-0.3542
-2.2042	-1.0056	9.2278	-0.0901	0.0892	-0.1187	0.3069	0.716	-0.8732	2.3178	0.0401	9.6095	-0.3345	0.4054	0.0279	0.588	-0.2523	-1.754	9.8926	-1.3442	-0.7376	-0.0624	0.2777	-0.313	-0.1141	-0.2822	-0.3422
-1.9717	-0.3717	9.2915	-0.0898	0.0039	-0.277	0.3426	0.7412	-0.9173	2.4872	0.2706	9.3809	-0.3081	0.0359	0.0037	0.5339	-0.2766	-1.7975	9.7164	-1.4604	-0.7413	0.2076	0.5105	-0.9181	-0.1321	-0.2822	-0.3362
-1.382	-0.4872	9.7053	0.0005	-0.0648	-0.1571	0.3257	0.7875	-0.8745	2.3156	0.1555	9.4936	-0.1171	0.557	0.0057	0.5174	-0.2779	-1.7338	9.4735	-1.4611	-1.1445	0.446	0.6224	-1.5907	-0.1201	-0.2942	-0.3482
-1.9619	-0.6589	9.7508	-0.0316	-0.1613	-0.0703	0.3442	0.7633	-0.8513	2.0846	-0.4794	9.4887	-0.0888	0.1462	0.1962	0.5703	-0.2763	-1.7327	9.3017	-1.4604	-0.92	0.3854	0.4026	-1.4479	-0.1321	-0.2882	-0.3482
-1.6255	-0.1997	9.1838	-0.15	0.2148	-0.1431	0.3605	0.7658	-0.9396	2.6667	-0.0757	9.6736	-0.2703	0.36	0.3041	0.551	-0.2993	-1.7969	9.3659	-1.3433	-0.6338	-0.1282	0.2969	-0.8957	-0.1261	-0.2882	-0.3422
-1.7362	-0.0835	9.4693	-0.1209	0.0882	-0.0883	0.343	0.6688	-0.8712	2.4953	-0.3063	9.7862	-0.2117	0.2113	0.1699	0.554	-0.2307	-1.7122	9.5902	-1.6942	-1.1998	-1.2513	0.4485	-0.5097	-0.1201	-0.2822	-0.3602
-1.973	-0.3142	9.2341	-0.0276	0.1265	-0.27	0.3803	0.788	-0.8731	2.317	-0.1332	9.5513	-0.181	0.1462	0.2277	0.5162	-0.3006	-1.7763	9.775	-1.2858	-0.7397	-0.086	-0.0305	0.6551	-0.1201	-0.2942	-0.3482
-1.7369	-0.3143	9.4112	-0.1509	0.2091	-0.0205	0.3075	0.7873	-0.875	2.1446	-0.4216	9.6058	-0.2734	0.2446	0.1413	0.5173	-0.3013	-1.7123	9.5308	-1.112	-1.1995	-0.4189	0.0895	0.8485	-0.1261	-0.2762	-0.3362
-2.204	-0.4866	9.2866	-0.0277	0.3294	0.0175	0.3432	0.7644	-0.8956	2.1484	-0.1903	9.8382	-0.149	0.2702	0.2045	0.5523	-0.2766	-1.7545	9.7661	-1.2869	-1.1955	-0.3585	0.091	0.7866	-0.1321	-0.2882	-0.3422
-1.7424	-0.4879	9.1233	0.0032	0.3025	-0.076	0.3976	0.7893	-0.917	2.0924	-0.0746	9.9533	-0.2458	0.2269	-0.1394	0.5342	-0.3003	-1.7546	9.7131	-1.519	-0.9123	-0.297	-0.0683	0.9316	-0.1261	-0.2822	-0.3482
-1.9133	-0.4872	9.2924	-0.025	0.5217	-0.1259	0.3427	0.6931	-0.8939	2.1419	0.0402	9.4904	-0.1206	0.1513	0.1035	0.5887	-0.2528	-1.7113	9.836	-1.2856	-0.6247	-0.1175	-0.0888	0.5601	-0.1141	-0.2882	-0.3482
-2.0795	-0.0245	9.75	-0.0878	0.308	-0.1685	0.3444	0.7871	-0.8518	2.3183	-0.3063	9.6091	-0.0554	0.3609	0.21	0.5682	-0.3219	-1.7963	9.6494	-1.0538	-1.1402	-0.1836	-0.1619	-0.0274	-0.1261	-0.2942	-0.3662
-2.2686	-0.1412	8.9987	-0.2108	0.3053	-0.0772	0.3801	0.7642	-0.8725	2.4323	-0.4798	9.4949	0.0637	0.0544	0.1274	0.4994	-0.2782	-1.7556	9.8852	-1.6944	-1.1372	-0.3676	-0.0929	-0.2068	-0.1201	-0.2942	-0.3602
-1.6171	-0.3717	9.5859	-0.0897	0.2083	-0.0202	0.3616	0.7884	-0.8957	2.4373	-0.3062	9.7852	-0.055	0.3917	0.212	0.5343	-0.2769	-1.7762	9.3578	-1.1114	-1.032	-0.337	-0.2817	-0.0939	-0.1381	-0.3002	-0.3482
-2.1483	-0.4293	9.1729	-0.0908	0.1143	0.0055	0.3621	0.7878	-0.8735	2.1952	-0.3644	9.2008	-0.0571	0.2394	0.1711	0.5343	-0.2769	-1.7762	9.1239	-1.1692	-0.9796	-0.3026	-0.391	0.4229	-0.1261	-0.2822	-0.3482
-2.0333	-0.372	9.1178	-0.3059	-0.0358	-0.0346	0.3071	0.7397	-0.8738	1.7985	-0.0746	9.716	-0.2725	0.4029	0.0585	0.535	-0.2774	-1.7335	9.8282	-1.2866	-1.0234	-0.1173	-0.1523	0.6183	-0.1321	-0.2882	-0.3602
-2.025	-0.4864	9.5201	0.0011	0.0557	-0.0892	0.3093	0.785	-0.7862	2.198	-0.1332	9.3752	-0.182	0.3136	-0.0409	0.5521	-0.3	-1.7329	9.4752	-0.9951	-1.0295	0.0346	-0.1209	0.5572	-0.1261	-0.2942	-0.3602
-1.9104	-0.7751	9.4067	-0.1816	0.1212	-0.1176	0.3074	0.7154	-0.8511	2.7164	-0.1341	9.2105	-0.3065	0.2234	-0.0462	0.5882	-0.276	-1.711	9.8926	-1.3442	-0.7376	0.063	-0.2383	0.3663	-0.1201	-0.3002	-0.3482
-2.0897	-0.0834	9.2324	-0.0895	0.0935	-0.2107	0.3257	0.7875	-0.8745	2.3202	-0.1907	9.7253	-0.1212	0.1543	0.0416	0.5004	-0.2318	-1.756	10.0048	-1.5778	-1.0208	0.0602	-0.2275	0.0287	-0.1321	-0.2822	-0.3422
-2.1998	-0.3131	9.517	-0.0598	-0.0582	-0.2801	0.3619	0.7641	-0.873	2.3128	-0.0757	9.3193	-0.2732	0.3414	0.0545	0.5003	-0.2552	-1.7344	9.9446	-1.2869	-1.0782	-0.1811	-0.2343	0.307	-0.1261	-0.2882	-0.3602
-1.6202	0.0315	9.4719	0.0597	-0.3109	-0.2007	0.3248	0.7405	-0.8955	2.3079	-0.3648	9.0289	-0.1823	0.1523	0.1039	0.5368	-0.2315	-1.6912	9.2397	-1.5771	-1.0923	-0.2707	-0.5223	0.6618	-0.1201	-0.2882	-0.3482
-1.9115	-0.2563	9.4079	-0.1212	0.0573	-0.0899	0.3254	0.8118	-0.8973	2.3184	-0.3641	9.609	-0.1505	0.3423	-0.0081	0.501	-0.2557	-1.6917	9.5291	-1.578	-1.3146	-0.4822	-0.4956	0.8494	-0.1141	-0.2882	-0.3422
-2.2034	-0.2558	9.3446	-0.0002	-0.0691	-0.0652	0.3442	0.7633	-0.8513	2.0346	-0.19	9.9521	-0.1191	0.2742	0.1115	0.5349	-0.3008	-1.7119	9.183	-1.4604	-0.9792	-0.1465	-0.282	0.827	-0.1261	-0.2942	-0.3722
-1.7371	-0.2566	9.4114	-0.2147	-0.1854	-0.165	0.3268	0.8101	-0.8307	2.5543	-0.3063	9.8453	0.0649	0.2112	0.0755	0.5692	-0.2756	-1.7968	9.6522	-1.5775	-1.0275	0.065	-0.0268	0.5003	-0.1321	-0.2882	-0.3362
-1.8522	-0.2563	9.4666	0.0628	0.0004	-0.2455	0.3437	0.7639	-0.8734	2.3141	-0.3066	9.377	-0.2738	0.1816	0.1683	0.516	-0.324	-1.7547	9.6544	-1.519	-0.9134	-0.0266	0.1	0.4154	-0.1081	-0.2942	-0.3662
-1.7932	-0.0833	9.5256	0.032	-0.0006	-0.215	0.3434	0.7163	-0.8723	2.1485	-0.2481	9.8381	-0.2085	0.4235	0.2458	0.534	-0.3237	-1.733	9.4836	-1.4599	-0.6318	-0.1799	0.0427	0.3214	-0.1201	-0.2882	-0.3482
-1.9682	-0.3713	9.464	-0.0316	-0.1613	-0.0703	0.3806	0.7637	-0.8503	1.9103	-0.1327	9.486	-0.1465	0.4532	0.2475	0.5001	-0.2316	-1.7774	9.8329	-1.4607	-0.796	-0.1158	0.1236	0.6633	-0.1261	-0.2822	-0.3422
-1.8618	-0.6611	8.9481	0.0633	0.1783	-0.0823	0.3797	0.7648	-0.8947	2.2573	-0.3642	9.4339	-0.426	0.4347	0.0923	0.5523	-0.2766	-1.7545	9.5942	-1.2862	-0.9709	0.0973	-0.0658	0.744	-0.1261	-0.2882	-0.3362
-1.9757	-0.6605	9.0608	-0.0901	0.0024	-0.2463	0.326	0.7631	-0.8517	2.2068	-0.5368	9.8387	-0.1469	0.3579	0.3034	0.4989	-0.3014	-1.7553	10.0023	-1.3453	-1.1342	0.0951	0.0056	0.4402	-0.1321	-0.2882	-0.3422
-2.089	-0.4293	9.2315	-0.0928	-0.2193	-0.1353	0.3077	0.763	-0.8522	2.0862	-0.0751	9.6052	-0.3006	0.488	0.2194	0.5355	-0.2542	-1.7337	9.2452	-1.5182	-0.8073	0.2445	-0.1724	0.1838	-0.1261	-0.2942	-0.3542
-1.9709	-0.1986	9.3494	-0.4304	-0.3972	-0.2084	0.3603	0.742	-0.939	2.4362	-0.2486	9.7273	-0.1479	0.3302	0.2395	0.5359	-0.2544	-1.7124	9.2408	-1.577	-1.0353	0.2144	0.0144	0.1322	-0.1201	-0.2822	-0.3542
-1.9083	-0.7172	9.5218	-0.218	-0.5276	-0.1219	0.3432	0.7644	-0.8956	2.1462	-0.075	9.7223	-0.0547	0.3901	0.243	0.5183	-0.255	-1.7127	9.4808	-0.9944	-0.7446	0.3719	-0.1326	0.8305	-0.1261	-0.2882	-0.3602
-1.8558	-0.199	9.2942	-0.1869	-0.4369	-0.0861	0.344	0.7395	-0.8507	2.1426	0.329	9.5488	-0.176	0.4799	0.3425	0.5511	-0.3464	-1.7324	9.836	-1.2856	-0.6247	0.6785	-0.2055	1.101	-0.1261	-0.2942	-0.3302
-2.1972	-0.4281	9.6318	-0.3089	-0.4045	-0.0851	0.3079	0.7867	-0.8528	2.3129	-0.1912	9.3192	-0.1165	0.4895	0.1255	0.4993	-0.3016	-1.734	9.355	-1.5775	-1.204	0.6167	-0.0453	0.9253	-0.1321	-0.2942	-0.3422
-1.7399	-0.5453	9.2382	-0.1842	-0.2446	-0.2294	0.3251	0.7161	-0.8728	2.488	-0.3646	9.3801	-0.1153	0.4512	0.2783	0.4991	-0.2779	-1.7769	9.8814	-1.3456	-1.3073	0.4902	-0.1198	0.3998	-0.1141	-0.2882	-0.3422
-1.6769	-0.0835	9.5279	-0.181	0.1256	-0.2096	0.3077	0.763	-0.8522	2.2575	0.271	9.4928	-0.2371	0.6407	0.2291	0.4801	-0.3246	-1.7982	9.711	-1.5775	-1.0264	0.8849	-0.0557	0.2154	-0.1261	-0.2882	-0.3662
-1.7432	-0.0844	9.1243	-0.0296	-0.0321	-0.1863	0.3084	0.7862	-0.8306	2.6145	-0.4795	9.9621	-0.149	0.2702	0.2045	0.5348	-0.2537	-1.7764	9.9428	-1.6364	-1.193	0.5514	-0.0588	0.4024	-0.1261	-0.2942	-0.3482
-1.8454	-0.7744	9.7529	-0.2455	-0.0997	-0.0069	0.3251	0.7161	-0.8728	1.9063	-0.2485	9.2538	-0.2089	0.6201	0.0102	0.5151	-0.3704	-1.7543	9.9458	-1.3449	-1.0213	0.154	-0.1438	0.2783	-0.1201	-0.2822	-0.3482
-2.0903	-0.3718	9.1742	-0.1847	-0.3063	-0.2327	0.3616	0.7884	-0.8957	2.1455	-0.3638	9.6639	-0.2711	0.4613	0.1244	0.5703	-0.2763	-1.7327	9.5402	-1.5766	-0.7449	0.0334	-0.1785	0.4312	-0.1201	-0.2822	-0.3542
-1.6805	-0.6029	9.2967	-0.2156	-0.25	-0.107	0.3426	0.7412	-0.9173	2.6075	0.1552	9.6149	-0.3619	0.5521	0.1928	0.534	-0.3237	-1.733	9.8216	-1.4039	-1.3655	0.3995	-0.3721	0.6026	-0.1201	-0.2882	-0.3302
-1.6816	-0.0841	9.2979	-0.2788	-0.4078	-0.0236	0.3617	0.7403	-0.8724	2.7779	-0.4227	9.3852	-0.4559	0.4306	0.1853	0.5706	-0.2765	-1.7114	9.7103	-0.9954	-1.025	0.1572	-0.7193	0.9248	-0.1381	-0.2882	-0.3422
-1.7967	-0.6603	9.2942	-0.2159	-0.397	-0.2685	0.3442	0.7633	-0.8513	2.3139	-0.1334	9.3772	-0.0199	0.6311	0.3516	0.5164	-0.3243	-1.7334	9.8878	-1.0537	-0.9648	-0.1475	-0.6225	0.8708	-0.1381	-0.2942	-0.3362
-1.7927	-0.3715	9.525	-0.3721	-0.5917	-0.0341	0.3432	0.7644	-0.8956	2.3236	-0.4214	9.899	-0.0523	0.7359	0.1102	0.5342	-0.3003	-1.7546	9.5854	-1.4037	-1.427	-0.2138	-0.7263	0.2817	-0.1261	-0.2942	-0.3422
-2.0316	-0.0835	9.2335	-0.3378	-0.2764	-0.1707	0.3444	0.7871	-0.8518	2.5451	-0.4802	9.323	0.374	0.203	0.1357	0.4989	-0.3014	-1.7553	9.4792	-1.5186	-0.8598	-0.1858	-0.5917	-0.0805	-0.1441	-0.2762	-0.3602
-1.6218	-0.3146	9.356	-0.0618	-0.2168	-0.1964	0.3629	0.7629	-0.8286	2.4343	-0.3642	9.6111	0.3754	0.2937	0.1726	0.5694	-0.2992	-1.7539	9.4801	-1.4021	-0.8026	-0.1924	-0.5661	-0.8786	-0.1321	-0.2822	-0.3422
-2.0203	-0.5435	9.7499	0.0906	-0.1349	-0.0066	0.3446	0.6908	-0.8051	2.4287	-0.0759	9.3214	-0.0846	0.3861	0.336	0.5353	-0.2305	-1.7766	9.6575	-1.2857	-0.742	-0.2543	-0.3741	-1.0833	-0.1261	-0.2882	-0.3542
-1.8543	-0.3718	9.3513	0.0907	-0.1922	-0.1019	0.3426	0.7412	-0.9173	2.0851	-0.0174	9.5473	0.0701	0.4465	0.3082	0.5333	-0.3232	-1.7757	9.3656	-2.042	-0.6924	-0.008	-0.2609	-0.8335	-0.1201	-0.2942	-0.3422
-1.8514	-0.6598	9.4656	-0.094	-0.1691	0.1133	0.3088	0.8337	-0.8317	2.4877	-0.1336	9.3804	-0.0261	0.368	0.0551	0.5334	-0.2998	-1.7973	9.4202	-1.3439	-0.8605	0.1473	-0.3366	-0.4389	-0.1201	-0.2882	-0.3302
-1.8483	-0.4864	9.6385	0.0308	-0.0666	-0.1263	0.3077	0.763	-0.8522	2.8977	-0.1916	9.6196	-0.2736	0.3429	0.0235	0.5714	-0.277	-1.6687	9.48	-1.2856	-0.8023	0.4822	-0.2451	-0.4984	-0.1381	-0.2942	-0.3422
-1.8023	-0.142	9.0655	-0.245	-0.1836	-0.1958	0.3248	0.7405	-0.8955	2.3193	-0.3062	9.6671	-0.0879	0.2722	0.1423	0.5172	-0.2542	-1.7768	9.592	-1.2865	-1.0849	0.3279	0.171	-0.9367	-0.1321	-0.2822	-0.3602
-2.1431	-0.1404	9.4611	-0.214	-0.2105	-0.2893	0.3253	0.7399	-0.8733	2.8432	-0.48	9.7923	-0.1213	0.3171	-0.1341	0.5168	-0.3245	-1.712	9.4172	-1.6936	-1.0323	0.3834	-0.059	-1.4719	-0.1261	-0.3002	-0.3482
-2.0346	-0.3145	9.0604	-0.2155	-0.3074	-0.2023	0.2891	0.7633	-0.8749	2.145	0.0404	9.6644	-0.2128	0.3464	-0.0696	0.5534	-0.2773	-1.6904	9.5343	-1.2863	-1.029	0.0761	-0.2024	-1.7228	-0.1021	-0.3122	-0.3542
-1.391	-0.6036	9.2449	-0.0926	-0.2178	-0.1659	0.3431	0.7407	-0.8951	2.1401	-0.1909	9.374	-0.2716	0.3338	0.2092	0.5359	-0.2544	-1.7124	9.5341	-1.1116	-1.0286	-0.1367	-0.2959	-1.6337	-0.1201	-0.2882	-0.3362
-2.0306	0.0319	9.2913	-0.1859	-0.3723	-0.1441	0.3439	0.7877	-0.874	2.141	-0.0754	9.4322	-0.1476	0.5883	0.0079	0.5357	-0.2307	-1.7553	9.5924	-1.6357	-1.0857	-0.4997	-0.4277	-1.2686	-0.1321	-0.2822	-0.3422
-2.0302	-0.7753	9.2319	-0.1539	-0.1597	-0.071	0.3621	0.7878	-0.8735	2.2584	-0.4219	9.4919	-0.0271	0.3403	-0.0088	0.5337	-0.3235	-1.7544	9.7613	-1.0547	-1.4228	-0.7381	-0.5713	-0.5669	-0.1201	-0.2882	-0.3482
-2.1419	-0.7745	9.4596	-0.06	0.0859	-0.0573	0.3252	0.7881	-0.8967	2.261	-0.0175	9.6664	0.2188	0.2101	0.0437	0.5696	-0.3229	-1.7109	9.6488	-1.5779	-1.1984	-0.5506	-0.4348	-0.0694	-0.1261	-0.2942	-0.3362
-1.685	-0.6611	9.0665	0.0331	0.1522	-0.1761	0.3089	0.7856	-0.8084	1.9652	-0.1908	9.3129	-0.1222	0.1266	-0.0223	0.5877	-0.2992	-1.7108	9.7155	-1.6352	-0.7987	-0.3715	0.0161	-0.7238	-0.1201	-0.2882	-0.3422
-1.8501	-0.7173	9.523	0.2183	0.2481	-0.2927	0.3431	0.7407	-0.8951	2.086	0.0404	9.6054	-0.0568	0.2702	0.1731	0.5174	-0.2779	-1.7338	9.3026	-1.2856	-0.8626	-0.1622	-0.096	-1.1311	-0.1261	-0.2822	-0.3482
-2.2623	-0.4288	9.2856	0.0342	0.2756	-0.1694	0.2893	0.739	-0.8521	2.3744	-0.5375	9.4938	-0.0587	0.2793	-0.0126	0.5178	-0.2781	-1.7125	9.835	-1.344	-0.6818	-0.1009	-0.0667	-1.0993	-0.1081	-0.2762	-0.3422
-1.8507	-0.4291	9.5237	0.249	0.3066	-0.2279	0.3252	0.7881	-0.8967	2.1969	-0.0756	9.3172	-0.1512	0.3454	-0.07	0.5711	-0.2534	-1.7116	9.7795	-1.2853	-0.5119	0.1113	-0.1896	-1.169	-0.1381	-0.2702	-0.3422
-2.2	-0.7744	9.4584	0.2489	0.2478	-0.2925	0.3437	0.7639	-0.8734	2.5409	-0.4805	9.0909	0.0029	0.2137	0.0449	0.5352	-0.2539	-1.7551	9.5338	-1.8103	-1.0873	-0.1644	-0.2439	-1.3233	-0.1201	-0.2882	-0.3482
-1.794	-0.2564	9.4677	0.216	0.1749	-0.0507	0.3251	0.7161	-0.8728	2.491	-0.2489	9.5543	-0.0913	0.1583	-0.0514	0.587	-0.2987	-1.7535	9.8892	-1.2864	-0.9084	0.0152	-0.1394	-1.7498	-0.1201	-0.3002	-0.3482
-1.7984	-0.3722	9.2374	0.1234	0.1704	0.0714	0.3428	0.765	-0.9178	2.2052	-0.075	9.7813	0.0302	-0.0297	-0.0331	0.5694	-0.2992	-1.7539	9.5991	-1.6931	-0.7441	0.4381	0.1209	-2.2932	-0.1201	-0.2822	-0.3542
-2.0319	0.0895	9.2339	0.0945	0.1234	-0.2387	0.3619	0.7641	-0.873	2.3142	-0.3644	9.3769	-0.031	0.1311	-0.1466	0.5689	-0.3224	-1.7536	9.4145	-1.2282	-1.1451	0.5015	0.5492	-2.2099	-0.1141	-0.3002	-0.3482
-1.8558	-0.199	9.2942	0.093	0.1722	0.0406	0.3616	0.7165	-0.8718	2.1433	-0.2484	9.548	-0.0904	0.1215	0.0704	0.5519	-0.2763	-1.7758	9.4712	-1.4032	-1.2583	0.81	0.8128	-1.8605	-0.1081	-0.2942	-0.3482
-1.9732	-0.1989	9.2344	0.2791	0.3033	-0.1664	0.3428	0.765	-0.9178	2.1978	0.04	9.3754	0.1258	0.1486	0.0712	0.5165	-0.3008	-1.755	9.8893	-1.4028	-0.9087	1.0265	0.8607	-1.4908	-0.1261	-0.2882	-0.3542
-1.5026	-0.6028	9.4727	0.1243	0.2055	-0.0189	0.3076	0.7392	-0.8516	2.1391	-0.191	9.316	0.0625	0.0927	-0.0253	0.5179	-0.2547	-1.7341	9.7651	-1.4617	-1.2529	0.8777	0.7549	-1.0339	-0.1201	-0.3002	-0.3482
-1.7376	-0.545	9.3532	0.2763	0.1684	0.0723	0.3443	0.7152	-0.8279	2.1428	0.1557	9.5485	-0.0612	0.0963	-0.0556	0.5162	-0.3006	-1.7763	9.7728	-1.3443	-0.8538	0.3893	0.5129	-1.0425	-0.1321	-0.2822	-0.3482
-1.9149	-0.2567	9.2354	0.1536	0.0803	0.0053	0.3076	0.7392	-0.8516	2.3225	-0.3638	9.8411	-0.1509	0.2793	0.0189	0.5183	-0.255	-1.7127	9.712	-1.5192	-0.9693	0.326	0.2096	-1.1807	-0.1261	-0.3062	-0.3662
-1.5024	0.4352	9.5902	0.0029	0.0967	-0.3022	0.3629	0.7629	-0.8286	1.8521	0.0406	9.4852	-0.1821	0.2491	0.017	0.5488	-0.3683	-1.8389	9.5312	-1.5195	-1.2005	0.0193	-0.0926	-1.2862	-0.1261	-0.2942	-0.3482
-2.0843	-0.4864	9.4614	0.0009	0.0837	-0.0262	0.2897	0.7866	-0.8532	2.4939	-0.0177	9.7286	-0.241	0.3993	0.1202	0.5339	-0.2766	-1.7975	9.9495	-1.6938	-0.8513	-0.1019	-0.1878	-1.1671	-0.1381	-0.3002	-0.3422
-1.6776	-0.3142	9.4699	0.0626	-0.001	-0.2148	0.3424	0.7174	-0.9167	2.5504	-0.5376	9.6129	-0.3351	0.2456	0.1417	0.5503	-0.3693	-1.7535	9.5867	-1.5782	-1.3704	0.2387	-0.3691	-0.4106	-0.1261	-0.3002	-0.3422
-1.9194	-0.3149	9.0052	0.1224	-0.156	-0.2227	0.3071	0.7397	-0.8738	2.306	-0.4804	8.9127	-0.3648	0.3706	0.1189	0.534	-0.3237	-1.733	9.5344	-1.4027	-1.0293	0.5498	-0.7099	0.5223	-0.1261	-0.2882	-0.3422
-1.672	-0.2559	9.7576	-0.0592	0.1785	-0.0523	0.3428	0.765	-0.9178	2.5463	-0.5956	9.3808	-0.2093	0.3297	0.2708	0.5531	-0.2536	-1.7333	9.7073	-1.2869	-1.1966	0.5233	-0.8504	1.0687	-0.1321	-0.2882	-0.3422
-2.1398	-0.659	9.5749	0.0632	0.2063	-0.0193	0.3807	0.8356	-0.8742	2.2019	0.0403	9.6074	-0.1504	0.2118	0.1387	0.5174	-0.2779	-1.7338	9.4767	-1.3443	-0.9733	0.7634	-0.9012	0.6644	-0.1141	-0.3002	-0.3422
-1.7998	-0.2571	9.1802	-0.1187	0.4232	0.0219	0.3434	0.7882	-0.8962	2.6092	-0.3643	9.6722	-0.1791	0.3322	0.2087	0.517	-0.2776	-1.7552	9.5321	-1.2865	-1.143	0.9371	-0.8365	-0.4406	-0.1261	-0.3062	-0.3302
-1.9727	-0.4295	9.2338	0.1866	0.3281	-0.012	0.3435	0.7401	-0.8729	2.4322	-0.3643	9.4951	-0.1473	0.3272	0.3014	0.5706	-0.2765	-1.7114	9.6547	-1.81	-0.9141	0.7527	-0.7656	-0.6814	-0.1261	-0.2942	-0.3362
-2.208	-0.2564	9.1146	0.0645	0.2444	-0.1709	0.3082	0.7624	-0.83	2.3134	-0.5376	9.3187	0.1006	0.1879	0.5396	0.4987	-0.3482	-1.7122	9.417	-1.4608	-1.0317	0.6016	-0.8943	-0.4716	-0.1261	-0.2882	-0.3482
-1.9123	-0.4294	9.35	0.0009	0.0543	-0.0586	0.3246	0.7648	-0.9183	2.3183	-0.3063	9.6091	-0.1433	0.6331	0.3523	0.624	-0.2518	-1.7105	9.6485	-1.2868	-1.1977	0.789	-0.9453	0.1084	-0.1261	-0.2942	-0.3422
-1.7914	0.1476	9.6412	0.0614	-0.0964	-0.1584	0.3058	0.6933	-0.9171	2.0775	0.1553	9.1414	-0.0837	0.5444	0.2531	0.4993	-0.3016	-1.734	9.7697	-1.5776	-1.0253	1.0949	-0.8277	0.2043	-0.1201	-0.3002	-0.3482
-2.086	-0.1983	9.4046	-0.0625	-0.1343	0.0231	0.3442	0.7633	-0.8513	2.6016	-0.1916	9.2664	-0.0809	0.6936	0.356	0.535	-0.2774	-1.7335	9.7171	-1.0528	-0.6833	1.184	-0.7571	-0.1003	-0.1381	-0.2942	-0.3482
-1.7955	-0.6602	9.3517	0.0293	-0.1929	-0.0716	0.2894	0.8109	-0.876	2.6141	-0.1908	9.9625	-0.1387	0.9038	0.4941	0.5364	-0.2312	-1.7126	9.6557	-1.7517	-0.857	1.116	-0.9484	-0.8476	-0.1321	-0.2942	-0.3302
-1.501	-0.2567	9.5885	-0.095	-0.6411	-0.373	0.3426	0.7412	-0.9173	2.4348	0.0401	9.6696	-0.4151	1.0652	0.4438	0.5884	-0.2526	-1.7326	9.3652	-1.6927	-0.6916	1.1152	-0.7886	-1.0238	-0.1321	-0.3002	-0.3422
-1.8516	0.0321	9.5248	-0.1539	-0.5965	-0.6476	0.3251	0.7161	-0.8728	2.1969	-0.1333	9.3171	-0.2915	1.0294	0.503	0.5703	-0.2763	-1.7327	9.8874	-1.6359	-1.0232	1.3631	-0.6506	-0.5882	-0.1261	-0.2762	-0.3302
-1.9074	-0.5441	9.5797	-0.3442	-1.2786	-0.5624	0.3438	0.7158	-0.8501	1.9154	-0.0169	9.7762	-0.3486	1.2688	0.674	0.5703	-0.2763	-1.7327	9.4758	-1.519	-1.0307	1.5494	-0.7602	-0.1034	-0.1381	-0.2942	-0.3422
-1.6785	-1.064	9.3531	-0.2216	-1.3655	-0.72	0.3253	0.7399	-0.8733	2.3159	-0.0755	9.4933	-0.5922	1.4529	0.7803	0.5699	-0.276	-1.7541	9.5398	-1.1691	-0.7439	1.5802	-0.4488	-0.2105	-0.1381	-0.3002	-0.3182
-1.7342	-0.5446	9.5257	-0.5902	-1.3429	-0.4445	0.3627	0.7392	-0.828	2.6105	0.2132	9.789	-0.6231	1.6807	0.5468	0.5364	-0.2312	-1.7126	9.4786	-1.0529	-0.8587	1.6997	-0.4092	-0.5169	-0.1261	-0.2942	-0.3362
-1.7861	-0.1977	9.8704	-0.5885	-1.1858	-0.4976	0.3633	0.7624	-0.8064	2.4953	-0.3063	9.7862	-0.7723	2.017	0.6625	0.5329	-0.323	-1.7971	9.6523	-1.6939	-1.0278	1.9459	-0.1085	-0.3495	-0.1381	-0.2882	-0.3422
-1.5051	-1.1221	9.2989	-0.282	-1.0692	-0.4279	0.3434	0.7882	-0.8962	2.0221	-0.1909	9.2559	-0.9903	2.1603	0.3313	0.5884	-0.2526	-1.7326	9.5957	-1.6353	-0.9148	2.1275	-0.0118	-0.5305	-0.1201	-0.2822	-0.3602
-1.7407	-0.1417	9.2391	-0.1912	-1.1055	-0.337	0.3611	0.7171	-0.894	2.1974	-0.4798	9.3167	-1.5711	2.6006	0.3626	0.5699	-0.276	-1.7541	9.5957	-1.5771	-0.9147	1.88	0.4436	-1.212	-0.1261	-0.2942	-0.3602
-1.5155	-0.4891	8.8404	-0.4677	-1.1974	-0.2823	0.3074	0.7154	-0.8511	1.8521	0.0983	9.4852	-1.5458	2.3662	0.0989	0.5526	-0.2768	-1.7331	9.4233	-2.1004	-0.7484	1.9386	0.2644	-1.4063	-0.1381	-0.3062	-0.3422
-1.3306	0.0308	9.4201	-0.5904	-1.4605	-0.5738	0.3443	0.7152	-0.8279	2.6658	-0.1335	9.6156	-2.223	2.6311	-0.0361	0.5188	-0.2318	-1.713	9.7797	-1.5181	-0.5124	1.9415	0.2218	-1.0395	-0.1261	-0.2942	-0.3422
-2.2501	-0.1967	9.9187	-0.9318	-1.8379	-0.3503	0.3264	0.7626	-0.8295	2.0267	-0.4793	9.4876	-2.651	2.8153	0.1331	0.5355	-0.2542	-1.7337	9.9518	-1.6935	-0.7374	2.0963	-0.5406	-0.3732	-0.1201	-0.2762	-0.3422
-1.6847	-0.2574	9.125	-0.9326	-2.0466	-0.5151	0.3253	0.7399	-0.8733	2.3739	-0.0756	9.4944	-3.1751	2.9854	-0.0087	0.5699	-0.276	-1.7541	9.5958	-1.6935	-0.915	1.731	-0.6635	-0.2844	-0.1321	-0.3002	-0.3422
-1.8592	-0.1994	9.1217	-1.1772	-2.1597	-0.6764	0.3243	0.7892	-0.9411	2.4242	0.1548	9.0896	-2.9278	2.9782	0.0518	0.5347	-0.2771	-1.7548	9.3625	-1.2855	-0.8045	1.524	-0.5603	0.3992	-0.1441	-0.3002	-0.3362
-2.083	0.0327	9.5777	-1.7314	-2.4977	-0.5752	0.3616	0.7165	-0.8718	2.552	-0.1332	9.7295	-2.9316	2.769	-0.086	0.5536	-0.2305	-1.7336	9.5368	-1.4606	-0.9155	1.1258	-0.8925	0.2929	-0.1201	-0.2942	-0.3542
-1.56	-0.4296	9.5294	-2.2525	-2.5864	-0.5218	0.2899	0.6903	-0.8066	1.7962	0.0985	9.6002	-2.9667	2.5296	-0.2256	0.5164	-0.3243	-1.7334	9.4794	-1.6933	-0.8602	0.7002	-0.8918	0.3886	-0.1381	-0.2942	-0.3542
-1.9117	-0.141	9.4082	-2.1598	-2.523	-0.5793	0.3261	0.7869	-0.8523	2.3706	0.0397	9.3205	-2.7493	2.1943	0.2484	0.5535	-0.2539	-1.712	9.3015	-1.2857	-0.9196	0.0622	-1.2993	0.7724	-0.1261	-0.2882	-0.3422
-1.8453	-0.2554	9.8116	-2.252	-2.6703	-0.7107	0.3602	0.7182	-0.9384	2.0829	0.0402	9.4313	-2.323	1.9209	0.0113	0.4984	-0.3245	-1.7551	9.3592	-1.4024	-0.9757	0.0633	-0.9906	0.7577	-0.1321	-0.2882	-0.3482
-2.026	-0.5442	9.4624	-2.2228	-2.825	-0.7188	0.3456	0.7616	-0.7847	1.9703	-0.1327	9.603	-1.9553	1.6012	0.113	0.5163	-0.2772	-1.7979	9.4747	-1.5192	-1.0877	-0.2734	-1.4195	0.7689	-0.1201	-0.3002	-0.3422
-1.5611	-0.4298	9.4719	-1.7931	-2.6748	-0.7387	0.3437	0.7639	-0.8734	2.1466	-0.3637	9.7219	-2.17	1.7293	0.0913	0.5181	-0.2784	-1.6911	9.6584	-2.1589	-0.7441	-0.2423	-1.3284	0.8041	-0.1261	-0.2942	-0.3482
-1.6227	-0.4301	9.2983	-1.9156	-2.7909	-0.8687	0.3427	0.6931	-0.8939	2.5477	-0.0758	9.4975	-2.0474	1.6658	0.0866	0.518	-0.3018	-1.6696	10.0767	-1.2852	-0.3354	-0.3613	-1.4633	1.1978	-0.1261	-0.3002	-0.3362
-1.9196	-0.2572	9.0054	-1.7614	-2.4062	-0.5397	0.307	0.7879	-0.8972	1.7943	-0.0171	9.484	-2.1683	1.8508	0.1303	0.5354	-0.2776	-1.7121	9.8331	-1.6935	-0.7966	-0.2634	-1.834	2.1617	-0.1261	-0.2822	-0.3362
-1.8522	-0.2563	9.4666	-1.7595	-2.1608	-0.4958	0.3258	0.7394	-0.8512	2.0841	-0.0752	9.4892	-2.02	1.5191	-0.0783	0.534	-0.3237	-1.733	9.0769	-1.7499	-0.4125	-0.4733	-1.4381	2.3685	-0.1321	-0.3002	-0.3422
-1.7314	-0.7749	9.6402	-1.2653	-1.8148	-0.7508	0.3443	0.8352	-0.8752	2.4883	0.2706	9.4389	-2.2097	1.2193	-0.1901	0.5355	-0.2542	-1.7337	9.7191	-1.8676	-0.6283	-0.481	-0.9699	1.2244	-0.1261	-0.2882	-0.3422
-1.849	-0.1405	9.6394	-0.8974	-1.3476	-0.2623	0.3444	0.7871	-0.8518	2.4314	-0.5376	9.4368	-2.3033	1.3559	-0.4292	0.5528	-0.2534	-1.7547	9.5955	-1.4607	-0.9144	-0.895	-0.2387	-1.2863	-0.1321	-0.2942	-0.3362
-1.6084	-0.659	9.9878	-0.1594	-0.8649	-0.201	0.3068	0.7641	-0.8966	2.1449	-0.6525	9.6055	-1.6906	1.1702	-0.6303	0.588	-0.2523	-1.754	9.1887	-1.5761	-0.6946	-0.0219	0.1684	-2.6867	-0.1321	-0.2942	-0.3482
-1.9679	-0.5443	9.4636	0.2167	0.1793	-0.1427	0.3432	0.7644	-0.8956	2.0866	-0.4215	9.6048	-1.6287	0.8758	-0.3082	0.5537	-0.2776	-1.6691	9.7102	-1.8687	-1.084	1.2902	0.1475	-2.391	-0.1081	-0.2822	-0.3422
-1.7403	-0.3723	9.2386	0.7748	1.008	-0.1562	0.3069	0.716	-0.8732	2.4963	-0.3062	9.8443	-1.4788	0.3091	-0.1284	0.5177	-0.231	-1.777	9.6588	-1.5184	-0.6856	1.3624	-0.3976	-0.7903	-0.1081	-0.2882	-0.3542
-1.849	-0.1405	9.6394	1.61	1.8167	-0.4764	0.3069	0.716	-0.8732	2.3216	-0.4793	9.7829	-1.0138	0.5504	-0.1769	0.6063	-0.2052	-1.7754	9.831	-1.8102	-0.9108	0.3099	-0.3782	0.8183	-0.1201	-0.2882	-0.3542
-2.0293	-0.6599	9.2896	2.0709	2.087	-0.4282	0.3258	0.7394	-0.8512	1.7417	-0.1899	9.7728	-0.5221	0.1933	0.0149	0.5347	-0.2771	-1.7548	9.4752	-1.9849	-1.0888	-1.1763	-0.3892	1.5678	-0.1261	-0.2942	-0.3482
-1.9607	-0.0821	9.8672	2.8383	2.3871	-0.4379	0.2706	0.6675	-0.8509	2.1963	-0.4798	9.2587	-0.2136	0.2849	-0.0736	0.5535	-0.2539	-1.712	9.5901	-1.636	-1.1997	-1.8496	-0.0264	1.0079	-0.1321	-0.2882	-0.3662
-1.7373	-0.1413	9.4116	3.6377	2.8998	-0.3746	0.3066	0.7403	-0.896	2.4428	-0.5368	10.075	0.0342	-0.1462	0.4561	0.5355	-0.2542	-1.7337	9.9509	-1.9265	-0.7949	-2.5933	0.3734	-0.6871	-0.1201	-0.2942	-0.3482
-1.74	-0.4876	9.2383	4.9844	3.0647	-0.2956	0.3247	0.7167	-0.895	2.0822	-0.1908	9.373	0.2482	-0.1408	0.2692	0.5003	-0.2552	-1.7344	9.5969	-1.6934	-0.858	-3.7604	0.9217	-2.0943	-0.1081	-0.2822	-0.3482
-1.6823	-0.3148	9.2399	5.4773	3.3153	-0.4941	0.271	0.7869	-0.8759	2.4903	-0.4799	9.496	0.5839	-0.3571	0.1604	0.5523	-0.2766	-1.7545	9.7145	-1.7517	-0.8559	-4.6157	1.4707	-2.643	-0.1321	-0.2822	-0.3362
-1.5045	-0.2571	9.416	5.7905	3.8545	-0.8628	0.2884	0.7401	-0.8965	2.256	-0.1911	9.3761	0.5498	-0.6011	0.1136	0.5525	-0.3003	-1.7115	9.529	-1.5198	-1.3144	-5.9141	1.8136	-1.4461	-0.1321	-0.2942	-0.3422
-1.9045	-0.3131	9.7528	6.7716	4.0622	-0.9376	0.3255	0.7637	-0.8739	2.14	-0.1332	9.3741	0.6403	-0.6581	-0.0147	0.5355	-0.2542	-1.7337	9.4714	-1.5778	-1.2587	-7.1222	2.2847	-0.4278	-0.1081	-0.2822	-0.3362
-1.7907	-0.775	9.5815	7.9067	4.3045	-1.1325	0.36	0.6944	-0.9378	2.4965	-0.4795	9.844	-0.2475	-0.2847	0.231	0.5342	-0.3003	-1.7546	9.6562	-1.1694	-0.7986	-7.8717	2.7768	0.7724	-0.1201	-0.2942	-0.3482
-2.2049	-0.6597	9.2287	8.7685	4.7957	-1.285	0.3066	0.7403	-0.896	2.0814	-0.4219	9.3147	-0.4326	-0.0865	0.0274	0.5342	-0.3003	-1.7546	9.9951	-1.8702	-1.5342	-8.1693	3.5974	1.2172	-0.1201	-0.2882	-0.3482
-1.67	-0.0827	9.873	9.6247	4.7258	-1.3447	0.362	0.7159	-0.8496	2.1419	0.0402	9.4904	0.0281	-0.1174	-0.132	0.5885	-0.2291	-1.7542	9.8316	-1.3444	-0.8527	-7.9858	3.5929	1.3077	-0.1321	-0.2942	-0.3302
-1.8539	-0.5448	9.3509	9.138	4.8656	-1.5555	0.3257	0.7875	-0.8745	2.0813	-0.3064	9.3148	-0.101	-0.2509	-0.5126	0.6053	-0.2516	-1.7749	9.8209	-1.7533	-1.4233	-8.2279	3.2447	1.6606	-0.1261	-0.2942	-0.3542
-1.8483	-0.4864	9.6385	8.7468	5.2611	-1.9672	0.3068	0.7641	-0.8966	2.5478	-0.1335	9.4974	-0.1955	-0.3048	-0.6399	0.5188	-0.2318	-1.713	9.4137	-1.5776	-1.2029	-7.6007	3.1625	0.206	-0.1261	-0.2762	-0.3422
-1.7387	-0.0262	9.3544	9.3002	6.1463	-1.2093	0.3443	0.7152	-0.8279	2.317	-0.1332	9.5513	-0.0797	-0.6607	-0.9741	0.5177	-0.231	-1.777	9.8263	-1.5779	-1.1381	-6.4624	3.3208	-2.1627	-0.1201	-0.2822	-0.3362
-1.6128	-0.7749	9.7575	11.4748	7.043	-0.4711	0.3417	0.7424	-0.9617	2.2614	-0.3639	9.666	0.1672	-0.7309	-0.8866	0.5528	-0.2534	-1.7547	9.4698	-1.1705	-1.3147	-5.5667	3.4773	-4.4066	-0.1321	-0.2762	-0.3482
-1.7851	-0.14	9.928	13.742	8.0899	0.3372	0.3257	0.7875	-0.8745	2.4325	-0.653	9.4947	0.0464	-0.5458	-0.843	0.5337	-0.3235	-1.7544	9.8349	-1.2857	-0.6816	-4.2372	3.5073	-5.7073	-0.1261	-0.2942	-0.3422
-1.7177	-0.139	10.3892	14.8282	10.3624	1.0499	0.326	0.7631	-0.8517	2.1462	-0.075	9.7223	0.5049	-0.729	-1.0433	0.5536	-0.2305	-1.7336	9.7256	-1.6921	-0.2861	-3.4756	3.6567	-5.7673	-0.1201	-0.3062	-0.3542
-1.7305	-0.0828	9.7568	16.8399	12.647	0.6011	0.3076	0.7392	-0.8516	2.024	-0.0175	9.3722	0.1955	-0.9466	-0.9008	0.5347	-0.2771	-1.7548	9.4891	-1.4009	-0.3468	-4.2006	3.8279	-5.1375	-0.1261	-0.2942	-0.3302
-2.0884	-0.7176	9.2308	16.3598	14.4008	1.5832	0.325	0.7643	-0.8961	2.3761	-0.1909	9.6103	0.6258	-1.1091	-0.8823	0.5352	-0.2539	-1.7551	9.7203	-0.9359	-0.5121	-3.3303	4.2222	-3.2484	-0.1141	-0.3182	-0.3482
-1.9008	-0.428	9.925	14.0336	17.3231	1.2329	0.3063	0.7647	-0.9188	2.0884	-0.1904	9.7211	0.0938	-1.2913	-1.3885	0.5523	-0.2766	-1.7545	9.7191	-1.8094	-0.6282	-3.4702	5.396	-2.3252	-0.1321	-0.2942	-0.3482
-2.0704	0.0343	10.2102	14.4514	19.6037	1.2962	0.3251	0.7161	-0.8728	2.5458	-0.1914	9.3813	-0.4015	-1.4045	-1.4246	0.5175	-0.2545	-1.7554	9.1902	-1.867	-0.6384	-3.9192	6.6844	-2.0086	-0.1201	-0.3002	-0.3482
-2.3094	-0.1967	9.86	15.7293	22.8007	2.0288	0.3605	0.7658	-0.9396	2.0287	-0.4214	9.6037	-0.5899	-1.7104	-1.4126	0.5535	-0.2539	-1.712	9.0156	-1.4591	-0.5268	-5.2988	7.8579	-3.6275	-0.1381	-0.2882	-0.3482
-2.4694	-0.483	10.5459	16.8683	25.5414	4.6109	0.3607	0.6695	-0.8929	2.375	-0.1332	9.5523	-0.5291	-1.902	-1.3012	0.5529	-0.3005	-1.6902	9.2374	-1.5774	-1.2062	-8.0249	9.2232	-6.0557	-0.1201	-0.2942	-0.3422
-2.0591	-0.4257	10.7267	16.1695	30.6687	6.2638	0.3255	0.7637	-0.8739	2.3123	0.3284	9.3198	-0.0921	-1.6093	-1.1289	0.5171	-0.3248	-1.6907	9.4237	-1.5181	-0.69	-9.1537	9.6465	-6.455	-0.1201	-0.2882	-0.3542
-1.9813	0.1532	11.7643	20.3861	37.7433	7.2844	0.3423	0.6455	-0.8928	2.5453	-0.6534	9.3227	0.0334	-1.7188	-0.8261	0.5521	-0.3	-1.7329	9.3581	-1.4025	-1.0327	-8.9249	8.739	-4.1671	-0.1261	-0.2942	-0.3602
-1.6396	0.267	11.4264	27.6507	44.5975	9.5421	0.3607	0.6695	-0.8929	2.6084	0.2131	9.673	-0.3927	-1.5437	-0.4712	0.5169	-0.3011	-1.7336	9.1754	-1.6942	-1.3785	-7.4922	7.4151	0.211	-0.1201	-0.2942	-0.3482
-0.5978	-3.7146	10.8051	40.7041	47.4634	23.3626	0.3239	0.7416	-0.9399	2.3187	-0.6528	9.6086	0.04	-1.3927	-0.5565	0.5526	-0.2768	-1.7331	8.4843	-1.4005	-0.6507	-9.7627	6.6914	2.2521	-0.1141	-0.2882	-0.3482
-1.9874	-0.2512	11.4183	7.6362	57.6006	10.6929	0.324	0.6935	-0.9166	2.2571	-0.191	9.4341	-0.1746	-1.3629	-0.4604	0.536	-0.231	-1.7339	9.2313	-1.1124	-1.4899	-10.5123	4.9849	0.878	-0.1141	-0.3122	-0.3482
-1.96	-0.1326	12.7987	16.6175	68.1818	12.823	0.3775	0.6714	-0.959	2.087	0.0982	9.6634	-0.2312	-1.2233	-0.1406	0.5521	-0.3	-1.7329	9.1218	-1.2859	-1.0938	-10.513	4.2991	1.1191	-0.1201	-0.2822	-0.3482
-2.5041	-0.0764	11.7534	16.992	76.5414	13.8567	0.3594	0.7431	-0.9834	2.3201	-0.0752	9.7254	1.0696	-1.1079	0.2025	0.5509	-0.3227	-1.7753	9.5383	-0.8782	-0.8002	-9.569	2.3826	1.9957	-0.1141	-0.2942	-0.3602
-2.7261	-0.7667	12.2071	19.6941	85.5928	15.342	0.3611	0.7171	-0.894	2.4364	-0.4218	9.727	1.0744	-0.9033	0.4331	0.5531	-0.2536	-1.7333	9.1875	-1.4598	-0.7513	-8.985	0.5418	3.4941	-0.1021	-0.2882	-0.3602
-2.9564	-1.3426	12.2586	18.0376	93.5168	17.63	0.3596	0.6468	-0.9367	2.2552	-0.3644	9.3179	1.0115	-0.8639	0.2807	0.5169	-0.3011	-1.7336	9.8365	-0.7033	-0.5663	-12.4602	-0.4204	3.6877	-0.1321	-0.2822	-0.3542
-2.9422	-1.5139	12.9483	24.0106	99.2047	19.3864	0.3946	0.6489	-1.0024	2.5479	-0.1913	9.4974	-0.0972	-0.5933	0.1792	0.5704	-0.2529	-1.7543	10.0608	-1.0543	-1.1323	-12.4619	-1.1966	3.8626	-0.1141	-0.2942	-0.3602
-3.197	-0.7664	11.9104	29.8693	106.2858	21.8006	0.4322	0.6719	-0.9576	2.4933	-0.4219	9.6701	-0.7426	-0.4962	0.3126	0.5007	-0.2555	-1.7131	9.7657	-0.9959	-1.1948	-12.4694	-0.1031	2.4436	-0.1381	-0.3002	-0.3542
-3.984	-1.0499	13.2162	29.419	112.3948	24.2142	0.4315	0.5768	-0.9553	2.264	0.0982	9.8406	-0.9	-0.7058	0.2376	0.5355	-0.2542	-1.7337	10.1657	-0.7649	-1.7561	-11.4239	1.0325	-0.5808	-0.1321	-0.2882	-0.3602
-3.8672	-1.2807	13.2179	36.1523	118.2499	26.814	0.4496	0.6251	-0.9782	2.4887	-0.0758	9.4385	-1.3869	-0.4037	0.5389	0.5162	-0.3006	-1.7763	10.2338	-1.0549	-1.2999	-10.8469	0.683	-4.2628	-0.1201	-0.2942	-0.3362
-4.4908	-1.7965	13.9516	43.1984	119.8431	27.2213	0.4488	0.65	-1.0231	2.489	-0.3068	9.4382	-1.0738	-0.3011	0.8547	0.5357	-0.2307	-1.7553	9.7684	-1.4031	-1.0818	-7.9833	0.3063	-7.7189	-0.1321	-0.2942	-0.3422
-3.5079	-1.3378	13.7422	61.7097	116.7687	26.4694	0.5231	0.649	-0.9547	2.6157	-0.5949	10.02	-1.0753	-0.4563	0.8756	0.5347	-0.2771	-1.7548	10.2941	-1.4623	-1.2428	-3.8687	0.0035	-10.9355	-0.1261	-0.2942	-0.3422
-3.0829	-1.4012	11.7387	79.2884	115.2914	25.5511	0.5211	0.6275	-1.0429	2.5522	-0.3642	9.7292	-0.4171	-0.0948	1.455	0.5165	-0.3008	-1.755	9.5415	-1.7511	-0.6884	2.3614	0.0337	-12.6145	-0.1201	-0.3002	-0.3542
-3.3836	-1.0559	11.2737	89.5587	115.1009	26.1909	0.5218	0.6026	-0.9979	2.2626	-0.4216	9.7239	-0.1365	-0.0163	1.6451	0.5704	-0.3234	-1.6682	9.3747	-1.2258	-0.1777	9.7369	0.73	-12.3003	-0.1141	-0.2942	-0.3602
-3.8259	0.4977	9.6592	104.0828	110.3473	33.9269	0.5023	0.556	-1.0416	2.5488	-0.0757	9.5555	0.7291	0.1875	1.5924	0.4815	-0.3256	-1.7128	9.2608	-1.5163	-0.0098	12.8248	1.9698	-11.4308	-0.1261	-0.2882	-0.3482
-0.6707	0.1332	4.6625	111.1344	100.3802	36.1428	0.5922	0.4623	-1.0592	2.0184	-0.5377	9.0234	0.6054	-0.0362	1.7957	0.5157	-0.3238	-1.7761	8.9535	-1.4594	-0.6988	12.8496	1.8037	-12.0239	-0.1261	-0.2762	-0.3482
5.9432	0.9692	-1.6423	87.369	78.4655	25.1074	0.611	0.5338	-1.0604	2.49	0.5595	9.5553	0.5401	-0.0508	1.4846	0.5519	-0.2763	-1.7758	9.4205	-1.635	-0.8612	13.2878	2.2232	-10.8064	-0.1141	-0.2882	-0.3422
10.7926	-0.9982	-0.5737	21.0965	36.3168	-9.2619	0.5753	0.5086	-1.0164	2.3134	-0.5954	9.3186	-0.1483	-0.4149	0.9672	0.5165	-0.3008	-1.755	8.8785	-1.9854	-1.5557	11.5207	0.9035	-6.6479	-0.1261	-0.3002	-0.3602
14.4466	-2.2033	4.7266	-6.6692	6.9409	-53.9343	0.6292	0.534	-1.06	2.6647	-0.1336	9.5575	-0.5519	-0.4283	0.7509	0.5178	-0.2781	-1.7125	9.5153	-1.2886	-1.9975	8.2181	0.8439	-0.9969	-0.1321	-0.3062	-0.3482
11.4699	-4.5631	3.8571	4.4577	-16.5714	-98.2459	0.5924	0.4861	-1.0598	2.6098	-0.0756	9.7306	-0.2213	-0.6204	0.1469	0.5348	-0.2537	-1.7764	10.1565	-1.5229	-2.2706	5.9148	1.4227	3.695	-0.1201	-0.2882	-0.3542
10.0613	-7.2145	2.903	-10.8725	-69.9887	-105.299	0.5572	0.5322	-1.0175	2.2643	-0.1327	9.8403	0.0518	-0.6039	-0.2879	0.5343	-0.2769	-1.7762	10.7964	-1.5827	-2.6002	4.4306	1.9368	4.4103	-0.1141	-0.2822	-0.3602
7.1806	-6.6289	4.2269	-36.6681	-104.8416	-82.0447	0.5924	0.558	-1.0837	2.6626	-0.1338	9.4415	0.1404	-0.4244	-0.8355	0.5354	-0.2776	-1.7121	11.3842	-1.6415	-2.5892	2.8198	3.9968	0.195	-0.1141	-0.3002	-0.3602
5.9899	-6.2192	5.7563	-53.3548	-134.8581	-47.0075	0.5197	0.6292	-1.1095	2.4312	-0.4222	9.437	0.6049	-0.4412	-0.6524	0.5164	-0.2537	-1.8195	11.6799	-1.2923	-2.4688	2.4659	6.351	-6.8134	-0.1201	-0.3002	-0.3362
5.8397	-4.486	7.1371	-60.3206	-166.6805	-13.6764	0.4838	0.5801	-1.0649	2.6074	-0.5955	9.5559	1.2454	-0.8074	-0.9586	0.5687	-0.2987	-1.7966	11.0392	-1.5237	-2.1968	1.188	7.8769	-14.6572	-0.1261	-0.2942	-0.3542
5.4412	-3.5616	7.6488	-65.8525	-191.0488	12.0311	0.4277	0.5813	-1.1329	2.4922	-0.3643	9.6121	1.6497	-0.7002	-0.7672	0.5536	-0.2305	-1.7336	10.3463	-1.5796	-1.5838	-0.4401	7.9692	-19.9897	-0.1141	-0.2942	-0.3602
4.8203	-2.5201	8.6737	-71.9131	-207.5982	26.84	0.4637	0.5822	-1.1541	2.2531	-0.3645	9.2019	2.1772	-0.7887	-0.4027	0.5698	-0.2995	-1.7325	10.4053	-1.7543	-1.5831	0.0972	7.2556	-20.9537	-0.1321	-0.2822	-0.3362
4.5556	-1.6514	10.0501	-75.2435	-218.1739	30.3086	0.3726	0.5813	-1.1565	1.9652	-0.1908	9.3129	2.5171	-1.0248	-0.1092	0.5695	-0.2758	-1.7754	9.0509	-1.4621	-1.722	2.9612	5.1602	-19.8253	-0.1201	-0.3002	-0.3482
3.7004	-0.898	10.9547	-74.9921	-223.8322	26.2587	0.3379	0.6268	-1.092	2.4945	0.2711	9.787	2.9468	-1.3793	0.0521	0.5177	-0.231	-1.777	9.1138	-2.1603	-1.5517	6.2836	2.4277	-18.1802	-0.1261	-0.3002	-0.3482
2.838	-0.6068	11.4556	-74.475	-224.6774	16.4757	0.3383	0.6744	-1.0931	2.2623	-0.2484	9.7241	3.0733	-1.4288	0.3899	0.5337	-0.3235	-1.7544	9.2345	-1.9271	-1.378	9.2567	0.0352	-18.3904	-0.1141	-0.3002	-0.3542
-0.0503	-0.8295	12.3175	-78.5552	-217.3359	5.5021	0.3027	0.721	-1.073	2.1388	-0.0178	9.3163	2.6442	-1.6288	0.8445	0.4989	-0.3014	-1.7553	8.823	-1.9267	-1.3858	12.3136	-2.2045	-19.5466	-0.1261	-0.3182	-0.3542
-4.2418	-1.1101	11.9463	-81.0736	-194.2366	6.2919	0.2102	0.7218	-1.1419	2.4288	-0.1914	9.3212	3.5154	-1.7119	1.6114	0.4991	-0.2779	-1.7769	8.3526	-1.6933	-1.3942	14.8386	-4.3149	-18.816	-0.1141	-0.2942	-0.3482
-5.6815	-0.5289	12.6664	-104.1301	-163.2924	15.4518	0.2107	0.7213	-1.1197	2.4327	0.0399	9.5536	4.4111	-1.7975	1.788	0.5879	-0.2758	-1.7324	8.6564	-1.5759	-0.8756	17.5147	-5.3199	-15.1077	-0.1261	-0.2882	-0.3482
-6.8261	0.1099	13.6225	-102.6438	-136.9009	29.995	0.1043	0.8606	-1.0372	2.1974	-0.4798	9.3167	4.3813	-1.9644	2.0568	0.4808	-0.3251	-1.7555	8.533	-1.3436	-1.1621	19.348	-4.8218	-10.9455	-0.1201	-0.3062	-0.3542
-7.2892	0.284	13.7287	-97.2956	-104.223	42.6852	0.1225	0.8608	-1.0368	2.3181	-0.1331	9.6093	4.3495	-2.1867	2.1977	0.4812	-0.3253	-1.7341	9.3586	-1.81	-1.0336	19.0543	-2.6314	-7.0778	-0.1321	-0.3062	-0.3482
-7.9907	0.4003	13.5426	-92.9128	-67.4652	49.7799	0.0693	0.8586	-0.9716	2.26	-0.0175	9.6084	4.5383	-2.3048	2.6549	0.5521	-0.3	-1.7329	8.6003	-1.9831	-0.7638	16.8302	0.4999	-5.1133	-0.1261	-0.3182	-0.3602
-8.88	0.9189	12.7215	-85.3505	-35.8461	50.1994	0.1068	0.8816	-0.9268	2.6524	-0.3077	8.8612	5.2487	-2.2889	2.7148	0.5868	-0.275	-1.7964	8.8898	-2.1004	-0.9863	14.7003	4.3945	-6.7999	-0.1261	-0.3122	-0.3542
-10.0622	1.3802	11.7795	-82.089	-13.8106	45.1015	0.1083	0.8799	-0.8602	2.3138	-0.0757	9.3773	5.7015	-3.0624	2.6003	0.4989	-0.3014	-1.7553	8.8933	-2.1582	-0.8156	12.6484	8.3714	-10.1125	-0.1321	-0.3062	-0.3422
-11.6911	1.8447	11.7483	-80.0589	-0.0119	39.2168	0.0908	0.9748	-0.863	2.8463	-0.422	9.9664	7.3623	-3.4577	2.536	0.4984	-0.3245	-1.7551	8.9961	-1.9855	-1.5535	9.4955	11.3432	-13.4993	-0.1261	-0.3062	-0.3542
-13.5684	2.1347	10.907	-76.6458	7.9429	33.5809	0.1097	0.9501	-0.8176	2.1444	-0.2484	9.606	8.6146	-4.3953	2.3451	0.5331	-0.2996	-1.8186	8.4033	-2.4512	-1.8506	3.7419	13.8511	-18.0575	-0.1261	-0.3062	-0.3602
-15.7979	2.944	9.9451	-73.0048	12.6459	30.5991	0.0938	1.0672	-0.7543	2.5524	-0.4797	9.729	9.9017	-4.8323	2.0003	0.5324	-0.3462	-1.7968	9.0483	-2.161	-1.8946	0.1914	14.6079	-20.5107	-0.1141	-0.3182	-0.3542
-16.047	3.6921	9.1947	-69.4978	17.2154	29.1763	0.0941	1.0428	-0.7315	2.4988	-0.6525	9.9598	10.0662	-5.4205	0.7194	0.553	-0.2065	-1.7978	8.6376	-1.8112	-1.8446	-1.9596	16.1471	-19.8596	-0.1261	-0.3182	-0.3602
-16.1042	3.231	9.1925	-59.7056	20.8263	28.6952	0.0955	1.0411	-0.6649	2.6647	-0.0759	9.5576	11.5907	-6.2724	-0.0571	0.4992	-0.325	-1.7124	8.4083	-1.9266	-1.5645	-3.1973	16.8421	-15.2315	-0.1321	-0.3122	-0.3602
-15.4718	4.4975	8.9781	-47.3896	25.791	27.6883	0.1326	1.0647	-0.6424	2.2054	-0.1905	9.7812	14.0981	-7.5436	-0.8032	0.5515	-0.3466	-1.7111	7.811	-2.4511	-2.0897	-7.282	19.0328	-9.3647	-0.1141	-0.3062	-0.3542
-18.1126	16.3554	46.6052	-108.7	24.1572	42.0151	0.06	1.0396	-0.6215	2.4968	0.098	9.9028	15.4594	-9.0971	-1.6866	0.4823	-0.2555	-1.7562	7.8671	-2.044	-2.2015	-10.5778	19.9822	0.3976	-0.1201	-0.3242	-0.3662
-7.9156	18.3573	24.9117	162.8403	25.7728	1.3539	0.1333	1.0879	-0.6208	2.4961	-0.133	9.8445	15.931	-10.6261	-2.1298	0.5157	-0.3238	-1.7761	8.5043	-2.6863	-2.7035	-21.6849	22.0452	8.3133	-0.1321	-0.3182	-0.3722
6.3695	6.5571	-2.9998	90.796	38.457	-33.3222	0.1138	0.9213	-0.6172	2.6191	-0.0172	10.2528	19.1985	-12.8005	-2.9691	0.5518	-0.2998	-1.7542	7.6972	-2.7416	-1.9217	-21.3148	22.1474	23.32	-0.1261	-0.2942	-0.3482
1.5596	6.6981	3.5156	17.0779	7.3659	-46.3166	0.0959	1.0887	-0.6661	2.8491	-0.1908	10.1407	21.4481	-15.7366	-3.0151	0.5152	-0.347	-1.7759	7.5203	-3.2655	-1.9833	-28.1734	22.2376	33.9262	-0.1201	-0.3122	-0.3662
-4.8944	2.2271	8.7225	-54.7599	-3.183	-11.2509	0.0769	0.9934	-0.6643	2.8622	-0.6518	10.8363	26.3302	-19.5973	-4.0026	0.5338	-0.3001	-1.7759	7.7631	-3.0901	-1.5796	-38.7708	20.0485	39.7096	-0.1141	-0.3062	-0.3782
-1.6759	-1.7557	9.4089	-80.1356	1.0682	24.8329	0.0774	0.9928	-0.6421	2.4413	-0.1905	10.0174	33.0006	-24.9638	-6.3691	0.4637	-0.3024	-1.7561	8.7556	-3.1503	-1.9026	-50.2005	15.3507	42.2333	-0.1021	-0.2882	-0.3662
0.0125	-3.7123	12.2543	-51.487	3.3704	20.1627	0.1134	0.9937	-0.6633	2.5767	0.0418	11.122	30.2467	-32.3483	-5.1913	0.4964	-0.4173	-1.7542	10.3516	-2.2776	-1.3576	-60.2852	4.1308	44.9604	-0.1201	-0.3002	-0.3602
-0.9697	-3.9402	12.5216	-5.105	5.3799	-11.3022	0.0953	1.0173	-0.6644	2.8661	0.3878	11.1277	21.9545	-40.4178	-1.9527	0.4798	-0.3715	-1.755	12.2807	-1.0002	-1.7733	-59.5794	-8.3724	40.5846	-0.1201	-0.3002	-0.3602
-2.022	-1.4087	9.5754	27.411	10.753	-13.9095	0.096	1.0406	-0.6428	2.7569	0.042	11.4732	29.6149	-49.2433	-3.3378	0.4817	-0.3021	-1.7343	13.8137	-0.3027	-1.4578	-45.3485	-15.0689	28.3145	-0.1141	-0.2882	-0.3542
-2.3416	1.5294	8.4265	11.5621	7.1523	-8.7329	0.0781	1.016	-0.6205	2.9955	0.3887	11.884	29.6748	-57.2779	-3.7365	0.4631	-0.349	-1.7343	14.1681	0.1047	-1.3361	-26.8234	-15.5405	16.8243	-0.1141	-0.2822	-0.3722
-0.9925	0.2019	8.9099	-10.4968	3.3283	0.8789	0.0968	1.0876	-0.6217	3.2395	-0.1882	12.5255	38.316	-66.4656	-8.1614	0.4447	-0.3491	-1.7773	13.46	-0.3606	-1.5216	-9.7582	-13.4537	12.4582	-0.1021	-0.2942	-0.3542
-1.5528	-2.2741	9.6975	-17.1284	2.3644	-1.1826	0.0971	1.0632	-0.5989	3.2604	0.6217	13.7448	30.4733	-76.2701	-10.0054	0.444	-0.4191	-1.7339	12.4018	-0.1848	-1.5413	4.9002	-10.3947	8.2237	-0.1141	-0.2882	-0.3542
-1.3801	-0.833	9.7619	-5.2018	2.1564	-1.2705	0.0777	0.9685	-0.6193	3.3445	1.3742	15.2552	48.5879	-83.3642	-16.3862	0.4051	-0.5354	-1.7976	11.4696	-0.4739	-1.1611	13.7441	-8.6653	-1.9978	-0.1141	-0.3002	-0.3542
-1.6728	-1.5823	9.5819	-6.6839	2.6347	1.4503	0.0781	1.016	-0.6205	4.135	0.5632	14.0505	37.3508	-100.2204	-16.7174	0.3907	-0.4205	-1.7564	10.5476	0.1117	-0.2091	11.5807	-10.4778	-12.191	-0.1141	-0.2762	-0.3662
-1.4887	-1.8121	10.0448	0.4668	3.5288	3.542	0.1136	1.0175	-0.6639	4.0324	-0.0708	14.7437	39.4945	-112.1597	-20.0497	0.3374	-0.4453	-1.7572	9.8364	0.3446	-0.5068	8.3773	-15.0974	-14.3116	-0.1141	-0.3002	-0.3662
-1.7274	-1.0628	9.812	9.8946	3.5268	2.3733	0.1145	1.0164	-0.6195	3.6384	0.2728	12.1853	46.6336	-121.4943	-17.8017	0.3897	-0.4669	-1.7559	9.7278	0.3459	-0.0533	9.2052	-20.9725	-7.1824	-0.1201	-0.2942	-0.3903
-1.4456	-0.6031	9.4163	10.1126	3.172	1.3107	0.1158	1.0628	-0.5763	3.7999	-0.0086	17.9293	27.5466	-139.4803	-23.8836	0.2309	-0.5185	-1.7161	10.0273	0.288	0.237	12.9986	-26.3169	4.716	-0.1261	-0.2942	-0.3422
-1.5104	-0.2001	9.1286	2.3933	2.4567	2.1447	0.1151	1.0396	-0.5979	2.6226	0.9112	13.7338	40.6224	-163.3845	-28.0746	0.3024	-0.47	-1.7151	10.9246	0.289	1.0513	15.3431	-30.9233	14.1735	-0.1201	-0.3002	-0.3662
-1.6226	-1.0644	9.2392	-2.9057	1.9436	2.6363	0.0949	1.0179	-0.6866	3.712	-0.5924	12.9974	19.2941	-174.9607	-25.6256	0.1612	-0.4506	-1.7609	11.7603	-0.2343	1.6923	15.4859	-33.1271	21.3754	-0.1141	-0.3002	-0.3422
-1.5056	-1.4105	9.2407	-3.3312	2.0826	2.4259	0.1142	1.0407	-0.6423	4.5422	-0.6498	14.0562	19.4723	-188.2081	-26.7984	0.1617	-0.498	-1.6751	11.8749	-0.5259	1.5229	16.7917	-31.1149	23.6216	-0.1201	-0.3062	-0.3542
-1.3242	-0.891	9.6479	-2.8433	2.3295	2.9647	0.096	1.0406	-0.6428	4.9318	-0.3627	13.1937	12.9733	-195.8928	-26.4303	0.0528	-0.6166	-1.7188	11.2279	-1.1074	1.4523	20.0901	-23.8286	21.3294	-0.1021	-0.2942	-0.3602
-1.504	-1.0643	9.3565	-3.7024	2.5248	3.6458	0.132	1.0415	-0.664	5.4163	-0.3618	14.3623	15.5915	-201.6583	-29.3631	0.0902	-0.5465	-1.6761	10.4397	-1.5171	0.1835	26.5344	-14.482	19.3031	-0.1081	-0.2882	-0.3482
-1.3281	-0.6608	9.476	-5.4235	1.9377	4.095	0.0787	1.0392	-0.5988	5.5963	-1.1123	14.6545	34.9934	-205.6163	-34.0865	0.0203	-0.5254	-1.6778	10.4406	-1.3424	0.2409	31.5645	-6.027	23.3911	-0.0961	-0.2822	-0.3542
-1.3957	-1.1232	8.9562	-8.1812	1.7915	4.6534	0.0774	0.9928	-0.6421	6.0688	-1.8671	11.8783	28.8474	-211.6026	-37.0249	0.0199	-0.5957	-1.613	9.7939	-2.215	0.1695	40.4996	-0.1559	26.2675	-0.1141	-0.2822	-0.3422
-1.5062	-1.1223	9.2414	-9.5262	2.2485	5.1609	0.0954	1.0892	-0.6883	5.6756	-1.8657	12.5671	17.9593	-217.2055	-42.3696	-0.0486	-0.5756	-1.5293	9.3167	-1.9242	-0.1805	49.1197	0.7937	23.1411	-0.1201	-0.2942	-0.3542
-1.5527	-1.7551	9.7563	-8.9959	2.7463	4.2997	0.0777	1.0885	-0.6666	5.9228	-0.8255	13.5009	29.4883	-220.3775	-48.4343	-0.1022	-0.5767	-1.5731	9.0105	-1.9254	-0.8128	52.8324	-1.6973	17.1395	-0.1021	-0.2942	-0.3302
-1.6167	-1.1213	9.5266	-7.8639	2.7934	4.3095	0.1518	1.0637	-0.5975	5.4895	0.7941	15.293	47.1665	-216.0039	-55.6819	-0.1022	-0.5767	-1.5731	8.7691	-2.2171	-1.1597	54.8328	-7.9049	8.3141	-0.1081	-0.2942	-0.3542
-1.5062	-1.1223	9.2414	-5.0687	3.1015	2.9302	0.0977	1.0145	-0.5534	4.4398	-1.8078	11.5011	65.5992	-222.7135	-64.3987	-0.1546	-0.6257	-1.4884	8.0723	-0.818	-0.6571	56.9833	-12.5406	-1.5072	-0.1201	-0.2822	-0.3482
-1.5594	-1.2946	9.4699	-1.7259	3.2381	1.7604	0.0974	1.0389	-0.5762	4.356	-1.9251	10.0496	72.8428	-208.3189	-68.4324	-0.2597	-0.6528	-1.4263	8.4104	-0.8784	-1.3911	56.5525	-15.0989	-8.1248	-0.1201	-0.2822	-0.3422
-1.624	-0.9492	9.182	0.7881	3.1608	0.7582	0.1142	1.0407	-0.6423	4.0235	-1.1193	7.7249	89.2112	-191.9579	-72.3174	-0.2629	-0.7682	-1.4678	7.9991	0.0536	-1.3397	53.177	-16.7099	-10.7947	-0.1201	-0.2882	-0.3602
-1.7379	-1.0064	9.2946	2.8733	3.5215	0.4222	0.1311	0.9945	-0.6851	2.5156	0.2642	4.5099	103.2773	-171.1902	-74.0115	-0.2623	-0.7922	-1.4036	8.1824	-0.1786	-0.9951	46.2898	-15.2312	-12.7525	-0.1201	-0.3002	-0.3482
-1.2651	-1.3524	9.648	3.7324	3.6454	0.1885	0.1324	1.0409	-0.6418	2.5641	-0.545	3.9297	109.5798	-144.7733	-63.5665	-0.3144	-0.7942	-1.362	8.2941	-0.9363	-1.3365	35.9296	-10.1684	-13.0811	-0.1081	-0.3002	-0.3542
-0.7422	-1.7571	9.5999	4.756	3.4681	2.3678	0.1137	1.0413	-0.6645	0.7485	-1.8722	2.7354	113.0712	-128.8064	-62.5128	-0.2973	-0.8874	-1.2753	8.4282	-0.7597	-0.4793	24.1463	-5.061	-8.6294	-0.1021	-0.3002	-0.3602
-1.7274	-1.6394	9.7531	7.8583	4.0132	1.1261	0.1146	1.0883	-0.6434	-7.0244	-3.0798	-1.1176	104.2376	-108.9661	-49.9117	-0.2973	-0.8874	-1.2753	8.5488	-1.4581	-0.3649	15.5006	-1.1722	4.1582	-0.1321	-0.3122	-0.3482
-1.5674	-1.3532	9.0672	7.8569	4.0046	1.31	0.1684	1.0418	-0.6631	-19.9546	-5.0851	-1.8747	64.8837	-74.3387	0.3652	-0.3495	-0.8895	-1.2337	9.2622	-1.749	0.0466	13.482	-2.1171	21.7129	-0.1081	-0.3062	-0.3542
-1.3259	-1.1796	9.5322	5.7422	3.9133	1.8447	0.0971	1.0632	-0.5989	-15.8857	-8.1498	-1.3416	24.7691	-31.9821	139.6679	-0.3482	-0.8668	-1.1912	9.5054	-3.0291	0.3898	15.4938	-5.4636	38.0941	-0.1021	-0.2942	-0.3542
-1.5572	-1.2366	9.585	4.1845	4.6435	2.5192	0.132	1.0415	-0.664	-15.1936	-10.6256	4.757	-20.843	23.2904	217.1801	-0.3492	-0.9132	-1.1908	10.7365	-3.1473	0.2421	17.7722	-10.4575	47.1311	-0.1021	-0.3002	-0.3542
-0.9739	-1.5835	9.6532	2.7379	4.2515	3.3495	0.1321	0.9933	-0.6407	-7.8951	-12.0209	4.5965	-14.663	61.7365	240.7663	-0.3482	-0.8668	-1.1912	11.0814	-3.2069	-0.1501	19.2952	-14.174	45.3575	-0.1081	-0.2882	-0.3602
-1.507	-0.7187	9.2424	3.548	5.329	2.5825	0.0966	1.0638	-0.6211	-3.8379	-14.1048	4.5507	-38.4244	94.0022	221.2396	-0.3296	-0.8199	-1.1913	11.6012	-3.0339	-0.5953	17.2828	-11.3495	32.7621	-0.1201	-0.2882	-0.3662
-1.903	-1.0626	9.751	1.8786	6.1887	1.8494	0.1142	1.0407	-0.6423	-1.3111	-12.2618	3.4387	-66.0508	124.3195	174.6846	-0.3644	-0.7978	-1.1923	11.5322	-1.8707	-1.0494	20.3013	-8.7608	17.4992	-0.1261	-0.2942	-0.3602
-1.1522	-1.4107	9.4776	2.2879	6.7261	0.8358	0.151	1.0887	-0.6425	-1.5115	-9.9495	5.3519	-98.7914	155.6007	122.1303	-0.3478	-0.7965	-1.256	11.8209	-1.2895	-1.2703	23.1427	-4.871	5.9328	-0.1261	-0.2942	-0.3602
-1.4865	-1.1776	10.2188	3.1197	7.425	0.8786	0.1337	1.0154	-0.5747	-2.1242	-7.2906	6.9103	-118.3382	187.408	73.7419	-0.258	-0.748	-1.2119	11.1153	-0.9977	-1.283	24.9057	-0.1952	-3.8932	-0.1021	-0.2942	-0.3542
-1.033	-1.1222	9.6532	5.302	8.3721	0.5438	0.0962	1.0643	-0.6433	-3.2461	-3.7063	9.2146	-121.2497	221.3062	32.2759	-0.2217	-0.6771	-1.2332	10.8934	-0.7629	-0.6033	21.9948	3.8163	-8.058	-0.1081	-0.2882	-0.3542
-1.4923	-1.7549	9.8724	8.0357	8.9987	-0.3578	0.1322	1.0171	-0.6412	-3.5647	-1.9715	10.9509	-112.7268	246.1925	10.322	-0.1872	-0.6756	-1.2752	9.953	-0.7618	-0.6212	18.3625	5.8636	-6.5074	-0.1141	-0.3002	-0.3662
-1.5644	-1.1221	9.2402	6.999	9.672	0.0711	0.1127	0.9705	-0.685	-3.4401	-0.5851	11.535	-101.313	264.4495	-0.0295	-0.1001	-0.7193	-1.2729	9.9028	-1.4593	-0.2252	13.8194	6.4604	-7.5462	-0.1201	-0.2882	-0.3482
-1.5548	-1.294	9.6999	7.0956	9.9643	-0.2507	0.1321	0.9933	-0.6407	-2.0321	-0.1237	12.5468	-90.1475	277.2817	-2.1325	-0.0105	-0.6471	-1.2717	9.3784	-1.5164	-0.0075	7.654	6.0303	-12.6535	-0.1201	-0.3062	-0.3542
-1.4854	-1.7541	10.2175	7.0909	9.9047	0.3608	0.1502	1.0417	-0.6635	-1.0385	-0.2398	13.0285	-83.1202	284.0556	-1.2268	0.0437	-0.5993	-1.2497	9.2038	-1.1084	0.104	0.6907	5.4399	-18.3161	-0.1141	-0.3122	-0.3542
-1.4984	-1.5826	9.5853	11.4355	10.5618	1.0079	0.1693	1.0407	-0.6187	0.0641	-0.5298	13.1059	-81.3252	284.2241	-0.8824	0.1667	-0.5953	-1.2685	9.2577	-1.6913	-0.1811	-4.9394	4.7747	-21.0416	-0.1141	-0.2822	-0.3542
-1.3289	-0.8339	9.4181	10.2194	11.0604	0.5965	0.0956	0.993	-0.6416	1.0038	-1.3385	13.7597	-83.9169	281.1212	-3.3702	0.204	-0.5486	-1.2042	9.1352	-1.2843	-0.4102	-9.0023	4.2043	-18.4857	-0.1021	-0.2942	-0.3662
-1.5046	-0.7761	9.3572	8.2107	12.5162	1.0917	0.1325	0.9928	-0.6185	2.8585	-1.5718	13.7927	-90.6264	276.3255	-8.2781	0.3454	-0.5212	-1.2015	8.6581	-1.1099	-0.7605	-10.2598	4.3252	-12.2883	-0.1261	-0.3122	-0.3602
-1.613	-0.6596	9.7577	9.4447	13.4152	0.7175	0.1684	1.0418	-0.6631	3.6843	-2.2647	14.5606	-98.2539	270.9091	-14.6815	0.3476	-0.4521	-1.1595	8.9019	-1.866	-0.3591	-9.505	5.2986	-6.3092	-0.1201	-0.3002	-0.3602
-2.0364	-0.5454	8.9449	10.4275	13.8668	0.7173	0.1682	1.0181	-0.6625	5.0827	-1.6308	15.0505	-105.3903	265.3983	-21.2175	0.4192	-0.4507	-1.094	8.4916	-1.9236	-0.3101	-9.4435	6.7117	-3.2843	-0.1201	-0.3002	-0.3602
-1.1028	-0.4892	9.136	3.4927	14.2331	0.0467	0.1331	1.0641	-0.6202	6.8423	-0.9385	16.301	-111.7501	258.3384	-28.5099	0.4386	-0.4514	-0.9869	8.3075	-1.9244	-0.7122	-9.041	8.1229	-3.1834	-0.1081	-0.2822	-0.3662
-1.794	-0.833	9.4088	4.4381	13.0403	-1.1482	0.1313	1.0183	-0.6856	8.014	-1.1123	17.0178	-115.7069	249.7078	-37.3125	0.5467	-0.4263	-0.8782	8.4305	-1.8074	-0.4249	-9.2423	8.76	-5.7008	-0.1021	-0.3002	-0.3722
-1.5662	-0.7764	9.1836	7.6396	11.978	-1.123	0.1689	1.0413	-0.6409	9.7546	-1.0566	17.1651	-117.7709	238.7503	-48.3866	0.5114	-0.4979	-0.7928	8.5994	-2.2161	-0.8213	-9.517	7.8807	-8.973	-0.1141	-0.3002	-0.3482
-1.8063	-0.4885	8.8346	7.6838	10.2073	-0.9716	0.1308	1.0188	-0.7078	11.4236	-0.0779	16.6165	-123.0607	224.311	-60.2935	0.5129	-0.4988	-0.7074	8.8357	-2.2162	-0.7599	-8.9418	4.3452	-11.3448	-0.1081	-0.3002	-0.3662
-2.442	-1.2364	8.9352	8.3299	7.3476	-0.8439	0.1311	0.9945	-0.6851	12.9735	0.9008	15.8917	-131.967	207.3392	-70.2374	0.5494	-0.5222	-0.5997	8.4392	-2.5632	-0.0279	-9.7047	-0.4085	-12.8465	-0.1021	-0.3062	-0.3602
-1.7962	-0.8909	9.2937	8.232	4.5473	0.8497	0.094	0.9709	-0.7076	14.4205	3.1509	15.9787	-139.9614	187.1526	-75.3028	0.4974	-0.5008	-0.5797	8.234	-2.7995	-1.513	-13.1607	-5.1538	-15.8018	-0.1081	-0.3002	-0.3542
-1.7942	-0.7754	9.409	10.5697	3.5046	2.0077	0.1495	1.0184	-0.6852	45.2736	62.061	102.6167	-316.4469	2.9297	-71.5842	0.4956	-0.5702	-0.6004	8.187	-2.3322	-0.8864	-16.0789	-10.0824	-19.9089	-0.1261	-0.2882	-0.3602
-2.2017	-1.063	9.3427	12.0455	4.5273	2.2256	0.1864	1.0182	-0.662	17.6314	19.5312	5.6189	-108.2712	121.0959	-66.2702	0.4601	-0.6181	-0.5579	8.6462	-2.4505	-1.4474	-16.5169	-15.2059	-22.4474	-0.1141	-0.3122	-0.3542
-1.8434	-0.6012	9.8683	10.7564	7.1278	1.8647	0.1506	1.0411	-0.6413	18.7012	2.2619	2.6578	104.9806	90.7025	-101.9108	0.4598	-0.6649	-0.5148	8.8925	-2.5076	-0.8734	-14.2459	-19.7724	-21.9347	-0.1201	-0.3122	-0.3482
-1.6716	-1.0055	9.6983	8.4428	10.7145	0.5358	0.1131	1.0181	-0.6861	17.6665	2.6061	-0.0861	13.274	30.8925	-90.2027	0.4396	-0.6638	-0.6646	9.2999	-1.8681	-1.0349	-10.4622	-23.9217	-15.6006	-0.1021	-0.3062	-0.3782
-1.9632	-1.178	9.6346	7.5885	13.7027	-0.2933	0.1484	0.9958	-0.729	16.1018	6.6008	6.6184	-63.0023	-12.0044	-78.4576	0.4213	-0.7343	-0.6216	9.5922	-2.5091	-1.1448	-3.994	-28.2527	-1.4264	-0.1141	-0.2942	-0.3602
-2.2592	-0.2554	9.4585	5.7743	18.426	-1.589	0.1141	1.0889	-0.6656	13.2191	9.959	10.8625	-54.9301	-17.6024	-70.879	0.3848	-0.7581	-0.6648	9.7774	-2.4499	-0.6856	4.5341	-31.6477	14.716	-0.1141	-0.3002	-0.3422
-1.8427	-0.9471	9.8675	7.0955	20.632	0.474	0.1679	0.9705	-0.6613	11.5343	9.1524	10.5412	-16.313	-10.7469	-61.7286	0.4186	-0.756	-0.7494	10.1317	-2.9159	-0.623	13.1109	-33.5999	25.2442	-0.1141	-0.3062	-0.3542
-2.3651	-1.4073	9.856	10.0034	21.1664	0.8287	0.1678	1.0905	-0.7086	11.2209	6.437	9.0241	2.531	-8.9744	-52.788	0.4023	-0.7105	-0.7289	9.7304	-2.9142	-0.1181	18.9334	-32.6139	25.5861	-0.1201	-0.3122	-0.3422
-1.9672	-0.8902	9.4628	10.9215	22.8179	2.9515	0.1688	1.0894	-0.6642	9.6533	7.0162	8.8807	9.4138	-15.1853	-46.1442	0.4013	-0.7568	-0.7284	9.6144	-3.3214	-0.0644	22.9088	-30.9783	19.6125	-0.1081	-0.3002	-0.3482
-1.678	-1.2946	9.3525	13.3788	24.0218	3.0011	0.1499	1.066	-0.6863	8.0552	9.0411	10.3625	27.137	-18.6882	-35.5545	0.3838	-0.7339	-0.7504	9.5027	-3.6116	0.2175	27.5129	-29.9348	12.7111	-0.1201	-0.3002	-0.3542
-1.9591	-1.4659	9.8064	13.143	25.3048	3.4063	0.168	0.9943	-0.6619	5.9267	12.2786	11.4303	57.432	-21.4976	-21.4373	0.3842	-0.7342	-0.729	8.9199	-2.9699	0.4927	28.9065	-28.7775	4.0891	-0.1141	-0.3062	-0.3542
-2.1296	-0.5424	10.0927	14.8262	28.9251	3.5802	0.1506	1.0411	-0.6413	5.1851	12.0494	12.0546	110.0622	-14.7803	-14.3467	0.4367	-0.7323	-0.7493	8.6979	-2.6769	1.1726	29.5406	-27.3378	-4.4816	-0.1141	-0.3062	-0.3302
-2.4927	-0.9471	9.3372	17.0395	30.0203	3.3765	0.1663	0.9484	-0.7274	3.2436	5.8091	6.734	151.6905	0.9985	-1.3384	0.3996	-0.8027	-0.7707	8.4557	-3.318	0.7678	32.8076	-26.6617	-7.2406	-0.1201	-0.3002	-0.3242
-2.0857	-0.3712	9.4042	14.2877	29.5924	2.6904	0.2042	1.019	-0.6837	-1.3788	5.9934	10.6527	-3.8801	-20.409	18.7474	0.3462	-0.8275	-0.7716	8.5708	-3.202	0.6564	34.873	-25.3415	-4.7596	-0.1081	-0.3002	-0.3362
-2.7197	-0.254	9.6793	12.7532	29.3143	3.0959	0.1847	0.9724	-0.7275	3.9223	2.1156	8.7712	-1.0966	-17.4735	10.7288	0.4013	-0.7568	-0.7284	8.9848	-3.4932	0.7774	36.3699	-23.7894	6.0401	-0.1081	-0.3122	-0.3422
-2.41	-0.5406	10.6045	13.013	31.0107	3.1269	0.1849	0.948	-0.7047	2.0891	-0.7101	9.7204	-2.6188	-21.3873	-17.2763	0.3644	-0.8038	-0.7714	8.7393	-3.2031	0.2609	38.9201	-20.8309	11.1235	-0.1201	-0.3062	-0.3422
-2.4573	-0.7698	11.1203	13.8474	36.0294	4.0463	0.1673	1.0192	-0.7069	1.0636	-1.5159	10.6288	1.3759	-21.8217	-15.4598	0.3639	-0.8269	-0.7712	9.6143	-3.2049	-0.0641	45.8424	-13.8423	9.4625	-0.1261	-0.3062	-0.3302
-2.2785	-1.231	11.2952	15.7342	42.3111	4.7943	0.2026	0.9969	-0.7498	1.2337	-0.9967	10.4586	11.8059	-15.9031	6.9224	0.3471	-0.8045	-0.7504	10.546	-2.5084	-0.4433	49.7321	-1.5548	2.9362	-0.1201	-0.3002	-0.3362
-2.2585	-0.2483	12.3901	17.7661	44.8738	1.7174	0.2232	1.0662	-0.6622	2.3144	0.3286	9.4359	16.022	-13.5562	9.1982	0.3649	-0.7806	-0.7716	11.764	-1.9296	-1.216	47.7681	14.8753	-3.2965	-0.1201	-0.3002	-0.3362
-2.5344	-1.3416	13.0143	23.6411	60.0881	8.1018	0.166	0.9727	-0.7501	4.1633	-2.7346	8.9431	0.7594	-5.0393	6.903	0.3821	-0.7798	-0.7926	13.1011	-0.7686	-1.8711	40.0189	29.8674	-9.1878	-0.1201	-0.3062	-0.3482
-2.7711	-0.419	12.8969	22.3016	72.1518	9.753	0.2035	0.9958	-0.7054	2.7013	0.3267	8.3989	-4.2133	-3.3364	-6.656	0.3646	-0.8274	-0.7285	14.0812	0.2177	-2.7611	28.8372	40.1792	-19.1078	-0.1201	-0.3062	-0.3362
-2.5907	-0.5339	13.1876	24.513	85.0666	12.0873	0.2211	0.9727	-0.7265	1.7403	-1.5181	9.5971	-19.852	-3.326	-0.7782	0.3465	-0.8512	-0.7286	13.7208	0.1589	-3.1668	5.2248	46.5848	-23.9941	-0.1201	-0.3122	-0.3542
-2.8034	-0.6464	14.1603	23.2072	100.9879	13.9145	0.2217	0.9959	-0.7049	2.724	-0.3646	9.6163	-8.3105	-3.7433	-0.0505	0.3629	-0.8733	-0.7707	12.6203	-0.3036	-2.3916	-13.0146	46.9928	-12.5076	-0.1081	-0.3182	-0.3422
-2.9049	-1.1634	14.8468	25.1404	117.7532	17.3134	0.2946	0.9967	-0.703	2.7263	-0.4799	9.7322	-9.8336	-3.907	-3.749	0.3639	-0.8269	-0.7712	10.8802	-0.9974	-1.2875	-13.8474	42.5974	6.5504	-0.1081	-0.3242	-0.3482
