1818_acc_x	1818_acc_y	1818_acc_z	1818_gyro_x	1818_gyro_y	1818_gyro_z	1818_mag_x	1818_mag_y	1818_mag_z	1819_acc_x	1819_acc_y	1819_acc_z	1819_gyro_x	1819_gyro_y	1819_gyro_z	1819_mag_x	1819_mag_y	1819_mag_z	1820_acc_x	1820_acc_y	1820_acc_z	1820_gyro_x	1820_gyro_y	1820_gyro_z	1820_mag_x	1820_mag_y	1820_mag_z
0.4878	1.2606	9.1733	-0.7479	-0.1864	-0.8676	0.2462	-0.3602	-0.3542	0.9849	1.751	9.0922	0.521	-1.7285	0.0627	0.1307	-1.0232	-1.2082	9.5361	2.5088	-0.6492	-14.9623	-3.2143	-7.8074	-1.181	0.8079	1.2363
0.6103	1.6063	9.5901	-1.962	-0.3813	-1.0832	0.2462	-0.3602	-0.3482	0.365	1.7539	9.7922	-0.5159	-1.3395	-0.6116	0.2443	-0.5154	-1.9765	9.8799	2.1643	-0.5852	-15.6294	-2.5272	-9.9014	-1.2416	0.2673	0.6044
0.7839	1.8361	9.6531	-3.5955	-0.4041	-0.9216	0.2522	-0.3602	-0.3422	0.4741	1.8675	9.4977	-0.0485	-1.1306	-1.0703	0.2736	-0.537	-1.9398	9.4254	2.5096	-0.4764	-15.006	-2.4124	-7.8452	-1.2762	0.2655	0.6222
0.4969	1.8368	9.7066	-4.2949	-0.3123	-0.5685	0.2462	-0.3662	-0.3422	0.5321	1.6957	9.4985	-0.1622	-0.6373	-1.0926	0.2447	-0.5346	-1.9757	9.4249	2.1079	-0.5362	-15.1936	-2.0683	-9.188	-1.2063	0.2652	0.6233
0.7774	1.7203	9.2982	-5.0361	-0.7695	-0.2785	0.2522	-0.3662	-0.3482	0.5345	1.6959	9.6173	0.1493	-0.4882	-1.3056	0.2583	-0.4974	-1.9593	9.8812	2.1072	-0.5271	-15.6696	-2.5042	-7.5572	-1.2767	0.3026	0.6001
0.7844	1.5486	9.6524	-5.2744	-1.0938	0.244	0.2582	-0.3662	-0.3602	0.7112	1.6386	9.7991	0.1538	-0.3029	-1.5803	0.2454	-0.5553	-1.9392	9.4913	2.6833	-0.0078	-15.4802	-2.7517	-7.4447	-1.2418	0.3024	0.6007
0.8385	1.6631	9.4765	-6.3578	-1.0138	1.247	0.2582	-0.3482	-0.3542	0.5353	1.8677	9.6771	0.5881	-0.096	-1.4214	0.245	-0.5369	-1.9221	9.0773	2.6239	-0.7746	-13.7105	-1.7197	-3.9673	-1.2416	0.318	0.6172
0.9021	1.4337	9.7726	-5.4284	-1.4182	1.5882	0.2342	-0.3662	-0.3362	0.2448	1.8109	9.5522	1.052	-0.0412	-1.7285	0.2738	-0.5547	-1.9747	9.5438	1.9364	-0.3011	-14.896	-2.1219	-2.6604	-1.2763	0.2831	0.6203
0.7864	1.6639	9.7709	-5.0914	-1.184	2.466	0.2582	-0.3602	-0.3482	0.9883	1.8085	9.2706	0.7832	0.3932	-1.7212	0.2879	-0.5536	-2.0103	9.3647	2.6812	-0.652	-15.7164	-3.017	-1.7448	-1.2598	0.2888	0.5656
0.7845	1.4911	9.6523	-4.0637	-1.012	2.6555	0.2402	-0.3542	-0.3302	0.7129	1.925	9.9185	0.4137	0.3692	-1.8149	0.2883	-0.5566	-1.9389	9.8791	1.992	-0.6442	-16.2895	-4.2563	0.4507	-1.2767	0.3026	0.6001
0.6689	1.0313	9.5898	-2.9043	-1.3371	2.3204	0.2462	-0.3482	-0.3542	0.4748	2.0393	9.5574	0.2362	0.7409	-1.8704	0.2594	-0.5542	-1.9748	9.479	2.5089	-0.6503	-17.2347	-4.7816	1.5027	-1.2415	0.3005	0.619
0.3291	1.4927	9.9388	-1.7969	-1.628	2.3223	0.2582	-0.3482	-0.3542	0.703	1.5806	9.383	-0.5308	0.8167	-2.1792	0.2733	-0.5355	-1.9755	9.4809	2.7962	-0.5326	-18.7147	-5.6153	2.988	-1.2068	0.3022	0.6013
0.786	1.2613	9.7108	-1.7763	-1.6914	1.9859	0.2522	-0.3482	-0.3362	0.2403	1.696	9.3143	-0.4726	0.6617	-2.0583	0.2879	-0.5374	-1.9397	8.9561	2.7949	-1.1264	-17.9297	-5.0316	3.0198	-1.2758	0.1953	0.6296
0.7856	1.4913	9.7114	-1.7529	-1.6935	1.7107	0.2462	-0.3422	-0.3422	0.5329	1.8675	9.5583	-0.36	0.1972	-1.6031	0.2307	-0.5365	-1.9223	8.9036	2.8532	-0.8939	-18.4988	-4.3551	3.9753	-1.2242	0.234	0.5901
0.7868	1.4914	9.7705	-1	-2.2159	1.3233	0.2402	-0.3482	-0.3302	0.7064	1.6381	9.5614	0.3459	0.0928	-1.542	0.2877	-0.5197	-1.9047	8.679	2.7968	-0.7237	-18.7541	-3.4608	4.0984	-1.224	0.2496	0.6066
0.7814	1.3183	9.4746	-0.1664	-2.5605	0.3859	0.2582	-0.3602	-0.3422	0.3117	1.411	9.9685	0.2137	-0.3358	-1.3028	0.2587	-0.5166	-1.9585	8.966	2.3376	-0.6613	-20.6331	-3.3089	6.1746	-1.2593	0.3025	0.6004
0.4934	1.2613	9.4688	-0.2308	-2.3752	0.175	0.2522	-0.3722	-0.3482	0.8169	1.1794	9.2657	1.9982	-0.3966	-1.3625	0.2741	-0.5569	-1.9211	8.9646	2.5095	-0.719	-20.3478	-4.3924	7.2785	-1.2238	0.2653	0.6231
0.6804	1.5502	10.2412	0.4722	-2.8937	0.2159	0.2522	-0.3482	-0.3542	0.4806	1.6391	9.7943	2.9254	-0.2577	-1.6364	0.2872	-0.4998	-1.9233	9.2463	1.8199	-0.9492	-21.1209	-4.9519	9.189	-1.1888	0.349	0.651
0.5536	1.7215	9.6484	1.6678	-3.25	0.0933	0.2462	-0.3602	-0.3422	0.4219	2.0399	9.7939	1.6347	-0.1435	-1.6675	0.2887	-0.5758	-1.9381	9.7029	2.3356	-0.8798	-22.1801	-6.0057	11.6151	-1.189	0.2826	0.6218
0.967	1.147	10.1277	3.3982	-3.4136	0.2028	0.2582	-0.3482	-0.3542	0.6484	1.81	9.5605	2.4049	-0.1557	-1.8826	0.2741	-0.5569	-1.9211	9.5961	2.0503	-0.533	-23.6966	-7.4891	13.7607	-1.2767	0.3026	0.6001
0.7334	0.9745	9.9454	3.465	-3.2631	0.2935	0.2522	-0.3422	-0.3422	0.9919	1.8089	9.4488	1.5141	-0.0185	-1.6964	0.2594	-0.5542	-1.9748	9.5967	2.3946	-0.4734	-24.6696	-7.7379	15.1292	-1.2768	0.3201	0.5983
0.7864	1.6639	9.7709	4.0382	-3.3195	-0.1783	0.2281	-0.3482	-0.3422	0.587	1.867	9.3812	0.6501	-0.0965	-1.5448	0.2595	-0.5381	-1.9042	9.5361	1.7629	-0.7103	-25.2735	-8.6387	17.5505	-1.2411	0.3317	0.6519
0.7802	1.3756	9.4156	3.8556	-3.159	-0.173	0.2342	-0.3542	-0.3482	0.9853	2.0945	9.1523	0.3431	-0.0304	-1.4207	0.288	-0.5382	-1.9218	9.4895	1.6501	-0.1866	-27.4999	-9.2886	19.9189	-1.2062	0.2983	0.6379
1.128	1.5477	9.541	3.2209	-2.3067	-0.1831	0.2342	-0.3302	-0.3362	0.7687	1.6957	9.8004	1.1143	0.0186	-1.6038	0.2743	-0.5746	-1.9561	8.9609	1.9351	-0.9545	-29.0026	-9.7143	19.2895	-1.2245	0.2867	0.5845
0.8367	1.3754	9.3576	2.4768	-2.0931	-0.4078	0.2522	-0.3602	-0.3302	0.5955	1.2954	9.7366	0.4285	-0.4002	-1.458	0.2877	-0.5359	-1.9754	8.5696	1.9945	-0.5538	-30.2934	-9.8728	21.53	-1.2762	0.3163	0.6349
0.666	1.4334	9.4726	1.9217	-1.8563	-0.515	0.2462	-0.3482	-0.3362	0.4158	1.6386	9.4366	0.9525	-0.3781	-1.5185	0.2312	-0.5726	-1.9743	8.6722	1.9922	-1.1351	-31.0989	-8.5771	21.8912	-1.2237	0.2984	0.6376
0.781	1.5482	9.4751	0.932	-1.6626	-0.6729	0.2522	-0.3422	-0.3542	0.8184	1.523	9.3853	1.7214	-0.4517	-1.7346	0.2737	-0.5539	-1.9926	8.0382	1.8772	-1.4982	-32.2202	-7.5604	22.9598	-1.2598	0.3395	0.5784
1.0648	0.8571	9.1836	0.3934	-1.5812	-1.2084	0.2582	-0.3362	-0.3602	0.653	1.8676	9.7983	1.5128	-0.17	-2.1624	0.288	-0.5382	-1.9218	9.1846	3.311	-1.0616	-32.188	-7.5514	20.2779	-1.2757	0.33	0.6697
0.6175	1.3197	9.944	-0.8084	-2.5161	-2.7709	0.2642	-0.3542	-0.3602	0.1373	1.5257	9.9058	1.8534	-0.0534	-2.067	0.2598	-0.5565	-1.9213	9.4726	0.0404	-1.1845	-15.0035	0.8681	-20.6376	-1.2949	0.3241	0.5613
0.1627	0.9762	10.2297	-2.4576	-3.1203	-2.8257	0.2402	-0.3602	-0.3422	0.6541	1.4098	9.7974	1.5821	0.198	-2.341	0.2455	-0.5561	-1.9214	8.4578	1.2492	-0.5004	-35.9971	-7.0673	16.7309	-1.2424	0.357	0.5768
1.18	1.5469	9.2466	-0.699	-3.3465	-2.7783	0.2522	-0.3542	-0.3482	0.303	1.5819	9.5529	1.5238	0.3529	-2.431	0.2744	-0.5754	-1.9382	9.0177	2.1071	-0.9527	-37.5373	-2.6786	32.9753	-1.2945	0.3046	0.5815
0.7899	1.6068	9.9481	-3.3346	-2.2878	-2.6471	0.2462	-0.3482	-0.3422	0.4766	1.8105	9.6164	1.8322	0.3485	-2.6158	0.2458	-0.5745	-1.9385	9.366	2.5667	-0.5941	-30.684	-4.5309	10.3477	-1.224	0.3511	0.6321
0.786	1.2613	9.7108	-1.788	-1.7723	-2.8953	0.2402	-0.3482	-0.3422	0.767	1.4093	9.6809	2.0775	0.2833	-2.7092	0.2876	-0.519	-1.9226	9.7135	0.6162	-0.4776	-42.0529	-5.1058	6.459	-1.2416	0.318	0.6172
0.8493	1.2619	10.0075	-2.9669	-1.6629	-3.1405	0.2402	-0.3542	-0.3362	0.5862	1.6952	9.3214	1.8636	0.3187	-2.956	0.2738	-0.5385	-1.9041	8.9763	1.5936	-0.1971	-37.7534	-8.6272	50.8071	-1.242	0.3882	0.6097
0.6734	1.6644	9.8869	-1.3411	-1.7934	-3.4859	0.2221	-0.3422	-0.3542	1.0509	1.7516	9.5093	1.8335	0.41	-2.6456	0.26	-0.5742	-1.9562	9.4398	2.1106	0.2224	-43.1797	-5.9254	30.8688	-1.2771	0.3221	0.5799
0.7819	1.0883	9.474	-1.3108	-2.318	-4.3133	0.2402	-0.3602	-0.3302	0.4147	2.0964	9.4375	1.3689	0.2644	-2.649	0.2729	-0.5163	-1.9763	9.2014	1.3631	-0.3684	-38.3065	-6.6063	18.8861	-1.2426	0.3921	0.5731
1.1312	1.6057	9.7184	-2.6074	-3.6764	-5.6928	0.2402	-0.3542	-0.3482	0.3724	1.6401	10.1485	0.434	-0.3038	-2.4755	0.2741	-0.5569	-1.9211	10.112	1.1318	-0.4677	-42.8855	-7.5995	33.3423	-1.2594	0.3708	0.6113
0.6651	1.3183	9.4132	-4.3959	-4.5776	-5.0139	0.2522	-0.3482	-0.3362	0.5326	1.524	9.4982	1.6065	-0.1399	-2.3778	0.2604	-0.5772	-1.8848	9.1371	1.5914	-0.7189	-45.4917	-11.381	41.2068	-1.2418	0.4038	0.6262
0.6721	1.1467	9.7674	-3.1749	-3.8329	-4.8868	0.2522	-0.3602	-0.3482	0.5939	1.9821	9.738	1.7272	-0.295	-2.5039	0.2742	-0.5738	-1.974	9.3218	1.651	-0.015	-46.027	-10.2819	35.7016	-1.277	0.406	0.6073
1.0691	1.6052	9.4809	-2.7112	-2.8149	-5.5023	0.2462	-0.3482	-0.3362	0.1795	2.0393	9.195	1.1615	-0.8394	-2.1749	0.2447	-0.5185	-1.905	8.686	1.9374	-0.435	-44.901	-11.0365	39.1708	-1.3126	0.41	0.57
0.9579	1.8359	9.7156	-2.6863	-1.9886	-5.1016	0.2342	-0.3422	-0.3362	0.9898	1.6942	9.3297	1.7155	-0.8788	-2.36	0.2603	-0.5765	-1.9026	9.1991	1.3627	-0.4851	-45.7849	-11.1314	40.5418	-1.2942	0.4041	0.6253
0.5551	1.4917	9.7069	-2.2401	-1.6085	-4.8357	0.2342	-0.3482	-0.3482	0.3704	1.4682	10.0293	1.9629	-0.8216	-2.3585	0.2736	-0.537	-1.9398	9.1473	1.6507	-0.1935	-46.6938	-11.5039	41.9669	-1.2945	0.4061	0.607
0.5529	2.0665	9.6492	-2.2858	-1.0551	-4.5873	0.2402	-0.3542	-0.3422	0.7067	1.5237	9.5611	1.9915	-0.8846	-2.0816	0.2748	-0.5945	-1.9375	9.4336	0.9619	-0.1903	-47.5832	-13.1975	41.9671	-1.3124	0.4256	0.5865
0.9625	1.1464	9.8913	-1.7054	-0.3435	-4.1398	0.2402	-0.3542	-0.3422	0.5438	1.2961	10.0325	1.4051	-0.9967	-2.2699	0.2307	-0.5365	-1.9223	10.2321	0.9032	-0.1745	-46.9706	-14.221	52.4032	-1.2945	0.4568	0.6197
1.1941	1.2037	9.955	-2.0951	-0.0509	-3.8846	0.2582	-0.3542	-0.3482	0.5917	1.4095	9.5585	1.9588	-1.0064	-2.2074	0.2884	-0.5574	-1.921	9.6077	1.1917	-0.0109	-48.4206	-14.1683	37.919	-1.2599	0.4585	0.602
0.7804	1.8932	9.476	-1.2188	0.2499	-3.6601	0.2462	-0.3422	-0.3362	0.4267	2.0404	10.0316	3.0039	-1.0856	-2.207	0.2742	-0.5577	-1.9033	9.3807	1.1922	0.0429	-47.064	-15.2738	44.671	-1.2953	0.4957	0.5793
1.0141	1.3756	9.5974	-1.7518	1.0992	-3.3372	0.2402	-0.3482	-0.3362	0.5903	1.9818	9.5597	2.478	-1.23	-2.2414	0.2469	-0.6144	-1.9012	9.6138	0.9633	0.28	-46.1995	-14.0825	47.338	-1.26	0.4761	0.6001
0.7825	1.3759	9.5338	-1.4439	1.1472	-3.4054	0.2281	-0.3302	-0.3362	0.5397	1.5247	9.8547	1.3929	-1.6712	-2.4364	0.2598	-0.5565	-1.9213	10.4056	0.846	-0.0545	-45.6335	-14.6895	53.1952	-1.2951	0.4606	0.5831
0.6656	1.6634	9.4732	-1.3057	0.1933	-3.4143	0.2582	-0.3482	-0.3422	0.5935	1.6386	9.6778	3.2082	-1.7025	-2.3412	0.2753	-0.5976	-1.866	9.8904	0.5596	-0.1826	-43.289	-12.5087	44.7978	-1.2421	0.5072	0.6333
0.7822	1.5484	9.5342	-2.3273	-0.3135	-3.1788	0.2462	-0.3602	-0.3542	0.8868	1.5239	9.9212	4.1302	-1.7796	-2.3409	0.2455	-0.5561	-1.9214	9.7809	0.618	0.0488	-41.1929	-10.2102	47.3485	-1.2945	0.4568	0.6197
0.442	1.5497	9.823	-3.1063	-0.6786	-3.1925	0.2221	-0.3722	-0.3422	0.5864	2.0959	9.3817	2.8652	-1.942	-2.4078	0.2747	-0.5938	-1.9553	10.0642	1.0762	-0.0022	-37.8705	-6.4391	51.1801	-1.2952	0.5289	0.5939
0.5574	1.4345	9.825	-3.0981	-0.7387	-2.8575	0.2402	-0.3422	-0.3602	0.9958	2.1527	9.6872	2.8657	-1.8814	-2.2214	0.2167	-0.5545	-1.9395	10.2885	0.5588	-0.2329	-34.0091	-1.3314	51.3411	-1.313	0.5309	0.5753
0.8389	1.4331	9.476	-2.9895	-0.1918	-2.6129	0.2342	-0.3602	-0.3362	0.5371	2.0968	9.7964	3.9249	-1.1939	-2.0838	0.2739	-0.5554	-1.9569	10.1753	0.7312	-0.1762	-31.9064	1.0769	48.7485	-1.3474	0.5448	0.6095
0.7225	1.4332	9.4146	-3.3072	0.557	-2.2653	0.2462	-0.3482	-0.3422	0.8706	1.8086	9.1493	1.7169	-0.6671	-1.6149	0.2594	-0.5373	-1.922	9.558	0.9062	0.337	-29.6135	2.7407	47.3326	-1.2956	0.5484	0.5737
1.1285	1.2603	9.5403	-2.4386	0.7958	-2.2851	0.2402	-0.3602	-0.3662	0.765	1.7526	9.6222	-0.6119	-0.1354	-1.7948	0.2737	-0.5377	-1.9219	10.1189	0.3298	-0.1788	-24.7434	5.6122	51.5391	-1.2954	0.5133	0.5775
0.7911	1.5495	10.0071	-1.8819	0.8032	-2.2681	0.2281	-0.3482	-0.3422	0.301	1.4099	9.4338	-3.0671	0.3046	-1.575	0.2612	-0.6148	-1.9011	10.4162	0.6184	0.4698	-22.9871	7.9288	58.072	-1.296	0.5679	0.5535
0.9578	1.8934	9.7157	-2.1942	0.4497	-2.171	0.2342	-0.3542	-0.3362	0.5315	1.9818	9.4991	-3.4233	1.0765	-1.1604	0.2163	-0.5353	-1.9402	9.6346	0.1063	1.269	-24.4356	3.6025	53.0163	-1.2954	0.564	0.5902
1.1842	1.72	9.4834	-2.389	0.7661	-1.5848	0.2522	-0.3362	-0.3722	1.1098	1.6944	9.5698	-5.4129	1.7533	-0.7503	0.2887	-0.5589	-1.8853	9.8057	0.7946	1.3332	-23.3745	-2.2598	44.4458	-1.2778	0.5971	0.6051
0.7778	1.4903	9.2977	-2.3157	1.4969	-1.6129	0.2462	-0.3662	-0.3422	0.6535	1.6387	9.7979	-6.0179	2.2863	-0.9271	0.2035	-0.6108	-1.9551	9.3994	0.2202	0.9147	-26.2331	-8.4171	53.0174	-1.2957	0.6167	0.5846
1.0695	1.3752	9.4803	-1.3226	2.1883	-1.8771	0.2281	-0.3302	-0.3542	1.0456	1.9801	9.2721	-6.5388	2.3279	-1.3906	0.2745	-0.5761	-1.9204	8.5933	0.7364	0.5504	-12.3234	-1.3208	41.1701	-1.3129	0.6148	0.6026
0.7249	1.3185	9.5326	-2.2091	2.3182	-1.6108	0.2402	-0.3482	-0.3422	0.7073	2.2679	9.6815	-8.0164	2.3827	-1.1451	0.2454	-0.5722	-1.992	8.9275	0.7345	0.1488	-13.9582	-0.7296	40.7882	-1.2778	0.6478	0.6178
0.7741	1.6624	9.1208	-1.5539	2.4749	-1.4733	0.2462	-0.3362	-0.3422	0.4771	1.5816	9.6159	-9.3146	2.1281	-1.0592	0.3036	-0.5962	-1.9194	8.9881	0.6203	0.3246	-10.4178	-0.5587	42.3248	-1.2438	0.6027	0.5507
0.5535	1.1465	9.5879	-2.6254	2.277	-0.9908	0.2402	-0.3542	-0.3542	0.4782	1.6389	9.6755	-9.7891	1.5209	-0.762	0.26	-0.5742	-1.9562	9.7234	0.1589	-0.0124	-9.0789	-0.4031	40.8849	-1.2785	0.6185	0.5666
0.7848	1.3187	9.6519	-3.4476	1.9165	-0.3322	0.2221	-0.3542	-0.3302	0.4203	1.7535	9.6745	-5.9431	1.454	-0.4477	0.2456	-0.5568	-1.9035	9.8421	0.1022	0.2231	-7.2927	0.3421	38.0044	-1.2788	0.6204	0.5482
0.6712	1.6641	9.7687	-3.632	2.9967	0.1666	0.2462	-0.3662	-0.3482	0.7719	1.3525	9.9185	-5.7902	1.4202	-0.3245	0.2737	-0.5377	-1.9219	10.5277	0.044	0.295	-4.8511	1.0479	37.1437	-1.2609	0.634	0.5833
0.674	1.3194	9.8861	-3.8937	3.1626	0.662	0.2522	-0.3542	-0.3542	0.4203	1.7535	9.6745	-6.3799	1.1543	-0.4229	0.2313	-0.5564	-1.9036	10.1807	0.2158	0.0553	-2.6368	1.5412	35.5109	-1.2961	0.6869	0.5771
0.7873	1.204	9.7698	-4.2769	3.3948	1.1913	0.2522	-0.3542	-0.3362	0.4199	1.41	9.6144	-4.6901	1.0321	-0.1133	0.2446	-0.5177	-1.9229	10.0204	-0.1262	0.5759	-0.3818	1.6636	34.0825	-1.295	0.646	0.6358
1.075	1.4334	9.776	-4.3813	3.5851	1.7745	0.2462	-0.3422	-0.3422	0.4733	1.6957	9.4379	-3.5278	0.7037	0.2535	0.2461	-0.5929	-1.9556	10.1907	0.3898	0.5812	1.9489	1.4761	33.106	-1.2603	0.6477	0.6181
0.6704	1.4915	9.7092	-5.0073	3.1829	1.7264	0.2342	-0.3542	-0.3542	0.4205	1.6391	9.6743	-2.7331	0.5036	0.8072	0.2448	-0.5354	-1.9579	10.0217	-0.1834	0.634	4.0015	0.7976	31.6279	-1.2787	0.6536	0.5628
1.1319	1.2032	9.7174	-5.591	2.5671	2.2252	0.2281	-0.3422	-0.3422	0.5344	1.7531	9.6175	-1.297	-0.0133	1.0785	0.245	-0.5369	-1.9221	9.7862	-0.586	0.2195	6.2009	0.6426	30.2543	-1.2963	0.6712	0.5607
1.0742	1.2608	9.7165	-4.9634	2.5729	2.576	0.2342	-0.3542	-0.3482	0.3084	1.2962	9.79	0.3039	0.0503	1.3913	0.2455	-0.5561	-1.9214	10.0805	-0.5848	0.692	7.2407	0.3059	28.7446	-1.2611	0.7198	0.5923
0.9534	1.2028	9.4186	-5.1662	3.0105	2.797	0.2522	-0.3542	-0.3242	0.8856	1.5238	9.8618	2.0921	0.2039	1.428	0.2448	-0.5354	-1.9579	9.5604	-0.6426	0.3314	8.8717	0.2167	26.552	-1.2786	0.6868	0.5774
0.7284	1.2614	9.7097	-5.4501	2.6553	2.8019	0.2522	-0.3482	-0.3482	0.7084	1.8101	9.6806	2.2437	0.0785	1.426	0.2598	-0.5565	-1.9213	10.0727	-0.701	0.2831	9.9662	0.3423	25.0852	-1.2784	0.6517	0.5812
0.6717	1.3766	9.768	-5.9349	2.7075	3.119	0.2462	-0.3362	-0.3602	0.5853	1.5806	9.2618	3.1365	0.1238	1.6446	0.245	-0.5369	-1.9221	10.0782	-0.5852	0.5753	10.7308	0.1909	23.6787	-1.2961	0.6869	0.5771
0.7857	1.4338	9.7113	-5.6618	2.5733	3.0201	0.2221	-0.3602	-0.3482	0.939	1.8095	9.6853	4.8668	0.4328	1.4678	0.2452	-0.5546	-1.9571	9.9014	-0.586	0.2801	11.3105	0.1634	22.2793	-1.3144	0.7259	0.5365
0.7865	1.0313	9.7103	-5.069	2.8851	3.038	0.2522	-0.3422	-0.3422	0.3035	1.8681	9.6129	2.9904	0.5557	1.7447	0.2739	-0.5554	-1.9569	10.0713	-0.5865	0.2252	11.7166	-0.0805	21.1547	-1.2609	0.6847	0.596
0.96	1.3186	9.7735	-4.7969	2.4458	3.0899	0.2462	-0.3302	-0.3422	0.6411	1.8665	9.2041	1.231	0.4292	2.4188	0.2735	-0.5362	-1.9576	10.4058	-0.7606	-0.1771	11.7935	0.8489	19.7619	-1.2774	0.679	0.6507
0.7919	1.147	10.0061	-4.8164	3.1194	3.0942	0.2462	-0.3482	-0.3542	0.7033	1.4661	9.3828	0.332	0.1067	2.4424	0.2872	-0.5167	-1.9761	10.0726	-0.6436	0.2833	11.8366	0.9485	17.6372	-1.2614	0.7218	0.574
1.1851	1.2025	9.4822	-5.846	3.1303	2.7227	0.2281	-0.3542	-0.3662	0.5345	1.6959	9.6173	2.5123	-0.146	2.5961	0.2454	-0.5553	-1.9392	9.8357	-0.9318	-0.1891	11.2634	0.7784	13.6678	-1.2434	0.6846	0.5963
1.1858	1.4327	9.5418	-6.2832	2.9343	2.6712	0.2462	-0.3482	-0.3542	0.5902	1.5238	9.4993	2.7108	-1.0097	2.7355	0.2739	-0.5554	-1.9569	10.2482	-1.3317	0.4593	10.8866	1.1286	10.6647	-1.2958	0.6849	0.5955
0.7806	1.1456	9.415	-6.2487	2.9029	2.8227	0.2462	-0.3302	-0.3422	0.646	1.8097	9.4417	2.4555	-1.5263	2.5096	0.3019	-0.5194	-1.9225	10.5294	-0.9885	0.2912	10.0089	0.5239	7.7984	-1.3137	0.7045	0.575
1.0702	0.9728	9.4794	-5.5223	2.6309	3.5662	0.2462	-0.3362	-0.3482	0.7045	1.4662	9.4422	1.8081	-1.6067	2.3526	0.2742	-0.5577	-1.9033	10.3056	-1.5612	0.4597	10.0124	0.5588	6.5972	-1.2963	0.722	0.5734
0.4406	1.0895	9.7037	-5.1935	2.4325	3.2825	0.2582	-0.3422	-0.3482	0.9896	1.7514	9.3299	1.1035	-1.4709	2.1068	0.2738	-0.5547	-1.9747	10.42	-1.0449	0.5222	9.7147	0.6553	5.6195	-1.3308	0.7027	0.593
0.7779	1.4328	9.2975	-5.8692	3.0409	3.0583	0.2342	-0.3482	-0.3482	0.5241	1.5804	9.0823	-1.4854	-1.6715	1.8825	0.2584	-0.4982	-1.9414	10.1362	-1.2163	0.5742	10.1177	1.7653	5.3041	-1.2777	0.681	0.6324
0.6174	1.3772	9.9442	-5.995	2.5577	3.2722	0.2402	-0.3362	-0.3602	0.8786	1.4659	9.5052	-2.4331	-1.3777	1.5772	0.2167	-0.5545	-1.9395	10.4241	-0.7572	0.7566	10.3084	2.2912	4.6371	-1.2618	0.6905	0.5411
0.6664	1.836	9.5327	-5.6949	3.1281	3.7258	0.2402	-0.3362	-0.3362	0.8835	1.4091	9.7427	-2.874	-1.8924	1.629	0.2594	-0.5373	-1.922	10.1961	-0.8716	0.7516	11.4437	2.5996	3.7602	-1.3309	0.7202	0.5912
0.7281	1.4339	9.7101	-5.4434	3.1488	3.8723	0.2402	-0.3422	-0.3542	0.7085	1.7528	9.6804	-2.2677	-2.3637	1.7452	0.275	-0.5953	-1.9196	9.5915	-0.7517	1.9066	12.604	2.1706	2.1219	-1.3134	0.6519	0.5806
1.1298	1.1454	9.5991	-4.947	3.1895	3.9215	0.2342	-0.3362	-0.3602	0.5356	1.7532	9.6769	-1.6489	-2.1902	1.7803	0.2733	-0.5186	-1.9227	9.923	-0.5247	1.3891	14.1582	2.3822	2.1893	-1.2955	0.683	0.6138
1.068	1.6051	9.4218	-5.0983	3.4708	3.8658	0.2281	-0.3482	-0.3482	0.2966	2.2682	9.3167	-1.8633	-2.0954	1.9978	0.2455	-0.5561	-1.9214	9.6931	-0.8689	1.2666	16.585	2.5274	3.0388	-1.2439	0.671	0.5616
0.7975	0.5151	10.241	-4.0952	2.6897	2.6166	0.2402	-0.3482	-0.3542	0.3644	1.9828	9.7926	-3.5696	-2.8927	1.3938	0.2594	-0.5542	-1.9748	9.8662	-0.6393	1.3875	17.5123	3.7321	1.6676	-1.296	0.6693	0.579
0.7811	1.4907	9.475	0.3602	2.2563	1.9871	0.2342	-0.3362	-0.3662	0.6551	1.4672	9.8569	-2.9953	-3.305	2.1904	0.2457	-0.5737	-1.9563	9.6933	-0.2377	1.3272	20.8598	5.3905	1.0623	-1.2959	0.7532	0.6063
0.3145	1.4909	9.1705	-2.6802	3.7983	3.9614	0.2462	-0.3302	-0.3482	0.991	1.6943	9.3892	-0.6024	-3.7748	2.0009	0.2606	-0.5949	-1.9197	9.9067	-1.0441	0.5119	24.9157	6.4477	4.4946	-1.2785	0.7199	0.592
0.2146	1.6655	9.9961	-3.0269	4.3655	4.4917	0.2402	-0.3422	-0.3542	0.9981	1.695	9.7457	3	-3.804	1.6669	0.2742	-0.5577	-1.9033	9.9557	-1.0456	0.1045	25.73	7.1713	8.7218	-1.2613	0.7042	0.5759
0.6665	1.7785	9.5325	-2.8492	4.8497	5.0393	0.2522	-0.3362	-0.3422	0.5296	1.7527	9.3798	2.352	-3.855	1.8193	0.2602	-0.5757	-1.9205	10.1836	-0.8739	0.1097	25.1843	7.3967	6.2733	-1.2785	0.7199	0.592
0.9592	1.7211	9.7744	-5.0726	6.1064	5.4362	0.2522	-0.3362	-0.3422	0.6506	1.8674	9.6795	1.2993	-4.1748	1.8118	0.2746	-0.5769	-1.9025	9.6769	-0.6998	0.4502	24.4571	7.8778	1.308	-1.2252	0.6631	0.6351
0.9631	0.8015	9.8904	-5.5973	6.4639	5.2374	0.2462	-0.3362	-0.3602	0.5246	1.8667	9.1423	-0.8339	-4.6002	2.0784	0.2445	-0.5169	-1.9408	9.6745	-0.6428	0.3337	23.456	7.8487	1.543	-1.2608	0.7355	0.6088
0.7882	0.6865	9.7686	-3.6511	5.89	4.4546	0.2582	-0.3362	-0.3542	0.8216	1.6951	9.5639	-2.7741	-4.5388	2.6321	0.2461	-0.5929	-1.9556	9.8391	-0.8738	-0.0138	19.3029	7.1477	2.2533	-1.3146	0.761	0.5327
0.5041	0.9176	9.9999	-0.5989	4.9335	3.6732	0.2402	-0.3362	-0.3482	0.6891	1.9227	8.7301	-2.0245	-4.0584	2.1787	0.2454	-0.5553	-1.9392	9.6059	-1.276	-0.3116	15.9134	6.946	0.5891	-1.2956	0.7006	0.6119
0.6182	0.9747	9.9432	0.6284	4.5761	3.5803	0.2402	-0.3422	-0.3602	0.5922	1.6958	9.6185	-2.2252	-3.2573	2.3162	0.202	-0.5349	-1.9403	10.4032	-1.2775	-0.354	12.1655	6.129	-1.1471	-1.2956	0.7006	0.6119
0.5572	0.9744	9.7648	0.75	4.4182	3.6069	0.2582	-0.3362	-0.3422	0.817	1.6374	9.3261	-2.3933	-2.3645	2.4245	0.2306	-0.5357	-1.9401	9.8895	-1.0472	-0.3635	9.14	6.142	-2.7508	-1.2618	0.6905	0.5411
0.4919	1.4911	9.4103	-0.0019	3.6806	2.5533	0.2702	-0.3302	-0.3422	0.6544	1.7533	9.8575	-3.2394	-1.5513	2.314	0.2449	-0.5361	-1.94	10.1071	-0.8774	-0.8835	6.5309	5.9403	-4.9855	-1.3318	0.7085	0.538
0.4963	1.4917	9.6467	-0.4903	2.1978	1.4279	0.2522	-0.3422	-0.3602	0.5861	1.7524	9.3216	-2.8213	-0.6368	2.1766	0.2157	-0.5153	-1.9589	9.9972	-0.6469	-0.6515	4.4538	6.4734	-6.1002	-1.2796	0.6926	0.5225
0.6204	0.975	10.0614	-0.134	1.1694	0.4066	0.2462	-0.3542	-0.3542	0.9272	2.2663	9.1515	-3.4438	0.5423	1.7641	0.2035	-0.5939	-1.9023	9.7219	-1.1037	-0.192	2.5027	6.7856	-5.8056	-1.279	0.7062	0.5572
0.7252	1.146	9.5321	0.7311	-0.6147	-0.7535	0.2522	-0.3362	-0.3482	1.1052	1.6367	9.332	-2.925	1.8251	1.2629	0.2586	-0.4997	-1.9057	9.4925	-0.9888	-0.2545	0.5276	6.0205	-5.973	-1.278	0.6829	0.6141
0.4497	0.9756	10.1763	1.9814	-1.2841	-2.069	0.2462	-0.3422	-0.3482	0.5887	2.1534	9.5006	-2.9005	3.0843	1.1001	0.2457	-0.5576	-1.8857	9.155	-1.1022	-0.0284	-1.615	5.627	-6.5579	-1.2959	0.7025	0.5936
0.3789	1.4341	9.5261	2.8694	-2.0591	-3.0102	0.2462	-0.3422	-0.3482	0.643	1.5805	9.263	-3.5961	3.7108	0.9556	0.2586	-0.5159	-1.9764	9.5439	-1.0473	-0.5454	-3.7773	5.232	-6.6492	-1.2617	0.7237	0.5557
0.5542	1.3766	9.6475	3.9402	-2.9336	-3.9869	0.2342	-0.3362	-0.3482	0.7103	1.982	9.7998	-4.698	3.9767	0.5878	0.2166	-0.5537	-1.9573	9.3305	-0.9869	0.2089	-6.099	4.9307	-6.9813	-1.2443	0.6904	0.5414
0.501	1.3772	9.8828	5.0358	-3.9626	-5.0872	0.2402	-0.3302	-0.3422	0.5924	1.5813	9.6183	-5.2843	3.8649	0.3686	0.2595	-0.5381	-1.9042	9.5464	-0.473	-0.3682	-8.758	5.2149	-6.9817	-1.296	0.6693	0.579
0.556	0.9743	9.7057	6.2224	-4.8431	-6.3413	0.2402	-0.3602	-0.3542	0.7096	1.295	9.6795	-2.1392	4.0585	0.0069	0.2167	-0.5545	-1.9395	9.7784	-0.7596	-0.1896	-10.6742	6.2337	-5.9895	-1.2614	0.671	0.5613
0.6721	1.1467	9.7674	6.8696	-5.6987	-7.0026	0.2582	-0.3362	-0.3482	0.5328	1.9247	9.5584	-3.2151	4.1682	0.1614	0.2445	-0.5169	-1.9408	9.327	-0.9301	0.034	-13.0063	6.5799	-6.3338	-1.2609	0.6847	0.596
0.9617	0.9738	9.8317	7.3583	-6.0601	-8.1147	0.2402	-0.3482	-0.3602	0.8785	1.9811	9.5656	-3.5217	4.2649	0.317	0.2598	-0.5565	-1.9213	9.8341	-0.6452	-0.2464	-15.5728	7.2942	-5.9846	-1.2783	0.6848	0.5958
0.503	0.9174	9.9408	8.5525	-6.0505	-8.5098	0.2702	-0.3482	-0.3362	1.0476	1.6368	9.3308	-2.9341	4.4383	0.5065	0.2584	-0.4982	-1.9414	9.6019	-0.9325	-0.4855	-17.8326	7.6646	-4.4184	-1.2263	0.704	0.5764
0.783	0.4559	9.4725	9.0078	-6.0706	-8.7955	0.2582	-0.3482	-0.3422	0.6994	1.5802	9.2047	-1.318	5.1798	0.1828	0.2315	-0.5741	-1.9386	9.3758	-1.5055	-0.4338	-20.6797	8.1913	-3.0826	-1.2444	0.6573	0.5268
0.7908	1.0894	9.9469	9.1797	-6.0188	-9.3179	0.2402	-0.3302	-0.3422	0.359	2.2685	9.5555	-1.03	5.6681	-0.2713	0.2736	-0.537	-1.9398	9.4172	-0.992	-1.1894	-23.0447	8.3795	-2.2593	-1.2795	0.675	0.5243
0.7913	1.4345	10.0068	11.2204	-6.3828	-10.1628	0.2402	-0.3422	-0.3542	0.6518	1.3524	9.6784	-0.6191	6.3342	0.2663	0.288	-0.5382	-1.9218	9.5406	-1.1053	-0.7207	-24.8884	8.3814	-1.4518	-1.2619	0.7081	0.5392
1.0732	1.2032	9.6572	12.6495	-6.5984	-10.8699	0.2462	-0.3362	-0.3422	1.1077	1.1217	9.3904	-0.5749	7.0095	0.124	0.2602	-0.5757	-1.9205	9.5439	-1.0473	-0.5454	-26.338	7.6753	-1.258	-1.2789	0.6887	0.5591
0.7267	0.9737	9.5908	12.694	-6.4808	-11.5719	0.2462	-0.3482	-0.3422	0.539	1.8108	9.8553	-1.0976	6.899	-0.651	0.2876	-0.519	-1.9226	9.1484	-0.5296	-0.3181	-27.7858	7.0305	-0.9392	-1.2789	0.7394	0.5718
1.0754	1.2034	9.7754	12.9631	-6.5544	-11.8534	0.2462	-0.3542	-0.3542	0.4744	1.2378	9.437	-0.0002	6.2076	-1.31	0.2587	-0.5166	-1.9585	9.4812	-0.3597	-0.7774	-28.4231	6.0427	-0.0916	-1.2794	0.7257	0.5371
0.953	1.4328	9.4191	12.595	-6.02	-12.0854	0.2342	-0.3542	-0.3362	0.7173	1.0668	10.0356	0.3677	4.5127	-1.3087	0.2588	-0.5174	-1.9407	9.5489	-0.5874	-0.2519	-29.1641	5.0877	0.235	-1.2792	0.7413	0.5535
1.2996	1.6048	9.4854	11.8674	-5.3775	-11.9725	0.2281	-0.3422	-0.3542	0.8893	1.467	10.04	5.3935	3.2618	-1.6311	0.2448	-0.5354	-1.9579	9.6026	-0.6454	-0.4261	-30.2294	4.5671	-0.0051	-1.2963	0.6712	0.5607
0.9061	1.7218	10.0097	12.1711	-3.8563	-10.8424	0.2462	-0.3482	-0.3362	0.5381	1.1811	9.7351	3.7853	1.4427	-0.6163	0.2598	-0.5565	-1.9213	9.6623	-0.186	-0.2482	-30.0411	4.166	-0.0512	-1.2617	0.7237	0.5557
0.7853	1.6638	9.7118	9.2263	-2.4399	-8.6884	0.2462	-0.3422	-0.3422	0.7755	1.3529	10.0968	3.6861	-0.3408	0.4018	0.3017	-0.5179	-1.9582	10.0029	-0.5885	-0.3595	-30.4224	3.5495	0.2163	-1.2616	0.7061	0.5575
0.7235	1.4908	9.4739	7.7034	-0.625	-6.7496	0.2342	-0.3482	-0.3482	0.3555	1.753	9.3168	6.5476	-1.9869	0.5936	0.2451	-0.5538	-1.9749	9.7786	-0.8743	-0.19	-30.3919	3.5494	0.2157	-1.3142	0.7415	0.5529
0.7832	1.606	9.5935	5.5737	0.5411	-5.1354	0.2342	-0.3542	-0.3482	0.5981	1.6963	9.9156	6.4161	-3.9518	1.0834	0.2313	-0.5564	-1.9036	9.9998	-0.8186	-0.5354	-29.8344	3.5775	0.606	-1.2965	0.7063	0.557
0.4966	1.9518	9.7069	4.4023	2.0685	-2.5966	0.2462	-0.3542	-0.3482	0.7046	1.409	9.4421	12.0883	-5.1229	1.0724	0.2452	-0.5546	-1.9571	9.8929	-1.0466	-0.1884	-29.2441	2.5855	1.7681	-1.2443	0.7412	0.5541
0.4973	1.6068	9.7061	2.3213	2.956	-1.2902	0.2342	-0.3722	-0.3482	0.933	1.8089	9.3882	13.1792	-6.1517	0.3765	0.2742	-0.5577	-1.9033	10.4623	-1.1624	-0.2357	-28.1083	1.8742	1.571	-1.2445	0.7255	0.5376
0.9488	1.8923	9.2429	1.5094	3.791	0.1376	0.2402	-0.3482	-0.3362	0.6588	1.4103	10.0351	14.3807	-6.2304	-0.3641	0.2595	-0.5381	-1.9042	10.1185	-0.8753	-0.2999	-26.3135	0.6971	1.8714	-1.2977	0.7648	0.4964
0.9582	1.6635	9.7152	0.3055	4.3951	0.9331	0.2462	-0.3542	-0.3602	0.5836	1.8094	9.2028	15.5024	-5.6327	-1.0001	0.2596	-0.555	-1.957	10.2413	-0.587	0.1703	-24.0158	-0.9756	2.4867	-1.2959	0.7532	0.6063
1.0696	1.3177	9.4802	-0.4618	4.5194	1.0439	0.2522	-0.3482	-0.3362	0.9788	2.3228	8.8557	11.9485	-4.6837	-0.5569	0.2463	-0.5945	-1.9198	9.7841	-0.7012	0.1024	-21.4882	-2.4314	2.6103	-1.2966	0.7746	0.5678
0.4355	1.3764	9.468	-1.4894	4.1034	1.0055	0.2462	-0.3482	-0.3302	0.6479	1.9816	9.5609	6.2623	-4.3392	-1.024	0.2028	-0.5732	-1.9388	9.7208	-0.358	-0.1893	-18.3593	-3.8567	2.353	-1.2791	0.7238	0.5554
0.4397	1.5494	9.7048	-3.1241	3.7143	1.3481	0.2522	-0.3542	-0.3422	0.3561	1.982	9.3767	6.3385	-3.5428	-0.8861	0.2739	-0.5554	-1.9569	10.1311	-0.873	0.342	-15.2092	-4.8807	1.9525	-1.2616	0.7061	0.5575
0.832	1.4898	9.1215	-3.1997	3.0443	1.2546	0.2402	-0.3482	-0.3542	0.8704	1.9231	9.1496	5.4947	-2.577	-0.8085	0.2758	-0.6337	-1.9181	9.489	-0.1861	-0.3683	-12.2735	-5.3504	1.9113	-1.2619	0.7588	0.5519
0.5042	1.4926	10.0604	-3.3176	2.928	1.5313	0.2342	-0.3482	-0.3422	0.6429	2.0956	9.3234	1.8156	-1.718	-0.3672	0.2739	-0.5554	-1.9569	9.8353	-0.645	-0.1881	-9.3963	-5.6666	2.0913	-1.2444	0.7587	0.5522
1.0657	1.6048	9.3036	-3.6509	3.553	1.3905	0.2582	-0.3422	-0.3362	0.5944	1.7532	9.7375	0.2526	-1.3236	-0.2085	0.2168	-0.5552	-1.9216	9.7845	-0.2421	0.1624	-7.0594	-4.9323	2.0348	-1.2963	0.722	0.5734
1.0068	1.0872	9.183	-4.4624	3.4331	1.1655	0.2402	-0.3422	-0.3362	0.7113	1.5814	9.7989	1.8921	-0.8913	-0.1362	0.2461	-0.5929	-1.9556	9.8336	-0.301	-0.2452	-4.8994	-4.1986	2.2591	-1.314	0.7572	0.5694
1.2967	1.3744	9.3075	-4.8091	3.2634	1.0204	0.2462	-0.3422	-0.3422	0.9386	1.9812	9.6857	2.4511	-0.6847	-0.4095	0.2744	-0.5754	-1.9382	9.6069	-0.4725	-0.192	-3.3961	-2.9686	2.1101	-1.2621	0.7432	0.5355
0.7281	1.4339	9.7101	-5.0294	2.967	1.0546	0.2342	-0.3542	-0.3422	0.5255	1.9812	9.202	1.9975	-0.2774	-0.5265	0.2603	-0.5765	-1.9026	9.7196	-0.3582	-0.2477	-2.4274	-2.2009	2.2976	-1.2789	0.7394	0.5718
0.6059	1.5483	9.3535	-5.4289	3.0754	1.0649	0.2522	-0.3422	-0.3542	0.7054	1.5808	9.5018	2.1809	-0.342	-0.4965	0.2334	-0.6685	-1.9705	9.4959	-0.2422	-0.0184	-1.8725	-1.6803	2.9178	-1.2443	0.7412	0.5541
0.7229	1.8358	9.4747	-5.392	3.1358	1.2474	0.2402	-0.3362	-0.3542	0.9365	1.8665	9.5666	2.308	-0.1593	-0.6474	0.2603	-0.5765	-1.9026	9.491	-0.7596	-0.3121	-1.891	-1.436	3.6341	-1.2961	0.7376	0.5899
0.897	1.1456	9.4764	-5.544	3.0815	1.3728	0.2522	-0.3422	-0.3422	0.8802	2.2675	9.6851	4.1035	0.3328	-0.8208	0.2323	-0.6125	-1.937	9.6123	-0.2994	0.1004	-1.6243	-1.4094	4.6776	-1.2435	0.7529	0.6072
0.5517	1.4913	9.5296	-5.7954	2.7253	1.4379	0.2462	-0.3422	-0.3422	0.5916	2.4399	9.6795	1.8567	0.4007	-0.5764	0.2744	-0.5754	-1.9382	9.0881	-0.5875	-0.4945	-1.629	-2.09	5.3672	-1.2792	0.7413	0.5535
0.4935	1.2038	9.4687	-5.9866	2.2748	1.501	0.2402	-0.3542	-0.3422	0.4775	1.9251	9.676	0.8181	0.8777	-0.2918	0.232	-0.594	-1.9199	9.4888	-0.8173	-0.429	-1.7251	-2.9242	5.9618	-1.2612	0.7374	0.5905
0.7237	1.3758	9.4736	-5.8915	1.8746	1.8319	0.2642	-0.3422	-0.3422	0.3055	1.5249	9.6717	0.7047	1.4013	-0.2209	0.2469	-0.6144	-1.9012	9.607	-0.5299	-0.1922	-1.8256	-3.5424	6.501	-1.2802	0.7471	0.4985
0.7875	1.7215	9.8302	-6.1163	1.5166	1.7438	0.2402	-0.3482	-0.3482	0.9399	1.9241	9.745	0.0613	1.5957	-0.0332	0.2177	-0.5936	-1.9201	9.544	-0.3587	-0.4845	-1.7564	-3.8206	6.6766	-1.28	0.712	0.5023
0.7854	1.6063	9.7117	-5.8234	1.0749	1.4291	0.2582	-0.3422	-0.3362	0.1899	1.6396	9.6695	-0.0864	1.9956	0.3752	0.2324	-0.6132	-1.9192	9.6007	-0.9327	-0.5438	-1.6158	-3.9776	7.4091	-1.2963	0.722	0.5734
0.7222	0.9731	9.3544	-4.8493	0.544	1.2193	0.2342	-0.3422	-0.3362	0.3029	1.6391	9.5531	-1.255	2.1365	0.7772	0.2307	-0.5365	-1.9223	9.4355	-0.9887	-0.2557	-1.1164	-3.8268	8.0199	-1.2271	0.743	0.5361
0.8993	1.1458	9.5946	-3.4207	0.0539	0.6631	0.2582	-0.3482	-0.3542	0.702	1.9812	9.3838	-1.0614	2.7441	1.5296	0.2611	-0.6141	-1.919	9.3202	-0.2428	-0.2553	-0.6747	-3.4918	8.9145	-1.2788	0.7219	0.5737
0.7311	1.6643	9.888	-2.106	-0.2165	0.3245	0.2522	-0.3482	-0.3422	0.7631	2.0386	9.5634	-1.3073	2.8086	1.7774	0.2178	-0.5944	-1.9022	9.2606	-0.071	-0.3725	-0.6099	-2.6928	9.6449	-1.2968	0.759	0.5514
0.2075	1.2621	9.5814	-0.578	-0.5573	-0.0807	0.2342	-0.3482	-0.3482	0.7072	1.8099	9.6211	-0.7417	3.443	1.9441	0.2467	-0.6136	-1.9191	9.2618	-0.8168	-0.3752	-0.241	-1.9252	10.3068	-1.2788	0.7219	0.5737
0.6727	1.4343	9.8272	0.3089	-0.5651	-0.4073	0.2402	-0.3482	-0.3542	0.4748	2.0393	9.5574	-2.0929	3.5595	1.635	0.261	-0.5972	-1.8661	9.7223	-0.5872	-0.1318	-0.3465	-1.4353	11.4017	-1.2959	0.7532	0.6063
0.3817	1.1469	9.6436	0.6074	-0.1825	-1.0225	0.2462	-0.3422	-0.3422	0.1786	1.9247	9.1353	-1.7827	3.5871	1.111	0.2607	-0.5956	-1.9019	8.9707	-0.6453	-0.6721	-0.4118	-1.5007	12.5415	-1.2609	0.753	0.6069
0.2141	1.3204	9.9362	1.945	-0.5771	-1.5759	0.2462	-0.3542	-0.3362	1.056	2.0956	9.8071	-2.1485	3.7776	1.1137	0.2466	-0.6129	-1.9369	9.3782	-0.8739	-0.2564	-1.1074	-1.3461	12.9297	-1.2622	0.8115	0.5463
0.7184	1.2027	9.1776	3.4286	-1.0706	-2.3775	0.2402	-0.3362	-0.3362	0.8825	1.8098	9.7435	-2.0783	4.1767	0.843	0.2019	-0.5341	-1.9582	9.1472	-1.2183	-0.4373	-2.1144	-1.1282	13.0794	-1.2613	0.7549	0.5886
0.79	1.5493	9.948	3.1663	-1.5805	-2.6181	0.2462	-0.3362	-0.3422	0.7039	1.6951	9.4427	-2.8742	4.4054	0.7839	0.2607	-0.5956	-1.9019	9.6667	-0.759	-0.0752	-2.6509	-0.729	13.9337	-1.2787	0.755	0.5883
0.6091	1.6637	9.5311	3.1932	-1.7653	-2.6503	0.2462	-0.3542	-0.3482	0.6465	2.096	9.5017	-3.7645	4.5731	1.0016	0.2313	-0.5733	-1.9564	9.4375	-0.8162	-0.1383	-4.036	-1.1021	15.8925	-1.2965	0.7571	0.5697
0.5545	1.2041	9.6471	4.4793	-1.8511	-3.0176	0.2342	-0.3542	-0.3662	0.6502	1.5239	9.6194	-4.2821	4.7687	0.4174	0.2606	-0.5949	-1.9197	8.9876	-1.2734	0.1426	-4.3772	-0.762	15.8782	-1.3137	0.7552	0.5877
0.7289	0.9739	9.709	5.9167	-2.2183	-3.3293	0.2462	-0.3542	-0.3542	0.7559	1.58	9.1465	-4.8018	4.9617	0.4199	0.2454	-0.5553	-1.9392	9.2078	-0.5866	-0.2004	-5.5069	0.7266	14.1248	-1.2796	0.7433	0.5352
0.3198	1.664	9.4664	6.639	-2.0941	-2.98	0.2342	-0.3482	-0.3422	0.534	1.9248	9.6178	-5.7307	4.6708	0.3513	0.2309	-0.5541	-1.9572	9.1024	-0.9865	0.2043	-5.2369	3.4426	13.0565	-1.2612	0.7374	0.5905
0.78	1.4906	9.4159	6.4911	-2.0564	-2.7627	0.2522	-0.3362	-0.3302	0.877	1.6375	9.4461	-7.3943	4.5771	0.1615	0.2598	-0.5565	-1.9213	8.9158	-1.3333	-0.6173	-4.8262	6.1293	11.4297	-1.2964	0.7902	0.5843
1.0803	1.6066	10.0719	6.3049	-2.2623	-2.6678	0.2462	-0.3542	-0.3482	0.7053	2.096	9.5623	-6.5656	4.4102	0.0055	0.2465	-0.6121	-1.9548	9.5459	-1.6207	-0.4891	-4.5404	7.8846	11.7824	-1.2966	0.7239	0.5551
0.779	1.433	9.3566	5.5737	-2.0778	-2.4049	0.2462	-0.3482	-0.3422	0.8788	1.8666	9.5654	-7.4021	4.1178	-0.0938	0.2465	-0.6121	-1.9548	9.4288	-1.1047	-0.6062	-3.0307	8.463	12.8475	-1.262	0.7764	0.5501
0.6759	1.5497	10.0048	4.5318	-1.7585	-2.2863	0.2342	-0.3602	-0.3482	1.1082	1.866	9.5107	-8.4286	3.5823	-0.0125	0.2606	-0.5949	-1.9197	10.237	-1.5058	-0.1248	-2.1053	8.4899	13.3229	-1.2617	0.7744	0.5684
0.4472	1.1478	10.0585	4.4464	-1.6319	-2.1004	0.2402	-0.3542	-0.3422	0.5938	1.5242	9.6776	-6.5878	3.1839	-0.3253	0.2729	-0.5163	-1.9763	9.8432	-2.0206	0.0987	-0.7113	7.5912	13.6393	-1.2968	0.8097	0.5641
0.6741	1.2619	9.8859	4.0269	-1.3684	-1.7836	0.2522	-0.3602	-0.3542	0.4226	1.2958	9.733	-4.5944	2.7214	-0.6389	0.2453	-0.5384	-1.8864	10.1808	-1.3334	-0.067	0.4268	6.2952	13.148	-1.2615	0.79	0.5849
1.0658	1.5473	9.3034	3.1207	-0.7784	-1.3921	0.2522	-0.3602	-0.3422	0.7045	1.4662	9.4422	-2.9696	2.3562	-0.6735	0.2744	-0.5754	-1.9382	10.076	-1.389	0.3974	1.4186	4.5372	12.6157	-1.2796	0.8116	0.5461
0.7176	1.6626	9.1788	2.6667	-0.8801	-0.9851	0.2402	-0.3482	-0.3422	0.3628	1.6964	9.6732	-2.9777	1.9866	-0.3712	0.2461	-0.5929	-1.9556	9.6147	-1.7908	0.095	2.9744	2.9601	12.8786	-1.2087	0.7878	0.6041
0.7296	1.2041	9.7687	2.3479	-1.3259	-1.0714	0.2462	-0.3542	-0.3482	0.7672	1.81	9.7412	-2.6481	1.5203	-0.3481	0.275	-0.5953	-1.9196	9.6148	-1.9056	0.0946	2.8447	1.7881	13.0943	-1.261	0.7706	0.605
0.9596	1.4911	9.7739	2.76	-1.1889	-0.7756	0.2462	-0.3542	-0.3362	0.4774	1.4671	9.6157	-1.6357	1.3492	-0.2567	0.2462	-0.5937	-1.9377	10.0655	-1.9647	-0.1883	3.9379	1.1971	13.8262	-1.2444	0.8094	0.565
0.617	1.6071	9.9447	2.6416	-1.1832	-0.5897	0.2522	-0.3542	-0.3362	0.4223	1.4103	9.7332	-1.6387	1.2256	-0.0736	0.2592	-0.5366	-1.9399	10.2359	-1.506	-0.1832	4.4568	1.8109	14.2648	-1.2785	0.8214	0.6175
0.8437	1.2612	9.712	3.1222	-1.4799	-0.9081	0.2462	-0.3482	-0.3422	0.5289	2.0388	9.3804	-1.6652	1.4713	0.0234	0.2887	-0.5758	-1.9381	9.5516	-1.6197	-0.1973	5.4542	2.5527	12.9715	-1.2615	0.79	0.5849
0.8979	1.2607	9.5358	3.5323	-1.3126	-0.7036	0.2281	-0.3602	-0.3602	0.3554	1.8102	9.3169	-2.5947	1.2096	0.295	0.2318	-0.5925	-1.9557	9.5516	-1.5623	-0.1971	6.1863	4.0366	11.2423	-1.2794	0.7765	0.5498
1.0746	1.0308	9.7159	4.028	-0.967	-0.8662	0.2402	-0.3422	-0.3362	0.6496	1.2949	9.5595	-2.5328	1.209	0.2025	0.2611	-0.6141	-1.919	10.0134	-1.4473	0.1042	7.5586	5.2327	12.0504	-1.2615	0.79	0.5849
1.0123	1.7779	9.5393	4.5047	-0.7103	-0.5407	0.2402	-0.3662	-0.3362	0.7671	1.3521	9.6808	-1.7576	1.5328	0.364	0.2592	-0.5366	-1.9399	9.7284	-1.5616	0.0981	7.7448	5.6055	11.071	-1.262	0.7764	0.5501
0.9646	1.2617	10.0097	4.9038	-0.9409	-0.4907	0.2402	-0.3482	-0.3302	0.5904	2.4397	9.62	-2.4666	1.5135	0.5169	0.2457	-0.5737	-1.9563	10.0198	-1.1592	0.4554	7.5751	5.4856	10.2079	-1.2799	0.7959	0.5296
0.7865	1.6064	9.7708	6.0272	-0.8335	-0.1514	0.2462	-0.3422	-0.3362	0.3556	1.6957	9.3167	-1.8832	1.4119	0.4234	0.2602	-0.5757	-1.9205	9.7239	-1.6197	-0.1355	7.1286	4.8745	8.9049	-1.2617	0.7744	0.5684
1.1281	1.4903	9.5408	5.1214	-0.6095	0.4821	0.2402	-0.3482	-0.3482	0.3027	1.6963	9.5532	-1.7593	1.4407	0.3624	0.2592	-0.5366	-1.9399	9.7265	-1.8488	-0.0197	6.8483	4.1687	8.1505	-1.2607	0.8194	0.6361
0.8373	1.663	9.4174	4.9344	-0.419	0.3047	0.2462	-0.3542	-0.3242	0.2993	1.6388	9.3748	-1.2667	1.4927	0.6112	0.3032	-0.577	-1.9201	9.8459	-1.5611	0.2754	6.5629	3.4328	7.1489	-1.2789	0.7901	0.5846
0.7741	1.6624	9.1208	3.4532	-0.5705	0.4618	0.2522	-0.3482	-0.3482	1.1084	1.8087	9.5106	-0.897	1.5168	0.6741	0.2744	-0.5754	-1.9382	9.9017	-1.504	0.2184	5.9726	2.7901	6.2176	-1.2967	0.7922	0.566
1.1411	1.7219	10.2506	2.4137	0.0846	0.4604	0.2402	-0.3602	-0.3422	0.6501	1.5812	9.6195	-1.2654	1.5842	0.7364	0.2603	-0.5765	-1.9026	9.9563	-2.1358	0.0422	5.9297	2.4845	5.4392	-1.3143	0.8098	0.5638
0.7816	1.8358	9.5349	2.2736	0.0926	0.9824	0.2522	-0.3422	-0.3422	0.3561	1.982	9.3767	-1.7337	1.2541	0.8224	0.2885	-0.5581	-1.9032	10.0673	-1.6774	-0.0705	5.9839	2.024	4.8084	-1.2957	0.8195	0.6355
0.781	1.5482	9.4751	1.3544	0.4066	1.0676	0.2342	-0.3482	-0.3362	0.4738	1.9819	9.4979	-0.9456	0.7463	1.5559	0.2596	-0.5388	-1.8863	9.6133	-1.6763	0.037	6.6492	1.7157	4.324	-1.3142	0.843	0.5784
0.9024	1.2612	9.7722	0.899	0.5183	1.2929	0.2342	-0.3482	-0.3542	0.478	1.2382	9.6152	-0.4562	0.4643	0.934	0.217	-0.5729	-1.9565	9.8458	-1.5037	0.2757	7.3448	1.5611	3.9358	-1.2613	0.8232	0.5995
0.7802	1.3756	9.4156	0.7717	0.4925	1.1738	0.2342	-0.3602	-0.3482	0.9392	1.2371	9.6247	-1.3199	0.3866	0.9929	0.2731	-0.5178	-1.9405	9.6243	-2.076	0.5608	7.731	1.4694	3.4014	-1.2965	0.8078	0.5824
0.782	1.6634	9.5345	0.9682	1.0046	1.2635	0.2462	-0.3542	-0.3362	0.4228	1.6965	9.7932	-1.2011	0.1694	1.051	0.2597	-0.5557	-1.9391	9.5555	-1.9059	-0.0233	9.5484	1.4361	2.7785	-1.2801	0.831	0.5259
0.7846	1.4337	9.6522	0.9748	1.2494	1.3563	0.2582	-0.3602	-0.3542	0.5362	1.9823	9.7368	-1.7674	-0.4357	1.2246	0.2446	-0.5177	-1.9229	9.849	-1.3884	0.4511	11.0016	1.5572	2.3521	-1.2618	0.792	0.5665
1.0703	1.5478	9.5398	0.7268	1.5342	1.1504	0.2342	-0.3482	-0.3422	0.1814	1.7533	9.2538	-0.9448	-0.8498	1.4348	0.2604	-0.5934	-1.9554	9.9087	-1.6175	0.5682	12.8501	1.8928	2.0165	-1.2788	0.8233	0.5992
0.785	1.2037	9.6516	0.7099	1.72	1.5485	0.2342	-0.3542	-0.3482	0.3635	1.8682	9.733	-0.1899	-1.5699	1.7012	0.3029	-0.5754	-1.9559	10.4246	-1.79	0.6945	13.9967	2.0765	1.5673	-1.2446	0.8445	0.5612
0.7818	1.7208	9.5346	1.1684	1.6391	1.4148	0.2402	-0.3482	-0.3362	0.4855	1.5824	10.0319	-0.4197	-2.2733	1.9662	0.2883	-0.5566	-1.9389	9.7844	-1.6192	0.0407	14.7748	2.3844	1.0982	-1.3142	0.7923	0.5657
1.0735	1.6633	9.7174	1.2624	1.5744	1.5037	0.2462	-0.3722	-0.3542	0.8245	1.4664	9.6822	0.9609	-2.5119	1.9953	0.2742	-0.5738	-1.974	10.2412	-2.0215	0.0484	15.8893	2.6298	0.6205	-1.2625	0.8134	0.528
0.7857	1.4338	9.7113	1.7542	1.4925	1.4607	0.2462	-0.3602	-0.3422	0.4842	2.0974	10.0329	2.5235	-2.9068	1.9601	0.3032	-0.577	-1.9201	9.7849	-1.9634	0.0394	15.9767	2.9993	0.691	-1.2786	0.7882	0.6029
0.9557	1.2031	9.5368	2.1736	0.8324	1.3857	0.2402	-0.3782	-0.3662	0.5939	1.4669	9.6775	2.7595	-3.463	1.8579	0.2741	-0.5569	-1.9211	9.9509	-1.6203	-0.1893	15.8476	3.0622	0.4179	-1.2965	0.8078	0.5824
1.0111	1.2027	9.4197	2.4848	0.3881	0.6129	0.2522	-0.3662	-0.3362	0.7131	1.8105	9.9182	3.1261	-3.6225	1.7939	0.2446	-0.5177	-1.9229	9.4936	-1.6772	-0.257	15.9583	3.0945	-0.0766	-1.2623	0.829	0.5445
0.4402	1.8945	9.7647	3.1829	0.1741	0.2897	0.2522	-0.3662	-0.3542	0.5927	1.982	9.6785	5.2911	-3.1363	1.5284	0.2744	-0.5754	-1.9382	9.7164	-1.9654	-0.5453	14.9799	2.9435	-0.2771	-1.2622	0.8115	0.5463
0.7792	1.9505	9.417	2.9383	-0.1251	-0.5603	0.2522	-0.3662	-0.3542	0.5307	1.81	9.4393	3.8547	-2.6199	1.3807	0.2587	-0.5166	-1.9585	9.7227	-1.62	-0.1939	13.8927	3.1337	-1.0206	-1.2971	0.8116	0.5458
1.3128	1.7789	10.195	3.2249	-0.2929	-1.2698	0.2462	-0.3602	-0.3422	0.0742	1.8116	9.6675	2.048	-2.1884	1.0146	0.2307	-0.5365	-1.9223	9.6032	-1.047	-0.4275	12.8157	3.1378	-1.4305	-1.2791	0.8252	0.5808
0.8976	2.0657	9.5968	3.1781	-0.6899	-1.6066	0.2462	-0.3542	-0.3422	0.3044	1.9827	9.6726	1.8691	-1.8785	1.0507	0.2737	-0.5377	-1.9219	9.7203	-1.5056	-0.3102	11.1309	3.0508	-1.8	-1.2269	0.8093	0.5653
0.6137	1.6067	9.7674	2.5291	-0.4799	-1.7421	0.2342	-0.3542	-0.3422	0.7662	2.2106	9.742	1.3864	-1.3787	0.9661	0.2748	-0.5945	-1.9375	9.4893	-1.9075	-0.4913	9.3873	3.1789	-1.9156	-1.2621	0.8446	0.5609
1.0698	1.2028	9.4799	2.5551	-0.4207	-1.9559	0.2462	-0.3482	-0.3362	0.9335	1.6372	9.3879	0.0654	-1.2634	0.8115	0.2313	-0.5733	-1.9564	9.5984	-1.6217	-0.7214	7.3032	3.3701	-2.2076	-1.2791	0.7745	0.5681
0.7243	1.6635	9.5334	2.9916	-0.2247	-1.9349	0.2462	-0.3662	-0.3422	0.6495	1.8101	9.62	0.0027	-1.3238	0.8103	0.2588	-0.5174	-1.9407	9.6579	-1.7361	-0.6039	4.9757	3.5618	-2.4638	-1.2793	0.8096	0.5644
0.7743	1.5474	9.1205	2.414	0.0143	-1.7365	0.2522	-0.3602	-0.3422	0.539	1.8108	9.8553	0.3422	-1.2983	0.6878	0.2891	-0.5942	-1.9552	9.4899	-1.5057	-0.4315	2.8046	3.9064	-2.4414	-1.279	0.8077	0.5827
1.2432	1.5475	9.5432	2.0203	0.3675	-1.6638	0.2462	-0.3482	-0.3422	0.65	1.6384	9.6196	0.4929	-1.5147	0.4371	0.2744	-0.5754	-1.9382	9.7146	-1.5067	-0.602	0.61	4.1883	-2.1429	-1.2798	0.7784	0.5315
1.0116	1.5478	9.4796	1.6515	0.3221	-1.5636	0.2462	-0.3722	-0.3422	0.9341	1.8663	9.4477	2.3356	-1.7005	0.6532	0.2739	-0.5393	-1.8862	9.6473	-1.5658	-1.1285	-1.6133	4.5316	-1.7187	-1.261	0.7706	0.605
0.955	1.6055	9.5377	1.106	0.5295	-1.3051	0.2522	-0.3722	-0.3362	0.9398	1.9813	9.7451	1.9684	-1.6619	0.2517	0.2459	-0.5753	-1.9206	9.5467	-1.3911	-0.4299	-3.8744	4.9069	-1.6011	-1.2625	0.8134	0.528
0.7899	1.6068	9.9481	1.3286	0.5212	-1.0665	0.2402	-0.3542	-0.3362	1.0424	1.8081	9.0935	3.4813	-1.4717	0.0107	0.2032	-0.5924	-1.938	9.4877	-1.5635	-0.5484	-6.4665	5.067	-1.4214	-1.2448	0.8289	0.5448
0.8979	1.8933	9.5964	1.9294	0.1275	-1.4495	0.2342	-0.3662	-0.3482	0.4129	1.8673	9.3182	3.5774	-1.3187	-0.2335	0.2736	-0.537	-1.9398	9.3175	-1.4483	-0.4931	-8.4043	4.7927	-0.9282	-1.2796	0.8116	0.5461
0.7847	1.3762	9.652	2.3405	-0.381	-1.92	0.2582	-0.3662	-0.3362	0.8845	1.4665	9.8023	2.9682	-1.0008	-0.3524	0.2167	-0.5545	-1.9395	9.5908	-1.164	-1.0699	-10.7754	4.4897	-0.7353	-1.2623	0.829	0.5445
0.4434	1.3773	9.8817	3.8297	-1.0874	-2.3873	0.2402	-0.3482	-0.3362	0.8211	2.382	9.6247	1.9569	-0.7686	-0.3809	0.2309	-0.5541	-1.9572	9.6061	-1.4481	-0.3123	-12.9665	4.3406	-0.5724	-1.3146	0.8117	0.5455
0.7236	2.0659	9.5344	4.0278	-1.4644	-2.8214	0.2342	-0.3722	-0.3482	0.298	1.6959	9.3155	1.4084	-0.5127	-0.5935	0.2741	-0.5569	-1.9211	9.2564	-1.7358	-0.7287	-15.0276	3.9746	-0.2026	-1.2788	0.7726	0.5864
0.7793	1.893	9.4169	3.9354	-1.3995	-2.8493	0.2342	-0.3542	-0.3242	0.9404	1.2372	9.6842	1.0332	-0.7834	-0.4137	0.2736	-0.537	-1.9398	9.2548	-1.4492	-0.786	-17.064	3.7631	0.017	-1.279	0.8077	0.5827
1.0719	1.8931	9.6589	4.842	-1.8674	-3.3011	0.2402	-0.3602	-0.3422	0.7668	1.9817	9.7415	1.9036	-0.3978	-0.7141	0.2746	-0.5769	-1.9025	9.0268	-1.5636	-0.791	-18.6153	3.8893	0.329	-1.3325	0.8313	0.525
0.7937	1.3773	10.1249	6.5513	-2.4909	-3.6818	0.2402	-0.3722	-0.3482	0.7071	1.8672	9.6213	1.4953	-0.8206	-0.7224	0.2452	-0.5546	-1.9571	9.5458	-1.506	-0.4887	-20.227	3.9233	0.6088	-1.3144	0.7766	0.5492
0.7805	1.8357	9.4758	7.198	-2.4877	-3.7585	0.2462	-0.3722	-0.3482	0.4189	1.8106	9.6152	1.458	-1.1279	-0.5117	0.2603	-0.5765	-1.9026	10.0075	-1.3336	-0.1871	-21.1014	3.9238	1.0887	-1.2273	0.7781	0.5323
0.7856	1.4913	9.7114	7.6319	-3.0288	-4.5043	0.2221	-0.3722	-0.3362	0.4787	1.9252	9.7355	3.063	-0.9995	-1.0317	0.2734	-0.5193	-1.9048	9.4373	-1.4474	-0.199	-22.2715	3.7084	1.8457	-1.2452	0.7977	0.5119
1.1971	1.3766	10.1327	7.9948	-3.3807	-4.5762	0.2462	-0.3782	-0.3482	0.5971	2.0969	9.9164	2.5026	-1.2978	-0.8527	0.2465	-0.596	-1.8841	9.8362	-1.9645	-0.2512	-22.9282	3.3387	2.249	-1.2967	0.8429	0.5787
0.6716	1.4341	9.7681	10.7914	-4.3888	-5.6262	0.2462	-0.3722	-0.3302	0.8706	1.8086	9.1493	2.1045	-1.1986	-0.9134	0.2883	-0.5566	-1.9389	9.6629	-1.2761	-0.3105	-23.5415	3.0593	3.3013	-1.2795	0.794	0.5479
0.7822	1.5484	9.5342	12.3677	-4.8815	-5.3013	0.2402	-0.3602	-0.3362	0.245	2.2116	9.6125	2.9374	-1.1203	-1.0032	0.2747	-0.5938	-1.9553	9.5983	-1.5643	-0.7212	-24.0726	3.0886	4.145	-1.28	0.8135	0.5277
1.3068	2.0082	9.9001	11.764	-4.9503	-5.8666	0.2522	-0.3602	-0.3182	0.5862	2.2104	9.3819	2.2363	-0.8305	-1.3699	0.305	-0.6545	-1.8992	9.772	-1.7936	-0.6019	-24.5158	3.3643	4.994	-1.2618	0.792	0.5665
1.0788	1.8364	10.0134	13.4449	-5.3282	-6.3062	0.2522	-0.3602	-0.3422	0.5229	1.5803	9.0229	1.47	-0.6337	-1.2442	0.2458	-0.5745	-1.9385	9.6555	-1.6791	-0.7204	-25.6621	3.8265	5.924	-1.2969	0.7765	0.5495
0.6091	1.6637	9.5311	14.6363	-6.0252	-7.4984	0.2402	-0.3722	-0.3422	0.8172	2.0381	9.3863	0.4205	-0.8297	-1.4966	0.2894	-0.5965	-1.9016	9.8894	-1.6784	-0.4241	-26.347	4.9021	7.448	-1.2623	0.829	0.5445
0.6724	1.6068	9.8276	14.4739	-6.5428	-8.5956	0.2642	-0.3662	-0.3422	0.5315	1.4666	9.4386	0.6728	-0.5566	-1.7383	0.232	-0.594	-1.9199	10.4131	-1.7921	0.111	-27.0925	5.4904	7.2639	-1.2793	0.8096	0.5644
0.724	1.8359	9.5338	16.0243	-6.8858	-9.3064	0.2462	-0.3722	-0.3362	0.4699	1.6381	9.2595	0.8313	-0.3438	-1.8887	0.2608	-0.6125	-1.9547	9.7186	-1.9076	-0.4284	-27.0388	6.2957	6.1145	-1.3141	0.8254	0.5803
0.7845	1.4911	9.6523	15.6766	-6.964	-9.5424	0.2342	-0.3602	-0.3362	0.9288	2.0947	9.2105	0.3061	-0.3372	-1.3335	0.2459	-0.5753	-1.9206	9.7248	-1.4475	-0.0766	-26.5838	7.1916	5.2371	-1.2278	0.8151	0.5103
0.7228	1.8933	9.4748	16.0535	-7.4715	-10.1341	0.2462	-0.3722	-0.3302	0.5356	1.7532	9.6769	0.9871	0.136	0.1586	0.2313	-0.5733	-1.9564	10.2959	-1.2187	-0.0059	-25.6099	7.471	3.931	-1.3318	0.8275	0.5616
0.3139	1.7783	9.1712	15.3451	-7.2235	-9.0783	0.2462	-0.3722	-0.3302	1.1038	2.209	9.3332	3.5562	1.1002	1.3848	0.2597	-0.5557	-1.9391	10.0181	-1.5612	0.3372	-23.7787	7.348	2.473	-1.2275	0.8132	0.5286
0.596	2.0646	8.882	14.0249	-6.644	-8.0057	0.2221	-0.3782	-0.3422	0.8224	2.3248	9.684	3.3371	0.9196	1.412	0.2745	-0.5761	-1.9204	10.2563	-1.4449	0.8674	-22.0548	6.1819	-0.4307	-1.2792	0.7921	0.5662
0.8843	2.5817	8.9479	11.093	-5.9371	-7.1982	0.2522	-0.3843	-0.3362	0.6439	1.695	9.3226	3.1303	1.3234	1.1409	0.232	-0.594	-1.9199	10.1375	-1.3309	0.6321	-19.4617	5.2267	-2.5134	-1.2797	0.8798	0.5569
0.9408	2.0063	8.8295	7.3209	-4.9215	-6.7955	0.2281	-0.3782	-0.3542	0.6509	2.2109	9.7396	0.4028	1.8034	0.28	0.2319	-0.5933	-1.9378	9.8506	-0.9291	0.5695	-17.1211	4.0796	-2.3464	-1.2625	0.8641	0.5408
1.1787	2.2369	9.2482	4.0231	-3.8935	-6.0078	0.2462	-0.3782	-0.3242	0.6405	1.6375	9.1442	-1.531	1.9623	-0.4618	0.2614	-0.6325	-1.936	9.6744	-1.3314	0.2728	-15.8279	3.3056	-2.3635	-1.2794	0.8272	0.5625
0.7126	1.9495	8.943	1.5586	-2.7784	-5.3009	0.2342	-0.3782	-0.3362	0.6428	1.6377	9.2631	-3.0978	2.1122	-0.5545	0.2462	-0.5937	-1.9377	9.7346	-1.1588	0.4497	-13.7983	3.0213	-1.8573	-1.2449	0.8465	0.5429
0.8918	2.18	9.3016	-1.2897	-1.9543	-4.8913	0.2462	-0.3782	-0.3242	0.5882	1.8671	9.4406	-2.9349	2.4802	-1.1036	0.2321	-0.5948	-1.9021	9.8941	-1.0464	-0.13	-12.3524	2.8668	-2.8154	-1.2618	0.8427	0.5793
0.8941	2.1228	9.4197	-4.1307	-0.8549	-4.3888	0.2582	-0.3782	-0.3302	0.8844	1.5237	9.8024	-4.2845	2.7787	-0.9153	0.1879	-0.536	-1.9047	9.9561	-1.3325	0.1035	-10.4071	2.7139	-4.6465	-1.2623	0.829	0.5445
1.5775	2.3506	9.02	-6.9126	-0.0023	-3.8282	0.2522	-0.3782	-0.3302	0.7117	1.9249	9.8591	-5.0851	2.7918	-0.7929	0.274	-0.5562	-1.939	9.6196	-1.2735	0.3886	-8.8329	1.5431	-6.037	-1.2626	0.8309	0.5262
1.3059	2.4682	9.9012	-9.1371	0.5526	-3.0387	0.2522	-0.3843	-0.3362	0.4753	1.8676	9.5571	-5.4278	2.6127	-0.6114	0.2324	-0.6132	-1.9192	9.4474	-1.3308	0.3266	-6.8903	0.2479	-7.4075	-1.28	0.8135	0.5277
1.2417	1.7774	9.4847	-9.3627	0.5348	-2.2402	0.2342	-0.3722	-0.3242	0.5393	1.6964	9.855	-3.9553	2.3719	-0.4278	0.2604	-0.5934	-1.9554	9.3231	-1.3325	-0.2009	-5.181	-0.5822	-9.3458	-1.2797	0.8291	0.5442
1.065	2.0072	9.3045	-10.058	1.1151	-2.0369	0.2342	-0.3662	-0.3422	0.357	1.6386	9.376	-1.8335	2.2438	-0.4573	0.2454	-0.5553	-1.9392	9.6682	-1.0456	-0.0179	-3.0225	-1.1709	-10.1148	-1.2796	0.8623	0.5588
1.0104	2.1802	9.4811	-11.3327	1.6293	-1.5149	0.2402	-0.3542	-0.3242	0.3044	1.9827	9.6726	-1.9547	2.3381	-0.4867	0.2456	-0.5568	-1.9035	9.6657	-0.8739	-0.134	-0.9354	-2.1007	-10.2139	-1.2788	0.8233	0.5992
1.0094	2.1226	9.4219	-12.2394	2.1887	-1.1235	0.2221	-0.3782	-0.3422	0.7011	1.8666	9.3242	-1.4871	2.7274	-0.0466	0.2459	-0.5753	-1.9206	9.6809	-1.8466	0.5628	2.3012	-3.4057	-9.6376	-1.2795	0.794	0.5479
0.9607	2.1813	9.8938	-12.2566	2.161	-0.6047	0.2402	-0.3662	-0.3482	0.4142	1.8102	9.3775	-1.7608	2.8859	-0.1369	0.2461	-0.5768	-1.8849	9.9679	-1.5598	0.6862	5.0821	-4.833	-9.0558	-1.2624	0.8973	0.5553
0.9036	1.8365	9.8918	-11.694	2.0165	-0.2836	0.2522	-0.3662	-0.3302	0.7645	1.4663	9.5622	-1.8181	3.132	-0.0091	0.2311	-0.5557	-1.9215	9.7865	-1.5614	0.1576	8.2936	-6.4156	-8.4253	-1.2619	0.7588	0.5519
0.5491	2.3535	9.4726	-11.0942	2.0544	0.1596	0.2462	-0.3782	-0.3242	0.7034	1.924	9.4431	-1.7262	3.13	0.0837	0.2461	-0.5768	-1.8849	9.7365	-1.6175	0.5064	11.3676	-7.5957	-8.2122	-1.2786	0.7882	0.6029
0.9025	1.2038	9.7721	-10.9932	2.0515	0.4622	0.2522	-0.3843	-0.3242	0.5317	1.8673	9.4989	-1.4217	3.0009	0.3599	0.2599	-0.5573	-1.9034	9.6806	-1.6172	0.5636	14.3212	-9.1141	-8.1605	-1.2452	0.8484	0.5246
1.1859	2.0077	9.6023	-10.8178	1.8643	1.3415	0.2342	-0.3662	-0.3302	0.6514	2.0392	9.7393	-1.7058	2.6672	0.5388	0.2454	-0.5553	-1.9392	9.9657	-1.6176	0.5693	17.4226	-10.8214	-7.069	-1.2446	0.8445	0.5612
0.9585	1.491	9.7148	-10.3257	1.3553	1.5707	0.2342	-0.3542	-0.3482	0.1341	1.8689	9.7876	-1.2181	2.4133	0.5351	0.2598	-0.5565	-1.9213	9.7298	-1.7334	0.1558	20.4488	-12.1265	-6.3345	-1.2608	0.8369	0.6342
0.7864	1.6639	9.7709	-9.4721	0.7079	1.5462	0.2342	-0.3722	-0.3422	0.2449	1.7537	9.5521	0.1018	2.2667	0.8436	0.2616	-0.634	-1.9003	9.5618	-1.5605	0.3281	23.3439	-13.0915	-5.7726	-1.2974	0.8136	0.5274
0.8412	2.0085	9.6547	-8.8054	0.3121	1.3142	0.2402	-0.3782	-0.3422	0.4741	1.3523	9.4372	-0.9204	2.0062	1.2078	0.2882	-0.5558	-1.9567	9.2752	-2.0767	0.2038	26.3039	-13.965	-4.9627	-1.3492	0.81	0.5632
1.188	2.0655	9.7207	-8.217	-0.0783	1.6027	0.2402	-0.3722	-0.3482	0.4178	1.8105	9.5558	0.5563	1.9805	1.3335	0.2465	-0.6121	-1.9548	9.4988	-1.3893	0.0358	29.2267	-14.5606	-4.2675	-1.2786	0.8389	0.6156
0.7849	1.8937	9.7124	-7.7472	-0.1274	1.8655	0.2462	-0.3662	-0.3302	0.3013	1.8107	9.494	0.0296	1.8652	1.6702	0.2604	-0.5934	-1.9554	9.8976	-1.8491	-0.0162	31.6796	-15.2454	-4.182	-1.2797	0.8291	0.5442
1.1825	2.0073	9.425	-7.0314	0.0571	1.9407	0.2462	-0.3542	-0.3482	0.6531	1.8104	9.7982	-0.3147	1.5641	1.6643	0.2308	-0.5534	-1.9751	9.5044	-2.0195	0.2669	33.839	-15.962	-3.5983	-1.2969	0.7765	0.5495
1.2982	1.7771	9.4267	-7.0432	-0.0967	1.6045	0.2281	-0.3722	-0.3362	0.7673	2.268	9.8015	0.7548	1.1467	1.6587	0.2599	-0.5573	-1.9034	8.9356	-1.5593	0.3739	35.8407	-16.3697	-3.0334	-1.314	0.8079	0.5821
1.2917	1.6613	9.0718	-7.506	-0.9057	1.001	0.2462	-0.3602	-0.3422	0.5366	1.8106	9.7364	2.0674	0.6316	2.0224	0.2601	-0.5749	-1.9383	9.0899	-1.7347	-0.4987	37.632	-16.9006	-2.4062	-1.3139	0.7903	0.584
1.2997	1.5473	9.4852	-7.5589	-1.4605	-0.5872	0.2462	-0.3662	-0.3242	0.4712	1.581	9.3188	3.1743	0.5816	2.1161	0.2459	-0.5753	-1.9206	9.6648	-1.7348	-0.2538	39.1573	-17.309	-1.3079	-1.2794	0.8272	0.5625
1.4135	1.7769	9.4289	-9.2389	-2.143	-5.0956	0.2402	-0.3722	-0.3362	0.7065	2.0961	9.6217	3.1389	0.3366	2.1117	0.2459	-0.5753	-1.9206	9.603	-1.6208	-0.488	40.2115	-17.345	-0.5593	-1.2963	0.7727	0.5861
1.128	1.5477	9.541	-9.8715	-3.414	-8.2296	0.2342	-0.3782	-0.3302	0.7002	1.752	9.2645	2.9181	0.094	2.2923	0.2465	-0.6121	-1.9548	9.8337	-1.8502	-0.3675	41.1051	-17.1025	0.0154	-1.2781	0.8019	0.6377
0.6177	1.8373	10.0044	-10.1572	-3.8821	-5.968	0.2342	-0.3542	-0.3422	0.3598	1.9251	9.5548	2.3975	0.1959	2.077	0.2311	-0.5557	-1.9215	10.1709	-1.5648	-0.593	42.2401	-16.9218	0.4294	-1.2602	0.7316	0.6454
0.4394	2.3544	9.7659	-10.3807	-5.0875	3.5179	0.2281	-0.3602	-0.3362	0.4737	2.0392	9.498	2.5793	0.0394	2.0436	0.26	-0.5742	-1.9562	9.6577	-0.8754	-0.5425	42.8813	-16.8004	0.5433	-1.2784	0.8038	0.6193
1.1273	1.8927	9.5418	-10.2702	-3.9633	10.2333	0.2281	-0.3602	-0.3422	0.5278	2.0387	9.3209	2.0513	-0.1674	2.2552	0.2319	-0.5933	-1.9378	9.8278	-1.6792	-0.6587	43.4657	-16.6796	0.8434	-1.2964	0.7902	0.5843
1.5236	1.4886	9.135	-12.2514	-3.5199	8.6976	0.2342	-0.3542	-0.3302	0.6426	1.7521	9.2633	1.562	0.0246	2.3813	0.2752	-0.613	-1.9546	9.8306	-1.3344	-0.4823	43.8277	-16.7414	0.6186	-1.2787	0.8058	0.601
0.8423	1.3761	9.6531	-13.4797	-4.3403	4.9703	0.2281	-0.3542	-0.3362	0.8251	2.2106	9.8026	1.6564	0.1455	2.4454	0.2891	-0.5781	-1.8845	10.0598	-1.2771	-0.4192	43.7278	-16.8629	0.1547	-1.2793	0.7589	0.5516
1.4115	0.9716	9.2497	-12.9885	-5.0934	5.3201	0.2342	-0.3722	-0.3362	0.5919	1.8102	9.6188	0.5079	-0.2968	2.7444	0.2461	-0.5929	-1.9556	9.604	-1.5632	-0.4294	44.0483	-17.046	-0.6584	-1.2963	0.7727	0.5861
0.779	2.0655	9.4173	-14.4103	-4.5581	9.4763	0.2342	-0.3602	-0.3482	0.5937	2.0394	9.7381	0.5299	-0.7277	2.922	0.2599	-0.5573	-1.9034	9.8884	-1.0474	-0.4218	44.4583	-17.2905	-1.5983	-1.3128	0.767	0.6408
1.242	1.6049	9.4842	-15.8571	-3.7204	12.5366	0.2402	-0.3602	-0.3362	0.7093	1.9246	9.7402	1.5064	-1.2343	2.6058	0.26	-0.5742	-1.9562	10.4006	-1.8517	-0.5311	44.6741	-17.5021	-3.0266	-1.3314	0.808	0.5818
1.1821	1.6047	9.3649	-15.0779	-3.1417	12.4295	0.2221	-0.3782	-0.3422	0.4122	2.1534	9.3188	3.1987	-1.2934	2.5151	0.2316	-0.5748	-1.9207	9.9951	-0.762	-0.7686	44.886	-17.3131	-4.351	-1.2788	0.7726	0.5864
1.1301	1.6055	9.6593	-14.0991	-3.001	11.9794	0.2462	-0.3662	-0.3422	0.1302	1.5251	9.5493	2.4036	-1.0338	2.4257	0.2182	-0.6136	-1.9014	10.163	-0.8776	-0.9407	45.2162	-16.7855	-5.6064	-1.296	0.8215	0.6172
0.9559	1.7207	9.5971	-14.1876	-3.5457	12.4665	0.2342	-0.3602	-0.3362	0.766	1.8099	9.6818	2.1254	-1.1207	2.3001	0.2454	-0.5553	-1.9392	10.3986	-1.2783	-0.5874	45.7131	-16.4451	-6.3464	-1.2778	0.7492	0.6433
0.5563	0.8018	9.7052	-13.2125	-3.5791	14.2426	0.2281	-0.3602	-0.3482	0.6459	2.3249	9.5022	2.0361	-0.9655	2.2718	0.2164	-0.536	-1.9224	10.3447	-1.1055	-0.4129	44.4768	-18.7867	-5.957	-1.2783	0.7356	0.6085
1.2462	1.1454	9.6605	-13.4084	-3.5679	14.9797	0.2402	-0.3542	-0.3362	0.5876	1.6381	9.3807	1.8945	-0.2884	2.4381	0.274	-0.5562	-1.939	10.8574	-1.4507	-0.4622	42.9514	-22.2943	-7.0439	-1.2958	0.7864	0.6209
1.3056	0.8004	9.7198	-12.5846	-4.0965	13.7972	0.2281	-0.3482	-0.3422	0.7125	1.5815	9.8584	0.6378	0.0091	2.503	0.2325	-0.6301	-1.972	10.1104	-1.5079	-0.769	40.7179	-23.5396	-10.9806	-1.2955	0.7844	0.6392
1.1901	0.9156	9.7179	-12.227	-4.2096	12.2625	0.2342	-0.3542	-0.3482	0.4732	1.7529	9.438	0.5218	0.3197	2.1377	0.2319	-0.5933	-1.9378	10.5006	-0.879	-1.1672	40.0084	-21.4923	-14.0523	-1.2781	0.7512	0.6249
0.9003	1.2035	9.6539	-11.822	-5.2725	10.7821	0.2281	-0.3542	-0.3362	0.5848	1.8095	9.2622	0.2479	0.538	2.4191	0.2471	-0.6321	-1.9362	10.2088	-1.7405	-1.5846	38.7573	-17.7269	-14.1973	-1.2609	0.753	0.6069
0.7209	1.663	9.3561	-11.5472	-6.3873	10.2199	0.2281	-0.3362	-0.3602	0.5259	1.8095	9.2016	-0.6435	0.5544	2.1398	0.2459	-0.5753	-1.9206	10.7206	-1.512	-1.6318	37.2448	-18.5863	-14.2224	-1.2787	0.8058	0.601
1.3633	1.3754	9.7815	-12.5381	-7.1442	9.4769	0.2221	-0.3602	-0.3422	0.9279	1.9801	9.1509	-2.2312	1.2566	2.2114	0.2612	-0.6148	-1.9011	9.6906	-1.5111	-1.8274	31.3811	-17.2432	-14.9608	-1.3474	0.7477	0.6604
1.2482	1.2606	9.7789	-13.1057	-7.3404	8.0557	0.2101	-0.3542	-0.3482	0.4141	1.8674	9.3776	-2.2664	0.9818	1.9902	0.2747	-0.5938	-1.9553	8.5945	-1.569	-2.4913	30.7493	-7.959	-24.6408	-1.3296	0.7457	0.679
1.5327	0.7996	9.547	-12.5532	-7.7699	5.9348	0.2221	-0.3422	-0.3542	0.9988	1.4089	9.7451	-0.9761	0.7771	1.6491	0.2182	-0.6136	-1.9014	7.9645	-0.6504	-2.5589	30.073	-0.0236	-27.607	-1.3125	0.7143	0.6464
0.9572	0.9733	9.5953	-11.8288	-8.6004	4.6921	0.2221	-0.3242	-0.3362	0.5271	1.8097	9.2611	-1.158	0.9035	1.5275	0.2469	-0.6313	-1.954	8.4874	-0.9364	-2.0828	30.1164	6.0522	-28.2976	-1.2955	0.7337	0.6265
1.0137	0.973	9.5373	-10.5863	-8.8999	3.989	0.2221	-0.3482	-0.3422	0.6516	2.4399	9.7995	-2.3899	0.8634	1.4628	0.2736	-0.537	-1.9398	9.2409	-0.5911	-1.4248	30.1388	8.0003	-30.0614	-1.3646	0.7127	0.6639
1.0676	1.2025	9.3617	-10.5133	-8.3827	4.0818	0.2221	-0.3542	-0.3422	0.3637	1.811	9.7329	-3.0665	0.8754	1.3383	0.2466	-0.6129	-1.9369	9.652	-0.1305	-0.7732	30.6184	6.6779	-31.3728	-1.3126	0.7826	0.6573
1.6485	0.5119	9.5486	-10.9026	-7.9116	3.1177	0.2101	-0.3422	-0.3482	0.8229	1.638	9.6232	-3.6215	0.8837	1.6155	0.2743	-0.5746	-1.9561	9.9481	-1.3339	-0.305	30.646	2.9474	-31.3566	-1.3304	0.7339	0.6259
1.3027	1.1451	9.6025	-10.0227	-8.2299	1.5997	0.2161	-0.3482	-0.3482	0.6437	1.7523	9.3227	-3.0447	0.4143	1.3919	0.275	-0.5953	-1.9196	10.0716	-0.7586	0.2246	28.5877	-1.919	-31.2694	-1.2945	0.7104	0.6833
1.4188	1.3175	9.6642	-10.3642	-8.8307	0.7808	0.1981	-0.3422	-0.3362	0.422	1.5247	9.7335	-2.8099	-0.1133	1.7844	0.2597	-0.5557	-1.9391	10.0765	-0.9872	0.4572	29.7549	-4.7268	-31.4962	-1.2778	0.6985	0.6305
1.0756	1.0885	9.7752	-9.8206	-9.4959	0.7333	0.2161	-0.3422	-0.3482	0.4865	1.6397	10.0914	-1.0412	-1.003	1.7407	0.2461	-0.5929	-1.9556	10.2525	-1.1587	0.6934	38.6079	-5.9021	-27.8838	-1.3127	0.7494	0.6427
1.3012	1.375	9.5439	-10.4896	-9.924	1.3877	0.2161	-0.3242	-0.3422	0.3634	1.4103	9.6726	0.7954	-1.4961	2.044	0.3026	-0.557	-1.9388	9.9571	-2.652	0.0404	76.0363	-5.567	0.1393	-1.3301	0.6813	0.6315
0.8392	1.2607	9.4756	-10.3764	-10.2917	2.3591	0.2221	-0.3362	-0.3482	0.235	1.9245	9.0771	1.0047	-1.8369	1.9456	0.2884	-0.5574	-1.921	10.9253	-1.1045	0.1238	66.1871	-1.8776	1.428	-1.2949	0.6791	0.6504
1.475	1.4898	9.6067	-10.3228	-10.0418	4.1591	0.2101	-0.3362	-0.3542	0.5969	1.6962	9.8562	0.9769	-1.683	1.9483	0.2473	-0.6336	-1.9004	10.4584	-1.5648	-0.4706	64.0474	-0.4557	-25.4316	-1.2945	0.7104	0.6833
1.1364	1.2038	9.9539	-9.9145	-9.3469	6.2276	0.2101	-0.3362	-0.3482	0.7069	1.9244	9.6214	0.584	-1.3076	1.8926	0.2463	-0.5945	-1.9198	10.2266	-0.7044	-0.5888	52.1937	1.2351	-33.4088	-1.3476	0.6814	0.6312
1.7045	1.4317	9.5519	-9.909	-8.6354	8.2451	0.2221	-0.3362	-0.3422	0.8269	1.4666	9.8011	-0.3925	-0.8911	1.713	0.2322	-0.5955	-1.8842	9.7701	-0.5316	-0.5973	46.2071	2.8033	-36.8207	-1.2951	0.6635	0.634
1.0753	1.2609	9.7756	-10.0192	-7.953	9.4415	0.2221	-0.3362	-0.3302	0.6394	1.5801	9.0847	-0.781	-0.3006	1.5993	0.2459	-0.5753	-1.9206	9.6611	-0.8748	-0.3674	42.4417	3.3116	-38.4575	-1.3128	0.6987	0.63
1.592	1.1447	9.6672	-10.4333	-7.1351	10.7376	0.2101	-0.3302	-0.3602	0.7127	1.9822	9.9186	-0.9848	0.2868	1.455	0.2172	-0.5744	-1.9208	9.8867	-0.7034	-0.4789	37.4659	3.3647	-41.3472	-1.2951	0.6635	0.634
1.3004	1.1448	9.4843	-10.1317	-6.6255	11.2824	0.2101	-0.3422	-0.3482	0.6991	2.2098	9.2654	-1.2532	0.6617	1.0288	0.2458	-0.5745	-1.9385	9.9918	-0.82	-0.9439	35.2137	3.2158	-41.2139	-1.3299	0.6462	0.6353
1.3571	1.0871	9.4261	-8.1928	-6.5549	10.961	0.2161	-0.3302	-0.3362	0.6932	2.2093	8.9683	-1.398	1.1551	1.0992	0.2465	-0.6121	-1.9548	9.3076	-0.9337	-0.958	33.6249	2.4773	-40.4632	-1.3118	0.6422	0.6722
1.7593	1.1437	9.375	-9.7822	-5.5451	9.8462	0.2161	-0.3362	-0.3482	0.8203	1.7522	9.5046	-1.5423	1.649	1.0459	0.2325	-0.614	-1.9013	9.5892	-0.8774	-1.1272	31.4533	2.6421	-41.9876	-1.3123	0.6285	0.6374
2.1124	0.799	9.7356	-8.9957	-4.8787	8.8241	0.2041	-0.3422	-0.3542	0.8124	2.0376	9.1486	-2.1801	2.1201	1.115	0.2607	-0.5956	-1.9019	9.9805	-0.9368	-1.5279	29.0962	3.243	-44.6982	-1.3291	0.6072	0.6756
1.8793	0.9716	9.6133	-8.3158	-4.5456	7.4977	0.1921	-0.3422	-0.3362	0.6563	1.9825	9.9768	-1.4009	2.7487	1.807	0.2607	-0.5956	-1.9019	9.9211	-0.8798	-1.6455	26.8966	4.0934	-48.3917	-1.312	0.6266	0.6557
1.5356	1.0875	9.725	-7.4012	-4.8342	6.101	0.2101	-0.3302	-0.3422	0.6429	2.0956	9.3234	-1.586	2.6613	1.4345	0.2307	-0.5365	-1.9223	10.0322	-0.4215	-1.7583	25.8101	6.1075	-50.5941	-1.3127	0.6304	0.6191
1.6628	0.6862	10.3174	-6.3941	-5.0353	4.6415	0.2101	-0.3122	-0.3362	1.107	1.8658	9.4513	-2.7552	2.6214	1.0612	0.2592	-0.5366	-1.9399	9.8637	-0.5929	-1.6456	24.9817	7.8681	-50.959	-1.3467	0.5741	0.6607
2.0483	0.6258	9.3794	-5.3579	-4.5971	2.7274	0.2221	-0.3182	-0.3602	0.7616	2.1529	9.5042	-3.3761	2.3255	0.9313	0.2604	-0.5934	-1.9554	9.8645	-0.4206	-1.5866	21.4795	9.0708	-48.4495	-1.3292	0.6248	0.6738
1.5281	1.4891	9.3714	-5.0931	-4.6758	1.1647	0.2041	-0.3362	-0.3302	0.649	1.5238	9.56	-4.6073	2.3163	0.8054	0.2753	-0.6137	-1.9367	9.471	-0.4189	-1.3029	18.4014	9.9085	-47.7165	-1.3127	0.6304	0.6191
1.8861	0.9724	9.9679	-3.9491	-4.3314	-0.1424	0.2041	-0.3302	-0.3482	0.8799	1.4088	9.5645	-5.2562	2.1442	0.5542	0.2604	-0.5934	-1.9554	9.5762	0.1531	-1.707	13.4844	10.2031	-49.1206	-1.3293	0.5409	0.6464
1.598	0.9155	9.9622	-3.2271	-4.1204	-0.9824	0.2041	-0.3422	-0.3362	0.4191	1.7534	9.6151	-4.8595	1.8933	0.2106	0.2463	-0.5945	-1.9198	9.7556	-0.0178	-1.2957	9.3976	10.3101	-50.3617	-1.2944	0.5914	0.6598
1.4172	0.9148	9.5451	-3.2192	-4.4903	-1.5949	0.2221	-0.3362	-0.3542	0.5279	1.9815	9.3208	-4.6187	1.5827	0.082	0.2313	-0.5733	-1.9564	9.6485	-0.1311	-0.9483	3.3146	9.5228	-50.0467	-1.2767	0.5562	0.6638
2.0002	0.9721	9.9111	-2.7423	-5.3974	-1.6727	0.1981	-0.3302	-0.3302	0.5322	2.1536	9.5589	-5.5421	1.5382	-0.1984	0.2181	-0.6128	-1.9193	9.7004	0.2695	-1.1791	-1.8674	9.069	-48.7535	-1.3114	0.5213	0.6669
1.5925	0.8573	9.6665	-2.5006	-5.7134	-1.6804	0.2041	-0.3182	-0.3482	0.5939	1.9821	9.738	-4.6812	1.4325	-0.4459	0.2609	-0.6133	-1.9368	9.5864	0.2123	-1.1816	-6.7387	8.2185	-48.8654	-1.3463	0.5039	0.6682
1.534	0.6848	9.6059	-2.1773	-5.2976	-1.4113	0.1921	-0.3302	-0.3542	0.5364	1.4099	9.6762	-4.9345	1.1284	-0.112	0.2452	-0.5377	-1.9043	9.3624	0.5003	-0.9517	-10.7016	8.0386	-47.4346	-1.2248	0.5422	0.6299
1.4162	0.8572	9.4858	-1.9843	-4.9384	-1.3529	0.2101	-0.3242	-0.3422	0.6531	1.8104	9.7982	-5.0964	0.6415	-0.4916	0.2609	-0.6133	-1.9368	9.3068	0.2712	-0.8953	-14.6693	7.8027	-47.6395	-1.2593	0.5229	0.6495
1.8229	0.9144	9.6711	-1.5592	-5.2623	-1.4261	0.2041	-0.3302	-0.3302	0.6395	2.0381	9.1451	-3.9248	0.7141	-0.5809	0.2315	-0.5741	-1.9386	9.1311	0.328	-1.1319	-18.402	7.6244	-46.8299	-1.2934	0.4666	0.6911
1.7612	0.6839	9.433	-1.0041	-4.8585	-1.7119	0.2101	-0.3422	-0.3302	0.3023	1.868	9.5535	-3.3359	0.829	-1.072	0.2598	-0.5565	-1.9213	9.4731	0.4422	-1.1247	-22.098	7.2912	-45.8405	-1.3126	0.5115	0.5955
1.1835	1.4324	9.4236	-1.1895	-4.6678	-1.8283	0.2221	-0.3422	-0.3482	0.9925	2.0379	9.5087	-4.4077	1.1537	-0.9445	0.2154	-0.4969	-1.9418	9.538	0.5583	-0.7146	-26.3318	6.8393	-45.7996	-1.329	0.4882	0.652
1.7564	0.8559	9.197	-0.9516	-5.1062	-1.8976	0.2041	-0.3302	-0.3362	0.4181	2.154	9.6159	-4.1533	1.5493	-1.1223	0.2602	-0.5757	-1.9205	8.9095	0.559	-0.7856	-30.6432	6.8515	-46.1756	-1.2769	0.4898	0.6346
1.991	1.086	9.4385	-1.3769	-4.9958	-1.7036	0.1981	-0.3302	-0.3482	0.6521	1.7531	9.7387	-4.025	1.7932	-1.2413	0.2598	-0.5565	-1.9213	9.5916	0.5575	-0.8885	-34.8162	7.2251	-44.1698	-1.3109	0.4335	0.6762
1.8191	0.5114	9.4337	-1.3639	-4.7199	-1.3973	0.1921	-0.3302	-0.3602	0.4195	1.5817	9.6147	-4.2072	1.9493	-1.1153	0.2597	-0.5557	-1.9391	9.3607	0.0984	-1.0699	-36.8952	6.5096	-40.6954	-1.3298	0.5272	0.6117
1.5907	0.627	9.5477	-1.5423	-4.0707	-1.5417	0.2041	-0.3302	-0.3242	0.3612	1.868	9.6141	-3.3011	2.6102	-1.3181	0.2454	-0.5553	-1.9392	9.4227	0.6156	-0.7751	-40.8123	6.041	-35.9748	-1.2769	0.4391	0.6219
1.6952	0.9705	9.0189	-1.8454	-3.9352	-1.4115	0.2041	-0.3242	-0.3542	0.3623	1.8681	9.6736	-4.684	2.7562	-1.2253	0.2602	-0.5918	-1.9912	9.6425	0.7859	-1.1784	-40.9439	5.7875	-33.8212	-1.2944	0.4899	0.6343
1.8334	0.6856	10.2025	-1.9577	-3.7153	-1.133	0.1981	-0.3242	-0.3422	0.8742	1.8089	9.3276	-4.2193	2.872	-1.4386	0.2741	-0.5569	-1.9211	9.5939	1.2465	-0.711	-44.4988	4.9067	-35.1011	-1.2589	0.402	0.6442
1.4696	0.7415	9.2502	-2.0856	-3.9241	-1.1616	0.1801	-0.3242	-0.3362	0.6528	1.9249	9.7984	-5.2683	2.7067	-1.6904	0.2883	-0.5566	-1.9389	8.5366	1.999	0.6705	-35.1736	-0.5345	-28.4751	-1.2769	0.4898	0.6346
1.8832	0.6846	9.7899	-2.0242	-3.8963	-1.1934	0.2041	-0.3302	-0.3422	0.5338	1.982	9.6179	-4.2527	2.5993	-2.1539	0.2738	-0.5385	-1.9041	8.9707	0.0433	-0.6112	-22.4493	-0.7015	11.4329	-1.2768	0.4216	0.6237
1.7649	0.5119	9.6099	-1.897	-3.3824	-1.3766	0.2101	-0.3302	-0.3422	0.5337	1.5241	9.5576	-3.5154	2.4952	-2.278	0.2456	-0.5568	-1.9035	9.8783	1.0164	-0.7645	-21.4521	-3.3383	6.3751	-1.2941	0.4373	0.6399
1.8805	0.9143	9.6723	-1.5365	-2.9414	-2.0235	0.1921	-0.3182	-0.3362	1.113	1.8664	9.7484	-3.9471	2.4115	-2.5273	0.2873	-0.5006	-1.9055	9.9859	0.7855	-1.1131	-29.1152	-1.5234	-4.9484	-1.2768	0.4723	0.6365
1.9336	0.9711	9.4371	-1.7355	-2.1725	-2.9904	0.2101	-0.3242	-0.3362	0.3068	1.4678	9.731	-2.876	2.086	-2.4695	0.2459	-0.5753	-1.9206	9.8166	0.3271	-1.0599	-26.1354	-1.3969	-8.1178	-1.2594	0.439	0.6221
2.1079	0.7984	9.4992	-1.4434	-1.8211	-3.8191	0.2041	-0.3242	-0.3482	0.4134	1.6384	9.3178	-3.8603	2.1034	-2.6253	0.2585	-0.4989	-1.9236	9.5889	0.7866	-1.0044	-26.3926	-1.0391	-4.3108	-1.2413	0.4175	0.6609
1.768	0.6273	9.7875	-0.9296	-1.1426	-4.6513	0.2101	-0.3182	-0.3362	0.532	1.7529	9.4986	-3.6444	2.1003	-2.7485	0.3021	-0.5371	-1.9574	8.9588	1.074	-1.1327	-30.3367	-0.6189	-7.1177	-1.312	0.4062	0.6067
1.9318	0.7408	9.3183	-0.4308	0.2711	-5.3569	0.2161	-0.3302	-0.3302	0.6433	1.924	9.3231	-5.1917	1.6964	-2.6658	0.2727	-0.4986	-1.9413	9.6559	1.0178	-0.4773	-29.2845	-0.9574	-8.0732	-1.2417	0.437	0.6408
1.8107	0.8553	9.0208	0.1731	2.0788	-5.8493	0.2101	-0.3302	-0.3362	0.6461	1.7525	9.4416	-5.5629	1.5504	-2.947	0.2874	-0.5175	-1.9583	9.4792	0.9597	-0.7727	-30.8882	-1.1801	-4.8415	-1.242	0.4389	0.6224
1.6477	0.9719	9.5497	-0.0877	2.8854	-5.7163	0.1861	-0.3242	-0.3422	0.703	1.5806	9.383	-6.1801	1.4089	-3.2903	0.2879	-0.5374	-1.9397	9.2019	1.019	-0.3697	-32.0888	-1.6723	-4.2767	-1.312	0.4569	0.6194
1.6507	0.5122	9.6668	0.4346	3.5695	-5.115	0.2101	-0.3242	-0.3362	0.5371	2.0968	9.7964	-5.4828	0.8144	-3.4541	0.273	-0.517	-1.9584	9.2006	1.1335	-0.4276	-34.437	-2.2203	-4.5845	-1.2425	0.4252	0.5877
1.8823	0.5694	9.7305	0.4965	4.4563	-4.5318	0.1981	-0.3302	-0.3362	0.5913	1.5812	9.5589	-5.5524	0.3859	-3.4928	0.2736	-0.537	-1.9398	8.9711	1.2484	-0.4901	-35.3359	-3.4509	-4.6941	-1.2946	0.4236	0.6051
1.4119	0.7416	9.2491	0.1191	4.9332	-3.9402	0.2161	-0.3122	-0.3482	0.3029	2.0971	9.6134	-5.067	0.0992	-3.0029	0.2879	-0.5374	-1.9397	9.0228	1.0178	-0.7816	-35.9157	-4.4738	-2.6464	-1.2939	0.4529	0.6563
1.5263	1.2589	9.2526	0.4707	5.1949	-3.6727	0.2101	-0.3182	-0.3362	0.4771	1.5816	9.6159	-4.8909	-0.334	-2.9177	0.2299	-0.4981	-1.9238	9.3043	1.1888	-0.9503	-37.5159	-5.5844	-1.259	-1.2941	0.488	0.6526
1.7642	0.9143	9.6109	1.0726	5.9957	-3.6218	0.2041	-0.3062	-0.3422	0.5421	1.5249	9.9735	-3.8475	-0.4454	-2.5781	0.2877	-0.5197	-1.9047	9.1359	0.9027	-0.8381	-38.5097	-6.4499	0.1233	-1.2589	0.4527	0.6569
1.7676	0.8572	9.7881	1.2241	7.7934	-3.7066	0.1981	-0.3302	-0.3482	0.4755	1.7531	9.5569	-2.097	-0.7197	-2.827	0.2745	-0.5761	-1.9204	9.3711	1.4774	-0.4229	-39.3497	-7.5312	1.4038	-1.2416	0.4702	0.6554
1.7585	0.9136	9.3154	1.6425	8.9988	-3.8319	0.2041	-0.3242	-0.3482	0.1894	1.3533	9.6095	-2.421	-1.5437	-2.7187	0.3029	-0.5754	-1.9559	9.4824	1.075	-0.5972	-39.3966	-8.4299	2.7971	-1.294	0.4705	0.6545
1.6639	0.6864	10.3765	2.178	9.7711	-3.932	0.2041	-0.3182	-0.3362	1.1613	1.8081	9.2741	-1.4751	-1.9295	-2.4151	0.2311	-0.5557	-1.9215	9.3676	0.0996	-0.7197	-39.3202	-9.2891	1.5072	-1.2767	0.4547	0.6383
1.814	0.8558	9.1982	2.6093	10.058	-4.1543	0.2101	-0.3302	-0.3302	0.4179	1.7533	9.5557	0.5608	-1.6884	-2.2837	0.2882	-0.5558	-1.9567	9.9955	0.443	-0.6475	-39.2382	-9.217	-1.6366	-1.2767	0.4547	0.6383
1.7062	1.0869	9.6102	2.4177	9.4855	-4.031	0.2041	-0.3242	-0.3422	-0.0384	1.6976	9.7837	0.7463	-1.7205	-2.6855	0.3019	-0.5194	-1.9225	10.0498	1.4753	-0.701	-38.2384	-9.2706	-4.7715	-1.2593	0.4722	0.6367
1.9437	0.9723	9.969	2.8026	8.6128	-4.1064	0.2041	-0.3422	-0.3422	0.5948	1.5815	9.7371	0.0973	-1.7428	-2.0693	0.2589	-0.5181	-1.9228	9.8842	0.9027	-0.4731	-37.0866	-8.74	-7.5229	-1.3125	0.4939	0.5974
1.2496	0.5132	9.7771	3.1411	7.8053	-3.6617	0.2161	-0.3362	-0.3542	0.1915	1.9832	9.7891	0.3763	-1.6551	-2.1599	0.2878	-0.5205	-1.8868	10.2878	1.0177	-0.2313	-36.0141	-8.5234	-8.5554	-1.2764	0.4021	0.6439
1.6507	0.5122	9.6668	3.5707	6.9633	-3.2499	0.2161	-0.3302	-0.3482	0.7192	1.7539	10.2152	0.0069	-1.679	-2.2845	0.245	-0.5369	-1.9221	10.287	0.788	-0.2904	-34.8999	-8.4624	-9.1924	-1.3293	0.4394	0.621
1.4706	0.7992	9.3095	3.6293	6.1367	-2.8595	0.2101	-0.3362	-0.3362	0.3088	1.6397	9.8502	-1.5923	-1.6205	-2.4098	0.3018	-0.5186	-1.9403	10.0045	0.5594	-0.1803	-33.7603	-8.0623	-9.8203	-1.3114	0.4706	0.6542
1.5313	0.972	9.4883	3.2284	5.1774	-2.2451	0.1921	-0.3362	-0.3482	0.6472	1.8098	9.5011	-1.1601	-1.5061	-2.1599	0.2733	-0.5186	-1.9227	10.2326	0.5591	-0.1757	-32.8556	-8.0014	-10.2683	-1.2769	0.4391	0.6219
1.2462	1.1454	9.6605	2.7217	4.0374	-1.9953	0.2221	-0.3482	-0.3422	0.1816	1.6388	9.2536	-1.5611	-1.5604	-2.2234	0.2733	-0.5355	-1.9755	10.7517	0.5019	0.1262	-31.9978	-7.8811	-10.0354	-1.2943	0.4724	0.6362
1.2461	0.5703	9.6	1.791	3.1299	-1.5813	0.2101	-0.3362	-0.3362	0.7118	1.8676	9.8589	-2.4807	-1.3905	-2.4073	0.2306	-0.5357	-1.9401	10.2927	0.789	0.0013	-30.9174	-8.0087	-9.5674	-1.2765	0.4704	0.6548
1.4786	0.7426	9.7231	1.15	2.3341	-0.8077	0.2101	-0.3362	-0.3542	0.879	1.8094	9.5653	-1.4275	-1.0702	-2.5233	0.2587	-0.5166	-1.9585	9.832	0.7316	-0.2414	-30.5176	-8.5023	-9.7744	-1.2941	0.4373	0.6399
1.8754	0.6261	9.376	1.6092	3.2342	-0.3866	0.2041	-0.3362	-0.3362	0.3542	1.8101	9.2575	-1.3937	-0.9171	-2.5514	0.259	-0.5189	-1.9049	9.8282	0.9604	-0.4157	-29.9257	-8.7825	-9.4243	-1.3293	0.4394	0.621
1.9437	0.9723	9.969	1.6648	4.6389	-0.3494	0.2041	-0.3302	-0.3422	0.883	2.096	9.8035	-2.5585	-0.6517	-2.5486	0.3165	-0.5383	-1.9394	9.4916	0.3308	-0.1914	-29.3857	-8.2595	-9.4818	-1.2939	0.4529	0.6563
2.1682	0.5686	9.6179	2.0529	5.876	-0.4737	0.2101	-0.3542	-0.3422	0.5854	2.0386	9.3221	-1.9971	-0.2622	-2.5098	0.2603	-0.5765	-1.9026	8.9682	0.9609	-0.6662	-28.1545	-6.1325	-10.2781	-1.3111	0.4179	0.6598
1.4848	1.0309	10.0784	2.5305	6.5294	-0.3595	0.2161	-0.3302	-0.3362	0.5391	1.2956	9.7948	-1.1585	0.1227	-2.5324	0.2589	-0.5181	-1.9228	9.1378	1.1325	-0.7205	-27.0624	-3.7612	-10.2938	-1.312	0.4569	0.6194
1.6488	0.972	9.6088	2.7568	6.3384	0.122	0.2101	-0.3302	-0.3422	0.7125	1.5815	9.8584	-1.5862	0.2838	-2.592	0.2726	-0.4979	-1.9592	9.2611	1.0766	-0.2516	-26.2494	-2.1668	-8.2917	-1.2763	0.4353	0.6585
1.4229	0.9155	9.8406	3.2697	6.7164	0.5693	0.2221	-0.3362	-0.3362	0.4201	1.8107	9.6746	-0.1633	0.7183	-2.1803	0.2739	-0.5554	-1.9569	9.6017	0.6741	-0.3629	-25.8736	-1.7693	-7.5788	-1.3632	0.4163	0.6772
1.536	0.8575	9.7245	4.5186	7.9781	0.2716	0.2161	-0.3302	-0.3482	0.4762	1.467	9.5563	-0.8639	1.0689	-2.3915	0.2733	-0.5186	-1.9227	9.7149	1.1902	-0.3588	-25.1302	-1.5268	-6.9086	-1.2771	0.4742	0.6181
1.5317	1.3745	9.5484	6.1697	9.4366	-0.1262	0.2281	-0.3362	-0.3242	0.8281	1.4667	9.8605	-0.905	0.6373	-1.8124	0.2448	-0.5354	-1.9579	9.552	1.0772	0.0459	-25.008	-1.8086	-5.7168	-1.2938	0.4354	0.6582
1.416	0.9722	9.4861	7.8257	11.4753	-0.7039	0.2101	-0.3302	-0.3422	0.3062	1.7539	9.7316	0.3623	0.9824	-1.4026	0.259	-0.5189	-1.9049	9.433	1.306	-0.189	-24.2129	-1.9386	-4.3493	-1.3118	0.4725	0.6359
1.7135	0.8003	9.9641	9.364	13.3672	-0.9745	0.2041	-0.3362	-0.3422	0.4105	1.867	9.1994	0.0243	0.9587	-1.7124	0.2448	-0.5354	-1.9579	9.204	1.1341	-0.2526	-23.316	-2.3472	-2.7143	-1.2595	0.4566	0.6203
1.482	1.3181	9.9609	10.8371	15.3528	-1.4259	0.2041	-0.3362	-0.3362	0.5286	1.6953	9.3202	-2.085	0.2246	-1.1424	0.2162	-0.5345	-1.9581	9.6041	0.5598	-0.2466	-22.5559	-2.261	-1.4015	-1.3287	0.4863	0.6704
1.4733	1.1445	9.4876	9.9942	15.4477	-1.8015	0.2221	-0.3302	-0.3302	0.765	1.2374	9.5618	-2.0114	-0.5791	-0.1683	0.2585	-0.4989	-1.9236	9.4864	1.4774	-0.3623	-21.5587	-2.1744	-0.4017	-1.3123	0.5095	0.6138
0.9578	1.2609	9.6551	8.0677	12.9592	-1.7994	0.2221	-0.3182	-0.3422	0.6497	1.7528	9.6198	-0.5833	-1.4953	0.1885	0.2311	-0.5557	-1.9215	9.375	1.1912	-0.2489	-20.5667	-1.6871	0.6404	-1.2768	0.4723	0.6365
1.7669	1.2597	9.789	9.0368	12.0359	-0.8216	0.2281	-0.3482	-0.3362	0.5344	1.7531	9.6175	0.3211	-2.3133	1.1947	0.2736	-0.537	-1.9398	9.3111	1.19	-0.6002	-19.6558	-1.0428	0.8872	-1.2764	0.4528	0.6566
1.4726	0.9144	9.428	9.7356	13.3824	-0.9529	0.2101	-0.3362	-0.3542	0.3682	1.4107	9.9103	1.6773	-2.1838	1.4156	0.2302	-0.5165	-1.9409	9.0298	0.9617	-0.4317	-18.3106	-0.0623	1.6897	-1.2425	0.476	0.6004
1.5868	0.9141	9.3711	10.2235	14.0627	-1.6015	0.2221	-0.3482	-0.3362	0.5346	1.1807	9.5569	3.4707	-1.7841	1.3023	0.2452	-0.5546	-1.9571	9.5971	1.4192	-0.5353	-17.4534	0.5502	2.2449	-1.2943	0.4724	0.6362
1.1292	0.8578	9.5393	10.7214	13.7023	-2.3783	0.2161	-0.3422	-0.3362	0.8783	1.5804	9.5054	2.9201	-1.7108	0.7158	0.2598	-0.5565	-1.9213	9.3659	1.1895	-0.7158	-16.7168	0.9783	2.7356	-1.3287	0.4863	0.6704
1.1365	1.1463	9.9537	10.2492	12.775	-2.1281	0.2221	-0.3302	-0.3302	1.1076	1.6369	9.4508	3.2943	-1.5012	0.4731	0.2449	-0.5361	-1.94	9.0769	1.4188	-0.8957	-16.0612	1.159	3.5291	-1.2765	0.4704	0.6548
1.4717	1.4319	9.4292	10.5645	12.2747	-1.5896	0.2221	-0.3362	-0.3422	0.7068	1.4664	9.561	3.5044	-1.7211	0.8093	0.246	-0.576	-1.9027	9.371	0.8462	-0.4836	-15.3816	1.4021	4.0773	-1.2596	0.4741	0.6184
1.5363	1.3176	9.7847	11.299	13.3154	-1.3574	0.2342	-0.3362	-0.3482	0.4811	1.4102	9.7938	3.4932	-2.3644	0.5198	0.2449	-0.5361	-1.94	9.485	1.5919	-0.4202	-15.0615	1.2144	4.6204	-1.2418	0.4545	0.6389
1.421	1.3178	9.7824	12.2957	15.2015	-1.0962	0.2161	-0.3422	-0.3482	0.4831	1.5821	9.913	5.0214	-2.763	1.4728	0.3031	-0.5762	-1.938	9.6445	1.0157	-1.0608	-14.5252	0.9336	5.2181	-1.242	0.4897	0.6352
1.3561	0.972	9.3668	14.3674	17.7436	-1.4675	0.2221	-0.3362	-0.3422	1.0498	1.6943	9.4498	6.4677	-2.9377	0.6692	0.2301	-0.5158	-1.9587	9.4894	1.0189	-0.2473	-13.8931	0.4981	5.902	-1.2771	0.4742	0.6181
1.3645	0.6855	9.7798	17.8759	21.6618	-2.1099	0.2161	-0.3542	-0.3302	0.8813	1.3517	9.6238	7.2053	-3.1314	-0.0433	0.2589	-0.5181	-1.9228	10.0528	1.7627	-0.5249	-13.3484	-0.0301	6.7083	-1.2764	0.4528	0.6566
1.4816	0.9155	9.9008	21.2947	25.305	-3.6059	0.2221	-0.3422	-0.3422	0.8776	1.8665	9.506	7.6643	-3.3222	-0.3239	0.2461	-0.5768	-1.8849	9.5865	0.8435	-1.1209	-12.6366	-0.4948	6.8349	-1.2946	0.4743	0.6178
0.8477	1.5492	9.9491	19.42	23.362	-4.3036	0.2221	-0.3422	-0.3242	0.8759	1.5801	9.3866	8.151	-3.7274	-0.8553	0.2455	-0.5561	-1.9214	9.5918	1.1314	-0.8281	-11.5178	-0.6545	7.6402	-1.2242	0.4876	0.6538
0.9048	1.8366	9.9509	15.7603	17.8079	-1.4095	0.2342	-0.3542	-0.3482	0.4711	2.0962	9.3793	8.984	-3.5589	-0.4803	0.2595	-0.5381	-1.9042	9.2483	1.2464	-0.8929	-10.0733	-0.8443	7.9758	-1.2422	0.474	0.6187
0.7887	1.0316	9.8285	13.7829	15.6986	1.0059	0.2342	-0.3482	-0.3422	0.5332	1.753	9.558	11.7614	-3.2065	-0.6236	0.2594	-0.5373	-1.922	9.3647	1.1893	-0.7741	-8.9386	-0.848	8.2304	-1.3121	0.4744	0.6175
1.2502	1.4334	9.8976	14.5706	16.5832	1.0223	0.2221	-0.3482	-0.3422	0.5287	1.6381	9.3201	7.9775	-3.0209	-0.2253	0.245	-0.5369	-1.9221	9.6036	1.65	-0.1843	-7.9064	-0.6653	8.1226	-1.2591	0.4878	0.6532
0.7862	1.1463	9.7106	15.3878	17.5838	-0.212	0.2402	-0.3542	-0.3362	0.8769	1.6947	9.4462	5.5519	-2.7633	-0.5647	0.2597	-0.5557	-1.9391	9.1484	0.9623	-0.196	-6.7508	-0.2062	8.2667	-1.2773	0.4586	0.6017
1.0147	1.0307	9.5966	16.441	18.8215	-0.8711	0.2462	-0.3422	-0.3422	0.7117	1.4097	9.7986	5.9264	-2.4034	-0.0635	0.2322	-0.5955	-1.8842	9.6557	1.1325	-0.4768	-5.6469	0.1285	8.7473	-1.3292	0.4726	0.6356
0.8457	1.3765	9.8305	17.7475	20.4814	-0.4358	0.2342	-0.3482	-0.3362	0.4709	1.6954	9.3191	5.8433	-1.9708	-0.3647	0.2457	-0.5737	-1.9563	9.2519	1.1323	-0.7183	-4.6762	0.3991	10.0611	-1.3119	0.49	0.634
0.3091	3.2154	9.0564	-5.306	-0.6283	8.9419	0.2462	-0.3482	-0.3542	0.12	1.8103	9.0745	4.9898	-1.5266	-0.3274	0.2309	-0.5541	-1.9572	9.535	1.0168	-0.8297	-4.1727	0.2725	10.6638	-1.295	0.4938	0.5977
1.4304	1.7215	10.3154	3.3279	8.4496	6.13	0.2462	-0.3362	-0.3482	0.5283	1.8098	9.3205	4.6536	-1.3981	-0.3257	0.2177	-0.5936	-1.9201	9.8837	1.2469	-0.4718	-3.7521	-0.1628	11.4444	-1.3123	0.5095	0.6138
0.9641	1.4917	10.0103	-0.6811	7.9633	3.3266	0.2221	-0.3362	-0.3362	0.9904	1.9232	9.3896	4.1907	-1.3918	0.0442	0.2733	-0.5186	-1.9227	10.3995	1.0744	-0.3455	-3.5081	-1.2493	13.4428	-1.2767	0.5055	0.651
0.3767	1.4338	9.4079	6.0491	7.7736	3.2533	0.2402	-0.3602	-0.3362	0.8753	1.8663	9.3871	3.2605	-1.7443	0.0363	0.2751	-0.5961	-1.9017	10.2921	0.4447	-0.0583	-3.6128	-2.4559	14.7667	-1.2428	0.5286	0.5948
0.6641	1.2032	9.3538	-1.2339	7.7428	3.5828	0.2462	-0.3662	-0.3362	0.7596	1.5231	9.3247	6.5887	-1.6453	-0.4812	0.2037	-0.5955	-1.8666	10.1156	1.0177	-0.293	-3.9386	-4.6497	16.4366	-1.2243	0.5052	0.6519
0.7862	1.1463	9.7106	2.1021	6.7448	3.0383	0.2522	-0.3542	-0.3362	0.877	1.6375	9.4461	5.5737	-1.5974	-0.4512	0.2604	-0.5934	-1.9554	10.2822	0.9593	-0.5232	-3.2512	-6.5703	18.5872	-1.2773	0.5093	0.6144
1.1323	1.6058	9.7775	0.7002	6.649	2.6753	0.2522	-0.3482	-0.3422	0.534	2.3828	9.6782	2.6513	-1.4865	-0.3925	0.2603	-0.5765	-1.9026	9.9501	1.0764	-0.0045	-2.0917	-7.1008	19.5968	-1.3296	0.5428	0.6281
0.4408	1.607	9.764	1.0568	5.9304	2.6015	0.2402	-0.3482	-0.3482	1.0511	2.1524	9.5695	3.5844	-0.9504	-0.2269	0.2319	-0.5933	-1.9378	9.2578	1.0187	-0.4269	0.347	-6.5576	21.2587	-1.3288	0.5038	0.6685
0.7864	1.6639	9.7709	0.8313	5.5723	2.4829	0.2402	-0.3542	-0.3422	0.5226	2.2099	9.0836	2.6388	-0.4742	-0.1274	0.2454	-0.5553	-1.9392	9.5386	0.9027	-0.655	1.9543	-5.8881	22.6635	-1.2592	0.5054	0.6513
0.6085	1.3186	9.4712	1.3396	4.9385	2.2533	0.2342	-0.3542	-0.3482	0.7647	1.867	9.6224	0.5187	-0.2241	0.0896	0.2452	-0.5546	-1.9571	9.6035	0.9614	-0.2452	2.8287	-5.8934	23.5705	-1.3289	0.5214	0.6666
0.5558	1.0892	9.7059	1.3757	4.8111	1.3975	0.2342	-0.3602	-0.3482	0.821	1.924	9.5643	0.5561	0.1431	0.2197	0.231	-0.5549	-1.9393	9.7104	1.1894	-0.5922	3.6675	-6.7329	25.04	-1.2769	0.5406	0.6473
0.7371	1.435	10.183	1.1105	4.1788	1.1258	0.2402	-0.3542	-0.3302	1.047	1.8658	9.3313	1.115	0.3796	0.1323	0.246	-0.5922	-1.9734	9.7095	1.0171	-0.6512	4.6723	-7.355	25.8959	-1.2938	0.5368	0.6837
0.665	1.3758	9.4134	1.2779	4.0166	0.5717	0.2462	-0.3482	-0.3542	0.9251	2.1516	9.0324	1.0882	0.6249	0.3219	0.2738	-0.5385	-1.9041	9.6525	0.9598	-0.6525	6.1968	-6.9588	26.1233	-1.2952	0.5796	0.6067
0.7809	1.6057	9.4753	1.5165	3.6698	0.4723	0.2462	-0.3602	-0.3482	0.7095	1.3522	9.6796	0.2891	0.6997	0.3527	0.2454	-0.5553	-1.9392	9.4824	1.075	-0.5972	7.8523	-5.7599	25.9395	-1.3291	0.5058	0.6502
0.9008	1.5486	9.7138	1.837	3.1349	0.0954	0.2402	-0.3542	-0.3542	0.592	1.753	9.6187	0.1041	0.7324	0.6309	0.1885	-0.5728	-1.9389	9.1383	1.5916	-0.6605	10.5598	-4.3506	26.5728	-1.2768	0.523	0.6492
0.6712	1.0315	9.708	1.6837	2.8974	0.2808	0.2462	-0.3602	-0.3482	0.9862	2.209	9.212	0.7206	0.7531	0.5088	0.2607	-0.6118	-1.9725	8.6305	0.9623	-0.4397	12.1981	-2.4463	27.4882	-1.3291	0.5058	0.6502
0.7136	2.0072	9.0023	1.6432	2.5316	0.1576	0.2462	-0.3602	-0.3362	0.6477	2.0961	9.5611	0.7527	0.8742	0.789	0.2309	-0.5541	-1.9572	9.0812	0.9032	-0.7225	15.212	-0.2644	27.3362	-1.3117	0.5232	0.6486
0.8918	1.5475	9.241	1.3322	2.3002	0.2249	0.2462	-0.3482	-0.3482	0.6464	2.6112	9.5622	-0.6994	0.592	0.7506	0.2328	-0.6324	-1.9184	8.6777	0.6735	-0.9648	16.7555	1.5791	28.0668	-1.3125	0.5446	0.6101
0.7835	2.0661	9.6537	0.9882	2.0394	0.2318	0.2402	-0.3362	-0.3362	0.9975	2.4391	9.8066	0.6273	0.7836	0.9416	0.2456	-0.5568	-1.9035	9.4812	0.3863	-0.7164	18.0472	2.3125	29.0481	-1.2944	0.5914	0.6598
0.4919	1.4911	9.4103	0.4279	1.7265	0.2741	0.2281	-0.3662	-0.3542	0.6982	2.0953	9.2058	0.6557	0.6603	0.9395	0.2604	-0.5934	-1.9554	9.5964	0.3863	-0.6557	18.6519	1.8458	29.8549	-1.2596	0.5756	0.6439
0.7271	1.3763	9.6509	-0.2806	1.7259	0.3523	0.2582	-0.3302	-0.3482	0.6482	1.8672	9.5607	-1.1631	0.5675	1.1509	0.2313	-0.5733	-1.9564	9.479	0.3285	-0.8333	18.4082	1.0112	30.668	-1.2771	0.5757	0.6436
0.6664	1.836	9.5327	-0.6908	1.6501	0.0873	0.2522	-0.3422	-0.3542	0.815	1.9807	9.2673	0.1545	0.2382	1.1164	0.2318	-0.5925	-1.9557	9.1963	0.2146	-0.7227	19.0327	0.4846	30.9487	-1.311	0.5525	0.6998
0.4985	1.5494	9.765	-1.493	1.6837	0.107	0.2522	-0.3542	-0.3242	0.7044	1.9814	9.5027	0.7351	-0.0166	0.9584	0.2456	-0.5568	-1.9035	9.5438	0.5019	-0.4231	19.981	0.6971	31.2132	-1.2768	0.6245	0.6746
0.7866	1.5489	9.7706	-1.9966	1.6118	-0.1862	0.2462	-0.3542	-0.3362	0.7013	1.8094	9.324	0.6125	0.0761	1.2996	0.2471	-0.6321	-1.9362	8.9096	0.4443	-0.786	21.4466	1.5852	31.8873	-1.3299	0.5954	0.6225
0.7868	1.4914	9.7705	-1.9437	1.3337	-0.3416	0.2342	-0.3482	-0.3542	0.6441	2.0958	9.3829	0.7362	0.1047	1.3003	0.2466	-0.6129	-1.9369	9.019	0.558	-1.0167	22.7673	3.0923	31.9655	-1.2596	0.5756	0.6439
0.7768	1.3752	9.2383	-1.9161	1.2405	-0.4039	0.2281	-0.3602	-0.3302	0.8229	1.638	9.6232	0.1545	0.2983	1.4263	0.2319	-0.5933	-1.9378	8.9116	-0.0718	-0.7295	24.5651	4.1031	32.5748	-1.3292	0.574	0.661
0.505	1.6653	10.1199	-1.975	1.0604	-0.1899	0.2342	-0.3602	-0.3422	0.7632	1.9814	9.5633	-0.4119	1.2599	1.3807	0.2463	-0.5945	-1.9198	8.9654	0.5014	-0.843	25.9284	4.9316	32.7253	-1.2943	0.5738	0.6616
0.7812	1.4332	9.4748	-2.0036	1.0009	-0.0675	0.2582	-0.3482	-0.3422	0.8822	1.9242	9.7438	-1.9127	1.7141	1.6642	0.2325	-0.614	-1.9013	8.9658	0.2719	-0.8438	27.4415	5.8523	32.8138	-1.2952	0.6304	0.6194
0.841	1.4909	9.5943	-2.0061	1.0006	-0.159	0.2522	-0.3662	-0.3542	0.6426	2.2101	9.3237	-2.5227	2.0611	1.9164	0.2325	-0.614	-1.9013	9.4779	0.2709	-0.8919	28.6681	6.6219	32.2565	-1.2947	0.5933	0.6414
0.6732	1.1468	9.8265	-2.2088	1.1027	0.2736	0.2342	-0.3602	-0.3662	0.6509	1.753	9.6793	-3.3561	1.8923	1.6339	0.2615	-0.6333	-1.9182	9.3145	-0.2438	-0.547	29.9251	7.3913	31.6986	-1.3128	0.648	0.6172
0.9048	1.8366	9.9509	-2.3912	1.1717	0.3395	0.2522	-0.3662	-0.3482	0.8191	1.7521	9.4451	-2.9058	1.391	2.1817	0.2471	-0.6321	-1.9362	9.873	-0.0174	-1.1183	31.0932	8.0376	31.1698	-1.2951	0.6128	0.6212
0.7298	1.0891	9.7684	-2.2272	1.4409	0.5201	0.2462	-0.3542	-0.3482	1.2258	1.408	9.5716	-1.2345	0.2269	2.1021	0.2176	-0.5928	-1.9379	9.312	-0.1295	-0.6633	32.1367	8.9921	30.7447	-1.2779	0.6654	0.6159
0.8411	1.4334	9.5942	-1.9099	1.5509	0.757	0.2342	-0.3542	-0.3482	0.483	2.0973	9.9735	2.8875	0.0047	1.7656	0.2305	-0.5349	-1.958	9.8205	0.0409	-0.8858	33.0513	10.0095	30.0466	-1.3307	0.6344	0.5822
0.788	1.4341	9.8295	-2.0099	1.7065	0.3943	0.2342	-0.3602	-0.3362	0.592	1.753	9.6187	1.8347	-0.2552	2.0988	0.2306	-0.5357	-1.9401	9.4736	-0.5906	-1.1868	33.5414	10.9968	29.4486	-1.3128	0.648	0.6172
0.6132	1.2041	9.7073	-1.7078	1.6624	0.1731	0.2402	-0.3482	-0.3422	0.6461	1.7525	9.4416	1.4681	-0.0957	2.1628	0.2753	-0.6137	-1.9367	10.1671	-0.59	-0.7062	33.5985	11.4893	29.6156	-1.3298	0.6793	0.6499
0.8395	1.7207	9.5358	-1.744	1.6936	-0.0394	0.2462	-0.3482	-0.3422	0.6414	2.21	9.2642	1.8794	0.5108	2.2979	0.231	-0.5549	-1.9393	10.3965	-0.6475	-0.6435	33.3238	11.367	29.5251	-1.313	0.6324	0.6008
0.668	1.5487	9.5911	-1.5886	1.6568	0.0177	0.2462	-0.3542	-0.3602	0.4143	1.7529	9.3774	-0.3987	0.5487	2.5108	0.2322	-0.5955	-1.8842	10.1728	-0.589	-0.4144	32.9677	11.4326	28.6404	-1.3298	0.6286	0.6371
0.7865	1.6064	9.7708	-1.7026	1.968	0.1748	0.2522	-0.3482	-0.3482	1.0545	2.2099	9.7479	-0.1822	0.6062	2.5431	0.2462	-0.5937	-1.9377	10.0588	-0.5888	-0.4167	33.0435	11.2503	27.8015	-1.3477	0.6482	0.6166
0.6703	1.549	9.7093	-2.0732	1.8615	0.2442	0.2462	-0.3482	-0.3362	0.5971	2.0969	9.9164	1.6673	0.6684	2.1768	0.2168	-0.5552	-1.9216	10.0061	-0.4731	-0.184	32.2912	10.8507	27.9901	-1.3124	0.6968	0.6483
0.7198	1.6629	9.297	-1.8637	2.0653	-0.1258	0.2402	-0.3602	-0.3542	0.7077	2.0962	9.6811	1.0202	0.7084	2.5779	0.2617	-0.6348	-1.8825	9.6022	-0.416	-0.4252	32.0971	10.5099	28.6314	-1.2783	0.6848	0.5958
0.9528	1.5478	9.4194	-1.71	1.8757	-0.0391	0.2522	-0.3542	-0.3542	0.8832	2.0388	9.8034	0.7726	0.5909	2.3283	0.2462	-0.5937	-1.9377	9.7168	-0.7603	-0.4242	31.7842	10.1382	29.3976	-1.313	0.6324	0.6008
0.8396	1.6632	9.5356	-1.6195	1.9021	-0.1327	0.2402	-0.3482	-0.3482	0.7095	1.3522	9.6796	0.7077	0.4079	2.294	0.2463	-0.6106	-1.9905	9.3716	-0.3013	-0.5461	31.3917	10.0155	29.4944	-1.278	0.6829	0.6141
0.8471	1.2041	9.8891	-1.6346	1.5039	-0.4397	0.2522	-0.3542	-0.3302	0.4052	2.0955	8.9622	0.5126	-0.0813	2.5938	0.2604	-0.5934	-1.9554	9.4325	-0.5876	-0.3709	30.1209	9.9864	29.9504	-1.2957	0.6674	0.5973
0.9538	1.6054	9.4786	-1.3883	1.707	-0.597	0.2342	-0.3662	-0.3542	0.8833	1.4664	9.7429	0.1286	-0.8724	2.4555	0.2454	-0.5553	-1.9392	9.3727	-0.2437	-0.4875	28.6456	10.0486	30.8754	-1.2957	0.7181	0.6101
0.735	1.3197	10.0645	-1.4609	1.4644	-0.8407	0.2402	-0.3602	-0.3482	0.8825	1.8098	9.7435	2.5211	-1.3125	2.5136	0.2175	-0.5759	-1.8851	9.4831	-0.8184	-0.7208	26.8723	10.1767	30.7913	-1.3125	0.7143	0.6464
0.5556	1.2042	9.7062	-1.0043	1.3223	-1.0052	0.2462	-0.3542	-0.3302	0.9933	2.2097	9.5685	2.8528	-1.7164	2.2907	0.2737	-0.5377	-1.9219	9.3715	-0.9325	-0.6067	25.0836	10.3379	30.0303	-1.2949	0.6791	0.6504
0.6726	1.4918	9.8274	-0.4516	1.3903	-1.1707	0.2522	-0.3422	-0.3362	0.4238	1.7539	9.8528	3.9526	-2.2249	1.9438	0.2039	-0.6131	-1.9015	9.4383	-0.5865	-0.0792	22.974	10.713	30.0832	-1.313	0.6831	0.6135
0.7842	1.6636	9.6527	-0.2166	1.0736	-1.4223	0.2402	-0.3542	-0.3482	0.4117	1.8672	9.2588	5.0959	-1.9686	2.0739	0.2607	-0.5956	-1.9019	9.7174	-0.4159	-0.3646	21.352	11.2407	30.2232	-1.2964	0.6888	0.5588
0.7838	1.261	9.5926	0.365	0.9265	-1.5288	0.2462	-0.3662	-0.3422	0.6495	1.8101	9.62	3.8899	-2.2552	2.0976	0.2611	-0.6141	-1.919	9.6631	-0.7023	-0.2501	19.8087	11.8009	29.8077	-1.2955	0.683	0.6138
0.7886	1.7217	9.8893	0.9451	0.8403	-1.7265	0.2582	-0.3422	-0.3422	0.7036	1.8096	9.4429	4.4719	-2.3883	2.1889	0.2317	-0.5918	-1.9735	8.9763	-0.5869	-0.3801	18.3381	12.0824	29.7219	-1.2962	0.7044	0.5753
0.7275	1.7789	9.711	1.3366	0.3602	-2.9285	0.2522	-0.3542	-0.3362	0.6499	2.1536	9.6801	3.9735	-2.777	1.7487	0.2612	-0.6148	-1.9011	9.6079	-1.1035	-0.1943	16.2475	12.2131	29.0893	-1.2963	0.6712	0.5607
0.7218	1.2031	9.355	1.5643	-0.4805	-4.2506	0.2522	-0.3482	-0.3242	0.5925	2.0392	9.6787	5.0488	-2.9475	1.4387	0.2332	-0.6347	-1.8648	10.191	-1.2168	0.4586	14.4601	12.0973	28.1972	-1.2787	0.7043	0.5756
0.9106	1.0897	10.1855	2.8069	-1.4558	-5.6592	0.2462	-0.3662	-0.3662	0.8188	1.8665	9.4454	4.6078	-3.4322	1.6455	0.2181	-0.6128	-1.9193	10.2942	-0.8747	-0.063	12.3518	11.8617	26.5067	-1.3136	0.687	0.5769
0.6673	1.3186	9.5314	2.5763	-2.2508	-7.946	0.2462	-0.3662	-0.3542	0.9341	1.8663	9.4477	4.3239	-3.7356	1.9484	0.2039	-0.6131	-1.9015	10.125	-0.6446	0.0511	10.5953	11.9349	24.3865	-1.2439	0.7724	0.587
0.8488	0.9168	9.9476	5.3272	-2.9541	-9.7252	0.2582	-0.3662	-0.3362	0.8822	1.9242	9.7438	4.5571	-4.3853	2.1534	0.1898	-0.6304	-1.9366	10.5835	-0.5875	0.1771	9.2971	12.0377	22.3195	-1.2783	0.7356	0.6085
0.7283	1.3189	9.7099	3.571	-2.8802	-9.5905	0.2522	-0.3422	-0.3602	0.8822	1.9242	9.7438	4.4791	-5.2437	2.1689	0.2466	-0.6129	-1.9369	10.4078	-0.5881	-0.0597	8.1358	12.327	19.6696	-1.331	0.6871	0.5766
0.6186	1.3773	10.0033	3.7157	-2.9136	-8.8011	0.2702	-0.3602	-0.3542	0.6577	1.8681	10.036	7.0684	-5.1625	1.588	0.2611	-0.6141	-1.919	10.3483	-0.4737	-0.1772	6.4723	12.3383	17.5764	-1.2088	0.7546	0.5895
0.2741	1.2631	10.0554	3.3819	-2.528	-7.6926	0.2402	-0.3602	-0.3482	0.9319	2.2668	9.3891	5.6147	-5.5667	1.3929	0.2041	-0.6308	-1.9365	11.1473	-0.8191	-0.1624	4.9304	12.9691	14.5122	-1.2618	0.7413	0.5538
0.5528	2.124	9.6493	3.816	-2.1752	-6.725	0.2402	-0.3482	-0.3242	0.878	2.21	9.5661	6.4379	-6.0099	1.232	0.2335	-0.6531	-1.8819	10.5673	-0.4757	-0.6394	2.6148	13.2605	12.101	-1.2615	0.79	0.5849
0.727	1.4338	9.651	2.9599	-1.3403	-5.7842	0.2342	-0.3542	-0.3542	1.9648	2.321	9.173	4.8322	-7.7961	1.7224	0.2334	-0.6523	-1.8998	11.0861	-0.3607	-0.337	0.8152	13.8587	9.7807	-1.296	0.72	0.5917
0.7944	1.6074	10.1845	3.4136	-0.7154	-5.3951	0.2462	-0.3422	-0.3422	-0.3713	3.188	10.6115	-13.4617	-8.1904	1.6218	0.2034	-0.5932	-1.9202	11.2032	-0.8194	-0.2196	-1.9641	13.9676	6.9728	-1.2613	0.7549	0.5886
0.9596	1.4911	9.7739	3.9467	-0.2788	-5.3751	0.2522	-0.3662	-0.3482	1.1636	1.3504	9.3326	9.9674	-10.0852	-0.3788	0.2044	-0.6492	-1.9536	10.9719	-0.9918	-0.3999	-4.7359	13.9832	4.4394	-1.227	0.7762	0.5507
0.7822	1.5484	9.5342	3.2539	-0.0948	-4.8386	0.2582	-0.3602	-0.3482	1.1012	1.808	9.1541	-4.7083	-11.2185	-0.023	0.2027	-0.5725	-1.9567	11.0215	-0.6489	-0.7476	-7.3112	13.7809	2.3583	-1.2791	0.7745	0.5681
1.2491	2.0083	9.899	2.7178	0.1746	-4.2749	0.2402	-0.3542	-0.3482	0.9968	2.2101	9.7467	2.2265	-10.9639	-0.9947	0.176	-0.6499	-1.9181	10.9668	-0.6484	-0.6321	-10.039	12.9285	1.2171	-1.2792	0.7413	0.5535
0.6098	1.8938	9.5908	2.9401	-0.0519	-5.0442	0.2342	-0.3542	-0.3482	1.5664	2.1508	9.402	3.8295	-10.9579	-1.6095	0.1611	-0.6295	-1.9368	10.6287	-1.1062	-0.4655	-12.6995	12.2948	-0.8747	-1.2794	0.7257	0.5371
0.552	1.9514	9.5898	2.3376	-0.6393	-5.2465	0.2462	-0.3542	-0.3422	0.8132	2.2095	9.2084	-0.4627	-10.1455	-2.1584	0.1899	-0.6473	-1.9894	10.5133	-0.9341	-0.5255	-15.1414	11.2246	-1.6579	-1.2968	0.759	0.5514
0.6667	1.6636	9.5323	0.8836	-1.0061	-5.0912	0.2522	-0.3542	-0.3422	0.6443	2.4965	9.4431	3.4751	-8.8571	-3.2096	0.2334	-0.6523	-1.8998	10.8626	-1.1055	-0.1692	-17.49	9.7541	-2.6394	-1.2966	0.7746	0.5678
0.4984	1.6069	9.7652	1.0422	-1.6878	-5.6481	0.2582	-0.3722	-0.3482	0.8078	2.9531	9.0316	5.9363	-7.3328	-3.3016	0.1763	-0.6522	-1.8645	10.571	-0.6472	-0.465	-19.0763	9.0245	-4.5089	-1.2627	0.7978	0.5116
0.8397	1.6058	9.5355	0.7932	-1.9523	-5.552	0.2522	-0.3602	-0.3422	0.867	2.3234	9.0315	2.6717	-5.6534	-2.5052	0.2323	-0.6125	-1.937	10.5233	-1.5061	-0.0608	-19.6496	8.819	-7.1235	-1.3316	0.7924	0.5654
1.0735	1.6633	9.7174	0.6194	-2.0653	-5.0604	0.2402	-0.3602	-0.3482	0.8026	2.6664	8.734	-0.2397	-3.0922	-1.1057	0.2177	-0.5936	-1.9201	9.8295	-0.5886	-0.4796	-20.2295	9.2911	-9.5645	-1.2615	0.7393	0.5721
0.784	1.7786	9.653	0.9957	-2.0192	-4.8862	0.2642	-0.3482	-0.3422	0.9122	2.0931	8.3786	-2.3432	-0.2654	-0.4103	0.2334	-0.6523	-1.8998	10.1735	-1.0479	-0.4161	-21.0913	9.5759	-11.0805	-1.2625	0.7627	0.5153
1.011	1.2602	9.4198	1.2228	-1.966	-4.5254	0.2522	-0.3602	-0.3362	0.6822	2.3227	8.4338	-5.3981	2.701	0.1623	0.2328	-0.6155	-1.8656	10.353	-0.5302	0.0561	-22.1264	9.7058	-12.2584	-1.2618	0.7413	0.5538
0.78	1.4906	9.4159	1.1622	-1.7497	-4.6142	0.2522	-0.3782	-0.3422	0.7892	2.3216	8.0202	-7.3983	5.8993	-0.2782	0.1758	-0.6322	-1.8831	10.0629	-1.0471	-0.2433	-23.4889	9.1586	-13.5415	-1.3142	0.7923	0.5657
0.7746	1.3749	9.1201	0.7876	-1.7957	-4.7274	0.2582	-0.3662	-0.3422	1.2578	2.2067	8.386	-8.9727	8.7543	-1.0948	0.2035	-0.5939	-1.9023	10.0647	-0.7598	-0.1256	-24.9332	8.3996	-15.9081	-1.3318	0.7592	0.5508
0.6641	1.8358	9.4145	0.3028	-1.7436	-4.4102	0.2522	-0.3422	-0.3422	0.3002	2.2685	9.4949	-9.9634	9.8511	-2.3433	0.2032	-0.5924	-1.938	10.2332	-0.5311	-0.238	-26.5168	7.5773	-17.7187	-1.2798	0.7784	0.5315
1.1246	1.5473	9.3637	0.1814	-1.7687	-4.3159	0.2702	-0.3602	-0.3602	0.7648	2.325	9.6828	-8.5523	9.7015	-1.6949	0.1904	-0.6511	-1.9001	10.4529	-0.992	-0.7019	-28.8774	7.3696	-18.3557	-1.2968	0.759	0.5514
0.3262	1.8373	9.8215	-0.2958	-1.3191	-3.9661	0.2522	-0.3602	-0.3482	0.6607	2.0974	10.2147	-10.6564	9.2439	-1.1817	0.1751	-0.6115	-1.9196	10.0648	-0.8172	-0.1258	-30.8707	6.6994	-19.2599	-1.3139	0.7396	0.5713
0.7221	1.6632	9.4152	-0.2472	-1.0134	-3.508	0.2522	-0.3542	-0.3542	0.7143	2.3258	10.0381	-7.7361	8.8598	-1.9556	0.1889	-0.592	-1.9382	10.0576	-0.589	-0.4751	-32.3993	6.4269	-19.5762	-1.2618	0.7413	0.5538
1.016	1.6059	9.7162	-0.8094	-0.5592	-2.8816	0.2522	-0.3662	-0.3422	0.8395	1.6396	10.4551	-5.5756	7.5034	-2.0996	0.2181	-0.6128	-1.9193	9.7168	-0.7603	-0.4242	-34.0657	6.3416	-20.4702	-1.2787	0.7043	0.5756
0.6818	1.3779	10.2999	-0.8859	-0.0045	-2.6325	0.2462	-0.3542	-0.3542	0.8845	1.9817	9.8627	-2.6211	5.7961	-2.3411	0.2041	-0.6308	-1.9365	10.1756	-0.9327	-0.299	-35.069	6.6558	-21.4585	-1.2609	0.753	0.6069
0.7854	1.6063	9.7117	-0.5149	0.0716	-2.6716	0.2402	-0.3782	-0.3482	0.9406	1.6379	9.7444	-0.9303	4.0481	-2.3693	0.2037	-0.6116	-1.9373	9.6122	-0.9306	0.0397	-35.7039	7.2762	-22.1372	-1.2796	0.7433	0.5352
0.4948	1.7215	9.5881	-0.4402	0.7416	-2.6085	0.2582	-0.3662	-0.3362	0.7687	1.6957	9.8004	0.7557	2.0846	-2.247	0.218	-0.612	-1.9372	9.83	-0.9328	-0.4809	-36.4358	7.9901	-22.9962	-1.2443	0.7412	0.5541
0.6657	1.6059	9.473	-0.2195	0.367	-2.2195	0.2522	-0.3662	-0.3422	0.9379	1.7522	9.6258	1.4085	0.8743	-1.8351	0.1898	-0.6304	-1.9366	9.8293	-1.2198	-0.5403	-36.7562	8.8283	-24.4765	-1.3143	0.7084	0.5383
0.6668	1.6061	9.5321	0.093	0.5375	-2.1956	0.2462	-0.3602	-0.3482	0.6482	2.3824	9.6211	1.2101	0.1712	-1.7553	0.2178	-0.5944	-1.9022	9.3869	-0.5854	0.2115	-36.5508	9.3258	-25.8846	-1.2792	0.7413	0.5535
0.7232	1.6633	9.4743	-0.2165	0.3978	-2.1279	0.2462	-0.3602	-0.3422	0.8177	2.3244	9.4463	2.446	0.3961	-1.8418	0.2323	-0.6125	-1.937	9.6654	-1.3904	-0.1942	-35.834	9.1157	-28.1247	-1.2796	0.7433	0.5352
0.7868	1.4914	9.7705	-0.5008	0.1647	-2.2138	0.2522	-0.3542	-0.3482	0.8135	2.095	9.2082	1.8984	0.743	-1.8057	0.2176	-0.5928	-1.9379	9.7854	-0.8157	0.1603	-34.5402	8.3464	-29.4982	-1.2968	0.7083	0.5386
0.8962	1.6055	9.4775	-0.5151	-0.63	-2.2485	0.2342	-0.3422	-0.3422	0.6388	2.3242	9.1456	-0.0239	1.6355	-1.824	0.2474	-0.6343	-1.8826	9.6112	-1.0455	-0.019	-32.5232	7.2691	-31.5116	-1.2793	0.7589	0.5516
0.3197	1.7215	9.4666	0.3526	-0.7878	-2.057	0.2462	-0.3482	-0.3422	0.6356	2.1522	8.967	-2.0113	2.405	-1.5357	0.2317	-0.5756	-1.9029	9.849	-0.6425	0.5122	-32.7503	6.2567	-32.8309	-1.3138	0.7221	0.5731
1.0138	1.5481	9.5978	0.4308	-1.1898	-2.3358	0.2342	-0.3662	-0.3362	0.6418	1.5803	9.2036	-2.9797	3.2812	-1.5527	0.1888	-0.5912	-1.956	9.6178	-0.8722	0.3317	-32.0481	5.0247	-33.6817	-1.2958	0.6849	0.5955
0.8368	1.9504	9.4181	0.5449	-1.7451	-2.3417	0.2582	-0.3602	-0.3602	0.7615	2.2102	9.5043	-3.5467	4.2122	-1.5988	0.2173	-0.5913	-1.9736	9.6718	-1.1023	0.157	-30.0169	3.9451	-35.0481	-1.2973	0.6946	0.5038
0.553	1.4339	9.5886	0.5381	-2.0509	-2.4043	0.2462	-0.3422	-0.3482	0.8772	2.0382	9.5063	-4.1193	4.8965	-1.4023	0.2174	-0.5921	-1.9558	9.6211	-0.8142	0.507	-28.4847	3.273	-37.9961	-1.3139	0.6889	0.5585
0.7268	1.5487	9.6513	0.842	-2.1864	-2.504	0.2522	-0.3542	-0.3422	0.943	2.0961	9.9236	-3.9467	5.906	-1.2296	0.2179	-0.6113	-1.955	9.6759	-0.8147	0.3914	-26.643	4.2649	-40.9645	-1.2802	0.6964	0.4858
1.074	1.3758	9.7167	0.7248	-2.7953	-3.0233	0.2462	-0.3602	-0.3542	0.4769	2.154	9.6765	-4.7129	6.1029	-1.1347	0.246	-0.576	-1.9027	9.8353	-0.645	-0.1881	-24.5275	4.0782	-42.0296	-1.2972	0.7278	0.5184
0.7268	1.5487	9.6513	1.0624	-3.1148	-2.9113	0.2522	-0.3542	-0.3302	0.3576	1.8676	9.4359	-4.9864	6.2617	-1.2868	0.231	-0.5549	-1.9393	10.135	-0.4132	0.5771	-23.355	4.5607	-39.7268	-1.2093	0.6727	0.5438
0.7789	1.4905	9.3568	0.6482	-3.5265	-3.1171	0.2522	-0.3542	-0.3482	0.8788	1.8666	9.5654	-4.7421	6.2853	-0.6065	0.218	-0.612	-1.9372	9.5558	-0.5861	0.0982	-20.6627	4.7235	-35.1512	-1.2621	0.6925	0.5228
1.189	1.5481	9.7194	1.024	-4.3392	-3.558	0.2522	-0.3542	-0.3422	0.5332	1.753	9.558	-3.7187	6.7574	-0.1948	0.2321	-0.5948	-1.9021	9.3936	-0.4694	0.562	-17.6854	3.8643	-29.439	-1.2972	0.677	0.5057
0.9012	1.3186	9.7132	1.3966	-4.6595	-3.2944	0.2402	-0.3542	-0.3602	0.4175	1.925	9.556	-2.9093	7.3247	0.3418	0.2174	-0.5752	-1.903	9.3897	-0.1259	0.3882	-13.1973	3.5003	-25.4387	-1.2801	0.7296	0.5004
1.1346	1.6061	9.8957	1.6277	-5.0071	-3.6681	0.2462	-0.3602	-0.3542	0.4136	2.5543	9.4385	-2.6155	8.6001	2.4653	0.2461	-0.5929	-1.9556	9.3821	-0.4142	-0.0213	-8.5536	2.6788	-22.9962	-1.3143	0.6577	0.5256
0.6137	0.9742	9.7068	2.0899	-5.2096	-3.589	0.2462	-0.3662	-0.3362	0.6373	2.4386	9.0864	-0.8452	9.1892	1.2434	0.2182	-0.6136	-1.9014	9.5554	-0.3566	0.099	-4.5741	1.8932	-21.5876	-1.3147	0.6771	0.5054
0.6696	1.8939	9.7101	3.2064	-4.9199	-3.6145	0.2342	-0.3662	-0.3542	0.1853	2.0971	9.4922	-5.9239	9.0647	0.3367	0.203	-0.5748	-1.9031	9.4433	-0.184	0.2141	1.3722	1.1928	-19.4759	-1.3139	0.6889	0.5585
0.7245	1.5485	9.5331	3.6309	-5.0304	-3.839	0.2462	-0.3482	-0.3482	0.9403	1.7524	9.7446	-7.8707	8.4883	-0.727	0.1875	-0.5337	-1.9583	9.5487	-0.4726	-0.2515	5.0361	0.0974	-17.3608	-1.3137	0.6538	0.5623
1.0203	2.2965	10.0134	3.9119	-5.4382	-3.4821	0.2462	-0.3482	-0.3482	0.9901	2.0377	9.3899	-7.5442	7.7484	-1.2956	0.26	-0.5742	-1.9562	10.0102	-0.1855	0.0504	7.3685	-0.7811	-14.5964	-1.279	0.6555	0.5445
0.5454	1.2605	9.1744	3.9563	-5.133	-3.1763	0.2342	-0.3482	-0.3482	0.3586	2.4402	9.5559	-6.4201	6.9015	-1.5867	0.2311	-0.5557	-1.9215	9.8468	0.0457	0.4563	7.8289	-1.7809	-11.0273	-1.2787	0.6029	0.5501
0.8442	1.6063	9.7719	3.7227	-4.7856	-2.8941	0.2582	-0.3602	-0.3422	0.7655	2.0388	9.6822	-6.3769	5.9187	-1.6968	0.2611	-0.631	-1.9718	9.6047	0.2157	-0.2479	6.6514	-1.9737	-7.8341	-1.3312	0.6539	0.562
1.0658	1.5473	9.3034	2.9208	-3.9542	-2.2292	0.2462	-0.3602	-0.3362	0.7121	1.238	9.7982	-4.8533	5.0345	-2.0188	0.2602	-0.5757	-1.9205	9.6098	0.6182	0.0454	2.8087	-2.5935	-4.045	-1.2793	0.6399	0.5281
1.1846	2.1226	9.5435	1.2708	-2.8408	-1.115	0.2342	-0.3662	-0.3362	0.5878	2.0388	9.441	-4.687	4.1396	-1.633	0.203	-0.5748	-1.9031	9.6159	0.3325	0.3361	-1.0207	-3.5751	-2.671	-1.2443	0.6397	0.5286
0.7241	1.7784	9.5337	-1.1274	-1.8498	-0.1663	0.2342	-0.3602	-0.3482	0.5978	1.8108	9.9159	-4.8665	2.912	-1.0375	0.2748	-0.5945	-1.9375	9.61	0.4461	0.0447	-6.1067	-4.4296	-1.4532	-1.2611	0.6691	0.5796
0.7258	2.0662	9.6526	-2.6036	-0.7759	0.547	0.2522	-0.3722	-0.3482	0.7095	1.3522	9.6796	-3.4165	1.5345	-0.5963	0.2319	-0.5933	-1.9378	9.3904	0.1611	0.4476	-7.4197	-5.8411	-2.4844	-1.2271	0.624	0.5125
0.959	1.8361	9.7747	-3.7829	0.8376	1.6221	0.2462	-0.3662	-0.3482	0.6979	2.2097	9.206	0.4202	0.947	-0.5383	0.2166	-0.5537	-1.9573	8.8096	0.2175	-0.0888	-7.7718	-6.7344	-2.4721	-1.2264	0.6709	0.5618
0.6704	1.4915	9.7092	-4.5533	2.4961	2.9317	0.2522	-0.3602	-0.3422	0.7061	1.7526	9.5616	-1.4462	0.0249	-0.0638	0.2168	-0.5552	-1.9216	8.9841	0.2752	0.0899	-6.7834	-7.4769	-2.4514	-1.3133	0.6343	0.5824
0.7805	1.8357	9.4758	-4.7654	3.5169	3.5834	0.2522	-0.3722	-0.3482	0.5897	1.7528	9.4998	0.1213	-0.1242	-0.1564	0.2319	-0.5933	-1.9378	9.389	-0.4129	0.3288	-5.135	-7.8503	-2.68	-1.296	0.6186	0.5663
0.7249	1.3185	9.5326	-5.2223	4.2737	4.4835	0.2462	-0.3602	-0.3542	0.3035	1.8681	9.6129	0.1849	-0.0628	-0.4023	0.2455	-0.5561	-1.9214	9.7263	-0.2422	0.1029	-2.9522	-8.1966	-2.1786	-1.3133	0.6343	0.5824
1.2424	1.3749	9.4837	-5.4717	4.868	5.1642	0.2402	-0.3602	-0.3362	0.7092	1.4667	9.6799	-0.0848	0.4305	0.1928	0.2472	-0.6328	-1.9183	9.6691	-0.1274	0.1021	0.6317	-8.5508	-0.4109	-1.2788	0.6711	0.561
0.7829	1.7785	9.5939	-5.2566	5.1991	6.0455	0.2462	-0.3482	-0.3482	0.8756	2.2098	9.4473	-0.5426	0.6229	0.1028	0.2038	-0.6124	-1.9194	9.6086	-0.1279	-0.0741	3.609	-8.3503	1.9089	-1.2787	0.6536	0.5628
1.2991	1.2597	9.4254	-5.1225	6.1149	6.9933	0.2522	-0.3602	-0.3422	1.1072	1.8086	9.4512	-0.2291	0.9544	0.2946	0.2741	-0.5569	-1.9211	9.3841	-0.2417	0.096	6.6621	-8.3369	4.7765	-1.2616	0.6554	0.5448
1.2384	1.7195	9.3072	-5.4074	6.6795	7.5221	0.2462	-0.3602	-0.3602	0.4767	2.2684	9.6767	-0.4799	0.7433	0.4139	0.2307	-0.5365	-1.9223	10.0175	-0.4137	0.3997	9.5036	-8.1694	7.8377	-1.3129	0.6655	0.6154
0.8984	1.6058	9.5957	-5.1158	7.0965	7.7615	0.2281	-0.3482	-0.3362	0.653	1.8676	9.7983	-0.4586	0.2514	0.467	0.274	-0.5562	-1.939	9.7269	-0.5864	0.1016	12.4389	-7.6642	11.2457	-1.2958	0.6342	0.5827
0.4435	1.3198	9.8816	-4.3716	6.6951	6.9784	0.2462	-0.3602	-0.3542	0.6488	1.6383	9.5602	0.9834	0.0117	0.527	0.2458	-0.5745	-1.9385	9.9556	-0.2423	0.1658	14.4464	-7.4315	13.8937	-1.2607	0.6496	0.5998
0.7821	1.6059	9.5344	-4.3333	5.4651	5.7501	0.2402	-0.3602	-0.3422	0.8774	1.4658	9.4458	0.9195	-0.0801	0.7105	0.2464	-0.5952	-1.902	10.0709	-0.2997	0.2262	16.2187	-6.8874	15.7848	-1.2611	0.6184	0.5669
1.1839	1.2599	9.4232	-4.6948	4.8668	5.3283	0.2402	-0.3722	-0.3482	0.4713	2.0389	9.3792	0.4584	-0.0416	0.7104	0.2459	-0.5753	-1.9206	9.7775	-0.186	-0.1876	17.8091	-6.9228	15.937	-1.2965	0.6556	0.5442
0.9473	1.4896	9.1237	-5.1719	4.7321	4.912	0.2582	-0.3542	-0.3362	0.8191	1.7521	9.4451	-0.0881	0.3066	0.4377	0.2319	-0.5933	-1.9378	10.0647	-0.0139	-0.0645	19.1512	-7.3567	15.6203	-1.2955	0.6323	0.6011
1.2421	1.5474	9.4841	-5.5745	4.4132	5.0725	0.2522	-0.3482	-0.3482	0.2982	2.0966	9.3757	-0.484	0.6184	0.9059	0.2605	-0.5941	-1.9376	9.6641	-0.5873	-0.1913	20.344	-7.5447	15.6219	-1.2956	0.5991	0.5865
0.5648	1.7229	10.2394	-5.8205	3.8394	4.343	0.2462	-0.3482	-0.3602	0.8188	1.8665	9.4454	-1.6477	0.9151	0.7856	0.2751	-0.5961	-1.9017	10.0633	-0.5879	-0.1833	21.9227	-7.5429	13.8952	-1.2435	0.6515	0.5817
0.9593	1.6636	9.7743	-6.1444	3.2405	4.1644	0.2522	-0.3542	-0.3482	-0.0428	2.0407	9.6062	-1.7027	1.2839	0.9156	0.2463	-0.5945	-1.9198	9.6726	-0.1841	0.277	22.1617	-7.538	12.2878	-1.2956	0.6498	0.5992
0.7258	1.4911	9.5921	-5.9061	2.6801	4.1859	0.2522	-0.3542	-0.3362	0.9358	2.1526	9.5672	-2.2819	1.5704	0.8271	0.2316	-0.5748	-1.9207	9.9025	-0.5858	0.3385	23.1376	-7.505	10.913	-1.2778	0.6478	0.6178
0.9	1.376	9.6543	-5.6885	2.5187	4.3322	0.2402	-0.3662	-0.3542	0.7038	1.7524	9.4428	-2.4023	1.7857	1.2322	0.231	-0.5549	-1.9393	9.6651	0.2162	-0.0717	24.8623	-7.4717	8.9068	-1.3133	0.6343	0.5824
1.1855	1.6051	9.5422	-5.1058	2.4328	4.226	0.2462	-0.3542	-0.3362	0.65	1.6384	9.6196	-2.4993	1.5117	1.0727	0.2164	-0.536	-1.9224	10.0623	0.0431	-0.181	25.9033	-7.2195	6.4889	-1.2607	0.6496	0.5998
0.4911	1.261	9.3506	-5.1286	2.618	4.4107	0.2522	-0.3482	-0.3422	0.2974	1.9248	9.316	-1.4515	1.5857	1.1376	0.2472	-0.6328	-1.9183	9.5593	0.1031	0.3341	27.2698	-6.5714	5.278	-1.2606	0.6321	0.6016
0.7806	1.7782	9.4757	-6.2776	3.1577	4.9909	0.2342	-0.3482	-0.3482	0.5286	1.6953	9.3202	-1.388	1.677	1.0776	0.2601	-0.5749	-1.9383	10.3505	-0.4159	-0.0602	29.4422	-6.1118	4.5079	-1.3137	0.6538	0.5623
0.9551	1.5481	9.5376	-6.6189	2.4701	5.3613	0.2522	-0.3482	-0.3602	0.8216	1.6951	9.5639	-1.4511	1.6461	1.3549	0.2748	-0.5776	-1.8847	9.8475	-0.4132	0.4547	31.4068	-5.345	4.2131	-1.2789	0.638	0.5464
1.0724	1.6631	9.6583	-6.7495	2.2961	6.3397	0.2402	-0.3482	-0.3422	0.705	1.7525	9.5022	-1.5122	1.7078	1.5412	0.217	-0.5729	-1.9565	9.9544	-0.2425	0.1074	33.0768	-5.1942	3.9682	-1.2962	0.6537	0.5625
0.902	1.4912	9.7728	-6.5938	3.0571	7.042	0.2342	-0.3602	-0.3422	0.7082	1.8673	9.6807	-2.0957	1.8092	1.6964	0.26	-0.5742	-1.9562	9.839	-0.0705	0.0474	35.0491	-5.2283	3.4654	-1.2439	0.671	0.5616
0.439	1.3193	9.6451	-7.3116	3.1469	6.7244	0.2462	-0.3542	-0.3542	0.5864	2.0959	9.3817	-2.2747	2.119	1.7634	0.2456	-0.5568	-1.9035	9.4427	-0.471	0.1547	36.6844	-5.1998	2.9404	-1.3139	0.6889	0.5585
0.7856	1.4913	9.7114	-8.1937	3.4908	7.0224	0.2582	-0.3482	-0.3302	0.2942	2.2679	9.1978	-2.3956	2.2437	1.7963	0.2452	-0.5546	-1.9571	9.4377	-0.2424	-0.0779	38.217	-5.6969	2.9264	-1.2964	0.6888	0.5588
0.615	1.4919	9.8262	-8.6342	2.8063	7.1512	0.2522	-0.3422	-0.3542	0.6441	2.0958	9.3829	-1.1827	3.0484	2.6467	0.2604	-0.5934	-1.9554	10.0101	-0.0708	0.0509	39.5116	-5.6361	2.1932	-1.2778	0.6478	0.6178
1.3166	0.9168	10.3112	-8.7543	1.7747	7.9108	0.2522	-0.3602	-0.3362	0.2449	1.7537	9.5521	0.8371	4.3875	4.5272	0.231	-0.5549	-1.9393	9.901	-0.3566	0.281	40.8465	-6.2842	1.4083	-1.2779	0.6654	0.6159
0.7841	1.7211	9.6529	-9.212	2.3437	7.7727	0.2462	-0.3362	-0.3542	0.8783	1.5804	9.5054	0.4586	5.6499	5.1976	0.2597	-0.5557	-1.9391	9.785	0.1597	0.2222	42.2271	-6.1305	0.4911	-1.2949	0.6791	0.6504
1.075	1.4334	9.776	-8.2369	1.8739	7.5632	0.2642	-0.3542	-0.3482	0.6444	1.9813	9.3826	1.733	6.1533	4.4676	0.3036	-0.5962	-1.9194	9.499	-0.0122	0.1575	43.0229	-5.9744	-0.6609	-1.3133	0.6343	0.5824
0.7829	1.1459	9.5333	-7.4467	1.1374	7.5398	0.2462	-0.3362	-0.3482	0.7085	1.7528	9.6804	-1.8377	6.093	4.0588	0.2609	-0.5964	-1.884	10.0708	-0.2423	0.2264	44.2537	-5.8207	-1.4517	-1.2776	0.6127	0.6215
0.9582	1.0309	9.6546	-7.0678	1.8245	7.4125	0.2342	-0.3422	-0.3362	0.1906	1.8686	9.7294	-1.8442	5.6653	3.5879	0.2741	-0.5569	-1.9211	9.8928	-0.9319	-0.188	44.9147	-5.667	-1.7996	-1.278	0.6322	0.6013
0.6202	1.7225	10.1223	-6.1135	1.7537	7.3279	0.2402	-0.3482	-0.3362	0.4124	1.581	9.2582	-1.1417	5.2269	2.8092	0.2739	-0.5554	-1.9569	10.0555	-0.7041	-0.5922	45.5573	-5.5459	-1.6241	-1.2781	0.6497	0.5995
0.7833	1.5485	9.5933	-5.1875	2.2336	7.003	0.2462	-0.3602	-0.3662	0.5934	1.6959	9.678	-1.9813	4.7207	2.4589	0.3031	-0.5762	-1.938	10.0624	-0.0143	-0.1812	46.4647	-5.2748	-0.4015	-1.2955	0.683	0.6138
0.7798	0.973	9.3555	-5.3339	2.607	7.0698	0.2462	-0.3602	-0.3602	0.654	1.925	9.8579	-1.8392	4.0142	1.9833	0.2449	-0.5361	-1.94	9.4985	0.2747	0.1585	46.7798	-4.8158	0.376	-1.2948	0.6109	0.6396
0.7913	0.8594	9.9463	-4.8162	2.6758	6.7525	0.2642	-0.3422	-0.3242	0.5349	1.5242	9.617	-2.4645	3.5031	1.9422	0.275	-0.5953	-1.9196	9.6019	-0.1865	-0.4244	46.8426	-4.7547	0.4997	-1.3131	0.5992	0.5862
1.0693	1.4902	9.4806	-4.5039	3.0293	6.6554	0.2462	-0.3302	-0.3482	0.6453	1.5807	9.3818	-2.7802	3.0789	1.8723	0.2612	-0.5987	-1.8304	10.0099	0.044	0.0513	46.7761	-4.4769	0.4474	-1.3297	0.6111	0.639
0.7301	0.9166	9.768	-3.1233	3.1534	6.2259	0.2522	-0.3422	-0.3542	0.9966	1.3514	9.6262	-2.8923	2.097	2.1635	0.2153	-0.4962	-1.9596	9.7774	-0.0712	-0.1871	46.8421	-4.0779	0.9506	-1.3131	0.6499	0.5989
0.7802	1.3756	9.4156	-1.2898	3.6535	5.1775	0.2462	-0.3302	-0.3302	1.4644	2.0379	10.053	-1.6978	1.6797	1.6639	0.2885	-0.5581	-1.9032	9.3738	-0.2435	-0.4292	46.0671	-3.8588	0.5408	-1.2608	0.6165	0.5852
0.9646	0.6291	9.9491	1.5123	3.8053	3.6154	0.2402	-0.3482	-0.3542	0.4179	1.7533	9.5557	-1.2395	1.4579	1.4446	0.2601	-0.5588	-1.8677	9.8846	-0.0727	-0.535	44.2112	-3.358	-0.2709	-1.3301	0.6305	0.6188
0.6666	1.0885	9.4718	3.4387	4.0271	2.7461	0.2522	-0.3302	-0.3422	0.3005	1.6389	9.4342	-1.7053	1.1909	1.1301	0.2755	-0.6153	-1.901	9.7131	-0.5889	-0.5986	42.3628	-3.3199	-1.0651	-1.3292	0.574	0.661
0.4453	0.975	9.9398	4.3601	3.6476	1.6538	0.2462	-0.3362	-0.3362	0.7058	1.4091	9.5015	-1.5827	1.0982	0.789	0.2603	-0.5765	-1.9026	9.3704	-0.2441	-0.6043	40.4616	-3.006	-1.2955	-1.3129	0.6148	0.6026
0.7829	1.1459	9.5333	4.4508	3.3385	1.7718	0.2462	-0.3542	-0.3482	0.5825	1.7521	9.1433	-0.8088	1.2103	0.2055	0.2878	-0.5366	-1.9575	9.8256	-0.3024	-0.6537	38.374	-2.2297	-1.3549	-1.296	0.6186	0.5663
0.7866	0.9738	9.7102	4.9165	2.7047	1.1162	0.2462	-0.3482	-0.3542	0.7054	1.5808	9.5018	-2.0396	1.2616	0.2969	0.2735	-0.5362	-1.9576	9.436	-0.587	-0.1959	36.8427	-1.2715	-0.9579	-1.3126	0.6129	0.621
0.8444	0.8588	9.711	5.0176	2.0259	0.7133	0.2462	-0.3542	-0.3542	0.479	1.8107	9.7352	-2.2508	1.4502	0.1146	0.2739	-0.5554	-1.9569	9.6022	-0.416	-0.4252	35.4879	-0.4357	-0.9378	-1.3132	0.6168	0.5843
0.6688	1.0888	9.59	4.3988	1.5025	0.9999	0.2462	-0.3482	-0.3542	0.7052	2.1532	9.5624	-2.3739	1.5123	0.4244	0.2737	-0.5377	-1.9219	9.5444	-0.6455	-0.4856	34.1619	0.4311	-0.979	-1.313	0.6324	0.6008
0.7906	1.2044	9.9471	4.8789	0.9312	0.8324	0.2462	-0.3422	-0.3482	1.0455	1.5221	9.2117	-1.1696	1.8868	1.3906	0.3013	-0.4987	-1.9589	10.0505	-0.4181	-0.8246	33.0734	1.0475	-0.1073	-1.2951	0.6128	0.6212
0.8427	1.2036	9.6527	4.9897	0.7722	0.4627	0.2342	-0.3542	-0.3422	0.2366	1.7529	9.1362	-1.5415	1.77	1.4805	0.2464	-0.5952	-1.902	10.1106	-0.9341	-0.7086	32.9739	1.3211	1.1047	-1.2952	0.6811	0.6321
0.3774	1.0314	9.4069	4.6589	1.0008	0.6551	0.2522	-0.3422	-0.3422	0.1802	1.7531	9.1944	-1.632	1.8637	1.4511	0.3163	-0.5206	-1.9045	10.1651	-0.7625	-0.8235	33.5657	1.7744	3.356	-1.3297	0.6618	0.6517
0.959	1.2035	9.7141	4.4993	1.0372	0.4457	0.2402	-0.3542	-0.3482	0.8288	1.6385	9.9203	-1.606	1.5575	1.1677	0.2601	-0.5749	-1.9383	10.3873	-0.6492	-1.1103	34.1496	1.5216	4.755	-1.348	0.6501	0.5983
0.7771	1.2602	9.238	3.9386	1.0904	0.2461	0.2402	-0.3422	-0.3602	0.705	2.2104	9.5625	-1.9467	1.4107	0.9483	0.3009	-0.4803	-1.9418	10.1694	-0.5896	-0.5895	33.4009	1.8336	4.224	-1.3306	0.6676	0.5967
0.7819	1.0883	9.474	3.7198	1.1297	0.1296	0.2522	-0.3482	-0.3662	0.7137	1.5816	9.9178	-1.805	0.7637	0.9062	0.2307	-0.5365	-1.9223	9.999	-1.0482	-0.5946	31.76	1.6261	2.9871	-1.2767	0.6069	0.6765
0.7806	1.7782	9.4757	3.3518	1.3284	0.1092	0.2582	-0.3422	-0.3482	0.5353	1.8677	9.6771	-1.5688	0.2076	0.7731	0.275	-0.5953	-1.9196	9.7123	-0.8185	-0.6578	29.3922	1.9472	0.9784	-1.2772	0.6439	0.6545
0.6699	1.779	9.7099	2.1615	1.7463	0.3846	0.2462	-0.3422	-0.3602	0.1899	1.6396	9.6695	-2.0122	-0.3999	1.0086	0.2739	-0.5554	-1.9569	9.9364	-0.418	-0.8269	25.4994	2.149	-1.0958	-1.2772	0.5932	0.6417
1.2487	0.9732	9.7782	1.9441	1.9687	0.2081	0.2462	-0.3542	-0.3422	0.6423	1.8666	9.2636	-1.7306	-0.1591	1.0134	0.2599	-0.5573	-1.9034	9.5444	-0.6455	-0.4856	21.5191	2.5349	-2.8547	-1.3296	0.5935	0.6409
0.7761	1.1451	9.1786	1.2667	2.0278	0.2554	0.2342	-0.3422	-0.3602	0.1969	1.6975	10.0262	-1.3593	-0.163	0.458	0.2589	-0.5343	-1.9935	10.058	-0.8184	-0.4759	17.701	2.8574	-4.218	-1.3121	0.5934	0.6411
0.7853	1.6638	9.7118	0.7636	2.383	-0.2794	0.2462	-0.3482	-0.3542	0.4755	1.7531	9.5569	-2.7425	-0.0475	0.4885	0.274	-0.54	-1.8683	9.8369	-0.243	-0.0699	15.0419	3.4847	-5.3799	-1.2952	0.5796	0.6067
0.7856	1.4913	9.7114	-0.5368	2.7114	-0.5815	0.2402	-0.3482	-0.3422	0.4776	1.8678	9.6759	-2.0674	-0.2414	0.0539	0.2742	-0.5577	-1.9033	9.4268	-0.5886	-0.6627	13.1752	4.1408	-6.5569	-1.3128	0.5973	0.6045
0.7315	1.4343	9.8875	-0.5401	2.467	-0.5523	0.2522	-0.3482	-0.3542	0.5312	1.5811	9.4389	-2.6128	0.1981	-0.0319	0.2881	-0.5551	-1.9746	10.0006	-0.5889	-0.4762	11.4624	4.8886	-7.6111	-1.3124	0.5778	0.6247
0.7792	0.6854	9.2957	-0.9369	2.3927	-0.3295	0.2342	-0.3422	-0.3422	0.5397	1.5247	9.8547	-2.9207	0.1732	-0.1564	0.2884	-0.5574	-1.921	9.5889	-0.6479	-1.1263	10.0745	5.2019	-8.0676	-1.2948	0.6109	0.6396
0.5511	1.2037	9.4698	-2.0893	2.5355	0.3705	0.2582	-0.3662	-0.3422	1.2832	1.5223	9.573	-3.2928	0.0262	-0.1906	0.2447	-0.5346	-1.9757	9.8836	-0.1876	-0.5938	8.4253	5.4524	-7.9658	-1.2942	0.607	0.6762
0.7843	1.6061	9.6526	-2.2933	1.5345	0.3087	0.2522	-0.3422	-0.3542	0.3551	1.4095	9.2567	-2.9248	-0.0416	-0.1603	0.2881	-0.5551	-1.9746	9.9355	-0.5329	-0.8856	6.9257	5.5799	-8.0863	-1.2427	0.6125	0.6221
0.5516	0.9162	9.4691	-1.8738	2.0078	0.6672	0.2582	-0.3422	-0.3362	0.6503	1.9819	9.6797	-3.1092	0.0219	0.0876	0.2737	-0.5377	-1.9219	9.7748	-0.6455	-0.3643	5.2248	5.5214	-7.7766	-1.2426	0.595	0.624
1.0176	1.3185	9.7746	-2.0516	2.1994	0.8252	0.2522	-0.3302	-0.3422	0.8734	1.6371	9.2678	-3.4518	-0.1872	0.0833	0.2596	-0.555	-1.957	9.767	-0.0157	-0.7121	3.955	5.1845	-7.4834	-1.2778	0.5971	0.6051
1.0173	1.491	9.775	-2.0583	1.9546	0.7324	0.2522	-0.3362	-0.3422	0.4705	1.8671	9.3194	-2.9607	-0.3172	-0.1961	0.2739	-0.5393	-1.8862	9.8845	-0.7612	-0.5958	2.5346	4.5401	-7.3192	-1.3127	0.5797	0.6064
0.73	0.9741	9.7681	-2.0627	1.8931	0.6102	0.2402	-0.3482	-0.3602	0.5904	1.9246	9.5596	-2.6807	-0.1383	-0.0689	0.2597	-0.5557	-1.9391	10.0543	0.0416	-0.5895	1.5684	4.4795	-6.9009	-1.2949	0.5777	0.625
0.3836	1.3197	9.7622	-2.4831	2.0955	0.9266	0.2462	-0.3482	-0.3362	0.6493	1.9245	9.6202	-2.6852	-0.3536	0.0508	0.2733	-0.5186	-1.9227	9.8225	-0.5325	-0.8296	0.6115	4.2944	-6.1472	-1.3124	0.5778	0.6247
1.0133	1.203	9.5379	-2.4629	1.91	0.6505	0.2462	-0.3542	-0.3422	1.162	1.522	9.2735	-2.4693	-0.3868	-0.2274	0.2891	-0.5942	-1.9552	9.0876	-0.3006	-0.4935	0.0318	4.0451	-4.9405	-1.3127	0.6304	0.6191
0.8439	1.1462	9.7117	-2.5214	2.0045	0.7135	0.2522	-0.3362	-0.3542	0.1918	1.3536	9.7284	-1.9711	-0.1183	-0.3762	0.3026	-0.5401	-1.886	9.9353	-0.4182	-0.8852	-0.5	4.2591	-3.999	-1.3129	0.6148	0.6026
0.6129	1.3766	9.7078	-2.7351	2.1968	0.6893	0.2402	-0.3422	-0.3482	0.4206	2.097	9.7346	-2.5688	-0.6937	0.1376	0.2452	-0.5546	-1.9571	9.4846	-0.3591	-0.6024	-1.059	4.5341	-2.8703	-1.3125	0.5953	0.6228
1.0177	0.6285	9.7138	-2.9208	2.0214	0.7843	0.2342	-0.3422	-0.3422	0.6573	2.0398	10.0364	-1.7689	-0.7676	-0.1403	0.2588	-0.5174	-1.9407	9.8261	-0.5893	-0.6547	-1.6267	4.749	-2.1746	-1.2604	0.597	0.6054
0.7877	0.974	9.7693	-2.786	1.9518	0.1095	0.2462	-0.3422	-0.3302	0.5324	1.5812	9.4983	-1.1156	-0.4403	-0.2878	0.2592	-0.5366	-1.9399	9.8252	-0.0156	-0.6526	-2.3112	4.8404	-1.326	-1.3655	0.5995	0.5853
0.7828	1.836	9.594	-2.6376	1.9447	-0.1077	0.2402	-0.3542	-0.3482	0.4763	1.9249	9.6166	-1.2612	0.0522	-0.0013	0.2878	-0.5366	-1.9575	9.3781	-0.7592	-0.256	-2.2866	4.7443	-0.2812	-1.2601	0.6126	0.6218
0.7898	1.6643	9.9482	-2.3274	1.688	0.0968	0.2462	-0.3602	-0.3422	0.3097	1.7543	9.9098	-1.7502	0.2446	0.0322	0.2736	-0.537	-1.9398	9.541	-0.6462	-0.6606	-1.3533	5.016	0.7251	-1.3122	0.5427	0.6284
0.7832	0.9734	9.5328	-2.1257	1.5248	-0.3361	0.2402	-0.3482	-0.3482	0.9854	1.5221	9.0917	-1.7565	-0.153	-0.3146	0.2589	-0.5181	-1.9228	9.4265	-0.3592	-0.6619	-2.6417	4.6512	0.1548	-1.2605	0.6145	0.6035
1.0145	1.1456	9.5969	-1.2146	1.2709	-0.7563	0.2462	-0.3482	-0.3422	0.5345	1.6959	9.6173	-1.7049	-0.6457	-0.1689	0.2742	-0.5738	-1.974	9.7068	-0.1884	-0.889	-6.1884	4.692	-0.1431	-1.3301	0.5798	0.6061
0.9121	1.4925	10.3047	-0.8758	1.0736	-0.6742	0.2402	-0.3542	-0.3482	0.6457	1.9242	9.4419	-1.2401	-0.4099	0.2685	0.2737	-0.5377	-1.9219	9.7117	-0.417	-0.6564	-6.9293	4.1061	0.4407	-1.2948	0.5601	0.6268
0.7866	1.5489	9.7706	-1.0695	1.0194	-0.9443	0.2582	-0.3362	-0.3422	0.0751	1.9261	9.7272	0.1466	-0.1011	1.5118	0.246	-0.576	-1.9027	9.4343	-0.243	-0.253	-7.4235	3.796	1.3356	-1.3644	0.5586	0.644
0.6152	1.3769	9.826	-0.9266	0.7372	-1.1935	0.2522	-0.3482	-0.3362	0.7626	1.7523	9.5034	1.0185	0.4963	1.9255	0.2305	-0.5349	-1.958	9.7139	-0.3592	-0.5395	-9.1485	3.5261	0.4069	-1.2777	0.5795	0.6069
0.4973	1.6068	9.7061	-1.066	0.1	-1.3768	0.2402	-0.3482	-0.3482	0.7584	1.523	9.2652	4.5428	1.5058	3.1233	0.2876	-0.519	-1.9226	9.9462	-0.0719	-0.3004	-10.1377	3.0384	-0.512	-1.3129	0.6148	0.6026
0.7843	0.9736	9.5919	-2.8211	-0.5018	-1.9172	0.2582	-0.3662	-0.3482	0.5316	1.9246	9.499	5.0868	2.8418	4.4452	0.2883	-0.5566	-1.9389	9.6628	-0.4728	-0.2492	-10.8082	2.5478	-0.8209	-1.2782	0.6166	0.5849
0.5523	1.1463	9.5288	-2.085	-1.5751	-2.5819	0.2402	-0.3482	-0.3422	0.8753	1.8663	9.3871	8.6263	4.5894	5.2856	0.2609	-0.5964	-1.884	9.5987	-0.3592	-0.6001	-11.1877	2.5816	-1.398	-1.2776	0.562	0.6088
0.8382	1.203	9.4163	-2.2168	-1.9674	-2.6419	0.2582	-0.3362	-0.3542	0.5311	1.6383	9.439	9.9631	5.3631	5.7032	0.2447	-0.5185	-1.905	9.9999	-0.13	-0.4746	-11.6734	2.5209	-1.3284	-1.3128	0.5973	0.6045
0.8951	0.9728	9.3578	-1.6094	-1.5321	-2.1661	0.2522	-0.3542	-0.3602	0.476	1.5815	9.5565	5.9581	4.8855	4.1126	0.2883	-0.5566	-1.9389	9.8201	-0.4182	-0.9459	-12.2792	2.9216	-0.8425	-1.2954	0.6147	0.6029
0.7888	0.9741	9.8284	-1.23	-1.3025	-1.991	0.2522	-0.3482	-0.3362	0.6507	1.8102	9.6794	3.3882	3.8002	2.4827	0.2455	-0.5561	-1.9214	9.8261	-0.5893	-0.6547	-12.3466	3.6301	-0.6359	-1.3303	0.5642	0.5896
0.6745	1.0895	9.8855	0.3102	-0.7268	-2.5132	0.2342	-0.3422	-0.3482	0.7013	1.8094	9.324	2.2674	2.9336	1.3843	0.2884	-0.5735	-1.9917	10.1097	-0.3605	-0.7065	-12.1325	4.2754	-0.1594	-1.2779	0.6146	0.6032
0.6129	1.3766	9.7078	0.6302	-0.1588	-2.4567	0.2522	-0.3482	-0.3422	0.6462	2.2104	9.5019	0.0058	2.0539	0.7161	0.274	-0.5562	-1.939	9.7161	-0.3014	-0.4225	-11.7938	4.7047	0.2776	-1.2598	0.6107	0.6401
0.7865	1.0313	9.7103	1.4387	0.3269	-2.5651	0.2402	-0.3362	-0.3362	0.4141	1.8674	9.3776	-1.0271	1.0006	-0.1384	0.2735	-0.5362	-1.9576	9.9424	-0.589	-0.5357	-11.5952	5.1632	1.304	-1.33	0.613	0.6207
0.6698	1.2039	9.6494	1.9234	0.4624	-1.8745	0.2462	-0.3602	-0.3542	0.0761	1.5255	9.7263	-1.4467	-0.0357	-0.2502	0.2741	-0.5569	-1.9211	9.8817	-0.4175	-0.7113	-11.3309	5.4978	2.4487	-1.295	0.646	0.6358
0.7899	0.9743	9.8875	1.7679	0.5907	-1.992	0.2642	-0.3602	-0.3422	0.655	1.5244	9.8571	-1.6101	-0.5845	-0.5074	0.2884	-0.5574	-1.921	9.2041	-0.4151	-0.3749	-11.1935	5.372	3.0589	-1.2952	0.5796	0.6067
0.3262	1.2048	9.7608	1.8641	0.5568	-1.842	0.2342	-0.3482	-0.3542	0.5928	1.9248	9.6784	-1.2506	-1.1723	-0.8879	0.2591	-0.5358	-1.9577	10.2812	-0.5902	-0.7039	-12.279	5.0699	2.0547	-1.313	0.5817	0.588
0.958	1.1459	9.6548	1.3459	0.7014	-1.676	0.2462	-0.3302	-0.3482	0.5282	2.325	9.3809	-0.7235	-1.0266	-1.1623	0.2591	-0.5358	-1.9577	9.7192	-0.8173	-0.3077	-13.2244	4.2417	1.4952	-1.2946	0.5758	0.6433
0.7269	1.4913	9.6512	0.3088	0.2234	-2.0196	0.2402	-0.3422	-0.3482	0.7022	1.4087	9.3232	-0.9665	-0.9286	-1.5625	0.3159	-0.5014	-1.9052	9.9433	-0.4167	-0.4767	-14.0177	3.4748	0.9651	-1.2958	0.6342	0.5827
1.0657	1.6048	9.3036	-1.0816	-1.0656	-2.3593	0.2342	-0.3542	-0.3602	0.4236	1.8683	9.853	-0.2442	-0.1735	-1.5169	0.2885	-0.5743	-1.9738	9.2042	-0.4725	-0.3751	-13.8077	2.4291	0.0679	-1.2776	0.6127	0.6215
0.9563	1.4907	9.5966	-1.4898	-2.1524	-3.0572	0.2462	-0.3362	-0.3602	0.7063	1.6954	9.5615	2.7048	1.367	-0.1562	0.2577	-0.4606	-1.9251	9.9495	-0.0139	-0.1251	-13.2386	1.9371	-0.7589	-1.2777	0.5795	0.6069
0.6657	1.6059	9.473	-1.5373	-3.2253	-4.13	0.2462	-0.3422	-0.3482	0.5257	1.4088	9.1414	1.892	2.3325	-0.1404	0.2452	-0.5546	-1.9571	10.4546	-0.59	-0.5838	-12.0619	1.7517	-1.4967	-1.2783	0.6341	0.583
0.7345	0.9746	10.0046	-1.5553	-4.7267	-4.9923	0.2462	-0.3422	-0.3422	0.934	1.9235	9.4479	3.9279	2.5137	-0.3498	0.259	-0.5189	-1.9049	9.7212	-0.6448	-0.1904	-10.9914	1.8148	-2.7185	-1.3131	0.5992	0.5862
0.4414	1.2621	9.7632	-0.2428	-5.2719	-5.2409	0.2402	-0.3422	-0.3482	0.8774	1.981	9.5062	2.2103	2.7298	-0.9667	0.2887	-0.5758	-1.9381	10.1776	-0.0143	-0.1206	-9.1872	2.1834	-3.6688	-1.2783	0.5834	0.5703
0.7867	0.9164	9.71	1.7747	-5.4813	-5.9013	0.2281	-0.3422	-0.3542	0.6449	2.2676	9.4426	1.069	2.5359	-1.3427	0.2746	-0.5769	-1.9025	9.7765	-0.2435	-0.2461	-7.3745	2.5768	-2.8307	-1.2784	0.6009	0.5684
0.9625	1.1464	9.8913	2.6875	-5.0943	-6.6534	0.2642	-0.3422	-0.3482	1.1066	2.0375	9.4517	0.0434	1.9713	-1.6325	0.2745	-0.5761	-1.9204	9.6018	-0.1292	-0.4242	-6.539	2.8758	-0.7119	-1.2951	0.5621	0.6085
0.7972	1.3202	10.302	4.3871	-5.5968	-7.4602	0.2462	-0.3482	-0.3362	0.8811	1.9241	9.6844	-0.1411	1.9446	-1.8495	0.3168	-0.5398	-1.9037	9.7716	-0.0723	-0.4789	-6.3832	2.8395	0.7943	-1.2964	0.6381	0.5461
0.5051	0.9752	10.0592	6.2794	-5.3695	-7.3219	0.2462	-0.3662	-0.3602	0.3581	2.1539	9.4959	-0.177	1.6691	-1.8854	0.3038	-0.6138	-1.9543	10.2284	-0.4172	-0.471	-4.2594	2.5145	4.1641	-1.2779	0.6654	0.6159
0.7947	0.8023	10.1235	10.388	-6.6131	-7.7035	0.2702	-0.3482	-0.3422	0.4244	1.5249	9.8523	-1.0752	1.3174	-2.233	0.2879	-0.5374	-1.9397	9.7144	0.0426	-0.4796	-1.3513	2.1842	8.5044	-1.2956	0.5991	0.5865
0.556	0.9743	9.7057	11.3651	-6.9607	-7.9123	0.2522	-0.3662	-0.3482	0.4196	1.5245	9.6146	0.0312	1.2368	-2.1398	0.2736	-0.537	-1.9398	9.6579	-0.3015	-0.482	3.184	1.5006	15.8225	-1.2949	0.5777	0.625
1.3043	1.4904	9.7215	11.4684	-7.3646	-8.4052	0.2462	-0.3602	-0.3242	0.6484	1.81	9.5605	-0.643	1.4018	-2.1381	0.2737	-0.5377	-1.9219	9.2106	-0.1844	-0.0239	7.3666	0.3451	26.1851	-1.2958	0.6342	0.5827
0.6707	1.319	9.7087	11.0069	-6.3337	-7.839	0.2522	-0.3542	-0.3542	0.7639	2.2104	9.6231	0.1277	1.4502	-2.1667	0.2748	-0.5945	-1.9375	8.977	0.4461	-0.2596	8.8491	-0.4369	37.5054	-1.2262	0.6358	0.5656
1.367	1.2033	9.9584	9.3302	-5.4109	-8.708	0.2582	-0.3362	-0.3482	0.4797	1.0094	9.6742	1.1156	1.5871	-2.2244	0.2752	-0.5968	-1.8839	9.1552	0.275	0.0933	11.691	0.8406	49.6578	-1.3133	0.6343	0.5824
1.1869	1.4328	9.6009	9.9744	-4.7156	-11.5566	0.2402	-0.3362	-0.3362	0.531	1.6955	9.4391	1.1799	1.7394	-2.1906	0.26	-0.5742	-1.9562	9.3278	0.0455	0.1543	11.0071	2.8127	50.4674	-1.2602	0.6302	0.62
2.1169	1.4321	10.0326	6.0669	-6.5797	-21.0808	0.2582	-0.3422	-0.3422	0.5353	1.8677	9.6771	0.9653	1.864	-1.7564	0.3022	-0.5378	-1.9395	9.4475	-0.6422	0.3875	8.5323	5.4236	36.9394	-1.3131	0.6499	0.5989
2.5725	1.9482	9.8064	7.8559	-6.8842	-32.259	0.2342	-0.3482	-0.3542	0.2476	1.6395	9.6707	1.0858	1.7689	-1.5417	0.3035	-0.5954	-1.9372	10.6376	-3.1128	-0.181	-64.5076	-2.7187	-8.036	-1.313	0.6324	0.6008
3.6111	1.2564	9.825	-11.9376	0.8884	-38.8699	0.2642	-0.3602	-0.3302	0.3638	1.7538	9.7327	0.0976	1.6616	-1.2365	0.3176	-0.5782	-1.9022	12.8209	-6.1649	-2.4817	-164.0928	-1.6902	-156.0844	-1.2954	0.6147	0.6029
1.9271	0.2227	9.0216	9.0428	-2.2961	-57.1172	0.2462	-0.3542	-0.3302	0.8771	2.0954	9.5064	-0.1261	1.2954	-0.8728	0.2748	-0.5945	-1.9375	9.8051	1.8743	-1.5211	-10.5074	9.1549	-149.8678	-1.2953	0.5972	0.6048
1.6352	1.0279	8.8997	-2.4048	-0.6033	-66.618	0.2582	-0.3542	-0.3482	0.6516	1.9248	9.739	-0.591	1.1494	-0.7835	0.26	-0.5742	-1.9562	7.7007	0.3294	-1.3939	-0.956	14.6583	11.6575	-1.2781	0.6497	0.5995
0.8303	1.2021	9.0026	0.0994	-2.8614	-69.6802	0.2582	-0.3542	-0.3482	0.6504	1.4667	9.6193	-1.0245	1.0637	-0.5387	0.2896	-0.6142	-1.9366	10.0402	-1.166	-1.4108	7.333	16.9195	11.4023	-1.2963	0.6205	0.548
0.0785	2.0082	8.9308	-3.9833	-3.0441	-66.3497	0.2582	-0.3542	-0.3482	0.5995	2.0972	10.0353	-1.646	0.767	-0.4833	0.2597	-0.5557	-1.9391	9.5754	-1.5111	-1.8881	-2.5718	21.5801	-19.3699	-1.3302	0.5974	0.6042
-0.6637	2.4704	9.3311	-2.1743	-3.5374	-56.4247	0.2522	-0.3542	-0.3362	0.6472	1.8098	9.5011	-1.0005	0.7851	-0.1113	0.2884	-0.5574	-1.921	9.0677	-0.7059	-1.5453	-1.1111	24.0587	-15.0432	-1.3131	0.5992	0.5862
-1.2956	2.5868	9.4372	1.5119	-3.1762	-42.7886	0.2702	-0.3602	-0.3482	0.6537	1.5815	9.7978	-1.0628	0.7553	-0.081	0.3019	-0.5194	-1.9225	8.8263	-0.9949	-2.2512	-1.1474	25.5247	-1.8376	-1.3135	0.6187	0.566
-1.865	2.4737	9.7803	4.7859	-3.0812	-23.7441	0.2522	-0.3602	-0.3482	0.3036	1.353	9.5525	-0.7541	0.7511	-0.3276	0.3029	-0.5754	-1.9559	9.515	-1.569	-2.0645	1.3297	25.5036	2.5511	-1.2435	0.6007	0.569
