1818_acc_x	1818_acc_y	1818_acc_z	1818_gyro_x	1818_gyro_y	1818_gyro_z	1818_mag_x	1818_mag_y	1818_mag_z	1819_acc_x	1819_acc_y	1819_acc_z	1819_gyro_x	1819_gyro_y	1819_gyro_z	1819_mag_x	1819_mag_y	1819_mag_z	1820_acc_x	1820_acc_y	1820_acc_z	1820_gyro_x	1820_gyro_y	1820_gyro_z	1820_mag_x	1820_mag_y	1820_mag_z
0.4928	1.6062	9.4696	-4.2914	2.2666	9.239	0.6484	-0.1801	-0.4323	0.477	1.6388	9.616	-1.133	2.1632	1.2411	0.3387	0.629	-1.0409	9.4331	-0.1858	-0.3111	30.0018	-15.2794	-11.1162	-1.7084	0.916	1.0534
1.2524	1.4337	10.0158	-1.9841	3.3772	12.6977	0.6604	-0.1981	-0.4143	0.6574	1.0094	9.9154	-1.631	1.8949	1.3281	-0.1595	-1.314	-0.4676	9.4858	-0.3588	-0.544	30.1285	-13.8607	-11.294	-1.5615	0.2446	1.3262
1.1847	1.4325	9.4827	-2.8298	4.3916	12.7851	0.6604	-0.1681	-0.4143	0.5853	1.5806	9.2618	-0.7926	2.2496	1.2124	-0.1441	-1.3543	-0.4303	9.259	-0.473	-0.4907	30.0087	-12.3181	-11.4942	-1.5447	0.2483	1.2899
1.3019	1.6051	9.6036	-3.2652	3.14	8.9445	0.6724	-0.1681	-0.4143	0.2982	2.0966	9.3757	-1.6236	2.2636	1.2421	-0.1298	-1.354	-0.448	9.4821	-0.1874	-0.7185	30.1783	-11.0553	-11.2149	-1.5792	0.229	1.3095
0.955	2.1806	9.5982	-4.7299	-0.6022	6.2739	0.6484	-0.1741	-0.4263	0.5928	1.9248	9.6784	-1.53	2.3836	1.5223	-0.1164	-1.316	-0.4494	9.3079	-0.4172	-0.8978	30.2584	-10.1002	-11.0659	-1.5618	0.2465	1.3079
0.8519	1.6648	10.1858	-5.647	-2.7636	6.8329	0.6724	-0.1861	-0.4263	0.8841	1.6382	9.8026	-1.433	2.5675	1.2169	-0.114	-1.4135	-0.4099	9.2632	-0.2427	-0.2564	30.1912	-9.1763	-10.6991	-1.5792	0.229	1.3095
0.9585	1.491	9.7148	-4.6765	-2.0349	7.9728	0.6664	-0.1741	-0.4323	0.6513	1.5813	9.6789	-1.5535	2.6627	0.9714	-0.1016	-1.3357	-0.4485	9.6596	-0.6455	-0.4249	30.0393	-8.3455	-10.0867	-1.5788	0.2096	1.3297
1.1857	1.4902	9.542	-4.4508	-1.6158	8.0612	0.6544	-0.1681	-0.4323	0.8227	2.2104	9.6837	-1.707	2.6657	0.8785	-0.174	-1.3121	-0.5035	9.4841	-0.7608	-0.6622	29.5928	-7.7924	-9.1988	-1.5442	0.2288	1.3101
0.7836	1.376	9.5929	-5.1079	-2.5141	6.0585	0.6544	-0.1741	-0.4263	0.9949	1.523	9.5671	-1.0683	2.2558	0.8723	-0.13	-1.3532	-0.4659	9.5436	-0.1293	-0.4837	29.0611	-7.4862	-8.193	-1.5971	0.2486	1.289
1.0729	1.3756	9.6576	-5.87	-4.0459	5.1225	0.6664	-0.1681	-0.4143	0.7112	1.6386	9.7991	-1.101	2.1641	0.9015	-0.116	-1.3352	-0.4487	9.2544	-0.4738	-0.7241	28.6239	-7.4267	-7.2269	-1.5612	0.2426	1.3446
0.7794	1.8356	9.4167	-6.1642	-5.5004	5.4264	0.6664	-0.1741	-0.4323	0.7039	1.6951	9.4427	-1.4205	1.5854	1.0759	-0.1738	-1.3136	-0.4677	9.4203	-0.8193	-1.0137	27.8724	-7.3342	-6.6544	-1.5789	0.2271	1.3278
1.19	1.6057	9.7786	-6.741	-6.207	6.2296	0.6484	-0.1801	-0.4143	0.7087	1.6956	9.6803	-0.5647	1.2637	1.1025	-0.1306	-1.3164	-0.4317	9.7036	-0.3611	-1.0647	27.1294	-7.12	-5.6161	-1.5612	0.1919	1.3318
0.789	1.4917	9.8887	-7.382	-6.2096	6.5197	0.6424	-0.1741	-0.4263	0.3716	1.4683	10.0887	-0.1666	1.2547	1.6281	-0.1298	-1.354	-0.448	9.5888	-0.5906	-1.1261	26.6719	-6.5652	-5.2212	-1.5615	0.2446	1.3262
0.9657	1.2618	10.0688	-7.5168	-6.4802	6.2774	0.6544	-0.1921	-0.4443	0.9401	1.3517	9.6844	-0.1956	1.2872	1.3198	-0.1153	-1.3721	-0.4828	9.3642	-0.6469	-0.9558	26.0704	-6.2575	-4.6147	-1.5274	0.2326	1.2737
1.1267	1.6051	9.482	-6.4902	-7.599	4.9646	0.6424	-0.1621	-0.4203	0.8831	1.5808	9.7431	0.4563	1.5529	1.2021	-0.1454	-1.296	-0.4504	9.7604	-0.935	-1.1239	25.9563	-5.7355	-3.8885	-1.5785	0.2076	1.348
1.1358	1.5487	9.9547	-7.8759	-8.4604	4.5358	0.6604	-0.1621	-0.4323	0.6486	1.6955	9.5603	1.1388	1.8179	1.1463	-0.145	-1.3152	-0.4496	9.8173	-0.8204	-1.1224	25.4042	-5.2415	-3.6784	-1.5788	0.2096	1.3297
1.0736	0.9732	9.6567	-8.1564	-9.0592	4.8137	0.6604	-0.1741	-0.4203	0.8753	1.8663	9.3871	0.9231	1.8812	1.5485	-0.1153	-1.3559	-0.4122	9.2454	-0.5902	-1.1913	24.9085	-4.4394	-3.4607	-1.5087	0.2248	1.3473
1.1342	1.2035	9.8357	-7.4617	-9.0859	5.3763	0.6364	-0.1741	-0.4383	0.7147	1.6389	9.9773	1.2949	1.998	1.4895	-0.1445	-1.3513	-0.5017	9.5315	-0.4184	-1.1266	24.4034	-3.3282	-3.4497	-1.5086	0.2072	1.3492
1.4157	1.1446	9.4865	-6.1621	-8.7737	5.255	0.6484	-0.1741	-0.4143	0.4192	1.6962	9.615	1.6938	1.9598	1.6439	-0.1304	-1.334	-0.4666	9.2512	-0.6466	-0.8998	23.744	-1.9088	-3.3035	-1.5427	0.2192	1.4017
1.4821	1.2606	9.9607	-6.536	-8.6717	3.9529	0.6424	-0.1741	-0.4323	0.6606	1.6394	10.1544	2.9932	2.3059	1.6833	-0.1294	-1.3732	-0.4472	9.4282	-0.7031	-0.6048	22.6047	-0.9816	-3.1309	-1.543	0.2718	1.3961
1.2422	1.4899	9.484	-5.2281	-8.8513	3.3099	0.6244	-0.1801	-0.4323	0.9961	1.5231	9.6265	3.4502	2.0226	1.4937	-0.1306	-1.3164	-0.4317	9.7007	-0.6485	-1.2408	21.639	0.1619	-3.2331	-1.5075	0.2171	1.4206
1.3613	1.2027	9.6628	-3.3597	-8.2605	2.3526	0.6484	-0.1741	-0.4203	0.5876	1.6381	9.3807	2.8589	1.6947	1.5486	-0.1298	-1.354	-0.448	9.8171	-0.7056	-1.122	20.26	1.0275	-2.9034	-1.5609	0.2914	1.3756
1.7138	1.2604	10.0243	-2.1507	-7.6742	1.0148	0.6484	-0.1681	-0.4203	1.1101	1.5799	9.5696	3.5646	1.5602	1.4856	-0.1022	-1.3157	-0.4672	9.7599	-0.5908	-1.1227	18.9819	1.7685	-2.2402	-1.5957	0.2233	1.3642
1.4182	1.6625	9.6651	-0.6983	-7.6478	-0.1186	0.6424	-0.1621	-0.4263	0.4172	2.0394	9.5562	3.9307	1.3401	1.2353	-0.1293	-1.3739	-0.4294	10.3236	-0.7651	-1.462	17.0491	2.913	-1.9223	-1.5257	0.2561	1.3799
1.3641	0.9155	9.7804	1.3211	-7.1553	-1.141	0.6604	-0.1681	-0.4143	0.5985	2.0398	9.9758	2.4473	1.0278	1.1962	-0.1435	-1.3743	-0.4116	9.6977	-0.2474	-1.356	14.6369	3.6268	-1.5146	-1.5256	0.2386	1.3818
1.5306	1.3744	9.4893	2.6589	-6.6957	-2.2081	0.6484	-0.1621	-0.4263	0.8812	1.8669	9.6842	3.0871	0.6792	1.1911	-0.1594	-1.3309	-0.5204	10.0413	-0.4198	-1.2914	12.888	4.4323	-1.395	-1.5612	0.2426	1.3446
1.4096	1.4314	9.1917	3.0466	-6.714	-2.7057	0.6364	-0.1741	-0.4443	0.5976	1.9252	9.9161	3.1808	0.7393	1.1306	-0.0875	-1.3346	-0.4841	9.7485	-0.6503	-1.7065	10.3264	4.8384	-1.0547	-1.5603	0.2368	1.3995
1.5925	1.4898	9.7271	3.7592	-6.6213	-2.692	0.6604	-0.1681	-0.4323	0.649	1.5238	9.56	2.6579	0.6284	0.4173	-0.1009	-1.3733	-0.4649	9.5783	-0.4777	-1.6509	7.3021	5.6463	-0.6629	-1.5436	0.225	1.3467
1.3627	1.0878	9.7217	3.7609	-5.8843	-1.9557	0.6604	-0.1681	-0.4263	0.4706	2.3251	9.3798	2.4746	0.6932	0.3564	-0.1447	-1.3336	-0.4667	9.8665	-0.9366	-1.5302	5.2571	5.8976	-0.5224	-1.5956	0.2565	1.3788
1.3077	1.4908	9.8988	3.2975	-5.0672	-1.3296	0.6304	-0.1681	-0.4383	0.5353	1.8677	9.6771	2.0163	0.8549	0.2658	-0.1304	-1.334	-0.4666	9.4031	-0.7651	-1.8888	2.4182	6.1203	-0.4285	-1.5951	0.2195	1.4008
1.4164	1.3748	9.5462	3.5682	-4.3123	-0.9353	0.6484	-0.1681	-0.4443	0.7054	1.5808	9.5018	2.5422	0.9993	0.3002	-0.1446	-1.3344	-0.4489	9.4664	-1.1083	-1.5971	-0.5198	6.1243	0.5551	-1.5605	0.2212	1.3831
1.2899	2.0061	9.0135	3.5828	-3.9446	-0.6284	0.6364	-0.1741	-0.4263	0.4726	1.9818	9.4385	2.5858	1.7339	0.6531	-0.1436	-1.3735	-0.4295	9.5758	-1.052	-1.8281	-3.0493	6.4993	0.9555	-1.5265	0.2775	1.3414
1.1228	1.2596	9.2448	3.485	-3.2655	-0.1036	0.6484	-0.1801	-0.4323	0.5296	2.2678	9.4402	4.1414	2.898	2.2517	-0.1006	-1.3755	-0.4113	9.4685	-0.9932	-1.48	-5.7345	6.6291	1.0437	-1.579	0.2447	1.326
1.6513	2.065	9.8479	3.5247	-2.0105	0.5738	0.6304	-0.1741	-0.4383	0.6482	1.8672	9.5607	3.9112	3.8211	2.7002	-0.1303	-1.3348	-0.4488	9.4623	-0.7074	-1.7707	-7.4414	7.0069	0.0097	-1.5429	0.2543	1.398
1.6974	1.6034	9.1977	2.7421	-1.3646	0.9322	0.6424	-0.1741	-0.4383	0.9415	1.7525	9.804	5.0654	4.6002	2.5926	-0.1305	-1.3171	-0.4138	9.4656	-0.592	-1.5953	-9.0432	7.07	0.7525	-1.5788	0.2603	1.3424
1.4731	1.8921	9.5485	1.7914	-1.2324	1.1086	0.6364	-0.1861	-0.4323	0.4273	1.8114	10.0311	5.9715	5.5613	3.9702	-0.1445	-1.3513	-0.5017	9.4136	-0.1894	-1.3032	-11.4195	7.0754	0.9235	-1.579	0.2447	1.326
1.9934	1.6613	9.6172	2.8849	0.0661	0.7539	0.6424	-0.1741	-0.4263	0.3549	1.9819	9.3173	6.8518	6.4388	3.4933	-0.1584	-1.3701	-0.501	9.3469	-0.5927	-1.831	-13.0794	7.0199	0.3386	-1.526	0.2405	1.3635
1.5856	1.5465	9.3726	2.064	1.4141	0.4155	0.6304	-0.1621	-0.4263	0.4131	1.7528	9.318	4.3196	5.8712	2.7066	-0.1304	-1.334	-0.4666	9.4029	-0.6504	-1.8884	-15.1237	6.656	0.0916	-1.5788	0.2096	1.3297
1.1228	1.2596	9.2448	2.5535	2.2776	-0.293	0.6484	-0.1801	-0.4323	0.4761	1.5242	9.5564	1.6562	4.8161	1.5713	-0.1285	-1.4123	-0.4278	9.5136	-0.6512	-2.0612	-16.6062	6.2579	0.3873	-1.5783	0.2233	1.3645
1.5893	1.3744	9.5495	1.7123	2.5252	-0.6982	0.6544	-0.1861	-0.4083	0.4143	1.7529	9.3774	1.0244	3.8473	0.9043	-0.1437	-1.3728	-0.4473	10.0436	-0.4194	-1.1747	-17.8766	5.9518	0.6814	-1.5442	0.2288	1.3101
2.2204	1.0854	9.3839	2.3325	3.3233	-1.1053	0.6544	-0.1621	-0.4263	0.8833	1.4664	9.7429	-0.215	3.2881	0.1818	-0.1009	-1.3733	-0.4649	9.7486	-0.7076	-1.7067	-19.3794	6.1413	0.4703	-1.5622	0.266	1.2877
1.1828	1.2023	9.3639	1.4599	4.2737	-1.9633	0.6484	-0.1861	-0.4383	0.3647	1.8683	9.7924	-1.5831	2.5446	0.0118	-0.1584	-1.3539	-0.4304	9.1155	-0.6503	-2.0108	-20.8522	6.0847	0.0665	-1.561	0.2075	1.3483
1.8165	1.3736	9.3767	1.1587	4.5269	-2.9612	0.6364	-0.1741	-0.4503	0.3633	1.4675	9.6727	-1.0653	2.1092	-0.7672	-0.1163	-1.3168	-0.4316	9.6331	-0.4782	-1.7665	-22.1259	6.0867	0.4311	-1.5786	0.2252	1.3461
1.2425	1.95	9.5442	0.6481	3.9966	-3.2264	0.6364	-0.1621	-0.4263	0.4105	1.867	9.1994	-1.5672	1.5664	-1.0558	-0.0873	-1.3361	-0.4484	9.5799	-0.7643	-1.5936	-23.4935	5.8433	0.5132	-1.5617	0.2289	1.3098
1.2988	1.4322	9.4259	0.6818	3.3245	-2.7125	0.6304	-0.1681	-0.4443	0.535	1.9822	9.6773	-1.2415	0.7954	-1.5631	-0.1588	-1.3347	-0.4311	9.4686	-0.3046	-1.4192	-24.8546	5.4757	0.8073	-1.5439	0.2269	1.3284
1.3594	1.6625	9.6048	1.6077	3.8395	-1.9389	0.6484	-0.1681	-0.4203	0.5969	1.6962	9.8562	-0.6521	-0.566	-1.4628	-0.1023	-1.315	-0.485	9.5302	-0.3612	-1.1848	-26.2701	5.1689	1.4433	-1.5267	0.2112	1.3122
1.2425	1.3174	9.4836	1.8762	4.9602	-1.8474	0.6544	-0.1741	-0.4203	0.4744	1.753	9.4974	-0.6505	-2.0411	-1.1494	-0.1442	-1.3536	-0.4481	9.3607	-0.6476	-1.1309	-27.6858	4.5544	1.8548	-1.5608	0.1724	1.352
1.3007	1.6049	9.5445	1.7327	5.7	-1.9007	0.6364	-0.1681	-0.4323	0.3049	2.269	9.7326	-0.4208	-2.9949	-1.5984	-0.1155	-1.3544	-0.4479	9.4177	-0.5903	-1.1296	-28.5963	4.0639	1.7357	-1.5616	0.2114	1.3117
1.9307	0.6832	9.2591	1.8169	5.9393	-2.359	0.6544	-0.1861	-0.4263	0.8261	1.81	9.8018	0.1895	-3.3415	-1.9433	-0.1298	-1.354	-0.448	9.5301	-0.9924	-1.2454	-29.287	3.7871	2.0498	-1.5965	0.2448	1.3257
1.1902	1.4907	9.7784	2.4195	5.8508	-2.8622	0.6304	-0.1861	-0.4383	0.246	1.811	9.6116	0.8347	-3.5638	-2.78	-0.1435	-1.3743	-0.4116	9.8665	-0.1907	-1.4691	-30.4113	3.5431	2.0962	-1.5444	0.1957	1.2955
1.4153	1.3746	9.4871	2.6546	6.0833	-3.4462	0.6424	-0.1681	-0.4143	0.6486	1.6955	9.5603	-0.584	-3.7534	-3.0638	-0.1435	-1.3743	-0.4116	9.6428	-0.8781	-1.3011	-30.9634	3.4219	1.888	-1.5791	0.2115	1.3114
1.4113	1.7192	9.3106	2.8199	6.0429	-4.1521	0.6484	-0.1741	-0.4443	0.8727	1.4653	9.2081	-1.251	-3.25	-3.2413	-0.1303	-1.3348	-0.4488	9.8686	-0.8215	-1.413	-31.5309	4.1643	1.5814	-1.5273	0.2151	1.2756
1.1259	1.4325	9.4225	3.0253	6.0022	-4.5234	0.6364	-0.1741	-0.4143	0.3034	1.9254	9.6131	-1.555	-3.1503	-3.796	-0.1454	-1.296	-0.4504	9.8731	-0.7633	-1.1794	-31.7925	4.4751	1.0099	-1.5792	0.229	1.3095
1.4178	1.835	9.6655	3.4756	5.8899	-4.9315	0.6484	-0.1801	-0.4263	0.9933	1.6946	9.508	-1.9179	-2.8665	-4.1004	-0.1008	-1.374	-0.447	10.5005	-0.8217	-1.167	-32.391	4.7871	0.3834	-1.5446	0.2308	1.2918
1.4772	1.4901	9.7249	4.1475	6.0438	-5.313	0.6484	-0.1861	-0.4143	0.9846	1.8654	9.0924	-1.9128	-2.6205	-4.2195	-0.0863	-1.3921	-0.4818	10.1564	-0.3051	-1.2304	-33.0544	5.2228	-0.3307	-1.6312	0.1591	1.3161
1.4158	1.7197	9.547	4.8813	6.6527	-5.968	0.6604	-0.1801	-0.4323	0.7006	1.5803	9.2642	-1.6628	-2.4401	-4.3085	-0.1721	-1.3903	-0.4647	10.0504	-0.3608	-0.8244	-33.277	5.1017	-0.8229	-1.5437	0.1918	1.3321
1.2434	2.0651	9.6036	5.9648	7.462	-6.3862	0.6484	-0.1621	-0.4263	0.6528	1.9249	9.7984	-1.7795	-2.0704	-4.1477	-0.1149	-1.3913	-0.4821	9.7065	-0.7622	-0.9494	-33.6526	5.1963	-1.1826	-1.5617	0.2289	1.3098
1.2463	1.7204	9.7209	8.6362	9.8895	-6.2237	0.6484	-0.1801	-0.4323	0.5923	1.6385	9.6184	-2.2359	-1.8163	-4.2984	-0.1584	-1.3539	-0.4304	9.5899	-0.5904	-1.0678	-33.8666	4.9509	-1.3703	-1.5795	0.231	1.2912
1.5316	1.432	9.5486	12.4841	14.8659	-6.4107	0.6364	-0.1801	-0.4143	0.4792	1.6963	9.735	-1.6123	-1.3372	-3.949	-0.1307	-1.3156	-0.4495	9.5922	-0.5899	-0.9511	-34.0498	4.6438	-1.5911	-1.5798	0.2329	1.2729
1.8277	1.375	9.9678	19.3695	22.1621	-6.5361	0.6484	-0.1921	-0.4203	0.5871	1.8097	9.3811	-2.0695	-1.1141	-4.0385	-0.1304	-1.334	-0.4666	9.2504	-0.1303	-0.8979	-33.8666	4.3972	-1.756	-1.5447	0.1976	1.2772
1.7102	0.7424	9.7867	27.6627	30.9534	-8.0599	0.6424	-0.1801	-0.4203	0.5327	1.4667	9.498	-1.7914	-0.9675	-3.5413	-0.1443	-1.3528	-0.466	9.541	-0.6462	-0.6606	-33.5753	4.1833	-2.5385	-1.5968	0.196	1.2946
1.5402	1.6631	10.0219	38.0781	38.0545	-12.2684	0.6484	-0.1861	-0.4203	0.4774	1.9823	9.6762	-1.8168	-0.7206	-3.7222	-0.1158	-1.336	-0.4308	9.3015	0.0407	-1.1879	-32.7562	4.0282	-2.8676	-1.5634	0.2562	1.2163
-3.3897	7.1311	8.8167	6.9359	27.5795	2.034	0.6604	-0.1981	-0.4203	0.5344	1.7531	9.6175	-2.217	-0.714	-3.6919	-0.1298	-1.3709	-0.5008	9.5991	-0.5887	-0.6009	-32.0571	3.8731	-3.1018	-1.5274	0.2326	1.2737
1.3567	0.6845	9.3661	-4.9918	14.8882	22.1424	0.6664	-0.1861	-0.4143	0.7168	1.7536	10.0964	-2.6899	-1.2595	-3.4863	-0.1161	-1.3176	-0.4137	9.3088	-0.2449	-0.8388	-30.3529	3.4651	-2.2227	-1.5628	0.2016	1.2402
0.6705	2.0666	9.7697	1.1701	9.1789	-2.0195	0.6484	-0.1861	-0.4203	0.6585	1.5247	10.0353	-2.5534	-2.0626	-2.8827	-0.1446	-1.3344	-0.4489	9.4876	-0.8175	-0.4873	-29.9911	3.065	-2.7038	-1.5451	0.2171	1.257
0.7726	1.8922	9.0622	6.3144	9.6871	2.7393	0.6484	-0.1981	-0.4383	0.7096	1.8102	9.74	-1.048	-2.1513	-2.511	-0.1156	-1.3537	-0.4657	9.4855	-0.1868	-0.5434	-29.3161	2.0738	-1.8516	-1.5622	0.1645	1.2623
1.0129	2.0655	9.5991	-10.8192	6.001	3.2568	0.6604	-0.1981	-0.4023	0.5326	1.524	9.4982	1.6622	-2.1951	-3.063	-0.1138	-1.4312	-0.4448	9.9355	-0.5903	-0.8858	-27.4988	0.9855	-0.4702	-1.5621	0.1977	1.2769
1.0152	1.3758	9.6565	-7.4782	6.5289	1.9583	0.6784	-0.1861	-0.4263	0.7076	1.6382	9.6208	-2.0389	-2.4718	-2.5802	-0.158	-1.3731	-0.4296	9.6039	-0.014	-0.3071	-26.2036	0.1237	-1.8462	-1.5796	0.1978	1.2766
0.9494	2.1799	9.3027	-10.3017	6.0088	2.9697	0.6544	-0.1981	-0.4263	0.5296	1.2947	9.3194	-0.9581	-2.2757	-2.4822	-0.1008	-1.374	-0.447	9.9954	0.5578	-0.6471	-24.1664	-0.7155	-1.3868	-1.5795	0.1803	1.2784
0.7783	1.8354	9.3576	-9.6844	4.7229	1.483	0.6484	-0.1921	-0.4263	0.9978	2.3247	9.8064	0.8962	-1.8779	-2.3792	-0.1157	-1.3368	-0.4129	9.6521	-0.2452	-0.7736	-21.9266	-1.092	-1.1033	-1.5451	0.2171	1.257
0.8961	1.663	9.4776	-9.2044	4.6398	1.0132	0.6664	-0.1921	-0.4203	0.995	1.9809	9.6274	-2.6767	-1.8807	-1.8604	-0.1453	-1.2968	-0.4326	9.6588	-0.1292	-0.4231	-19.7866	-1.4671	-1.1876	-1.5627	0.184	1.2421
0.8976	2.0657	9.5968	-10.441	3.8065	1.4961	0.6664	-0.1801	-0.4203	0.3037	2.2689	9.6732	-3.0457	-1.7841	-1.4578	-0.0869	-1.3553	-0.4477	9.5487	-0.4726	-0.2515	-17.3086	-1.4128	-0.8657	-1.5978	0.2193	1.2378
1.1282	1.4328	9.5407	-10.7443	2.9002	1.1322	0.6724	-0.1861	-0.4203	0.6468	1.9815	9.5015	-0.6377	-1.426	-1.4473	-0.1303	-1.3348	-0.4488	9.4884	-0.5879	-0.4281	-14.7423	-1.4197	-0.7322	-1.5973	0.1316	1.2471
0.6702	1.6065	9.7094	-11.52	1.6461	0.6557	0.6604	-0.1801	-0.4203	0.5915	1.9819	9.6191	-1.7164	-1.3794	-0.8615	-0.1436	-1.3735	-0.4295	9.5527	-0.0702	-0.0166	-12.5994	-1.3954	-0.4045	-1.5627	0.1333	1.2294
0.7775	1.6628	9.2981	-9.8084	-0.6596	0.2652	0.6604	-0.1741	-0.4203	0.4763	1.9249	9.6166	-2.2991	-1.2471	-0.7675	-0.1147	-1.3928	-0.4463	9.3783	-0.1853	-0.1956	-10.18	-1.372	0.0102	-1.5791	0.1608	1.2986
0.7926	1.3771	10.0658	-7.698	-1.7926	-0.9518	0.6664	-0.1861	-0.4023	1.053	2.3243	9.6887	-1.5531	-0.7708	-0.2326	-0.1448	-1.3329	-0.4846	9.6661	0.3311	-0.0129	-7.9192	-1.7165	-0.1065	-1.5799	0.1997	1.2583
0.7805	1.8357	9.4758	-8.3213	-2.6216	-0.6364	0.6484	-0.1801	-0.4023	0.7019	1.5232	9.3235	-2.5915	-0.2936	-0.0097	-0.1437	-1.3728	-0.4473	9.5531	-0.3571	-0.0177	-5.633	-1.9987	-0.4068	-1.5625	0.1489	1.2458
1.1281	1.4903	9.5408	-10.9444	-2.8428	0.7379	0.6604	-0.1741	-0.4023	0.3065	2.0974	9.7917	-3.1377	0.115	-0.0343	-0.0871	-1.3537	-0.4834	9.5486	-0.4153	-0.2513	-3.6703	-2.0359	0.0153	-1.5451	0.2171	1.257
0.9006	1.6636	9.7141	-7.7334	-2.3622	1.4862	0.6664	-0.1861	-0.4323	0.4185	1.9823	9.6156	-2.7663	0.2612	0.1852	-0.1447	-1.3336	-0.4667	9.4355	-0.3001	-0.1948	-1.0098	-1.8282	0.4304	-1.5623	0.2328	1.2731
0.7898	1.6643	9.9482	-8.1468	-0.6596	2.2688	0.6544	-0.1741	-0.4203	0.5345	1.6959	9.6173	-2.6997	0.5662	0.4069	-0.1156	-1.3537	-0.4657	9.7207	-0.3006	-0.1891	0.692	-1.0932	0.6331	-1.5981	0.1705	1.2067
0.9022	1.3762	9.7725	-7.7123	0.5475	2.7227	0.6844	-0.1801	-0.4143	0.6494	1.8673	9.6201	-2.9805	0.3863	0.4959	-0.1286	-1.4116	-0.4457	9.5578	-0.4136	0.2155	3.0219	-0.3011	1.688	-1.5452	0.1839	1.2424
1.0154	1.8933	9.7169	-7.1566	0.4938	2.7394	0.6424	-0.1741	-0.4383	0.476	1.5815	9.5565	-3.2528	0.6366	0.4999	-0.1151	-1.3736	-0.4471	9.9509	-0.1858	-0.0674	5.1367	0.4611	2.6539	-1.5793	0.1959	1.2949
1.1911	0.9733	9.7771	-7.0128	0.8569	3.2566	0.6604	-0.1621	-0.4203	0.5344	1.7531	9.6175	-2.9512	0.3841	0.8974	-0.1297	-1.3548	-0.4301	9.2729	-0.5852	0.2092	6.5389	0.9191	2.9163	-1.5976	0.1842	1.2415
1.2464	1.6629	9.7208	-7.0597	1.1357	3.6255	0.6604	-0.1621	-0.4143	1.1144	1.7521	9.8076	-2.6432	0.4693	1.3009	-0.1005	-1.3925	-0.4641	9.3772	-0.1855	-0.2539	8.8255	1.4673	3.2253	-1.5621	0.1977	1.2769
0.7805	1.2031	9.4152	-6.6772	1.9452	3.5598	0.6544	-0.1681	-0.4203	0.7002	1.752	9.2645	-2.7688	0.3483	1.3603	-0.1013	-1.3541	-0.4656	9.6589	-0.1866	-0.4233	11.3399	1.8281	4.0485	-1.5453	0.2015	1.2405
1.3621	1.4328	9.7225	-5.9416	1.8221	3.4192	0.6544	-0.1801	-0.4323	0.7038	1.7524	9.4428	-3.139	0.3836	1.7618	-0.1309	-1.3141	-0.4853	9.4352	-0.0707	-0.194	12.8695	2.285	4.5549	-1.5797	0.1646	1.262
1.0738	1.4908	9.717	-6.4833	2.0604	3.7998	0.6664	-0.1561	-0.4143	0.7039	1.6951	9.4427	-2.0294	0.4268	1.6101	-0.1295	-1.3724	-0.4651	9.4937	-0.3	-0.1353	15.1888	2.8635	4.9874	-1.5798	0.1822	1.2601
1.0165	1.3184	9.7155	-6.2682	1.8987	3.8546	0.6604	-0.1741	-0.4263	0.7617	1.6378	9.4437	-2.8601	0.5011	1.888	-0.1012	-1.3548	-0.4478	9.494	-0.4721	-0.136	16.943	3.6611	4.8518	-1.6142	0.1961	1.2943
0.9563	1.4907	9.5966	-6.7798	1.8916	4.3552	0.6784	-0.1741	-0.4203	0.3022	1.9252	9.5536	-2.4255	0.6783	1.7992	-0.144	-1.3712	-0.4831	9.4927	-0.415	-0.1941	18.9187	4.2416	4.9214	-1.5965	0.194	1.3129
0.7929	1.2047	10.0653	-6.2931	2.0532	3.9782	0.6544	-0.1681	-0.4263	0.5886	1.6954	9.4403	-1.6506	0.9717	1.8985	-0.1439	-1.3551	-0.4124	9.7286	-0.2418	0.2196	20.7429	4.8839	5.0882	-1.5794	0.1627	1.2803
0.7926	1.3771	10.0658	-5.448	2.6297	4.022	0.6544	-0.1681	-0.4143	1.0512	2.0951	9.5694	-2.6619	1.234	2.0249	-0.1169	-1.2961	-0.468	9.6635	-0.9317	-0.2509	22.0166	5.497	5.1727	-1.5801	0.1841	1.2418
1.4249	1.0308	9.9591	-4.2695	3.1304	3.8741	0.6544	-0.1801	-0.4263	0.2985	1.9821	9.3755	-2.9344	1.4841	2.0598	-0.0999	-1.4124	-0.4455	9.6677	-0.7014	-0.0166	23.2505	5.8656	4.6654	-1.5981	0.1705	1.2067
1.0756	1.0885	9.7752	-3.1022	3.5688	3.3602	0.6544	-0.1621	-0.4323	0.8782	1.1224	9.4451	-2.7794	1.5728	2.247	-0.1433	-1.3919	-0.4466	10.2339	-0.99	-0.2397	24.5386	6.2919	5.2683	-1.5798	0.1822	1.2601
1.074	2.0084	9.7774	-1.9567	3.7045	3.3636	0.6664	-0.1561	-0.4143	0.832	1.8106	10.0989	-2.8959	1.9428	2.346	-0.13	-1.3363	-0.413	9.6128	-0.5862	0.0993	24.8296	6.4117	6.0981	-1.58	0.2173	1.2564
1.2511	1.5485	9.9569	-1.5268	3.8082	3.2012	0.6664	-0.1621	-0.4203	0.8244	1.5236	9.6824	-2.4347	1.8743	2.1603	-0.1164	-1.316	-0.4494	9.6108	-0.7587	-0.018	25.3045	6.4694	6.9225	-1.5802	0.2017	1.2399
1.0788	1.2039	9.9527	-0.975	3.7235	3.0958	0.6664	-0.1621	-0.4263	0.7721	1.7533	9.9787	-2.3408	2.0247	2.5337	-0.0866	-1.3737	-0.4647	9.7159	-0.8753	-0.483	25.4609	6.3454	7.0083	-1.6147	0.1648	1.2614
0.7825	1.3759	9.5338	-1.5134	3.2254	2.923	0.6664	-0.1621	-0.4263	0.8857	1.9818	9.9222	-2.1888	1.9298	2.5632	-0.116	-1.3352	-0.4487	9.8391	-0.8738	-0.0138	25.7424	6.0975	7.1497	-1.6144	0.2312	1.2906
1.2464	1.6629	9.7208	-1.8852	3.3933	2.7804	0.6664	-0.1561	-0.4143	0.8233	1.9815	9.6833	-1.7632	1.6463	2.5589	-0.1295	-1.3724	-0.4651	10.0017	-0.5887	-0.4179	25.8129	5.8191	7.387	-1.614	0.2117	1.3108
0.7896	1.7793	9.9485	-1.4	3.4632	2.403	0.6664	-0.1621	-0.4203	0.2491	1.5251	9.7299	-0.8692	1.6929	2.4686	-0.1287	-1.4108	-0.4636	10.0535	-0.8766	-0.7095	26.0958	5.571	7.59	-1.6148	0.2331	1.2723
0.7945	1.5499	10.1844	-0.725	3.7089	2.0829	0.6604	-0.1741	-0.4263	0.4763	1.9249	9.6166	-1.1467	1.667	2.4368	-0.1165	-1.3153	-0.4673	9.4828	-0.6463	-0.7201	26.4579	5.417	7.301	-1.5975	0.2681	1.2688
1.0735	1.6633	9.7174	-0.2026	4.0528	1.7671	0.6664	-0.1741	-0.3963	0.7124	1.1235	9.798	-0.7636	0.8601	2.9172	-0.1441	-1.3543	-0.4303	10.063	-1.1044	-0.2435	25.4482	5.6045	7.2957	-1.5794	0.2134	1.293
0.9567	1.2607	9.596	0.8775	4.4652	1.4687	0.6664	-0.1681	-0.4263	0.4122	1.6382	9.2583	0.7982	0.3442	2.4783	-0.1446	-1.3344	-0.4489	10.1778	-0.8176	-0.1818	25.7169	5.7585	7.1406	-1.6149	0.1999	1.2577
0.8417	1.0885	9.5933	1.1499	4.4835	1.2486	0.6724	-0.1681	-0.4203	0.5326	1.9819	9.5585	3.2865	0.0566	2.3849	-0.1156	-1.3537	-0.4657	10.1185	-0.8753	-0.2999	25.8243	6.3756	6.9095	-1.6153	0.2701	1.2502
0.7858	1.3763	9.7111	1.5671	4.926	1.5461	0.6724	-0.1681	-0.4323	0.476	1.5815	9.5565	3.0374	-0.1526	2.041	-0.1304	-1.334	-0.4666	9.8917	-0.9894	-0.2465	25.8675	6.7473	6.3644	-1.5803	0.2192	1.2381
0.5562	1.4918	9.766	1.948	5.3388	1.6612	0.6484	-0.1741	-0.4203	0.649	1.5238	9.56	3.1931	-0.093	1.857	-0.1591	-1.3324	-0.4847	9.6635	-0.1858	-0.1898	25.5575	7.0871	6.3803	-1.5976	0.2349	1.2542
0.8468	1.3766	9.8896	2.5658	5.8011	1.3743	0.6544	-0.1741	-0.4083	0.415	1.4668	9.3768	3.1338	0.0006	1.735	-0.1304	-1.334	-0.4666	9.4934	-0.8165	-0.1956	24.916	7.3042	6.4918	-1.5633	0.2386	1.2182
1.1269	1.4901	9.4817	2.2985	5.7833	1.7773	0.6664	-0.1861	-0.4143	0.703	1.5806	9.383	2.0241	-0.1328	1.4528	-0.1158	-1.336	-0.4308	9.5462	-1.0469	-0.4287	24.1236	7.5521	6.6996	-1.5626	0.2347	1.2548
0.552	1.3188	9.5292	1.7923	5.3146	1.6343	0.6604	-0.1741	-0.4203	1.1144	1.7521	9.8076	2.0819	-0.3483	1.3564	-0.1458	-1.2776	-0.4333	9.3226	-1.0457	-0.1998	23.4333	7.5829	7.2383	-1.579	0.2447	1.326
0.5511	1.2037	9.4698	1.243	4.6627	1.1558	0.6664	-0.1681	-0.4203	0.7092	1.9819	9.7403	2.2982	-0.3209	1.2646	-0.116	-1.3352	-0.4487	9.8413	-0.816	0.1031	22.2144	7.1197	8.3591	-1.5801	0.2348	1.2545
0.4925	1.7787	9.4701	0.9667	3.3276	0.9108	0.6784	-0.1741	-0.4083	0.6409	1.4658	9.1439	3.0685	-0.3328	0.9877	-0.1596	-1.3132	-0.4855	9.7707	-0.9331	-0.5987	20.8599	6.659	8.8662	-1.5981	0.272	1.2322
0.781	1.5482	9.4751	1.0193	3.2325	0.6344	0.6724	-0.1501	-0.3963	0.7611	1.8667	9.4442	2.9116	-0.4838	1.0156	-0.1308	-1.3149	-0.4674	9.4874	-0.6455	-0.4867	19.6068	6.3856	8.5752	-1.528	0.2365	1.2371
1.0729	1.3756	9.6576	1.5263	2.873	0.193	0.6784	-0.1741	-0.4203	0.8212	1.3516	9.5038	2.6653	-0.5098	0.8912	-0.1022	-1.3157	-0.4672	9.7673	-0.9338	-0.7738	17.9389	6.173	8.8799	-1.6319	0.2313	1.2903
1.0171	1.606	9.7753	1.6023	2.5318	-0.2074	0.6664	-0.1681	-0.4323	1.1027	1.6937	9.2133	2.2944	-0.5353	1.1681	-0.129	-1.3924	-0.4465	10.2792	-0.82	-0.8215	16.7549	6.3596	9.2788	-1.5973	0.233	1.2726
1.0172	1.5485	9.7751	1.633	2.4695	-0.178	0.6604	-0.1681	-0.4083	0.7077	2.0962	9.6811	1.7429	-0.433	0.9836	-0.1306	-1.3164	-0.4317	9.6048	-0.5876	-0.3091	15.4994	6.302	9.0248	-1.5971	0.2486	1.289
0.6095	1.4337	9.5306	1.7203	2.0074	-0.0913	0.6784	-0.1801	-0.4263	0.4742	1.8103	9.4976	1.2172	-0.5472	1.0424	-0.1441	-1.3543	-0.4303	9.9472	-0.7603	-0.3029	14.4846	6.275	8.6437	-1.5974	0.2506	1.2707
0.7784	1.7779	9.3575	1.4878	2.2282	-0.8165	0.6664	-0.1681	-0.4203	0.7038	1.7524	9.4428	0.971	-0.573	0.8871	-0.1294	-1.3732	-0.4472	9.6672	-1.1032	-0.0765	13.4149	6.524	8.7338	-1.6325	0.2859	1.2664
0.7854	1.6063	9.7117	1.1579	1.4762	-1.1179	0.6664	-0.1801	-0.4083	0.7067	1.5237	9.5611	0.2617	-0.7128	0.5128	-0.1302	-1.3356	-0.4309	9.8369	-0.9316	-0.1308	12.8029	6.8027	8.8465	-1.5976	0.2857	1.267
0.5576	1.377	9.8248	1.5209	1.6734	-1.5221	0.6724	-0.1621	-0.4143	0.4173	1.5242	9.4958	0.9086	-0.663	0.6383	-0.1456	-1.2952	-0.4683	9.6595	-0.5882	-0.4247	11.7983	7.0509	9.1202	-1.6151	0.235	1.2539
0.7901	1.4918	9.9478	1.6322	1.5449	-1.8917	0.6724	-0.1801	-0.4143	0.7095	1.3522	9.6796	1.1874	-0.6356	0.2996	-0.1288	-1.3939	-0.4107	9.8363	-0.5874	-0.1295	10.8796	7.6688	9.4028	-1.6142	0.2468	1.3071
1.3627	1.7204	9.7823	1.8291	0.7101	-2.0843	0.6784	-0.1621	-0.3963	0.5857	1.9241	9.3219	0.908	-0.7838	0.1729	-0.1298	-1.354	-0.448	9.6108	-0.7587	-0.018	10.1099	7.9794	9.3038	-1.597	0.3325	1.3163
0.9574	1.4908	9.6557	1.893	0.9823	-2.1758	0.6544	-0.1861	-0.4083	0.5316	1.9246	9.499	0.2816	-1.3263	0.2857	-0.1586	-1.3524	-0.4661	9.8246	-1.1059	-0.7733	9.1806	8.2607	8.868	-1.6159	0.274	1.2136
0.7898	1.6643	9.9482	2.5038	0.4936	-3.2612	0.6724	-0.1681	-0.4083	0.4193	2.1541	9.6753	0.4274	-1.7284	0.4023	-0.173	-1.3512	-0.4841	9.6669	-0.9311	-0.0758	8.141	8.1714	8.7013	-1.5973	0.233	1.2726
0.893	1.4901	9.2999	2.9847	0.1665	-3.5493	0.6724	-0.1681	-0.4263	0.4776	1.4099	9.6156	0.7366	-1.7319	0.0013	-0.145	-1.3152	-0.4496	10.0582	-0.9332	-0.4763	8.3766	7.7722	8.0379	-1.5801	0.2856	1.2673
0.9048	1.204	9.8903	3.1504	-0.545	-3.832	0.6784	-0.1801	-0.4203	1.1784	2.096	10.166	1.7874	-1.4744	0.2239	-0.1446	-1.3344	-0.4489	9.7091	-0.9339	-0.8333	6.981	7.5024	6.8252	-1.5976	0.2857	1.267
0.7808	1.6632	9.4754	3.6956	-0.4779	-4.2719	0.6604	-0.1741	-0.4263	0.9314	1.9805	9.3291	1.1178	-1.034	0.4159	-0.1004	-1.3932	-0.4462	9.9437	-0.7035	-0.4778	6.1679	6.7078	5.37	-1.5977	0.2525	1.2524
0.9019	1.5487	9.7729	3.8604	-1.1895	-4.5851	0.6724	-0.1741	-0.4083	0.4151	1.9247	9.4372	0.0474	-0.7079	0.2037	-0.1583	-1.3547	-0.4125	10.1055	-0.5907	-0.9408	5.9142	5.8487	4.3334	-1.6151	0.2858	1.2667
0.4961	1.6067	9.647	4.2522	-0.9632	-5.0814	0.6784	-0.1801	-0.4023	0.6426	1.7521	9.2633	-1.1823	-0.5353	0.637	-0.1155	-1.3544	-0.4479	9.9424	-0.589	-0.5357	4.8929	4.8385	2.9687	-1.6161	0.3091	1.2098
1.4159	1.6622	9.5469	4.3402	-0.8456	-5.3269	0.6604	-0.1681	-0.4203	1.1741	1.4087	9.8675	0.081	-0.525	0.3923	-0.1297	-1.3548	-0.4301	9.5409	-0.5888	-0.6604	3.9106	3.9807	2.1007	-1.6326	0.2527	1.2518
0.4414	1.2621	9.7632	4.2444	-0.9336	-5.3861	0.6844	-0.1681	-0.4263	0.9333	1.6945	9.388	0.1397	-0.6794	0.3587	-0.1011	-1.3556	-0.4299	9.8824	-0.1304	-0.6519	3.1724	3.03	1.1636	-1.6163	0.3442	1.2061
0.782	1.6634	9.5345	3.9692	-0.9217	-5.2878	0.6724	-0.1681	-0.4143	0.7034	1.924	9.4431	1.0673	-0.5099	0.1163	-0.1022	-1.3157	-0.4672	9.8227	-0.6472	-0.83	2.674	2.633	0.4224	-1.6322	0.2839	1.2847
0.8941	1.5477	9.3592	3.56	-0.7486	-4.5447	0.6664	-0.1681	-0.4143	0.5939	1.9821	9.738	1.3418	-0.6676	-0.0096	-0.1302	-1.3356	-0.4309	10.0549	-1.0485	-0.6518	2.1869	1.9266	-0.0195	-1.598	0.3051	1.2468
0.7853	1.6638	9.7118	3.1805	-0.7905	-3.7121	0.6664	-0.1861	-0.4203	1.0535	1.6374	9.6279	2.8547	-0.3873	0.2143	-0.1456	-1.2952	-0.4683	10.0634	-0.6453	-0.1835	2.0349	1.527	-0.2745	-1.5978	0.27	1.2505
0.7811	1.4907	9.475	2.3088	-0.4759	-3.018	0.6844	-0.1801	-0.4143	0.7662	1.7527	9.6816	1.9978	-0.157	0.0316	-0.1447	-1.3336	-0.4667	9.7147	-0.8755	-0.5413	1.6378	1.3436	-0.4259	-1.6509	0.3425	1.2239
0.3211	1.5492	9.5252	1.627	-0.3822	-2.0247	0.6724	-0.1741	-0.4143	0.5927	1.982	9.6785	1.5438	0.2799	0.193	-0.1585	-1.3531	-0.4482	9.5984	-0.1871	-0.5995	1.5399	1.1295	-0.8616	-1.6158	0.3072	1.2282
0.8332	1.4899	9.1806	1.1935	0.5251	-1.4903	0.6664	-0.1801	-0.4143	0.9363	1.9237	9.5667	0.7443	0.2942	0.0374	-0.1312	-1.2957	-0.4682	9.5973	-0.9333	-0.7189	1.4799	0.8834	-0.9908	-1.6157	0.2896	1.23
0.8474	1.6642	9.9494	0.6841	0.5487	-0.9287	0.6724	-0.1681	-0.4143	0.5294	1.8671	9.38	1.5122	0.2195	0.0992	-0.1023	-1.315	-0.485	9.3786	-1.1034	-0.2572	1.3607	0.4219	-1.1865	-1.5803	0.2699	1.2508
0.7834	1.491	9.5932	0.393	1.0516	-0.5831	0.6604	-0.1741	-0.4203	0.4765	1.8677	9.6165	0.927	0.1987	0.0978	-0.1441	-1.3543	-0.4303	9.2615	-0.6447	-0.3746	1.4647	-0.0108	-0.9235	-1.5979	0.2876	1.2486
0.7903	1.3769	9.9475	-0.1209	1.1052	-0.2042	0.6664	-0.1741	-0.4023	0.5327	1.4667	9.498	0.7767	0.4457	0.3799	-0.1297	-1.3548	-0.4301	10.0622	-0.5882	-0.2416	1.3901	-0.5976	-0.5689	-1.6159	0.3247	1.2263
0.8972	1.6631	9.5368	0.0631	0.8838	-0.1185	0.6664	-0.1741	-0.4083	0.8686	2.1519	9.0906	0.9641	0.5657	0.2897	-0.1595	-1.314	-0.4676	9.6608	-0.6453	-0.3666	1.6443	-1.1535	-0.4974	-1.5982	0.2895	1.2303
0.7844	1.5486	9.6524	-0.0884	0.9516	-0.0534	0.6664	-0.1621	-0.4083	0.8739	1.9234	9.3278	-0.1139	0.583	0.5352	-0.1442	-1.3536	-0.4481	9.8276	-0.8185	-0.5972	1.7156	-1.6166	-0.3579	-1.6152	0.3033	1.2648
0.7896	1.7793	9.9485	0.1888	0.8179	0.0001	0.6784	-0.1861	-0.4083	0.7038	1.7524	9.4428	-0.9146	0.596	0.6885	-0.1304	-1.334	-0.4666	9.7146	-0.8181	-0.5411	1.5308	-1.7697	-0.5435	-1.6326	0.3034	1.2645
0.7797	1.6631	9.4163	0.4617	0.4701	0.022	0.6784	-0.1741	-0.4083	0.3561	1.982	9.3767	0.1055	0.7641	0.3844	-0.1297	-1.3548	-0.4301	9.7138	-0.9904	-0.6001	1.8025	-1.5854	-0.5437	-1.5806	0.2719	1.2325
0.7281	1.4339	9.7101	0.1367	-0.1899	-0.1569	0.6664	-0.1801	-0.4083	0.6501	1.5812	9.6195	-0.0461	0.8894	0.4173	-0.1306	-1.3164	-0.4317	9.88	-0.8194	-0.8295	1.8269	-1.3076	-0.6287	-1.6322	0.2839	1.2847
0.7292	1.434	9.7692	0.2851	-0.441	-0.223	0.6724	-0.1801	-0.4203	0.6492	1.4666	9.5598	0.0459	0.8574	0.3551	-0.1459	-1.2768	-0.4512	9.7158	-0.8179	-0.4828	1.9113	-0.8762	-0.6489	-1.5804	0.3382	1.2617
0.9605	1.6637	9.8334	0.1308	-0.5871	-0.1286	0.6724	-0.1681	-0.4143	0.9911	2.1523	9.4495	-0.5336	1.2036	0.6691	-0.1442	-1.3536	-0.4481	8.9729	-0.6449	-0.5554	1.9049	-0.5368	-0.7007	-1.5637	0.3088	1.2107
0.7241	1.7784	9.5337	-0.1202	-0.5772	-0.275	0.6724	-0.1741	-0.4203	0.3597	1.9823	9.5549	0.6983	1.1837	0.4238	-0.1731	-1.3343	-0.4312	9.4352	-0.8166	-0.2551	1.9932	-0.3213	-0.6963	-1.5979	0.2876	1.2486
0.8468	1.3766	9.8896	-0.4945	-0.2571	-0.5996	0.6724	-0.1801	-0.4143	0.3011	1.8679	9.4941	-0.927	1.5183	0.4579	-0.1437	-1.3728	-0.4473	9.7695	-0.876	-0.6569	1.7785	0.0793	-0.4648	-1.6684	0.2918	1.2108
0.5494	1.5485	9.4115	-0.1802	-0.0253	-0.5449	0.6664	-0.1801	-0.4083	0.8797	1.9812	9.6251	-1.329	1.4628	0.6724	-0.116	-1.3352	-0.4487	9.6609	-0.76	-0.367	1.7667	0.3272	-0.8274	-1.5981	0.272	1.2322
0.7812	1.4332	9.4748	-0.5233	-0.3776	-0.447	0.6724	-0.1561	-0.4083	0.5359	2.0967	9.737	-1.725	1.6544	0.5207	-0.158	-1.3731	-0.4296	9.8357	-0.9318	-0.1891	1.3406	0.2666	-0.8206	-1.5978	0.27	1.2505
0.7197	1.7204	9.2971	-0.4968	-0.4404	-0.5701	0.6844	-0.1801	-0.4083	0.9878	1.5223	9.2106	-2.2198	1.54	0.5178	-0.1441	-1.3543	-0.4303	10.2811	-0.5328	-0.7037	0.8533	0.1754	-0.8443	-1.5975	0.2681	1.2688
0.7225	2.0658	9.4753	-0.5769	-0.3436	-0.171	0.6724	-0.1741	-0.4263	0.6488	1.6383	9.5602	-1.9438	1.5041	0.6412	-0.1444	-1.352	-0.4838	10.1667	-1.0491	-0.7662	0.3064	0.1764	-0.7409	-1.5974	0.3013	1.2834
0.7855	1.5488	9.7115	-0.5971	0.0859	-0.046	0.6664	-0.1681	-0.4083	0.4738	1.9819	9.4979	-1.6331	1.6224	0.4585	-0.1439	-1.372	-0.4652	9.5362	-0.5323	-0.8936	-0.0271	0.3615	-0.5132	-1.5975	0.3188	1.2816
0.4344	1.3762	9.4089	-0.1696	0.2504	-0.33	0.6664	-0.1681	-0.4323	0.8797	1.9812	9.6251	-2.3092	1.695	0.5204	-0.1447	-1.3336	-0.4667	9.541	-0.6462	-0.6606	-0.3241	0.238	-0.2333	-1.6328	0.2878	1.2481
0.4472	1.7803	10.1191	-0.4691	0.3558	-0.0476	0.6664	-0.1621	-0.4083	0.6421	1.9238	9.2637	-2.5895	1.5458	0.6408	-0.1592	-1.3155	-0.4319	9.5448	-0.875	-0.4864	-0.6774	0.2061	0.3277	-1.6327	0.2702	1.2499
1.0092	1.605	9.3615	-0.763	0.7364	0.2668	0.6604	-0.1861	-0.4083	0.6518	1.8675	9.7389	-2.5312	1.3608	0.5758	-0.1158	-1.336	-0.4308	9.8904	-0.8749	-0.3045	-0.9749	0.2057	0.6727	-1.6503	0.3386	1.2605
0.8993	1.7784	9.6552	-0.7868	0.8605	0.4512	0.6664	-0.1681	-0.4143	0.7606	1.5804	9.3842	-2.1899	1.4784	0.455	-0.1439	-1.3551	-0.4124	9.8334	-0.8748	-0.3056	-1.1627	0.2069	0.4607	-1.5802	0.2524	1.2527
1.1315	1.4332	9.718	-0.819	1.3192	0.119	0.6724	-0.1801	-0.4203	0.8241	1.6381	9.6826	-2.0428	1.1678	0.6968	-0.1582	-1.3554	-0.3946	9.7783	-0.6449	-0.1892	-1.591	0.0236	0.2791	-1.5808	0.3577	1.2415
1.1893	1.3756	9.719	-0.9949	1.4805	0.3683	0.6664	-0.1741	-0.4263	1.3429	1.6368	9.6933	-1.9953	0.3701	0.3738	-0.1735	-1.3151	-0.432	9.6516	-0.647	-0.8334	-1.2541	-0.0697	0.2697	-1.5974	0.3013	1.2834
0.613	1.3191	9.7076	-1.1118	1.6694	0.4942	0.6724	-0.1681	-0.4143	0.827	1.4094	9.801	-0.8389	-0.2952	0.5801	-0.1155	-1.3544	-0.4479	9.5498	-1.161	-0.254	-1.1595	-0.0089	0.4545	-1.5633	0.2893	1.2309
0.9586	1.4335	9.7146	-0.8017	1.7482	0.4872	0.6844	-0.1621	-0.4083	0.998	1.7522	9.7458	0.4563	-0.2241	0.3365	-0.1727	-1.3535	-0.4305	10.168	-1.1636	-0.7083	-0.8258	0.1136	0.4513	-1.5975	0.2681	1.2688
0.6148	1.6069	9.8265	-0.5672	1.3094	0.2959	0.6844	-0.1741	-0.4203	0.5258	1.8668	9.2018	0.7923	-0.3828	0.2107	-0.1451	-1.3144	-0.4675	9.6036	-1.2764	-0.4284	-0.5813	0.2667	0.5741	-1.5797	0.3168	1.3002
1.0809	1.2616	10.0711	-0.2347	1.2334	0.0738	0.6664	-0.1681	-0.4143	0.4735	2.0964	9.4981	-0.4072	-0.3017	0.3645	-0.115	-1.3744	-0.4293	9.7705	-1.5643	-0.6594	-0.3968	0.2968	0.6637	-1.615	0.2682	1.2685
0.724	1.8359	9.5338	-0.4229	0.8138	0.2285	0.6484	-0.1741	-0.4023	0.7071	1.8672	9.6213	-0.5261	-0.0846	0.3373	-0.1143	-1.3951	-0.3928	9.6611	-0.8748	-0.3674	-0.3988	0.3894	0.6356	-1.6324	0.2683	1.2683
0.7794	1.8356	9.4167	-0.428	0.6607	0.1362	0.6664	-0.1741	-0.4143	0.7075	2.1534	9.6813	-0.6463	0.101	0.4948	-0.1302	-1.3356	-0.4309	10.0617	-0.9899	-0.3015	-0.493	0.2978	0.4499	-1.6151	0.2858	1.2667
1.0079	1.7199	9.3027	-0.5617	0.2072	0.0454	0.6784	-0.1681	-0.4203	0.6479	1.9816	9.5609	-0.582	0.2232	0.3736	-0.1581	-1.3723	-0.4475	9.7181	-0.8175	-0.3661	-0.7969	0.083	0.3574	-1.6152	0.3033	1.2648
1.0193	1.6063	9.8935	-1.0255	0.3179	-0.0342	0.6784	-0.1801	-0.4083	0.9312	1.5798	9.2689	-0.6675	0.6529	0.7517	-0.1019	-1.3341	-0.4843	9.9466	-1.0473	-0.3623	-0.9489	-0.0397	0.2953	-1.5453	0.3029	1.266
1.1915	1.3759	9.8372	-1.2484	0.1127	-0.152	0.6664	-0.1741	-0.4323	0.8766	1.8092	9.4464	-1.1269	0.8433	1.1249	-0.1151	-1.3736	-0.4471	10.0035	-0.99	-0.361	-1.0684	-0.0706	0.3892	-1.597	0.2818	1.3036
0.5536	1.7215	9.6484	-1.3399	-0.0664	0.0017	0.6604	-0.1681	-0.4203	0.5267	1.9813	9.2614	-0.8443	1.1454	1.1617	-0.1582	-1.3716	-0.4653	9.6645	-0.8168	-0.1921	-1.38	0.1465	0.2475	-1.5981	0.3227	1.2449
0.5486	1.3759	9.352	-1.3087	0.0544	-0.0594	0.6664	-0.1741	-0.4083	0.6553	1.4099	9.8568	-1.7053	1.3109	1.7809	-0.129	-1.3924	-0.4465	9.6079	-1.1035	-0.1943	-1.5398	0.4556	0.1363	-1.5803	0.3207	1.2635
0.8494	1.2044	10.0074	-1.1214	-0.0751	0.0879	0.6904	-0.1741	-0.4323	0.7062	2.2105	9.622	-0.5622	1.5368	1.8487	-0.1308	-1.3149	-0.4674	9.6001	-1.2771	-0.6034	-1.749	0.5785	0.4214	-1.5626	0.2855	1.2675
0.7244	1.606	9.5332	-1.4841	-0.0588	0.3713	0.6664	-0.1741	-0.4323	1.053	1.8663	9.6284	-1.2652	1.8245	1.9761	-0.1442	-1.3536	-0.4481	9.2041	-1.1037	-0.4357	-1.9582	0.8859	0.8351	-1.6148	0.3014	1.2831
0.956	1.6632	9.597	-1.9741	-0.0682	0.5357	0.6724	-0.1621	-0.4143	0.5337	2.0393	9.618	-1.1978	2.4305	3.5931	-0.129	-1.3924	-0.4465	9.6634	-0.8743	-0.2507	-2.2032	1.225	1.0346	-1.6503	0.2879	1.2478
1.0177	1.261	9.7744	-1.6284	0.1928	0.5898	0.6664	-0.1681	-0.4203	0.704	1.6379	9.4425	0.1325	2.8963	4.2523	-0.1454	-1.296	-0.4504	9.5958	-1.3926	-0.8373	-2.1158	1.5945	1.105	-1.5975	0.2681	1.2688
0.7854	1.6063	9.7117	-1.0409	0.0464	0.6967	0.6784	-0.1741	-0.4203	0.9249	1.7509	8.9722	1.0665	3.3133	3.5201	-0.1163	-1.3168	-0.4316	9.9454	-1.0475	-0.4207	-2.0894	1.9642	1.1767	-1.5804	0.3382	1.2617
0.6715	1.4916	9.7683	-0.9331	0.3492	1.0619	0.6724	-0.1621	-0.4023	1.225	1.7513	9.5723	-2.168	3.1246	3.1096	-0.1442	-1.3536	-0.4481	10.1118	-0.9339	-0.6502	-2.2312	2.7057	0.8	-1.6148	0.3014	1.2831
0.9013	1.2611	9.7131	-0.7499	0.7683	0.7243	0.6664	-0.1801	-0.4143	0.6983	2.038	9.2057	-2.8168	2.8625	2.3626	-0.1446	-1.3344	-0.4489	9.8949	-0.8167	-0.0708	-2.391	3.0148	0.6887	-1.633	0.2722	1.2316
1.1881	2.008	9.7205	0.2994	0.938	0.5777	0.6784	-0.1741	-0.4203	0.8197	1.9811	9.505	-3.2372	1.7352	2.002	-0.1441	-1.3543	-0.4303	9.7771	-0.6451	-0.2476	-2.5807	3.4161	0.6731	-1.6154	0.2877	1.2484
0.7265	1.7212	9.6517	0.6928	1.2559	0.0819	0.6544	-0.1741	-0.4083	0.9945	1.6947	9.5674	-3.0778	0.2621	1.2038	-0.1445	-1.3351	-0.431	9.9484	-0.7601	-0.2446	-2.5279	3.5095	0.3665	-1.5976	0.3364	1.2797
1.1901	1.5482	9.7785	0.7152	1.1012	-0.1331	0.6604	-0.1561	-0.4023	0.4756	1.238	9.4964	-0.6869	-0.4201	0.4546	-0.1294	-1.3732	-0.4472	10.0626	-0.875	-0.2427	-2.5898	3.3868	0.2409	-1.6146	0.2663	1.2869
0.8339	1.72	9.2402	0.4701	1.5083	-0.3078	0.6784	-0.1801	-0.4143	0.4758	1.6387	9.5566	-0.2299	-0.7334	0.1101	-0.186	-1.4091	-0.464	10.2816	-0.877	-0.705	-2.6894	3.3883	-0.1269	-1.6154	0.2877	1.2484
0.7271	1.3763	9.6509	0.5269	1.1696	-0.2806	0.6784	-0.1801	-0.4143	0.6528	1.9249	9.7984	0.1674	-0.9835	-0.4188	-0.1442	-1.3536	-0.4481	9.8884	-1.0474	-0.4218	-3.3135	3.2382	-0.8585	-1.545	0.301	1.2843
0.5459	1.6056	9.2344	1.0755	0.5965	-0.2058	0.6724	-0.1621	-0.4083	1.0546	1.6948	9.6875	-0.7919	-1.2436	-0.3942	-0.1446	-1.3344	-0.4489	9.5385	-1.2778	-0.838	-3.5561	2.7772	-1.1135	-1.6149	0.3189	1.2813
0.6634	1.6056	9.3548	0.5603	1.1686	-0.1899	0.6784	-0.1741	-0.4323	0.5252	1.6377	9.1419	-0.049	-1.0411	-0.451	-0.1595	-1.314	-0.4676	9.8264	-0.8187	-0.6555	-3.7637	2.5615	-0.9922	-1.6334	0.3424	1.2241
0.7287	1.7215	9.7699	0.2914	1.0591	0.2126	0.6784	-0.1681	-0.4143	0.5929	1.8676	9.6783	-0.8471	-0.9951	-0.8531	-0.145	-1.3152	-0.4496	9.7696	-0.9333	-0.6571	-3.9353	2.068	-0.8179	-1.597	0.2818	1.3036
0.5525	1.0888	9.5286	0.2919	0.9372	0.3034	0.6844	-0.1801	-0.4143	0.7028	2.153	9.4436	-1.2786	-1.0485	-1.0092	-0.1445	-1.3351	-0.431	9.658	-1.0475	-0.5431	-3.7513	1.8214	-0.9519	-1.6156	0.3228	1.2446
0.9598	1.4336	9.7737	0.1422	1.0661	0.3993	0.6784	-0.1681	-0.4203	0.8781	2.1528	9.566	-1.3084	-1.0169	-1.1014	-0.13	-1.3363	-0.413	9.8231	-0.8767	-0.8308	-3.5114	1.6369	-1.2702	-1.5803	0.2699	1.2508
1.0056	1.7196	9.1845	-0.2687	0.8988	0.1642	0.6604	-0.1681	-0.4143	0.7026	1.7522	9.3833	-1.8528	-0.5161	-1.1552	-0.1307	-1.3156	-0.4495	9.8406	-1.103	0.0437	-3.4008	1.5768	-1.829	-1.563	0.3049	1.2474
1.0171	1.606	9.7753	-0.645	0.3646	0.2923	0.6664	-0.1741	-0.4083	0.6444	1.4661	9.3222	-2.0017	-0.3277	-1.5536	-0.1306	-1.3164	-0.4317	10.058	-0.8184	-0.4759	-2.7375	1.6379	-2.1488	-1.6154	0.2877	1.2484
0.9534	1.8354	9.4792	-0.6264	0.6717	0.7818	0.6664	-0.1801	-0.4143	0.8785	1.9811	9.5656	-1.9668	-0.0533	-1.2398	-0.1439	-1.372	-0.4652	9.6572	-0.5886	-0.5414	-2.5586	1.6381	-2.3373	-1.5797	0.3168	1.3002
0.9598	1.4336	9.7737	-0.351	0.7208	0.6533	0.6604	-0.1741	-0.4143	0.6509	1.753	9.6793	-2.4552	0.1998	-1.0508	-0.1298	-1.354	-0.448	9.7147	-0.8755	-0.5413	-2.0897	2.009	-2.9526	-1.5976	0.3364	1.2797
0.7863	1.7214	9.7711	-0.3527	0.7206	0.5923	0.6784	-0.1621	-0.4143	0.8815	1.7524	9.684	-2.4815	0.4157	-1.1705	-0.1305	-1.3333	-0.4845	9.9453	-0.9901	-0.4205	-1.7622	2.2247	-3.1687	-1.6156	0.2721	1.2319
0.5538	1.6065	9.6481	-0.3251	0.8715	0.379	0.6664	-0.1681	-0.4263	0.8896	2.3256	10.1605	-2.9543	-0.1296	-0.9958	-0.1434	-1.3912	-0.4644	10.0585	-1.1626	-0.4772	-1.4285	2.5317	-3.0433	-1.6146	0.2663	1.2869
0.6094	1.4912	9.5307	-0.448	0.9072	0.3822	0.6724	-0.1741	-0.4323	0.4189	1.8106	9.6152	-2.3478	-0.5408	-0.6005	-0.1151	-1.3736	-0.4471	9.774	-0.8752	-0.4235	-1.0953	2.5005	-3.1742	-1.5797	0.3168	1.3002
0.6635	1.5482	9.3547	0.0188	0.8273	0.5534	0.6604	-0.1681	-0.4263	1.1098	1.6944	9.5698	-1.951	-0.7615	-0.82	-0.1585	-1.3531	-0.4482	10.2861	-0.8188	-0.4713	-1.0093	2.7779	-3.2297	-1.6151	0.2858	1.2667
0.7875	1.7215	9.8302	0.0525	0.7958	0.6744	0.6724	-0.1861	-0.4143	0.7006	1.5803	9.2642	-0.5661	-0.815	-1.0038	-0.13	-1.3363	-0.413	10.0528	-1.1637	-0.7689	-1.1058	2.7482	-3.4752	-1.5628	0.2698	1.2511
1.0683	1.4326	9.4214	-0.3818	0.8746	0.5634	0.6784	-0.1621	-0.4083	0.4744	2.211	9.5578	-0.8419	-0.7189	-0.8482	-0.1593	-1.3148	-0.4498	9.8353	-1.3909	-0.2491	-0.9217	2.7168	-3.4489	-1.5978	0.27	1.2505
1.0118	1.4328	9.4793	-0.3801	0.8748	0.6244	0.6784	-0.1861	-0.4203	0.7121	1.7532	9.8587	-1.8572	-0.6713	-0.7564	-0.1162	-1.3337	-0.4844	10.179	-0.8747	-0.1237	-1.0821	2.8414	-3.7196	-1.6151	0.2858	1.2667
1.4201	1.8353	9.7837	0.1787	1.0044	0.6421	0.6664	-0.1801	-0.4143	0.9919	1.8089	9.4488	-0.9319	-0.5946	-0.8461	-0.1876	-1.3331	-0.4492	9.7731	-0.9901	-0.4822	-1.2674	3.0883	-3.6472	-1.5979	0.2876	1.2486
0.7842	1.6636	9.6527	-0.1102	0.8013	0.3734	0.6664	-0.1861	-0.4203	0.8803	1.7523	9.6246	-1.271	-0.5595	-0.5064	-0.1297	-1.3548	-0.4301	9.3769	-0.7594	-0.3143	-1.5437	3.3045	-3.5738	-1.5803	0.3207	1.2635
0.6726	1.4918	9.8274	0.2276	0.5429	0.4552	0.6784	-0.1561	-0.4023	0.5904	1.9246	9.5596	-1.7606	-0.3978	-0.4734	-0.116	-1.3352	-0.4487	9.6055	-1.0466	-0.3108	-1.8665	3.4572	-2.8849	-1.6146	0.2663	1.2869
1.1277	1.6627	9.5412	0.3384	0.3838	0.0855	0.6664	-0.1741	-0.4143	0.5352	1.9249	9.6772	-1.5713	-0.1555	-0.4688	-0.1292	-1.3747	-0.4115	9.5986	-0.9904	-0.6607	-2.1616	3.7024	-2.2555	-1.6149	0.2507	1.2704
0.6677	1.7212	9.5915	0.0279	0.3355	0.0623	0.6604	-0.1681	-0.4023	0.6493	1.9245	9.6202	-1.7493	0.2456	-0.2149	-0.1294	-1.3732	-0.4472	9.7146	-0.8181	-0.5411	-2.4311	3.7331	-2.0026	-1.5975	0.2681	1.2688
0.9046	1.9516	9.9512	0.0911	0.2721	0.1519	0.6844	-0.1741	-0.4203	0.7679	2.497	9.8614	-2.0845	0.3753	-0.4911	-0.1576	-1.3915	-0.4467	9.3699	-0.6459	-0.6641	-3.0042	3.5797	-1.8106	-1.5799	0.2505	1.271
1.1266	1.6626	9.4821	0.0041	0.3071	0.3372	0.6724	-0.1801	-0.4263	0.8858	1.9246	9.922	-2.3591	0.5328	-0.3343	-0.1151	-1.3736	-0.4471	9.5445	-0.7029	-0.4858	-3.2075	3.5787	-1.3441	-1.614	0.2624	1.3235
0.786	1.8939	9.7715	-0.0816	0.2202	0.6439	0.6664	-0.1621	-0.4203	0.654	1.925	9.8579	-2.3613	0.4703	-0.0575	-0.1306	-1.3164	-0.4317	9.6531	-1.5648	-0.8367	-3.1956	3.3308	-0.9816	-1.5454	0.2697	1.2514
0.6715	1.4916	9.7683	0.1705	0.4239	0.6999	0.6604	-0.1741	-0.4263	0.5911	1.6384	9.559	-1.8021	0.7371	-0.0518	-0.1589	-1.334	-0.449	9.3288	-0.5855	0.152	-3.3918	2.9903	-0.4325	-1.5801	0.2348	1.2545
0.9555	1.3181	9.537	0.0489	0.3378	0.8244	0.6664	-0.1801	-0.4203	0.6501	1.5812	9.6195	-1.6196	0.6413	0.0704	-0.1158	-1.336	-0.4308	9.6601	-0.9323	-0.426	-3.332	3.3902	-0.2065	-1.6677	0.2704	1.2493
1.0182	1.6061	9.8344	0.0524	0.2466	1.0068	0.6664	-0.1681	-0.4143	1.111	1.6945	9.6292	-1.8696	0.371	-0.3364	-0.1166	-1.3145	-0.4851	9.1542	-0.5859	-0.0265	-3.068	3.3249	0.6495	-1.5978	0.27	1.2505
1.4259	1.721	10.0789	-0.055	0.4061	1.4985	0.6604	-0.1801	-0.4203	0.9996	1.5807	9.8049	-1.5974	0.1206	-0.3095	-0.1014	-1.3372	-0.4128	9.6613	-0.9895	-0.3678	-3.0377	3.6632	0.8743	-1.616	0.2915	1.2117
0.7796	1.7206	9.4164	-0.0512	0.437	1.6206	0.6604	-0.1861	-0.4143	0.3594	2.0968	9.5552	-1.0148	0.0182	-0.2176	-0.2009	-1.3718	-0.4299	9.7182	-0.8749	-0.3663	-3.2435	3.9701	1.442	-1.6154	0.237	1.2356
1.016	1.6059	9.7162	-0.2958	0.4781	1.6878	0.6724	-0.1681	-0.4143	0.4208	1.5246	9.674	-0.4946	-0.1443	-0.1887	-0.1443	-1.3528	-0.466	9.3144	-0.8751	-0.6077	-3.3307	4.0927	1.7247	-1.615	0.2682	1.2685
1.0142	1.3181	9.5973	0.0717	0.4013	1.6174	0.6604	-0.1741	-0.4023	0.5305	1.4093	9.3791	-0.4314	-0.0833	-0.342	-0.1592	-1.3155	-0.4319	9.7768	-1.1616	-0.3078	-3.2989	4.277	1.9142	-1.6162	0.2759	1.1953
0.4885	1.4907	9.233	-0.0509	0.8946	1.3487	0.6604	-0.1741	-0.4023	0.8221	1.4662	9.5634	0.2751	-0.157	-0.2803	-0.1447	-1.3336	-0.4667	9.8309	-0.7605	-0.4219	-3.5659	4.2765	2.2586	-1.6334	0.2916	1.2114
0.9596	1.4911	9.7739	0.2619	1.0347	1.4029	0.6844	-0.1681	-0.4083	0.4212	1.3529	9.6737	-0.1202	0.0955	-0.3074	-0.13	-1.3532	-0.4659	9.2071	-0.8736	-0.2598	-3.621	4.245	2.5054	-1.5971	0.2486	1.289
1.1322	1.6633	9.7777	0.2087	1.5873	1.3768	0.6604	-0.1621	-0.4203	0.5312	1.5811	9.4389	-0.7367	0.0747	-0.1853	-0.1444	-1.352	-0.4838	9.7143	-0.5887	-0.5403	-4.0621	4.1513	3.1897	-1.6328	0.2878	1.2481
0.9009	1.4911	9.7137	-0.1904	1.5738	1.478	0.6664	-0.1741	-0.4143	0.651	1.6957	9.6791	0.0023	0.0927	-0.1528	-0.1587	-1.3355	-0.4133	9.5495	-0.9889	-0.2534	-4.262	3.9651	3.6816	-1.5808	0.307	1.2287
0.7808	1.6632	9.4754	-0.3196	1.7309	1.177	0.6664	-0.1681	-0.4263	0.5335	1.6385	9.5578	-0.061	0.0017	-0.1545	-0.1155	-1.3544	-0.4479	9.5938	-0.8765	-0.8937	-4.3104	3.8095	4.1405	-1.598	0.3051	1.2468
1.075	1.4334	9.776	-0.3523	1.5795	1.2074	0.6604	-0.1801	-0.4143	0.4718	1.81	9.3787	0.0326	0.0917	-0.0292	-0.1311	-1.2964	-0.4503	9.2552	-0.9901	-0.726	-4.6999	3.8402	4.4882	-1.6149	0.2507	1.2704
1.2427	1.2024	9.4833	-0.2975	1.3626	1.0828	0.6604	-0.1741	-0.4143	0.6417	2.0955	9.264	0.1583	0.2426	0.0664	-0.1156	-1.3537	-0.4657	9.4923	-0.8741	-0.2541	-4.9947	3.7471	4.8922	-1.6326	0.3034	1.2645
1.1857	1.4902	9.542	-0.3648	1.5781	0.7501	0.6664	-0.1921	-0.4023	0.8213	1.8095	9.5641	-0.5483	0.3461	0.2214	-0.1582	-1.3716	-0.4653	9.9393	-0.8191	-0.7116	-5.2965	4.0857	5.2778	-1.5979	0.2876	1.2486
0.4976	1.4343	9.7056	-0.4602	1.3681	0.7817	0.6604	-0.1681	-0.4023	1.1658	1.4079	9.4516	-0.1481	0.3394	0.1911	-0.1301	-1.3525	-0.4837	9.8858	-1.5643	-0.5987	-5.7848	4.2407	5.3844	-1.5983	0.3071	1.2285
0.8983	1.0307	9.5352	-0.5955	1.311	0.3881	0.6604	-0.1801	-0.4023	0.4218	2.0971	9.794	-0.8205	0.6265	0.3495	-0.1434	-1.375	-0.3938	9.6017	-0.8177	-0.485	-5.7447	4.1468	5.7508	-1.6319	0.282	1.303
0.7861	1.8364	9.7713	-0.5073	1.0016	0.4147	0.6844	-0.1621	-0.4323	0.4691	1.9815	9.2602	-0.2677	0.5257	0.1942	-0.1303	-1.3348	-0.4488	9.6629	-0.5302	-0.2494	-6.1729	4.4556	5.9223	-1.5807	0.2894	1.2306
1.1914	1.4334	9.8373	-0.3039	0.7471	0.1032	0.6724	-0.1861	-0.4143	0.757	2.0952	9.2664	-0.9711	0.813	0.4143	-0.1444	-1.3359	-0.4132	10.0571	-0.9907	-0.5349	-6.5624	4.4863	6.27	-1.5801	0.2856	1.2673
1.0816	2.1243	10.1914	-0.5266	0.6029	-0.0447	0.6724	-0.1741	-0.4083	0.7033	1.4661	9.3828	-0.4131	1.0184	0.419	-0.1302	-1.3356	-0.4309	9.7174	-1.1045	-0.4254	-6.5002	4.5475	6.363	-1.5986	0.309	1.2101
0.5477	1.8358	9.3531	-0.3762	0.5655	-0.1706	0.6664	-0.1741	-0.4203	0.8801	1.3516	9.5644	-1.2114	1.1542	0.5744	-0.1303	-1.3348	-0.4488	10.063	-1.1044	-0.2435	-6.7757	4.7021	6.4346	-1.598	0.2544	1.2341
1.1266	1.6626	9.4821	-0.2024	0.1905	-0.3601	0.6724	-0.1621	-0.4203	0.7088	1.6384	9.6802	-0.7174	1.2077	0.4527	-0.1447	-1.3336	-0.4667	9.9479	-0.4159	-0.2433	-7.5536	4.7371	5.773	-1.6329	0.3053	1.2462
1.0148	0.9732	9.5964	0.0085	0.2724	-0.6088	0.6664	-0.1681	-0.4143	0.8796	1.5233	9.5647	-1.3006	1.2794	0.3603	-0.1737	-1.3143	-0.4499	9.6631	-0.7023	-0.2501	-7.8086	5.0162	5.4778	-1.615	0.2682	1.2685
0.7252	1.7786	9.5928	0.198	0.3261	-0.491	0.6724	-0.1861	-0.4143	0.5909	2.2108	9.6196	-0.8718	1.1497	0.2661	-0.1166	-1.2984	-0.4145	10.2792	-0.82	-0.8215	-8.1848	5.111	5.0873	-1.6338	0.2936	1.1931
0.9592	1.7211	9.7744	-0.1457	0.4314	-0.6956	0.6724	-0.1861	-0.4083	1.2236	1.3505	9.4526	-1.0242	1.2141	0.1743	-0.132	-1.2742	-0.5225	10.2314	-0.8757	-0.356	-8.498	5.0207	4.6595	-1.5985	0.2914	1.212
0.7829	1.7785	9.5939	0.0614	0.1468	-0.8548	0.6784	-0.1801	-0.4203	0.7108	1.8103	9.7994	-1.486	1.2217	0.2354	-0.1307	-1.3156	-0.4495	9.7219	-1.1037	-0.192	-8.8041	4.8678	4.5071	-1.5982	0.2895	1.2303
0.7278	1.6064	9.7106	0.2837	0.413	-0.7977	0.6784	-0.1681	-0.4143	0.644	1.6378	9.3225	-1.0534	1.3064	0.2377	-0.1445	-1.3513	-0.5017	9.3201	-0.874	-0.3159	-9.1383	4.6839	4.4469	-1.616	0.2915	1.2117
0.7268	1.5487	9.6513	0.0717	0.3615	-0.6098	0.6784	-0.1741	-0.4143	0.536	1.5815	9.6765	-1.9786	1.2298	0.2965	-0.1446	-1.3344	-0.4489	9.7207	-1.0465	-0.2502	-9.0153	4.5297	4.3784	-1.5643	0.3127	1.1741
1.1864	1.7203	9.6016	-0.1672	0.002	-1.2162	0.6664	-0.1741	-0.3963	0.8175	1.9237	9.3861	-2.2201	1.4496	0.1147	-0.1156	-1.3537	-0.4657	9.5461	-0.9895	-0.4285	-9.5113	4.1938	3.7931	-1.6335	0.3092	1.2096
0.7908	1.722	10.0075	0.0385	-0.0692	-1.5571	0.6664	-0.1861	-0.4083	0.6518	1.8675	9.7389	-2.7984	1.8272	0.2748	-0.131	-1.2972	-0.4324	9.6637	-1.0464	-0.2513	-9.6075	3.9179	3.3864	-1.616	0.3423	1.2244
0.9575	1.4333	9.6555	-0.1374	-0.0605	-1.2172	0.6784	-0.1801	-0.4203	0.5286	1.6953	9.3202	-2.5493	1.9465	0.1229	-0.1168	-1.2969	-0.4502	9.4345	-1.1037	-0.3144	-9.6392	3.9489	3.3571	-1.5634	0.3069	1.229
1.2442	1.6052	9.6025	-0.0056	0.1793	-1.0665	0.6664	-0.1741	-0.4143	0.6481	1.4092	9.5003	-3.7487	2.0279	0.215	-0.1022	-1.3157	-0.4672	9.7181	-0.8175	-0.3661	-9.6697	3.949	3.3577	-1.5982	0.2895	1.2303
0.7275	1.7789	9.711	-0.1577	0.2165	-1.0016	0.6664	-0.1681	-0.4083	0.3617	1.6391	9.6137	-3.4081	2.0846	-0.0305	-0.101	-1.3564	-0.412	9.7709	-1.0479	-0.5992	-9.9201	4.1044	3.1822	-1.6331	0.2897	1.2297
0.7319	1.8369	9.9475	-0.1238	0.3986	-1.0014	0.6664	-0.1801	-0.4143	0.9936	2.0953	9.5682	-3.4437	1.8393	0.0268	-0.1303	-1.3348	-0.4488	9.779	-1.1038	-0.1909	-9.6383	3.7027	3.2267	-1.6162	0.3266	1.208
1.2444	1.4902	9.6022	-0.2655	0.4064	-0.5403	0.6724	-0.1861	-0.4143	0.8813	1.8096	9.6841	-2.8288	1.7981	0.0272	-0.172	-1.3911	-0.4468	9.7194	-0.932	-0.3081	-9.6446	3.7652	2.9821	-1.5633	0.2893	1.2309
0.7865	1.6064	9.7708	-0.0786	0.5514	-0.5745	0.6664	-0.1681	-0.4143	1.0001	1.3518	9.8044	-1.8141	1.6598	-0.3751	-0.1155	-1.3544	-0.4479	9.6568	-1.0477	-0.6014	-9.7122	3.7972	2.7069	-1.6156	0.2721	1.2319
1.007	1.6048	9.2433	-0.0772	0.5821	-0.5439	0.6604	-0.1681	-0.4143	0.4848	1.8685	10.0325	-2.3705	1.5463	-0.3472	-0.1729	-1.352	-0.4662	9.6079	-1.1035	-0.1943	-9.2811	3.5187	2.6903	-1.5977	0.3032	1.2651
0.7222	1.6057	9.415	-0.064	0.9191	-0.2677	0.6664	-0.1861	-0.4203	0.5908	1.7529	9.5592	-2.0297	1.6633	-0.3445	-0.1452	-1.3137	-0.4854	10.0073	-1.2189	-0.1867	-9.1242	3.1793	2.6467	-1.5977	0.3032	1.2651
1.3064	0.9731	9.7794	-0.4658	0.8443	-0.2279	0.6604	-0.1801	-0.4323	1.2238	1.7512	9.5129	-1.8134	1.6306	-0.7462	-0.1168	-1.2969	-0.4502	9.3796	-0.9884	-0.1985	-8.8208	2.8712	2.3544	-1.5993	0.3304	1.1716
1.0711	1.7205	9.5994	-0.227	0.5585	-0.3573	0.6664	-0.1861	-0.4083	0.822	1.5234	9.5635	-1.6958	1.382	-0.5033	-0.0872	-1.3368	-0.4306	9.6084	-1.4477	-0.1956	-8.4226	2.5317	2.1826	-1.6335	0.3092	1.2096
0.7855	1.5488	9.7115	-0.161	0.7089	-0.2971	0.6664	-0.1741	-0.4263	0.4807	1.5819	9.7942	-1.6307	1.6251	-0.19	-0.1449	-1.316	-0.4318	9.3797	-1.0458	-0.1987	-8.0598	2.1929	1.7958	-1.6513	0.3112	1.1909
0.6645	1.6058	9.4139	-0.2152	0.7123	-0.0212	0.6664	-0.1741	-0.4143	0.9992	1.2372	9.7448	-1.8501	1.3841	-0.38	-0.1158	-1.3529	-0.4836	9.4926	-1.0462	-0.2547	-7.7215	1.8226	1.6552	-1.6157	0.2896	1.23
0.5021	1.4349	9.9421	-0.0914	0.6767	0.0061	0.6664	-0.1861	-0.4143	0.7046	1.409	9.4421	-1.4262	1.0386	-0.2619	-0.1305	-1.3333	-0.4845	9.6012	-1.2195	-0.5449	-6.9303	1.8517	1.5785	-1.6162	0.2759	1.1953
0.5449	1.5479	9.1751	-0.0956	0.6762	-0.1463	0.6664	-0.1741	-0.4263	0.7651	1.6953	9.6221	-1.1874	0.6956	0.0103	-0.1007	-1.3748	-0.4291	10.0629	-1.0471	-0.2433	-6.59	1.8501	1.7875	-1.633	0.2722	1.2316
1.1251	1.8924	9.4236	-0.1175	0.8615	0.0688	0.6844	-0.1861	-0.4263	0.7713	1.5815	9.919	-0.8486	0.6901	-0.0509	-0.1437	-1.3728	-0.4473	9.4967	-0.7585	-0.0203	-5.8928	1.8183	1.5568	-1.5986	0.309	1.2101
0.7871	1.3189	9.7701	-0.1539	0.8317	-0.1135	0.6604	-0.1741	-0.4203	0.8782	1.6376	9.5055	-0.6659	0.6247	0.1644	-0.159	-1.317	-0.3962	9.545	-1.0471	-0.487	-5.2737	1.6616	1.8482	-1.5986	0.309	1.2101
1.2432	1.5475	9.5432	0.1626	0.9417	0.093	0.6604	-0.1801	-0.4143	0.4189	1.8106	9.6152	-0.9708	0.7534	0.0118	-0.1585	-1.3531	-0.4482	9.1471	-1.161	-0.4371	-4.3357	1.9373	1.6832	-1.5984	0.3246	1.2266
1.011	1.8353	9.4803	-0.0548	0.9201	0.0676	0.6784	-0.1801	-0.4143	0.5981	1.6963	9.9156	-0.6983	0.5333	0.1318	-0.1164	-1.316	-0.4494	9.731	-1.0447	0.275	-3.9998	1.9979	1.7399	-1.6512	0.3444	1.2055
1.1273	1.2601	9.4812	0.1285	0.8511	0.0323	0.6604	-0.1741	-0.4203	1.3379	2.266	9.5163	-0.1174	0.3389	0.1912	-0.1156	-1.3537	-0.4657	9.7915	-1.1015	0.451	-3.0281	2.0577	1.5681	-1.6154	0.2877	1.2484
0.6726	1.4918	9.8274	0.2799	0.8748	-0.0933	0.6724	-0.1741	-0.4203	0.9922	1.6944	9.4486	-0.9183	0.3216	0.2512	-0.1305	-1.3333	-0.4845	9.722	-1.161	-0.1922	-2.6341	2.457	1.7257	-1.6336	0.2585	1.1968
0.5504	1.6061	9.4708	0.1286	1.0036	-0.0584	0.6544	-0.1741	-0.4143	0.9367	1.752	9.5664	-0.1797	0.279	0.0973	-0.1293	-1.3739	-0.4294	10.2353	-1.1619	-0.1819	-2.0275	2.456	1.5594	-1.5812	0.2757	1.1958
0.4407	1.6645	9.7642	0.0929	0.8214	-0.1196	0.6604	-0.1681	-0.4203	0.8816	1.6952	9.6839	-0.4585	0.2516	0.4361	-0.1303	-1.3348	-0.4488	10.2356	-1.3339	-0.1826	-1.1747	2.5771	1.5767	-1.6156	0.2721	1.2319
1.069	1.6627	9.481	0.0606	0.8835	-0.2099	0.6544	-0.1801	-0.4143	0.4776	1.8678	9.6759	-0.8251	0.381	0.3451	-0.1595	-1.2971	-0.4148	9.7822	-0.9884	-0.0154	-0.8756	2.7003	1.3892	-1.6158	0.3072	1.2282
1.0724	1.6631	9.6583	0.1868	0.8482	-0.0912	0.6604	-0.1921	-0.4143	0.5944	1.7532	9.7375	0.004	0.2447	0.1897	-0.1443	-1.3528	-0.466	9.7789	-1.0464	-0.1907	0.069	2.6674	1.3078	-1.6154	0.2877	1.2484
1.1899	1.6632	9.7788	0.3986	0.6861	-0.1583	0.6664	-0.1921	-0.4263	0.9951	1.4657	9.567	-1.0749	0.261	0.6823	-0.1172	-1.2777	-0.451	9.8361	-1.1612	-0.1899	0.3048	2.5758	0.8689	-1.6157	0.2896	1.23
0.785	1.8362	9.7122	0.4534	0.6218	-0.3735	0.6664	-0.1741	-0.4023	0.7033	1.4661	9.3828	-0.1816	0.2168	0.2815	-0.1023	-1.2988	-0.4144	10.0648	-1.5058	-0.1866	0.7921	2.4824	0.764	-1.5813	0.2933	1.194
1.1371	1.4339	10.0135	0.5763	0.586	-0.3767	0.6724	-0.1741	-0.4083	0.4733	1.6957	9.4379	-0.6101	0.3769	0.4381	-0.1592	-1.3155	-0.4319	10.0061	-1.2191	-0.2451	1.4067	2.2649	0.8072	-1.6516	0.2624	1.1599
1.1319	1.8358	9.7781	0.8558	0.6356	-0.3527	0.6844	-0.1681	-0.4263	0.9975	1.466	9.6858	-0.6701	0.4698	0.5014	-0.1301	-1.3525	-0.4837	9.8356	-0.817	-0.1887	2.2825	2.3871	0.4849	-1.6165	0.3286	1.1897
1.0717	2.0081	9.6592	0.8217	0.5451	-0.4134	0.6604	-0.1861	-0.4263	0.7093	1.4094	9.6798	-0.9779	0.4749	0.5318	-0.1315	-1.2942	-0.5039	9.6647	-0.9889	-0.1928	2.3965	2.6956	0.3373	-1.6158	0.3072	1.2282
0.7893	1.3192	9.8883	0.6647	0.3377	-0.3803	0.6664	-0.1741	-0.4023	0.3042	1.582	9.6124	-0.5756	0.6208	0.7204	-0.1008	-1.374	-0.447	9.4934	-0.8165	-0.1956	2.8178	2.8492	0.1791	-1.6337	0.276	1.195
0.9022	1.3762	9.7725	0.9711	0.4465	-0.5396	0.6664	-0.1681	-0.4203	0.5284	1.7525	9.3204	-0.3926	0.4956	0.5332	-0.1312	-1.2957	-0.4682	9.722	-1.161	-0.1922	3.2405	2.9104	0.0183	-1.5634	0.3069	1.229
0.7792	1.9505	9.417	0.7817	0.5453	-0.748	0.6784	-0.1681	-0.4083	0.8217	1.6379	9.5638	-0.7614	0.5625	0.7191	-0.1443	-1.3528	-0.466	9.6029	-0.8175	-0.4267	3.542	3.0024	-0.0776	-1.6161	0.3091	1.2098
0.9031	1.4914	9.8319	1.0322	0.5049	-0.6018	0.6784	-0.1681	-0.4143	0.8797	1.9812	9.6251	-0.668	0.6223	0.7203	-0.1307	-1.3156	-0.4495	9.7163	-1.1621	-0.484	3.8989	3.1567	-0.3885	-1.616	0.2915	1.2117
1.1357	1.6062	9.9548	1.303	0.1875	-0.6712	0.6724	-0.1861	-0.4203	0.5941	1.8677	9.7377	0.1622	0.5473	0.5969	-0.1021	-1.3165	-0.4493	9.38	-1.2752	-0.1995	4.2731	2.97	-0.1548	-1.6172	0.35	1.1511
0.847	1.8942	9.9499	1.1889	0.3462	-0.4235	0.6724	-0.1621	-0.4083	0.3041	2.0972	9.6728	-1.106	0.3212	1.0848	-0.1442	-1.3536	-0.4481	9.6652	-1.2757	-0.1938	4.6097	3.0305	-0.0673	-1.633	0.3229	1.2443
0.6687	1.7788	9.6507	1.0688	0.5957	-0.4496	0.6664	-0.1801	-0.4023	0.5936	1.1235	9.6174	-0.9526	0.1979	0.5887	-0.1163	-1.3168	-0.4316	9.6185	-1.3311	0.3301	4.4563	2.908	-0.191	-1.5814	0.3108	1.1921
1.1804	1.9495	9.3066	1.0367	0.4749	-0.4191	0.6844	-0.1741	-0.4143	0.5908	1.7529	9.5592	-0.7625	0.4412	0.3772	-0.1437	-1.3728	-0.4473	9.5425	-0.8754	-0.6031	4.4591	2.9076	-0.0678	-1.5981	0.272	1.2322
1.2457	2.0654	9.7218	0.7935	0.4551	-0.2607	0.6664	-0.1861	-0.4143	0.3088	1.6397	9.8502	-0.3258	0.7109	0.1974	-0.0877	-1.3169	-0.4492	9.7207	-1.0465	-0.2502	4.6482	2.6294	0.013	-1.6512	0.2937	1.1928
1.0718	1.9506	9.659	0.8601	0.7886	-0.2909	0.6664	-0.1741	-0.4143	0.5911	1.6384	9.559	-0.7651	0.3182	0.4367	-0.1589	-1.334	-0.449	9.6617	-1.2763	-0.3689	4.519	2.477	-0.4204	-1.6511	0.3268	1.2074
0.9599	1.9512	9.8341	0.5845	0.6785	-0.1323	0.6784	-0.1681	-0.4023	0.4787	1.41	9.675	-0.023	0.5198	0.596	-0.1593	-1.3148	-0.4498	9.3718	-1.162	-0.6076	4.551	2.5075	-0.3276	-1.6167	0.313	1.1732
0.3801	1.4342	9.5852	0.6794	0.6138	-0.013	0.6724	-0.1801	-0.4143	0.7131	1.8105	9.9182	-0.4275	0.3114	0.6843	-0.1298	-1.354	-0.448	9.3767	-0.6447	-0.3139	4.6457	2.3837	-0.2714	-1.599	0.3285	1.1899
1.0134	1.7781	9.5984	0.8088	0.7618	0.1067	0.6784	-0.1801	-0.4143	1.1709	1.7518	9.7494	0.0387	0.5189	0.5653	-0.1158	-1.3529	-0.4836	9.49	-0.8745	-0.3708	4.6503	2.4445	-0.0232	-1.6155	0.3052	1.2465
0.8458	1.319	9.8303	0.5873	0.6483	-0.0106	0.6604	-0.1741	-0.4203	0.8718	1.3508	9.1484	-0.4531	0.618	0.875	-0.1158	-1.336	-0.4308	9.5501	-1.3331	-0.2546	4.8021	2.4442	-0.057	-1.5818	0.3128	1.1738
1.2425	1.3174	9.4836	0.601	0.3705	-0.4701	0.6664	-0.1741	-0.4263	0.5966	1.8107	9.8564	-0.636	0.6532	0.5665	-0.1164	-1.316	-0.4494	9.6628	-1.2187	-0.3103	4.8364	2.5051	0.1598	-1.6509	0.2917	1.2111
0.7842	1.6636	9.6527	0.4467	0.621	-0.6174	0.6784	-0.1741	-0.4143	0.827	1.4094	9.801	-0.5121	0.7121	0.6604	-0.1596	-1.3132	-0.4855	9.8954	-1.1609	-0.0721	4.9595	2.8429	0.4444	-1.634	0.278	1.1766
1.3058	1.8931	9.8407	0.6633	0.7036	-0.6527	0.6724	-0.1801	-0.4203	0.649	1.5238	9.56	-0.5434	0.7119	0.8148	-0.1304	-1.334	-0.4666	9.7191	-1.5059	-0.3685	5.0451	3.0589	0.3255	-1.5638	0.2756	1.1961
0.7908	1.722	10.0075	0.7185	0.6088	-0.8376	0.6724	-0.1741	-0.4203	0.7028	1.1798	9.3228	-0.3917	0.5868	0.751	-0.173	-1.3512	-0.4841	9.7175	-1.1619	-0.4257	5.2495	3.4904	0.2105	-1.6337	0.3443	1.2058
0.7783	1.8354	9.3576	0.9046	0.6621	-0.8419	0.6664	-0.1861	-0.4143	0.7038	1.7524	9.4428	-0.4855	0.4665	0.5325	-0.1296	-1.3555	-0.4123	9.8384	-1.1608	-0.0732	5.2148	3.8602	0.2834	-1.6337	0.276	1.195
0.836	1.7778	9.3586	0.5389	0.6476	-0.65	0.6544	-0.1921	-0.4023	0.9968	1.7521	9.6864	-0.5582	-0.0556	0.8628	-0.1593	-1.3317	-0.5026	9.5435	-1.5064	-0.6054	4.9381	4.1073	0.3576	-1.5988	0.2934	1.1937
0.8463	1.6641	9.8903	0.512	0.8324	-0.6178	0.6844	-0.1801	-0.4083	0.5887	1.6382	9.4402	-0.6188	0.0066	0.9256	-0.1021	-1.3165	-0.4493	9.604	-1.5632	-0.4294	4.6925	4.3542	0.4621	-1.5988	0.2934	1.1937
0.891	2.0074	9.2421	0.6749	1.2845	-0.5886	0.6664	-0.1741	-0.4263	0.8836	1.3519	9.7426	-0.0611	0.1216	0.5271	-0.1152	-1.3728	-0.465	9.8357	-1.6203	-0.25	4.4814	4.785	0.8793	-1.6338	0.2936	1.1931
0.9591	1.7786	9.7746	0.8311	1.0952	-0.4105	0.6784	-0.1861	-0.4203	0.6488	1.6383	9.5602	-0.1268	-0.1222	0.3682	-0.1595	-1.314	-0.4676	9.8291	-1.0477	-0.5397	4.0267	4.9702	1.1403	-1.5813	0.344	1.2067
1.0179	1.7786	9.8348	0.8918	1.184	-0.503	0.6724	-0.1741	-0.4203	0.5382	1.639	9.7955	0.0615	0.0889	0.4959	-0.1448	-1.3167	-0.4139	9.5451	-1.1045	-0.4872	3.5746	5.0628	1.4602	-1.669	0.2957	1.1742
1.2434	1.4326	9.5429	1.1938	1.4754	-0.9357	0.6724	-0.1681	-0.4263	0.7053	2.096	9.5623	-0.5009	-0.3017	0.735	-0.1009	-1.3733	-0.4649	9.3163	-1.3911	-0.5512	3.0077	4.9085	1.9295	-1.5985	0.3422	1.2247
0.5522	1.8364	9.5895	1.1331	1.7832	-1.085	0.6724	-0.1861	-0.4203	0.6477	1.5809	9.5007	0.1454	-0.3726	0.3951	-0.1585	-1.3531	-0.4482	9.885	-1.1054	-0.5971	2.4436	4.8767	2.618	-1.6341	0.2955	1.1748
1.0213	1.779	10.0121	1.5619	1.8258	-1.2477	0.6664	-0.1681	-0.4203	1.113	1.3512	9.6879	-0.4747	-0.5776	0.5448	-0.1311	-1.2964	-0.4503	9.6015	-1.3916	-0.5455	1.8999	4.7542	2.7795	-1.6338	0.2936	1.1931
0.8952	2.1804	9.4789	1.7713	1.4804	-1.2853	0.6724	-0.1921	-0.4203	0.5336	1.5813	9.5577	0.2638	-0.5903	0.5767	-0.1162	-1.3337	-0.4844	9.6057	-1.1613	-0.3112	1.0857	4.8163	3.2599	-1.564	0.3107	1.1924
1.1297	1.8355	9.6599	1.8017	1.4486	-1.2862	0.6604	-0.1801	-0.4143	0.8773	1.523	9.4459	0.2985	-0.4062	0.4565	-0.1295	-1.3724	-0.4651	9.6621	-1.5058	-0.3697	0.9134	4.8766	3.7891	-1.6341	0.2955	1.1748
1.3575	1.4897	9.4862	1.7681	1.1445	-1.1956	0.6664	-0.1801	-0.4023	0.4729	1.8674	9.4382	-0.0664	-0.1546	0.5222	-0.1439	-1.3551	-0.4124	9.7188	-1.2764	-0.3677	0.2255	4.9685	4.4836	-1.6168	0.3812	1.1841
0.9626	1.7215	9.9517	2.0734	1.0397	-1.2647	0.6604	-0.1801	-0.4203	0.8827	1.7525	9.7434	0.3699	0.1745	0.8068	-0.1307	-1.3156	-0.4495	8.9788	-1.4471	-0.3248	-0.255	5.0608	4.8966	-1.5985	0.2914	1.212
0.7731	1.6047	9.0615	1.3359	1.1931	-1.2154	0.6544	-0.1801	-0.4203	1.1677	2.095	9.6312	0.0938	0.2103	0.7143	-0.1153	-1.3559	-0.4122	9.4812	-1.1056	-0.8385	-0.5907	5.0309	4.8716	-1.6334	0.2916	1.2114
0.3865	1.6076	9.9402	1.3579	1.0688	-1.4607	0.6724	-0.1621	-0.4203	0.5319	1.2949	9.4383	0.0041	0.3349	0.6546	-0.1454	-1.3129	-0.5032	9.6604	-1.1618	-0.4268	-1.0737	5.1543	5.193	-1.5649	0.3165	1.1374
0.8392	1.8932	9.5362	1.06	0.7732	-2.0042	0.6664	-0.1741	-0.4383	0.7709	1.7531	9.9193	-0.1485	0.429	0.7795	-0.13	-1.3532	-0.4659	9.8882	-0.9327	-0.4214	-1.4351	5.1238	5.3843	-1.6345	0.3657	1.1673
0.7353	1.7798	10.1247	1.4881	0.7242	-2.1369	0.6664	-0.1741	-0.4203	0.4758	2.1539	9.6171	0.0676	0.4261	0.5945	-0.1311	-1.2964	-0.4503	9.7733	-1.1048	-0.4827	-1.6434	5.0927	5.6034	-1.5821	0.3147	1.1555
1.2977	1.432	9.3667	1.2991	0.701	-2.2545	0.6664	-0.1921	-0.4143	0.5914	1.5239	9.5588	-0.9212	0.2282	0.5584	-0.1452	-1.3137	-0.4854	9.7225	-1.4479	-0.1933	-2.0333	5.0619	5.8877	-1.6164	0.311	1.1915
0.7844	1.5486	9.6524	1.0171	0.8037	-2.4606	0.6664	-0.1741	-0.4143	0.9944	1.7519	9.5675	-0.4862	0.3758	0.2221	-0.1016	-1.3357	-0.4485	9.8825	-0.9337	-0.7132	-2.4298	5.1552	5.9599	-1.5638	0.3264	1.2089
1.245	1.7778	9.662	1.2952	0.6701	-2.3766	0.6664	-0.1981	-0.4263	0.8762	1.9809	9.4468	0.1591	0.3036	0.1601	-0.1445	-1.3513	-0.5017	9.9411	-1.2204	-0.6547	-2.7644	5.0021	5.9006	-1.5982	0.2895	1.2303
1.0192	1.6638	9.8936	1.0375	0.4352	-2.6157	0.6604	-0.1741	-0.4203	0.4708	1.7527	9.3192	-1.039	0.4765	0.4082	-0.1449	-1.316	-0.4318	9.6607	-1.3339	-0.4274	-3.3145	5.0343	5.8817	-1.5816	0.3459	1.1884
1.0155	1.8358	9.7167	0.6761	0.7262	-2.4527	0.6664	-0.1981	-0.4263	1.1091	1.9805	9.5704	-0.2688	0.4945	0.3172	-0.1592	-1.3155	-0.4319	9.7725	-1.3345	-0.5418	-3.7714	4.9431	5.8574	-1.6868	0.2977	1.1556
0.7801	1.4331	9.4157	0.3575	0.5855	-2.7203	0.6664	-0.1921	-0.4383	0.3011	1.8679	9.4941	-0.2392	0.4326	0.3162	-0.1156	-1.3537	-0.4657	9.7748	-1.3914	-0.4253	-4.2016	5.0677	5.8079	-1.6342	0.3131	1.1729
0.7865	1.6064	9.7708	0.4208	0.4305	-2.5702	0.6664	-0.2041	-0.4263	1.1614	1.7509	9.274	0.2548	0.4861	0.1944	-0.1159	-1.3521	-0.5015	9.4895	-1.2762	-0.4306	-4.9153	5.1636	5.3317	-1.6693	0.3484	1.1686
0.8995	1.6634	9.655	0.0887	0.2884	-3.3256	0.6664	-0.1861	-0.4143	0.5322	2.1536	9.5589	-0.7945	0.3503	0.2211	-0.1591	-1.3324	-0.4847	9.4933	-1.5051	-0.2564	-5.061	5.0706	5.5786	-1.6168	0.3305	1.1713
0.7256	1.5486	9.5922	0.0554	0.1979	-3.3558	0.6544	-0.1681	-0.4203	0.7103	1.982	9.7998	-0.7602	0.5339	0.2244	-0.1446	-1.3344	-0.4489	9.7792	-1.2185	-0.1913	-5.4814	5.0399	5.8635	-1.6342	0.3131	1.1729
0.6678	1.6637	9.5914	-0.0607	-0.1059	-4.0259	0.6724	-0.1861	-0.3963	0.9993	1.6951	9.8051	-0.0231	0.4297	0.1312	-0.1585	-1.3531	-0.4482	9.3162	-1.3338	-0.551	-5.875	4.8866	5.8978	-1.6166	0.2954	1.1751
1.0116	2.1804	9.5403	-0.5081	0.0372	-3.5261	0.6544	-0.1921	-0.4083	0.4836	1.8684	9.973	-0.6941	0.7183	-0.081	-0.1163	-1.333	-0.5022	9.5474	-1.104	-0.3705	-6.2738	5.0417	5.9102	-1.6163	0.2935	1.1934
0.7275	1.7789	9.711	-0.858	0.0198	-3.8838	0.6664	-0.1741	-0.4203	0.4204	1.6963	9.6744	-0.2626	0.7417	-0.0799	-0.1436	-1.3735	-0.4295	9.4944	-1.5049	-0.1981	-6.2066	5.2251	6.3148	-1.6168	0.3305	1.1713
0.6656	2.296	9.5338	-1.0823	-0.0636	-4.1228	0.6724	-0.1621	-0.4083	0.5337	1.5241	9.5576	-0.692	0.8408	-0.0171	-0.1304	-1.334	-0.4666	9.9535	-1.1034	-0.0124	-6.4158	5.0712	6.4071	-1.5288	0.2754	1.1967
0.9588	1.3185	9.7144	-0.6979	-0.3263	-4.5913	0.6604	-0.1681	-0.4023	0.7636	1.3517	9.5026	0.3601	1.2199	0.4857	-0.1586	-1.3524	-0.4661	9.4936	-1.6772	-0.257	-6.3567	5.2866	6.4737	-1.634	0.3287	1.1894
0.7297	1.7791	9.8292	-1.8803	-0.3698	-4.8678	0.6784	-0.1741	-0.4023	0.1897	1.7541	9.6698	0.794	1.4862	1.1089	-0.1019	-1.3341	-0.4843	9.8364	-1.3333	-0.1906	-6.5144	5.3186	6.262	-1.6165	0.3286	1.1897
0.728	1.4914	9.7103	-1.706	-0.5266	-4.0493	0.6664	-0.1801	-0.4203	0.4182	1.6388	9.5554	0.9272	2.0061	1.0566	-0.1439	-1.3551	-0.4124	9.7796	-1.5053	-0.1923	-6.5699	5.0411	6.3169	-1.6176	0.3695	1.131
0.675	1.4346	9.9454	-1.795	-0.1211	-3.0381	0.6724	-0.1741	-0.4263	0.708	1.9817	9.6809	0.7716	1.9166	1.0547	-0.0718	-1.3933	-0.4639	9.5562	-1.6189	0.0361	-6.2337	5.0401	6.3409	-1.6169	0.3481	1.1695
1.0137	1.6056	9.598	-1.3126	0.2277	-2.5598	0.6664	-0.1561	-0.4323	0.4164	1.8676	9.4965	0.246	1.7726	0.9277	-0.1151	-1.3736	-0.4471	9.6066	-0.989	-0.2522	-6.1135	5.0709	6.2778	-1.6513	0.3619	1.2037
1.2458	2.0079	9.7216	-0.7953	0.5147	-1.8996	0.6724	-0.1561	-0.4143	0.303	1.5819	9.5529	-0.5257	1.6329	0.7695	-0.1451	-1.3144	-0.4675	9.8356	-1.563	-0.2498	-6.1042	4.9464	6.6131	-1.5823	0.3498	1.1517
0.9665	1.4345	10.1284	-0.5532	0.8136	-1.1411	0.6844	-0.1801	-0.4143	0.8803	1.7523	9.6246	-0.4357	1.4787	0.5816	-0.1309	-1.3141	-0.4853	9.2712	-0.9872	0.091	-6.2207	4.669	6.6691	-1.6167	0.3637	1.1859
0.7309	1.7793	9.8883	-0.2277	1.1075	-0.7202	0.6604	-0.1861	-0.4203	0.9919	1.8089	9.4488	-0.9309	1.3037	0.3923	-0.1449	-1.3321	-0.5025	9.5488	-1.2759	-0.3128	-6.2446	4.4528	6.8176	-1.6518	0.3483	1.1689
0.7763	1.6627	9.239	-0.4011	1.3606	-0.44	0.6784	-0.1741	-0.4143	0.9933	1.6946	9.508	-0.9126	0.6284	0.2876	-0.1303	-1.3348	-0.4488	9.4496	-1.273	0.4436	-6.2061	4.0516	6.8978	-1.6168	0.3812	1.1841
0.6663	1.8935	9.5328	-0.0812	1.3794	-0.0511	0.6604	-0.1741	-0.4143	0.5342	1.8103	9.6176	-0.4851	0.407	0.0991	-0.1016	-1.3357	-0.4485	9.8369	-1.6775	-0.1918	-5.9683	3.9597	6.5514	-1.6344	0.2974	1.1565
0.8992	1.8359	9.6554	-0.1643	1.4453	0.2564	0.6544	-0.1741	-0.4023	0.7066	1.5809	9.5613	-0.2997	0.4348	0.0381	-0.1585	-1.3531	-0.4482	10.0636	-1.506	-0.245	-5.8182	3.806	6.3282	-1.5645	0.3478	1.1703
0.6079	1.6635	9.472	-0.2547	1.48	0.3198	0.6724	-0.1801	-0.4083	0.706	1.8098	9.5617	-0.6396	0.3489	-0.0567	-0.159	-1.3332	-0.4669	9.6081	-1.2182	-0.1947	-5.7493	3.9584	6.7935	-1.6345	0.315	1.1546
1.1829	1.7773	9.4244	-0.3774	1.5767	0.2928	0.6724	-0.1741	-0.4263	0.7082	1.8673	9.6807	-0.4837	0.4387	-0.1474	-0.1581	-1.3723	-0.4475	9.8937	-1.5055	-0.19	-5.1422	3.9266	6.6264	-1.652	0.3326	1.1524
0.503	1.55	10.0014	-0.2677	1.6967	0.8399	0.6604	-0.1741	-0.4143	0.8761	1.5229	9.3864	-0.8252	0.2909	-0.1198	-0.1585	-1.3531	-0.4482	9.8957	-1.333	-0.0727	-4.9337	3.8038	6.3105	-1.6354	0.3208	1.0996
0.658	2.1225	9.1196	-0.1419	1.6308	0.9585	0.6724	-0.1921	-0.4083	0.8848	1.8672	9.8625	-0.7023	0.2885	-0.0578	-0.1596	-1.3132	-0.4855	9.6165	-1.5036	0.2127	-4.356	3.8334	6.2381	-1.582	0.3479	1.1701
1.1394	1.4341	10.1317	-0.1113	1.5685	0.9879	0.6664	-0.1681	-0.4323	0.7703	1.5241	9.8594	-1.1347	0.2341	0.0331	-0.1449	-1.316	-0.4318	9.9577	-1.6191	0.1608	-3.7151	3.6165	6.0958	-1.6528	0.354	1.1139
1.0728	2.0657	9.7184	-0.0999	1.6002	1.3844	0.6724	-0.1801	-0.4143	0.6453	1.5807	9.3818	-0.6684	0.4117	-0.2718	-0.1169	-1.2961	-0.468	10.1891	-1.5041	0.3409	-3.4096	3.4926	6.0245	-1.6177	0.3363	1.1164
1.0126	1.6054	9.5389	0.0931	1.8069	1.5334	0.6664	-0.1861	-0.4203	0.7074	2.2107	9.6814	-1.226	0.2669	-0.09	-0.1451	-1.3144	-0.4675	10.0144	-1.3897	0.1628	-2.8296	3.3681	5.9477	-1.6176	0.3695	1.131
0.7257	2.1237	9.6527	-0.4009	1.614	1.6664	0.6544	-0.1861	-0.4083	0.7608	1.5232	9.3841	-0.6437	0.134	-0.0605	-0.1599	-1.2948	-0.4684	9.7877	-1.5612	0.2159	-2.4374	3.2448	5.659	-1.6353	0.4047	1.1269
0.4968	1.2617	9.6461	-0.4377	1.4621	1.5444	0.6604	-0.1801	-0.4143	0.1897	1.7541	9.6698	-1.6274	0.2121	-0.0299	-0.1292	-1.3908	-0.4822	9.4471	-1.1014	0.3275	-2.0072	3.1202	5.7084	-1.6171	0.3324	1.153
0.8981	1.7783	9.5961	-0.3698	1.4297	1.7866	0.6604	-0.1861	-0.4023	0.7092	1.9819	9.7403	-0.5443	0.4708	-0.2396	-0.1152	-1.3728	-0.465	9.5561	-1.5615	0.0363	-1.4635	3.1504	5.4827	-1.6174	0.3851	1.1474
1.0172	1.5485	9.7751	-0.5011	1.312	1.5756	0.6724	-0.1741	-0.4083	0.8761	1.5229	9.3864	-0.949	0.2622	-0.0896	-0.159	-1.3332	-0.4669	10.1287	-1.562	0.1644	-0.9484	2.9651	5.1897	-1.7035	0.3271	1.2065
0.6109	1.2613	9.5893	-0.4164	1.0937	1.4197	0.6604	-0.1801	-0.4083	0.4184	1.5244	9.5552	-0.8526	0.4754	-0.0857	-0.1308	-1.3149	-0.4674	9.7265	-1.8488	-0.0197	-0.5644	3.1199	4.724	-1.6342	0.3638	1.1856
0.5523	1.7789	9.5894	-0.4423	0.943	1.694	0.6664	-0.1981	-0.4203	0.4218	2.0971	9.794	-1.1588	0.5424	-0.1776	-0.1456	-1.2952	-0.4683	10.3626	-1.5613	0.4608	-0.0201	2.9347	4.3688	-1.6527	0.3872	1.1285
0.7236	1.4333	9.4737	-0.0247	1.0149	1.1047	0.6664	-0.1921	-0.4263	0.5844	1.466	9.2021	-1.037	0.5089	0.0073	-0.1448	-1.3329	-0.4846	9.7865	-1.5614	0.1576	0.4601	2.904	3.9884	-1.6346	0.3325	1.1527
0.7795	1.7781	9.4166	-0.1144	0.9885	1.2287	0.6784	-0.1861	-0.4143	0.4758	1.6387	9.5566	-0.8824	0.5371	-0.0228	-0.145	-1.3152	-0.4496	9.736	-2.0766	0.4464	0.6984	2.9658	3.7697	-1.6354	0.3715	1.1123
1.3644	2.0081	9.9012	0.0268	0.7061	0.9186	0.6784	-0.1801	-0.4263	0.9329	1.8661	9.3883	-0.7662	0.2569	0.4048	-0.1582	-1.3716	-0.4653	9.8908	-1.1617	-0.3055	0.9688	2.9657	3.5793	-1.6529	0.3716	1.1121
0.6696	1.8939	9.7101	-0.0596	0.6801	1.1646	0.6784	-0.1741	-0.4083	0.5319	1.8101	9.4987	-0.5802	0.2853	0.2203	-0.1725	-1.3711	-0.4654	9.8936	-1.4481	-0.1898	1.1439	3.0895	3.3019	-1.6173	0.3675	1.1493
0.7229	1.8358	9.4747	0.2447	0.5142	1.0952	0.6664	-0.1801	-0.4203	0.3115	1.5255	9.9688	-0.4562	0.3142	0.1284	-0.1304	-1.334	-0.4666	9.8981	-2.1359	-0.0173	1.5067	3.2122	3.2365	-1.6347	0.4008	1.1636
0.9061	1.7218	10.0097	0.4191	0.3223	0.8153	0.6784	-0.1801	-0.4083	0.4629	1.5802	8.9029	-0.7645	0.3188	0.2823	-0.1443	-1.3528	-0.466	9.7813	-1.8493	-0.1352	1.6842	3.2126	2.9864	-1.6349	0.3852	1.1471
0.7818	1.7208	9.5346	-0.0519	0.2492	0.5823	0.6724	-0.1861	-0.4203	0.9355	1.294	9.4466	-0.5778	0.4382	0.3465	-0.1441	-1.3543	-0.4303	10.0221	-1.9047	0.511	1.8629	3.0898	2.7019	-1.6347	0.4008	1.1636
0.6678	1.6637	9.5914	-0.1307	0.3766	1.012	0.6664	-0.1801	-0.4143	0.8185	1.981	9.4456	-0.668	0.5322	0.2554	-0.1301	-1.3525	-0.4837	9.9581	-1.8485	0.16	2.1092	2.935	2.6926	-1.6173	0.3675	1.1493
0.6095	2.0663	9.5912	-0.0755	0.4344	0.7365	0.6784	-0.1681	-0.4143	0.7009	1.4659	9.2639	-0.5754	0.591	0.5037	-0.1436	-1.3735	-0.4295	9.7286	-1.7336	0.0975	2.4752	3.0264	2.7495	-1.583	0.4219	1.1259
0.7868	1.4914	9.7705	0.285	0.2348	0.4825	0.6784	-0.1681	-0.3963	0.4231	2.04	9.8534	-0.8233	0.4732	0.3159	-0.1161	-1.3176	-0.4137	9.3908	-1.5602	0.3247	2.8102	2.9641	2.6794	-1.6515	0.3463	1.1872
0.674	1.3194	9.8861	0.2224	0.2373	0.4535	0.6724	-0.1801	-0.4083	0.5931	1.8103	9.6782	-0.5436	0.5916	0.2258	-0.1304	-1.334	-0.4666	9.6178	-1.6181	0.2707	2.9946	2.7789	2.6088	-1.618	0.389	1.1108
0.902	1.4912	9.7728	0.034	0.3972	0.2455	0.6664	-0.1681	-0.3963	0.6457	1.9242	9.4419	-1.1618	0.479	0.3154	-0.144	-1.3712	-0.4831	9.6192	-1.79	0.3284	3.2716	2.8394	2.7591	-1.6358	0.391	1.0922
0.6665	1.7785	9.5325	0.3687	0.3519	0.0846	0.6604	-0.1921	-0.4143	0.4838	1.296	9.9125	-0.4205	0.5895	0.226	-0.1304	-1.334	-0.4666	9.2173	-1.503	0.2047	3.4907	2.8687	3.0329	-1.6344	0.3482	1.1692
0.7846	2.0662	9.7128	0.7464	0.4288	0.2894	0.6664	-0.1801	-0.4143	0.7085	1.7528	9.6804	-0.7238	0.9001	0.6016	-0.1445	-1.3351	-0.431	9.6686	-2.021	-0.0798	3.7028	3.053	3.0956	-1.6345	0.3657	1.1673
1.2462	1.7779	9.7211	0.3065	0.324	0.0859	0.6664	-0.1861	-0.4083	0.536	1.5815	9.6765	0.8481	1.1163	1.2259	-0.1444	-1.352	-0.4838	9.4423	-1.7334	0.0334	4.1947	2.9281	3.1747	-1.7057	0.3914	1.091
0.8465	1.5491	9.89	0.2438	0.418	-0.0035	0.6784	-0.1801	-0.4143	0.647	1.8671	9.5012	1.3764	1.4436	1.5724	-0.1158	-1.3529	-0.4836	9.5015	-1.6184	0.1517	4.0982	2.8061	2.8649	-1.67	0.3698	1.1301
0.776	1.2026	9.1788	0.2112	0.2665	0.0269	0.6664	-0.1861	-0.4083	0.704	1.6379	9.4425	1.8153	1.9557	2.1073	-0.1447	-1.3175	-0.3961	9.6718	-1.8483	0.0959	4.3791	2.8352	3.1683	-1.635	0.352	1.1325
1.1843	1.6625	9.4833	0.063	0.3347	0.2139	0.6544	-0.1801	-0.4143	0.9977	1.3515	9.6856	1.2313	2.0266	2.2311	-0.131	-1.2972	-0.4324	9.7277	-1.8486	0.0387	4.6818	2.7118	2.9738	-1.617	0.3656	1.1676
0.7285	1.8365	9.7702	-0.286	0.2258	-0.0528	0.6724	-0.1861	-0.4143	0.7088	1.6384	9.6802	1.509	1.9627	1.7054	-0.1307	-1.3318	-0.5202	10.0584	-1.8512	-0.538	4.8002	2.4967	2.6571	-1.635	0.4027	1.1453
0.7913	2.0671	10.0674	-0.3143	0.3799	-0.0512	0.6724	-0.1681	-0.4083	0.5941	1.8677	9.7377	0.434	2.0434	1.4579	-0.116	-1.3352	-0.4487	9.6097	-1.5622	-0.1376	5.1382	2.3725	2.6776	-1.67	0.4205	1.1428
0.7269	1.4913	9.6512	-0.6904	0.3948	-0.2555	0.6724	-0.1681	-0.4263	0.6453	2.0959	9.4423	0.8045	2.1287	1.5836	-0.1305	-1.3333	-0.4845	9.609	-1.7919	-0.1968	5.5877	2.4034	2.3304	-1.6354	0.3715	1.1123
1.0148	1.6057	9.6571	-0.8488	0.4008	-0.4041	0.6724	-0.1741	-0.4143	0.7098	1.2378	9.6794	0.2844	2.2612	1.3998	-0.1745	-1.276	-0.4514	9.8965	-1.8493	-0.0746	5.976	2.4037	1.9528	-1.6526	0.3697	1.1304
0.9016	1.7212	9.7733	-0.8797	0.158	-0.2523	0.6664	-0.1621	-0.4143	0.5259	1.8095	9.2016	0.7827	2.6498	1.8709	-0.1305	-1.3171	-0.4138	9.7896	-1.3314	0.3335	6.5502	2.3415	1.6621	-1.6173	0.3675	1.1493
1.008	1.6624	9.3026	-1.0503	0.0407	-0.7674	0.6604	-0.1681	-0.4083	0.36	1.3527	9.4943	1.315	3.1918	2.2521	-0.1443	-1.3528	-0.466	9.7806	-2.1363	-0.1946	7.2961	2.496	1.0043	-1.6349	0.3345	1.1344
1.0683	2.0652	9.482	-1.7082	0.0667	-1.1173	0.6604	-0.1861	-0.4083	0.6479	1.5237	9.5005	1.7801	3.4281	2.5659	-0.1309	-1.3141	-0.4853	10.0722	-1.8487	0.1623	8.4755	2.6177	0.6143	-1.6175	0.4026	1.1456
0.7802	2.0082	9.4762	-2.2082	-0.0353	-1.2583	0.6604	-0.1861	-0.4263	0.6429	2.0956	9.3234	1.1948	3.3473	2.2546	-0.1449	-1.316	-0.4318	9.3918	-1.5026	0.3832	9.7983	2.7096	-0.211	-1.6348	0.3676	1.149
0.7806	1.7782	9.4757	-1.9382	-0.3528	-1.3582	0.6664	-0.1741	-0.4263	0.2976	1.8676	9.3158	1.4098	3.3431	2.3785	-0.1317	-1.2765	-0.4689	9.615	-2.0203	0.0941	11.0826	3.0182	-1.2451	-1.6355	0.3891	1.1105
0.497	1.7793	9.7065	-1.4505	-0.2826	-1.6442	0.6784	-0.1741	-0.4143	0.415	1.4668	9.3768	1.0962	2.9814	2.0626	-0.1452	-1.3137	-0.4854	9.7299	-1.7908	0.1556	12.6803	3.4477	-1.8196	-1.6353	0.3539	1.1142
1.121	1.6619	9.1866	-1.0732	-0.1753	-1.4697	0.6724	-0.1861	-0.4023	1.1699	1.6945	9.6898	0.5355	2.6228	1.9935	-0.1445	-1.3351	-0.431	10.0687	-1.1034	0.0483	14.3991	3.9386	-2.3948	-1.6001	0.4201	1.144
0.7874	1.1465	9.7697	-0.8001	-0.3095	-1.5686	0.6784	-0.1921	-0.4263	0.5906	1.8673	9.5595	0.1584	2.1699	1.7068	-0.1438	-1.3558	-0.3945	9.8538	-1.5023	0.6841	16.0011	3.8446	-3.1385	-1.6358	0.391	1.0922
0.7233	1.6058	9.4741	-0.4089	-0.3227	-0.8156	0.6664	-0.1741	-0.4083	0.4105	1.867	9.1994	-0.1279	1.6835	1.6976	-0.1308	-1.3149	-0.4674	10.421	-1.7333	0.5197	17.1372	3.9991	-4.0816	-1.6003	0.4045	1.1275
0.6639	1.3182	9.3541	-0.1458	-0.1177	-0.3632	0.6724	-0.1681	-0.4263	0.4204	1.6963	9.6744	-0.5746	0.8321	1.5581	-0.103	-1.2773	-0.4687	9.733	-1.6181	0.3313	17.2349	3.6288	-4.0633	-1.6526	0.3697	1.1304
0.612	1.8941	9.709	-0.3209	0.1351	-0.1439	0.6604	-0.1621	-0.4143	0.7145	1.7534	9.9775	-0.2503	0.0594	1.4522	-0.1314	-1.278	-0.4332	10.5328	-1.7339	0.4052	17.1025	2.365	-4.0351	-1.6351	0.3696	1.1307
0.5591	1.7797	9.944	-0.7714	0.0949	0.3549	0.6604	-0.1621	-0.4083	0.4072	1.7522	9.0209	-0.1943	-0.2782	1.1992	-0.1162	-1.3337	-0.4844	10.258	-1.7889	0.9245	17.1426	1.6253	-4.1187	-1.6512	0.3444	1.2055
0.9576	1.3759	9.6554	-1.0921	0.3246	0.9131	0.6724	-0.1621	-0.4203	0.7085	1.7528	9.6804	-0.7543	-0.5759	1.2547	-0.1307	-1.3156	-0.4495	9.9564	-1.5045	0.1029	16.9256	0.6729	-4.943	-1.6529	0.3716	1.1121
1.0739	2.0658	9.7775	-1.2934	0.7014	1.2252	0.6724	-0.1741	-0.4143	0.2366	1.7529	9.1362	-1.1392	-1.4582	0.8986	-0.1442	-1.3536	-0.4481	10.0185	-1.7906	0.3364	17.0745	0.0887	-5.5175	-1.618	0.4397	1.1235
1.3021	2.1227	9.6639	-1.3464	0.8269	1.4713	0.6784	-0.1801	-0.4083	0.5342	1.8103	9.6176	-0.6531	-1.8041	0.8623	-0.1166	-1.3145	-0.4851	10.4209	-1.6759	0.5199	17.2962	-0.2822	-5.4092	-1.6347	0.4008	1.1636
0.7868	1.4914	9.7705	-1.5013	1.1384	1.2633	0.6724	-0.1861	-0.4143	0.5936	1.5814	9.6777	-0.9898	-1.7662	0.5227	-0.1312	-1.2957	-0.4682	10.1332	-1.5038	0.3981	18.1742	-0.3142	-5.736	-1.6343	0.3813	1.1838
1.236	1.8342	9.1893	-1.4012	1.1353	1.5354	0.6724	-0.1861	-0.4143	1.1039	2.6669	9.3935	-1.5736	-1.6951	0.5847	-0.1454	-1.296	-0.4504	10.0194	-1.6757	0.3952	18.8995	-0.4687	-6.1556	-1.6343	0.3813	1.1838
0.9631	1.434	9.9511	-1.3603	1.1351	1.9005	0.6544	-0.1861	-0.4323	0.8205	1.6377	9.5043	-2.4345	-1.7095	0.2124	-0.1312	-1.2957	-0.4682	10.1365	-1.3884	0.5736	19.4678	-0.4992	-6.6919	-1.635	0.4027	1.1453
1.0125	1.6629	9.539	-1.3586	1.1353	1.9615	0.6664	-0.1801	-0.4143	0.9348	1.5801	9.4472	-2.4906	-1.432	0.1554	-0.1156	-1.3537	-0.4657	9.5519	-1.7918	-0.1979	19.9415	-0.775	-7.5416	-1.6003	0.4045	1.1275
0.8428	1.7212	9.7131	-0.7763	0.9273	1.9156	0.6724	-0.1681	-0.4143	0.077	2.1553	9.8465	-2.2387	-1.1895	-0.1178	-0.1454	-1.296	-0.4504	10.0654	-1.9073	-0.1881	19.9402	-1.1439	-7.8603	-1.6347	0.3501	1.1509
1.0704	1.4904	9.5397	-0.4972	1.0988	1.8488	0.6724	-0.1621	-0.4383	0.7691	1.524	9.8	-2.8851	-1.1786	-0.0878	-0.1601	-1.2772	-0.4334	9.793	-2.0193	0.4477	20.0731	-1.4796	-8.9823	-1.6348	0.3676	1.149
0.6735	1.6069	9.8867	-0.2839	0.7844	1.9333	0.6724	-0.1741	-0.4083	0.5347	2.0966	9.6776	-2.1129	-1.0683	-0.2389	-0.1151	-1.3736	-0.4471	9.8356	-1.563	-0.2498	19.8208	-1.7852	-9.5717	-1.6349	0.3852	1.1471
1.1278	2.2378	9.6017	-0.2602	0.6604	1.749	0.6664	-0.1741	-0.4203	0.8857	1.9818	9.9222	-2.0143	-0.7625	-0.3568	-0.1603	-1.2756	-0.4692	9.6132	-1.5616	0.0375	19.7507	-1.9067	-10.067	-1.5987	0.3265	1.2083
1.0162	1.4909	9.7159	-0.2308	0.7199	1.6571	0.6724	-0.1741	-0.4023	0.698	1.6945	9.1456	-2.1026	-0.4861	-0.0123	-0.1732	-1.3335	-0.4491	9.8945	-1.3332	-0.1311	19.2628	-2.2746	-10.3144	-1.5996	0.3831	1.166
1.0165	1.951	9.7761	-0.1123	0.6227	1.5316	0.6724	-0.1741	-0.4143	0.3491	1.9241	9.02	-1.9443	-0.2735	-0.1009	-0.13	-1.3363	-0.413	9.7245	-1.2754	-0.0759	18.629	-2.1203	-9.8966	-1.6528	0.354	1.1139
0.2025	1.549	9.3457	0.0491	0.739	1.7114	0.6724	-0.1741	-0.4083	0.6983	2.038	9.2057	-1.9719	-0.1193	-0.16	-0.16	-1.2779	-0.4156	9.3261	-1.1024	-0.025	17.7366	-2.0861	-10.2168	-1.5984	0.3753	1.2393
0.6714	2.1817	9.829	0.1056	0.6749	1.5571	0.6724	-0.1681	-0.4143	0.6526	1.5242	9.7382	-1.3488	0.2993	0.003	-0.1153	-1.3721	-0.4828	9.7831	-1.5621	-0.0175	16.9455	-2.2075	-10.2045	-1.6173	0.3675	1.1493
1.0165	1.3184	9.7155	-0.0484	0.6509	1.5912	0.6784	-0.1681	-0.4023	0.4195	1.5817	9.6147	-1.2526	0.4824	-0.1171	-0.1587	-1.3516	-0.4839	9.7762	-1.5059	-0.3674	15.8795	-2.0205	-9.9929	-1.6165	0.3793	1.2024
0.7218	1.8357	9.4156	-0.3596	0.6025	1.5375	0.6784	-0.1741	-0.4023	0.4217	1.6392	9.7337	-0.6314	0.8386	0.2609	-0.1164	-1.316	-0.4494	9.5522	-1.2179	-0.1375	15.6644	-1.866	-9.9533	-1.5997	0.4006	1.1642
0.611	1.8364	9.6498	-0.2339	0.7806	1.505	0.6604	-0.1741	-0.4203	0.466	1.7522	9.0815	0.6657	1.1521	0.763	-0.146	-1.2761	-0.469	9.5007	-1.1021	0.1535	14.2381	-1.6482	-9.4562	-1.5985	0.3422	1.2247
0.7904	1.9519	10.008	-0.1196	0.4389	1.3782	0.6664	-0.1801	-0.4143	0.3632	1.5247	9.6729	-0.0422	1.104	0.4829	-0.1731	-1.3504	-0.5019	9.5567	-1.9057	0.0351	13.7868	-1.4635	-9.0411	-1.6346	0.3325	1.1527
1.0193	1.6063	9.8935	-0.0808	0.8045	1.4404	0.6724	-0.1741	-0.3963	0.5913	1.5812	9.5589	0.326	1.0664	0.6064	-0.1449	-1.3321	-0.5025	9.2726	-1.1591	0.1488	12.9968	-1.6158	-8.9989	-1.5994	0.3987	1.1825
0.8963	1.548	9.4774	0.0652	0.7056	1.1922	0.6664	-0.1981	-0.4083	0.7006	2.0955	9.3246	0.0217	1.1958	0.2993	-0.1581	-1.3723	-0.4475	9.6159	-1.102	0.2142	12.0268	-1.5528	-8.6694	-1.6161	0.3598	1.2226
1.0685	1.3176	9.4211	-0.0909	0.8034	1.0746	0.6664	-0.1621	-0.4143	1.0551	1.4658	9.687	-0.6318	0.8382	0.3536	-0.1013	-1.3541	-0.4656	9.7878	-1.6186	0.2157	11.3711	-1.5228	-7.9464	-1.5997	0.4006	1.1642
1.3072	1.7782	9.8995	-0.0645	0.5881	1.0422	0.6544	-0.1741	-0.4203	0.8785	1.9811	9.5656	-1.4011	0.8513	0.3525	-0.1585	-1.3531	-0.4482	9.4994	-1.7335	0.0345	10.8565	-1.4606	-7.7186	-1.6511	0.3268	1.2074
1.2972	1.7195	9.3674	0.2732	0.5737	0.9729	0.6604	-0.1801	-0.4203	0.184	1.639	9.3724	-0.324	0.8029	0.1991	-0.1593	-1.3148	-0.4498	9.844	-1.8483	0.1577	9.2831	-1.5202	-7.1648	-1.5991	0.346	1.1881
0.7815	1.2608	9.4744	0.0545	0.5214	0.9169	0.6604	-0.1801	-0.4263	0.4119	1.2947	9.1982	-0.1742	0.5556	0.0096	-0.1735	-1.332	-0.4848	9.8986	-1.7341	0.0425	8.2341	-1.6127	-6.3758	-1.5986	0.3597	1.2229
1.0205	1.5489	9.9525	-0.133	0.6815	0.7393	0.6724	-0.1861	-0.4203	0.3686	1.7542	9.9704	-1.6814	0.6121	-0.0229	-0.131	-1.3133	-0.5031	9.4948	-1.7343	-0.1989	7.2185	-2.0441	-5.6896	-1.5995	0.3655	1.1679
1.1269	1.4901	9.4817	0.0526	0.7043	0.7349	0.6724	-0.1741	-0.4203	0.8831	1.5808	9.7431	-0.8836	0.5057	0.131	-0.1304	-1.334	-0.4666	9.4465	-1.4458	0.2679	6.2735	-2.0157	-4.2519	-1.5649	0.3672	1.1502
0.9533	1.8929	9.4793	-0.0083	0.5544	0.8576	0.6604	-0.1681	-0.4203	0.5879	1.9816	9.4409	0.6266	0.6027	0.1663	-0.1305	-1.3333	-0.4845	9.89	-1.334	-0.3645	4.9814	-1.8925	-3.267	-1.651	0.36	1.222
0.9576	2.0084	9.716	-0.3147	0.8421	0.7752	0.6724	-0.1741	-0.4143	0.5373	2.0396	9.7963	-0.2337	0.649	-0.0506	-0.1304	-1.334	-0.4666	9.7837	-1.9062	-0.0187	3.7712	-1.768	-2.7152	-1.651	0.3093	1.2093
1.1197	1.7767	9.1278	-0.355	0.7814	0.4707	0.6484	-0.1801	-0.4203	0.5947	1.6388	9.7373	-0.2276	1.0162	0.203	-0.1745	-1.2921	-0.5221	9.4333	-1.7924	-0.4337	2.7809	-1.891	-2.0516	-1.6519	0.3658	1.167
1.1269	2.1227	9.5424	-0.1391	0.6198	0.5561	0.6664	-0.1801	-0.4143	0.6497	1.7528	9.6198	0.3575	1.0068	0.0804	-0.1445	-1.3351	-0.431	9.8909	-1.2191	-0.3057	1.9114	-2.0757	-1.4846	-1.5989	0.3109	1.1918
0.6712	1.6641	9.7687	-0.391	0.6296	0.3792	0.6724	-0.1921	-0.4263	0.7123	1.1808	9.7981	-0.5977	0.9316	-0.0771	-0.1449	-1.316	-0.4318	9.7854	-1.5616	0.0992	1.3105	-2.1372	-1.1044	-1.6521	0.3502	1.1506
0.8951	1.6054	9.4184	-0.2385	0.7144	0.254	0.6664	-0.1861	-0.4203	0.6485	1.7527	9.5604	-0.2928	0.8029	0.0756	-0.1738	-1.3136	-0.4677	9.5516	-1.6197	-0.1973	0.4456	-2.0765	-0.1607	-1.582	0.3479	1.1701
1.0136	1.6631	9.5981	-0.0263	0.583	0.187	0.6724	-0.1741	-0.4083	0.5872	1.2946	9.3206	-0.8818	0.5678	-0.0223	-0.1302	-1.3356	-0.4309	9.4411	-1.6762	-0.0248	0.1913	-1.8329	0.9302	-1.6165	0.3286	1.1897
0.4402	1.8945	9.7647	0.095	0.6996	0.0322	0.6724	-0.1621	-0.4203	0.534	1.9248	9.6178	-0.7253	0.6883	-0.1125	-0.1164	-1.316	-0.4494	8.98	-1.5043	-0.2667	-1.1719	-1.4927	1.6145	-1.5812	0.3265	1.2086
0.7879	1.4916	9.8296	0.3084	0.5377	0.0261	0.6664	-0.1861	-0.4263	0.944	1.6955	9.9228	-0.6083	0.349	-0.211	-0.1302	-1.3356	-0.4309	8.988	-1.5028	0.1418	-1.8641	-1.0618	2.3496	-1.6334	0.3424	1.2241
1.0197	2.0089	9.9536	0.3053	0.5984	-0.126	0.6664	-0.1681	-0.4083	0.3597	1.4672	9.4945	-0.4854	0.3166	-0.304	-0.1592	-1.3155	-0.4319	9.6094	-1.3328	-0.1368	-2.6817	-0.9991	2.676	-1.6337	0.3443	1.2058
1.0749	2.1235	9.8368	0.2744	0.5997	-0.1252	0.6784	-0.1741	-0.4203	0.6553	1.8679	9.9172	-0.7631	0.2905	-0.2741	-0.1453	-1.2968	-0.4326	9.4975	-1.2748	-0.0222	-3.6739	-0.9066	3.4075	-1.5991	0.3968	1.2008
0.6664	1.836	9.5327	0.3015	0.476	-0.1876	0.6664	-0.1681	-0.4203	0.8262	1.7528	9.8017	-0.6409	0.2273	-0.3368	-0.158	-1.3731	-0.4296	9.2108	-1.7337	-0.1462	-3.9056	-1.0925	3.8383	-1.5988	0.3441	1.2064
0.7869	2.009	9.8309	0.3934	0.533	-0.2505	0.6784	-0.1741	-0.4203	0.7599	1.4086	9.3244	-1.2054	-0.2558	-0.0067	-0.1729	-1.352	-0.4662	9.2101	-1.2748	-0.1446	-4.6035	-0.876	4.1667	-1.5992	0.3636	1.1862
0.7863	1.7214	9.7711	0.5511	0.5269	-0.1324	0.6724	-0.1621	-0.4083	0.9948	1.5802	9.5672	-1.1488	-0.5326	-0.1042	-0.1441	-1.3543	-0.4303	9.6139	-1.3319	0.0966	-5.0806	-0.9688	4.6051	-1.6	0.4025	1.1458
0.5034	1.32	10.0009	0.5543	0.6188	-0.0709	0.6604	-0.1921	-0.4263	0.4183	1.5816	9.5553	0.1106	-0.7069	-0.2595	-0.1578	-1.3738	-0.4117	9.0976	-1.5612	-0.0895	-5.5332	-0.5686	5.1188	-1.6683	0.325	1.2254
0.9654	1.4343	10.0693	0.3669	0.8399	-0.2786	0.6724	-0.1741	-0.4263	0.8819	1.5807	9.6837	-0.6583	-0.6933	-0.3841	-0.1298	-1.354	-0.448	9.6733	-1.3316	0.2145	-5.8013	-0.2613	5.6261	-1.5991	0.3968	1.2008
0.7866	2.1815	9.8313	0.2458	0.6317	-0.0634	0.6724	-0.1561	-0.4443	0.0777	1.354	9.7854	-1.5469	-0.4035	-0.0099	-0.1298	-1.354	-0.448	9.7284	-1.5616	0.0981	-5.6523	0.2002	5.7904	-1.6343	0.3306	1.171
1.0734	1.7207	9.7176	0.548	0.4961	-0.224	0.6724	-0.1681	-0.4143	0.4716	1.9245	9.3789	-0.6228	-0.4482	-0.4106	-0.1442	-1.3536	-0.4481	9.3801	-1.3326	-0.1997	-5.9537	0.3234	6.0466	-1.6164	0.3617	1.2043
1.0118	1.4328	9.4793	0.6754	0.6744	-0.1956	0.6664	-0.1741	-0.4203	0.9906	1.866	9.3895	-0.2817	-0.3009	-0.3147	-0.1164	-1.316	-0.4494	9.7244	-1.218	-0.0757	-6.0461	0.8467	6.3716	-1.6343	0.3813	1.1838
0.7251	1.2035	9.5323	0.6159	0.7077	-0.1329	0.6664	-0.1981	-0.4203	0.9965	1.8666	9.6866	-0.837	-0.3531	-0.2548	-0.1585	-1.3531	-0.4482	9.5637	-1.2732	0.4458	-6.1044	1.1232	6.6889	-1.6165	0.3793	1.2024
1.304	1.6628	9.7219	0.6766	0.7966	-0.2254	0.6544	-0.1921	-0.4263	1.104	2.1518	9.3331	-0.957	-0.1973	-0.314	-0.1166	-1.3145	-0.4851	9.9511	-1.7924	-0.1899	-6.5886	1.739	7.3018	-1.5989	0.3617	1.2045
0.5508	1.3762	9.4702	0.9507	0.571	-0.2334	0.6664	-0.1741	-0.4083	0.6982	1.5801	9.1453	-0.9895	-0.2888	-0.3157	-0.1445	-1.3351	-0.431	9.49	-1.5631	-0.4317	-6.9494	1.7083	7.5239	-1.6341	0.3462	1.1875
0.7855	1.5488	9.7115	0.796	0.6994	-0.3204	0.6664	-0.1861	-0.4203	0.8208	1.5233	9.5041	-1.0492	-0.1655	-0.1901	-0.1152	-1.3728	-0.465	9.4946	-1.6196	-0.1985	-7.0985	1.8927	7.8095	-1.6514	0.3795	1.2018
0.9007	1.6061	9.7139	0.8528	0.6048	-0.4443	0.6724	-0.1861	-0.4083	0.7013	1.2942	9.2636	-0.6744	0.1347	-0.0914	-0.116	-1.3352	-0.4487	9.6704	-0.9878	0.099	-7.6425	2.1086	8.1965	-1.5807	0.3401	1.2433
0.6647	1.4908	9.4136	0.8471	0.6652	-0.6879	0.6664	-0.1741	-0.4143	0.5339	1.4669	9.5575	-0.9216	0.1077	0.0312	-0.1443	-1.3528	-0.466	9.6071	-1.3332	-0.2535	-8.3953	2.0474	8.6105	-1.6688	0.362	1.2034
1.2499	1.6059	9.898	1.0773	0.5615	-1.2432	0.6844	-0.1861	-0.4143	0.2479	1.525	9.6705	-0.3002	0.4042	0.0067	-0.1156	-1.3537	-0.4657	9.4974	-1.906	-0.0828	-9.3306	1.9559	9.0273	-1.5986	0.4104	1.2356
0.6057	1.6632	9.3538	1.7427	0.2876	-1.5965	0.6724	-0.1801	-0.4143	0.5409	1.5248	9.9141	-0.4837	0.5587	0.5033	-0.1166	-1.2984	-0.4145	9.3176	-1.5056	-0.4933	-9.8373	1.8015	9.4645	-1.5994	0.3987	1.1825
0.7248	1.376	9.5327	1.4013	0.3321	-1.6795	0.6664	-0.1741	-0.4323	0.5983	2.0971	9.9759	0.5652	0.694	0.6002	-0.1728	-1.3527	-0.4483	9.7746	-1.2193	-0.4247	-10.3217	1.6484	9.5315	-1.6166	0.3461	1.1878
0.8336	1.8925	9.2407	1.414	0.1458	-2.23	0.6784	-0.1681	-0.4023	0.7631	2.0386	9.5634	0.4772	0.9106	0.5421	-0.1583	-1.3708	-0.4832	9.498	-1.619	-0.0234	-10.8226	1.7438	9.0202	-1.6351	0.3696	1.1307
0.7899	1.6068	9.9481	1.7771	0.0075	-2.4226	0.6544	-0.1681	-0.4083	0.5356	1.7532	9.6769	0.3497	0.6675	0.4758	-0.1587	-1.3516	-0.4839	9.4913	-1.6776	-0.3737	-11.2813	1.8682	9.0638	-1.6166	0.3968	1.2005
0.4975	1.4918	9.7058	1.6582	-0.1699	-2.1462	0.6784	-0.1981	-0.4143	0.6461	1.7525	9.4416	0.5338	0.6338	0.4446	-0.1451	-1.3144	-0.4675	9.7788	-1.735	-0.2515	-11.4404	1.9926	8.8547	-1.5993	0.3811	1.1844
0.6654	1.7784	9.4734	1.4979	-0.0726	-2.4163	0.6784	-0.1801	-0.4083	0.6466	2.0388	9.5016	0.7845	0.9049	0.6661	-0.1302	-1.3517	-0.5016	9.6732	-1.2742	0.2147	-11.6023	2.0252	8.4582	-1.6164	0.3617	1.2043
0.4446	1.9525	10.0013	1.1446	-0.7708	-4.7301	0.6784	-0.1621	-0.4203	0.8186	1.4658	9.3851	1.1337	1.4818	0.7696	-0.1593	-1.3317	-0.5026	9.6081	-1.2756	-0.1949	-11.5476	1.9953	8.148	-1.5995	0.4162	1.1806
1.1803	2.007	9.3068	2.156	-0.9667	-4.9084	0.6724	-0.1741	-0.4143	0.4704	1.4092	9.2591	1.4764	1.781	1.2389	-0.1161	-1.3345	-0.4665	9.3217	-1.1606	-0.2586	-11.3928	1.933	8.2048	-1.5991	0.346	1.1881
1.2387	1.547	9.3068	0.9071	-0.851	-4.3283	0.6604	-0.1741	-0.4023	0.8179	1.752	9.3857	1.6005	1.7501	0.8061	-0.1589	-1.334	-0.449	9.4412	-0.9877	0.0361	-11.304	1.8409	8.0154	-1.6867	0.3816	1.1829
0.4935	1.2038	9.4687	0.233	-0.5475	-4.3101	0.6604	-0.1741	-0.4143	0.6418	1.5803	9.2036	1.1085	1.759	0.6819	-0.1298	-1.354	-0.448	9.8327	-1.1619	-0.365	-10.9687	1.8094	7.977	-1.5995	0.3655	1.1679
0.7898	1.6643	9.9482	0.5643	-0.6494	-3.4341	0.6724	-0.1681	-0.4203	0.5858	1.8669	9.3218	1.3857	1.7245	0.4656	-0.1447	-1.3336	-0.4667	9.3841	-1.6762	-0.0259	-9.9335	1.6533	7.7669	-1.634	0.3969	1.2002
0.9524	1.7778	9.4199	0.1787	-0.3564	-3.0265	0.6664	-0.1741	-0.4203	0.0132	1.7541	9.4879	-0.0649	1.5341	0.4905	-0.1443	-1.3528	-0.466	9.9019	-1.6761	0.2178	-9.4798	1.499	7.476	-1.6162	0.3774	1.2207
1.1877	1.6054	9.6604	0.4499	-0.2116	-2.2391	0.6844	-0.1801	-0.4143	0.4157	1.6958	9.4367	0.7333	1.3982	0.3968	-0.1307	-1.3156	-0.4495	9.3234	-1.562	-0.2017	-8.8404	1.4361	7.369	-1.6165	0.3793	1.2024
0.9008	1.5486	9.7138	0.3276	-0.4855	-3.1529	0.6664	-0.1681	-0.4083	0.2467	1.5249	9.6111	-0.2229	1.2619	0.1765	-0.1741	-1.2952	-0.4506	9.8324	-1.7357	-0.4254	-7.9668	1.3434	6.794	-1.6519	0.4165	1.1798
0.7848	1.9512	9.7125	0.4414	-0.6137	-3.4309	0.6604	-0.1741	-0.4083	0.8776	1.8665	9.506	-0.1301	1.2608	0.0532	-0.159	-1.3332	-0.4669	10.0646	-1.391	-0.1862	-7.6042	1.0662	6.4398	-1.616	0.393	1.2372
0.9028	1.6638	9.8323	0.224	-0.6353	-3.4563	0.6724	-0.1861	-0.4203	0.4761	1.5242	9.5564	-0.1326	1.0778	-0.2281	-0.145	-1.3313	-0.5203	9.6697	-1.2175	0.0398	-6.6925	0.7876	6.0746	-1.5646	0.3653	1.1685
0.953	2.0654	9.4797	0.1975	-0.481	-3.3937	0.6604	-0.1801	-0.4203	0.3066	1.5822	9.7312	-0.1623	1.1697	-0.0412	-0.1448	-1.3329	-0.4846	10.1205	-1.3913	-0.2434	-6.0272	0.4793	5.5901	-1.6516	0.3639	1.1853
1.0109	1.8928	9.4805	-0.1257	-0.8358	-3.6929	0.6664	-0.1801	-0.4023	0.7611	1.8667	9.4442	-0.3446	1.2956	-0.0393	-0.1017	-1.3349	-0.4664	9.8439	-1.791	0.1579	-5.3359	0.5714	5.1782	-1.617	0.4163	1.1803
0.7329	1.8945	10.0068	0.0073	-1.2106	-4.2474	0.6604	-0.1861	-0.4203	0.9367	1.752	9.5664	0.0038	1.8115	-0.0294	-0.1294	-1.3732	-0.4472	9.6636	-1.735	-0.3122	-4.6143	0.356	4.5412	-1.5985	0.3929	1.2375
0.7821	1.6059	9.5344	0.0212	-1.2748	-4.8277	0.6724	-0.1681	-0.4203	0.7071	1.8672	9.6213	0.1277	1.8404	-0.0905	-0.1304	-1.334	-0.4666	9.5596	-1.5609	0.2114	-3.8334	0.2944	3.9381	-1.5644	0.3809	1.1849
0.7828	1.836	9.594	0.0326	-1.4871	-4.2801	0.6484	-0.1621	-0.4263	0.3713	2.098	10.1494	0.2795	1.7453	0.0007	-0.1445	-1.3351	-0.431	9.3841	-1.6762	-0.0259	-3.085	0.51	3.4361	-1.6521	0.4009	1.1633
0.7872	1.894	9.8306	0.4973	-1.4452	-4.2607	0.6544	-0.1801	-0.4203	0.7058	1.4091	9.5015	0.064	1.7488	0.0313	-0.1298	-1.354	-0.448	9.4357	-1.9067	-0.3174	-2.2983	0.4783	3.1113	-1.6345	0.4164	1.18
0.4962	1.5492	9.6468	0.6944	-1.3907	-3.8686	0.6604	-0.1681	-0.4263	0.5934	1.6959	9.678	-0.0034	1.443	0.0257	-0.1015	-1.3364	-0.4307	9.3321	-2.0194	0.2051	-1.5479	0.6936	2.7017	-1.6523	0.3853	1.1468
0.8364	1.5478	9.358	0.4539	-1.3491	-3.649	0.6604	-0.1741	-0.4143	0.8196	1.5232	9.4447	-0.0068	1.2289	-0.1634	-0.1161	-1.3345	-0.4665	9.8535	-2.0761	0.6237	-1.1523	0.662	2.6312	-1.6177	0.4377	1.1418
0.6646	2.1809	9.4744	0.9364	-1.2444	-3.0195	0.6784	-0.1741	-0.4203	0.2389	1.8103	9.2551	-0.5958	1.0238	-0.1063	-0.1881	-1.3132	-0.4678	9.7799	-1.6774	-0.193	-0.578	0.6922	2.4048	-1.6168	0.432	1.1968
0.9555	1.9506	9.5977	0.58	-1.1053	-2.583	0.6784	-0.1861	-0.4083	0.4824	1.3531	9.8531	-0.2262	1.0179	-0.1984	-0.1437	-1.3728	-0.4473	9.5002	-1.5612	0.0935	-0.1296	0.5694	1.8992	-1.6346	0.434	1.1782
1.0114	1.6628	9.4799	0.5891	-0.8603	-2.3987	0.6604	-0.1621	-0.4083	0.6516	1.9248	9.739	-0.54	0.6559	-0.4525	-0.1437	-1.3728	-0.4473	9.8376	-2.1364	-0.1935	0.3199	0.6003	1.552	-1.6344	0.3989	1.1819
0.8396	1.6632	9.5356	0.3838	-0.667	-2.1181	0.6784	-0.1621	-0.4383	0.5259	1.8095	9.2016	-0.9164	0.3538	-0.1188	-0.1307	-1.3156	-0.4495	9.9547	-1.8491	-0.0151	0.6466	0.4163	1.0162	-1.5822	0.4512	1.1772
0.6716	2.0667	9.8288	0.3039	-0.8495	-2.6663	0.6724	-0.1801	-0.4323	0.5932	1.7531	9.6781	-0.8253	0.2908	-0.0889	-0.1307	-1.3156	-0.4495	9.7934	-1.5602	0.5077	0.9388	0.356	0.3921	-1.6694	0.3659	1.1667
0.9526	1.6628	9.4197	-0.2276	-1.7786	-3.4519	0.6604	-0.1681	-0.4263	0.996	1.5803	9.6266	-1.1038	0.2037	-0.1527	-0.1165	-1.3153	-0.4673	9.4452	-2.1345	0.1487	1.3044	0.3859	0.3857	-1.5988	0.3948	1.2191
0.7851	1.7788	9.7121	-0.7023	-2.0656	-3.686	0.6784	-0.1861	-0.4143	0.5955	1.8106	9.797	-0.8173	0.7802	0.2905	-0.13	-1.3363	-0.413	9.4434	-1.6758	0.092	1.9062	0.3857	0.0037	-1.6171	0.3832	1.1657
1.415	1.5471	9.4875	-0.8163	-2.5826	-4.1438	0.6544	-0.1921	-0.4323	0.3036	1.8109	9.6128	1.1053	1.7251	1.4225	-0.1587	-1.3355	-0.4133	9.7807	-2.1937	-0.1948	2.2908	0.5404	-0.4311	-1.6164	0.3617	1.2043
0.7224	1.4907	9.4148	-0.413	-1.9844	-3.3265	0.6724	-0.1861	-0.4083	0.5866	1.5235	9.3211	2.7529	2.7072	2.1533	-0.145	-1.3152	-0.4496	9.6068	-1.8496	-0.3137	2.7388	0.8175	-0.6787	-1.617	0.4163	1.1803
0.7195	1.8354	9.2974	-0.1575	-1.7803	-3.1485	0.6664	-0.1621	-0.4143	0.4725	2.0391	9.4386	4.149	3.417	2.9096	-0.1304	-1.334	-0.4666	9.8362	-1.9645	-0.2512	3.064	1.0951	-0.9547	-1.6164	0.4125	1.217
1.0692	2.1803	9.5414	0.2183	-1.0279	-2.2992	0.6604	-0.1741	-0.4083	1.1648	1.3505	9.392	2.7227	2.7983	2.4946	-0.1593	-1.3148	-0.4498	9.6084	-2.1936	-0.2566	3.4564	1.2793	-1.019	-1.6518	0.399	1.1816
1.011	1.8353	9.4803	0.5684	-0.1211	-1.3568	0.6724	-0.1741	-0.4143	0.2976	1.8676	9.3158	1.9458	2.3525	2.1455	-0.1173	-1.2769	-0.4688	9.556	-2.1927	-0.0243	3.4869	1.187	-1.0839	-1.5986	0.3597	1.2229
0.5492	1.6635	9.4118	1.1945	0.9264	-0.5728	0.6604	-0.1681	-0.4023	0.9968	1.2369	9.6259	0.619	0.5639	2.0804	-0.1173	-1.2769	-0.4688	9.4385	-2.1931	-0.2017	3.382	0.9078	-0.5041	-1.6176	0.4202	1.1437
1.0709	1.8355	9.5996	1.2886	1.5985	0.1914	0.6664	-0.1801	-0.4203	0.9891	1.9804	9.3303	1.2583	0.1245	1.7649	-0.1151	-1.3736	-0.4471	9.4991	-2.3073	-0.0259	3.4418	0.8463	-0.5995	-1.6523	0.436	1.1596
0.7798	1.6056	9.4162	1.172	1.9094	0.257	0.6604	-0.1741	-0.4323	0.6523	1.1807	9.6781	1.2224	-0.241	1.2332	-0.1445	-1.3513	-0.5017	9.8438	-2.4222	0.0973	3.1143	0.6306	-0.3833	-1.5998	0.4182	1.1623
1.4158	1.7197	9.547	0.7613	2.3874	0.7579	0.6784	-0.1861	-0.4263	0.7086	2.2108	9.7408	-0.6955	-0.7002	1.3761	-0.1597	-1.3125	-0.5033	9.6091	-1.9066	-0.1972	3.1189	0.3223	-0.3922	-1.653	0.4399	1.1229
0.439	1.9519	9.7058	0.6246	2.7924	1.1601	0.6784	-0.1801	-0.4023	0.467	1.8668	9.1411	-0.9142	-0.9405	1.0008	-0.1169	-1.2961	-0.468	9.6106	-2.1358	-0.1397	2.9564	0.1705	-0.9482	-1.6342	0.3638	1.1856
1.071	2.4105	9.6601	0.2962	2.9603	1.4741	0.6724	-0.1801	-0.4203	0.7073	1.7527	9.621	-1.227	-1.2112	0.9337	-0.1021	-1.3165	-0.4493	9.8365	-1.3907	-0.1908	3.2088	-0.3543	-0.9374	-1.6504	0.4069	1.2714
0.7842	1.6636	9.6527	-0.2103	3.3503	1.9158	0.6664	-0.1741	-0.4203	0.5358	1.1808	9.6163	-1.8423	-1.2906	0.4062	-0.1457	-1.2945	-0.4861	9.7232	-1.9068	-0.1949	3.3516	-0.4762	-1.4677	-1.6516	0.3639	1.1853
0.3836	1.3197	9.7622	-0.4112	3.5135	2.3792	0.6784	-0.1801	-0.4203	0.3015	1.6962	9.4938	-1.6902	-1.3853	0.4047	-0.159	-1.3332	-0.4669	9.8403	-1.6769	-0.0167	4.0169	-0.5077	-1.7594	-1.6692	0.3815	1.1832
1.0728	2.0657	9.7184	-0.1113	3.6263	3.1047	0.6724	-0.1741	-0.4083	0.6497	1.2377	9.5594	-2.0634	-1.6537	0.0287	-0.187	-1.3531	-0.4306	9.8347	-1.7353	-0.3087	4.1963	-0.8152	-2.1416	-1.6341	0.4145	1.1984
1.2438	1.8351	9.603	0.5109	3.357	3.4236	0.6604	-0.1561	-0.4083	1.0562	1.5232	9.7465	-2.5809	-1.4281	-0.4006	-0.1729	-1.352	-0.4662	10.5208	-2.0803	-0.2379	4.913	-0.8454	-2.8658	-1.6163	0.3949	1.2188
0.9584	1.5485	9.7149	0.8372	2.8228	3.2601	0.6724	-0.1981	-0.4203	0.1886	1.6967	9.6102	-3.069	-1.2046	-0.4592	-0.1298	-1.3378	-0.3773	10.065	-1.6779	-0.1872	5.5663	-0.8443	-3.6803	-1.6338	0.4126	1.2167
0.7205	1.893	9.3566	0.3748	2.2274	2.5357	0.6604	-0.1741	-0.4263	0.6504	1.4667	9.6193	-3.0332	-0.9891	-0.7333	-0.1437	-1.3728	-0.4473	10.0076	-1.4483	-0.1876	6.0993	-0.9662	-4.4959	-1.652	0.4341	1.1779
0.8358	1.8928	9.3589	0.2611	1.5274	2.1989	0.6724	-0.1801	-0.4143	0.6387	1.8663	9.0853	-2.8104	-0.6241	-0.819	-0.1448	-1.3329	-0.4846	10.0047	-1.7931	-0.3639	5.7396	-1.2077	-5.7595	-1.6165	0.3793	1.2024
1.073	1.3182	9.6575	-0.4536	1.404	2.124	0.6664	-0.1801	-0.4263	0.6584	1.582	10.0354	-2.5326	-0.5378	-0.5699	-0.1451	-1.2983	-0.3968	9.7766	-1.7928	-0.3684	6.1348	-1.6344	-7.5058	-1.6163	0.3949	1.2188
1.1326	2.0659	9.8377	-0.4216	1.3723	2.1841	0.6724	-0.1801	-0.4323	0.5386	1.4673	9.7951	-2.0655	-0.2992	-0.7811	-0.1461	-1.2753	-0.4869	10.0124	-1.5622	0.0455	6.1824	-1.8785	-8.2844	-1.6166	0.3968	1.2005
1.3087	1.5484	9.9581	-0.2488	1.3327	1.7526	0.6664	-0.1801	-0.4083	0.6572	1.5818	9.976	-2.4616	-0.0477	-0.5919	-0.1165	-1.3153	-0.4673	9.8289	-1.679	-0.6003	6.3231	-2.0924	-8.9715	-1.6506	0.3913	1.2549
1.0735	1.6633	9.7174	-0.7746	1.08	1.8859	0.6664	-0.1921	-0.4203	0.6996	1.523	9.2046	-2.3707	-0.081	-0.3453	-0.1305	-1.3171	-0.4138	9.376	-1.6203	-0.4342	6.2885	-2.0917	-9.1558	-1.5819	0.3986	1.1828
0.7246	1.491	9.533	-0.7211	1.1375	1.5494	0.6724	-0.1621	-0.4203	0.7685	1.295	9.7401	-1.9091	-0.1189	-0.4996	-0.1161	-1.3345	-0.4665	9.4873	-1.334	-0.5476	6.3884	-2.3393	-8.9491	-1.6	0.4533	1.1586
0.7831	1.6635	9.5936	-0.4055	0.7547	0.8989	0.6664	-0.1741	-0.4203	0.7755	1.8108	10.1571	-0.9185	0.2614	-0.0278	-0.1158	-1.336	-0.4308	9.8992	-2.1357	0.0411	6.5448	-2.371	-8.799	-1.6513	0.4127	1.2164
1.0066	1.8347	9.2439	-0.8728	0.0673	0.0521	0.6724	-0.1681	-0.4143	0.3066	2.0402	9.7916	-1.4426	0.2992	0.4043	-0.1447	-1.3336	-0.4667	9.7323	-1.9051	0.2719	6.5855	-2.2804	-8.2731	-1.6516	0.3639	1.1853
0.7776	1.6053	9.298	-1.1643	-0.2887	-0.2174	0.6664	-0.1861	-0.4263	0.6523	1.1807	9.6781	-0.2022	0.7694	0.384	-0.1158	-1.3529	-0.4836	9.6006	-1.5639	-0.6045	6.7197	-1.8212	-7.3996	-1.6153	0.3891	1.2738
0.6052	1.9507	9.3545	-1.2281	-0.1643	-0.3677	0.6664	-0.1801	-0.4143	0.9965	1.8666	9.6866	-0.3228	0.9244	0.5101	-0.1433	-1.3919	-0.4466	9.6646	-1.6201	-0.2534	6.5401	-1.4522	-6.9847	-1.633	0.4243	1.2698
1.2488	2.1808	9.8994	-0.9573	-0.0852	-0.6788	0.6784	-0.1681	-0.3903	0.3488	1.5806	8.9599	-0.5411	0.8046	0.662	-0.1169	-1.2961	-0.468	9.433	-1.6203	-0.433	6.7867	-0.8073	-6.4163	-1.6512	0.3444	1.2055
0.799	1.5504	10.4208	-0.8654	-0.1806	-0.6511	0.6664	-0.1741	-0.4083	-0.0396	1.6975	9.7243	0.4174	1.0038	0.5437	-0.1876	-1.3331	-0.4492	9.6035	-1.965	-0.4892	7.2068	-0.4736	-5.1205	-1.6163	0.3949	1.2188
1.012	1.9504	9.5397	-0.6038	-0.4991	-1.0559	0.6484	-0.1921	-0.4083	0.6451	1.6952	9.382	0.3583	1.2778	1.3206	-0.1448	-1.3167	-0.4139	9.6081	-1.9642	-0.2558	5.7627	-0.0686	-5.2959	-1.6347	0.4008	1.1636
0.7794	1.8356	9.4167	-0.7488	-0.6793	-1.7245	0.6784	-0.1741	-0.4083	0.5368	1.2382	9.6758	4.125	2.2786	3.5687	-0.1296	-1.3717	-0.4829	9.1589	-2.1343	0.0846	5.9208	0.0532	-4.9565	-1.6328	0.3385	1.2608
0.6666	1.7211	9.5324	-0.8917	-1.1338	-2.1508	0.6724	-0.1801	-0.4083	0.7043	1.5234	9.4423	5.2728	2.8102	3.9199	-0.1587	-1.3516	-0.4839	9.6059	-1.3334	-0.3119	5.7474	0.2367	-4.3929	-1.5811	0.3596	1.2232
0.7766	2.1227	9.2992	-0.8261	-1.1055	-2.0302	0.6544	-0.1861	-0.4143	0.5825	1.7521	9.1433	6.4577	3.6787	4.3081	-0.1728	-1.3527	-0.4483	9.383	-1.7337	-0.0845	5.3852	0.3908	-4.1038	-1.6683	0.3757	1.2382
1.0153	1.9508	9.717	-0.5851	-1.1165	-2.2496	0.6544	-0.1801	-0.4143	0.935	1.9808	9.5074	4.6456	3.8037	3.8439	-0.13	-1.3532	-0.4659	9.2072	-1.6196	-0.3209	5.1001	0.4239	-4.5596	-1.6508	0.3756	1.2385
0.7923	1.5496	10.0662	-0.3837	-0.7564	-1.8864	0.6604	-0.1681	-0.4263	0.5868	1.4663	9.321	4.1109	3.0488	2.9956	-0.1597	-1.2963	-0.4327	9.6653	-1.333	-0.194	5.3117	1.0081	-4.2388	-1.5814	0.4123	1.2176
0.786	1.8939	9.7715	-0.0205	-0.2494	-1.3432	0.6724	-0.1861	-0.4203	0.7068	1.9816	9.6215	1.5453	2.3888	2.4235	-0.1442	-1.3536	-0.4481	9.6121	-1.6192	-0.0211	5.0035	1.686	-3.9051	-1.6509	0.3932	1.2366
1.0753	1.8935	9.8362	0.5668	0.1274	-0.4401	0.6664	-0.1741	-0.4023	0.6443	1.5233	9.3223	0.3355	1.7678	1.6999	-0.1154	-1.3552	-0.43	9.7183	-1.6782	-0.4275	4.7153	2.2424	-4.13	-1.6513	0.3619	1.2037
0.7862	1.7789	9.7712	0.7344	0.3665	-0.1073	0.6604	-0.1921	-0.4143	0.7714	1.0663	9.8585	-1.0571	1.2421	0.9469	-0.1305	-1.3333	-0.4845	9.7814	-1.9067	-0.1354	4.4767	2.7035	-3.5572	-1.6342	0.3638	1.1856
0.8968	1.8931	9.5373	0.9967	0.7239	0.224	0.6784	-0.1801	-0.4083	0.4176	1.8677	9.5559	-0.8172	0.8705	0.7245	-0.1308	-1.3149	-0.4674	9.7256	-1.2752	-0.0176	4.1678	3.197	-3.3828	-1.6677	0.3719	1.2748
1.3015	1.835	9.6041	0.8542	1.1282	0.4128	0.6604	-0.1861	-0.4143	0.4751	1.9248	9.5572	-1.5926	0.5163	0.4697	-0.1739	-1.3128	-0.4856	9.6567	-1.7363	-0.6623	3.5815	3.384	-3.5507	-1.5987	0.3773	1.221
0.7887	1.6642	9.8891	0.5604	1.6613	0.6366	0.6604	-0.1801	-0.4083	0.5304	1.9245	9.4396	-2.3763	-0.2975	0.0523	-0.1306	-1.3164	-0.4317	9.7204	-1.563	-0.3104	2.6841	3.3882	-4.1184	-1.6155	0.356	1.2592
0.9534	1.8354	9.4792	0.9138	1.9842	0.9349	0.6544	-0.1861	-0.4263	0.9426	1.2947	9.8031	-2.2672	-1.0362	0.0393	-0.1165	-1.3153	-0.4673	9.789	-1.6757	0.2739	1.8338	3.236	-4.0441	-1.6512	0.3444	1.2055
1.2406	1.7772	9.4256	0.9821	2.3179	0.9657	0.6604	-0.1861	-0.4203	0.7088	1.6384	9.6802	-2.335	-1.4026	-0.1526	-0.1442	-1.3536	-0.4481	10.293	-1.5635	-0.1823	1.1229	3.3622	-4.3653	-1.616	0.393	1.2372
1.3046	1.9504	9.7817	0.7399	3.1875	1.7392	0.6664	-0.1921	-0.4263	0.7075	1.6955	9.6209	-2.9554	-1.6979	-0.4369	-0.1447	-1.3336	-0.4667	9.6623	-1.6205	-0.3701	0.1465	3.0263	-4.602	-1.598	0.3559	1.2595
1.0169	1.721	9.7756	0.5448	3.8395	2.1138	0.6544	-0.1741	-0.4203	0.194	1.9262	9.9078	-3.337	-2.3962	-0.7589	-0.1443	-1.3528	-0.466	10.1176	-1.7361	-0.4197	-0.2654	2.6559	-4.1728	-1.6161	0.3598	1.2226
1.3628	1.6629	9.7822	0.9464	4.4375	2.8701	0.6544	-0.1861	-0.4263	0.6514	1.524	9.6788	-3.1231	-2.5818	-1.2869	-0.1445	-1.3513	-0.5017	9.8931	-1.8499	-0.2497	-0.5756	2.596	-4.4457	-1.5647	0.3829	1.1666
0.7353	1.7798	10.1247	1.3211	4.2395	3.1344	0.6664	-0.1801	-0.4143	1.0541	1.8664	9.6878	-2.1051	-2.4762	-1.3141	-0.1446	-1.3344	-0.4489	9.831	-1.5638	-0.4832	-1.0655	2.7205	-4.4324	-1.651	0.4107	1.2347
0.7282	1.3764	9.71	1.3752	3.5954	3.2514	0.6604	-0.1741	-0.4143	0.6994	1.5802	9.2047	-3.3932	-2.2389	-1.4048	-0.1305	-1.3333	-0.4845	10.0062	-1.2764	-0.2453	-1.2881	2.6916	-4.8603	-1.5815	0.3791	1.203
1.007	2.2373	9.304	2.128	3.012	2.8942	0.6604	-0.1861	-0.4143	0.3626	1.7537	9.6733	-3.5351	-1.6221	-1.4867	-0.1166	-1.3145	-0.4851	9.4334	-1.1612	-0.373	-1.515	2.6327	-5.5048	-1.6341	0.4145	1.1984
0.9591	1.7786	9.7746	1.1962	2.9281	2.7638	0.6544	-0.1801	-0.4083	0.582	1.981	9.1438	-2.8247	-1.4811	-1.3903	-0.145	-1.3152	-0.4496	9.7216	-1.6202	-0.2523	-1.3112	2.4184	-6.1007	-1.6511	0.3776	1.2201
0.9018	1.6062	9.773	0.7816	2.5468	2.5277	0.6724	-0.1741	-0.4203	0.7127	1.9822	9.9186	-3.6235	-1.4058	-1.4521	-0.1025	-1.2973	-0.4501	9.2737	-1.8474	0.1463	-1.0724	2.0803	-6.5775	-1.5983	0.3578	1.2412
1.0196	2.0664	9.9537	0.5301	1.9419	1.6151	0.6604	-0.1801	-0.4263	0.4705	1.8671	9.3194	-3.1891	-1.199	-1.2932	-0.1307	-1.3156	-0.4495	9.7724	-1.2771	-0.5416	-0.7735	2.0805	-6.8609	-1.6344	0.3989	1.1819
0.6099	2.4688	9.6513	0.0467	0.9477	0.3704	0.6724	-0.1801	-0.3963	0.2455	1.5248	9.5516	-3.0305	-0.896	-0.9787	-0.1595	-1.2971	-0.4148	9.6675	-1.2753	-0.0771	-0.6599	1.9585	-7.3291	-1.687	0.3836	1.1646
0.8372	1.7205	9.4176	0.3913	0.2582	-0.1606	0.6544	-0.1921	-0.4263	0.7035	1.8668	9.443	-2.5292	-0.4139	-0.8457	-0.13	-1.3532	-0.4659	10.1789	-1.5633	-0.1845	-0.1426	1.8959	-7.4337	-1.5996	0.3831	1.166
0.7787	2.238	9.4177	0.0317	0.702	-0.0272	0.6484	-0.1921	-0.4143	0.6375	1.8661	9.0259	-2.251	-0.327	-0.7201	-0.1454	-1.296	-0.4504	10.0645	-1.3337	-0.186	0.162	1.7414	-7.5675	-1.5984	0.3246	1.2266
1.1763	1.719	9.0697	-0.8699	0.5862	-0.1585	0.6724	-0.1801	-0.4383	0.2422	1.9252	9.4336	-1.9137	-0.3342	-0.3799	-0.1449	-1.3321	-0.5025	10.0668	-1.3333	-0.0693	0.477	1.8929	-7.0146	-1.616	0.393	1.2372
0.7807	1.7207	9.4755	-0.585	0.8499	-0.0724	0.6604	-0.1801	-0.4263	0.6421	1.9238	9.2637	-2.2516	-0.2978	-0.3798	-0.1597	-1.3125	-0.5033	9.4938	-1.1033	-0.1966	0.6385	1.8296	-6.6497	-1.6165	0.43	1.2151
0.9639	1.6067	10.0106	-0.9793	1.02	0.0907	0.6664	-0.1861	-0.4323	0.7146	1.6962	9.9774	-1.6022	-0.1551	-0.4379	-0.1313	-1.2949	-0.486	9.6063	-1.5628	-0.3127	0.758	1.8604	-6.7437	-1.6336	0.3267	1.2077
0.6113	1.6639	9.6493	-0.2055	0.9879	0.1632	0.6664	-0.1801	-0.4203	1.0506	1.8661	9.5095	-1.4785	-0.1265	-0.4372	-0.1586	-1.3524	-0.4661	9.7783	-1.3908	-0.2503	0.7678	1.5206	-6.5378	-1.6684	0.3933	1.2363
0.7194	1.8929	9.2975	-0.1327	1.0476	0.5279	0.6784	-0.1801	-0.4083	0.654	1.925	9.8579	-1.5049	0.1492	-0.1853	-0.1315	-1.2772	-0.4511	9.3744	-1.3336	-0.4915	0.6479	1.4283	-6.5072	-1.6845	0.3174	1.2984
0.7242	2.3535	9.5942	-0.4769	1.1223	0.3231	0.6664	-0.1861	-0.4143	0.3583	1.5815	9.4353	-1.2551	0.3593	-0.0575	-0.1311	-1.2964	-0.4503	9.5432	-1.3343	-0.6048	0.561	1.3048	-6.3857	-1.6514	0.3795	1.2018
0.7752	1.6625	9.1799	-0.6025	0.8526	0.4161	0.6724	-0.1801	-0.4023	0.6479	1.9816	9.5609	-1.0414	0.2636	-0.0589	-0.1437	-1.3728	-0.4473	9.3754	-1.2187	-0.4327	0.446	1.3347	-6.0435	-1.6332	0.358	1.2406
1.4105	1.5465	9.2511	-0.7799	1.1663	0.5138	0.6784	-0.1681	-0.4083	0.8222	1.9241	9.6238	-1.5967	0.2115	-0.0299	-0.1173	-1.2769	-0.4688	9.7793	-1.3332	-0.1917	0.2791	1.4865	-5.2035	-1.6338	0.3618	1.204
0.8362	1.6628	9.3583	-0.8396	1.1386	0.6066	0.6724	-0.1861	-0.4143	0.7632	1.5234	9.5029	-1.3829	0.146	0.0929	-0.1308	-1.3149	-0.4674	9.5496	-1.0463	-0.2536	0.1182	1.422	-4.2465	-1.6509	0.3932	1.2366
0.893	2.1227	9.3606	-0.6864	1.315	0.4513	0.6604	-0.1861	-0.4323	0.706	1.8098	9.5617	-1.072	0.2344	-0.2756	-0.1305	-1.3333	-0.4845	9.7225	-1.4479	-0.1933	0.0958	1.6053	-3.7476	-1.564	0.3615	1.2051
1.0723	1.7206	9.6585	-0.7845	1.0438	0.4217	0.6724	-0.1921	-0.4263	0.6523	1.6386	9.7384	-1.0994	0.479	0.0684	-0.1155	-1.3544	-0.4479	9.4928	-1.2183	-0.2554	-0.1655	1.6347	-3.125	-1.634	0.3287	1.1894
1.0665	1.7774	9.3631	-0.6884	1.3453	0.3601	0.6604	-0.1741	-0.4143	0.9306	1.3507	9.209	-0.7303	0.4724	0.1307	-0.1589	-1.334	-0.449	9.7204	-1.563	-0.3104	-0.3976	1.572	-2.629	-1.6515	0.3463	1.1872
1.0719	1.8931	9.6589	-0.5307	1.0952	0.6293	0.6664	-0.1861	-0.4263	0.9342	1.809	9.4476	-0.8537	0.4441	0.0682	-0.1578	-1.3908	-0.4645	9.6687	-1.3324	-0.0189	-0.43	1.6954	-2.6248	-1.6329	0.3561	1.2589
0.9579	1.8359	9.7156	-0.4069	1.2121	0.566	0.6724	-0.1861	-0.4083	0.3014	1.7534	9.4939	-0.7048	0.1656	-0.0292	-0.1167	-1.2976	-0.4323	9.7267	-1.2176	0.041	-0.8834	1.7881	-2.3665	-1.6335	0.3599	1.2223
0.7833	1.5485	9.5933	-0.3969	1.4572	0.7807	0.6544	-0.1741	-0.4083	0.7658	1.4092	9.6215	-1.2867	0.3289	0.0036	-0.1166	-1.3145	-0.4851	9.5519	-1.7918	-0.1979	-1.0607	1.8184	-2.0846	-1.5987	0.3265	1.2083
0.7318	1.2618	9.887	-0.4296	1.5498	0.66	0.6664	-0.1981	-0.4143	0.2343	1.7527	9.0173	-1.3809	0.2083	-0.1222	-0.1596	-1.3132	-0.4855	9.4838	-1.2773	-0.7224	-1.4745	1.6637	-1.5876	-1.5988	0.3948	1.2191
0.9073	1.6644	10.0687	-0.3591	1.6702	0.903	0.6724	-0.1861	-0.4143	0.5312	1.5811	9.4389	-2.4192	-0.8213	0.6606	-0.1313	-1.2788	-0.4153	9.3791	-1.3902	-0.2583	-1.5505	1.5384	-0.9731	-1.6514	0.3288	1.1891
1.2941	1.5466	9.1897	-0.2005	1.8168	0.961	0.6724	-0.1861	-0.4203	0.9975	1.466	9.6858	-0.4233	-1.1007	0.5973	-0.1172	-1.2777	-0.451	9.6066	-1.0463	-0.2525	-1.7873	1.4149	-0.7253	-1.5997	0.3499	1.1514
0.8368	1.9504	9.4181	-0.232	1.879	0.9011	0.6604	-0.1861	-0.4143	0.47	1.5809	9.2594	-0.2375	-1.0424	0.5987	-0.1443	-1.3528	-0.466	9.4945	-1.5622	-0.1983	-2.0552	1.476	-0.3792	-1.6158	0.3072	1.2282
0.7229	1.8358	9.4747	-0.6283	2.2319	0.8823	0.6484	-0.1981	-0.4263	0.6501	1.5812	9.6195	-0.2731	-1.3476	0.3152	-0.1158	-1.3529	-0.4836	9.8979	-1.2752	0.0442	-1.9061	1.8453	-0.2791	-1.6157	0.3403	1.2428
0.7856	1.4913	9.7114	-0.3228	2.1881	0.7831	0.6724	-0.1921	-0.4203	0.9415	1.7525	9.804	-1.9077	-1.4741	0.4954	-0.1593	-1.3317	-0.5026	9.4907	-1.276	-0.3723	-1.8554	2.1236	-0.5496	-1.6331	0.3404	1.2425
0.6655	1.7209	9.4733	-0.1495	1.874	0.533	0.6724	-0.1921	-0.4083	0.2473	1.7539	9.6709	0.9361	-0.9375	0.1084	-0.1451	-1.3144	-0.4675	9.7206	-1.7351	-0.311	-1.6346	2.2757	-0.1181	-1.6514	0.3795	1.2018
1.0709	1.8355	9.5996	0.0165	1.2846	0.19	0.6664	-0.1621	-0.4143	0.8787	1.9239	9.5655	0.1993	-0.6528	1.0697	-0.1451	-1.3144	-0.4675	10.0666	-1.2185	-0.0689	-1.3979	2.4915	-0.3016	-1.6165	0.3286	1.1897
0.7205	1.893	9.3566	-0.0112	0.7325	-0.4836	0.6664	-0.1861	-0.4203	0.5846	1.8667	9.2624	1.9043	0.0533	1.4867	-0.159	-1.3332	-0.4669	9.4937	-1.046	-0.1964	-1.4373	2.8621	-0.4444	-1.6159	0.3247	1.2263
1.0196	1.4338	9.8931	0.0459	0.0231	-1.3432	0.6664	-0.1681	-0.4023	0.772	1.2953	9.9184	8.5376	2.1515	8.5158	-0.1021	-1.3165	-0.4493	9.6054	-0.9892	-0.3106	-1.0071	2.7375	-0.3949	-1.616	0.3423	1.2244
0.8349	1.7777	9.2995	0.7366	-1.02	-2.5558	0.6784	-0.1801	-0.4203	0.5266	1.5234	9.2011	12.6436	4.3548	8.2225	-0.1591	-1.3324	-0.4847	9.6016	-1.5063	-0.5459	-0.9887	2.8623	-0.8541	-1.5984	0.3246	1.2266
0.6676	1.7787	9.5916	0.8885	-1.7025	-3.3565	0.6544	-0.1741	-0.4203	0.8145	2.1523	9.2677	9.2204	5.5208	7.6814	-0.1303	-1.3348	-0.4488	9.5567	-1.2171	0.0959	-0.8926	2.5538	-0.8648	-1.6505	0.323	1.244
0.8965	2.0656	9.5377	0.3074	-1.6774	-3.1592	0.6664	-0.1741	-0.4143	1.052	1.7518	9.5687	5.4672	5.4058	6.4374	-0.1446	-1.3344	-0.4489	9.7727	-1.5066	-0.5425	-1.1306	2.1537	-0.8715	-1.599	0.3792	1.2027
1.0162	1.4909	9.7159	-0.3473	-1.3108	-2.4701	0.6784	-0.1681	-0.4083	0.6449	1.7524	9.3822	3.0622	4.9909	5.3448	-0.116	-1.3352	-0.4487	9.4916	-1.1611	-0.3135	-0.9724	1.6295	-0.9821	-1.6324	0.319	1.281
0.7839	1.8361	9.6531	-0.4685	-0.5381	-1.7305	0.6664	-0.1981	-0.4323	0.3037	1.2957	9.5524	2.0914	3.8772	3.9952	-0.1307	-1.3156	-0.4495	9.4325	-1.2762	-0.4318	-0.4189	1.5044	-0.8734	-1.5814	0.3616	1.2048
0.9544	1.2604	9.4778	-0.0037	0.149	-0.9752	0.6664	-0.1861	-0.4083	0.9924	1.58	9.4484	0.1345	2.7786	3.0457	-0.1452	-1.3137	-0.4854	9.5535	-1.3325	-0.0796	-0.44	1.4723	-0.4732	-1.6162	0.3774	1.2207
0.9505	1.605	9.3013	0.3896	0.1619	-1.2898	0.6604	-0.1861	-0.4263	0.4759	2.0966	9.617	0.4311	1.9801	1.9201	-0.1584	-1.3539	-0.4304	9.6622	-1.5631	-0.3699	-0.3579	1.5966	-0.8104	-1.6862	0.2939	1.1922
1.0179	1.7786	9.8348	0.6668	-0.8048	-2.9799	0.6724	-0.1801	-0.4263	0.594	1.4097	9.6774	-0.2843	1.5031	1.447	-0.1598	-1.2956	-0.4505	9.4302	-1.2766	-0.5485	-0.1109	1.7185	-0.596	-1.6167	0.313	1.1732
0.7828	1.836	9.594	0.9714	-1.3414	-3.9361	0.6664	-0.1681	-0.4383	0.8753	1.8663	9.3871	1.566	1.5062	0.5238	-0.1164	-1.316	-0.4494	9.6112	-1.7915	-0.0801	0.4249	1.7807	-1.1598	-1.6157	0.3403	1.2428
0.8942	2.0653	9.4195	0.0006	-1.7956	-5.2573	0.6604	-0.1801	-0.4143	0.426	1.3534	9.9114	0.6766	1.645	0.3394	-0.1301	-1.3525	-0.4837	9.8948	-1.5053	-0.1317	0.9288	2.3046	-1.4632	-1.5642	0.3458	1.1887
0.672	1.8367	9.8282	-0.2092	-2.3092	-5.8348	0.6664	-0.1921	-0.4143	0.7657	1.4664	9.6216	2.4695	1.9241	-0.2702	-0.1304	-1.334	-0.4666	9.8989	-1.9062	0.0419	2.0861	3.0449	-2.4208	-1.5981	0.3227	1.2449
0.7899	1.6068	9.9481	0.0404	-2.3497	-5.719	0.6664	-0.1921	-0.4323	0.873	2.324	9.3286	2.4442	2.1711	-0.4821	-0.1733	-1.3328	-0.467	9.7738	-1.449	-0.4839	3.1504	3.7548	-3.4699	-1.5994	0.348	1.1698
0.7842	1.6636	9.6527	1.5316	-2.5021	-5.3291	0.6664	-0.1921	-0.4143	0.7672	1.81	9.7412	1.4572	1.9751	-0.9814	-0.188	-1.3139	-0.45	10.575	-1.7367	-0.3522	4.3407	4.5561	-4.2723	-1.686	0.3602	1.2214
1.0789	1.7789	10.0132	3.1545	-2.755	-5.7056	0.6604	-0.1801	-0.4263	0.4681	1.8669	9.2006	1.2148	2.1038	-1.3811	-0.1721	-1.3903	-0.4647	10.5782	-1.6213	-0.1767	5.3649	4.7708	-4.7182	-1.6169	0.3481	1.1695
1.0689	1.7202	9.4812	4.1917	-2.6125	-5.1504	0.6724	-0.1801	-0.4083	0.3597	1.9823	9.5549	-0.7854	2.1079	-1.5698	-0.116	-1.3352	-0.4487	10.5229	-1.2192	-0.0597	5.9827	5.1111	-5.5223	-1.5812	0.3265	1.2086
0.4374	1.6066	9.5867	4.5632	-2.7499	-5.0382	0.6844	-0.1801	-0.4263	0.2959	1.5812	9.1964	-1.958	1.9441	-1.6674	-0.1727	-1.3535	-0.4305	10.4642	-1.6211	-0.179	6.2135	5.0818	-6.1443	-1.616	0.3423	1.2244
1.073	1.9507	9.7181	3.8131	-3.2385	-5.0533	0.6664	-0.1741	-0.4263	0.4154	1.2951	9.3765	-2.6447	1.3442	-2.2352	-0.1163	-1.3168	-0.4316	10.5203	-1.0476	-0.1758	6.0533	4.9604	-6.5761	-1.6514	0.3795	1.2018
1.2367	2.0643	9.2489	3.7344	-3.3552	-4.4724	0.6664	-0.1801	-0.4263	0.4209	1.9825	9.7344	-2.8019	1.0429	-2.9512	-0.1318	-1.2757	-0.4868	10.3444	-0.876	-0.412	5.3548	4.0697	-7.05	-1.5987	0.2758	1.1955
1.0153	1.9508	9.717	2.5329	-2.9034	-3.495	0.6664	-0.1681	-0.3903	0.5397	1.5247	9.8547	-4.596	0.6424	-2.6835	-0.1726	-1.3542	-0.4126	10.1111	-1.2209	-0.7096	4.4028	3.4578	-7.7574	-1.6512	0.3444	1.2055
1.0704	2.1229	9.6003	1.2121	-1.8663	-2.7247	0.6664	-0.1981	-0.4083	0.4212	1.3529	9.6737	-3.9812	0.5411	-2.9622	-0.1454	-1.296	-0.4504	9.7162	-1.1047	-0.4838	3.8958	3.0006	-8.9317	-1.5983	0.3578	1.2412
1.1779	1.4317	9.1281	-0.1308	-0.5525	-1.7998	0.6724	-0.1621	-0.4203	0.5927	1.982	9.6785	-3.033	0.278	-2.6564	-0.1441	-1.3543	-0.4303	9.9284	-1.108	-1.2962	3.2975	2.8512	-9.8797	-1.5985	0.3422	1.2247
0.6638	2.0082	9.4149	-0.5211	0.2938	-0.7788	0.6664	-0.1921	-0.4203	0.4903	1.5256	10.2694	-3.9175	-0.8443	-2.3382	-0.145	-1.3152	-0.4496	9.5363	-1.3356	-0.9549	2.8218	2.7936	-10.7349	-1.5803	0.3207	1.2635
1.017	1.6635	9.7754	-0.5479	-0.3497	-1.3615	0.6664	-0.1681	-0.4143	1.1147	1.6376	9.8074	-2.6108	-1.6066	-1.6083	-0.1303	-1.3348	-0.4488	9.4826	-1.2201	-0.7806	2.4839	3.0456	-12.0466	-1.668	0.3231	1.2438
1.0683	2.0652	9.482	-0.2027	-1.4967	-1.59	0.6604	-0.1861	-0.4263	0.5328	1.9247	9.5584	-1.0345	-1.3553	-2.0335	-0.1309	-1.3141	-0.4853	10.1663	-0.8197	-0.7654	2.6819	3.4827	-13.826	-1.5983	0.3578	1.2412
0.7229	1.8358	9.4747	-1.4211	-2.0886	-1.7163	0.6484	-0.1861	-0.4083	0.4208	1.5246	9.674	-1.4956	-1.3169	-2.0027	-0.1301	-1.3525	-0.4837	9.2562	-0.8752	-0.6672	3.7615	3.9796	-15.7139	-1.6162	0.3266	1.208
0.9081	1.837	10.1282	-2.0976	-2.2735	-1.4874	0.6484	-0.1801	-0.4203	0.4752	1.4096	9.4967	1.1999	-0.3508	-1.7028	-0.159	-1.3332	-0.4669	9.6595	-1.2767	-0.4856	5.339	4.2585	-17.3097	-1.6155	0.2545	1.2338
0.7795	1.7781	9.4166	-2.0628	-2.0913	-1.4567	0.6544	-0.1861	-0.4263	0.6494	1.8673	9.6201	0.5044	0.3658	-1.3824	-0.1437	-1.3728	-0.4473	9.7655	-1.2784	-0.8918	6.9757	4.6606	-18.9032	-1.6328	0.2878	1.2481
1.2409	1.6048	9.4251	-1.9481	-2.4635	-1.5531	0.6604	-0.1801	-0.4203	0.7643	1.5235	9.5623	1.133	1.0608	-1.2763	-0.1304	-1.334	-0.4666	10.1136	-1.3926	-0.5936	9.3111	5.2459	-20.5055	-1.616	0.3423	1.2244
1.1295	1.3179	9.5995	-1.3791	-2.6119	-2.1169	0.6724	-0.1801	-0.4143	0.6446	1.4089	9.322	0.7307	0.975	-1.155	-0.159	-1.3332	-0.4669	9.7731	-0.9901	-0.4822	11.7047	5.7392	-22.2965	-1.6162	0.3266	1.208
0.5582	1.6646	9.8846	-0.3453	-2.9626	-2.5101	0.6544	-0.1741	-0.4383	0.4208	1.5246	9.674	0.5166	1.0402	-1.1851	-0.1442	-1.3536	-0.4481	10.1735	-1.0479	-0.4161	13.3844	6.2976	-24.5955	-1.5808	0.307	1.2287
0.9639	1.6067	10.0106	1.2907	-3.6762	-3.2557	0.6544	-0.1741	-0.4263	0.6502	2.0391	9.6798	-0.0385	1.0483	-0.877	-0.1451	-1.3144	-0.4675	10.0642	-1.1616	-0.1854	16.1364	6.9757	-26.6043	-1.5992	0.3129	1.1735
1.0706	1.3754	9.5394	4.4248	-4.1755	-3.5788	0.6544	-0.1741	-0.4083	0.2965	1.8102	9.2563	-0.5969	0.8424	-0.7581	-0.1448	-1.3167	-0.4139	10.169	-1.0487	-0.6495	17.5809	7.6257	-28.4336	-1.5985	0.2914	1.212
1.1883	1.893	9.7202	6.2166	-4.804	-4.3276	0.6544	-0.1921	-0.4323	0.5436	1.8685	10.0931	-0.6902	0.7528	-0.9761	-0.1022	-1.3157	-0.4672	9.9445	-1.2198	-0.4796	19.2138	8.4589	-29.8915	-1.5812	0.2757	1.1958
1.4142	2.007	9.4886	7.7395	-5.8257	-6.7499	0.6424	-0.1921	-0.4203	0.4149	1.524	9.3769	-0.3197	0.808	-1.0053	-0.145	-1.299	-0.379	9.4866	-1.6211	-0.607	20.4698	8.9825	-30.6724	-1.564	0.26	1.1797
1.5221	1.7184	9.0764	6.9792	-6.7963	-12.4718	0.6724	-0.1741	-0.4083	0.5957	1.6961	9.7968	-1.2501	0.4853	-0.7965	-0.1586	-1.3524	-0.4661	9.6018	-0.8751	-0.4853	21.6612	9.9373	-31.3164	-1.6504	0.2547	1.2332
1.6962	2.2933	9.1994	5.6228	-6.9456	-17.8998	0.6664	-0.1981	-0.4263	0.8211	1.4088	9.5039	-0.9776	0.2052	-1.0172	-0.1444	-1.3359	-0.4132	9.5421	-1.3919	-0.6633	21.5385	10.6759	-30.8304	-1.5982	0.2895	1.2303
4.1692	3.9559	9.1335	-5.9125	-2.0902	-17.8964	0.6544	-0.1681	-0.4143	0.4219	1.5819	9.7336	-1.4128	-0.0926	-1.4248	-0.1152	-1.3728	-0.465	9.3705	-1.0474	-0.6655	22.8834	10.8827	-29.1865	-1.5983	0.2563	1.2157
0.7596	2.2356	8.4129	-3.9998	-3.4443	-22.8006	0.6664	-0.1861	-0.4083	0.0789	1.3541	9.8448	-1.5085	-0.3051	-1.6141	-0.13	-1.3532	-0.4659	9.5384	-1.2204	-0.8378	21.7323	11.0074	-28.7283	-1.6157	0.2389	1.2173
0.3619	2.1796	8.7004	-6.4157	-3.0043	-22.1597	0.6544	-0.1801	-0.4203	-0.0344	1.9842	10.022	-2.0792	-1.1555	-1.5067	-0.1309	-1.3141	-0.4853	9.3661	-1.163	-0.8994	21.2193	10.4188	-27.5017	-1.6164	0.2603	1.1788
-0.3144	2.4127	9.515	-9.3826	-2.5128	-14.6116	0.6544	-0.1801	-0.4203	0.2558	1.6975	10.0868	-2.5736	-2.8365	-1.3522	-0.1023	-1.315	-0.485	9.3077	-0.991	-0.9582	21.4164	9.4273	-26.1774	-1.5633	0.2386	1.2182
0.6009	2.4677	9.1785	-8.4518	-2.0986	-1.2098	0.6544	-0.1501	-0.4263	0.4223	1.4103	9.7332	-1.6977	-3.6513	-0.9638	-0.1308	-1.3149	-0.4674	9.5879	-0.7629	-1.1851	21.6019	8.4376	-25.377	-1.6343	0.2799	1.1583
1.4037	2.1783	8.9571	-11.4506	-0.3525	-1.2183	0.6424	-0.1801	-0.4323	0.9366	1.8093	9.5665	-3.3842	-4.9722	-1.2682	-0.1442	-1.3536	-0.4481	9.315	-1.2766	-0.6091	22.0223	7.3826	-23.6582	-1.5986	0.2583	1.1974
0.9586	2.0661	9.7753	-12.0933	0.0764	-0.1325	0.6604	-0.1681	-0.4323	0.5439	1.2389	10.0324	-4.4351	-6.8267	-1.3958	-0.1742	-1.2944	-0.4685	9.3703	-0.9327	-0.6651	22.779	6.265	-21.948	-1.5981	0.2212	1.2195
1.3006	1.6624	9.5446	-12.8439	1.0308	1.203	0.6484	-0.1681	-0.4263	0.659	1.353	10.035	-1.2517	-7.6816	-0.8187	-0.1304	-1.334	-0.4666	9.3674	-1.2775	-0.8414	21.5561	4.6029	-21.8477	-1.6328	0.2371	1.2353
0.9511	1.8926	9.3611	-13.2097	1.2604	1.2437	0.6544	-0.1801	-0.4203	0.7707	1.3524	9.8591	-2.9177	-9.3152	0.1067	-0.1449	-1.3321	-0.5025	9.2619	-0.8741	-0.3754	25.6504	4.1918	-21.8488	-1.6335	0.2409	1.1987
0.786	1.8939	9.7715	-13.3404	0.9338	2.3127	0.6664	-0.1561	-0.4323	1.3041	1.2381	10.5826	-5.9955	-10.7999	0.569	-0.1713	-1.4118	-0.4103	9.4329	-0.817	-0.3718	27.4644	3.9698	-21.3673	-1.5985	0.2407	1.1993
0.8584	1.8381	10.5408	-15.4411	1.4531	3.1295	0.6604	-0.1621	-0.4383	0.9606	1.2392	10.6943	-1.8823	-11.2129	1.7733	-0.1444	-1.3359	-0.4132	9.8406	-0.4145	0.1045	29.1844	2.9133	-20.1987	-1.5632	0.221	1.22
0.795	1.2624	10.1837	-9.5972	1.3416	5.6103	0.6484	-0.1741	-0.4263	0.3263	1.2979	10.6814	-3.471	-13.6457	2.6229	-0.1298	-1.354	-0.448	9.716	-0.2441	-0.4223	32.4667	1.8258	-20.1413	-1.5635	0.223	1.2017
1.0144	1.8357	9.6576	-7.8652	1.854	6.4863	0.6484	-0.1621	-0.4143	1.168	-0.2462	12.2398	-14.4646	-25.0047	3.0497	-0.129	-1.3924	-0.4465	9.4463	-0.5851	0.3293	34.3022	0.7392	-19.2842	-1.6156	0.2213	1.2192
1.4201	1.8353	9.7837	-8.745	3.7022	8.1963	0.6604	-0.1681	-0.4203	1.291	0.4984	12.719	26.0849	-33.5997	6.2716	-0.1883	-1.2955	-0.4329	9.8914	-0.0714	-0.1849	34.9426	-0.0005	-19.8113	-1.6324	0.2176	1.2555
0.9011	1.3761	9.7134	-7.7377	5.2235	9.0653	0.6724	-0.1741	-0.4143	0.9239	0.8979	11.7026	50.2459	-31.3706	-0.9046	-0.173	-1.335	-0.4134	9.7882	-0.4135	0.3368	35.2087	-0.8043	-19.3772	-1.6501	0.2021	1.2388
1.4156	1.2021	9.4866	-7.7255	5.9921	10.1677	0.6484	-0.1621	-0.4263	2.9204	1.8184	16.5566	-5.7615	-32.7732	-9.8601	-0.1575	-1.3923	-0.4288	9.7298	0.447	0.3388	35.0041	-1.082	-19.1652	-1.6321	0.2156	1.2738
0.728	1.4914	9.7103	-8.9964	7.3655	11.4268	0.6604	-0.1561	-0.4083	0.8577	2.4543	17.2282	49.1103	-43.8113	-16.4472	-0.1449	-1.316	-0.4318	10.0095	0.2734	0.0521	32.4625	-1.171	-18.2846	-1.615	0.2175	1.2558
0.7882	1.3191	9.8292	-9.5994	7.2357	10.9221	0.6544	-0.1621	-0.4263	0.1236	0.5113	17.7436	72.123	-63.4686	-27.3819	-0.158	-1.3731	-0.4296	10.2855	0.2713	-0.409	31.9966	0.3125	-19.0036	-1.5795	0.231	1.2912
0.7829	1.7785	9.5939	-8.5255	5.9603	9.1802	0.6604	-0.1621	-0.4203	2.9675	0.2717	15.8417	87.5001	-77.3778	-23.8972	-0.1586	-1.3362	-0.3954	10.0685	0.5032	0.1708	28.8931	2.0461	-18.7996	-1.6323	0.2	1.2574
0.7357	0.9748	10.0637	-7.7309	5.7733	8.9767	0.6664	-0.1741	-0.4263	1.2025	-0.5233	16.8134	65.678	-95.8306	-23.029	-0.1584	-1.3539	-0.4304	10.0661	-0.1858	-0.0068	25.3191	4.7624	-17.1091	-1.6163	0.2428	1.1807
1.2419	1.6624	9.4844	-7.1473	5.4998	7.8932	0.6484	-0.1561	-0.4263	1.4902	0.6781	16.9406	91.8046	-111.497	-24.7763	-0.2009	-1.3718	-0.4299	10.4737	-0.4144	0.4089	20.1185	6.6184	-15.0716	-1.5982	0.1881	1.2049
1.0777	1.2037	9.8936	-6.5556	5.4102	6.9936	0.6664	-0.1501	-0.4323	1.2223	0.3888	15.0338	103.3134	-122.4969	-25.6319	-0.1863	-1.3745	-0.3762	10.1295	-0.5864	0.2847	18.043	8.1262	-12.675	-1.5972	0.1647	1.2617
1.2478	1.4906	9.7795	-5.7103	4.1776	5.8982	0.6604	-0.1741	-0.4203	1.009	0.1048	15.8603	96.6981	-127.6333	-25.8895	-0.2144	-1.3936	-0.3578	9.5013	-0.7577	0.2131	15.354	8.0935	-10.1252	-1.5274	0.1819	1.261
0.8956	1.3179	9.4177	-4.6312	2.5672	4.5509	0.6664	-0.1561	-0.4263	1.216	0.0447	14.6766	154.4991	-118.8248	-25.8479	-0.2298	-1.3533	-0.3952	9.0543	-0.8127	0.6706	12.1535	6.8047	-9.5123	-1.5978	0.2193	1.2378
1.0803	1.6066	10.0719	-4.6079	1.8283	3.6003	0.6784	-0.1621	-0.4143	0.6771	-0.0133	13.6556	170.2869	-97.3423	-21.9782	-0.2146	-1.3759	-0.3229	8.8879	-0.9263	0.9002	10.5844	4.8068	-10.1236	-1.615	0.1668	1.2431
0.7866	0.9738	9.7102	-3.4277	1.2568	3.0497	0.6604	-0.1561	-0.4263	2.0791	-0.0205	11.7245	218.446	-80.9429	-21.2311	-0.2427	-1.395	-0.3045	8.4896	-0.7534	0.9512	10.622	3.8782	-9.072	-1.5631	0.1528	1.2092
0.7408	1.2629	10.3599	-2.5245	1.2766	2.1737	0.6664	-0.1621	-0.4083	-1.5721	0.3812	7.8487	235.5854	-62.4816	-19.9145	-0.2707	-1.4149	-0.2682	8.7238	-0.9821	1.2467	10.2991	3.2051	-10.3486	-1.5632	0.221	1.22
0.8388	1.4906	9.4761	-1.3904	0.9839	2.0224	0.6664	-0.1561	-0.4203	-13.1893	1.8257	0.5443	237.2343	-53.3898	22.6868	-0.2278	-1.4154	-0.2858	9.0061	-0.6388	1.137	9.1451	3.8838	-9.628	-1.5973	0.1823	1.2598
