1818_acc_x	1818_acc_y	1818_acc_z	1818_gyro_x	1818_gyro_y	1818_gyro_z	1818_mag_x	1818_mag_y	1818_mag_z	1819_acc_x	1819_acc_y	1819_acc_z	1819_gyro_x	1819_gyro_y	1819_gyro_z	1819_mag_x	1819_mag_y	1819_mag_z	1820_acc_x	1820_acc_y	1820_acc_z	1820_gyro_x	1820_gyro_y	1820_gyro_z	1820_mag_x	1820_mag_y	1820_mag_z
0.6712	1.6641	9.7687	0.2181	-0.8449	-2.4201	0.018	0.1081	-0.3062	0.8819	1.5807	9.6837	-0.2874	1.1694	0.5145	1.262	-0.2741	-0.6956	9.8329	-0.588	-0.3046	0.7548	0.2382	-1.118	-1.5634	0.3069	1.229
0.6193	0.9749	10.0023	0.8913	-1.4887	-3.3859	0.6844	-0.1861	-0.3903	0.7092	1.9819	9.7403	0.4827	1.2472	0.7952	-0.1741	-1.279	-0.38	9.7763	-0.8747	-0.3068	1.368	0.1132	-1.0722	-1.6154	0.3384	1.2611
0.4919	1.4911	9.4103	0.9785	-1.8592	-3.3596	0.6604	-0.2041	-0.4023	0.821	1.924	9.5643	0.4875	1.4628	0.6138	-0.1608	-1.2395	-0.4171	9.721	-0.4727	-0.1897	1.7991	-0.1653	-1.0887	-1.581	0.2913	1.2123
0.7342	1.7797	10.0656	0.0524	-1.851	-3.3371	0.6724	-0.1981	-0.3963	1.043	2.0371	9.1534	0.2711	1.4054	0.5506	-0.1463	-1.2415	-0.3813	9.7304	-1.389	0.2154	2.0442	-0.2891	-1.128	-1.5806	0.3226	1.2452
0.779	1.433	9.3566	0.3301	-2.1067	-3.1928	0.6664	-0.2041	-0.4143	0.8771	1.5803	9.446	0.0272	1.5023	0.3975	-0.1601	-1.2772	-0.4334	9.6049	-1.3909	-0.3704	2.1931	-0.3197	-1.3168	-1.598	0.3559	1.2595
0.7263	1.8362	9.652	0.553	-2.298	-2.8332	0.6784	-0.1801	-0.4083	0.9966	1.3514	9.6262	0.639	1.3975	0.9217	-0.1747	-1.2583	-0.4165	9.7269	-0.5864	0.1016	2.042	-0.6886	-1.5093	-1.5974	0.3013	1.2834
1.3575	1.4897	9.4862	0.5177	-1.7739	-2.1887	0.6604	-0.1981	-0.4023	0.6537	1.5815	9.7978	0.1766	1.3444	0.8273	-0.1764	-1.1816	-0.4195	9.9471	-0.6455	-0.3025	2.4321	-0.8116	-1.8905	-1.6154	0.2877	1.2484
0.672	1.2042	9.7676	0.5006	-1.4051	-1.9116	0.6844	-0.1921	-0.4083	0.4742	1.8103	9.4976	0.4811	1.1853	0.9176	-0.1462	-1.2422	-0.3634	9.3737	-0.8747	-0.4898	2.1599	-0.9651	-1.8894	-1.5978	0.3208	1.2632
0.719	2.1228	9.2981	0.9807	-1.148	-1.4642	0.6664	-0.1981	-0.4143	0.7078	1.0658	9.5602	0.3198	0.8191	1.0344	-0.1894	-1.2556	-0.4702	9.7733	-1.1048	-0.4827	1.9132	-0.8718	-1.9435	-1.581	0.2913	1.2123
0.7832	1.606	9.5935	1.0586	-0.5387	-1.2491	0.6904	-0.2041	-0.4023	0.7101	1.5812	9.7395	0.7505	0.7816	0.9109	-0.1595	-1.2971	-0.4148	9.374	-1.1042	-0.4907	2.0163	-1.0584	-1.5501	-1.616	0.2915	1.2117
0.72	1.5479	9.2967	0.6687	-1.044	-1.6391	0.6724	-0.2041	-0.4023	0.8295	1.3524	9.9197	1.112	0.4061	1.121	-0.1604	-1.2587	-0.4163	9.3755	-1.3334	-0.4331	1.8021	-1.15	-1.6409	-1.6159	0.3247	1.2263
1.0674	1.95	9.4226	0.8651	-1.5127	-2.0736	0.6724	-0.2041	-0.4083	0.7151	1.9824	10.0374	0.5856	0.2612	1.2102	-0.203	-1.2759	-0.4338	9.945	-0.7607	-0.4196	1.7434	-1.3963	-1.7085	-1.633	0.2722	1.2316
1.136	1.4337	9.9544	0.588	-2.0548	-2.8327	0.6604	-0.1921	-0.4143	1.3467	1.0648	9.811	0.7701	0.2579	1.2413	-0.1456	-1.2783	-0.4155	9.7752	-0.8749	-0.3651	1.7138	-1.3656	-1.6453	-1.5981	0.272	1.2322
0.8415	1.836	9.6543	0.2437	-2.8694	-3.6221	0.6664	-0.2101	-0.3963	1.0457	1.9229	9.272	1.0218	0.4402	0.6891	-0.1756	-1.2199	-0.418	9.7809	-0.8739	-0.0733	1.7737	-1.5194	-1.805	-1.5623	0.3343	1.2986
0.737	1.4925	10.1831	0.4452	-4.3185	-4.398	0.6784	-0.1921	-0.4203	0.8816	1.6952	9.6839	1.0247	0.6836	1.1876	-0.1889	-1.2586	-0.3987	9.7706	-0.8758	-0.5985	2.1524	-1.1485	-2.3569	-1.546	0.3243	1.2275
0.4346	1.8938	9.4692	0.591	-5.7995	-6.0573	0.6784	-0.1861	-0.4143	1.22	1.8653	9.3348	2.6384	1.3323	1.0167	-0.1599	-1.2787	-0.3977	10.175	-1.2771	-0.3586	2.3049	-0.5598	-3.3295	-1.5455	0.338	1.2622
0.7269	1.4913	9.6512	-0.5018	-8.236	-7.2345	0.6724	-0.2041	-0.4083	0.9423	1.4091	9.8033	1.2562	1.509	1.1101	-0.1599	-1.2948	-0.4684	9.8785	-0.5902	-0.887	2.1977	-0.0035	-3.6506	-1.6158	0.3072	1.2282
0.8428	1.1461	9.6526	-0.144	-9.9659	-7.7717	0.6664	-0.1921	-0.4143	0.8803	1.7523	9.6246	2.6153	1.732	0.9929	-0.1608	-1.2395	-0.4171	10.0597	-1.1624	-0.4188	2.0372	0.3057	-3.7927	-1.5797	0.2661	1.2874
1.3026	1.8352	9.6632	0.2424	-10.8431	-8.9148	0.6784	-0.1861	-0.4083	0.351	2.1532	9.1394	1.6287	1.6866	1.1757	-0.1605	-1.258	-0.4342	9.83	-0.9328	-0.4809	1.2961	0.6473	-3.9531	-1.5809	0.3245	1.2269
1.6412	1.4311	9.2553	0.2807	-9.4144	-10.6463	0.6664	-0.1981	-0.4143	0.8238	1.7525	9.6828	2.37	1.8272	1.2412	-0.1611	-1.2211	-0.4	10.2908	-0.8753	-0.2381	0.1385	0.2808	-4.1254	-1.5978	0.3208	1.2632
1.593	1.2024	9.7264	-2.6347	-8.7382	-17.0993	0.6784	-0.1921	-0.4143	0.708	1.9817	9.6809	2.5279	1.9793	0.9354	-0.1467	-1.2223	-0.382	9.7206	-0.9892	-0.25	-1.1438	-0.1772	-4.4827	-1.5454	0.3205	1.2641
0.7803	1.9507	9.4761	-2.035	-8.949	-17.6336	0.6724	-0.1981	-0.4203	0.822	1.5234	9.5635	2.529	2.0107	0.7815	-0.1607	-1.2403	-0.3993	9.9428	-0.8185	-0.5365	-2.2722	-0.7281	-4.8458	-1.5984	0.2739	1.2139
1.0121	1.8929	9.5396	-1.0588	-6.3706	-12.9145	0.6544	-0.1861	-0.4203	0.6495	1.3521	9.5596	2.5972	2.3475	0.7259	-0.1605	-1.258	-0.4342	9.6018	-0.8751	-0.4853	-3.1768	-1.0658	-4.5907	-1.5627	0.303	1.2657
0.6664	1.836	9.5327	-1.8781	-4.9594	-5.3519	0.6724	-0.1981	-0.4203	0.8817	2.1531	9.7442	1.9508	2.3283	0.6009	-0.1603	-1.2595	-0.3985	10.1096	-1.049	-0.7674	-4.1571	-1.0935	-4.7877	-1.6333	0.3248	1.226
1.3007	1.6049	9.5445	-2.7963	-4.7487	-0.661	0.6544	-0.1921	-0.4203	0.3626	1.7537	9.6733	1.5139	1.9684	0.3466	-0.1748	-1.2575	-0.4343	9.6543	-0.876	-0.7175	-4.6544	-1.1524	-5.2418	-1.5979	0.2876	1.2486
1.1801	1.4895	9.2464	-3.0012	-2.1149	-1.8611	0.6724	-0.1801	-0.4143	0.1241	1.5817	9.2523	0.9434	1.0882	0.2372	-0.1452	-1.2975	-0.4147	9.8229	-0.762	-0.8304	-5.1288	-0.8411	-5.7783	-1.6331	0.2897	1.2297
1.4833	1.2033	10.0197	-0.7523	1.1812	-2.995	0.6724	-0.1981	-0.4083	0.5942	2.3256	9.7981	-0.0506	0.6141	0.1962	-0.1748	-1.2575	-0.4343	10.0577	-0.6464	-0.4753	-5.1743	-0.1928	-6.0055	-1.562	0.2816	1.3042
1.0146	1.7207	9.6573	0.8097	4.5142	-2.1596	0.6544	-0.1861	-0.4203	0.9966	1.8094	9.6865	-0.3027	0.2812	0.0663	-0.1463	-1.2415	-0.3813	9.6602	-0.9897	-0.4262	-5.14	0.3295	-5.4673	-1.5982	0.3402	1.2431
1.2995	1.6623	9.4855	2.1797	7.4927	-0.2234	0.6664	-0.2041	-0.4203	0.8226	1.2945	9.5631	-0.268	0.4353	-0.2089	-0.1319	-1.2588	-0.434	9.6056	-1.1039	-0.311	-4.8947	0.9746	-4.9605	-1.5456	0.3048	1.2477
0.7846	2.0662	9.7128	-3.1097	5.2856	4.2854	0.6724	-0.1921	-0.4143	0.938	2.2101	9.6861	0.1014	0.4892	0.0707	-0.1745	-1.276	-0.4514	9.5489	-0.5874	-0.2519	-4.4029	1.4034	-4.4957	-1.6147	0.2838	1.285
1.3033	1.4327	9.6623	-1.3179	5.7906	3.9702	0.6664	-0.1981	-0.4083	0.7074	2.2107	9.6814	-0.0705	1.1975	0.2683	-0.1465	-1.24	-0.417	9.3279	-0.7578	0.093	-3.8341	1.8035	-4.7115	-1.5634	0.2562	1.2163
0.8963	1.548	9.4774	-0.286	5.0385	2.629	0.6724	-0.1741	-0.4143	0.9894	1.8659	9.3301	1.3613	2.1826	1.1223	-0.1751	-1.2391	-0.4172	9.611	-0.9308	-0.0186	-3.2191	1.832	-4.4763	-1.5807	0.2894	1.2306
0.7278	1.6064	9.7106	-2.3922	3.9052	3.1313	0.6604	-0.1801	-0.4083	1.1119	1.8091	9.6889	2.6083	3.0506	1.387	-0.188	-1.2978	-0.3793	10.069	-1.2755	0.0476	-2.6316	1.7063	-4.2142	-1.6156	0.3228	1.2446
0.7863	1.7214	9.7711	-1.2217	4.039	2.9206	0.6664	-0.2101	-0.3963	0.8783	1.5804	9.5054	1.771	2.7272	1.3798	-0.1758	-1.2184	-0.4537	9.388	-1.2738	0.209	-2.0161	1.4271	-4.1729	-1.5972	0.3169	1.2999
1.1859	1.3752	9.5417	-0.8678	4.8805	2.9168	0.6724	-0.1921	-0.4263	1.2328	1.4659	9.9282	2.0105	2.3551	1.2809	-0.1461	-1.2592	-0.4162	9.0955	-0.9304	-0.1456	-1.8575	1.149	-4.0915	-1.5627	0.303	1.2657
1.3054	1.4905	9.7806	-0.6387	5.1474	3.2178	0.6664	-0.1801	-0.4083	0.6479	1.9816	9.5609	0.8602	1.7306	1.1133	-0.1465	-1.2561	-0.4877	10.0059	-1.047	-0.2445	-1.4559	0.8089	-4.1092	-1.5801	0.2348	1.2545
0.7856	1.4913	9.7114	-0.4188	5.9625	2.8511	0.6784	-0.1921	-0.4143	0.653	1.8676	9.7983	0.2909	0.9419	1.1601	-0.1311	-1.2803	-0.3796	9.4368	-1.1032	-0.1977	-1.3574	0.6538	-3.8999	-1.5804	0.2875	1.2489
1.2435	1.3751	9.5428	0.1469	6.3979	2.9314	0.6664	-0.1981	-0.4083	0.9917	1.8661	9.4489	-0.2436	0.2773	0.7458	-0.1595	-1.2971	-0.4148	9.5558	-1.332	0.0371	-1.2292	0.5602	-3.6893	-1.616	0.2915	1.2117
1.1877	1.6054	9.6604	0.0607	6.433	3.1472	0.6664	-0.1921	-0.4143	0.9394	1.6378	9.685	-0.2476	0.0626	0.711	-0.1314	-1.278	-0.4332	9.8921	-1.2189	-0.2474	-1.1275	0.9275	-2.9719	-1.5625	0.3186	1.2821
0.7223	1.5482	9.4149	0.2653	7.129	3.4208	0.6844	-0.1801	-0.3903	0.7011	1.8666	9.3242	-0.927	-0.1087	0.398	-0.1747	-1.2583	-0.4165	9.4942	-1.3328	-0.1974	-0.7661	0.6459	-2.0007	-1.5973	0.233	1.2726
0.8952	1.5479	9.4183	0.0636	7.2921	3.8537	0.6604	-0.1981	-0.4203	0.705	1.7525	9.5022	-0.7158	-0.3874	0.1154	-0.1752	-1.2384	-0.4351	9.4989	-0.7007	0.0966	-0.4821	0.6437	-1.5749	-1.5985	0.2914	1.212
0.6659	1.4909	9.4727	-0.4857	7.6211	3.8995	0.6724	-0.1921	-0.4143	0.7572	1.5228	9.2058	-1.0198	-0.2277	-0.1294	-0.1465	-1.24	-0.417	9.3805	-0.8735	-0.1397	0.2051	0.332	-1.0735	-1.6157	0.2896	1.23
0.729	1.549	9.7695	-1.4995	6.3478	3.7643	0.6724	-0.1921	-0.4023	1.0597	1.5235	9.9248	-0.7738	-0.2322	-0.0673	-0.1605	-1.258	-0.4342	9.896	-0.8165	-0.0125	0.8283	-0.0099	-0.7258	-1.6157	0.3403	1.2428
0.7791	2.008	9.4171	-1.8242	4.6765	3.0914	0.6604	-0.1861	-0.4023	0.9938	1.9808	9.568	-1.2338	-0.1624	-0.1904	-0.1893	-1.2394	-0.3995	9.6128	-0.5862	0.0993	1.5958	-0.4432	-0.8152	-1.5621	0.2484	1.2896
0.6716	1.4341	9.7681	-2.0691	3.5232	2.7552	0.6844	-0.1981	-0.4083	0.7087	1.6956	9.6803	-1.5094	-0.1561	-0.5613	-0.1743	-1.2775	-0.4157	10.1275	-0.7589	0.1674	2.3863	-0.5985	-1.0512	-1.5798	0.2836	1.2856
1.0123	1.7779	9.5393	-2.1657	2.4542	2.1412	0.6784	-0.1921	-0.4143	0.5894	1.352	9.4396	-1.9088	-0.0884	-0.4373	-0.1603	-1.2595	-0.3985	10.1783	-1.1618	-0.1831	3.0557	-0.5384	-1.0937	-1.6151	0.235	1.2539
0.7834	1.491	9.5932	-2.3569	2.0037	2.2043	0.6844	-0.1921	-0.4083	0.8776	1.8665	9.506	-2.1543	-0.1135	-0.7779	-0.175	-1.2399	-0.3994	10.1821	-1.3906	-0.0089	3.5427	-0.2934	-0.9731	-1.5619	0.2133	1.2933
0.7262	1.8937	9.6521	-2.1235	1.7479	1.8616	0.6724	-0.1861	-0.4143	0.6543	1.8105	9.8576	-2.4033	-0.2626	-0.8119	-0.1607	-1.2403	-0.3993	9.7891	-0.9872	0.3347	3.9035	0.1987	-0.8738	-1.5807	0.2894	1.2306
1.0635	1.6045	9.1854	-1.9144	1.6771	1.6425	0.6844	-0.1921	-0.4143	1.1033	1.9227	9.2732	-2.6208	-0.3214	-0.5662	-0.1614	-1.2196	-0.4357	9.7219	-1.0463	-0.1918	3.9278	0.5686	-0.8946	-1.563	0.2367	1.2365
0.7809	1.6057	9.4753	-1.8525	1.7356	1.6109	0.6784	-0.1981	-0.3843	1.1709	1.7518	9.7494	-2.2235	-0.5114	-0.7851	-0.1316	-1.2603	-0.3983	9.7792	-1.2185	-0.1913	3.9257	0.5689	-0.987	-1.6156	0.2721	1.2319
0.5529	1.4914	9.5887	-1.3347	1.7129	1.3541	0.6724	-0.1801	-0.4023	0.7008	1.981	9.3244	-2.3486	-0.5718	-0.5393	-0.1599	-1.2787	-0.3977	10.0122	-0.7015	0.1069	3.7129	0.6616	-0.8876	-1.6317	0.2976	1.3195
0.3243	1.6646	9.7028	-1.6724	1.9713	1.2723	0.6784	-0.2041	-0.4203	0.7066	1.5809	9.5613	-2.3457	-0.4483	-0.6915	-0.1607	-1.2403	-0.3993	9.2073	-0.9884	-0.2603	3.4924	0.817	-1.0945	-1.5975	0.2681	1.2688
0.4348	1.1463	9.4083	-1.3963	1.868	1.265	0.6784	-0.2101	-0.4023	0.7125	1.5815	9.8584	-2.2813	-0.236	-0.3479	-0.1748	-1.2575	-0.4343	9.7225	-0.7593	-0.1324	2.856	0.9103	-0.8326	-1.5624	0.3011	1.284
0.7266	1.6637	9.6516	-0.6596	1.562	1.2758	0.6604	-0.1801	-0.4143	0.8794	1.6377	9.5649	-1.7523	0.062	-0.3417	-0.1881	-1.297	-0.3972	9.7211	-1.276	-0.251	2.2162	0.9117	-0.7889	-1.5977	0.3032	1.2651
1.0164	1.3759	9.7156	-1.0384	1.2715	1.1613	0.6844	-0.1981	-0.4143	1.2241	1.6368	9.5126	-1.5358	0.1797	0.0005	-0.1887	-1.2763	-0.4337	9.2119	-0.9875	-0.0268	1.5757	1.0978	-0.6475	-1.6147	0.2838	1.285
0.7862	1.7789	9.7712	-0.5855	1.1595	0.8446	0.6724	-0.1861	-0.4023	0.9354	2.3243	9.5675	-1.2568	0.2374	-0.245	-0.1607	-1.2403	-0.3993	9.5504	-0.8166	-0.1944	1.3843	0.9766	-1.1095	-1.5802	0.3031	1.2654
0.782	1.6634	9.5345	0.0644	1.1021	0.92	0.6784	-0.1801	-0.4083	0.7053	2.096	9.5623	-1.9936	0.342	-0.2444	-0.1601	-1.2772	-0.4334	10.0092	-0.989	-0.0692	0.9525	1.2552	-1.1237	-1.6157	0.2896	1.23
1.0137	2.2382	9.6586	-0.1302	0.8953	0.71	0.6904	-0.1861	-0.4023	0.9982	1.6378	9.7456	-1.7509	0.1537	-0.2474	-0.1893	-1.2394	-0.3995	9.3193	-1.1037	-0.3751	0.7697	1.2863	-1.0884	-1.5977	0.2525	1.2524
0.9544	1.2604	9.4778	-0.1603	1.1407	0.5901	0.6664	-0.2041	-0.4023	0.3574	1.4669	9.3756	-1.318	0.2688	-0.1828	-0.1465	-1.24	-0.417	9.8958	-0.6444	-0.0119	0.744	1.378	-0.8078	-1.5456	0.3556	1.2604
0.5496	1.4335	9.4112	-0.1049	1.0154	0.4355	0.6604	-0.1921	-0.4263	1.2296	1.809	9.8101	-1.8119	0.1854	-0.2469	-0.1603	-1.2595	-0.3985	9.663	-0.5875	-0.2497	0.5938	1.501	-0.6163	-1.5451	0.2678	1.2697
0.7288	1.664	9.7698	-0.3207	0.6889	0.6524	0.6784	-0.1921	-0.3963	0.8698	1.1788	9.0292	-1.6911	0.0305	-0.4039	-0.1595	-1.2971	-0.4148	9.7762	-0.8174	-0.3066	0.4533	1.1919	-0.2833	-1.5621	0.2991	1.3023
0.9591	1.146	9.7139	-0.3781	0.8445	0.7157	0.6664	-0.1981	-0.4203	0.7631	2.0386	9.5634	-1.2006	-0.01	-0.064	-0.1606	-1.2572	-0.4521	9.4429	-0.6431	0.1541	0.5441	1.2841	-0.2516	-1.5799	0.2505	1.271
0.7858	1.3763	9.7111	-0.3078	0.9039	0.9889	0.6784	-0.1921	-0.4083	1.0573	1.5233	9.8059	-1.257	0.2671	-0.0283	-0.1605	-1.258	-0.4342	9.8355	-0.7597	-0.1885	0.9145	0.8519	-0.3639	-1.5801	0.2348	1.2545
0.8994	1.7209	9.6551	-0.4255	1.0012	1.1448	0.6604	-0.1861	-0.4083	1.1121	1.7519	9.6888	-1.3246	-0.039	0.0279	-0.146	-1.2599	-0.3984	9.8304	-0.4163	-0.4207	0.9404	0.791	-0.6127	-1.5449	0.2834	1.2862
1.1294	2.008	9.6603	0.0365	0.9817	1.103	0.6784	-0.1981	-0.4203	0.4776	1.8678	9.6759	-1.2031	-0.133	-0.0045	-0.2029	-1.2766	-0.4159	9.8341	-0.5878	-0.2462	1.3379	0.7284	-0.6225	-1.58	0.268	1.2691
0.7864	1.6639	9.7709	-0.2572	1.1793	1.5384	0.6784	-0.1981	-0.4023	0.7654	1.5809	9.6219	-0.8682	-0.3231	0.0236	-0.1739	-1.2967	-0.4149	9.4988	-0.6434	0.0968	1.4489	0.6375	-1.1821	-1.6155	0.2545	1.2338
0.7881	1.3766	9.8293	-0.0693	1.3854	1.5045	0.6844	-0.2101	-0.4023	0.5883	1.8099	9.4405	-0.9598	-0.2606	0.1481	-0.1469	-1.2208	-0.4178	9.72	-0.5876	-0.2485	1.8477	0.7592	-1.0017	-1.5979	0.2876	1.2486
1.0161	1.5484	9.716	-0.0696	1.4158	1.4741	0.6664	-0.1741	-0.4143	0.9932	1.7518	9.5081	-1.0786	-0.0434	0.09	-0.1312	-1.2795	-0.3975	10.0625	-0.8176	-0.2425	2.1811	0.9433	-0.9723	-1.5973	0.2837	1.2853
0.5528	1.5489	9.5888	0.1549	1.4687	1.7435	0.6844	-0.1921	-0.4083	0.7066	2.0389	9.6216	-1.1064	0.0806	-0.0931	-0.146	-1.2599	-0.3984	9.7258	-0.6439	0.0431	2.5369	1.0362	-1.3774	-1.5974	0.3013	1.2834
0.7787	1.6054	9.3571	0.4045	1.5197	1.7988	0.6724	-0.1801	-0.4023	0.5923	1.6385	9.6184	-1.1971	0.2341	0.2801	-0.1325	-1.222	-0.3998	9.6061	-0.7022	-0.2512	2.8685	1.2513	-1.4088	-1.6318	0.2644	1.3049
1.0704	1.4904	9.5397	-0.1735	1.6367	2.0576	0.6724	-0.2041	-0.4083	0.42	1.3528	9.6143	-1.2539	0.5108	0.4084	-0.1742	-1.2782	-0.3978	9.6079	-1.1035	-0.1943	3.1015	1.5292	-1.7137	-1.5975	0.2681	1.2688
0.7813	1.3757	9.4747	-0.1194	1.4807	1.8723	0.6784	-0.1861	-0.4023	0.7005	1.6376	9.2643	-1.1877	0.7553	0.4129	-0.1597	-1.2794	-0.3799	9.9422	-0.4743	-0.5353	3.1275	1.2838	-2.0912	-1.5799	0.2505	1.271
0.7879	1.4916	9.8296	-0.1242	1.2972	1.8104	0.6664	-0.1741	-0.4143	0.5856	1.4661	9.2616	-1.2487	0.757	0.2584	-0.1308	-1.2987	-0.3967	9.6615	-0.4156	-0.3074	3.1237	1.2229	-2.3086	-1.5803	0.2192	1.2381
1.0782	1.5488	9.9536	-0.6133	1.4404	1.9146	0.6784	-0.1741	-0.4083	0.8797	1.9812	9.6251	-1.0055	0.6293	0.4419	-0.1457	-1.2614	-0.3627	9.831	-0.8179	-0.4221	3.0627	1.0385	-2.436	-1.6148	0.3014	1.2831
0.7842	1.6636	9.6527	-0.235	0.9635	1.3535	0.6724	-0.2161	-0.3963	0.592	1.295	9.5583	-1.4037	0.6983	0.2571	-0.1612	-1.2204	-0.4179	10.4022	-0.6465	-0.3517	3.0686	0.8223	-2.3189	-1.6326	0.3034	1.2645
0.6132	1.2041	9.7073	-0.3922	0.6036	1.4773	0.6484	-0.1981	-0.4203	0.9329	1.8661	9.3883	-0.9725	0.7514	0.475	-0.2026	-1.2951	-0.433	9.6048	-0.5876	-0.3091	3.0454	0.5136	-2.204	-1.5969	0.2642	1.3055
0.6683	1.3762	9.5907	-0.7019	0.6469	1.4241	0.6844	-0.1801	-0.4203	0.6508	1.295	9.6189	-1.5847	0.9157	0.3842	-0.1597	-1.2963	-0.4327	9.7751	-0.8176	-0.3649	2.8372	0.2057	-2.1778	-1.5798	0.2836	1.2856
0.3245	1.5496	9.7026	-0.7628	-0.0872	0.7807	0.6724	-0.1801	-0.4083	0.8847	1.4093	9.8022	-0.4066	1.3861	0.58	-0.1752	-1.2384	-0.4351	9.9496	-0.8172	-0.1864	2.8153	0.1737	-1.8084	-1.545	0.2503	1.2716
0.7862	1.1463	9.7106	-0.6498	-0.2156	0.4722	0.6664	-0.1861	-0.3963	0.8741	1.8662	9.3277	-0.7986	1.8825	0.9279	-0.1453	-1.2968	-0.4326	9.6081	-1.2756	-0.1949	2.8165	0.0505	-1.8427	-1.5797	0.2661	1.2874
0.7258	1.4911	9.5921	-0.8427	-0.4222	0.3231	0.6664	-0.1981	-0.4083	0.5286	1.6953	9.3202	1.0022	2.771	1.3792	-0.1886	-1.2771	-0.4158	10.0051	-0.5307	-0.2426	2.7222	0.1434	-1.8998	-1.5627	0.303	1.2657
0.8923	1.26	9.2403	-0.9946	-0.324	0.3579	0.6784	-0.1981	-0.4143	0.7056	1.4663	9.5016	0.0482	2.7872	1.3779	-0.1594	-1.2979	-0.397	9.6169	-1.0445	0.2727	2.6	0.2053	-1.8648	-1.5968	0.2467	1.3073
1.0207	1.4914	9.9523	-0.8878	0.0703	0.6321	0.6664	-0.1981	-0.4263	0.761	1.9239	9.4443	0.8774	2.591	0.8816	-0.1608	-1.2395	-0.4171	9.501	-0.5856	0.2138	2.8205	0.3267	-1.465	-1.5798	0.2836	1.2856
0.6616	1.3754	9.236	-0.9341	0.2881	1.0616	0.6784	-0.2041	-0.4083	0.7615	1.237	9.3835	0.2228	2.1421	0.7798	-0.1315	-1.2611	-0.3804	9.5564	-0.9876	0.0967	2.9812	0.2328	-1.1627	-1.5449	0.2834	1.2862
0.7264	1.7787	9.6519	-1.176	0.543	1.0994	0.6544	-0.1861	-0.4263	0.5352	1.4097	9.6168	-0.5839	1.7879	0.6486	-0.1175	-1.2592	-0.4339	9.6006	-0.8179	-0.5434	3.4234	0.2601	-0.4617	-1.5801	0.2856	1.2673
0.8989	1.3758	9.5952	-0.9566	0.6869	1.1254	0.6724	-0.1981	-0.4083	0.6491	1.9818	9.6203	-0.406	1.3869	0.3947	-0.1604	-1.2587	-0.4163	9.6074	-0.8167	-0.1933	3.4022	0.228	-0.0615	-1.5792	0.3305	1.335
0.5013	1.8373	9.943	-0.9167	0.8696	1.3391	0.6724	-0.1861	-0.4023	0.7658	1.9244	9.682	-1.2433	1.0634	0.3874	-0.1608	-1.2395	-0.4171	9.8345	-0.8746	-0.2473	3.1648	0.1968	0.2198	-1.598	0.3051	1.2468
0.7878	1.5491	9.8298	-0.732	1.1363	1.1531	0.6604	-0.1981	-0.4203	0.1246	1.868	9.3123	-1.1876	0.7554	0.382	-0.1754	-1.2207	-0.4001	9.6669	-0.9311	-0.0758	3.4518	0.0404	0.6719	-1.5798	0.3343	1.2983
0.9648	1.1467	10.0095	-0.5112	1.3109	1.2097	0.6724	-0.1921	-0.4083	0.5961	1.5244	9.7964	-1.007	0.5074	0.2235	-0.1462	-1.2584	-0.4341	9.7721	-1.105	-0.541	2.66	0.196	0.8463	-1.615	0.2682	1.2685
0.9555	1.9506	9.5977	-0.802	0.894	1.0008	0.6844	-0.1981	-0.4203	0.6461	1.7525	9.4416	-0.7959	0.2286	-0.0282	-0.1456	-1.2622	-0.3448	9.7204	-0.8744	-0.2495	2.3841	0.3814	0.9188	-1.5798	0.3343	1.2983
0.7834	1.491	9.5932	-0.78	1.0138	0.6044	0.6664	-0.2101	-0.4263	0.7663	1.6955	9.6815	-1.2011	-0.0407	-0.0646	-0.1604	-1.2587	-0.4163	9.4937	-1.046	-0.1964	1.4019	0.6262	2.2092	-1.5447	0.2991	1.3026
0.6717	1.3766	9.768	-0.313	0.6546	-0.1717	0.6784	-0.2041	-0.4083	0.6514	1.524	9.6788	-1.4145	0.0855	-0.0009	-0.1893	-1.2394	-0.3995	9.7785	-0.817	-0.1898	0.2216	0.5662	2.601	-1.5979	0.2876	1.2486
0.897	1.7781	9.537	0.0666	0.0559	-0.6114	0.6784	-0.1861	-0.4023	0.8149	1.5227	9.207	-1.1079	-0.0412	-0.3115	-0.1744	-1.2767	-0.4336	9.4902	-0.9892	-0.3712	-0.9135	0.8775	2.5401	-1.5803	0.3207	1.2635
0.672	1.2042	9.7676	0.6464	0.0001	-0.8394	0.6724	-0.1921	-0.4083	1.1082	1.408	9.4504	-1.4508	-0.3106	-0.564	-0.2316	-1.2758	-0.4161	9.2059	-0.8165	-0.318	-2.218	1.7763	2.1295	-1.6325	0.2859	1.2664
0.6101	1.7213	9.5904	0.8949	0.234	-0.9356	0.6784	-0.1921	-0.4203	0.823	1.5807	9.6231	-1.8492	-0.2419	-0.687	-0.1461	-1.2592	-0.4162	9.5447	-1.5636	-0.5473	-2.903	2.7643	2.2022	-1.58	0.268	1.2691
0.4979	1.2618	9.7052	0.8104	0.4218	-0.7494	0.6724	-0.2101	-0.4143	1.1172	1.5806	9.9261	-2.0055	-0.362	-0.6894	-0.1742	-1.2782	-0.3978	9.1412	-0.9899	-0.7282	-3.2588	3.8141	2.0235	-1.5104	0.3203	1.2647
0.8969	1.8356	9.5372	0.9503	0.4489	-0.1731	0.6844	-0.1981	-0.4023	0.8725	2.0377	9.2686	-2.4667	-0.3538	-0.7827	-0.1748	-1.2575	-0.4343	9.7709	-1.0479	-0.5992	-3.5654	4.7424	1.2239	-1.5798	0.2836	1.2856
0.5457	1.088	9.174	0.3326	0.5357	-0.2185	0.6784	-0.1981	-0.4083	0.7068	1.4664	9.561	-2.0669	-0.3308	-0.5654	-0.1749	-1.2568	-0.4522	9.5451	-1.1045	-0.4872	-3.476	5.2961	1.5153	-1.5455	0.2873	1.2495
0.7849	1.2612	9.6517	0.2128	0.7548	-0.2144	0.6784	-0.1861	-0.3963	0.6421	1.9238	9.2637	-2.1925	-0.4217	-0.3511	-0.1609	-1.2388	-0.435	9.9009	-0.9878	0.2203	-3.7664	4.9563	1.943	-1.5978	0.3208	1.2632
1.1892	1.4331	9.7191	-0.1195	0.8918	-0.0225	0.6664	-0.1801	-0.4143	0.9959	2.0955	9.6871	-2.1883	-0.2368	-0.5331	-0.1893	-1.2394	-0.3995	9.8405	-0.2997	0.105	-3.8866	4.152	2.8472	-1.5977	0.2525	1.2524
0.9581	1.721	9.7153	-0.2514	0.7435	-0.2337	0.6844	-0.1861	-0.4203	0.7114	1.5241	9.7988	-0.7766	-0.4155	-0.2558	-0.2024	-1.2966	-0.3973	9.6052	-0.8745	-0.3102	-4.703	2.8564	3.6588	-1.5968	0.2467	1.3073
0.9567	1.8933	9.6566	0.0327	0.7631	-0.0269	0.6724	-0.1921	-0.4083	1.1089	2.095	9.5706	-1.4494	-0.1889	-0.3147	-0.176	-1.2169	-0.4894	9.6602	-1.0471	-0.4264	-5.1484	1.9945	3.6122	-1.5459	0.3575	1.2421
0.8984	1.6058	9.5957	-0.1829	0.8942	-0.0819	0.6724	-0.2041	-0.4143	0.5894	1.8672	9.5	-1.4463	-0.0053	-0.1879	-0.1896	-1.2379	-0.4352	9.7703	-0.6463	-0.5977	-5.6655	1.5342	3.3628	-1.5625	0.2679	1.2694
0.7762	1.0876	9.1785	-0.2824	0.6838	-0.2027	0.6784	-0.1921	-0.3963	0.7623	1.8668	9.5036	0.0671	0.2455	-0.2426	-0.1473	-1.2016	-0.4185	9.493	-0.5871	-0.1947	-5.9743	1.474	3.1515	-1.5626	0.2855	1.2675
1.0761	1.4336	9.8351	-0.4953	0.6322	-0.0453	0.6784	-0.1921	-0.4203	0.5822	1.4086	9.0832	-1.224	0.3592	-0.1501	-0.1887	-1.2602	-0.363	10.1213	-1.219	-0.1844	-6.4701	1.6302	2.9193	-1.6148	0.3014	1.2831
0.5503	1.6636	9.4709	-0.1613	0.4953	-0.1763	0.6664	-0.1861	-0.3963	0.9969	1.6949	9.6863	-0.4208	0.4693	-0.363	-0.1751	-1.2391	-0.4172	9.8376	-0.6445	-0.0714	-6.7339	2.0952	2.3522	-1.5977	0.2525	1.2524
0.909	1.3771	10.1271	0.0857	0.546	-0.2125	0.6844	-0.1861	-0.4083	0.8875	1.6958	9.981	-0.8237	0.4127	0.0986	-0.1893	-1.2394	-0.3995	9.4931	-0.6444	-0.1949	-6.9943	2.3752	1.8105	-1.6315	0.2625	1.3232
1.0133	1.8356	9.5985	-0.1613	0.7394	-0.3274	0.6604	-0.1921	-0.3963	0.6981	1.6373	9.1454	-0.6389	0.3797	-0.087	-0.1888	-1.2594	-0.3809	9.5473	-1.0467	-0.3703	-7.3601	2.5913	1.9781	-1.5972	0.2662	1.2872
0.7858	1.3763	9.7111	-0.0652	0.7969	-0.2379	0.6724	-0.2101	-0.4083	0.6472	1.8098	9.5011	-0.9465	0.4151	0.0366	-0.1602	-1.2764	-0.4513	9.9496	-0.8172	-0.1864	-7.5411	2.4992	2.0099	-1.58	0.268	1.2691
0.3214	1.3767	9.5248	0.1413	0.7258	-0.5484	0.6664	-0.1921	-0.4143	0.8226	1.7524	9.6234	-0.335	0.1599	-0.1522	-0.175	-1.2399	-0.3994	9.6605	-0.4732	-0.3659	-7.445	2.283	2.0635	-1.5631	0.2542	1.2346
1.0704	1.4904	9.5397	0.1129	0.5749	-0.3655	0.6904	-0.1981	-0.4203	0.7156	1.7535	10.037	-1.2593	0.1744	0.1245	-0.1604	-1.2587	-0.4163	9.6073	-0.702	-0.1929	-7.5313	2.3439	2.3444	-1.5453	0.3029	1.266
0.7858	1.3763	9.7111	0.0104	0.3336	-0.5779	0.6604	-0.1981	-0.4203	0.9933	1.6946	9.508	-0.1512	0.1558	0.0643	-0.1453	-1.2968	-0.4326	9.3797	-1.1031	-0.1989	-7.4616	2.2194	2.6477	-1.5803	0.2699	1.2508
0.664	1.8933	9.4146	0.0442	0.3631	-0.4871	0.6664	-0.2041	-0.4083	0.6461	1.7525	9.4416	-0.3656	0.1907	-0.059	-0.1612	-1.2204	-0.4179	9.8336	-1.0469	-0.3062	-7.8272	2.2817	2.7184	-1.6324	0.2683	1.2683
0.7843	1.6061	9.6526	-0.2163	0.1584	-0.848	0.6724	-0.1861	-0.4083	0.5307	1.81	9.4393	-1.1951	0.2665	-0.1209	-0.1599	-1.2787	-0.3977	10.056	-1.0483	-0.5934	-7.6501	2.4052	2.5335	-1.5983	0.3071	1.2285
0.7872	1.2615	9.77	0.418	-0.3278	-1.0798	0.6844	-0.1921	-0.3963	0.5343	1.2952	9.5571	-0.3306	0.4652	0.2239	-0.2168	-1.2954	-0.4153	9.7787	-0.9317	-0.1903	-7.7685	2.3434	2.6574	-1.5808	0.307	1.2287
1.0734	1.0882	9.6569	0.5843	-0.8562	-1.4529	0.6724	-0.1921	-0.3963	0.65	2.0963	9.68	-0.2669	0.4967	-0.2078	-0.1332	-1.2005	-0.4541	9.4932	-0.7018	-0.1951	-7.7134	2.744	2.6677	-1.5805	0.2543	1.2343
1.2975	1.547	9.367	0.5158	-1.0069	-1.6046	0.6784	-0.2041	-0.4083	1.1695	1.351	9.6297	-0.6415	0.2867	0.1275	-0.1473	-1.2185	-0.4713	9.3798	-1.1605	-0.1991	-7.8347	2.8365	2.7652	-1.6332	0.3073	1.2279
0.6715	1.4916	9.7683	0.9455	-0.8116	-1.8275	0.6664	-0.1861	-0.4023	0.5947	1.6388	9.7373	-0.0895	0.1849	0.1885	-0.2034	-1.2575	-0.4167	9.8346	-0.932	-0.2475	-7.8685	3.1447	2.8364	-1.6327	0.2702	1.2499
0.9547	1.1455	9.4775	1.2571	-0.6412	-1.8341	0.6664	-0.1921	-0.4023	0.713	1.8677	9.9184	0.1918	0.3653	-0.024	-0.1739	-1.2967	-0.4149	9.8254	-0.8763	-0.7141	-7.8048	3.5132	3.2155	-1.5801	0.2856	1.2673
0.9527	1.6053	9.4195	1.4093	-0.5259	-1.9897	0.6664	-0.1801	-0.4203	1.0446	1.8655	9.2124	0.2177	0.149	0.1883	-0.1593	-1.2986	-0.3791	9.5999	-1.105	-0.6028	-7.739	3.6046	3.4942	-1.6145	0.2487	1.2887
1.1892	1.4331	9.7191	1.4474	-0.3433	-1.837	0.6784	-0.1921	-0.4083	0.4237	1.8111	9.8529	0.1817	-0.0666	0.4933	-0.1747	-1.2583	-0.4165	9.6075	-0.8741	-0.1935	-7.6787	3.8813	3.655	-1.5453	0.3029	1.266
1.0138	1.5481	9.5978	1.5044	0.2637	-2.384	0.6604	-0.1921	-0.4143	1.0477	2.0948	9.3912	0.2094	-0.2207	0.5215	-0.1604	-1.2587	-0.4163	9.6014	-0.6456	-0.4844	-7.5565	4.004	3.7486	-1.5629	0.2874	1.2492
1.1363	1.2613	9.954	1.1567	0.7698	-1.8541	0.6724	-0.1981	-0.4083	0.5955	1.2954	9.7366	-0.0156	-0.7085	0.605	-0.1461	-1.2592	-0.4162	9.7186	-1.1617	-0.3673	-7.2579	4.3426	3.6906	-1.6151	0.235	1.2539
0.7834	1.491	9.5932	1.7733	0.9574	-2.0205	0.6604	-0.1861	-0.4083	0.7638	1.7525	9.5628	-0.3614	-1.0713	0.6597	-0.1609	-1.2388	-0.435	9.6581	-1.1048	-0.5433	-7.2959	4.6207	3.5452	-1.616	0.2915	1.2117
0.9558	1.7782	9.5973	1.28	1.4967	-2.3105	0.6604	-0.1981	-0.4143	1.0526	1.5228	9.5683	0.5977	-0.8114	0.6969	-0.1176	-1.2585	-0.4517	9.7703	-0.6463	-0.5977	-6.9611	4.5277	3.4434	-1.5451	0.2678	1.2697
0.5466	2.4683	9.3546	1.3832	1.9211	-2.1885	0.6844	-0.1801	-0.4143	0.5369	1.6961	9.7362	0.8685	-1.0936	0.9703	-0.1893	-1.2394	-0.3995	9.5471	-0.9319	-0.3699	-6.8671	4.6808	3.6616	-1.6157	0.2896	1.23
1.016	1.6059	9.7162	0.6213	2.0154	-1.8644	0.6904	-0.2041	-0.4023	0.7133	1.7533	9.9181	-0.1135	-1.0134	0.5068	-0.1602	-1.2764	-0.4513	9.8918	-1.0468	-0.2467	-6.4535	4.2159	4.1025	-1.5455	0.2366	1.2368
0.7865	1.6064	9.7708	0.1805	1.514	-1.8565	0.6784	-0.1981	-0.4143	0.528	1.9242	9.3207	0.3219	-0.8355	0.2327	-0.1893	-1.2394	-0.3995	9.3209	-0.6444	-0.2567	-6.3834	4.1528	4.4691	-1.5645	0.297	1.1576
0.6139	1.4917	9.7671	0.3626	0.7386	-2.6281	0.6604	-0.2041	-0.4083	1.0522	1.6945	9.5686	0.5437	-0.4715	0.394	-0.1889	-1.2586	-0.3987	10.0662	-0.9317	-0.0678	-5.8867	3.9349	4.6996	-1.5641	0.3283	1.1905
0.7805	1.8357	9.4758	0.5997	0.4526	-2.8185	0.6784	-0.1861	-0.4083	0.6495	1.8101	9.62	0.7031	-0.1676	0.4924	-0.1612	-1.2373	-0.4707	9.5536	-0.6439	-0.0187	-5.8924	3.7205	4.2929	-1.5636	0.342	1.2253
0.9543	1.3179	9.4779	0.7866	0.5976	-2.8527	0.6604	-0.2041	-0.3963	0.5347	2.0966	9.6776	0.3985	-0.0086	0.4329	-0.147	-1.22	-0.4356	9.7285	-0.9303	0.1587	-5.6518	3.8127	4.1982	-1.5801	0.2856	1.2673
0.7865	1.6064	9.7708	0.7703	0.57	-2.3034	0.6664	-0.2041	-0.4083	0.5852	1.6378	9.2619	0.4358	0.2985	0.2532	-0.1456	-1.2783	-0.4155	9.2596	-0.8746	-0.4921	-5.3131	3.7807	4.3138	-1.5976	0.2857	1.267
0.7822	1.5484	9.5342	0.5835	0.8216	-2.5109	0.6724	-0.1801	-0.4143	0.7017	1.6377	9.3237	0.007	0.3983	0.1615	-0.1601	-1.2772	-0.4334	9.839	-0.8164	-0.0136	-5.0686	3.5647	4.1795	-1.5977	0.3032	1.2651
0.8386	1.6056	9.4764	0.7226	1.1537	-2.1463	0.6664	-0.1921	-0.4083	0.89	2.1539	10.1602	-0.1765	0.4629	0.1624	-0.1886	-1.2771	-0.4158	9.6702	-0.8157	0.0997	-4.9129	3.5331	4.2988	-1.5981	0.272	1.2322
0.5425	1.6052	9.057	0.1987	1.3588	-2.2239	0.6604	-0.1861	-0.4023	0.6506	1.8674	9.6795	-0.088	0.3068	0.4068	-0.1605	-1.258	-0.4342	10.1855	-0.644	0.2273	-4.8467	3.2245	4.3195	-1.5981	0.3227	1.2449
0.7834	1.491	9.5932	0.3283	1.3238	-1.9832	0.6784	-0.1861	-0.4023	0.8835	1.4091	9.7427	-0.676	0.1028	0.186	-0.1886	-1.2771	-0.4158	10.0674	-0.9889	-0.0097	-4.7549	2.8859	4.0922	-1.5804	0.3382	1.2617
0.611	1.8364	9.6498	0.0888	1.2739	-1.6727	0.6784	-0.1801	-0.4203	0.4767	1.7533	9.6163	-0.3043	0.2193	0.1887	-0.1317	-1.2596	-0.4161	9.7213	-0.7021	-0.1906	-4.5714	2.7624	4.0233	-1.6335	0.3092	1.2096
0.6714	1.5491	9.7684	0.0966	1.3357	-1.4284	0.6664	-0.1981	-0.4143	0.4791	1.7535	9.7351	-0.6419	0.2561	0.0961	-0.1752	-1.2384	-0.4351	9.8355	-0.7597	-0.1885	-4.6388	2.7328	3.7156	-1.6327	0.2702	1.2499
1.073	1.3182	9.6575	0.0055	1.2788	-1.335	0.6604	-0.1921	-0.4083	0.991	1.6943	9.3892	-0.3046	0.189	0.0955	-0.1742	-1.2782	-0.3978	9.7831	-0.8161	0.0436	-4.3047	2.7321	3.6472	-1.5979	0.3383	1.2614
0.7805	1.8357	9.4758	-0.4753	0.9301	-1.7524	0.6664	-0.1981	-0.4083	0.8249	1.8099	9.7424	-0.6702	0.4096	0.2223	-0.1733	-1.3166	-0.3963	9.7715	-0.7035	-0.5396	-3.8818	2.824	3.5181	-1.5987	0.3265	1.2083
0.6661	1.376	9.4725	-0.478	0.6248	-1.6626	0.6904	-0.1921	-0.4023	0.7077	1.581	9.6207	-1.0121	0.2014	0.0018	-0.2024	-1.2966	-0.3973	9.8334	-0.8748	-0.3056	-3.5233	2.9165	3.2362	-1.5986	0.309	1.2101
0.9626	1.7215	9.9517	-0.4742	0.7472	-1.601	0.6844	-0.1921	-0.4083	0.4134	1.6384	9.3178	-0.2997	0.4648	0.1931	-0.1875	-1.317	-0.3786	10.0605	-0.9901	-0.3598	-3.2219	2.9779	3.1086	-1.6152	0.3033	1.2648
1.0678	1.0875	9.3614	-0.7526	0.6672	-1.5642	0.6604	-0.1921	-0.4203	0.6502	2.0391	9.6798	-0.8859	0.383	0.1288	-0.1761	-1.2	-0.4366	9.4992	-0.8728	0.096	-2.5302	3.0392	2.6958	-1.5982	0.3402	1.2431
0.4974	1.5493	9.7059	-0.3979	0.1314	-1.8199	0.6844	-0.1921	-0.4143	0.7651	1.6953	9.6221	-0.2937	0.8019	0.3226	-0.1888	-1.2755	-0.4515	9.7195	-0.9894	-0.3083	-2.3533	3.0397	2.4149	-1.6157	0.2896	1.23
0.8392	1.8932	9.5362	-0.2457	-0.3375	-2.7415	0.6784	-0.1861	-0.4143	0.7066	1.5809	9.5613	-0.7834	0.9334	0.2315	-0.1745	-1.2598	-0.3807	10.4059	-0.8179	-0.1773	-1.7221	2.8858	1.8738	-1.581	0.3421	1.225
1.1915	1.3759	9.8372	-0.2806	-0.8247	-2.5909	0.6844	-0.1861	-0.4023	0.4175	1.4098	9.4956	-0.0725	1.1051	0.3284	-0.1027	-1.2796	-0.4151	9.8312	-0.9326	-0.4225	-1.3909	2.8549	1.6506	-1.58	0.268	1.2691
0.8424	1.3186	9.653	-1.0962	-1.0367	-2.9079	0.6904	-0.1921	-0.4203	1.0585	1.5234	9.8654	-0.4423	1.0807	0.3274	-0.1458	-1.2607	-0.3805	9.7835	-1.1029	0.0425	-0.9708	2.8549	1.3339	-1.6506	0.2898	1.2295
1.0746	1.6634	9.7765	-0.7124	-0.9897	-2.4593	0.6844	-0.1981	-0.4023	0.7045	1.4662	9.4422	-0.8383	1.2424	-0.0102	-0.1732	-1.3174	-0.3784	10.0097	-1.2758	-0.0702	-0.4848	2.7617	1.1674	-1.5977	0.3032	1.2651
1.3028	1.0876	9.6023	-0.2654	-0.7621	-2.0723	0.6724	-0.1861	-0.4083	0.5899	2.1535	9.56	-0.1981	0.9542	0.2329	-0.1457	-1.2614	-0.3627	9.7783	-1.3908	-0.2503	-0.0573	2.7299	1.158	-1.5981	0.3227	1.2449
0.3238	1.3195	9.6429	0.0931	-0.4386	-1.5911	0.6604	-0.2041	-0.4083	0.8829	1.6381	9.7432	-1.1862	0.7871	0.1664	-0.2034	-1.2575	-0.4167	9.6019	-0.9325	-0.4855	-0.0888	2.7916	1.1603	-1.5979	0.2876	1.2486
1.3042	1.5479	9.7217	-0.2259	0.0354	-1.123	0.6604	-0.1861	-0.4143	0.8775	1.4086	9.4456	-0.534	1.0531	-0.013	-0.1747	-1.2583	-0.4165	9.4904	-1.104	-0.3717	0.4067	2.6047	1.3609	-1.598	0.2544	1.2341
0.7816	1.8358	9.5349	0.0093	0.5165	-0.7294	0.6664	-0.2041	-0.4023	0.7117	1.4097	9.7986	-1.2194	0.6647	0.195	-0.1597	-1.2963	-0.4327	9.4934	-0.8165	-0.1956	0.5037	2.6036	1.6055	-1.5807	0.3401	1.2433
1.1242	1.7773	9.3642	-0.1489	1.0763	-0.0817	0.6724	-0.1981	-0.4263	0.3641	1.1241	9.672	-0.577	0.4091	-0.0246	-0.1731	-1.3181	-0.3606	9.9512	-1.1038	-0.1291	0.2327	2.0501	1.3793	-1.5984	0.2739	1.2139
0.7833	1.5485	9.5933	-0.2599	1.1743	0.3181	0.6784	-0.1801	-0.3963	0.8766	1.8092	9.4464	-0.2164	0.0325	0.4326	-0.1736	-1.2982	-0.3792	10.0102	-0.8741	-0.0104	0.3956	1.8021	1.6773	-1.5804	0.2875	1.2489
0.7933	1.6072	10.1254	-0.6548	1.4054	0.4206	0.6664	-0.1921	-0.4083	0.8833	1.4664	9.7429	0.0528	-0.3414	0.6426	-0.1462	-1.2422	-0.3634	10.0097	-1.2758	-0.0702	0.5803	1.3707	1.4455	-1.5639	0.2932	1.1943
0.963	1.4915	9.9512	-0.6461	1.7724	0.514	0.6844	-0.1921	-0.4263	1.1086	1.6943	9.5104	0.1809	-0.1876	0.0587	-0.2037	-1.239	-0.3996	10.1194	-0.703	-0.2409	0.6916	1.4029	0.9818	-1.5976	0.2857	1.267
1.0696	1.9503	9.5408	-0.7977	1.6876	0.6697	0.6965	-0.1921	-0.4023	0.473	1.8101	9.4381	-0.3456	-0.2725	0.4887	-0.1737	-1.2974	-0.3971	9.8313	-1.0473	-0.423	1.3368	1.3083	1.1203	-1.615	0.2682	1.2685
1.1864	1.7203	9.6016	-0.8121	2.1178	1.0081	0.6724	-0.1861	-0.4083	0.8261	1.81	9.8018	-0.4052	-0.2092	0.2735	-0.1614	-1.2196	-0.4357	10.0098	-0.6446	-0.0096	1.8505	1.4923	1.0228	-1.5981	0.272	1.2322
0.7857	1.4338	9.7113	-0.7494	2.1763	1.0069	0.6664	-0.1921	-0.4143	0.9374	1.4659	9.5658	-0.4724	-0.4549	0.547	-0.174	-1.2959	-0.4328	10.2932	-0.9896	-0.1218	2.5167	1.6759	0.9223	-1.5638	0.3264	1.2089
0.7236	2.0659	9.5344	-0.8674	2.1516	1.2232	0.6784	-0.1861	-0.4023	0.8762	1.4657	9.3863	-0.6532	-0.3272	0.1475	-0.1603	-1.2595	-0.3985	9.7208	-1.1039	-0.2504	2.9457	1.8591	1.1347	-1.5803	0.3207	1.2635
0.9547	1.1455	9.4775	-0.9205	2.3686	1.4088	0.6844	-0.1981	-0.4023	0.8833	1.4664	9.7429	-1.0161	0.0166	0.153	-0.1744	-1.2767	-0.4336	9.7223	-1.3331	-0.1929	3.2137	1.798	0.7885	-1.5813	0.2933	1.194
0.7338	1.3771	10.0055	-1.0667	2.4065	1.6871	0.6844	-0.1861	-0.3963	1.172	1.8092	9.8089	-0.7135	-0.1747	0.6133	-0.1603	-1.2595	-0.3985	10.0111	-0.7591	0.0484	3.5546	1.5195	0.8354	-1.6156	0.2721	1.2319
0.5517	1.4913	9.5296	-0.826	1.9379	1.7396	0.6724	-0.2041	-0.4023	0.7556	2.2096	9.2072	-0.9851	0.0765	0.4012	-0.1884	-1.2947	-0.4508	9.6121	-0.8732	0.0399	4.0112	1.3955	0.6994	-1.5986	0.3597	1.2229
1.1236	1.4897	9.3044	-0.6739	1.6566	1.8258	0.6724	-0.2041	-0.3963	0.827	1.9246	9.8614	-0.984	0.1677	0.5881	-0.1319	-1.2588	-0.434	9.8994	-0.7585	0.1628	4.1023	1.057	0.4414	-1.5809	0.3245	1.2269
0.9007	1.6061	9.7139	-0.9195	1.6366	1.8927	0.6664	-0.2041	-0.4083	0.5291	1.4664	9.3198	0.0028	0.2433	0.5294	-0.1742	-1.2782	-0.3978	9.7791	-1.1611	-0.1911	4.4628	0.9646	0.1233	-1.5802	0.3031	1.2654
0.4374	1.6066	9.5867	-0.77	1.4466	1.8269	0.6784	-0.1921	-0.4023	0.5769	2.095	8.9063	0.1007	0.5784	0.7517	-0.1735	-1.3151	-0.432	9.7194	-0.932	-0.3081	4.5186	0.7192	-0.2856	-1.5626	0.2855	1.2675
0.787	1.3764	9.7702	-0.7997	1.57	1.7978	0.6664	-0.1801	-0.4143	0.7592	1.6948	9.325	-1.2231	0.5103	0.4085	-0.1749	-1.2568	-0.4522	9.7697	-0.9907	-0.6573	4.7182	0.7824	-0.8734	-1.6157	0.3403	1.2428
1.125	1.3174	9.3631	-0.5632	1.1925	1.6374	0.6844	-0.1861	-0.4083	0.6411	1.8665	9.2041	-0.4526	0.5886	0.5656	-0.1747	-1.2583	-0.4165	9.4905	-0.4727	-0.311	4.6351	0.8121	-0.4702	-1.6321	0.2664	1.2866
0.8428	1.7212	9.7131	-0.6013	0.9184	1.5452	0.6724	-0.1861	-0.4203	1.0033	1.9817	10.0434	0.6882	0.6617	0.4763	-0.1888	-1.2755	-0.4515	9.7205	-0.9318	-0.2498	4.8175	0.7194	-0.569	-1.6329	0.3053	1.2462
0.6744	1.1469	9.8856	-0.4744	0.8221	1.7246	0.6724	-0.2041	-0.4203	0.6519	1.8103	9.7388	-1.2208	0.6631	0.5656	-0.2037	-1.239	-0.3996	9.6636	-0.9891	-0.2511	4.627	0.7211	-0.9042	-1.5989	0.3617	1.2045
0.776	1.2026	9.1788	-0.7846	1.0789	1.5201	0.6664	-0.2041	-0.4083	0.9968	1.7521	9.6864	0.1374	0.8549	0.5714	-0.203	-1.2759	-0.4338	9.607	-0.5299	-0.1922	4.6627	0.6894	-0.69	-1.6333	0.3248	1.226
1.2476	1.6056	9.7798	-0.6641	0.9514	1.4859	0.6664	-0.1921	-0.4023	0.7602	1.7521	9.3845	-0.2636	0.8006	0.508	-0.1599	-1.2787	-0.3977	9.782	-0.8163	-0.0148	4.9691	0.5039	-0.7631	-1.6166	0.2954	1.1751
0.8411	2.066	9.6548	-0.6044	0.9791	1.3931	0.6784	-0.2041	-0.3963	0.9902	1.5225	9.3294	-0.6008	0.9279	0.7876	-0.1608	-1.2395	-0.4171	9.8405	-1.0457	0.0439	4.9092	0.5654	-0.6677	-1.5979	0.2876	1.2486
1.0668	1.6049	9.3627	-0.4453	1.0647	1.5118	0.6844	-0.1861	-0.4143	0.2481	1.9257	9.7307	0.2929	0.9442	0.6042	-0.1463	-1.2576	-0.452	9.7227	-1.5626	-0.1937	4.9993	0.6577	-0.6668	-1.5804	0.2875	1.2489
0.7855	1.5488	9.7115	-0.3523	0.9388	1.6003	0.6784	-0.1801	-0.4203	0.9927	1.9807	9.5086	-0.3538	0.9247	0.5718	-0.1749	-1.2406	-0.3815	9.2686	-0.7582	-0.0249	4.8468	0.8426	-0.5352	-1.5815	0.3791	1.203
0.789	1.4917	9.8887	-0.537	1.0687	1.5445	0.6604	-0.1981	-0.4203	0.8787	1.9239	9.5655	-0.3872	0.7721	0.4764	-0.1896	-1.2379	-0.4352	9.6587	-0.8178	-0.4839	4.7002	0.9958	-0.158	-1.5632	0.2718	1.2328
0.55	1.8361	9.4713	-0.3842	0.7265	1.6914	0.6784	-0.1921	-0.4203	0.7608	1.5232	9.3841	-0.0488	0.7362	0.3528	-0.1463	-1.2415	-0.3813	9.4935	-0.8739	-0.1958	4.2496	0.9959	0.1593	-1.6162	0.3774	1.2207
1.0018	1.3741	8.9473	-0.2612	0.8433	1.5975	0.6724	-0.1921	-0.4143	0.3675	1.6969	9.9109	-0.3256	0.7711	0.4765	-0.1606	-1.2411	-0.3814	9.6121	-0.8732	0.0399	4.1585	1.1498	0.2888	-1.5976	0.2857	1.267
1.3052	1.6055	9.7809	-0.4211	0.6661	1.5089	0.6664	-0.1981	-0.4323	0.7028	2.153	9.4436	-0.3537	0.8948	0.386	-0.1743	-1.2775	-0.4157	9.5517	-1.6771	-0.1975	3.8057	1.0872	0.8489	-1.598	0.3051	1.2468
0.7889	1.5492	9.8889	-0.2045	0.5961	1.5642	0.6844	-0.1921	-0.4083	0.7622	1.4088	9.4433	-0.5049	1.0205	0.2953	-0.1607	-1.2403	-0.3993	10.0592	-0.8756	-0.4178	3.5128	0.963	1.3136	-1.5982	0.2895	1.2303
0.7852	1.0887	9.6513	-0.1858	0.4715	1.197	0.6904	-0.1981	-0.4083	0.8299	1.6959	9.9798	-0.23	0.8934	0.2008	-0.1312	-1.2957	-0.4682	9.95	-1.0467	-0.1872	3.3953	0.8396	1.4357	-1.5802	0.3031	1.2654
0.7299	1.6641	9.8289	-0.3259	0.7235	1.5679	0.6784	-0.1981	-0.4143	0.9988	1.4089	9.7451	-0.7475	1.179	0.1124	-0.1747	-1.2583	-0.4165	9.5009	-1.2742	0.1529	3.1527	1.2091	1.7593	-1.581	0.3421	1.225
0.9652	1.5493	10.0695	-0.2759	0.7197	1.1396	0.6844	-0.1861	-0.4263	0.873	1.8088	9.2682	-0.4132	0.9282	-0.015	-0.1604	-1.2587	-0.4163	9.3719	-1.2193	-0.6078	2.6911	1.4876	1.7765	-1.581	0.3421	1.225
0.718	1.4326	9.1782	-0.282	0.5054	1.047	0.6724	-0.2041	-0.4023	0.5922	1.1806	9.5581	-0.6273	1.0534	0.2648	-0.1616	-1.2019	-0.4008	9.8972	-1.5622	-0.0152	2.2024	1.7658	1.9483	-1.5988	0.2934	1.1937
0.7883	1.8942	9.8897	-0.0338	0.6783	0.9809	0.6784	-0.1981	-0.3963	0.8272	1.8101	9.8612	-0.6547	1.178	-0.0419	-0.2041	-1.2198	-0.4004	9.7192	-0.8173	-0.3077	1.7317	2.015	1.5333	-1.5625	0.3186	1.2821
0.782	1.6634	9.5345	-0.5262	0.5771	1.1143	0.6604	-0.1921	-0.4203	0.8741	1.8662	9.3277	-0.5004	1.2359	0.1756	-0.1743	-1.2775	-0.4157	9.6623	-1.6205	-0.3701	1.4567	2.4156	1.7969	-1.5815	0.3791	1.203
0.794	1.2048	10.1244	-0.2184	0.7166	0.9856	0.6784	-0.2041	-0.4143	0.6521	1.7531	9.7387	-0.7457	1.2712	0.0832	-0.1882	-1.2963	-0.415	9.376	-0.8743	-0.3731	1.2411	2.601	1.8373	-1.5458	0.3399	1.2439
0.8961	1.663	9.4776	-0.2975	0.3817	0.5585	0.6664	-0.1801	-0.4023	0.8859	1.8673	9.9219	-0.5877	1.5435	0.3971	-0.1742	-1.2782	-0.3978	9.2761	-1.1585	0.3238	0.4495	2.8795	2.1077	-1.5984	0.3246	1.2266
0.8373	1.663	9.4174	-0.1447	0.4361	0.4636	0.6724	-0.1981	-0.4083	0.7139	1.9823	9.978	-0.4324	1.5724	0.1817	-0.1748	-1.2575	-0.4343	9.4966	-0.7012	-0.0201	-0.0533	2.7861	2.7624	-1.5979	0.3383	1.2614
0.7237	1.3758	9.4736	-0.3901	0.3856	0.5608	0.6664	-0.2041	-0.4023	0.8769	1.1795	9.3858	-0.2472	1.6601	0.4925	-0.1453	-1.2968	-0.4326	9.6604	-1.1618	-0.4268	-0.3515	2.7858	3.0766	-1.5803	0.2699	1.2508
0.7236	1.4333	9.4737	-0.5786	0.393	0.4434	0.6604	-0.1801	-0.4083	0.4745	1.6958	9.4973	0.064	1.8089	0.3412	-0.1608	-1.2395	-0.4171	9.3782	-1.5625	-0.3173	-1.0107	2.6318	3.5169	-1.5284	0.3067	1.2296
1.0666	1.7199	9.3629	-0.151	0.3134	0.3105	0.6664	-0.1981	-0.4083	0.7068	1.9816	9.6215	-1.0462	1.705	0.3374	-0.16	-1.2779	-0.4156	8.9794	-1.1027	-0.2652	-1.1165	2.4143	4.0985	-1.5455	0.2873	1.2495
0.6105	1.4913	9.5898	-0.204	0.1903	-0.421	0.6664	-0.1801	-0.4203	0.7069	1.9244	9.6214	-0.7066	1.7305	0.215	-0.1459	-1.2768	-0.4512	9.3805	-1.5621	-0.2005	-1.1907	1.9812	4.5808	-1.6157	0.2896	1.23
1.248	1.3756	9.7792	-0.4483	0.3534	-0.4141	0.6724	-0.1921	-0.4083	0.6553	1.4099	9.8568	-0.2131	1.8134	0.4026	-0.1461	-1.2592	-0.4162	9.4894	-1.2189	-0.4304	-1.1702	1.6089	5.2479	-1.6162	0.3266	1.208
0.7848	1.3187	9.6519	-0.3609	0.288	-0.5692	0.6784	-0.2101	-0.3963	0.8794	1.6377	9.5649	-0.6173	1.5753	0.2432	-0.1455	-1.2791	-0.3976	9.4941	-1.2754	-0.1972	-1.1622	1.4847	5.5216	-1.5983	0.3578	1.2412
1.0773	1.4337	9.8942	-0.1916	0.5272	-0.1753	0.6604	-0.2041	-0.4143	0.7588	1.3513	9.2649	-0.1987	0.9535	0.3873	-0.1607	-1.2403	-0.3993	9.8982	-1.5047	0.0434	-1.1748	1.4205	6.2906	-1.6503	0.2879	1.2478
0.5529	1.4914	9.5887	-0.7428	0.795	-0.1604	0.6724	-0.1861	-0.4143	0.5845	1.924	9.2625	-0.303	0.3709	0.6238	-0.1604	-1.2587	-0.4163	9.2653	-1.5621	-0.2612	-0.741	1.3261	6.5258	-1.6153	0.3209	1.2629
1.0207	1.4914	9.9523	-0.3739	0.9013	-0.2908	0.6604	-0.1741	-0.4203	0.7106	1.8675	9.7995	-0.3042	0.2495	0.3128	-0.2029	-1.2766	-0.4159	9.375	-0.9893	-0.4319	-0.4062	1.6945	6.7454	-1.6156	0.3228	1.2446
0.7273	1.2613	9.6506	-0.1785	1.1998	-0.1108	0.6664	-0.1981	-0.4143	0.9964	1.9238	9.6867	-0.1309	-0.3072	0.5502	-0.1896	-1.2379	-0.4352	9.7167	-1.3915	-0.4848	-0.0559	1.7529	7.449	-1.6332	0.3073	1.2279
0.4387	1.4918	9.6456	-0.6447	0.9747	-0.0702	0.6904	-0.1921	-0.4203	0.7078	1.0658	9.5602	-0.4813	-0.8854	0.7555	-0.1741	-1.279	-0.38	9.2079	-1.3325	-0.2615	0.5215	2.2131	7.6664	-1.6152	0.3033	1.2648
1.0754	1.2034	9.7754	-0.646	0.9441	-0.1009	0.6784	-0.1981	-0.4083	0.5347	1.1235	9.5568	-0.1727	-0.8896	0.5089	-0.1319	-1.2588	-0.434	9.4907	-1.276	-0.3723	0.8995	2.3641	8.3104	-1.5635	0.3244	1.2272
0.7811	1.4907	9.475	-0.4282	0.9962	-0.0754	0.6724	-0.1801	-0.4083	0.6484	1.81	9.5605	-0.0829	-1.0142	0.5686	-0.1601	-1.2772	-0.4334	9.8991	-1.3324	0.1024	1.1087	2.6103	8.2824	-1.6165	0.3286	1.1897
0.7889	1.5492	9.8889	-0.5578	0.8787	-0.2254	0.6724	-0.1981	-0.3963	1.0502	2.0378	9.5099	-1.3748	-0.9914	0.3814	-0.1746	-1.2752	-0.4693	10.126	-1.2756	0.0488	1.451	2.7007	8.6481	-1.599	0.3285	1.1899
0.9582	1.6635	9.7152	-0.5457	0.4178	-0.625	0.6664	-0.1801	-0.3963	0.537	1.6389	9.7361	-1.3757	-0.9925	0.6285	-0.1749	-1.2568	-0.4522	10.2983	-1.333	0.1104	1.5179	2.8535	9.021	-1.6324	0.2683	1.2683
1.0699	1.7778	9.5404	-0.3482	0.2542	-1.2103	0.6724	-0.1921	-0.4023	1.1072	1.8086	9.4512	0.1321	-1.0483	0.5066	-0.1748	-1.2575	-0.4343	10.062	-1.2194	-0.3023	1.5807	3.0991	9.2733	-1.6154	0.3384	1.2611
1.0706	1.3754	9.5394	0.0737	-0.1616	-1.345	0.6664	-0.1741	-0.4143	0.6525	1.5814	9.7383	-0.974	-0.9975	0.1967	-0.1464	-1.2407	-0.3991	10.1772	-1.2193	-0.2417	0.9174	3.1303	9.6573	-1.6162	0.3266	1.208
0.9598	1.4336	9.7737	-0.1536	-1.0126	-2.351	0.6844	-0.1861	-0.4083	0.5348	1.5814	9.6171	-1.711	-0.923	0.0732	-0.1601	-1.2772	-0.4334	9.5466	-1.3337	-0.4297	0.3987	3.1931	9.7003	-1.6336	0.3267	1.2077
0.8478	1.4917	9.9489	-0.1102	-1.5967	-2.6605	0.6724	-0.1921	-0.4263	0.7558	2.0951	9.207	-0.881	-0.9982	0.0115	-0.1313	-1.2788	-0.4153	9.9459	-1.3917	-0.4219	-0.2163	3.2569	9.5295	-1.5812	0.3772	1.2213
0.9024	1.2612	9.7722	0.2293	-1.4584	-2.7595	0.6784	-0.1981	-0.4083	0.8269	1.4666	9.8011	-1.001	-0.8424	-0.0477	-0.1174	-1.26	-0.416	9.5995	-1.6214	-0.663	-1.0139	3.3826	9.4257	-1.6508	0.3249	1.2257
0.7858	1.3763	9.7111	0.0421	-1.5729	-2.7556	0.6784	-0.1861	-0.4083	0.3054	1.5821	9.6718	-0.6001	-0.8183	-0.1083	-0.1324	-1.2227	-0.3819	9.712	-1.335	-0.7181	-2.0654	3.6334	8.9607	-1.5813	0.344	1.2067
0.7825	1.3759	9.5338	0.2145	-1.6431	-3.1873	0.6664	-0.1921	-0.4143	0.5339	1.4669	9.5575	-0.7778	-0.4769	-0.2569	-0.1459	-1.2768	-0.4512	9.887	-1.6215	-0.5406	-2.932	3.9758	8.6488	-1.6332	0.3073	1.2279
0.7283	1.3189	9.7099	0.6042	-1.6916	-3.5936	0.6664	-0.1741	-0.4083	0.4257	2.441	10.0324	-0.1572	-0.2413	-0.3752	-0.1458	-1.2776	-0.4333	9.9445	-1.2198	-0.4796	-3.9105	4.1016	8.6411	-1.6867	0.3816	1.1829
0.9568	1.2032	9.5959	0.409	-1.3447	-3.0378	0.6724	-0.1801	-0.4263	0.6478	2.0389	9.561	-0.2465	-0.0561	-0.2485	-0.1748	-1.2575	-0.4343	9.7189	-1.3338	-0.3679	-4.8216	4.3493	9.0055	-1.6509	0.3425	1.2239
1.0733	1.7782	9.7177	0.796	-0.9618	-2.6789	0.6784	-0.1921	-0.4023	0.5365	1.3526	9.6761	-0.5658	-0.6646	-0.2908	-0.2028	-1.2774	-0.3981	9.4882	-1.1617	-0.4886	-5.7028	4.4432	9.2415	-1.6694	0.3659	1.1667
0.9539	1.5479	9.4785	0.767	-0.6553	-2.7985	0.6724	-0.1981	-0.4143	0.5405	1.6965	9.9145	0.1427	-0.5859	0.0207	-0.1751	-1.2391	-0.4172	9.6635	-1.6776	-0.312	-6.3066	4.5361	9.5953	-1.6331	0.3404	1.2425
1.0133	1.8356	9.5985	0.5758	-0.9532	-2.826	0.6844	-0.2041	-0.3963	0.9994	1.6379	9.805	0.0175	-0.7063	-0.0435	-0.1737	-1.2974	-0.3971	9.4861	-1.2769	-0.6057	-6.8937	4.5386	9.268	-1.6511	0.3268	1.2074
1.1884	1.8355	9.7201	0.6844	-0.5588	-2.4908	0.6604	-0.1921	-0.4203	0.9337	2.038	9.4481	0.1143	-0.4925	-0.163	-0.1896	-1.2379	-0.4352	9.7112	-1.5647	-0.7772	-7.2303	4.6627	9.3091	-1.5639	0.3439	1.207
0.7226	1.3757	9.4145	0.6968	-0.4659	-2.094	0.6784	-0.1921	-0.4083	0.8813	2.3248	9.7446	0.1165	-0.3699	-0.1299	-0.1465	-1.24	-0.417	8.9753	-1.4477	-0.4999	-7.5119	5.0028	9.232	-1.6164	0.3617	1.2043
1.0107	1.3752	9.4201	0.4606	-0.0274	-1.9637	0.6664	-0.1861	-0.4203	0.7085	1.7528	9.6804	-0.1564	-0.1504	-0.0956	-0.2024	-1.2966	-0.3973	9.6037	-1.3338	-0.4286	-7.5162	5.3418	9.2726	-1.5986	0.3597	1.2229
0.4939	1.6064	9.5288	0.6111	-0.1563	-2.0292	0.6784	-0.1921	-0.4083	0.9996	1.5807	9.8049	-0.0614	-0.0588	-0.3718	-0.1749	-1.2406	-0.3815	9.6625	-1.7352	-0.3705	-7.6148	5.7737	9.2561	-1.5996	0.3831	1.166
0.7907	1.7794	10.0076	0.6164	0.0579	-1.967	0.6604	-0.2041	-0.3963	0.9372	2.0383	9.6264	0.0925	-0.0013	-0.0616	-0.1888	-1.2755	-0.4515	9.7147	-1.6214	-0.6024	-7.6194	5.9897	9.2007	-1.6516	0.3639	1.1853
0.7814	1.3183	9.4746	0.5901	0.0291	-1.7835	0.6784	-0.1801	-0.4263	0.5914	1.5239	9.5588	-0.7096	-0.1401	-0.3126	-0.1899	-1.2195	-0.4181	9.602	-1.7358	-0.5467	-7.2898	6.0205	8.9484	-1.5818	0.381	1.1846
1.0207	1.4914	9.9523	0.9824	0.1334	-2.189	0.6784	-0.1861	-0.4023	0.8778	1.8093	9.5059	-0.0343	-0.2137	-0.1583	-0.1888	-1.2755	-0.4515	9.6087	-1.6198	-0.1962	-7.3462	5.897	9.0693	-1.6162	0.3266	1.208
0.8928	0.9725	9.2396	0.9624	0.1359	-1.792	0.6604	-0.1861	-0.4023	0.9958	1.1796	9.5664	0.0867	-0.2782	0.0878	-0.1745	-1.276	-0.4514	9.6661	-1.1608	-0.135	-7.1953	5.9583	9.0372	-1.6343	0.3813	1.1838
0.782	1.6634	9.5345	1.0303	0.3475	-1.7009	0.6724	-0.1921	-0.4143	0.706	1.8098	9.5617	0.5516	-0.1322	-0.0014	-0.1742	-1.2782	-0.3978	9.6108	-1.5046	-0.0791	-7.0066	5.711	9.1188	-1.651	0.3093	1.2093
1.1982	1.3767	10.1918	0.743	0.3886	-2.0597	0.6724	-0.1801	-0.4203	0.8192	1.6949	9.445	0.3022	-0.3118	-0.0977	-0.1312	-1.2795	-0.3975	9.838	-1.6199	-0.1333	-6.5427	5.6473	9.3543	-1.6339	0.3794	1.2021
0.6132	1.2041	9.7073	1.5755	0.5672	-2.2315	0.6784	-0.1861	-0.3963	0.8767	1.7519	9.4463	-0.1903	-0.3335	-0.2225	-0.1888	-1.2594	-0.3809	9.6651	-1.2183	-0.1936	-6.7212	5.4318	9.4134	-1.5987	0.3773	1.221
1.1376	1.779	10.0735	2.0304	0.4249	-2.4569	0.6904	-0.1861	-0.3963	0.7103	1.524	9.7394	0.12	-0.2158	-0.2816	-0.1316	-1.2603	-0.3983	9.6116	-2.0209	-0.0809	-6.3517	5.0613	9.303	-1.6163	0.3949	1.2188
0.6659	2.1235	9.5334	2.0814	0.2382	-2.7338	0.6844	-0.1861	-0.4023	0.7098	2.2109	9.8002	0.4567	-0.2837	-0.0969	-0.1597	-1.2794	-0.3799	9.7222	-2.0217	-0.2537	-6.1127	5.0307	9.0507	-1.6163	0.3442	1.2061
0.5598	1.3773	9.9431	2.2555	-0.0759	-2.9533	0.6784	-0.2041	-0.4203	1.1097	1.7516	9.5699	0.6426	-0.2253	-0.1264	-0.189	-1.2579	-0.4166	9.6081	-1.2756	-0.1949	-5.665	4.8158	8.45	-1.6004	0.422	1.1257
0.7259	1.4336	9.5919	2.7903	-0.3759	-3.5477	0.6724	-0.1861	-0.4083	0.8258	1.9245	9.802	0.5812	-0.2542	-0.3124	-0.1606	-1.2572	-0.4521	9.9469	-1.2768	-0.3631	-5.5268	4.7254	7.7357	-1.616	0.393	1.2372
0.6087	1.2611	9.4711	3.3073	-0.3987	-3.8349	0.6664	-0.1921	-0.4143	0.65	1.6384	9.6196	-0.127	-0.2425	-0.2207	-0.16	-1.2779	-0.4156	9.6698	-1.3322	0.0394	-5.0531	4.5418	6.9504	-1.6347	0.3501	1.1509
1.0076	1.8924	9.3031	2.9977	-0.4469	-3.8277	0.6604	-0.2041	-0.4083	0.6495	1.3521	9.5596	1.1382	-0.1099	-0.3706	-0.1317	-1.2596	-0.4161	9.8915	-1.5633	-0.307	-5.0303	4.5122	6.5792	-1.6695	0.4342	1.1776
1.0165	1.3184	9.7155	2.7654	-0.8057	-4.1902	0.6604	-0.1861	-0.4083	0.4133	1.6956	9.3179	0.6395	-0.4091	-0.2224	-0.1739	-1.2967	-0.4149	9.7835	-1.7915	-0.0183	-4.5233	4.2359	5.8522	-1.6343	0.3813	1.1838
0.444	1.6649	9.9415	3.269	-0.7338	-3.8969	0.6784	-0.1921	-0.4143	0.5897	1.7528	9.4998	0.2424	-0.1887	0.0897	-0.2172	-1.2762	-0.416	9.7876	-1.5039	0.2162	-4.3419	3.9281	5.5624	-1.6691	0.4147	1.1978
0.7246	1.491	9.533	2.8375	-0.5936	-3.9467	0.6664	-0.1861	-0.4263	0.5911	1.6384	9.559	0.7996	-0.0742	-0.1852	-0.1745	-1.2598	-0.3807	10.0649	-1.5631	-0.1868	-4.2178	3.5584	5.3953	-1.617	0.4163	1.1803
1.1852	1.7776	9.5426	2.5449	-0.4264	-3.4505	0.6784	-0.1861	-0.3903	1.3403	1.7511	9.5747	0.278	0.0265	-0.1226	-0.1456	-1.2783	-0.4155	9.7328	-1.446	0.3319	-4.1327	3.1593	4.8273	-1.6168	0.3812	1.1841
1.0735	2.2958	9.7781	2.1128	-0.7134	-3.2586	0.6604	-0.1921	-0.4023	0.7697	1.753	9.8599	0.8648	0.109	-0.2127	-0.1608	-1.2395	-0.4171	10.1765	-1.5064	-0.301	-4.0516	2.9454	4.2031	-1.6334	0.3931	1.2369
1.4213	1.7779	9.8427	1.4847	-0.013	-2.9342	0.6604	-0.1981	-0.4083	0.9457	1.9819	10.0422	0.2152	-0.0039	0.0621	-0.1462	-1.2584	-0.4341	10.0704	-1.4474	0.1054	-3.785	2.6077	3.6025	-1.6523	0.436	1.1596
0.7302	1.4917	9.8285	0.24	0.3472	-2.3528	0.6724	-0.2101	-0.4143	0.7681	1.9246	9.8008	0.4315	-0.0066	-0.1847	-0.1745	-1.2598	-0.3807	9.7902	-1.7329	0.332	-3.559	2.5791	2.7649	-1.6517	0.3814	1.1835
1.0696	1.9503	9.5408	1.2082	0.461	-2.0401	0.6664	-0.1921	-0.4083	1.0011	1.9243	9.9244	-0.1268	-0.2423	-0.2825	-0.175	-1.2399	-0.3994	10.4106	-1.6204	-0.0051	-3.6473	2.8603	1.7266	-1.634	0.3969	1.2002
0.9001	1.951	9.7148	0.1589	0.5354	-2.0447	0.6664	-0.2041	-0.4083	1.0643	1.5812	10.1626	0.0031	0.1237	-0.214	-0.1309	-1.298	-0.4146	9.8978	-1.2178	0.0444	-3.9363	2.8325	1.0535	-1.6345	0.4164	1.18
0.7836	1.376	9.5929	-0.2431	0.3996	-1.9747	0.6664	-0.1921	-0.3963	0.8794	1.6377	9.5649	0.957	0.1073	-0.1817	-0.2028	-1.2774	-0.3981	10.1818	-1.2185	-0.0082	-3.6365	2.5865	0.6397	-1.5821	0.4337	1.1791
0.6066	1.7784	9.4132	-0.516	0.3507	-1.7548	0.6604	-0.1861	-0.4083	0.7032	1.9813	9.4432	0.4654	0.2066	0.0971	-0.1597	-1.2963	-0.4327	10.0689	-1.9641	-0.0132	-3.8306	2.5579	0.1188	-1.5995	0.4162	1.1806
1.0156	1.7783	9.7166	-0.7249	0.086	-1.3241	0.6844	-0.1981	-0.4083	0.5927	1.982	9.6785	0.9343	0.5974	0.1667	-0.1607	-1.2564	-0.4699	10.1271	-1.218	0.1073	-3.6376	2.376	-0.9383	-1.6345	0.4164	1.18
0.6696	1.8939	9.7101	-1.4684	0.2387	-1.4882	0.6664	-0.1981	-0.4083	0.9924	1.58	9.4484	1.184	0.8375	0.4803	-0.1309	-1.298	-0.4146	9.9564	-1.5045	0.1029	-3.6879	2.4714	-1.7669	-1.6523	0.436	1.1596
0.9594	1.6061	9.7742	-1.6556	-0.0284	-1.3937	0.6664	-0.1861	-0.4023	0.4722	2.1535	9.4388	1.654	1.2595	0.4269	-0.1897	-1.2372	-0.4531	10.1248	-1.2184	-0.0094	-3.4272	2.5344	-2.356	-1.6342	0.432	1.1965
0.8421	1.491	9.6534	-1.3134	-0.3168	-1.1291	0.6664	-0.1861	-0.4143	0.706	1.8098	9.5617	1.3186	1.4489	0.5532	-0.16	-1.2779	-0.4156	10.1222	-1.7927	-0.1865	-2.9583	2.3516	-3.357	-1.6343	0.3813	1.1838
1.1286	1.8354	9.6008	-1.5227	-0.063	-1.031	0.6724	-0.1981	-0.4023	0.8253	1.6382	9.742	1.4748	1.539	0.4006	-0.1456	-1.2783	-0.4155	9.896	-1.5051	-0.0733	-2.8856	2.1083	-4.3826	-1.5995	0.4162	1.1806
0.7784	1.7779	9.3575	-1.9146	-0.0452	-0.6858	0.6664	-0.1921	-0.4083	0.706	1.8098	9.5617	-0.0647	1.5343	0.4596	-0.1744	-1.2606	-0.3629	9.5523	-1.2753	-0.1377	-2.3769	1.8932	-4.9846	-1.6872	0.4187	1.1609
0.7327	1.377	9.9464	-1.9999	0.234	-0.5906	0.6844	-0.1921	-0.4263	0.936	1.5802	9.5066	-0.0364	1.3808	0.3334	-0.1746	-1.2591	-0.3986	10.0206	-1.6755	0.4535	-1.9252	1.3701	-5.6251	-1.652	0.3834	1.1652
1.3059	1.2605	9.7801	-2.1124	0.3929	-0.2819	0.6724	-0.1981	-0.4143	1.1106	1.8662	9.6296	0.0923	1.7154	0.5558	-0.146	-1.2599	-0.3984	9.7855	-1.619	0.099	-1.5922	1.1236	-5.9163	-1.5821	0.3654	1.1682
1.4105	2.1791	9.3117	-2.107	0.5155	-0.1593	0.6664	-0.1981	-0.4083	0.6504	1.4667	9.6193	-0.5236	1.6955	0.4926	-0.1614	-1.2196	-0.4357	9.7842	-1.5045	0.0411	-0.8716	0.693	-6.7444	-1.6864	0.3797	1.2012
0.7858	1.3763	9.7111	-1.9758	0.5722	0.0819	0.6784	-0.1921	-0.4023	0.7121	1.7532	9.8587	-0.3045	1.8761	0.4653	-0.1457	-1.2614	-0.3627	9.6122	-1.6765	-0.0213	-0.5993	0.2928	-7.1312	-1.6337	0.3443	1.2058
0.9584	1.5485	9.7149	-2.2725	0.7389	0.4256	0.6664	-0.1861	-0.4083	0.5329	1.8675	9.5583	-0.153	1.7206	0.3084	-0.2168	-1.2954	-0.4153	10.0207	-1.7328	0.4533	-0.3334	-0.0449	-7.7627	-1.6336	0.3775	1.2204
0.7833	1.5485	9.5933	-2.1991	1.1342	0.6091	0.6784	-0.1741	-0.4143	1.2759	2.094	9.2771	-0.8017	1.5787	0.1812	-0.1323	-1.2396	-0.4347	9.4965	-1.3897	-0.0809	-0.3079	-0.2595	-8.1393	-1.6517	0.3814	1.1835
0.4324	1.8935	9.351	-2.2455	1.4435	0.9781	0.6724	-0.1681	-0.4203	0.6484	1.81	9.5605	-0.623	1.2685	0.2069	-0.1181	-1.2393	-0.4525	10.0677	-1.2183	-0.0105	-0.3136	-0.3816	-8.4817	-1.5993	0.3811	1.1844
0.7845	1.4911	9.6523	-2.2378	1.7494	1.0712	0.6784	-0.2041	-0.4143	0.7026	1.7522	9.3833	-1.3371	1.0032	0.4788	-0.1601	-1.2772	-0.4334	9.6201	-1.6177	0.3874	0.103	-0.4118	-8.9841	-1.6517	0.3814	1.1835
0.9551	1.5481	9.5376	-2.2032	1.8706	1.1321	0.6784	-0.1861	-0.4083	0.6507	1.8102	9.6794	-0.9753	0.568	0.2864	-0.1605	-1.258	-0.4342	9.668	-1.6195	-0.0783	0.4847	-0.2874	-9.5739	-1.6337	0.395	1.2186
0.84	1.4333	9.5351	-1.7767	1.7299	0.9989	0.6784	-0.2041	-0.3903	0.7066	1.5809	9.5613	-1.2203	0.6336	0.2871	-0.1461	-1.2592	-0.4162	9.729	-1.9631	0.0966	0.6035	-0.2565	-9.6987	-1.6163	0.3442	1.2061
1.0695	1.3752	9.4803	-1.7805	1.4549	1.0279	0.6724	-0.1921	-0.4143	1.2238	1.7512	9.5129	-1.2203	0.6636	0.4421	-0.2028	-1.2774	-0.3981	9.7333	-1.7902	0.3307	0.8994	0.0825	-9.8799	-1.6697	0.3678	1.1484
0.7881	1.3766	9.8293	-1.8963	1.6134	1.2146	0.6724	-0.1981	-0.4143	0.4129	1.8673	9.3182	-1.1256	0.7848	0.4444	-0.1744	-1.2606	-0.3629	9.6088	-1.6771	-0.1964	1.1773	0.0813	-9.7314	-1.669	0.3971	1.1997
0.7764	1.6052	9.2388	-1.4984	1.2607	1.2945	0.6724	-0.1801	-0.4143	0.9332	1.7517	9.3881	-1.5564	0.7923	0.4129	-0.1888	-1.2594	-0.3809	10.07	-1.2179	0.1062	1.2902	0.4208	-9.9089	-1.6348	0.4184	1.1617
1.2429	1.72	9.5436	-1.5302	1.1094	1.3554	0.6784	-0.1921	-0.4083	0.7075	1.6955	9.6209	-1.522	0.946	0.2304	-0.1889	-1.2748	-0.4694	9.6144	-1.6187	0.0956	1.3523	0.5742	-9.7516	-1.6342	0.3638	1.1856
0.502	1.4924	9.9422	-1.5931	0.9898	1.3867	0.6604	-0.1981	-0.4083	0.5894	1.352	9.4396	-1.4879	1.1594	0.4505	-0.1173	-1.2769	-0.4688	9.2112	-1.2746	-0.0862	1.4781	0.6348	-9.5366	-1.6348	0.4184	1.1617
0.9548	1.663	9.5379	-1.535	0.9258	1.2934	0.6724	-0.1921	-0.4083	0.5955	1.8106	9.797	-1.1442	1.3998	0.3009	-0.1889	-1.2586	-0.3987	9.2767	-1.56	0.3224	1.3919	0.6958	-9.2557	-1.6335	0.3599	1.2223
0.6074	1.3184	9.4121	-1.4441	0.9217	1.2302	0.6604	-0.1921	-0.3963	1.2222	1.9228	9.4538	-1.3642	1.218	0.6062	-0.1606	-1.2572	-0.4521	9.5067	-1.3305	0.4445	1.1877	0.5718	-8.9161	-1.6516	0.3639	1.1853
1.0072	1.4898	9.2431	-1.0442	1.0268	1.099	0.6844	-0.1801	-0.4143	0.9972	1.5804	9.686	-0.9943	1.2426	0.5764	-0.175	-1.2399	-0.3994	10.0705	-1.5047	0.1052	1.037	0.7257	-8.7237	-1.6168	0.3812	1.1841
0.9514	1.7201	9.3607	-0.9406	1.3292	1.3118	0.6484	-0.1981	-0.4143	0.365	1.7539	9.7922	-1.152	1.0006	0.3556	-0.1456	-1.2952	-0.4683	9.4988	-1.3893	0.0358	0.78	0.7852	-7.8846	-1.6334	0.3424	1.2241
1.1859	1.3752	9.5417	-1.3451	1.3457	1.1997	0.6784	-0.1861	-0.4023	1.4014	1.2933	9.6938	-1.2798	0.8171	0.6918	-0.16	-1.2779	-0.4156	9.6659	-1.7346	-0.1955	0.6387	0.5378	-7.5497	-1.6342	0.3638	1.1856
0.9613	1.8364	9.8929	-1.0598	1.4874	1.3766	0.6664	-0.1861	-0.4143	1.0548	1.5803	9.6872	-1.68	0.7338	0.2264	-0.1748	-1.2414	-0.3636	9.6713	-1.5615	0.0969	0.244	0.6922	-7.3525	-1.6516	0.4146	1.1981
0.9561	1.6057	9.5968	-1.4593	1.5959	1.3869	0.6724	-0.1861	-0.4083	0.9911	1.6371	9.3891	-0.4533	0.4977	0.2861	-0.147	-1.22	-0.4356	9.3874	-1.6182	0.1494	-0.2602	0.4145	-6.8879	-1.6689	0.3796	1.2015
1.1326	1.4333	9.7771	-1.5839	1.6314	1.3292	0.6784	-0.1921	-0.4083	1.058	1.7523	9.8658	-1.1031	0.3246	0.2818	-0.1461	-1.2592	-0.4162	9.6751	-1.7903	0.2712	-0.468	0.5371	-6.5412	-1.5993	0.3304	1.1716
1.3047	1.893	9.7816	-0.748	1.5663	1.4305	0.6724	-0.1921	-0.4143	0.8821	1.9814	9.7439	-1.6291	0.2101	0.4333	-0.1882	-1.2963	-0.415	9.497	-0.9306	-0.0209	-0.646	0.5676	-6.2901	-1.6171	0.3324	1.153
0.8394	1.1457	9.4753	-1.0975	1.4269	1.1636	0.6844	-0.1921	-0.3903	1.2863	1.6943	9.7516	-1.0414	0.2936	0.0961	-0.1456	-1.2622	-0.3448	9.667	-0.9885	-0.076	-1.0386	0.7217	-6.0004	-1.5998	0.3674	1.1496
0.6701	1.664	9.7096	-0.9766	1.1774	1.2203	0.6664	-0.1981	-0.4263	1.1724	1.6375	9.8086	-1.5062	0.1478	0.1544	-0.1605	-1.258	-0.4342	9.665	-1.161	-0.1934	-1.1618	1.1221	-5.7708	-1.5991	0.346	1.1881
0.9504	1.6625	9.3015	-0.7555	1.3215	1.3072	0.6724	-0.1921	-0.4323	0.4774	1.4671	9.6157	-1.0708	0.4159	0.3453	-0.1172	-1.2615	-0.3803	9.727	-1.3897	0.0404	-1.4671	1.4612	-5.5392	-1.5988	0.2934	1.1937
1.3075	1.6058	9.8991	-1.0322	1.2417	1.405	0.6664	-0.2041	-0.3963	0.9936	2.0953	9.5682	-0.7613	0.5027	0.3474	-0.1454	-1.2799	-0.3797	9.7233	-1.2182	-0.1341	-1.6537	1.8005	-5.4641	-1.6346	0.3833	1.1655
0.5412	1.72	8.9982	-0.8992	1.3596	1.677	0.6784	-0.1981	-0.4083	0.6983	2.038	9.2057	-1.1618	0.4489	0.1604	-0.1601	-1.2772	-0.4334	9.7328	-0.7574	0.3928	-2.1474	2.0487	-5.5397	-1.5824	0.3673	1.1499
1.1277	1.6627	9.5412	-0.9799	1.9139	1.7737	0.6844	-0.1981	-0.3963	0.7706	1.8676	9.9195	-1.0762	0.1394	0.4021	-0.1741	-1.2952	-0.4506	9.8458	-1.5037	0.2757	-2.4743	2.2019	-5.0355	-1.6518	0.3483	1.1689
0.7274	1.2038	9.6505	-1.523	1.969	2.2143	0.6784	-0.1981	-0.4143	0.8783	2.0956	9.5659	-1.0497	-0.1061	0.2742	-0.1733	-1.3166	-0.3963	9.6654	-1.4478	-0.1944	-3.446	2.3267	-4.7351	-1.5635	0.3244	1.2272
0.7272	1.3188	9.6508	-1.334	1.9921	2.3319	0.6604	-0.1981	-0.4143	0.6479	1.5237	9.5005	-1.2077	-0.2884	0.456	-0.1745	-1.276	-0.4514	9.3808	-1.7915	-0.2014	-4.1678	2.0501	-4.4511	-1.6161	0.3598	1.2226
0.7824	1.4334	9.534	-1.3976	1.9335	2.3026	0.6664	-0.1981	-0.4023	1.0527	1.4656	9.5682	-1.0579	-0.5059	0.4524	-0.1319	-1.2588	-0.434	9.7253	-1.7916	-0.0778	-4.8954	1.8974	-4.3485	-1.5994	0.348	1.1698
0.7822	1.5484	9.5342	-1.3627	2.0242	2.3938	0.6724	-0.1921	-0.4143	0.8226	1.7524	9.6234	-0.9336	-0.5366	-0.0421	-0.1597	-1.2963	-0.4327	9.734	-1.5032	0.3901	-5.6573	2.2683	-4.0452	-1.5995	0.3655	1.1679
0.9479	1.7772	9.1835	-1.5677	2.1869	2.7048	0.6724	-0.1801	-0.4083	0.6527	1.4669	9.7381	-0.6914	-0.7254	0.0785	-0.1744	-1.2767	-0.4336	9.4971	-1.7339	-0.0822	-5.9942	2.7307	-3.7787	-1.599	0.3792	1.2027
1.1891	1.4906	9.7193	-1.4456	2.1511	2.6711	0.6664	-0.1801	-0.4143	0.7051	1.6952	9.5021	0.356	-0.7421	-0.1979	-0.2034	-1.2575	-0.4167	9.6611	-1.5633	-0.4283	-6.5754	3.4398	-3.3461	-1.6337	0.3443	1.2058
1.0672	1.4324	9.3623	-1.0505	1.9811	2.5385	0.6664	-0.1981	-0.4083	1.0449	1.7511	9.2122	-0.8401	-0.4768	-0.0409	-0.1745	-1.276	-0.4514	9.7301	-1.9629	0.155	-6.7068	3.9336	-3.4218	-1.6154	0.2877	1.2484
0.8392	1.8932	9.5362	-1.4021	1.7195	2.271	0.6784	-0.1861	-0.4143	0.7003	1.6948	9.2644	-0.9601	-0.2909	0.0549	-0.1737	-1.2974	-0.3971	9.6115	-1.2176	-0.0197	-6.9162	4.3949	-2.9113	-1.6162	0.3266	1.208
0.782	1.6634	9.5345	-1.0634	1.6137	2.2926	0.6784	-0.1921	-0.4143	0.47	1.5809	9.2594	-0.4639	-0.1149	-0.0029	-0.1894	-1.2556	-0.4702	9.7842	-1.5045	0.0411	-7.1623	4.6726	-2.8059	-1.616	0.2915	1.2117
0.845	1.1464	9.7708	-1.0383	1.5202	2.1389	0.6724	-0.1981	-0.4083	0.4734	2.1536	9.4982	-1.4241	-0.406	0.0829	-0.1744	-1.2767	-0.4336	9.7796	-1.5053	-0.1923	-7.5008	5.0122	-2.697	-1.6159	0.3247	1.2263
0.7857	2.0664	9.7719	-0.7603	1.4781	2.1624	0.6724	-0.1801	-0.3963	0.8852	1.6955	9.8622	-0.2806	-0.1495	0.1822	-0.1461	-1.2592	-0.4162	10.0654	-1.9073	-0.1881	-7.9802	4.8891	-2.3827	-1.6337	0.3443	1.2058
1.1877	1.6054	9.6604	-0.8125	1.6953	2.3785	0.6784	-0.1981	-0.4203	0.9366	1.8093	9.5665	-0.2449	0.0657	-0.0301	-0.1604	-1.2587	-0.4163	9.6773	-1.7325	0.3881	-8.2476	4.7349	-2.166	-1.6169	0.3481	1.1695
0.7827	1.8935	9.5942	-0.6037	1.4109	2.2803	0.6844	-0.1981	-0.4023	0.9397	1.5233	9.6847	-0.615	0.011	-0.1244	-0.173	-1.335	-0.4134	9.718	-1.5061	-0.4269	-8.5262	4.9207	-2.2167	-1.5987	0.3265	1.2083
0.8961	1.663	9.4776	-0.7078	1.4745	1.8256	0.6784	-0.1921	-0.4143	0.8249	1.8099	9.7424	-0.6758	0.163	0.465	-0.1466	-1.2392	-0.4349	9.8444	-1.3319	0.2179	-8.9127	4.9816	-1.7141	-1.6513	0.3619	1.2037
0.5529	1.4914	9.5887	-0.2043	1.2978	1.1412	0.6664	-0.1981	-0.4083	0.8737	2.0379	9.3281	0.3691	-0.0066	0.0623	-0.2032	-1.2751	-0.4516	9.8408	-1.2751	0.0431	-8.9164	5.136	-1.7712	-1.6343	0.3306	1.171
1.0728	1.4331	9.6578	-0.0159	0.5536	0.5832	0.6664	-0.1801	-0.4143	1.2218	1.5793	9.3937	0.4639	0.1149	0.0029	-0.1603	-1.2595	-0.3985	9.5543	-1.1028	-0.0204	-8.9776	5.29	-1.6731	-1.5993	0.3304	1.1716
1.0736	1.6058	9.7173	0.059	-0.0013	0.2731	0.6844	-0.1981	-0.4143	0.5947	1.6388	9.7373	1.3176	-0.2392	0.4304	-0.1749	-1.2568	-0.4522	9.6124	-1.0453	0.0393	-8.9146	5.5663	-1.3891	-1.5831	0.3888	1.1114
1.1814	1.3746	9.3053	0.6392	0.065	-0.0152	0.6604	-0.1921	-0.4083	0.9379	2.2673	9.6862	0.8532	-0.4447	0.0862	-0.2034	-1.2575	-0.4167	9.6719	-1.1597	0.1568	-8.8627	5.9059	-1.5654	-1.5995	0.3148	1.1552
0.7229	1.2032	9.4141	0.3762	-0.14	-0.4675	0.6784	-0.1681	-0.4083	0.9367	1.752	9.5664	2.4512	-0.5946	0.0554	-0.1745	-1.276	-0.4514	9.103	-1.3881	0.2029	-8.7462	6.2755	-1.5571	-1.5995	0.3655	1.1679
0.7297	1.7791	9.8292	0.5176	-0.1173	-0.9589	0.6724	-0.1981	-0.4143	1.1118	1.8663	9.689	2.9397	-0.7875	0.1455	-0.1459	-1.2768	-0.4512	9.7322	-1.1018	0.3332	-8.4232	6.615	-1.893	-1.6336	0.3267	1.2077
0.9598	1.4336	9.7737	0.442	-0.2383	-1.3849	0.6724	-0.1861	-0.4143	0.8795	1.5805	9.5648	2.5329	-1.0887	0.3865	-0.1458	-1.2776	-0.4333	9.8985	-0.9308	0.1038	-8.5193	7.2003	-1.6894	-1.6349	0.3852	1.1471
0.7852	1.7213	9.712	0.6385	-0.463	-1.9706	0.6664	-0.1861	-0.4203	0.8195	1.5804	9.4448	2.029	-1.634	0.6847	-0.1608	-1.2395	-0.4171	9.838	-0.9314	-0.0724	-8.1599	7.6003	-1.716	-1.6352	0.3364	1.1161
0.7798	1.6056	9.4162	0.4089	-1.1007	-3.1889	0.6724	-0.1741	-0.4143	0.8279	1.066	9.8003	4.4026	-1.5495	0.1962	-0.1746	-1.2591	-0.3986	9.9055	-1.7329	0.3927	-7.9066	7.6597	-1.257	-1.6343	0.3306	1.171
1.08	1.7791	10.0723	0.5647	-1.7523	-3.8675	0.6724	-0.1861	-0.4023	0.7039	1.6951	9.4427	4.1606	-1.3604	0.0139	-0.1604	-1.2587	-0.4163	9.2747	-1.7325	0.205	-8.0357	8.184	-1.2086	-1.5645	0.297	1.1576
1.0101	1.7202	9.4209	0.7509	-2.4357	-4.5471	0.6724	-0.1981	-0.4203	0.5209	1.9235	8.9642	1.8872	-1.1071	0.0762	-0.146	-1.2599	-0.3984	9.7249	-1.5048	-0.0768	-7.7285	8.3982	-0.962	-1.6511	0.2761	1.1947
0.9543	1.9505	9.5386	1.012	-2.6322	-5.0427	0.6724	-0.1861	-0.4083	0.4755	1.7531	9.5569	1.4942	-0.732	0.0822	-0.1746	-1.2752	-0.4693	10.0666	-1.2185	-0.0689	-8.0355	8.5838	-0.9198	-1.5987	0.3265	1.2083
1.4153	2.0072	9.5477	1.4061	-2.8633	-5.1756	0.6664	-0.1861	-0.3963	0.6477	2.0961	9.5611	1.1027	-0.355	-0.3442	-0.1882	-1.2963	-0.415	9.73	-1.1596	0.2163	-8.0328	8.4911	-0.8608	-1.5992	0.3636	1.1862
0.7797	1.6631	9.4163	1.7639	-2.9716	-5.5815	0.6724	-0.1741	-0.4083	0.7079	1.5238	9.6206	-0.4023	-0.1459	-0.1886	-0.1871	-1.3361	-0.3778	9.9035	-1.2168	0.3362	-8.3719	8.4617	-1.0398	-1.6697	0.3171	1.1357
0.9579	1.2034	9.655	1.8561	-3.3416	-5.3723	0.6784	-0.1861	-0.4203	0.7108	1.8103	9.7994	-0.8628	-0.0467	-0.0023	-0.1461	-1.2592	-0.4162	9.5588	-1.102	0.213	-8.6435	8.4004	-0.9437	-1.5989	0.3109	1.1918
0.783	1.721	9.5938	2.1171	-3.3551	-5.9889	0.6784	-0.1921	-0.4023	0.9334	2.1524	9.4483	-0.4263	0.2227	-0.1203	-0.1594	-1.2979	-0.397	10.1213	-1.1617	-0.1842	-8.8627	8.3711	-1.2176	-1.6167	0.313	1.1732
0.5508	1.3762	9.4702	2.2858	-3.8832	-6.2706	0.6724	-0.1921	-0.4143	0.7061	1.7526	9.5616	-1.6556	0.3057	-0.2754	-0.1595	-1.2971	-0.4148	9.8413	-1.5619	0.042	-9.1322	8.1249	-1.1576	-1.6167	0.313	1.1732
1.0167	1.2034	9.7152	2.5154	-4.17	-6.7354	0.6544	-0.1981	-0.4143	0.6419	1.5231	9.2034	-1.2229	0.4205	-0.1182	-0.1888	-1.2594	-0.3809	9.837	-0.9889	-0.131	-9.1906	7.8171	-1.2577	-1.6347	0.2994	1.1381
1.0113	1.7203	9.48	2.5936	-4.7245	-6.9235	0.6724	-0.1801	-0.4023	1.1064	1.6368	9.3914	-1.8313	0.7994	-0.1433	-0.2023	-1.2973	-0.3794	9.7255	-1.2178	-0.0174	-9.2166	7.6012	-1.2016	-1.5998	0.3167	1.1368
0.7899	1.6068	9.9481	2.3371	-4.7458	-7.2529	0.6784	-0.1801	-0.4143	1.2286	2.2096	9.8109	-1.9236	0.741	-0.4843	-0.1748	-1.2575	-0.4343	9.7271	-1.5044	0.0399	-9.3131	7.2946	-1.64	-1.6344	0.2974	1.1565
0.7332	1.0895	9.9457	2.3309	-4.96	-7.3455	0.6544	-0.1861	-0.4143	1.1163	1.4661	9.8664	-2.5947	1.0896	-0.3557	-0.1455	-1.2791	-0.3976	9.3867	-1.1593	0.151	-9.8213	6.8329	-1.4889	-1.6345	0.315	1.1546
1.1287	1.7779	9.6006	2.8234	-4.9503	-7.4185	0.6904	-0.1801	-0.4143	0.8763	1.9236	9.4467	-2.6226	1.2135	-0.508	-0.1876	-1.3162	-0.3964	9.3803	-1.4473	-0.2001	-9.6016	6.1856	-1.6659	-1.6348	0.3169	1.1363
1.2961	1.6619	9.3082	2.4615	-4.9338	-7.1045	0.6664	-0.1921	-0.4143	1.1	1.35	9.0343	-3.1476	1.1303	-0.4795	-0.1451	-1.2983	-0.3968	9.9536	-1.1608	-0.0126	-9.5918	5.7535	-1.5243	-1.6173	0.3168	1.1366
1.0668	1.6049	9.3627	2.8839	-4.9788	-6.3219	0.6664	-0.1921	-0.4083	0.7158	1.6963	10.0369	-2.9376	0.7902	-0.7631	-0.1887	-1.2763	-0.4337	9.9603	-1.0448	0.338	-9.3366	5.136	-1.4546	-1.5825	0.3342	1.1353
1.4184	1.5475	9.6648	2.5558	-4.5973	-6.1287	0.6784	-0.1741	-0.4143	0.9296	1.7513	9.2098	-2.8459	0.7878	-0.5777	-0.2162	-1.3161	-0.3788	9.6149	-1.217	0.1554	-8.9842	4.3636	-1.2371	-1.6347	0.2994	1.1381
1.1833	1.5474	9.4239	1.9581	-4.2643	-5.5937	0.6664	-0.1921	-0.4203	0.8229	1.638	9.6232	-2.8221	0.449	-0.4293	-0.1594	-1.2979	-0.397	9.5508	-1.1034	-0.1955	-8.6928	3.8682	-0.8255	-1.6174	0.3344	1.1347
1.2354	1.5466	9.1295	2.6146	-4.382	-5.2443	0.6664	-0.1861	-0.4203	0.4794	1.639	9.7349	-2.4267	0.1667	-0.5881	-0.174	-1.2959	-0.4328	9.6161	-1.2741	0.2136	-8.2161	3.1259	-0.4863	-1.6168	0.2798	1.1586
0.9556	1.8932	9.5975	2.343	-4.1562	-5.1448	0.6544	-0.1921	-0.4143	1.2238	1.7512	9.5129	-2.0018	-0.1477	-0.562	-0.2026	-1.2951	-0.433	9.1646	-1.3873	0.4374	-7.6209	2.3839	-0.3036	-1.6516	0.3132	1.1726
0.7855	1.5488	9.7115	2.3672	-3.6655	-4.563	0.6664	-0.1861	-0.4263	0.7091	1.5239	9.68	-1.6324	-0.0938	-0.2825	-0.1455	-1.2791	-0.3976	9.3281	-0.8726	0.0926	-6.9626	1.9182	0.1631	-1.5823	0.3498	1.1517
1.0658	1.5473	9.3034	2.5449	-3.1813	-4.0154	0.6604	-0.1741	-0.4143	1.1078	2.0377	9.5111	-0.9562	-0.1964	-0.5302	-0.1746	-1.2752	-0.4693	9.4944	-1.5049	-0.1981	-6.2545	1.7002	0.2969	-1.6003	0.3538	1.1148
0.8428	1.7212	9.7131	2.2095	-3.2276	-3.8245	0.6544	-0.1861	-0.4083	0.7075	1.6955	9.6209	-1.2295	0.0527	-0.2483	-0.1304	-1.3179	-0.396	9.6186	-1.3885	0.3299	-5.3567	1.4499	0.7033	-1.6001	0.3187	1.1185
1.0165	1.3184	9.7155	2.2351	-2.7063	-3.212	0.6664	-0.1861	-0.4203	0.7069	1.9244	9.6214	-1.3479	0.2404	-0.5849	-0.1454	-1.2799	-0.3797	9.2169	-1.2735	0.2056	-4.2221	1.3539	0.8937	-1.6527	0.3365	1.1158
1.0778	1.7788	9.9541	2.1841	-2.3669	-3.0258	0.6664	-0.1741	-0.4323	0.5254	2.0385	9.2021	-1.8058	0.4326	-0.644	-0.1321	-1.2411	-0.399	9.8378	-1.5052	-0.1328	-3.2998	1.5043	1.3111	-1.6172	0.35	1.1511
0.9514	1.7201	9.3607	2.0467	-2.2061	-2.5029	0.6484	-0.1921	-0.4263	0.5368	1.7534	9.7363	-1.4389	0.3635	-0.3049	-0.1881	-1.297	-0.3972	9.4399	-0.9305	-0.022	-2.4057	1.2238	1.5318	-1.6351	0.3188	1.1179
1.1237	1.4322	9.3043	1.7846	-1.7657	-2.189	0.6604	-0.1861	-0.4203	0.8778	2.2672	9.5662	-1.4964	0.5494	-0.4561	-0.1601	-1.261	-0.3628	9.6058	-1.2186	-0.3114	-1.5708	0.8202	1.7502	-1.6525	0.3014	1.1195
0.9583	1.606	9.7151	1.703	-1.3641	-2.0322	0.6724	-0.1981	-0.4203	0.7626	1.7523	9.5034	-1.0331	0.6335	-0.4229	-0.1739	-1.2798	-0.3621	9.7285	-0.9303	0.1587	-1.2966	0.7888	1.713	-1.6168	0.2798	1.1586
0.8435	2.0088	9.7729	1.5638	-1.1119	-1.6307	0.6604	-0.1861	-0.4143	1.1147	1.6376	9.8074	-1.3767	0.4533	0.0057	-0.1747	-1.2583	-0.4165	9.5075	-1.7894	0.4428	-0.8047	0.7562	1.8563	-1.6172	0.2993	1.1384
0.9613	1.8364	9.8929	1.4908	-0.4958	-1.2899	0.6604	-0.1861	-0.4083	0.5361	1.5243	9.6764	-0.9506	0.1403	-0.308	-0.2027	-1.2782	-0.3802	9.4318	-1.5632	-0.4912	-0.7692	0.5093	1.9102	-1.6174	0.3344	1.1347
1.0709	1.8355	9.5996	0.9117	-0.3484	-1.0919	0.6604	-0.1861	-0.4023	0.4818	1.6393	9.8537	-0.4567	0.2236	-0.213	-0.1891	-1.2571	-0.4344	9.3176	-1.5056	-0.4933	-0.6654	0.4149	2.3987	-1.6348	0.3169	1.1363
0.8373	1.663	9.4174	0.5198	-0.3306	-0.7467	0.6544	-0.1801	-0.4383	0.6458	1.867	9.4418	-0.8922	0.0755	0.2469	-0.1604	-1.2587	-0.4163	9.5511	-1.2755	-0.1961	-0.776	-0.171	2.5074	-1.6529	0.3209	1.0993
1.1281	1.4903	9.5408	0.5074	0.0692	-0.317	0.6364	-0.1861	-0.4083	0.5375	1.9252	9.7961	-0.4623	0.0071	0.1846	-0.1451	-1.2983	-0.3968	9.7211	-1.276	-0.251	-0.5816	-0.3885	2.8672	-1.6166	0.2954	1.1751
0.6667	1.6636	9.5323	0.1833	0.3902	0.0588	0.6604	-0.1861	-0.4143	1.1162	1.5233	9.8666	0.5862	0.1418	0.4051	-0.1746	-1.2591	-0.3986	9.3872	-1.5034	0.1498	-0.5349	-1.16	3.0601	-1.6171	0.3324	1.153
1.1867	1.5478	9.6012	-0.0109	0.7982	0.615	0.6724	-0.1741	-0.4143	0.8209	1.9812	9.5644	-0.0885	0.1861	-0.0895	-0.1734	-1.3159	-0.4142	9.6127	-1.2748	0.0385	-0.3098	-1.2546	3.5152	-1.652	0.3326	1.1524
0.7823	1.4909	9.5341	-0.0647	0.7711	0.9212	0.6664	-0.1921	-0.4263	0.8232	1.5235	9.6229	0.4992	0.4197	0.379	-0.1885	-1.2778	-0.3979	9.728	-1.3321	0.0989	0.0323	-1.4718	3.6563	-1.5999	0.3343	1.135
1.1798	1.6619	9.2468	-0.0142	1.2906	1.3195	0.6544	-0.1861	-0.4143	0.7097	1.7529	9.7399	0.4986	0.359	0.2235	-0.1741	-1.279	-0.38	9.8964	-1.046	-0.0133	0.4103	-1.5053	4.1718	-1.6348	0.3169	1.1363
0.8985	1.5483	9.5956	-0.1631	1.2671	1.5366	0.6604	-0.1921	-0.4143	0.6458	1.867	9.4418	0.7439	0.3237	0.3159	-0.1601	-1.2772	-0.4334	9.7255	-1.1604	-0.0172	1.001	-1.7545	4.4919	-1.6516	0.3132	1.1726
1.3591	1.8349	9.6053	-0.0921	1.418	1.7798	0.6664	-0.1861	-0.4083	0.6448	1.8096	9.3823	1.1173	0.5324	0.2894	-0.1747	-1.2745	-0.4871	9.7895	-1.274	0.3337	1.6817	-1.5424	5.0701	-1.6526	0.3189	1.1176
0.7859	1.9514	9.7716	-0.0586	1.3255	1.9309	0.6724	-0.1921	-0.4263	0.9981	1.695	9.7457	0.9652	0.6271	0.2908	-0.1605	-1.258	-0.4342	9.6724	-1.5039	0.1555	1.9974	-1.4833	5.5894	-1.6698	0.3347	1.1338
1.2394	1.7771	9.3665	-0.1669	0.9921	1.5656	0.6604	-0.1681	-0.4143	0.7081	1.9245	9.6808	0.6611	0.8166	0.2628	-0.1593	-1.2986	-0.3791	9.4933	-1.5051	-0.2564	2.9146	-1.1783	5.888	-1.5822	0.3322	1.1536
1.1846	1.49	9.4828	-0.0199	0.9544	1.3177	0.6544	-0.1801	-0.4263	1.1064	2.152	9.4519	0.6292	0.7557	0.2617	-0.1605	-1.258	-0.4342	9.6067	-1.1037	-0.2527	3.3268	-1.0894	6.6529	-1.6347	0.2994	1.1381
1.071	1.778	9.5995	-0.1807	0.6245	1.2892	0.6484	-0.1981	-0.4143	0.9279	1.9801	9.1509	0.7587	1.1513	0.5778	-0.1889	-1.2586	-0.3987	9.2123	-1.217	-0.0277	3.5457	-0.8139	7.088	-1.6527	0.3365	1.1158
0.9572	1.6058	9.6559	-0.3366	0.6308	1.2321	0.6604	-0.1981	-0.4143	0.4811	1.4102	9.7938	0.2079	1.3145	0.518	-0.189	-1.2579	-0.4166	9.5002	-1.5038	0.0937	3.7999	-0.7239	7.6095	-1.6165	0.3286	1.1897
1.0191	1.7213	9.8938	-0.4357	0.9391	0.8092	0.6604	-0.1921	-0.4143	1.3968	1.7508	9.5164	-0.0407	1.1657	0.3913	-0.1597	-1.2963	-0.4327	9.4968	-1.5618	-0.0815	4.2977	-0.8804	7.9341	-1.6175	0.3519	1.1328
1.3021	1.4901	9.6033	-0.0803	0.7389	0.3723	0.6664	-0.1861	-0.4083	0.8861	1.2949	9.8613	0.5735	1.1238	0.577	-0.1455	-1.2791	-0.3976	9.4943	-1.3901	-0.1976	4.5831	-1.1596	8.2287	-1.5816	0.3459	1.1884
0.9576	2.0084	9.716	-0.0274	0.6133	0.1262	0.6604	-0.1921	-0.4083	0.7658	1.4092	9.6215	0.5478	1.3403	0.3028	-0.1597	-1.2794	-0.3799	9.5561	-1.5615	0.0363	4.5952	-1.469	8.5586	-1.6521	0.3502	1.1506
0.8941	1.5477	9.3592	0.1433	0.299	-0.2153	0.6664	-0.2161	-0.4023	0.6473	1.7526	9.501	0.5201	1.5545	0.5846	-0.1729	-1.3358	-0.3955	9.6598	-1.5062	-0.4864	4.7954	-1.8105	9.0997	-1.6529	0.3716	1.1121
0.9567	1.2607	9.596	-0.2648	0.3455	-0.4797	0.6604	-0.1981	-0.4203	0.8247	1.8671	9.7425	-0.1257	1.5961	0.6151	-0.1455	-1.2791	-0.3976	9.6043	-1.7353	-0.43	5.0443	-2.2732	8.9891	-1.6001	0.3694	1.1312
1.0692	1.5477	9.4807	0.0609	0.1163	-0.855	0.6364	-0.1801	-0.4143	0.8749	1.5228	9.327	-0.0953	1.5651	0.5528	-0.1601	-1.2772	-0.4334	9.5538	-1.5619	-0.0804	5.6066	-2.3997	9.4982	-1.6341	0.3462	1.1875
0.7761	1.7776	9.2393	0.5992	-0.1224	-1.3575	0.6664	-0.2041	-0.3963	0.7091	1.5239	9.68	-0.4037	1.5395	0.5827	-0.1319	-1.2588	-0.434	9.2085	-1.7341	-0.263	6.1586	-2.5553	9.5135	-1.6171	0.3324	1.153
1.1313	1.5482	9.7183	0.2853	-0.0796	-1.5632	0.6484	-0.1861	-0.4023	0.3067	1.525	9.7311	-0.2219	1.3831	0.5493	-0.1745	-1.276	-0.4514	9.3811	-1.9636	-0.202	6.6814	-2.4342	9.784	-1.6158	0.3072	1.2282
1.1299	1.7205	9.6596	0.7844	-0.4704	-2.2792	0.6604	-0.1921	-0.4083	0.7085	1.7528	9.6804	0.292	0.8831	0.5413	-0.1604	-1.2749	-0.487	9.6079	-1.8494	-0.2554	7.4829	-2.3759	10.2011	-1.599	0.3285	1.1899
1.02	1.8364	9.9531	0.626	-0.5559	-2.3674	0.6484	-0.1981	-0.4203	1.1095	1.3509	9.5097	0.1659	0.7616	0.7242	-0.1595	-1.2971	-0.4148	9.3908	-1.6175	0.3244	8.2106	-2.0387	10.227	-1.6168	0.3812	1.1841
1.0147	1.6632	9.6572	0.5722	-0.4304	-2.1518	0.6604	-0.1861	-0.4023	0.9395	1.5806	9.6849	0.9962	0.7468	0.8798	-0.189	-1.2579	-0.4166	9.7793	-1.3332	-0.1917	8.8508	-1.8865	10.311	-1.6347	0.4008	1.1636
1.1923	2.181	9.9574	0.7651	-0.1322	-2.0633	0.6664	-0.1861	-0.4083	1.1605	1.6363	9.2144	-0.2371	0.645	0.8759	-0.1594	-1.2979	-0.397	9.9451	-1.564	-0.4809	9.3399	-1.734	10.4597	-1.6345	0.3657	1.1673
0.9565	2.0083	9.6569	0.5756	0.5508	-1.5056	0.6604	-0.1981	-0.4323	1.2272	1.8088	9.6913	0.103	0.7012	0.7539	-0.1733	-1.3166	-0.3963	9.9511	-1.735	-0.1897	9.9683	-1.703	9.9241	-1.5996	0.3831	1.166
0.8981	1.7783	9.5961	-0.0978	0.9459	-1.5175	0.6544	-0.1921	-0.4143	0.9314	1.9805	9.3291	0.1883	0.3612	0.9333	-0.1615	-1.2188	-0.4536	10.0067	-1.5632	-0.2463	10.7086	-1.9521	10.1179	-1.5822	0.383	1.1663
0.8384	1.7206	9.4767	-0.2955	1.2925	-1.0531	0.6424	-0.1861	-0.4203	0.5899	1.6383	9.4996	0.1545	0.2382	1.1164	-0.2023	-1.2973	-0.3794	10.0042	-1.4489	-0.3626	11.1356	-2.1377	9.9808	-1.6173	0.3675	1.1493
0.9591	1.7786	9.7746	-0.4984	1.3335	-0.5903	0.6664	-0.1861	-0.4143	0.6464	1.638	9.4413	-0.0292	0.2724	1.024	-0.1466	-1.2392	-0.4349	9.8324	-1.7357	-0.4254	11.5615	-2.5692	9.6209	-1.6164	0.3617	1.2043
0.7837	1.9511	9.6534	-0.7296	1.5285	-0.126	0.6544	-0.1981	-0.4143	0.8879	1.0661	9.9203	0.3356	0.0209	0.9584	-0.1601	-1.261	-0.3628	9.7795	-2.1939	-0.2532	11.8041	-2.7542	9.4258	-1.6345	0.3657	1.1673
1.0684	2.0077	9.4819	-1.3553	2.0767	0.3805	0.6484	-0.1981	-0.4023	0.9938	1.5229	9.5077	0.4895	0.0183	0.9586	-0.1747	-1.2583	-0.4165	9.6605	-1.2192	-0.427	12.3206	-3.4011	8.873	-1.6349	0.3852	1.1471
0.7809	1.6057	9.4753	-1.4913	2.2682	0.934	0.6604	-0.1861	-0.4203	0.9917	1.8661	9.4489	-0.3743	-0.0896	0.8934	-0.188	-1.3139	-0.45	9.604	-1.5632	-0.4294	12.7348	-3.5539	8.1823	-1.6518	0.399	1.1816
1.0133	1.8356	9.5985	-1.7116	2.861	1.5529	0.6484	-0.2041	-0.4263	0.9377	1.8666	9.626	0.7912	-0.2942	1.0153	-0.1595	-1.2971	-0.4148	10.1757	-1.6787	-0.36	12.9982	-4.045	7.3308	-1.6173	0.4183	1.162
1.0656	1.6623	9.3037	-1.9776	3.118	1.8354	0.6664	-0.2101	-0.4203	0.8786	1.4659	9.5052	0.7643	-0.109	0.8951	-0.1888	-1.2755	-0.4515	10.0085	-1.276	-0.1286	13.4787	-4.3219	6.7892	-1.6172	0.4007	1.1639
1.0649	2.0647	9.3047	-2.0231	3.5799	2.1442	0.6664	-0.1921	-0.4083	0.8791	1.7522	9.5652	1.438	-0.2444	1.1718	-0.161	-1.238	-0.4528	9.5513	-1.3902	-0.1965	13.9826	-4.2594	6.1645	-1.6866	0.4148	1.1975
1.0741	1.3183	9.7166	-2.3864	3.6572	2.3671	0.6604	-0.1741	-0.4203	1.1113	1.58	9.629	2.1192	-0.1311	0.6808	-0.1744	-1.2767	-0.4336	10.172	-1.5072	-0.5345	14.4929	-4.2594	5.7844	-1.5993	0.4319	1.1971
0.9555	1.9506	9.5977	-2.4635	3.5407	3.0089	0.6664	-0.1801	-0.4143	1.0462	1.6939	9.2715	2.151	-0.0404	0.8678	-0.1888	-1.2594	-0.3809	10.1185	-1.5638	-0.3608	14.9706	-4.259	5.3125	-1.6168	0.3812	1.1841
1.3572	1.6622	9.4866	-2.3289	3.7503	3.2814	0.6604	-0.2101	-0.4143	1.0576	1.4088	9.8057	2.0907	0.0521	1.0238	-0.1313	-1.2788	-0.4153	9.7256	-1.2752	-0.0176	16.0894	-4.0757	4.9871	-1.6516	0.4146	1.1981
1.2399	1.4896	9.3658	-2.7403	3.8926	3.9634	0.6604	-0.1921	-0.4263	0.9964	1.9238	9.6867	2.53	0.4748	0.9394	-0.1604	-1.2587	-0.4163	9.7796	-1.5053	-0.1923	16.7777	-4.1984	4.2917	-1.6349	0.4359	1.1599
0.7818	1.7208	9.5346	-2.8745	4.1453	4.5477	0.6604	-0.1921	-0.4083	0.4154	1.8103	9.4369	1.6363	0.4886	1.2779	-0.1739	-1.2967	-0.4149	9.3822	-1.9634	-0.1436	17.4928	-4.0746	3.6028	-1.599	0.4299	1.2154
1.3602	1.8351	9.6644	-2.9982	4.0894	4.5809	0.6424	-0.1981	-0.4143	0.8115	1.9231	9.089	1.7662	0.8545	1.3464	-0.175	-1.2399	-0.3994	9.8366	-2.194	-0.252	18.2411	-3.8589	3.1008	-1.634	0.3969	1.2002
0.7892	1.3767	9.8884	-2.9685	3.1377	3.9951	0.6604	-0.1861	-0.4203	0.9321	1.6943	9.3286	1.8027	1.1908	1.5377	-0.1747	-1.2583	-0.4165	9.6132	-1.5616	0.0375	19.168	-3.8584	2.25	-1.6166	0.3968	1.2005
0.7276	1.7214	9.7108	-2.2808	2.648	3.4569	0.6604	-0.1861	-0.4083	0.6429	2.0956	9.3234	1.7476	1.5595	1.6987	-0.131	-1.2972	-0.4324	9.6635	-1.6776	-0.312	19.4903	-4.0725	1.4977	-1.5986	0.3597	1.2229
1.1316	1.3757	9.7179	-2.2147	2.8594	3.487	0.6724	-0.2041	-0.4083	0.6439	1.695	9.3226	1.5962	1.685	1.6697	-0.1177	-1.2416	-0.3989	9.6093	-2.0213	-0.1976	19.7582	-4.1337	1.1515	-1.6	0.4025	1.1458
0.7849	1.2612	9.6517	-2.4737	2.5939	3.2172	0.6604	-0.1861	-0.4083	0.7051	1.6952	9.5021	1.4427	1.7181	1.7318	-0.1452	-1.2975	-0.4147	9.6686	-1.2751	-0.0187	20.1062	-3.978	0.44	-1.6518	0.399	1.1816
0.9613	1.8364	9.8929	-2.6147	2.6933	3.6483	0.6484	-0.1921	-0.4023	1.2272	1.8088	9.6913	1.5046	1.7475	1.7942	-0.1453	-1.2806	-0.3619	9.7846	-2.4799	-0.0208	19.8827	-3.9451	0.0139	-1.652	0.4341	1.1779
1.0121	1.8929	9.5396	-1.9869	3.0042	3.8179	0.6664	-0.1921	-0.4203	0.7204	1.754	10.2746	1.0084	1.5713	1.8829	-0.1749	-1.2568	-0.4522	9.6581	-1.1622	-0.5435	19.6895	-3.9431	-0.4446	-1.6338	0.3618	1.204
0.8977	1.3757	9.5361	-2.096	3.4075	4.0974	0.6604	-0.1921	-0.4143	0.7072	1.8099	9.6211	1.2206	1.3538	1.6323	-0.1604	-1.2587	-0.4163	9.6075	-1.62	-0.2545	18.8923	-4.1558	-0.7738	-1.599	0.4299	1.2154
0.9516	1.6051	9.3604	-2.0236	3.7417	4.2806	0.6664	-0.1981	-0.4083	0.7089	2.0963	9.7406	1.3704	1.1364	1.6287	-0.1315	-1.2772	-0.4511	9.6006	-1.5639	-0.6045	18.4617	-3.9081	-0.7581	-1.6176	0.4202	1.1437
0.9569	1.7783	9.6564	-2.0685	3.9901	4.7408	0.6664	-0.1861	-0.4083	1.227	1.4081	9.631	1.025	0.744	1.4358	-0.1883	-1.2793	-0.3622	9.6633	-1.5629	-0.3115	17.4681	-3.5339	-1.2824	-1.6516	0.3639	1.1853
0.7798	1.6056	9.4162	-2.1213	4.1767	4.9567	0.6484	-0.1861	-0.4083	0.7621	1.4661	9.4434	1.0837	0.5896	1.4022	-0.1731	-1.3181	-0.3606	10.1773	-2.0226	-0.3029	16.8345	-2.9443	-1.9311	-1.5991	0.3968	1.2008
1.0177	1.261	9.7744	-1.9534	4.2327	5.4105	0.6724	-0.1861	-0.3963	0.5934	1.6959	9.678	1.0502	0.4369	1.3377	-0.1312	-1.2795	-0.3975	10.0648	-1.5058	-0.1866	16.1435	-2.4166	-2.457	-1.5814	0.4123	1.2176
1.1291	1.5479	9.6001	-1.7813	4.6858	5.775	0.6664	-0.1921	-0.4083	0.5287	2.1533	9.3806	0.9521	0.0416	0.8363	-0.1754	-1.2207	-0.4001	10.1219	-1.5632	-0.1857	15.6437	-2.0753	-2.7456	-1.6336	0.3775	1.2204
0.7789	1.4905	9.3568	-2.3878	4.9873	6.0051	0.6664	-0.1921	-0.4083	0.9922	2.1524	9.5089	1.1961	-0.0852	0.8036	-0.1606	-1.2411	-0.3814	9.6031	-1.7355	-0.4884	14.5882	-1.7315	-3.3311	-1.6517	0.3814	1.1835
0.7796	1.088	9.3558	-2.3209	5.0463	6.1563	0.6664	-0.1861	-0.4023	0.5846	2.3819	9.3228	0.081	-0.4649	0.7022	-0.1302	-1.3187	-0.3781	9.7765	-1.7354	-0.3682	14.061	-1.4213	-3.4967	-1.5642	0.3966	1.2014
0.7818	1.7208	9.5346	-2.4225	4.7137	6.0348	0.6724	-0.1981	-0.4143	0.4194	2.0969	9.6752	0.3599	-0.3773	0.6425	-0.1887	-1.2763	-0.4337	10.2891	-2.0232	-0.4173	13.3275	-1.2654	-3.4468	-1.5984	0.3753	1.2393
0.782	1.6634	9.5345	-1.8936	4.0164	5.4688	0.6724	-0.1921	-0.3963	0.4725	2.0391	9.4386	0.1453	-0.3427	0.581	-0.1741	-1.2952	-0.4506	9.6715	-1.6762	0.0965	12.4593	-1.0766	-3.9481	-1.6173	0.3675	1.1493
1.0208	1.4339	9.9522	-2.5008	3.7946	4.8722	0.6664	-0.1921	-0.4023	0.6416	1.6376	9.2037	-0.5322	-0.3617	0.5486	-0.1747	-1.2583	-0.4165	9.8951	-1.6774	-0.1323	11.9884	-0.9503	-4.4591	-1.634	0.3969	1.2002
0.7828	1.836	9.594	-2.1142	3.3187	4.616	0.6724	-0.1921	-0.4023	0.6432	1.9812	9.3232	-1.1182	-0.4433	0.4225	-0.1449	-1.2998	-0.3611	9.153	-2.0206	-0.2068	11.1911	-0.7939	-4.5311	-1.6335	0.4106	1.235
0.8385	1.6631	9.4765	-2.157	3.1051	4.3107	0.6664	-0.1741	-0.4023	0.6465	1.5808	9.4412	-1.0525	-0.2594	0.2406	-0.146	-1.2599	-0.3984	9.785	-2.0208	0.0392	10.6647	-0.6684	-4.7945	-1.6166	0.4476	1.2133
0.9598	1.4336	9.7737	-2.0783	3.2218	3.7299	0.6724	-0.1861	-0.3843	0.6989	1.8091	9.2052	-0.7198	-0.5421	0.3906	-0.1451	-1.2983	-0.3968	9.6614	-1.7928	-0.4291	9.8947	-0.2963	-4.8609	-1.6173	0.4183	1.162
0.9581	1.721	9.7153	-1.8014	3.3626	3.6019	0.6724	-0.1681	-0.3843	0.7624	2.3247	9.564	-0.8735	-0.5694	0.2045	-0.1595	-1.2971	-0.4148	9.8885	-1.8507	-0.4831	9.1814	0.1379	-5.0809	-1.5993	0.3811	1.1844
1.0731	1.8932	9.718	-1.6183	3.3851	3.5061	0.6724	-0.1981	-0.4023	0.9393	1.695	9.6851	-0.5378	-0.7585	0.0164	-0.1312	-1.2795	-0.3975	9.7747	-1.2767	-0.4249	8.1984	0.4797	-5.1439	-1.6339	0.4301	1.2148
0.7224	1.4907	9.4148	-1.3436	3.5867	3.2565	0.6724	-0.1861	-0.4083	0.5938	1.5242	9.6776	-1.0682	-1.1181	0.0709	-0.1747	-1.2583	-0.4165	9.7177	-2.0799	-0.4873	7.2395	0.7917	-5.5166	-1.599	0.4299	1.2154
1.3075	0.9732	9.8385	-1.0701	3.7271	3.0066	0.6664	-0.1801	-0.4263	0.93	1.5797	9.2095	-0.7901	-1.0615	0.0723	-0.1595	-1.2971	-0.4148	9.8931	-1.9073	-0.2499	6.2945	1.1323	-5.2414	-1.6506	0.3913	1.2549
1.0715	1.4905	9.5988	-0.5417	3.7361	3.1158	0.6724	-0.1921	-0.4083	0.6461	1.7525	9.4416	-0.4498	-1.0351	-0.2663	-0.1733	-1.3166	-0.3963	9.8372	-1.8496	-0.1924	5.2589	1.5037	-4.9018	-1.5814	0.3616	1.2048
1.0173	1.491	9.775	-0.1871	3.5359	2.6484	0.6784	-0.1921	-0.4143	0.4044	1.9237	8.9024	0.014	-0.9205	-0.2017	-0.1452	-1.2975	-0.4147	9.3747	-1.5057	-0.4921	4.3696	1.5989	-5.0354	-1.6516	0.4146	1.1981
1.0736	1.6058	9.7173	-0.584	4.1937	2.4178	0.6724	-0.1801	-0.4083	0.5907	1.8101	9.5593	-1.8336	-0.9503	-0.2363	-0.1748	-1.2575	-0.4343	9.8431	-1.9633	0.0989	3.1228	1.909	-4.6318	-1.5811	0.3596	1.2232
0.9552	1.4906	9.5375	-0.2929	3.9959	1.891	0.6664	-0.1921	-0.4143	0.7068	1.9816	9.6215	-1.2119	-0.6234	-0.1677	-0.1746	-1.2591	-0.3986	9.3233	-1.5046	-0.2015	2.7356	1.97	-4.1599	-1.6338	0.3618	1.204
0.7933	1.6072	10.1254	-0.4435	3.2355	1.3717	0.6784	-0.1801	-0.4023	0.9383	1.5805	9.6254	-1.3925	-0.4655	-0.474	-0.1735	-1.3151	-0.432	9.6089	-1.7345	-0.1966	1.7626	2.1873	-3.8568	-1.581	0.3928	1.2377
0.9575	1.4333	9.6555	-0.5571	2.6879	0.9442	0.6604	-0.2041	-0.4143	0.6374	1.9234	9.026	-0.8965	-0.2596	-0.3459	-0.1463	-1.2415	-0.3813	9.6659	-1.7346	-0.1955	1.0356	2.3113	-3.5305	-1.6337	0.395	1.2186
1.0747	0.9733	9.7158	-0.4449	2.468	0.6657	0.6544	-0.1981	-0.4263	0.8742	1.8089	9.3276	-1.2927	-0.0382	-0.2809	-0.2032	-1.2751	-0.4516	9.6088	-1.6771	-0.1964	0.4069	2.3418	-2.9622	-1.6513	0.4127	1.2164
1.0737	2.1808	9.7778	-0.6081	2.2905	0.4551	0.6724	-0.2041	-0.4143	0.5898	1.6955	9.4997	-1.32	0.1764	-0.0918	-0.1889	-1.2586	-0.3987	9.6598	-1.5062	-0.4864	-0.169	2.558	-2.6362	-1.5643	0.3634	1.1868
1.2443	1.5477	9.6023	-0.7936	2.1761	0.5199	0.6664	-0.1861	-0.4023	0.4807	1.5819	9.7942	-0.2969	0.5581	-0.0832	-0.1592	-1.2994	-0.3612	9.6047	-1.2762	-0.37	-0.5528	2.803	-1.8817	-1.5986	0.3597	1.2229
0.728	1.4914	9.7103	-0.6542	1.5885	0.3301	0.6604	-0.1861	-0.4203	0.7568	1.6945	9.2062	-0.4835	0.529	0.2866	-0.1899	-1.2195	-0.4181	9.6641	-1.3333	-0.2524	-0.7644	2.8648	-1.7524	-1.633	0.3736	1.2571
0.9062	1.0317	9.949	-0.8738	1.5361	0.2436	0.6604	-0.1861	-0.4083	1.0524	2.0953	9.6288	-0.265	0.649	0.0729	-0.1308	-1.2987	-0.3967	9.84	-1.4474	-0.0159	-1.1518	2.7106	-1.4408	-1.6162	0.3774	1.2207
1.0772	2.1238	9.955	-0.4164	1.3941	0.1097	0.6664	-0.1861	-0.4083	0.9351	1.9236	9.5073	-0.4798	0.6833	0.0731	-0.1748	-1.2575	-0.4343	9.7352	-1.5603	0.4482	-1.6899	2.8025	-0.8726	-1.6507	0.3581	1.2403
0.7831	1.6635	9.5936	-0.2326	1.3557	0.0745	0.6724	-0.1801	-0.4263	0.7127	1.9822	9.9186	-0.4789	0.6844	-0.1739	-0.2032	-1.2751	-0.4516	9.3248	-1.7339	-0.144	-1.9583	3.079	-0.397	-1.6172	0.4007	1.1639
0.9557	1.2031	9.5368	-0.2009	1.3545	0.1042	0.6784	-0.1861	-0.4023	1.1191	1.8098	10.0454	-1.0971	0.6016	0.1015	-0.1891	-1.2571	-0.4344	9.1568	-1.5035	0.0285	-2.289	2.9868	-0.2389	-1.6515	0.397	1.1999
0.7194	1.2603	9.2369	-0.327	1.4509	-0.0447	0.6904	-0.1861	-0.4083	1.2767	1.7506	9.2764	-0.0229	0.3999	-0.0856	-0.16	-1.2941	-0.4862	9.6054	-1.7351	-0.3717	-2.5654	3.1108	-0.2298	-1.6691	0.364	1.1851
0.4971	1.7218	9.7063	-0.1742	1.5053	-0.1396	0.6604	-0.1861	-0.4143	0.4738	1.9819	9.4979	-1.5315	0.4248	0.0976	-0.1317	-1.2596	-0.4161	9.8402	-1.6195	-0.0165	-2.7802	3.2961	-0.1586	-1.6168	0.432	1.1968
1.0114	1.6628	9.4799	-0.0987	1.286	-0.6308	0.6724	-0.1801	-0.4023	0.8718	1.3508	9.1484	-0.5121	0.592	0.0097	-0.16	-1.2941	-0.4862	9.5523	-2.0212	-0.1988	-2.7379	3.325	0.3963	-1.6863	0.3621	1.2031
0.6641	1.2032	9.3538	-0.0251	1.4372	-0.2962	0.6844	-0.1921	-0.4083	0.706	1.8098	9.5617	-0.6342	0.6553	0.0724	-0.1601	-1.261	-0.3628	9.8352	-1.3335	-0.2489	-2.9849	3.2953	0.2462	-1.6332	0.4087	1.2533
1.1334	1.6634	9.8368	-0.126	1.1962	-0.4476	0.6724	-0.1861	-0.4143	0.5987	1.4674	9.9152	-1.0944	0.7548	0.166	-0.1456	-1.2783	-0.4155	9.5538	-1.5045	-0.0802	-2.9571	3.5724	0.3152	-1.6333	0.4263	1.2515
1.0177	1.8936	9.8351	-0.3731	1.3895	-0.5625	0.6724	-0.1801	-0.3963	0.7135	2.154	9.9784	0.5727	0.9428	-0.1675	-0.1875	-1.317	-0.3786	9.6704	-1.6764	0.0382	-3.2082	3.6356	0.0446	-1.6342	0.3638	1.1856
0.7277	1.6639	9.7107	-0.4359	1.1784	-0.4707	0.6604	-0.2041	-0.4143	0.7623	1.8668	9.5036	-2.0151	0.9236	0.2601	-0.175	-1.256	-0.47	9.7338	-1.3884	0.3905	-3.1497	3.6666	-0.0481	-1.5643	0.4141	1.1995
0.789	2.1243	9.9494	-0.2188	1.139	-0.4152	0.6664	-0.1981	-0.4023	0.5881	1.9243	9.4407	0.145	1.1639	0.0828	-0.1751	-1.2391	-0.4172	9.6717	-1.7909	0.0961	-3.1832	3.821	-0.0739	-1.5818	0.381	1.1846
0.5466	1.8357	9.294	-0.1909	1.0154	-0.4471	0.6844	-0.1981	-0.4083	0.6527	1.9821	9.7986	-1.1176	1.1244	-0.0128	-0.1745	-1.2598	-0.3807	9.8914	-1.5059	-0.3068	-3.3393	3.7911	-0.2566	-1.6161	0.3598	1.2226
1.0059	1.5471	9.1841	-0.1314	0.8295	-0.4191	0.6604	-0.2101	-0.4083	0.7674	1.7528	9.7411	-2.1078	0.8947	0.1976	-0.175	-1.2399	-0.3994	9.8976	-1.1031	0.0448	-3.4859	3.6676	-0.0722	-1.5817	0.4142	1.1992
0.845	1.1464	9.7708	-0.251	0.8656	-0.294	0.6664	-0.1921	-0.4023	0.7567	1.7518	9.2063	-0.995	1.1216	0.1418	-0.1743	-1.2775	-0.4157	9.8448	-1.6187	0.2169	-3.7335	3.7302	-0.1888	-1.5994	0.3987	1.1825
0.851	1.5497	10.1264	-0.0621	0.9803	-0.2369	0.6664	-0.1921	-0.4203	0.7632	1.9814	9.5633	-2.1376	0.8964	-0.0804	-0.2034	-1.2575	-0.4167	9.1051	-1.2729	0.32	-3.609	3.5142	-0.2282	-1.6172	0.4007	1.1639
1.0111	1.2027	9.4197	-0.1658	0.7694	-0.5101	0.6664	-0.1921	-0.4083	0.7044	1.9814	9.5027	-1.7374	0.9497	0.2301	-0.16	-1.2779	-0.4156	9.8392	-1.6771	-0.0751	-3.4208	3.39	-0.0814	-1.6507	0.3581	1.2403
0.9642	1.4342	10.0102	0.0281	0.6406	-0.119	0.6724	-0.1681	-0.4143	0.9908	1.7515	9.3893	-1.73	1.2584	-0.1968	-0.1757	-1.2192	-0.4359	9.6198	-2.1342	0.3271	-3.6604	3.3284	0.0757	-1.6165	0.3793	1.2024
0.9558	1.1456	9.5366	-0.3525	0.6855	-0.5061	0.6784	-0.1981	-0.4203	0.524	1.6376	9.0825	-2.3247	0.7466	-0.2069	-0.1743	-1.2775	-0.4157	9.6128	-1.3321	0.0383	-3.6896	3.1437	0.0094	-1.6509	0.3932	1.2366
0.3883	1.8378	10.059	-0.372	0.9626	-0.26	0.6604	-0.1801	-0.4143	0.8815	1.7524	9.684	-2.0164	0.832	0.1349	-0.1887	-1.2763	-0.4337	9.6138	-1.2172	0.0971	-3.8116	3.144	0.0118	-1.6689	0.3796	1.2015
1.3002	1.2598	9.4845	-0.0694	0.7965	-0.3903	0.6664	-0.1861	-0.3963	0.8792	2.2101	9.6255	-1.2196	0.5744	-0.239	-0.1592	-1.2994	-0.3612	9.9675	-2.0189	0.6262	-3.7731	3.0196	0.2849	-1.5978	0.3715	1.276
0.9557	1.8357	9.5974	0.1516	0.788	-0.2127	0.6664	-0.1981	-0.4023	0.5897	1.7528	9.4998	-1.59	0.5194	-0.2406	-0.1885	-1.2778	-0.3979	9.8394	-1.1032	-0.0147	-3.87	3.0207	0.0403	-1.651	0.36	1.222
0.9614	1.1463	9.8321	-0.0723	0.6741	-0.4214	0.6604	-0.2041	-0.3963	0.708	1.9817	9.6809	-1.7455	0.4601	-0.1184	-0.16	-1.2779	-0.4156	10.0077	-1.5057	-0.1878	-3.8427	2.9596	-0.1469	-1.5988	0.3948	1.2191
0.9596	1.4911	9.7739	-0.2585	0.8648	-0.5684	0.6664	-0.1801	-0.3903	0.879	1.8094	9.5653	-1.6252	0.3046	-0.1518	-0.1617	-1.2012	-0.4186	9.3809	-1.8489	-0.2016	-3.9643	3.0214	-0.0811	-1.5989	0.3617	1.2045
0.7866	0.9738	9.7102	-0.0148	0.427	-0.4243	0.6724	-0.1861	-0.4083	0.5812	1.8092	9.084	-1.3782	0.3614	-0.0577	-0.1884	-1.2947	-0.4508	9.6223	-1.5599	0.5043	-3.84	2.9592	-0.0237	-1.7214	0.3974	1.1988
1.0118	1.4328	9.4793	-0.018	0.5792	-0.6369	0.6664	-0.1921	-0.4143	0.6994	2.0954	9.2652	-1.9635	0.3407	-0.0591	-0.1605	-1.258	-0.4342	9.6089	-1.7345	-0.1966	-4.0801	2.9284	0.1343	-1.6175	0.4026	1.1456
0.852	1.6073	10.1856	-0.209	0.5863	-0.8457	0.6664	-0.1981	-0.4323	1.0453	2.0946	9.2723	-1.7469	0.3684	-0.2127	-0.1466	-1.2392	-0.4349	9.7859	-1.9058	0.098	-4.0813	3.0516	0.1687	-1.635	0.4027	1.1453
1.2476	1.6056	9.7798	0.0666	0.2084	-0.7021	0.6724	-0.1921	-0.4203	1.0522	1.6945	9.5686	-1.3756	0.5145	0.0377	-0.1887	-1.2763	-0.4337	9.7253	-1.7916	-0.0778	-4.2376	3.0834	0.0186	-1.6693	0.3991	1.1813
0.9596	1.4911	9.7739	0.1268	0.1141	-0.7041	0.6604	-0.1921	-0.3963	1.1628	2.1517	9.3937	-2.2684	0.5594	0.284	-0.1608	-1.2395	-0.4171	9.4373	-1.4474	-0.199	-4.4191	3.1143	0.1156	-1.5993	0.3811	1.1844
0.8433	1.4912	9.7125	0.1246	0.0834	-0.7652	0.6724	-0.1981	-0.4203	0.7043	1.5234	9.4423	-0.5705	0.7768	0.1055	-0.1742	-1.2782	-0.3978	9.7879	-1.676	0.2155	-4.3911	3.0531	-0.0408	-1.6341	0.3462	1.1875
0.7851	1.7788	9.7121	-0.0255	0.0903	-0.609	0.6604	-0.1861	-0.4023	1.3388	1.4075	9.4551	-1.5884	0.6714	0.1019	-0.132	-1.2581	-0.4518	9.3235	-1.6193	-0.2019	-4.5536	3.0858	-0.4682	-1.6693	0.3991	1.1813
1.0134	1.1455	9.5378	0.0358	0.2097	-0.7013	0.6664	-0.1981	-0.4203	0.8812	1.8669	9.6842	-2.6322	0.8122	0.0408	-0.2024	-1.2966	-0.3973	9.782	-1.5623	-0.0758	-4.674	3.1166	-0.3724	-1.617	0.3656	1.1676
0.7809	1.6057	9.4753	-0.1178	0.3077	-0.7275	0.6664	-0.1981	-0.3963	0.6539	1.9822	9.858	-1.6197	0.6112	-0.0537	-0.1888	-1.2594	-0.3809	9.8431	-1.9633	0.0989	-4.6407	2.8393	-0.4427	-1.5813	0.3947	1.2194
1.1836	1.3749	9.4235	-0.0244	0.304	-0.6993	0.6724	-0.1981	-0.4143	0.3043	1.5248	9.6123	-2.0777	0.8333	0.073	-0.1602	-1.2764	-0.4513	9.735	-1.3882	0.4489	-4.8649	3.1491	-0.7068	-1.6338	0.4126	1.2167
0.9532	1.9504	9.4795	0.0054	0.2415	-0.7004	0.6604	-0.2041	-0.4203	0.6403	1.6947	9.1444	-1.2157	0.789	-0.1733	-0.1751	-1.2391	-0.4172	9.5553	-1.7912	-0.0229	-4.6785	2.6867	-0.8778	-1.6163	0.3949	1.2188
0.7823	1.4909	9.5341	0.0468	0.3634	-0.3956	0.6664	-0.1921	-0.4263	0.8779	1.7521	9.5057	-1.4668	0.5174	-0.2713	-0.1456	-1.2783	-0.4155	9.7279	-2.0207	0.0381	-4.7429	2.7797	-0.9664	-1.6329	0.4068	1.2717
0.7258	1.4911	9.5921	-0.1107	0.278	-0.4533	0.6724	-0.2041	-0.4083	0.6453	2.0959	9.4423	-2.1743	0.6199	0.0999	-0.2036	-1.2398	-0.3817	9.6617	-1.2189	-0.3686	-4.559	2.6253	-1.0361	-1.6161	0.3598	1.2226
1.0112	1.1452	9.4195	-0.0862	0.0015	-0.5165	0.6724	-0.1861	-0.4023	0.8796	1.5233	9.5647	-2.3879	0.6557	-0.2395	-0.1609	-1.2388	-0.435	9.4995	-1.8482	0.0341	-4.5535	2.6245	-0.7896	-1.6345	0.4164	1.18
0.9041	1.6065	9.8912	0.2191	0.0492	-0.6762	0.6844	-0.1801	-0.4083	0.9396	2.0385	9.7452	-1.7988	0.921	0.0133	-0.1469	-1.2208	-0.4178	9.6728	-1.7333	0.1547	-4.4957	2.7478	-0.8489	-1.6509	0.3425	1.2239
0.783	1.721	9.5938	0.101	0.116	-0.5204	0.6664	-0.2041	-0.4143	0.7032	1.9813	9.4432	-1.1312	0.3582	-0.2735	-0.1607	-1.2403	-0.3993	9.734	-1.5032	0.3901	-4.3216	2.7488	-1.2531	-1.5823	0.3498	1.1517
0.5502	1.7211	9.471	-0.0262	-0.0013	-0.579	0.6784	-0.1981	-0.4083	0.817	1.6374	9.3261	-2.5723	0.6892	-0.1466	-0.1595	-1.2971	-0.4148	9.2127	-1.5038	-0.0287	-4.2895	2.8715	-1.0961	-1.6347	0.4515	1.1763
0.725	1.8936	9.593	0.4639	-0.0834	-0.6829	0.6664	-0.1861	-0.4023	0.9894	1.8659	9.3301	-2.0217	0.4957	-0.18	-0.1754	-1.2207	-0.4001	9.7262	-1.6193	-0.0188	-4.1636	2.7475	-1.0097	-1.6695	0.3835	1.1649
0.8426	1.8361	9.7134	-0.2683	0.1926	-0.511	0.6844	-0.1981	-0.3963	0.3567	1.7531	9.3762	-1.8714	0.3088	-0.1522	-0.1452	-1.2975	-0.4147	9.6617	-1.2763	-0.3689	-3.8329	2.6552	-1.2964	-1.5985	0.3929	1.2375
1.0713	1.6055	9.5991	0.5392	0.2206	-0.3779	0.6724	-0.1861	-0.4023	0.4185	1.9823	9.6156	-1.6501	0.5822	-0.3322	-0.1608	-1.2395	-0.4171	9.4954	-1.3899	-0.1393	-4.0791	2.6254	-1.4156	-1.5988	0.3948	1.2191
0.7266	1.6637	9.6516	-0.0298	0.1813	-0.8219	0.6784	-0.1921	-0.4203	1.0494	1.866	9.4501	-2.5787	0.3216	-0.3076	-0.16	-1.2779	-0.4156	9.7765	-1.7354	-0.3682	-3.7439	2.5938	-1.454	-1.6165	0.3793	1.2024
1.0729	1.3756	9.6576	-0.4323	0.0149	-0.7521	0.6664	-0.1921	-0.4143	0.7646	1.4091	9.5621	-1.5598	0.4582	-0.4269	-0.1468	-1.2215	-0.3999	9.6662	-1.9067	-0.1961	-3.7689	2.4085	-1.3355	-1.6341	0.4145	1.1984
0.7868	1.4914	9.7705	0.5854	-0.3023	-0.6261	0.6664	-0.1981	-0.4263	0.8801	1.8095	9.6247	-1.429	0.9753	0.2002	-0.1452	-1.2975	-0.4147	9.7271	-1.5044	0.0399	-3.8362	2.2866	-1.7075	-1.6169	0.3988	1.1822
0.4954	1.3765	9.5873	0.23	-0.6864	-0.9552	0.6784	-0.1921	-0.3903	0.875	1.9807	9.3874	0.6187	2.3105	2.8837	-0.1468	-1.2215	-0.3999	9.499	-1.504	0.0354	-3.5638	2.194	-1.8698	-1.6174	0.4358	1.1601
0.964	1.5492	10.0104	-0.8092	-0.7986	-1.6017	0.6844	-0.1861	-0.4083	0.9404	1.2372	9.6842	3.1721	4.3432	5.5806	-0.16	-1.2779	-0.4156	9.4975	-1.2748	-0.0222	-3.5405	2.1335	-2.2419	-1.6346	0.3833	1.1655
0.7227	1.3182	9.4143	0.6006	-2.3936	-3.2925	0.6664	-0.1861	-0.4143	0.9263	2.1517	9.0918	16.8024	7.9941	9.3757	-0.1893	-1.2394	-0.3995	9.724	-1.6771	-0.1357	-3.7062	2.1052	-2.8559	-1.6523	0.3853	1.1468
0.4347	1.8363	9.4691	1.3261	-3.2546	-4.4743	0.6724	-0.1921	-0.4203	0.9903	1.9805	9.3897	5.2679	9.9727	9.0512	-0.1879	-1.3147	-0.4321	9.4407	-1.3894	-0.0237	-3.7308	1.889	-2.7382	-1.6519	0.4165	1.1798
1.068	1.6051	9.4218	-1.4027	-3.0157	-3.8575	0.6724	-0.1981	-0.4263	0.7589	1.8092	9.3252	6.9189	10.7186	7.5539	-0.1603	-1.2595	-0.3985	9.4981	-1.6763	-0.0236	-4.1155	1.5498	-2.432	-1.5986	0.3597	1.2229
1.1322	1.6633	9.7777	0.0278	-2.7079	-3.7075	0.6784	-0.1741	-0.4023	0.3581	1.6387	9.4354	3.9699	8.8777	4.6436	-0.16	-1.2779	-0.4156	9.2653	-1.5621	-0.2612	-4.3314	1.3047	-2.7121	-1.617	0.4163	1.1803
0.7824	1.4334	9.534	0.4192	-2.416	-3.1357	0.6844	-0.2101	-0.4203	0.591	1.1805	9.4987	0.4992	7.3779	3.0357	-0.1882	-1.2963	-0.415	9.5546	-2.0208	-0.0821	-4.2115	1.1202	-2.9355	-1.6168	0.3812	1.1841
0.9005	1.7211	9.7142	-0.0702	-1.5055	-2.3864	0.6604	-0.1921	-0.4143	0.8889	1.6386	10.0403	-1.1852	5.9693	1.6796	-0.1739	-1.2967	-0.4149	9.5541	-1.734	-0.081	-3.9094	1.0891	-3.0966	-1.652	0.3834	1.1652
1.0732	1.8357	9.7179	0.0488	-0.8354	-1.8364	0.6544	-0.1921	-0.4143	0.5944	1.7532	9.7375	-1.2712	4.5013	0.6958	-0.1604	-1.2587	-0.4163	9.2055	-2.0215	-0.4391	-3.4759	1.6099	-2.443	-1.6339	0.3794	1.2021
0.7758	1.3176	9.179	-0.0201	-0.5239	-1.1618	0.6784	-0.1921	-0.4323	0.7627	1.6951	9.5033	-2.5504	3.3921	-0.469	-0.176	-1.2007	-0.4188	9.843	-1.9059	0.0991	-2.6766	2.4682	-1.5714	-1.5989	0.3617	1.2045
1.0119	1.3753	9.4792	-0.044	-0.3083	-1.0379	0.6604	-0.1681	-0.4143	0.7668	1.9817	9.7415	-2.7541	2.3226	-0.859	-0.1313	-1.2788	-0.4153	9.4416	-2.0204	-0.026	-2.1294	2.9593	-1.3217	-1.6164	0.3617	1.2043
1.1292	1.4904	9.5999	-0.1002	-1.0114	-1.5287	0.6664	-0.2041	-0.4143	0.5857	1.9241	9.3219	-0.7321	1.8273	-0.7717	-0.1463	-1.2576	-0.452	9.6128	-2.0781	-0.0228	-1.9346	2.7109	-0.9628	-1.6172	0.35	1.1511
1.0094	1.49	9.3613	-0.8338	-1.4114	-2.1233	0.6664	-0.2041	-0.4143	0.8791	1.7522	9.5652	-2.0803	2.1272	-0.9231	-0.1601	-1.2772	-0.4334	9.7298	-2.4794	0.0948	-1.8859	2.3082	-0.4204	-1.634	0.3969	1.2002
0.8998	1.4909	9.6545	-1.0586	-1.5253	-2.3625	0.6604	-0.1921	-0.4143	1.0498	1.6943	9.4498	-1.8638	2.1248	-1.2316	-0.2039	-1.2375	-0.4353	9.8365	-1.448	-0.191	-1.7657	1.8776	-0.805	-1.6337	0.395	1.2186
0.8926	1.7201	9.3005	-0.6055	-1.8203	-2.5582	0.6844	-0.1981	-0.4083	0.8251	1.2375	9.6818	-2.5444	1.802	-2.0107	-0.161	-1.238	-0.4528	9.8331	-1.4487	-0.3661	-1.4791	1.6951	-1.7715	-1.6168	0.3812	1.1841
0.9564	1.4332	9.5964	-0.3457	-1.4632	-2.3185	0.6544	-0.1801	-0.4203	0.3596	1.5244	9.4946	-0.6217	0.2197	-5.8035	-0.1607	-1.2403	-0.3993	9.554	-2.4226	-0.1419	-1.494	1.6052	-2.5136	-1.6335	0.3599	1.2223
0.7269	1.4913	9.6512	0.1976	-0.2323	-2.4161	0.6724	-0.1741	-0.4083	0.2525	2.5558	10.0291	-3.8057	-1.79	-4.208	-0.1603	-1.2595	-0.3985	10.2336	-1.5065	-0.2999	-1.7715	1.8524	-2.4702	-1.6163	0.3949	1.2188
0.7768	1.3752	9.2383	1.0335	1.8168	-1.3569	0.6784	-0.1861	-0.4203	0.7799	1.4678	10.3347	-4.7718	-2.7845	2.4128	-0.1606	-1.2411	-0.3814	9.8376	-2.1364	-0.1935	-1.8796	1.9167	-3.1752	-1.6166	0.3968	1.2005
1.2516	1.261	9.9563	0.9357	3.0801	-0.066	0.6664	-0.1861	-0.4143	0.5924	1.5813	9.6183	3.4138	-6.5685	0.3211	-0.1604	-1.2587	-0.4163	9.8851	-1.8513	-0.6581	-2.5638	2.2018	-4.9413	-1.6175	0.4026	1.1456
0.9647	1.2042	10.0096	1.0701	4.8502	0.368	0.6664	-0.1801	-0.4083	0.3193	1.24	10.3247	-2.9462	-8.8018	2.216	-0.1755	-1.2368	-0.4708	9.7768	-1.9075	-0.3689	-2.8655	1.9299	-6.361	-1.6512	0.3444	1.2055
0.4985	1.5494	9.765	0.8157	6.2371	0.3821	0.6484	-0.1861	-0.4023	0.6534	1.1808	9.7375	4.09	-9.595	1.7199	-0.1889	-1.2586	-0.3987	10.4029	-1.8513	-0.4144	-2.9695	1.9013	-6.9454	-1.634	0.3969	1.2002
1.1858	1.4327	9.5418	-0.5129	5.8348	0.6257	0.6724	-0.1921	-0.4143	0.9877	1.5795	9.2107	5.2014	-9.5195	1.1982	-0.1594	-1.2979	-0.397	10.1223	-1.85	-0.1867	-3.0566	1.6902	-8.2753	-1.6515	0.3463	1.1872
0.5553	1.3767	9.7066	-1.0111	5.2449	0.8479	0.6664	-0.1981	-0.4203	0.7096	1.8102	9.74	1.6856	-8.292	0.9669	-0.1736	-1.2982	-0.3792	10.2925	-1.2767	-0.1812	-2.8595	1.3232	-9.2761	-1.6342	0.3638	1.1856
0.9048	1.204	9.8903	-1.8735	4.9762	1.1114	0.6664	-0.1981	-0.4203	1.2176	1.8651	9.216	2.845	-7.4167	-0.0965	-0.2034	-1.2575	-0.4167	9.8936	-1.4481	-0.1898	-1.8134	1.4422	-8.8004	-1.6344	0.3989	1.1819
1.013	1.3755	9.5383	-1.9827	4.0936	1.048	0.6844	-0.1981	-0.4083	0.8806	1.6378	9.6244	0.2181	-6.3885	-0.3298	-0.217	-1.2939	-0.451	9.7225	-1.4479	-0.1933	-0.443	1.716	-8.7275	-1.6689	0.3796	1.2015
0.7318	1.2618	9.887	-0.9074	4.0784	0.8387	0.6664	-0.1801	-0.4203	0.9945	1.6947	9.5674	0.5437	-5.6226	-1.2421	-0.1745	-1.2598	-0.3807	9.9041	-1.6184	0.3347	0.5949	2.2409	-9.7197	-1.617	0.3656	1.1676
0.7822	1.5484	9.5342	-0.9415	3.8353	0.8686	0.6784	-0.2041	-0.4083	0.5862	1.6952	9.3214	-0.3304	-4.6857	-1.4431	-0.1602	-1.2602	-0.3806	9.6708	-1.2173	0.0982	2.1845	2.764	-10.5997	-1.5646	0.3653	1.1685
0.7807	1.7207	9.4755	-1.9126	3.8479	1.5025	0.6784	-0.1981	-0.4203	0.8274	1.7529	9.8611	0.0522	-3.9562	-1.2441	-0.1881	-1.297	-0.3972	9.8976	-0.3572	0.1059	3.9507	3.1291	-10.5013	-1.6166	0.3461	1.1878
0.8422	1.4336	9.6533	-1.1999	3.3609	1.8789	0.6724	-0.1921	-0.4143	0.999	1.8096	9.8053	-1.1364	-3.4121	-1.6998	-0.1603	-1.2595	-0.3985	9.7783	-0.7022	-0.1894	4.9303	3.1569	-10.3351	-1.5995	0.3655	1.1679
0.5487	1.951	9.4125	-0.1567	3.0723	1.7909	0.6664	-0.1981	-0.3963	1.1135	1.6375	9.7479	0.5566	-3.3803	-1.5109	-0.1174	-1.26	-0.416	9.8957	-1.333	-0.0727	5.7349	2.3227	-10.4059	-1.6172	0.4007	1.1639
1.0708	1.8929	9.5998	-0.7936	2.6689	1.3464	0.6784	-0.1981	-0.3963	0.7049	1.2945	9.4418	2.2254	-3.0403	-1.502	-0.1602	-1.2602	-0.3806	9.7787	-0.9317	-0.1903	6.1024	1.3989	-10.9945	-1.6341	0.3462	1.1875
0.7829	1.7785	9.5939	-0.7911	2.5166	1.5285	0.6724	-0.1861	-0.4023	1.1084	2.2667	9.571	1.1454	-3.1754	-1.5063	-0.1743	-1.2775	-0.4157	10.1272	-1.2754	0.1071	6.7592	0.6566	-10.7822	-1.6164	0.311	1.1915
1.0721	1.203	9.5981	-1.0095	2.4339	1.5029	0.6604	-0.1921	-0.4143	0.8147	1.5799	9.2071	0.4704	-2.9815	-1.1025	-0.218	-1.2386	-0.3997	9.9444	-1.1051	-0.4792	6.5772	0.134	-11.1018	-1.6342	0.3131	1.1729
0.7215	1.3756	9.3554	-1.3239	2.0496	1.5388	0.6664	-0.1861	-0.4083	0.866	1.7509	8.9115	0.2027	-2.5159	-1.2182	-0.1889	-1.2586	-0.3987	9.8335	-0.9896	-0.306	6.1184	-0.2338	-11.4113	-1.5644	0.3809	1.1849
0.7759	1.8926	9.2395	-1.3246	1.714	1.7199	0.6784	-0.1861	-0.4083	0.8735	2.0951	9.3282	-0.6828	-2.1324	-1.2129	-0.1597	-1.2963	-0.4327	9.8379	-0.874	-0.0722	5.8096	-0.4785	-11.7513	-1.5991	0.346	1.1881
0.4933	1.9513	9.5296	-1.3856	1.8081	1.6914	0.6784	-0.1861	-0.4083	1.11	1.6372	9.5697	-1.0395	-1.4512	-1.1396	-0.1746	-1.2591	-0.3986	9.8353	-0.645	-0.1881	5.2531	-0.1069	-11.822	-1.6163	0.3442	1.2061
1.1357	2.2388	10.0155	-1.2695	1.3751	1.6861	0.6724	-0.1861	-0.3963	0.9829	2.0942	9.0335	-1.063	-0.992	-0.7299	-0.1878	-1.3154	-0.4143	9.5415	-0.9904	-0.6619	5.0075	0.0478	-11.7819	-1.6165	0.3286	1.1897
0.7762	1.7202	9.2391	-1.3743	0.9505	1.5032	0.6664	-0.1861	-0.4143	0.9909	2.2095	9.4496	-0.9861	-0.1649	-0.5915	-0.1464	-1.2407	-0.3991	9.7213	-1.4481	-0.2516	4.5764	0.3263	-11.7653	-1.5986	0.3597	1.2229
0.443	1.6073	9.8823	-1.252	0.7317	1.5905	0.6784	-0.1861	-0.4203	0.9888	2.0948	9.3306	-1.6185	0.5826	-0.5484	-0.1605	-1.258	-0.4342	9.4351	-0.7593	-0.2548	4.3392	0.2335	-11.5166	-1.6162	0.3266	1.208
1.0203	1.6639	9.9527	-1.2886	0.8849	1.2872	0.6664	-0.1861	-0.4143	1.2219	2.0373	9.454	-1.6414	1.0724	-0.1381	-0.1887	-1.2763	-0.4337	8.979	-0.8733	-0.2644	4.0959	0.4186	-11.3523	-1.6509	0.2917	1.2111
1.0162	1.4909	9.7159	-1.2931	0.6709	1.2556	0.6724	-0.1921	-0.4143	1.0485	1.7514	9.3905	-1.164	1.9533	0.1872	-0.1734	-1.2997	-0.3435	8.9746	-0.9888	-0.4982	3.8687	0.3858	-10.6088	-1.6339	0.3111	1.1912
0.6633	1.6631	9.3549	-1.3146	0.2415	0.735	0.6664	-0.1981	-0.4083	0.6999	1.8665	9.2647	-0.7548	2.4673	0.4133	-0.1749	-1.2406	-0.3815	9.3782	-0.8165	-0.2562	3.8589	0.1366	-9.8451	-1.6697	0.3678	1.1484
0.6065	1.8359	9.4133	-1.1953	0.1443	0.64	0.6724	-0.1921	-0.4203	0.7038	2.2103	9.5031	-0.1842	3.5277	1.4524	-0.1452	-1.2975	-0.4147	9.4941	-1.2754	-0.1972	3.6108	-0.1744	-8.8625	-1.5996	0.3323	1.1533
0.7863	1.7214	9.7711	-1.2127	-0.1931	0.2114	0.6724	-0.2041	-0.4263	0.9938	1.9808	9.568	-1.0353	4.1549	1.771	-0.1902	-1.2011	-0.401	9.5007	-1.1021	0.1535	3.2967	-0.2384	-7.9333	-1.6165	0.3286	1.1897
0.6737	1.4919	9.8865	-0.9574	-0.2941	0.5707	0.6724	-0.1921	-0.3903	0.8772	2.0382	9.5063	0.599	4.2511	1.4976	-0.16	-1.2779	-0.4156	9.5541	-0.9881	-0.02	3.0777	-0.3647	-6.8844	-1.6167	0.313	1.1732
0.6736	1.5494	9.8866	-0.7933	0.1276	0.6607	0.6784	-0.1741	-0.4023	0.8832	1.5236	9.743	-3.0404	3.9134	1.6088	-0.1594	-1.2979	-0.397	9.2601	-1.2187	-0.4934	2.9778	-0.2448	-5.8001	-1.6155	0.3052	1.2465
1.0077	1.8349	9.303	-0.8086	0.4052	1.0592	0.6724	-0.1861	-0.4143	1.1073	1.7514	9.4511	-1.3937	2.9672	0.9462	-0.1456	-1.2783	-0.4155	9.0867	-1.1615	-0.6133	2.5676	-0.0003	-4.8601	-1.5809	0.3245	1.2269
1.0163	1.4334	9.7158	-0.8245	0.8962	1.3065	0.6844	-0.1861	-0.3843	0.9914	1.5226	9.3888	-1.1299	2.1967	0.5623	-0.1746	-1.2591	-0.3986	9.4984	-1.1025	0.0368	2.1701	0.1192	-3.4308	-1.6163	0.3442	1.2061
1.0096	1.3751	9.361	-1.1181	1.6429	1.4094	0.6844	-0.1861	-0.4083	0.7055	1.5236	9.5017	-0.9549	1.6422	0.3056	-0.1595	-1.2971	-0.4148	9.5446	-1.5062	-0.547	2.11	0.3914	-1.8189	-1.581	0.2913	1.2123
0.3176	1.6063	9.3481	-1.2959	1.8345	1.5674	0.6604	-0.1921	-0.4203	1.2254	1.5797	9.5719	-1.2622	1.6179	0.0267	-0.1606	-1.2572	-0.4521	9.6073	-1.4479	-0.2539	1.791	0.6972	-0.8482	-1.5817	0.2952	1.1756
0.787	1.3764	9.7702	-0.9528	1.7901	1.7113	0.6784	-0.1861	-0.4263	1.6819	1.5781	9.3438	-1.2368	1.281	-0.2573	-0.1456	-1.2622	-0.3448	9.5407	-1.22	-0.7211	1.4161	0.8486	0.2425	-1.5986	0.309	1.2101
0.7854	1.6063	9.7117	-0.8318	2.0898	1.4355	0.6784	-0.1921	-0.3963	0.7697	1.753	9.8599	-1.6798	0.6439	-0.3003	-0.1744	-1.2767	-0.4336	9.671	-1.332	0.0978	1.3992	0.9388	0.9236	-1.5984	0.3246	1.2266
0.7903	1.3769	9.9475	-1.0531	2.1287	1.2276	0.6724	-0.1921	-0.4143	1.1082	1.866	9.5107	-1.5963	0.152	-0.4633	-0.175	-1.2399	-0.3994	9.6068	-1.1611	-0.2529	1.2619	1.2444	1.829	-1.6341	0.2955	1.1748
0.4387	1.4918	9.6456	-1.1544	1.7656	1.1365	0.6724	-0.1861	-0.4083	1.114	1.9238	9.8079	-0.4885	0.0729	-0.7408	-0.1603	-1.2595	-0.3985	9.3216	-1.1033	-0.2584	1.2419	1.3659	2.3877	-1.634	0.3287	1.1894
0.7857	1.4338	9.7113	-0.677	1.3771	0.7565	0.6844	-0.1861	-0.4263	1.1034	2.3807	9.3335	-1.3184	0.1183	-0.865	-0.1886	-1.2771	-0.4158	9.6678	-1.5047	-0.0779	1.2755	1.5191	2.638	-1.5985	0.3422	1.2247
0.7847	1.3762	9.652	-0.2517	1.1142	0.6532	0.6724	-0.1861	-0.4023	0.5871	2.3249	9.4416	-0.353	0.7755	-0.4501	-0.1883	-1.2955	-0.4329	9.5516	-1.6197	-0.1973	1.3408	1.8259	3.0461	-1.5985	0.3422	1.2247
0.5521	1.2613	9.529	-0.2582	0.9305	0.5302	0.6784	-0.1921	-0.4143	1.2835	1.4078	9.5728	-0.7199	0.9347	-0.3243	-0.1742	-1.2782	-0.3978	10.01	-1.5053	-0.0711	1.0989	2.0107	3.272	-1.5992	0.3129	1.1735
0.7291	1.4915	9.7694	0.1037	0.67	0.3674	0.6784	-0.1921	-0.4083	0.6493	1.4093	9.5597	-0.3488	0.9905	-0.4771	-0.1454	-1.2799	-0.3797	9.8405	-1.0457	0.0439	1.0408	2.0412	3.4282	-1.6347	0.3501	1.1509
0.7847	1.3762	9.652	0.1334	0.6991	0.3058	0.6844	-0.1981	-0.4023	1.343	2.0948	9.7536	-0.8719	1.0596	-0.1988	-0.1751	-1.2391	-0.4172	10.0679	-1.3331	-0.0109	0.2597	1.8875	3.871	-1.6691	0.364	1.1851
0.7844	1.5486	9.6524	-0.023	0.6748	0.2485	0.6844	-0.1921	-0.4083	0.7017	2.0956	9.384	-0.9962	0.9701	-0.3242	-0.1746	-1.2591	-0.3986	9.5539	-0.8733	-0.0196	-0.0153	2.1035	4.0059	-1.669	0.3464	1.1869
0.7845	1.4911	9.6523	0.2174	0.6333	0.0289	0.6784	-0.1921	-0.4143	1.3968	1.7508	9.5164	-1.3424	0.5469	-0.4867	-0.1901	-1.218	-0.4538	9.9489	-1.1043	-0.2458	-0.405	1.9189	4.1934	-1.6329	0.3053	1.2462
0.7279	1.5489	9.7104	-0.2425	1.0191	-0.0798	0.6784	-0.1801	-0.4083	0.5225	1.752	9.0233	-1.0043	0.5706	-0.2078	-0.1466	-1.2392	-0.4349	9.8409	-1.3325	0.0429	-0.5608	1.5507	3.7853	-1.5634	0.3069	1.229
1.4194	1.6051	9.724	-0.1258	0.7691	-0.1756	0.6784	-0.1921	-0.4023	0.7053	2.096	9.5623	-1.4067	0.4247	-0.3655	-0.1741	-1.279	-0.38	9.7774	-1.5631	-0.3093	-0.4982	1.4888	3.8131	-1.6158	0.3072	1.2282
1.0692	1.5477	9.4807	-0.3157	0.5933	-0.233	0.6904	-0.1921	-0.3963	1.395	1.9796	9.4575	-0.629	0.8714	-0.2326	-0.1737	-1.3143	-0.4499	9.6683	-1.103	-0.0181	-0.6018	1.5216	3.2921	-1.6344	0.3989	1.1819
0.9542	1.3754	9.4781	-0.8042	-0.2138	-0.6528	0.6784	-0.1861	-0.4023	0.7568	1.6945	9.2062	0.308	1.7721	0.8043	-0.147	-1.22	-0.4356	9.6155	-1.6185	0.154	-0.2108	1.7061	3.1662	-1.6169	0.3481	1.1695
1.0074	1.3748	9.2428	-0.2312	-0.5753	-0.9434	0.6784	-0.1921	-0.3963	0.9983	2.0957	9.8059	0.2602	2.6895	1.8398	-0.1471	-1.2193	-0.4535	9.9014	-1.332	0.2191	0.3517	1.7996	2.4487	-1.6333	0.3248	1.226
0.6104	1.5488	9.59	0.0005	-0.8313	-1.3471	0.6904	-0.1861	-0.3963	0.5902	2.039	9.5598	1.5685	3.5562	2.1664	-0.1746	-1.2591	-0.3986	9.7872	-1.2744	0.217	1.0416	1.9842	2.0394	-1.5811	0.3596	1.2232
0.782	1.6634	9.5345	0.0688	-0.4977	-1.3163	0.6664	-0.1861	-0.4023	0.7056	1.9815	9.5621	0.6095	3.2066	1.6025	-0.2028	-1.2774	-0.3981	9.7238	-0.8164	-0.0743	1.525	2.199	1.9743	-1.5985	0.3422	1.2247
0.7839	1.2035	9.5925	-0.2894	-0.5113	-0.8501	0.6604	-0.1861	-0.4143	0.8176	1.8664	9.386	-1.8562	2.9439	1.0376	-0.1886	-1.2771	-0.4158	9.61	-0.9884	-0.0772	1.7023	2.2609	1.7567	-1.5986	0.309	1.2101
0.9595	1.5486	9.774	0.3064	-0.1688	-0.7406	0.6664	-0.1801	-0.4023	0.7687	1.6957	9.8004	-1.063	2.472	0.5364	-0.1887	-1.2602	-0.363	9.8398	-1.3327	-0.0155	2.3501	2.0429	1.9225	-1.6516	0.3132	1.1726
0.7835	1.4335	9.5931	0.287	0.2608	-0.5851	0.6604	-0.1741	-0.4083	0.8805	2.153	9.6848	-1.5578	2.2675	0.0686	-0.189	-1.2579	-0.4166	9.3229	-1.2178	-0.2004	2.7946	2.3207	1.5208	-1.5636	0.2913	1.2126
0.7788	1.5479	9.3569	0.0204	0.5787	-0.3632	0.6724	-0.1801	-0.4083	0.363	1.582	9.673	-2.3023	1.9432	-0.0929	-0.1465	-1.24	-0.417	9.8942	-1.8497	-0.1913	3.5887	2.38	1.5991	-1.6341	0.3462	1.1875
0.5497	1.376	9.4111	-0.0492	0.3669	-0.5153	0.6664	-0.1981	-0.4083	0.8817	1.6379	9.6838	0.7586	2.7782	0.6686	-0.1749	-1.2406	-0.3815	9.6695	-1.1028	0.0403	3.6114	2.6272	1.4208	-1.5985	0.3422	1.2247
0.9025	1.2038	9.7721	0.3801	0.2875	-0.5872	0.6664	-0.1741	-0.3963	0.6514	1.524	9.6788	-1.3331	2.8749	0.7284	-0.1602	-1.2764	-0.4513	9.8453	-1.2169	0.2767	3.9017	2.5673	0.7043	-1.6331	0.3404	1.2425
1.1272	1.3176	9.4813	0.1313	0.0841	-0.5213	0.6784	-0.1861	-0.4023	1.1713	1.5801	9.749	-1.2391	2.9054	0.4203	-0.1884	-1.2786	-0.3801	10.3534	-1.5056	-0.0058	4.264	2.6284	0.5755	-1.6331	0.2897	1.2297
1.1843	1.6625	9.4833	-0.036	0.5514	-0.1485	0.6724	-0.1741	-0.4023	1.111	1.6945	9.6292	-1.6453	2.5149	0.0111	-0.1898	-1.2203	-0.4002	10.0106	-1.1609	-0.0114	4.3412	2.5382	-0.1376	-1.6164	0.3617	1.2043
0.7264	1.7787	9.6519	0.2185	0.847	-0.0615	0.6664	-0.1981	-0.3903	0.4234	1.9255	9.8531	-1.7471	2.0252	0.064	-0.1751	-1.2391	-0.4172	10.0634	-1.3339	-0.2444	3.9563	2.3882	-1.0898	-1.5811	0.3089	1.2104
0.906	1.1467	9.9492	-0.0061	1.2258	0.5258	0.6724	-0.1921	-0.3903	0.7177	1.8682	10.156	-2.7664	0.2911	0.371	-0.2179	-1.2555	-0.4525	9.7214	-1.5054	-0.2518	3.6764	2.2052	-1.4593	-1.6523	0.317	1.136
0.7212	1.5481	9.3558	-0.2825	1.2681	0.5633	0.6664	-0.1921	-0.4023	0.4841	1.6395	9.9726	-1.2489	-0.7803	0.756	-0.1747	-1.2583	-0.4165	10.0045	-0.8751	-0.3022	3.4231	1.8689	-2.1112	-1.6167	0.3637	1.1859
0.7794	1.203	9.3561	-0.4571	1.5515	0.7827	0.6664	-0.1621	-0.3963	0.6411	1.8665	9.2041	-1.0479	-1.491	1.0217	-0.1467	-1.2384	-0.4527	9.9497	-0.8746	-0.1866	3.176	1.3471	-2.6144	-1.6509	0.3425	1.2239
0.7847	2.0087	9.7127	-0.5137	1.7072	0.8765	0.6724	-0.1861	-0.3963	0.649	1.5238	9.56	-0.7761	-1.8319	0.6763	-0.1739	-1.2967	-0.4149	9.4349	-1.3331	-0.3153	3.0766	1.287	-3.0148	-1.6168	0.3305	1.1713
0.9599	1.3761	9.7736	-0.6688	1.9576	0.6987	0.6724	-0.1861	-0.4083	0.6471	1.3519	9.4408	-0.3438	-1.7774	0.5854	-0.1754	-1.2207	-0.4001	9.9539	-1.3329	-0.0132	3.3167	1.5024	-3.0443	-1.6333	0.3248	1.226
0.6712	1.6641	9.7687	-0.6537	1.375	0.4814	0.6664	-0.1801	-0.4143	0.6999	1.8665	9.2647	1.0582	-0.8206	1.0064	-0.1887	-1.2763	-0.4337	9.4888	-1.5633	-0.49	3.8104	1.3465	-2.9045	-1.6173	0.3675	1.1493
0.7248	1.376	9.5327	-0.3784	0.5348	-0.2318	0.6844	-0.2041	-0.4083	0.4147	2.0964	9.4375	2.9036	0.9838	2.4934	-0.1603	-1.2595	-0.3985	9.2681	-1.1599	-0.0847	4.2032	1.4999	-2.9696	-1.6168	0.3305	1.1713
0.3777	2.124	9.5278	-0.8243	0.2768	-0.558	0.6724	-0.1741	-0.4203	0.7066	2.0389	9.6216	3.5782	2.5064	2.7379	-0.1608	-1.2395	-0.4171	10.0032	-1.5639	-0.4214	4.4146	1.4997	-3.0663	-1.6507	0.3074	1.2276
0.7821	0.9733	9.4737	-0.8394	-0.1214	-0.865	0.6784	-0.1921	-0.4083	0.7029	2.0957	9.4435	2.5743	3.1074	2.5925	-0.1606	-1.2572	-0.4521	9.3877	-1.1017	0.2096	4.8671	1.6531	-3.1943	-1.5989	0.3109	1.1918
0.7835	1.4335	9.5931	-0.925	-0.0558	-0.649	0.6664	-0.2041	-0.4143	0.4702	1.5236	9.2593	0.9357	2.7362	2.583	-0.1467	-1.2384	-0.4527	10.0649	-1.5631	-0.1868	5.1159	1.5595	-3.0478	-1.6331	0.2897	1.2297
0.7904	1.3194	9.9474	-0.3906	0.2589	-0.5076	0.6664	-0.1861	-0.4263	0.9349	2.0381	9.5075	0.9571	2.1846	2.2644	-0.1455	-1.2791	-0.3976	9.2711	-1.6184	0.0304	5.5135	1.4353	-3.0901	-1.5982	0.2895	1.2303
0.8975	1.4907	9.5363	-0.632	0.5444	-0.4696	0.6724	-0.1861	-0.4203	0.7043	1.5234	9.4423	0.6173	1.9788	1.488	-0.1604	-1.2587	-0.4163	9.956	-1.2177	0.1039	5.6685	1.4961	-2.9374	-1.6163	0.3442	1.2061
0.8538	1.2625	10.2439	-0.2559	0.7736	-0.4164	0.6904	-0.1861	-0.4263	0.4728	1.9246	9.4384	-0.1585	1.5942	1.1709	-0.159	-1.317	-0.3962	9.4945	-1.5622	-0.1983	6.0399	1.6789	-2.5697	-1.6689	0.3289	1.1888
0.2579	1.5486	9.2286	0.3636	0.8395	-0.4006	0.6784	-0.1921	-0.4083	1.1694	1.8662	9.6902	0.2946	1.0662	0.7917	-0.1608	-1.2395	-0.4171	9.7791	-1.1611	-0.1911	5.7238	1.8351	-2.9596	-1.6334	0.3424	1.2241
0.4363	1.6065	9.5276	-0.04	0.856	-0.4822	0.6664	-0.1861	-0.4143	0.5386	1.4673	9.7951	0.9665	0.6886	0.261	-0.1745	-1.2598	-0.3807	9.2096	-1.7339	-0.2046	5.9885	1.8975	-3.3639	-1.6158	0.3072	1.2282
0.7302	1.4917	9.8285	-0.3757	0.4999	-1.2387	0.6604	-0.1921	-0.4023	0.5309	1.2376	9.3787	-0.0212	0.4618	-0.208	-0.1892	-1.2402	-0.3816	9.5458	-1.5634	-0.4889	6.3677	2.053	-4.0452	-1.6164	0.311	1.1915
0.7824	1.4334	9.534	-1.3862	0.2642	-1.8866	0.6724	-0.1861	-0.4083	0.9908	1.7515	9.3893	1.6758	0.6782	-0.1394	-0.1886	-1.2771	-0.4158	10.1274	-2.136	0.0457	6.8618	2.0863	-5.133	-1.6165	0.2779	1.1769
0.5521	1.8939	9.5897	-2.12	-0.7811	-3.2171	0.6724	-0.1801	-0.4083	0.6482	1.8672	9.5607	1.7263	1.6912	-0.2757	-0.1746	-1.2591	-0.3986	10.1663	-1.5082	-0.8262	8.4095	2.4574	-6.633	-1.5823	0.3498	1.1517
1.1885	0.5704	9.5988	-3.0979	-2.1513	-4.2383	0.6724	-0.1981	-0.4203	0.4196	2.0397	9.6751	2.9745	2.5606	-0.3507	-0.1464	-1.2569	-0.4698	9.7804	-1.2757	-0.1331	9.8604	3.3217	-8.0245	-1.5992	0.3129	1.1735
0.9041	1.6065	9.8912	-3.5346	-3.5417	-4.6628	0.6724	-0.1861	-0.4023	1.0462	2.2091	9.332	2.4663	3.3073	-0.6162	-0.1747	-1.2583	-0.4165	10.2355	-1.2766	-0.1824	11.3004	4.4645	-9.7162	-1.5809	0.3245	1.2269
0.9104	1.2047	10.1858	-2.0537	-3.6999	-5.7674	0.6784	-0.1861	-0.4143	0.5299	1.6382	9.3796	1.2454	3.8201	-0.7945	-0.1473	-1.2016	-0.4185	10.2974	-1.4479	0.0516	12.4456	5.8832	-10.7467	-1.6157	0.2896	1.23
0.7285	1.2039	9.7096	-0.1888	-4.0551	-6.2724	0.6724	-0.1801	-0.4263	0.8811	1.9241	9.6844	0.9069	3.7658	-1.1049	-0.1597	-1.2794	-0.3799	10.2256	-1.5079	-0.7084	13.6821	6.9942	-12.0036	-1.6158	0.3072	1.2282
0.9018	1.6062	9.773	0.1574	-4.1037	-7.1352	0.6724	-0.1981	-0.4083	0.9437	1.81	9.923	1.4886	3.6024	-1.1068	-0.1611	-1.2211	-0.4	10.4077	-1.2766	-0.1206	13.5056	8.3255	-13.5342	-1.6342	0.3131	1.1729
0.9001	1.3185	9.6541	2.5069	-5.0602	-7.6249	0.6664	-0.2101	-0.4143	0.539	1.8108	9.8553	0.2563	3.5317	-1.2028	-0.1602	-1.2602	-0.3806	9.7796	-1.5053	-0.1923	13.0177	9.1925	-14.3012	-1.6339	0.3111	1.1912
0.8509	0.9746	10.0659	4.5427	-6.2133	-7.0405	0.6844	-0.1801	-0.4143	0.6524	1.1234	9.678	-0.0809	3.569	-1.419	-0.174	-1.2959	-0.4328	9.8363	-1.276	-0.1904	12.58	9.7796	-14.3682	-1.5987	0.3265	1.2083
1.0784	1.4338	9.9533	9.4742	-7.798	-7.6271	0.6664	-0.1801	-0.4083	0.8845	1.9817	9.8627	-0.5346	4.0662	-1.0094	-0.189	-1.2579	-0.4166	9.5991	-1.3346	-0.662	11.8417	9.7516	-14.6625	-1.6512	0.2937	1.1928
0.7273	1.2613	9.6506	11.2309	-8.029	-8.7693	0.6724	-0.1741	-0.4083	0.7621	1.9813	9.5038	-0.8977	4.3798	-1.0971	-0.2181	-1.2378	-0.4176	9.4874	-1.3914	-0.5478	11.5954	9.9064	-14.6532	-1.5986	0.2583	1.1974
0.959	1.8361	9.7747	9.1313	-6.808	-8.3452	0.6664	-0.1921	-0.4263	0.5872	1.2946	9.3206	-2.0124	4.0307	-1.167	-0.1752	-1.2384	-0.4351	9.3544	-0.993	-1.4823	11.8287	9.9382	-15.1194	-1.6166	0.2954	1.1751
1.417	1.6624	9.606	8.734	-5.2913	-7.9912	0.6724	-0.2041	-0.4143	0.6436	1.8095	9.3229	-2.4163	3.8529	-1.0782	-0.1744	-1.2767	-0.4336	9.3012	-1.2217	-1.3092	12.658	9.9045	-14.8903	-1.6512	0.3444	1.2055
1.2911	1.9488	9.0725	6.257	-4.2737	-8.8098	0.6724	-0.1741	-0.4023	1.1044	1.9801	9.3327	-1.8965	3.66	-1.1116	-0.1747	-1.2583	-0.4165	9.3609	-1.5082	-1.1924	13.9034	10.056	-15.0342	-1.5812	0.3265	1.2086
-0.2168	-2.1327	8.1468	10.3918	-1.9897	-13.7778	0.6544	-0.1921	-0.4143	0.4794	1.639	9.7349	-3.4114	3.4075	-0.6555	-0.1603	-1.2595	-0.3985	8.8529	-1.2196	-0.9099	14.4642	10.4881	-15.5879	-1.6168	0.3305	1.1713
2.9127	1.3143	9.457	-0.8818	0.9263	-28.9515	0.6664	-0.1921	-0.4143	0.6612	1.4105	10.1539	-2.9284	2.9981	-0.1678	-0.2026	-1.2951	-0.433	8.7416	-1.5058	-0.7965	15.7965	10.8553	-15.7891	-1.5821	0.3147	1.1555
1.6316	1.775	8.7833	-9.5416	3.5625	-41.0171	0.6544	-0.1981	-0.4083	0.6426	1.7521	9.2633	-1.8559	2.7642	-0.0157	-0.1891	-1.2571	-0.4344	8.908	-1.4495	-1.0263	16.2211	11.1007	-15.7289	-1.6328	0.2371	1.2353
0.078	2.2956	8.9315	-6.3785	0.7904	-43.3974	0.6664	-0.1921	-0.4143	0.3013	1.8107	9.494	-1.8945	2.4555	0.5347	-0.1744	-1.2767	-0.4336	9.2646	-1.9065	-0.3208	17.2528	11.1297	-15.9645	-1.6337	0.276	1.195
-0.4952	2.4121	9.0979	-7.9445	-0.2484	-36.7775	0.6724	-0.1981	-0.4143	0.366	1.3533	9.7914	-1.6649	1.8317	1.8829	-0.1601	-1.261	-0.3628	9.0279	-1.506	-0.7324	18.6497	10.4766	-15.3329	-1.6516	0.2624	1.1599
-1.3519	2.4721	9.4949	-6.562	-1.0095	-21.9617	0.6784	-0.1861	-0.4083	0.7077	1.581	9.6207	1.507	2.0204	2.5712	-0.1595	-1.2971	-0.4148	9.2023	-1.4483	-0.5537	19.4907	9.703	-15.0943	-1.6511	0.2761	1.1947
-0.4941	2.4697	9.1571	-3.9855	-0.8577	-3.5992	0.6724	-0.1861	-0.4143	0.48	1.8681	9.7948	0.7857	1.3865	2.8984	-0.1314	-1.278	-0.4332	9.7135	-1.5643	-0.6605	20.4085	8.8652	-14.1809	-1.5812	0.2757	1.1958
0.9378	1.1434	8.591	-6.5111	-1.1783	-3.1126	0.6664	-0.1921	-0.4023	1.004	1.6956	10.0428	2.2758	0.4697	3.1317	-0.1458	-1.2776	-0.4333	9.609	-1.7919	-0.1968	21.3357	7.4416	-13.2536	-1.6161	0.2584	1.1971
0.6739	1.3769	9.8862	-4.6401	-4.0178	-5.2488	0.6544	-0.1681	-0.4023	0.9347	2.0953	9.5076	1.0688	-1.4749	3.1876	-0.1595	-1.2971	-0.4148	10.0653	-1.8499	-0.1879	22.7577	6.4202	-13.1263	-1.5809	0.2738	1.2142
1.3551	2.1795	9.4288	-3.4169	-5.0681	-2.8136	0.6604	-0.1861	-0.4083	0.7094	1.8674	9.7401	-0.7301	-3.8682	2.802	-0.174	-1.2959	-0.4328	10.6857	-1.7948	-0.5252	24.6346	5.152	-13.2925	-1.5818	0.262	1.161
1.0224	1.7792	10.0712	-6.1367	-3.3076	-3.9271	0.6484	-0.1741	-0.4203	0.5353	1.8677	9.6771	-1.6969	-6.2441	2.2329	-0.1454	-1.2799	-0.3797	10.5722	-1.3929	-0.4677	27.2604	3.8794	-12.7031	-1.617	0.2642	1.1421
0.7932	1.6647	10.1256	-5.635	-2.2199	-2.0722	0.6664	-0.1681	-0.4143	0.8186	1.4658	9.3851	-3.8835	-8.1658	0.805	-0.1468	-1.2215	-0.3999	10.5261	-1.8498	0.0547	29.8498	1.9926	-12.8088	-1.5817	0.2952	1.1756
1.2071	1.4353	10.6648	-6.3568	-0.6522	-0.0627	0.6664	-0.1681	-0.4083	0.778	1.7538	10.2758	-5.5656	-9.3015	0.2568	-0.1608	-1.2395	-0.4171	10.5896	-1.5619	0.407	32.6586	-0.111	-12.8017	-1.5989	0.2602	1.1791
1.3078	1.4333	9.8987	-3.5954	-0.9486	0.5396	0.6544	-0.1801	-0.4203	0.9385	1.5232	9.6253	-5.1457	-9.9218	0.0611	-0.1757	-1.2192	-0.4359	10.752	-1.162	0.0034	34.7796	-2.1796	-13.5197	-1.634	0.278	1.1766
0.6127	2.1242	9.7687	-2.9934	-1.5205	1.4368	0.6784	-0.1681	-0.4023	1.1196	0.6077	9.9241	-6.2941	-10.3039	0.6391	-0.1889	-1.2586	-0.3987	10.8639	-1.22	-0.1112	36.0168	-4.0569	-15.4477	-1.581	0.2406	1.1996
0.7773	1.7778	9.2984	-4.8192	-0.7339	3.1026	0.6664	-0.1741	-0.4203	1.238	1.2947	10.1656	-2.3135	-9.849	0.4689	-0.1455	-1.2791	-0.3976	10.7587	-1.0461	0.354	36.5671	-5.807	-18.0058	-1.616	0.2915	1.2117
0.7876	1.664	9.83	-5.5838	-0.6048	4.4337	0.6724	-0.1681	-0.4143	1.1896	0.895	10.5795	-5.0402	-10.6647	1.0364	-0.1742	-1.2782	-0.3978	10.526	-0.3006	0.177	36.382	-6.6889	-21.4801	-1.5637	0.3088	1.2107
1.1317	1.3182	9.7177	-5.4413	-0.4248	5.0109	0.6724	-0.1801	-0.4203	1.5848	0.1548	12.9619	-1.3352	-15.2645	-0.6761	-0.1742	-1.2782	-0.3978	10.2362	-0.2436	-0.0619	35.0573	-7.4433	-25.3596	-1.6151	0.235	1.2539
0.954	1.4904	9.4784	-6.087	0.1258	5.9145	0.6664	-0.1741	-0.4023	1.0097	0.557	13.0697	26.8969	-24.0709	-6.6214	-0.1461	-1.2592	-0.4162	10.0608	0.3297	-0.2383	32.8786	-8.3185	-29.3181	-1.5986	0.2583	1.1974
0.7849	1.2612	9.6517	-6.8196	0.2797	6.1468	0.6664	-0.1681	-0.4203	1.942	-0.5891	13.4429	59.4303	-23.5124	-15.4804	-0.2027	-1.2782	-0.3802	10.0086	0.1585	-0.0067	31.0118	-8.1498	-32.2357	-1.5984	0.2739	1.2139
1.2441	1.6627	9.6026	-6.8726	0.6493	6.2417	0.6724	-0.1741	-0.4023	5.298	-0.2524	14.1661	52.5948	-19.4786	-26.8164	-0.1733	-1.3166	-0.3963	9.506	0.6203	0.5683	28.1237	-7.4273	-34.038	-1.6158	0.2564	1.2154
0.556	1.6068	9.7663	-6.7095	0.4256	5.5653	0.6784	-0.1621	-0.4023	7.5062	-2.3225	11.9503	102.8349	-40.0837	-46.6453	-0.2021	-1.315	-0.4144	9.685	-0.0671	0.9193	28.1179	-5.6685	-34.4501	-1.6159	0.2233	1.2008
0.7319	1.2043	9.8869	-5.8148	0.2356	5.634	0.6724	-0.1621	-0.4263	3.3849	-2.0177	16.2613	-21.3461	-67.0922	-71.2145	-0.188	-1.2978	-0.3793	9.5159	0.1057	1.0332	27.58	-2.5221	-34.5037	-1.5981	0.2212	1.2195
1.1998	1.1469	10.2504	-5.3662	-0.0294	5.2554	0.6664	-0.1561	-0.4143	3.4379	0.6207	19.2376	53.3489	-76.7753	-78.6995	-0.145	-1.299	-0.379	9.9129	0.1046	0.9245	27.41	-0.1507	-33.631	-1.6151	0.235	1.2539
1.1933	1.6061	9.956	-5.1834	-0.3166	4.2121	0.6724	-0.1621	-0.4023	2.3743	-1.1597	14.8167	85.3204	-87.4142	-87.5109	-0.1311	-1.2803	-0.3796	10.1467	-0.6406	1.1598	25.5076	1.4244	-33.0238	-1.6325	0.1844	1.2409
1.302	1.5476	9.6034	-5.182	-0.6261	3.3256	0.6724	-0.1861	-0.4203	2.4741	-0.9267	16.9575	70.4283	-93.8318	-85.4588	-0.2011	-1.3541	-0.395	10.1358	-0.9869	0.575	25.4495	2.6544	-32.0318	-1.6154	0.237	1.2356
1.0171	1.606	9.7753	-5.0413	-1.2793	2.0981	0.6604	-0.1801	-0.4203	2.591	-2.0717	16.8982	115.9293	-95.0204	-89.3534	-0.1724	-1.3388	-0.3241	10.5347	-1.504	0.5228	22.8098	3.494	-32.1708	-1.6142	0.1961	1.2943
0.9033	1.3764	9.8316	-3.7292	-1.4585	1.6076	0.6844	-0.1681	-0.4023	1.0245	-1.382	16.4515	141.739	-82.3254	-88.0012	-0.1859	-1.3768	-0.3227	9.9596	-1.3318	0.2786	20.055	3.0409	-32.8994	-1.6146	0.2156	1.2741
0.9029	0.9738	9.7715	-3.7664	-1.4884	1.3948	0.6664	-0.1621	-0.4143	-0.5183	-1.2052	17.1329	194.019	-59.8964	-77.7211	-0.2293	-1.3563	-0.3238	10.2995	-1.3328	0.1687	16.4825	1.6048	-34.0406	-1.6153	0.1687	1.2248
0.7839	1.2035	9.5925	-2.4755	-0.6539	1.7648	0.6604	-0.1621	-0.4083	-2.8446	-1.3791	13.1645	258.1387	-30.2569	-70.6884	-0.1567	-1.3976	-0.3038	10.0177	-1.2744	0.3383	12.0817	0.6327	-35.0595	-1.5617	0.1782	1.2971
0.7222	0.9731	9.3544	-1.9977	-0.1835	1.9999	0.6724	-0.1621	-0.4203	-14.9979	-0.622	4.8972	275.1787	-13.3192	-43.1191	-0.1839	-1.472	-0.3367	10.0127	-1.7343	0.0448	7.7116	-0.181	-37.3385	-1.6148	0.1824	1.2595
0.714	1.7772	9.0017	-1.9948	1.5039	3.3214	0.6664	-0.1621	-0.4083	-9.5017	-10.0557	-12.4714	152.9573	-27.8246	73.9921	-0.1701	-1.4363	-0.2845	10.1454	-1.272	1.0408	2.9086	-1.0589	-38.5317	-1.5627	0.184	1.2421
1.0207	1.4914	9.9523	-2.5354	2.6926	4.2871	0.6484	-0.1621	-0.4023	-11.3047	-6.807	7.2769	-230.3336	7.4267	169.073	-0.1853	-1.3975	-0.2862	10.1899	-1.2744	0.4001	-1.0197	-0.7734	-37.9825	-1.5976	0.1842	1.2415
0.9511	1.26	9.3005	-4.2747	4.5424	5.0722	0.6664	-0.1741	-0.4143	-10.2926	-6.8519	14.6627	-70.4893	20.6454	204.7467	-0.2557	-1.4522	-0.3023	10.3062	-1.2168	0.5193	-5.3628	-0.6379	-38.3542	-1.5794	0.1627	1.2803
1.1303	1.4905	9.659	-4.5024	5.6835	5.0843	0.6724	-0.1681	-0.4143	-6.4464	-10.0857	4.8756	-33.0472	18.8155	225.1103	-0.2429	-1.3935	-0.3402	10.2354	-1.2192	-0.1822	-8.6894	0.75	-36.0282	-1.5977	0.151	1.2269
0.784	1.7786	9.653	-3.5937	5.8259	4.3308	0.6604	-0.1621	-0.4083	-4.1108	-10.5006	0.587	-88.2815	11.4643	211.0714	-0.2865	-1.3715	-0.377	10.5267	-1.5054	0.1143	-12.5501	2.6906	-32.6275	-1.6667	0.1456	1.2807
1.0119	1.3753	9.4792	-2.3284	5.1583	3.564	0.6664	-0.1681	-0.4143	-3.4373	-9.5824	2.6816	-186.0054	1.9076	170.7815	-0.3161	-1.3316	-0.3967	10.4201	-1.8482	0.4609	-16.0344	5.2484	-29.71	-1.5448	0.1137	1.2498
