1818_acc_x	1818_acc_y	1818_acc_z	1818_gyro_x	1818_gyro_y	1818_gyro_z	1818_mag_x	1818_mag_y	1818_mag_z	1819_acc_x	1819_acc_y	1819_acc_z	1819_gyro_x	1819_gyro_y	1819_gyro_z	1819_mag_x	1819_mag_y	1819_mag_z	1820_acc_x	1820_acc_y	1820_acc_z	1820_gyro_x	1820_gyro_y	1820_gyro_z	1820_mag_x	1820_mag_y	1820_mag_z
-2.2154	1.3236	9.4162	-0.1336	0.5547	-0.3291	0.6124	-0.3722	-0.2161	2.3249	0.3753	9.6515	0.0048	0.2757	0.1285	-0.3042	-0.6972	-0.9211	8.9737	3.2571	-0.1911	0.5412	1.0692	-0.5351	-1.0952	-0.0628	0.9316
-2.393	1.4383	9.1766	-0.1227	0.8	-0.0839	0.5524	-0.1741	-0.2582	2.3849	0.3754	9.7715	0.0651	0.2131	0.1583	0.1582	-0.8857	-0.8569	8.9794	3.2582	0.1007	0.1731	1.255	-0.4917	-1.1179	0.1731	0.6708
-3.1369	0.9803	9.3974	0.0868	0.6072	-0.2122	0.5464	-0.1741	-0.2462	2.7243	0.6029	9.482	0.0975	0.3346	0.3459	0.202	-0.9254	-0.8551	9.658	2.5675	-0.2382	0.388	1.162	-0.4986	-1.1887	0.1792	0.6146
-2.4479	1.1513	9.293	0.1817	0.6951	-0.1835	0.5704	-0.1741	-0.2582	2.1624	-0.0239	10.1225	0.1559	0.1198	0.0951	0.202	-0.9254	-0.8551	9.0856	3.1992	-0.3057	0.5091	1.1311	-0.5636	-1.1709	0.2279	0.646
-2.268	0.9793	9.6506	0.0582	0.5477	-0.0898	0.5584	-0.1801	-0.2582	2.3822	0.0317	9.5926	0.0662	0.2445	0.0045	0.1733	-0.9238	-0.8732	9.2086	3.3154	0.1638	0.4171	1.3467	-0.4323	-1.1534	0.1771	0.6335
-2.7313	1.6124	9.5841	-0.4394	0.6289	-0.2602	0.5704	-0.1801	-0.2642	2.0339	0.0323	9.4666	-0.2732	0.1891	-0.0589	0.1443	-0.9045	-0.8563	8.8663	3.3733	0.1572	0.5089	1.3772	-0.4024	-1.1538	0.1966	0.6133
-2.3866	0.9791	9.4711	-0.0035	0.5503	-0.0883	0.5644	-0.1741	-0.2642	1.7449	0.3191	9.4612	-0.3342	0.2809	0.2515	0.1587	-0.9049	-0.8562	9.48	3.3698	-0.5305	0.7237	1.2842	-0.4094	-1.189	0.2319	0.609
-2.2658	1.0371	9.769	-0.2494	0.7132	-0.1424	0.5524	-0.1621	-0.2582	1.7427	0.2617	9.3423	-0.1187	0.3073	0.4068	0.173	-0.9053	-0.8561	9.5486	3.2571	0.0538	0.6602	1.5	-0.3711	-1.2061	0.2301	0.6271
-2.7402	1.5538	9.1111	0.0278	0.427	0.0018	0.5644	-0.1681	-0.2582	2.2654	0.1463	9.531	-0.0875	0.2773	0.1283	0.1441	-0.903	-0.892	9.3157	3.3713	-0.1838	0.5439	1.3456	-0.2191	-1.1536	0.1615	0.6171
-2.3326	1.1511	9.2953	-0.4044	0.6281	-0.1086	0.5584	-0.1801	-0.2702	2.0933	0.2613	9.5871	0.0347	0.2142	0.0348	0.1448	-0.9237	-0.8555	9.2052	3.3148	-0.0112	0.7804	1.4385	-0.4986	-1.188	0.2085	0.6659
-2.6777	0.7492	9.2876	-0.1613	0.4953	-0.1763	0.5644	-0.1741	-0.2642	2.214	0.0326	9.8267	-0.0566	0.3069	0.2525	0.188	-0.9434	-0.8723	8.8631	3.2579	-0.0183	0.9042	1.4994	-0.376	-1.1526	0.1889	0.6866
-2.2829	1.7825	8.9433	-0.2781	0.5927	0.0102	0.5704	-0.1801	-0.2462	1.8622	0.4908	9.5828	0.0958	0.1826	0.0034	0.1727	-0.8869	-0.839	9.4339	2.9702	-0.0079	0.9693	1.4064	-0.2567	-1.1879	0.191	0.6677
-2.2181	0.9207	9.2379	-0.374	0.5963	-0.1095	0.5464	-0.1801	-0.2642	1.6862	0.2619	9.4005	-0.3664	0.1597	0.0022	0.1302	-0.9056	-0.8207	8.8522	2.9117	-0.6031	1.1195	1.5601	-0.2553	-1.1889	0.2143	0.6109
-2.5648	1.4388	9.2324	-0.1003	0.4012	-0.1478	0.5644	-0.1801	-0.2642	2.0929	0.433	9.5874	-0.1468	0.371	-0.0245	0.159	-0.9233	-0.8733	9.1397	2.8543	-0.4809	1.0831	1.5919	-0.5002	-1.1883	0.2105	0.6475
-2.3275	1.4392	9.5915	-0.2826	0.3787	-0.0215	0.5644	-0.1741	-0.2582	2.1528	0.4903	9.7076	-0.2064	0.4943	0.1011	0.1589	-0.9064	-0.8205	9.2024	3.6585	-0.1267	1.1459	1.5607	-0.4407	-1.17	0.1714	0.6882
-2.1638	0.9202	9.0617	-0.0024	0.6114	-0.0879	0.5584	-0.1681	-0.2642	2.0952	0.4904	9.7064	-0.1465	0.4614	0.3786	0.1437	-0.8838	-0.8928	8.973	3.716	-0.1894	0.8416	1.5613	-0.4038	-1.171	0.1948	0.6314
-2.735	1.2094	9.3467	-0.2186	0.5594	-0.0525	0.5704	-0.1921	-0.2522	2.6097	0.317	9.4791	-0.3003	0.4341	0.1925	0.1863	-0.8666	-0.8753	9.1954	2.9687	-0.5377	1.0241	1.5917	-0.4066	-1.1529	0.1908	0.6683
-2.7252	1.3831	9.879	-0.3358	0.5348	0.1943	0.5644	-0.1801	-0.2642	2.1543	0.376	9.7668	-0.3626	0.3742	0.0987	0.1456	-0.962	-0.854	9.2537	2.9115	-0.4784	1.2659	1.7452	-0.407	-1.1702	0.2065	0.6845
-2.4556	1.0353	8.879	-0.0006	0.5201	0.0335	0.5704	-0.1621	-0.2642	2.377	0.2029	9.3552	-0.3665	0.1896	0.1881	0.1865	-0.8843	-0.9103	9.2589	3.2567	-0.1854	1.1794	1.7755	-0.1578	-1.1705	0.2084	0.6662
-2.3847	1.1519	9.5897	-0.0053	0.4891	-0.1191	0.5524	-0.1741	-0.2642	2.1553	0.4333	9.8263	-0.2405	0.341	0.191	0.1883	-0.9449	-0.8366	8.8039	3.2002	-0.1364	1.0011	1.6829	-0.0028	-1.1707	0.1928	0.6497
-2.3278	1.6117	9.5919	-0.218	0.4985	0.0082	0.5644	-0.1621	-0.2342	2.263	0.1461	9.4122	-0.271	0.3418	0.1292	0.1439	-0.8853	-0.8571	8.982	3.0865	0.2168	1.518	1.5588	-0.1708	-1.1714	0.2142	0.6112
-2.9679	1.267	9.2241	-0.222	0.5591	-0.1744	0.5704	-0.1741	-0.2522	2.3861	0.3755	9.8309	-0.4261	0.3129	0.3137	0.1731	-0.9061	-0.8382	9.0868	3.142	-0.2476	1.3005	1.56	-0.3514	-1.1721	0.2357	0.5727
-2.2741	1.2661	9.3558	-0.2502	0.4691	-0.0217	0.5524	-0.1741	-0.2582	2.1493	-0.0252	9.4689	-0.2073	0.4333	0.0074	0.158	-0.8681	-0.822	8.8503	2.6818	-0.7206	1.3922	1.5905	-0.3215	-1.1884	0.1773	0.633
-2.7908	1.4398	9.4643	-0.2216	0.5286	-0.1441	0.5704	-0.1561	-0.2582	2.2704	0.0323	9.7685	-0.4238	0.3756	0.006	0.1738	-0.9437	-0.8545	9.145	3.1421	-0.1881	1.331	1.5599	-0.352	-1.1702	0.2065	0.6845
-2.2152	1.2086	9.4159	-0.3415	0.5951	-0.0493	0.5704	-0.1801	-0.2522	2.1424	0.3748	9.1726	-0.2075	0.4331	0.0691	0.1577	-0.8658	-0.8756	9.3785	3.3723	0.1091	1.0886	1.4988	-0.318	-1.1715	0.2318	0.6093
-2.4449	0.7491	9.4103	-0.2152	0.7123	-0.0212	0.5584	-0.1561	-0.2582	2.205	-0.1973	9.3509	-0.2092	0.341	0.0675	0.1732	-0.9069	-0.8203	9.4868	3.371	-0.1804	1.112	1.5613	-0.5942	-1.1886	0.2124	0.6292
-2.5017	0.9218	9.4687	-0.1843	0.711	-0.0219	0.5464	-0.1681	-0.2462	2.6155	-0.1403	9.7158	-0.1179	0.2783	0.0048	0.1872	-0.905	-0.8738	9.0876	3.3717	-0.1884	1.1723	1.469	-0.6905	-1.1885	0.1949	0.6311
-2.6766	1.3819	9.4073	-0.1311	0.555	-0.2377	0.5644	-0.1621	-0.2642	2.1466	0.6042	9.4107	-0.0845	0.4309	0.1002	0.1443	-0.9045	-0.8563	8.8088	2.9716	0.0962	1.2939	1.4995	-0.692	-1.1358	0.1419	0.6376
-2.6749	1.0371	9.4656	-0.2185	0.4679	0.008	0.5644	-0.1681	-0.2462	2.2721	0.3187	9.8879	-0.088	0.2467	0.0969	0.1584	-0.9034	-0.8919	9.551	3.2001	0.1703	1.1113	1.4691	-0.6893	-1.1532	0.1927	0.65
-2.967	1.3822	9.2835	-0.1877	0.5581	-0.0532	0.5464	-0.1921	-0.2642	2.0297	0.776	9.3493	-0.0847	0.4006	0.007	0.1299	-0.9033	-0.8743	9.3783	3.487	0.1095	1.2695	1.4986	-0.4141	-1.1887	0.23	0.6274
-2.2751	1.2084	9.2965	-0.2482	0.4388	0.0696	0.5704	-0.1681	-0.2522	1.9734	0.2039	9.3469	-0.2409	0.3405	0.3145	0.1589	-0.9064	-0.8205	9.2581	3.027	-0.2445	1.3	1.5908	-0.3505	-1.1361	0.1946	0.632
-2.5039	1.4966	9.411	-0.127	0.4029	0.0054	0.5584	-0.1681	-0.2702	2.2681	0.49	9.71	-0.3046	0.189	0.0955	0.1738	-0.9437	-0.8545	9.1466	2.8555	-0.1307	1.6027	1.7442	-0.3521	-1.153	0.2084	0.6665
-2.6154	1.2672	9.5855	-0.3719	0.4745	0.0423	0.5704	-0.1681	-0.2702	2.3778	0.3747	9.415	-0.3589	0.5886	0.1952	0.1741	-0.9621	-0.8716	9.1996	3.2563	-0.3032	1.6942	1.744	-0.354	-1.1537	0.179	0.6152
-2.5615	1.4967	9.4098	-0.3394	0.4734	0.1025	0.5644	-0.1801	-0.2642	1.8648	0.3765	9.7014	-0.1782	0.3708	0.1607	0.1733	-0.9238	-0.8732	9.4288	3.2562	-0.2403	1.3537	1.8071	-0.5303	-1.1715	0.2318	0.6093
-2.1593	0.9208	9.2981	-0.4375	0.2021	0.0728	0.5464	-0.1741	-0.2642	2.3752	0.4317	9.2963	-0.3622	0.4047	0.1301	0.1448	-0.9237	-0.8555	9.4294	2.912	-0.2415	1.1341	1.8086	-0.8033	-1.1536	0.2122	0.6298
-2.445	0.8066	9.4104	-0.3161	0.4712	-0.1726	0.5584	-0.1681	-0.2582	2.2059	0.4325	9.471	-0.3917	0.4668	0.1003	0.1868	-0.8858	-0.8746	9.0881	3.0275	-0.1896	1.2579	1.7772	-0.745	-1.188	0.2085	0.6659
-2.3866	0.9791	9.4711	-0.2481	0.5914	-0.0211	0.5704	-0.1681	-0.2522	2.7821	0.5455	9.4831	-0.086	0.339	0.0368	0.1731	-0.9061	-0.8382	9.2573	2.7973	-0.3037	1.1384	1.5618	-0.7796	-1.1706	0.1753	0.6516
-2.6252	1.0935	9.0531	-0.3491	0.4418	-0.233	0.5584	-0.1561	-0.2582	1.9758	0.2041	9.4658	-0.0576	0.2458	0.1896	0.1729	-0.9046	-0.8739	9.3717	3.3137	-0.2412	1.1691	1.5002	-0.8128	-1.1708	0.2104	0.6478
-2.2724	0.9787	9.4142	-0.2196	0.6508	-0.1434	0.5644	-0.1801	-0.2762	1.8061	0.3193	9.6407	-0.1503	0.2468	0.313	0.1444	-0.9052	-0.8384	9.6028	2.8548	-0.1216	0.8666	1.5621	-0.6509	-1.2067	0.2164	0.5923
-2.2736	0.9786	9.3551	0.0253	0.6708	-0.2408	0.5704	-0.1801	-0.2582	2.1538	0.0897	9.7068	0.0974	0.3345	0.3768	0.1587	-0.9049	-0.8562	8.9233	2.6846	0.0975	1.0549	1.4378	-0.5041	-1.1531	0.2259	0.6646
-2.7871	1.2102	9.6411	-0.4093	0.5361	-0.231	0.5524	-0.1921	-0.2582	2.0868	0.0317	9.2301	-0.2092	0.371	0.2225	0.1869	-0.8866	-0.8567	9.5425	3.4855	-0.2372	0.9663	1.4683	-0.3473	-1.1717	0.2162	0.5929
-2.6149	1.6123	9.6454	-0.3132	0.5936	-0.1415	0.5704	-0.1801	-0.2582	1.9747	0.6619	9.4667	-0.4523	0.529	0.1631	0.1161	-0.9228	-0.8557	9.2591	3.1419	-0.1858	0.8111	1.3769	-0.5318	-1.1705	0.2084	0.6662
-2.5	1.2095	9.5876	-0.1592	0.6176	-0.1756	0.5644	-0.1801	-0.2582	2.5523	0.2027	9.4776	-0.4825	0.5901	0.3494	0.1734	-0.9245	-0.8553	8.914	3.5436	-0.3079	0.904	1.2841	-0.5363	-1.1703	0.1733	0.6699
-2.7971	1.1515	9.109	-0.2751	0.6236	0.1018	0.5704	-0.1741	-0.2582	1.8671	0.434	9.8204	-0.1146	0.4922	0.2248	0.129	-0.8649	-0.8758	9.3783	3.487	0.1095	0.7169	1.4698	-0.5889	-1.223	0.2263	0.6634
-2.729	0.9801	9.6416	-0.2232	0.4369	-0.1446	0.5464	-0.1681	-0.2702	2.0927	0.5474	9.5877	-0.2071	0.4635	0.1314	0.1744	-0.9637	-0.8359	9.1969	2.7394	-0.4802	0.5605	1.317	-0.8675	-1.1886	0.2124	0.6292
-2.3297	1.3814	9.4732	-0.1849	0.5279	0.0685	0.5584	-0.1561	-0.2582	2.4966	0.3748	9.5956	-0.2708	0.3421	0.0674	0.1591	-0.9241	-0.8554	9.2542	3.3132	-0.4186	0.6885	1.1927	-0.6887	-1.1708	0.1597	0.6351
-2.5604	0.8643	9.4083	0.1243	0.4541	0.1216	0.5764	-0.1741	-0.2642	1.9744	0.7764	9.4669	-0.1763	0.463	0.1315	0.1732	-0.923	-0.891	9.1507	3.1432	0.1037	0.7183	1.3773	-0.5915	-1.189	0.2319	0.609
-2.3902	1.7262	9.3547	-0.3779	0.5653	-0.2316	0.5524	-0.1621	-0.2582	1.972	0.3182	9.2877	-0.363	0.3438	0.0364	0.1874	-0.9065	-0.8381	9.0946	2.5696	0.1005	0.9923	1.4074	-0.5962	-1.1537	0.2298	0.6279
-2.4525	1.2082	9.0568	-0.3444	0.4728	-0.0804	0.5524	-0.1741	-0.2522	2.1539	0.0325	9.7067	0.0973	0.2744	0.0668	0.1582	-0.8857	-0.8569	9.3727	3.4286	-0.1825	1.3339	1.4057	-0.3256	-1.1885	0.2456	0.6438
-2.563	1.0365	9.2905	-0.0095	0.6412	-0.3622	0.5644	-0.1741	-0.2582	2.2614	0.3176	9.3531	0.221	0.303	0.0676	0.159	-0.9233	-0.8733	8.6853	3.1422	-0.3723	1.2094	1.5294	-0.3504	-1.135	0.1712	0.6888
-2.5101	1.2083	9.0556	-0.0343	0.5516	-0.0875	0.5644	-0.1741	-0.2462	2.204	0.7185	9.4121	-0.1191	0.2468	0.1895	0.1737	-0.943	-0.8724	9.0882	2.9701	-0.1898	1.0533	1.6841	-0.4045	-1.2229	0.2087	0.6653
-2.6742	1.3247	9.5254	-0.0324	0.6128	-0.0567	0.5584	-0.1741	-0.2642	2.207	-0.0254	9.4701	-0.1492	0.3082	0.3141	0.1585	-0.9042	-0.874	9.3781	2.9131	0.0491	1.0824	1.592	-0.531	-1.206	0.2125	0.6289
-2.5617	0.9791	9.3495	0.1229	0.6675	-0.0602	0.5404	-0.1681	-0.2642	1.7412	0.376	9.2831	-0.2105	0.2795	0.0973	0.1738	-0.9437	-0.8545	8.8649	2.7992	0.0384	0.9905	1.5308	-0.5926	-1.2057	0.2106	0.6473
-2.441	1.0371	9.6474	-0.1525	0.6183	0.0683	0.5524	-0.1801	-0.2582	2.0901	0.6044	9.4689	-0.2711	0.3417	0.16	0.1581	-0.885	-0.8748	8.9098	2.5674	-0.6032	0.7777	1.5312	-0.5575	-1.1354	0.1907	0.6686
-2.2729	1.2087	9.4148	-0.0004	0.5811	0.0034	0.5644	-0.1801	-0.2522	1.9742	0.3757	9.4067	-0.3315	0.4341	0.316	0.1602	-0.9809	-0.871	8.9661	3.7148	-0.5395	1.0852	1.407	-0.5364	-1.2231	0.2438	0.6616
-2.5594	0.9219	9.4676	-0.3134	0.5325	-0.1113	0.5644	-0.1741	-0.2762	2.206	0.3752	9.4709	-0.3007	0.4036	0.1611	0.1883	-0.9449	-0.8366	9.4876	2.8548	-0.1822	0.7742	1.5317	-0.7116	-1.2229	0.2087	0.6653
-2.6194	0.9792	9.3484	-0.0625	0.6142	-0.0255	0.5584	-0.1861	-0.2522	2.2659	0.4326	9.591	-0.2702	0.4028	0.2229	0.2	-0.8302	-0.841	9.2006	3.3139	-0.2447	1.0465	1.5929	-0.7769	-1.1358	0.2102	0.6484
-2.3357	0.9782	9.1176	-0.4696	0.5693	-0.1988	0.5464	-0.1681	-0.2582	2.0959	-0.3109	9.6454	-0.2979	0.5569	0.1947	0.1589	-0.9064	-0.8205	8.9728	3.1422	-0.2498	0.8908	1.8091	-0.7676	-1.171	0.1948	0.6314
-2.6785	1.2092	9.2887	-0.1253	0.6471	-0.0847	0.5524	-0.1861	-0.2642	2.0233	0.4892	8.9922	-0.0275	0.2144	0.22	0.1585	-0.9042	-0.874	9.4853	2.9117	-0.2987	1.013	1.8395	-0.7384	-1.1712	0.2806	0.6404
-2.5054	1.0939	9.2918	0.3085	0.6903	-0.0645	0.5524	-0.1741	-0.2642	1.9211	-0.0244	9.583	-0.0277	0.1541	-0.0282	0.159	-0.9072	-0.8026	9.2019	3.1994	-0.1867	0.9811	1.7475	-0.8637	-1.1885	0.1949	0.6311
-2.8484	1.3824	9.463	0.0314	0.885	-0.1482	0.5704	-0.1681	-0.2582	1.9729	0.4328	9.3474	-0.0596	0.1234	0.0948	0.1582	-0.8857	-0.8569	9.3684	3.2557	-0.4165	0.8885	1.5941	-1.0203	-1.1708	0.2104	0.6478
-2.3383	1.1504	8.9998	-0.1839	0.8331	-0.0823	0.5644	-0.1741	-0.2402	1.9753	0.433	9.4662	0.0657	0.2438	0.1589	0.1438	-0.8845	-0.8749	9.0881	3.0275	-0.1896	0.5612	1.4091	-0.7724	-1.1708	0.2104	0.6478
-2.738	0.979	9.1688	0.028	0.7321	-0.1795	0.5464	-0.1681	-0.2582	1.9183	0.147	9.4645	0.0061	0.3372	0.0987	0.188	-0.9434	-0.8723	9.2562	3.4857	-0.3012	0.5269	1.3483	-0.9893	-1.1539	0.2141	0.6115
-2.5574	1.0947	9.5862	-0.1908	0.5273	-0.1449	0.5524	-0.1801	-0.2642	2.2684	0.3756	9.7097	-0.1181	0.2781	0.0665	0.1444	-0.9052	-0.8384	8.9133	3.2566	-0.3673	0.8043	1.1934	-0.9684	-1.1707	0.1928	0.6497
-2.9046	1.2101	9.5206	-0.1874	0.5277	-0.0229	0.5464	-0.1741	-0.2522	2.2043	0.604	9.4119	-0.2407	0.3407	0.2527	0.1728	-0.9038	-0.8918	8.5741	3.4872	-0.1982	0.681	1.1016	-1.0919	-1.1535	0.1947	0.6317
-2.3313	1.6688	9.4147	-0.4663	0.5697	-0.0769	0.5524	-0.1801	-0.2582	2.2648	0.3752	9.5315	-0.3322	0.3733	0.1914	0.1587	-0.9049	-0.8562	8.9738	3.1998	-0.1913	0.7065	1.2561	-1.2113	-1.2233	0.2282	0.6451
-2.8467	1.095	9.5215	-0.3191	0.4404	-0.2643	0.5584	-0.1801	-0.2582	2.2024	-0.0831	9.2323	-0.1498	0.2175	0.0036	0.1734	-0.9245	-0.8553	8.8031	2.9706	-0.1955	0.7349	1.3486	-1.24	-1.1707	0.1421	0.637
-2.6205	0.9791	9.2893	-0.2154	0.6513	0.009	0.5644	-0.1801	-0.2582	2.0375	0.4906	9.7052	-0.2408	0.3106	0.1287	0.1731	-0.9061	-0.8382	8.8635	2.9711	-0.0193	0.8894	1.4402	-1.0864	-1.1716	0.1986	0.5947
-2.6205	0.9791	9.2893	-0.3159	0.5323	-0.2028	0.5584	-0.1861	-0.2462	1.6882	0.4338	9.5197	-0.2701	0.4029	0.192	0.1582	-0.8857	-0.8569	9.1444	2.7977	-0.2477	0.6532	1.4703	-0.7109	-1.1355	0.1575	0.654
-2.1614	1.4381	9.2402	-0.2142	0.3769	0.2209	0.5764	-0.1681	-0.2762	2.3225	0.3751	9.5327	-0.2985	0.5262	0.1942	0.159	-0.9233	-0.8733	9.1402	3.256	-0.4211	0.6199	1.6554	-0.7049	-1.1878	0.1734	0.6696
-2.2163	1.2085	9.3568	-0.1315	0.2804	-0.0867	0.5524	-0.1681	-0.2582	2.3178	0.8326	9.3553	-0.4532	0.4678	0.1002	0.1441	-0.8868	-0.8213	9.4862	3.0267	-0.24	0.6577	1.5312	-0.4626	-1.1539	0.2141	0.6115
-2.854	1.3817	9.1675	-0.2482	0.6829	-0.0816	0.5343	-0.1681	-0.2702	2.2046	-0.0256	9.3512	-0.145	0.5232	0.287	0.1731	-0.9061	-0.8382	9.0878	3.2569	-0.1888	0.5378	1.4389	-0.432	-1.1885	0.1949	0.6311
-2.6837	1.6111	9.0532	-0.1602	0.5565	-0.1759	0.5584	-0.1741	-0.2522	2.1555	0.3761	9.8262	-0.5149	0.4087	-0.1789	0.1592	-0.9249	-0.8375	9.0916	3.0281	-0.0146	0.6598	1.3463	-0.4988	-1.1881	0.1754	0.6513
-2.447	1.2664	9.3524	-0.1551	0.4655	0.0675	0.5584	-0.1801	-0.2642	2.2077	0.1464	9.5298	-0.2719	0.2807	0.0663	0.1588	-0.9057	-0.8383	8.8024	3.4295	-0.1939	0.5141	1.0688	-0.3805	-1.1363	0.1789	0.6155
-2.4447	1.2667	9.4706	-0.2515	0.591	-0.143	0.5644	-0.1681	-0.2582	1.8683	0.4341	9.8798	-0.0233	0.4294	0.1929	0.1735	-0.9253	-0.8374	8.9198	2.7414	-0.0774	0.4156	1.1316	-0.6542	-1.1888	0.1968	0.6128
-2.9116	2.0143	9.227	-0.221	0.4676	-0.0835	0.5644	-0.1861	-0.2462	1.6291	0.5483	9.4593	-0.175	0.4946	-0.0841	0.144	-0.8861	-0.8392	8.754	3.7181	0.2729	0.6238	1.2549	-0.8089	-1.2231	0.1931	0.6488
-2.2755	1.4384	9.2971	-0.2183	0.5289	-0.0222	0.5584	-0.1801	-0.2522	2.0347	0.662	9.5867	-0.0537	0.4303	0.1002	0.1439	-0.8853	-0.8571	9.1401	3.3707	-0.4207	0.81	1.2232	-0.6902	-1.1706	0.226	0.6643
-2.3278	0.9791	9.5313	-0.3752	0.6266	-0.1703	0.5464	-0.1681	-0.2582	2.497	0.2031	9.5953	0.1596	0.3342	0.1915	0.1743	-0.9629	-0.8538	9.3137	3.1988	-0.3011	0.6252	1.4393	-0.6187	-1.1354	0.1907	0.6686
-2.623	1.1513	9.1715	-0.3399	0.6868	-0.0488	0.5644	-0.1681	-0.2582	1.9806	0.6625	9.7638	-0.089	0.2155	0.2199	0.1878	-0.9257	-0.8373	9.441	2.7994	0.3416	0.8075	1.4389	-0.6532	-1.1532	0.2435	0.6627
-2.2797	1.2654	9.0603	-0.1867	0.6193	-0.0529	0.5584	-0.1741	-0.2582	1.9841	0.2049	9.8817	-0.302	0.3421	0.1909	0.1293	-0.8664	-0.8401	9.3166	2.7977	-0.1859	0.9547	1.6547	-0.7425	-1.1524	0.1538	0.6904
-2.5012	1.2669	9.5286	-0.3111	0.7158	-0.1408	0.5524	-0.1921	-0.2462	2.378	0.2603	9.4148	-0.2117	0.2781	0.437	0.1591	-0.9241	-0.8554	8.9693	3.1416	-0.4249	1.142	1.7766	-0.4653	-1.153	0.2084	0.6665
-2.1527	0.9791	9.6529	-0.1824	0.5282	0.16	0.5524	-0.1801	-0.2462	2.0425	0.3766	9.9427	-0.1167	0.3697	0.1608	0.1304	-0.9232	-0.8556	9.4822	3.4276	-0.4136	0.9065	1.4375	-0.3162	-1.1365	0.214	0.6118
-2.4545	1.0929	8.9383	-0.2115	0.6822	0.1311	0.5584	-0.1741	-0.2522	2.4977	-0.0831	9.5947	-0.2094	0.3708	0.2842	0.1582	-0.8857	-0.8569	8.974	3.085	-0.1917	1.1184	1.6833	-0.2209	-1.1361	0.1946	0.632
-2.5066	1.0937	9.2327	-0.1927	0.7101	-0.3268	0.5644	-0.1741	-0.2582	2.5	-0.0256	9.7137	0.0685	0.3971	0.1925	0.158	-0.8842	-0.8927	9.2601	3.1995	-0.1272	0.6673	1.4374	-0.0956	-1.171	0.1948	0.6314
-2.5585	1.6696	9.5876	-0.1847	0.589	0.0384	0.5524	-0.1681	-0.2582	2.3907	0.4332	10.0687	0.0052	0.2762	0.0049	0.187	-0.8873	-0.8389	9.1437	3.2566	-0.246	0.751	1.4076	-0.468	-1.1709	0.2279	0.646
-2.4529	0.8056	8.9967	-0.1013	0.4926	-0.2388	0.5584	-0.1561	-0.2462	2.144	0.7184	9.2921	-0.2091	0.3712	0.1916	0.1739	-0.9445	-0.8367	9.2582	2.9696	-0.2448	0.5724	1.3459	-0.3121	-1.1713	0.1967	0.6131
-2.5066	1.7263	9.2933	-0.1567	0.6179	-0.0842	0.5584	-0.1681	-0.2522	2.0332	0.3184	9.4672	-0.0564	0.3072	0.1907	0.1878	-0.9257	-0.8373	8.9192	3.1429	-0.0759	0.3616	1.0692	-0.3774	-1.1892	0.2163	0.5926
-2.5029	1.5542	9.4702	-0.2187	0.6509	-0.113	0.5584	-0.1861	-0.2522	2.1477	0.1463	9.4098	-0.0559	0.3077	0.0672	0.1726	-0.8861	-0.8568	9.3141	2.9693	-0.302	0.3903	1.1924	-0.3745	-1.1537	0.179	0.6152
-2.6174	1.152	9.467	-0.3729	0.5659	-0.0487	0.5464	-0.1741	-0.2762	1.9229	0.2047	9.7023	-0.3039	0.2499	0.2201	0.1589	-0.9226	-0.8911	9.1498	2.9709	0.0447	0.5403	1.3154	-0.4048	-1.1884	0.228	0.6457
-2.4455	1.094	9.4111	-0.25	0.5301	-0.0519	0.5584	-0.1741	-0.2462	2.2706	0.433	9.8287	-0.0267	0.2454	0.1588	0.1441	-0.903	-0.892	9.3203	3.3721	0.0496	0.7208	1.3461	-0.5	-1.1714	0.2142	0.6112
-2.7353	1.3819	9.3471	-0.2778	0.5623	0.0405	0.5644	-0.1561	-0.2582	2.3748	0.6034	9.2966	0.0334	0.1826	0.2504	0.1879	-0.9265	-0.8195	9.0863	3.4862	-0.2463	0.6611	1.2538	-0.5014	-1.2057	0.2106	0.6473
-2.503	0.9792	9.4097	-0.2821	0.6533	-0.1724	0.5644	-0.1801	-0.2642	1.9748	0.1468	9.4062	0.0034	0.2141	0.1891	0.145	-0.9413	-0.8905	8.7456	3.2575	-0.1956	0.7545	1.2225	-0.4426	-1.2058	0.1774	0.6327
-2.2717	1.2089	9.4739	-0.3423	0.5951	-0.0798	0.5644	-0.1921	-0.2522	2.437	0.203	9.4753	-0.0888	0.2158	0.1581	0.1577	-0.8658	-0.8756	9.034	3.3724	-0.0145	0.548	1.2527	-0.0985	-1.1543	0.2336	0.5913
-2.3843	0.9794	9.5893	-0.0978	0.6455	-0.2074	0.5464	-0.1801	-0.2522	2.0325	0.6046	9.4678	0.1587	0.2731	0.1287	0.1594	-0.9264	-0.8018	9.3158	3.3139	-0.184	0.7981	1.2512	0.1739	-1.1533	0.2103	0.6481
-2.439	0.5773	9.7054	0.2744	0.8437	-0.2764	0.5524	-0.1741	-0.2582	1.9807	0.1473	9.7033	-0.0291	0.1525	0.3424	0.1871	-0.9042	-0.8917	9.3803	3.6595	0.2269	0.9156	1.0978	-0.1411	-1.1356	0.1751	0.6521
-2.7927	1.2095	9.3455	0.0836	0.6678	-0.3643	0.5584	-0.1741	-0.2642	2.3214	0.3177	9.4731	0.2793	0.1781	0.3125	0.1451	-0.9421	-0.8726	9.2642	3.4872	0.1072	0.83	0.9741	0.042	-1.1711	0.2123	0.6295
-2.5012	1.2669	9.5286	-0.313	0.6546	-0.1717	0.5644	-0.1741	-0.2522	2.3742	0.3744	9.2367	0.0041	0.2449	0.1588	0.1591	-0.9241	-0.8554	8.9145	3.1994	-0.3091	0.37	0.9141	-0.1046	-1.1539	0.2141	0.6115
-2.5032	1.0941	9.41	0.1221	0.8199	-0.1813	0.5524	-0.1681	-0.2582	1.9737	0.0894	9.3467	0.1562	0.1802	0.3123	0.145	-0.9413	-0.8905	9.1438	3.1993	-0.2462	0.1276	0.7606	-0.135	-1.1183	0.1925	0.6506
-2.4504	1.266	9.1751	-0.1913	0.7408	-0.2961	0.5584	-0.1861	-0.2462	1.8574	0.4903	9.3451	0.005	0.306	0.2217	0.1444	-0.9214	-0.9091	9.1983	3.3135	-0.3614	0.0905	0.977	-0.2822	-1.1881	0.2261	0.664
-2.7388	1.439	9.1699	-0.3724	0.5964	-0.0485	0.5764	-0.1681	-0.2582	2.5529	0.4318	9.5375	-0.0256	0.2766	0.0358	0.1449	-0.9244	-0.8377	8.9137	2.9698	-0.3683	-0.16	0.9171	-0.6179	-1.1883	0.2105	0.6475
-2.5628	0.9215	9.2902	-0.4365	0.5072	-0.078	0.5524	-0.1561	-0.2462	2.3877	0.204	9.89	-0.2067	0.464	0.0079	0.1863	-0.8666	-0.8753	8.7518	3.6603	0.1559	0.0607	0.977	-0.2507	-1.1706	0.1753	0.6516
-2.2721	1.4388	9.4744	-0.3171	0.4101	-0.173	0.5644	-0.1681	-0.2522	2.0299	0.2036	9.2887	-0.0229	0.4598	0.2552	0.1583	-0.8865	-0.8391	8.8594	2.6835	-0.2538	0.1119	1.3167	-0.4578	-1.1876	0.2066	0.6842
-2.6856	1.3808	8.9345	-0.0698	0.4303	-0.1789	0.5464	-0.1861	-0.2642	2.1437	0.3177	9.2319	-0.3612	0.4659	0.193	0.2161	-0.9074	-0.8379	9.1439	3.0846	-0.2466	0.1417	1.2245	-0.5536	-1.1533	0.2103	0.6481
-2.6226	1.5539	9.2315	-0.3137	0.563	-0.1417	0.5464	-0.1681	-0.2522	2.2092	0.0321	9.589	-0.143	0.5554	-0.083	0.159	-0.9233	-0.8733	9.4874	3.0269	-0.1816	0.5043	1.2241	-0.7149	-1.154	0.181	0.5969
-2.4484	1.4387	9.2937	-0.3091	0.6855	-0.0495	0.5644	-0.1741	-0.2522	2.6175	0.0316	9.835	-0.2978	0.557	0.1638	0.2153	-0.8859	-0.8922	9.3226	3.3726	0.1663	0.5437	1.0381	-0.4436	-1.1706	0.1753	0.6516
-2.3912	1.6686	9.2954	-0.5546	0.574	0.0778	0.5524	-0.1921	-0.2582	2.0806	0.6035	8.9936	-0.3288	0.5272	0.0706	0.1592	-0.9249	-0.8375	9.4363	2.8559	0.1084	0.3022	0.823	-0.4757	-1.1713	0.1967	0.6131
-2.4464	1.554	9.4122	-0.288	0.6527	-0.3858	0.5464	-0.1741	-0.2582	2.1464	0.2035	9.3505	-0.2694	0.4037	0.0067	0.1599	-0.9625	-0.8539	9.4851	3.0264	-0.2983	0.0528	1.009	-0.5888	-1.1885	0.2456	0.6438
-2.3945	1.6107	9.118	0.176	0.6029	-0.3364	0.5584	-0.1741	-0.2522	2.6093	0.4887	9.4794	-0.0276	0.2143	0.2509	0.1593	-0.9418	-0.8904	9.259	3.1993	-0.1856	0.2588	0.8251	-1.0605	-1.1882	0.1929	0.6494
-2.7953	1.4392	9.2279	0.0339	0.8853	-0.0567	0.5584	-0.1741	-0.2582	1.9819	0.1475	9.7627	0.1265	0.1819	0.0344	0.1305	-0.924	-0.8378	8.806	3.258	-0.0194	0.0193	0.9788	-0.7431	-1.1706	0.226	0.6643
-2.2679	1.5544	9.7111	0.2414	0.9668	-0.4274	0.5464	-0.1861	-0.2702	2.0943	-0.1393	9.5863	0.3085	0.0857	0.28	0.1301	-0.9048	-0.8385	9.3134	3.4283	-0.3003	-0.1325	0.979	-0.7092	-1.1536	0.2122	0.6298
-2.1113	1.2645	8.8272	0.2091	0.7849	-0.3666	0.5524	-0.1741	-0.2522	1.9748	0.1468	9.4062	-0.0284	0.1533	0.1571	0.1446	-0.9229	-0.8734	9.2021	3.0847	-0.1871	-0.4912	0.8558	-0.4589	-1.1525	0.1713	0.6885
-2.2724	0.9787	9.4142	0.1525	0.9406	-0.2729	0.5644	-0.1741	-0.2702	2.1533	-0.1966	9.6468	-0.0895	0.215	0.3434	0.1738	-0.9437	-0.8545	8.632	2.9708	-0.199	-0.6886	0.5462	0.0602	-1.1703	0.2241	0.6826
-2.5668	1.3235	9.1139	-0.165	0.7695	-0.4797	0.5644	-0.1681	-0.2462	2.1495	-0.0825	9.4687	-0.0564	0.3072	0.1907	0.1728	-0.9038	-0.8918	9.7743	3.371	-0.0579	-0.6303	0.731	0.0643	-1.2055	0.1755	0.651
-2.7956	0.9791	9.1677	-0.0999	0.7673	-0.3592	0.5704	-0.1801	-0.2642	2.207	-0.0254	9.4701	-0.1497	0.2476	0.1277	0.1305	-0.924	-0.8378	9.2007	3.2566	-0.2449	-0.4496	0.7002	-0.0635	-1.1532	0.1927	0.65
-2.102	1.0931	9.2996	-0.3162	0.8068	-0.3842	0.5524	-0.1561	-0.2582	2.0377	0.4334	9.7051	-0.0558	0.3078	0.0363	0.1592	-0.9249	-0.8375	9.1448	3.2569	-0.1876	-0.8023	0.7652	-0.7944	-1.153	0.1576	0.6537
-2.0983	0.9211	9.4765	-0.3084	0.7771	-0.0795	0.5524	-0.1681	-0.2582	2.152	0.3185	9.6478	-0.0585	0.1847	0.1267	0.1022	-0.9416	-0.8551	8.6314	3.315	-0.1977	-0.7072	0.7952	-0.6105	-1.1703	0.1226	0.6572
-2.442	0.9795	9.5881	1.1208	0.3176	-0.6356	0.5704	-0.1621	-0.2522	2.1476	0.2036	9.4099	0.1599	0.3346	0.0989	0.1729	-0.9046	-0.8739	9.2009	3.1418	-0.2453	-0.6121	0.5483	-0.6194	-1.1534	0.2278	0.6463
-2.4404	1.3822	9.7073	-0.5523	0.5132	0.1994	0.5704	-0.1741	-0.2582	2.0377	-0.0818	9.6446	-0.273	0.2495	0.1893	0.1589	-0.9064	-0.8205	8.8135	2.8577	0.3292	-0.3649	0.5165	-0.502	-1.135	0.2219	0.7015
-2.2781	1.6106	9.1793	0.919	0.3281	-0.112	0.5644	-0.1741	-0.2702	2.1489	0.1465	9.4692	0.1281	0.3039	0.2218	0.1734	-0.9245	-0.8553	9.4275	3.3707	-0.2982	-0.732	0.7328	-0.396	-1.1702	0.2065	0.6845
-2.9067	1.1524	9.4023	-0.5877	0.5445	0.0174	0.5704	-0.1681	-0.2462	2.0356	0.3187	9.586	-0.2415	0.2798	0.159	0.1591	-0.9241	-0.8554	8.578	3.201	-0.0242	-0.6034	0.7008	-0.1221	-1.1533	0.2103	0.6481
-2.5611	1.2667	9.4093	0.3635	0.4429	-0.1588	0.5644	-0.1681	-0.2522	2.262	0.5467	9.413	0.2231	0.3954	-0.0234	0.1867	-0.8689	-0.8218	8.9679	3.3134	-0.4826	-0.6294	0.5771	-0.0018	-1.1357	0.1926	0.6503
-2.043	0.9782	9.3596	-0.3404	0.4122	0.1022	0.5524	-0.1801	-0.2762	2.3227	0.7758	9.5929	-0.3647	0.2817	0.1897	0.1588	-0.9057	-0.8383	8.9152	3.4865	-0.2497	-0.9382	0.7015	-0.0845	-1.1527	0.2064	0.6848
-2.5112	1.2082	8.9965	-0.063	0.5836	-0.0256	0.5584	-0.1681	-0.2582	2.2081	0.4899	9.5899	-0.1754	0.4941	0.0394	0.1587	-0.9218	-0.909	9.1444	3.5437	-0.1866	-0.6904	0.5772	-0.0005	-1.1709	0.2279	0.646
-1.9798	0.9788	9.6562	-0.6457	0.6696	0.0806	0.5704	-0.1861	-0.2642	1.8051	0.262	9.5812	-0.2103	0.3098	0.1905	0.1874	-0.9065	-0.8381	9.2635	3.2575	0.0481	-0.6662	0.6397	-0.2458	-1.1526	0.2396	0.6994
-2.2691	1.6117	9.6521	-0.2231	0.5894	-0.2352	0.5704	-0.1801	-0.2642	1.9778	0.376	9.585	-0.2412	0.2801	0.0663	0.1731	-0.9061	-0.8382	8.9235	3.3158	0.1581	-0.4239	0.8854	-0.1512	-1.188	0.2085	0.6659
-2.1565	1.2087	9.4761	-0.3386	0.7175	-0.0181	0.5524	-0.1681	-0.2642	1.9794	-0.3107	9.5836	-0.2396	0.3421	-0.0561	0.1591	-0.9241	-0.8554	9.3096	2.9112	-0.5356	-0.5156	0.9472	-0.1168	-1.1893	0.2338	0.5907
-2.7339	0.577	9.3451	-0.3717	0.5355	0.0121	0.5704	-0.1681	-0.2462	2.3246	0.4898	9.6517	-0.1478	0.3999	0.4084	0.1302	-0.9056	-0.8207	9.5521	3.2003	0.2286	-0.5429	1.1005	0.1347	-1.1702	0.1558	0.6718
-2.6168	1.4396	9.5268	-0.3736	0.4743	-0.0187	0.5644	-0.1681	-0.2582	2.3199	-0.0259	9.3536	-0.2415	0.2798	0.159	0.2023	-0.9269	-0.8193	8.9146	3.1421	-0.3093	-0.3312	1.0388	0.0055	-1.1363	0.2297	0.6282
-2.4443	1.6693	9.5307	-0.183	0.5891	0.0994	0.5584	-0.1801	-0.2582	2.7297	0.3172	9.7191	-0.3614	0.4057	-0.086	0.1591	-0.9241	-0.8554	9.3708	3.1414	-0.3002	-0.2391	1.223	0.163	-1.1707	0.1421	0.637
-2.506	1.4388	9.2926	-0.3403	0.5648	0.0115	0.5464	-0.1681	-0.2522	2.2683	-0.0824	9.6494	-0.0851	0.4002	0.0996	0.1881	-0.9441	-0.8544	9.4304	2.9696	-0.183	0.0006	1.3769	0.0701	-1.1703	0.1733	0.6699
-2.0987	1.1511	9.4771	-0.2822	0.7448	-0.2329	0.5644	-0.1741	-0.2582	1.924	-0.2531	9.7013	-0.3607	0.4964	0.2244	0.1585	-0.9042	-0.874	8.9145	3.1994	-0.3091	0.0596	1.2848	-0.0878	-1.1886	0.2124	0.6292
-2.5564	1.1523	9.6454	0.0317	0.702	-0.0272	0.5644	-0.1621	-0.2582	2.3778	0.3747	9.415	-0.2391	0.4026	0.1303	0.1736	-0.926	-0.8196	9.1437	3.2566	-0.246	-0.032	1.3773	-0.0217	-1.1701	0.1382	0.6736
-2.5057	1.2663	9.2922	-0.2787	0.8062	-0.1411	0.5464	-0.1801	-0.2582	2.2567	0.3172	9.1154	-0.1772	0.402	0.0377	0.1452	-0.9429	-0.8548	8.9771	3.2577	-0.016	0.0882	1.1312	-0.2777	-1.1701	0.189	0.6863
-2.2116	1.6691	9.6534	0.2726	0.691	-0.2467	0.5524	-0.1921	-0.2642	1.9217	0.2046	9.6428	-0.1165	0.3999	0.2849	0.1732	-0.9069	-0.8203	8.973	3.716	-0.1894	-0.0879	1.2228	0.0983	-1.1536	0.2122	0.6298
-2.4459	1.2665	9.4115	-0.1904	0.6494	-0.2052	0.5644	-0.1621	-0.2582	2.2151	0.0327	9.8861	-0.243	0.218	0.2505	0.1726	-0.8861	-0.8568	8.8549	3.3712	-0.4264	-0.1439	1.253	0.3469	-1.1358	0.2102	0.6484
-2.5656	1.2662	9.1729	0.0892	0.6989	-0.1812	0.5524	-0.1681	-0.2522	2.203	0.146	9.2921	-0.0581	0.2151	0.189	0.144	-0.8861	-0.8392	9.4291	3.0841	-0.2409	0.0306	1.4076	0.0704	-1.1709	0.1772	0.6332
-2.7389	1.4965	9.17	-0.13	0.3721	-0.0862	0.5524	-0.1861	-0.2642	2.3237	0.3752	9.5921	-0.4247	0.3746	0.253	0.1438	-0.8845	-0.8749	8.6874	3.2574	-0.2551	-0.2095	1.4691	0.2927	-1.1887	0.1792	0.6146
-2.6195	1.0367	9.3485	-0.3989	0.7507	0.014	0.5704	-0.1621	-0.2582	2.1525	0.1468	9.6475	-0.1779	0.3411	-0.0869	0.1723	-0.8846	-0.8925	9.4254	3.2556	-0.4154	-0.3647	1.6545	0.3011	-1.188	0.1578	0.6531
-2.5622	1.8417	9.4107	0.1752	0.6028	-0.3669	0.5524	-0.1801	-0.2702	2.4956	0.3174	9.5361	-0.3321	0.3734	0.1605	0.1726	-0.8861	-0.8568	8.7948	3.1412	-0.6034	-0.3088	1.7166	0.1168	-1.2231	0.1424	0.6361
-2.563	1.0365	9.2905	-0.1555	0.74	-0.114	0.5524	-0.1801	-0.2702	1.8663	0.2622	9.7606	-0.1819	0.1264	-0.1216	0.1729	-0.9046	-0.8739	9.1445	3.4863	-0.1868	-0.4282	1.5935	0.1465	-1.1539	0.2141	0.6115
-2.5102	1.2658	9.0558	0.1223	0.6369	-0.0603	0.5524	-0.1861	-0.2642	2.2666	0.1464	9.5904	-0.0573	0.2461	0.1278	0.1164	-0.9412	-0.8728	8.8057	3.4875	-0.0186	-0.5714	1.3771	0.4206	-1.188	0.1578	0.6531
-2.3967	0.9778	8.9391	-0.0594	0.645	0.0662	0.5584	-0.1801	-0.2522	2.1535	0.2042	9.707	-0.4547	0.376	0.0368	0.1453	-0.9436	-0.8369	8.9817	3.2586	0.2174	-0.4175	1.0997	0.2863	-1.1715	0.1811	0.5966
-2.6164	1.2096	9.5262	-0.0293	0.5521	0.0954	0.5644	-0.1861	-0.2702	2.2079	0.0892	9.5297	-0.3653	0.251	0.1892	0.1581	-0.885	-0.8748	9.2645	3.3151	0.1066	-0.2122	1.285	0.0409	-1.1877	0.2242	0.6823
-2.443	0.9218	9.5289	-0.2169	0.5596	0.0085	0.5464	-0.1921	-0.2702	2.3237	0.3752	9.5921	-0.4571	0.2533	0.0346	0.1577	-0.8658	-0.8756	8.9163	3.4867	-0.1914	0.3029	1.3765	-0.0592	-1.1538	0.2473	0.6261
-2.7319	1.3248	9.5243	-0.3092	0.533	0.0411	0.5704	-0.1681	-0.2522	2.1528	0.4903	9.7076	-0.2085	0.4019	0.1921	0.2022	-0.9261	-0.8372	9.088	3.1422	-0.1892	0.4842	1.5301	-0.0276	-1.2059	0.195	0.6308
-2.342	1.3799	8.823	-0.2761	0.5625	0.1015	0.5584	-0.1801	-0.2582	1.9792	0.2617	9.6441	-0.2372	0.5249	0.256	0.1878	-0.9257	-0.8373	8.8585	3.2571	-0.2517	0.6907	1.5922	-0.3074	-1.1533	0.2103	0.6481
-2.4467	1.0939	9.352	-0.4323	0.3552	0.1651	0.5524	-0.1801	-0.2462	1.8056	0.5483	9.6412	-0.2673	0.5262	0.0707	0.1439	-0.8853	-0.8571	9.1446	3.3716	-0.1872	0.446	1.8697	-0.1405	-1.1697	0.1695	0.7065
-2.5079	1.2086	9.1738	-0.0324	0.6128	-0.0567	0.5644	-0.1801	-0.2762	1.9224	-0.0816	9.6423	-0.2088	0.3716	0.0989	0.1302	-0.9217	-0.8914	9.0881	3.0849	-0.1894	0.4424	1.655	-0.4548	-1.2056	0.193	0.6491
-2.5607	1.0368	9.4087	-0.374	0.3522	0.0416	0.5704	-0.1681	-0.2522	2.3138	0.0308	9.0566	-0.2703	0.4027	0.2538	0.1589	-0.9226	-0.8911	8.9756	2.7984	-0.1344	0.4469	1.6235	-0.2708	-1.1536	0.2122	0.6298
-2.731	1.4399	9.5836	-0.3391	0.4429	0.1328	0.5704	-0.1801	-0.2642	2.2707	-0.0822	9.7682	-0.3931	0.3751	0.006	0.1303	-0.9225	-0.8735	8.9771	3.3151	-0.0158	0.4189	1.5002	-0.243	-1.171	0.2455	0.6441
-2.3879	1.0939	9.4122	-0.368	0.6579	0.0737	0.5524	-0.1681	-0.2342	1.9241	0.2048	9.7617	-0.3009	0.3734	0.037	0.1577	-0.8658	-0.8756	8.9132	3.314	-0.3671	0.6925	1.6534	-0.1824	-1.2051	0.2067	0.6839
-2.6855	1.3233	8.9343	-0.3423	0.351	0.0714	0.5644	-0.1681	-0.2582	2.035	0.5476	9.5865	-0.2732	0.1891	-0.0589	0.1726	-0.8861	-0.8568	9.2053	3.2574	-0.0114	0.8086	1.7771	-0.3662	-1.1885	0.1949	0.6311
-2.6761	1.727	9.4673	-0.3734	0.5353	-0.0489	0.5584	-0.1681	-0.2462	2.8357	0.2588	9.246	-0.3618	0.3751	-0.1175	0.1734	-0.9245	-0.8553	8.92	3.3152	-0.0169	0.7499	1.8076	-0.2408	-1.1885	0.2456	0.6438
-2.7349	1.1519	9.3465	-0.0372	0.4292	-0.1186	0.5524	-0.1861	-0.2462	2.2711	0.7193	9.8887	0.0063	0.3675	0.1919	0.159	-0.9233	-0.8733	8.9155	3.257	-0.2506	0.5969	1.8388	-0.2369	-1.1531	0.1752	0.6519
-2.6275	1.1507	8.935	-0.1838	0.7416	-0.0218	0.5584	-0.1801	-0.2642	2.2082	0.4327	9.5898	0.0333	0.1824	0.2813	0.1583	-0.8865	-0.8391	8.9648	3.0834	-0.6585	0.5928	1.6549	-0.5503	-1.1706	0.1753	0.6516
-2.969	1.2669	9.165	-0.0949	0.7678	-0.1763	0.5524	-0.1681	-0.2582	2.085	-0.1975	9.1108	-0.0874	0.3074	0.2524	0.1441	-0.8868	-0.8213	9.2003	3.486	-0.244	0.446	1.5929	-0.3333	-1.1872	0.1871	0.7044
-2.3285	1.9567	9.5928	-0.0929	0.7375	-0.085	0.5584	-0.1741	-0.2642	2.0963	0.0326	9.7055	-0.027	0.245	0.2514	0.2013	-0.8878	-0.8387	8.9793	3.3155	0.1009	0.6964	1.5298	-0.0935	-1.1709	0.2279	0.646
-2.4453	0.9791	9.4108	-0.0007	0.7641	-0.1176	0.5644	-0.1861	-0.2402	2.096	0.1471	9.7057	-0.1766	0.4627	0.1933	0.1583	-0.8865	-0.8391	9.0859	2.9697	-0.3065	0.6021	1.715	-0.0864	-1.1353	0.1732	0.6705
-1.9876	1.5529	9.303	-0.1314	0.5855	-0.268	0.5524	-0.1861	-0.2582	1.9189	-0.0819	9.464	-0.1486	0.3389	0.3146	0.1591	-0.9241	-0.8554	9.2565	3.3136	-0.3019	0.266	1.6237	-0.1747	-1.135	0.1712	0.6888
-2.7942	1.4393	9.287	-0.3486	0.4724	-0.2329	0.5584	-0.1681	-0.2522	1.9265	0.2051	9.8805	-0.1807	0.2178	0.0345	0.1583	-0.8865	-0.8391	9.2015	3.4862	-0.1857	0.0534	1.6548	-0.1079	-1.1882	0.1422	0.6367
-2.5656	1.2662	9.1729	-0.126	0.7081	-0.1454	0.5524	-0.1681	-0.2522	1.8544	0.261	9.1664	0.0995	0.3969	0.1308	0.1729	-0.9046	-0.8739	9.2015	3.4862	-0.1857	-0.0661	1.5317	-0.0783	-1.1715	0.2318	0.6093
-2.5629	0.979	9.2904	-0.0051	0.5501	-0.1492	0.5524	-0.1741	-0.2702	2.3232	0.0889	9.5321	-0.3027	0.3112	0.2212	0.1443	-0.9045	-0.8563	8.9781	3.3727	0.0428	0.1497	1.1925	-0.2155	-1.1528	0.1732	0.6702
-2.7247	1.0957	9.8783	-0.2201	0.6203	-0.1436	0.5644	-0.1681	-0.2582	2.2073	0.8333	9.5906	-0.2119	0.2179	0.1579	0.1723	-0.8846	-0.8925	9.2576	3.3712	-0.2433	0.3079	1.222	0.0596	-1.1887	0.1792	0.6146
-2.8578	0.9787	8.9301	-0.2224	0.437	-0.1141	0.5704	-0.1681	-0.2522	2.0271	0.3751	9.1702	-0.1758	0.4937	0.132	0.1728	-0.9038	-0.8918	9.5479	2.97	-0.0056	0.2464	1.3452	0.126	-1.1875	0.1891	0.6861
-3.0363	1.6108	8.6919	-0.3101	0.6244	-0.0499	0.5644	-0.1861	-0.2342	2.3222	0.4895	9.5329	-0.0234	0.3992	0.0689	0.1304	-0.9232	-0.8556	9.4766	3.3118	-0.7058	0.1834	1.438	0.099	-1.1707	0.1928	0.6497
-2.3259	1.1519	9.6499	-0.2189	0.5899	-0.0828	0.5584	-0.1861	-0.2582	1.9259	0.434	9.881	-0.2399	0.3717	0.1915	0.1724	-0.8685	-0.8219	9.198	2.797	-0.4216	0.4306	1.2216	0.0879	-1.1887	0.23	0.6274
-2.3933	1.6108	9.1771	-0.0974	0.5235	-0.1166	0.5524	-0.1681	-0.2642	2.034	0.4902	9.527	-0.3634	0.3733	0.3149	0.1881	-0.9272	-0.8016	8.9209	3.4875	0.042	0.3359	1.1608	-0.0969	-1.1887	0.23	0.6274
-2.6192	0.8642	9.3481	-0.1555	0.5875	-0.0233	0.5524	-0.1681	-0.2642	2.4397	-0.4264	9.5334	0.1271	0.2426	0.1899	0.1591	-0.9241	-0.8554	9.1404	3.1413	-0.4215	0.3391	1.1295	0.0255	-1.189	0.1812	0.5963
-2.4439	1.4393	9.5302	-0.2815	0.5924	-0.1118	0.5343	-0.1681	-0.2582	2.2061	0.318	9.4707	-0.1507	0.2164	0.2507	0.1733	-0.9238	-0.8732	9.2587	3.3714	-0.1849	0.284	0.8212	0.0794	-1.1534	0.2278	0.6463
-2.7358	0.9793	9.287	-0.342	0.5646	-0.0494	0.5584	-0.1621	-0.2462	2.376	0.6035	9.356	-0.1149	0.4318	0.0075	0.172	-0.8662	-0.8755	9.4269	3.0263	-0.3578	0.5246	0.8211	-0.0795	-1.1882	0.2436	0.6621
-2.3388	1.4378	9.0005	-0.254	0.4382	-0.1438	0.5704	-0.1741	-0.2462	2.2035	-0.0829	9.2917	-0.0548	0.3691	0.0683	0.1447	-0.9068	-0.8027	9.5441	3.1989	-0.1799	0.9809	1.0355	0.01	-1.2059	0.195	0.6308
-2.855	1.324	9.1083	-0.4034	0.5367	-0.0176	0.5644	-0.1681	-0.2702	2.263	0.1461	9.4122	-0.1491	0.2783	0.1282	0.1592	-0.9249	-0.8375	9.1452	3.0274	-0.1885	1.1052	1.3424	0.3245	-1.1528	0.1732	0.6702
-2.335	1.2083	9.1772	-0.2504	0.6521	-0.1427	0.5644	-0.1741	-0.2582	2.0312	0.1465	9.348	-0.2383	0.4635	0.2549	0.1739	-0.9445	-0.8367	9.0311	3.0276	-0.1908	1.4336	1.5887	0.1708	-1.1885	0.1949	0.6311
-2.6207	1.0941	9.2895	-0.4052	0.628	-0.1391	0.5644	-0.1741	-0.2582	2.3815	0.3178	9.5931	-0.0866	0.3384	0.1912	0.1876	-0.9242	-0.873	9.5447	2.8547	-0.1811	1.5465	1.6513	-0.1995	-1.1709	0.1772	0.6332
-2.2126	0.9789	9.5335	-0.4993	0.5402	-0.1373	0.5524	-0.1921	-0.2522	1.8613	0.3762	9.5232	-0.0933	0.0004	0.2778	0.188	-0.9434	-0.8723	8.5784	2.9716	-0.0251	1.4823	1.6827	-0.3207	-1.1705	0.1577	0.6534
-2.3888	0.9788	9.3529	-0.2525	0.5299	-0.1433	0.5584	-0.1861	-0.2582	2.4956	0.3174	9.5361	-1.4393	0.363	-0.1813	0.1588	-0.9057	-0.8383	9.3156	3.4287	-0.1836	1.3357	1.5592	-0.1363	-1.1888	0.1968	0.6128
-2.3821	1.6122	9.7681	-0.2209	0.6202	-0.1741	0.5464	-0.1861	-0.2702	2.491	0.2597	9.2983	1.2663	0.314	0.502	0.173	-0.9053	-0.8561	9.1971	3.3707	-0.4195	1.061	1.5291	-0.1625	-1.1355	0.2083	0.6667
-2.3277	0.9216	9.5312	-0.0935	0.5544	0.0055	0.5464	-0.1801	-0.2702	2.6712	0.2028	9.6583	-1.6563	0.3348	0.0957	0.2025	-0.9446	-0.8543	9.2082	3.6022	0.1649	0.977	1.3436	0.0497	-1.1532	0.1927	0.65
-2.0454	1.0354	9.2415	-0.0317	0.7044	-0.0867	0.5404	-0.1741	-0.2582	2.1527	0.0324	9.6472	1.1425	0.1952	0.0672	0.1298	-0.8864	-0.8215	9.2015	3.4862	-0.1857	1.0963	1.2515	-0.1403	-1.1706	0.1753	0.6516
-2.3373	1.2655	9.0591	-0.3698	0.5967	0.0429	0.5584	-0.1621	-0.2522	2.1527	0.0324	9.6472	-0.5461	0.4687	0.2545	0.1577	-0.8658	-0.8756	8.5175	3.2005	-0.2004	1.2522	1.1583	-0.0536	-1.2053	0.2418	0.6802
-2.4494	1.3811	9.2345	-0.3742	0.5352	-0.0793	0.5464	-0.1741	-0.2582	2.3234	0.4897	9.5923	0.3421	0.2385	0.3137	0.1735	-0.9253	-0.8374	9.2595	2.8551	-0.1868	1.3143	1.3118	0.1036	-1.1708	0.2104	0.6478
-2.4517	1.3808	9.1163	-0.4	0.6896	0.0137	0.5524	-0.1741	-0.2522	2.087	0.4324	9.2903	-0.3005	0.3738	-0.0556	0.173	-0.9053	-0.8561	9.6012	3.1988	-0.1787	1.4682	1.3112	0.1622	-1.1352	0.1556	0.6723
-2.7444	1.4383	8.8744	-0.3389	0.5039	0.1027	0.5584	-0.1501	-0.2522	2.1425	0.3176	9.1725	-0.0251	0.3073	0.0363	0.1595	-0.9433	-0.8546	9.2003	3.486	-0.244	1.4939	1.2196	-0.1183	-1.1354	0.1907	0.6686
-2.6742	1.3247	9.5254	-0.4087	0.3226	-0.0797	0.5524	-0.1741	-0.2462	1.8048	0.3764	9.5814	-0.238	0.4639	0.1623	0.1449	-0.9244	-0.8377	8.8056	2.7989	-0.0795	1.5809	1.3431	-0.2399	-1.1889	0.2143	0.6109
-2.3233	0.9797	9.7677	-0.2495	0.5607	-0.0517	0.5644	-0.1801	-0.2522	2.2744	-0.139	9.9464	-0.0862	0.3688	0.2535	0.1452	-0.9429	-0.8548	9.1448	3.2569	-0.1876	1.8214	1.6198	-0.2059	-1.171	0.1948	0.6314
-2.6776	1.3243	9.3481	-0.2531	0.5908	-0.204	0.5644	-0.1861	-0.2522	2.3265	0.2037	9.7106	-0.4532	0.4678	0.1002	0.1585	-0.9042	-0.874	9.139	3.3132	-0.4792	2.0916	1.6814	-0.3637	-1.1536	0.1615	0.6171
-2.6794	1.6691	9.2898	-0.3766	0.4434	-0.1103	0.5464	-0.1681	-0.2702	1.9212	0.4335	9.6433	-0.3012	0.403	0.2846	0.129	-0.848	-0.823	9.4337	3.0849	-0.0075	1.6257	1.8376	-0.6274	-1.205	0.2399	0.6985
-2.7378	1.4966	9.2292	0.0597	0.7309	-0.1498	0.5584	-0.1741	-0.2642	2.4912	0.1453	9.2981	-0.1454	0.4926	0.2556	0.159	-0.9233	-0.8733	8.9738	3.1998	-0.1913	1.5078	1.745	-0.5044	-1.2055	0.2262	0.6637
-2.2092	0.9793	9.7108	-0.1586	0.8007	-0.2661	0.5644	-0.1621	-0.2702	2.0331	0.8336	9.5276	-0.211	0.2489	0.0658	0.159	-0.9233	-0.8733	9.2054	3.2	-0.0116	1.4509	1.6522	-0.3826	-1.1538	0.1966	0.6133
-2.506	1.4388	9.2926	-0.0358	0.6124	-0.1786	0.5644	-0.1741	-0.2522	2.094	0.4903	9.647	0.0647	0.1827	0.096	0.1734	-0.9245	-0.8553	8.9776	2.9709	-0.017	1.5529	1.312	-0.1477	-1.1005	0.1905	0.6692
-2.333	1.9561	9.3563	-0.2204	0.6507	-0.1739	0.5524	-0.1801	-0.2582	2.1513	0.1467	9.5881	-0.0278	0.2141	0.3126	0.1588	-0.9057	-0.8383	8.4537	3.142	-0.5519	1.4944	1.3733	0.0093	-1.188	0.2085	0.6659
-3.0819	1.1524	9.2807	-0.0644	0.4004	0.0344	0.5524	-0.1741	-0.2582	2.2522	0.2023	8.8775	-0.029	0.1527	0.3115	0.1591	-0.9241	-0.8554	9.088	3.1422	-0.1892	1.1589	1.6509	0.2089	-1.1355	0.2083	0.6667
-2.5127	1.3805	8.9378	-0.3362	0.8093	0.0128	0.5824	-0.1801	-0.2642	2.2109	0.3185	9.7084	-0.1502	0.2169	0.1271	0.1728	-0.9038	-0.8918	9.4825	3.1981	-0.4144	1.0737	1.4041	0.3269	-1.1711	0.1616	0.6168
-2.3879	1.0939	9.4122	-0.1568	0.7094	-0.1446	0.5524	-0.1621	-0.2702	2.0286	-0.2544	9.1689	-0.1505	0.2167	0.1889	0.1439	-0.8853	-0.8571	9.2518	3.4275	-0.5349	1.0096	1.4355	0.2058	-1.171	0.1948	0.6314
-2.5634	1.2665	9.2911	-0.0607	0.7669	-0.0551	0.5584	-0.1621	-0.2762	2.0861	0.3178	9.2307	-0.2097	0.3104	0.0361	0.1591	-0.9241	-0.8554	9.2577	3.2565	-0.2437	1.247	1.3744	-0.1398	-1.1535	0.1947	0.6317
-2.4459	1.2665	9.4115	-0.0995	0.6453	-0.2684	0.5644	-0.1801	-0.2582	2.3319	-0.0819	9.9477	0.0342	0.2135	0.1892	0.1442	-0.9037	-0.8741	9.3764	3.2571	-0.008	1.1166	1.4375	-0.4745	-1.2055	0.1755	0.651
-2.2747	0.9785	9.296	-0.2159	0.6207	0.0088	0.5644	-0.1861	-0.2522	2.3786	0.0313	9.4143	-0.0561	0.3076	0.098	0.1722	-0.8839	-0.9104	9.2012	2.9124	-0.2461	1.0485	1.5003	-0.7488	-1.2231	0.1931	0.6488
-2.3367	1.5531	9.1189	-0.1231	0.6779	-0.0236	0.5704	-0.1681	-0.2522	2.2592	0.2602	9.2341	-0.2107	0.2792	0.159	0.1286	-0.8457	-0.8766	8.8027	3.2	-0.1947	1.0446	1.5317	-0.9019	-1.1527	0.1557	0.672
-2.6825	0.9211	9.0516	-0.2525	0.5299	-0.1433	0.5524	-0.1681	-0.2582	2.1461	0.3179	9.3507	-0.2049	0.5261	-0.1454	0.1587	-0.9049	-0.8562	9.1454	2.8553	-0.1891	0.9554	1.3777	-0.9045	-1.1707	0.1928	0.6497
-2.3855	0.9792	9.5302	-0.3715	0.5965	-0.018	0.5524	-0.1741	-0.2402	2.0333	0.2612	9.4671	-0.0236	0.399	0.1306	0.1726	-0.8861	-0.8568	9.2074	3.3725	0.1057	1.1082	1.3158	-0.9402	-1.1888	0.2475	0.6255
-1.8783	1.1494	8.9496	-0.3459	0.5337	-0.1716	0.5644	-0.1861	-0.2642	2.2636	0.3751	9.472	-0.1471	0.3706	0.0681	0.1303	-0.9063	-0.8028	9.0386	2.6273	0.1579	1.1946	1.6547	-0.9322	-1.1883	0.1598	0.6348
-2.3865	1.5542	9.5316	-0.5244	0.6336	0.0164	0.5584	-0.1681	-0.2462	2.3232	0.0889	9.5321	-0.3322	0.3733	0.1914	0.1873	-0.9058	-0.8559	9.2655	3.43	0.1654	1.3474	1.5928	-0.9679	-1.1357	0.1926	0.6503
-3.0228	0.9799	9.3405	-0.2835	0.4701	-0.1124	0.5644	-0.1681	-0.2582	2.2595	0.1457	9.2339	-0.4827	0.5599	0.2253	0.1595	-0.9433	-0.8546	9.0839	3.5431	-0.3628	1.2879	1.808	-0.7448	-1.1354	0.1907	0.6686
-2.5629	0.979	9.2904	-0.4621	0.5701	0.0755	0.5524	-0.1741	-0.2582	2.1537	0.1469	9.7069	-0.1479	0.3697	0.2843	0.1872	-0.905	-0.8738	9.1477	2.8557	-0.0724	1.0219	1.6536	-0.4664	-1.1542	0.2161	0.5932
-2.9727	1.439	8.9881	-0.2218	0.4675	-0.1139	0.5704	-0.1741	-0.2642	2.0307	0.3754	9.3485	-0.0551	0.3687	0.1609	0.1594	-0.9425	-0.8725	9.202	3.142	-0.1869	1.1113	1.6537	-0.5607	-1.2052	0.2243	0.682
-2.5036	1.3241	9.4105	-0.1533	0.6182	0.0378	0.5644	-0.1681	-0.2522	2.2001	0.3747	9.1738	-0.1468	0.371	-0.0245	0.1446	-0.906	-0.8206	9.425	3.485	-0.4145	0.838	1.6234	-0.5253	-1.1717	0.2162	0.5929
-2.1012	1.2658	9.3592	-0.1553	0.6485	-0.0535	0.5644	-0.1801	-0.2702	2.2616	0.2604	9.353	-0.1809	0.2176	0.0962	0.1719	-0.8654	-0.8933	9.1513	2.7416	0.1023	0.8751	1.5915	-0.2495	-1.2406	0.1932	0.6485
-2.9095	1.4395	9.2847	-0.4313	0.8129	-0.0764	0.5764	-0.1561	-0.2582	2.262	0.0887	9.3526	0.0961	0.2129	0.0966	0.1588	-0.9057	-0.8383	8.6935	3.0289	0.0358	0.7246	1.6839	-0.0897	-1.1195	0.251	0.59
-2.6815	0.9788	9.1108	-0.0049	0.6111	-0.1794	0.5464	-0.1741	-0.2522	2.3311	0.2614	9.9484	-0.0239	0.3687	0.0374	0.1588	-0.9057	-0.8383	8.8011	3.4866	-0.252	1.0273	1.6527	-0.22	-1.1887	0.1792	0.6146
-2.5126	1.323	8.9377	-0.1566	0.5264	-0.0237	0.5584	-0.1501	-0.2522	2.4408	-0.3691	9.5929	-0.0568	0.2167	-0.1815	0.1594	-0.9425	-0.8725	9.4345	3.3146	0.0517	0.8446	1.5916	-0.2489	-1.1527	0.2064	0.6848
-2.6821	1.3237	9.1117	-0.1211	0.8001	-0.023	0.5464	-0.1801	-0.2522	2.0982	0.2045	9.8247	-0.1205	0.1852	0.2502	0.1577	-0.8496	-0.8049	9.2521	3.1981	-0.5357	1.0587	1.591	-0.2223	-1.2063	0.2652	0.6233
-2.8442	0.9228	9.6393	0.0576	0.6086	-0.1504	0.5584	-0.1741	-0.2582	2.33	0.2041	9.8888	0.0346	0.214	0.0656	0.2028	-0.963	-0.8714	9.2002	3.6007	-0.2436	0.5616	1.6551	-0.5805	-1.1878	0.1734	0.6696
-2.6808	1.2089	9.1705	0.2131	0.7243	-0.1841	0.5764	-0.1621	-0.2462	1.6298	-0.253	9.3983	0.1303	0.3965	0.1	0.1726	-0.8861	-0.8568	9.4874	3.7154	-0.1208	0.6597	1.5308	-0.3702	-1.1886	0.1617	0.6165
-2.387	1.2091	9.4716	0.161	0.85	0.0925	0.5824	-0.1681	-0.2702	2.1514	0.0895	9.5879	0.0031	0.2137	0.2818	0.1732	-0.9069	-0.8203	9.2018	3.2568	-0.1865	0.512	1.3459	-0.2801	-1.1875	0.1891	0.6861
-2.6759	0.9795	9.4063	0.1263	0.8204	-0.0289	0.5764	-0.1801	-0.2462	2.0347	0.2041	9.5264	-0.2113	0.2185	0.0035	0.1875	-0.9073	-0.8202	8.9728	3.1422	-0.2498	0.4173	1.6542	-0.2077	-1.1536	0.2122	0.6298
-2.2101	0.8642	9.6515	-0.0359	0.7039	-0.2391	0.5524	-0.1741	-0.2582	1.7579	0.3776	10.115	-0.1176	0.3086	0.098	0.201	-0.8693	-0.8216	9.6046	3.1994	-0.0036	0.8696	1.5924	-0.4959	-1.1362	0.2121	0.6301
-3.1949	1.1529	9.3966	0.0653	0.6705	0.0938	0.5584	-0.1681	-0.2642	2.0422	0.0331	9.8825	-0.1492	0.2782	0.1591	0.1875	-0.9234	-0.8909	9.3097	3.5424	-0.475	1.1172	1.5297	-0.3794	-1.154	0.2317	0.6096
-2.3398	1.3802	8.9412	0.1257	0.6373	0.0616	0.5704	-0.1801	-0.2642	1.8608	0.0899	9.4632	-0.2715	0.3413	0.2527	0.1864	-0.8674	-0.8575	9.2063	3.315	0.0471	1.2367	1.6528	-0.4091	-1.1536	0.2122	0.6298
-2.2193	0.9781	9.1789	-0.2501	0.6217	-0.1124	0.5584	-0.1741	-0.2522	2.4419	0.1462	9.7128	-0.3627	0.3441	-0.0563	0.2297	-0.8871	-0.8742	9.2026	2.7979	-0.1882	1.209	1.4679	-0.4138	-1.188	0.1578	0.6531
-2.3939	1.3232	9.1173	-0.1602	0.5565	-0.1759	0.5524	-0.1741	-0.2642	1.6304	0.4912	9.5186	0.0946	0.1811	0.3431	0.1605	-0.9824	-0.8352	9.0337	2.8559	-0.0747	1.5379	1.6834	-0.5684	-1.153	0.1576	0.6537
-2.3346	0.9783	9.1767	-0.128	0.7384	-0.2367	0.5584	-0.1741	-0.2702	2.0812	0.3746	8.9931	-0.148	0.3396	0.1602	0.1741	-0.9621	-0.8716	9.4851	3.0264	-0.2983	1.4159	1.4992	-0.6945	-1.1883	0.2105	0.6475
-2.1631	1.1503	9.1213	-0.095	0.6153	-0.0857	0.5584	-0.1861	-0.2642	2.2646	-0.0255	9.4712	0.0358	0.3055	0.2217	0.1734	-0.9245	-0.8553	9.2039	3.4293	-0.0692	1.6216	1.4691	-1.0694	-1.17	0.1714	0.6882
-2.3885	1.4389	9.4131	-0.3451	0.7778	-0.2922	0.5524	-0.1741	-0.2582	1.973	0.3756	9.3473	-0.0838	0.4917	0.2248	0.1438	-0.8845	-0.8749	9.2577	3.2565	-0.2437	1.4038	1.6241	-1.1531	-1.1883	0.1598	0.6348
-2.2161	1.0935	9.3565	-0.283	0.5007	-0.1123	0.5824	-0.1741	-0.2642	2.0311	0.2037	9.3481	0.0683	0.397	0.2234	0.1442	-0.9037	-0.8741	8.7489	3.3155	-0.0204	1.5581	1.5927	-1.0954	-1.153	0.2084	0.6665
-2.505	1.4965	9.3519	-0.2833	0.5312	-0.1426	0.5584	-0.1681	-0.2462	1.9774	0.0325	9.5248	-0.3624	0.3744	0.0369	0.1873	-0.9058	-0.8559	9.4855	3.4856	-0.2383	1.7088	1.5311	-1.2235	-1.1357	0.1926	0.6503
-2.219	1.4382	9.2391	-0.1542	0.6181	0.0073	0.5524	-0.1741	-0.2642	2.203	0.146	9.2921	-0.1512	0.1858	0.2192	0.1588	-0.9057	-0.8383	9.139	3.3132	-0.4792	1.2245	1.6547	-0.9636	-1.1884	0.1773	0.633
-2.6855	1.3233	8.9343	-0.2522	0.4994	-0.113	0.5584	-0.1681	-0.2522	2.1439	0.2605	9.2318	-0.363	0.3738	0.1913	0.1862	-0.8497	-0.8225	9.1397	2.8543	-0.4809	1.1013	1.686	-0.9911	-1.1708	0.2104	0.6478
-2.9672	0.8646	9.2231	-0.1602	0.5565	-0.1759	0.5584	-0.1621	-0.2522	1.7586	0.5494	10.1748	0.0944	0.1809	0.4049	0.1722	-0.8677	-0.8397	9.3756	3.0275	-0.0672	1.0997	1.7477	-1.0201	-1.1883	0.1598	0.6348
-2.3864	1.4967	9.5314	-0.1226	0.7084	-0.0234	0.5584	-0.1801	-0.2582	2.3158	-0.3125	9.1153	-0.2734	0.2189	0.1579	0.116	-0.9059	-0.8029	9.1414	3.2562	-0.3627	1.2226	1.6858	-1.0244	-1.1536	0.1615	0.6171
-2.3274	0.7492	9.5307	-0.1278	0.6469	-0.1762	0.5524	-0.1621	-0.2582	1.858	0.2614	9.3447	-0.0253	0.3371	0.253	0.1581	-0.885	-0.8748	8.9119	3.3711	-0.4252	1.0722	1.7781	-0.8646	-1.1889	0.2143	0.6109
-2.3375	1.3805	9.0594	-0.2183	0.5289	-0.0222	0.5464	-0.1801	-0.2522	2.2627	0.2605	9.4124	-0.2097	0.3405	0.191	0.1594	-0.9425	-0.8725	9.3159	3.2566	-0.1842	0.9206	1.9937	-0.6705	-1.2056	0.193	0.6491
-2.6209	1.8416	9.3504	-0.0633	0.6141	-0.0559	0.5584	-0.1741	-0.2522	2.2669	0.4899	9.6505	-0.1805	0.2781	0.3135	0.1728	-0.8877	-0.8211	8.911	3.2562	-0.484	0.8564	1.8405	-0.9202	-1.1355	0.2083	0.6667
-2.3849	1.2668	9.59	-0.0019	0.642	-0.0878	0.5584	-0.1801	-0.2522	2.2106	0.4329	9.7087	-0.0584	0.1848	0.0959	0.1735	-0.9253	-0.8374	8.9741	3.7162	-0.1311	0.929	1.7463	-0.4619	-1.1709	0.2279	0.646
-2.6122	1.3827	9.7631	0.0594	0.5173	-0.029	0.5584	-0.1681	-0.2642	2.6039	0.2592	9.1818	-0.0869	0.308	0.1289	0.1747	-0.9821	-0.853	8.968	3.2561	-0.4829	0.8425	1.4074	-0.4699	-1.2229	0.2087	0.6653
-2.6171	0.9795	9.4666	-0.0047	0.6722	-0.2096	0.5644	-0.1681	-0.2402	2.0294	-0.0826	9.2287	-0.1178	0.3384	0.3147	0.1441	-0.903	-0.892	8.8583	3.3718	-0.2513	0.8161	1.4068	-0.2844	-1.1709	0.1772	0.6332
-2.9636	1.3826	9.4608	0.3057	0.7205	-0.1863	0.5644	-0.1801	-0.2462	2.0314	0.0893	9.3479	0.2193	0.2109	0.0659	0.1583	-0.8865	-0.8391	9.3715	3.4284	-0.2408	0.571	1.2538	-0.438	-1.1705	0.2084	0.6662
-2.504	1.5541	9.4111	-0.2461	0.8051	-0.0809	0.5704	-0.1621	-0.2402	2.2634	-0.0256	9.4118	0.0027	0.1832	0.2195	0.1869	-0.8866	-0.8567	8.5158	3.6018	-0.2573	0.9659	1.2223	-0.5393	-1.1885	0.1949	0.6311
-2.1027	0.863	9.24	0.1553	0.7579	-0.0604	0.5644	-0.1561	-0.2642	2.0286	0.2607	9.2294	0.2815	0.3006	0.3765	0.1014	-0.9032	-0.8566	8.9729	3.7734	-0.1892	1.1195	1.191	-0.5124	-1.1348	0.1361	0.6925
-2.451	1.6109	9.1759	-0.2502	0.7132	-0.1728	0.5584	-0.1681	-0.2522	1.9814	-0.1388	9.7027	0.0647	0.2127	0.251	0.1304	-0.9232	-0.8556	8.9669	3.2559	-0.5412	0.998	1.4373	-0.318	-1.1362	0.2121	0.6301
-2.501	1.1519	9.5283	0.1197	0.7281	-0.2123	0.5644	-0.1741	-0.2462	2.2678	0.1465	9.6498	0.1884	0.1813	-0.0582	0.1717	-0.8478	-0.8584	9.2623	3.2573	-0.0103	0.9657	1.3762	-0.4424	-1.17	0.1714	0.6882
-2.5078	1.1511	9.1737	0.0307	0.7934	-0.1182	0.5584	-0.1741	-0.2702	2.2057	0.4897	9.4711	0.1272	0.2428	0.159	0.2019	-0.9246	-0.8729	8.8032	2.9132	-0.1958	0.8705	1.5307	-0.4977	-1.1711	0.2123	0.6295
-2.2118	1.1515	9.5931	-0.126	0.7081	-0.1454	0.5584	-0.1741	-0.2522	2.2622	-0.4837	9.2921	-0.0875	0.3073	0.2833	0.1591	-0.9241	-0.8554	9.0827	3.6003	-0.421	0.7494	1.8385	-0.2399	-1.1354	0.1907	0.6686
-2.441	1.6697	9.708	0.0897	0.7295	-0.181	0.5584	-0.1681	-0.2582	2.2717	-0.0248	9.8278	-0.0278	0.184	0.1577	0.1587	-0.9049	-0.8562	9.1436	3.314	-0.2458	0.8996	1.8077	-0.3671	-1.2235	0.1619	0.6159
-2.6136	0.9224	9.6437	0.1512	0.4218	-0.0013	0.5584	-0.1741	-0.2462	2.2621	0.0315	9.3525	-0.0265	0.2756	0.2828	0.1735	-0.9253	-0.8374	8.9155	3.257	-0.2506	0.7451	1.7161	-0.5208	-1.189	0.2319	0.609
-2.5574	1.6697	9.6467	-0.31	0.777	-0.1405	0.5644	-0.1621	-0.2522	2.6091	0.088	9.4192	-0.1181	0.2781	0.0665	0.1585	-0.9042	-0.874	8.8	3.4864	-0.3104	0.8038	1.7778	-0.5818	-1.2059	0.195	0.6308
-2.3244	1.5546	9.7691	-0.183	0.5891	0.0994	0.5584	-0.1741	-0.2582	2.0841	0.6611	9.172	0.0669	0.2753	-0.0259	0.1589	-0.9226	-0.8911	8.9713	3.3141	-0.3076	0.545	1.5915	0.0037	-1.1885	0.2456	0.6438
-2.3286	1.3816	9.5323	-0.2154	0.6513	0.009	0.5524	-0.1681	-0.2522	2.4384	0.6038	9.5949	-0.1163	0.3701	0.0682	0.1023	-0.9423	-0.8372	9.145	3.1421	-0.1881	0.335	1.3147	-0.0308	-1.1708	0.2104	0.6478
-2.4367	1.1526	9.8841	-0.0967	0.6151	-0.1466	0.5764	-0.1801	-0.2402	2.2694	-0.025	9.7089	-0.0566	0.3069	0.2525	0.1578	-0.8665	-0.8577	8.9845	2.9722	0.3331	0.5459	1.3453	-0.1266	-1.119	0.2647	0.6248
-2.6811	1.3814	9.1709	-0.0684	0.461	-0.1482	0.5584	-0.1801	-0.2822	2.1486	0.2609	9.4694	-0.0239	0.3987	0.1924	0.144	-0.8861	-0.8392	9.1961	3.2557	-0.4783	0.906	1.2838	-0.4438	-1.1884	0.1773	0.633
-2.7922	1.5546	9.4055	-0.0658	0.6138	-0.1474	0.5524	-0.1801	-0.2582	2.1425	0.3176	9.1725	0.3451	0.362	0.1306	0.1453	-0.9436	-0.8369	9.3143	3.5432	-0.2415	0.9022	1.4997	-0.4684	-1.1537	0.2298	0.6279
-2.5	1.2095	9.5876	0.0266	0.5489	-0.1195	0.5644	-0.1981	-0.2702	1.9097	0.2607	9.0488	-0.1185	0.3076	0.345	0.1595	-0.9433	-0.8546	8.9719	3.7158	-0.2478	0.5113	1.5306	-0.1823	-1.1873	0.2047	0.7025
-1.9898	1.5526	9.1848	0.0222	0.6399	-0.3324	0.5524	-0.1801	-0.2642	2.0298	0.2609	9.2888	-0.0305	0.0609	0.2481	0.1302	-0.9056	-0.8207	9.259	3.1993	-0.1856	0.1117	1.4705	-0.361	-1.2054	0.1579	0.6529
-2.9676	1.7271	9.2843	-0.0025	0.7029	-0.1484	0.5464	-0.1741	-0.2582	2.7211	-0.0271	9.2431	-0.2101	0.34	0.3145	0.1439	-0.8853	-0.8571	8.6888	3.0855	-0.1974	0.1401	1.4708	-0.454	-1.2064	0.1637	0.5979
-2.5673	1.5535	9.1145	-0.0643	0.7055	-0.1469	0.5644	-0.1681	-0.2522	1.9769	0.2615	9.5253	-0.1451	0.493	0.163	0.1877	-0.9249	-0.8552	9.0853	3.3713	-0.3051	0.4137	1.3472	-0.5863	-1.1889	0.2143	0.6109
-2.6203	1.4967	9.3496	-0.2844	0.47	-0.1429	0.5524	-0.1921	-0.2582	1.8646	0.491	9.7016	-0.1732	0.6167	0.0725	0.144	-0.8861	-0.8392	9.2582	2.9696	-0.2448	0.3541	1.3471	-0.5235	-1.1353	0.1732	0.6705
-2.6773	1.1518	9.3477	-0.1619	0.5563	-0.2369	0.5644	-0.1801	-0.2642	1.6934	0.2626	9.757	-0.1153	0.4314	0.1002	0.173	-0.9053	-0.8561	8.924	2.9716	0.1569	0.6884	1.3773	-0.5601	-1.1362	0.2121	0.6301
-2.4537	1.2656	8.9978	-0.1861	0.5583	0.0077	0.5524	-0.1801	-0.2582	2.1469	0.4897	9.4105	-0.0543	0.3996	0.0997	0.1733	-0.9238	-0.8732	8.8626	3.5447	-0.0173	0.7237	1.3764	-0.3451	-1.1711	0.2123	0.6295
-2.334	1.2659	9.2365	-0.0041	0.3672	0.0022	0.5584	-0.1681	-0.2522	1.9213	0.3763	9.6432	-0.3344	0.2506	0.1583	0.1295	-0.8841	-0.875	8.9108	3.3709	-0.4836	0.7506	1.623	-0.3386	-1.1882	0.1422	0.6367
-2.3318	1.3237	9.3548	-0.3744	0.6267	-0.1398	0.5584	-0.1501	-0.2522	2.1477	0.6615	9.4703	-0.0243	0.3982	0.3159	0.1578	-0.8665	-0.8577	8.8011	3.4866	-0.252	0.9292	1.777	-0.4302	-1.1526	0.1381	0.6739
-2.5669	1.381	9.114	-0.1572	0.5873	-0.0843	0.5584	-0.1861	-0.2582	2.3251	0.2609	9.6513	-0.4221	0.4677	0.0076	0.1727	-0.8869	-0.839	9.0251	3.1986	-0.4819	1.2023	1.8688	-0.4331	-1.1705	0.2084	0.6662
-2.4498	0.9785	9.1744	-0.1269	0.5555	-0.0852	0.5704	-0.1621	-0.2762	2.0966	-0.0819	9.7052	-0.0875	0.2773	0.1283	0.1735	-0.9253	-0.8374	9.1963	3.141	-0.4787	1.325	1.8684	-0.4047	-1.1534	0.1771	0.6335
-2.6206	1.0366	9.2894	0.0332	0.7937	-0.0267	0.5524	-0.1741	-0.2642	2.5523	0.2027	9.4776	0.0056	0.3066	0.0673	0.1439	-0.8853	-0.8571	9.5374	3.1403	-0.5302	1.0553	1.7761	-0.2478	-1.2064	0.232	0.6087
-2.505	1.4965	9.3519	-0.2194	0.5593	-0.083	0.5584	-0.1681	-0.2582	2.1486	0.2609	9.4694	-0.3313	0.4044	0.0993	0.1449	-0.9244	-0.8377	9.3773	2.6835	-0.0101	1.5954	1.5916	-0.7879	-1.2577	0.1914	0.6666
-2.6805	1.669	9.2307	-0.2144	0.5599	0.1	0.5464	-0.1801	-0.2642	2.2008	0.0885	9.1732	-0.1459	0.432	0.0692	0.1446	-0.9229	-0.8734	8.8016	3.1998	-0.2531	1.6815	1.5922	-1.0362	-1.1704	0.1909	0.668
-2.0451	0.8629	9.2411	-0.2521	0.6519	-0.2037	0.5584	-0.1681	-0.2642	2.1439	0.2605	9.2318	-0.361	0.4661	0.1312	0.1443	-0.9045	-0.8563	9.144	3.7731	-0.1858	1.3257	1.4992	-0.631	-1.1715	0.2318	0.6093
-2.1611	1.2656	9.2398	-0.3101	0.3804	0.1012	0.5584	-0.1621	-0.2642	2.724	-0.2558	9.3614	-0.455	0.3758	0.0986	0.1452	-0.9429	-0.8548	8.8027	3.2	-0.1947	1.4851	1.3132	-0.4546	-1.1709	0.1772	0.6332
-2.3851	1.3818	9.5902	-0.4085	0.1396	0.0412	0.5704	-0.1681	-0.2402	2.4354	0.3746	9.4162	-0.2394	0.4323	0.3779	0.1883	-0.9449	-0.8366	8.8596	3.3147	-0.1932	1.5105	1.56	-0.5097	-1.1536	0.2122	0.6298
-2.3879	1.0939	9.4122	-0.3127	0.4716	-0.0507	0.5704	-0.1681	-0.2582	2.035	0.5476	9.5865	-0.1772	0.432	0.1927	0.1583	-0.8865	-0.8391	8.9703	2.5106	-0.4272	1.4866	1.436	-0.297	-1.2582	0.1601	0.6337
-2.3322	0.9211	9.2947	-0.2459	0.6221	0.0401	0.5644	-0.1561	-0.2702	2.1375	0.4316	8.935	-0.3911	0.5275	0.2558	0.1724	-0.8854	-0.8747	9.14	3.4281	-0.4204	1.2117	1.5598	-0.2263	-1.1883	0.1598	0.6348
-2.3909	1.4961	9.295	-0.1812	0.6504	0.1302	0.5644	-0.1681	-0.2522	2.606	0.3739	9.3009	-0.0541	0.4299	0.1929	0.1581	-0.885	-0.8748	8.9732	3.6013	-0.1898	1.1823	1.4367	-0.26	-1.1532	0.1927	0.65
-2.2193	0.9781	9.1789	-0.1199	0.7698	0.0379	0.5464	-0.1741	-0.2582	2.0291	0.547	9.2894	-0.1472	0.4006	0.254	0.1587	-0.9049	-0.8562	9.4861	3.83	-0.1787	1.2329	1.6842	-0.5622	-1.1706	0.1753	0.6516
-2.1005	1.4959	9.4188	0.1853	0.7565	-0.0917	0.5584	-0.1561	-0.2522	2.6626	0.3164	9.2426	-0.1501	0.2471	0.2512	0.1869	-0.8866	-0.8567	8.8546	2.8547	-0.4866	0.8766	1.7143	-0.0919	-1.1359	0.1595	0.6357
-2.2747	0.9785	9.296	-0.3696	0.8103	-0.0779	0.5524	-0.1621	-0.2642	1.9732	0.3183	9.3472	0.0033	0.2139	0.22	0.1446	-0.906	-0.8206	8.9744	2.7982	-0.1927	0.6952	1.7453	0.0051	-1.1881	0.1754	0.6513
-2.3326	1.1511	9.2953	0.088	0.7293	-0.242	0.5524	-0.1801	-0.2582	1.804	0.2046	9.5216	0.0969	0.2438	0.0354	0.2012	-0.887	-0.8566	8.9728	3.0848	-0.2501	0.7496	1.6846	-0.3368	-1.1886	0.2124	0.6292
-2.3866	0.9791	9.4711	-0.0941	0.7679	-0.1458	0.5524	-0.1681	-0.2702	2.2651	0.7759	9.5917	-0.2104	0.2796	0.0664	0.1576	-0.8489	-0.8228	9.2567	3.1989	-0.3023	1.0924	1.6519	-0.0363	-1.1535	0.1947	0.6317
-2.158	1.4385	9.4176	-0.0017	0.703	-0.1179	0.5704	-0.1861	-0.2522	2.384	0.2608	9.7119	-0.0865	0.3385	0.1603	0.1583	-0.9026	-0.9098	8.9212	3.3154	0.0414	1.186	1.5591	-0.01	-1.1712	0.1791	0.6149
-2.9055	1.095	9.4612	-0.1854	0.6499	-0.0223	0.5644	-0.1801	-0.2582	1.8595	0.147	9.4039	0.0695	0.4284	0.0695	0.1577	-0.8658	-0.8756	9.2016	3.4289	-0.1859	0.9713	1.4983	-0.0999	-1.1532	0.1927	0.65
-2.3304	1.7839	9.4741	-0.1852	0.7109	-0.0524	0.5524	-0.1801	-0.2582	2.3304	0.0324	9.8885	-0.0268	0.2453	0.1896	0.1717	-0.8478	-0.8584	9.2012	2.9124	-0.2461	0.9404	1.5292	-0.0984	-1.1362	0.2121	0.6301
-2.6833	1.3811	9.0527	-0.184	0.6806	0.0084	0.5404	-0.1741	-0.2582	1.5704	0.4911	9.3986	-0.3048	0.1287	-0.1527	0.1584	-0.9034	-0.8919	9.204	3.3719	-0.0694	0.7283	1.4372	-0.0968	-1.2231	0.1424	0.6361
-2.2229	1.0927	9.0019	-0.0346	0.582	-0.1178	0.5524	-0.1681	-0.2522	2.5478	0.0878	9.2397	0.0074	0.3987	0.0689	0.1591	-0.9241	-0.8554	8.9183	3.6592	-0.0741	0.4793	1.5001	-0.275	-1.1703	0.2241	0.6826
-2.4471	1.3239	9.3526	-0.127	0.4029	0.0054	0.5584	-0.1921	-0.2642	2.153	0.4331	9.7075	-0.3309	0.4348	0.1616	0.2013	-0.9039	-0.9094	9.0788	3.1406	-0.6561	0.4173	1.4697	-0.3363	-1.1879	0.191	0.6677
-2.903	0.9803	9.5792	-0.0394	0.3985	-0.1798	0.5524	-0.1861	-0.2642	2.3249	0.3753	9.6515	-0.1471	0.3706	0.0681	0.2022	-0.9261	-0.8372	9.4856	3.4282	-0.2385	0.6634	1.6533	-0.1202	-1.1539	0.2141	0.6115
-2.3881	1.2089	9.4125	-0.1291	0.5247	-0.1464	0.5584	-0.1741	-0.2642	2.3762	0.0311	9.2955	-0.2411	0.3102	0.2213	0.1739	-0.9445	-0.8367	9.2029	2.5684	-0.189	0.6238	1.9009	-0.3589	-1.1531	0.1752	0.6519
-2.8429	0.8655	9.6982	-0.0667	0.4612	-0.0872	0.5644	-0.1681	-0.2582	2.0394	0.2046	9.7641	0.1601	0.3347	0.068	0.1296	-0.8849	-0.8572	9.0292	3.4863	-0.2475	0.6829	1.9317	-0.4209	-1.153	0.2084	0.6665
-2.5047	1.324	9.3514	0.0321	0.58	0.0636	0.5644	-0.1801	-0.2642	2.0988	-0.0244	9.8242	-0.1514	0.1556	0.1261	0.1434	-0.8654	-0.8757	9.1408	2.9118	-0.4223	0.4476	1.6234	-0.24	-1.1533	0.2103	0.6481
-2.3343	1.4384	9.2369	-0.1199	0.5257	0.189	0.5644	-0.1801	-0.2462	2.3801	0.3749	9.5338	-0.1495	0.2778	0.2518	0.1581	-0.885	-0.8748	8.9782	3.3153	0.0426	0.5127	1.5304	-0.1207	-1.1712	0.1791	0.6149
-2.3271	1.2092	9.5909	-0.1848	0.4364	0.129	0.5704	-0.1801	-0.2642	2.837	0.2017	9.3053	-0.1488	0.2786	0.0665	0.1876	-0.908	-0.8024	9.0262	3.2562	-0.4234	0.6017	1.5613	-0.2141	-1.1533	0.2103	0.6481
-2.508	1.2661	9.174	-0.2186	0.5594	-0.0525	0.5644	-0.1861	-0.2822	2.3816	0.2606	9.593	-0.3014	0.3427	0.0365	0.1437	-0.8838	-0.8928	9.3187	3.6588	-0.0077	0.6345	1.4071	-0.2191	-1.206	0.1618	0.6162
-1.8742	1.3799	9.1866	-0.2193	0.4678	-0.0225	0.5764	-0.1801	-0.2402	2.152	-0.1395	9.5875	-0.2101	0.34	0.3145	0.1577	-0.8658	-0.8756	9.1383	3.0261	-0.5386	0.5425	1.5304	-0.1521	-1.1712	0.1791	0.6149
-2.3241	1.3821	9.7687	-0.2766	0.5319	0.1013	0.5584	-0.1561	-0.2582	2.4923	0.2026	9.3576	-0.0854	0.4298	0.3473	0.1726	-0.8861	-0.8568	8.7995	3.0273	-0.3704	0.6611	1.5306	-0.3086	-1.1351	0.138	0.6742
-2.1636	1.4378	9.122	-0.3406	0.3512	0.1323	0.5524	-0.1621	-0.2702	2.2081	0.4899	9.5899	-0.1782	0.3708	0.1607	0.1585	-0.9042	-0.874	9.0897	3.4868	-0.0712	0.7144	1.5932	-0.6161	-1.189	0.2319	0.609
-2.625	0.9785	9.0528	-0.2509	0.3775	0.0083	0.5584	-0.1681	-0.2702	2.2601	0.3748	9.2938	-0.0564	0.2771	0.0357	0.1449	-0.9244	-0.8377	9.4934	2.8558	0.1095	0.8746	1.5301	-0.3129	-1.171	0.1948	0.6314
-2.0962	1.6114	9.6555	-0.1236	0.6473	-0.0238	0.5464	-0.1681	-0.2522	2.3234	0.4897	9.5923	-0.0856	0.3995	0.2541	0.1589	-0.9226	-0.8911	8.9734	3.4866	-0.1902	1.0287	1.468	-0.2869	-1.2057	0.2106	0.6473
-2.5628	0.9215	9.2902	-0.185	0.6194	0.0081	0.5644	-0.1741	-0.2462	2.0313	0.6045	9.4083	0.1576	0.2118	0.0967	0.1732	-0.9069	-0.8203	9.1436	3.314	-0.2458	1.1511	1.5291	-0.226	-1.188	0.1578	0.6531
-2.7406	1.1512	9.051	-0.1885	0.4665	-0.0232	0.5524	-0.1621	-0.2642	2.3166	0.8325	9.2959	-0.4543	0.4365	0.2541	0.1722	-0.8677	-0.8397	8.692	3.2582	-0.0217	1.1584	1.4972	0.0812	-1.1882	0.1422	0.6367
-2.6171	0.9795	9.4666	-0.0622	0.4312	0.0955	0.5404	-0.1741	-0.2522	2.2019	-0.3693	9.1723	0.2521	0.3628	0.3158	0.1449	-0.9244	-0.8377	8.8571	2.683	-0.3705	1.1559	1.2515	-0.2032	-1.1363	0.1789	0.6155
-2.452	0.9207	9.0561	-0.2503	0.5606	-0.0822	0.5644	-0.1621	-0.2642	2.0938	0.0896	9.5867	-0.4862	0.3457	0.0671	0.1311	-0.9601	-0.8898	9.2571	3.658	-0.2423	1.2461	1.5284	-0.0738	-1.1531	0.2259	0.6646
-2.5047	1.324	9.3514	-0.1581	0.5872	-0.1148	0.5524	-0.1741	-0.2582	2.3256	0.0892	9.6509	0.0678	0.3364	0.037	0.1582	-0.8857	-0.8569	8.9741	3.0277	-0.1919	1.193	1.4965	0.2655	-1.1357	0.1926	0.6503
-2.4559	1.2078	8.8794	-0.1513	0.7405	0.0384	0.5704	-0.1741	-0.2642	2.2631	0.604	9.4725	-0.3009	0.4033	0.2229	0.173	-0.9053	-0.8561	8.9067	3.0832	-0.718	1.1889	1.3126	-0.0479	-1.1707	0.1928	0.6497
-2.219	0.8056	9.1785	-0.2479	0.6524	-0.0512	0.5524	-0.1741	-0.2582	2.3147	0.6605	9.1767	-0.2094	0.3708	0.2842	0.1594	-0.9264	-0.8018	9.2584	3.5435	-0.1843	0.975	1.5285	0.0858	-1.1355	0.1575	0.654
-2.2166	1.3235	9.3571	-0.1886	0.8021	-0.2348	0.5764	-0.1741	-0.2522	1.9192	0.2616	9.5241	-0.2691	0.464	0.2549	0.1729	-0.9046	-0.8739	9.256	3.6578	-0.3006	0.7667	1.4052	0.2406	-1.1892	0.2163	0.5926
-2.7428	1.1509	8.9328	-0.252	0.5604	-0.1432	0.5464	-0.1681	-0.2702	2.2656	0.547	9.5912	-0.1473	0.3704	0.1299	0.2168	-0.945	-0.8542	8.9753	2.9705	-0.1338	0.6645	1.5301	-0.1546	-1.1536	0.2122	0.6298
-2.7398	1.3813	9.1107	0.1764	0.725	-0.3967	0.5584	-0.1681	-0.2462	2.1495	-0.0825	9.4687	0.1871	0.1498	0.1265	0.1429	-0.8462	-0.8765	9.3756	3.7734	-0.0061	0.9681	1.6218	-0.158	-1.1532	0.1927	0.65
-2.6746	1.4972	9.5258	-0.0677	0.7966	-0.3293	0.5524	-0.1561	-0.2522	1.981	0.0329	9.7031	-0.0292	0.1524	0.3733	0.1448	-0.9237	-0.8555	8.8576	3.0848	-0.3107	0.7604	1.2831	-0.1327	-1.1357	0.1926	0.6503
-2.2207	1.1504	9.1202	0.065	0.701	0.0635	0.5584	-0.1681	-0.2582	2.2058	-0.0255	9.4106	0.0969	0.2438	0.0354	0.1443	-0.9045	-0.8563	9.3717	3.3137	-0.2412	0.7626	1.3135	-0.0086	-1.2057	0.2106	0.6473
-2.6164	1.2096	9.5262	-0.0619	0.6447	-0.0253	0.5644	-0.1741	-0.2642	2.1522	0.2613	9.6477	-0.0574	0.276	0.3137	0.1445	-0.9222	-0.8912	9.0865	3.3715	-0.2467	0.876	1.2531	-0.4441	-1.1353	0.1732	0.6705
-2.391	0.921	9.2345	-0.2131	0.5905	0.1306	0.5644	-0.1741	-0.2462	2.2614	0.3176	9.3531	-0.0887	0.2159	0.1272	0.1591	-0.9241	-0.8554	8.8573	3.3142	-0.3099	0.8528	1.0367	-0.2649	-1.1542	0.2161	0.5932
-2.5015	1.3819	9.5289	-0.1592	0.6176	-0.1756	0.5464	-0.1741	-0.2582	2.0411	0.4909	9.8835	-0.423	0.4366	0.0997	0.1436	-0.8669	-0.84	9.4299	3.3138	-0.1817	0.5781	1.1912	-0.1625	-1.1887	0.1792	0.6146
-2.2798	1.3229	9.0604	-0.1587	0.4041	-0.0243	0.5704	-0.1801	-0.2582	2.0905	-0.0252	9.4083	-0.2091	0.3712	0.1916	0.1447	-0.9068	-0.8027	9.2574	3.4859	-0.2429	0.4879	0.9144	-0.2919	-1.154	0.181	0.5969
-2.3233	1.6123	9.8283	-0.1237	0.4948	0.0669	0.5584	-0.1801	-0.2582	1.9219	0.1474	9.6427	-0.302	0.312	0.0359	0.1868	-0.8858	-0.8746	8.8568	3.6011	-0.3088	0.7563	1.0992	-0.4461	-1.1707	0.1928	0.6497
-2.2732	1.3812	9.4152	-0.1944	0.3134	-0.146	0.5524	-0.1741	-0.2642	1.8652	-0.2531	9.6407	-0.0545	0.4294	0.3164	0.173	-0.9053	-0.8561	9.2529	3.4277	-0.4765	0.8494	1.3141	-0.2261	-1.1363	0.2297	0.6282
-2.6741	1.2672	9.5252	-0.2205	0.4982	-0.0833	0.5524	-0.1741	-0.2462	2.1476	0.2036	9.4099	-0.2998	0.4347	0.069	0.159	-0.9072	-0.8026	8.9188	3.3724	-0.0751	0.8225	1.6211	0.1531	-1.1354	0.1907	0.6686
-3.0264	1.7271	9.2241	-0.2105	0.5908	0.2221	0.5524	-0.1621	-0.2642	2.3801	0.3749	9.5338	-0.2378	0.4942	0.2555	0.1874	-0.9065	-0.8381	8.9163	3.4867	-0.1914	0.703	1.5903	0.2471	-1.188	0.1578	0.6531
-2.7381	1.6691	9.2296	-0.1923	0.4356	-0.1453	0.5584	-0.1801	-0.2762	2.2599	-0.026	9.2336	-0.3011	0.3731	0.0988	0.1594	-0.9425	-0.8725	9.0878	3.2569	-0.1888	0.7863	1.6836	-0.0601	-1.1706	0.1753	0.6516
-2.3877	0.979	9.412	-0.0362	0.7344	-0.2694	0.5464	-0.1741	-0.2582	2.2075	0.2609	9.53	-0.3329	0.3424	0.2217	0.172	-0.8662	-0.8755	9.0271	3.4285	-0.3644	0.6641	1.4687	-0.2179	-1.1706	0.226	0.6643
-2.6773	1.1518	9.3477	-0.22	0.5288	-0.0831	0.5644	-0.1741	-0.2702	2.152	0.3185	9.6478	-0.0864	0.3386	0.1294	0.1873	-0.9058	-0.8559	8.9118	3.4285	-0.425	0.5154	1.4377	-0.0617	-1.2056	0.193	0.6491
-2.1096	1.5523	8.9461	-0.0704	0.4913	-0.2395	0.5464	-0.1801	-0.2582	1.8059	-0.0814	9.5805	-0.1479	0.3397	0.1293	0.1593	-0.9418	-0.8904	8.9744	2.7982	-0.1927	0.1854	0.884	-0.1942	-1.1715	0.2318	0.6093
-2.6208	1.1516	9.2897	-0.072	0.3996	-0.24	0.5644	-0.1561	-0.2582	1.8644	0.0903	9.6414	-0.119	0.247	0.1586	0.1721	-0.867	-0.8576	8.9771	3.2577	-0.016	0.0612	0.8539	-0.3159	-1.1706	0.1753	0.6516
-2.5016	0.8643	9.4685	-0.129	0.6772	-0.237	0.5644	-0.1741	-0.2582	1.9724	0.1465	9.2874	-0.0596	0.1533	0.2806	0.1874	-0.9065	-0.8381	9.1394	3.0837	-0.4801	0.3302	0.8541	-0.5679	-1.1712	0.2299	0.6277
-2.5019	0.9793	9.4688	-0.2532	0.6823	-0.2645	0.5584	-0.1741	-0.2582	1.9764	0.4331	9.5256	-0.2107	0.2792	0.159	0.1446	-0.9229	-0.8734	9.2018	3.3141	-0.1863	0.6983	0.9451	-0.4185	-1.1881	0.2261	0.664
-2.6734	0.8648	9.5243	-0.2835	0.6227	-0.2031	0.5464	-0.1801	-0.2522	1.8025	-0.139	9.4021	-0.2091	0.3712	0.1916	0.1446	-0.9229	-0.8734	8.9201	3.2578	-0.0172	0.6324	1.3151	-0.3758	-1.1879	0.1403	0.655
-2.7843	1.5556	9.8192	-0.3135	0.6241	-0.1718	0.5524	-0.1741	-0.2522	2.0371	-0.3109	9.5847	-0.024	0.3986	0.2233	0.1733	-0.9238	-0.8732	8.8594	3.4294	-0.1927	0.8125	1.2844	-0.5344	-1.1349	0.1537	0.6907
-2.6222	1.3239	9.231	-0.1282	0.5248	-0.1159	0.5644	-0.1741	-0.2702	2.3163	0.489	9.2358	-0.3329	0.3124	0.0668	0.1448	-0.9237	-0.8555	8.7515	3.1438	0.0957	0.6035	1.2534	-0.3462	-1.1708	0.2104	0.6478
-2.333	1.381	9.2958	-0.3469	0.4725	-0.1719	0.5584	-0.1681	-0.2702	1.977	0.2042	9.5252	-0.1771	0.4021	0.0069	0.1449	-0.9244	-0.8377	8.863	3.3153	-0.0181	0.4822	1.2536	-0.3129	-1.1356	0.2258	0.6649
-2.6206	1.0366	9.2894	-0.1876	0.6192	-0.0834	0.5464	-0.1681	-0.2402	1.8039	0.2619	9.5217	-0.2991	0.4655	0.0387	0.1872	-0.905	-0.8738	8.9725	3.3143	-0.2492	0.4859	0.9147	-0.3843	-1.1527	0.1557	0.672
-2.5686	1.6684	9.0556	-0.3695	0.5662	0.0733	0.5524	-0.1801	-0.2582	1.9233	0.033	9.7019	-0.3011	0.4032	0.2537	0.1741	-0.9621	-0.8716	9.7203	3.6012	0.1168	0.3914	1.0692	-0.4089	-1.1186	0.2452	0.645
-2.5129	1.4955	8.9381	-0.13	0.6161	-0.2373	0.5644	-0.1801	-0.2522	2.4348	0.1455	9.3563	-0.2102	0.3099	0.1596	0.1449	-0.9244	-0.8377	8.9786	3.0285	0.0415	0.2084	0.9774	-0.4695	-1.1712	0.1791	0.6149
-2.5077	1.7262	9.2342	-0.2489	0.5913	-0.0516	0.5584	-0.1741	-0.2582	1.9771	0.6622	9.5855	-0.3319	0.3737	0.0987	0.1866	-0.8681	-0.8396	9.2626	3.0852	-0.0109	0.305	0.7303	-0.4168	-1.1881	0.1754	0.6513
-2.3334	0.9784	9.2358	-0.0017	0.703	-0.1179	0.5704	-0.1621	-0.2522	2.1427	0.2603	9.1723	-0.3385	0.0658	0.3094	0.1582	-0.8857	-0.8569	9.2018	3.3141	-0.1863	0.3937	0.8228	-0.4776	-1.1715	0.2318	0.6093
-2.7414	0.9786	8.9915	-0.1266	0.769	-0.206	0.5524	-0.1801	-0.2702	2.4394	0.2032	9.5941	-0.1197	0.2161	0.189	0.1285	-0.845	-0.8944	9.197	3.428	-0.4193	0.3639	1.0996	-0.2533	-1.1878	0.1734	0.6696
-2.2731	0.6911	9.3544	-0.0942	0.8594	-0.2063	0.5584	-0.1921	-0.2582	1.9158	0.204	9.3457	-0.2415	0.2497	0.004	0.1585	-0.9042	-0.874	8.7371	2.8543	-0.664	0.4531	1.3458	-0.1864	-1.1523	0.1869	0.705
-2.5593	1.497	9.528	-0.0307	0.7655	-0.0864	0.5524	-0.1801	-0.2402	2.1489	0.1465	9.4692	-0.0534	0.4608	0.1626	0.1605	-0.9824	-0.8352	8.9737	3.2571	-0.1911	0.4576	1.1297	-0.131	-1.2055	0.1755	0.651
-2.1013	1.3233	9.3593	0.0291	0.7017	-0.1187	0.5644	-0.1801	-0.2522	1.9824	0.4337	9.8227	-0.3027	0.3112	0.2212	0.1591	-0.9241	-0.8554	8.973	2.9701	-0.2505	0.4251	1.3147	-0.0943	-1.2057	0.2106	0.6473
-2.3301	0.9789	9.4131	-0.2543	0.6212	-0.2648	0.5644	-0.1801	-0.2702	2.2675	0.261	9.6501	-0.1482	0.3094	0.0361	0.1726	-0.8861	-0.8568	8.9144	3.2568	-0.3089	0.5803	1.1293	-0.1027	-1.1356	0.1751	0.6521
-2.5668	1.3235	9.1139	-0.3179	0.41	-0.2035	0.5644	-0.1921	-0.2702	1.8662	0.3194	9.7607	-0.426	0.3431	0.4378	0.1727	-0.8869	-0.839	8.9155	3.3144	-0.2504	0.6623	1.2229	-0.4715	-1.1711	0.1616	0.6168
-2.6209	1.2091	9.2898	-0.3092	0.533	0.0411	0.5584	-0.1741	-0.2582	2.1514	0.0895	9.5879	-0.3022	0.3418	0.2527	0.1726	-0.8861	-0.8568	8.8622	3.0856	-0.0773	0.7274	0.9453	-0.4808	-1.1352	0.2063	0.6851
-2.3893	1.2663	9.3535	-0.3391	0.6869	-0.0183	0.5464	-0.1801	-0.2642	2.2655	0.0891	9.5309	-0.3333	0.3419	0.3453	0.1575	-0.8481	-0.8406	9.0883	3.6587	-0.129	0.5319	1.1937	-0.8705	-1.1536	0.2122	0.6298
-2.3301	0.9789	9.4131	-0.3702	0.6272	0.0126	0.5464	-0.1741	-0.2642	2.3217	0.7185	9.5334	-0.0257	0.3065	0.2216	0.2015	-0.8893	-0.803	9.1425	3.2564	-0.3044	0.4392	1.4094	-0.77	-1.1882	0.1929	0.6494
-2.3847	1.1519	9.5897	-0.4394	0.3849	-0.1091	0.5584	-0.1621	-0.2702	1.9797	0.09	9.6438	-0.2419	0.2493	0.0967	0.1585	-0.9042	-0.874	8.9724	3.3716	-0.249	0.3489	1.3787	-0.7382	-1.1885	0.1949	0.6311
-2.3933	1.6108	9.1771	-0.218	0.4985	0.0082	0.5584	-0.1621	-0.2522	2.2632	0.0888	9.412	0.0359	0.3056	0.1908	0.173	-0.9053	-0.8561	9.2573	3.5433	-0.2427	0.5041	1.1011	-0.8109	-1.1718	0.2337	0.591
-2.5595	0.9794	9.4677	-0.2758	0.532	0.1318	0.5764	-0.1861	-0.2582	2.6071	-0.0839	9.3	-0.1166	0.3699	0.1299	0.1454	-0.9444	-0.819	9.0899	3.3721	-0.0717	0.535	1.4393	-0.5553	-1.1874	0.1715	0.6879
-2.7323	0.9222	9.4642	-0.2539	0.3467	-0.0833	0.5584	-0.1741	-0.2582	2.3719	0.8321	9.1783	-0.4543	0.4066	0.0682	0.1878	-0.9257	-0.8373	9.0268	3.6006	-0.3638	0.5721	1.4074	-0.2795	-1.2059	0.195	0.6308
-2.3203	1.1526	9.9454	-0.2191	0.5289	-0.0526	0.5584	-0.1741	-0.2522	2.4887	0.2023	9.1794	-0.1789	0.37	0.346	0.1308	-0.9255	-0.8021	8.5775	3.5452	-0.023	0.5721	1.4074	-0.2795	-1.1717	0.2162	0.5929
-3.1339	1.1532	9.5751	-0.3121	0.6547	-0.1412	0.5524	-0.1741	-0.2642	1.9163	0.4903	9.4057	-0.0269	0.2451	0.2205	0.1433	-0.8646	-0.8935	9.55	3.0852	0.1115	0.5148	1.2532	-0.2211	-1.1355	0.2083	0.6667
-2.2236	1.4951	9.0028	-0.1207	0.7697	0.0074	0.5464	-0.1741	-0.2702	1.8534	0.2037	9.1069	-0.1164	0.37	0.0991	0.1731	-0.9061	-0.8382	9.1452	3.0274	-0.1885	0.452	1.2844	-0.2806	-1.1361	0.1946	0.632
-2.2784	1.1505	9.1191	-0.0895	0.4939	0.1881	0.5764	-0.1741	-0.2582	2.5017	0.2608	9.8331	-0.0898	0.1845	0.2811	0.1878	-0.9257	-0.8373	9.0343	3.2003	-0.0151	0.4151	1.1624	-0.6533	-1.1183	0.1925	0.6506
-2.7395	1.2089	9.1103	-0.1541	0.7707	-0.0833	0.5704	-0.1921	-0.2522	1.746	0.3765	9.5208	-0.2104	0.3397	0.3763	0.1874	-0.9065	-0.8381	8.9783	3.258	0.0423	0.2041	1.1318	-0.5574	-1.1883	0.2105	0.6475
-3.1366	0.8078	9.3969	-0.0928	0.646	-0.0245	0.5644	-0.1861	-0.2462	2.7884	-0.0835	9.7195	-0.2093	0.3409	0.0984	0.1736	-0.926	-0.8196	9.4929	3.1426	0.1106	0.3004	0.9463	-0.4722	-1.1534	0.1771	0.6335
-2.3328	1.266	9.2956	-0.0621	0.5837	0.0049	0.5584	-0.1921	-0.2582	2.2683	-0.0824	9.6494	-0.2092	0.371	0.2225	0.1596	-0.944	-0.8368	8.7378	3.1413	-0.6046	0.3891	1.2233	-0.4044	-1.2235	0.1619	0.6159
-2.1004	1.4384	9.4187	-0.2528	0.5603	-0.1737	0.5584	-0.1681	-0.2522	1.862	0.09	9.5226	-0.0262	0.2459	0.0352	0.1582	-0.8857	-0.8569	9.6087	2.7411	0.1698	0.1784	1.3157	-0.2126	-1.1541	0.1985	0.595
-2.7982	1.1513	9.0499	-0.1844	0.5585	0.0687	0.5524	-0.1561	-0.2402	2.0315	0.0321	9.3478	-0.1811	0.2474	0.3129	0.1873	-0.9058	-0.8559	9.3703	3.4855	-0.299	-0.0914	1.4079	0.0728	-1.1538	0.1966	0.6133
-2.2751	1.2084	9.2965	-0.0652	0.7969	-0.2379	0.5704	-0.1621	-0.2462	2.1499	0.719	9.5892	-0.0249	0.3375	0.1604	0.1588	-0.9057	-0.8383	9.2548	2.969	-0.4198	0.1226	1.3766	0.0677	-1.1361	0.1946	0.632
-2.3318	1.3237	9.3548	-0.0011	0.6421	-0.0573	0.5644	-0.1741	-0.2582	2.4335	0.2027	9.297	-0.0585	0.1847	0.1267	0.1594	-0.9264	-0.8018	9.3759	3.5439	-0.007	0.1187	1.5002	-0.0212	-1.2064	0.232	0.6087
-2.5057	1.2663	9.2922	-0.154	0.6792	-0.0229	0.5464	-0.1741	-0.2582	1.863	0.1474	9.5821	0.0337	0.1529	0.0028	0.1309	-0.9424	-0.8549	9.1436	3.314	-0.2458	-0.0879	1.1306	0.034	-1.1709	0.1772	0.6332
-2.3937	1.2082	9.117	0.0031	0.6425	0.0951	0.5584	-0.1681	-0.2642	2.0242	0.0886	8.9914	0.067	0.3055	0.0982	0.1579	-0.8673	-0.8399	9.193	3.083	-0.654	-0.0918	1.1619	-0.1191	-1.1878	0.1734	0.6696
-2.2145	1.4387	9.4755	-0.0314	0.6739	-0.0564	0.5524	-0.1621	-0.2702	2.1518	-0.0822	9.5876	0.0651	0.2131	0.1583	0.159	-0.9233	-0.8733	8.8619	3.2577	-0.0767	-0.0549	1.0993	0.125	-1.1363	0.2297	0.6282
-2.3302	1.6689	9.4739	-0.0314	0.6739	-0.0564	0.5404	-0.1741	-0.2642	2.2625	0.375	9.4126	-0.1183	0.2778	0.1283	0.1587	-0.9049	-0.8562	9.2058	2.9132	-0.0127	-0.1535	1.2544	-0.0844	-1.1706	0.226	0.6643
-2.3862	1.3817	9.5311	-0.1927	0.4661	-0.1757	0.5644	-0.1621	-0.2582	2.6075	0.2596	9.3601	-0.1179	0.3082	0.1906	0.159	-0.9233	-0.8733	9.148	3.4296	-0.012	-0.12	1.0078	-0.123	-1.1357	0.1926	0.6503
-2.6793	1.6116	9.2897	-0.2479	0.4084	0.0999	0.5704	-0.1561	-0.2522	2.1494	0.4327	9.5292	-0.2399	0.3717	0.1915	0.173	-0.9053	-0.8561	9.2616	2.9703	-0.0697	-0.2787	1.1937	-0.2686	-1.1877	0.1559	0.6715
-2.4451	1.4966	9.4712	-0.1215	0.6781	0.0374	0.5644	-0.1741	-0.2642	2.1567	-0.139	9.8252	-0.2413	0.28	0.0972	0.1591	-0.9241	-0.8554	8.9221	3.4303	0.1002	0.0286	1.3157	-0.0863	-1.1708	0.2104	0.6478
-2.6799	1.324	9.2299	-0.2525	0.5299	-0.1433	0.5704	-0.1801	-0.2582	1.9183	0.147	9.4645	-0.0564	0.3372	0.3457	0.1443	-0.9045	-0.8563	9.2539	3.5427	-0.4177	0.2346	1.4086	-0.3652	-1.1886	0.2124	0.6292
-2.3919	1.4385	9.2358	-0.1777	0.8033	0.1615	0.5704	-0.1801	-0.2702	2.1474	0.2608	9.41	-0.1178	0.3084	0.1597	0.1729	-0.9046	-0.8739	9.145	3.1421	-0.1881	-0.0995	1.4092	-0.2969	-1.1714	0.2142	0.6112
-2.677	0.9793	9.3472	-0.3159	0.5323	-0.2028	0.5644	-0.1921	-0.2642	2.2673	0.3182	9.6502	-0.0249	0.3375	0.1604	0.1448	-0.9237	-0.8555	9.0901	3.2574	-0.0721	0.1499	1.2232	-0.1839	-1.1713	0.1967	0.6131
-2.3826	0.6345	9.6475	-0.2479	0.6524	-0.0512	0.5584	-0.1621	-0.2642	1.9737	0.0894	9.3467	0.037	0.3368	0.0678	0.145	-0.9413	-0.8905	9.2588	3.314	-0.1852	-0.0007	1.1002	-0.1843	-1.1533	0.2103	0.6481
-2.6163	1.1521	9.5261	-0.0304	0.735	-0.056	0.5704	-0.1801	-0.2582	2.0354	0.3759	9.5861	-0.2087	0.4016	0.2539	0.1738	-0.9437	-0.8545	8.9726	3.2569	-0.2494	-0.1218	0.9466	-0.248	-1.1189	0.1964	0.6139
-2.1631	1.1503	9.1213	-0.2452	0.7137	0.0101	0.5584	-0.1741	-0.2582	1.5189	0.3774	9.6943	0.0062	0.3373	0.0678	0.1297	-0.8856	-0.8393	8.9729	3.7734	-0.1892	-0.1519	0.9159	-0.2482	-1.1701	0.189	0.6863
-2.4419	1.5545	9.6486	-0.311	0.6243	-0.0804	0.5584	-0.1621	-0.2582	1.8566	0.8337	9.3458	-0.2112	0.2787	0.2826	0.1589	-0.9226	-0.8911	8.8028	3.1427	-0.1949	-0.0319	1.1004	-0.2145	-1.1008	0.1924	0.6509
-2.2168	1.4385	9.3573	-0.0942	0.4628	0.0355	0.5644	-0.1681	-0.2462	2.3767	0.3174	9.3555	-0.241	0.3103	0.1904	0.1886	-0.9633	-0.8536	9.3745	3.7158	-0.0647	0.1463	1.1007	-0.4339	-1.1881	0.1754	0.6513
-2.4009	1.4374	8.7629	-0.0335	0.5517	-0.057	0.5584	-0.1741	-0.2582	2.3841	0.2036	9.7118	-0.2107	0.3093	0.314	0.1876	-0.9242	-0.873	9.4333	3.3144	-0.0067	0.2098	0.9772	-0.4078	-1.2049	0.1716	0.6876
-2.3317	1.2662	9.3547	-0.2427	0.714	0.1015	0.5524	-0.1741	-0.2702	1.9195	0.1471	9.5239	-0.2083	0.4021	0.1304	0.1743	-0.9629	-0.8538	9.0297	3.9454	-0.1874	0.2064	1.07	-0.4976	-1.1874	0.1715	0.6879
-2.5603	1.4393	9.4688	-0.1208	0.6171	0.098	0.5464	-0.1861	-0.2642	2.2602	0.3175	9.2937	-0.1151	0.4615	0.2242	0.1576	-0.865	-0.8934	8.8016	3.1998	-0.2531	0.4485	1.3772	-0.3704	-1.1702	0.2065	0.6845
-2.5591	0.7494	9.4671	-0.2474	0.683	-0.0511	0.5644	-0.1681	-0.2582	2.3819	0.1461	9.5928	-0.3622	0.4047	0.1301	0.1745	-0.9644	-0.818	9.2525	2.9686	-0.5365	0.3263	1.2545	-0.4639	-1.1532	0.1927	0.65
-2.4463	0.8639	9.3515	-0.3132	0.5936	-0.1415	0.5464	-0.1801	-0.2642	2.0354	0.3759	9.5861	-0.2421	0.2491	0.1584	0.1727	-0.8869	-0.839	8.9695	3.7728	-0.3643	0.3575	1.2543	-0.4337	-1.1355	0.2083	0.6667
-2.5623	1.3241	9.3503	-0.0117	0.4579	-0.3326	0.5464	-0.1801	-0.2582	2.4873	0.3166	9.1202	-0.0868	0.3381	0.253	0.159	-0.9233	-0.8733	9.2509	3.2552	-0.5939	0.4426	1.3166	-0.6802	-1.1882	0.1929	0.6494
-2.6185	1.1518	9.4079	-0.3774	0.5959	-0.2314	0.5584	-0.1681	-0.2522	2.1442	0.604	9.2919	0.0044	0.2453	0.0662	0.1578	-0.8665	-0.8577	9.1973	3.2559	-0.4199	0.3498	1.1325	-0.8686	-1.2234	0.1951	0.6305
-2.5067	1.1512	9.2328	-0.1589	0.5871	-0.1453	0.5524	-0.1741	-0.2522	1.977	0.2042	9.5252	0.2482	0.1482	0.2502	0.1869	-0.8866	-0.8567	9.4198	3.1972	-0.7073	0.1775	1.0083	-0.468	-1.1703	0.1733	0.6699
-2.564	0.9788	9.2313	-0.2242	0.5283	-0.2356	0.5644	-0.1801	-0.2642	2.6085	0.3169	9.4196	-0.2406	0.3409	0.2219	0.1433	-0.8646	-0.8935	8.8079	3.5452	0.0983	0.0559	0.9777	-0.4664	-1.1874	0.1715	0.6879
-3.0241	1.0948	9.2817	-0.1338	0.4937	-0.299	0.5584	-0.1741	-0.2582	2.1518	0.433	9.6481	-0.2099	0.3402	0.2528	0.1591	-0.9241	-0.8554	8.859	2.9703	-0.2528	0.2399	0.8234	-0.5361	-1.1704	0.1909	0.668
-2.7403	1.0362	9.0507	-0.2793	0.6231	-0.0506	0.5524	-0.1621	-0.2582	2.3847	-0.0253	9.7113	-0.3358	0.1289	-0.0909	0.1735	-0.9253	-0.8374	9.3763	3.3145	-0.0078	0.2665	0.8546	-0.6899	-1.1533	0.2103	0.6481
-2.4478	1.0938	9.2929	-0.0317	0.7044	-0.0867	0.5644	-0.1681	-0.2642	1.9754	0.3758	9.4661	0.0674	0.3359	0.1605	0.1581	-0.885	-0.8748	9.3726	3.4859	-0.1822	0.1183	0.9774	-0.406	-1.2234	0.1951	0.6305
-2.5114	0.6906	8.9362	-0.0901	0.7073	0.0368	0.5584	-0.1681	-0.2582	2.381	0.0316	9.5331	-0.2105	0.2795	0.0973	0.1295	-0.8841	-0.875	8.9789	3.6023	0.102	0.1747	1.101	-0.5269	-1.188	0.1578	0.6531
-2.51	1.1508	9.0555	-0.3693	0.6273	0.0431	0.5584	-0.1861	-0.2642	2.0353	0.4331	9.5863	-0.1462	0.4017	-0.024	0.1739	-0.9445	-0.8367	8.8587	3.1424	-0.2521	0.0079	1.3804	-0.978	-1.1709	0.2279	0.646
-2.5169	1.2075	8.701	-0.2463	0.7441	-0.0507	0.5644	-0.1561	-0.2522	1.6286	0.2621	9.3993	-0.241	0.3103	0.1904	0.1453	-0.9436	-0.8369	8.9205	3.717	0.0429	-0.3517	1.3188	-0.7259	-1.1878	0.1734	0.6696
-2.5667	1.266	9.1138	-0.182	0.6503	0.0997	0.5584	-0.1681	-0.2642	2.3257	0.0319	9.6508	-0.2075	0.4631	0.2241	0.1438	-0.8845	-0.8749	9.369	2.8541	-0.418	0.0432	1.4718	-0.6986	-1.1884	0.1773	0.633
-2.7374	1.2666	9.2286	-0.0596	0.584	0.0963	0.5584	-0.1741	-0.2522	1.5191	0.3201	9.6942	-0.2073	0.4632	0.1932	0.1436	-0.8669	-0.84	9.3188	3.6014	-0.0079	0.0712	1.5952	-0.7265	-1.2228	0.2419	0.6799
-2.566	0.8636	9.1128	-0.2478	0.5609	0.0093	0.5644	-0.1741	-0.2582	2.6662	0.3168	9.4208	-0.1177	0.3385	0.2838	0.1297	-0.8856	-0.8393	8.9739	3.1424	-0.1915	0.2908	1.2246	-0.7107	-1.2055	0.1755	0.651
-2.5008	1.0369	9.5281	0.0237	0.5791	-0.2413	0.5464	-0.1621	-0.2522	1.9804	0.2618	9.7036	-0.0873	0.3076	0.2215	0.1297	-0.8856	-0.8393	9.088	3.1422	-0.1892	0.2976	1.2236	-0.4026	-1.1177	0.1887	0.6872
-2.5601	1.3244	9.4685	-0.4988	0.5708	-0.1371	0.5644	-0.1741	-0.2522	2.1555	0.3761	9.8262	0.19	0.3333	0.2842	0.1444	-0.9052	-0.8384	9.2036	3.6014	-0.0685	0.2571	1.3482	-0.7681	-1.1188	0.2296	0.6285
-2.5621	1.2091	9.35	-0.0699	0.7659	-0.3905	0.5404	-0.1801	-0.2402	2.3207	0.6039	9.4737	0.4319	0.084	0.1876	0.1861	-0.849	-0.8404	9.3648	3.3698	-0.5912	0.3202	1.2555	-0.7412	-1.1365	0.214	0.6118
-2.5085	0.921	9.114	0.1137	0.4224	-0.2444	0.5704	-0.1861	-0.2702	2.0305	0.4327	9.3486	-0.0596	0.1234	0.0948	0.1449	-0.9244	-0.8377	8.9704	3.1991	-0.3664	0.2653	1.2547	-0.4627	-1.1189	0.1964	0.6139
-2.3362	1.2656	9.1183	-0.1931	0.5881	-0.2665	0.5464	-0.1621	-0.2642	2.2708	0.3758	9.8286	0.033	0.1521	0.1881	0.1441	-0.903	-0.892	9.1487	2.9707	-0.0136	0.4542	1.038	-0.3493	-1.1536	0.2122	0.6298
-2.152	1.2092	9.7125	-0.0957	0.5237	-0.0557	0.5584	-0.1801	-0.2582	2.1427	0.2603	9.1723	0.1872	0.18	0.2506	0.1589	-0.9064	-0.8205	8.8065	3.7171	0.0406	0.363	1.0689	-0.3158	-1.1526	0.1889	0.6866
-2.3859	1.2092	9.5307	-0.097	0.6456	-0.177	0.5404	-0.1861	-0.2702	2.0956	0.3188	9.7061	0.0954	0.2121	0.2819	0.1298	-0.9025	-0.8921	9.3801	3.0857	0.1664	0.4222	1.0998	-0.3778	-1.1704	0.1909	0.668
-2.4985	0.9797	9.6461	-0.0712	0.4912	-0.27	0.5704	-0.1681	-0.2702	2.3848	-0.0825	9.7112	-0.3033	0.2805	0.2207	0.1867	-0.8689	-0.8218	9.2661	3.0285	0.1639	0.5114	1.0692	-0.5037	-1.2058	0.1774	0.6327
-2.3268	1.0368	9.5905	-0.0608	0.8584	-0.1156	0.5464	-0.1861	-0.2462	2.0357	0.2614	9.5859	0.13	0.3661	0.0376	0.1453	-0.9436	-0.8369	9.3189	2.7981	-0.0692	0.0609	1.0077	-0.219	-1.171	0.2455	0.6441
-2.4487	0.9786	9.2335	0.0271	0.732	-0.21	0.5584	-0.1861	-0.2642	2.3873	-0.1395	9.8299	-0.0561	0.3076	0.098	0.2022	-0.9261	-0.8372	8.9143	3.3142	-0.3087	0.1816	1.0076	-0.2831	-1.1353	0.1732	0.6705
-2.3903	1.7837	9.3548	-0.0649	0.5224	-0.0564	0.5584	-0.1561	-0.2522	2.439	0.3749	9.5945	0.0962	0.243	0.2207	0.1731	-0.9061	-0.8382	9.3207	3.1427	0.0488	0.3049	1.0994	-0.1597	-1.1883	0.2105	0.6475
-2.1076	1.0925	9.0041	-0.2803	0.562	-0.051	0.5524	-0.1621	-0.2582	2.151	0.2612	9.5883	-0.2676	0.5258	0.1633	0.201	-0.8693	-0.8216	9.0295	3.3142	-0.2481	0.5091	1.3156	-0.435	-1.1534	0.2278	0.6463
-2.3905	1.2661	9.2944	-0.0623	0.6752	-0.0556	0.5524	-0.1621	-0.2522	2.0944	0.3186	9.6466	-0.207	0.4636	0.1006	0.1871	-0.9042	-0.8917	9.3738	3.4288	-0.1241	0.4836	1.3457	-0.187	-1.1018	0.2158	0.594
-2.3838	1.3245	9.6492	-0.2775	0.5318	0.0708	0.5464	-0.1681	-0.2582	2.2701	0.1468	9.7687	-0.0266	0.3055	0.4687	0.159	-0.9233	-0.8733	9.3148	3.2564	-0.2426	0.4488	1.2234	-0.4672	-1.153	0.2084	0.6665
-2.335	1.2083	9.1772	-0.2205	0.4982	-0.0833	0.5584	-0.1741	-0.2462	2.3905	0.4904	10.0689	0.1909	0.3343	0.0372	0.1582	-0.8857	-0.8569	8.9766	3.6019	-0.0148	0.4176	1.5004	-0.3046	-1.2055	0.1755	0.651
-2.4476	0.9788	9.2926	-0.2794	0.7146	-0.1111	0.5524	-0.1681	-0.2582	1.8048	0.3764	9.5814	-0.1498	0.2475	0.1586	0.1733	-0.9238	-0.8732	9.1448	3.2569	-0.1876	0.6352	1.2224	-0.3169	-1.1703	0.1733	0.6699
-2.1564	1.1512	9.476	0.003	0.734	0.0347	0.5644	-0.1681	-0.2762	1.9244	0.0904	9.7614	0.0327	0.1518	0.2807	0.1169	-0.9443	-0.8014	8.6879	3.6591	-0.1953	0.5401	1.1002	-0.5651	-1.1531	0.1752	0.6519
-2.2711	1.4965	9.5337	-0.1518	0.7099	0.0383	0.5764	-0.1801	-0.2762	2.5546	0.2602	9.5966	-0.0277	0.2142	0.2817	0.1442	-0.9037	-0.8741	9.0302	3.6012	-0.1887	0.3587	1.1311	-0.4681	-1.1362	0.2121	0.6301
-2.3348	1.0933	9.1769	-0.3695	0.5662	0.0733	0.5524	-0.1681	-0.2522	1.8078	0.6057	9.7601	-0.0904	0.1238	0.1256	0.1886	-0.9633	-0.8536	9.1525	3.4878	0.2217	0.2612	1.163	-0.7118	-1.1886	0.1617	0.6165
-2.4509	0.9209	9.1152	-0.1828	0.8027	-0.0214	0.5704	-0.1681	-0.2642	2.0296	0.3181	9.2889	-0.3944	0.3435	0.2216	0.1448	-0.9237	-0.8555	8.6923	3.0287	-0.0226	0.6302	1.1924	-0.5642	-1.1882	0.1929	0.6494
-2.5618	1.0366	9.3496	-0.3776	0.5349	-0.2013	0.5644	-0.1621	-0.2522	2.0337	0.0895	9.4667	-0.2751	0.157	0.2803	0.1281	-0.8258	-0.8952	8.6886	3.2576	-0.1968	0.3523	1.2859	-0.6485	-1.1896	0.2358	0.5724
-2.7411	1.4387	9.0517	-0.0688	0.583	-0.239	0.5704	-0.1741	-0.2582	2.4409	0.0889	9.6533	0.0062	0.3674	0.2228	0.1307	-0.9417	-0.8727	8.5718	3.4868	-0.315	0.4756	1.5622	-0.3965	-1.1534	0.2278	0.6463
-1.9846	1.1507	9.4202	-0.3397	0.7479	-0.079	0.5584	-0.1681	-0.2522	1.8636	-0.0815	9.5816	-0.1774	0.4017	0.0995	0.1726	-0.8861	-0.8568	8.9725	3.3143	-0.2492	0.3254	1.3162	-0.4621	-1.136	0.2453	0.6447
-2.7346	0.9794	9.3461	-0.3715	0.5965	-0.018	0.5584	-0.1621	-0.2702	1.6253	0.1472	9.2208	-0.3308	0.4049	-0.0242	0.1726	-0.8861	-0.8568	8.9726	3.2569	-0.2494	0.81	1.4078	-0.5617	-1.2064	0.232	0.6087
-2.3339	1.2084	9.2363	-0.3163	0.4102	-0.1425	0.5584	-0.1861	-0.2402	2.2092	0.0321	9.589	-0.024	0.3686	0.0683	0.1446	-0.9229	-0.8734	9.0913	3.2002	-0.0139	0.7176	1.3774	-0.6223	-1.2055	0.2262	0.6637
-2.0979	1.3237	9.5366	-0.2803	0.562	-0.051	0.5584	-0.1681	-0.2582	2.2111	-0.2539	9.6478	-0.1187	0.2773	0.2518	0.1449	-0.9244	-0.8377	9.0899	3.3721	-0.0717	0.7469	1.316	-0.7172	-1.1534	0.2278	0.6463
-2.3316	1.2087	9.3545	-0.3749	0.5962	-0.14	0.5464	-0.1861	-0.2642	2.4963	0.4892	9.5959	0.0042	0.245	0.1279	0.1578	-0.8665	-0.8577	8.9743	3.6015	-0.1315	0.9286	1.3157	-0.7825	-1.1702	0.2065	0.6845
-2.6242	1.1512	9.1124	-0.1846	0.7415	-0.0523	0.5644	-0.1621	-0.2642	2.2722	-0.1965	9.8274	0.3418	0.2082	0.2205	0.1866	-0.8851	-0.8924	9.3762	3.3718	-0.0076	0.9978	1.222	-0.4783	-1.1886	0.2124	0.6292
-2.3328	1.266	9.2956	-0.2167	0.6206	-0.0217	0.5584	-0.1621	-0.2702	1.6393	0.2631	9.9341	0.0006	0.0607	0.1555	0.1457	-0.9628	-0.8361	8.9735	3.3718	-0.1907	0.6052	1.0994	-0.3814	-1.2061	0.1793	0.6143
-2.0946	1.3241	9.7139	0.0917	0.6992	-0.0897	0.5524	-0.1621	-0.2462	2.381	0.0316	9.5331	0.1573	0.1814	0.0344	0.1743	-0.9629	-0.8538	8.9167	3.2572	-0.1922	0.818	1.0067	-0.4808	-1.1713	0.2474	0.6258
-2.5572	0.9797	9.5859	-0.1886	0.558	-0.0837	0.5584	-0.1861	-0.2582	2.3226	0.3179	9.5325	-0.1215	0.1239	0.2182	0.1727	-0.8869	-0.839	8.9724	3.3716	-0.249	0.4538	1.4379	-0.0913	-1.1701	0.189	0.6863
-2.2743	1.3811	9.3561	-0.0934	0.707	-0.0852	0.5644	-0.1801	-0.2642	2.2019	0.6038	9.2931	0.2193	0.2409	0.2209	0.1597	-0.9448	-0.8189	9.1445	3.4863	-0.1868	0.8182	1.4065	-0.192	-1.1874	0.1715	0.6879
-2.499	1.2672	9.6468	-0.2824	0.6838	-0.2027	0.5524	-0.1741	-0.2462	1.8599	-0.0246	9.4035	-0.2119	0.2479	0.3129	0.158	-0.8681	-0.822	9.0342	3.2577	-0.0149	0.7292	1.4679	-0.0343	-1.1535	0.1947	0.6317
-2.684	1.151	8.993	0.0302	0.5188	0.0328	0.5644	-0.1741	-0.2702	2.0946	-0.2538	9.5861	0.0326	0.1817	0.4666	0.145	-0.9413	-0.8905	8.6395	3.2591	0.2106	0.6079	1.3758	-0.0653	-1.1703	0.1733	0.6699
-2.6254	1.2085	9.0534	-0.4054	0.567	-0.1089	0.5704	-0.1621	-0.2582	2.3135	0.1452	9.0568	-0.3324	0.373	0.2532	0.1589	-0.9064	-0.8205	9.544	3.3136	-0.1794	0.8851	1.0056	-0.2048	-1.1889	0.2143	0.6109
-2.8409	0.9807	9.8167	-0.2562	0.4074	-0.205	0.5584	-0.1741	-0.2582	2.0385	0.09	9.7044	-0.0225	0.4303	-0.0232	0.1868	-0.8858	-0.8746	8.9765	3.6593	-0.0146	1.1821	1.4982	-0.2275	-1.1701	0.189	0.6863
-2.7924	1.6696	9.4058	-0.1882	0.6801	-0.144	0.5524	-0.1621	-0.2582	1.9778	0.376	9.585	-0.0901	0.1542	0.1879	0.1872	-0.905	-0.8738	9.0355	3.1431	0.0431	1.2454	1.4362	-0.1688	-1.1873	0.154	0.6898
-2.442	0.9795	9.5881	-0.2438	0.7444	0.0407	0.5584	-0.1741	-0.2642	2.037	0.2043	9.6452	0.1904	0.3337	0.1916	0.1443	-0.9045	-0.8563	9.3711	3.7152	-0.2398	1.4252	1.6515	-0.1663	-1.2057	0.1599	0.6345
-2.3375	0.7479	8.9988	0.0544	0.5168	-0.2119	0.5524	-0.1741	-0.2522	2.1541	0.4332	9.7669	0.0641	0.1821	0.2504	0.1734	-0.9245	-0.8553	9.029	3.6584	-0.2468	1.1564	1.4053	-0.0755	-1.135	0.1712	0.6888
-2.621	1.2666	9.2899	-0.0359	0.7039	-0.2391	0.5704	-0.1801	-0.2402	2.3253	0.2036	9.6511	-0.1796	0.3091	0.2214	0.1572	-0.8458	-0.8942	9.3729	3.3139	-0.1829	1.3086	1.651	0.0826	-1.171	0.1948	0.6314
-2.5632	1.1515	9.2908	-0.037	0.4903	-0.1488	0.5524	-0.1801	-0.2462	2.0378	0.3761	9.705	-0.0557	0.308	0.0054	0.1438	-0.8845	-0.8749	8.9192	3.1429	-0.0759	0.8876	1.4358	0.2082	-1.1355	0.1575	0.654
-2.6768	0.8643	9.347	-0.1925	0.3746	-0.1152	0.5524	-0.1621	-0.2522	2.2047	0.4324	9.4116	-0.0873	0.2475	-0.0884	0.1153	-0.8844	-0.8573	8.9735	3.3718	-0.1907	0.8304	1.3123	0.2983	-1.2059	0.1442	0.6181
-2.6207	1.0941	9.2895	-0.2162	0.6512	-0.0215	0.5584	-0.1681	-0.2522	2.2626	0.3178	9.4125	-0.0554	0.3384	0.0677	0.1585	-0.8872	-0.8212	9.2539	3.4853	-0.418	0.9156	1.1901	-0.0768	-1.2054	0.1579	0.6529
-2.5485	1.0958	10.059	-0.1852	0.7109	-0.0524	0.5464	-0.1741	-0.2642	2.0414	0.3765	9.8832	0.0031	0.1537	-0.059	0.1868	-0.8858	-0.8746	8.6884	3.3723	-0.1964	1.1307	1.0355	-0.1163	-1.171	0.1948	0.6314
-2.7341	1.3245	9.4061	-0.3436	0.4729	-0.0499	0.5524	-0.1801	-0.2582	2.2068	0.0319	9.4702	0.0345	0.2139	0.0965	0.1448	-0.9237	-0.8555	8.7458	3.1428	-0.1961	1.1284	1.0051	-0.2405	-1.171	0.1948	0.6314
-2.5657	1.3237	9.173	-0.246	0.4696	0.1307	0.5584	-0.1681	-0.2642	2.2105	0.4902	9.7088	-0.1762	0.4631	0.1006	0.1579	-0.8673	-0.8399	9.157	3.4886	0.4551	1.2181	1.1282	-0.2387	-1.1706	0.1753	0.6516
-2.6216	0.9789	9.2302	-0.4348	0.5074	-0.017	0.5584	-0.1741	-0.2642	2.1564	-0.0245	9.8254	-0.2068	0.4639	0.0388	0.1433	-0.8484	-0.8229	8.798	3.2566	-0.4279	1.3125	1.2505	-0.0214	-1.1353	0.2239	0.6832
-2.3906	1.3236	9.2946	-0.1876	0.4666	0.0072	0.5584	-0.1741	-0.2702	2.6132	-0.1406	9.597	0.0074	0.3987	0.0689	0.2155	-0.8874	-0.8565	9.5469	3.601	-0.0033	1.1846	1.4671	-0.1359	-1.1881	0.2261	0.664
-2.4482	1.3237	9.2935	-0.2775	0.7758	-0.0803	0.5644	-0.1681	-0.2882	2.3323	0.2616	10.0078	-0.2093	0.3409	0.0984	0.1446	-0.9229	-0.8734	9.2623	3.2573	-0.0103	1.0722	1.3736	0.2336	-1.1718	0.183	0.5783
-2.512	1.6106	8.9975	-0.1338	0.4937	-0.299	0.5644	-0.1801	-0.2642	2.3792	0.2604	9.4742	0.2833	0.3328	0.0373	0.1297	-0.8856	-0.8393	9.2063	3.315	0.0471	1.0435	1.1581	0.1663	-1.1707	0.1928	0.6497
-2.6785	1.2092	9.2887	-0.4656	0.6613	-0.1069	0.5644	-0.1801	-0.2522	2.1507	0.3756	9.5885	0.0052	0.2762	0.0049	0.1873	-0.9058	-0.8559	8.5224	3.0292	0.0324	0.7679	1.282	0.2062	-1.1529	0.1401	0.6556
-2.5588	1.2095	9.5274	-0.5568	0.6958	-0.074	0.5644	-0.1681	-0.2642	2.2652	0.7187	9.5916	-0.0554	0.3384	0.0677	0.1596	-0.944	-0.8368	9.2561	3.6004	-0.3008	0.7374	1.0975	0.0782	-1.1713	0.1967	0.6131
-2.6797	1.209	9.2296	-0.6209	0.6066	-0.1034	0.5644	-0.1801	-0.2582	1.5746	0.2053	9.5763	-0.1124	0.5548	-0.0521	0.1881	-0.9441	-0.8544	9.3695	3.2559	-0.3581	0.5869	1.1898	0.238	-1.1357	0.2434	0.663
-2.1118	0.9194	8.7673	-0.6244	0.3012	-0.0441	0.5584	-0.1741	-0.2582	2.6146	0.2603	9.7166	-0.2377	0.4943	0.2246	0.1593	-0.9418	-0.8904	9.3237	3.3728	0.2247	0.7922	1.1906	-0.136	-1.1708	0.1597	0.6351
-2.2124	1.4965	9.5939	-0.5875	0.6056	-0.0127	0.5524	-0.1681	-0.2582	1.7526	0.0909	9.8173	-0.3027	0.3413	0.3762	0.131	-0.9432	-0.837	9.1447	3.3142	-0.1874	0.9424	1.5289	-0.006	-1.2232	0.2107	0.647
-2.6189	1.3243	9.4083	-0.5568	0.5432	0.0167	0.5704	-0.1621	-0.2582	2.0282	-0.0828	9.1693	-0.2083	0.4021	0.1304	0.1444	-0.9214	-0.9091	8.9778	3.5448	0.0434	1.0674	1.4666	0.0822	-1.1713	0.2474	0.6258
-2.2771	1.0932	9.1781	-0.2801	0.623	-0.0811	0.5524	-0.1801	-0.2522	2.4411	0.4896	9.7135	0.0069	0.3982	0.1924	0.1588	-0.9057	-0.8383	9.0282	2.6828	-0.3671	1.1218	1.4983	-0.1954	-1.136	0.177	0.6338
-2.5632	1.1515	9.2908	0.2121	0.6632	-0.1844	0.5584	-0.1681	-0.2522	2.3179	0.3174	9.2949	-0.2419	0.2493	0.0967	0.1436	-0.883	-0.9106	9.3688	2.9688	-0.4175	1.6721	1.589	-0.0805	-1.1531	0.1752	0.6519
-3.2034	0.9218	8.9233	0.2758	0.6303	-0.0946	0.5644	-0.1681	-0.2702	2.2636	0.3751	9.472	-0.1511	0.1559	0.0334	0.159	-0.9233	-0.8733	9.0924	3.2578	0.0446	1.6073	1.6205	-0.2325	-1.2054	0.1579	0.6529
-2.2195	1.0931	9.1792	0.0871	0.5767	-0.1818	0.5644	-0.1621	-0.2582	2.3755	0.8324	9.3565	-0.1513	0.1557	0.0952	0.187	-0.8873	-0.8389	8.6923	3.0861	-0.0223	1.488	1.6204	-0.1068	-1.1697	0.1188	0.6938
-2.446	1.324	9.4117	-0.3432	0.595	-0.1103	0.5524	-0.1681	-0.2582	2.322	0.0888	9.4727	-0.0307	0.0606	0.3099	0.1739	-0.9276	-0.7839	8.974	3.085	-0.1917	1.7652	1.4347	-0.1176	-1.1352	0.1556	0.6723
-2.2732	1.3812	9.4152	-0.1275	0.6164	-0.1459	0.5644	-0.1741	-0.2582	2.0876	-0.3117	9.2294	0.0664	0.2447	-0.0573	0.1593	-0.9256	-0.8197	9.2018	3.3141	-0.1863	2.0386	1.6495	-0.0245	-1.2054	0.2086	0.6656
-2.796	1.2091	9.1682	0.6162	0.6773	-0.1026	0.5584	-0.1741	-0.2522	2.3868	0.0894	9.8304	-0.0599	0.123	0.1874	0.1727	-0.8869	-0.839	8.7429	3.4865	-0.3115	1.544	1.7748	-0.2268	-1.1702	0.2065	0.6845
-2.625	0.9785	9.0528	-0.301	0.8695	0.1343	0.5584	-0.1621	-0.2522	2.1638	0.3769	10.2421	0.1862	0.1487	0.3736	0.1597	-0.9448	-0.8189	9.3147	3.3137	-0.2424	1.6314	1.7752	-0.4135	-1.1352	0.2063	0.6851
-2.2806	1.1503	9.0009	0.0304	0.5798	0.0026	0.5524	-0.1681	-0.2642	2.4973	0.0886	9.5951	0.0938	0.1502	0.4043	0.1875	-0.9073	-0.8202	9.0876	3.3717	-0.1884	2.0047	1.6501	-0.1779	-1.1542	0.2161	0.5932
-2.6819	1.2087	9.1114	-0.3753	0.4741	-0.0797	0.5704	-0.1681	-0.2582	2.2075	0.2609	9.53	-0.1787	0.3402	0.1293	0.1873	-0.9058	-0.8559	9.2574	2.74	-0.3039	2.0333	1.7734	-0.175	-1.1354	0.1907	0.6686
-2.7413	1.5537	9.052	-0.2729	0.6543	0.1629	0.5584	-0.1741	-0.2522	2.1532	0.3186	9.7072	-0.0543	0.3996	0.0997	0.1873	-0.9058	-0.8559	9.0912	3.2576	-0.0137	2.5871	1.8635	0.094	-1.1706	0.226	0.6643
-2.0452	1.553	9.3019	-0.2803	0.562	-0.051	0.5524	-0.1801	-0.2462	1.6892	0.4912	9.5792	-0.1769	0.4323	0.1309	0.2017	-0.9069	-0.838	8.9836	3.4884	0.335	2.5144	2.3269	-0.1071	-1.1719	0.2513	0.5891
-2.4466	1.0364	9.3519	-0.0603	0.4924	0.1263	0.5584	-0.1861	-0.2702	1.9715	0.032	9.2277	-0.484	0.4984	0.2551	0.1155	-0.886	-0.8216	9.0955	3.4305	0.2203	2.8383	2.7892	-0.3162	-1.1701	0.189	0.6863
-2.444	0.8642	9.4697	-0.0651	0.4614	-0.0263	0.5704	-0.1741	-0.2582	2.3281	0.4901	9.83	-0.2082	0.4323	0.2544	0.1309	-0.9424	-0.8549	9.2012	3.6583	-0.185	2.7823	2.6348	-0.1962	-1.1709	0.2279	0.646
-2.507	1.3237	9.2332	-0.1542	0.6181	0.0073	0.5524	-0.1981	-0.2702	2.2606	0.1458	9.2933	-0.268	0.4954	0.101	0.159	-0.9233	-0.8733	9.2591	3.1419	-0.1858	2.4835	2.2655	-0.1699	-1.1708	0.2104	0.6478
-2.4483	1.3812	9.2936	0.1203	0.5146	-0.061	0.5584	-0.1861	-0.2642	2.4369	-0.255	9.4149	-0.0566	0.2769	0.0975	0.1732	-0.9069	-0.8203	9.2068	3.0281	0.0461	1.9643	2.1746	-0.2546	-1.1532	0.1927	0.65
-2.5041	1.6116	9.4112	-0.4589	0.662	0.137	0.5584	-0.1801	-0.2702	2.0327	0.0322	9.4072	0.0043	0.2752	0.252	0.1579	-0.8673	-0.8399	8.6863	3.2572	-0.3135	1.6664	1.6514	-0.2944	-1.1709	0.2279	0.646
-2.3344	1.4959	9.237	0.1566	0.636	0.0609	0.5524	-0.1681	-0.2522	1.8072	0.3767	9.7002	-0.0584	0.2148	0.2508	0.1443	-0.9045	-0.8563	9.3762	3.3718	-0.0076	1.3963	1.5899	-0.1366	-1.1883	0.1598	0.6348
-2.2713	0.9789	9.4733	-0.4653	0.4782	0.0141	0.5464	-0.1741	-0.2522	2.0316	-0.0252	9.3476	-0.0877	0.277	0.1901	0.2022	-0.943	-0.89	8.8566	3.0272	-0.3693	1.4639	1.4656	0.0742	-1.1712	0.1791	0.6149
-2.5082	1.3811	9.1743	-0.0322	0.6738	-0.0869	0.5584	-0.1621	-0.2762	1.7941	-0.0825	8.9863	-0.4551	0.3456	-0.0255	0.1734	-0.9245	-0.8553	9.3681	3.4278	-0.4159	1.1814	1.6829	-0.1297	-1.1532	0.1927	0.65
-2.3359	1.0931	9.1178	0.0275	0.4575	-0.0285	0.5584	-0.1861	-0.2462	2.3783	0.661	9.475	-0.3335	0.3118	0.2212	0.1442	-0.8876	-0.8035	8.7399	3.2564	-0.4874	1.0373	1.5281	0.1462	-1.1881	0.1754	0.6513
-2.506	1.4388	9.2926	-0.0021	0.5809	-0.0576	0.5764	-0.1801	-0.2462	2.2705	0.4903	9.8288	-0.3293	0.4967	0.0392	0.1589	-0.9064	-0.8205	9.2575	3.4286	-0.2431	1.221	1.5276	0.1733	-1.2054	0.2086	0.6656
-2.6781	0.9792	9.2881	0.0007	0.5507	0.0642	0.5584	-0.1621	-0.2642	2.6779	0.3752	10.0151	-0.2701	0.3729	0.0371	0.2026	-0.9453	-0.8364	8.9155	3.3144	-0.2504	1.2456	1.9283	0.1843	-1.171	0.1948	0.6314
-2.5632	1.1515	9.2908	0.1189	0.484	-0.0916	0.5464	-0.1681	-0.2462	2.3725	0.6032	9.1778	-0.1759	0.4935	0.1629	0.1727	-0.8869	-0.839	8.86	3.0278	-0.1942	1.15	1.9291	0.0013	-1.1529	0.1401	0.6556
-2.6136	1.4975	9.7042	-0.1861	0.5583	0.0077	0.5584	-0.1801	-0.2582	2.1513	0.1467	9.5881	-0.3029	0.311	0.283	0.1731	-0.9061	-0.8382	8.974	3.085	-0.1917	0.8782	1.8371	0.0657	-1.1706	0.226	0.6643
-2.3898	1.4963	9.3541	0.0279	0.5796	-0.0889	0.5464	-0.1621	-0.2822	2.3207	-0.3692	9.3529	-0.1179	0.3082	0.1906	0.1576	-0.865	-0.8934	8.9795	3.2008	0.1005	0.7922	1.5597	0.1212	-1.1711	0.2123	0.6295
-2.6164	1.2096	9.5262	-0.1279	0.4943	-0.0856	0.5584	-0.1681	-0.2642	2.3164	0.4317	9.2357	-0.3619	0.405	0.0684	0.1729	-0.9046	-0.8739	8.6855	3.0275	-0.3727	0.8575	1.5896	0.3365	-1.1706	0.226	0.6643
-1.9858	1.2081	9.3613	0.1194	0.5146	-0.0915	0.5404	-0.1801	-0.2702	2.149	0.0892	9.4691	-0.0273	0.2446	0.3441	0.1871	-0.8881	-0.821	9.0967	3.3733	0.2785	1.0423	1.5581	0.3935	-1.1525	0.1713	0.6885
-2.2166	1.3235	9.3571	-0.2531	0.5908	-0.204	0.5584	-0.1681	-0.2702	2.198	0.26	9.0547	-0.3633	0.3734	0.284	0.144	-0.8861	-0.8392	9.1449	3.1995	-0.1879	0.9777	1.5281	0.209	-1.1713	0.2474	0.6258
-2.4992	0.7496	9.5865	-0.1257	0.5251	-0.0244	0.5524	-0.1681	-0.2522	2.0369	-0.2536	9.5849	-0.3032	0.2807	0.1898	0.1443	-0.9045	-0.8563	9.1946	3.485	-0.5358	1.183	1.6211	-0.1007	-1.1704	0.1402	0.6553
-2.6254	1.2085	9.0534	-0.1563	0.4959	0.0067	0.5584	-0.1861	-0.2702	2.2636	0.3751	9.472	-0.2097	0.3405	0.191	0.1453	-0.9436	-0.8369	9.3693	3.3706	-0.3577	1.0257	1.6222	-0.3133	-1.1705	0.2084	0.6662
-2.6291	1.3806	8.8765	-0.3734	0.5353	-0.0489	0.5644	-0.1861	-0.2702	1.8121	-0.1953	9.8773	-0.2398	0.3718	0.1606	0.1582	-0.8857	-0.8569	8.9734	3.4866	-0.1902	0.8687	1.6541	-0.4942	-1.1532	0.1927	0.65
-2.7979	0.9788	9.0495	-0.4689	0.4168	-0.0777	0.5464	-0.1801	-0.2522	2.3838	0.3181	9.712	-0.1183	0.2778	0.1283	0.1745	-0.9644	-0.818	8.9701	3.3712	-0.3657	0.962	1.5305	-0.4996	-1.1529	0.1908	0.6683
-2.6777	1.3818	9.3482	-0.4935	0.5408	0.0761	0.5644	-0.1561	-0.2702	1.9212	-0.0817	9.5828	-0.21	0.3101	0.1287	0.1739	-0.9445	-0.8367	9.196	3.3705	-0.4779	1.0601	1.2217	-0.4179	-1.17	0.1714	0.6882
-2.3911	0.9785	9.2346	-0.6502	0.547	-0.0115	0.5524	-0.1801	-0.2582	2.1505	-0.0251	9.5283	0.4965	0.2365	0.1595	0.2172	-0.9642	-0.8534	9.0303	3.5438	-0.1889	1.1803	1.437	-0.3525	-1.1884	0.1773	0.633
-2.274	1.2086	9.3557	0.0008	0.7033	-0.0265	0.5644	-0.1561	-0.2582	2.4383	0.6611	9.595	-0.2714	0.3114	0.0669	0.1731	-0.9061	-0.8382	9.2594	2.9125	-0.1866	1.3904	1.6215	-0.3822	-1.1534	0.2278	0.6463
-2.5685	0.9783	8.9949	-0.2159	0.6207	0.0088	0.5464	-0.1621	-0.2522	2.4371	0.661	9.5356	0.3434	0.2701	0.0981	0.1732	-0.923	-0.891	8.9712	3.4288	-0.3072	1.4876	1.4666	-0.2345	-1.136	0.177	0.6338
-2.2177	1.3233	9.298	-0.437	0.4767	-0.0781	0.5644	-0.1441	-0.2462	2.317	0.2028	9.2352	0.0055	0.3366	0.2531	0.1879	-0.9265	-0.8195	9.2018	3.3141	-0.1863	1.6416	1.589	-0.0799	-1.1885	0.1949	0.6311
-2.2108	1.2667	9.6524	-0.402	0.7199	-0.0776	0.5584	-0.1801	-0.2702	2.2635	0.4323	9.4722	0.0382	0.4282	0.2239	0.1583	-0.8865	-0.8391	8.9207	2.9137	-0.0184	1.6446	1.4348	-0.0536	-1.1707	0.1928	0.6497
-2.2701	0.9215	9.5323	-0.3378	0.565	0.103	0.5584	-0.1861	-0.2582	2.0945	0.2614	9.6465	0.067	0.3055	0.0982	0.1444	-0.9052	-0.8384	9.3725	3.5433	-0.182	1.5228	1.3735	-0.0837	-1.1716	0.2493	0.6075
-2.162	1.1505	9.1804	-0.2782	0.6843	-0.0503	0.5584	-0.1741	-0.2582	2.3762	0.0311	9.2955	-0.1785	0.3704	0.2534	0.1741	-0.9452	-0.8188	9.2682	3.1436	0.2811	1.5488	1.4049	-0.2683	-1.206	0.1618	0.6162
-2.2137	0.9788	9.4744	-0.3104	0.4108	0.0709	0.5524	-0.1741	-0.2642	1.7442	0.1473	9.4015	-0.2082	0.4023	0.0995	0.1428	-0.8454	-0.8943	9.3161	3.1419	-0.1846	1.3064	1.3438	-0.2344	-1.1879	0.191	0.6677
-2.3338	1.1509	9.2362	-0.154	0.6792	-0.0229	0.5644	-0.1741	-0.2462	2.0294	-0.0826	9.2287	-0.209	0.3713	0.1607	0.1587	-0.9049	-0.8562	8.9768	3.4872	-0.0152	1.4805	1.3447	-0.6385	-1.188	0.1578	0.6531
-2.2775	1.2657	9.1785	-0.3052	0.7165	0.0726	0.5644	-0.1681	-0.2642	2.2663	0.2609	9.5907	-0.1166	0.3998	0.3158	0.1306	-0.9409	-0.8906	9.0361	3.4875	0.1027	1.2631	1.5611	-0.6588	-1.1709	0.2279	0.646
-2.4543	0.9779	8.938	-0.3156	0.3493	-0.0818	0.5644	-0.1621	-0.2642	2.3228	0.2606	9.5324	-0.1479	0.3397	0.1293	0.172	-0.8662	-0.8755	9.2643	3.4298	0.107	1.5146	1.4671	-0.3891	-1.171	0.1948	0.6314
-2.6159	0.9221	9.5255	-0.4042	0.5366	-0.0481	0.5584	-0.1621	-0.2642	1.9186	-0.4826	9.4038	-0.271	0.3718	0.2841	0.1307	-0.9417	-0.8727	9.1469	3.372	-0.0705	1.3876	1.5297	-0.5697	-1.1534	0.1771	0.6335
-2.552	1.2103	9.882	0.06	0.7004	-0.1195	0.5704	-0.1681	-0.2642	2.2634	0.4896	9.4723	-0.1748	0.5248	0.0399	0.1729	-0.9046	-0.8739	8.9143	3.3142	-0.3087	1.3781	1.7157	-0.8725	-1.1353	0.1732	0.6705
-2.2237	0.92	8.9424	-0.2221	0.6506	-0.2349	0.5524	-0.1801	-0.2762	2.3307	-0.0821	9.8883	-0.1769	0.4323	0.1309	0.1304	-0.9232	-0.8556	8.9132	3.314	-0.3671	1.5319	1.6228	-0.8782	-1.1708	0.2104	0.6478
-2.5045	1.209	9.3512	-0.2209	0.3761	-0.023	0.5464	-0.1741	-0.2642	2.0843	0.0887	9.1114	0.2223	0.3645	0.0378	0.13	-0.9041	-0.8564	8.9744	2.7982	-0.1927	1.6863	1.6837	-0.7563	-1.1706	0.1753	0.6516
-2.5055	1.1514	9.2919	-0.5926	0.4525	-0.105	0.5584	-0.1861	-0.2582	2.3806	0.6612	9.5938	-0.3891	0.5598	-0.1142	0.1297	-0.9018	-0.91	9.3227	3.3152	0.1661	1.3171	1.6236	-0.9356	-1.1361	0.1946	0.632
-2.3865	0.9216	9.4709	-0.309	0.594	0.0109	0.5644	-0.1741	-0.2582	2.4388	0.4322	9.5946	-0.2082	0.4323	0.2544	0.1444	-0.9052	-0.8384	9.5488	3.1423	0.0534	1.1409	1.4384	-0.7524	-1.1351	0.1888	0.6869
-2.5578	1.2671	9.5866	-0.3415	0.5951	-0.0493	0.5644	-0.1921	-0.2702	2.1419	0.0885	9.1126	-0.115	0.4316	0.0384	0.1733	-0.9238	-0.8732	9.032	3.1999	-0.1318	0.9001	1.3155	-0.6894	-1.1711	0.2123	0.6295
-2.2771	1.0932	9.1781	-0.0017	0.459	0.0332	0.5644	-0.1861	-0.2642	2.0308	0.3182	9.3483	-0.4229	0.4668	0.2238	0.1452	-0.9429	-0.8548	9.1436	3.314	-0.2458	0.5407	1.1923	-0.47	-1.1706	0.1753	0.6516
-2.2202	1.4955	9.1802	-0.1257	0.5251	-0.0244	0.5464	-0.1621	-0.2642	2.034	-0.0249	9.4665	0.0089	0.4605	-0.0227	0.1868	-0.8697	-0.8039	9.1483	3.2001	-0.0128	0.5075	1.1928	-0.5926	-1.171	0.1948	0.6314
-2.6725	0.9799	9.5837	-0.0605	0.5839	0.0658	0.5524	-0.1621	-0.2462	1.9764	-0.0248	9.4653	-0.33	0.4959	0.2245	0.1727	-0.8869	-0.839	9.2001	3.6581	-0.2434	0.7224	1.1921	-0.5353	-1.2057	0.2106	0.6473
-2.7375	1.3241	9.2287	-0.5234	0.4507	0.1679	0.5464	-0.1741	-0.2522	2.3774	0.0312	9.3549	-0.5438	0.5615	0.1017	0.1595	-0.9433	-0.8546	9.1432	3.5435	-0.245	0.7001	1.0986	-0.2292	-1.1705	0.2084	0.6662
-2.6232	1.2663	9.1717	-0.5242	0.4506	0.1374	0.5524	-0.1801	-0.2462	1.6247	0.3762	9.2213	-0.112	0.6153	0.1652	0.1729	-0.9046	-0.8739	8.8125	3.4887	0.3315	1.5436	1.3442	-0.5473	-1.1535	0.1947	0.6317
-2.6272	0.9783	8.9346	-0.6621	0.2407	-0.2571	0.5584	-0.1801	-0.2702	1.8637	0.3764	9.642	-0.3904	0.5283	0.0705	0.1578	-0.8665	-0.8577	8.9722	3.4864	-0.2486	1.6312	1.4676	-0.638	-1.171	0.1948	0.6314
-2.9136	1.209	9.0478	-1.6276	0.4369	0.4692	0.5524	-0.1681	-0.2462	1.9757	0.2613	9.4659	0.2572	0.6088	0.1966	0.1585	-0.8872	-0.8212	8.9198	3.4873	-0.0163	1.686	1.653	-0.788	-1.1709	0.2279	0.646
-2.3945	0.9781	9.0573	-0.746	0.459	-0.0707	0.5524	-0.1681	-0.2582	1.977	0.2042	9.5252	-0.847	0.8121	0.1366	0.2156	-0.8882	-0.8386	9.5964	3.3127	-0.4117	1.8397	1.6217	-0.7611	-1.1348	0.1868	0.7053
-2.7981	1.7264	9.1104	-0.8301	0.3723	0.2969	0.5524	-0.1741	-0.2582	2.0316	-0.0252	9.3476	2.3701	2.1875	3.1317	0.1871	-0.8881	-0.821	9.143	3.6582	-0.2445	1.5699	1.8062	-0.4114	-1.1706	0.1753	0.6516
-2.3278	0.9791	9.5313	-1.7248	0.1657	0.47	0.5584	-0.1741	-0.2522	2.2128	-0.4827	9.7068	5.2252	3.7878	5.2345	0.1571	-0.8289	-0.8414	9.5444	3.0268	-0.1805	0.3388	1.5602	0.3152	-1.2062	0.2476	0.6252
-2.6743	1.3822	9.5255	-0.7935	0.2191	0.6002	0.5524	-0.1681	-0.2582	2.1406	0.1457	9.0533	7.2996	4.4877	5.6212	0.145	-0.9413	-0.8905	9.088	3.1422	-0.1892	-1.7122	1.4386	1.3083	-1.1708	0.2104	0.6478
-2.1667	1.2649	8.9443	-1.0713	-0.0743	0.7883	0.5524	-0.1801	-0.2522	1.9771	0.6622	9.5855	-4.0138	4.9038	3.6323	0.1439	-0.8853	-0.8571	8.8532	3.0266	-0.5443	-3.1516	1.0693	2.1896	-1.188	0.2085	0.6659
-2.6205	1.6117	9.3499	-5.7198	-0.0001	1.3594	0.5764	-0.1621	-0.2462	1.926	-0.0812	9.8205	-4.9569	5.503	3.6722	0.1585	-0.8872	-0.8212	8.8057	3.4875	-0.0186	-4.0082	0.7903	3.2776	-1.2056	0.193	0.6491
-2.7339	1.2095	9.4058	-2.2468	-0.4526	0.9672	0.5584	-0.1561	-0.2522	1.8548	0.6045	9.2265	-0.6207	5.1255	2.9009	0.1444	-0.9052	-0.8384	8.9773	3.143	-0.0164	-4.7342	0.3914	3.2808	-1.1526	0.1889	0.6866
-2.2751	1.2084	9.2965	-5.0488	-0.6395	1.4309	0.5464	-0.1801	-0.2642	1.7415	0.2615	9.2829	-5.8431	5.6457	2.5614	0.1444	-0.9052	-0.8384	9.5445	2.9694	-0.1807	-6.1293	-0.0417	4.745	-1.1704	0.1909	0.668
-2.2154	1.3236	9.4162	-3.6631	-1.1555	1.5772	0.5464	-0.1621	-0.2702	2.0366	0.376	9.6456	-11.1365	5.5861	1.6863	0.1872	-0.905	-0.8738	9.6608	2.9696	-0.0617	-5.265	-0.7836	4.6758	-1.1531	0.2259	0.6646
-2.7934	0.9794	9.2859	-3.3123	-0.9855	1.8748	0.5524	-0.1741	-0.2582	2.0865	0.1461	9.2303	-8.4476	6.2138	2.1346	0.1863	-0.8666	-0.8753	9.1446	2.683	-0.2481	-5.002	-1.3361	3.7608	-1.1719	0.2006	0.5764
-2.5688	1.7833	9.0559	-2.1093	-1.402	2.0566	0.5644	-0.1681	-0.2582	2.2634	-0.0256	9.4118	-7.2247	5.6132	1.323	0.1577	-0.8658	-0.8756	9.5944	3.1402	-0.5291	-5.1829	-1.7619	2.1802	-1.1538	0.1966	0.6133
-2.7373	1.2091	9.2285	-1.4269	-1.2165	2.0411	0.5584	-0.1681	-0.2522	2.2093	-0.0251	9.5889	-7.3562	5.0653	0.7262	0.1869	-0.8866	-0.8567	9.0935	3.258	0.103	-6.1696	-1.9117	1.61	-1.1536	0.1615	0.6171
-2.4494	1.3811	9.2345	-3.3631	-0.9817	2.2726	0.5464	-0.1861	-0.2642	2.0397	-0.4251	9.7034	-9.3914	4.8252	0.3477	0.1717	-0.8478	-0.8584	9.0451	2.858	0.5089	-7.6359	-2.0308	1.451	-1.1704	0.1909	0.668
-2.3306	1.2663	9.4138	-3.1081	-0.8081	2.4504	0.5584	-0.1741	-0.2522	2.1525	0.1468	9.6475	0.0261	3.248	1.4169	0.188	-0.9434	-0.8723	9.7226	2.8557	0.1725	-8.5233	-2.428	1.0566	-1.2063	0.2144	0.6106
-2.7423	0.8635	8.9321	-2.739	-1.0373	2.5317	0.5524	-0.1621	-0.2642	2.5	0.4324	9.774	-4.0737	2.7996	0.537	0.1574	-0.8474	-0.8585	9.2651	2.9135	0.1052	-9.2185	-2.6733	1.1868	-1.1884	0.228	0.6457
-2.6268	1.3808	8.9947	-3.4748	-0.9753	2.7024	0.5644	-0.1741	-0.2402	2.025	0.2604	9.0511	-1.1555	2.5334	0.908	0.1735	-0.9253	-0.8374	9.2612	3.2571	-0.0687	-9.493	-2.9495	0.9995	-1.1188	0.1788	0.6158
-2.4485	1.4962	9.2939	-3.1132	-1.2053	2.5093	0.5524	-0.1681	-0.2522	1.9158	0.204	9.3457	-1.8227	3.0367	0.7614	0.1591	-0.9241	-0.8554	9.2018	3.2568	-0.1865	-9.1927	-3.1341	0.6491	-1.2224	0.2224	0.7001
-1.9768	0.5766	9.7735	-2.761	-0.2724	2.3841	0.5524	-0.1741	-0.2642	2.3218	-0.3119	9.4124	-2.4031	3.2617	0.7026	0.1574	-0.8474	-0.8585	9.1519	3.1434	0.1621	-9.2437	-3.3508	0.9522	-1.1708	0.2104	0.6478
-2.44	1.1522	9.7068	-1.0064	0.015	0.8482	0.5524	-0.1801	-0.2582	1.7414	0.3188	9.283	-0.9798	3.6667	0.8358	0.159	-0.9233	-0.8733	8.8684	2.7998	0.2135	-9.2139	-3.443	0.8565	-1.1714	0.2142	0.6112
-2.3835	1.152	9.6488	1.1358	0.1667	0.0038	0.5524	-0.1681	-0.2642	2.148	0.0319	9.4096	-3.5655	3.5599	0.2117	0.2301	-0.9063	-0.8735	8.984	3.259	0.3341	-9.0322	-3.9046	0.4698	-1.2229	0.2087	0.6653
-2.449	0.5186	9.1733	0.672	0.5215	-0.2269	0.5343	-0.1741	-0.2582	2.1564	-0.0245	9.8254	-2.4322	3.2942	0.3943	0.1711	-0.8271	-0.8949	9.3214	2.6838	0.0471	-7.96	-4.5847	0.1824	-1.1703	0.1733	0.6699
-2.2153	1.2661	9.416	1.7503	0.3846	-0.2539	0.5524	-0.1741	-0.2582	2.147	0.4325	9.4104	-3.3876	3.1888	0.1436	0.1731	-0.9061	-0.8382	8.9366	2.9739	0.7988	-6.7015	-5.2657	0.0453	-1.1886	0.1617	0.6165
-2.3895	1.3238	9.3537	1.6597	0.6022	-0.3115	0.5464	-0.1681	-0.2582	2.0361	0.0897	9.5856	-3.9673	3.4448	0.0237	0.1581	-0.885	-0.8748	8.9828	2.5702	0.2149	-6.7206	-5.2058	0.6022	-1.1528	0.1732	0.6702
-2.0421	1.0933	9.419	1.9882	0.5868	-0.7161	0.5644	-0.1681	-0.2522	2.2588	0.4319	9.2345	-6.3691	3.3941	-0.105	0.1734	-0.9245	-0.8553	9.3878	2.5133	0.5145	-6.3505	-5.0228	0.9083	-1.2055	0.2262	0.6637
-2.3311	0.9212	9.3538	1.3043	0.7062	-0.9428	0.5524	-0.1741	-0.2702	1.8612	-0.0818	9.4628	-6.0031	3.1739	-0.3244	0.201	-0.8693	-0.8216	9.4846	2.6247	-0.3581	-5.5469	-4.8726	1.4822	-1.1877	0.2242	0.6823
-2.2237	0.92	8.9424	1.3301	0.7044	-1.1265	0.5464	-0.1681	-0.2642	2.1447	-0.0829	9.2311	-6.0658	3.2636	0.4801	0.201	-0.8693	-0.8216	9.2643	2.6839	0.046	-5.0755	-4.7529	2.1852	-1.1712	0.1791	0.6149
-2.4567	1.6677	8.8806	0.4904	0.8911	-1.4406	0.5644	-0.1681	-0.2642	2.1464	0.2035	9.3505	-8.5315	3.0313	0.0084	0.1721	-0.867	-0.8576	8.9766	2.856	-0.0758	-5.2933	-4.5979	2.1015	-1.1533	0.2103	0.6481
-2.4543	0.9779	8.938	-0.0536	1.5867	-1.4233	0.5524	-0.1681	-0.2882	2.036	0.147	9.5857	-9.3289	3.0782	-0.6099	0.1724	-0.8854	-0.8747	9.1487	2.9707	-0.0136	-5.4042	-4.1072	2.95	-1.1887	0.23	0.6274
-2.6166	1.9572	9.5871	0.5179	1.9266	-2.1979	0.5644	-0.1681	-0.2582	1.6954	-0.0807	9.8158	-8.9409	2.427	-0.6517	0.1718	-0.8647	-0.9112	9.1548	2.7422	0.2773	-5.2167	-3.77	3.3874	-1.2061	0.2301	0.6271
-2.4992	1.3822	9.6471	0.6424	2.3792	-2.4424	0.5644	-0.1741	-0.2522	2.0368	-0.1964	9.585	-8.1562	1.6151	-0.5722	0.1433	-0.8646	-0.8935	9.6132	2.7993	0.4034	-4.4098	-3.3388	2.9212	-1.154	0.2317	0.6096
-2.4375	1.6126	9.8852	-0.5066	2.5787	-2.7794	0.5404	-0.1741	-0.2582	2.3225	-0.1401	9.4722	-8.8715	1.2883	-0.3013	0.2008	-0.8678	-0.8574	9.1534	2.9141	0.2196	-3.8344	-3.6164	2.5319	-1.1702	0.2065	0.6845
-2.2723	1.4963	9.4746	0.8132	3.102	-3.4186	0.5584	-0.1681	-0.2582	2.3284	0.3757	9.8298	-8.0416	1.1829	-0.487	0.158	-0.8681	-0.822	8.989	2.973	0.5665	-3.1636	-3.9825	0.8743	-1.2062	0.1969	0.6125
-2.3873	0.749	9.4114	1.8962	3.6367	-3.6859	0.5524	-0.1801	-0.2522	1.7983	-0.3684	9.1639	-10.1994	0.9755	-0.8342	0.1726	-0.8861	-0.8568	9.3856	3.2014	0.4586	-1.8381	-4.383	-0.1809	-1.2059	0.195	0.6308
-2.3832	0.9795	9.6484	3.0818	3.6759	-4.4161	0.5404	-0.1741	-0.2642	2.0381	-0.2535	9.6443	-9.1501	1.1111	-0.83	0.1425	-0.8431	-0.9479	8.9296	3.03	0.4489	1.0888	-4.2316	-1.5605	-1.1884	0.228	0.6457
-2.4472	0.7488	9.2921	5.0127	4.0202	-5.1932	0.5584	-0.1621	-0.2522	1.9747	-0.3112	9.3459	-5.3719	0.558	-1.3892	0.1576	-0.865	-0.8934	8.9826	2.6849	0.2153	5.3218	-3.775	-2.9884	-1.1878	0.1734	0.6696
-2.2129	1.1514	9.534	5.9619	4.4933	-6.9218	0.5584	-0.1681	-0.2522	1.9236	-0.0814	9.7017	-5.3803	0.0379	-1.8	0.1724	-0.8685	-0.8219	8.5774	2.8566	-0.0838	9.5132	-2.8906	-3.2319	-1.1006	0.1573	0.6546
-2.0799	0.6933	10.4217	8.4353	6.2209	-7.9177	0.5524	-0.1801	-0.2642	1.6936	0.1482	9.7568	-1.3178	-0.0011	-1.6701	0.1866	-0.8851	-0.8924	8.7619	3.0309	0.6205	12.8209	-1.143	-2.8166	-1.153	0.2084	0.6665
-3.8227	0.0694	12.6313	11.7414	7.7517	-11.1007	0.5524	-0.1801	-0.2642	1.7356	0.261	8.9858	-2.6017	0.4812	-1.6328	0.1424	-0.8262	-0.8951	8.8129	3.2593	0.3307	13.8442	0.7328	-2.1362	-1.1887	0.1792	0.6146
-1.3269	-1.8233	16.4566	4.8806	23.5048	1.6944	0.5584	-0.1681	-0.2522	1.8061	-0.1386	9.5803	-4.5693	0.5471	-2.0366	0.1581	-0.885	-0.8748	8.6923	3.7747	0.0385	14.0548	3.075	-2.0119	-1.1883	0.2612	0.6603
3.7103	7.8316	18.7054	10.2207	32.9588	-9.912	0.5644	-0.1801	-0.2702	1.7501	0.1479	9.6986	-3.5584	0.1943	-2.5353	0.1718	-0.8485	-0.8405	8.9821	3.0291	0.2166	13.2815	5.4515	-2.206	-1.1703	0.2241	0.6826
-2.0469	-3.9606	11.7107	74.1465	46.4871	24.8233	0.5584	-0.1861	-0.2582	1.8676	0.2051	9.8199	-4.0221	0.0796	-2.5999	0.1577	-0.8658	-0.8756	9.9426	3.6571	-0.1702	12.6665	6.4734	-3.0893	-1.189	0.2319	0.609
-4.4179	1.7933	11.7968	62.9258	58.9346	7.9303	0.5824	-0.1741	-0.2582	2.1574	-0.4251	9.8246	-2.3323	-0.0426	-2.2903	0.2008	-0.8678	-0.8574	9.6581	3.256	-0.1774	12.948	6.5946	-2.6907	-1.2056	0.193	0.6491
-3.4649	1.5079	13.4099	-26.3209	80.1804	14.4029	0.5704	-0.1741	-0.2522	2.0921	-0.1968	9.4673	1.1953	-0.7164	-2.358	0.1577	-0.8658	-0.8756	9.544	3.2562	-0.1796	13.2903	6.1314	-2.7108	-1.1875	0.1891	0.6861
-3.7641	0.5942	15.7651	-9.3373	92.3495	15.5853	0.5704	-0.1861	-0.2462	1.8668	-0.4247	9.6998	0.8005	-0.4033	-2.1986	0.1294	-0.8834	-0.8929	9.1969	3.4854	-0.4191	13.8695	6.4684	-2.497	-1.153	0.2084	0.6665
-4.7892	-1.7099	13.1398	17.9654	103.3259	17.5167	0.5644	-0.2041	-0.2642	1.8003	-0.1964	9.2831	2.7978	-0.5609	-2.0127	0.1857	-0.8459	-0.9118	8.9203	3.1431	-0.0176	14.2677	6.6777	-0.8961	-1.1701	0.189	0.6863
-5.8395	-1.9972	12.4097	3.8524	117.2775	24.9576	0.5644	-0.1921	-0.2522	2.0344	-0.1966	9.4661	-0.3234	-1.1534	-1.8125	0.1713	-0.8447	-0.9298	9.4795	2.9107	-0.5905	15.0262	6.3596	1.4532	-1.1705	0.2084	0.6662
-4.8815	-1.3618	14.3796	-7.4686	122.6781	33.5632	0.5884	-0.1741	-0.2522	1.8116	0.0336	9.8778	2.7399	-1.8524	-1.3255	0.2005	-0.8663	-0.8931	9.0786	2.5667	-0.7165	14.4265	6.5086	3.4114	-1.1529	0.1908	0.6683
-4.8918	-1.8807	13.7873	22.9527	122.7485	39.872	0.6004	-0.1861	-0.2342	1.9303	0.0909	10.0585	1.9558	-2.7569	-2.0842	0.2002	-0.8479	-0.876	9.0744	2.3364	-0.9507	13.0681	7.125	4.5042	-1.1353	0.2239	0.6832
-4.2577	-0.0416	13.9814	44.5302	114.0743	45.6745	0.5944	-0.2041	-0.2281	2.2095	-0.0824	9.5888	2.0012	-3.7372	-2.7811	0.1572	-0.8458	-0.8942	9.1833	2.6796	-1.1806	10.8231	8.1744	5.812	-1.1709	0.1772	0.6332
6.7998	-2.3698	10.5282	85.0746	84.3601	57.6386	0.6184	-0.1921	-0.2281	1.8645	0.033	9.6413	4.7313	-4.094	-2.0106	0.1863	-0.8666	-0.8753	9.5816	2.564	-1.2314	8.6857	7.8063	6.8614	-1.1886	0.2124	0.6292
3.6097	1.019	6.693	90.4632	68.0167	5.0857	0.6184	-0.1921	-0.2221	2.1398	-0.0262	8.9935	11.1061	-3.6864	-0.6641	0.1583	-0.8865	-0.8391	9.4655	2.3917	-1.351	7.4288	6.6416	5.7745	-1.1182	0.175	0.6524
7.667	-5.4333	4.3339	5.7191	29.267	-16.3211	0.6304	-0.2101	-0.2161	2.2108	-0.1395	9.6481	2.8709	-3.1422	-1.7806	0.2016	-0.9062	-0.8558	10.0225	2.1015	-2.0409	5.3435	5.3921	3.0371	-1.2229	0.2087	0.6653
5.3635	-3.6318	10.6152	-17.0521	9.9596	-41.6517	0.6244	-0.1981	-0.2101	1.9834	0.0331	9.8219	5.0592	-2.9053	-1.2784	0.1583	-0.8865	-0.8391	9.8656	1.8174	-1.3451	4.2958	3.5509	1.2793	-1.2061	0.2301	0.6271
5.7464	-3.4626	9.5596	9.4022	2.5284	-62.7398	0.6124	-0.1921	-0.2221	1.9252	-0.253	9.7608	8.6232	-3.0026	0.085	0.1591	-0.9241	-0.8554	10.1502	2.1612	-1.3381	2.1662	1.7714	0.3155	-1.2052	0.1735	0.6693
6.0465	-4.964	7.0213	3.1901	-4.5339	-73.1192	0.6184	-0.1921	-0.2161	2.1518	-0.0822	9.5876	2.9124	-2.32	-0.3761	0.1854	-0.8275	-0.8947	10.5029	2.0478	-0.8065	1.2507	-0.2917	0.2441	-1.1886	0.2124	0.6292
6.4232	-5.7156	5.5497	-13.731	-18.0429	-79.0975	0.6124	-0.1981	-0.2101	1.9344	-0.5956	10.176	4.3663	-3.4825	0.0381	0.1718	-0.8647	-0.9112	9.7547	1.9903	-1.1717	1.6999	-2.0187	0.0317	-1.2056	0.193	0.6491
6.541	-5.2554	5.7304	-47.3953	-31.0913	-76.1894	0.6184	-0.1981	-0.2041	2.2037	-0.1402	9.2916	5.9367	-1.9712	-0.6425	0.1886	-0.9633	-0.8536	9.999	1.8782	-0.3506	2.3348	-2.6038	-0.645	-1.1704	0.1909	0.668
5.8643	-4.1597	6.6061	-72.0831	-38.8396	-69.1389	0.6064	-0.1681	-0.2281	2.1513	0.1467	9.5881	3.8274	-1.1985	-0.6324	0.1871	-0.9042	-0.8917	10.0424	2.5641	-0.9888	4.025	-2.0161	-2.4499	-1.1008	0.1924	0.6509
5.1398	-3.5228	7.9524	-82.2687	-49.1247	-55.6548	0.6064	-0.1861	-0.2101	2.3794	0.2031	9.4741	3.3665	-1.0997	-0.3535	0.1859	-0.8474	-0.8761	9.7051	2.3361	-0.7631	5.4529	-0.933	-4.7286	-1.1528	0.224	0.6829
5.075	-2.0284	7.7185	-80.0317	-64.3773	-37.9863	0.6064	-0.1861	-0.2161	1.9792	-0.1963	9.5838	3.1267	-0.7279	-0.1929	0.158	-0.8842	-0.8927	9.2472	1.9348	-0.8904	5.9468	-0.0999	-5.2696	-1.1702	0.2065	0.6845
4.224	-1.3926	8.4716	-76.5989	-82.4933	-20.0261	0.6124	-0.1621	-0.2281	2.3224	-0.0829	9.4723	5.5275	-0.6781	0.1519	0.1866	-0.8851	-0.8924	9.4191	2.1642	-0.8278	5.9293	0.2104	-5.8461	-1.1701	0.189	0.6863
3.9514	-1.2752	9.2937	-67.0419	-98.6416	-4.1843	0.6184	-0.1681	-0.2342	1.9818	-0.3105	9.7024	0.7559	-0.7791	-0.3214	0.187	-0.8873	-0.8389	8.8558	2.0516	-0.4895	6.1976	0.3952	-6.0003	-1.1528	0.224	0.6829
3.3129	-0.642	9.1055	-65.3694	-110.3996	9.9234	0.6004	-0.1501	-0.2221	1.7569	0.2631	10.0553	5.3014	-1.2572	0.0486	0.1724	-0.8854	-0.8747	8.9104	2.1658	-0.6047	5.6279	0.7027	-5.3328	-1.2232	0.2107	0.647
2.634	-0.1792	9.8024	-65.389	-119.0748	20.1555	0.5824	-0.1441	-0.2342	2.3209	-0.4265	9.3528	5.2087	-1.3461	-0.3238	0.1584	-0.9034	-0.8919	8.7963	2.166	-0.6069	6.094	0.9463	-4.7803	-1.1881	0.2261	0.664
2.0002	0.3395	9.8504	-62.7581	-124.6927	27.1376	0.5764	-0.1441	-0.2462	1.9768	-0.1965	9.465	4.5942	-1.2445	-0.1069	0.1582	-0.8857	-0.8569	8.4499	1.9363	-0.8481	5.4471	1.0103	-5.0121	-1.1357	0.1926	0.6503
0.6854	-0.0018	10.3557	-62.549	-125.665	30.8493	0.5884	-0.1381	-0.2342	2.1506	-0.0823	9.5282	5.0169	-1.6814	-0.1448	0.1726	-0.9031	-0.9096	8.9078	2.3375	-0.7207	3.7278	0.8271	-4.2432	-1.1525	0.1713	0.6885
-0.8636	-0.1707	10.6796	-60.965	-120.9511	32.7601	0.5704	-0.1381	-0.2402	1.8611	-0.0245	9.4629	6.6065	-2.2011	0.1884	0.187	-0.8873	-0.8389	9.0186	2.222	-0.8939	2.7994	0.5499	-3.6468	-1.2053	0.1911	0.6674
-2.5859	-0.1668	11.0005	-64.9848	-113.6512	33.8153	0.5764	-0.1501	-0.2402	2.0988	-0.0244	9.8242	7.0971	-2.3016	0.1875	0.1734	-0.9245	-0.8553	8.9643	1.9357	-0.7794	2.056	1.1379	-3.7385	-1.2223	0.2049	0.7019
-3.3281	-0.2796	11.3403	-64.4618	-108.4629	36.1819	0.5704	-0.1381	-0.2582	1.8676	0.2051	9.8199	7.3896	-3.0748	0.3595	0.1717	-0.8478	-0.8584	8.6761	1.706	-0.961	-0.2682	1.9396	-2.0354	-1.1706	0.226	0.6643
-5.1702	-0.2185	11.4227	-62.1332	-104.782	39.9605	0.5644	-0.1381	-0.2342	1.6898	0.2623	9.5788	8.3883	-3.922	0.6241	0.1581	-0.885	-0.8748	8.4398	2.5656	-1.3126	-0.5253	2.8864	0.8019	-1.1878	0.1734	0.6696
-6.115	0.5279	10.2835	-69.2124	-104.4125	43.0031	0.5524	-0.1321	-0.2522	1.7459	-0.0815	9.4604	9.1782	-4.4876	0.5227	0.1298	-0.8864	-0.8215	8.844	1.5331	-1.1333	-0.7902	3.7114	3.2042	-1.1878	0.1734	0.6696
-7.2149	0.7593	10.0263	-89.3631	-107.1645	46.834	0.5524	-0.1321	-0.2402	2.0369	0.2615	9.6453	8.3039	-5.118	0.6335	0.1729	-0.9046	-0.8739	8.4431	1.935	-1.1982	-0.442	4.2883	5.5564	-1.1179	0.2238	0.6835
-8.1856	2.6024	10.6618	-94.2265	-106.9238	48.5099	0.5464	-0.1201	-0.2582	2.0919	0.3756	9.5279	9.4675	-5.3846	0.9087	0.1864	-0.8674	-0.8575	8.6776	1.4768	-0.9035	0.4217	4.4646	7.4861	-1.1532	0.1927	0.65
-9.6127	4.3318	11.5245	-90.5927	-100.306	50.7483	0.5283	-0.1081	-0.2462	2.265	0.318	9.5314	11.3792	-5.1725	1.132	0.1724	-0.8854	-0.8747	8.6725	1.8201	-1.1357	0.7357	4.2732	9.1388	-1.2054	0.1579	0.6529
-10.1467	5.9985	10.8682	-80.4352	-89.7748	51.8435	0.5343	-0.1021	-0.2462	1.6883	-0.0813	9.4592	10.3598	-5.3399	1.2508	0.1592	-0.941	-0.9082	8.8529	1.7068	-0.6658	2.5042	3.9306	8.8471	-1.1879	0.191	0.6677
-10.7914	6.3434	10.3248	-70.0465	-80.6594	53.2301	0.5404	-0.0901	-0.2522	1.9219	0.1474	9.6427	10.1833	-4.8771	1.4441	0.1717	-0.8639	-0.929	9.1391	1.7639	-0.6015	4.9217	4.0204	7.8458	-1.2234	0.2458	0.6432
-11.2453	7.3802	10.7911	-58.2561	-76.1867	55.6239	0.5404	-0.0901	-0.2462	2.323	0.1462	9.5322	12.0274	-5.0011	1.5377	0.1878	-0.9257	-0.8373	9.1379	1.8211	-0.6597	5.9727	4.574	7.4707	-1.1884	0.1773	0.633
-11.8252	7.4958	10.6028	-37.7448	-72.7827	57.83	0.5343	-0.1081	-0.2462	2.379	-0.1404	9.414	10.7767	-5.9937	1.7032	0.1579	-0.8673	-0.8399	9.6015	2.2807	-0.2404	7.7417	5.6153	8.174	-1.1889	0.2143	0.6109
-12.2339	6.0582	10.1778	-10.811	-67.3938	57.572	0.5223	-0.0781	-0.2582	2.1009	0.0903	9.9433	11.3506	-6.5563	1.7559	0.1313	-0.9616	-0.8541	9.5496	1.8801	-0.0096	8.6281	6.351	8.7629	-1.1707	0.1928	0.6497
-12.2581	5.1351	8.8161	11.26	-55.432	51.7636	0.5043	-0.0901	-0.2702	2.2186	0.5482	10.1248	13.8833	-7.6148	2.2665	0.1592	-0.9249	-0.8375	9.8476	1.7099	0.6374	8.5127	7.4622	8.4579	-1.1702	0.2065	0.6845
-11.8804	3.8086	7.3432	14.2273	-37.7781	38.7329	0.5043	-0.0841	-0.2582	2.7886	0.3172	9.7797	14.6989	-8.3969	2.4083	0.1741	-0.9621	-0.8716	9.2579	1.7072	-0.366	9.9217	9.374	7.2822	-1.1883	0.2105	0.6475
-10.6801	3.7477	6.8347	3.7432	-21.72	21.7498	0.5103	-0.0961	-0.2522	1.8127	0.5489	9.9977	15.8517	-9.3063	2.2706	0.1744	-0.9637	-0.8359	9.2673	1.5368	0.1002	10.6416	11.9054	5.7372	-1.1535	0.2454	0.6444
-10.3933	4.4946	6.8421	-2.0617	-9.7178	3.2584	0.5163	-0.0961	-0.2702	2.4922	0.2599	9.3577	16.5324	-10.7303	2.2773	0.1585	-0.8872	-0.8212	9.4793	1.5909	-0.712	10.3352	14.1916	4.514	-1.1704	0.1909	0.668
-9.7354	4.8989	8.1558	0.5593	1.4529	-12.7868	0.5163	-0.0961	-0.2522	1.9812	0.4336	9.7633	14.7139	-10.7932	2.6745	0.1594	-0.9425	-0.8725	9.3	1.7044	-1.1235	8.8407	15.7069	4.2172	-1.1363	0.1789	0.6155
-8.6017	4.837	7.1733	10.2537	13.227	-25.8879	0.5103	-0.1021	-0.2582	2.633	0.4911	10.6678	16.2205	-12.6571	1.7791	0.1743	-0.9629	-0.8538	8.9008	1.7051	-1.1315	6.6388	16.7589	4.7228	-1.1889	0.2143	0.6109
-5.6126	-4.3341	21.0935	294.2806	17.0939	7.3994	0.5103	-0.1201	-0.2522	2.4028	-0.138	10.6024	22.3984	-15.0271	0.0797	0.1731	-0.9061	-0.8382	9.4695	2.0481	-1.1772	3.3397	16.5786	5.8008	-1.1884	0.228	0.6457
-1.3595	-6.5215	-0.8667	194.6235	47.1436	-70.7986	0.5043	-0.0961	-0.2522	2.6393	-0.138	10.9042	27.7634	-19.8052	-2.4361	0.1305	-0.924	-0.8378	9.5205	2.2191	-1.4672	0.2571	15.1932	7.549	-1.2064	0.232	0.6087
7.3595	5.4552	13.4533	-66.8784	64.3163	42.6361	0.5043	-0.1141	-0.2642	3.5653	-2.6013	10.7994	19.2738	-29.7808	-5.1922	0.1595	-0.9433	-0.8546	9.8584	2.0456	-1.6944	-2.8611	12.3585	9.4415	-1.1181	0.2082	0.667
3.9173	2.3005	13.9102	152.734	81.192	-84.0982	0.5283	-0.1141	-0.2522	4.3374	-3.1161	11.8834	14.1464	-32.598	-15.1962	0.1307	-0.9417	-0.8727	10.2071	2.2758	-1.3366	-5.0774	9.4359	9.2791	-1.1716	0.2493	0.6075
-2.9598	3.216	6.8067	126.2514	101.0239	-103.4324	0.5223	-0.1201	-0.2522	3.3822	0.3233	13.5339	38.2962	-63.7489	-6.6608	0.1302	-0.9056	-0.8207	11.7962	2.8457	-1.6526	-4.3277	6.8003	4.0721	-1.1882	0.1929	0.6494
-8.103	7.4934	12.4479	28.8829	89.9908	-50.4509	0.5404	-0.1441	-0.2522	1.7881	1.6399	11.7813	37.6048	-69.7823	-0.2838	0.1314	-0.9624	-0.8362	11.9124	4.4525	-1.4111	-1.6386	4.8692	-1.2462	-1.1535	0.1947	0.6317
-7.6824	2.4845	9.8442	27.726	64.2315	-5.8871	0.5343	-0.1381	-0.2522	2.317	1.4107	12.2669	1.0275	-79.3122	4.5478	0.1456	-0.962	-0.854	12.4411	4.1102	-0.6434	0.9625	1.3505	-1.9843	-1.1705	0.2084	0.6662
-2.6664	0.6931	9.8785	-9.6564	44.3543	23.2493	0.5343	-0.1441	-0.2522	2.9898	2.615	14.3621	0.0568	-91.8513	11.2407	0.1172	-0.9627	-0.8185	12.348	3.8273	0.4036	3.4184	-3.1365	1.0751	-1.1712	0.1791	0.6149
-0.357	-0.3456	10.0391	-14.8139	43.1504	12.8116	0.5524	-0.1261	-0.2462	2.6734	1.4681	12.8089	4.1414	-105.8834	16.6805	0.0732	-0.9215	-0.8561	11.5535	3.485	0.5615	5.7011	-3.9905	5.7521	-1.1884	0.1773	0.633
-1.3222	-0.2846	10.7885	2.7924	41.7013	-4.4953	0.5584	-0.1501	-0.2522	2.5045	2.2703	13.1041	-21.0535	-119.6333	15.2795	0.1168	-0.9435	-0.8193	10.5273	2.5113	0.479	6.7945	0.6781	10.1788	-1.1707	0.1928	0.6497
-2.2122	0.1739	9.4725	16.9874	37.8765	-9.5297	0.5584	-0.1441	-0.2582	2.341	0.3254	13.3342	-18.3266	-131.2336	17.5173	0.0752	-1.0006	-0.7994	10.2393	2.1669	0.297	4.939	7.5808	12.5089	-1.1538	0.1966	0.6133
-2.1476	0.0021	9.8278	12.196	35.4451	-2.5026	0.5524	-0.1501	-0.2462	2.8517	0.7241	12.9892	-19.9906	-144.1634	17.8397	0.0728	-0.8862	-0.7862	9.712	1.5914	-0.474	2.3517	13.5055	12.7914	-1.1708	0.2104	0.6478
-1.4589	-0.2295	9.6634	16.4562	33.9296	-0.571	0.5584	-0.1441	-0.2642	3.722	0.8943	13.3045	-39.5682	-155.187	17.0839	0.0448	-0.923	-0.8027	10.0479	2.7373	-0.6964	1.352	16.6178	13.9174	-1.2055	0.2262	0.6637
-2.2638	0.5198	9.8268	23.8959	33.5789	-2.8284	0.5524	-0.1381	-0.2462	3.2215	-0.3048	14.0638	-47.1355	-166.5888	13.8714	0.0023	-0.9409	-0.8023	10.3733	2.5042	-1.5657	1.9906	16.172	17.6522	-1.1708	0.2104	0.6478
-1.9824	0.5759	9.478	25.059	32.4917	-2.5578	0.5464	-0.1381	-0.2582	3.9923	0.2107	15.2093	-41.9293	-180.2305	9.7764	0.0154	-0.8838	-0.8045	10.6581	1.9872	-1.6203	2.838	13.992	14.4292	-1.206	0.2125	0.6289
-2.6718	0.5774	9.5827	23.0849	26.6307	2.2764	0.5524	-0.1381	-0.2522	4.5404	-0.5891	16.585	-34.4212	-192.9827	3.9099	-0.0557	-0.8854	-0.7158	10.1931	2.4454	-2.0362	-6.952	10.7978	-0.0459	-1.1706	0.1753	0.6516
