1757_acc_x	1757_acc_y	1757_acc_z	1757_gyro_x	1757_gyro_y	1757_gyro_z	1757_mag_x	1757_mag_y	1757_mag_z	1758_acc_x	1758_acc_y	1758_acc_z	1758_gyro_x	1758_gyro_y	1758_gyro_z	1758_mag_x	1758_mag_y	1758_mag_z	1759_acc_x	1759_acc_y	1759_acc_z	1759_gyro_x	1759_gyro_y	1759_gyro_z	1759_mag_x	1759_mag_y	1759_mag_z
0.460881	0.726162	9.915319	4.838644	-1.472522	-3.687385	0.319368	-0.276232	-0.924157	3.215914	-0.580075	9.178682	-5.405996	0.077418	1.116509	0.27694	0.180664	-0.828062	9.653651	-2.323941	-1.265173	-5.495978	-4.008787	-10.586208	-0.37187	0.200828	-0.06884
0.623778	0.666666	9.463594	4.90506	-0.767138	-3.522769	0.33426	-0.304148	-0.917675	3.737198	-0.35558	9.35967	-5.62347	-0.046174	0.837652	-0.228323	0.045213	-0.880024	9.416101	-1.684564	-1.266855	-5.679071	-3.640496	-10.770664	-0.416851	-0.115704	0.102132
0.407381	0.152512	10.082352	4.264844	-0.185193	-3.603473	0.276249	-0.264865	-0.912449	3.454206	-0.354852	9.580184	-6.054481	-0.01516	-0.056402	-0.216013	0.027824	-0.850597	9.542511	-1.973484	-0.846542	-5.674986	-3.399883	-10.374543	-0.444529	-0.099093	0.085627
0.110963	0.322873	9.565831	4.358848	-0.034233	-3.325273	0.263315	-0.340403	-0.866869	3.508361	-0.467763	9.41138	-5.996358	-0.34847	-0.552919	-0.241889	0.042994	-0.851049	9.651605	-1.917656	-1.323349	-6.500509	-3.012472	-9.670513	-0.431038	-0.131274	0.087371
0.230998	0.381438	9.852564	3.564551	0.20512	-3.073749	0.304847	-0.244787	-0.944716	3.691051	-0.636698	9.867981	-5.074777	-0.765015	-0.710459	-0.241224	0.060459	-0.880752	9.654522	-1.27783	-1.081002	-7.707182	-2.698299	-10.890057	-0.445226	-0.146845	0.07261
0.175805	0.611728	9.966122	3.167334	0.199783	-2.766007	0.276263	-0.282165	-0.894958	3.220402	-1.030576	9.348221	-4.619386	-1.402298	-0.839742	-0.228398	0.029893	-0.879021	9.477183	-1.626129	-1.145694	-8.018533	-2.848885	-11.224372	-0.431664	-0.179852	0.089883
0.172837	0.09403	9.793391	3.199281	0.38397	-2.732437	0.306019	-0.303399	-0.916976	3.567889	-0.862137	9.468896	-4.404995	-1.552478	-0.902719	-0.228398	0.029893	-0.879021	9.530406	-1.976203	-1.505518	-8.173615	-3.158165	-10.947293	-0.486599	-0.132917	0.102618
0.005362	0.324886	10.018428	2.584617	0.323468	-3.069004	0.2629	-0.292033	-0.905269	3.741471	-0.693421	9.529305	-4.65344	-1.676866	-1.119952	-0.226847	0.050573	-0.951773	9.242894	-1.915721	-1.091425	-8.822701	-3.343712	-10.974617	-0.445643	-0.179229	0.074285
0.399504	0.265706	9.684863	2.09445	0.007602	-2.520695	0.291156	-0.310081	-0.888475	3.163184	-0.579777	9.404031	-5.056397	-1.774762	-0.997937	-0.253904	0.061455	-0.894826	9.536604	-1.800492	-1.145335	-9.750448	-3.465926	-11.306836	-0.445572	-0.180056	0.089812
0.112118	0.265672	9.622442	1.5485	0.458008	-1.806432	0.276621	-0.261337	-0.926525	3.20525	-0.693162	8.668831	-4.721505	-2.168495	-1.094067	-0.267841	0.042844	-0.850498	9.717089	-1.858231	-0.96256	-10.466905	-3.671881	-12.342298	-0.431034	-0.149945	0.134792
0.572712	-0.193709	9.743126	0.936996	0.701348	-1.831385	0.289998	-0.268768	-0.898723	2.986191	-0.861296	9.173609	-4.659794	-2.168114	-1.032358	-0.227952	0.061605	-0.895378	9.70597	-1.337772	-1.499497	-10.249496	-3.022119	-12.987942	-0.444805	-0.133131	0.118357
-0.050737	0.267727	10.073927	0.014935	0.172529	-1.653316	0.276635	-0.278636	-0.909034	3.331368	-0.749282	9.180957	-5.679988	-2.299081	-1.743525	-0.240853	0.076851	-0.896105	9.356254	-1.800828	-1.328357	-10.959621	-3.022778	-13.168725	-0.45913	-0.16572	0.119961
0.400493	0.438272	9.74244	-0.62206	0.745084	-0.906141	0.290398	-0.299839	-0.877815	3.395971	-0.636444	9.522099	-5.159455	-2.689055	-2.055264	-0.240853	0.076851	-0.896105	9.474307	-1.336243	-1.264271	-10.520996	-2.413545	-12.775944	-0.458783	-0.132509	0.102759
0.40041	0.553155	9.742923	-1.938083	0.608355	-0.229878	0.30449	-0.265614	-0.913148	3.795841	-0.918993	9.360405	-4.942064	-2.651821	-2.640449	-0.240558	0.077923	-0.910455	9.474172	-1.278167	-1.264024	-10.642512	-2.013809	-13.02189	-0.45948	-0.18026	0.089742
0.169704	-0.193901	9.621625	-2.730851	0.843188	0.420246	0.318996	-0.27976	-0.910081	3.275897	-0.580087	9.29317	-5.311791	-2.651292	-3.442267	-0.214976	0.061681	-0.895653	9.30137	-1.683552	-1.089335	-9.810382	-1.668661	-13.576623	-0.459618	-0.197279	0.106107
0.411586	0.498126	10.311212	-3.922349	1.202217	0.797525	0.319754	-0.290003	-0.920741	4.09347	-0.3558	9.87668	-5.460422	-2.279229	-4.363523	-0.254419	0.074632	-0.86713	9.537299	-1.626016	-1.084686	-8.760346	-1.357738	-13.704148	-0.445013	-0.149323	0.119194
0.172506	0.553562	9.795322	-4.012963	1.448336	0.74045	0.291141	-0.292782	-0.905967	3.616562	-0.637254	9.073818	-5.545432	-1.782313	-5.499278	-0.254199	0.060384	-0.880476	9.606895	-1.914307	-0.54566	-8.60222	-0.961099	-13.553816	-0.459272	-0.164067	0.088905
0.515251	0.09354	9.743219	-3.00329	1.583286	0.095712	0.290755	-0.279011	-0.909383	3.336527	-0.918084	9.407373	-4.711119	-1.799577	-5.930367	-0.253904	0.061455	-0.894826	9.419132	-1.56767	-1.08664	-8.541085	-1.177209	-13.339089	-0.44571	-0.197074	0.106177
0.860548	0.725631	9.866261	-2.361983	1.53039	-0.397681	0.29227	-0.299496	-0.930703	3.562061	-0.975035	9.185603	-3.10573	-1.899642	-6.269175	-0.240413	0.048354	-0.922798	9.88823	-1.685644	-1.258052	-9.220576	-0.711668	-14.225075	-0.459134	-0.147049	0.07254
0.170528	0.208431	9.680168	-2.909368	1.797099	0.252256	0.305619	-0.272329	-0.937884	3.6247	-0.467931	9.470437	-2.361341	-1.703224	-6.729039	-0.254419	0.074632	-0.86713	9.70815	-1.802133	-1.441568	-9.869128	-0.339359	-14.957927	-0.48771	-0.231724	0.138697
0.627367	0.322741	9.632705	-4.189748	2.272017	1.214362	0.276278	-0.299464	-0.877466	3.452758	-0.861921	9.466478	-0.911063	-1.865774	-7.191903	-0.215567	0.059537	-0.866954	9.603593	-1.915048	-0.725381	-8.237533	0.074899	-16.004821	-0.445643	-0.179229	0.074285
0.171475	0.438438	9.737986	-4.95369	2.261834	1.79908	0.262157	-0.299089	-0.877117	3.620296	-0.693443	9.243689	0.358249	-1.635449	-7.126936	-0.280082	0.015344	-0.891264	9.780237	-1.741225	-0.721338	-6.980315	0.527242	-17.906174	-0.445502	-0.180882	0.10534
0.405196	0.094588	9.968405	-5.717362	2.313462	2.354133	0.305247	-0.275857	-0.923808	3.511772	-0.354959	9.581393	0.851536	-1.806326	-8.176378	-0.228392	0.090103	-0.868685	9.6629	-1.56648	-0.66289	-5.653756	0.778934	-18.126088	-0.445364	-0.163863	0.088975
0.116738	0.036871	9.84889	-6.329832	2.371716	2.387511	0.306019	-0.303399	-0.916976	3.561067	-1.087743	9.128869	1.036978	-1.803572	-8.237856	-0.254419	0.074632	-0.86713	9.367819	-1.565805	-0.668392	-4.473966	1.326511	-17.430127	-0.445777	-0.214919	0.13807
0.118592	0.554328	9.964768	-7.400398	2.36045	2.942423	0.304133	-0.286442	-0.88158	3.396856	-0.467405	9.578881	3.259777	-1.926664	-8.545568	-0.267546	0.043916	-0.864847	9.484751	-1.566322	-0.726098	-3.600057	1.713097	-16.059991	-0.431735	-0.179025	0.074355
0.290604	0.209554	9.96666	-8.010377	2.254963	3.862483	0.263672	-0.319575	-0.898437	3.164477	-1.255743	9.403462	5.238332	-1.808575	-8.696939	-0.253389	0.048279	-0.922522	9.656567	-1.684115	-1.022826	-3.260744	2.117659	-16.61321	-0.432082	-0.212237	0.091557
0.917269	-0.078833	9.807143	-7.975545	2.775109	4.085507	0.276992	-0.257809	-0.940601	3.681141	-1.1441	9.357798	6.666017	-1.269438	-8.659602	-0.240928	0.06153	-0.895102	9.6629	-1.56648	-0.66289	-2.179605	2.800822	-17.231559	-0.445568	-0.198727	0.137233
0.118882	0.152237	9.963078	-7.760583	2.994013	3.843108	0.29037	-0.26524	-0.912799	4.022284	-0.187222	9.252578	8.489686	-1.269932	-9.737103	-0.241299	0.045138	-0.879748	9.656162	-1.509887	-1.022084	-0.820846	2.987981	-17.115138	-0.445364	-0.163863	0.088975
-0.22914	0.208962	9.729226	-8.706887	3.416689	4.128706	0.262886	-0.274734	-0.92276	3.913844	-0.524753	9.533074	9.662803	-1.316569	-9.705796	-0.253904	0.061455	-0.894826	9.66319	-1.217776	-0.6015	1.000778	3.05192	-16.755335	-0.473873	-0.230694	0.123239
0.234629	-0.019929	10.021435	-8.705095	3.84971	3.890401	0.289998	-0.268768	-0.898723	3.509893	-0.636707	9.467877	11.936479	-2.182491	-8.849406	-0.25457	0.043991	-0.865123	9.666086	-1.042807	-0.421037	2.485283	3.266014	-16.242232	-0.418103	-0.212859	0.107155
0.115624	0.03663	9.792036	-8.610687	4.406433	3.623172	0.247636	-0.267645	-0.897675	3.743003	-0.862365	9.585802	14.821273	-3.648254	-8.861659	-0.229359	0.011357	-0.834968	9.129284	-1.449607	-0.792113	3.385557	3.381818	-15.298715	-0.46011	-0.210166	0.044833
-0.065213	0.26459	9.334837	-9.775191	4.525659	3.475125	0.248751	-0.25706	-0.939903	3.622498	-0.580687	9.357063	18.16676	-5.379715	-9.554389	-0.25376	0.031886	-0.907169	9.660044	-0.811739	-0.719583	3.60813	3.618174	-14.41443	-0.431247	-0.147467	0.088209
-0.121271	0.14999	9.390094	-10.545407	3.500645	4.104695	0.264043	-0.316047	-0.912513	3.458348	-1.256045	9.692705	23.22544	-8.321532	-9.394604	-0.216088	0.012504	-0.849593	9.128723	-1.682158	-0.853009	3.824236	3.525288	-14.231413	-0.487505	-0.196861	0.090439
0.453335	0.379824	9.5159	-10.640482	2.820647	4.400589	0.290741	-0.261712	-0.926875	3.638729	-1.481406	10.035979	29.710049	-10.875354	-9.538088	-0.228693	0.028821	-0.864671	9.430562	-1.274571	-0.426428	5.092288	3.615616	-13.655806	-0.445986	-0.231112	0.138907
0.289366	0.381637	9.910531	-11.463535	3.367169	4.657176	0.304876	-0.279386	-0.909732	3.760597	-0.580001	10.435633	35.499866	-14.747685	-11.051648	-0.215497	0.014647	-0.878293	9.072914	-0.693495	-0.550372	5.399404	3.5259	-13.748169	-0.44599	-0.212441	0.091487
0.513764	0.610273	9.688538	-14.059058	4.422261	5.417802	0.262529	-0.295561	-0.891193	3.700352	-1.706694	10.206917	43.198782	-18.941407	-11.30294	-0.254205	0.000174	-0.890812	9.538825	-1.335142	-0.963636	5.460316	3.217069	-13.44132	-0.43194	-0.213889	0.122613
0.73767	-0.022956	9.406072	-15.710283	4.434488	6.373425	0.27815	-0.299122	-0.930354	3.412094	-1.480833	10.201063	45.445921	-26.823445	-11.502805	-0.228103	0.030965	-0.89337	9.18776	-1.217438	-0.790024	4.77763	2.664009	-13.436209	-0.474152	-0.24606	0.108548
0.571226	0.323024	9.688445	-18.858778	5.302613	7.132596	0.290741	-0.261712	-0.926875	3.710693	-1.424614	10.716911	45.520621	-35.158802	-7.608863	-0.254506	-0.061108	-0.886797	9.000807	-1.219258	-1.332487	4.464165	1.927482	-13.309321	-0.446198	-0.228633	0.092324
0.109933	0.207748	9.508495	-22.349462	5.776609	7.273012	0.305991	-0.268801	-0.95196	3.564394	-0.298926	9.356091	42.243514	-44.822368	-4.162378	-0.268657	-0.005261	-0.818787	8.953511	-0.57732	-0.611985	3.031349	1.111589	-14.767092	-0.446478	-0.243999	0.077633
0.397401	0.092899	9.570433	-25.249771	6.918629	8.373246	0.30449	-0.265614	-0.913148	3.963987	0.826882	9.308862	20.958076	-49.29084	4.685398	-0.267552	-0.016294	-0.875182	9.010191	-0.519873	-0.730452	-0.218326	0.067466	-15.483763	-0.48806	-0.246264	0.108478
0.445375	0.607902	9.118893	-30.403403	6.342474	8.286714	0.289598	-0.237698	-0.91963	3.945208	1.164154	8.459553	6.588462	-41.052463	20.879239	-0.280968	0.012128	-0.848215	9.011987	-0.345151	-0.609896	-3.564031	-1.280669	-16.412542	-0.43222	-0.229255	0.107922
0.118059	-0.250095	9.904536	-31.16115	7.47212	8.644584	0.261743	-0.25072	-0.915516	5.88914	0.767991	10.538141	-10.547561	-39.755088	28.431604	-0.241229	0.000249	-0.891087	8.719917	-0.692437	-0.497068	-6.186468	-1.907867	-15.819433	-0.474499	-0.279271	0.12575
-0.278476	0.038368	10.125361	-28.813293	6.642834	6.845692	0.262514	-0.278262	-0.908684	5.289174	-3.341956	11.710812	-24.482103	-41.898304	33.671017	-0.319675	-0.002345	-0.860733	8.894515	-0.112329	-0.551201	-8.298172	-2.16274	-12.601832	-0.48869	-0.27617	0.063569
-0.103082	-0.363124	10.297571	-22.878583	5.359237	5.918416	0.317082	-0.228204	-0.909669	1.158311	3.616816	37.163184	-197.282663	-95.242535	-25.017151	-0.281338	-0.004264	-0.832861	8.959823	-0.92454	-0.313934	-8.285574	-2.186697	-10.279198	-0.460666	-0.25957	0.062872
-0.111741	-0.709703	9.841299	-19.115974	4.804068	4.917223	0.261743	-0.25072	-0.915516	5.650165	-6.440401	12.168574	126.460571	-178.50264	-66.458194	-0.345922	-0.003567	-0.845832	9.778076	-0.812009	-0.717382	-6.525534	-2.340571	-9.581947	-0.460106	-0.228837	0.092254
0.182035	-0.306131	10.246527	-15.235455	3.605502	3.782558	0.291113	-0.258183	-0.940951	4.251024	-0.802663	14.521957	29.173371	-176.171251	-53.474611	-0.321007	-0.037274	-0.801327	10.251826	-1.510001	-0.711545	-5.473195	-2.251339	-8.974972	-0.488269	-0.262457	0.109315
0.355119	-0.593221	10.305514	-10.393824	3.756599	3.280402	0.276235	-0.247566	-0.929941	4.884618	-0.125451	17.309956	23.464301	-198.759304	-65.293519	-0.321007	-0.037274	-0.801327	10.615422	-1.334358	-0.165039	-6.977541	-1.803295	-8.452129	-0.418733	-0.242765	0.062246
0.291267	-0.709511	9.962799	-8.404494	3.273502	3.32816	0.288855	-0.244754	-0.891478	3.948367	-0.633702	13.83638	11.149825	-227.191054	-65.369975	-0.334423	-0.008852	-0.774359	10.555285	-1.799326	-0.287931	-9.392613	0.508322	-8.026562	-0.433334	-0.309391	0.096579
-0.171513	-0.308053	9.728168	-7.123997	2.391426	3.034133	0.29187	-0.268426	-0.951611	4.453482	-0.804185	13.224082	-15.089128	-242.761638	-64.251061	-0.387293	-0.087898	-0.739539	10.626696	-1.448038	0.433536	-9.953172	3.407834	-7.610515	-0.460386	-0.244203	0.077563
0.116945	-0.250336	9.847683	-4.770616	2.07726	1.887557	0.290327	-0.213342	-0.965274	4.082067	-1.250505	17.348722	-11.367726	-241.007233	-57.634241	-0.400634	-0.044155	-0.713574	10.274219	-2.14414	0.423966	-8.872357	7.044613	-6.928879	-0.474432	-0.261426	0.093857
0.634669	-0.537435	9.970204	-4.745622	1.499065	1.387406	0.289984	-0.251469	-0.916215	3.834136	-2.99951	13.662051	42.832806	-250.618881	-50.812138	-0.453058	-0.091488	-0.695111	10.577003	-2.143085	0.848817	-6.044112	9.930575	-6.983455	-0.418871	-0.259784	0.078611
0.006849	-0.191847	10.07311	-4.595904	1.196983	0.983385	0.304061	-0.199945	-0.969039	3.453373	-4.974334	9.123179	40.401124	-251.769542	-43.920679	-0.40204	-0.094404	-0.653165	10.172694	-2.140162	1.320369	-1.326766	12.245359	-10.312146	-0.460524	-0.261222	0.093928
0.17956	0.038036	10.134269	-4.87538	0.799311	0.701716	0.289969	-0.23417	-0.933706	-11.352585	-7.315517	5.35669	-11.783356	-212.48993	-52.758548	-0.507179	-0.129933	-0.591552	10.342174	-2.200373	0.904075	3.674495	13.741821	-11.315325	-0.447033	-0.293403	0.095672
0.001406	-0.365378	9.78812	-4.449418	0.466046	0.449732	0.303333	-0.224301	-0.923395	-13.951336	-6.127963	5.020087	-42.3284	-121.196963	8.112504	-0.494794	-0.132001	-0.563129	9.933078	-1.559356	1.198625	7.454893	14.65136	-9.22469	-0.460457	-0.243377	0.062035
0.403632	-0.824959	9.850837	-3.348059	0.44568	-0.013788	0.275463	-0.220024	-0.936773	-11.955976	-7.644071	14.798295	-22.587872	-25.653176	43.453162	-0.533646	-0.116906	-0.563305	9.75765	-2.255863	1.192357	10.859589	14.980527	-7.343817	-0.474223	-0.245234	0.09302
0.120534	-0.594262	10.016794	-0.348032	0.062971	-0.273987	0.27622	-0.230267	-0.947433	-9.784136	-5.789734	14.279402	69.043868	37.245308	74.120865	-0.50836	-0.13422	-0.534154	10.110511	-2.198844	1.1393	12.571648	15.670072	-5.397383	-0.446198	-0.228633	0.092324
0.236198	-0.651545	10.075633	2.19226	-0.259379	-0.623886	0.277364	-0.25428	-0.954677	-4.95559	-8.338856	8.434076	105.952885	43.005093	75.965337	-0.508065	-0.133148	-0.548503	10.160859	-2.259033	0.660898	10.993358	17.417547	-3.352365	-0.474365	-0.243581	0.061965
0.236281	-0.766428	10.075151	5.376746	-0.61189	-0.761454	0.289955	-0.21687	-0.951198	-6.245616	-9.130828	1.83904	76.820829	59.052742	77.859002	-0.520375	-0.115759	-0.577931	10.5693	-2.144815	0.429468	7.662408	20.267321	-2.009163	-0.473806	-0.212849	0.091346
0.000458	-0.595385	9.730302	6.815197	-1.006418	-0.618666	0.319339	-0.241633	-0.959141	-4.779169	-7.611413	3.286534	11.558341	85.290807	77.32754	-0.559008	-0.114912	-0.591453	10.51152	-2.202509	0.488028	4.601725	23.069881	-1.919765	-0.460874	-0.275762	0.063709
-0.115454	-0.193453	9.672911	6.355951	-1.166397	-0.251928	0.305247	-0.275857	-0.923808	-4.616949	-6.70606	8.272786	-18.857193	107.263886	69.659395	-0.59808	-0.085569	-0.578283	10.214258	-1.737473	0.424596	2.728204	25.378151	-3.910535	-0.446336	-0.245652	0.108689
0.068516	-0.133482	10.301877	5.223475	-1.019422	-0.123608	0.305976	-0.251501	-0.969452	-4.533497	-5.071444	9.634721	-13.364765	127.854509	61.48239	-0.544851	-0.11055	-0.649128	9.626703	-1.909856	0.532664	4.168914	26.144738	-6.547707	-0.474294	-0.244408	0.077493
0.173992	0.03683	9.850003	4.767383	-0.437313	-0.143502	0.30369	-0.203474	-0.954963	-4.879405	-4.169462	9.684866	-1.236646	155.725558	58.038912	-0.544035	-0.062445	-0.680838	9.566451	-1.851893	0.471904	7.76625	25.928724	-8.087758	-0.47464	-0.277619	0.094695
0.227124	-0.423709	9.621774	4.953048	0.090507	-0.534143	0.304462	-0.231016	-0.948131	-3.621297	-3.608812	9.372098	5.671327	183.962118	58.140573	-0.556496	-0.075696	-0.708258	9.268785	-1.212628	0.409214	10.593948	24.962437	-8.337875	-0.530347	-0.258938	0.031465
0.111626	-0.596192	9.56197	4.189074	0.393553	-0.465682	0.304447	-0.213716	-0.965623	-3.042471	-4.004109	9.497135	3.577635	206.465666	59.781202	-0.555164	-0.040768	-0.767665	9.092816	-1.676832	0.403935	11.703031	23.757188	-6.777528	-0.43285	-0.259161	0.063012
0.060929	-0.422378	9.902699	4.616345	0.306837	-0.775002	0.318596	-0.24869	-0.930989	-1.245508	-3.556284	10.158026	-1.106599	221.956342	60.73331	-0.57964	-0.035559	-0.838862	8.982487	-1.674831	0.821083	11.555727	23.091465	-4.57339	-0.50211	-0.244816	0.077352
0.007755	0.095602	10.131169	5.780465	0.219732	-0.749101	0.275863	-0.251094	-0.915865	-0.660937	-3.162669	10.623564	-6.329737	231.528899	61.74939	-0.539676	-0.001477	-0.884745	9.223109	-1.267603	1.126749	12.356875	21.915398	-2.981458	-0.488694	-0.257499	0.016148
-0.107701	-0.134323	10.071124	6.696127	-0.265947	-0.91297	0.305247	-0.275857	-0.923808	0.442022	-3.558698	11.042678	-10.841334	236.305608	62.348305	-0.578014	0.000442	-0.912618	8.735438	-1.211908	0.279497	10.292999	21.717786	-2.331234	-0.461016	-0.27411	0.032654
-0.567549	-0.708889	9.946097	8.289711	-0.227079	-0.978262	0.318982	-0.262461	-0.927573	0.855536	-3.390035	11.561039	-16.017559	237.400648	62.786692	-0.4731	-0.009991	-0.971219	8.805169	-1.558274	0.818276	10.411358	21.044545	-2.267326	-0.460599	-0.241725	0.030979
-0.113145	-0.307853	9.786135	9.241926	0.365782	-1.370054	0.30409	-0.234544	-0.934055	1.848223	-3.165976	12.261456	-22.892068	236.146728	63.292817	-0.483194	0.045542	-1.103102	8.443639	-1.675346	0.39183	10.476267	21.007553	-1.625574	-0.447037	-0.274732	0.048252
0.178778	-0.421738	10.075485	9.94522	0.467526	-1.922453	0.346066	-0.221897	-0.938519	3.532426	-3.957207	12.918886	-29.933284	231.465388	63.178867	-0.468886	0.080546	-1.162784	8.498118	-1.618394	0.15355	9.25202	22.010492	-1.411989	-0.447179	-0.273079	0.017196
0.009159	-0.306248	10.186333	10.188414	0.255287	-2.079944	0.304847	-0.244787	-0.944716	4.164006	-3.733118	12.875734	-37.36332	222.923054	62.717837	-0.402826	0.085208	-1.221561	8.858953	-1.675797	0.519347	11.865072	21.662255	-2.336663	-0.488623	-0.258325	0.031676
0.112243	0.093348	9.621719	11.017105	0.568554	-2.261248	0.317839	-0.238447	-0.920329	5.076591	-3.735174	12.498599	-44.372466	210.991315	61.514266	-0.336024	0.122656	-1.311046	8.675166	-1.618799	0.156852	13.157965	20.646299	-1.266811	-0.488903	-0.273692	0.016985
0.177374	-0.019888	10.020321	10.094653	0.103632	-2.296817	0.274334	-0.21331	-0.912037	5.662431	-4.637208	12.906407	-56.581797	198.404576	61.286621	-0.269958	0.187528	-1.359488	8.916848	-2.141035	0.398656	15.488451	18.350477	-0.316853	-0.488832	-0.274518	0.032513
-0.12098	-0.252101	9.388404	9.545596	0.312702	-1.985155	0.247608	-0.233046	-0.932659	6.127921	-4.074528	13.19975	-71.955877	187.39053	62.521197	-0.191292	0.175874	-1.403188	9.093201	-2.315915	0.341309	17.779062	15.481833	-0.189208	-0.488973	-0.272865	0.001457
0.341053	0.38039	9.627379	8.629776	0.924089	-2.064587	0.289627	-0.272297	-0.884647	6.187843	-2.778844	13.428608	-86.972794	176.171396	72.325406	-0.139017	0.192566	-1.419644	8.268366	-1.965074	0.4472	18.644707	12.651654	-1.309656	-0.475274	-0.288854	0.002365
0.287554	-0.193261	9.794412	8.049382	1.197608	-2.027803	0.262872	-0.257434	-0.940252	6.480706	-0.356792	13.889809	-92.583379	163.569636	82.15445	-0.073542	0.255295	-1.439387	8.451457	-2.196547	0.749047	19.292878	9.699642	-2.550975	-0.48932	-0.306077	0.018659
-0.052218	-0.766703	9.955877	9.063327	1.820788	-2.357945	0.290355	-0.247941	-0.93029	7.342678	0.430219	13.908606	-89.830217	152.861132	94.938488	0.030787	0.302928	-1.458954	8.735688	-1.792915	0.217117	18.739148	7.021512	-4.064293	-0.502744	-0.256051	-0.014978
-0.168006	-0.537096	9.897762	12.399583	1.911059	-3.531484	0.277006	-0.275108	-0.92311	9.125158	1.497158	13.946984	-77.117197	145.258833	106.343397	0.080925	0.357007	-1.363623	8.695359	-2.253433	1.172549	18.685494	4.705032	-4.878212	-0.502531	-0.25853	0.031606
0.293204	-0.306937	10.078195	13.619834	1.71383	-4.611606	0.318239	-0.269517	-0.899421	10.616724	2.28284	13.80916	-56.894222	137.501542	113.775324	0.172133	0.434134	-1.370571	8.280201	-1.846202	1.10667	19.101667	2.717911	-4.839675	-0.488485	-0.241307	0.015311
0.064678	0.555093	10.134213	16.834726	1.549332	-5.052898	0.275463	-0.220024	-0.936773	12.943774	3.79816	12.444016	-33.985553	124.330916	115.481935	0.210094	0.355614	-1.337681	8.620667	-2.140607	0.333247	18.409503	1.096103	-5.012799	-0.474995	-0.273488	0.017055
-0.050488	-0.076923	10.072479	19.904208	2.51945	-5.321988	0.303733	-0.255372	-0.902488	15.091475	3.736169	10.6208	-13.578655	103.449756	110.418595	0.235311	0.383189	-1.29719	8.511438	-2.138359	0.810301	17.202005	-0.17185	-4.085522	-0.475621	-0.322065	0.019567
0.018108	-0.361759	10.640917	22.541565	3.621612	-6.569097	0.346466	-0.252967	-0.917611	16.887309	3.899909	8.507323	1.482111	77.111913	99.469033	0.2996	0.38142	-1.26987	8.630146	-2.429009	0.811266	16.552939	-1.071672	-3.070331	-0.489178	-0.307729	0.049715
0.299802	-0.190607	10.419796	27.231564	4.859758	-8.126609	0.29037	-0.26524	-0.912799	22.398986	-0.77733	18.299978	12.818808	46.155789	79.035835	0.325627	0.396891	-1.271425	8.566613	-1.906931	0.63267	17.07505	-2.059358	-2.028392	-0.48932	-0.306077	0.018659
0.586364	-0.592905	10.423674	33.450393	6.301955	-10.789335	0.275878	-0.268394	-0.898374	20.56517	0.395277	2.580373	69.986842	-3.850961	35.636021	0.324892	0.424316	-1.230383	8.751904	-2.13791	1.054331	17.977376	-2.69251	0.355251	-0.474857	-0.256469	0.000691
0.13084	0.556981	10.590152	40.855994	6.520832	-13.506075	0.346852	-0.266738	-0.914196	21.941502	0.845529	5.1007	41.665296	-42.951101	8.77279	0.312501	0.366175	-1.269142	8.574856	-2.137505	1.051029	17.953783	-3.886204	3.386803	-0.460669	-0.240898	0.015452
-0.049831	0.555176	10.131986	44.223777	7.671048	-15.981398	0.290012	-0.286068	-0.881231	23.321262	2.420244	5.187681	48.439079	-77.102937	-27.845197	0.324001	0.360891	-1.197669	8.98961	-2.370507	1.11765	19.563441	-4.947876	6.045112	-0.517207	-0.305659	0.002991
-0.28091	0.325093	10.012861	44.635248	7.097717	-19.457747	0.277764	-0.285351	-0.93377	21.983815	4.393912	4.708419	45.834885	-111.50656	-49.890459	0.259416	0.361587	-1.21064	9.232952	-2.659944	1.480257	23.312217	-6.306414	5.610119	-0.474644	-0.258948	0.047274
-0.161781	0.096209	10.241535	49.058194	7.332264	-24.772926	0.290384	-0.282539	-0.895307	21.512346	7.441153	9.853095	57.407395	-143.619939	-48.35069	0.271952	0.390159	-1.184223	9.060035	-2.542398	1.717078	27.883921	-8.636979	4.810019	-0.489391	-0.30525	0.003132
-0.098343	0.786913	10.586663	46.109719	8.653725	-28.669078	0.30339	-0.293499	-0.853428	16.948963	12.746883	12.196342	128.484499	-184.236118	-11.73627	0.272317	0.346342	-1.209912	9.056464	-2.426987	1.537852	31.069179	-10.167454	3.06365	-0.488556	-0.24048	-0.000217
0.211312	0.791772	11.786145	36.353488	17.543701	-30.612932	0.277778	-0.30265	-0.916278	1.512551	6.918972	13.622041	128.917604	-190.052176	-22.798937	0.207142	0.344895	-1.194184	9.243977	-2.192616	2.141211	31.597928	-10.360442	4.162951	-0.530697	-0.273478	0.001247
0.970836	1.311585	12.598736	25.204848	27.502069	-29.805472	0.333517	-0.311205	-0.889523	0.946978	-3.161108	15.865839	123.016435	-195.659373	25.294224	0.18148	0.285607	-1.218317	9.244132	-1.785837	2.202848	34.080527	-10.567563	7.30307	-0.503086	-0.307933	0.049645
0.117146	2.199968	18.72356	11.126586	40.302508	-7.166784	0.34688	-0.301337	-0.879212	9.483263	0.539319	14.463187	67.387761	-163.2239	50.050998	0.128464	0.23613	-1.171154	10.957551	-1.20825	2.416954	29.43744	-5.604338	13.776072	-0.502251	-0.243163	0.046297
0.842841	1.481097	11.914995	69.312717	38.880605	-12.44861	0.318268	-0.304116	-0.864438	11.052179	2.503968	9.968737	25.69246	-108.924433	8.967413	0.12913	0.253594	-1.200857	11.408232	-0.981724	1.288516	20.222796	-1.673584	9.083569	-0.502531	-0.25853	0.031606
-0.437354	-0.565779	16.598391	-12.883583	78.7996	5.274024	0.335803	-0.359233	-0.904011	6.056392	-0.809919	10.143962	7.845437	-73.561613	-33.730468	0.090202	0.253369	-1.20003	12.513863	-0.871599	0.471222	-0.346737	1.763367	-2.044668	-0.460945	-0.274936	0.048181
2.587015	2.647061	16.272948	30.29277	100.066055	8.99147	0.36403	-0.342682	-0.922202	2.436007	-1.535236	10.293743	0.271601	-54.036542	-27.500562	0.103178	0.253444	-1.200306	11.435585	-1.570036	-0.510063	-8.346529	2.072068	-5.073369	-0.48869	-0.27617	0.063569
0.246328	0.109953	13.545695	22.142807	122.201117	12.502737	0.348781	-0.335593	-0.897116	-0.681479	-0.008729	9.946544	7.413686	-61.031694	-3.889113	0.063805	0.221506	-1.183121	11.257126	-2.383437	-0.696546	-5.988112	0.937254	4.917559	-0.489044	-0.272039	-0.01407
0.668923	0.746345	14.693206	11.630456	135.748058	13.703891	0.405277	-0.354391	-0.881021	0.536442	0.947053	10.482494	25.786633	-81.821187	11.826458	0.05201	0.225718	-1.240245	11.558613	-3.719119	-0.51701	10.356473	-1.269328	19.846184	-0.489044	-0.272039	-0.01407
0.358475	-0.3378	16.33068	24.489233	149.059486	12.656701	0.433504	-0.337841	-0.899212	2.141859	-0.126576	10.118965	54.758241	-100.829082	14.527953	0.051049	0.207182	-1.196192	11.456102	-4.238319	0.257354	13.016265	-3.010377	29.412926	-0.488973	-0.272865	0.001457
0.338888	-0.973999	15.30467	27.94112	166.081463	13.659532	0.403777	-0.351205	-0.842209	3.583435	0.490507	10.319628	67.877157	-107.042019	4.796561	0.036672	0.217068	-1.125171	11.416874	-4.69859	1.272693	13.996922	-4.733983	30.793263	-0.474227	-0.226563	0.0456
0.462305	-0.972152	15.761721	34.636101	181.724047	15.642557	0.475894	-0.373563	-0.865276	17.547315	3.167423	9.709436	34.603113	-64.145247	-19.126911	-0.00159	0.234307	-1.154047	12.358816	-4.178313	1.232618	5.60386	-5.093998	30.183407	-0.502114	-0.226145	0.029932
0.125998	-1.717196	16.093022	50.876932	199.049217	19.312005	0.461402	-0.376717	-0.850851	7.65919	-4.306046	9.438557	44.780062	-21.129419	12.260092	0.01094	0.20267	-1.137966	12.838919	-4.293815	1.660275	16.561703	-5.362857	21.493917	-0.488552	-0.259152	0.047204
0.142824	-1.885902	16.945094	67.1528	214.067996	20.459997	0.503392	-0.381369	-0.837822	2.895911	2.968291	7.986193	88.42795	-18.133175	-18.965295	-0.002777	0.16981	-1.106983	13.541225	-3.657588	1.436573	17.071432	-7.140911	10.221426	-0.488343	-0.242959	0.046367
0.152354	-2.745595	17.396299	84.280966	232.858619	22.341491	0.532748	-0.371533	-0.880748	2.674172	1.673357	8.263465	41.456238	-13.868621	2.125364	0.01138	0.174173	-1.164658	13.406072	-1.97608	0.722659	16.489685	-10.048268	-1.651958	-0.488206	-0.225941	0.030002
0.383107	-3.607142	17.453987	107.246514	251.711867	29.082611	0.601865	-0.387519	-0.826191	4.239679	-0.413497	8.634188	30.302795	-12.859467	-9.773131	0.010934	0.14246	-1.148301	13.23086	-0.871241	0.963682	8.921179	-14.00506	-20.919662	-0.488277	-0.225114	0.014474
0.877852	-5.093234	19.27592	138.334455	271.478283	37.010722	0.574753	-0.393485	-0.850228	3.179376	0.434884	10.254479	20.007608	-11.069434	-8.068103	0.0116	0.159924	-1.178004	13.03638	-0.003157	0.125393	5.847839	-17.208619	-25.690724	-0.544184	-0.259968	0.046923
1.105264	-5.955505	19.163048	166.596175	300.098276	45.305243	0.65989	-0.444102	-0.813924	3.633293	0.095754	9.924028	28.941128	-10.037078	-3.210693	0.011085	0.173101	-1.150308	12.438245	0.112615	-0.304465	10.065196	-18.570609	-13.781855	-0.516439	-0.258734	0.031536
-0.124068	-4.684124	20.735746	190.019124	329.496982	53.043496	0.698851	-0.407783	-0.758255	3.920774	-0.355477	9.873054	28.060117	-11.620995	-6.556553	-0.015388	0.125917	-1.132396	12.130769	-0.238133	-1.030333	11.240637	-19.34626	-6.38679	-0.530343	-0.277609	0.078886
-0.397517	-3.934282	21.415553	221.195698	356.666293	59.956404	0.687817	-0.517577	-0.73058	3.556217	1.44713	9.131003	37.040458	-14.891488	-9.510465	0.011305	0.158852	-1.163654	11.525222	0.224611	-1.81815	11.267516	-18.034745	-8.990832	-0.488273	-0.243785	0.061895
-1.102806	-1.812067	20.558323	236.133458	371.096397	68.333323	0.743556	-0.526131	-0.703825	3.023561	2.743228	8.554817	19.801596	-12.754451	-8.701574	-0.026888	0.131202	-1.203869	11.474895	0.749656	-1.277863	20.869151	-16.194638	-15.054689	-0.474294	-0.244408	0.077493
-7.915685	2.271938	20.61351	204.484459	374.482835	62.593675	0.784446	-0.558668	-0.631077	1.752563	1.337051	8.187198	4.870649	-10.629106	-1.602067	-0.015318	0.081028	-1.143735	10.587046	0.925415	-1.413442	34.953898	-12.680203	-15.855877	-0.474573	-0.259774	0.062802
-1.535526	0.147067	21.922094	191.117793	372.170527	68.879007	0.755104	-0.585803	-0.570659	3.555332	1.278091	9.074221	-3.940896	-10.976223	1.562686	-0.001897	0.112816	-1.160368	9.649121	1.045211	-1.071113	43.032482	-9.417191	-15.106162	-0.460941	-0.293607	0.095602
-0.94079	-1.284802	23.007405	199.290748	366.65807	46.815149	0.840256	-0.653719	-0.516863	3.735904	0.320386	9.36024	-5.372866	-9.286364	2.965606	-0.028289	0.141163	-1.133124	10.06677	0.987178	-0.824029	48.42091	-6.739581	-14.863416	-0.488481	-0.259978	0.062732
-1.306094	-4.149351	24.693138	218.064792	358.829322	46.572354	0.85402	-0.674922	-0.485644	3.798736	0.095146	9.587817	-3.562536	-7.850353	2.580574	0.011154	0.128211	-1.161647	9.729585	0.817469	0.06723	50.916657	-4.36341	-13.080783	-0.516155	-0.262039	0.093647
-1.078292	-6.460247	21.618986	246.426134	341.533529	48.692613	0.894467	-0.62449	-0.486279	3.736443	0.038733	9.360002	-3.398917	-9.478963	3.427704	-0.014722	0.143382	-1.162099	9.315507	0.760091	-0.000628	47.898922	-2.796051	-8.921151	-0.474991	-0.292159	0.064476
-3.545826	-7.333881	18.327973	215.483314	317.415723	40.632494	0.934242	-0.667611	-0.371303	3.84851	0.376406	9.249426	-3.328714	-8.947587	2.014944	-0.028659	0.124771	-1.117771	9.262378	0.122379	0.23518	41.771171	-1.186579	-3.986276	-0.488548	-0.277823	0.094624
7.204913	-14.715404	0.036089	105.873998	314.132438	85.009308	0.906429	-0.732531	-0.314714	3.683821	-0.0173	9.585304	-5.681906	-9.577225	-0.058696	0.011525	0.144604	-1.177	8.90691	0.239094	0.169165	36.146913	-0.218544	-1.922866	-0.488548	-0.277823	0.094624
12.566891	-16.793737	-41.866051	144.477006	110.290626	167.083872	0.948434	-0.754482	-0.284194	3.743804	-0.017313	9.699793	-3.309455	-10.239294	-2.067192	-0.015093	0.126989	-1.146746	9.659524	-0.114579	-0.656709	30.512768	-0.007676	-0.58928	-0.502594	-0.295046	0.110919
12.837399	1.716052	1.919819	-241.718694	-61.123421	43.122226	0.920579	-0.767504	-0.280079	3.617601	0.71482	9.244874	-4.832106	-11.020342	-2.816054	-0.015093	0.126989	-1.146746	9.833946	-0.406106	-0.834365	23.449009	-1.14658	0.633688	-0.487922	-0.229246	0.092113
7.7124	-7.071767	14.569935	-92.924191	-98.665652	57.873926	0.934713	-0.785178	-0.262937	4.08855	0.320024	9.707331	-6.281207	-10.937506	-4.234479	-0.05343	0.128908	-1.174618	9.947597	0.05749	-1.009907	16.009902	-3.797641	3.026656	-0.529366	-0.214492	0.106593
6.917659	-4.451878	9.166629	-104.090351	-87.747527	39.565345	0.922851	-0.798232	-0.31206	3.614622	0.376695	9.074671	-8.786249	-11.297536	-5.627324	-0.014942	0.15763	-1.148753	10.110205	0.111947	-1.785148	10.317422	-7.663029	5.144064	-0.516293	-0.279057	0.110012
5.745407	-4.756634	4.823432	-77.391984	-86.667643	12.246534	0.950334	-0.788739	-0.302098	3.796989	0.376751	9.531415	-10.303822	-11.593753	-5.477352	-0.041045	0.126839	-1.146194	10.394126	-0.29798	-2.440352	6.731574	-12.287892	4.53728	-0.502039	-0.245642	0.09288
5.184506	-4.823594	2.482192	-92.619052	-99.357209	-2.912007	0.938472	-0.801793	-0.351221	3.446761	0.377208	9.297603	-12.640248	-13.155305	-5.679724	-0.015018	0.14231	-1.147749	10.57185	-0.588765	-2.438287	5.42145	-17.048213	3.036556	-0.48869	-0.27617	0.063569
4.954664	-5.22576	2.419196	-113.506308	-126.004974	-15.276644	0.910959	-0.776688	-0.396166	3.9778	-0.073932	9.8745	-14.791781	-14.602316	-4.277764	-0.067072	0.111369	-1.144639	10.279935	-0.529272	-2.263821	6.115528	-21.118224	0.547277	-0.48778	-0.230898	0.123169
5.892834	-3.440669	3.638407	-135.64892	-161.204759	-28.237567	0.981933	-0.775032	-0.411988	4.25598	0.544833	9.484589	-16.447121	-15.890131	-2.812162	-0.067141	0.156258	-1.1333	9.867632	-0.876783	-2.273008	6.816023	-23.586055	-3.080427	-0.502173	-0.281332	0.156665
7.007966	-2.688685	5.084028	-147.554767	-200.640601	-43.659711	0.941058	-0.759795	-0.467244	4.427683	0.431801	9.431481	-18.860375	-15.938018	-0.163372	-0.028659	0.124771	-1.117771	9.235812	-0.290334	-1.264223	6.738711	-23.649666	-5.830404	-0.502523	-0.295872	0.126447
6.869649	-2.738765	6.786039	-150.387704	-236.068736	-59.350975	0.969285	-0.743245	-0.485435	4.30737	-0.018865	9.145486	-19.687482	-15.310214	0.705392	-0.027623	0.158627	-1.162827	8.768624	-0.520569	-1.034388	6.354962	-21.2932	-6.115314	-0.502106	-0.263487	0.124773
5.418318	-3.476466	8.630103	-146.878478	-256.295647	-70.304833	0.942901	-0.724854	-0.555116	3.631307	-0.129663	9.810559	-18.715808	-14.137523	1.457709	-0.05409	0.171654	-1.13458	8.526943	0.001666	-1.276192	5.761661	-18.887337	-5.33005	-0.487989	-0.24709	0.124006
3.932504	-2.727924	8.774849	-145.727162	-260.515041	-74.886825	0.943587	-0.6486	-0.653235	4.366791	-0.356908	9.20305	-13.257601	-9.935302	2.490386	-0.028509	0.155411	-1.119778	7.880641	-0.286734	-1.169719	8.253761	-15.853263	-5.078501	-0.53013	-0.280088	0.125469
2.79707	-3.759113	9.20306	-150.336018	-252.013281	-74.919563	0.888948	-0.612161	-0.73971	3.847971	0.658059	9.249663	-10.29212	-9.728364	4.745297	-0.05387	0.157405	-1.147926	8.119467	-0.054229	-0.984608	8.243789	-12.974747	-5.428381	-0.50183	-0.22945	0.092043
2.225307	-3.298925	9.250709	-160.54291	-238.00236	-72.024009	0.874428	-0.580716	-0.760268	3.737976	-0.130211	9.4165	-8.358708	-8.093024	6.951933	-0.028063	0.187124	-1.136135	8.006242	-0.227198	-0.747923	9.257837	-12.622967	-6.564504	-0.502315	-0.27968	0.12561
1.842176	-3.065009	10.153529	-173.507763	-223.92223	-68.291062	0.847644	-0.531255	-0.850857	4.142573	-0.35624	9.481412	-12.070854	-8.10711	11.295647	-0.053795	0.172726	-1.148929	8.363235	-0.053038	-0.560858	7.025001	-10.83366	-5.862047	-0.502106	-0.263487	0.124773
2.135911	-2.603995	10.558999	-181.723582	-215.47967	-64.694108	0.832738	-0.486039	-0.874831	3.676006	-0.355615	9.188543	0.19009	-6.152713	8.180418	-0.067437	0.155186	-1.118951	8.251515	-0.399988	-0.265008	7.155153	-10.225249	-5.498684	-0.474361	-0.262253	0.109385
2.551743	-1.854168	11.365873	-183.635972	-217.683536	-63.742656	0.762106	-0.449568	-0.908069	3.635495	0.20851	10.037402	-2.801926	-8.359798	6.953751	-0.067286	0.185827	-1.120958	8.494472	-0.050341	0.160226	5.922872	-9.517657	-6.322757	-0.502523	-0.295872	0.126447
2.745485	-1.447376	12.507965	-178.016267	-230.281253	-65.528127	0.789547	-0.388176	-0.950582	4.291791	0.151895	11.126805	-19.47712	-17.589116	7.310996	-0.027843	0.172876	-1.149481	7.781721	-0.456489	-0.154245	5.852601	-7.169655	-5.661357	-0.474428	-0.280098	0.141278
2.232754	-1.906053	12.609719	-170.899314	-244.171539	-66.725304	0.719273	-0.330877	-1.015388	3.705163	2.971645	13.551381	2.204579	-33.290774	-2.168628	-0.093684	0.153964	-1.104049	7.667261	-0.57163	0.022781	5.228757	-4.236442	-5.581412	-0.474357	-0.280924	0.156806
2.426663	-1.729028	13.750845	-165.799657	-252.8256	-66.604416	0.67654	-0.333281	-1.000264	4.300225	-0.07548	8.805601	-2.562742	-43.72417	-1.135549	-0.067066	0.171579	-1.134304	7.665485	-0.281497	-0.03589	3.535597	-1.294752	-3.725053	-0.502106	-0.263487	0.124773
1.571063	-1.555358	13.905426	-166.403085	-256.497488	-65.925996	0.663891	-0.301494	-1.07371	3.556733	0.545794	9.073604	-1.186814	-40.194927	-3.503938	-0.067581	0.184755	-1.106608	7.482374	-0.514879	-0.399622	2.490162	2.14569	-2.545763	-0.488194	-0.281954	0.172263
1.975474	-1.957015	14.082091	-168.507066	-255.855288	-63.731244	0.592102	-0.22371	-1.117195	4.431871	0.769974	9.658324	-2.922041	-40.501388	-2.213608	-0.067141	0.156258	-1.1333	7.358259	-1.213252	-0.824138	-0.246296	5.974629	-1.056566	-0.488615	-0.295668	0.126517
1.709286	-2.009906	15.099637	-171.71724	-255.369974	-61.719963	0.534091	-0.184426	-1.11197	4.432818	-0.356684	9.600736	-4.22903	-43.763532	-3.048615	-0.093533	0.184605	-1.106057	7.237465	-1.446028	-1.007048	0.370431	8.805604	0.486393	-0.516152	-0.28071	0.141067
1.039427	-1.143926	15.999545	-171.237423	-253.983347	-58.999068	0.506579	-0.159321	-1.156915	5.182115	-1.484743	9.558864	0.265267	-45.567156	-9.320954	-0.080633	0.16936	-1.105329	7.306406	-0.979082	-0.404901	1.375958	10.667338	1.237944	-0.515872	-0.265344	0.155758
1.908224	-1.084935	16.528166	-172.734651	-253.537969	-58.189881	0.462303	-0.106642	-1.155455	4.89619	-0.582773	9.723497	3.142573	-46.024832	-18.201435	-0.119705	0.198704	-1.092159	7.183236	-2.083987	-0.831147	0.836072	12.282281	1.660078	-0.502106	-0.263487	0.124773
1.574594	-0.91019	17.033887	-172.772722	-254.770027	-58.087068	0.447025	-0.064954	-1.165353	5.024919	-1.371142	10.291646	13.78615	-47.884699	-27.397712	-0.081298	0.151896	-1.075626	7.306075	-2.257497	-0.590061	2.238915	12.910153	3.546939	-0.502106	-0.263487	0.124773
1.483386	-0.790158	18.226058	-173.238489	-256.197377	-57.219232	0.362273	-0.028108	-1.198242	4.897938	-0.864378	9.779899	21.689093	-51.439123	-36.058003	-0.132907	0.152667	-1.088872	7.550383	-2.48861	-0.1673	3.821219	13.176634	4.945876	-0.488336	-0.280302	0.141208
1.037226	-0.270199	18.844705	-174.109964	-255.37705	-53.951519	0.361858	0.020262	-1.236641	5.130964	-0.414023	9.955033	37.538653	-56.471796	-42.445362	-0.133352	0.120955	-1.072515	7.364956	-2.199556	-0.588713	3.820814	13.487912	4.424804	-0.460382	-0.262875	0.124983
0.038197	-0.779672	20.414377	-180.383451	-252.15793	-47.377619	0.277135	0.022509	-1.234546	3.501501	1.222011	9.242883	38.568806	-60.418859	-41.928905	-0.146473	0.150449	-1.059897	7.063968	-2.025889	-0.893008	0.398952	14.281713	3.394239	-0.459752	-0.232969	0.169893
-2.359074	1.291894	20.831123	-185.83224	-247.572608	-36.152237	0.203889	0.051582	-1.186743	4.779789	0.713092	9.778809	30.288787	-64.920493	-35.661041	-0.146994	0.103415	-1.042537	7.841912	-1.90902	-0.279139	-2.70156	15.207205	4.531914	-0.488056	-0.264935	0.155899
-4.896681	3.025691	22.834966	-188.893335	-242.271254	-27.40734	0.175262	0.066102	-1.189461	4.212775	2.51722	10.334634	31.064994	-69.278964	-33.730873	-0.198458	0.074618	-1.068126	8.001644	-1.564677	-1.172958	-7.702433	16.415042	7.295051	-0.473869	-0.249365	0.17066
10.580109	17.015251	100.597999	-230.174329	-14.97625	55.55039	0.173376	0.083059	-1.154065	4.157819	1.785079	10.389448	11.558656	-76.668433	-20.472169	-0.172356	0.105409	-1.070685	8.989803	-1.22173	-1.931556	-16.379712	17.096236	9.43221	-0.473802	-0.23152	0.138767
-10.271014	26.835855	15.329175	-36.880569	-177.713641	-40.047391	0.130628	0.097954	-1.156433	5.443207	0.093408	11.150936	10.6066	-87.968218	-15.992018	-0.199564	0.085651	-1.011731	9.031212	-1.225821	-2.888966	-25.955526	16.91384	11.943571	-0.501618	-0.231928	0.138626
-22.477272	10.398991	10.930678	137.977516	-212.124392	0.695515	0.117293	0.053487	-1.13176	5.105306	0.601362	11.540586	3.896777	-98.038315	-13.816279	-0.186142	0.117439	-1.028363	8.97067	-1.516561	-3.011117	-38.249863	17.136727	12.781757	-0.460244	-0.245856	0.108618
-33.141534	10.051095	21.633219	73.786284	-234.252967	29.407688	0.129899	0.073598	-1.110789	5.167084	1.55911	11.8258	6.209193	-110.210871	-10.513544	-0.199268	0.086723	-1.02608	9.092523	-2.213248	-2.892069	-43.546003	16.826241	14.3613	-0.48778	-0.230898	0.123169
-34.197506	6.656759	20.177611	96.792671	-196.339346	61.965477	0.073431	0.057797	-1.0919	5.208934	1.558386	11.090694	1.9692	-122.769513	-7.95975	-0.225151	0.041683	-1.036868	8.924643	-3.314805	-2.540626	-54.24251	18.21858	18.03086	-0.488131	-0.245438	0.09295
-34.285317	9.51026	15.811989	87.489018	-101.715636	75.208225	0.074174	0.064854	-1.120052	5.227414	2.009789	11.997307	-5.84192	-134.047221	-1.881702	-0.238931	0.113923	-0.984211	8.60736	-4.467851	-0.69506	-57.315523	19.617602	17.760212	-0.47429	-0.263079	0.124913
-33.615308	13.068001	15.101222	124.243589	-4.087188	58.785223	0.017735	0.014454	-1.06618	5.005914	1.221877	12.331645	-7.649939	-149.475838	2.865229	-0.265549	0.096309	-0.953957	9.330015	-4.059478	0.158573	-51.102083	21.000909	13.329498	-0.488407	-0.279475	0.12568
-29.598292	21.914474	16.012271	152.738881	116.650401	-13.510095	0.061583	0.027443	-1.123532	5.931557	0.71332	12.520479	-7.135368	-167.158475	4.570507	-0.279856	0.061305	-0.894275	10.051164	-3.477124	0.95304	-45.310896	22.799951	9.968269	-0.474499	-0.279271	0.12575
-20.356884	47.433357	21.357497	238.15964	253.040865	-226.857683	0.074217	0.012955	-1.067577	5.939958	2.009349	13.031326	-9.768018	-184.689749	4.887502	-0.305362	0.092868	-0.91008	10.410338	-3.767325	1.198034	-39.685656	23.1961	12.055024	-0.474499	-0.279271	0.12575
-20.569219	28.116536	3.881839	139.994633	299.70379	-290.992246	0.104745	-0.035821	-1.082764	4.275181	2.125325	13.222921	-15.425642	-204.041187	9.808287	-0.344585	0.091571	-0.894903	10.756617	-3.246934	0.847421	-30.645007	19.94985	12.557387	-0.460106	-0.228837	0.092254
-0.416768	4.584335	12.017236	175.505525	205.784767	-166.161269	0.175348	-0.037694	-1.08451	4.410215	2.463899	14.188497	-14.102492	-228.137975	16.475721	-0.359038	0.086137	-0.822879	12.918577	-1.04875	-0.001072	-17.156273	12.878155	8.843851	-0.460315	-0.24503	0.093091
-3.499072	6.944088	12.535532	6.212687	101.847426	-130.745625	0.207018	-0.110484	-1.106941	5.287679	0.209441	14.65785	-15.846629	-255.9816	16.691109	-0.384989	0.085986	-0.822327	16.356792	2.31702	1.335138	14.416174	0.37301	4.387893	-0.474432	-0.261426	0.093857
-11.758702	5.210846	8.61676	-37.464779	57.693711	-37.630922	0.234516	-0.11829	-1.079488	6.855749	-3.849029	14.970274	-8.34623	-284.481013	2.91124	-0.398481	0.099088	-0.794356	20.201458	4.473509	5.368569	40.188092	-16.78571	22.165942	-0.473806	-0.212849	0.091346
3.249821	4.832095	3.451376	-109.728385	113.219243	59.770543	0.260871	-0.102082	-1.04479	8.160301	-7.34266	16.46656	-6.464331	-318.806021	-24.278632	-0.451716	0.06386	-0.733847	20.218789	1.281552	5.894133	33.474203	-40.015605	57.153911	-0.473593	-0.215328	0.13793
7.769406	-3.005322	11.803493	-163.969765	163.618333	76.563878	0.220381	-0.100616	-1.096631	9.156695	-11.341195	19.654353	8.881939	-360.031894	-70.635675	-0.414334	0.103615	-0.651586	12.624593	-4.172178	2.854506	-0.067044	-32.989726	31.529375	-0.50211	-0.244816	0.077352
-6.426705	-7.495648	20.26032	-6.371692	122.412619	47.17548	0.261585	-0.060427	-1.107926	7.910783	-11.957701	20.533469	29.669408	-411.832715	-131.235395	-0.492855	0.0857	-0.620229	8.635695	-7.657335	0.429574	-11.037318	-20.115746	-19.504238	-0.445639	-0.197901	0.121705
-3.513768	-4.19205	14.25005	80.852677	12.747559	-96.227975	0.274963	-0.067858	-1.080123	8.730225	-4.010748	27.294775	23.470413	-477.974413	-169.710812	-0.53415	0.01669	-0.514939	7.81937	-7.840933	-2.281284	-30.365866	-3.604083	-31.674571	-0.48771	-0.231724	0.138697
-0.901832	4.726269	4.790936	122.642441	-17.869701	-59.904756	0.289441	-0.047405	-1.11204	13.354338	6.574669	31.930363	98.430712	-525.844382	-143.466977	-0.575145	0.008962	-0.413664	9.368201	-2.392602	-3.965632	-45.696267	12.170577	11.243011	-0.459965	-0.23049	0.123309
-1.661247	1.243946	9.705733	23.927807	10.425529	-23.239354	0.289841	-0.078475	-1.091132	19.427151	5.259304	22.488951	163.038166	-525.286533	-102.880493	-0.550819	-0.026888	-0.340459	11.223374	5.788583	-4.674348	-46.313713	18.862865	29.462315	-0.473451	-0.21698	0.168985
-0.362832	2.100756	8.825313	23.50802	10.59454	-5.814497	0.261986	-0.091497	-1.087018	18.198963	4.129383	16.064758	155.72724	-518.245135	-83.860854	-0.592774	-0.053153	-0.195131	11.57479	7.414149	-4.600916	-63.245954	19.946262	43.122926	-0.501129	-0.20037	0.15248
-0.980874	1.242001	9.377976	18.996021	2.008371	-9.406694	0.276092	-0.074573	-1.104859	15.568232	0.255019	24.554829	100.454006	-506.820475	-57.283685	-0.632958	-0.072986	-0.135901	11.56808	1.776324	-5.703222	-33.986353	12.442537	15.600819	-0.500712	-0.167985	0.150806
-0.530675	1.297422	8.989154	-1.663971	4.156632	1.391059	0.2639	-0.143053	-1.087431	8.591829	0.323964	23.898842	146.608397	-491.128357	-43.805414	-0.582976	-0.109758	-0.048898	12.691935	0.393172	-2.514282	-23.713874	-1.420717	-30.517421	-0.500783	-0.167159	0.135278
0.077714	-0.533643	10.755012	4.017641	-1.056914	-2.727542	0.261228	-0.081255	-1.076358	10.223659	-2.159364	21.949428	137.124259	-464.180612	16.043187	-0.610034	-0.098875	0.008048	12.809294	0.870996	0.723769	-21.084837	-9.930983	-11.143255	-0.459547	-0.198105	0.121635
0.526385	0.095953	10.31175	7.281839	-2.531831	-4.140995	0.276492	-0.105643	-1.083951	0.857135	-5.246652	14.163687	70.116807	-412.520995	53.004602	-0.534389	-0.076359	0.119185	12.68134	0.591899	3.355135	-23.110618	-24.698536	17.328184	-0.473731	-0.232346	0.154295
0.345714	0.094147	9.853585	5.326103	-2.056575	-3.4836	0.262743	-0.10174	-1.097678	-17.377421	-10.754049	-10.341775	16.456149	-259.123529	15.20611	-0.562188	-0.098261	0.206838	12.990072	1.349674	4.202547	-31.208633	-35.556679	23.584069	-0.486875	-0.166954	0.135348
0.176178	0.094754	9.963951	-3.4017	-1.772863	-2.257796	0.261214	-0.063955	-1.09385	-14.942308	-18.424153	-15.562515	-91.041608	-62.169154	-72.936764	-0.509173	-0.048784	0.159675	11.205822	1.118206	3.389756	-23.283821	-35.668769	1.640104	-0.50148	-0.21491	0.122261
0.356973	-0.075765	10.421392	1.550478	-2.495039	-4.307911	0.27612	-0.109171	-1.069875	-6.709954	-3.491909	7.552293	-122.309678	106.345783	-66.169523	-0.510724	-0.069463	0.232427	10.660351	0.651352	2.539177	-9.79266	-29.580319	-20.62478	-0.445289	-0.183361	0.151924
-0.058739	0.553246	9.677162	-0.2229	-2.171195	-3.776175	0.307019	-0.15442	-1.099138	-2.378491	-4.285761	10.926186	-136.261339	237.514631	-52.483835	-0.510209	-0.08264	0.204732	10.628107	-0.634232	0.616718	-5.095618	-20.384531	-15.124028	-0.445568	-0.198727	0.137233
0.115666	-0.020812	9.791795	-3.838053	-2.567644	-2.821488	0.290227	-0.092246	-1.087716	-3.131541	-4.113174	13.401546	-147.970446	272.809124	-41.630399	-0.495612	-0.106775	0.120365	10.675558	-0.869391	-0.042147	-0.065691	-8.246469	1.79188	-0.48743	-0.216358	0.153387
-0.398676	0.209569	9.839592	-2.790943	-1.982692	-2.477643	0.249008	-0.115136	-1.093913	-2.628281	-3.945722	12.732893	-137.635199	282.440854	-52.808181	-0.508443	-0.136419	0.108298	10.712836	-0.990622	-1.239679	16.320961	2.225026	0.460032	-0.473313	-0.199961	0.15262
0.225721	-0.021859	9.56661	-4.870823	-1.597773	-2.036043	0.30359	-0.082378	-1.077405	-3.072725	-2.481891	10.913196	-117.273884	293.947384	-55.143188	-0.494066	-0.146305	0.037277	10.784787	-0.871639	-0.519201	27.409974	10.705294	-8.269616	-0.487151	-0.200992	0.168078
0.172174	1.013095	9.797252	-8.020589	-1.132272	-1.007361	0.290998	-0.119789	-1.080885	-3.502793	-1.580845	9.716061	-110.646006	297.634522	-53.837319	-0.493771	-0.145233	0.022927	10.144413	-0.868175	-0.052051	29.160803	15.478778	-10.774138	-0.473522	-0.216154	0.153458
0.179969	1.014783	10.195224	-10.370802	0.142931	-0.581186	0.305133	-0.137462	-1.063742	-2.395219	-1.472046	7.701308	-111.880053	302.838878	-51.72121	-0.505566	-0.14102	-0.034196	9.618095	-0.575344	0.238816	22.145607	15.920902	-8.61161	-0.473246	-0.182116	0.120728
0.417112	0.556774	10.595719	-7.264351	1.659763	-0.258795	0.304704	-0.071793	-1.119633	-3.61836	-0.96333	7.053312	-125.899461	316.764457	-41.421444	-0.491039	-0.120265	-0.107224	9.801071	-0.283885	0.602795	16.678822	13.620429	-6.930544	-0.487013	-0.183973	0.151713
-0.912598	-1.685629	9.821607	-1.590848	2.208325	-0.235543	0.304762	-0.140991	-1.049666	-4.002623	-0.623834	7.951368	-139.387644	334.090404	-26.12411	-0.438255	-0.176959	-0.161711	9.327261	-0.980459	0.411304	15.344297	9.809475	-8.618941	-0.45913	-0.16572	0.119961
0.915576	0.725107	9.753668	2.837636	1.053137	-2.260495	0.263129	-0.115511	-1.094262	-3.164954	-0.793101	9.44078	-145.225916	347.52656	-14.434866	-0.476147	-0.143328	-0.20594	8.797526	-0.165438	0.584582	14.838023	5.606132	-10.522364	-0.515037	-0.200574	0.15241
0.633141	0.036739	9.915764	4.885774	1.390901	-4.101012	0.247136	-0.115479	-1.041025	-2.035939	-0.906435	11.106203	-143.218729	355.451229	-5.815078	-0.487572	-0.122723	-0.278417	7.908287	-0.33863	0.327706	13.958483	2.125217	-8.455011	-0.473317	-0.18129	0.1052
-1.551927	-0.82548	9.358154	4.459485	3.102429	-6.126782	0.318111	-0.113823	-1.056847	-1.10971	-0.457278	11.409123	-128.760299	357.553605	-4.549391	-0.474972	-0.19925	-0.273675	7.534652	-0.458422	-0.757715	13.08386	-1.116584	-5.838677	-0.501129	-0.20037	0.15248
2.015446	2.565344	10.464783	17.19785	1.345314	-5.885321	0.276878	-0.119414	-1.080536	-0.489118	-0.177285	10.856262	-121.287794	354.762669	-3.091456	-0.433601	-0.11492	-0.379968	7.654055	-0.574597	-0.696102	13.989698	-3.995242	-5.186427	-0.472616	-0.15221	0.165637
0.447104	1.297683	9.235495	9.206688	3.602963	-7.665773	0.291013	-0.137088	-1.063393	0.593506	-0.686782	10.312409	-122.670924	348.104389	-2.912291	-0.381182	-0.127796	-0.408767	7.241638	-0.399176	-0.643157	14.309266	-5.136531	-7.107505	-0.500365	-0.134774	0.133604
-0.630993	0.151569	9.664338	12.726583	3.256551	-8.202916	0.276878	-0.119414	-1.080536	0.998235	-0.349458	10.434435	-131.546564	338.069485	-1.601332	-0.366655	-0.107041	-0.481795	6.949048	-0.049303	-0.467455	13.348428	-5.192635	-7.928906	-0.486733	-0.168607	0.166404
-0.39822	-0.422288	9.836938	9.513544	3.665857	-7.665634	0.290641	-0.140616	-1.049317	1.35209	-0.349773	10.838165	-144.838153	326.099284	1.567321	-0.340338	-0.150709	-0.508035	7.257989	-0.802247	0.193809	14.807904	-4.337562	-7.29649	-0.487084	-0.183147	0.136185
1.426453	0.666327	9.536036	7.74618	4.629836	-6.663463	0.276892	-0.136713	-1.063044	1.596403	-0.743996	11.465705	-159.85246	317.543795	7.943971	-0.351468	-0.129032	-0.594861	6.727114	-0.917184	0.183411	15.079477	-2.73848	-5.074125	-0.4729	-0.148905	0.103526
0.918259	0.093733	9.86472	6.706599	5.650922	-7.686629	0.247879	-0.108422	-1.069177	1.802193	-0.348678	13.055572	-167.900153	312.468739	15.008392	-0.351317	-0.098391	-0.596869	7.03486	-0.682588	0.908785	16.38435	-1.789975	-4.655513	-0.514691	-0.167363	0.135208
-0.111374	0.324486	9.902495	10.996799	6.57954	-9.21736	0.303276	-0.155104	-0.993362	2.276768	-0.743332	13.687947	-172.347269	311.247842	24.673058	-0.272281	-0.093654	-0.655922	6.609642	-0.684362	0.242106	16.30086	-1.372777	-3.618099	-0.486875	-0.166954	0.135348
-0.398096	-0.594613	9.836214	15.40545	6.61266	-10.333624	0.263129	-0.115511	-1.094262	2.756609	-1.363119	14.546691	-176.421923	312.772262	36.462021	-0.258639	-0.076114	-0.685901	7.150286	-0.509125	0.791914	13.256012	-1.460695	-2.078544	-0.487084	-0.183147	0.136185
-0.102466	0.326416	10.35732	21.370084	5.921442	-11.98754	0.304362	-0.10992	-1.070574	3.869478	-1.251747	15.475989	-173.780761	315.018685	49.127126	-0.244772	-0.012614	-0.71889	6.67445	-0.334558	0.604131	15.034503	-3.267211	-1.281739	-0.486595	-0.151588	0.150039
0.298398	0.211243	10.364632	28.446306	6.149312	-12.924316	0.319997	-0.13078	-1.092243	4.713623	-1.646099	17.248409	-164.044361	316.676361	67.311333	-0.16588	0.021693	-0.765601	6.860687	-0.972069	1.024061	14.413588	-5.062171	0.532281	-0.472967	-0.16675	0.135418
0.177084	0.382203	10.02201	31.243523	7.013416	-12.090228	0.305519	-0.151233	-1.060326	5.255219	-1.927821	18.335205	-145.277576	316.281009	84.650507	-0.153199	0.020696	-0.751527	6.384021	-0.913901	0.775877	13.75195	-7.42831	1.371174	-0.501133	-0.181698	0.105059
-0.274478	0.671189	10.355427	39.13977	7.108529	-14.534378	0.333731	-0.117384	-1.096008	6.08913	-2.660583	19.597584	-130.643483	314.871221	108.760459	-0.126507	0.053631	-0.782786	7.034279	-1.379995	0.786004	9.122309	-8.523087	2.126685	-0.486524	-0.152414	0.165567
-0.373972	-0.072331	11.089154	45.855759	8.062141	-14.568887	0.263157	-0.15011	-1.059279	7.358765	-2.43749	19.794289	-114.038881	310.432933	131.794548	-0.086983	0.116209	-0.801977	7.088083	-1.032663	0.54896	8.047164	-9.186649	3.814744	-0.486737	-0.149936	0.118983
-0.09768	-0.132151	10.582802	53.487733	10.249132	-17.285022	0.317367	-0.12088	-1.028695	8.999412	-1.315049	18.584224	-109.586028	301.182618	160.446129	-0.073486	0.163318	-0.819613	6.97926	-1.204643	1.025273	8.030635	-8.717213	5.738098	-0.459059	-0.166546	0.135489
0.313645	0.054641	14.058245	63.416782	15.462478	-9.499937	0.305519	-0.151233	-1.060326	12.332377	-1.434198	18.371048	-140.116313	285.552695	198.197968	-0.033892	0.181007	-0.850144	7.211057	-1.264248	0.7898	10.782284	-8.473044	6.735592	-0.500503	-0.151792	0.149969
-1.07374	-0.062142	13.348802	69.009324	31.891365	-0.600387	0.276135	-0.126471	-1.052384	19.54008	-0.151499	19.202928	-163.135236	271.30564	221.291615	0.004891	0.210801	-0.838628	6.923835	-0.855063	1.265284	10.709165	-8.106624	9.729467	-0.528669	-0.16674	0.11961
-0.723113	1.535315	10.861817	86.134165	28.146456	-2.12131	0.319282	-0.172436	-1.029108	27.921029	2.932616	21.249935	-170.520874	265.773058	238.59474	0.032174	0.245879	-0.898586	6.692982	-1.20199	1.499026	9.651966	-8.307574	14.013464	-0.528185	-0.116511	0.086043
-1.374037	0.854234	12.664858	41.379837	44.695569	18.85369	0.306305	-0.196075	-1.036003	55.422888	26.297309	66.403498	-275.802477	197.581753	217.505773	0.122415	0.244261	-0.871817	7.283259	-1.726272	1.447898	11.380331	-8.984155	20.888041	-0.473246	-0.182116	0.120728
2.515612	3.735597	15.594182	63.735386	64.00254	16.404648	0.334546	-0.196824	-1.036701	31.112032	3.134076	0.936029	-18.237882	184.596182	196.581026	0.149704	0.339549	-0.921439	7.341519	-3.295448	1.202696	17.807281	-8.827781	28.689663	-0.486457	-0.134569	0.133674
0.239103	2.406408	13.271082	66.342459	77.94111	10.398629	0.305933	-0.199603	-1.021927	40.832686	8.751392	3.975849	32.964792	150.940744	182.131669	0.149259	0.307837	-0.905082	8.175023	-3.586235	1.576307	20.287197	-6.729239	33.653653	-0.458642	-0.134161	0.133814
0.835237	2.123852	14.474925	51.871098	91.499453	9.188736	0.350953	-0.245226	-1.051539	45.646262	7.950426	0.283089	-0.896976	95.58844	142.389048	0.214138	0.308212	-0.906461	9.067043	-2.715142	2.075778	13.03491	-5.126016	35.842837	-0.500369	-0.116102	0.086183
1.902189	2.648041	16.373292	56.080024	109.116264	7.163046	0.390285	-0.205379	-1.009946	48.752222	6.761476	0.120816	4.584798	27.923274	80.697824	0.201533	0.324529	-0.921539	10.310669	-2.194058	2.400646	-0.170628	-4.067025	38.331376	-0.486808	-0.149109	0.103455
1.871462	3.560592	14.84212	54.467568	131.965983	4.441858	0.363544	-0.207816	-1.04806	47.627555	8.004041	1.457031	13.145951	-40.267908	21.508903	0.213177	0.289676	-0.862408	11.186163	-1.791529	1.939629	-6.940822	-2.653515	44.249739	-0.472341	-0.118173	0.132907
1.531151	3.733889	15.006722	46.563747	147.922257	-5.335023	0.378451	-0.253032	-1.024086	42.784342	15.059367	7.022953	56.623712	-108.444543	0.334299	0.188777	0.310205	-0.934609	11.29396	-3.072438	1.217508	-6.085827	-1.603316	52.435645	-0.458437	-0.099297	0.085557
2.992742	3.509601	16.568627	25.285981	172.408937	-9.077215	0.404806	-0.236824	-0.989388	33.843161	26.516031	12.393462	134.039624	-228.78076	60.152002	0.23994	0.277721	-0.905005	12.420729	-4.003478	1.414181	-4.115317	1.24115	59.050025	-0.471786	-0.068769	0.114868
1.90178	1.671294	16.312337	23.780769	196.92833	-10.544926	0.463174	-0.255279	-1.026181	-0.194246	26.468788	13.603439	197.258786	-327.654679	95.295706	0.17543	0.293738	-0.91898	12.821001	-5.111329	0.57849	5.659968	4.692814	59.915448	-0.499885	-0.065872	0.052616
1.899211	1.510832	19.096301	13.744477	224.478306	-12.153439	0.462417	-0.245037	-1.015521	4.845532	0.32606	18.21536	168.145006	-308.956799	40.175599	0.123671	0.263869	-0.930219	13.574466	-4.883747	-0.125098	25.149238	11.066393	56.664962	-0.471994	-0.084962	0.115705
1.85346	-1.174362	22.493918	24.604286	258.896968	-10.091251	0.547154	-0.264583	-1.000124	18.101899	5.817984	14.365784	86.659235	-212.812843	89.779357	0.097054	0.246255	-0.899965	15.662158	-2.282109	-1.75175	10.821543	15.348272	63.637541	-0.485764	-0.068147	0.09927
1.792244	-4.035258	25.094867	58.31831	293.772445	-1.493593	0.53302	-0.246909	-1.017267	9.393502	1.716461	7.66864	2.867566	-172.347243	5.482693	0.056644	0.18046	-0.837724	17.008104	0.546036	-5.187825	-26.563929	16.919532	52.635443	-0.457602	-0.034528	0.082208
1.966809	-7.009756	28.040907	99.630252	340.297629	13.77257	0.574281	-0.275917	-0.958595	0.976598	-2.941706	9.186182	-1.188313	-154.673951	-58.09416	0.070361	0.21332	-0.868707	16.495434	1.409603	-7.289661	-51.847156	18.24457	16.340869	-0.470813	0.013019	0.095155
2.524925	-8.621911	27.249342	161.487439	393.143477	36.777262	0.589945	-0.331376	-0.945281	0.837231	-5.585442	13.200529	13.118282	-151.884427	-6.174591	0.018162	0.211948	-0.853254	14.591953	-0.958405	-5.239371	-61.884748	17.017102	-13.385506	-0.472136	-0.083309	0.08465
3.45499	-8.861791	25.050035	208.402221	444.196893	59.24095	0.659047	-0.330063	-0.908215	4.477069	-6.666806	8.407202	74.356977	-96.549587	17.48419	0.004966	0.226121	-0.839632	12.193755	-3.839971	-1.284189	-41.294582	10.968029	-21.834826	-0.485209	-0.018743	0.081231
3.152123	-4.384038	24.381053	236.816219	487.031357	78.433343	0.714043	-0.345674	-0.853308	10.090857	-1.329017	5.019734	111.91004	-50.424509	12.331168	0.031138	0.212023	-0.85353	11.656665	-4.407761	1.517958	2.539447	5.460657	-9.560321	-0.499605	-0.050506	0.067307
-2.099086	1.585691	22.42867	258.96903	514.263152	88.161802	0.772083	-0.419556	-0.82355	2.55242	3.870368	8.149617	19.168008	-20.611795	-27.677137	-0.00772	0.166908	-0.864041	12.09575	-1.846191	3.27384	24.213022	7.510962	3.737635	-0.485626	-0.051128	0.082905
-3.559823	5.257196	21.051802	224.491837	497.858365	78.951611	0.826336	-0.442224	-0.740491	3.378447	0.940242	8.843751	6.134838	-28.101867	-4.85756	0.005036	0.181232	-0.850971	12.301744	2.562597	2.218707	26.863252	14.147501	10.695668	-0.499259	-0.017295	0.050105
1.962586	4.741792	22.464146	205.572131	478.564449	54.841985	0.854277	-0.532999	-0.639654	4.181013	-0.469767	8.576292	13.693321	-15.199439	11.091713	-0.008085	0.210726	-0.838353	11.280052	2.909393	1.242972	6.618677	19.574968	5.424801	-0.485351	-0.017091	0.050175
1.172196	-1.205168	28.618221	184.002287	452.140798	30.559137	0.88289	-0.530219	-0.654429	3.947256	0.093874	8.458652	0.431719	-7.152172	2.035821	-0.00801	0.226046	-0.839356	11.550188	1.799092	-0.253895	6.450126	25.691423	-0.380276	-0.486186	-0.081861	0.053524
-0.479138	-5.663035	20.099579	196.24948	423.566897	22.760921	0.923051	-0.587112	-0.536037	3.881772	-0.57998	10.721249	-8.840751	-5.068643	3.035582	-0.007865	0.196477	-0.851699	11.765958	0.108908	-1.574615	13.778853	27.696252	0.56163	-0.527563	-0.049262	0.036111
8.550709	-11.972572	10.416963	94.057069	404.752788	19.222692	0.935699	-0.618899	-0.462591	3.906937	-0.074346	9.250255	4.64456	-3.872891	1.085316	-0.008456	0.194334	-0.822999	12.00685	0.399984	-1.269442	11.299841	28.897412	7.80852	-0.513726	-0.048232	0.020653
16.873614	-30.594677	-44.625142	74.385807	196.015797	195.973467	0.963183	-0.609405	-0.452629	3.625347	-0.805914	9.470152	1.724712	-2.485756	3.686332	-0.033522	0.197399	-0.865497	11.601015	0.112033	-0.91894	0.454353	30.023184	7.628475	-0.555308	-0.050496	0.051498
17.518654	0.868058	-7.483379	-269.992209	-36.668561	149.343877	0.976589	-0.651435	-0.389843	3.39949	-0.579971	9.692065	4.611469	-1.490628	2.465418	-0.021802	0.177866	-0.80737	10.654961	-0.060529	-1.057103	-8.245189	27.75836	-1.192672	-0.527913	-0.063802	0.005892
15.628577	-6.072671	21.377283	-146.061826	-202.516097	148.961959	0.921236	-0.656651	-0.413182	4.277454	-1.200702	10.332713	10.117084	-1.042812	0.932891	-0.020471	0.212795	-0.866776	10.599226	-0.524508	-0.940367	-14.990372	23.276909	0.900852	-0.513934	-0.064424	0.021491
13.3069	-1.276887	14.078045	-90.060823	-194.976221	144.449773	0.922751	-0.677137	-0.434502	3.637543	-0.86177	10.036501	16.779868	-2.041163	-2.277792	-0.033892	0.181007	-0.850144	9.99916	-0.525383	-1.490534	-18.876848	17.428501	8.981192	-0.541612	-0.047814	0.004985
9.269887	-4.292633	6.542025	-21.898479	-168.470181	97.24438	0.894081	-0.610719	-0.489695	3.742464	-0.580713	9.586039	18.019171	-1.777545	-2.674937	-0.00772	0.166908	-0.864041	10.341557	-0.703141	-2.143649	-22.446306	10.071176	15.203533	-0.527842	-0.064628	0.02142
6.44126	-5.514528	2.333234	-18.590413	-156.863891	70.571682	0.85362	-0.643851	-0.506552	3.269552	0.20835	9.067275	14.839078	-1.636744	-2.244505	-0.020621	0.182154	-0.864769	9.98769	-1.748193	-2.274515	-27.327288	1.309722	14.804533	-0.528051	-0.080821	0.022257
4.529469	-5.34566	1.160151	-69.53278	-144.66004	53.012934	0.866997	-0.651282	-0.478749	3.148293	0.884342	8.838868	8.349742	-1.757371	-1.079462	-0.033667	0.226968	-0.853155	8.912599	-1.922958	-3.013948	-30.152257	-6.901062	6.265064	-0.541754	-0.046161	-0.02607
5.213177	-3.795719	1.066322	-108.030533	-151.208431	28.979579	0.853234	-0.63008	-0.509968	3.086754	0.433616	8.610722	-0.774217	-2.556696	0.292512	-0.020771	0.151513	-0.862762	8.44157	-1.92163	-2.962844	-32.539724	-12.634025	0.830164	-0.514005	-0.063598	0.005963
7.649035	-2.239541	2.768344	-141.434712	-178.993789	2.865818	0.854749	-0.650566	-0.531288	3.782375	0.432512	8.851787	-8.172973	-3.673006	1.909352	-0.008386	0.149444	-0.834338	8.080776	-0.934517	-3.204872	-37.73025	-16.328958	-1.517298	-0.4994	-0.015642	0.019049
7.926881	-1.999326	5.275299	-159.37545	-222.072708	-27.654981	0.798609	-0.61094	-0.57895	3.68041	-0.130103	9.415291	-14.233526	-4.148285	1.868921	-0.033082	0.168902	-0.892189	7.802472	-1.046285	-2.312265	-43.814596	-17.543583	-7.418449	-0.513934	-0.064424	0.021491
6.977627	-2.03841	9.40529	-152.652507	-256.85629	-55.816593	0.784875	-0.624337	-0.575185	3.795194	-0.58101	9.36069	-15.268535	-5.473006	0.806759	-0.047759	0.117506	-0.817154	6.629893	-0.112143	-1.791156	-50.023253	-15.338127	-12.846237	-0.541683	-0.046987	-0.010543
4.822333	-2.492025	10.384403	-134.493434	-274.598853	-73.767226	0.78446	-0.575967	-0.613585	3.747623	-0.749514	9.812455	-14.468561	-5.881068	-0.8922	-0.00816	0.195406	-0.837349	6.516532	-0.227036	-1.554224	-49.66443	-12.580305	-13.227414	-0.569708	-0.063588	-0.009846
2.581455	-3.813494	9.880602	-127.462277	-278.263292	-81.486843	0.742056	-0.522945	-0.665012	3.635233	-0.918196	9.923174	-4.760789	-7.888528	-3.308931	-0.033667	0.226968	-0.853155	6.350603	-0.74709	-1.020588	-47.676026	-8.687433	-10.411116	-0.542172	-0.078546	-0.024396
0.690329	-4.501907	9.727255	-131.611443	-271.792971	-78.516327	0.772169	-0.523352	-0.718599	4.134435	-0.525563	9.084793	1.173536	-7.713822	-4.44305	-0.021507	0.178938	-0.82172	6.722597	-0.395241	0.005915	-46.205396	-5.71202	-10.736245	-0.541683	-0.046987	-0.010543
-0.224794	-4.271237	9.767257	-145.445931	-258.048348	-69.815848	0.70118	-0.507708	-0.720269	4.439425	-0.018416	9.940858	4.94129	-7.758603	-4.347981	0.00378	0.161624	-0.792568	6.601534	-0.511865	-0.176501	-45.444999	-3.233571	-10.567465	-0.541888	-0.081851	0.037715
-0.389509	-3.235476	10.166232	-164.044137	-241.605387	-59.616369	0.673668	-0.482603	-0.765214	4.026234	-0.356072	9.422355	6.170668	-8.377458	-5.80205	-0.020916	0.181082	-0.850419	7.376291	-0.918669	0.195516	-44.129483	-1.684951	-9.021035	-0.527842	-0.064628	0.02142
-0.412659	-2.65354	11.929977	-176.120429	-231.371895	-49.997272	0.67251	-0.44129	-0.775461	3.96515	-0.412437	9.251179	8.197769	-9.35835	-6.611693	-0.035073	0.176719	-0.792745	7.196637	-0.74453	0.073142	-43.671957	-0.677093	-5.757468	-0.541821	-0.064006	0.005822
0.461823	-1.214505	12.805509	-177.195531	-230.396974	-44.18047	0.674397	-0.458247	-0.810858	4.36502	-0.694986	9.089486	5.779203	-10.151165	-7.29973	-0.020916	0.181082	-0.850419	7.256058	-0.918894	0.073501	-40.456455	-0.838682	-3.812394	-0.514214	-0.07979	0.0068
0.528809	-0.810284	13.319989	-171.892706	-238.352495	-40.429113	0.631978	-0.387926	-0.879777	3.736767	-0.130258	9.35986	1.881097	-10.773362	-8.819605	-0.020771	0.151513	-0.862762	7.4983	-1.208578	0.376201	-39.172411	-0.313474	-0.916133	-0.528051	-0.080821	0.022257
0.706839	-0.234546	13.666861	-169.490701	-253.327794	-37.458336	0.603337	-0.356107	-0.899986	3.505751	0.264487	9.355356	-0.465381	-12.96053	-7.147722	-0.034778	0.177791	-0.807094	7.547952	-1.443242	-0.162849	-35.276024	0.112359	0.656989	-0.542443	-0.131255	0.055754
-0.178303	0.117522	15.24238	-162.998408	-265.807406	-35.900532	0.588459	-0.345489	-0.888977	3.617686	0.038807	9.187666	-4.311141	-14.117392	-6.514937	0.004144	0.117807	-0.818257	7.142137	-1.266338	0.249538	-32.608126	1.332239	1.925158	-0.514281	-0.097635	0.038693
-0.219886	0.006058	16.036727	-155.639576	-269.966078	-37.891061	0.588401	-0.276292	-0.958944	4.315809	-0.638216	9.484802	-5.000843	-14.894114	-6.307421	-0.046353	0.167755	-0.877564	7.378317	-1.78981	0.191807	-29.480956	4.115678	5.965537	-0.528401	-0.095361	-0.007961
-1.022478	-0.108486	15.963803	-149.459267	-265.21615	-41.788814	0.518528	-0.250063	-1.002842	4.369878	-0.075113	9.373206	-4.686418	-16.91227	-6.573855	-0.034187	0.179935	-0.835794	7.201964	-1.614929	0.249155	-23.693079	7.915676	10.236081	-0.542514	-0.130428	0.040226
-1.295922	-0.909807	16.580241	-147.150936	-256.16716	-46.525995	0.476552	-0.262711	-0.998378	3.858373	-0.355559	9.645286	-7.199314	-17.800113	-6.985464	-0.033747	0.151438	-0.862486	6.836572	-1.965295	-0.417907	-19.122028	11.273368	12.495923	-0.556213	-0.11444	0.039319
-0.883923	-1.022567	17.156084	-148.392419	-245.593178	-51.565776	0.433047	-0.237573	-0.990086	3.74171	-0.186399	9.586371	-3.721538	-18.942218	-8.473746	-0.021877	0.162546	-0.806367	7.326153	-2.369199	0.487769	-13.780367	14.665438	14.661151	-0.556564	-0.12898	0.0091
-1.03931	-2.110455	17.944101	-151.332941	-232.450387	-55.976204	0.447882	-0.196292	-1.053571	3.913066	-0.750122	9.476244	-1.674489	-20.69614	-8.273744	-0.06088	0.147	-0.804536	7.907221	-2.72123	-0.041872	-9.279168	17.324771	16.405022	-0.528331	-0.096187	0.007567
-1.509718	-1.940452	17.310533	-154.618821	-221.323457	-59.160653	0.376136	-0.170406	-1.044581	4.086432	-0.468746	9.536748	1.581972	-22.038711	-7.66792	-0.021061	0.210651	-0.838077	8.033766	-3.068226	0.378194	-5.506622	18.03153	17.396695	-0.527496	-0.031417	0.004218
-1.082664	-2.854258	18.622088	-167.658602	-215.20246	-61.692788	0.333389	-0.155511	-1.046949	3.962755	0.207152	9.195062	3.707258	-22.417203	-6.621833	-0.033967	0.165687	-0.84914	8.490084	-2.898539	-0.450958	-2.474388	18.239523	19.035354	-0.528401	-0.095361	-0.007961
-1.477013	-2.507871	18.95686	-173.786612	-213.311569	-62.748902	0.333374	-0.138212	-1.064441	4.026365	0.207281	9.479468	1.588482	-23.597139	-3.799114	-0.047979	0.131755	-0.803808	8.257726	-3.071485	-0.27638	-0.852032	17.929602	22.943662	-0.570125	-0.095973	-0.008172
-1.107052	-2.100239	20.329704	-178.205579	-211.23035	-66.322597	0.277635	-0.129657	-1.091196	3.61747	0.151468	9.187761	-0.903067	-24.878224	-0.299467	-0.034407	0.194184	-0.822448	8.722287	-3.132372	-0.687172	-3.088179	17.986802	25.519268	-0.556146	-0.096595	0.007426
-2.629296	-0.88754	21.555476	-179.551341	-204.007211	-69.054659	0.317696	-0.065454	-1.095246	3.612874	0.6583	9.018269	-1.732791	-24.178308	3.622005	-0.034112	0.195255	-0.836798	8.769759	-2.902675	-1.284152	-10.943443	18.348978	26.249087	-0.514561	-0.113001	0.024002
-3.087243	1.168582	18.713714	-180.466372	-194.400023	-67.576689	0.204689	-0.010559	-1.144928	4.187966	0.319192	8.973434	-2.711106	-20.224734	11.49098	-0.07289	0.225671	-0.837978	8.944161	-3.659058	-1.523692	-15.61203	17.767048	24.709753	-0.556355	-0.112788	0.008263
-20.947847	11.855465	16.024473	-140.620543	-90.990554	-17.359493	0.189468	-0.038069	-1.084859	4.783046	-0.357141	9.834548	-1.157186	-21.520407	15.702912	-0.086462	0.163243	-0.819338	9.001111	-3.717763	-1.642653	-19.231266	16.721174	24.024772	-0.500377	-0.07876	-0.008658
-10.17702	5.242379	16.319764	-189.149111	-168.547713	-77.839451	0.160455	-0.009777	-1.090993	4.725026	-0.751394	9.776367	-6.446285	-22.048884	15.909205	-0.073185	0.224599	-0.823628	9.521522	-3.837603	-2.232312	-21.015862	15.648834	20.612702	-0.528335	-0.077516	-0.039854
-11.964443	9.000124	21.642895	-75.303764	-219.75438	-75.531927	0.160841	-0.023548	-1.087577	4.603828	-1.371099	9.43359	11.300483	-14.226307	7.677481	-0.086682	0.177491	-0.805992	9.352467	-3.486764	-1.754875	-20.63196	13.626322	9.250216	-0.528401	-0.095361	-0.007961
-16.69975	13.488347	22.592653	-154.618157	-228.572457	-62.867863	0.116593	-0.005468	-1.051133	5.001435	-0.470707	9.272892	11.266107	-9.886105	5.069358	-0.099142	0.164239	-0.833412	9.419456	-3.60132	-1.334921	-29.008857	13.041361	-5.112004	-0.527913	-0.063802	0.005892
-21.752542	11.568114	15.837118	-130.193848	-238.913647	-44.423319	0.08911	-0.014961	-1.061095	4.280803	0.207798	10.617096	-8.427501	-23.06841	8.498551	-0.07363	0.192887	-0.807271	8.718966	-3.597969	-0.928778	-36.27316	14.508378	-16.369427	-0.541892	-0.06318	-0.009706
-25.832065	3.192595	17.597867	-77.539063	-218.355364	-15.469265	0.045205	0.041247	-1.07371	3.987232	-0.580575	10.27055	-38.370896	-44.533218	20.315192	-0.086236	0.209204	-0.822349	8.667788	-3.65418	-0.510777	-42.025476	16.699429	-17.245252	-0.542447	-0.112583	0.008334
-25.955891	2.214	17.07986	-25.182678	-191.722121	25.415688	0.017006	-0.009902	-1.020537	4.505112	1.857404	29.362553	-32.716442	-47.985662	-17.787371	-0.099658	0.177416	-0.805716	8.732846	-3.885383	-0.211131	-36.353239	19.3973	-9.944376	-0.514911	-0.127541	-0.006217
-28.428662	5.787814	19.547364	-38.237778	-98.717236	63.080736	-0.012392	0.03216	-1.030086	5.525765	-1.595761	12.170235	51.272726	-129.219503	-33.32381	-0.060875	0.20721	-0.794201	9.504728	-4.002301	0.042308	-27.830713	22.389599	-0.54599	-0.514844	-0.109696	-0.03811
-26.678854	18.937264	18.841199	-21.768536	19.546087	115.712928	-0.041005	0.029381	-1.015311	4.651671	-0.859843	14.417093	-16.477655	-149.728496	-32.071593	-0.125754	0.206835	-0.792822	9.792625	-4.701866	-0.434412	-25.716309	24.388084	11.051196	-0.542239	-0.096391	0.007496
-23.660219	23.565014	27.04617	64.989614	109.853479	135.255936	0.002872	0.007772	-1.037679	4.194821	0.380528	14.691663	14.549048	-163.92421	-39.678334	-0.126866	0.157658	-0.746762	10.144231	-5.051874	-0.609013	-23.160109	24.529983	15.962414	-0.514982	-0.126715	-0.021745
-19.936404	32.754896	27.611981	283.527433	156.114522	70.67836	0.03187	-0.00322	-1.049038	3.424604	0.437406	13.656482	-4.065325	-184.249524	-32.68194	-0.127236	0.141266	-0.731408	10.433114	-5.228261	-0.963694	-28.470856	24.029287	15.219874	-0.542451	-0.093912	-0.039087
-6.599511	42.983143	31.040184	503.712695	199.089965	-140.143859	0.017792	-0.054744	-0.996213	4.642371	0.210152	14.078156	-3.464682	-204.853412	-30.635773	-0.165718	0.172753	-0.746938	10.492826	-5.053921	-0.901945	-32.485927	22.134467	16.618967	-0.514702	-0.111349	-0.007054
14.285941	18.034685	3.494369	388.479439	339.281929	-225.272425	0.077661	-0.076385	-1.071818	4.021558	0.434797	11.970592	-5.583136	-225.783103	-31.400184	-0.17914	0.140966	-0.730305	10.243846	-4.707644	-1.56384	-31.116457	19.813421	16.716784	-0.541754	-0.046161	-0.02607
10.018574	5.072211	7.164364	244.598434	317.815565	-234.573324	0.094468	-0.155858	-1.065748	3.660179	1.451208	14.002009	-20.321763	-247.611341	-27.683009	-0.205457	0.184633	-0.704065	11.139573	-4.010038	-0.88539	-28.121283	16.482596	5.565385	-0.528331	-0.096187	0.007567
-12.160967	16.528566	8.997622	58.930452	246.843354	-219.347826	0.178463	-0.182461	-1.0222	3.749713	1.170681	15.47561	-31.49522	-277.603047	-18.371819	-0.231999	0.182339	-0.674814	14.734697	-1.927537	-0.809363	-15.688523	10.129647	-11.808609	-0.527705	-0.047609	0.005055
-17.694758	9.942533	12.5562	-71.868399	144.804755	-92.995618	0.208247	-0.238294	-1.009235	5.33028	-3.73232	16.297079	-23.903335	-315.248333	-24.411488	-0.24564	0.1648	-0.644836	18.855217	0.921233	2.274026	25.081544	-1.316059	-38.63874	-0.514911	-0.127541	-0.006217
-0.673027	6.564473	4.859965	-67.557953	125.029399	35.252559	0.264686	-0.187895	-1.063107	4.9363	-4.63257	16.627696	-29.449092	-357.165241	-43.142539	-0.31074	0.178673	-0.630111	23.00603	4.474085	7.097683	33.101368	-22.767093	-96.939414	-0.541896	-0.044509	-0.057126
5.476385	-3.693687	11.585499	-209.638576	122.768831	30.289192	0.2628	-0.170937	-1.027711	3.409997	-3.83751	20.672561	-39.877446	-409.0435	-63.146832	-0.312587	0.156922	-0.543009	20.655038	5.062719	7.655206	90.611182	-54.834421	-63.427483	-0.556639	-0.109483	-0.053848
7.955727	-3.117193	12.545441	-102.501882	141.817289	11.585742	0.276906	-0.154013	-1.045552	3.34975	0.33363	23.618912	-27.129618	-467.401583	-79.312059	-0.326078	0.170023	-0.515037	9.682305	-1.200088	3.650789	-7.233326	-41.294513	-37.322717	-0.543077	-0.14249	-0.036576
-0.27267	-0.924587	13.303918	15.160186	129.236401	17.758302	0.318868	-0.124066	-1.067507	3.818708	1.464526	29.517633	-3.508324	-510.622634	-63.970615	-0.392804	0.147896	-0.426557	4.871077	-6.832415	1.141396	-30.401192	-32.956606	-29.487167	-0.515258	-0.160753	0.010985
-14.956462	-0.102999	14.613016	48.028014	48.792001	4.518881	0.320754	-0.141023	-1.102903	6.320127	1.230844	25.380513	87.321574	-557.776261	-47.226344	-0.420458	0.096426	-0.351245	5.161963	-8.532511	-2.513491	-20.506678	-15.388548	-21.478768	-0.528957	-0.144764	0.010078
-5.200369	2.192924	16.06273	96.707292	5.904627	-96.139459	0.362787	-0.197573	-1.0374	13.015565	1.660256	15.614032	94.156379	-581.734734	-25.818508	-0.473838	0.090766	-0.278394	6.972432	-6.50725	-3.249514	-33.684405	6.425272	11.899363	-0.528398	-0.114032	0.039459
1.263856	4.665081	4.32133	92.275486	-0.400794	-29.869426	0.334117	-0.131155	-1.092593	15.882938	0.64278	17.76808	50.662906	-596.958041	5.871263	-0.475684	0.069014	-0.191292	9.432821	-0.067224	-3.355574	-43.039657	20.497417	61.881706	-0.528744	-0.147243	0.056661
-1.54794	2.909667	9.714958	11.442612	11.003938	-19.728083	0.321897	-0.165037	-1.110148	15.263897	2.564635	23.984333	45.487681	-585.242951	15.910042	-0.464109	0.07905	-0.120822	12.158565	9.212661	-4.702061	-28.825769	20.021277	18.113582	-0.584451	-0.128562	-0.006568
-0.579555	0.494971	9.382633	3.468321	8.203812	-9.169287	0.348295	-0.200727	-1.022975	15.325699	-1.155766	21.15164	34.435316	-597.122917	41.83467	-0.505619	0.084499	0.008149	14.355111	6.479575	-4.313524	-2.737893	11.695381	-13.818803	-0.542097	-0.098043	0.038552
-0.288994	0.725495	9.616579	13.832689	4.35391	-1.53313	0.335289	-0.189767	-1.064853	14.992605	-0.875329	19.050168	-31.138099	-548.820327	60.266057	-0.480773	0.095682	0.063993	14.304213	0.335653	-1.4664	7.537509	-6.621635	-19.635895	-0.543215	-0.159508	-0.020211
-0.611815	-0.188979	10.629392	-2.259006	3.408226	-0.612802	0.306662	-0.175247	-1.067571	5.332678	-0.805185	13.97853	-36.00005	-486.616648	58.227304	-0.456812	0.103649	0.162886	14.964202	-0.812136	2.19398	7.040743	-20.497741	-5.907664	-0.514561	-0.113001	0.024002
0.060265	0.496686	9.90656	13.63855	-0.72427	-3.731224	0.32044	-0.213749	-1.01886	-23.60269	-9.224059	-13.415107	25.997331	-259.569636	12.743042	-0.41877	0.100658	0.205108	14.705166	-0.68715	4.1659	2.719057	-37.897909	1.40375	-0.52826	-0.097013	0.023094
0.351608	1.186984	10.199288	5.317257	1.542391	-3.731768	0.335275	-0.172468	-1.082345	-17.587942	-14.752611	-9.783581	-22.636511	50.717939	-8.104513	-0.406679	0.097518	0.247881	13.047117	0.303181	3.95957	1.951493	-41.30714	-21.100263	-0.51512	-0.143734	-0.00538
-0.509021	0.612707	10.066467	1.983613	2.226668	-3.09768	0.320397	-0.161851	-1.071336	-3.461836	-3.546222	16.848573	-19.444521	204.307777	-34.687624	-0.432631	0.097368	0.248433	11.432367	0.476357	2.792369	15.94923	-29.679729	-43.572669	-0.542932	-0.162813	0.0419
-0.106961	0.382892	10.130149	1.601701	0.606949	-4.073631	0.348652	-0.179899	-1.054542	0.689967	-4.344756	14.500657	42.777693	337.244217	-24.558961	-0.406089	0.099662	0.219182	9.999277	-0.860601	1.681948	24.375492	-23.232262	-40.150937	-0.543424	-0.175701	-0.019374
-0.054119	0.324444	9.903609	-0.692423	0.64586	-3.023663	0.348667	-0.197199	-1.037051	4.675523	-9.534459	14.749627	26.262497	330.140195	-56.023497	-0.417294	0.106018	0.133359	10.627101	-1.622266	0.432794	22.693462	-12.558548	-8.17208	-0.542652	-0.147447	0.056591
-0.059977	0.725329	9.621032	-3.782485	0.678269	-1.72617	0.333403	-0.17281	-1.029457	5.645971	-6.386597	9.281211	28.083621	291.686735	-130.347857	-0.455857	0.061975	0.108498	10.846369	-1.975218	-0.522798	34.486339	-4.114361	4.520011	-0.570259	-0.131663	0.055614
-0.517681	0.266128	9.610194	-3.993707	1.043267	-1.474285	0.321154	-0.172094	-1.081996	1.405616	-4.410873	4.89122	11.601627	269.011848	-149.479237	-0.468537	0.062972	0.094424	10.490071	-1.974902	-0.649214	48.875941	3.287336	-8.250822	-0.528957	-0.144764	0.010078
0.230584	0.955853	9.854978	-3.134032	1.856728	-2.383587	0.34941	-0.190142	-1.065202	0.218497	-4.015779	3.224825	-28.120959	254.183007	-154.466547	-0.493239	0.02222	0.026237	9.437009	-1.679867	-0.128624	66.275599	7.679056	-24.683755	-0.542656	-0.128776	0.009171
0.173288	1.013336	9.854105	-6.620812	1.819556	-0.534063	0.334903	-0.175996	-1.068269	-1.41136	-4.069803	2.341334	-64.873514	264.774556	-155.31521	-0.480338	0.006975	0.026965	9.026792	-1.503952	0.044135	76.954656	11.366593	-28.559551	-0.514423	-0.095983	0.007637
1.095051	0.841554	10.155463	-9.212804	2.363828	1.905	0.349795	-0.203913	-1.061787	-2.885608	-3.164764	3.443453	-95.483233	298.199467	-144.127937	-0.504889	-0.003136	-0.043228	8.73874	-1.211166	0.459217	79.95684	12.043974	-22.034519	-0.528886	-0.145591	0.025606
-0.792652	0.038982	10.172192	-8.106537	2.360635	2.637784	0.276906	-0.154013	-1.045552	-3.434639	-2.934937	7.395117	-115.91378	338.082726	-128.522204	-0.51691	-0.044885	-0.097341	8.691984	-0.801532	1.17873	76.068302	10.733722	-14.98577	-0.570263	-0.112992	0.008193
-0.337797	1.359323	10.072944	-10.735726	2.954964	3.36036	0.321569	-0.220463	-1.043596	-2.896941	-2.20042	11.086979	-95.504906	369.632723	-113.027722	-0.476801	-0.040373	-0.155567	8.750325	-0.511287	1.181067	74.030346	7.094685	-15.786124	-0.514631	-0.112175	0.008474
-0.333503	0.038892	10.237953	-5.070796	2.527068	2.754421	0.320783	-0.175622	-1.06792	-0.858513	-1.921591	12.26232	-43.584496	390.675197	-105.286705	-0.502313	-0.06902	-0.181708	7.853828	0.069274	0.62787	69.509386	3.507709	-19.511345	-0.571031	-0.159917	-0.020351
0.413487	-0.593022	10.36348	1.91529	3.816765	0.301861	0.321169	-0.189393	-1.064504	1.236889	-2.208607	10.664264	2.151021	401.907862	-101.901702	-0.449159	-0.109321	-0.251548	7.612781	-0.628582	0.261061	65.31139	0.049649	-20.793639	-0.50135	-0.160548	0.011055
-0.210335	0.385388	10.696453	10.98194	3.716588	-0.707242	0.334918	-0.193296	-1.050777	2.05277	-2.606434	8.416482	19.738486	400.676901	-99.434069	-0.499147	-0.132759	-0.348886	7.250151	-0.745902	-0.225292	60.978589	-3.135158	-18.959834	-0.542727	-0.12795	-0.006357
-0.049049	1.014949	10.19077	13.174416	2.891094	-2.904416	0.320797	-0.192921	-1.050428	2.481409	-3.00289	6.896552	10.06563	386.03453	-96.289805	-0.472454	-0.099825	-0.380145	6.77418	-0.513259	-0.412827	57.204738	-6.418185	-16.302468	-0.528819	-0.127746	-0.006287
0.050161	0.609398	9.395364	16.356032	2.734102	-4.020195	0.348624	-0.145301	-1.089526	3.631293	-2.892432	6.864185	-21.016205	364.56385	-87.097079	-0.445547	-0.141348	-0.435084	6.825919	-0.224497	-0.769932	53.714721	-8.314871	-14.508354	-0.501279	-0.161375	0.026583
-0.285856	-0.537737	9.724976	16.043416	2.437524	-5.097522	0.376493	-0.149578	-1.076148	3.220735	-3.342654	6.458866	-64.454837	341.527508	-73.367823	-0.405137	-0.075554	-0.497325	6.882714	-0.689982	-0.95053	51.612729	-8.623562	-14.957659	-0.556639	-0.109483	-0.053848
-0.360724	0.7224	8.876375	11.736447	3.409585	-3.137198	0.348281	-0.183428	-1.040466	3.004094	-3.510693	7.076924	-108.241475	321.099323	-57.146491	-0.430059	-0.102057	-0.552165	6.779547	-0.453947	-0.113045	49.330774	-8.228451	-15.501348	-0.542936	-0.144142	-0.00552
0.223121	0.494632	9.455075	8.831534	3.815454	-2.171518	0.307805	-0.199261	-1.074815	3.414873	-3.565109	10.142668	-136.428542	305.656991	-38.704599	-0.376899	-0.082149	-0.61167	6.781073	-0.163072	0.008005	47.06511	-6.901814	-14.429903	-0.543282	-0.177353	0.011682
-0.584009	0.494006	9.155221	5.502536	5.081186	-1.313321	0.320411	-0.17915	-1.053844	3.449845	-2.88772	11.842425	-145.555723	294.608325	-18.877365	-0.376013	-0.078933	-0.65472	7.014491	-0.91959	-0.230435	46.26402	-5.44349	-10.797347	-0.556706	-0.127328	-0.021955
0.862609	0.95588	9.980932	3.572665	4.850447	-0.728821	0.35131	-0.224398	-1.083107	3.475362	-2.323372	13.088971	-141.978491	286.422766	4.226363	-0.323519	-0.07649	-0.684522	6.955765	-0.570751	-0.170145	44.296554	-3.720373	-6.550501	-0.515813	-0.210156	0.029024
0.290231	0.726528	9.968832	3.109999	5.169867	-1.979694	0.320797	-0.192921	-1.050428	4.05408	-2.662338	13.214055	-133.626585	279.572788	28.889798	-0.334648	-0.054813	-0.771348	7.013836	-0.164354	-0.167314	43.021464	-3.328624	-3.461027	-0.51484	-0.128368	0.009311
-0.496483	0.21327	10.690161	5.909221	7.312721	-2.78097	0.348667	-0.197199	-1.037051	5.521774	-3.058255	14.546656	-125.298122	270.972658	54.276953	-0.321076	0.007616	-0.789988	7.015612	-0.454487	-0.108644	40.403405	-4.213448	-1.613589	-0.543491	-0.193546	0.012519
-0.49743	-0.016737	10.632343	13.357072	8.409377	-4.287347	0.36353	-0.190517	-1.065552	5.810594	-2.946086	14.609435	-116.911747	257.144552	78.626719	-0.268212	0.026452	-0.835144	6.657518	-0.628894	-0.355615	35.462753	-5.708897	-0.671683	-0.570543	-0.128358	-0.006498
-0.159513	0.03925	10.355	22.481357	8.599972	-6.518679	0.333803	-0.203881	-1.008549	6.269239	-3.228695	14.50559	-113.203983	240.063822	104.205735	-0.215052	0.04636	-0.89465	6.834412	-1.036078	-0.413952	30.943402	-6.248023	2.586945	-0.528957	-0.144764	0.010078
-0.269775	0.327505	10.581392	32.892135	8.953011	-8.996463	0.377651	-0.190891	-1.065901	6.676531	-4.862987	14.569317	-114.097941	223.027546	127.840148	-0.227211	0.09439	-0.926084	7.068255	-1.501968	-0.591248	27.480532	-6.115479	6.327657	-0.50142	-0.159722	-0.004472
-0.105847	0.383134	10.187002	48.239731	9.973388	-11.385644	0.34981	-0.221212	-1.044295	6.918342	-4.581292	15.140786	-118.37266	207.390348	150.808484	-0.188133	0.125256	-0.928919	7.301018	-1.50325	-0.766567	21.876636	-5.747783	7.293697	-0.542514	-0.130428	0.040226
-0.449664	0.785473	10.18201	56.227185	10.256442	-14.103028	0.34941	-0.190142	-1.065202	8.449214	-4.751758	16.757984	-125.322544	192.619948	171.625658	-0.16085	0.160335	-0.988876	7.425268	-0.862953	-0.342299	18.637937	-5.540264	6.815402	-0.514631	-0.112175	0.008474
0.174484	0.898694	9.910476	46.492451	11.783064	-14.479569	0.334174	-0.200352	-1.022625	9.751895	-5.372389	18.426607	-124.129922	176.058157	186.850423	-0.122362	0.189057	-0.963011	7.893651	-1.620258	-0.636244	12.850695	-4.710306	7.382563	-0.542727	-0.12795	-0.006357
-0.169291	1.243592	9.905243	41.808634	15.28618	-19.040463	0.391786	-0.208565	-1.048758	12.12693	-4.925548	19.212866	-110.569852	159.357392	195.4844	-0.094784	0.225207	-1.037319	7.966027	-1.210647	0.145377	13.74409	-4.426119	6.827808	-0.542798	-0.127123	-0.021885
-0.15828	1.418329	10.474498	30.391913	19.140219	-22.073455	0.33456	-0.214123	-1.01921	12.925465	-1.94397	16.458173	-90.244631	144.404386	197.973291	-0.069862	0.25171	-0.982479	7.554845	-1.093055	0.257982	17.74106	-5.538436	6.32961	-0.528819	-0.127746	-0.006287
0.993354	0.971761	13.73435	19.902793	20.687471	-19.165633	0.365073	-0.245601	-1.051888	16.297971	-2.120269	15.396564	-113.830165	130.39263	210.181923	-0.016998	0.270547	-1.027634	8.62785	-1.441717	0.815469	16.524655	-5.264726	9.022407	-0.528957	-0.144764	0.010078
-2.872771	-3.008511	9.039108	13.578216	30.065012	-13.964949	0.377679	-0.22549	-1.030917	22.477823	-1.006675	13.885527	-116.985296	141.670449	203.50668	-0.003576	0.302334	-1.044267	8.509392	-1.732074	0.752125	15.415458	-4.770246	14.067404	-0.528539	-0.112379	0.008404
0.795022	3.838654	12.492307	28.754974	28.485473	-9.403137	0.391814	-0.243164	-1.013775	27.976931	1.178968	12.927279	-130.051808	166.180441	201.118762	0.022451	0.317805	-1.045822	8.692483	-1.963547	1.053972	12.300485	-4.497408	19.151496	-0.501629	-0.175915	-0.003635
2.607746	6.328386	17.482307	5.417835	47.253174	-12.680595	0.364702	-0.249129	-1.037812	30.518767	3.200262	10.887722	-126.955581	187.455028	190.292331	0.06227	0.381456	-1.079363	8.574566	-2.486208	0.989639	14.966336	-4.390419	21.55619	-0.52889	-0.126919	-0.021815
-0.022507	2.182157	14.515318	1.830185	82.924752	-8.348618	0.377722	-0.277388	-0.978442	30.53517	4.494238	9.077554	-115.492909	197.300886	167.979555	0.127961	0.369726	-1.122788	8.638659	-2.775735	1.229131	19.667019	-2.222974	26.542093	-0.556355	-0.112788	0.008263
-0.231051	0.680598	12.572698	3.303843	91.28867	-5.609992	0.379194	-0.245975	-1.052238	32.426166	2.067948	8.492374	-87.782988	190.241746	125.407144	0.140867	0.41469	-1.111725	9.277507	-3.070072	0.640931	17.079377	0.998637	33.567239	-0.51484	-0.128368	0.009311
0.324028	2.642164	14.694488	-1.929158	106.963628	-5.524082	0.407435	-0.246724	-1.052936	35.218392	2.171853	4.531502	-23.800217	179.019247	58.9926	0.168445	0.450841	-1.186032	10.100391	-4.002415	0.352847	13.694313	3.029468	43.077775	-0.542313	-0.076893	-0.055452
1.223604	2.350674	13.858301	-12.505072	126.806705	-6.827114	0.449797	-0.247848	-1.053984	35.042382	2.786996	-0.963226	-7.807445	145.729023	-5.051003	0.232144	0.446928	-1.130012	10.392846	-4.294212	0.177392	8.087455	5.210966	52.046003	-0.52861	-0.111553	-0.007124
0.663433	2.181418	14.471826	-22.74977	145.632745	-7.840932	0.420813	-0.254156	-1.025133	35.765656	6.509803	6.301862	-61.634402	71.349958	-65.883196	0.23288	0.419503	-1.171054	10.678583	-4.064561	-0.295372	-1.182788	5.374698	53.729902	-0.501212	-0.14353	-0.005309
0.425388	0.800816	13.949903	-22.936009	165.809018	-2.053222	0.462417	-0.245037	-1.015521	31.60055	6.34066	-2.844032	-42.358786	-26.558502	-124.417123	0.220274	0.435821	-1.186131	11.091811	-4.588438	-0.349801	-5.858628	4.216326	51.734373	-0.556355	-0.112788	0.008263
0.340778	1.037178	15.483675	-23.137695	182.926853	-2.970309	0.505922	-0.270174	-1.023813	31.465764	12.382119	12.95382	-74.719479	-81.163646	-153.093213	0.219834	0.464318	-1.159439	10.981191	-4.93514	0.005956	-3.434937	1.388199	48.008936	-0.500724	-0.111971	0.008544
0.974456	0.290706	15.663345	-29.380825	202.624407	-1.037212	0.547883	-0.240227	-1.045768	26.910046	21.748984	21.415141	85.475837	-94.341342	-144.311888	0.195138	0.483775	-1.21729	11.395655	-5.516846	0.011187	3.01192	-1.705398	41.763283	-0.527775	-0.046783	-0.010472
0.576192	-0.110612	15.767568	-8.732601	225.706482	5.749651	0.560846	-0.199289	-1.056365	16.594213	21.378209	26.010363	272.720442	-85.270815	-50.618463	0.168081	0.494658	-1.160343	11.039782	-5.225903	-0.054086	12.25183	-3.984499	37.58282	-0.513521	-0.013368	-0.027604
0.641697	-0.740821	16.163999	-18.358578	252.08948	9.457178	0.575353	-0.213434	-1.053298	-16.263077	13.471018	-4.465744	465.492868	-197.427417	154.96141	0.193726	0.373317	-1.167216	11.052853	-5.16486	0.665043	15.090509	-6.620254	36.11767	-0.486398	-0.079382	0.00694
1.54006	0.013982	18.230549	0.376453	284.988173	13.066386	0.602479	-0.224769	-1.011769	-9.630728	-10.241259	12.976572	164.730307	-307.924346	120.102319	0.142557	0.345591	-1.207155	11.45116	-4.007004	0.018715	15.984692	-10.939184	31.121389	-0.499263	0.001376	0.002685
2.752098	-1.076347	18.704172	8.812573	323.184929	15.902149	0.631463	-0.218461	-1.040619	19.852477	18.260924	11.243131	111.38729	-279.041567	113.439022	0.11594	0.327977	-1.1769	13.520243	-2.209643	0.484243	26.80288	-9.803853	28.57003	-0.527775	-0.046783	-0.010472
1.491471	-4.912397	21.391343	32.656035	369.351117	20.019211	0.702138	-0.306831	-0.954906	20.050598	11.048384	9.089592	4.27464	-184.91319	-13.507633	0.064626	0.329821	-1.204497	15.07839	-0.768557	-1.217164	3.717266	-11.154047	21.048428	-0.500101	-0.044722	-0.041388
1.864249	-4.688952	19.978775	68.835179	417.977652	41.464805	0.745228	-0.283598	-1.001597	6.511194	-0.98001	9.870293	1.103185	-158.848519	-81.775623	0.024367	0.294667	-1.144263	15.918076	1.775862	-3.346427	-36.140184	-8.391763	-32.089143	-0.500243	-0.04307	-0.072443
3.463845	-1.978256	22.862835	82.581295	465.927762	47.632467	0.82695	-0.279474	-0.926068	0.682916	-7.220471	11.21435	-56.762674	-140.935556	-42.404942	-0.013895	0.311906	-1.173139	13.78627	0.152122	-3.992035	-38.562728	0.658465	-65.149165	-0.485847	-0.011307	-0.058519
2.135748	2.169144	25.355022	110.673036	504.008717	41.916935	0.81213	-0.338054	-0.845092	7.517686	-3.452379	19.060747	26.589172	-147.282839	-12.591815	-0.000624	0.313053	-1.187765	11.38431	-0.826173	-3.202659	-50.155291	-1.702505	-50.829689	-0.472561	-0.078352	-0.008517
0.096588	8.724761	26.70692	113.125671	517.1953	21.550313	0.924337	-0.330808	-0.837226	2.781645	-6.71867	9.843517	103.290252	-113.90645	39.594142	-0.066389	0.309463	-1.143337	9.604964	-2.030953	-0.665968	-15.358175	-3.934353	-21.185378	-0.513588	-0.031213	0.004289
-0.490096	10.433181	23.122393	150.603764	503.299178	-3.654295	0.951506	-0.39404	-0.743221	11.969318	-0.995397	4.097039	161.081973	-84.183888	21.468904	-0.106064	0.216243	-1.122138	9.359227	-2.890787	1.900818	28.756464	2.470604	1.697479	-0.500306	-0.079586	0.00687
-7.180488	4.727351	17.341996	129.495255	477.281421	-41.682543	1.020223	-0.378955	-0.709571	3.952199	0.037733	8.685163	33.942515	-34.058235	-24.932064	-0.079371	0.249178	-1.153396	8.183792	-1.201904	2.365234	47.348375	5.776141	1.981139	-0.514076	-0.062772	-0.009565
-3.247758	0.379283	22.17392	102.041919	441.123554	-48.726365	1.061484	-0.407963	-0.650899	3.809598	-0.916087	12.700933	65.047145	-28.51658	4.156693	-0.131055	0.234629	-1.165639	8.765947	1.29352	2.267055	60.251333	11.326647	-3.807284	-0.513867	-0.046579	-0.010402
1.103844	-0.900167	19.297989	120.222826	438.826937	-63.357635	1.102374	-0.4405	-0.578151	4.271497	1.669771	7.617639	104.050478	-22.256559	-9.868864	-0.119335	0.215096	-1.107512	10.058435	2.393252	2.116242	46.650258	20.045756	0.295724	-0.528405	-0.076689	-0.055382
-1.764227	-4.288834	18.830106	82.449942	413.392323	-70.903579	1.142478	-0.428195	-0.529726	2.951892	2.289738	5.156062	24.780352	-7.789935	-12.655773	-0.118744	0.21724	-1.136212	11.047229	1.516108	1.232637	33.36208	25.119272	-0.872318	-0.486123	-0.045345	-0.02579
3.341778	-11.209233	13.330873	19.391014	388.908039	-56.425111	1.126514	-0.462761	-0.441505	3.942856	-0.523615	10.892424	17.322906	-0.19452	2.426878	-0.118229	0.204063	-1.163908	11.79511	-0.116968	-0.018024	37.105748	26.509975	4.975658	-0.527429	-0.013572	-0.027674
24.600235	-27.538757	-26.958201	23.043748	215.571715	59.366409	1.182253	-0.471316	-0.41475	3.717425	-0.131017	8.453627	32.232251	-4.089275	-6.077547	-0.118744	0.21724	-1.136212	13.37559	-0.704588	-0.769574	28.543073	24.941794	14.642212	-0.485981	-0.046997	0.005266
15.872858	-14.077161	-10.306246	-155.142508	-6.146142	136.793305	1.196788	-0.52006	-0.3767	3.970008	0.207436	9.534899	12.245926	-1.860777	-5.855677	-0.118825	0.14171	-1.145543	13.409492	0.626081	-1.960926	8.298681	21.701808	16.289896	-0.499613	-0.013164	-0.027534
11.232769	-10.170589	15.932448	-103.430237	-189.394193	197.212275	1.169661	-0.508726	-0.41823	3.799706	-0.411829	9.58739	19.790007	-1.273689	-5.96708	-0.11897	0.171278	-1.133201	12.565234	0.333388	-2.995985	-8.026369	15.825958	10.905718	-0.499613	-0.013164	-0.027534
13.731485	-3.397689	15.213973	-129.058663	-244.770742	203.218515	1.141049	-0.511505	-0.403455	3.55112	0.320235	8.790217	18.012992	-2.668924	-7.061352	-0.093018	0.171429	-1.133752	12.097216	-0.013246	-2.826551	-11.142427	9.104972	8.9929	-0.485359	0.020252	-0.044666
14.43306	-1.281817	13.133812	-41.712109	-228.341934	173.948573	1.116566	-0.527371	-0.491041	3.966705	0.038302	9.364838	17.178567	-2.538056	-5.241887	-0.106144	0.140713	-1.131469	11.336953	-1.578801	-2.667812	-10.338676	2.669866	7.431327	-0.472419	-0.080004	0.022538
9.731548	-3.143169	6.783171	-38.877433	-213.69202	131.282282	1.073804	-0.495177	-0.510901	3.845769	0.545303	9.136289	16.240651	-3.524267	-6.300591	-0.118675	0.17235	-1.147551	10.857796	-1.869832	-3.0972	-15.433334	-2.181146	7.442368	-0.513871	-0.027908	-0.057823
8.222848	-3.088992	5.731106	-53.323339	-217.399074	97.000391	1.04632	-0.504671	-0.520863	3.201046	1.503728	8.67068	10.084509	-4.162101	-5.109605	-0.093018	0.171429	-1.133752	10.571134	-1.228096	-2.56082	-16.824419	-7.467261	-2.429935	-0.514013	-0.026255	-0.088878
8.430378	-2.63421	4.657282	-64.794722	-242.082212	58.00915	1.076462	-0.539676	-0.539466	3.729776	0.996163	9.13425	-0.966215	-3.194971	-0.947112	-0.118895	0.186599	-1.134205	10.10053	-0.936141	-2.448574	-20.204836	-13.381514	-14.33875	-0.485355	0.00158	0.002755
7.890166	-2.68424	6.294645	-79.684379	-278.253294	18.341546	1.076048	-0.491306	-0.577865	3.678339	0.320494	9.359031	-7.279046	-3.901328	1.044611	-0.105554	0.142856	-1.160169	9.518497	-0.642432	-1.979087	-24.049787	-18.106757	-17.144265	-0.457889	-0.012551	-0.027323
6.900951	-2.904334	8.377201	-80.603733	-307.296572	-12.334631	0.99321	-0.506016	-0.611166	3.683367	-0.411661	9.528333	-8.991149	-5.049468	-0.201307	-0.119711	0.138494	-1.102494	8.701905	-0.522165	-1.454837	-26.672191	-21.123984	-13.147676	-0.513871	-0.027908	-0.057823
4.916349	-3.415756	9.30256	-79.907816	-334.291108	-33.355849	1.008803	-0.474978	-0.685311	4.026773	-0.637724	9.422118	-7.911305	-5.272622	-1.497435	-0.11897	0.171278	-1.133201	8.355916	-0.693852	-1.042833	-27.800785	-22.579142	-8.858217	-0.485634	-0.013786	-0.011936
3.288018	-4.614071	10.857088	-77.966346	-351.198397	-42.531624	0.951949	-0.477008	-0.669838	4.082267	-0.187235	9.367066	-6.74487	-6.156371	-4.773041	-0.158193	0.169981	-1.118024	8.192613	-0.922785	-0.32824	-29.209246	-21.205692	-9.073596	-0.500448	-0.077934	-0.024186
0.672544	-5.18272	11.713104	-74.837643	-350.680668	-35.354253	0.923651	-0.407062	-0.739107	4.141472	-0.412618	9.424725	-4.713651	-6.858638	-5.980673	-0.106289	0.170282	-1.119127	8.306399	-0.517264	-0.504029	-29.252864	-18.32202	-9.942896	-0.50003	-0.045549	-0.02586
-1.349218	-5.127688	10.764723	-82.422701	-338.120273	-19.730698	0.940386	-0.400037	-0.820496	4.08721	-0.243376	9.593577	-1.139842	-7.867366	-8.916452	-0.106144	0.140713	-1.131469	7.847185	-0.861921	0.14466	-31.931814	-15.388454	-13.583834	-0.47173	0.005089	-0.059286
-1.909265	-5.469269	11.377525	-95.060176	-318.732576	2.334383	0.870155	-0.394636	-0.832826	4.491592	-0.356744	9.658584	2.243447	-9.27732	-11.82553	-0.131946	0.171203	-1.132925	7.729018	-0.803574	0.142706	-30.628567	-11.453631	-12.109905	-0.514151	-0.043274	-0.072514
-2.704395	-5.122592	11.704502	-106.617169	-294.220255	25.979135	0.856749	-0.352606	-0.895612	4.420968	0.149864	9.091406	2.632512	-10.31127	-12.390389	-0.118379	0.173422	-1.1619	7.618533	-1.208353	0.498216	-28.093054	-8.164508	-9.873331	-0.486398	-0.079382	0.00694
-2.685222	-3.911977	12.732925	-116.329038	-270.882772	45.242591	0.814402	-0.368782	-0.877072	3.560598	1.052959	9.30059	0.355874	-9.517508	-11.582818	-0.119636	0.153814	-1.103498	7.671102	-0.803192	0.201512	-25.961551	-5.864104	-6.805384	-0.50031	-0.060915	-0.040551
-1.070555	-2.933978	13.393589	-122.521522	-259.180955	58.112248	0.787647	-0.35392	-0.932678	3.855655	0.433021	9.589311	-0.288493	-9.073187	-10.438304	-0.132021	0.155883	-1.131922	7.677144	-1.03426	0.500058	-23.80806	-5.630245	-7.975621	-0.485701	-0.031631	0.019957
1.105011	-5.246042	10.414149	-116.051634	-250.828196	67.5794	0.759006	-0.3221	-0.952887	3.662001	1.277544	8.680162	-3.785672	-9.435621	-8.687554	-0.131801	0.141634	-1.145268	7.196617	-1.209386	0.011258	-22.816	-4.333151	-8.841107	-0.514289	-0.060293	-0.056149
-0.836058	-1.266892	13.74616	-136.024438	-279.041476	64.665193	0.705896	-0.323446	-1.04319	3.662301	0.488869	8.622858	-7.313911	-9.799051	-6.844349	-0.158343	0.139341	-1.116017	7.37434	-1.500171	0.013323	-19.923072	-3.629917	-10.78025	-0.500448	-0.077934	-0.024186
1.185823	0.056914	14.757185	-129.932436	-294.385206	55.324242	0.661991	-0.267238	-1.055806	3.670224	0.770853	9.019572	-13.349694	-10.477682	-3.86566	-0.145368	0.139416	-1.116293	6.71912	-1.267618	-0.297328	-18.703349	-1.919862	-10.089941	-0.458582	-0.078974	0.007081
-0.391525	-0.166142	16.032663	-121.43987	-280.699092	40.498962	0.63675	-0.272861	-1.132732	3.969662	-0.243255	9.47788	-12.546612	-12.805445	-2.716698	-0.145142	0.185377	-1.119303	6.84279	-1.324728	0.00416	-16.766776	0.026444	-8.333726	-0.500653	-0.112797	0.024072
0.220583	-0.342783	15.134538	-131.211124	-273.804128	17.366054	0.563476	-0.209189	-1.119913	3.969446	-0.130594	9.477975	-12.667021	-15.070178	-3.633322	-0.145292	0.154736	-1.117296	6.840724	-1.383298	-0.115901	-13.663652	2.983518	-3.346999	-0.541892	-0.06318	-0.009706
1.882448	-0.860717	15.22151	-141.956007	-266.06123	-4.986771	0.479495	-0.199885	-1.145969	4.310219	-0.244092	9.258575	-9.767484	-15.487106	-4.590797	-0.093388	0.155036	-1.118399	6.903737	-1.208216	0.125569	-8.607689	5.148279	-0.930653	-0.444745	-0.077943	-0.008377
2.294322	-0.801154	15.798077	-151.83148	-260.043933	-29.489558	0.48061	-0.1893	-1.188197	4.476871	-0.244652	8.979004	-8.884256	-14.178829	-5.995156	-0.144997	0.155808	-1.131646	6.964643	-2.021416	0.123208	-4.934947	6.958655	2.745541	-0.486611	-0.076903	-0.039643
2.207195	-0.163182	17.219832	-158.511141	-252.681768	-54.62753	0.422199	-0.118947	-1.20388	4.370441	0.262917	9.43013	-5.314518	-12.642923	-4.158174	-0.132681	0.198629	-1.091883	7.202213	-2.195937	0.186775	-3.991879	8.231666	4.203109	-0.514568	-0.075659	-0.070839
2.040175	-0.564184	17.442214	-167.586887	-242.153136	-77.839329	0.324469	-0.10574	-1.243663	4.085462	0.038229	9.537175	-2.342891	-11.887999	-1.28128	-0.158488	0.16891	-1.103674	7.140591	-2.022068	0.066603	-3.659928	9.5851	6.54889	-0.444119	-0.029366	-0.010888
2.280204	-0.389612	18.015923	-173.4423	-237.722652	-99.198764	0.26683	-0.062929	-1.252514	4.300787	0.262551	8.862525	3.472898	-8.664067	-0.011423	-0.145362	0.199626	-1.105957	7.313488	-2.604469	-0.232103	-3.73963	9.777784	8.596096	-0.458236	-0.045763	-0.010121
1.90495	-0.26889	19.316232	-178.223488	-236.578703	-115.185363	0.29317	-0.029421	-1.235308	4.77614	0.093266	9.551729	5.856494	-5.498802	3.567211	-0.132166	0.185452	-1.119579	6.836397	-2.83693	-0.54143	-3.601602	10.340233	10.457389	-0.458445	-0.061955	-0.009284
0.584835	1.167619	19.182949	-178.903877	-237.479759	-122.809116	0.221039	0.010236	-1.229733	4.835406	-1.427813	9.495018	13.530962	-5.219551	-5.518107	-0.133052	0.182236	-1.07653	7.418855	-2.84001	-0.949773	-3.243362	10.58462	13.572639	-0.47277	-0.094544	-0.00768
-0.978867	2.096529	21.202343	-193.9477	-237.177814	-125.737928	0.192383	0.059355	-1.267434	4.077131	0.60125	9.197811	29.08269	-4.66702	-12.96036	-0.093168	0.140788	-1.131745	7.062847	-2.490991	-1.0148	-5.776967	12.079457	16.050568	-0.500519	-0.077107	-0.039713
-3.394461	4.234022	23.608075	-182.157169	-238.740081	-113.398516	0.107288	0.058074	-1.251263	4.351315	0.149498	8.523801	29.250958	-5.268785	-4.981875	-0.144036	0.174344	-1.175699	7.643645	-2.726871	-1.543946	-6.100217	13.134763	17.422215	-0.458307	-0.044936	-0.025649
8.536821	34.640695	84.663199	-274.476395	-140.732499	-70.392153	0.11988	0.095485	-1.247784	4.443215	-0.978324	7.335839	21.886273	-3.549091	-0.901418	-0.171835	0.152442	-1.088045	7.824285	-2.377831	-1.299534	-7.703098	13.562957	16.875771	-0.486335	-0.042866	-0.072373
-8.436929	18.242265	20.954839	-88.359572	-238.176258	-113.904823	0.020679	0.077279	-1.213771	2.248142	11.933229	16.189551	16.097594	-5.832554	-14.677896	-0.184075	0.124942	-1.128811	8.344872	-1.626035	-1.765671	-17.972585	14.710909	14.737252	-0.486264	-0.043692	-0.056845
-19.197446	6.211059	26.264203	-5.565336	-269.715284	-104.283086	-0.009077	0.098514	-1.191753	3.698675	1.793093	18.532252	10.915521	-34.93299	-20.27363	-0.184515	0.153439	-1.102119	8.276627	-1.918506	-2.30717	-25.747599	16.560345	16.621159	-0.499963	-0.027704	-0.057753
-26.883647	-0.196009	30.975108	44.356716	-289.287866	-64.733543	-0.05141	0.065039	-1.155722	4.878301	-0.46844	11.591489	29.209085	-78.293809	-23.803408	-0.171464	0.168835	-1.103399	8.171469	-3.193683	-1.775648	-33.936028	18.529372	21.593368	-0.499963	-0.027704	-0.057753
-27.572854	1.605099	22.160579	30.338255	-273.935171	-16.130184	-0.138805	0.129085	-1.142554	5.064988	0.433142	12.33219	30.288496	-81.286162	-28.54873	-0.184591	0.138119	-1.101116	8.952519	-4.412563	-1.167465	-38.801289	21.516498	23.919939	-0.486611	-0.076903	-0.039643
-39.802192	-0.096875	11.345074	25.357693	-187.952808	66.231225	-0.124256	0.063041	-1.087012	4.926032	0.491124	13.914519	36.274837	-93.821044	-28.206087	-0.17147	0.108625	-1.113734	8.673499	-5.163662	-0.397391	-47.311796	24.474185	24.88429	-0.499613	-0.013164	-0.027534
-34.826795	1.679242	11.222015	-63.883212	-97.373513	118.348559	-0.18111	0.061011	-1.071539	4.833654	0.604901	14.988349	35.197877	-115.773939	-32.586634	-0.237015	0.090785	-1.082652	9.564399	-4.757672	-0.019713	-44.341238	25.485063	19.855495	-0.472077	-0.028122	-0.042084
-29.183552	12.737573	19.277822	-70.42846	17.927309	154.467484	-0.152869	0.060262	-1.072237	4.855624	0.885071	13.347246	41.787965	-137.197534	-37.757156	-0.198163	0.07569	-1.082476	10.499989	-4.819886	-0.481608	-40.354815	23.766429	12.880007	-0.486473	-0.059885	-0.056008
-21.28944	25.796497	25.453608	-8.931468	106.539966	145.250868	-0.153641	0.087804	-1.079069	3.760826	2.070107	13.381912	31.357778	-155.670378	-34.835649	-0.210693	0.107328	-1.098557	10.67196	-4.5309	-0.716698	-35.618278	21.15832	3.43075	-0.499822	-0.029356	-0.026697
-21.399263	26.384546	28.636454	204.388361	160.360931	94.486058	-0.168533	0.11572	-1.085551	4.109068	1.844233	13.502255	20.748144	-178.104902	-27.545443	-0.29032	0.100446	-1.010804	10.837734	-4.417625	-1.311971	-32.789295	20.09217	-1.953508	-0.472494	-0.060507	-0.04041
-31.567037	19.765316	23.523363	391.745709	206.746193	-54.113265	-0.125385	0.069755	-1.062275	4.49832	2.687962	12.945033	-2.356884	-198.663034	-12.693885	-0.290766	0.068733	-0.994447	11.204456	-5.112875	-0.709267	-27.263606	17.552015	3.02037	-0.444332	-0.026887	-0.057472
5.913396	3.370723	-15.484333	314.266924	361.826594	-181.181371	-0.094086	-0.006563	-1.070631	4.992514	0.885709	14.369177	-26.659876	-221.215719	-0.729646	-0.356085	0.096855	-0.966376	11.09121	-5.7507	-0.534466	-28.137104	13.9111	17.590038	-0.48654	-0.077729	-0.024115
2.04798	0.057016	14.944446	222.014895	405.522165	-96.50233	-0.049452	-0.038415	-1.103659	5.546137	1.900158	16.136738	-38.155577	-243.003353	3.175734	-0.369137	0.08146	-0.965097	11.392124	-4.471725	-0.04427	-19.05378	10.988322	25.304817	-0.472636	-0.058854	-0.071466
-5.488668	10.900278	10.467612	104.604602	321.967467	-146.230099	0.036786	-0.061148	-1.127074	4.419891	2.072301	17.302134	-31.8222	-269.41631	6.587168	-0.357417	0.061927	-0.90697	13.817119	-2.035595	0.610301	-10.922945	4.130855	16.810184	-0.499684	-0.012337	-0.043062
-12.379206	8.672793	12.142768	-49.761954	195.022346	-64.781401	0.079547	-0.093342	-1.107214	6.492173	-3.337351	19.548838	-19.98192	-303.780911	-4.071866	-0.410137	0.013522	-0.874157	17.962447	1.793163	1.961694	21.049327	-1.693528	2.417657	-0.500314	-0.042244	-0.087971
-6.269869	2.747297	11.156848	-64.81559	134.920147	22.956463	0.081419	-0.093	-1.160102	5.687181	-5.082183	19.417164	3.225695	-342.078269	-31.314406	-0.422742	0.029839	-0.889234	21.039978	2.498764	5.794917	47.008907	-18.426305	-41.661233	-0.458586	-0.060303	-0.04034
3.947958	-3.171734	12.467256	-99.252976	111.371816	21.108822	0.121866	-0.042568	-1.160737	5.836764	-7.050397	23.551404	12.210682	-388.59217	-57.692761	-0.476192	0.069069	-0.805044	20.538005	2.738959	7.403489	50.576583	-53.337093	-26.81083	-0.486685	-0.057406	-0.102592
7.058922	-1.401287	10.659826	-30.864319	108.733799	-16.29984	0.180235	-0.061023	-1.19753	4.786185	-10.65208	25.224587	68.615587	-442.430916	-95.939931	-0.503845	0.017598	-0.729733	13.59938	-1.204055	4.921556	8.04705	-51.168781	-8.637653	-0.472006	-0.028948	-0.026557
-0.041663	0.039891	10.527786	13.157163	102.948361	10.620964	0.15085	-0.03626	-1.189588	5.191902	-9.810071	22.742828	117.410305	-498.819692	-133.198338	-0.544324	-0.003307	-0.656153	7.824031	-4.921174	1.564018	-1.629882	-42.021577	-15.338901	-0.499751	-0.030182	-0.011169
-13.442303	-0.915296	12.990962	32.571812	94.374967	13.246943	0.165385	-0.085005	-1.151537	5.1417	-1.021454	23.881809	111.416581	-554.906739	-156.873317	-0.612017	-0.10418	-0.533955	7.012682	-7.71844	-1.217872	-9.732412	-23.448432	-7.299778	-0.486682	-0.076077	-0.055171
-2.912444	-2.405263	15.803699	16.668428	27.868201	-65.543961	0.178363	-0.061366	-1.144642	10.031806	8.095498	24.671924	116.608518	-597.284031	-145.207984	-0.639445	-0.109689	-0.461655	8.449726	-7.32369	-3.225464	-25.409651	2.42594	19.927535	-0.457885	-0.031223	0.020097
-0.705401	2.950523	5.980711	108.927785	-9.318374	-33.55916	0.194355	-0.061398	-1.19788	14.418383	7.465714	22.555544	158.973054	-604.468045	-98.12036	-0.642473	-0.135728	-0.317154	10.140488	-2.683748	-3.712935	-28.34088	19.72092	56.236498	-0.472144	-0.045967	-0.010192
-1.326835	1.528975	9.258796	16.106858	6.266674	-33.713315	0.179877	-0.081851	-1.165963	10.139249	3.414465	18.499107	147.883341	-601.676925	-61.853598	-0.709569	-0.174248	-0.21332	11.864517	4.506953	-5.266751	-34.970283	21.352549	14.461464	-0.485563	-0.014612	0.003592
-0.126056	0.608557	9.164612	23.959332	5.85823	-8.070291	0.193998	-0.082226	-1.166312	4.361193	-1.758398	16.901223	111.86864	-587.390928	-25.058805	-0.699326	-0.19914	-0.083444	12.642833	6.831947	-4.343953	-24.210612	10.033661	-8.415643	-0.485843	-0.029978	-0.011099
-1.198379	-0.823557	9.876513	4.980039	2.600373	-13.129132	0.207747	-0.086129	-1.152585	12.386432	1.663968	18.488144	73.869135	-570.802082	13.116404	-0.662539	-0.221738	0.01718	12.563634	1.495156	-2.931134	2.334004	-4.350208	-10.368451	-0.485914	-0.029152	-0.026627
0.108861	0.150065	9.451401	10.143014	-0.484645	-4.606659	0.178748	-0.075137	-1.141227	9.533196	-3.686194	13.724525	6.634162	-515.618165	56.6483	-0.664311	-0.22817	0.103279	13.579569	-1.396219	0.608619	2.093432	-14.214531	-11.879073	-0.472215	-0.04514	-0.025719
-0.667997	-0.131254	10.685373	6.259003	-3.129294	-6.0799	0.22111	-0.07626	-1.142274	-0.353769	-4.521581	3.325588	-70.367622	-398.374454	74.614318	-0.641456	-0.20917	0.258567	13.553431	-1.330591	2.404972	1.740548	-25.838112	-8.857967	-0.541337	-0.013776	-0.027745
0.227368	0.782805	9.683694	13.377743	-5.63075	-7.55183	0.22111	-0.07626	-1.142274	-35.049326	-16.12907	-11.17058	-128.48926	-169.71767	19.430281	-0.61639	-0.212235	0.301065	12.626105	-1.034095	3.347112	-9.143743	-33.898996	-19.750896	-0.512753	0.033557	0.00094
-0.177536	0.322597	9.446557	1.480422	-3.941132	-4.208537	0.207747	-0.086129	-1.152585	-20.918086	-13.727263	-3.964744	-160.706385	21.660772	-28.20298	-0.61661	-0.197987	0.314411	11.431402	0.418034	2.732215	-7.434352	-32.500934	-36.080689	-0.499889	-0.047201	0.005196
0.293779	0.440044	10.138185	0.041048	-4.295301	-3.382096	0.222596	-0.062147	-1.198578	-6.777363	-0.389044	12.762118	-88.134079	232.036457	36.160472	-0.578052	-0.214154	0.328937	10.235538	0.47535	1.871757	2.402888	-27.312128	-37.638205	-0.472073	-0.046793	0.005336
-0.231781	0.782895	9.617933	0.650492	-4.689179	-3.635601	0.207733	-0.068829	-1.170077	-0.636802	-4.793064	14.302554	-31.539704	384.179313	37.50595	-0.615649	-0.179451	0.270358	10.809287	-0.517496	0.860141	8.466187	-18.432814	-18.788381	-0.514005	-0.063598	0.005963
-0.179188	1.069096	9.392841	-2.655098	-4.529626	-2.795442	0.165385	-0.085005	-1.151537	0.479717	-4.061866	15.458931	0.785609	418.236656	27.913326	-0.588371	-0.204582	0.200065	10.558856	-1.914736	-0.108705	13.600906	-10.049451	-5.492303	-0.472073	-0.046793	0.005336
-0.112197	-0.077846	9.843953	-4.729083	-3.91136	-1.246009	0.165371	-0.067705	-1.169029	1.938812	-4.629491	13.677422	2.981424	405.993274	24.155136	-0.638058	-0.166738	0.098713	10.252771	-1.916534	-0.713276	24.915107	-3.015215	-10.426031	-0.471726	-0.013582	-0.011866
0.235949	-0.306896	10.077081	-2.151703	-2.530432	-2.703063	0.192855	-0.058212	-1.159068	3.726422	-3.959061	11.224533	14.686402	389.19325	0.937106	-0.636362	-0.175627	0.013618	9.318552	-1.970224	-0.191968	34.349432	2.175991	-18.185927	-0.472002	-0.047619	0.020864
-0.108116	0.440093	10.073537	0.026237	-1.743277	-3.463252	0.152408	-0.108644	-1.158433	2.765047	-3.341602	6.675753	8.650906	360.153761	-14.493544	-0.609229	-0.17119	-0.044332	8.256706	-1.212311	-0.088748	33.61338	7.105824	-18.940185	-0.499956	-0.065046	0.037089
1.193919	0.276024	12.257727	-4.717221	-1.942411	-1.398053	0.164999	-0.071234	-1.154953	1.675891	-3.062433	1.501235	-42.108981	336.908773	-25.401263	-0.620804	-0.181226	-0.114802	7.732299	-1.267688	0.260542	31.953947	8.924159	-14.9091	-0.472002	-0.047619	0.020864
-1.036803	-0.596087	9.369141	-6.287218	-0.333355	-5.691653	0.151622	-0.063803	-1.182756	-0.001621	-2.608948	1.126719	-113.80662	333.578966	-24.721441	-0.619693	-0.132049	-0.160862	8.325647	-0.745365	0.513399	31.23792	9.496752	-11.364318	-0.485843	-0.029978	-0.011099
0.643572	1.015658	10.488397	-3.790099	-0.645635	-1.532987	0.164999	-0.071234	-1.154953	-0.561532	-2.379547	4.568626	-178.696208	337.797056	-18.56624	-0.605686	-0.158327	-0.216529	7.441775	-0.859245	0.556305	29.904741	8.729412	-11.56975	-0.499889	-0.047201	0.005196
0.641635	0.613085	10.373002	-4.787454	-0.09635	1.116256	0.15165	-0.098401	-1.147772	0.049315	-2.207874	8.940898	-212.042856	340.837897	-19.364251	-0.60347	-0.120183	-0.318985	7.607569	-0.281115	0.022916	30.293948	5.924165	-15.255485	-0.485426	0.002407	-0.012773
0.338868	0.322466	9.513432	-2.348755	-1.173522	-0.472331	0.166528	-0.109019	-1.158782	-0.058919	-0.514979	12.110511	-204.81328	344.934998	-23.633365	-0.602364	-0.131216	-0.37538	7.668091	-0.45523	0.083182	29.680614	3.148744	-16.248468	-0.514151	-0.043274	-0.072514
0.70512	-0.304815	10.65452	6.080716	0.051374	-2.040765	0.177219	-0.037352	-1.137398	0.129085	0.330319	12.907804	-171.280602	349.328706	-22.329561	-0.549279	-0.126628	-0.433882	7.721159	-1.212084	-0.33828	28.20572	-0.502631	-15.645084	-0.48591	-0.047823	0.020794
0.420619	0.327732	10.765313	7.992187	0.429244	-7.468504	0.164242	-0.060991	-1.144293	0.870398	0.215972	12.583587	-133.774258	350.3922	-23.46022	-0.521475	-0.044516	-0.5112	7.245904	-0.340111	-0.403282	25.31709	-3.112389	-15.683289	-0.485843	-0.029978	-0.011099
-0.680412	0.095858	10.060954	19.268018	0.956437	-8.688504	0.179491	-0.06808	-1.169378	1.781342	0.43919	12.150003	-109.537573	345.912382	-26.105625	-0.507469	-0.070795	-0.566868	7.182196	-0.689668	-0.7054	22.878056	-5.509488	-18.382744	-0.457748	-0.014204	0.003732
-0.517432	-0.078521	9.608746	18.960033	0.771659	-8.78263	0.193984	-0.064926	-1.183804	1.924487	0.719382	10.794516	-105.513613	334.334509	-25.940306	-0.467574	0.008176	-0.601412	6.719971	-0.686363	-0.175042	19.999188	-6.740496	-18.641471	-0.541195	-0.015429	0.003311
0.106261	0.666557	9.339866	16.698519	1.118726	-7.789055	0.22261	-0.079446	-1.181086	1.690121	-0.294374	10.505629	-114.54376	319.600873	-22.518469	-0.440077	-0.031204	-0.685051	6.540722	-0.686452	-0.298157	17.550539	-5.852522	-16.619977	-0.500168	-0.062567	-0.009495
0.001732	0.726253	9.849558	14.683106	1.370222	-6.39905	0.192483	-0.06174	-1.144992	1.516132	0.381916	10.502571	-136.781347	304.369274	-15.505414	-0.412869	-0.011446	-0.744005	7.370789	-0.919905	-0.104019	16.558277	-4.569246	-13.872185	-0.527708	-0.028938	-0.042365
-0.169534	0.037078	9.843322	9.998927	1.460131	-5.402696	0.223011	-0.110517	-1.160179	1.712682	0.551533	11.639132	-164.167984	290.667025	-4.442723	-0.334938	0.004325	-0.746663	6.776496	-1.035696	-0.355145	17.625353	-3.669565	-11.77172	-0.541825	-0.045335	-0.041598
-0.181332	0.95373	9.278652	5.024089	3.849997	-4.061443	0.179906	-0.11645	-1.130979	1.755422	0.32787	13.621328	-180.497902	281.43882	8.400077	-0.306619	0.07326	-0.851678	7.207756	-1.26499	0.610079	16.815419	-2.256315	-9.697434	-0.528126	-0.061323	-0.040691
-0.560294	0.03954	10.347206	8.305672	4.484455	-4.459271	0.1654	-0.102304	-1.134046	3.175245	0.552123	15.462999	-182.592157	273.781304	23.890811	-0.280516	0.104051	-0.854236	6.849663	-1.439396	0.363107	15.967593	-1.823279	-7.496055	-0.514005	-0.063598	0.005963
-0.396657	0.497259	9.954505	11.402183	5.59084	-5.891641	0.194741	-0.075169	-1.194464	2.977491	-0.009518	16.930319	-167.168746	265.513065	40.253285	-0.226835	0.170992	-0.931102	7.254937	-1.383996	-0.048291	15.149352	-1.69823	-5.079343	-0.513312	0.002825	-0.028441
0.30306	-0.075	10.590838	15.535966	5.713824	-6.913623	0.194026	-0.116824	-1.131328	3.86789	-0.179083	18.194382	-144.652364	256.27956	58.739774	-0.201254	0.15475	-0.916301	7.66695	-1.385189	-0.100494	14.9971	-2.820164	-3.117477	-0.486398	-0.079382	0.00694
0.294851	0.497727	10.195279	21.996514	5.97895	-8.676067	0.208133	-0.0999	-1.149169	3.919388	-0.799111	17.855231	-121.377877	246.017679	76.693161	-0.110272	0.185916	-0.920238	6.962058	-1.382827	0.066021	12.953985	-5.01662	-1.418668	-0.500306	-0.079586	0.00687
-0.279796	0.325334	10.069714	27.573035	6.69533	-9.937934	0.193255	-0.089282	-1.13816	5.592843	-1.027416	18.060019	-110.289656	240.204262	97.703438	-0.070603	0.218926	-0.951772	7.600096	-1.328708	-0.520696	10.22946	-6.837081	-0.819423	-0.527567	-0.030591	-0.01131
0.008578	0.497934	10.189712	36.067151	7.937646	-10.310235	0.194755	-0.092468	-1.176972	6.133899	-1.027485	19.147051	-100.646023	235.188579	120.324826	-0.043175	0.224435	-1.024072	6.730375	-1.846153	0.239362	5.978707	-7.729969	1.247949	-0.485772	-0.030805	0.004429
-0.054285	0.554211	9.904574	39.699098	9.910522	-9.337864	0.208147	-0.117199	-1.131678	7.397705	-0.91729	19.060463	-95.53502	236.554628	150.932305	-0.029973	0.270472	-1.027359	7.379397	-2.254418	0.189829	3.426684	-8.280603	3.338133	-0.514076	-0.062772	-0.009565
-0.09261	0.558353	10.869963	47.126107	8.653074	-11.955959	0.194398	-0.113296	-1.145404	8.165182	-0.805272	19.982507	-104.084369	248.426656	191.935751	0.060713	0.300566	-1.016946	7.437043	-2.138648	0.131517	3.80312	-8.508833	4.835489	-0.527775	-0.046783	-0.010472
-0.119292	0.495122	9.505248	52.182057	9.332459	-12.879581	0.194769	-0.109768	-1.15948	11.265599	-0.360732	19.70833	-127.371031	267.716103	230.969017	0.112027	0.298722	-0.98935	7.447237	-1.787719	0.73207	4.524474	-7.815368	6.052135	-0.500101	-0.044722	-0.041388
-0.047521	0.440775	10.24521	46.632335	9.22445	-13.754797	0.221867	-0.086503	-1.152934	18.698921	0.189002	20.261231	-137.751538	295.029662	261.119967	0.190623	0.331957	-1.021711	8.034948	-1.208557	0.68564	11.923479	-8.065939	6.20992	-0.513592	-0.012542	-0.043132
-0.196274	0.96294	11.437956	60.739954	8.493362	-16.690354	0.209662	-0.137684	-1.152998	27.324193	0.735808	20.046565	-118.860692	320.933585	272.559082	0.242382	0.361826	-1.010471	7.806876	-0.857583	1.161976	18.712564	-8.424361	7.715272	-0.528055	-0.062149	-0.025163
0.332046	1.424994	12.132145	52.833352	16.39133	-14.422924	0.194812	-0.161666	-1.107005	35.240617	3.142246	19.139281	-74.013819	317.922302	258.222487	0.293916	0.345734	-0.996221	7.81838	-2.017125	1.636287	21.727562	-8.769602	12.565892	-0.541892	-0.06318	-0.009706
-0.917074	0.79622	12.616672	44.636332	28.501743	-7.056382	0.210062	-0.168755	-1.13209	38.166626	5.892034	13.598356	-27.353082	269.853345	228.973525	0.385928	0.350547	-1.05555	8.173017	-2.250239	1.641901	20.527702	-8.465297	18.223614	-0.471447	0.001784	0.002825
-1.399932	-0.300386	11.295558	55.887117	32.578239	-4.200971	0.224197	-0.186429	-1.114948	38.320617	6.336923	7.374424	-9.559858	193.994595	195.2938	0.437242	0.348703	-1.027954	8.890109	-3.237669	2.010344	18.975458	-7.702458	20.823845	-0.4994	-0.015642	0.019049
0.562761	3.977911	18.171417	41.275806	50.519884	6.559757	0.224182	-0.169129	-1.132439	40.355853	4.639178	2.829923	24.584642	123.908596	134.458046	0.489076	0.393893	-1.017718	9.597432	-4.285399	1.839379	13.625046	-5.231894	25.569556	-0.513864	-0.06525	0.037018
2.265256	4.892596	17.469593	38.963481	92.777457	5.014681	0.252452	-0.204477	-1.098154	42.551398	3.72931	-2.220043	47.71394	65.875295	60.69899	0.488185	0.330467	-0.985004	10.188289	-4.112274	1.911032	10.41	-2.333593	31.100501	-0.499822	-0.029356	-0.026697
0.94782	2.340708	11.466017	36.66031	110.005177	-0.586756	0.223053	-0.162415	-1.107703	43.199165	6.719169	4.136986	-18.636649	-11.939032	-15.783853	0.527332	0.316444	-0.999177	10.357364	-3.998258	1.495479	0.482464	1.299336	37.233368	-0.471029	0.034169	0.001151
2.092437	3.903387	14.45005	8.799299	121.039854	-4.314014	0.294785	-0.171002	-1.134185	37.843534	6.440341	-4.184795	10.032624	-91.875638	-95.404808	0.501821	0.287797	-1.025318	10.703198	-4.23335	1.021838	-8.085744	5.615887	42.808026	-0.471726	-0.013582	-0.011866
2.684899	4.079639	15.485264	9.617967	142.300211	-9.552444	0.310077	-0.229989	-1.106795	39.478633	12.306513	8.253223	-4.040396	-141.08004	-138.74596	0.475579	0.346785	-1.000081	11.512512	-4.064721	0.139382	-6.817654	6.64087	47.659794	-0.498636	0.049954	0.000173
3.420672	3.560197	15.042743	-5.332616	165.101717	-13.73909	0.281065	-0.201698	-1.112929	34.831925	19.651222	23.051637	128.377659	-166.707369	-125.271524	0.435986	0.329095	-0.969551	11.63284	-5.052283	0.13738	-0.178937	5.590587	50.942848	-0.471029	0.034169	0.001151
0.904497	0.919951	15.039502	-21.227978	182.085667	-14.674587	0.296328	-0.226086	-1.120522	-9.283205	3.374624	-4.554513	402.958008	-167.995988	0.761423	0.449402	0.300673	-0.996519	12.048424	-5.168886	0.264403	3.150153	3.862165	47.667521	-0.471309	0.018803	-0.01354
1.969844	0.582035	16.820543	-6.272781	203.08014	-10.112983	0.379908	-0.20432	-1.115373	-15.75066	0.536494	21.0666	227.86256	-295.148864	36.537775	0.422929	0.25349	-0.978607	12.05184	-5.691076	0.381991	7.476914	4.227836	43.369739	-0.471309	0.018803	-0.01354
2.144538	-0.394113	16.933487	-11.469309	229.029387	-9.461217	0.394029	-0.204695	-1.115722	9.091681	3.925337	20.685509	100.637077	-317.536481	69.97346	0.333643	0.213435	-1.059764	13.75279	-4.01227	0.061633	10.463171	8.073252	48.201839	-0.443631	0.002193	0.002965
-0.240187	-3.994984	20.679562	35.324463	259.121953	-3.892604	0.422242	-0.170845	-1.151404	14.763858	9.368621	9.260148	52.066961	-208.284192	38.769442	0.307176	0.226461	-1.031517	15.13663	-2.80259	-1.524251	-11.568558	4.735075	49.887492	-0.401632	0.036843	-0.029554
0.236612	-3.761448	21.655938	66.259322	291.670668	11.114834	0.478381	-0.21047	-1.103742	8.951525	0.481053	11.111732	14.58196	-154.574055	-19.147604	0.267877	0.209844	-1.015336	15.902528	-1.481587	-4.618317	-56.371595	6.095061	18.279841	-0.484937	0.033965	0.001081
2.504053	-3.755586	23.46181	92.052562	333.888856	20.926985	0.549384	-0.243414	-1.08458	0.641121	-2.825634	12.349632	-2.693005	-134.248697	-2.497729	0.267802	0.194524	-1.014333	15.644724	-1.602144	-5.821351	-49.822312	12.557806	-27.647881	-0.470754	0.068207	-0.031579
2.25433	-6.562535	25.206864	135.014746	371.982611	35.466669	0.589102	-0.217337	-1.039571	2.123507	-3.56135	11.644133	29.124256	-149.222619	16.862737	0.216199	0.255505	-1.017244	13.376047	-2.984027	-4.252716	-64.154583	15.635527	-37.357682	-0.457539	0.001989	0.002895
1.817917	-6.569965	23.37977	175.887435	419.154379	51.783808	0.633378	-0.270017	-1.041032	2.340213	-1.142285	8.537038	78.410649	-148.202125	3.471218	0.202552	0.177756	-0.997601	12.493663	-3.549029	-0.977916	-52.551031	15.503916	-23.588025	-0.484937	0.033965	0.001081
2.330933	-4.962216	23.339695	199.680713	461.952009	70.008758	0.690275	-0.319885	-1.004029	4.411758	-5.145964	8.180715	93.529624	-97.644324	34.537564	0.175859	0.144821	-0.966342	12.01862	-4.000061	2.005547	-14.727874	14.719298	-17.518016	-0.485496	0.003233	-0.028301
0.708205	-0.943767	22.472613	218.214829	487.798483	78.928569	0.760149	-0.346114	-0.960131	9.34141	-1.77597	7.607851	81.070655	-50.868832	1.573602	0.215528	0.177831	-0.997876	11.503326	-3.239902	2.957367	25.904594	10.64809	-23.971185	-0.49857	0.067799	-0.031719
-1.614788	3.77417	23.868075	202.823567	483.104262	64.58074	0.814402	-0.368782	-0.877072	2.153689	2.293916	8.196467	32.211029	-23.708832	-16.414847	0.176739	0.087827	-1.019727	11.082382	0.129453	2.964004	65.871579	9.26031	-38.714639	-0.457818	-0.013378	-0.011796
