1824_acc_x	1824_acc_y	1824_acc_z	1824_gyro_x	1824_gyro_y	1824_gyro_z	1824_mag_x	1824_mag_y	1824_mag_z	1825_acc_x	1825_acc_y	1825_acc_z	1825_gyro_x	1825_gyro_y	1825_gyro_z	1825_mag_x	1825_mag_y	1825_mag_z	1826_acc_x	1826_acc_y	1826_acc_z	1826_gyro_x	1826_gyro_y	1826_gyro_z	1826_mag_x	1826_mag_y	1826_mag_z
-2.0644	0.6	9.6083	-0.3594	0.037	0.0361	0.1019	-1.196	-0.403	2.4308	0.4235	9.8701	-0.1636	0.8309	-0.2498	0.0841	-0.1561	-0.6724	9.6183	2.5299	0.4701	-3.9002	0.1652	-0.896	-1.0617	-0.1449	0.6317
-2.3631	0.5406	9.7205	-0.2691	-0.1457	0.0925	-1.2357	0.8432	-0.8636	2.8771	0.9953	9.2957	-0.0172	1.1401	-0.4062	0.7025	-0.048	-0.006	8.9258	2.5871	-0.1719	-4.0919	0.0315	-0.0617	-1.0451	-0.1247	0.6682
-2.2505	0.8373	9.3102	-0.3886	0.0975	0.0993	-1.2532	0.8829	-0.8299	2.8786	0.7655	9.3533	-0.0722	0.8621	-0.312	0.6904	-0.036	0	9.3888	2.0182	0.2938	-4.6373	0.2086	0.3248	-1.0775	-0.1264	0.6142
-2.0658	0.1345	9.4973	-0.1102	0.1616	0.0356	-1.2352	0.8821	-0.8289	2.131	0.4784	9.1619	0.1436	0.8325	-0.4053	0.6965	-0.048	0	9.3872	2.53	0.237	-3.9301	0.1807	0.1498	-1.014	-0.1623	0.6676
-2.0616	0.8896	9.7798	0.0422	-0.1743	0.3647	-1.2903	0.8839	-0.8487	2.3688	0.5951	9.6355	0.0236	0.7085	-0.3116	0.7085	-0.048	0.012	9.5587	2.3593	0.2972	-3.3775	0.5183	-0.0484	-1.0137	-0.1247	0.6333
-2.0071	0.427	9.4363	0.5095	0.1056	0.3034	-1.2568	0.9195	-0.8623	2.4168	0.8805	9.1692	0.0274	0.5863	-0.1573	0.7025	-0.042	0.006	8.9949	2.7013	0.516	-3.0737	0.4601	-0.2424	-1.0296	-0.1435	0.6679
-2.2409	0.714	9.8372	0.7924	0.2294	0.5794	-1.236	0.901	-0.8283	2.6583	0.7679	9.8175	0.2188	0.3106	-0.0953	0.7145	-0.048	0.012	9.3336	2.4734	0.4076	-2.5752	0.276	-0.1358	-1.0142	-0.1442	0.6149
-1.7075	0.6024	9.381	1.0067	0.2324	0.3922	-1.2561	0.9006	-0.8628	2.7684	0.7667	9.5854	0.2818	0.313	0.0887	0.7025	-0.042	-0.006	9.3327	2.3596	0.3503	-1.2826	0.2351	0.5934	-1.0616	-0.1261	0.6145
-2.3682	0.4275	9.43	0.8232	0.2605	0.5181	-1.2867	0.8473	-0.8164	2.4796	0.1913	9.4016	0.4358	0.346	0.149	0.6965	-0.048	0	9.2723	2.7576	0.1779	0.3011	0.2799	1.714	-1.0629	-0.2027	0.6121
-2.1248	0.7752	9.605	0.6703	0.3506	0.522	-1.2506	0.8458	-0.8143	2.7111	0.8243	9.5845	0.3444	0.3148	0.2112	0.6965	-0.054	0.012	9.8443	2.5296	0.417	2.6114	0.4546	2.2608	-0.9977	-0.1428	0.6686
-2.0034	0.8326	9.6648	0.4839	0.2876	0.523	-1.2731	0.902	-0.8471	2.6562	0.7099	9.7001	0.2523	0.2826	0.1812	0.7025	-0.048	0.012	9.4361	2.1315	-0.2201	4.9899	0.8846	1.978	-1.0772	-0.1072	0.6148
-2.1183	0.654	9.9569	0.2016	0.1636	0.3086	-1.2712	0.8837	-0.8309	2.4742	0.8229	9.1701	-0.2121	0.3388	0.0914	0.7025	-0.042	0	9.3233	1.5061	-0.2227	6.5052	1.2517	1.8434	-1.0607	-0.1243	0.7034
-2.4846	0.5998	9.6593	-0.1086	0.0995	0.2803	-1.2524	0.864	-0.8305	3.1649	0.88	9.3593	-0.5206	0.399	0.2465	0.6904	-0.054	0.012	9.6127	2.0178	0.1263	7.4386	1.8435	0.8984	-1.0766	-0.1062	0.6682
-2.1298	0.5454	9.316	-0.107	0.1603	0.3431	-1.2182	0.8807	-0.8446	2.4712	0.6496	8.9936	-0.8285	0.3011	0.0338	0.7085	-0.042	0	9.7778	1.9605	-0.1568	6.6864	2.5469	-1.4703	-1.0616	-0.1445	0.6495
-2.0604	0.7721	9.8397	-0.1107	-0.0227	0.2777	-1.2504	0.8652	-0.7969	2.5336	0.8808	9.2886	-0.9567	0.5795	0.1865	0.6965	-0.048	0	9.3747	2.5295	-0.4498	5.3119	2.8409	-2.871	-1.0621	-0.1641	0.6311
-2.305	0.4836	9.6055	0.1406	0.2857	0.189	-1.2522	0.8835	-0.8131	2.5369	0.8816	9.4643	-0.86	0.3952	0.2178	0.6904	-0.042	-0.006	10.1758	2.2444	-0.092	3.8087	3.0472	-2.3942	-1.0297	-0.1439	0.6501
-2.012	0.8969	9.1969	0.1737	0.5004	0.0702	-1.2545	0.8628	-0.864	2.8757	0.5347	9.1765	-0.6169	0.4884	0.0007	0.7025	-0.036	-0.006	9.7155	2.2447	-0.4438	1.9479	2.8508	-1.4182	-1.077	-0.1069	0.6326
-2.2461	0.6593	9.546	-0.449	0.3731	-0.2015	-1.2527	0.8446	-0.8478	2.8804	0.3632	9.41	-0.0327	0.4924	-0.2178	0.7025	-0.036	0.012	9.6566	2.3016	-0.5592	0.1432	2.6265	-0.6286	-1.0453	-0.125	0.6504
-2.3033	0.8323	9.7179	-0.137	0.4057	0.0413	-1.2362	0.8815	-0.8456	2.7707	0.0768	9.6409	0.0325	0.3705	-0.0946	0.6904	-0.048	-0.006	9.7126	2.074	-0.6156	-1.3089	2.0455	-0.4361	-1.0604	-0.0867	0.6691
-2.1991	1.0182	8.8418	-0.0476	0.408	-0.2673	-1.2367	0.9199	-0.8277	2.8778	0.5927	9.2939	-0.0624	0.4935	-0.064	0.7085	-0.054	0.018	9.4894	2.3588	-0.3906	-2.5783	1.7098	-0.3701	-1.0611	-0.1065	0.6329
-1.8945	0.6654	9.0267	-0.2327	0.2215	0.0385	-1.2542	0.8823	-0.8467	2.8832	0.6515	9.5871	0.1813	0.6194	-0.0969	0.6965	-0.042	0	9.6694	2.0746	0.1274	-3.4851	1.2261	-0.5927	-1.0452	-0.1062	0.6333
-2.1157	0.3024	10.0781	-0.2978	0.1607	-0.1773	-1.2164	0.8625	-0.8284	2.7723	0.4224	9.7596	0.335	0.5886	-0.2513	0.6904	-0.042	0.006	9.1595	2.189	0.1753	-4.2565	0.5236	-0.4216	-1.0617	-0.1634	0.6666
-2.3102	1.2452	9.3624	-0.2327	0.2215	0.0385	-1.222	0.8978	-0.8943	2.6534	0.3641	9.5228	0.2725	0.6504	-0.1898	0.7025	-0.036	0	9.4914	2.4158	-0.2761	-5.207	0.1228	-0.0583	-1.078	-0.1829	0.6657
-2.0084	0.6028	9.3757	-0.1102	0.2231	-0.0553	-1.2383	0.8803	-0.8792	2.9956	0.6508	9.4721	0.0851	0.8042	-0.0667	0.7205	-0.03	-0.006	9.4934	2.4727	-0.1616	-5.6287	-0.0352	0.3525	-1.1091	-0.1452	0.6663
-2.0708	0.6627	9.2571	-0.2655	0.0682	0.0971	-1.2524	0.864	-0.8305	2.6506	1.399	9.4689	0.0798	0.9879	-0.2522	0.7085	-0.042	-0.006	9.3861	2.53	0.1798	-6.0291	0.0246	0.4264	-1.046	-0.1634	0.6492
-2.3133	0.4311	9.139	-0.2337	0.2219	-0.0538	-1.238	0.8225	-0.9145	2.6546	0.9972	9.6428	-0.0748	1.0176	-0.2207	0.6904	-0.06	0.006	9.6145	2.3023	0.241	-6.0829	0.2037	0.6753	-1.0298	-0.1254	0.6152
-2.2474	0.8935	9.4846	-0.0791	-0.0227	0.3388	-1.2359	0.8237	-0.8809	2.8198	1.0529	9.2949	-0.0767	0.9834	-0.5585	0.7025	-0.048	-0.012	9.1683	2.6444	0.6908	-5.7307	0.3652	0.0207	-1.0937	-0.1644	0.6482
-2.3692	0.3699	9.3723	0.1277	-0.4472	0.1117	-1.2344	0.8632	-0.8294	2.7081	0.5935	9.4078	0.0469	0.985	-0.5285	0.7025	-0.06	0.012	9.8452	2.6434	0.4744	-5.0873	0.6124	-0.2424	-1.0131	-0.1236	0.6866
-2.0033	0.7159	9.6663	0.3842	-0.018	0.3331	-1.1981	0.8811	-0.81	2.3087	0.9398	9.5188	-0.0397	0.7058	-0.5264	0.7025	-0.054	0.006	9.4484	2.3027	0.4668	-4.3067	0.3657	-0.0219	-1.0784	-0.1651	0.5952
-2.1255	0.4841	9.5503	0.8808	-0.0448	0.6031	-1.2344	0.8632	-0.8294	2.7673	0.7665	9.5268	0.2135	0.5261	-0.1888	0.7085	-0.03	-0.006	9.4423	2.1318	0.1233	-3.1371	0.2635	0.7413	-1.0768	-0.1065	0.6504
-2.1308	0.5461	9.2576	1.0657	-0.0119	0.5092	-1.2516	0.8452	-0.8311	2.3014	0.7079	9.1077	0.3113	0.2797	-0.1879	0.7265	-0.042	0.006	9.844	2.7571	0.4172	-1.4845	0.1671	1.0905	-1.0123	-0.085	0.7056
-2.3686	0.6609	9.4271	0.9779	0.2619	0.547	-1.2354	0.8626	-0.8462	2.7078	0.8236	9.4088	0.5027	0.0676	0.0581	0.7085	-0.042	0.018	9.6161	2.6436	0.3557	0.5613	0.0753	1.1207	-1.0291	-0.1055	0.6514
-2.0085	0.6612	9.375	0.7634	0.3821	0.5215	-1.2749	0.9203	-0.8633	2.9389	0.3058	9.4695	0.2265	-0.0607	-0.1239	0.7085	-0.042	0	9.8381	2.4725	0.0736	2.7018	0.2874	1.1813	-1.0451	-0.1247	0.6682
-2.0665	0.6015	9.4915	0.3888	0.2569	0.339	-1.2372	0.8809	-0.8624	2.4826	0.3646	9.5781	-0.0513	0.0631	0.1843	0.6965	-0.048	0	9.6074	2.1314	-0.1598	5.337	0.8657	1.1686	-1.0294	-0.1432	0.6857
-2.0671	0.3104	9.4367	-0.1088	0.1303	0.2195	-1.237	0.8231	-0.8977	2.3715	0.941	9.8128	-0.7589	0.0261	0.3116	0.7085	-0.03	0	9.5523	2.4159	-0.0461	6.2276	1.2961	0.8688	-1.0446	-0.1051	0.6866
-2.3031	0.6572	9.7201	-0.0145	0.1306	0.3721	-1.2359	0.8237	-0.8809	2.5933	0.7662	9.4063	-1.0984	0.0856	0.4361	0.7025	-0.048	0.006	9.3763	2.0177	-0.393	5.6244	1.9269	-0.6752	-1.0458	-0.163	0.667
-2.1268	0.6599	9.4897	0.0743	-0.0207	0.2447	-1.3096	0.8646	-0.8839	3.3415	0.7082	9.5961	-1.3194	0.2039	0.0987	0.7085	-0.048	0.006	9.6627	2.4156	-0.2157	3.7771	2.2247	-2.3384	-1.0451	-0.1247	0.6682
-2.0087	0.7779	9.3735	-0.079	0.008	0.3087	-1.236	0.901	-0.8283	2.9869	1.2241	9.0646	-1.0183	0.5789	0.1869	0.7025	-0.036	0	9.6607	2.3586	-0.3302	1.7868	2.3645	-3.599	-1.045	-0.1058	0.651
-2.3085	0.7776	9.4266	0.0751	0.102	0.1243	-1.1993	0.8611	-0.8442	2.412	1.1095	8.936	-0.7141	0.6721	-0.092	0.6965	-0.06	0.006	9.4981	2.0748	0.067	0.0191	2.5786	-3.6673	-1.0607	-0.1058	0.6685
-2.0658	0.0762	9.4981	0.1055	0.1333	0.0323	-1.1991	0.8805	-0.8268	2.7627	0.938	9.2933	-0.5635	0.8279	-0.1245	0.7085	-0.048	0.018	9.3197	2.7571	-0.3362	-0.9415	2.5946	-2.6552	-1.0922	-0.0689	0.6335
-2.2513	0.6046	9.2547	-0.2013	0.16	0.1905	-1.2187	0.8418	-0.8793	2.7119	0.9971	9.6439	-0.3193	0.9226	-0.188	0.6844	-0.042	0.012	9.6071	2.3588	-0.1596	-1.4639	2.3039	-1.4742	-1.0623	-0.1644	0.6133
-1.763	0.3078	9.6172	-0.1967	0.5273	0.0447	-1.2556	0.9396	-0.8281	2.4189	0.9385	9.2867	-0.1303	0.739	-0.188	0.7085	-0.042	-0.006	9.5997	2.4154	-0.5602	-1.5554	2.1363	-0.3973	-1.077	-0.1069	0.6326
-2.0073	0.5437	9.4349	-0.2315	0.3133	0.0097	-1.2529	0.8251	-0.8652	2.7101	0.709	9.5255	-0.0669	0.6784	-0.1266	0.7085	-0.048	0.006	9.7808	2.1313	0.0151	-1.7167	1.8201	0.4347	-1.061	-0.1435	0.7028
-2.0087	0.7779	9.3735	-0.1081	0.3453	-0.0527	-1.2378	0.9193	-0.8444	2.5427	0.7104	9.7565	0.0256	0.6476	-0.2191	0.7025	-0.036	-0.012	9.4929	2.0746	-0.2191	-2.0525	1.5434	0.6269	-1.0463	-0.1825	0.6486
-2.3067	0.1932	9.4924	-0.232	0.2827	0.009	-1.2723	0.8831	-0.8477	2.4149	0.7075	9.0513	-0.0057	0.6467	-0.2804	0.6965	-0.072	0	9.3781	2.3022	-0.2783	-2.8252	1.3292	0.7097	-1.0609	-0.1062	0.6507
-2.0631	0.4242	9.6689	-0.048	0.2851	-0.1162	-1.2728	0.8442	-0.8824	2.8807	0.8235	9.4707	0.0591	0.556	-0.1266	0.7085	-0.054	0.018	9.152	2.3593	-0.2252	-3.5792	1.1207	0.3926	-1.0445	-0.0863	0.6694
-2.0675	0.5438	9.4338	-0.2019	0.3141	-0.1137	-1.236	0.901	-0.8283	2.8144	0.9366	9.0015	-0.3415	0.5522	-0.0935	0.7085	-0.06	-0.006	9.442	2.4161	0.1235	-4.3433	1.2522	-0.2902	-0.981	-0.0853	0.6529
-2.0088	0.8947	9.3721	-0.171	0.2221	0.0377	-1.2895	0.865	-0.8493	2.8803	0.4207	9.4103	-0.1589	0.6145	-0.2486	0.7085	-0.03	0.012	9.2703	2.7575	0.0634	-4.7797	1.1925	-0.3698	-1.0609	-0.1062	0.6507
-2.1822	0.3069	9.7266	-0.1084	0.2532	0.0684	-1.2679	0.8277	-0.8159	2.5955	0.7667	9.5235	-0.2235	0.6736	-0.4636	0.6904	-0.048	0.006	9.2168	2.5871	0.2339	-4.9891	1.1281	-0.1183	-1.0288	-0.0679	0.617
-2.2523	0.547	9.197	0.2597	0.1965	-0.0913	-1.2555	0.8622	-0.8808	2.5402	0.8824	9.6401	0.1802	0.6179	-0.2506	0.7025	-0.048	0.006	9.1707	2.417	0.8051	-4.4906	1.2487	-0.04	-1.0775	-0.1264	0.6142
-1.8223	0.4238	9.6731	0.2579	0.0126	0.0278	-1.2192	0.8801	-0.8614	2.7651	0.7659	9.4096	0.3934	0.7438	-0.2526	0.7085	-0.048	0.006	9.2216	2.0755	0.4624	-3.9741	1.117	0.6502	-1.0607	-0.0874	0.6335
-2.485	0.8916	9.6556	0.5075	-0.1089	0.4526	-1.2372	0.8809	-0.8624	3.2344	0.8253	10.0045	0.2148	0.4643	-0.1884	0.6965	-0.054	0.012	8.8228	2.5309	0.3983	-2.787	0.9296	0.9819	-1.0286	-0.086	0.6697
-2.1298	0.6037	9.3152	0.6029	0.0139	0.5156	-1.2341	0.8827	-0.8121	2.7112	0.7668	9.5843	0.278	0.4351	-0.0657	0.7205	-0.042	0.006	9.5044	2.0751	0.4104	-1.4468	0.4993	1.2764	-1.0773	-0.1076	0.5971
-2.0637	0.8911	9.663	0.6323	-0.0159	0.4223	-1.1993	0.8611	-0.8442	2.5331	0.478	9.2282	0.0921	0.4321	-0.1875	0.7085	-0.036	0.018	9.9531	2.1312	0.1326	-0.0068	0.2021	0.77	-1.0453	-0.1435	0.6854
-2.1929	0.3726	9.1419	0.7234	-0.1681	0.5101	-1.2524	0.864	-0.8305	2.8291	0.7099	9.762	0.1509	0.5879	-0.1273	0.6904	-0.036	0.012	9.7819	2.0745	0.0722	1.7066	0.0598	0.0723	-1.0605	-0.1055	0.6863
-2.2503	0.6623	9.3124	0.386	0.012	0.4567	-1.2542	0.8823	-0.8467	2.9987	0.7666	9.6484	-0.0939	0.5559	0.028	0.7145	-0.054	-0.006	9.8371	2.4724	0.0164	3.5337	0.2431	0.0191	-1.0455	-0.1254	0.6326
-2.2408	0.6557	9.838	-0.0801	-0.0223	0.2466	-1.253	0.9024	-0.8125	2.652	0.5363	9.465	-0.5854	0.5214	0.1847	0.6965	-0.06	0	9.7322	2.2454	0.472	4.2973	0.2033	0.672	-1.0294	-0.1247	0.6507
-1.5843	0.8919	9.5547	-0.3273	-0.0863	0.3405	-1.2326	0.845	-0.8133	2.4183	0.6507	9.2268	-0.8285	0.3646	0.2178	0.7085	-0.036	-0.006	9.4927	2.1883	-0.219	3.799	0.4483	0.5659	-1.0299	-0.1627	0.6673
-2.0075	0.7188	9.4327	-0.3269	-0.0249	0.2804	-1.2553	0.8817	-0.8634	2.4266	0.9403	9.6967	-0.8356	0.6414	0.0625	0.7025	-0.042	-0.006	9.1534	2.075	-0.1682	2.144	0.4383	-0.8596	-1.0453	-0.1435	0.6854
-2.2412	0.9475	9.8343	-0.2647	0.0371	0.2194	-1.2367	0.9199	-0.8277	2.9966	0.7086	9.531	-0.7724	0.5487	0.0013	0.7205	-0.054	0	9.2144	2.0183	0.0618	0.2198	0.4383	-2.9837	-1.0458	-0.1445	0.632
-2.0101	0.3125	9.2626	-0.3283	0.068	0.0056	-1.2362	0.8815	-0.8456	2.6462	0.7076	9.1729	-0.8418	0.8557	-0.1538	0.6965	-0.054	0	9.2648	2.0748	-0.2805	-1.0316	0.4584	-4.3903	-1.0773	-0.1445	0.6669
-1.9383	0.3043	9.9061	-0.2383	-0.2684	0.274	-1.2197	0.9185	-0.8434	2.8174	0.477	9.1166	-0.7522	0.98	-0.1858	0.7025	-0.066	0.006	8.9861	2.246	0.0005	-1.9219	0.4546	-4.1179	-1.0617	-0.1449	0.6317
-2.3096	0.0203	9.3194	-0.143	-0.1455	0.3369	-1.2362	0.8815	-0.8456	2.7699	1.2273	9.7046	-0.5707	1.1998	-0.0345	0.6965	-0.048	0	9.5035	1.9613	0.3531	-1.7701	0.6854	-3.2295	-1.0299	-0.1442	0.6324
-2.313	0.9556	9.1908	0.0724	-0.0199	0.0602	-1.2171	0.8813	-0.8278	3.1117	0.4208	9.5319	-0.6668	1.3213	-0.1576	0.6904	-0.06	-0.012	8.9825	2.5871	-0.1709	-1.2302	1.1219	-1.8286	-1.0616	-0.1445	0.6495
-1.586	0.5432	9.4423	-0.1757	-0.1758	0.2137	-1.2509	0.8263	-0.8317	2.7696	0.7095	9.6437	-0.692	1.1058	-0.0333	0.7205	-0.042	-0.006	9.4368	2.4159	-0.1627	-0.7079	1.3388	0.0319	-1.047	-0.2209	0.6474
-2.552	0.4299	9.2516	-0.2371	-0.1151	0.1543	-1.2161	0.8819	-0.8111	2.7037	0.5925	9.1735	-0.5337	0.8904	-0.0944	0.7145	-0.036	0	9.3233	2.3592	-0.1648	-0.9212	1.5055	1.1458	-1.0616	-0.1261	0.6145
-2.5503	0.7786	9.364	-0.3249	0.2511	0.0403	-1.2213	0.8789	-0.8949	2.7669	0.3636	9.4664	-0.1635	0.8945	-0.0658	0.7145	-0.03	0.006	9.2113	1.9613	-0.11	-1.0939	1.7736	1.5526	-1.0445	-0.0679	0.6345
-1.7668	0.7185	9.4369	-0.2377	-0.1148	0.0928	-1.2161	0.8819	-0.8111	2.7097	0.9966	9.5267	-0.3489	0.9556	0.0578	0.6965	-0.054	0.018	9.6084	2.1314	-0.1025	-1.3231	1.6879	1.1593	-1.0294	-0.1247	0.6507
-2.4897	0.4868	9.3687	-0.112	0.1316	-0.088	-1.2354	0.8626	-0.8462	2.7081	0.5935	9.4078	-0.3172	0.8617	-0.0955	0.6965	-0.048	0.012	9.7208	2.1881	-0.1576	-1.5582	1.8184	0.5528	-1.093	-0.1445	0.6844
-2.3607	0.3056	9.8402	-0.0509	0.071	-0.0593	-1.2365	0.8621	-0.863	2.885	0.2492	9.6438	-0.2013	1.1076	-0.3742	0.7145	-0.036	0.012	9.7299	2.416	0.3576	-2.0677	2.0991	0.0786	-1.0457	-0.1442	0.6498
-1.999	0.6546	9.9006	0.2608	0.1653	0.0618	-1.2702	0.8843	-0.8142	2.9981	1.1692	9.6502	-0.106	0.9216	-0.5273	0.6844	-0.036	-0.018	9.5032	2.1319	0.3532	-2.0804	1.9222	-0.3218	-1.061	-0.125	0.6679
-1.8286	0.3699	9.3234	-0.0152	0.2231	0.1588	-1.271	0.9032	-0.8136	2.7668	0.4211	9.4667	0.0143	1.1413	-0.3142	0.7085	-0.048	-0.006	9.1622	2.5304	0.3473	-1.9889	1.8009	-0.3563	-1.0611	-0.1065	0.6329
-1.9427	0.424	9.671	0.0494	0.3149	0.283	-1.2166	0.843	-0.8458	2.6513	0.306	9.4054	0.0476	1.0813	-0.1604	0.7025	-0.036	0.012	9.6158	2.018	0.298	-1.3832	1.6711	0.2084	-1.0294	-0.1432	0.6857
-2.0645	-0.0996	9.5587	0.1393	0.0709	0.3996	-1.2542	0.8823	-0.8467	2.4211	0.9391	9.4038	0.0496	0.9885	-0.1598	0.7025	-0.042	-0.006	9.4928	2.1314	-0.2191	-0.994	1.6325	0.7803	-1.0455	-0.1254	0.6326
-2.1831	0.1909	9.6697	0.1692	0.0716	0.307	-1.2362	0.8815	-0.8456	2.6524	0.3063	9.464	-0.107	1.0473	-0.3129	0.7085	-0.054	-0.012	9.5007	2.473	0.239	-0.1835	1.3254	0.9687	-1.0446	-0.1051	0.6866
-1.9492	0.5451	9.3191	0.2017	0.0712	0.4603	-1.2179	0.8229	-0.8799	2.6528	0.7667	9.5246	-0.1644	0.8933	-0.1887	0.6904	-0.054	0	9.6185	2.4162	0.47	0.8466	0.7268	0.257	-1.0771	-0.1257	0.6498
-2.3673	0.4851	9.4877	0.322	-0.1415	0.485	-1.2532	0.8829	-0.8299	2.9358	0.8229	9.3546	-0.406	0.6432	-0.2165	0.7085	-0.024	0	9.327	2.7574	0.0644	1.993	0.4669	-0.7319	-1.0455	-0.1438	0.6676
-2.13	0.7205	9.3138	0.4488	0.0737	0.4573	-1.2362	0.8815	-0.8456	2.8817	0.2484	9.4681	-0.8061	0.7035	0.062	0.6844	-0.042	-0.006	9.6108	2.7002	0.0696	3.0546	0.3557	-1.4713	-1.0777	-0.1267	0.5965
-2.1308	0.5461	9.2576	0.415	-0.0792	0.4236	-1.2725	0.8636	-0.8651	2.7735	0.3652	9.8179	-1.0173	0.4531	-0.0275	0.7025	-0.054	0.012	9.4459	2.5869	0.3525	3.4807	0.1154	-1.7011	-1.0291	-0.1055	0.6514
-2.1289	0.6614	9.3729	0.3584	0.2257	0.431	-1.2579	0.9189	-0.879	2.6014	0.538	9.8154	-0.8305	0.4256	0.1253	0.7085	-0.042	0.006	9.3856	2.075	0.1222	3.1318	0.1193	-1.9672	-1.0616	-0.1445	0.6495
-1.5889	0.3703	9.2693	0.1996	0.1029	0.215	-1.2916	0.8638	-0.8829	2.4788	0.7089	9.4039	-0.6147	0.3642	-0.06	0.7025	-0.036	0.012	9.2634	2.3591	-0.3375	2.5504	-0.0975	-1.7057	-1.0448	-0.087	0.6339
-2.4352	0.7238	9.0749	-0.0509	-0.0828	0.1834	-1.2736	0.9404	-0.8292	2.8182	0.6498	9.1759	-0.5826	0.3027	-0.0598	0.6904	-0.042	0	9.5494	2.302	-0.2179	1.6583	-0.07	-1.4944	-1.045	-0.1058	0.651
-2.1307	0.4294	9.259	-0.1427	0.0082	0.125	-1.2911	0.9028	-0.8481	2.373	0.7112	9.8703	-0.5531	0.3648	-0.0604	0.6844	-0.03	0.012	9.2728	2.4164	0.1776	0.4762	-0.0983	-1.6436	-1.0292	-0.1243	0.6685
-1.9983	0.1877	9.9065	-0.3935	-0.2388	0.1535	-1.3256	0.8666	-0.8514	2.6528	0.7667	9.5246	-0.496	0.6454	0.122	0.7145	-0.03	0.006	9.611	1.7334	0.0116	-0.3819	0.0032	-2.3546	-1.0135	-0.1243	0.6511
-2.066	0.2513	9.4959	-0.205	-0.0845	0.216	-1.2357	0.8432	-0.8636	2.5917	1.0535	9.3491	-0.496	0.6136	0.03	0.6965	-0.06	0.012	9.205	2.0179	-0.4533	-0.6142	0.1323	-2.869	-1.0301	-0.1446	0.6146
-2.3106	0.7791	9.3098	-0.2084	-0.2061	0.0904	-1.3071	0.9048	-0.8156	2.5349	0.7661	9.3467	-0.3438	0.708	0.0285	0.6965	-0.036	0.006	9.4974	2.6435	0.0675	-0.5697	0.5527	-2.4675	-1.0451	-0.1431	0.7031
-2.6722	0.3134	9.251	0.1069	0.1019	0.2161	-1.2344	0.8632	-0.8294	2.5876	0.88	9.114	-0.4703	0.8616	0.0591	0.6904	-0.036	0.012	8.9284	2.1323	-0.0578	0.2005	1.1498	-1.6561	-1.0294	-0.1247	0.6507
-2.0664	0.5431	9.4922	0.0751	-0.0518	0.367	-1.2723	0.8831	-0.8477	2.7695	0.767	9.644	-0.5614	0.7988	0.06	0.6965	-0.048	0.024	9.3239	1.9042	-0.1652	0.9554	1.9529	-0.351	-1.0766	-0.1062	0.6682
-2.1824	0.4236	9.7252	0.1683	0.0412	0.2756	-1.2511	0.8841	-0.7963	2.6004	0.4227	9.7563	-0.7163	0.7963	-0.0313	0.7025	-0.048	-0.006	9.2739	2.3027	0.2347	1.4672	2.433	0.1292	-0.9979	-0.1617	0.6857
-2.1246	0.6001	9.6072	0.2592	0.0121	0.1508	-1.2506	0.8458	-0.8143	2.3123	0.0776	9.6321	-0.6559	0.9224	0.152	0.7025	-0.042	0	8.7593	2.0188	-0.0038	1.504	2.796	0.2846	-1.0612	-0.1438	0.685
-2.1907	0.3127	9.2594	0.2242	-0.2326	0.1459	-1.2561	0.9006	-0.8628	2.4751	0.9382	9.2292	-0.7242	1.1673	-0.0334	0.6844	-0.048	-0.006	9.3836	2.018	0.0077	1.2562	3.0398	0.2633	-1.0443	-0.086	0.6872
-2.4832	0.3073	9.7213	0.2885	-0.2022	0.3303	-1.2187	0.9191	-0.8266	2.4151	0.5924	9.0508	-0.8473	1.1981	0.09	0.6965	-0.036	0	9.4926	2.3021	-0.219	0.5364	3.287	0.0102	-1.0457	-0.1442	0.6498
-1.468	0.7196	9.3254	0.3231	0.0426	0.3044	-1.2171	0.8813	-0.8278	2.8247	0.7089	9.5277	-0.6663	1.2901	-0.1881	0.6904	-0.048	-0.012	9.2637	2.1316	-0.3377	-0.577	3.0118	0.1028	-1.0609	-0.1062	0.6507
-2.3039	0.4828	9.6639	0.3195	-0.1712	0.2998	-1.2532	0.8829	-0.8299	3.0471	0.8219	9.1811	-0.6677	1.352	-0.1885	0.6904	-0.03	0.006	9.2721	2.0751	0.1201	-1.5535	2.7305	0.6214	-1.0443	-0.086	0.6872
-2.4865	0.4262	9.5447	0.2284	-0.142	0.3939	-1.2849	0.8291	-0.8002	2.8787	0.708	9.353	-0.4552	1.4769	-0.2827	0.7025	-0.06	0.006	9.2697	2.3594	0.0058	-2.1482	2.1542	0.481	-1.0623	-0.1644	0.6133
-2.4898	0.5451	9.368	0.0738	-0.1128	0.3349	-1.2532	0.8829	-0.8299	2.5916	0.4206	9.2876	-0.2048	1.3255	-0.2218	0.7025	-0.036	0.012	9.4325	1.6195	-0.4495	-2.292	1.7528	0.8815	-1.077	-0.1069	0.6326
-2.2492	0.6615	9.3708	-0.2001	0.1903	0.2527	-1.2911	0.9028	-0.8481	2.5358	0.8814	9.4058	-0.1713	1.2339	-0.1293	0.6904	-0.054	-0.006	9.3845	2.1318	0.065	-2.1334	1.4464	1.028	-1.0453	-0.125	0.6504
-2.007	0.3687	9.4371	-0.171	0.1606	0.1286	-1.2357	0.8432	-0.8636	2.7126	0.537	9.6418	-0.1334	0.9257	-0.0662	0.6965	-0.054	-0.012	9.5578	2.2455	0.2399	-1.5473	1.0818	0.9768	-1.046	-0.1449	0.6143
-2.3694	0.4866	9.3709	-0.0737	0.2827	0.3761	-1.3081	0.9042	-0.8324	2.4267	0.8828	9.6965	-0.1601	0.6448	-0.3102	0.6965	-0.042	0.018	9.3804	2.1316	-0.1639	-0.7326	0.9396	0.2753	-1.0299	-0.1442	0.6324
-1.7653	0.426	9.499	0.2035	0.2551	0.3413	-1.2357	0.8432	-0.8636	2.9908	0.8798	9.2388	-0.4978	0.6431	-0.1238	0.7085	-0.042	-0.006	9.6625	2.5862	-0.2156	0.0138	0.5261	-0.6108	-1.0782	-0.1647	0.613
-2.3005	0.3056	9.8413	0.1074	0.1325	0.2168	-1.2705	0.8648	-0.8315	2.7084	0.421	9.407	-0.8006	0.4565	0.0942	0.7085	-0.042	0.006	9.781	2.8137	0.0728	-0.1445	0.3288	-1.7138	-1.061	-0.1435	0.7028
-2.1924	0.7804	9.1952	0.3237	0.1347	0.2141	-1.2542	0.8823	-0.8467	2.4799	0.7092	9.4625	-0.707	0.3953	0.0633	0.7025	-0.054	0.012	9.671	2.4728	0.2422	-0.319	0.0332	-2.3255	-1.0612	-0.1438	0.685
-1.8356	0.8412	8.9672	0.2005	0.1948	0.1555	-1.237	0.9004	-0.845	2.4839	0.2498	9.6361	-0.459	0.2724	-0.1218	0.6965	-0.048	0.006	9.3317	2.3595	0.2931	-0.5	-0.2593	-3.1521	-1.0296	-0.1435	0.6679
-2.4322	0.8967	9.2479	0.1701	0.1635	0.2474	-1.2702	0.8843	-0.8142	2.9954	0.7658	9.4726	-0.2097	0.1831	-0.0306	0.6965	-0.03	0	9.664	2.1882	-0.1587	-0.6277	-0.5928	-3.2432	-1.0614	-0.1257	0.6323
-2.3651	0.4253	9.6052	0.0161	0.1925	0.25	-1.2545	0.8628	-0.864	2.6606	0.7109	9.9344	-0.0272	0.3089	-0.0017	0.6904	-0.054	0	9.5546	2.3022	0.0682	-0.7236	-0.6669	-2.319	-1.0614	-0.1257	0.6323
-2.1848	0.6585	9.6054	-0.0784	0.2539	-0.0243	-1.2555	0.8622	-0.8808	2.8864	1.4002	9.8248	0.0959	0.3099	-0.0331	0.6904	-0.054	0	9.2701	2.0182	0.0056	-0.9059	-0.8049	-1.1777	-1.0453	-0.1435	0.6854
-2.1304	0.2543	9.2612	-0.0175	0.1626	0.0345	-1.2354	0.8626	-0.8462	2.5918	0.996	9.3488	-0.0598	0.3699	-0.0633	0.7085	-0.054	0.006	9.3855	2.1887	0.1223	-0.5191	-0.6901	-0.6967	-1.0297	-0.1439	0.6501
-1.6447	1.0087	9.5522	-0.0471	0.1617	0.1579	-1.2004	0.8605	-0.8609	2.6568	0.3073	9.6983	-0.2168	0.5552	0.0902	0.7025	-0.03	0	9.3311	2.8145	0.2934	-0.0583	-0.6273	-0.8329	-1.077	-0.1253	0.6675
-2.2461	0.7177	9.5452	-0.0465	0.1	0.3103	-1.2566	0.939	-0.8449	2.5932	0.8237	9.4066	-0.3707	0.5222	0.0298	0.7085	-0.042	-0.006	9.2668	2.1318	-0.166	0.2821	-0.0785	-0.9002	-1.0292	-0.1428	0.7035
-2.1857	0.5425	9.5485	0.1371	0.041	0.2452	-1.2535	0.8634	-0.8473	2.6475	0.5928	9.2309	-0.5581	0.7078	0.2449	0.6904	-0.036	0.006	8.9825	2.5871	-0.1709	0.4534	0.1112	-1.3954	-1.0616	-0.1445	0.6495
-2.0732	0.8393	9.1382	0.2295	0.1036	0.1224	-1.2561	0.9006	-0.8628	2.9938	0.4202	9.3539	-0.6825	0.7051	0.092	0.7025	-0.03	0.006	9.2183	2.2459	0.2909	0.9315	0.5926	-1.0064	-1.0623	-0.1644	0.6133
-2.4885	0.3693	9.4286	0.2344	0.3784	0.159	-1.2326	0.845	-0.8133	2.7164	0.9406	9.878	-0.8032	0.6438	0.2774	0.7085	-0.048	0	9.049	2.3031	0.345	1.3718	1.321	-0.8601	-1.0142	-0.1442	0.6149
-2.1869	0.6016	9.4894	0.171	0.3169	0.097	-1.237	0.9004	-0.845	2.5964	0.1916	9.5209	-0.5598	0.7691	0.1831	0.7025	-0.054	0.024	9.7207	2.3018	-0.1576	1.7197	2.1711	-0.7101	-1.0622	-0.1829	0.6483
-2.1298	0.6037	9.3152	-0.0461	0.2843	0.0683	-1.2553	0.8817	-0.8634	2.9414	0.7667	9.6473	-0.4696	0.7989	-0.0327	0.7085	-0.036	0.006	9.2125	2.7575	0.0051	1.828	2.621	-0.2488	-1.0286	-0.086	0.6697
-2.0021	0.6568	9.7254	0.1088	0.2549	0.1579	-1.2009	0.8988	-0.843	2.7644	0.5356	9.35	-0.2554	0.8626	-0.0651	0.7085	-0.042	0	9.2706	2.4732	0.0632	1.4702	2.7973	0.1935	-1.0772	-0.1072	0.6148
-2.1857	0.5425	9.5485	0.2013	0.2252	0.1869	-1.2177	0.9197	-0.8099	2.6455	1.1677	9.1749	-0.2574	0.9235	-0.1576	0.7025	-0.048	0.006	9.262	2.7003	-0.3945	0.5705	2.7674	0.1587	-1.0145	-0.1819	0.6492
-2.2491	0.5448	9.3722	0.1093	0.224	0.2495	-1.2174	0.8619	-0.8452	2.7741	0.653	9.8778	-0.038	0.8033	-0.0353	0.7025	-0.048	-0.006	9.6628	2.3587	-0.2158	-0.5034	2.5492	0.5271	-1.045	-0.1058	0.651
-2.2483	0.7192	9.4284	0.1061	0.2253	-0.058	-1.1996	0.9189	-0.8088	2.6528	0.7667	9.5246	-0.0968	0.6157	-0.1875	0.7085	-0.03	0	9.4891	2.6431	-0.3904	-1.4663	2.0787	1.5047	-1.0457	-0.1442	0.6498
-1.6429	0.4827	9.6171	0.2335	0.1635	0.4004	-1.2362	0.8815	-0.8456	2.6462	0.7076	9.1729	0.0856	0.8048	-0.0053	0.6965	-0.066	-0.006	9.4939	2.0746	-0.1619	-2.0181	1.7102	1.7334	-1.0778	-0.1456	0.6136
-2.0068	0.1936	9.4393	-0.0207	-0.1437	0.2124	-1.2715	0.8642	-0.8483	2.6589	1.0558	9.8774	0.2042	0.9589	-0.1913	0.6965	-0.06	0	9.2705	2.53	0.0632	-2.1482	1.2254	1.5797	-1.0457	-0.1442	0.6498
-2.2444	0.25	9.6095	-0.0479	0.039	0.2782	-1.2367	0.8426	-0.8804	2.659	0.9983	9.8771	0.1384	1.1752	-0.1307	0.6965	-0.036	0	9.3815	2.0179	-0.1068	-1.9531	0.5956	0.9236	-1.0458	-0.1445	0.632
-1.8911	0.5465	9.2034	-0.2361	-0.1155	0.2465	-1.2679	0.8277	-0.8159	2.7164	0.9406	9.878	-0.1707	1.1076	-0.4051	0.7085	-0.072	-0.006	9.2659	2.0749	-0.2233	-1.9405	0.4518	0.3382	-1.0782	-0.1647	0.613
-1.7085	0.5448	9.3234	-0.3637	-0.2996	0.1518	-1.2001	0.8799	-0.8436	2.8863	0.7673	9.7633	-0.4193	1.1978	-0.4041	0.7025	-0.036	-0.012	9.3801	2.3022	-0.1638	-2.1216	0.1288	-0.4886	-1.0619	-0.1637	0.6489
-2.0657	0.7758	9.5477	-0.4862	-0.2398	0.1547	-1.2328	0.8255	-0.8306	2.8254	0.3063	9.5258	-0.386	1.1696	-0.1583	0.7085	-0.042	-0.006	9.4418	2.5299	0.1236	-2.6949	-0.1991	-0.9657	-1.0933	-0.1637	0.6838
-1.7646	0.6587	9.5544	-0.4216	-0.0865	0.1879	-1.272	0.9026	-0.8303	2.8207	0.4778	9.2923	-0.6886	0.8879	-0.1856	0.6965	-0.054	0.012	9.4431	2.3593	0.1807	-3.6503	-0.6137	-1.7701	-1.0612	-0.1438	0.685
-2.1229	0.9488	9.7196	-0.2666	0.0071	0.0958	-1.2733	0.8825	-0.8645	2.0255	0.3081	9.6276	-0.7838	0.9153	-0.4618	0.7025	-0.048	-0.006	9.4431	2.3593	0.1807	-4.5184	-1.3449	-1.7193	-1.0138	-0.1435	0.6505
-2.2452	0.7753	9.6029	-0.1403	0.1302	0.1584	-1.2524	0.864	-0.8305	2.6526	0.1913	9.4634	-0.5664	0.8559	-0.432	0.7025	-0.042	-0.012	9.6121	3.3827	0.1846	-4.7952	-1.6811	-1.6215	-1.0297	-0.1439	0.6501
-2.008	0.311	9.3794	-0.203	0.1915	-0.0241	-1.2501	0.8847	-0.7796	2.6558	0.94	9.7011	-0.3462	0.6732	-0.3707	0.6965	-0.042	-0.018	9.731	2.3591	0.4148	-4.4169	-1.8974	-1.3887	-1.0441	-0.0672	0.67
-2.3673	0.5435	9.4869	0.0797	0.377	0.1302	-1.255	0.8239	-0.8987	2.4202	0.8238	9.3447	0.0906	0.4936	-0.2186	0.7145	-0.048	-0.006	9.5596	2.473	0.3545	-3.6933	-2.1159	-1.0126	-1.045	-0.1058	0.651
-2.075	0.6657	9.0236	0.1974	0.1653	-0.0912	-1.2699	0.8265	-0.8495	2.652	0.5363	9.465	0.1862	0.3715	-0.157	0.7025	-0.036	0	9.6656	2.6432	-0.0439	-2.8345	-1.9739	-0.2997	-1.061	-0.125	0.6679
-2.1257	0.6592	9.5481	-0.015	0.3153	0.0378	-1.2924	0.8827	-0.8823	2.7076	0.2482	9.3476	-0.9774	0.0204	-0.0558	0.7085	-0.042	0	9.7805	2.3019	0.0152	-1.8731	-1.7306	-0.2958	-1.0612	-0.1254	0.6501
-2.4239	1.0075	9.7136	-0.0805	0.0702	0.064	-1.2346	0.8438	-0.8468	2.8744	0.6494	9.1184	0.7728	0.3468	-0.1295	0.7145	-0.048	-0.006	9.6691	2.3021	0.1276	-0.8228	-1.2415	-0.4462	-1.061	-0.1435	0.7028
-2.0641	0.4249	9.6105	-0.2671	-0.0235	0.0951	-1.236	0.901	-0.8283	2.3097	0.3646	9.5162	0.5571	0.3764	-0.0362	0.7085	-0.03	-0.006	9.4462	2.3594	0.3524	0.0466	-0.6938	-0.4371	-1.0299	-0.1442	0.6324
-1.827	0.7186	9.4358	-0.2073	-0.2989	0.3344	-1.2362	0.8815	-0.8456	2.646	0.8801	9.1736	-0.154	0.462	-0.0326	0.7025	-0.054	0.006	9.3874	2.3025	0.2368	0.7595	-0.1149	-0.4846	-1.061	-0.125	0.6679
-2.064	0.3082	9.6119	0.1026	-0.2347	0.3319	-1.2888	0.8461	-0.8499	2.1982	0.4806	9.6903	-0.5565	0.6463	0.276	0.7085	-0.054	0	9.5539	1.9609	0.0108	1.4975	0.7106	-0.7459	-1.045	-0.1058	0.651
-2.3696	0.6617	9.3687	0.0106	-0.2359	0.3946	-1.2506	0.8458	-0.8143	2.8207	0.4778	9.2923	-0.6552	0.8915	0.1522	0.7085	-0.048	0.006	9.2665	2.4161	-0.1658	1.5928	1.4715	-0.7426	-1.0449	-0.1243	0.686
-2.0666	0.6598	9.4907	0.1036	-0.1736	0.3332	-1.237	0.9004	-0.845	2.479	0.5939	9.4034	-0.4723	0.8907	-0.1254	0.7025	-0.048	-0.012	9.327	2.7574	0.0644	1.9086	1.9868	-0.5943	-1.0453	-0.125	0.6504
-2.0702	0.2542	9.2623	0.2283	-0.0497	0.2421	-1.2731	0.902	-0.8471	2.193	0.9397	9.458	-0.2941	1.2332	-0.0671	0.6965	-0.036	0.006	8.7019	2.5876	-0.0044	1.6002	2.3519	-0.5822	-1.0775	-0.1449	0.6492
-2.4899	0.6035	9.3673	0.1973	-0.173	0.4243	-1.221	0.8984	-0.8775	2.5287	1.1674	9.0556	-0.2322	1.2342	-0.0367	0.7085	-0.042	-0.006	9.2659	2.018	-0.2233	1.4669	2.6161	0.0999	-1.013	-0.1048	0.6695
-2.4331	0.7807	9.1909	0.0152	0.0391	0.4005	-1.2357	0.8432	-0.8636	2.6587	0.4804	9.8162	-0.166	0.9866	-0.1278	0.6965	-0.024	0	9.0368	2.075	-0.3419	0.7392	2.7001	0.614	-1.0927	-0.0884	0.6151
-1.8218	0.8317	9.7264	-0.0759	0.1913	0.3126	-1.2516	0.8452	-0.8311	2.7105	0.479	9.5244	0.1477	0.7742	-0.0362	0.7025	-0.06	0.006	9.4904	2.4157	-0.3333	0.5032	2.5421	1.0193	-1.0607	-0.1243	0.7034
-2.3631	0.5406	9.7205	-0.0171	0.0701	0.217	-1.2182	0.8807	-0.8446	2.8226	0.6508	9.4102	0.112	0.99	-0.068	0.7025	-0.06	0.006	9.2154	2.0752	0.1191	0.2661	2.2933	1.3931	-1.0618	-0.1264	0.5968
-2.125	0.8919	9.6036	0.0157	0.0696	0.4011	-1.2542	0.8823	-0.8467	2.5884	1.0528	9.1733	-0.1939	0.8629	-0.0962	0.6965	-0.048	0	9.8294	1.9602	-0.4419	0.2339	1.8976	1.3909	-1.0302	-0.1818	0.6667
-2.3095	0.72	9.369	-0.2341	0.1605	0.0064	-1.2341	0.8827	-0.8121	3.0551	0.6512	9.5904	-0.099	0.7717	-0.0347	0.7145	-0.024	0.006	9.7199	2.0743	-0.215	-0.4798	1.6543	1.3796	-1.093	-0.126	0.6495
-2.067	0.1936	9.4382	-0.2032	0.1608	0.006	-1.2522	0.8835	-0.8131	2.8837	1.0543	9.6475	-0.1631	0.8632	-0.0964	0.7025	-0.048	0.006	9.2622	2.5297	-0.3946	-0.982	1.2756	0.1932	-1.029	-0.124	0.6863
-2.0598	0.3636	9.8448	-0.2077	-0.1449	0.061	-1.2516	0.8452	-0.8311	2.8231	1.0537	9.4706	-0.3226	1.0454	-0.2809	0.7025	-0.042	-0.018	9.8343	2.1879	-0.1556	-2.1482	0.9496	-0.4198	-1.0777	-0.1452	0.6314
-2.6668	0.2513	9.5437	-0.4518	0.1282	-0.0838	-1.2877	0.8467	-0.8331	2.5978	0.7098	9.6404	-0.4761	0.9811	-0.3718	0.6965	-0.042	0.006	9.4395	1.8473	-0.0487	-3.4022	0.7127	-0.8758	-1.0457	-0.1442	0.6498
-1.8872	0.777	9.4341	-0.3609	-0.1162	0.125	-1.2365	0.8621	-0.863	2.8233	0.9386	9.4701	-0.6251	0.7955	-0.2162	0.6965	-0.042	0	9.4931	2.7571	-0.1614	-4.7132	0.2601	-1.1475	-1.0772	-0.1072	0.6148
-2.1249	0.8335	9.6043	-0.3593	0.0985	-0.0549	-1.2349	0.9016	-0.8115	2.7661	0.8237	9.4685	-0.6566	0.8261	-0.2162	0.6965	-0.06	0.012	9.4359	2.2453	-0.22	-5.9229	-0.1964	-1.1457	-1.0614	-0.1257	0.6323
-2.0147	0.5489	9.0261	-0.297	0.1911	-0.1459	-1.1973	0.8623	-0.8106	2.7632	0.5929	9.2917	-0.5027	0.8274	-0.2478	0.7025	-0.036	0	9.6094	2.1883	-0.0453	-6.4805	-0.6231	-1.1017	-1.0291	-0.087	0.6164
-2.0003	0.8304	9.84	-0.1715	0.3454	-0.2056	-1.237	0.8231	-0.8977	2.7659	0.9962	9.4693	-0.4093	0.7659	-0.3094	0.6965	-0.036	0.006	9.8453	2.5865	0.4743	-6.7525	-0.9311	-0.8502	-1.0311	-0.2021	0.6127
-2.1207	0.131	9.7883	0.0156	0.3158	0.0067	-1.2561	0.9006	-0.8628	2.8217	0.5355	9.3511	-0.2851	0.7684	-0.1873	0.7085	-0.048	0.006	9.6723	2.3022	0.2993	-6.2609	-1.5082	-0.931	-1.0615	-0.163	0.6844
-2.0072	1.2434	9.4845	0.3862	0.3195	0.0021	-1.2161	0.8819	-0.8111	2.5967	0.7095	9.5818	-0.0971	0.5836	-0.3102	0.7025	-0.054	0	9.5647	2.587	0.6408	-5.2064	-1.783	-0.8725	-1.0289	-0.1052	0.6691
-2.1843	0.3083	9.6098	-0.0483	0.2853	-0.147	-1.2679	0.8277	-0.8159	2.7718	0.71	9.7609	0.0902	0.5566	-0.096	0.6904	-0.036	-0.012	9.5633	1.9613	0.5258	-3.8922	-1.8196	-0.4512	-1.0769	-0.1438	0.7025
-2.07	0.8371	9.3133	0.5763	0.504	0.1575	-1.2164	0.8625	-0.8284	2.8249	1.2842	9.5888	-0.1196	0.3398	0.0909	0.6904	-0.036	0.012	9.6161	2.6436	0.3557	-2.4565	-1.6721	-0.1242	-1.0599	-0.0671	0.6875
-2.132	0.6052	9.1984	0.4507	0.4421	0.0654	-1.2882	0.8078	-0.8679	2.2488	1.1694	9.4016	0.2208	0.2814	0.0892	0.6904	-0.06	0	9.3286	2.3025	0.1213	-0.8604	-0.9786	0.3252	-1.0297	-0.1439	0.6501
-1.7649	0.8921	9.5515	0.1717	0.3782	0.0676	-1.2542	0.8823	-0.8467	3.062	1.1706	10.0028	-0.0533	0.1558	0.1838	0.7025	-0.048	-0.006	9.4428	2.5868	0.1808	0.6909	-0.1567	0.3161	-1.0448	-0.1055	0.6688
-2.1264	0.4264	9.4926	0.3295	0.5014	0.1913	-1.2532	0.8829	-0.8299	2.8237	0.6511	9.4688	0.0372	0.2495	0.1827	0.7025	-0.042	-0.006	9.1607	2.0754	0.2325	1.6133	0.5171	0.0173	-1.093	-0.1445	0.6844
-2.4211	0.4808	9.837	0.3573	0.2569	0.2779	-1.2344	0.8632	-0.8294	2.8208	0.4203	9.292	0.0325	0.4341	0.0894	0.6965	-0.048	-0.012	9.5502	2.4726	-0.1605	1.8224	1.0998	-0.2916	-1.0932	-0.1264	0.6317
-2.3629	0.4238	9.722	0.5426	0.2588	0.2756	-1.2153	0.863	-0.8116	2.759	1.1672	9.1186	-0.1795	0.3097	0.245	0.7025	-0.036	0.012	9.2117	2.53	-0.0523	2.0046	1.4673	-0.4477	-1.0138	-0.1435	0.6505
-2.0643	0.5416	9.609	0.7567	0.0773	0.3612	-1.2331	0.8833	-0.7953	2.6518	0.7089	9.4658	-0.1169	0.2797	0.2756	0.6965	-0.048	0	9.5489	2.6432	-0.2176	2.2348	2.1925	-0.0801	-1.0458	-0.163	0.667
-2.1832	0.2492	9.669	0.6705	0.3813	0.4919	-1.2529	0.8251	-0.8652	2.4878	1.2288	9.9334	-0.2735	0.4021	0.3065	0.6965	-0.048	0.006	8.9904	2.1324	0.2294	2.4379	2.6416	0.4398	-1.0455	-0.1438	0.6676
-2.0665	0.6015	9.4915	0.5751	0.3199	0.338	-1.2375	0.9388	-0.8271	2.5935	1.2841	9.4673	-0.4547	0.2462	0.37	0.6904	-0.048	0	9.377	2.3021	-0.3355	2.9492	2.9391	0.9186	-1.0147	-0.1822	0.6315
-2.2571	1.0168	8.9576	0.3304	0.378	0.4654	-1.1998	0.8221	-0.8789	2.5363	0.5938	9.4045	-0.4842	0.2159	0.4625	0.6844	-0.06	0	9.4939	2.0746	-0.1619	3.664	3.2124	0.9608	-1.0296	-0.125	0.633
-1.7735	0.1984	9.0347	0.4836	0.2878	0.4922	-1.2022	0.8788	-0.8771	2.7089	0.8238	9.4674	-0.6728	0.3047	0.248	0.7025	-0.048	0	9.4356	2.5296	-0.2198	4.0624	3.123	0.8253	-1.0296	-0.1435	0.6679
-2.1887	0.428	9.3748	0.2024	0.1325	0.4309	-1.2328	0.8255	-0.8306	2.5985	0.9401	9.7	-0.8619	0.5198	0.3093	0.7085	-0.024	0.006	9.7291	2.2453	0.3003	4.2978	3.0984	0.4186	-1.0777	-0.1452	0.6314
-2.0106	0.6627	9.2582	0.1715	0.1937	0.3403	-1.253	0.9024	-0.8125	2.5366	0.3637	9.4034	-0.8333	0.5807	0.1858	0.7085	-0.018	0.006	9.5473	2.3019	-0.3324	3.742	2.9755	0.4957	-1.0287	-0.1048	0.6869
-2.0058	1.0092	9.5458	0.0161	0.1925	0.25	-1.2171	0.8813	-0.8278	3.1092	0.5928	9.4155	-0.8382	0.7969	0.1538	0.7145	-0.036	0	9.2187	1.9047	0.2906	2.6457	2.4935	0.1559	-1.0289	-0.1052	0.6691
-2.011	0.1965	9.2057	-0.1106	0.0388	0.1868	-1.2728	0.8442	-0.8824	2.8236	0.7086	9.4691	-0.813	0.917	-0.2465	0.6965	-0.048	0	9.8283	2.0171	-0.4991	1.3614	2.1952	-0.269	-1.0455	-0.1254	0.6326
-2.0013	0.0732	9.7327	-0.113	-0.0833	0.1534	-1.237	0.9004	-0.845	2.5945	0.709	9.4647	-0.5359	1.0146	-0.0336	0.7085	-0.048	0.006	9.6631	2.0744	-0.216	-0.1695	1.6221	-0.6272	-1.0606	-0.087	0.6513
-2.1972	0.4339	8.9076	-0.2065	-0.1146	0.1231	-1.2545	0.8628	-0.864	2.4765	0.7659	9.287	-0.567	1.014	-0.0642	0.7025	-0.036	0	9.5992	1.9604	-0.6178	-1.7055	1.2342	-1.1682	-1.0771	-0.1257	0.6498
-2.0035	0.891	9.6641	-0.299	-0.0849	0.0942	-1.2352	0.8821	-0.8289	2.2565	0.5383	9.7502	-0.6329	1.135	-0.2796	0.7145	-0.042	0	9.6058	2.5294	-0.2167	-3.015	0.9638	-1.4078	-1.0453	-0.125	0.6504
-2.4269	0.893	9.5399	-0.2987	-0.1465	0.2159	-1.3091	0.9036	-0.8492	2.3031	0.996	9.2261	-0.5752	1.2893	-0.373	0.7025	-0.024	-0.006	9.0967	2.0751	-0.1692	-3.6898	0.5644	-1.1449	-1.061	-0.125	0.6679
-2.2565	0.5499	8.9634	-0.27	-0.3914	0.3947	-1.2692	0.8849	-0.7974	2.7659	0.3058	9.4076	-0.606	1.3208	-0.2809	0.7025	-0.048	0.012	9.2706	2.4732	0.0632	-4.2414	0.2568	-0.9158	-1.0291	-0.1055	0.6514
-2.1261	0.951	9.5444	-0.1799	-0.3894	0.1476	-1.2527	0.8446	-0.8478	2.7098	0.9391	9.5265	-0.6051	1.2584	-0.342	0.7205	-0.042	0	9.2778	2.5872	0.4639	-4.6663	-0.0521	-0.5983	-1.0448	-0.1055	0.6688
-2.0098	0.837	9.3144	-0.0825	-0.1443	0.2132	-1.2571	0.9	-0.8796	2.2516	0.8248	9.5172	-0.6657	1.2592	-0.188	0.7025	-0.054	0	9.2765	2.7578	0.4068	-4.438	-0.2403	-0.2072	-1.0294	-0.1247	0.6507
-2.4255	0.6005	9.6019	-0.0225	-0.3275	0.3315	-1.2705	0.8648	-0.8315	2.6462	0.7651	9.1731	-0.7859	1.1031	-0.2171	0.7025	-0.054	0.006	9.2799	2.5304	0.5783	-3.7456	-0.5197	0.1694	-1.0293	-0.0874	0.5986
-2.2383	0.4207	9.9577	0.0699	-0.3265	0.2996	-1.2545	0.8628	-0.864	2.994	0.9381	9.4148	-0.6621	1.1049	-0.1563	0.7025	-0.054	0.006	9.3294	2.4732	0.1787	-2.4986	-0.4318	0.4093	-1.061	-0.125	0.6679
-1.9436	0.308	9.6141	0.2899	-0.0798	0.2714	-1.2161	0.8819	-0.8111	2.7682	0.2489	9.5245	-0.443	0.9526	-0.1567	0.7025	-0.048	0	9.3322	2.7577	0.3506	-0.7319	-0.0664	0.3901	-1.0455	-0.1438	0.6676
-2.2452	0.0173	9.554	0.2005	-0.0205	0.4891	-1.2537	0.844	-0.8646	2.9351	0.5926	9.295	-0.3456	0.7692	-0.0333	0.7025	-0.042	0.006	9.3851	2.5299	0.1225	0.6417	0.2945	0.6899	-1.0605	-0.1055	0.6863
-2.0634	0.6576	9.6659	0.5077	-0.0783	0.4225	-1.2535	0.8634	-0.8473	2.7033	0.88	9.1747	-0.1596	0.6454	-0.2487	0.7025	-0.042	0.006	9.5596	2.4162	0.3545	1.5052	0.4487	0.5424	-1.0929	-0.1072	0.6323
-2.3036	1.0074	9.7157	0.5377	-0.1699	0.4816	-1.2336	0.8444	-0.83	2.7658	0.3634	9.4078	-0.3139	0.7707	0.0894	0.7025	-0.042	0.012	8.932	2.6443	0.1715	2.244	0.9081	0.3396	-1.0286	-0.086	0.6697
-2.2455	0.2508	9.5511	0.6001	-0.1695	0.5424	-1.2385	0.8609	-0.8965	2.9382	0.7084	9.4713	-0.2478	0.5864	0.1516	0.6904	-0.03	-0.012	9.4965	2.5297	0.0102	2.7555	1.5858	-0.2234	-1.0619	-0.1637	0.6489
-2.1257	0.6592	9.5481	0.4462	-0.1405	0.5449	-1.255	0.8239	-0.8987	2.6597	0.5957	9.8753	-0.5585	0.739	0.2754	0.7145	-0.048	0.006	9.3253	2.473	-0.0503	3.3659	1.7889	0.4667	-1.0448	-0.1055	0.6688
-2.0782	0.6679	8.8484	0.3219	-0.1107	0.4241	-1.2352	0.8821	-0.8289	2.7706	0.7672	9.7026	-0.5814	0.3995	0.3698	0.6965	-0.036	0	9.4358	2.359	-0.22	3.6812	2.1216	0.6136	-1.0457	-0.1442	0.6498
-2.3705	0.5457	9.3117	0.1361	-0.2969	0.6684	-1.2506	0.8458	-0.8143	2.7108	0.3065	9.5236	-0.7716	0.645	0.3694	0.6904	-0.042	-0.006	9.2043	2.6434	-0.4528	3.9681	2.3617	0.8527	-1.0451	-0.1247	0.6682
-2.0664	0.5431	9.4922	0.1685	-0.1435	0.5791	-1.238	0.8998	-0.8618	2.6595	0.7107	9.8758	-0.777	0.8287	0.184	0.6784	-0.048	0.006	9.5497	2.8707	-0.1602	4.682	2.6354	0.8643	-1.029	-0.124	0.6863
-1.8855	0.3094	9.4983	0.1005	-0.4798	0.5112	-1.2712	0.8837	-0.8309	2.7639	0.8232	9.3513	-1.1811	0.9474	0.0935	0.7145	-0.036	0.006	9.7166	2.1879	-0.3866	4.6699	2.9763	0.4372	-1.0619	-0.1452	0.6139
-1.9996	0.3635	9.8459	0.0111	-0.2668	0.4861	-1.2166	0.843	-0.8458	2.8843	0.6518	9.6457	-1.2181	1.2886	0.2453	0.6965	-0.03	0.006	9.6634	1.9038	-0.2161	4.7215	3.0116	0.0979	-1.0787	-0.2027	0.6295
-1.8262	0.9513	9.4913	-0.0816	-0.2062	0.3964	-1.2176	0.8424	-0.8625	2.6543	0.4793	9.5819	-1.1565	1.1938	-0.031	0.7085	-0.048	0	9.3782	2.1884	-0.2784	4.0259	2.8658	-0.3434	-1.0133	-0.1055	0.6339
-2.2491	0.5448	9.3722	-0.2353	-0.0851	0.2779	-1.255	0.9012	-0.8461	2.7136	0.5948	9.7007	-1.0664	1.3187	-0.0016	0.6904	-0.036	0.006	9.7196	2.3586	-0.2147	2.6072	2.481	-1.1029	-1.0455	-0.1254	0.6326
-2.487	0.7764	9.5403	-0.2049	-0.1153	0.2769	-1.2192	0.8801	-0.8614	2.7122	0.8246	9.6431	-0.8467	1.1036	-0.0938	0.6904	-0.042	-0.006	9.4379	2.3591	-0.1055	0.9228	2.0291	-1.4249	-1.0446	-0.1051	0.6866
-2.0026	0.1906	9.6729	-0.3301	-0.1159	0.1246	-1.3081	0.8269	-0.8851	2.5379	0.9394	9.5232	-0.6641	1.1659	-0.2489	0.6904	-0.042	0	9.434	2.1314	-0.3346	-0.5671	1.3903	-1.4469	-1.0614	-0.1442	0.6673
-1.6379	0.7125	9.9062	-0.4548	-0.2089	0.1549	-1.2367	0.8426	-0.8804	2.8849	0.9971	9.7058	-0.6284	0.9819	-0.1251	0.7085	-0.054	0	9.434	2.1314	-0.3346	-1.6633	0.9242	-0.7725	-1.0448	-0.1055	0.6688
-2.188	0.6607	9.4302	-0.3584	-0.025	0.2192	-1.2571	0.9	-0.8796	2.535	0.7086	9.3464	-0.5382	1.0435	-0.2489	0.6904	-0.048	0.012	9.6077	1.847	-0.16	-2.924	0.6454	-0.4297	-1.0774	-0.1633	0.6841
-2.431	0.7792	9.3077	-0.3592	0.0061	0.0969	-1.2344	0.8632	-0.8294	2.7675	0.6514	9.5263	-0.4089	0.7665	-0.248	0.7025	-0.048	-0.006	9.2116	2.6438	-0.0522	-3.5781	0.2509	-0.5055	-1.0605	-0.1055	0.6863
-2.434	0.6063	9.1347	-0.2089	-0.2367	0.0898	-1.2383	0.8803	-0.8792	2.372	0.6534	9.8115	-0.384	1.0133	-0.3418	0.7025	-0.054	0	9.2666	2.3592	-0.1658	-3.8011	0.0404	-0.6849	-1.0455	-0.1438	0.6676
-1.6442	1.4165	9.6054	-0.3599	-0.0551	0.1263	-1.238	0.8998	-0.8618	2.7098	0.9391	9.5265	-0.2862	0.8305	-0.1569	0.6965	-0.048	0.006	9.3213	2.3022	-0.2793	-3.8283	0.0386	-0.5612	-1.0465	-0.1829	0.6308
-2.0069	1.0099	9.4874	-0.2384	-0.1145	0.0313	-1.2365	0.8621	-0.863	2.7663	0.7087	9.468	-0.2549	0.7996	-0.1876	0.6844	-0.042	0	9.3886	2.2457	0.294	-3.546	0.037	-0.4467	-1.0604	-0.0867	0.6691
-2.1322	0.7803	9.1962	-0.2695	-0.207	0.1527	-1.2174	0.8619	-0.8452	2.3638	0.9392	9.4027	-0.1341	0.893	-0.2504	0.7145	-0.054	0.006	9.3831	2.4161	0.008	-3.1566	0.3336	0.0971	-1.0609	-0.1062	0.6507
-2.1823	0.3652	9.7259	-0.1123	0.0395	0.033	-1.2532	0.8829	-0.8299	2.3681	0.3648	9.5759	-0.1675	1.0163	-0.2509	0.7025	-0.048	-0.006	9.3221	2.4729	-0.222	-3.0219	0.5114	0.4325	-1.0135	-0.1243	0.6511
-2.1777	0.0705	9.9631	0.0438	0.0403	0.1848	-1.2568	0.9195	-0.8623	2.7672	0.8815	9.5273	-0.1979	1.0166	-0.1893	0.6965	-0.036	0	9.7332	2.2455	0.5292	-2.5927	0.6659	0.2673	-1.0453	-0.125	0.6504
-2.0627	0.8903	9.7214	0.2958	0.3176	0.2185	-1.237	0.9004	-0.845	3.0552	1.2841	9.6518	-0.1356	0.9227	-0.3734	0.7145	-0.036	-0.012	9.6172	2.6436	0.4129	-2.5016	0.4229	0.2319	-1.0463	-0.1825	0.6486
-2.4878	0.602	9.4841	0.4496	0.258	0.246	-1.2749	0.9203	-0.8633	2.8814	0.4209	9.4689	-0.0686	0.7714	-0.0964	0.7025	-0.054	-0.006	9.7259	2.302	0.1286	-2.1029	0.4248	0.097	-1.0607	-0.0874	0.6335
-1.6462	0.5433	9.4412	0.2915	0.1349	0.0915	-1.2717	0.8448	-0.8656	2.5956	0.7092	9.5232	0.0234	0.74	-0.2504	0.7145	-0.03	0.006	9.4443	2.2456	0.2378	-1.6376	0.4246	0.1138	-1.0612	-0.1254	0.6501
-2.1288	0.603	9.3736	0.1731	0.2853	0.3423	-1.2741	0.9014	-0.8639	2.4811	0.6519	9.5208	0.0572	0.7123	0.0569	0.7085	-0.042	-0.012	9.4447	2.7575	0.2954	-1.0868	0.4438	0.8964	-1.0449	-0.1243	0.686
-2.2398	0.7133	9.8956	0.2927	0.2267	0.0627	-1.2362	0.8815	-0.8456	2.7098	0.9391	9.5265	0.2443	0.59	-0.0049	0.7085	-0.024	-0.012	9.4406	2.6436	0.0664	-0.3935	0.4384	1.2751	-1.0609	-0.1062	0.6507
-2.2532	0.431	9.1401	0.2656	0.2556	0.3713	-1.3084	0.8847	-0.8498	2.4829	0.1921	9.5773	0.2796	0.4054	0.0574	0.7085	-0.048	-0.006	8.9813	1.9046	-0.2859	0.6931	0.5288	1.3355	-1.0462	-0.1637	0.6314
-2.1268	0.7183	9.489	0.011	-0.1745	0.3344	-1.2733	0.8825	-0.8645	2.5899	0.823	9.2309	-0.005	0.6793	-0.0962	0.7025	-0.036	0	9.3797	2.6435	-0.1635	1.831	0.8375	1.0274	-1.0301	-0.163	0.6495
-1.7674	0.4274	9.3822	0.1041	-0.2045	0.4248	-1.2174	0.8619	-0.8452	2.8206	0.5353	9.2926	-0.4026	0.584	0.0603	0.6904	-0.048	0	9.7152	2.5291	-0.4435	1.752	1.0892	0.4479	-1.0775	-0.1264	0.6142
-2.304	0.5412	9.6632	-0.1094	-0.0848	0.4916	-1.2391	0.8992	-0.8786	2.6544	1.1122	9.6433	-0.7173	0.8903	0.0911	0.7025	-0.042	0.012	9.6063	2.1882	-0.217	2.1588	1.2847	-0.4538	-1.0132	-0.1052	0.6517
-2.0065	0.7181	9.4911	-0.0486	-0.0837	0.3986	-1.2908	0.845	-0.8835	2.4272	0.5953	9.6952	-0.9928	0.7947	0.0933	0.7085	-0.066	0.018	9.7795	2.3018	-0.042	1.0238	1.6291	-1.1238	-1.0142	-0.1627	0.6498
-2.4274	0.4268	9.4873	-0.1766	-0.1754	0.1214	-1.2901	0.9034	-0.8314	2.5974	0.2494	9.5798	-1.1232	1.0702	-0.0612	0.7025	-0.048	0.018	9.4907	2.1314	-0.3336	-0.0551	1.641	-1.9518	-1.0778	-0.1456	0.6136
-1.6444	0.0173	9.5062	-0.0813	-0.1141	0.2753	-1.2888	0.8461	-0.8499	2.7719	0.6525	9.7606	-0.9972	0.9796	0.0308	0.6904	-0.054	-0.018	9.5012	2.1318	0.2388	-1.2849	1.3318	-1.6102	-1.0611	-0.1065	0.6329
-2.1825	0.482	9.7244	-0.2675	0.069	-0.0874	-1.2725	0.8636	-0.8651	2.8826	0.3637	9.5272	-0.7485	0.7943	-0.2154	0.7025	-0.048	0.006	9.3831	2.4161	0.008	-2.0834	1.2676	-1.3718	-1.0612	-0.1254	0.6501
-2.3008	0.539	9.8384	-0.3585	0.0674	0.0675	-1.2895	0.865	-0.8493	2.4785	0.8814	9.4047	-0.5053	0.9829	-0.1565	0.7085	-0.048	0	9.7266	2.5296	0.186	-2.4393	0.8639	-0.8112	-1.0609	-0.1247	0.6856
-2.4276	0.6019	9.4851	-0.4486	0.2192	0.0719	-1.2883	0.8851	-0.8152	2.9345	0.9377	9.2966	-0.3805	0.8908	-0.2182	0.6965	-0.048	0.006	9.5545	2.3591	0.0683	-2.9458	0.8545	-0.1509	-1.0616	-0.1261	0.6145
-2.3171	0.8418	8.9587	-0.3913	0.1294	-0.2076	-1.2349	0.9016	-0.8115	2.8181	0.7073	9.1762	-0.1308	0.7384	-0.2495	0.7025	-0.066	0.006	9.5568	2.1886	0.1826	-2.9089	0.3641	0.0899	-1.0442	-0.1044	0.7221
-2.3671	0.3684	9.4891	-0.3262	0.1901	0.0082	-1.2723	0.8831	-0.8477	2.8831	0.709	9.5873	0.1786	0.6795	-0.2817	0.6904	-0.048	-0.012	9.611	2.5296	0.0695	-3.2756	0.0874	0.2831	-1.0936	-0.1456	0.6311
-1.7075	0.6024	9.381	-0.2026	0.0991	0.1585	-1.2365	0.8621	-0.863	2.4206	0.5937	9.3437	0.0234	0.7718	-0.1584	0.7085	-0.048	0.018	9.5558	2.1316	0.1253	-3.5543	0.0569	0.2912	-1.0773	-0.1445	0.6669
-1.9983	0.1877	9.9065	0.0139	0.1934	0.0348	-1.2751	0.9008	-0.8806	2.992	0.8226	9.2972	-0.0398	0.8009	-0.2811	0.7025	-0.054	0	8.9921	2.4169	0.3441	-3.5819	-0.0666	0.4139	-1.046	-0.1818	0.6841
-2.6686	0.7773	9.4787	-0.0209	-0.0206	-0.0002	-1.2723	0.8831	-0.8477	2.8206	0.5353	9.2926	-0.0407	0.8633	-0.22	0.6904	-0.06	0.006	9.1057	2.3599	0.3461	-3.6802	-0.0032	0.233	-1.0612	-0.1254	0.6501
-2.3102	0.4872	9.3135	-0.0177	0.1934	-0.0263	-1.2702	0.8843	-0.8142	2.7655	0.5359	9.4086	0.0831	0.8334	-0.2513	0.7085	-0.036	0.006	9.5007	2.5299	0.2391	-3.4982	0.3034	0.0764	-1.0133	-0.1425	0.7038
-2.3035	0.949	9.7164	-0.0529	-0.1435	0.0898	-1.2365	0.8621	-0.863	2.7644	0.5356	9.35	0.0487	0.9873	-0.2827	0.6904	-0.03	0.012	9.4966	2.416	0.0101	-2.8471	0.6384	0.0596	-1.0777	-0.1452	0.6314
-2.1869	0.66	9.4886	-0.1142	-0.1751	0.1822	-1.2728	0.8442	-0.8824	2.4226	0.7093	9.4614	0.0489	0.9876	-0.252	0.6904	-0.048	0	9.6734	2.1886	0.3564	-2.5423	0.9151	-0.1317	-1.0445	-0.0863	0.6694
-2.0701	0.8955	9.3126	0.1367	-0.0819	0.3963	-1.2506	0.8458	-0.8143	2.5389	0.9972	9.582	-0.0159	1.0783	-0.4058	0.6844	-0.042	-0.012	9.4937	2.3021	-0.1617	-2.5488	0.9182	-0.3466	-1.0296	-0.125	0.633
-2.3672	0.4268	9.4884	0.193	-0.2328	0.1155	-1.2542	0.8823	-0.8467	2.599	1.2854	9.7602	-0.0761	1.0794	-0.2211	0.6965	-0.054	0	9.3898	2.0752	0.3511	-2.6394	0.7646	-0.2529	-1.0461	-0.1822	0.6664
-1.9522	0.4306	9.1454	-0.0195	-0.1134	0.2746	-1.2174	0.8619	-0.8452	2.5404	0.7674	9.6396	-0.0728	0.9566	-0.1282	0.7025	-0.036	-0.006	9.3874	2.3594	0.2369	-2.5616	0.422	0.2951	-1.0611	-0.1065	0.6329
-2.3096	0.7783	9.3682	0.0123	-0.1135	0.3664	-1.2945	0.9588	-0.8631	2.7751	0.7108	9.9366	0.0228	0.8345	-0.0666	0.6965	-0.048	0	9.8408	2.8707	0.2456	-2.0487	0.3081	1.8767	-1.0461	-0.1822	0.6664
-2.0106	0.6627	9.2582	0.1965	-0.0804	0.2111	-1.2733	0.8825	-0.8645	2.5399	1.0549	9.6409	-0.0666	0.6787	-0.0958	0.7085	-0.048	0	9.4909	2.0176	-0.3336	-0.9194	0.2406	2.334	-1.0136	-0.1432	0.6682
-1.946	0.4846	9.4951	0.1707	0.1632	0.3089	-1.2194	0.8607	-0.8787	2.6026	0.4232	9.8734	-0.0347	0.6169	-0.1264	0.7025	-0.036	-0.012	9.4473	2.3595	0.4096	0.5975	0.2557	1.2747	-1.0775	-0.1449	0.6492
-2.0093	0.4868	9.3188	0.2633	0.1027	0.3987	-1.2511	0.8841	-0.7963	2.544	0.5956	9.8145	-0.4049	0.6446	-0.0629	0.6844	-0.048	-0.018	9.3856	2.1319	0.1222	2.1607	0.3695	-0.3075	-1.045	-0.1058	0.651
-2.0157	0.5496	8.9677	0.0782	0.193	0.28	-1.2151	0.8825	-0.7943	2.5393	0.7671	9.581	-0.6797	0.5499	0.0314	0.7025	-0.054	0.006	9.6092	2.302	-0.0452	3.39	0.4961	-0.6506	-1.0289	-0.1052	0.6691
-2.0597	0.3052	9.8455	0.0754	-0.0519	0.3977	-1.2197	0.9185	-0.8434	3.1138	1.1117	9.7107	-0.8955	0.5795	0.1247	0.7085	-0.036	0.006	9.436	2.1884	-0.2201	3.2271	0.8961	-0.9498	-1.0614	-0.1442	0.6673
-2.3097	0.8367	9.3675	0.2286	0.0117	0.1819	-1.2521	0.8062	-0.8658	2.7716	0.8825	9.7616	-1.0219	0.7013	0.0633	0.7145	-0.042	0.006	9.215	2.4164	0.1193	2.0866	0.9992	-1.7752	-1.0616	-0.1445	0.6495
-2.1315	1.013	9.2517	0.0763	-0.0215	0.4291	-1.2895	0.865	-0.8493	2.7687	0.5942	9.5846	-0.8378	0.7021	-0.0607	0.7025	-0.036	0.006	9.3773	2.0746	-0.3357	0.9368	1.1227	-1.8935	-1.0303	-0.1634	0.6317
-2.0087	0.8363	9.3728	-0.2025	0.0068	0.3102	-1.2877	0.8467	-0.8331	2.9982	1.0542	9.6497	-0.6511	0.6427	-0	0.6965	-0.048	0	9.8365	2.0743	-0.0412	0.1433	1.1476	-1.5008	-1.0766	-0.1062	0.6682
-2.0103	0.4292	9.2611	-0.2313	0.2516	0.1314	-1.2707	0.8454	-0.8489	2.6518	0.7089	9.4658	-0.5637	0.8595	-0.0633	0.6844	-0.042	-0.012	9.7209	2.1312	-0.1577	-0.4975	1.1429	-1.1744	-1.0448	-0.1055	0.6688
-2.1242	0.3083	9.6109	-0.3303	-0.0542	0.003	-1.2895	0.865	-0.8493	2.7028	0.4772	9.1144	-0.4681	0.7055	-0.0936	0.7145	-0.048	-0.006	9.4998	2.4161	0.1818	-0.888	1.0458	-0.764	-1.0448	-0.1055	0.6688
-1.8193	0.5384	9.8468	-0.2051	0.0078	0.0643	-1.2336	0.8444	-0.83	3.1105	0.4781	9.4735	-0.4053	0.7076	0.0596	0.6965	-0.042	0.006	9.156	2.4733	0.0039	-0.5379	1.1024	-0.4667	-1.0453	-0.1435	0.6854
-2.2469	0.485	9.4898	-0.3272	0.0367	0.1587	-1.2542	0.8823	-0.8467	2.9351	0.5926	9.295	-0.4095	0.8928	0.0278	0.7025	-0.042	0.018	9.2723	1.9045	0.12	-0.2495	1.2199	-0.1671	-1.0125	-0.0853	0.6878
-2.0088	0.8947	9.3721	-0.0188	-0.0522	0.2451	-1.2524	0.864	-0.8305	2.4789	0.6514	9.4036	-0.5593	0.6428	-0.0927	0.7205	-0.048	0.006	9.5569	2.0748	0.1825	0.2329	0.9982	0.4312	-1.0763	-0.087	0.6688
-2.7893	1.011	9.4736	0.0136	0.1013	0.1558	-1.2365	0.8621	-0.863	3.1096	0.3628	9.4144	-0.4323	0.5533	0.1222	0.7025	-0.054	-0.006	9.6116	2.0747	0.0691	0.2763	1.0534	0.8298	-1.061	-0.125	0.6679
-2.0083	0.4861	9.3772	0.1711	0.2861	0.1578	-1.2509	0.8263	-0.8317	2.3641	0.7666	9.4019	-0.2798	0.5846	-0.0018	0.7205	-0.024	0	9.607	2.4157	-0.1595	0.1176	1.0247	0.7114	-1.0462	-0.1637	0.6314
-2.309	0.3698	9.3734	0.235	0.3166	0.3115	-1.2352	0.8821	-0.8289	2.8212	0.1902	9.291	-0.5909	0.7367	0.0605	0.7025	-0.042	0.012	9.6082	2.302	-0.1024	0.0753	0.9995	0.3437	-1.0609	-0.1247	0.6856
-2.2492	0.6032	9.3715	0.2319	0.0718	0.3984	-1.2341	0.8054	-0.8648	2.309	0.0768	9.4563	-0.3467	0.7995	-0.0949	0.7085	-0.048	0	9.2685	2.4731	-0.0513	-0.1565	1.2808	-0.1694	-1.0778	-0.164	0.6485
-2.0074	0.6021	9.4341	0.2025	0.2555	0.249	-1.2161	0.8819	-0.8111	2.7664	0.6512	9.4677	-0.1654	0.8921	-0.3116	0.7205	-0.048	0.006	9.7229	3.0413	0.0147	-0.1763	1.5643	-0.8426	-1.0451	-0.1247	0.6682
-2.3046	0.1918	9.6092	0.232	0.1948	0.2166	-1.2506	0.8458	-0.8143	2.4815	0.4219	9.5198	-0.0112	0.8937	-0.3125	0.7025	-0.042	0.012	9.7231	2.0176	-0.0433	-0.3637	1.626	-0.898	-1.0453	-0.1435	0.6854
-2.0657	0.7758	9.5477	0.2625	0.1338	0.2764	-1.2357	0.8432	-0.8636	2.6541	0.5944	9.5824	-0.2583	0.9542	-0.1885	0.6904	-0.054	0.006	9.6123	2.3591	0.1266	-0.7174	1.6175	-0.3036	-1.061	-0.125	0.6679
-2.3692	0.3699	9.3723	0.2888	-0.1409	0.2701	-1.2174	0.8619	-0.8452	2.8271	0.5943	9.6443	-0.1631	0.895	-0.0044	0.6904	-0.048	0.006	9.4424	2.0749	0.1232	-1.1009	1.6694	0.3228	-1.061	-0.125	0.6679
-2.01	0.1958	9.2641	0.3515	-0.2021	0.4525	-1.2725	0.8636	-0.8651	2.6562	0.7099	9.7001	-0.3742	0.6764	-0.0018	0.7025	-0.048	0.006	9.3824	2.1317	-0.0495	-1.1821	1.1763	0.7515	-1.0453	-0.125	0.6504
-2.0047	1.0084	9.6042	0.5049	-0.1694	0.2975	-1.2339	0.9022	-0.7947	2.8806	0.881	9.4709	-0.313	0.6765	-0.0636	0.7085	-0.036	-0.006	9.1001	2.7008	0.0602	-0.7135	1.0222	0.8899	-1.0448	-0.1055	0.6688
-1.9419	0.5984	9.7272	0.3599	0.3173	0.4329	-1.2378	0.9193	-0.8444	2.8882	0.3075	9.8198	-0.3723	0.5519	-0.0933	0.7025	-0.042	0	9.5642	2.0751	0.5832	-0.0999	0.4459	0.744	-1.0455	-0.1254	0.6326
-2.1853	1.0087	9.601	0.4803	0.2276	0.2757	-1.2545	0.8628	-0.864	2.6503	0.9387	9.4082	-0.3348	0.3067	0.0923	0.6965	-0.048	0	9.7824	2.4726	0.1298	0.6377	0.2354	0.5666	-1.0765	-0.0874	0.651
-2.4932	0.664	9.1913	0.5134	0.3193	0.3388	-1.2555	0.8622	-0.8808	3.0562	0.6515	9.649	-0.3335	0.2448	0.0927	0.6965	-0.036	0	9.8406	2.1313	0.1878	1.4272	0.0905	0.0502	-1.0605	-0.1055	0.6863
-2.2538	0.8979	9.1342	0.1715	0.3475	0.0976	-1.2406	0.937	-0.8774	2.887	1.0551	9.8232	-0.3945	0.2133	0.0932	0.6965	-0.042	0.006	9.7867	2.359	0.3586	1.9701	0.3108	-0.4559	-1.0285	-0.1045	0.7047
-2.1329	0.5476	9.1408	0.1358	-0.02	0.2131	-1.2192	0.8801	-0.8614	2.9942	0.8231	9.4143	-0.459	0.336	0.0622	0.7025	-0.054	0.018	9.7748	1.8467	-0.3286	1.7656	0.3499	-1.0641	-1.0294	-0.1247	0.6507
-2.2462	0.776	9.5445	0.1694	0.1638	0.1859	-1.2571	0.9	-0.8796	2.654	0.7094	9.5829	-0.4281	0.3681	0.154	0.6965	-0.06	0	9.6069	2.4726	-0.1595	1.158	0.4502	-1.6904	-1.014	-0.1439	0.6327
-2.4329	0.6056	9.1931	-0.1089	0.1611	0.1586	-1.2365	0.8621	-0.863	2.6505	0.8236	9.4077	-0.6196	0.6121	-0	0.7085	-0.042	0.006	9.3897	2.132	0.3512	0.5812	0.7944	-2.3464	-1.0452	-0.1062	0.6333
-1.8897	1.012	9.3143	-0.0149	0.223	0.1895	-1.2354	0.8626	-0.8462	2.5337	0.8233	9.2883	-0.8651	0.5793	0.0631	0.7085	-0.048	0.006	9.8986	1.9607	0.2459	0.02	1.0398	-2.4813	-1.0771	-0.1257	0.6498
-2.1865	0.3682	9.4923	-0.1442	-0.0835	0.123	-1.2895	0.865	-0.8493	2.4821	0.7097	9.5796	-0.9276	0.641	0.1245	0.6904	-0.03	0.012	9.2185	2.0753	0.2907	-0.5034	1.3735	-2.4015	-1.0609	-0.1247	0.6856
-1.6443	0.7169	9.5558	-0.2355	-0.0234	0.1562	-1.2171	0.8813	-0.8278	2.5396	0.5946	9.5802	-1.0194	0.641	0.2173	0.7145	-0.042	0.012	9.2095	2.6437	-0.1667	-0.8072	1.4012	-2.2078	-1.0605	-0.1055	0.6863
-2.2492	0.6615	9.3708	0.0123	0.0403	0.1237	-1.2372	0.8809	-0.8624	2.4277	0.9406	9.7553	-0.7777	0.796	-0.0002	0.7205	-0.036	-0.006	9.3874	2.3025	0.2368	-0.2663	1.5774	-1.7617	-1.0614	-0.1442	0.6673
-2.1242	0.3666	9.6101	0.0155	0.2543	0.0976	-1.253	0.9024	-0.8125	2.7051	0.4202	9.2313	-0.6528	0.7039	-0.0618	0.7145	-0.03	0.006	9.4411	2.2455	0.0661	0.0513	1.7422	-0.51	-1.0292	-0.1428	0.7035
-2.1897	0.3704	9.3171	0.204	0.3471	0.251	-1.2352	0.8821	-0.8289	2.4904	0.3664	9.9881	-0.4042	0.6137	-0.0627	0.6965	-0.054	0.006	9.0964	2.3026	-0.169	0.328	1.6982	0.434	-1.0455	-0.1254	0.6326
-2.1887	0.428	9.3748	0.448	0.2586	0.0922	-1.2352	0.8821	-0.8289	2.9984	0.9391	9.6491	-0.3113	0.6152	-0.0018	0.7025	-0.036	-0.018	9.2654	2.4729	-0.223	0.927	1.8458	0.7552	-1.0453	-0.1435	0.6854
-2.248	0.5441	9.4306	0.3556	0.1961	0.2151	-1.2712	0.8837	-0.8309	2.4229	0.5367	9.4606	-0.343	0.6138	-0.1246	0.7145	-0.048	-0.006	9.2674	2.5299	-0.1085	1.0446	1.9707	0.5376	-1.0612	-0.1438	0.685
-2.1895	1.0116	9.3674	0.3238	0.0423	0.3659	-1.2344	0.8632	-0.8294	2.9968	0.5935	9.5304	-0.2522	0.7395	-0.0029	0.7025	-0.042	0.006	9.3233	2.3592	-0.1648	0.9477	1.8811	0.4169	-1.0456	-0.1627	0.6847
-2.2464	0.8928	9.543	0.2948	0.195	0.3081	-1.272	0.9026	-0.8303	2.2529	0.7101	9.5752	-0.4976	0.6752	-0.0011	0.7145	-0.042	-0.006	9.4326	2.4157	-0.3916	0.3817	2.0983	0.1283	-1.0454	-0.1623	0.7025
-2.1291	0.8365	9.3707	0.2917	0.0117	0.3041	-1.2731	0.902	-0.8471	2.7102	0.6515	9.5252	-0.1622	0.8326	-0.0655	0.6965	-0.036	-0.006	9.4886	2.1313	-0.448	-0.2831	2.1963	-0.3427	-1.045	-0.1058	0.651
-2.3097	0.8367	9.3675	0.0468	0.1006	0.3706	-1.2341	0.8827	-0.8121	2.4261	0.595	9.6366	-0.3164	0.7675	-0.2485	0.6965	-0.06	0.006	9.4365	2.6434	-0.1625	-1.1877	2.4125	-0.5597	-1.0614	-0.1442	0.6673
-2.4239	1.0075	9.7136	0.3193	-0.1096	0.1781	-1.2352	0.8821	-0.8289	2.8225	0.7083	9.4105	-0.2226	0.7066	-0.2487	0.6904	-0.036	0.012	9.8436	2.2452	0.3596	-1.9876	2.227	-0.3529	-1.061	-0.125	0.6679
-2.0669	0.8933	9.4878	0.0103	-0.2357	0.3638	-1.2158	0.8241	-0.8464	2.5945	0.709	9.4647	-0.282	0.6771	-0.0331	0.7145	-0.066	0	9.4406	1.8474	0.0086	-2.5874	1.7911	0.3376	-1.0453	-0.125	0.6504
-2.3017	0.423	9.7814	0.1656	-0.0807	0.2114	-1.2563	0.8811	-0.8802	2.8276	0.3068	9.643	-0.1575	0.648	0.0278	0.7085	-0.042	-0.006	9.2097	2.4731	-0.1668	-2.7189	1.4144	1.1374	-1.077	-0.1253	0.6675
-2.3716	0.5464	9.2533	0.1665	-0.0503	0.2429	-1.271	0.8259	-0.8662	3.171	0.5363	9.6506	-0.0338	0.5863	-0.0955	0.7025	-0.048	0	9.7794	2.4156	-0.042	-2.5902	0.8636	1.3442	-1.0455	-0.1438	0.6676
-2.1256	0.6008	9.5488	0.3258	0.3184	0.1258	-1.255	0.9012	-0.8461	2.7664	0.6512	9.4677	-0.3452	0.6744	-0.2478	0.7085	-0.054	-0.006	9.2666	2.3592	-0.1658	-1.7763	0.4475	0.6406	-1.0613	-0.1627	0.7022
-2.3657	0.8922	9.5993	0.2327	0.1946	0.2781	-1.2725	0.8636	-0.8651	2.3091	0.7097	9.5177	-0.2787	0.4907	-0.1242	0.6904	-0.06	0.006	9.4327	2.302	-0.3917	-0.7324	0.391	0.3323	-1.0458	-0.163	0.667
-2.0729	0.6642	9.1403	0.2326	0.133	0.369	-1.2908	0.845	-0.8835	2.3201	0.0794	10.0421	-0.467	0.6434	-0.124	0.6965	-0.054	0	9.4436	1.9612	0.1804	-0.1339	0.0961	-0.3332	-1.0455	-0.1254	0.6326
-2.4855	0.4838	9.6023	0.1417	0.2544	0.342	-1.2519	0.8257	-0.8484	2.5316	0.7653	9.1709	-0.3445	0.7071	-0.0636	0.7085	-0.036	-0.012	9.2703	2.7575	0.0634	0.3161	0.0115	-0.8083	-1.0617	-0.1634	0.6666
-1.7047	0.8921	9.5526	0.1029	-0.1425	0.2109	-1.2354	0.8626	-0.8462	2.5393	0.7671	9.581	-0.4386	0.7041	-0.2782	0.7145	-0.054	-0.012	9.2685	2.4731	-0.0513	0.2637	0.052	-1.5132	-1.0462	-0.1637	0.6314
-2.1237	0.7744	9.6634	-0.0501	-0.0524	0.2148	-1.2877	0.8467	-0.8331	2.8246	0.7664	9.5279	-0.5628	0.7652	-0.2164	0.7025	-0.048	0.006	9.3258	2.0749	-0.0506	-0.2415	-0.0959	-1.8065	-1.0615	-0.163	0.6844
-2.4304	0.3123	9.3136	-0.4184	0.1583	0.1009	-1.29	0.8261	-0.884	2.5924	0.6509	9.3473	-0.6541	0.7976	0.0298	0.7145	-0.048	-0.006	9.6083	2.1883	-0.1025	-0.4571	-0.0356	-1.7688	-1.0457	-0.1442	0.6498
-2.1257	0.6592	9.5481	-0.3588	-0.0248	0.1885	-1.1983	0.8617	-0.8274	2.079	0.5948	9.4542	-0.8107	0.8881	-0.0313	0.7025	-0.048	0.006	9.2141	2.3026	0.062	-0.5851	0.1187	-1.9174	-1.0607	-0.1058	0.6685
-2.0718	0.6051	9.1995	-0.3599	0.0064	0.0354	-1.2339	0.8249	-0.8474	2.7692	0.997	9.645	-0.6559	0.827	-0.124	0.6844	-0.054	0	9.503	2.3594	0.3534	-0.6619	0.4609	-2.4348	-1.0614	-0.1257	0.6323
-1.7685	0.4282	9.3238	-0.1095	0.2229	0.0062	-1.2171	0.8813	-0.8278	2.7024	0.7072	9.1154	-0.5326	0.8601	-0.0327	0.7025	-0.036	0	9.6716	2.8709	0.2997	-0.4145	0.7049	-2.4709	-1.0457	-0.1442	0.6498
-2.4894	0.2533	9.3717	-0.17	0.2217	0.13	-1.2334	0.8638	-0.8127	2.7681	0.9968	9.5864	-0.4962	0.6134	-0.0007	0.6904	-0.048	0.018	9.6145	2.2454	0.2409	-0.1849	0.9123	-2.0767	-1.0611	-0.1065	0.6329
-2.1213	0.5395	9.7831	0.0415	-0.0202	0.0605	-1.2705	0.8648	-0.8315	2.88	0.5932	9.4111	-0.4647	0.6463	0.1833	0.7085	-0.06	0	9.2126	2.6438	0.005	0.312	1.4154	-1.0735	-1.0464	-0.1641	0.6136
-2.246	0.601	9.5467	0.2016	0.2251	0.2176	-1.2388	0.9187	-0.8612	2.8278	0.8247	9.7039	-0.4365	0.7385	0.0904	0.7025	-0.042	0.012	9.6105	2.1315	0.0119	0.7799	1.9176	-0.008	-1.0614	-0.1442	0.6673
-2.1294	0.3119	9.3189	0.2045	0.3777	0.2517	-1.2514	0.8646	-0.8137	2.5461	0.6536	9.932	-0.3095	0.5858	0.152	0.6965	-0.036	0	9.4378	2.416	-0.1054	1.2507	2.189	0.1645	-1.0131	-0.1236	0.6866
-2.1246	0.6001	9.6072	0.2629	0.1336	0.3071	-1.2318	0.8261	-0.8139	3.0027	0.9977	9.8837	-0.0932	0.525	0.0282	0.7145	-0.036	0	8.9942	2.4169	0.4585	1.6496	2.5566	0.0018	-1.046	-0.1634	0.6492
-2.3098	0.9534	9.366	0.3578	0.3489	0.1876	-1.2535	0.8634	-0.8473	2.8217	0.5355	9.3511	-0.0334	0.5551	-0.126	0.6965	-0.054	0.006	9.8263	1.9032	-0.6136	1.4	2.8317	-0.0807	-1.046	-0.1449	0.6143
-1.8312	0.7215	9.2022	0.1995	0.1337	0.1542	-1.2717	0.8448	-0.8656	2.7713	1.0551	9.7624	0.1197	0.6506	-0.0046	0.7085	-0.042	0	9.5514	2.3021	-0.1034	0.7531	2.6471	0.0601	-1.0457	-0.1442	0.6498
-2.0676	0.6605	9.4323	0.0164	0.2847	0.129	-1.2723	0.8831	-0.8477	2.8799	0.6507	9.4113	0.0552	0.7733	-0.0357	0.6965	-0.042	0.006	9.0405	2.4164	-0.1127	-0.1375	2.5519	0.3318	-1.014	-0.1439	0.6327
-2.0687	0.6613	9.3739	0.0787	0.3159	0.1289	-1.2012	0.8793	-0.8603	2.7695	0.767	9.644	0.0895	0.5875	-0.0962	0.7205	-0.048	0	9.2621	2.6434	-0.3946	-1.0463	2.3434	0.0193	-1.0771	-0.1257	0.6498
-1.8239	0.7748	9.6103	-0.0109	0.4059	0.2857	-1.2336	0.8444	-0.83	2.6574	0.5951	9.7582	0.0571	0.617	-0.2191	0.6965	-0.042	0	9.268	2.8712	-0.051	-1.2994	2.102	-0.1287	-1.0145	-0.1819	0.6492
-2.0757	0.3746	8.9688	-0.0807	0.101	0.0032	-1.2527	0.8446	-0.8478	2.3022	0.8807	9.167	0.2441	0.5897	-0.0357	0.7145	-0.048	0.006	9.2091	2.928	-0.1665	-1.2167	1.8181	0.5733	-1.0605	-0.1055	0.6863
-2.3622	0.6565	9.7774	-0.109	0.0996	0.2496	-1.2736	0.9404	-0.8292	3.1126	0.5361	9.591	0.0553	0.6782	-0.2809	0.7085	-0.054	-0.006	9.3196	2.814	-0.3362	-0.7481	1.6639	0.7117	-1.046	-0.1818	0.6841
-2.1281	0.1361	9.3795	-0.0496	-0.0833	0.3064	-1.2514	0.8646	-0.8137	2.7637	0.3053	9.2904	-0.3785	0.8298	-0.1256	0.7085	-0.036	-0.012	9.5029	2.4162	0.3535	0.1109	1.2716	0.4678	-1.093	-0.126	0.6495
-2.1913	0.7796	9.2536	0.0447	-0.0216	0.368	-1.2354	0.8626	-0.8462	2.709	0.0759	9.4054	-0.5062	1.0135	-0.1874	0.6965	-0.048	0	9.4457	2.7575	0.3527	0.2853	0.9418	0.1219	-1.0298	-0.1254	0.6152
-2.0016	1.0646	9.7787	0.0151	0.0699	0.3396	-1.2145	0.8442	-0.8122	2.4214	1.3994	9.4645	-0.8152	1.0412	-0.1858	0.7085	-0.06	-0.006	9.5028	2.53	0.3535	0.1407	0.3114	-0.4934	-1.0617	-0.1449	0.6317
-2.071	0.8378	9.2549	0.2912	-0.0188	0.3035	-1.2689	0.9044	-0.78	2.7666	0.5362	9.4672	-0.5679	0.9811	-0.2791	0.7085	-0.054	0	9.6697	2.6434	0.1851	-0.7906	-0.2218	-1.5145	-1.0297	-0.1623	0.6851
-1.7056	0.7761	9.4956	0.11	0.2852	0.2201	-1.2522	0.8835	-0.8131	2.7101	0.709	9.5255	-0.3484	0.7975	-0.31	0.6904	-0.03	0.006	9.4459	2.5869	0.3525	-1.3718	-0.668	-2.2382	-1.0299	-0.1442	0.6324
-2.3054	0.8338	9.6011	0.1326	0.0429	-0.1853	-1.2516	0.8452	-0.8311	2.7145	0.7676	9.76	0.089	0.5234	-0.3417	0.7025	-0.042	0	9.3367	2.4735	0.5793	-1.7123	-0.9729	-2.1997	-1.0302	-0.1818	0.6667
-2.1862	0.8927	9.5441	0.2	0.2257	0.0639	-1.2362	0.8815	-0.8456	2.5409	0.4223	9.638	0.0635	0.3393	-0.156	0.7025	-0.06	0.006	9.6749	1.8474	0.4134	-1.5597	-1.0777	-1.2525	-1.045	-0.1058	0.651
-2.2499	0.3704	9.316	0.2937	0.2878	0.0641	-1.2699	0.8265	-0.8495	2.7706	0.7672	9.7026	-0.2102	0.1825	-0.092	0.7025	-0.024	0.006	9.8376	2.0175	0.016	-1.6636	-0.9957	-0.6035	-1.045	-0.1058	0.651
-2.2438	0.5411	9.6642	-0.1068	0.4063	-0.0206	-1.2707	0.8454	-0.8489	2.6503	0.2483	9.3465	-0.1146	0.0922	0.0616	0.7025	-0.042	0	9.2135	2.7576	0.0623	-1.6343	-0.6292	-0.6936	-1.0619	-0.1637	0.6489
-2.1241	1.0079	9.6605	-0.4201	0.1589	-0.0528	-1.2712	0.8837	-0.8309	2.9398	0.4211	9.5286	-0.239	0.153	0.0927	0.6904	-0.048	-0.006	9.3244	2.3592	-0.1076	-1.2873	-0.3433	-1.5314	-1.0453	-0.1435	0.6854
-2.3674	0.6019	9.4862	-0.2013	0.2524	0.0388	-1.2334	0.8638	-0.8127	2.6505	0.8236	9.4077	-0.2703	0.1521	0.0314	0.6965	-0.06	-0.012	9.1525	1.9613	-0.2255	-0.5947	0.0622	-2.2249	-1.0291	-0.1055	0.6514
-2.1249	0.0755	9.5554	-0.0431	0.3446	0.254	-1.3058	0.8475	-0.8342	2.5351	0.651	9.3461	-0.4246	0.2457	0.2776	0.6904	-0.06	0	9.4431	2.3593	0.1807	-0.0659	0.5634	-3.22	-1.0614	-0.1442	0.6673
-1.9468	1.1266	9.487	0.2329	0.2252	0.248	-1.2182	0.8807	-0.8446	2.8284	0.4796	9.7024	-0.4936	0.5215	0.092	0.7025	-0.054	0	9.3881	2.5869	0.2943	0.2887	1.1665	-2.8263	-1.0775	-0.1264	0.6142
-2.2431	0.8322	9.719	0.2638	0.1332	0.3994	-1.1993	0.8611	-0.8442	2.7034	0.765	9.1742	-0.5279	0.7073	0.1525	0.7145	-0.042	-0.006	9.2728	3.2126	0.2354	1.2811	2.0354	-1.8657	-1.0617	-0.1634	0.6666
-1.7054	0.601	9.4978	0.2963	0.2867	0.31	-1.271	0.9032	-0.8136	2.3647	0.4215	9.4004	-0.4663	0.7079	0.1522	0.7025	-0.036	0	9.7814	2.4157	0.0725	2.307	2.7813	-0.815	-0.9812	-0.1041	0.6701
-2.4278	0.7187	9.4837	0.3567	0.2263	0.2772	-1.2509	0.8263	-0.8317	3.1079	0.7076	9.3574	-0.4396	0.8616	0.0282	0.7085	-0.06	-0.006	9.4931	2.7571	-0.1614	2.8926	3.1644	0.0617	-1.1088	-0.1076	0.632
-2.0076	0.7772	9.4319	0.2372	0.408	0.3749	-1.2725	0.8636	-0.8651	2.8299	0.9402	9.8216	-0.0988	0.7402	-0.096	0.7085	-0.03	0	9.497	2.1316	0.0098	2.6579	3.4021	0.4701	-1.046	-0.1818	0.6841
-2.1248	0.7752	9.605	0.2332	0.2866	0.1878	-1.2707	0.8454	-0.8489	3.0579	0.3067	9.706	-0.0336	0.6184	0.0272	0.6904	-0.042	0	9.1458	2.3591	-0.5686	1.9882	3.1222	0.8873	-1.0306	-0.201	0.6661
-2.2521	0.4303	9.1985	0.0796	0.254	0.3121	-1.2339	0.8249	-0.8474	2.4268	0.8253	9.6962	0.1268	0.3102	-0.0333	0.6965	-0.042	-0.006	9.5507	2.0746	-0.1609	0.7915	2.9339	1.2904	-1.029	-0.124	0.6863
-2.0639	0.2498	9.6127	0.0773	0.2549	0.0968	-1.2545	0.8628	-0.864	2.7645	0.4781	9.3498	0.1547	0.4339	-0.0649	0.7145	-0.036	-0.012	9.6011	2.1311	-0.5032	-0.3325	2.5577	2.0584	-1.0453	-0.125	0.6504
-2.1849	0.7169	9.6047	0.174	0.4387	0.1919	-1.2344	0.8632	-0.8294	2.7718	0.71	9.7609	-0.1527	0.3683	-0.1242	0.6965	-0.036	0	9.5454	2.1312	-0.447	-0.8374	2.5011	1.7658	-1.045	-0.1058	0.651
-2.0102	0.3709	9.2619	0.0793	0.2541	0.2813	-1.2723	0.8831	-0.8477	2.5958	0.5367	9.5225	-0.2175	0.5226	-0.094	0.7085	-0.048	0.012	9.4346	2.4727	-0.2771	-0.5473	1.9921	1.1692	-1.0453	-0.125	0.6504
-2.3681	1.0688	9.4803	0.049	0.192	0.4341	-1.2365	0.8621	-0.863	2.7698	0.5944	9.6432	-0.4672	0.7067	0.0293	0.7025	-0.048	0	9.6643	1.9607	-0.1589	-0.1641	1.8489	0.5421	-1.061	-0.125	0.6679
-2.249	0.4864	9.373	0.0461	0.1009	0.3092	-1.2542	0.8823	-0.8467	2.703	0.3622	9.1138	-0.5355	0.9834	-0.0642	0.7085	-0.042	0.006	9.6092	2.3589	-0.0451	-0.056	1.6125	0.0453	-1.0126	-0.0857	0.6701
-2.0633	0.5993	9.6667	0.0139	0.0396	0.2775	-1.253	0.9024	-0.8125	2.7122	0.8246	9.6431	-0.8177	1.1016	-0.3398	0.7145	-0.048	-0.012	9.2149	2.4733	0.1194	-0.5082	1.3163	-0.5274	-1.0446	-0.1051	0.6866
-2.003	0.5408	9.6685	-0.0808	-0.022	0.1851	-1.3076	0.8658	-0.8504	2.6483	0.8231	9.2905	-0.911	1.1631	-0.2781	0.7025	-0.036	-0.012	9.5593	2.7005	0.3547	-1.981	0.7146	-1.0105	-1.0296	-0.1435	0.6679
-2.3716	0.6048	9.2526	-0.2346	0.0685	0.0967	-1.2527	0.8446	-0.8478	2.3051	0.4786	9.2824	-0.8474	1.071	-0.278	0.7145	-0.036	0.006	9.6709	2.5865	0.2423	-2.8596	0.2321	-1.3261	-1.0932	-0.1449	0.6666
-1.9475	0.8355	9.4323	0.0096	-0.0816	0.0596	-1.2192	0.8801	-0.8614	2.7631	0.6504	9.292	-0.4803	1.1663	-0.4036	0.6965	-0.048	0	9.5025	2.7006	0.3537	-3.5849	-0.402	-1.6782	-1.0617	-0.1634	0.6666
-1.8817	0.5983	9.7282	-0.1412	0.1922	-0.0248	-1.2561	0.9006	-0.8628	2.8826	0.3637	9.5272	-0.2949	1.1688	-0.3432	0.6904	-0.036	0.012	9.788	2.9847	0.4736	-3.678	-1.0724	-1.6193	-1.0607	-0.1058	0.6685
-2.1837	0.5994	9.6646	-0.1077	0.3144	0.0389	-1.2545	0.8628	-0.864	2.7157	0.7103	9.8184	-0.0672	0.5827	-0.4333	0.6784	-0.042	-0.006	9.5631	2.132	0.526	-3.2701	-1.1358	-1.4477	-1.0607	-0.1058	0.6685
-2.0087	0.7779	9.3735	-0.2603	0.4967	-0.0782	-1.2516	0.8452	-0.8311	3.167	0.9381	9.4767	0.095	0.2451	-0.34	0.7085	-0.048	-0.006	9.7289	2.359	0.3003	-2.6727	-1.2008	-1.1588	-1.0297	-0.1439	0.6501
-2.2452	0.7753	9.6029	0.0468	0.316	0.037	-1.2388	0.9187	-0.8612	2.5935	0.6512	9.4058	0.1935	0.0314	-0.155	0.7025	-0.036	0.024	9.4988	2.3592	0.1245	-2.1044	-1.2667	-0.8076	-1.0298	-0.1254	0.6152
-2.4283	0.3692	9.4297	0.0485	0.3768	0.0998	-1.2365	0.9394	-0.8103	2.4798	0.7667	9.4627	0.1023	-0.0313	-0.1541	0.7145	-0.048	0.012	9.7236	2.4726	0.0143	-1.1356	-0.7525	-0.5866	-1.0606	-0.087	0.6513
-2.3095	0.72	9.369	0.3207	0.0129	0.1193	-1.2362	0.8815	-0.8456	2.5377	1.0544	9.5237	-0.1726	0.0009	0.2776	0.7025	-0.042	0.012	9.4919	2.0177	-0.2764	0.2196	-0.2611	-0.8998	-0.9973	-0.1048	0.652
-2.0048	0.3088	9.5546	0.1419	0.2851	0.3119	-1.2352	0.8821	-0.8289	2.601	0.0776	9.7547	-0.4503	0.0295	0.3405	0.7085	-0.048	-0.006	9.2755	2.7009	0.3495	1.138	0.6584	-1.3501	-1.0443	-0.086	0.6872
-2.0683	0.3695	9.3776	0.5388	0.0142	0.3011	-1.3099	0.9225	-0.8486	2.4792	1.1118	9.4643	-0.7025	0.2422	0.2178	0.7025	-0.072	0.012	9.2114	2.7575	-0.0521	1.7445	1.7008	-1.8823	-1.094	-0.1836	0.6476
-2.1963	0.5498	8.9645	0.6637	0.015	0.4225	-1.2357	0.9205	-0.8109	2.4228	1.2271	9.5223	-0.7961	0.367	0.4327	0.7025	-0.048	0.012	9.164	1.9049	0.404	2.4045	2.4888	-1.6499	-1.0614	-0.1442	0.6673
-2.189	0.6031	9.3726	0.6319	0.0765	0.2398	-1.1999	0.8994	-0.8262	2.824	0.4785	9.468	-0.6787	0.6147	0.3383	0.7145	-0.048	-0.012	9.2146	2.7008	0.1195	2.7044	3.2714	-1.038	-1.0612	-0.1254	0.6501
-1.8297	0.429	9.2643	0.6934	0.0465	0.2691	-1.2568	0.9195	-0.8623	2.3654	0.6519	9.46	-0.7149	0.7981	0.1531	0.6965	-0.042	0.006	9.4937	2.2452	-0.1618	3.0482	3.7127	0.0307	-1.0456	-0.1627	0.6847
-2.0675	0.5438	9.4338	0.5093	0.0749	0.3335	-1.2346	0.8438	-0.8468	2.4798	0.7667	9.4627	-0.7151	0.8296	0.2144	0.7025	-0.042	-0.006	9.3249	1.9611	-0.1079	2.8583	3.8829	0.8981	-1.0448	-0.1055	0.6688
-2.1301	0.7788	9.313	0.4794	0.1357	0.3352	-1.2388	0.9187	-0.8612	2.6528	0.7667	9.5246	-0.5915	0.8312	0.2444	0.6904	-0.03	-0.006	9.5483	2.3019	-0.2751	2.7453	3.7255	1.269	-1.0464	-0.1641	0.6136
-2.3065	0.0765	9.4938	0.326	0.1952	0.3384	-1.3081	0.9042	-0.8324	2.8813	0.4784	9.4691	-0.777	0.8287	0.184	0.7025	-0.042	-0.006	9.0882	2.1316	-0.627	2.5339	3.3267	1.4872	-1.0455	-0.1438	0.6676
-1.4624	0.5408	9.6196	0.1379	0.1637	0.1248	-1.253	0.9024	-0.8125	2.3092	0.6522	9.5175	-0.8346	0.7062	0.3694	0.7085	-0.042	0	9.6076	1.9607	-0.1599	2.496	2.9032	1.3006	-1.0451	-0.1247	0.6682
-2.2467	0.3682	9.4912	0.2318	0.1641	0.2467	-1.2705	0.8648	-0.8315	2.9954	0.7658	9.4726	-0.9396	1.1339	-0.0627	0.6965	-0.048	-0.012	9.4887	2.0744	-0.4481	2.2395	2.4806	1.059	-1.077	-0.1253	0.6675
-1.887	0.6019	9.4363	-0.0483	0.1315	0.0957	-1.2187	0.8418	-0.8793	2.7661	0.8237	9.4685	-0.7273	1.3222	-0.0036	0.7205	-0.048	0	9.2686	2.4162	-0.0513	1.9119	2.1231	0.5129	-1.0302	-0.1818	0.6667
-2.0684	0.4862	9.3761	-0.1697	0.2216	0.1607	-1.2019	0.8982	-0.8597	2.7663	0.0758	9.4066	-0.7293	1.3513	-0.1881	0.6904	-0.048	-0.006	9.7166	2.2448	-0.3865	1.3339	1.4926	-0.0894	-1.0777	-0.1452	0.6314
-2.1816	0.5979	9.7814	-0.3573	0.0053	0.2814	-1.2354	0.8626	-0.8462	2.9333	0.362	9.1768	-0.4248	1.4131	-0.5283	0.7085	-0.048	-0.006	9.6075	2.0176	-0.1599	0.2015	1.1653	-0.6113	-1.0768	-0.1065	0.6504
-2.3103	0.5456	9.3128	-0.4825	-0.0567	0.2201	-1.2318	0.8261	-0.8139	2.8242	1.0539	9.5292	-0.18	1.4768	-0.5916	0.7025	-0.036	0.006	9.2086	2.5299	-0.224	-0.9594	0.7149	-1.0411	-1.0922	-0.0873	0.6685
-2.3051	0.6003	9.604	-0.3277	0.0062	0.158	-1.2702	0.8843	-0.8142	2.8233	0.2482	9.4084	-0.1186	1.4454	-0.7147	0.6965	-0.042	-0.012	9.2137	2.587	0.0622	-2.0407	0.2259	-0.8897	-1.0451	-0.1247	0.6682
-2.3063	0.6594	9.5449	-0.389	0.0361	0.1594	-1.238	0.8998	-0.8618	2.6638	0.7692	10.1104	-0.0489	1.1704	-0.4369	0.7025	-0.054	-0.006	9.4417	2.6436	0.1237	-3.4039	-0.1399	-0.8518	-1.0286	-0.086	0.6697
-2.3026	0.307	9.7245	-0.4234	-0.1781	0.1552	-1.2547	0.8434	-0.8814	2.5393	0.0767	9.5193	-0.1381	0.9513	-0.6194	0.6965	-0.048	-0.006	9.5017	2.5299	0.2963	-4.4924	-0.8389	-0.9171	-1.0448	-0.1055	0.6688
-2.3076	0.8936	9.4836	-0.3608	0.0068	-0.0568	-1.272	0.9026	-0.8303	2.821	0.3052	9.2915	-0.1071	0.9837	-0.4969	0.7085	-0.042	0.006	9.6172	2.6436	0.4129	-4.8713	-1.4147	-1.0947	-0.9976	-0.124	0.6514
-2.7279	0.8934	9.5346	-0.3924	0.0068	-0.1179	-1.2357	0.8432	-0.8636	2.5966	0.0766	9.5204	-0.224	0.7048	-0.4331	0.7025	-0.054	0	9.7301	2.2453	0.3575	-4.8471	-1.7772	-1.2827	-1.0455	-0.1254	0.6326
-2.1224	0.5402	9.7247	-0.0181	0.0705	0.1248	-1.2689	0.8271	-0.8327	2.4833	0.6524	9.638	-0.1902	0.6454	-0.2178	0.6965	-0.048	0	9.2769	2.4166	0.4065	-3.9418	-1.7804	-1.064	-1.045	-0.1058	0.651
-2.3059	0.3676	9.5486	-0.1411	0.0998	0.127	-1.2347	0.9211	-0.7941	2.477	0.4208	9.2854	0.0274	0.5545	-0.2493	0.7025	-0.06	-0.006	9.2234	2.3599	0.5771	-2.6672	-1.569	-0.9468	-1.093	-0.126	0.6495
-1.9991	-0.045	9.851	-0.0794	0.039	0.2171	-1.2365	0.8621	-0.863	2.7667	0.4786	9.4669	0.1873	0.3412	-0.0953	0.7025	-0.03	0	9.3347	2.4165	0.4648	-1.1379	-1.2085	-0.6209	-1.0766	-0.1246	0.7031
-2.4351	0.6654	9.0756	0.1348	-0.0811	0.2118	-1.2733	0.8825	-0.8645	2.9932	0.7653	9.3555	0.221	0.1863	-0.1561	0.6965	-0.048	-0.006	9.7828	2.1882	0.1296	0.1912	-0.6585	-0.7792	-1.0135	-0.1243	0.6511
-2.065	0.3089	9.5535	0.2629	0.1336	0.3071	-1.2548	0.9207	-0.8287	2.3681	0.3648	9.5759	-0.0971	0.6154	-0.2182	0.6904	-0.036	0	9.3346	2.5303	0.4649	1.0248	0.1353	-0.9514	-1.0932	-0.1449	0.6666
-2.1267	0.6015	9.4904	0.4149	0.0131	0.2719	-1.2548	0.9207	-0.8287	2.9946	0.593	9.4133	-0.4625	0.5539	0.2145	0.6965	-0.048	0.006	9.6122	2.4728	0.1267	1.202	1.0232	-1.3184	-1.0289	-0.1052	0.6691
-2.3045	0.8914	9.6588	0.3243	0.1344	0.2756	-1.2367	0.9199	-0.8277	1.9651	0.8253	9.5117	-0.738	0.4901	0.3087	0.6904	-0.048	0	9.6131	2.5866	0.184	1.2216	1.6076	-1.7445	-1.0775	-0.1449	0.6492
-1.8244	0.4253	9.5563	0.6032	0.0753	0.4554	-1.2006	0.841	-0.8783	2.4788	0.7089	9.4039	-0.6768	0.4584	0.1549	0.6904	-0.054	0	9.2085	2.5867	-0.2239	1.0023	1.9744	-1.8579	-1.0294	-0.1062	0.6158
-1.8919	1.1301	9.1961	0.5132	0.2886	0.3689	-1.2532	0.8829	-0.8299	2.9338	0.7074	9.237	-0.8005	0.5519	0.3702	0.6965	-0.048	-0.006	9.3715	2.5294	-0.6215	1.4884	2.6045	-1.2221	-1.0619	-0.1822	0.6838
-1.8257	0.6011	9.4957	0.2946	0.2259	0.2472	-1.2731	0.902	-0.8471	2.5945	0.709	9.4647	-0.7672	0.4601	0.432	0.7085	-0.036	0	9.2134	2.0182	0.0045	2.3651	2.7686	0.0743	-1.0934	-0.1452	0.6488
-2.0157	0.5496	8.9677	0.2973	0.3478	0.3114	-1.2723	0.8831	-0.8477	2.881	0.651	9.4699	-0.7337	0.4003	0.6165	0.7145	-0.042	0.012	9.0382	2.587	-0.2271	2.9426	3.2165	0.6752	-1.0294	-0.1432	0.6857
-1.9467	0.2518	9.4396	0.2654	0.4402	0.0677	-1.2383	0.8803	-0.8792	2.7087	0.2484	9.4062	-0.5802	0.4328	0.6154	0.7025	-0.048	-0.006	9.434	2.1314	-0.3346	3.7168	3.3081	0.6527	-1.0457	-0.1442	0.6498
-2.1353	0.7241	9.0218	0.2342	0.2862	0.2801	-1.2725	0.8636	-0.8651	3.3343	1.0518	9.2462	-0.8588	0.3967	0.3714	0.7025	-0.042	0.012	9.493	1.9608	-0.2192	3.8869	3.1022	0.1543	-1.0453	-0.1435	0.6854
-2.2465	0.1932	9.4934	0.2014	0.1329	0.3386	-1.2535	0.8634	-0.8473	2.8214	0.7081	9.3519	-0.7417	0.6759	0.3384	0.7025	-0.054	0.006	9.5536	2.2453	0.011	3.315	2.9259	-0.2909	-1.0444	-0.1048	0.7044
-2.2364	0.536	10.073	0.2668	0.4088	0.2516	-1.2548	0.9207	-0.8287	2.541	0.3648	9.6378	-0.5374	1.108	0.0273	0.6965	-0.036	0.012	9.4319	2.1313	-0.4491	2.0274	2.7816	-0.8373	-1.0617	-0.1449	0.6317
-2.3038	0.4245	9.6646	-0.0437	0.2526	0.3443	-1.2156	0.8436	-0.829	2.5287	0.477	8.9939	-0.5435	1.259	-0.3423	0.7025	-0.042	0.012	9.5555	2.3591	0.1255	0.2876	2.3266	-0.9426	-1.0126	-0.0857	0.6701
-1.7657	0.7178	9.4953	-0.2612	0.2509	0.224	-1.2908	0.845	-0.8835	2.8821	0.6512	9.5285	-0.2691	1.3849	-0.4061	0.7145	-0.054	0.012	9.3826	1.9611	-0.0496	-1.4452	1.6856	-0.8037	-1.0138	-0.1435	0.6505
-2.4928	0.3722	9.195	-0.3562	0.2817	-0.0509	-1.2524	0.864	-0.8305	2.9426	0.7094	9.7056	-0.2381	1.3537	-0.4676	0.6965	-0.06	0	9.7216	2.4156	-0.1002	-2.7135	1.0751	-0.6784	-1.0451	-0.1247	0.6682
-1.7085	0.6032	9.3226	-0.5135	0.1891	-0.174	-1.2893	0.8845	-0.832	2.6502	0.3058	9.3468	-0.418	1.1042	-0.4958	0.6965	-0.054	0.012	10.0084	2.4723	0.0767	-3.8862	0.4329	-0.4641	-1.061	-0.1435	0.7028
-2.0055	0.7757	9.5487	-0.5098	0.4336	-0.1995	-1.2362	0.8815	-0.8456	2.8265	0.9969	9.6461	-0.0452	0.9846	-0.4665	0.7025	-0.042	-0.012	9.0427	2.3597	0.0017	-5.0477	0.0902	0.0903	-1.0766	-0.1062	0.6682
-2.3643	1.416	9.7095	-0.4783	0.3106	0.0435	-1.2393	0.8797	-0.8959	2.3628	0.8814	9.3439	0.0846	0.7718	-0.2202	0.7145	-0.048	-0.006	9.9594	2.1314	0.476	-5.7347	-0.6386	-0.0179	-1.029	-0.124	0.6863
-2.1948	1.0153	9.0754	-0.3235	0.3736	-0.0186	-1.2171	0.8813	-0.8278	3.0504	0.8227	9.3568	0.1458	0.7401	-0.374	0.7085	-0.054	-0.006	9.5576	2.3592	0.24	-5.6163	-1.1846	-0.1487	-1.0937	-0.1828	0.6832
-2.0647	0.8334	9.6053	-0.1634	0.7112	-0.0133	-1.22	0.899	-0.8608	2.7653	0.6509	9.4091	0.1487	0.6485	-0.2506	0.6965	-0.042	0	9.2262	2.5875	0.749	-4.9836	-1.3287	-0.7219	-1.0617	-0.1449	0.6317
-2.1268	0.6599	9.4897	0.0154	0.5004	-0.2969	-1.237	0.9004	-0.845	2.7723	0.4224	9.7596	0.0934	0.3385	-0.2791	0.7085	-0.048	0	9.7379	2.7007	0.8157	-4.2082	-1.451	-0.6846	-1.0455	-0.1438	0.6676
-2.241	0.8307	9.8358	0.0813	0.5916	-0.0497	-1.2532	0.8829	-0.8299	2.5904	0.4779	9.2293	0.0058	0.185	-0.0626	0.6965	-0.03	0.012	9.3285	2.4163	0.1214	-2.7399	-1.0909	-0.3262	-1.0451	-0.1247	0.6682
-2.2474	0.8351	9.4854	0.3277	0.4714	0.0676	-1.2733	0.8825	-0.8645	2.4826	1.055	9.6398	-0.0886	0.2768	-0.0626	0.7025	-0.042	0.018	9.439	2.3023	-0.0483	-1.312	-0.4522	-0.3024	-1.0133	-0.124	0.6688
-2.3068	0.31	9.4909	0.3282	0.5019	0.0683	-1.2691	0.8076	-0.8501	2.934	0.5923	9.2364	-0.2416	0.2767	0.092	0.7085	-0.048	-0.006	9.2153	2.9851	0.177	-0.2961	0.13	-0.5739	-1.1093	-0.1455	0.6485
-2.13	0.7205	9.3138	0.42	0.4109	0.1267	-1.2349	0.8243	-0.8642	2.8808	0.766	9.4704	-0.1461	0.1228	0.0616	0.6904	-0.054	-0.006	9.3801	2.3022	-0.1638	0.1676	0.5266	-0.6461	-1.0607	-0.0874	0.6335
-2.3093	0.6032	9.3704	1.0435	0.5071	0.5207	-1.238	0.8998	-0.8618	3.2851	0.1907	9.5927	-0.0165	-0.0903	0.2772	0.7025	-0.048	-0.006	9.8412	2.5295	0.2453	-0.2584	0.7669	-0.4163	-1.0289	-0.1236	0.7041
-2.0087	0.8363	9.3728	0.9792	0.4152	0.4273	-1.2535	0.8634	-0.8473	2.9381	0.7659	9.4715	-0.2924	-0.1547	0.3099	0.7085	-0.048	0.012	9.4939	2.0746	-0.1619	-0.6658	1.0128	-0.5865	-1.0612	-0.1438	0.685
-2.7273	1.2429	9.5886	1.0715	0.3548	0.4863	-1.2916	0.8638	-0.8829	2.8786	0.7655	9.3533	-0.1982	-0.215	0.3712	0.7085	-0.042	0	9.5537	2.1316	0.0109	-0.29	1.4986	-0.5017	-1.1252	-0.1459	0.6482
-2.4962	0.5495	9.0176	0.7595	0.1684	0.4862	-1.2697	0.8459	-0.8321	2.7733	1.1706	9.8801	-0.3512	-0.2469	0.4337	0.6965	-0.042	0	9.4968	2.2454	0.0099	0.71	2.0737	-0.2812	-1.028	-0.0665	0.6881
-2.3107	0.8374	9.3091	0.577	0.3499	0.4617	-1.2553	0.8817	-0.8634	2.7151	0.365	9.7582	-0.5705	-0.0312	0.5874	0.7025	-0.036	0.006	9.2663	2.5867	-0.1657	1.8758	2.8875	0.2743	-1.0609	-0.1062	0.6507
-2.0046	0.8917	9.6057	0.6402	0.5345	0.3111	-1.2344	0.8632	-0.8294	2.6587	1.1708	9.8779	-0.8202	0.1211	0.6187	0.7145	-0.054	0	9.3765	1.8471	-0.3931	3.4513	3.3163	0.0769	-1.0449	-0.1428	0.7209
-2.0083	0.4861	9.3772	0.4204	0.38	0.2182	-1.179	0.8809	-0.7922	2.5371	0.7666	9.4638	-1.0709	0.2723	0.5271	0.7025	-0.054	0.006	9.6603	1.8468	-0.3879	4.535	3.652	0.0164	-1.061	-0.125	0.6679
-1.8273	0.1941	9.384	0.4234	0.4403	0.404	-1.2216	0.9368	-0.8596	2.7087	0.9388	9.4679	-1.6597	0.3894	0.4684	0.7025	-0.036	-0.018	9.3199	2.5865	-0.3363	4.6301	3.7729	0.076	-1.0299	-0.1627	0.6673
-1.8858	0.4845	9.4961	0.3934	0.5934	0.254	-1.2532	0.8829	-0.8299	2.7685	0.0763	9.5237	-1.1102	0.547	0.1876	0.7025	-0.03	0	9.3194	3.0415	-0.336	4.0345	3.8066	-0.1517	-1.077	-0.1069	0.6326
-2.0662	0.4264	9.4937	0.2369	0.4081	0.3442	-1.2341	0.8827	-0.8121	2.7671	0.939	9.5276	-0.7101	0.5184	0.0011	0.7025	-0.048	0.006	9.1506	2.6436	-0.2822	2.536	3.1109	-0.4505	-1.0762	-0.1055	0.7037
-1.5203	0.4227	9.7368	0.3872	0.3191	0.0943	-1.2563	0.8811	-0.8802	2.6529	0.7091	9.5244	-1.7063	1.0042	0.127	0.7025	-0.054	0.006	9.3803	2.1885	-0.1639	0.8699	2.5285	-0.1594	-0.9979	-0.1432	0.6508
-2.4295	0.4283	9.3705	0.1112	0.377	0.1913	-1.2741	0.9014	-0.8639	2.9327	0.7071	9.1784	-1.0298	1.0723	0.0611	0.7085	-0.048	0	9.2095	2.6437	-0.1667	-0.7308	1.8226	0.2515	-1.0455	-0.1254	0.6326
-2.4899	0.6035	9.3673	-0.2285	0.4966	0.0136	-1.2697	0.8459	-0.8321	3.1123	0.0757	9.5303	-0.4734	0.9528	-0.0951	0.7025	-0.036	0	9.2732	2.0752	0.1773	-1.7468	1.4844	0.4943	-1.061	-0.125	0.6679
-2.1254	0.4257	9.551	-0.5696	0.586	-0.2569	-1.253	0.9024	-0.8125	2.7628	0.8229	9.2927	-0.5075	1.0753	-0.1878	0.6965	-0.048	0	9.3257	2.9849	0.0074	-2.5162	0.8419	0.7273	-1.0303	-0.1634	0.6317
-2.1206	0.7722	9.8386	-0.6372	0.2187	-0.2333	-1.2514	0.8646	-0.8137	3.1674	0.708	9.4757	-0.2561	0.7663	-0.4333	0.7085	-0.048	0	9.5007	2.473	0.239	-3.1229	0.3178	1.2022	-1.0939	-0.1647	0.6304
-2.7281	0.3105	9.4835	-0.4828	0.1587	-0.1443	-1.2378	0.9193	-0.8444	2.8277	0.9397	9.7044	-0.035	0.5848	-0.2491	0.7025	-0.036	-0.012	9.7779	1.9037	-0.1568	-3.4283	-0.1719	1.3918	-1.0617	-0.1634	0.6666
-2.2491	0.5448	9.3722	-0.2618	0.3127	0.0716	-1.2715	0.8642	-0.8483	2.4272	0.5953	9.6952	0.06	0.4936	-0.1877	0.7025	-0.042	0.012	9.2201	2.4735	0.4055	-3.5193	-0.4776	1.4842	-1.0139	-0.125	0.6155
-2.4919	0.5466	9.2512	-0.1071	0.2526	0.1913	-1.2733	0.8825	-0.8645	2.6496	0.7084	9.3486	0.215	0.4328	-0.2497	0.7025	-0.042	-0.006	9.6173	2.5299	0.4129	-3.2461	-0.7187	1.3205	-1.0622	-0.2013	0.6832
-2.0653	0.484	9.5513	-0.0743	0.4059	0.1328	-1.2545	0.8628	-0.864	2.8839	0.8818	9.6467	0.3669	0.5268	-0.2819	0.7025	-0.036	-0.006	9.5069	2.587	0.5825	-2.6075	-0.7741	0.9322	-1.0286	-0.086	0.6697
-1.9927	0.7086	10.2503	0.0453	0.132	0.1868	-1.2161	0.8819	-0.8111	3.1674	0.708	9.4757	0.3348	0.5883	-0.282	0.7085	-0.036	-0.012	9.2785	2.8147	0.5213	-1.8289	-0.5017	1.034	-1.0448	-0.1055	0.6688
-1.8267	0.5435	9.438	0.1966	-0.1728	0.3628	-1.2375	0.8615	-0.8798	2.4858	0.4804	9.7543	0.2135	0.5261	-0.1888	0.6965	-0.036	0	9.5545	2.3591	0.0683	-1.2842	-0.5871	0.6176	-1.0291	-0.1055	0.6514
-2.3654	0.6587	9.6022	0.3219	-0.0492	0.3332	-1.2542	0.8823	-0.8467	2.7081	0.5935	9.4078	0.2376	0.7401	-0.4667	0.6844	-0.054	0	9.2665	2.4161	-0.1658	-0.8844	-0.22	0.4856	-1.0445	-0.0863	0.6694
-2.0037	0.2497	9.6137	0.3828	-0.2943	0.6346	-1.2341	0.8827	-0.8121	2.8743	0.7069	9.1187	-0.0094	0.8324	-0.2507	0.6904	-0.036	-0.012	9.5027	2.5868	0.3536	-0.6753	0.058	0.205	-1.0616	-0.1445	0.6495
-2.6075	0.8933	9.5367	0.4742	-0.2928	0.5105	-1.2362	0.8815	-0.8456	2.5923	0.7085	9.3475	-0.1573	0.6165	-0.0335	0.7085	-0.06	0.006	9.1601	2.5303	0.2328	-0.4555	0.148	0.2914	-1.0282	-0.0668	0.6704
-2.4899	0.6035	9.3673	0.5348	-0.3225	0.4476	-1.2205	0.8601	-0.8955	2.3681	0.9977	9.6373	-0.1207	0.4019	0.1212	0.7145	-0.036	0	9.6782	2.5869	0.6429	-0.2992	0.3303	0.3189	-1.0299	-0.1442	0.6324
-2.245	0.6586	9.6044	0.4122	-0.3241	0.5414	-1.2561	0.9006	-0.8628	2.765	0.8235	9.4099	-0.3645	0.276	0.1541	0.7085	-0.06	-0.006	9.3873	2.4163	0.2369	0.2811	0.1818	0.0545	-1.0614	-0.1257	0.6323
-2.0138	0.6649	9.083	0.1965	-0.1419	0.302	-1.2571	0.9	-0.8796	2.647	0.2475	9.1708	-0.4554	0.2771	0.3698	0.7025	-0.054	0	9.6149	1.9042	0.2407	1.3604	0.6414	-0.1585	-1.046	-0.1818	0.6841
-2.1314	0.1967	9.2036	0.1982	-0.0811	0.3648	-1.2354	0.8626	-0.8462	2.7123	0.7096	9.6426	-0.6696	0.2452	0.4941	0.6904	-0.036	-0.006	9.8348	1.7899	-0.1559	2.5091	1.0974	-0.1277	-1.0622	-0.1829	0.6483
-2.3074	0.7185	9.4858	-0.1417	0.0078	0.2172	-1.2524	0.864	-0.8305	3.0474	0.6494	9.1803	-0.9795	0.3354	0.5569	0.7025	-0.042	-0.012	9.4974	2.6435	0.0675	3.6299	1.613	-0.0035	-1.0289	-0.0867	0.6342
-2.4904	0.9537	9.3629	-0.0817	-0.1754	0.3355	-1.2769	0.9191	-0.8968	2.886	0.9973	9.7644	-1.0813	0.6719	0.2789	0.7025	-0.048	0.012	9.3787	2.6434	-0.2208	3.9139	2.1287	0.115	-1.0616	-0.1445	0.6495
-2.01	0.1958	9.2641	-0.0506	-0.0829	0.2141	-1.2553	0.8817	-0.8634	2.2518	0.7098	9.5166	-1.1523	1.0404	0.0928	0.7145	-0.036	0	9.673	2.5298	0.3567	3.4065	2.4695	-0.2973	-1.0301	-0.1446	0.6146
-2.1815	0.5396	9.7821	0.0134	0.0091	0.2768	-1.255	0.9012	-0.8461	2.5374	1.2269	9.5245	-0.8466	1.1672	0.0902	0.7085	-0.036	0.012	9.6627	2.4725	-0.2157	2.436	2.6265	-0.6357	-1.0446	-0.1051	0.6866
-2.0583	0.7707	9.9565	0.0738	-0.0513	0.244	-1.2184	0.8613	-0.862	2.7087	0.9388	9.4679	-0.8499	1.29	-0.0027	0.6965	-0.054	0	9.4845	2.1311	-0.6769	1.3078	2.4496	-1.0336	-1.0152	-0.1833	0.5781
-2.128	0.7774	9.4298	-0.0178	0.0089	0.2464	-1.2519	0.903	-0.7958	2.3648	0.364	9.4001	-0.7879	1.2276	-0.1256	0.7145	-0.042	0.012	9.207	2.1317	-0.3388	-0.1876	2.1487	-1.2678	-1.0605	-0.1055	0.6863
-2.0719	0.6635	9.1987	-0.1097	0.1307	0.1272	-1.2022	0.8788	-0.8771	2.8823	0.5362	9.528	-0.7628	1.4429	-0.2807	0.7025	-0.036	0.012	9.8975	2.0175	0.1887	-1.4513	1.8104	-1.0176	-1.0453	-0.125	0.6504
-2.0073	0.5437	9.4349	-0.1418	0.1001	0.0655	-1.289	0.8267	-0.8673	2.5364	1.1692	9.4656	-0.7903	1.288	-0.2796	0.6844	-0.03	0.012	9.3888	2.0182	0.2938	-2.2957	1.4643	-0.2269	-1.0297	-0.1439	0.6501
-2.1285	0.3695	9.3766	-0.1126	0.0396	0.0023	-1.2568	0.9195	-0.8623	2.8279	0.7671	9.7037	-0.4851	1.4142	-0.3436	0.7025	-0.06	-0.006	9.217	2.4165	0.2338	-2.7772	1.0919	0.2762	-1.0286	-0.086	0.6697
-1.9463	0.718	9.4921	-0.3921	0.0066	-0.0872	-1.2184	0.8613	-0.862	2.8849	0.3067	9.6441	-0.3591	1.3236	-0.2516	0.6904	-0.042	0	9.2087	2.4161	-0.2241	-3.2051	0.7235	0.5011	-1.045	-0.1058	0.651
-2.1843	0.3083	9.6098	-0.3302	-0.0851	0.0638	-1.2171	0.8813	-0.8278	2.7659	0.9962	9.4693	-0.1713	1.1385	-0.4053	0.7145	-0.036	0.006	9.2668	2.1318	-0.166	-3.4087	0.4125	0.9657	-1.0939	-0.1463	0.5955
-2.2461	0.6593	9.546	-0.1442	-0.0835	0.123	-1.2547	0.8434	-0.8814	2.5923	0.7085	9.3475	-0.1119	1.2634	-0.3449	0.6904	-0.054	-0.006	9.6051	2.3019	-0.2741	-3.5198	0.2846	1.3982	-1.061	-0.125	0.6679
-2.1893	0.8365	9.3696	-0.1752	-0.053	0.0626	-1.2707	0.8454	-0.8489	2.7667	0.4786	9.4669	-0.2348	1.2309	-0.3747	0.7085	-0.042	-0.006	9.2093	2.7574	-0.1666	-3.2158	0.2873	1.2047	-1.0614	-0.1257	0.6323
-2.1277	0.5439	9.4328	-0.1442	-0.022	0.0321	-1.2553	0.8817	-0.8634	2.4739	0.9954	9.1709	-0.1724	1.2324	-0.2829	0.7025	-0.048	0	9.6143	2.416	0.2411	-2.7032	0.4462	0.7297	-1.0778	-0.164	0.6485
-2.0646	0.7751	9.6061	-0.2394	-0.2371	0.1209	-1.2571	0.9	-0.8796	2.5966	0.767	9.5821	-0.0851	1.3856	-0.5301	0.7025	-0.042	-0.006	9.5501	2.5295	-0.1605	-2.4141	0.7912	0.0171	-1.0612	-0.1254	0.6501
-2.4344	0.8981	9.1311	-0.1748	-0.1454	0.2451	-1.1795	0.842	-0.8269	2.5957	0.6517	9.523	-0.2046	1.2622	-0.3751	0.6965	-0.054	-0.012	9.6163	2.473	0.3556	-2.288	0.9425	0.076	-1.1088	-0.126	0.6669
-2.2498	0.3121	9.3168	-0.2095	-0.3902	0.271	-1.2506	0.8458	-0.8143	2.6497	0.5933	9.3481	-0.0174	1.108	-0.5289	0.7085	-0.048	0	9.0517	2.6444	0.517	-2.6463	1.241	0.4886	-1.0773	-0.126	0.632
-2.4923	0.78	9.2483	0.0976	-0.4786	0.2344	-1.2723	0.8831	-0.8477	2.9396	0.5361	9.5291	-0.2308	1.0455	-0.3736	0.7025	-0.048	0.012	9.5578	2.1886	0.2399	-2.9386	1.05	1.0796	-1.0777	-0.1452	0.6314
-2.2499	1.1284	9.3649	0.0064	-0.4494	0.3285	-1.2514	0.8646	-0.8137	2.7055	0.8805	9.2919	-0.2237	0.8005	-0.1264	0.7025	-0.048	0.018	9.5025	2.7574	0.3537	-2.6842	0.8031	1.3158	-1.0455	-0.1254	0.6326
-2.0127	0.6058	9.1421	0.346	-0.4767	0.3544	-1.2176	0.8424	-0.8625	2.3008	0.4201	9.0478	-0.3734	0.6458	0.0291	0.7085	-0.06	0.006	8.929	2.4735	-0.0003	-1.6591	0.7104	1.4074	-1.0624	-0.1832	0.6305
-2.5524	0.7801	9.2472	0.2511	-0.6305	0.383	-1.272	0.9026	-0.8303	2.3632	1.2842	9.4043	-0.6739	0.3032	0.0943	0.6965	-0.048	0	9.4404	1.9611	0.0087	-0.6142	0.3792	1.1583	-1.0617	-0.1634	0.6666
-2.071	0.7795	9.2557	0.5304	-0.6282	0.5025	-1.3073	0.8853	-0.833	3.0517	0.7079	9.4149	-1.0429	0.3324	0.3114	0.7085	-0.048	-0.006	9.6658	2.4726	-0.044	0.7019	0.3562	0.6271	-1.0766	-0.1062	0.6682
-2.1314	0.1967	9.2036	0.2851	-0.5392	0.5383	-1.2161	0.8819	-0.8111	2.4699	0.7644	8.9355	-1.2634	0.5148	0.2195	0.7145	-0.054	0.018	9.7284	2.814	0.3007	1.4605	0.5466	0.0836	-1.0607	-0.1058	0.6685
-2.3059	0.3676	9.5486	0.1921	-0.6015	0.5996	-1.2352	0.8821	-0.8289	2.8838	0.9393	9.6469	-1.3299	0.7303	0.1878	0.6904	-0.054	0.012	9.5506	2.1314	-0.1608	1.6314	0.6145	-0.4126	-1.0774	-0.1633	0.6841
-2.3728	0.6639	9.1935	0.1006	-0.5107	0.572	-1.2378	0.9193	-0.8444	2.8205	0.5928	9.2928	-1.5499	0.9133	0.1573	0.6965	-0.048	0	9.3221	2.4729	-0.222	0.9663	0.9261	-0.9126	-1.0619	-0.1637	0.6489
-2.0078	0.9523	9.4297	0.0975	-0.6016	0.4163	-1.2692	0.8849	-0.7974	2.6515	0.8814	9.4665	-1.3722	1.2552	0.1542	0.6965	-0.048	-0.006	9.5551	2.7572	0.1258	0.1863	1.1115	-1.1029	-1.077	-0.1253	0.6675
-2.6144	0.4898	9.133	0.0995	-0.5409	0.5098	-1.2553	0.8817	-0.8634	2.7654	0.5934	9.4089	-1.1897	1.3175	-0.0009	0.7025	-0.06	-0.006	9.3783	2.0747	-0.2784	-0.3726	1.173	-1.1471	-1.0296	-0.1435	0.6679
-2.0602	0.6554	9.8411	-0.1746	-0.2685	0.4577	-1.2535	0.8634	-0.8473	2.7034	0.765	9.1742	-1.0726	1.5649	-0.1259	0.7025	-0.048	-0.012	9.4978	2.3591	0.0673	-0.8273	1.2597	-0.8256	-1.0291	-0.1055	0.6514
-2.1233	0.4826	9.6671	-0.3018	-0.3913	0.3028	-1.2584	0.8799	-0.9138	2.5852	0.3041	8.9356	-1.1079	1.7176	-0.2803	0.7025	-0.036	-0.012	9.6639	2.3019	-0.1586	-1.6132	1.3419	-0.1868	-1.0304	-0.1822	0.6489
-2.2488	0.3697	9.3744	-0.4254	-0.4541	0.3953	-1.2339	0.8249	-0.8474	2.5362	1.2842	9.4662	-0.9555	1.8122	-0.251	0.6904	-0.054	0	9.21	2.2456	-0.167	-2.0166	1.3422	-0.2055	-1.0446	-0.1051	0.6866
-1.8856	0.3678	9.4976	-0.5834	-0.4541	0.059	-1.2372	0.8809	-0.8624	2.8198	1.0529	9.2949	-1.0502	1.872	-0.3737	0.6965	-0.054	-0.006	9.4991	2.1317	0.1243	-1.7287	1.3075	0.0929	-1.0764	-0.1243	0.7209
-2.1793	0.4798	9.8996	-0.3987	-0.6058	0.2379	-1.2733	0.8825	-0.8645	2.5985	0.9401	9.7	-0.8326	1.8129	-0.3132	0.7025	-0.048	0.012	8.9313	2.303	0.114	-1.3813	1.0911	0.3266	-1.0455	-0.1254	0.6326
-2.4871	0.1351	9.4899	-0.4572	-0.3925	0.2125	-1.2914	0.8833	-0.8655	3.1643	0.5922	9.2994	-0.7701	1.7829	-0.2827	0.7085	-0.048	-0.006	9.497	2.1316	0.0098	-0.9639	1.0538	0.8055	-1.0287	-0.0863	0.652
-2.0665	0.6015	9.4915	-0.367	-0.5751	0.2689	-1.2192	0.8801	-0.8614	2.3641	0.7666	9.4019	-0.8309	1.7517	-0.2514	0.6965	-0.054	-0.012	8.9827	2.4733	-0.171	-0.7107	1.0208	0.982	-1.0936	-0.1456	0.6311
-2.4275	0.5436	9.4859	-0.4964	-0.7892	0.0506	-1.2741	0.9014	-0.8639	2.8807	0.8235	9.4707	-0.6091	1.4757	-0.251	0.7025	-0.036	-0.006	9.4975	2.5298	0.0674	-0.5099	1.0443	1.4678	-1.0453	-0.1435	0.6854
-2.1239	0.8911	9.662	-0.5846	-0.6998	0.3305	-1.2532	0.8829	-0.8299	2.6494	0.8234	9.3491	-0.364	1.5397	-0.2836	0.6904	-0.042	-0.006	9.3801	2.3022	-0.1638	-0.594	0.8269	1.7759	-1.0306	-0.1825	0.6311
-2.3063	0.6594	9.5449	-0.4616	-0.6367	0.1765	-1.2906	0.8644	-0.8661	2.5335	0.2479	9.2272	-0.2405	1.5095	-0.3456	0.7025	-0.054	-0.012	9.5505	2.1883	-0.1608	-0.5799	1.1396	1.1941	-1.0613	-0.1069	0.6152
-2.3682	0.3691	9.4307	-0.3943	-0.3616	0.2739	-1.2336	0.8444	-0.83	2.7126	0.537	9.6418	-0.0832	1.388	-0.2843	0.6965	-0.042	0.006	9.7165	2.3016	-0.3865	-1.0343	1.3625	0.5028	-1.061	-0.125	0.6679
-2.7876	0.5433	9.5379	-0.3012	-0.3916	0.3643	-1.2556	0.9396	-0.8281	2.7632	1.2833	9.3534	-0.2405	1.5413	-0.2536	0.7025	-0.048	0.006	9.5444	2.0743	-0.5042	-1.1763	1.2491	-0.0777	-1.078	-0.1644	0.6308
-1.7072	0.369	9.384	-0.1783	-0.3901	0.3013	-1.253	0.9024	-0.8125	2.7034	0.8225	9.1745	-0.0531	1.4192	-0.2847	0.6965	-0.042	0	9.4427	1.8474	0.123	-1.3628	1.3103	-0.1024	-1.0296	-0.1435	0.6679
-2.2492	0.6032	9.3715	-0.2997	-0.3614	0.4572	-1.2179	0.9002	-0.8272	2.4283	0.5955	9.7538	-0.3319	1.4782	-0.2834	0.7025	-0.042	0.006	9.1531	2.3594	-0.1679	-1.257	1.5481	0.2958	-1.0614	-0.1442	0.6673
-2.1894	0.8949	9.3689	-0.1182	-0.5118	0.3287	-1.238	0.8998	-0.8618	2.5968	1.2849	9.643	-0.484	1.4475	-0.098	0.7085	-0.054	-0.006	9.2652	1.7905	-0.2808	-1.2005	1.5971	1.1242	-1.0287	-0.1048	0.6869
-1.8258	0.6595	9.495	0.0096	-0.297	0.3932	-1.2705	0.8648	-0.8315	2.7078	0.8236	9.4088	-0.8225	1.3495	-0.2798	0.6965	-0.042	-0.006	9.4397	2.5298	0.0091	-0.4728	1.4987	1.624	-1.0297	-0.1439	0.6501
-1.527	0.6606	9.3835	-0.0818	-0.1446	0.2747	-1.2548	0.9207	-0.8287	2.1875	0.9384	9.1651	-1.2235	1.4087	-0.1241	0.7085	-0.042	0	9.0491	2.2462	0.345	-0.2515	1.4661	1.7707	-1.0453	-0.1435	0.6854
-2.2444	0.25	9.6095	0.011	-0.3898	0.668	-1.2192	0.8801	-0.8614	2.821	0.9956	9.3532	-1.4424	1.5296	-0.185	0.7025	-0.042	0.006	9.4425	2.018	0.1232	0.4114	1.0482	1.1945	-1.0126	-0.0857	0.6701
-2.0055	0.7757	9.5487	-0.0229	-0.4504	0.4826	-1.2158	0.8241	-0.8464	3.0583	0.0766	9.705	-1.6593	1.5895	-0.1534	0.6965	-0.03	0	9.6179	2.0181	0.4125	1.0065	0.8768	0.4071	-1.0613	-0.1069	0.6152
-2.1925	0.8387	9.1944	0.0368	-0.4797	0.3274	-1.2702	0.807	-0.8668	2.2513	0.9974	9.5179	-1.599	1.6202	-0.2461	0.7085	-0.036	0	9.7265	2.6433	0.1861	0.7954	0.8886	-0.4162	-1.0612	-0.1254	0.6501
-2.2512	0.5463	9.2554	-0.0551	-0.4502	0.36	-1.2906	0.8644	-0.8661	2.4849	0.3076	9.695	-1.5078	1.7465	-0.063	0.7085	-0.048	-0.006	9.7775	2.2449	-0.1566	0.4069	0.5307	-0.9298	-1.0787	-0.1843	0.5946
-2.2525	0.7221	9.1948	-0.1803	-0.6661	0.5414	-1.2542	0.805	-0.8993	2.8883	0.8828	9.881	-1.5386	1.7144	-0.1548	0.7025	-0.054	0	9.5553	2.5297	0.1257	-0.016	-0.0085	-1.536	-1.062	-0.1825	0.666
-2.1256	0.6008	9.5488	-0.3357	-0.6672	0.4511	-1.2194	0.8607	-0.8787	2.5903	0.5354	9.2296	-1.4171	1.7133	-0.4014	0.7145	-0.072	-0.006	9.2682	2.7005	-0.0511	-0.7055	0.0256	-1.7917	-1.0453	-0.1435	0.6854
-2.3043	0.7747	9.6602	-0.2445	-0.6965	0.357	-1.2323	0.8644	-0.7959	2.7676	0.5939	9.526	-1.2891	1.5936	-0.1248	0.7085	-0.036	0	9.5598	2.3024	0.3544	-1.3017	-0.4585	-1.9928	-1.0451	-0.1431	0.7031
-1.7094	0.4872	9.2657	-0.4262	-0.6383	0.6066	-1.3078	0.8463	-0.8677	2.0819	0.8256	9.631	-1.4126	1.592	-0.1548	0.7025	-0.048	0.012	9.83	2.3015	-0.3844	-2.1165	-0.3163	-1.2912	-1.0764	-0.1058	0.6859
-2.3704	0.4873	9.3125	-0.6159	-0.7614	0.391	-1.2339	0.8249	-0.8474	2.8735	0.5342	9.0593	-1.4654	1.2852	0.1546	0.6965	-0.048	0.006	9.55	2.6432	-0.1604	-2.1379	-0.2598	-0.9829	-1.0775	-0.1264	0.6142
-2.4877	0.5436	9.4848	-0.7031	-0.457	0.4295	-1.2372	0.8809	-0.8624	2.3065	0.3064	9.3402	-0.574	1.3544	-0.0354	0.7025	-0.042	0.006	9.2148	2.5301	0.1194	-2.2972	-0.2272	-1.1315	-1.0446	-0.0867	0.6516
-2.1264	0.4264	9.4926	-0.611	-0.3328	0.185	-1.2702	0.8843	-0.8142	2.7746	0.3654	9.8765	-1.2195	1.1914	-0.215	0.7085	-0.042	0	9.6675	2.757	0.0707	-2.0701	-0.1871	-1.814	-1.0457	-0.1442	0.6498
-1.7002	0.6557	9.7891	-0.7002	-0.0891	0.1299	-1.2741	0.9014	-0.8639	2.8276	0.3068	9.643	-1.3998	1.1003	0.1553	0.7085	-0.042	0	9.2095	2.6437	-0.1667	-1.55	-0.0316	-2.0434	-1.0773	-0.1445	0.6669
-2.3114	0.5463	9.2544	-0.3621	-0.085	-0.0281	-1.254	0.9018	-0.8293	3.0567	0.9968	9.7091	-0.384	1.0451	-0.2498	0.7025	-0.042	0.012	9.728	2.2453	0.243	-0.7877	0.1121	-1.4505	-1.0131	-0.1236	0.6866
-2.1277	0.5439	9.4328	-0.4488	0.25	0.0111	-1.255	0.9012	-0.8461	2.9929	0.3049	9.2948	0.141	0.988	-0.314	0.6904	-0.036	0.012	9.4422	2.2455	0.1234	-0.0763	0.5248	-0.5159	-1.0773	-0.163	0.7019
-1.5829	0.5993	9.6167	0.0742	0.2254	-0.1498	-1.2341	0.8827	-0.8121	2.5328	0.708	9.2292	-0.2886	0.9544	-0.1269	0.6965	-0.042	0.018	9.4448	2.6437	0.2954	0.7079	0.7946	-0.2299	-1.0451	-0.1247	0.6682
-1.8228	0.774	9.6687	-0.0762	0.1914	0.2819	-1.1993	0.8611	-0.8442	2.7094	1.1691	9.5275	0.1144	0.8661	-0.098	0.7025	-0.048	0.012	9.3876	2.1319	0.2367	1.1625	1.287	-0.6083	-1.0609	-0.1247	0.6856
-2.433	0.664	9.1924	-0.0154	0.254	0.098	-1.2914	0.8833	-0.8655	2.8728	0.3038	8.9997	0.328	0.9289	-0.2226	0.7145	-0.036	0	9.095	2.5869	-0.226	1.4217	1.6924	-1.2889	-1.0294	-0.1432	0.6857
-1.8877	0.3692	9.3808	0.0476	0.2849	0.1594	-1.2498	0.8269	-0.8149	2.477	0.4208	9.2854	0.2102	0.7124	-0.0977	0.7085	-0.036	0.006	9.328	1.9613	0.0638	1.0129	1.7561	-1.4912	-1.0301	-0.163	0.6495
-1.6435	0.8912	9.612	0.3877	0.2882	0.1859	-1.2571	0.9	-0.8796	2.8246	0.7664	9.5279	0.0542	0.7721	-0.1586	0.6965	-0.036	0.012	9.1619	1.9617	0.2896	0.628	1.9611	-0.9249	-1.0451	-0.1247	0.6682
-1.8243	1.1249	9.6059	0.2958	0.3176	0.2185	-1.2739	0.9209	-0.8465	2.4191	0.8235	9.2861	-0.1256	0.6498	0.1812	0.6904	-0.06	0.012	9.6063	2.1313	-0.217	0.4028	1.9505	-0.1808	-1.078	-0.1829	0.6657
-2.1851	0.8336	9.6032	0.2008	0.1946	0.1862	-1.2179	0.9002	-0.8272	2.6494	0.8234	9.3491	-0.2485	0.5537	-0.0326	0.7025	-0.048	0.006	9.0874	1.961	-0.6844	0.4312	2.0127	-0.2734	-1.0449	-0.1243	0.686
-2.0018	0.4234	9.7283	0.0451	0.0398	0.3078	-1.2519	0.903	-0.7958	2.5375	0.479	9.4625	-0.402	0.5531	0.0605	0.7025	-0.042	0.006	9.3234	2.3023	-0.1648	0.5287	2.0105	-0.1227	-1.0128	-0.086	0.6523
-2.3674	0.6019	9.4862	0.044	-0.0828	0.3975	-1.2124	0.768	-0.8314	2.1935	0.6521	9.4567	-0.5898	0.6745	0.0302	0.6965	-0.036	0.018	9.4951	1.9609	-0.1048	0.6004	1.8231	0.2117	-1.046	-0.1449	0.6143
-1.8244	0.4253	9.5563	0.0164	0.1309	0.3717	-1.2521	0.8062	-0.8658	2.7137	0.5373	9.7004	-0.5572	0.5818	-0.0002	0.7025	-0.042	0	9.4432	2.2456	0.1806	0.7382	1.7862	0.6682	-1.0287	-0.1048	0.6869
-2.121	1.064	9.8349	0.1663	-0.1425	0.3639	-1.2545	0.8628	-0.864	2.081	0.7104	9.5719	-0.4978	0.7067	0.0602	0.6965	-0.042	0.006	9.5565	2.416	0.1828	0.6116	1.4827	0.6081	-1.0452	-0.1062	0.6333
-2.0106	0.6627	9.2582	0.265	0.1635	0.4615	-1.2192	0.8801	-0.8614	2.8847	0.4217	9.6446	-0.467	0.6752	-0.032	0.6904	-0.048	0	9.3884	2.3595	0.2941	0.4534	0.9966	0.5475	-1.0608	-0.1431	0.7206
-2.3665	0.7178	9.5431	0.4177	0.0427	0.4877	-1.2532	0.8829	-0.8299	2.8247	0.7089	9.5277	-0.5304	0.7676	-0.0015	0.7085	-0.042	0.006	9.3851	2.5299	0.1225	0.1613	0.5761	0.1534	-1.0445	-0.0863	0.6694
-2.0684	0.4278	9.3769	0.3227	-0.0803	0.4555	-1.2725	0.8636	-0.8651	2.8243	0.9964	9.5289	-0.5608	0.7043	-0.1238	0.6965	-0.048	0	9.8421	2.6432	0.3027	-0.1028	0.1265	-0.3339	-1.0783	-0.1836	0.6302
-2.4191	0.5961	9.9523	0.3579	0.3181	0.2484	-1.3251	0.9056	-0.8167	2.7643	0.5931	9.3503	-0.1882	0.5844	-0.1253	0.6904	-0.048	0.006	9.8893	2.8134	-0.2113	-0.2374	-0.3256	-0.6408	-1.061	-0.125	0.6679
-2.1878	0.4856	9.4324	0.2932	0.2572	0.0634	-1.2545	0.8628	-0.864	2.423	1.1121	9.5218	-0.3059	0.3997	0.0916	0.7085	-0.048	0.018	9.5569	2.1317	0.1826	-0.2905	-0.5126	-0.3334	-1.0612	-0.1254	0.6501
-2.2494	0.7782	9.3693	0.1105	0.3158	0.2207	-1.2385	0.8609	-0.8965	2.7707	0.0768	9.6409	-0.3991	0.3979	-0	0.7025	-0.042	0.012	9.4936	2.359	-0.1617	-0.2845	-0.3935	-0.1483	-1.0458	-0.163	0.667
-2.0193	0.0856	8.7399	0.0143	0.1625	0.1264	-1.215	0.8052	-0.847	2.7621	0.5926	9.2331	-0.3612	0.1215	0.155	0.6965	-0.042	0.006	9.4964	2.6434	0.0102	-0.1654	-0.3913	-0.3055	-1.0613	-0.1627	0.7022
-1.7693	0.2538	9.2676	0.074	0.1332	-0.0288	-1.272	0.9026	-0.8303	2.5928	0.3634	9.346	-0.3011	0.1836	0.1236	0.7025	-0.054	-0.006	9.3187	1.904	-0.4513	0.0811	-0.1773	-0.3726	-1.0287	-0.1233	0.7218
-2.0048	1.0668	9.6035	0.257	-0.0793	0.0873	-1.238	0.8225	-0.9145	2.7639	0.8807	9.3516	-0.4594	0.399	0.1847	0.6965	-0.036	0.012	9.5012	2.0749	0.2387	0.2564	0.1019	-0.7443	-1.0292	-0.1243	0.6685
-2.366	0.3677	9.5475	0.1366	-0.051	0.3355	-1.2177	0.9197	-0.8099	2.5326	0.8231	9.2298	-0.4027	0.5522	-0.0317	0.6965	-0.06	0	9.1534	2.075	-0.1682	-0.0802	0.4657	-0.6392	-1.0617	-0.1634	0.6666
-2.0706	0.4877	9.2593	0.0138	0.0704	0.2166	-1.2375	0.8615	-0.8798	2.6508	0.5936	9.4067	-0.4366	0.6749	-0.0936	0.7085	-0.042	0.012	9.4911	2.7001	-0.2759	-0.1016	0.8269	-0.3591	-1.0616	-0.1261	0.6145
-2.2451	0.717	9.6036	0.3248	0.1034	0.3672	-1.2717	0.8448	-0.8656	2.7694	0.1916	9.5828	-0.2858	0.8311	-0.0955	0.7025	-0.048	0.006	9.2675	2.473	-0.1085	-0.1921	1.2829	-0.322	-1.0287	-0.1048	0.6869
-2.2452	0.8337	9.6022	0.2891	-0.0487	0.1491	-1.2519	0.8257	-0.8484	2.6494	0.8234	9.3491	-0.5047	0.9201	-0.2483	0.7085	-0.024	0	9.6169	2.018	0.3552	0.0001	1.859	-0.1695	-1.0286	-0.086	0.6697
-2.068	0.9524	9.4287	0.295	0.2872	0.1871	-1.2514	0.8646	-0.8137	2.5951	0.3064	9.4629	-0.2598	1.0157	-0.2196	0.7025	-0.036	0	9.6156	2.2454	0.2982	-0.1165	2.069	0.0508	-1.0451	-0.1247	0.6682
-2.0105	0.5459	9.2597	0.3858	0.1967	0.1532	-1.2192	0.8801	-0.8614	2.7097	0.3062	9.4651	-0.1982	0.9845	-0.312	0.6965	-0.042	0	9.7193	2.5293	-0.2146	0.2664	2.3991	0.38	-1.0776	-0.1637	0.6663
-2.1961	0.4331	8.966	0.5747	0.4124	0.1555	-1.2911	0.9028	-0.8481	2.4267	0.1924	9.6348	-0.1318	0.8641	-0.0351	0.6965	-0.048	-0.006	9.6725	2.1316	0.2991	0.307	2.7908	0.6584	-1.0454	-0.1623	0.7025
-1.8232	0.3079	9.6162	0.4829	0.5033	0.0971	-1.2349	0.9016	-0.8115	2.3626	0.9964	9.3444	-0.2503	0.5514	-0.2784	0.7085	-0.066	0	9.5507	2.0746	-0.1609	0.2276	2.6015	1.1202	-1.0294	-0.1247	0.6507
-2.1836	1.299	9.7142	0.2375	0.5002	0.2539	-1.2715	0.8642	-0.8483	2.8867	0.5373	9.7623	-0.1871	0.5859	0.0283	0.7025	-0.036	0.018	9.2689	2.1319	-0.0516	0.0482	2.5375	1.3402	-1.0464	-0.1641	0.6136
-2.3065	0.8345	9.5427	0.2969	0.3787	0.2198	-1.2362	0.8815	-0.8456	2.8226	0.6508	9.4102	-0.1544	0.525	0.09	0.6904	-0.036	0	9.6126	2.0747	0.1263	0.1087	2.3554	1.3062	-1.0619	-0.1637	0.6489
-2.4275	0.5436	9.4859	0.1765	0.53	0.2861	-1.2187	0.9191	-0.8266	2.4257	0.8251	9.6376	-0.3082	0.4922	0.0603	0.7025	-0.066	0.006	9.6019	2.3586	-0.4458	0.1884	2.0568	0.9019	-1.0455	-0.1254	0.6326
-2.2526	0.7804	9.1941	0.2015	0.1944	0.2477	-1.2372	0.8809	-0.8624	2.4817	0.9397	9.5807	-0.2436	0.3694	0.0914	0.7085	-0.042	0	9.5519	2.7571	-0.0459	0.1081	1.8825	0.3191	-1.0456	-0.1627	0.6847
-2.3085	0.7776	9.4266	0.2025	0.2555	0.249	-1.2723	0.8831	-0.8477	2.2536	0.9404	9.6348	-0.3989	0.3982	0.0307	0.7145	-0.042	-0.006	9.6709	2.5297	0.2422	0.2099	1.726	0.6221	-1.0443	-0.0675	0.6523
-1.8941	1.1316	9.0793	0.1382	0.1636	0.1556	-1.2715	0.8642	-0.8483	2.6529	0.7091	9.5244	-0.5273	0.581	-0.1233	0.7025	-0.042	-0.006	9.1561	2.4164	0.0038	0.0695	1.5508	0.1025	-1.061	-0.125	0.6679
-2.4899	0.6035	9.3673	0.0456	0.0703	0.3085	-1.2336	0.8444	-0.83	2.4282	0.653	9.754	-0.2793	0.5534	-0.0324	0.6904	-0.048	0	9.8338	2.6429	-0.1552	-0.8141	1.284	-0.3956	-1.0453	-0.125	0.6504
-1.8226	0.5989	9.6709	0.1051	0.0719	0.0925	-1.2542	0.8823	-0.8467	2.6552	0.5946	9.641	-0.3109	0.5522	-0.1244	0.6904	-0.054	0.006	9.6061	2.3019	-0.2169	-1.261	0.8635	-0.785	-1.0773	-0.1445	0.6669
-2.123	0.2492	9.67	0.0751	-0.0518	0.367	-1.2921	0.9022	-0.8649	2.4812	0.5944	9.5205	-0.1864	0.4914	-0.1555	0.7085	-0.036	0	9.5047	2.6438	0.4681	-1.6067	0.4086	-0.9012	-1.0614	-0.1442	0.6673
-2.1897	0.3704	9.3171	0.2298	0.0419	0.2441	-1.2532	0.8056	-0.8826	2.5941	0.939	9.4657	-0.2772	0.3974	-0.1851	0.7025	-0.042	0.006	9.6112	2.4159	0.0694	-1.6924	0.009	-0.6253	-1.0781	-0.1832	0.6479
-2.0053	0.659	9.5502	0.2933	0.1649	0.2152	-1.2537	0.9213	-0.8119	2.9307	0.5916	9.0607	-0.1849	0.398	-0.2164	0.6844	-0.036	0.018	9.1619	2.8147	0.3475	-1.342	-0.1479	-0.299	-1.0142	-0.1627	0.6498
-2.251	0.4295	9.2569	0.2023	0.2248	0.2791	-1.2529	0.8251	-0.8652	2.4872	0.941	9.8736	-0.1265	0.585	-0.1257	0.6965	-0.048	0	9.1611	2.6441	0.2901	-0.6875	-0.2715	-0.166	-1.0292	-0.1243	0.6685
-2.0741	0.7817	9.0805	-0.0482	0.1006	0.1566	-1.2893	0.8845	-0.832	2.5937	0.4787	9.4051	-0.0285	0.4026	0.09	0.7085	-0.03	-0.006	9.6683	2.1315	0.0702	-0.2156	-0.2444	0.066	-1.0775	-0.1449	0.6492
-2.12	0.3637	9.8437	-0.2358	0.0382	0.0345	-1.2194	0.8607	-0.8787	3.0044	1.3433	10.0024	-0.0345	0.6172	-0.0957	0.7025	-0.06	0	9.9514	2.6998	0.0759	0.1312	-0.3387	0.2699	-1.0616	-0.1445	0.6495
-1.9455	0.1344	9.4995	-0.2956	0.0368	0.2198	-1.1991	0.8032	-0.8795	2.6545	0.3643	9.5814	-0.2483	0.554	-0.0018	0.7025	-0.06	0.012	9.6665	2.757	0.0135	0.4089	-0.3381	0.2309	-1.0619	-0.1637	0.6489
-2.0627	0.9487	9.7207	-0.0509	-0.0828	0.1834	-1.2339	0.8249	-0.8474	2.6001	0.6528	9.7573	-0.0997	0.739	-0.2189	0.6904	-0.03	0	9.3196	2.0178	-0.394	0.3364	0.1849	-0.1622	-1.0458	-0.1445	0.632
-1.7088	0.7783	9.3204	0.0407	-0.2045	0.2718	-1.2537	0.844	-0.8646	2.8245	0.8239	9.5282	-0.3501	0.9541	-0.0958	0.6904	-0.042	-0.006	9.6041	2.245	-0.3314	0.5183	0.7658	-0.3474	-1.0448	-0.1055	0.6688
-2.0153	0.2578	8.9713	0.1955	-0.1415	0.2098	-1.2712	0.8837	-0.8309	2.7088	0.8813	9.4676	-0.4439	1.015	-0.0956	0.7145	-0.036	0.012	9.385	2.5868	0.1226	0.1662	1.2588	-0.7631	-1.0446	-0.1051	0.6866
-2.2495	0.8366	9.3686	0.1327	-0.2033	0.2092	-1.237	0.9004	-0.845	2.6024	0.5958	9.8742	0.0152	1.0471	-0.4673	0.6965	-0.036	-0.006	9.55	2.6432	-0.1604	0.2642	2.0183	-0.6678	-1.0607	-0.1058	0.6685
-2.3078	1.0103	9.4821	0.0169	0.1614	0.3723	-1.2357	0.9205	-0.8109	2.4789	0.6514	9.4036	-0.1654	0.8921	-0.3116	0.7025	-0.048	-0.006	9.4964	2.6434	0.0102	0.048	2.4752	-0.6884	-1.0623	-0.1644	0.6133
-2.4245	0.6581	9.6596	0.0756	-0.0213	0.3676	-1.2563	0.8811	-0.8802	2.7647	0.3631	9.3493	-0.2567	0.8608	-0.2495	0.7085	-0.06	0.006	9.2149	2.4733	0.1194	-0.1406	2.7812	-0.8032	-1.0605	-0.1055	0.6863
-1.6509	0.8964	9.2032	0.1089	0.1626	0.3097	-1.2362	0.8815	-0.8456	3.1171	0.4796	9.825	-0.0983	0.7408	-0.0346	0.7085	-0.048	-0.006	9.3863	2.4162	0.1797	-0.6449	2.8927	-0.0805	-1.0771	-0.1626	0.7196
-1.8307	0.3713	9.2066	0.0433	0.0098	0.1842	-1.2344	0.8632	-0.8294	2.7631	0.6504	9.292	-0.2522	0.7713	0.0891	0.7145	-0.036	0.006	9.3232	2.4729	-0.1647	-0.7555	2.9169	0.3532	-1.0612	-0.1254	0.6501
-2.0039	0.3665	9.6123	-0.114	-0.1444	0.1521	-1.255	0.9012	-0.8461	2.1974	0.9407	9.6923	-0.1311	0.8332	-0.0349	0.6904	-0.06	0.012	9.2669	2.0749	-0.1661	-0.7379	2.8477	0.936	-1.0614	-0.1442	0.6673
-2.1825	0.5403	9.7237	-1.2409	-0.6724	-0.4296	-1.2739	0.9209	-0.8465	2.4172	0.6505	9.1682	-0.3838	1.0771	-0.1271	0.7085	-0.048	0	9.2666	2.3592	-0.1658	-0.3598	2.54	1.168	-1.0763	-0.087	0.6688
-2.4897	0.4284	9.3695	0.1209	-0.7521	-0.0486	-1.2017	0.9177	-0.8424	2.6461	0.8226	9.1734	-0.6668	1.3213	-0.1576	0.7145	-0.036	0	9.8349	2.5292	-0.0981	0.5937	2.3604	0.9537	-1.0613	-0.1069	0.6152
-2.1869	0.66	9.4886	-1.7997	-1.0459	-0.1231	-1.2391	0.8992	-0.8786	3.0021	0.7099	9.8239	-0.6464	1.6894	-0.4979	0.7025	-0.048	0.006	9.6072	2.2451	-0.1597	1.1576	2.0977	0.1665	-1.0297	-0.1439	0.6501
-2.0061	0.4263	9.4947	-2.2097	-1.4771	-0.2503	-1.2192	0.8801	-0.8614	2.77	0.4794	9.6427	-0.8998	2.0593	-0.345	0.7025	-0.042	0	9.6652	2.0745	-0.1015	0.6953	2.172	-0.7716	-1.0617	-0.1449	0.6317
-2.0741	0.7817	9.0805	-2.3663	-1.4471	-0.4937	-1.2542	0.8823	-0.8467	2.5883	1.1103	9.1736	-0.6909	2.275	-0.6548	0.6965	-0.054	-0.006	9.3779	2.4728	-0.2781	0.1416	2.4284	-1.6749	-1.0457	-0.1442	0.6498
-2.1813	0.4229	9.7836	-2.2439	-1.5376	-0.4665	-1.237	0.9004	-0.845	2.2452	0.7083	9.1652	-1.6797	2.3892	-0.5882	0.6904	-0.048	-0.006	9.152	2.3593	-0.2252	-1.4582	2.6509	-2.332	-1.0604	-0.0867	0.6691
-2.0702	0.2542	9.2623	-1.8718	-1.5652	-0.2872	-1.2354	0.8626	-0.8462	2.4735	0.5926	9.1105	-2.4852	2.6301	-0.4005	0.7025	-0.042	-0.006	9.3797	2.6435	-0.1635	-3.0153	2.6851	-2.5924	-1.0444	-0.1048	0.7044
-2.3655	0.7171	9.6015	-1.9762	-2.1458	-0.483	-1.2548	0.9207	-0.8287	3.0565	0.4789	9.6482	-3.7826	2.8677	-0.0256	0.7085	-0.048	-0.006	9.3837	1.9612	0.0076	-3.7987	2.9636	-2.9047	-1.0306	-0.1825	0.6311
-2.0715	0.43	9.2017	-2.16	-1.9022	-0.7215	-1.2362	0.8815	-0.8456	2.5355	0.3635	9.3449	-1.8374	2.5101	-0.7109	0.6965	-0.036	0.012	9.5485	2.1313	-0.2753	-4.2155	2.8787	-3.3539	-1.0291	-0.1055	0.6514
-2.1309	0.6045	9.2568	-2.3513	-2.3015	-0.6662	-1.2895	0.865	-0.8493	2.8323	0.7682	9.938	-3.1289	2.4059	-0.5184	0.7025	-0.048	0.012	9.6157	2.1317	0.2981	-4.2063	2.8439	-3.0471	-1.0297	-0.1439	0.6501
-2.2458	0.4842	9.5482	-3.3224	-2.8285	-1.1268	-1.2372	0.8809	-0.8624	2.7069	0.6508	9.3495	-4.3889	2.2393	-0.4178	0.7085	-0.036	0	9.7816	2.3019	0.0724	-3.0837	2.7186	-2.8052	-1.0133	-0.124	0.6688
-1.8227	0.7157	9.6694	-3.8558	-3.5994	-0.7063	-1.2145	0.8442	-0.8122	2.6495	0.7659	9.3489	-4.8524	2.3603	-0.2007	0.6965	-0.042	0.006	8.9829	2.2459	-0.1711	-2.2625	2.8332	-2.3065	-1.0619	-0.1452	0.6139
-2.1231	1.0655	9.7181	-4.6767	-4.3999	-1.1439	-1.2558	0.9201	-0.8455	2.5347	0.8811	9.3472	-4.3353	2.4519	-0.8803	0.6965	-0.054	0.006	9.5554	2.4729	0.1256	-0.2964	2.7656	-1.8434	-1.0131	-0.1236	0.6866
-2.239	0.1297	9.903	-4.7778	-4.9818	-1.0322	-1.2885	0.8656	-0.8325	2.4781	0.4211	9.344	-6.1321	2.8356	-0.872	0.6965	-0.054	0	9.4914	2.4158	-0.2761	1.9959	2.9182	-1.8801	-1.0293	-0.1059	0.6336
-2.4247	0.8332	9.6574	-4.4723	-5.3772	-0.7371	-1.2174	0.8619	-0.8452	2.0674	0.9373	8.87	-5.7744	3.2365	-1.3682	0.7085	-0.036	0.012	9.4361	2.1315	-0.2201	4.1789	2.9261	-2.437	-1.0925	-0.1065	0.6678
-2.3069	0.3683	9.4902	-5.0633	-5.4737	-0.9778	-1.2877	0.8467	-0.8331	2.3627	0.2485	9.2825	-6.8019	3.6578	-1.4876	0.6904	-0.048	0.024	9.5535	2.359	0.0111	5.8516	3.5503	-3.5268	-1.0612	-0.1254	0.6501
-1.9996	0.3052	9.8466	-5.212	-5.3853	-0.5742	-1.3272	0.9044	-0.8502	3.0556	0.3637	9.5891	-6.7541	4.1171	-2.013	0.7085	-0.042	0.006	8.9803	1.8476	-0.3432	6.8664	4.3609	-4.872	-1.0304	-0.1822	0.6489
-1.6473	-0.1556	9.3332	-4.1895	-5.1302	-0.6738	-1.254	0.9018	-0.8293	2.9405	0.6514	9.5882	-6.5145	4.4282	-2.0777	0.7085	-0.054	0.006	9.4958	2.2453	-0.0473	6.9415	5.3285	-6.5566	-1.0771	-0.1257	0.6498
-1.8307	0.3713	9.2066	-4.5666	-5.1621	-1.2233	-1.2514	0.8646	-0.8137	2.3058	0.7089	9.342	-6.1834	4.7708	-2.1739	0.6965	-0.042	0.012	8.9212	2.0751	-0.4585	6.9171	6.559	-7.4679	-1.0606	-0.087	0.6513
-1.7688	0.6616	9.3208	-4.2246	-5.0058	-1.2549	-1.2553	0.959	-0.8108	2.3015	0.6504	9.1074	-7.4178	4.9154	-1.8909	0.7025	-0.048	0.006	9.1458	2.3591	-0.5686	6.2653	7.8396	-7.6225	-1.0299	-0.1627	0.6673
-2.1855	0.3674	9.5507	-4.3111	-4.7016	-1.155	-1.2362	0.8815	-0.8456	2.3692	0.3651	9.6345	-8.1198	4.6314	-1.7315	0.7025	-0.048	0.012	9.4359	2.3021	-0.22	6.0954	9.0208	-7.2085	-1.0142	-0.1627	0.6498
-2.0662	0.368	9.4944	-4.1229	-4.4856	-1.2142	-1.2535	0.9408	-0.7946	2.5389	0.3067	9.5203	-8.5141	4.4133	-1.482	0.6965	-0.036	0.006	9.4749	2.3013	-1.1919	6.326	10.1726	-6.8682	-1.061	-0.125	0.6679
-2.3704	0.4873	9.3125	-3.6226	-4.1756	-1.1215	-1.2161	0.8819	-0.8111	2.8825	0.4212	9.5275	-8.5386	4.294	-0.9895	0.7025	-0.042	0.018	9.0327	1.9611	-0.571	6.9971	10.5592	-6.2399	-1.1095	-0.1459	0.6307
-1.5802	0.1893	9.7387	-3.5614	-4.3285	-0.941	-1.3081	0.9042	-0.8324	2.5935	0.5937	9.4056	-8.4102	4.1113	-0.8355	0.7205	-0.042	0.006	9.144	2.1315	-0.6832	7.943	10.9174	-5.7429	-1.077	-0.1253	0.6675
-2.1284	0.3112	9.3773	-3.1907	-4.2632	-1.0365	-1.3426	0.868	-0.8356	2.7718	0.0771	9.6995	-7.5409	3.9373	-0.563	0.6965	-0.048	0.012	8.7549	2.2461	-0.2326	8.3096	10.8443	-4.894	-1.0455	-0.1438	0.6676
-2.2435	1.124	9.7153	-2.7871	-4.3523	-0.7052	-1.2504	0.8652	-0.7969	2.3729	0.0783	9.8089	-7.7124	3.4128	-0.2516	0.6904	-0.048	0.006	9.3679	2.0742	-0.8508	7.928	10.3163	-4.1494	-1.0458	-0.1445	0.632
-2.2439	0.6579	9.6628	-2.2581	-4.1948	-0.5855	-1.271	0.9032	-0.8136	2.5949	0.4214	9.4634	-6.8747	3.1739	-0.2551	0.7085	-0.06	0.012	9.5373	1.9034	-0.905	7.0254	9.6636	-3.2057	-1.046	-0.1264	0.5793
-2.0104	0.4876	9.2604	-3.679	-4.2092	-0.5679	-1.2535	0.8634	-0.8473	2.826	0.5941	9.5857	-5.882	2.8743	-0.3206	0.6904	-0.048	0.012	9.2634	1.5629	-0.3954	5.8479	8.7044	-2.1027	-1.0306	-0.1825	0.6311
-1.878	0.2459	9.9078	-4.2306	-3.909	-0.616	-1.2329	0.9028	-0.778	2.3732	0.5961	9.8698	-5.0087	2.5784	0.137	0.7025	-0.06	0.018	9.5961	1.9603	-0.7895	5.021	7.9379	-1.7153	-1.0298	-0.1254	0.6152
-2.0042	0.5999	9.6093	-3.8926	-3.9971	-0.6529	-1.2712	0.8837	-0.8309	2.8886	0.0774	9.8188	-4.0053	1.9112	0.4423	0.6965	-0.042	0.036	9.2051	1.961	-0.4534	4.9274	6.8105	-1.6294	-1.0773	-0.126	0.632
-1.6357	0.6527	10.0237	-3.2014	-3.3491	-0.5553	-1.2532	0.8829	-0.8299	2.7211	0.0787	10.0498	-2.0241	1.4653	0.1875	0.7025	-0.054	0.018	8.974	1.9042	-0.6865	5.4317	5.7702	-1.2533	-1.0616	-0.1445	0.6495
-2.0007	0.3643	9.7875	-3.4498	-3.4126	-0.5843	-1.3071	0.9048	-0.8156	2.5498	0.3668	10.1064	0.5241	0.5322	0.1167	0.6904	-0.03	0.018	8.8696	2.0754	-0.1734	6.4995	4.3006	-0.6517	-1.0467	-0.1832	0.613
-1.8251	0.8922	9.5504	-3.3421	-2.8642	-0.0202	-1.271	0.9032	-0.8136	2.666	0.0793	10.1659	1.8078	-0.3509	0.1759	0.7085	-0.06	0.024	9.2703	1.9044	0.0055	7.7447	2.8654	-0.3317	-1.0614	-0.1257	0.6323
-2.0662	0.368	9.4944	-3.1201	-2.5568	0.0452	-1.253	0.9024	-0.8125	2.4861	0.9408	9.815	3.8274	-1.1363	-0.0464	0.6904	-0.03	0.012	9.494	2.0178	-0.1619	9.0067	1.376	-0.4735	-1.0457	-0.1257	0.6149
-2.0028	0.3657	9.6707	-3.7673	-2.3178	-0.1875	-1.2705	0.8648	-0.8315	2.3721	0.5959	9.8112	5.1738	-2.0808	-0.018	0.6965	-0.048	0.024	9.2088	2.3593	-0.2241	10.5744	-0.1115	-0.7474	-1.0455	-0.1254	0.6326
-2.0081	0.3694	9.3787	-5.0266	-1.9645	-0.0718	-1.2375	0.9388	-0.8271	2.6627	0.0786	9.9902	6.0917	-3.2482	-0.2008	0.7025	-0.048	0.024	9.2063	1.7905	-0.3963	11.5612	-1.3893	-0.7872	-1.0775	-0.1449	0.6492
-1.8241	0.9498	9.6081	-5.1076	-1.5396	0.369	-1.2921	0.9022	-0.8649	2.374	0.0785	9.8675	7.1756	-4.7482	0.232	0.7145	-0.03	0.024	9.3842	2.3593	0.0652	12.9389	-3.0723	-0.1658	-1.0614	-0.1257	0.6323
-2.2508	0.2544	9.2591	-6.527	-1.4623	0.3885	-1.2921	0.9022	-0.8649	2.6058	-0.1514	9.988	8.8109	-6.0882	0.6298	0.7085	-0.06	0.024	9.3804	2.1316	-0.1639	13.8382	-4.4136	-0.0191	-1.046	-0.1634	0.6492
-1.9996	0.3635	9.8459	-7.1683	-1.072	0.4665	-1.2514	0.8646	-0.8137	2.6082	-0.2659	10.1047	11.9364	-7.813	1.2364	0.6965	-0.048	0.012	8.9796	2.4163	-0.3427	14.5038	-5.8079	-0.4189	-1.11	-0.1839	0.6473
-1.826	0.7762	9.4935	-7.348	-0.9531	0.8097	-1.254	0.9018	-0.8293	3.1259	-0.1512	10.2322	16.2508	-8.6217	2.5987	0.6844	-0.054	0.006	9.2667	2.2455	-0.1659	15.1179	-6.827	-1.5209	-1.0621	-0.1641	0.6311
-1.7655	0.5427	9.4975	-7.648	-0.4986	0.9463	-1.2682	0.8855	-0.7806	2.9027	0.8862	10.6426	19.3827	-11.6968	4.2887	0.6965	-0.054	0.006	9.3801	2.3591	-0.1638	15.1929	-7.4441	-3.0645	-1.0617	-0.1449	0.6317
-2.064	0.3665	9.6112	-7.0644	-0.6143	0.8135	-1.2715	0.8642	-0.8483	5.8499	-1.0114	11.8618	35.1846	-21.2475	7.2644	0.7205	-0.048	0.006	9.4978	2.3591	0.0673	14.9185	-7.8744	-4.9035	-1.0619	-0.1452	0.6139
-2.0638	0.1914	9.6134	-5.9188	-0.6347	1.1062	-1.2906	0.9417	-0.8134	3.1358	0.484	10.8209	50.6386	-32.0925	1.3381	0.7025	-0.06	0.006	9.4903	2.4726	-0.3333	14.8656	-8.2458	-6.5949	-1.0294	-0.1247	0.6507
-1.572	0.3586	10.2037	-3.4764	-0.5186	1.1395	-1.2898	0.8455	-0.8667	3.5035	0.6616	12.117	41.3665	-37.7038	3.3619	0.6904	-0.054	-0.018	9.4922	2.6433	-0.2187	14.8646	-8.5661	-7.6115	-1.0617	-0.1634	0.6666
-1.5826	0.3659	9.6197	-1.0056	-0.5858	1.2301	-1.2349	0.9016	-0.8115	2.3107	1.6577	15.7878	50.4121	-52.3021	-0.046	0.7025	-0.054	-0.006	9.942	2.6425	-0.4393	14.9452	-8.8956	-7.9853	-1.0621	-0.1641	0.6311
-2.4283	0.3692	9.4297	0.1406	-0.4526	1.3416	-1.2519	0.903	-0.7958	2.9936	1.1377	15.5057	41.1469	-61.1285	-14.1663	0.6965	-0.036	-0.018	10.3327	2.1299	-0.833	15.9323	-7.9632	-7.2084	-1.0777	-0.1452	0.6314
-1.6962	0.0698	9.9716	0.8813	-0.4449	1.271	-1.271	0.9032	-0.8136	3.3679	-0.5953	13.924	80.332	-79.1162	-22.6776	0.7025	-0.03	-0.036	10.5568	1.902	-1.0007	15.1304	-6.3787	-5.2051	-1.0448	-0.087	0.6339
-1.8899	0.4291	9.2633	0.2275	-0.6646	1.1206	-1.289	0.904	-0.8146	6.0757	1.6475	14.9817	77.1378	-92.2092	-17.0809	0.6965	-0.042	-0.048	10.8506	2.2433	-0.4229	12.8627	-3.6782	-4.624	-1.0937	-0.1644	0.6482
-2.0666	0.6598	9.4907	-0.0793	-0.484	1.0361	-1.2687	0.9239	-0.7627	2.3064	0.2759	15.4301	70.878	-110.9752	-12.7535	0.6844	-0.036	-0.072	10.7356	1.7316	-0.5399	9.7433	-0.911	-6.5674	-1.0783	-0.1836	0.6302
-1.8789	0.1299	9.8509	0.7567	-0.3534	1.0285	-1.2558	0.9201	-0.8455	3.2179	0.1005	15.154	81.5862	-114.7092	-26.6826	0.6904	-0.042	-0.0781	10.9683	2.1865	-0.1919	6.3137	1.643	-8.5032	-1.0613	-0.1069	0.6152
-2.1799	0.1887	9.8449	0.8855	-0.0775	1.0944	-1.3063	0.8859	-0.8162	3.9458	-0.3074	14.2292	94.797	-129.6725	-27.1934	0.6904	-0.048	-0.1021	10.2979	2.074	0.3678	2.7854	3.5003	-8.5364	-1.0617	-0.1449	0.6317
-1.83	-0.1539	9.2132	1.0229	0.3794	1.6869	-1.2896	0.9423	-0.7966	4.8388	0.0442	16.0633	101.4278	-139.8153	-27.5714	0.6664	-0.048	-0.1141	10.1858	2.5861	0.4806	-1.5783	3.9247	-8.4025	-1.0619	-0.1452	0.6139
-1.6438	0.3667	9.5602	1.7698	0.4461	2.1095	-1.2339	0.9022	-0.7947	5.2372	-0.9927	15.832	110.5833	-150.2001	-33.3397	0.6724	-0.024	-0.1261	9.7914	1.9611	0.5872	-4.8658	3.514	-9.4751	-1.0616	-0.1445	0.6495
-1.6388	0.5965	9.8493	2.1168	0.7234	2.3572	-1.2909	0.9223	-0.8308	4.9692	-0.8728	16.8229	123.8439	-154.3819	-41.7804	0.6724	-0.036	-0.1561	9.9684	1.5631	0.9335	-6.4655	2.8671	-11.0611	-1.0607	-0.0874	0.6335
-2.0027	0.3074	9.6714	3.6737	0.9799	3.1428	-1.3231	0.9068	-0.7831	5.3092	-1.2195	16.5936	148.6809	-152.8421	-49.7698	0.6544	-0.024	-0.1681	9.738	1.7338	0.7577	-8.0614	1.8833	-12.4962	-1.0145	-0.1819	0.6492
-2.0654	0.6007	9.5499	4.9524	1.2338	3.9011	-1.2708	0.9227	-0.7962	6.1087	-0.9913	16.4929	178.689	-148.36	-59.6807	0.6304	-0.054	-0.1981	9.4095	1.3367	1.3807	-8.4779	0.9609	-11.8458	-1.0619	-0.1637	0.6489
-2.432	-0.0364	9.2012	4.7361	1.2316	3.9038	-1.2919	0.9217	-0.8475	6.1427	-2.2051	15.1412	205.0286	-140.8487	-69.0962	0.6364	-0.042	-0.2161	9.6844	1.734	0.9284	-6.2403	0.4251	-10.5649	-1.0624	-0.1832	0.6305
-2.1843	0.3083	9.6098	4.0297	1.5611	3.766	-1.3068	0.9242	-0.7983	6.1278	-1.173	14.4429	220.9	-131.6217	-78.706	0.6124	-0.06	-0.2462	9.7382	1.6201	0.7576	-3.5603	0.3873	-10.0616	-1.0462	-0.1637	0.6314
-2.0007	0.3643	9.7875	2.6384	1.9167	3.0839	-1.2898	0.9229	-0.814	5.6633	-0.8285	14.1428	225.462	-120.3702	-84.3906	0.5644	-0.054	-0.2582	10.079	1.3922	0.7637	-0.308	0.662	-10.126	-1.0777	-0.1452	0.6314
-1.8196	-0.0445	9.7958	1.4631	2.2439	2.4291	-1.2736	0.9404	-0.8292	5.16	-2.2191	11.6088	249.9276	-110.4273	-86.467	0.5824	-0.072	-0.2882	9.6822	0.9946	0.7561	3.719	1.4548	-10.2401	-1.0622	-0.1829	0.6483
-2.0623	0.6569	9.7243	1.4277	2.3685	1.8172	-1.2689	0.9044	-0.78	3.1389	-1.3564	10.8126	255.762	-96.5574	-88.0582	0.5524	-0.0781	-0.3062	10.3572	0.8229	0.4251	7.3289	2.6057	-9.8472	-1.0453	-0.125	0.6504
-1.7674	0.3691	9.3829	2.6448	3.0215	1.9698	-1.272	0.9026	-0.8303	-0.1232	-0.9033	7.9412	271.1826	-76.7193	-87.0072	0.5524	-0.0841	-0.3062	9.9039	1.051	0.4742	10.1375	4.6238	-8.3787	-1.0617	-0.1818	0.7016
-2.0112	0.3132	9.2042	3.1782	3.5462	1.9438	-1.2715	0.9415	-0.7956	-10.7772	-5.8023	1.3314	264.287	-51.6875	-75.0123	0.5283	-0.0961	-0.3182	9.9553	1.2213	0.1892	11.5992	7.0451	-7.4197	-1.0773	-0.1445	0.6669
-1.9931	0.2424	10.1977	2.9692	4.0947	1.7738	-1.3068	0.9242	-0.7983	-9.5634	-11.9953	-19.9883	223.9045	-26.2171	19.4932	0.4983	-0.1081	-0.3422	10.0151	1.2214	0.3619	11.8252	10.0727	-8.4163	-1.0775	-0.1449	0.6492
-1.5804	0.3061	9.7372	2.9372	4.218	1.4693	-1.289	0.904	-0.8146	-10.138	-9.1822	4.5491	-118.7779	2.8435	89.1657	0.5103	-0.1021	-0.3542	10.1746	1.5051	-0.2071	11.7975	13.5747	-10.6614	-1.0624	-0.1832	0.6305
-1.8261	0.0766	9.4439	3.3123	4.8043	0.9852	-1.2723	0.8831	-0.8477	-7.7976	-4.687	7.6009	-104.6739	11.5736	123.8926	0.5043	-0.1321	-0.3302	10.0112	1.9037	0.1907	10.2396	16.7936	-12.2485	-1.0614	-0.1442	0.6673
-2.0004	0.1892	9.7897	4.9563	5.1563	1.0953	-1.3071	0.9048	-0.8156	-6.9888	-0.8623	14.4265	-61.9721	17.5566	141.254	0.5043	-0.1081	-0.3362	10.3529	1.7895	0.2541	6.8346	19.3684	-11.3578	-1.0939	-0.1832	0.6654
-2.0027	0.3074	9.6714	7.0975	5.2968	1.8095	-1.2916	0.9411	-0.8302	-6.4909	-1.3987	10.3931	-6.8088	34.0644	143.1376	0.5163	-0.1381	-0.3302	9.6684	1.1646	0.0122	4.53	20.702	-8.8198	-1.0617	-0.1634	0.6666
-2.0045	0.0754	9.5575	9.7712	6.0855	2.2236	-1.2357	0.9205	-0.8109	-6.4027	-4.0077	5.6984	4.7365	60.1339	140.8852	0.5043	-0.1381	-0.3182	9.1616	1.3361	0.2319	2.9967	21.1518	-8.3401	-1.0474	-0.2216	0.6118
-2.6078	0.3104	9.4856	9.3812	6.7533	2.2738	-1.2903	0.8839	-0.8487	-5.287	-5.7428	3.9552	-31.8977	82.5187	134.8486	0.5103	-0.1321	-0.2882	9.3802	1.3923	-0.2217	1.4798	20.5866	-9.2519	-1.0778	-0.1456	0.6136
-2.1825	0.482	9.7244	10.872	7.1341	2.4478	-1.2346	0.8438	-0.8468	-4.0633	-5.5099	5.0924	-79.4108	98.3616	122.4278	0.5223	-0.1441	-0.2882	9.045	1.3361	0.0581	-0.1135	19.5709	-10.5951	-1.079	-0.2034	0.594
-2.1277	0.6023	9.432	12.3988	7.7898	2.6889	-1.2893	0.8845	-0.832	-3.6908	-3.605	6.8064	-115.0586	113.3625	106.254	0.5343	-0.1441	-0.2822	9.1068	1.4499	0.3454	-1.2715	17.656	-10.7909	-1.0632	-0.2404	0.6464
-2.2478	0.369	9.4328	12.3417	8.1256	2.6046	-1.2909	0.9223	-0.8308	-3.3126	-1.7564	8.813	-132.7474	130.3677	89.7178	0.5223	-0.1561	-0.2582	9.56	1.2787	0.2964	-2.3465	15.8533	-10.3122	-1.0949	-0.2222	0.6286
-2.5503	0.7786	9.364	12.436	8.5565	2.09	-1.2901	0.9034	-0.8314	-3.183	0.4332	9.8208	-138.0259	146.924	74.4342	0.5163	-0.1441	-0.2342	9.5623	1.1082	0.4107	-3.0565	13.749	-10.0312	-1.1109	-0.1856	0.5584
-1.8883	0.7778	9.3757	11.9772	9.1959	1.5253	-1.2359	0.8237	-0.8809	-3.1017	1.2442	11.1729	-140.2944	162.1478	62.1233	0.5103	-0.1621	-0.2161	9.5623	1.1082	0.4107	-3.4686	11.8332	-10.1572	-1.0949	-0.2038	0.5937
-1.8259	0.7179	9.4942	9.6985	10.2157	0.5919	-1.2542	0.8823	-0.8467	-2.1228	1.589	11.4861	-139.2977	175.1637	51.4667	0.5043	-0.1501	-0.1861	9.674	0.8805	0.2982	-3.6881	9.7314	-10.0445	-1.0956	-0.2421	0.5924
-2.0654	0.6007	9.5499	10.4411	10.7148	-0.0525	-1.2895	0.865	-0.8493	-1.3711	2.1071	11.9128	-138.3138	185.3912	43.4396	0.5043	-0.1741	-0.1861	9.5068	0.9377	0.4668	-3.6518	8.4183	-9.7488	-1.0946	-0.2031	0.6292
-2.3005	0.3056	9.8413	9.8659	11.7191	-0.5155	-1.2573	0.8805	-0.897	-0.5605	2.2804	12.3976	-136.2011	192.6534	37.6981	0.4923	-0.1801	-0.1621	9.4516	0.5398	0.5227	-3.2746	7.2271	-9.4623	-1.0472	-0.1843	0.5597
-2.3669	0.2517	9.4906	11.9698	12.2618	-1.0222	-1.2558	0.9201	-0.8455	0.0868	2.6285	13.3485	-132.2799	197.0551	34.7599	0.4803	-0.1921	-0.1501	9.5088	0.9947	0.5813	-2.4678	6.617	-9.3684	-1.1423	-0.2041	0.6283
-2.7111	0.2404	10.4186	15.6442	13.6705	-0.4227	-1.2388	0.9187	-0.8612	0.6543	2.5688	13.0664	-127.7719	199.5743	34.7799	0.4743	-0.1981	-0.1441	8.8839	0.6542	0.5123	-1.8276	6.7742	-9.7243	-1.0623	-0.1644	0.6133
-2.4735	0.1839	10.2484	17.8097	17.4481	-0.1527	-1.237	0.9004	-0.845	2.1455	2.3365	13.1526	-124.9059	200.3975	37.0017	0.4503	-0.2041	-0.1321	8.9456	0.825	0.7997	-1.1762	7.4749	-9.7689	-1.0953	-0.2229	0.5931
-2.235	0.3018	10.1344	24.0344	20.044	0.256	-1.2205	0.9374	-0.8428	2.6595	1.99	13.0437	-123.8891	200.0661	40.0711	0.4443	-0.2161	-0.1441	8.7115	0.6543	0.3947	-0.9323	9.291	-9.0549	-1.0958	-0.2609	0.6096
-2.1096	1.2894	10.4744	16.442	26.815	-0.978	-1.2519	0.8257	-0.8484	4.5071	2.0478	13.8408	-123.9361	197.8767	43.9262	0.4383	-0.2402	-0.1321	8.7203	1.1665	0.9102	-0.3937	11.4349	-7.8555	-1.0953	-0.2229	0.5931
-2.1124	0.1835	10.2547	22.2018	28.4664	-2.1524	-1.2365	0.8621	-0.863	5.1329	2.7361	13.6802	-124.0155	193.1599	48.5958	0.4263	-0.2462	-0.1501	8.9438	0.5974	0.685	-0.8913	13.1137	-6.0449	-1.1106	-0.2222	0.6461
-0.815	2.7074	8.9617	-7.9523	47.9724	7.5065	-1.2168	0.8235	-0.8631	5.9825	2.6748	13.1693	-124.4801	185.0762	53.9332	0.4383	-0.2642	-0.1381	9.4054	1.2227	1.1517	-0.452	14.6526	-2.9728	-1.1114	-0.2236	0.575
-2.9068	-0.332	9.5468	10.4043	38.7688	-3.4723	-1.2202	0.8022	-0.9308	7.0874	2.7919	14.0694	-126.3503	175.0003	59.3522	0.4443	-0.2642	-0.1381	9.2346	0.8817	1.0911	0.9989	15.6944	0.8024	-1.1264	-0.2037	0.6286
-2.7808	0.2471	9.892	26.0154	41.3378	-3.3357	-1.255	0.8239	-0.8987	7.7642	3.9389	13.6191	-126.3335	164.3177	63.9648	0.4503	-0.2822	-0.1141	9.8519	1.4494	0.7596	3.3986	16.2685	3.2241	-1.0955	-0.2233	0.5753
-3.0817	1.0055	9.9355	15.4736	45.2378	-4.4412	-1.2173	0.7845	-0.8979	9.3093	4.3961	13.5924	-130.5014	156.0934	68.3108	0.4683	-0.3062	-0.1201	9.8028	1.1654	1.1589	5.4995	16.0884	3.0369	-1.0788	-0.2031	0.6118
-2.5292	0.8223	10.5313	15.7832	49.151	-4.637	-1.1648	0.8199	-0.8936	10.0356	6.2317	12.7948	-128.5829	150.7233	70.4217	0.4443	-0.3482	-0.0901	9.8598	0.9378	1.1598	6.7778	15.3966	0.3198	-1.0798	-0.2606	0.6099
-2.6917	1.5097	11.5705	13.0553	53.7936	-4.0407	-1.1606	0.745	-0.8792	11.4084	6.9768	12.766	-124.0805	144.7068	70.0315	0.4503	-0.3602	-0.0781	10.0342	0.9947	1.3919	7.5208	13.9164	-2.6027	-1.0795	-0.2414	0.6105
-2.5555	1.557	12.4478	20.8162	59.4749	-0.4782	-1.2009	0.8215	-0.8956	13.0197	6.688	13.147	-110.5763	134.9515	63.371	0.4383	-0.3722	-0.0841	9.9613	1.3922	0.5327	7.7017	12.3483	-3.6347	-1.0798	-0.2606	0.6099
-2.6466	1.695	10.7517	28.4647	68.0848	-3.3091	-1.2055	0.8575	-0.9448	15.2984	6.6236	12.4878	-90.0745	122.2517	48.3577	0.4443	-0.3963	-0.072	10.194	0.994	0.8227	6.1332	10.2702	-3.0513	-1.0645	-0.2613	0.5569
-3.9034	1.925	11.1354	22.6743	74.776	-3.4295	-1.1826	0.7629	-0.9299	16.9936	5.5795	11.1689	-68.7908	107.9129	25.9747	0.4143	-0.4203	-0.072	10.4859	1.1646	1.2859	3.5513	8.6612	-1.2047	-1.0953	-0.2229	0.5931
-2.2032	2.5538	12.0329	10.8916	83.6337	-9.8245	-1.1313	0.7782	-0.9598	18.2776	4.0735	9.2543	-55.9645	90.8419	-1.4722	0.4083	-0.4203	-0.072	10.0162	1.2214	0.4191	2.0538	7.0522	0.6402	-1.0484	-0.2606	0.575
-2.9929	0.9273	11.5141	15.5767	93.7847	-9.0788	-1.1289	0.7216	-0.9616	19.3202	2.565	6.691	-50.5827	73.2922	-32.1572	0.3782	-0.4623	-0.054	10.588	1.1071	0.6584	1.9588	5.4088	2.7502	-1.0794	-0.2041	0.5584
