1824_acc_x	1824_acc_y	1824_acc_z	1824_gyro_x	1824_gyro_y	1824_gyro_z	1824_mag_x	1824_mag_y	1824_mag_z	1825_acc_x	1825_acc_y	1825_acc_z	1825_gyro_x	1825_gyro_y	1825_gyro_z	1825_mag_x	1825_mag_y	1825_mag_z	1826_acc_x	1826_acc_y	1826_acc_z	1826_gyro_x	1826_gyro_y	1826_gyro_z	1826_mag_x	1826_mag_y	1826_mag_z
-0.8635	1.1251	9.506	1.3247	0.7239	0.4911	-0.6091	-0.8276	-1.4672	1.909	0.7682	9.5689	0.0254	0.7109	-0.0658	0.1921	0.06	-0.5223	9.5062	1.3927	0.4671	-1.2056	0.897	-1.0015	-0.85	-0.0199	0.924
-0.7412	1.2986	9.6228	1.6959	0.6967	0.5781	0.52	0.0626	-1.4376	1.7328	1.4003	9.3927	-0.191	0.7396	-0.0647	0.4443	-0.3122	-0.4923	9.6644	1.0507	-0.2168	-0.9807	0.8019	-0.7324	-0.8548	-0.3557	-0.5785
-1.0439	1.0086	9.5043	1.2611	0.6317	0.4592	0.5532	0.0787	-1.4685	1.9127	1.2293	9.8053	-0.1888	0.6471	-0.0335	0.4503	-0.3182	-0.4923	9.3844	1.3925	0.0072	-1.262	0.8335	-0.816	-0.903	-0.3947	-0.563
-0.5648	1.2429	9.3931	1.0134	0.4757	0.6434	0.5728	0.0401	-1.4687	1.9077	0.8829	9.5108	-0.1577	0.6795	0.0891	0.4443	-0.3122	-0.4923	9.7262	1.1646	0.0705	-1.1043	0.8627	-0.7283	-0.8545	-0.355	-0.543
-1.0405	1.5893	9.7306	0.3899	0.2257	0.4921	0.4842	0.0063	-1.475	1.6287	1.0578	9.9161	-0.3416	0.6155	0.0598	0.4323	-0.3182	-0.4863	9.8868	1.4484	-0.4412	-1.3179	0.9526	-0.629	-0.9184	-0.3755	-0.5449
-0.6818	1.0658	9.5684	-0.0454	0.1302	0.3724	0.5035	0.0256	-1.4399	2.0864	0.7692	9.8651	-0.093	0.5889	0.2429	0.4443	-0.3062	-0.4863	9.5508	1.1077	-0.2188	-1.0113	0.9236	-0.7306	-0.9182	-0.3752	-0.5271
-0.4381	1.2384	9.7456	-0.1019	0.4043	0.4406	0.57	0.0578	-1.5016	1.9098	0.941	9.6282	-0.154	0.5255	0.1514	0.4383	-0.3122	-0.4863	9.8957	0.9369	0.0162	-0.985	0.9258	-0.885	-0.9032	-0.4135	-0.5458
-0.9839	1.1253	9.5039	-0.3172	0.5555	0.2928	0.5185	0.023	-1.4891	2.0843	1.4015	9.8093	0.0018	0.5292	0.3656	0.4443	-0.3182	-0.4863	9.886	1.2208	-0.4987	-0.8319	0.9876	-0.9505	-0.8702	-0.355	-0.5255
-0.8007	0.7734	9.6283	-0.6263	0.5217	0.3267	0.5718	0.0395	-1.4854	2.1976	0.8257	9.6918	-0.0635	0.651	0.2423	0.4503	-0.3062	-0.4923	9.9393	1.4481	-0.6691	-0.5179	0.8942	-0.807	-0.9346	-0.4135	-0.5109
-0.8649	1.4177	9.444	-0.6011	0.2783	0.1674	0.5406	0.0246	-1.421	1.9677	0.5958	9.6278	-0.1541	0.6206	0.3967	0.4443	-0.3122	-0.5043	9.7787	1.2212	-0.1573	-0.584	1.079	-0.9572	-0.9023	-0.3748	-0.5268
-0.8591	1.0055	9.7411	-0.6592	0.3992	0.3245	0.5906	0.0199	-1.485	1.7376	1.1713	9.626	-0.0344	0.6808	0.0883	0.4443	-0.3242	-0.4983	10.0108	1.3349	0.1331	-0.3414	1.2643	-1.1473	-0.9037	-0.433	-0.5642
-0.866	1.4184	9.3856	-0.3194	0.4641	0.2294	0.536	0.0606	-1.4702	1.9021	0.3063	9.1568	0.0519	0.9597	0.0554	0.4383	-0.3182	-0.4983	9.5539	1.1647	-0.0471	-0.1842	1.4156	-1.0894	-0.856	-0.432	-0.5632
-1.0428	1.0079	9.5627	0.0835	0.5292	0.2565	0.519	-0.0153	-1.5071	1.9106	1.1713	9.6878	0.1776	0.837	0.0247	0.4263	-0.3242	-0.4983	9.8424	1.5058	0.2445	-0.0623	1.4166	-1.1545	-0.8543	-0.3546	-0.5252
-0.8663	0.8939	9.3338	0.2643	0.2561	0.2483	0.501	-0.0145	-1.5081	2.0832	0.7109	9.6891	-0.0408	0.9584	0.0253	0.4443	-0.3002	-0.4923	9.6104	1.3353	-0.0459	-0.1749	1.4113	-0.7824	-0.887	-0.394	-0.5449
-0.5031	1.6499	9.5058	0.45	0.3193	0.1858	0.5357	0.0411	-1.4875	2.0883	0.9422	9.983	-0.0715	0.8948	-0.1278	0.4383	-0.3122	-0.5043	9.6611	1.1643	-0.3884	-0.36	1.5938	-0.7754	-0.8876	-0.4324	-0.5461
-1.0431	1.2414	9.5598	0.4237	0.594	0.1921	0.5177	0.0419	-1.4885	1.6825	0.4815	9.6803	-0.1939	0.9265	0.0878	0.4503	-0.3122	-0.4983	9.3249	1.0512	-0.1658	-0.6139	1.4137	-0.9536	-0.9025	-0.3752	-0.5446
-0.863	0.7749	9.5104	0.6019	0.1682	0.1806	0.5368	0.0417	-1.4707	1.9663	0.7681	9.57	-0.1598	0.7405	-0.0035	0.4563	-0.3182	-0.4983	9.8966	1.0507	0.0735	-0.8933	1.1702	-0.9472	-0.8709	-0.3933	-0.5268
-0.8637	1.3002	9.5038	0.5092	0.1672	0.1818	0.5501	0.0769	-1.5188	1.8603	0.9429	10.0372	-0.191	0.8032	0.1193	0.4383	-0.3122	-0.4983	9.7242	1.1077	-0.044	-0.9272	1.1106	-1.0389	-0.8863	-0.3557	-0.5436
-0.3195	0.9478	9.6346	0.3859	0.2582	0.0623	0.5373	0.0033	-1.4887	1.9122	0.8264	9.7449	-0.2835	0.7704	0.0278	0.4323	-0.3122	-0.4983	10.0013	1.4483	-0.3819	-0.9577	0.958	-1.0084	-0.8553	-0.3937	-0.562
-1.039	1.2968	9.7927	0.3505	-0.0479	0.1176	0.5211	-0.0141	-1.4735	2.0287	0.9993	9.865	-0.1911	0.7078	-0.1567	0.4503	-0.3062	-0.4923	9.6021	1.3349	-0.5038	-1.2407	1.0514	-1.1529	-0.9188	-0.3947	-0.5455
-0.6789	1.297	9.7406	-0.0166	0.1622	0.1267	0.5208	0.0437	-1.4382	1.8627	0.7708	10.1536	-0.1921	0.8335	0.0576	0.4383	-0.3122	-0.5043	9.8892	1.1641	-0.327	-1.1783	0.9292	-1.125	-0.8861	-0.3553	-0.5259
-0.8658	1.2433	9.3878	-0.2307	0.1899	0.2838	0.5953	-0.0161	-1.4359	2.0846	0.5386	9.7469	-0.0943	0.6507	0.2425	0.4323	-0.3182	-0.4863	9.4953	0.9372	-0.1628	-1.0621	0.8719	-1.3747	-0.903	-0.3947	-0.563
-0.8002	1.1812	9.6816	-0.5074	0.3403	0.1675	0.52	-0.0147	-1.4903	2.083	0.8259	9.6896	-0.1841	0.5261	0.2438	0.4443	-0.3182	-0.5043	9.4951	1.1079	-0.1626	-0.931	0.8076	-1.1334	-0.8709	-0.3933	-0.5268
-0.9221	1.5323	9.6167	-0.5113	0.1266	0.1322	0.5213	0.0053	-1.4562	2.1462	1.2299	10.044	-0.2422	0.403	0.3678	0.4563	-0.3242	-0.4983	9.6675	1.9039	0.0128	-0.7467	0.9303	-1.1993	-0.8697	-0.3355	-0.5072
-0.6775	1.0045	9.8027	-0.3769	0.7386	0.2053	0.5054	0.0073	-1.4237	1.9613	1.1121	9.3372	-0.2467	0.4925	0.0292	0.4443	-0.3122	-0.5043	9.784	1.1646	0.1288	-0.8662	1.1415	-1.0712	-0.8858	-0.3361	-0.5253
-0.5654	0.8935	9.3391	-0.2858	0.7402	0.0504	0.5205	0.0242	-1.4556	1.9166	0.8275	9.9792	-0.1535	0.5261	0.2129	0.4383	-0.3062	-0.4923	9.6649	1.5057	-0.1592	-0.6851	1.1437	-1.2302	-0.9181	-0.3748	-0.5094
-0.6176	1.2379	9.8008	-0.4671	0.9212	0.1489	0.5378	0.0423	-1.454	1.9696	0.7688	9.7457	-0.1879	0.6165	-0.0026	0.4383	-0.2942	-0.5103	9.8914	1.0505	-0.2126	-0.6757	1.1394	-0.9232	-0.9185	-0.357	-0.5798
-0.6179	1.4713	9.7979	-0.5486	1.3155	0.589	0.5726	0.0206	-1.486	1.8573	0.712	9.8604	-0.0972	0.6787	-0.0649	0.4443	-0.3122	-0.5043	10.1229	0.8229	0.0203	-0.6182	1.2329	-1.0779	-0.9029	-0.3943	-0.5452
-1.036	0.6533	9.9175	-0.7447	0.8875	0.2439	0.5731	-0.0177	-1.504	1.7994	0.4243	9.7994	-0.1287	0.7093	-0.0649	0.4563	-0.3062	-0.4983	9.7894	0.9942	0.4148	-0.7381	0.9872	-0.9226	-0.9032	-0.4135	-0.5458
-0.6776	1.1212	9.8012	-0.7394	1.1621	0.3113	0.535	0.06	-1.4869	1.5662	0.884	9.6214	-0.0651	0.649	0.0272	0.4383	-0.3182	-0.5043	9.6668	0.8233	-0.1025	-0.9813	0.924	-0.7622	-0.8864	-0.3745	-0.5265
-0.6861	1.1271	9.334	-0.7168	0.766	0.1486	0.5733	0.0791	-1.434	1.9123	0.7689	9.7446	0.0847	0.8354	-0.0362	0.4263	-0.3062	-0.4923	9.7221	1.1076	-0.1585	-1.1479	1.0514	-1.1556	-0.9015	-0.3177	-0.5427
-0.8589	0.8887	9.7426	-0.6597	0.4302	0.2329	0.536	0.0606	-1.4702	1.9715	0.9419	9.8637	-0.1593	0.7093	-0.034	0.4443	-0.3182	-0.4803	9.8355	1.2212	-0.1563	-1.2464	1.054	-1.337	-0.8873	-0.4132	-0.5455
-1.1066	1.302	9.3828	-0.4082	0.6154	0.3568	0.5752	-0.0165	-1.4704	2.1428	0.6538	9.8071	-0.1901	0.7725	0.1502	0.4623	-0.3062	-0.4923	9.4877	1.2213	-0.5632	-1.0277	1.0836	-1.2819	-0.9025	-0.3752	-0.5446
-0.6199	1.3561	9.6825	-0.3184	0.4637	0.3216	0.5556	0.022	-1.4703	2.2552	0.6531	9.6921	-0.1582	0.6789	0.0276	0.4503	-0.3122	-0.5163	9.9492	1.0504	-0.1544	-1.1293	0.9962	-1.5561	-0.887	-0.3755	-0.5798
-0.8563	1.2951	9.9126	-0.3214	0.4034	0.1358	0.5363	0.0028	-1.5055	1.9692	0.9989	9.7468	-0.2507	0.7098	0.1202	0.4443	-0.3182	-0.4983	9.6684	1.1646	0.0122	-1.0365	0.9658	-1.5591	-0.9029	-0.3759	-0.5801
-1.0387	1.0633	9.7956	-0.3911	-0.0553	0.096	0.5007	0.0433	-1.4728	1.7996	0.9997	9.8606	-0.4971	0.7076	0.1524	0.4443	-0.3242	-0.4923	9.7189	1.1643	-0.3301	-1.0663	1.0567	-1.5268	-0.8704	-0.3553	-0.5433
-0.6212	0.7739	9.5731	-0.1717	0.0994	0.1581	0.5177	0.0419	-1.4885	1.8587	0.5398	9.9182	-0.4669	0.7388	0.152	0.4383	-0.3122	-0.5043	10.3467	0.8793	-0.1472	-0.514	0.9678	-1.6977	-0.8713	-0.3756	-0.5973
-1.1041	1.0087	9.5033	-0.0816	-0.0524	0.1537	0.5033	0.0061	-1.4572	1.9153	0.9422	9.9211	-0.5286	0.77	0.2444	0.4443	-0.3302	-0.4923	9.6622	1.1644	-0.3312	-0.5079	0.8126	-1.484	-0.8707	-0.356	-0.5789
-0.4402	1.2398	9.6288	-0.2023	0.0374	0.2801	0.5376	0.0228	-1.4713	1.7415	0.7695	9.7999	-0.6495	0.6448	0.2151	0.4383	-0.3062	-0.4983	9.7205	1.6194	-0.2153	-0.5694	0.9343	-1.4812	-0.8717	-0.4135	-0.5807
-0.6852	1.2431	9.391	-0.2309	0.0977	0.4048	0.5571	0.0616	-1.4188	1.9093	1.286	9.6298	-0.3462	0.8637	0.1505	0.4443	-0.3182	-0.5043	9.9541	1.2781	0.132	-0.9667	1.0841	-1.3144	-0.871	-0.3937	-0.5445
-0.5627	1.2414	9.5099	-0.1081	0.1915	0.19	0.5558	0.0415	-1.4529	1.449	0.4809	9.4416	-0.3487	0.9559	0.0885	0.4323	-0.3002	-0.5043	9.9489	1.3348	-0.1541	-1.1761	1.0196	-1.0629	-0.8548	-0.3742	-0.5436
-0.5655	0.9518	9.3383	-0.1388	0.2219	0.1603	0.5365	0.0222	-1.4881	2.0797	1.5155	9.5755	-0.2263	0.9559	-0.0351	0.4323	-0.3062	-0.4983	9.7209	1.2781	-0.2156	-1.0193	1.0797	-1.0056	-0.8868	-0.3937	-0.5271
-1.0362	0.8284	9.9153	-0.1378	0.2215	0.2526	0.5203	0.0047	-1.473	1.7919	0.9979	9.4506	-0.1939	0.8947	-0.0042	0.4263	-0.3242	-0.4983	9.7272	1.2215	0.1278	-1.1147	1.1723	-1.0942	-0.8877	-0.4139	-0.581
-0.6805	0.89	9.629	-0.0792	0.1311	0.0961	0.5182	0.0809	-1.4538	1.9141	0.9995	9.8628	0.0845	0.8669	0.0251	0.4503	-0.3002	-0.4983	9.4948	1.3353	-0.1625	-0.9857	1.3223	-0.9432	-0.8866	-0.3933	-0.5093
-0.137	1.1212	9.7523	-0.2644	0.0984	0.1592	0.5574	0.0037	-1.4541	2.0284	1.2294	9.866	-0.1648	0.9563	-0.0662	0.4203	-0.3182	-0.4983	9.7246	1.6195	0.0136	-0.7963	1.2902	-0.8262	-0.9193	-0.4142	-0.5639
-0.7473	1.0695	9.2753	-0.2962	0.0985	0.0674	0.5383	0.0039	-1.4719	1.9716	0.8844	9.8634	-0.1635	0.958	0.1182	0.4383	-0.3122	-0.4923	9.665	1.4489	-0.1593	-0.9192	1.2592	-0.7921	-0.8553	-0.4122	-0.5271
-0.6188	1.3553	9.7409	-0.2672	0.0688	-0.0567	0.5017	0.0439	-1.456	1.9722	1.2297	9.9235	-0.2245	0.9265	0.1187	0.4443	-0.3122	-0.4923	9.8916	0.9367	-0.2127	-0.6666	1.0437	-0.617	-0.8863	-0.3557	-0.5436
-0.8676	1.0697	9.2732	-0.2007	0.1906	0.1912	0.5033	0.0061	-1.4572	1.8569	0.9421	9.8615	-0.2208	0.7089	-0.0029	0.4383	-0.2942	-0.4923	9.6124	1.3922	0.0686	-0.7843	0.9188	-0.3994	-0.8871	-0.3944	-0.5626
-0.8032	1.0667	9.5078	-0.075	0.3447	0.1622	0.4989	0.0616	-1.489	1.9711	0.5391	9.8033	-0.3798	0.8917	-0.126	0.4383	-0.3062	-0.4983	9.7173	0.823	-0.4449	-0.8749	1.0397	-0.3342	-0.9357	-0.4341	-0.5826
-0.6736	1.2934	10.0326	0.0182	0.3147	0.2526	0.5009	0.0628	-1.4554	1.9158	0.6547	9.9198	-0.2554	0.8626	-0.0651	0.4383	-0.3182	-0.4983	9.7175	1.4486	-0.3871	-0.8443	0.9179	-0.3361	-0.9184	-0.3755	-0.5449
-0.7448	0.7762	9.3958	-0.0109	0.4059	0.2857	0.5172	0.0803	-1.4706	2.4259	0.71	9.6371	-0.099	0.8035	0.0573	0.4383	-0.3182	-0.4923	9.7885	0.9373	0.3575	-0.9642	0.977	-0.2092	-0.8553	-0.3937	-0.562
-0.6226	1.0081	9.5117	-0.0443	0.2528	0.2828	0.5564	0.0031	-1.4709	1.7933	0.7681	9.5081	-0.0697	0.8654	0.026	0.4443	-0.3122	-0.5163	9.6649	1.5057	-0.1592	-1.1169	1.0369	-0.1427	-0.9028	-0.4128	-0.5103
-1.1607	1.4728	9.73	-0.1104	0.131	0.0657	0.5342	0.0789	-1.4863	1.7414	0.8845	9.8004	-0.1032	0.9251	-0.1585	0.4623	-0.3242	-0.4923	9.6647	0.8233	-0.217	-1.0308	1.2839	-0.3891	-0.8866	-0.3564	-0.5792
-0.6752	0.8863	9.9209	-0.1074	0.2528	0.1606	0.537	0.0612	-1.4534	1.457	0.943	9.9123	-0.1657	0.9869	-0.0971	0.4383	-0.3242	-0.5043	10.0029	0.9934	-0.325	-0.9692	1.1927	-0.3917	-0.8555	-0.394	-0.5798
-1.221	0.8316	9.6786	-0.1415	0.0385	0.1871	0.5386	0.0234	-1.4546	2.1408	1.1711	9.7508	-0.3141	0.8022	0.1507	0.4323	-0.3122	-0.4863	10.1135	1.6756	-0.4369	-1.0027	1.2548	-0.4823	-0.8544	-0.3735	-0.5081
-0.5072	0.7781	9.2248	-0.2008	0.2829	0.0394	0.5371	-0.0161	-1.5061	1.749	0.9438	10.2107	-0.4956	0.6142	0.0914	0.4503	-0.3122	-0.4863	9.7808	1.2782	-0.0428	-0.7895	1.348	-0.6109	-0.8862	-0.3741	-0.5087
-0.6233	1.5333	9.5051	-0.26	0.3427	0.1952	0.5556	0.022	-1.4703	2.0884	0.8847	9.9828	-0.8314	0.488	0.1863	0.4503	-0.3302	-0.4923	9.6079	0.8802	-0.218	-0.9401	1.4983	-0.4823	-0.9029	-0.3759	-0.5801
-0.4969	1.0042	9.8059	-0.2266	0.5881	0.0464	0.5368	0.0417	-1.4707	1.7987	0.8269	9.8013	-0.7388	0.5525	0.3698	0.4383	-0.3122	-0.4983	10.0003	1.3914	-0.4392	-0.9968	1.3435	-0.2974	-0.9197	-0.4149	-0.5995
-0.8	1.0645	9.683	-0.2896	0.4957	0.0759	0.5051	-0.0122	-1.441	1.9129	1.0568	9.8045	-0.651	0.6745	0.092	0.4443	-0.3182	-0.4983	9.2112	1.2219	-0.1678	-0.8116	1.4657	-0.3327	-0.8712	-0.394	-0.5623
-1.0423	0.6577	9.5671	-0.0207	-0.0822	0.1215	0.5012	0.0049	-1.4908	1.8525	0.9411	9.6271	-0.4355	0.6764	0.06	0.4443	-0.3062	-0.4983	9.8913	1.1073	-0.2126	-0.804	1.4927	-0.0869	-0.8871	-0.3944	-0.5626
-0.5068	1.2443	9.2773	0.2595	0.012	0.1815	0.5203	0.0047	-1.473	2.0813	1.1707	9.6326	-0.2833	0.7707	0.0585	0.4623	-0.3062	-0.4983	9.89	1.3916	-0.2696	-0.6209	1.5549	-0.1841	-0.9023	-0.3748	-0.5268
-1.0398	1.1224	9.7365	0.1999	0.1027	0.2458	0.5937	0.0216	-1.4347	1.9144	0.827	9.862	-0.2835	0.7704	0.0278	0.4443	-0.3182	-0.4983	9.8356	1.1643	-0.1563	-0.566	1.4058	-0.402	-0.887	-0.394	-0.5449
-0.858	0.9464	9.8002	0.2286	0.0117	0.1819	0.5728	0.0401	-1.4687	1.7955	0.7686	9.6253	-0.2881	0.9868	0.0265	0.4443	-0.3122	-0.4983	9.7284	1.051	0.1849	-0.4402	1.4659	-0.3438	-0.8861	-0.3368	-0.5608
-0.7461	1.0104	9.3344	0.1382	0.2251	0.0647	0.537	0.0612	-1.4534	2.139	0.9406	9.6326	-0.4656	0.677	0.1523	0.4263	-0.3062	-0.4743	9.8923	1.1642	-0.1553	-0.4097	1.3137	-0.346	-0.9026	-0.3567	-0.5795
-0.6761	0.7703	9.864	-0.1075	0.2836	0.0998	0.5365	0.0222	-1.4881	1.8505	1.5159	9.5711	-0.3734	0.6458	0.0291	0.4443	-0.3122	-0.4863	9.5507	1.2215	-0.2187	-0.5056	1.2237	-0.436	-0.8866	-0.3748	-0.5443
-0.6219	0.5412	9.5176	-0.1401	0.1609	0.1283	0.588	0.057	-1.5006	1.6832	0.7693	9.7402	-0.3458	0.8007	0.028	0.4443	-0.3122	-0.4863	9.6115	1.2785	0.0113	-0.3833	1.3464	-0.5001	-0.8709	-0.3933	-0.5268
-0.8027	1.4745	9.5611	0.0755	0.0711	0.2159	0.5187	0.0425	-1.4718	2.2552	1.286	9.7535	-0.3143	0.8019	0.12	0.4443	-0.2822	-0.5043	9.8326	0.9936	-0.3282	-0.3557	1.1651	-0.5946	-0.8863	-0.3557	-0.5436
-0.9231	1.4746	9.559	0.261	0.0421	0.2744	0.5198	0.0431	-1.455	1.9667	1.1709	9.6304	-0.2517	0.8037	0.2425	0.4383	-0.3122	-0.4923	9.6063	1.2782	-0.2749	-0.4228	1.0151	-0.7474	-0.9184	-0.3755	-0.5449
-0.7968	1.0039	9.859	0.5644	-0.1678	0.0815	0.536	0.0606	-1.4702	1.6868	1.2305	9.9766	-0.1624	0.9277	0.1798	0.4383	-0.3182	-0.4983	9.3816	1.108	-0.1647	-0.1732	1.0447	-0.6932	-0.9179	-0.3745	-0.4916
-0.3866	1.4192	9.2773	0.4718	-0.1072	-0.0082	0.5218	0.0443	-1.4215	1.8532	0.5385	9.6253	-0.2573	0.9871	0.0264	0.4503	-0.3242	-0.5103	9.6084	1.2783	-0.1604	-0.2917	0.9203	-0.5063	-0.8714	-0.3944	-0.5801
-0.4361	1.2953	9.8617	0.2243	-0.1711	0.055	0.4994	0.0232	-1.5069	1.7975	0.8842	9.7429	-0.0719	0.9578	-0.0053	0.4563	-0.3182	-0.4923	9.8356	1.1643	-0.1563	-0.2888	0.9495	-0.414	-0.9186	-0.3943	-0.5277
-0.8655	1.0682	9.39	0.0118	0.0712	0.0322	0.502	0.0634	-1.4387	1.9148	1.2873	9.9227	-0.0105	0.9581	-0.0364	0.4383	-0.3062	-0.4983	9.722	1.2213	-0.1584	-0.5343	1.3446	-0.3727	-0.9023	-0.3748	-0.5268
-0.6149	0.8279	9.9227	0.1654	0.0424	-0.0012	0.5224	0.0059	-1.4394	1.855	0.769	9.7435	-0.1039	0.8924	-0.3427	0.4503	-0.3002	-0.4923	9.6083	1.3352	-0.1604	-0.5925	1.3428	-0.2481	-0.9024	-0.3564	-0.5617
-0.5055	1.1268	9.3372	0.3271	0.3793	0.1579	0.5765	0.0035	-1.4363	1.6821	0.7116	9.6814	-0.1311	0.8332	-0.0349	0.4503	-0.3242	-0.4923	9.3846	1.2219	0.0071	-0.501	1.1911	-0.2828	-0.8697	-0.3355	-0.5072
-0.8616	1.2987	9.6206	0.4116	-0.1085	0.1462	0.5198	0.0431	-1.455	1.8548	0.8841	9.744	-0.1629	0.8317	-0.1576	0.4443	-0.3122	-0.4983	9.4941	1.1078	-0.2199	-0.7542	1.2241	-0.4593	-0.9185	-0.357	-0.5798
-0.7971	1.2374	9.856	0.4427	-0.0775	0.1158	0.535	0.06	-1.4869	2.1954	0.8252	9.5746	-0.1012	0.896	0.026	0.4323	-0.3182	-0.4803	10.0035	1.3915	-0.2675	-0.5737	1.3485	-0.6481	-0.8709	-0.3749	-0.5617
-0.8002	1.9392	9.7304	0.7813	-0.2582	0.2921	0.5208	0.0437	-1.4382	2.0781	1.1124	9.4566	-0.0999	0.8341	0.0263	0.4383	-0.3062	-0.4803	10.0091	1.0505	0.0184	-0.3627	1.3512	-0.8387	-0.8863	-0.3372	-0.5786
-0.9805	1.0064	9.6806	0.7703	-0.6228	-0.1769	0.5386	0.0234	-1.4546	2.0912	0.5402	10.0984	-0.1956	1.0196	0.118	0.4503	-0.3122	-0.4923	9.6067	1.7901	-0.2173	-0.3013	1.4734	-0.8703	-0.887	-0.3755	-0.5798
-0.8004	1.2979	9.6801	1.046	-0.6805	-0.3047	0.5574	0.0037	-1.4541	2.0846	0.5386	9.7469	-0.102	1.0538	0.3631	0.4323	-0.3062	-0.4923	9.5509	1.0509	-0.2189	-0.2133	1.4148	-1.0271	-0.8397	-0.431	-0.5274
-1.0409	1.1232	9.6781	1.22	-1.2584	-0.4732	0.5551	-0.0169	-1.505	1.7957	0.6536	9.6247	-0.102	1.022	0.2711	0.4383	-0.3122	-0.4863	9.3257	1.2787	-0.1084	-0.4041	1.5999	-1.2042	-0.8714	-0.3944	-0.5801
-0.499	1.0057	9.6891	1.462	-1.4999	-0.5737	0.5548	0.0409	-1.4697	2.0794	0.9977	9.5146	0.2962	1.1497	0.268	0.4443	-0.3122	-0.4923	9.3742	1.2214	-0.5653	-0.4307	1.5064	-1.0506	-0.9355	-0.4337	-0.5648
-0.8055	1.1849	9.3896	1.7355	-1.649	-0.7649	0.5211	-0.0141	-1.4735	1.9146	0.7119	9.8615	0.0792	1.1778	0.2076	0.4503	-0.3302	-0.4923	9.8386	1.2782	0.0154	-0.5533	1.5972	-1.0154	-0.8704	-0.3369	-0.5783
-0.8034	1.1834	9.5064	1.6544	-2.5337	-1.2136	0.554	0.0598	-1.4691	2.2452	0.7083	9.1652	0.1404	1.1779	0.1458	0.4383	-0.3182	-0.5163	9.9494	0.8798	-0.1545	-0.4956	1.7516	-1.1696	-0.9025	-0.3752	-0.5446
-0.8016	1.4154	9.6202	1.5176	-3.2677	-1.3201	0.5203	0.0047	-1.473	1.8503	0.9405	9.51	0.4179	1.2125	0.2362	0.4503	-0.3002	-0.5043	9.4368	1.506	-0.2206	-0.7144	1.9963	-1.2532	-0.9027	-0.3755	-0.5624
-0.566	1.302	9.3339	1.3168	-4.0014	-1.641	0.5177	0.0419	-1.4885	1.9136	1.3446	9.8644	0.539	1.2108	-0.0718	0.4443	-0.3002	-0.4923	9.896	1.5625	0.0739	-0.7508	2.0598	-1.436	-0.8868	-0.3752	-0.562
-0.5629	1.3582	9.5084	1.0939	-4.4622	-1.556	0.5159	0.0602	-1.5047	1.9153	0.9422	9.9211	0.4452	1.3671	0.2044	0.4383	-0.3122	-0.4983	9.8298	1.619	-0.4422	-0.544	2.1864	-1.7792	-0.8871	-0.3944	-0.5626
-0.3783	1.5301	9.743	-0.028	-5.0846	-1.5246	0.4997	0.0427	-1.4896	2.0276	0.9991	9.8064	0.0661	1.9869	0.756	0.4503	-0.2942	-0.4983	9.7779	1.0506	-0.2147	-0.4877	2.4939	-1.9935	-0.8545	-0.318	-0.6129
-0.4466	1.2442	9.2784	-1.2337	-5.3117	-1.2684	0.4824	0.0246	-1.4912	1.5769	1.0591	10.2079	-0.0271	2.1755	1.1856	0.4443	-0.3182	-0.4863	9.9511	1.2211	-0.0398	-0.4353	2.7726	-2.3309	-0.9018	-0.3553	-0.5084
-0.6215	1.0073	9.5701	-1.8784	-5.043	-1.316	0.5185	0.023	-1.4891	2.1369	0.8825	9.5152	0.5514	2.5852	1.3642	0.4443	-0.3122	-0.4743	9.8417	1.2214	0.1871	-0.5379	2.96	-2.6643	-0.9033	-0.3766	-0.6157
-0.8626	1.2411	9.563	-2.4241	-4.53	-1.1442	0.5017	0.0439	-1.456	2.5442	1.1135	9.8754	0.1769	2.6391	0.9359	0.4443	-0.3182	-0.5043	9.6703	1.3353	0.1268	-0.7027	3.3608	-3.0249	-0.8873	-0.3947	-0.5804
-0.5023	1.0663	9.5131	-2.8177	-4.1989	-0.9168	0.5179	0.0614	-1.4712	1.6866	0.7126	9.9157	0.6722	2.615	1.1175	0.4623	-0.3122	-0.5163	9.6083	1.3921	-0.1603	-0.778	3.5804	-3.4818	-0.9033	-0.3766	-0.6157
-0.4474	1.0699	9.2222	-2.822	-4.474	-0.892	0.5216	0.0248	-1.4388	1.6866	0.6551	9.9154	0.4744	3.1684	0.9924	0.4443	-0.3122	-0.4923	9.7767	1.1643	-0.2719	-0.8829	3.9517	-3.9059	-0.8716	-0.3947	-0.5979
-0.9279	1.1281	9.2714	-2.9275	-5.5155	-0.4827	0.5368	0.0417	-1.4707	2.0239	1.2283	9.6317	-0.2555	4.0238	0.6843	0.4383	-0.3122	-0.5103	10.0676	1.3349	0.1341	-0.9931	4.1426	-4.485	-0.8871	-0.3944	-0.5626
-1.1033	1.1831	9.5595	-3.0842	-5.7315	-0.3624	0.4999	0.0622	-1.4722	2.0831	0.7684	9.6893	0.136	4.3653	0.4034	0.4323	-0.3362	-0.4983	9.3292	0.9376	0.063	-1.3407	4.2677	-4.7194	-0.902	-0.3372	-0.5611
-0.6745	1.119	9.9764	-2.5926	-5.9407	-0.2808	0.5198	0.0431	-1.455	2.0872	0.942	9.9244	0.2544	4.5826	0.3707	0.4263	-0.3182	-0.4983	9.8335	1.1073	-0.2709	-1.6893	4.3933	-4.9845	-0.8714	-0.4128	-0.5452
-0.984	1.242	9.5025	-2.5953	-5.8473	-0.6786	0.5556	0.022	-1.4703	2.0261	0.596	9.6875	0.606	4.1256	0.7094	0.4563	-0.3182	-0.4743	9.6693	1.2784	0.0695	-2.2825	3.9992	-5.0928	-0.9015	-0.3361	-0.5078
-0.3157	1.2951	9.8638	-2.7564	-6.3075	-0.5943	0.5017	0.0439	-1.456	2.2563	1.2862	9.8121	1.1076	3.8872	1.1073	0.4503	-0.3122	-0.4743	9.3929	1.2222	0.4649	-2.1926	3.9397	-5.1882	-0.8863	-0.3372	-0.5786
-0.5064	1.0108	9.2803	-3.4932	-5.9478	-0.731	0.5015	0.0244	-1.4734	1.9701	1.1142	9.8059	1.2392	3.6767	1.5995	0.4443	-0.3182	-0.4923	9.566	0.6534	0.5821	-1.9629	2.6841	-4.652	-0.8871	-0.3944	-0.5626
-0.5046	2.0008	9.443	-3.5124	-5.3684	-0.5337	0.535	0.06	-1.4869	1.9101	0.7684	9.6275	0.8216	3.1821	2.0658	0.4383	-0.3182	-0.4863	10.2341	0.9933	-0.092	-1.0086	1.5144	-3.7373	-0.9031	-0.3762	-0.5979
-1.1654	1.0679	9.4431	-3.3213	-5.1537	-0.3161	0.4837	0.0447	-1.4571	1.7356	1.0558	9.5083	0.2114	3.1841	2.9298	0.4443	-0.3122	-0.4923	9.6108	0.9941	-0.0462	-0.4859	0.3436	-2.7483	-0.8716	-0.3947	-0.5979
-0.3892	1.0129	9.1072	-3.8149	-5.2819	-0.0667	0.5015	0.0244	-1.4734	2.1455	0.9996	9.9844	-0.5517	4.3539	3.2039	0.4443	-0.3062	-0.4983	9.5025	0.9944	0.2379	-0.0934	-0.4584	-1.9982	-0.9037	-0.4146	-0.5991
-0.3186	1.1222	9.6908	-4.4859	-5.1078	0.4684	0.5195	0.0236	-1.4724	2.0292	0.7117	9.8637	-1.1069	4.602	3.8817	0.4443	-0.3122	-0.5103	9.7856	0.7666	0.1857	0.1686	-0.9832	-1.4879	-0.9186	-0.3759	-0.5627
-0.2599	1.4147	9.6298	-5.6016	-5.6712	0.993	0.4801	0.0812	-1.4894	1.8517	0.7683	9.5678	-1.4104	4.5414	4.3448	0.4203	-0.3122	-0.4803	9.8968	0.9369	0.0734	1.0392	-1.2589	-1.3625	-0.8878	-0.4327	-0.5639
-0.4382	1.2967	9.7449	-6.0954	-5.8917	1.3634	0.536	0.0606	-1.4702	2.1351	1.2849	9.4584	-1.6024	4.8799	4.3747	0.4443	-0.3122	-0.4983	9.5711	0.7105	0.8683	2.1803	-1.4697	-1.5212	-0.8861	-0.3368	-0.5608
-0.4385	0.7722	9.6931	-6.4643	-5.6501	1.158	0.536	0.0606	-1.4702	1.9705	0.2512	9.7434	-1.6629	4.9761	4.8047	0.4443	-0.3182	-0.4923	9.9571	0.5958	0.2459	3.3339	-1.2598	-1.3082	-0.8866	-0.3748	-0.5443
-0.0778	1.0635	9.6957	-5.974	-5.4896	0.5403	0.5167	0.0413	-1.5053	1.9123	1.4593	9.8063	-0.8376	5.2614	4.6445	0.4383	-0.3122	-0.5043	9.7367	0.2551	0.5849	3.9211	-0.9848	-1.385	-0.8873	-0.3947	-0.5804
-0.6799	1.2394	9.683	-4.9909	-5.3852	-0.1156	0.5015	0.0244	-1.4734	1.8539	0.7688	9.6849	-0.9128	6.0056	4.9478	0.4503	-0.3062	-0.5103	9.8404	0.6527	0.0722	4.7871	-0.6488	-1.4697	-0.8854	-0.317	-0.5246
-0.5674	0.7782	9.2237	-4.4337	-4.9186	-0.7276	0.4971	0.0799	-1.5052	2.079	1.2277	9.5157	-0.5513	6.3797	4.882	0.4563	-0.3182	-0.4983	9.7828	0.4821	0.0138	5.5401	-0.1656	-1.2118	-0.9029	-0.3759	-0.5801
-0.7417	0.8324	9.5702	-4.4112	-5.4378	-0.7084	0.4806	0.0429	-1.5074	2.3126	0.5955	9.693	0.2442	6.7612	5.1209	0.4383	-0.3182	-0.4923	9.9499	0.4817	-0.1548	5.7338	-0.0313	0.0433	-0.8878	-0.4512	-0.5289
-0.1333	0.7105	9.9327	-4.3175	-5.3757	-0.7082	0.4971	0.0799	-1.5052	1.7419	1.2298	9.8605	0.6547	6.2695	4.9985	0.4503	-0.3182	-0.4923	9.8863	0.9934	-0.4988	6.4269	-0.1121	1.4354	-0.8543	-0.3546	-0.5252
-0.4992	1.1224	9.6876	-4.1517	-4.7329	-0.6349	0.5169	0.0608	-1.488	1.6769	0.5377	9.3877	0.5672	5.9256	4.6937	0.4443	-0.3122	-0.4983	9.614	0.9373	0.1255	7.5688	-0.6731	2.3493	-0.8866	-0.3748	-0.5443
-0.3147	0.5364	9.8733	-3.772	-4.21	-0.5975	0.4971	0.0799	-1.5052	1.9084	1.1707	9.5707	0.1007	6.0746	4.6034	0.4383	-0.3362	-0.4983	9.5573	0.9374	0.1244	8.1427	-0.4673	2.8562	-0.8712	-0.394	-0.5623
-0.4389	1.0056	9.6901	-4.1425	-4.2445	-0.5321	0.46	0.0808	-1.524	1.8502	0.998	9.5102	-0.4257	6.2886	4.9125	0.4503	-0.3182	-0.4923	9.212	0.5964	-0.1683	9.0721	-0.5586	2.8584	-0.8873	-0.4132	-0.5455
-0.4292	0.8823	10.2172	-3.7965	-3.69	-0.8012	0.4842	0.0063	-1.475	1.7411	1.057	9.8012	-1.0974	5.9725	4.9183	0.4563	-0.3122	-0.4863	9.8344	0.4249	-0.2714	10.8166	-0.7314	2.1595	-0.8875	-0.3951	-0.5982
-0.6237	1.0672	9.4526	-3.3902	-3.0727	-1.3158	0.4829	0.0636	-1.4565	1.6828	0.9994	9.7412	-1.1638	6.3152	5.2547	0.4383	-0.3062	-0.4863	9.1509	0.71	-0.3981	11.9997	-0.3843	1.2972	-0.8705	-0.3742	-0.5262
-0.6849	1.0096	9.3939	-3.2985	-2.7945	-1.8337	0.4855	0.0264	-1.4409	1.5682	0.9996	9.739	-1.1754	6.6814	4.7609	0.4503	-0.3182	-0.4923	9.6083	1.3352	-0.1604	13.8668	0.2665	0.4784	-0.8716	-0.4132	-0.5629
-0.9213	0.9486	9.624	-4.3234	-2.864	-2.2529	0.4644	0.0254	-1.4922	1.5575	1.4573	9.2139	-1.3828	7.6037	4.4186	0.4443	-0.3062	-0.4983	9.8458	1.3354	0.4161	16.2362	1.0057	-0.1397	-0.8541	-0.3728	-0.4725
-0.2504	0.6501	10.1065	-6.4689	-3.3411	-2.8514	0.496	0.0793	-1.5219	1.7457	0.9431	10.035	-0.9458	8.338	3.121	0.4503	-0.3302	-0.4983	9.4448	0.9944	0.1796	19.5884	1.9173	-0.0483	-0.9191	-0.4139	-0.5461
-0.135	0.4201	9.8195	-7.194	-1.3251	-4.4593	0.4651	0.0838	-1.4402	1.3964	0.9423	9.7355	-0.9148	9.4109	2.1004	0.4503	-0.3182	-0.4983	9.2206	1.2223	0.3473	23.4919	3.5635	-0.2441	-0.903	-0.3947	-0.563
-0.1184	-0.1161	10.7021	-5.8341	3.5838	-6.1844	0.5159	0.0602	-1.5047	1.9666	1.2859	9.6309	-0.8186	10.7432	2.2763	0.4563	-0.3182	-0.4803	8.7077	1.2229	0.2235	27.3056	6.1836	-0.4294	-0.9191	-0.3954	-0.5811
-0.0584	0.0005	10.7017	-1.6838	10.7179	-7.4657	0.4811	0.0818	-1.4727	1.905	1.2275	9.3952	0.2611	11.3268	3.9566	0.4563	-0.3182	-0.4923	8.604	0.8822	0.7362	30.5463	9.5118	-1.1758	-0.8874	-0.432	-0.5283
0.1818	-0.3492	10.6519	1.808	18.7897	-8.2263	0.4983	0.0999	-1.471	1.4541	0.7122	9.7356	1.5336	12.8041	5.1081	0.4503	-0.3242	-0.5043	8.4228	1.3369	0.1611	33.3462	14.0931	-2.2676	-0.888	-0.4515	-0.5467
-0.1128	-0.3532	10.9971	2.9128	26.0103	-8.4834	0.4811	0.0818	-1.4727	1.5151	1.1157	9.9728	3.162	13.2901	5.6795	0.4443	-0.3122	-0.5043	8.3084	1.1664	0.1017	34.9942	19.378	-3.596	-0.8874	-0.432	-0.5283
-0.0488	-0.0644	11.228	2.4616	33.8219	-7.8469	0.4983	0.0999	-1.471	1.5675	0.7693	9.6794	3.7628	12.9024	6.5387	0.4503	-0.3242	-0.4863	8.0311	0.9964	0.4397	35.4376	25.3318	-4.8522	-0.9034	-0.4139	-0.5636
0.2569	-0.4763	11.4721	4.3838	40.0424	-8.1052	0.5007	0.0433	-1.4728	1.7948	0.5383	9.5656	3.6318	12.1047	7.3432	0.4383	-0.3362	-0.4803	8.469	1.3933	-0.4101	32.7517	32.1696	-6.1615	-0.9037	-0.433	-0.5642
0.6219	-0.9459	11.6595	9.9672	44.8121	-10.3784	0.4999	0.0622	-1.4722	1.7445	1.0003	9.9767	3.6318	10.524	6.9531	0.4383	-0.3302	-0.4863	8.7042	0.7109	-0.0059	28.8658	37.5099	-7.0473	-0.8876	-0.4324	-0.5461
1.7817	-1.2502	12.5592	27.1792	38.4669	-14.3303	0.5352	0.0795	-1.4696	1.2257	0.8854	9.7905	3.0007	7.7508	5.4061	0.4443	-0.3122	-0.4863	8.815	1.1656	-0.1179	25.3315	40.8944	-7.4062	-0.9046	-0.4533	-0.6181
2.5933	-0.9966	10.8775	50.9623	13.824	-16.7934	0.5331	0.0783	-1.5031	1.5701	1.1726	9.857	1.7982	5.7448	3.8579	0.4563	-0.3302	-0.5043	9.9584	1.2214	0.3609	22.663	42.6801	-6.6668	-0.8414	-0.4899	-0.6003
0.3328	-2.6446	12.201	43.8329	0.5884	-10.2559	0.5406	0.0246	-1.421	1.4626	0.8868	10.205	1.6684	4.4722	3.4975	0.4323	-0.3242	-0.4863	10.5279	1.2777	0.4858	20.9213	40.7481	-5.6775	-0.8567	-0.4519	-0.5994
0.8501	-4.9608	10.7215	17.555	15.5064	-3.6668	0.52	0.0626	-1.4376	1.6267	0.9422	9.7985	2.5291	3.1193	3.3775	0.4563	-0.3182	-0.5043	11.7236	1.5608	0.7368	21.0883	35.5602	-4.8021	-0.8723	-0.4331	-0.5991
-0.0215	-3.7567	12.5006	22.6924	32.0805	3.5171	0.5226	0.0254	-1.4221	1.4569	0.3676	9.8512	4.677	1.9604	2.7572	0.4503	-0.3242	-0.4863	12.0179	0.594	1.2564	20.2279	28.2265	-2.8684	-0.8568	-0.4707	-0.5822
1.1556	-4.4396	11.0122	18.9023	27.9169	10.8246	0.5221	-0.0136	-1.4568	1.7535	0.8874	10.4448	6.748	1.4801	2.0412	0.4443	-0.3242	-0.4803	11.2076	0.7081	0.3834	20.6982	21.3351	-2.0465	-0.857	-0.4895	-0.5651
2.052	-4.378	10.6769	10.5014	22.1238	16.9553	0.5741	0.0602	-1.4345	1.6315	0.7132	10.0318	8.6609	1.5649	2.3982	0.4503	-0.3182	-0.4923	11.4292	0.8213	0.1015	22.7031	15.2129	-1.7867	-0.8574	-0.4718	-0.6355
1.8095	-4.6681	10.5596	0.2108	23.3666	23.2622	0.5767	0.023	-1.419	1.5715	1.0003	9.9148	9.1538	1.6647	2.6098	0.4503	-0.3182	-0.4863	11.0389	0.3102	0.4372	22.903	9.7651	-1.8362	-0.8883	-0.4707	-0.5473
2.7621	-3.2628	10.0917	-3.737	25.6839	28.9286	0.5234	0.0065	-1.4226	1.5055	0.9409	9.4448	7.8299	1.6536	2.8635	0.4503	-0.3122	-0.4863	11.3151	0.4802	0.0419	22.0612	5.4541	-2.6137	-0.8248	-0.4697	-0.5638
3.8998	-3.6101	9.7658	-7.406	25.9384	32.0556	0.5404	0.0051	-1.4384	1.2277	1.0009	9.9082	6.566	1.5456	2.6257	0.4563	-0.3242	-0.4863	11.4258	0.2525	-0.1279	20.4898	2.1873	-4.0371	-0.8245	-0.4505	-0.5632
4.6081	-2.7268	9.0668	-13.2789	25.0503	33.0327	0.5587	0.0238	-1.42	1.6786	0.8833	9.5064	4.5294	1.5861	2.576	0.4503	-0.3182	-0.5103	11.4197	0.1385	-0.4713	18.7107	0.623	-5.3177	-0.8575	-0.5091	-0.5835
5.0226	-2.3728	8.7194	-18.8339	25.761	32.3797	0.5754	0.003	-1.4531	1.7449	0.7703	9.9756	2.6711	1.9376	2.5233	0.4503	-0.3182	-0.4983	11.1369	0.1388	-0.4193	16.7566	-0.8245	-6.2541	-0.8245	-0.4321	-0.5981
5.9862	-2.083	8.791	-22.7616	23.3813	29.7941	0.596	0.0423	-1.3838	1.7382	0.7687	9.6242	0.7455	2.5352	2.4081	0.4683	-0.3122	-0.4923	10.8447	0.2526	-0.8823	13.9652	-1.4793	-7.2821	-0.8568	-0.4707	-0.5822
6.5756	-1.4337	8.1512	-25.9966	13.2252	25.9854	0.5968	0.0234	-1.3844	1.9125	1.3443	9.8058	-0.8047	2.826	2.139	0.4683	-0.3242	-0.4923	10.9607	-0.0887	-0.766	10.6983	-2.0986	-8.6643	-0.8243	-0.4502	-0.5454
6.741	-1.1902	7.3338	-32.642	-2.8887	21.506	0.6149	0.0226	-1.3833	1.5148	1.2883	9.9736	-1.5246	3.3131	2.1095	0.4503	-0.3362	-0.4863	10.9543	0.0248	-1.1093	7.5628	-3.0565	-9.7766	-0.8093	-0.4885	-0.5641
7.0419	-1.1906	7.3391	-42.4192	-19.8915	17.262	0.6509	0.021	-1.3813	1.97	1.2292	9.8064	-1.8983	3.1774	1.2521	0.4623	-0.3182	-0.4983	10.337	0.3102	-0.7199	4.5051	-3.4428	-10.4257	-0.8411	-0.4707	-0.5997
6.3436	-0.9147	8.6659	-48.9198	-31.4573	13.5253	0.5958	0.0228	-1.4011	1.4487	0.6534	9.4424	-2.4009	3.5416	1.0685	0.4563	-0.3182	-0.4983	9.9941	0.538	-0.8405	1.9486	-4.64	-11.8338	-0.8255	-0.508	-0.565
6.0469	-0.1009	8.9424	-50.2301	-37.381	9.8765	0.594	0.0411	-1.4173	1.5665	0.7115	9.6206	-1.9503	3.8805	0.4493	0.4443	-0.3062	-0.4923	9.8868	0.5384	-0.4992	-0.3022	-5.6218	-13.403	-0.8409	-0.4889	-0.547
5.6832	0.1929	8.8156	-50.3012	-40.784	5.5595	0.5411	0.0636	-1.3863	1.8522	1.1711	9.6282	-0.563	3.577	-0.4482	0.4503	-0.3302	-0.4863	10.4062	0.3107	-0.0321	-1.6512	-6.8041	-15.8612	-0.8734	-0.5094	-0.5838
5.0342	-0.0485	9.5076	-50.9835	-43.1501	0.2578	0.5767	0.1003	-1.3663	1.4508	1.3443	9.6212	-0.693	3.7259	-0.9093	0.4443	-0.3242	-0.4923	10.0639	0.0835	-0.153	-2.8361	-7.6859	-18.0454	-0.8572	-0.4899	-0.5828
4.9248	-0.3475	10.0932	-51.5324	-44.9653	-4.9721	0.5579	0.0427	-1.4194	1.511	0.9421	9.7377	-1.4467	2.7871	-1.268	0.4563	-0.3242	-0.4923	9.9491	0.3111	-0.2122	-3.141	-8.5735	-19.8257	-0.8731	-0.4902	-0.5832
4.7477	0.2334	10.3163	-50.8754	-48.3863	-10.498	0.5404	0.0824	-1.3857	1.6825	1.1719	9.742	-1.7338	1.5088	-2.0577	0.4383	-0.3242	-0.4803	9.7231	0.3114	-0.1591	-2.4451	-8.9169	-21.3551	-0.8567	-0.4704	-0.5645
4.4492	-0.0011	10.4307	-49.8721	-52.3912	-14.5032	0.5393	0.0818	-1.4025	1.2246	0.8851	9.7319	-1.8592	-0.1076	-2.8155	0.4503	-0.3242	-0.4863	9.7228	0.5389	-0.1589	-1.8207	-8.7363	-21.2187	-0.8261	-0.5091	-0.6184
4.2094	0.0569	10.4841	-51.0722	-55.5965	-17.8176	0.5563	0.0805	-1.4182	1.5142	1.0004	9.9137	-2.1078	-1.6932	-3.4499	0.4623	-0.3302	-0.4863	9.8402	0.7664	0.0723	-1.515	-8.2002	-20.3938	-0.7937	-0.5074	-0.5644
3.8517	-0.0616	10.6544	-52.8673	-58.3867	-19.6393	0.5534	0.1755	-1.3985	1.4515	0.9417	9.6194	-3.5938	-3.2334	-4.4768	0.4443	-0.3362	-0.4863	9.5003	0.3119	0.0657	-0.954	-7.6068	-19.3303	-0.826	-0.5276	-0.5834
3.7268	0.1166	10.4165	-57.179	-64.0445	-21.3071	0.5048	0.123	-1.353	1.5678	0.5967	9.6787	-3.9658	-4.4394	-4.068	0.4563	-0.3422	-0.4923	9.6706	0.2548	0.0687	-0.7957	-7.0743	-18.2552	-0.8262	-0.5464	-0.5663
3.8476	-0.1754	10.4223	-61.0652	-70.5568	-22.2914	0.5011	0.1596	-1.3854	1.4558	1.0003	9.854	-3.0091	-5.9138	-4.0648	0.4443	-0.3242	-0.4863	9.609	-0.0297	-0.2187	0.4773	-6.8157	-17.1849	-0.8736	-0.5098	-0.6016
3.4949	-0.1808	10.8832	-62.4979	-77.327	-21.6206	0.4834	0.1025	-1.4218	1.5157	0.0802	9.9096	0.1279	-7.1863	-4.6902	0.4503	-0.3302	-0.4923	9.5008	-0.1431	0.0653	0.4403	-6.6445	-16.3834	-0.8425	-0.5474	-0.6021
2.5907	-0.645	10.7564	-62.5005	-83.3922	-18.2768	0.4496	0.1248	-1.3729	1.8621	1.1734	10.1554	3.7737	-7.711	-5.2616	0.4563	-0.3242	-0.4863	8.9898	0.0281	0.0561	0.8873	-6.2081	-14.9798	-0.8421	-0.5467	-0.5666
2.1687	-0.1192	10.7423	-60.8538	-86.026	-13.2802	0.4457	0.2192	-1.37	1.6317	0.5982	10.0312	7.1729	-8.3336	-6.1075	0.4443	-0.3122	-0.4983	9.7304	0.3117	0.2415	1.2239	-5.3817	-13.1702	-0.8741	-0.5477	-0.585
1.6946	-0.1237	11.1427	-58.3249	-85.3919	-5.9172	0.4102	0.1824	-1.39	1.7501	0.9441	10.2693	10.7385	-9.6376	-7.2576	0.4383	-0.3362	-0.5103	9.2748	-0.0859	0.1184	1.4596	-4.4298	-11.6331	-0.8573	-0.5087	-0.5657
0.603	-1.0494	10.6098	-54.0819	-85.024	3.2945	0.3749	0.1651	-1.3926	1.7481	0.8285	10.1516	14.8127	-11.6477	-8.4065	0.4503	-0.3302	-0.4803	8.6451	0.0853	-0.1791	1.7569	-4.1786	-10.0421	-0.8584	-0.5478	-0.6025
0.9116	-0.4721	11.0749	-50.4988	-85.5503	12.8334	0.411	0.1635	-1.3906	1.6877	0.7128	9.9743	19.3282	-12.4097	-8.8587	0.4623	-0.3182	-0.4923	9.1611	0.0848	0.1165	2.4117	-3.6	-7.9367	-0.8255	-0.508	-0.565
0.369	0.1707	11.0573	-47.7361	-85.7214	23.0977	0.3391	0.1862	-1.3774	1.4562	1.4031	9.9144	23.9505	-12.0166	-8.2736	0.4443	-0.3122	-0.4743	8.5925	0.0855	0.0488	1.7723	-2.5835	-6.6496	-0.8424	-0.5659	-0.5672
-0.3007	0.4101	10.634	-44.259	-83.1307	32.3672	0.3563	0.2042	-1.3757	1.2946	0.5428	10.3759	27.8132	-11.8392	-6.7916	0.4383	-0.3302	-0.4983	8.6442	-0.0854	-0.2364	2.5058	-2.0287	-5.0077	-0.8418	-0.5276	-0.566
-1.0778	-0.4089	10.8641	-40.6067	-78.8547	40.9637	0.3192	0.2052	-1.3946	1.6315	0.7132	10.0318	30.3746	-11.7151	-6.2543	0.4623	-0.3182	-0.4743	9.0494	0.3126	0.229	2.1282	-1.293	-3.239	-0.8738	-0.5286	-0.5844
-1.0139	0.7547	11.1424	-36.7944	-73.3795	48.231	0.3004	0.2249	-1.395	2.0889	1.2875	10.0431	29.7302	-11.3999	-4.9311	0.4503	-0.3302	-0.4863	8.4779	0.0856	-0.0105	2.0764	-0.7637	-1.9427	-0.8581	-0.5659	-0.5497
-1.0275	0.6475	10.3847	-32.7015	-68.3818	53.5777	0.2842	0.2074	-1.3799	2.0803	1.8034	9.6354	25.5068	-11.3467	-4.5379	0.4323	-0.3482	-0.4863	8.6974	0.3125	-0.4068	1.64	0.3812	-1.1215	-0.8421	-0.5467	-0.5666
-1.3365	1.1199	9.9648	-31.8917	-66.372	56.9018	0.2993	0.2243	-1.4118	1.8112	1.2901	10.5063	22.4231	-12.5147	-3.7139	0.4503	-0.3302	-0.4863	8.5275	0.0283	-0.4101	0.7826	1.2908	-0.8735	-0.8903	-0.5673	-0.5859
-1.5313	1.4798	9.198	-36.4655	-66.5711	56.9857	0.2674	0.2283	-1.3468	1.802	0.8277	9.977	21.2669	-15.9541	-3.1949	0.4443	-0.3302	-0.4803	8.8229	-0.1421	0.2245	0.4726	2.3576	-0.9786	-0.8412	-0.5265	-0.5126
-1.5187	2.2874	9.9469	-40.6946	-64.8919	54.6149	0.3004	0.2249	-1.395	1.9671	1.6313	9.691	17.6064	-18.7925	-1.8045	0.4443	-0.3302	-0.4923	9.0355	-0.2568	-0.5727	1.0475	3.8429	-0.5537	-0.8741	-0.5477	-0.585
-1.4026	2.3485	9.7147	-39.1956	-59.0816	50.0474	0.2262	0.2269	-1.4327	1.6831	1.4597	9.8019	13.9195	-21.562	0.354	0.4443	-0.3242	-0.4923	8.9218	-0.1429	-0.5747	1.8152	5.447	0.0814	-0.825	-0.507	-0.5117
-1.6968	2.8107	10.1124	-32.9933	-50.0407	44.1685	0.2293	0.2287	-1.3824	1.965	1.5732	9.5736	10.6023	-24.3284	2.4488	0.4443	-0.3362	-0.4863	9.3741	-0.4279	-0.681	2.6189	6.8658	0.8984	-0.8735	-0.5652	-0.4967
-2.0652	2.758	9.6979	-25.1616	-40.7959	37.2587	0.2308	0.1909	-1.3836	1.9205	1.1736	10.2151	10.9962	-27.9954	3.3902	0.4443	-0.3242	-0.4803	9.3209	0.0842	-0.4527	3.5945	8.0474	1.2781	-0.8571	-0.5268	-0.513
-2.4304	2.6446	9.4595	-18.7324	-32.5139	30.6532	0.27	0.1911	-1.3312	2.0301	1.5174	9.9845	13.1452	-31.7111	3.8299	0.4323	-0.3362	-0.4803	9.033	0.0844	-0.6869	4.5726	9.1364	1.7492	-0.8422	-0.5655	-0.5494
-2.971	2.6446	9.5083	-12.9382	-24.0599	25.0743	0.196	0.2126	-1.3515	2.4966	1.2309	10.4021	16.5217	-33.9996	3.4242	0.4323	-0.3362	-0.4863	9.3894	-0.1429	0.1777	5.3236	9.8949	1.9172	-0.8895	-0.5286	-0.5669
-2.904	3.048	9.9131	-6.3278	-13.6786	20.6341	0.211	0.21	-1.4008	2.1418	1.9193	9.8713	19.1473	-37.9468	5.0302	0.4323	-0.3422	-0.4743	9.2692	0.1982	-0.1675	5.5176	11.0638	1.0603	-0.8736	-0.5282	-0.5666
-3.9838	2.8137	10.0721	3.7072	-1.042	18.1373	0.2842	0.2074	-1.3799	2.9459	1.4006	9.943	21.3874	-41.5046	5.7143	0.4263	-0.3302	-0.4923	9.4984	0.1412	-0.0489	8.3869	10.8867	0.6658	-0.8746	-0.5673	-0.6034
-5.0048	3.5133	10.2205	18.1193	14.0457	16.8074	0.2672	0.2088	-1.3641	2.1935	1.285	9.5181	21.7037	-45.5031	7.6723	0.4263	-0.3482	-0.4743	9.4421	0.5962	0.0076	9.422	11.2915	0.0235	-0.9049	-0.5094	-0.5489
-5.9005	2.9848	10.5617	33.8827	31.0609	17.5629	0.3014	0.2255	-1.3782	1.8554	2.5527	9.9273	20.5872	-51.6479	9.8665	0.4263	-0.3362	-0.4803	9.8316	0.1404	-0.4433	10.1273	12.1628	-1.3119	-0.8267	-0.5844	-0.5497
-6.1484	2.8152	10.1508	45.742	41.9905	17.8972	0.2282	0.2281	-1.3991	1.9067	2.8389	9.6368	15.0303	-57.8071	12.0869	0.4143	-0.3422	-0.4743	10.0597	0.0833	-0.3819	9.9634	13.1873	-2.7123	-0.8732	-0.5275	-0.5311
-5.8809	2.488	8.2918	44.8089	40.7052	16.374	0.3061	0.1895	-1.3291	3.016	2.2666	10.7095	15.1214	-60.5567	12.2871	0.4263	-0.3542	-0.4803	9.7813	-0.0298	-0.1011	9.8247	14.7632	-4.3549	-0.8419	-0.5464	-0.5488
-5.9449	2.9572	8.1096	32.5678	39.7198	11.1859	0.2679	0.1899	-1.3647	0.476	3.1293	9.7277	25.9492	-75.6221	22.9771	0.4083	-0.3302	-0.4863	10.5118	-0.031	-0.4882	8.6658	16.5208	-5.9348	-0.8262	-0.5464	-0.5663
-6.648	2.8866	9.1489	21.8425	44.9658	2.3619	0.2308	0.1909	-1.3836	1.8808	3.134	11.3358	20.6973	-72.5511	26.3701	0.3963	-0.3542	-0.4743	10.4494	0.31	-0.7751	6.3977	18.1841	-7.2979	-0.8742	-0.5666	-0.5678
-6.9897	3.3984	10.2455	21.5129	58.6837	-6.3474	0.269	0.1905	-1.3479	1.906	3.1975	12.6834	29.6918	-60.0459	27.5644	0.4023	-0.3422	-0.4743	10.5071	0.4237	-0.7167	3.6999	18.3056	-9.398	-0.8419	-0.5464	-0.5488
-11.6815	6.1766	17.1328	101.313	86.2207	-9.6427	0.3055	0.2279	-1.3111	2.7223	1.3448	10.2313	39.1197	-60.348	21.3952	0.3903	-0.3542	-0.4623	10.9569	0.423	-0.9373	1.0435	18.4975	-12.1748	-0.826	-0.546	-0.5485
-12.0616	5.299	12.7009	116.565	127.9583	-22.7371	0.2672	0.2088	-1.3641	3.3968	2.5048	12.7089	48.2563	-63.2142	22.342	0.3903	-0.3542	-0.4683	11.6285	1.3886	-1.3819	-0.4652	17.8356	-14.8392	-0.8901	-0.5669	-0.5682
-2.0011	2.172	9.8815	115.0172	109.3685	-20.3532	0.3383	0.205	-1.3768	3.1153	2.2188	12.9364	48.675	-73.5229	24.0912	0.3903	-0.3482	-0.4743	12.1342	1.2171	-1.6588	-1.4997	17.9471	-16.2516	-0.8265	-0.5656	-0.5669
-0.4978	-1.369	12.9293	116.2246	94.5671	-26.1638	0.3443	0.1118	-1.3462	3.3465	2.9668	13.1199	56.1372	-81.6301	25.3557	0.3782	-0.3482	-0.4683	12.1447	2.0707	-1.0286	-0.2422	18.104	-18.7157	-0.8258	-0.5457	-0.5307
0.9664	-1.1514	14.0613	87.598	85.3354	-19.9769	0.3254	0.1315	-1.3466	2.8405	3.085	13.6378	62.9548	-92.299	27.8992	0.3843	-0.3542	-0.4743	13.107	2.3537	-1.1251	3.8142	16.3053	-20.6646	-0.8583	-0.5662	-0.5675
-0.5178	0.8605	11.967	66.0386	78.2861	-14.8462	0.3425	0.0528	-1.415	3.2076	2.342	14.8126	72.4006	-105.1173	29.2723	0.3602	-0.3602	-0.4743	12.3221	2.1276	-0.6248	8.6662	12.6376	-21.761	-0.8422	-0.5655	-0.5494
-0.9791	0.7722	9.7419	61.0347	71.3295	-6.969	0.3783	0.1091	-1.3776	3.8453	1.8248	15.1739	82.4095	-117.6422	28.3969	0.3542	-0.3662	-0.4683	12.3997	2.1284	0.5209	10.7624	8.8168	-22.7762	-0.8265	-0.584	-0.5319
0.0219	0.6695	8.535	62.6461	65.1271	-2.6645	0.3783	0.1091	-1.3776	4.8329	1.5963	15.8945	90.5138	-133.5622	27.1226	0.3302	-0.3843	-0.4503	12.1178	2.3563	0.6303	11.4482	5.7815	-23.3741	-0.8115	-0.6039	-0.5855
1.8048	1.7906	7.3848	65.9949	66.2273	-8.9565	0.4007	0.0528	-1.3448	5.041	1.0291	17.7698	101.4574	-149.3959	22.1433	0.3482	-0.3782	-0.4563	11.603	2.2431	0.3919	10.0144	2.0367	-23.2997	-0.7959	-0.6412	-0.5509
1.9389	1.8393	8.1454	58.5612	72.7243	-23.884	0.4185	0.0325	-1.3612	5.3549	-0.2307	19.117	114.1145	-167.8847	15.9098	0.3422	-0.3722	-0.4443	12.2306	2.0718	0.5749	4.1819	1.7804	-24.5101	-0.8422	-0.5655	-0.5494
1.5532	0.5324	10.0229	56.3996	81.7607	-34.9476	0.4564	0.0127	-1.3429	6.328	-1.0245	22.06	126.9001	-190.3319	3.2153	0.3302	-0.3843	-0.4443	12.0116	2.2999	1.0288	0.4602	1.0971	-23.5438	-0.8426	-0.5847	-0.55
0.3756	-2.2828	11.2633	64.524	88.2607	-36.231	0.4015	0.0339	-1.3454	6.3209	-3.3715	24.5087	140.5421	-218.2882	-13.8142	0.3122	-0.3903	-0.4323	12.4036	2.3561	0.75	6.8052	-0.3162	-22.6386	-0.8422	-0.584	-0.5145
-2.6194	1.2264	15.5445	68.7282	61.6176	-23.6068	0.4729	0.0496	-1.3407	5.7746	-4.8602	25.7797	148.2238	-249.2716	-40.0377	0.3182	-0.3963	-0.4263	12.5578	2.6964	-0.1051	9.7307	-3.8286	-23.922	-0.8109	-0.6029	-0.5322
-5.8669	2.3618	9.0524	52.1772	34.928	-13.7061	0.5105	0.0103	-1.3398	4.5061	-7.3204	28.1451	157.5027	-279.5021	-73.2152	0.2822	-0.3963	-0.4143	12.5093	3.6637	0.4097	12.912	-3.5785	-22.2635	-0.8108	-0.584	-0.5494
0.4575	-0.4488	9.2571	30.4831	-0.2515	-9.5529	0.4757	0.032	-1.3077	3.1876	-6.9021	31.1666	168.0536	-303.2032	-107.4789	0.2942	-0.4023	-0.3963	11.2142	2.9832	0.9003	16.0359	-0.6341	-21.7188	-0.8272	-0.6224	-0.5332
-0.2671	1.2447	9.2232	19.0074	-5.3177	-9.0574	0.4755	0.0125	-1.3251	5.4729	-6.965	30.8589	195.5957	-299.2593	-138.9615	0.2882	-0.4083	-0.3963	9.9635	2.9847	0.7629	15.541	-1.0627	-23.6742	-0.8275	-0.66	-0.4988
0.2229	1.2382	9.6988	18.8208	1.6288	-5.4292	0.4752	-0.007	-1.3425	11.9173	1.0144	30.1405	228.5422	-278.1641	-158.8736	0.2702	-0.4143	-0.3782	10.0806	3.4965	0.9943	9.3856	-4.0414	-26.0646	-0.8431	-0.6227	-0.5335
-1.1635	1.9995	9.6066	4.7869	1.0477	-2.6515	0.4716	0.0296	-1.3748	9.7677	-2.2685	28.2105	276.4663	-276.7176	-169.0513	0.2522	-0.4443	-0.3482	9.6243	2.7577	0.8137	8.9615	-7.9803	-29.4331	-0.827	-0.622	-0.5154
-0.1934	1.4102	9.9812	-0.5844	0.0384	-0.7914	0.4953	-0.0066	-1.3079	3.0632	-5.5945	27.7152	305.6086	-261.1078	-166.1826	0.2702	-0.4503	-0.3002	8.8875	2.8155	0.8574	7.4657	-12.0296	-29.3286	-0.8109	-0.6029	-0.5322
-0.6764	0.2458	9.8122	0.5559	1.7605	-0.7992	0.4358	0.0506	-1.3595	0.495	-6.3053	22.0411	382.5751	-286.0829	-145.6943	0.2822	-0.4503	-0.3062	9.0608	2.8723	1.0323	6.699	-16.404	-25.6221	-0.8749	-0.6234	-0.5341
-0.4946	0.8277	9.9249	1.0912	3.1635	0.8853	0.3869	-0.0213	-1.3315	-7.3479	-13.3335	3.2957	348.9406	-243.4937	-123.8831	0.2702	-0.4683	-0.2822	8.9413	1.8485	0.6288	9.1445	-20.2091	-21.3005	-0.8282	-0.6799	-0.535
-0.8535	0.7683	10.036	-1.3011	3.0398	2.6656	0.492	-0.0279	-1.3756	-3.9462	-7.0054	5.0879	244.7619	-150.6038	-87.15	0.2822	-0.4623	-0.2402	9.2742	2.0752	0.2346	10.7559	-21.579	-19.147	-0.8268	-0.6217	-0.4976
-0.7947	1.0024	9.9758	-6.6264	3.5011	3.6651	0.4948	-0.0456	-1.3426	-19.0251	-13.7073	-20.7635	193.6766	-57.2618	-64.7653	0.2822	-0.4863	-0.2161	9.6102	1.5059	-0.0458	15.1438	-20.4268	-14.5981	-0.8278	-0.6607	-0.5344
-0.8655	1.0682	9.39	-9.886	5.1714	5.3415	0.4023	0.015	-1.346	-7.1558	-1.0741	5.5215	-2.9171	66.6984	13.2334	0.2762	-0.4863	-0.2041	10.0019	1.8464	-0.3244	18.2309	-15.7864	-11.3653	-0.8591	-0.6603	-0.4817
-0.7326	0.3596	10.0433	-10.7887	7.2306	7.3042	0.4399	-0.0243	-1.3451	-13.4653	-11.2624	1.0208	-33.5419	148.0853	54.5722	0.2942	-0.4683	-0.2101	9.442	1.563	0.0656	17.0657	-10.9307	-10.4004	-0.875	-0.6422	-0.517
-0.6738	0.6521	9.9823	-10.9838	10.1595	7.647	0.4917	0.03	-1.3403	-15.2541	-9.6683	9.6017	-59.0673	219.3997	105.2318	0.2822	-0.4623	-0.2101	10.0582	2.1875	-0.3231	17.2917	-6.1633	-7.5113	-0.8425	-0.6217	-0.4802
-0.5587	0.5973	9.6931	-10.245	12.1543	7.2197	0.4598	-0.0434	-1.3279	-6.2153	-9.3991	9.0739	-35.5435	194.6249	120.4899	0.2822	-0.4743	-0.2281	10.41	1.4483	0.2549	15.9259	-2.473	-5.9044	-0.8421	-0.621	-0.4446
-0.8594	0.4226	9.69	-8.5355	11.6265	6.1411	0.528	0.0479	-1.3208	-4.4147	-10.1274	1.1999	-66.3574	162.077	124.6771	0.2762	-0.4623	-0.2221	10.237	2.0171	0.1378	13.0841	-0.6486	-5.7741	-0.7967	-0.6984	-0.535
-0.6756	0.4201	9.8684	-7.4703	9.3501	5.2788	0.4763	-0.0064	-1.3257	-3.3171	-8.9189	1.8121	-106.1277	146.1464	124.2063	0.2702	-0.4503	-0.2281	9.7321	2.3023	0.472	12.6627	0.186	-2.4054	-0.8591	-0.6603	-0.4817
-0.9225	0.2498	9.516	-3.9375	8.2252	5.21	0.5136	0.0121	-1.2895	-4.1383	-7.4126	3.9698	-141.816	150.9467	118.0848	0.2702	-0.4503	-0.2342	9.6782	1.7338	0.585	10.7589	0.0575	0.201	-0.8912	-0.6987	-0.448
-0.9747	0.5941	9.9777	-0.715	8.6841	5.4563	0.511	0.0492	-1.3051	-5.7221	-7.1174	5.0532	-158.3966	176.8508	109.8809	0.2462	-0.4383	-0.2342	9.905	1.9041	0.5893	9.6273	0.8765	4.6662	-0.8283	-0.7172	-0.4829
-0.2551	0.1868	9.8204	0.3533	10.0714	5.0117	0.4922	-0.0084	-1.3582	-5.0097	-6.8251	6.4151	-166.2539	208.881	102.7885	0.2402	-0.4443	-0.2642	9.2348	1.5642	1.1488	8.4329	0.4463	9.2154	-0.8595	-0.661	-0.5173
-0.7904	0.1832	10.1612	7.7228	10.7665	2.7507	0.477	-0.0253	-1.3263	-3.7909	-6.3056	7.3192	-171.4967	229.9023	92.488	0.2522	-0.4203	-0.2822	9.4491	1.734	0.4663	7.4198	-0.4549	12.6491	-0.8115	-0.6781	-0.4636
-0.2602	0.8318	9.5787	8.8531	10.6295	1.7801	0.5092	-0.0098	-1.3739	-3.1708	-6.194	6.8046	-183.1912	238.1132	81.1955	0.2582	-0.4383	-0.2942	9.7375	1.3357	0.7002	7.8248	-0.8811	14.7844	-0.8114	-0.6593	-0.4807
-0.4968	0.9459	9.8066	7.1162	10.4612	1.3677	0.5113	-0.0086	-1.3404	-2.5392	-5.6769	6.9362	-200.2309	241.072	69.413	0.2462	-0.4143	-0.3242	9.2809	0.8812	0.5198	6.9879	-0.9404	16.8062	-0.8747	-0.6415	-0.4814
-0.8577	0.7713	9.8024	6.4638	10.4869	0.9767	0.4744	0.0119	-1.3419	-2.0447	-4.9212	8.9401	-217.8715	244.7018	57.3232	0.2642	-0.3963	-0.3302	8.7682	0.7111	0.3958	7.0212	0.0818	19.8245	-0.8594	-0.6795	-0.4823
-1.0376	0.2462	9.8059	5.8265	12.4004	1.9796	0.5134	-0.0074	-1.3069	-2.0797	-3.7652	10.233	-229.579	251.0349	46.8734	0.2462	-0.4023	-0.3422	8.1965	0.7116	0.1565	6.1681	1.1433	22.2244	-0.8429	-0.6224	-0.5157
-1.2734	0.5347	10.09	5.1945	14.5885	3.0498	0.5278	0.0284	-1.3382	-1.3719	-2.6685	11.4227	-233.5762	257.6175	38.0984	0.2582	-0.3963	-0.3602	8.1434	1.1668	0.3847	5.0154	1.5439	24.0134	-0.8738	-0.5843	-0.4974
-1.3315	0.5333	10.2057	5.0469	16.5702	3.5252	0.5283	-0.01	-1.3561	-1.1816	-2.4918	12.4226	-232.4835	262.8406	30.3775	0.2822	-0.3782	-0.3782	7.6972	0.7127	0.7766	4.6955	2.418	24.6137	-0.8428	-0.6408	-0.4808
-1.3371	0.7705	9.9108	5.5908	19.2921	3.9772	0.4567	0.0321	-1.3256	-0.4244	-1.3395	13.2036	-230.4269	265.2109	23.8975	0.2882	-0.3662	-0.3903	7.4721	0.8837	0.8871	4.4606	3.2348	24.9653	-0.8596	-0.6799	-0.5001
-0.9704	0.5329	10.212	7.0477	22.8156	4.8042	0.4945	0.0123	-1.3073	-0.2859	-0.5285	14.5568	-231.4663	267.5053	19.2801	0.3002	-0.3782	-0.4083	6.952	0.8271	0.3625	4.4452	3.6847	25.4302	-0.8588	-0.6412	-0.4811
-0.8943	0.5218	11.0891	11.0856	28.3439	7.057	0.5278	0.0284	-1.3382	-0.6721	-0.8121	15.3094	-233.1435	274.4172	16.6674	0.3182	-0.3422	-0.4323	6.4937	0.8843	0.1253	5.3617	4.5746	24.9183	-0.8435	-0.6607	-0.5169
-1.5048	-0.1128	10.561	16.5742	34.041	8.9569	0.4786	-0.063	-1.3275	-0.1286	-0.3461	16.8444	-238.215	283.4059	15.1378	0.3062	-0.3362	-0.4323	6.8984	0.7704	0.5332	7.6278	4.4203	25.0644	-0.8904	-0.623	-0.4989
-1.5171	-0.3958	9.8639	24.3905	39.0493	12.9655	0.5301	-0.0283	-1.34	-0.051	-0.6291	17.8987	-247.3095	288.0101	15.1331	0.3422	-0.3302	-0.4443	5.8758	0.7716	0.4572	10.1233	4.1077	25.6324	-0.8741	-0.622	-0.463
-1.7582	-0.1037	9.856	32.2177	44.6374	17.1095	0.5677	0.0097	-1.2864	0.3267	0.1262	19.7832	-256.0069	287.7867	17.2752	0.3662	-0.3062	-0.4443	6.3319	0.828	0.58	13.47	4.4877	24.5829	-0.8586	-0.6223	-0.4983
-2.4852	0.2504	9.6053	35.5605	52.0191	26.6384	0.533	-0.046	-1.307	0.6859	0.0853	23.6547	-258.1281	287.4283	20.8854	0.3602	-0.2882	-0.4563	5.2607	0.9434	0.9609	17.7049	5.0266	25.1979	-0.8894	-0.584	-0.4621
-2.8998	-0.7449	9.9023	36.3703	58.5447	37.4723	0.5306	0.0107	-1.3052	2.2645	1.586	25.5072	-255.1237	285.4321	25.4895	0.3903	-0.2762	-0.4503	5.5417	0.6586	0.7942	22.2087	4.8243	26.5671	-0.8577	-0.6021	-0.4443
-1.7631	-0.3919	9.5676	32.1727	66.3433	45.9978	0.5881	-0.0477	-1.2871	3.8442	3.087	27.4182	-250.5559	275.3998	34.8344	0.3963	-0.2582	-0.4743	5.6568	1.0566	0.9111	25.6604	5.3672	26.8983	-0.8902	-0.6596	-0.4113
-2.0621	1.2398	9.7754	21.2452	70.7903	51.3366	0.6224	-0.031	-1.3012	6.3235	5.5605	28.5311	-245.514	261.5684	47.2116	0.4143	-0.2462	-0.4803	6.056	0.3169	0.975	28.079	4.696	27.005	-0.9054	-0.6216	-0.4104
-3.3202	0.8876	10.0496	22.7228	74.1244	60.2169	0.5884	-0.0283	-1.2698	9.4957	8.1492	29.9506	-243.8766	248.5699	59.8811	0.4383	-0.2221	-0.4923	6.0612	0.3171	1.2612	30.4234	3.0552	26.7988	-0.8582	-0.6401	-0.4278
-0.6139	1.5851	10.03	35.9721	76.4469	62.2845	0.6085	-0.1052	-1.2879	11.7416	11.8303	30.9473	-228.5825	238.7975	78.5995	0.4743	-0.2161	-0.4683	6.1154	0.715	1.1481	33.2044	0.3	25.7719	-0.8572	-0.5641	-0.4609
-1.304	1.3306	11.7722	45.7145	72.1467	55.6412	0.6083	-0.1246	-1.3052	13.4833	15.9618	29.5355	-196.0115	226.4224	100.7992	0.4923	-0.1801	-0.4623	6.8536	1.226	1.2193	34.2421	-2.1322	23.4478	-0.8418	-0.6203	-0.4091
0.1319	4.4832	11.5244	47.0332	65.7803	41.4011	0.5925	-0.1032	-1.2554	18.4243	18.3461	24.4882	-143.611	205.3186	119.862	0.5043	-0.1741	-0.4503	7.7035	2.3623	1.2358	27.4842	-3.9642	17.4901	-0.8415	-0.5826	-0.4434
0.7645	4.4028	13.2293	63.7027	57.6973	15.2753	0.6454	-0.1256	-1.2864	40.6251	6.365	16.1356	-71.6281	192.6745	113.5502	0.5043	-0.1681	-0.4503	8.035	3.7833	0.8425	11.8476	-5.3792	7.9297	-0.8733	-0.5833	-0.444
-1.7327	3.6686	11.5019	61.5105	68.9919	-2.1665	0.6827	-0.1071	-1.2502	50.1876	19.0086	5.0163	-84.4497	126.7265	70.7972	0.5223	-0.1621	-0.4323	9.3707	4.0649	-0.5631	3.9594	-4.8352	10.3517	-0.9046	-0.5644	-0.4263
0.2761	4.8164	12.8653	56.9704	77.4156	-18.1035	0.6642	-0.1453	-1.286	39.7372	30.7003	4.6927	-81.6824	26.7021	44.4209	0.5404	-0.1801	-0.4323	10.8443	4.8592	-0.5926	-4.3143	-2.926	15.2234	-0.8736	-0.6025	-0.4446
-0.0337	5.9308	12.4373	55.4051	86.9062	-40.6052	0.6812	-0.1467	-1.3017	31.3724	28.5552	10.4366	-34.2933	-84.5845	72.4987	0.5283	-0.1861	-0.4323	12.4074	3.0931	-2.11	0.4856	-2.8	19.1674	-0.8887	-0.5641	-0.426
-0.4929	5.8577	13.656	50.6136	102.0802	-64.5116	0.7023	-0.1457	-1.2503	24.9311	23.3077	17.6673	36.9708	-112.0441	84.0168	0.4923	-0.1741	-0.4203	12.1596	-1.2866	-3.5484	-7.0214	-0.9	26.8119	-0.889	-0.5833	-0.4266
-1.0029	4.3788	15.2999	53.2655	118.2426	-81.2935	0.7034	-0.1451	-1.2336	20.0587	18.1372	16.9647	127.3524	-83.8868	85.4396	0.5283	-0.1801	-0.4263	9.8453	-1.2832	-2.9043	-27.9025	3.8182	18.3183	-0.9201	-0.5641	-0.3911
-2.1659	2.4281	17.4053	62.9271	139.2896	-82.588	0.7583	-0.1664	-1.2311	20.7831	8.6819	11.9584	165.9157	-68.2118	75.8368	0.5043	-0.1801	-0.4143	9.2459	-0.3146	-1.4843	-27.7197	6.3432	9.8832	-0.8894	-0.6024	-0.4272
-3.2862	0.8975	18.5722	72.373	162.6778	-75.8637	0.7588	-0.1274	-1.1963	41.2713	-18.3925	36.0042	261.178	-127.6288	-76.2625	0.4983	-0.2041	-0.4203	10.9674	-0.4865	-0.4229	-21.73	4.7388	11.3812	-0.9058	-0.6038	-0.4808
-2.2879	1.3382	20.5689	78.2565	187.8941	-70.039	0.7606	-0.1457	-1.1801	7.7277	-14.5924	49.5477	244.1337	-216.148	-17.5379	0.4983	-0.1921	-0.4203	13.8	1.9553	-0.4834	-27.8086	5.5603	5.0248	-0.9056	-0.6035	-0.4631
-0.112	3.9695	24.6017	89.3345	220.6133	-72.451	0.818	-0.1268	-1.1094	-9.3274	-7.7601	14.2918	277.1186	-236.6241	-36.4444	0.5043	-0.2281	-0.4083	19.249	6.5553	-0.0364	-21.1224	14.8404	20.17	-0.9039	-0.5446	-0.3901
-1.1357	-0.2102	27.6131	115.3013	258.1405	-73.5308	0.8528	-0.1485	-1.1414	-0.1833	15.2803	0.1665	202.0284	-199.9495	-9.1524	0.4803	-0.2342	-0.4263	19.0831	-0.4396	-0.2738	-3.8392	23.9239	57.6074	-0.889	-0.5833	-0.4266
-2.4869	-6.5868	29.0118	121.1258	299.6873	-57.9706	0.8781	-0.2224	-1.0757	6.3896	15.5667	2.5193	131.0307	-187.2777	43.5241	0.4803	-0.2582	-0.3963	12.8074	1.2753	1.0426	-52.9346	25.4908	16.2602	-0.9041	-0.5449	-0.4079
-1.6818	-8.4527	33.4856	119.3544	345.6522	-25.8269	0.9131	-0.1473	-1.0377	1.5499	2.0309	8.865	84.0033	-160.0946	57.7151	0.4503	-0.2642	-0.4143	11.0788	2.1294	-0.3616	-30.0346	17.1364	19.2874	-0.8887	-0.5641	-0.426
2.2223	-12.5755	36.1742	119.2764	396.0818	19.1864	0.9379	-0.1828	-0.954	0.7755	-3.356	12.8662	78.4309	-153.9323	48.1523	0.4443	-0.2702	-0.4083	12.6102	1.6181	2.6984	-34.6207	16.5039	8.1737	-0.9044	-0.5456	-0.4435
6.7797	-14.2443	38.5517	124.2412	440.9688	64.8466	1.0291	-0.1862	-0.9321	1.3859	2.6084	9.3329	93.954	-157.9295	17.5976	0.4383	-0.2762	-0.4083	12.7063	1.8472	4.8745	-12.4244	11.8349	11.0673	-0.8887	-0.5456	-0.4609
8.9036	-10.0194	36.493	138.2738	451.8722	112.6993	1.0521	-0.2035	-0.8645	3.0078	2.6098	10.301	97.955	-159.9951	-5.5532	0.4383	-0.2582	-0.4083	11.5354	0.4821	2.7922	6.6766	1.8207	19.5415	-0.8716	-0.4874	-0.441
1.0315	3.3017	31.2262	167.7441	439.2682	167.4744	1.1738	-0.2778	-0.693	4.4579	1.1428	17.2321	103.1511	-122.1472	-35.2451	0.4383	-0.2762	-0.4143	11.4933	2.5277	0.619	-5.2132	10.5651	-0.2205	-0.873	-0.5641	-0.4434
-4.9313	5.6865	27.706	233.3942	371.9424	148.5188	1.1413	-0.3128	-0.6627	9.8821	-0.1061	10.1281	76.7526	-39.2823	-28.4858	0.4263	-0.2762	-0.4083	10.1857	4.406	0.5964	-3.9272	16.6796	-6.3557	-0.8725	-0.5261	-0.46
-12.7454	4.4488	24.724	363.9824	269.0799	119.1195	1.2029	-0.2915	-0.5248	4.6707	5.7582	7.6536	89.1936	-3.2288	-3.2084	0.4203	-0.2762	-0.4023	10.1828	5.0315	0.4825	-10.8375	27.1382	-3.2998	-0.905	-0.5651	-0.4618
-4.9621	1.9012	22.4411	522.9997	333.4697	22.8452	1.2589	-0.3895	-0.5582	0.4318	1.2339	10.2453	52.8874	2.1637	7.943	0.4203	-0.2822	-0.3963	11.3072	4.404	-0.1267	-7.9354	36.4851	-5.5243	-0.8573	-0.5457	-0.4958
17.0699	-30.3254	-15.5263	275.2744	169.1049	7.225	1.1937	-0.4016	-0.4623	3.3544	0.8839	10.2999	58.5463	-8.4876	-15.9337	0.4383	-0.2762	-0.3963	11.6302	3.3792	-1.1515	-10.6185	38.2894	-10.3462	-0.9209	-0.5655	-0.4622
34.074	-20.8907	-6.2399	5.6829	3.4272	95.3101	1.1798	-0.3985	-0.3962	1.1264	2.9469	7.7484	45.4437	-6.179	-12.6749	0.4203	-0.2822	-0.3903	12.1414	3.0373	-1.1423	-15.47	37.2106	-17.9229	-0.9043	-0.5268	-0.4606
-17.6154	-6.6436	-2.3651	-29.9449	16.7395	105.2416	1.2285	-0.346	-0.4417	1.6202	1.516	9.5082	27.2559	1.719	-1.4608	0.4323	-0.2702	-0.4023	11.7184	2.4136	0.5086	-14.5974	30.3899	-24.2111	-0.9202	-0.5271	-0.4609
16.2107	-11.5374	7.9801	-109.4591	-82.0772	60.0877	1.1973	-0.4382	-0.4299	1.8339	2.2024	8.7541	19.5624	-3.5107	-9.8349	0.4323	-0.2942	-0.4143	12.1184	2.6976	0.6878	-13.967	18.8628	-22.7856	-0.873	-0.5272	-0.5133
22.6849	-9.6623	6.7862	-123.5098	-128.911	25.5422	1.2292	-0.3649	-0.4423	1.5016	1.918	9.332	5.844	-4.0219	-6.5249	0.4323	-0.3002	-0.4023	11.8361	2.3568	0.7395	-10.7752	6.5359	-18.5852	-0.8731	-0.5645	-0.4612
15.3946	-7.0067	9.7185	-83.1314	-154.8622	-6.0354	1.2079	-0.3853	-0.511	1.2745	2.034	9.4453	-1.6172	-6.7514	-5.8503	0.4143	-0.2882	-0.4023	11.1999	1.8452	0.0409	-6.5497	-2.4894	-15.3421	-0.9043	-0.5083	-0.4956
11.1167	-8.2389	5.9814	-78.1709	-164.5164	-29.9876	1.1556	-0.4013	-0.4979	1.5053	1.6888	9.5067	-10.1742	-10.0463	-4.92	0.4083	-0.2942	-0.3963	10.761	1.4483	0.8335	-4.3303	-10.1321	-12.9805	-0.8886	-0.5268	-0.4781
9.9441	-7.9425	1.0539	-88.1434	-174.7997	-42.6945	1.1852	-0.3486	-0.5611	1.8023	1.3455	10.0379	-14.9239	-12.5282	-3.894	0.4083	-0.2882	-0.3963	10.3002	1.0505	0.4242	-3.2655	-14.4168	-9.1747	-0.8562	-0.5251	-0.4241
7.6126	-7.0756	1.936	-123.0662	-194.5347	-48.8346	1.146	-0.3488	-0.6135	1.8064	0.1958	10.1499	-17.4519	-15.3661	-3.6779	0.4203	-0.2942	-0.4083	9.4955	0.8235	-0.1629	-4.181	-15.931	-7.5615	-0.8725	-0.5261	-0.46
6.0663	-6.6782	2.9546	-144.8616	-206.8724	-46.0912	1.1261	-0.3297	-0.6307	2.0351	1.1734	10.2173	-16.0846	-17.5543	-4.3797	0.4143	-0.2882	-0.4023	8.7543	0.1987	-0.4058	-4.8546	-15.9942	-5.268	-0.8882	-0.5076	-0.4775
5.2906	-6.157	3.343	-158.0778	-224.878	-35.2747	1.0718	-0.3468	-0.6512	1.5624	1.8037	9.5083	-17.2112	-18.9381	-2.3367	0.4203	-0.2882	-0.3903	8.7515	0.7673	-0.5199	-6.1791	-15.4013	-2.0278	-0.8882	-0.5076	-0.4775
4.176	-4.8928	5.0003	-173.3136	-244.4222	-20.2837	1.0671	-0.3108	-0.7003	1.9756	1.173	10.099	-18.2192	-20.2631	-0.7558	0.4143	-0.2882	-0.4023	8.5831	0.0851	-0.4663	-6.4818	-14.1087	-0.9022	-0.8886	-0.5268	-0.4781
3.2731	-4.0752	5.0326	-188.7643	-263.4602	-3.0646	1.0434	-0.2747	-0.7673	2.1477	0.3673	10.0401	-17.2585	-21.7324	-0.1995	0.4203	-0.2942	-0.4023	8.3045	0.0857	-0.1853	-7.044	-11.4698	-0.2804	-0.9199	-0.508	-0.4603
3.0379	-2.7377	5.4203	-207.7416	-277.663	11.9662	0.9869	-0.2929	-0.8213	2.8355	0.1936	10.0526	-13.3561	-21.9948	-2.7407	0.4143	-0.2882	-0.4023	7.9681	1.0531	0.0953	-7.9066	-8.9411	1.6707	-0.9206	-0.5278	-0.4965
3.0192	-1.367	7.796	-221.6677	-284.2552	25.4686	0.9661	-0.2745	-0.8553	2.6634	-0.324	9.9883	-6.1596	-22.1661	-5.7626	0.4203	-0.2882	-0.4083	7.579	1.1677	0.546	-7.5308	-7.2653	3.6702	-0.9042	-0.5637	-0.3907
3.0575	-0.7521	9.9487	-224.2022	-283.1186	32.2602	0.9282	-0.2546	-0.8735	2.8482	0.4842	10.7568	2.3605	-23.8441	-9.3056	0.4143	-0.2882	-0.4023	7.2406	1.1113	0.6541	-6.3744	-7.0408	4.9894	-0.9046	-0.546	-0.4612
4.1594	0.3414	11.0634	-217.4611	-283.1767	33.0662	0.8516	-0.196	-0.9094	3.0135	0.4824	10.4086	14.1114	-26.7292	-13.1984	0.4083	-0.2822	-0.4023	7.0665	0.827	0.4219	-3.7602	-7.4424	5.3996	-0.9204	-0.5275	-0.4787
4.0004	0.0936	12.2311	-208.0542	-286.1905	30.6377	0.831	-0.158	-0.9261	2.7078	1.4564	9.4702	21.0114	-28.8439	-12.1201	0.4203	-0.2882	-0.4143	7.4625	1.0539	0.3721	0.0421	-7.7416	7.1578	-0.919	-0.4693	-0.4413
3.234	0.7249	13.1437	-203.4935	-291.9869	24.0888	0.7949	-0.1564	-0.9281	2.5391	2.2054	9.7046	21.3272	-30.6978	-12.2953	0.4143	-0.2762	-0.4023	7.402	0.7126	0.1419	3.0053	-8.176	9.8619	-0.9192	-0.4696	-0.4591
3.0613	0.4282	13.553	-208.2439	-301.6029	16.3438	0.7735	-0.0996	-0.9442	2.0186	2.4353	9.4614	19.9674	-31.9153	-12.0342	0.4023	-0.2942	-0.4023	7.6702	0.6547	-0.7114	6.7956	-7.5393	12.1502	-0.9195	-0.4888	-0.4597
1.8899	-0.0008	15.2889	-220.1994	-305.9692	8.4032	0.7129	-0.043	-1.0126	2.067	2.4907	8.9941	13.3712	-33.9663	-9.2178	0.4143	-0.2942	-0.4023	6.9441	0.4286	-0.0956	9.7806	-7.3453	13.4759	-0.8873	-0.4874	-0.4235
1.0137	-0.951	16.6863	-234.1405	-301.2221	2.9301	0.6412	-0.0008	-0.982	2.7132	0.8824	9.702	6.6972	-36.4519	-9.7477	0.4083	-0.2882	-0.3903	7.2207	0.3711	-0.4911	10.7129	-7.4075	13.5704	-0.9352	-0.5073	-0.4073
0.011	-0.3806	17.829	-249.2115	-291.6786	2.8647	0.5866	-0.0374	-1.0198	4.1379	0.1877	9.2577	-1.4335	-42.3463	-12.7069	0.3903	-0.2822	-0.3963	6.7768	0.5996	0.0731	7.8837	-7.0214	14.242	-0.9197	-0.4891	-0.4775
-1.8649	-0.646	20.5428	-262.5278	-279.6911	7.1666	0.5799	-0.0026	-1.1025	2.9553	0.3672	10.3484	-2.7826	-48.6498	-17.2091	0.4023	-0.2702	-0.3903	6.4304	0.3154	-0.2768	5.7804	-5.7881	15.2672	-0.9354	-0.5076	-0.4251
-2.6705	0.1458	22.6201	-267.9447	-273.0758	13.252	0.5801	0.0942	-1.0325	2.1244	2.4466	12.04	10.4355	-48.335	-17.8724	0.4023	-0.2702	-0.4143	6.55	0.4293	0.0688	4.5468	-3.9767	16.3019	-0.919	-0.4877	-0.4064
-3.2292	0.2916	25.0017	-263.5249	-272.4866	21.3284	0.4907	0.0792	-1.0382	2.1033	2.4992	10.9273	9.6424	-52.1535	-15.2946	0.3963	-0.2882	-0.3843	6.6542	0.315	-0.4443	2.7836	-1.0827	16.132	-0.8714	-0.5056	-0.3883
-4.3882	1.545	27.5339	-254.9076	-276.2308	29.9963	0.5043	0.1339	-1.069	1.6016	3.4239	11.7416	27.4921	-47.5739	-11.4935	0.3963	-0.2882	-0.3963	7.0031	0.3149	0.0198	1.6801	1.5777	15.2645	-0.9349	-0.4696	-0.4416
-6.2928	2.2325	28.7177	-256.6381	-273.8194	40.7112	0.4693	0.1361	-1.0542	2.1204	2.8484	11.8661	24.7688	-56.5685	-1.5295	0.4023	-0.2822	-0.4083	7.4994	0.2568	-0.7721	0.9096	3.937	14.1695	-0.9185	-0.4497	-0.4229
-9.3336	5.1904	30.4367	-268.8935	-257.665	45.3668	0.4496	0.1746	-1.0541	1.8893	2.6757	11.7438	27.4946	-65.3913	7.6337	0.3843	-0.2822	-0.4083	8.3502	0.6539	-0.7562	-0.8613	6.424	14.7954	-0.8721	-0.507	-0.4594
-12.4435	9.3207	31.7311	-278.7238	-230.5458	37.436	0.452	0.118	-1.0559	2.0086	3.7698	12.1024	26.6616	-73.7272	16.5694	0.3903	-0.2702	-0.3963	8.2972	0.1422	-0.5859	-1.7004	8.3773	16.5568	-0.8716	-0.469	-0.4759
-15.523	12.7719	31.3419	-258.3322	-201.001	12.5403	0.411	0.2134	-1.0718	1.8425	3.6564	12.3914	27.8891	-82.645	27.1563	0.3782	-0.3002	-0.4023	8.1155	0.9382	-1.1607	-1.6685	9.3217	16.502	-0.9513	-0.4895	-0.4604
-21.2278	11.8209	28.5685	-212.8046	-175.1471	-13.0584	0.3958	0.1965	-1.0398	2.4891	3.0838	13.2211	30.0929	-94.1245	37.2615	0.4023	-0.3002	-0.3963	9.1483	1.1649	-0.5123	-0.0208	9.1782	11.6275	-0.8874	-0.4689	-0.4585
-30.7978	9.7015	21.5975	-164.3356	-162.3506	-17.7566	0.4094	0.2512	-1.0706	3.4254	2.569	14.2322	34.9246	-111.0426	45.0789	0.3843	-0.2942	-0.3903	10.0558	1.5618	-0.4953	3.5175	7.0372	5.9429	-0.9183	-0.4494	-0.4052
-40.4466	13.4841	13.9674	-161.6548	-143.5177	7.621	0.3383	0.2549	-1.0579	3.6228	1.7693	15.5207	43.4531	-133.4339	49.1269	0.3782	-0.2942	-0.4083	11.4287	2.9824	0.2176	10.4637	5.3377	-0.8235	-0.8877	-0.5066	-0.4241
-41.264	24.2795	9.3815	-174.4714	-78.1669	16.8258	0.354	0.2335	-1.1078	3.8232	2.5236	17.109	59.3743	-152.6702	48.5333	0.3782	-0.3062	-0.4023	11.4957	4.0065	0.849	19.671	4.8099	-10.7827	-0.9344	-0.4501	-0.4233
-37.3353	32.2676	14.1952	-154.9607	31.4069	-5.9537	0.2978	0.312	-1.0918	2.9098	2.5259	17.2672	74.8013	-174.7913	47.7138	0.3362	-0.3002	-0.3903	12.3479	4.1192	0.922	32.3644	8.7715	-19.6737	-0.9187	-0.4501	-0.4407
-31.6895	30.0859	20.1589	-64.4755	109.8477	-39.033	0.3359	0.3116	-1.0562	1.9802	3.6176	16.6686	85.1376	-193.711	47.5813	0.3302	-0.3002	-0.3782	11.8614	2.1304	2.1129	34.0641	13.7722	-20.2991	-0.9036	-0.5069	-0.4245
-26.5798	19.8795	19.2676	38.4495	124.6643	-55.473	0.3195	0.2746	-1.0584	1.6655	4.0277	18.2455	97.4576	-213.7037	49.6566	0.3362	-0.3062	-0.3963	11.8101	1.0501	2.34	28.2547	14.4251	-12.7142	-0.8865	-0.4303	-0.4395
-22.7234	15.7897	19.3282	107.6965	111.5999	-64.4989	0.321	0.3141	-1.0069	2.728	0.5237	19.5969	108.3278	-236.0255	49.2031	0.3122	-0.3062	-0.3903	11.1112	0.3108	1.2967	20.1985	13.0114	-7.4756	-0.9033	-0.4693	-0.4588
-22.7399	8.496	14.6329	162.4309	78.5871	-56.6761	0.371	0.3094	-1.0709	4.7382	-3.0457	19.5609	114.1014	-261.9378	37.8902	0.3002	-0.3062	-0.3843	10.4307	-0.0864	1.2839	5.6357	11.3683	-3.212	-0.9353	-0.4888	-0.4423
-6.5704	13.9283	40.7074	413.9193	-23.4159	-20.1896	0.3537	0.2913	-1.0725	5.3164	-6.1963	22.6027	105.1373	-300.4794	12.7258	0.2942	-0.3182	-0.3542	10.5511	-0.5981	1.629	-3.5106	9.608	2.8552	-0.9349	-0.4696	-0.4416
11.1984	-1.2318	24.2236	321.0131	7.7491	-59.4964	0.3891	0.2313	-1.1225	5.3376	-9.0545	26.5136	97.3842	-338.8016	-22.9224	0.2762	-0.3182	-0.3542	10.4314	1.0511	1.3993	-16.9348	8.5151	2.695	-0.9195	-0.4888	-0.4597
31.4108	-13.0547	29.922	304.7224	122.8317	-105.6635	0.3509	0.1544	-1.2108	4.2318	-10.6406	31.5211	89.3282	-381.4783	-70.0277	0.2762	-0.3122	-0.3662	11.5913	4.1193	-0.1217	-32.979	10.7617	-7.5004	-0.9505	-0.4692	-0.4064
17.2672	11.7693	1.3441	196.31	252.684	-158.8404	0.3904	0.0967	-1.1937	5.175	-6.754	39.4036	102.3449	-410.0924	-121.9384	0.2522	-0.3242	-0.3362	15.2391	7.0704	-2.1121	-12.974	2.3121	-21.1961	-0.9026	-0.4309	-0.4576
-16.8179	20.258	6.8261	116.8093	267.99	-150.3135	0.3718	0.1359	-1.1768	10.8163	3.1252	38.7955	149.3724	-412.5834	-148.2437	0.2522	-0.3362	-0.3182	14.967	5.2514	-1.6036	2.8376	-31.3098	-2.5785	-0.9347	-0.4693	-0.4239
-14.3094	3.6255	11.3982	126.5616	226.8696	-84.3462	0.4267	0.1146	-1.1743	8.661	-0.7479	33.4663	225.7122	-411.1415	-153.7977	0.2522	-0.3422	-0.3122	8.6985	2.8149	-0.1759	-1.2483	-30.4905	-4.5392	-0.919	-0.4508	-0.4763
-2.9939	-3.645	17.8171	125.3209	158.6923	-28.3924	0.4842	0.0562	-1.1562	3.6537	-12.7832	27.9869	240.8672	-428.5591	-166.2203	0.2281	-0.3482	-0.3002	9.7187	3.0411	-0.2142	-11.8392	-27.6475	-9.6693	-0.9183	-0.4494	-0.4052
-0.6467	2.3658	8.2685	117.0184	132.812	-7.9678	0.4659	0.0375	-1.1746	7.795	-9.984	38.3268	272.9282	-419.8704	-208.1588	0.2342	-0.3722	-0.2702	10.8395	3.6647	-0.9369	-11.5526	-46.8823	-13.7037	-0.9508	-0.4884	-0.407
-2.7123	2.6152	7.1784	66.4009	97.7059	-13.8143	0.4871	0.0385	-1.1233	6.0995	-5.383	24.7295	291.8309	-446.3514	-188.2462	0.2402	-0.3542	-0.2342	10.1081	1.8459	-0.7229	-6.0205	-47.3924	-12.091	-0.9176	-0.4111	-0.4039
-5.893	1.4053	10.8735	45.4416	67.6241	-12.3586	0.5046	-0.0012	-1.1569	-8.3101	-15.1127	3.7376	178.8517	-381.4471	-156.8934	0.2342	-0.3903	-0.2221	10.3948	2.8694	-0.488	-10.5693	-46.7726	-14.9922	-0.9344	-0.4501	-0.4233
-4.4691	-1.3812	9.5909	39.576	32.7789	-19.0072	0.525	0.0186	-1.105	-7.0203	-9.5372	-9.3879	73.154	-223.2299	-161.7595	0.2582	-0.3843	-0.1801	12.1963	2.8666	-1.2559	-3.8337	-44.9473	-10.7233	-0.949	-0.3737	-0.4211
-1.835	-0.3837	8.9242	51.9579	21.1737	-18.7993	0.5221	0.0363	-1.138	-12.9035	-5.2519	-5.0898	-31.5668	-36.6927	-146.9303	0.2281	-0.4083	-0.1861	12.614	2.2982	-0.1616	4.7514	-39.9532	-13.1527	-0.9499	-0.4682	-0.3531
-1.1516	0.242	10.1541	55.4616	17.0904	-19.916	0.5397	-0.0034	-1.1717	-9.9576	-4.4796	14.5873	-77.8217	81.6549	-164.0693	0.2402	-0.3903	-0.1681	11.4389	2.3004	0.7322	6.9936	-34.1257	-16.3691	-0.9335	-0.4299	-0.3693
-2.7913	0.1961	9.3087	57.7723	14.2295	-10.2272	0.4683	-0.0191	-1.1764	-21.2679	-5.6438	6.9278	-61.2621	206.6771	-96.4817	0.2642	-0.4023	-0.1861	11.6128	2.6984	0.9646	6.2412	-29.9585	-11.9804	-0.9185	-0.4682	-0.388
-0.6228	1.1832	9.5095	47.1533	9.7032	-5.5175	0.5263	-0.0386	-1.1235	-15.3302	-4.3794	9.0971	-54.7694	223.2957	-55.7306	0.2702	-0.3963	-0.2041	11.897	2.3569	0.9695	7.5639	-23.6433	-8.835	-0.9493	-0.4114	-0.3868
0.4724	-0.5174	10.0755	42.3183	5.7941	-9.7241	0.5203	0.0546	-1.1541	-7.2489	-4.0032	6.3848	-61.222	162.4912	3.0487	0.2702	-0.3903	-0.1981	11.9598	1.6746	1.2562	7.6038	-15.0654	-4.2812	-0.9818	-0.4504	-0.3887
-1.0951	0.6527	9.9749	41.0013	5.6399	-5.5284	0.5394	-0.0229	-1.189	-6.4871	-2.3015	1.3712	-79.2887	125.3226	44.3113	0.2762	-0.3903	-0.2161	12.1809	1.4466	0.9168	5.9428	-8.2722	-0.4591	-0.9656	-0.4682	-0.3357
0.8927	0.9404	10.1229	36.5282	6.5327	-3.4846	0.5044	-0.0207	-1.1743	-10.6571	-3.845	1.8111	-97.9034	159.9193	81.1911	0.2822	-0.3843	-0.2101	11.6685	1.049	0.7926	4.3972	-4.5238	1.3379	-0.9657	-0.4497	-0.3706
-2.2648	-1.0769	8.4	39.8388	4.7445	-5.9945	0.5232	-0.0404	-1.1739	-9.0119	-4.6435	3.9472	-100.7767	202.4154	106.3773	0.2702	-0.3903	-0.2101	11.0493	1.1638	1.0674	4.7501	-2.0739	4.5427	-0.9817	-0.4689	-0.3537
-1.3883	-0.3435	10.3324	35.728	9.2479	-4.5228	0.5765	-0.0239	-1.1702	-7.2339	-5.7393	3.9764	-101.3652	237.1411	118.3789	0.2702	-0.3903	-0.2342	10.9338	1.0501	0.9508	4.6147	-0.7245	8.0911	-0.9331	-0.4292	-0.3338
-1.2305	0.0218	9.1048	35.0981	9.2774	-5.7137	0.5227	-0.002	-1.1559	-5.4108	-6.7804	3.3626	-115.9166	260.7716	119.6455	0.2762	-0.3782	-0.2342	10.9838	0.5948	0.5508	5.0607	-0.3455	13.5195	-0.9649	-0.4483	-0.2995
-2.061	0.4227	9.7857	29.7694	10.8343	-3.8292	0.5258	-0.0776	-1.1583	-3.2151	-6.0317	4.4622	-140.9934	269.0353	112.15	0.2582	-0.3782	-0.2342	10.4226	0.5957	0.8838	3.9782	-0.6786	17.6665	-0.9489	-0.4107	-0.3513
0.8937	2.5723	10.2776	24.7466	11.7012	-4.0549	0.5222	-0.041	-1.1906	-2.1117	-5.6849	5.3048	-162.869	266.0117	100.4915	0.2642	-0.3963	-0.2642	10.2418	0.6523	0.3084	2.7904	-0.1816	23.3595	-0.9489	-0.4292	-0.3163
0.4154	2.5124	10.4451	20.5267	12.0534	-3.5022	0.5268	-0.077	-1.1415	-1.4757	-5.1668	5.6707	-179.4322	264.5023	86.3342	0.2642	-0.3782	-0.2582	9.6211	0.312	0.4684	2.8311	1.052	28.6221	-1.0129	-0.4312	-0.3532
-2.0038	1.1244	9.6611	15.416	12.6583	0.0195	0.5412	-0.0412	-1.1728	-1.3206	-4.352	7.9026	-190.6842	267.4443	69.7838	0.2642	-0.3662	-0.2762	8.8224	0.256	0.2248	2.4842	3.1913	32.275	-0.9817	-0.4689	-0.3537
-1.3932	0.8843	10.1418	11.8874	15.0602	1.4076	0.5067	-0.0774	-1.1761	-0.6151	-3.8887	8.9137	-196.4273	273.4043	52.6617	0.2462	-0.3722	-0.3002	8.7016	0.2558	-0.1779	1.707	3.9415	35.1616	-0.9643	-0.373	-0.3681
-2.2611	1.6027	8.7751	4.1327	14.6926	4.6954	0.5799	-0.0799	-1.1552	-0.6563	-3.6546	9.7924	-203.7134	282.663	36.36	0.2582	-0.3542	-0.3122	8.0785	0.1429	-0.1322	1.6475	3.7735	36.2681	-0.9477	-0.3713	-0.2967
-0.2147	0.7836	8.7629	-4.2279	15.0036	5.1454	0.5441	-0.0589	-1.1399	-0.9303	-2.5581	10.5533	-214.0972	291.78	21.5227	0.2582	-0.3602	-0.3182	7.2263	0.0301	-0.2052	0.8641	4.6919	35.8995	-0.9651	-0.4302	-0.3522
-2.3559	0.7105	10.1271	-7.8225	15.2667	6.5494	0.542	-0.0601	-1.1734	-0.7262	-2.0905	12.3161	-227.3746	298.7254	8.9596	0.2762	-0.3542	-0.3362	6.9467	0.0306	0.0185	0.9267	6.1241	35.7862	-0.9799	-0.3727	-0.3329
-0.97	1.0574	10.2639	-6.5195	14.816	7.7842	0.559	-0.0615	-1.1892	-0.7543	-1.7384	13.8982	-239.0613	304.608	-0.072	0.2702	-0.3482	-0.3542	5.8114	0.2595	-0.0021	1.5779	7.6927	34.6424	-0.9795	-0.3535	-0.3323
-1.3901	-0.6338	10.2193	-0.4517	16.6424	9.1623	0.5049	-0.0591	-1.1923	-1.0639	-1.0969	15.769	-245.6607	310.4607	-4.7082	0.2702	-0.3362	-0.3782	5.5202	1.2264	-0.35	2.7254	9.306	32.5011	-0.9957	-0.3915	-0.2983
-1.1522	-0.0491	10.0994	5.5786	18.1637	10.3805	0.5093	-0.1145	-1.1605	-0.9203	0.0029	17.4164	-250.2674	316.3926	-6.4065	0.2702	-0.3422	-0.3843	5.3064	0.6016	0.3321	5.0399	9.9794	30.1022	-0.9956	-0.3542	-0.3504
-1.1609	0.8899	9.6789	13.0683	19.6964	12.3188	0.5791	-0.0611	-1.1546	-1.2178	-0.0432	19.8699	-255.1459	321.9551	-4.3829	0.3002	-0.3182	-0.4083	4.7956	0.6591	0.3228	8.711	10.3222	29.5342	-1.012	-0.3925	-0.3342
-1.3404	0.073	9.686	19.1754	20.32	16.3459	0.5587	-0.0036	-1.1538	-0.429	1.3467	22.3507	-258.505	326.8235	1.0161	0.3122	-0.3182	-0.4323	4.1249	0.7173	0.8827	13.4905	11.079	27.6767	-0.979	-0.3524	-0.279
-1.5142	0.5934	10.085	25.4872	21.4603	21.3966	0.5575	-0.0237	-1.188	0.3803	0.9578	25.7609	-260.3743	331.0308	10.0366	0.3242	-0.3182	-0.4623	4.1356	0.4902	1.4548	19.1536	11.737	26.3451	-0.9953	-0.335	-0.3498
-1.9857	0.2373	10.6065	38.058	24.2551	25.728	0.541	-0.0607	-1.1902	2.0891	1.6565	28.3735	-260.9812	331.1857	23.7762	0.3302	-0.2762	-0.4803	3.6743	0.4905	1.0458	23.4633	11.6109	22.3745	-0.9631	-0.3336	-0.3136
-1.5032	0.2943	10.6726	53.8706	31.086	29.4912	0.5637	-0.0974	-1.14	4.5479	1.9525	31.2328	-258.315	323.3672	40.4337	0.3722	-0.2642	-0.4923	4.5838	0.0913	1.1194	27.4538	11.4411	15.064	-0.9474	-0.3336	-0.331
-2.056	1.4105	10.1236	62.1733	37.6097	30.4203	0.5637	-0.0974	-1.14	7.8507	2.8762	33.35	-253.3599	315.0764	56.9588	0.3963	-0.2522	-0.5103	4.6358	0.6029	0.892	32.3612	10.0873	5.4118	-0.9944	-0.3148	-0.2958
-1.2212	1.7647	9.7252	57.2472	42.338	27.4786	0.5809	-0.0793	-1.1384	11.9046	5.2825	32.9118	-252.5837	307.3116	68.3116	0.4083	-0.2281	-0.5223	5.5521	0.7159	1.3666	39.1599	7.6678	-2.0934	-0.9955	-0.3354	-0.3676
-1.2093	1.5231	10.3706	52.7212	48.2878	25.4194	0.651	-0.0837	-1.1678	16.5793	7.4555	31.9574	-256.2751	285.0104	83.3129	0.4203	-0.2161	-0.4983	6.2877	1.6248	1.3236	38.9541	3.9863	-6.4495	-0.9799	-0.3727	-0.3329
-1.03	1.6987	10.3131	45.3956	57.6534	24.9149	0.5861	-0.1537	-1.1072	19.3421	12.3883	30.1004	-241.4024	254.0974	108.8633	0.4623	-0.1741	-0.5223	7.0808	1.9082	1.2812	36.413	0.6756	-11.1937	-0.9636	-0.3532	-0.332
-2.3876	1.5071	11.751	27.2224	70.1933	27.6295	0.6353	-0.1396	-1.1706	24.739	11.6508	21.5928	-193.9732	224.3827	127.9764	0.4863	-0.1741	-0.5163	7.4729	1.9074	1.0023	29.5766	-1.3751	-14.6317	-0.9801	-0.373	-0.3507
-1.5097	0.357	10.3215	18.0252	84.3575	35.3717	0.6335	-0.1213	-1.1868	36.6507	15.7178	9.7187	-182.8678	203.7058	116.1056	0.4923	-0.1441	-0.5163	8.718	3.0432	0.9117	15.7397	-2.1597	-15.0537	-0.9638	-0.372	-0.3148
-0.4387	3.2962	13.1637	18.1154	94.7402	42.2695	0.617	-0.0809	-1.1363	41.3366	30.9266	4.4902	-207.5033	126.0912	127.1351	0.4863	-0.1441	-0.5103	10.3964	4.0638	-0.3154	5.3029	-1.2128	-8.8645	-0.9626	-0.2956	-0.3301
0.7344	5.6065	14.9648	53.3749	88.399	30.464	0.6382	-0.1572	-1.1377	40.6211	32.4442	9.2265	-146.7979	22.382	135.3592	0.5163	-0.1141	-0.5283	11.6299	4.4597	-1.0934	-4.7476	-1.7932	1.9714	-0.9792	-0.3528	-0.2967
-0.0685	5.0803	10.4627	72.5531	84.6488	4.0623	0.6944	-0.1584	-1.101	38.2979	26.1965	13.0184	-65.716	-47.9454	121.8354	0.5043	-0.1201	-0.4983	12.8402	1.6699	-3.3619	-0.2191	-2.8212	16.3922	-1.011	-0.3535	-0.2974
-0.0762	6.0935	13.4268	57.8451	100.6327	-18.3488	0.6601	-0.1751	-1.0869	33.41	18.4604	17.3399	29.0354	-89.0835	90.5357	0.5163	-0.1021	-0.5223	10.8296	-2.3666	-5.004	-15.8809	-1.4612	10.7264	-0.9626	-0.3141	-0.2952
-0.3331	4.839	15.7729	52.2724	117.7741	-40.3574	0.6792	-0.1753	-1.0691	30.0758	11.3155	12.9687	133.2573	-76.861	33.9717	0.5163	-0.1141	-0.5163	8.4236	-1.5091	-3.1023	-33.5131	-1.2416	-4.5997	-0.9951	-0.3347	-0.332
-1.9696	4.0495	18.3808	56.4092	146.5417	-53.2554	0.6753	-0.1582	-1.1188	25.4707	7.7375	8.3551	167.8079	-63.2533	-9.8881	0.5163	-0.1261	-0.5223	8.6892	-1.5646	-0.9806	-20.0845	0.6189	-13.4372	-0.9634	-0.3713	-0.2793
-1.6947	3.0343	20.2078	67.961	173.3688	-60.0454	0.732	-0.1978	-1.1001	21.9196	3.7603	4.931	176.678	-61.996	-36.8946	0.5103	-0.1381	-0.5283	10.7544	-1.6799	0.2588	-4.7274	-1.0559	-17.6899	-1.011	-0.3535	-0.2974
-2.1081	2.6795	20.6136	78.3983	199.8493	-60.7396	0.7129	-0.1203	-1.0653	18.9847	-0.3364	0.757	111.4741	-72.7217	-47.3247	0.5043	-0.1501	-0.5223	12.5945	-1.738	1.6084	10.5102	-1.8873	-12.8054	-0.9626	-0.3141	-0.2952
-2.2527	1.1389	22.4983	87.5261	228.8919	-57.8557	0.7717	-0.1586	-1.013	14.7749	-0.4813	5.3016	27.0537	-77.6205	-51.931	0.4863	-0.1381	-0.5163	15.0921	-2.4211	4.7432	21.3207	-0.0783	-0.9765	-0.9948	-0.3155	-0.3314
-1.7313	-0.9885	24.5771	97.2367	260.9415	-51.3155	0.7895	-0.1789	-1.0293	-25.2201	53.1467	73.3468	110.0023	-28.4436	-59.5614	0.4923	-0.1561	-0.5223	15.974	-2.7621	6.4183	29.929	-4.7237	-1.7935	-0.9466	-0.2765	-0.347
-4.1262	-0.0443	28.6091	96.1527	305.069	-41.7018	0.8281	-0.1403	-0.959	-7.5078	-63.7545	-19.0704	469.4124	-96.6272	-88.0501	0.4743	-0.1381	-0.5343	14.1474	0.7089	6.0443	23.785	-4.9408	-12.1515	-1.0112	-0.3538	-0.3152
2.782	-1.1189	34.5811	92.1353	351.6688	-27.1382	0.865	-0.1608	-0.9575	-28.8139	-15.1238	18.9784	301.3036	-322.8929	-17.8218	0.4803	-0.1621	-0.5343	15.3987	8.269	3.6131	-5.9165	5.644	-32.8741	-0.9635	-0.3343	-0.3491
6.7344	-7.2992	43.1335	111.4094	409.8884	-10.0926	0.942	-0.1805	-0.8869	2.8919	20.5504	-3.3226	221.7799	-324.0557	43.3447	0.4683	-0.1861	-0.5283	19.3761	6.8376	-2.3795	8.9314	33.8884	35.5536	-0.9633	-0.334	-0.3314
9.5492	-17.9052	41.7399	146.8342	447.7395	26.6364	0.9433	-0.1604	-0.8528	19.1221	16.2963	3.5286	156.2902	-273.0572	88.8244	0.4383	-0.2041	-0.5343	11.9715	0.5896	-4.4085	-7.4431	44.1481	27.0618	-0.9946	-0.2967	-0.3486
9.7243	-15.5111	41.5962	162.6935	469.1604	78.8773	1.0005	-0.161	-0.7994	9.9286	3.0252	15.9404	128.7516	-197.5211	19.473	0.4323	-0.2101	-0.5223	8.6907	5.3145	-3.5496	-45.4261	42.2774	-10.2254	-0.978	-0.2949	-0.2771
0.0592	0.9355	33.8654	186.2163	438.1948	148.9512	1.0454	-0.2735	-0.7337	11.4473	-5.0964	13.7076	103.1968	-95.4711	-43.4846	0.3963	-0.2161	-0.5404	8.5135	4.1201	-4.0115	-15.8667	34.263	-1.2486	-0.9631	-0.3336	-0.3136
-5.8956	2.0737	27.3841	249.1024	406.3136	163.5535	1.1178	-0.2572	-0.7122	2.1391	6.1627	7.0797	100.557	-61.692	-56.2666	0.3963	-0.2342	-0.5404	9.6207	2.6982	-2.5048	-21.508	37.9209	-3.6932	-0.9794	-0.3531	-0.3145
-7.411	-3.1478	29.7578	383.8434	342.773	147.0113	1.0694	-0.2902	-0.6494	6.7065	4.6553	6.1652	65.4813	-25.2151	-6.9023	0.4023	-0.2402	-0.5464	9.1056	2.4167	0.3462	-18.7656	36.0211	-26.2847	-0.9946	-0.2967	-0.3486
-3.6873	-1.3565	26.1817	533.7485	384.9785	76.4187	1.1329	-0.3645	-0.5481	1.3695	1.8566	8.3923	58.8507	-3.7581	12.8909	0.3903	-0.2462	-0.5163	10.4781	4.1785	1.0593	-12.0067	32.8164	-27.8648	-0.9474	-0.3336	-0.331
15.5288	-26.4829	-0.7169	397.9675	281.191	25.6477	1.1548	-0.3824	-0.4973	2.0871	0.9995	9.9247	51.7806	-10.7582	-3.4971	0.4023	-0.2402	-0.5343	15.5333	2.4095	1.2652	1.4878	27.1218	-8.5853	-0.9633	-0.334	-0.3314
20.4743	-29.8955	-26.8543	104.5518	115.5789	89.5822	1.1759	-0.3814	-0.4459	2.3676	1.2853	9.6386	45.5871	-9.8065	-4.0503	0.3843	-0.2522	-0.5343	15.8733	1.1579	1.156	3.6761	21.2298	-7.4072	-0.9641	-0.3727	-0.3504
-3.0087	0.7298	3.9864	-60.3937	13.5903	119.4257	1.2125	-0.4213	-0.4618	2.0767	1.9751	9.4604	31.3267	-7.3023	1.519	0.3963	-0.2522	-0.5103	13.3829	1.6162	1.5111	3.4473	15.0968	-23.429	-0.9638	-0.3535	-0.3497
10.9744	-10.7308	4.6092	-80.6621	-77.8414	106.7181	1.228	-0.4623	-0.5291	1.5712	1.1729	9.9156	10.8719	-19.2666	-8.6453	0.3903	-0.2762	-0.5223	12.3782	2.3575	2.4659	2.895	11.093	-13.7644	-0.9308	-0.3134	-0.2945
19.757	-8.2321	4.6739	-117.5222	-198.1021	77.172	1.1801	-0.5336	-0.4842	2.2347	1.6839	8.7009	6.1985	-20.0526	-4.9565	0.3903	-0.2462	-0.5524	12.1862	2.1862	1.2608	-1.3722	5.0139	-5.8187	-0.9629	-0.3518	-0.2609
12.5341	-5.4066	8.0138	-73.5063	-215.9758	44.0017	1.1556	-0.4786	-0.5506	1.1851	3.4074	7.8687	-0.7126	-17.0239	-0.9393	0.3903	-0.2522	-0.5223	13.2468	2.1841	0.3076	0.8661	-1.6946	-4.956	-0.9636	-0.3532	-0.332
9.6681	-5.9601	5.869	-73.9168	-205.2715	14.9609	1.1724	-0.4994	-0.5837	2.0319	0.4247	9.9796	-19.8237	-18.8837	2.9637	0.3722	-0.2702	-0.5283	12.3207	1.6157	-0.7397	1.2748	-6.3312	-6.3574	-0.9802	-0.3734	-0.3685
8.4465	-6.1378	1.5303	-83.7899	-201.5151	-13.0661	1.1507	-0.5394	-0.6697	2.7411	-1.3549	10.9807	-21.842	-23.5772	-3.9106	0.3843	-0.2582	-0.5283	11.4612	1.5027	-1.2133	-0.0037	-7.4565	-8.5406	-0.9467	-0.3138	-0.2949
8.1981	-5.9573	1.1151	-97.423	-208.4745	-32.4208	1.1103	-0.5596	-0.7563	2.2969	2.0877	8.9967	-14.4102	-22.9661	-6.201	0.3782	-0.2522	-0.5283	10.387	1.5042	-1.0041	-2.5058	-5.6635	-10.4795	-0.8988	-0.3124	-0.2761
7.1656	-6.066	0.573	-119.6329	-227.4975	-46.6704	1.0935	-0.5388	-0.7232	1.9617	2.2054	9.4593	-25.947	-23.7524	-4.8995	0.3843	-0.2642	-0.5223	10.5563	1.5039	-1.0582	-6.9218	-4.8634	-11.0785	-0.9789	-0.3151	-0.3311
5.977	-6.2498	1.3716	-146.145	-250.0413	-56.2983	1.0706	-0.5215	-0.7907	1.8531	1.9193	9.7487	-31.3702	-28.0631	-0.3248	0.3662	-0.2402	-0.5223	10.0391	0.7649	-1.4688	-11.5696	-5.0909	-10.0501	-0.9318	-0.3525	-0.3313
5.2283	-6.1555	3.2251	-167.1453	-263.2062	-58.8417	1.0654	-0.5245	-0.8746	2.8335	0.7109	9.9963	-40.351	-31.4809	1.1618	0.3782	-0.2402	-0.5163	8.967	0.8234	-1.1452	-13.957	-5.0901	-10.1016	-0.9947	-0.334	-0.2965
4.4031	-6.5163	4.1491	-185.6607	-267.6065	-53.3226	1.0254	-0.5058	-0.9263	3.8875	-1.6444	11.0014	-39.5626	-38.448	-3.9024	0.3722	-0.2342	-0.5283	9.1988	1.1077	-0.8546	-14.4642	-5.922	-9.3863	-0.9476	-0.334	-0.3488
3.4605	-6.0044	5.2936	-209.2004	-271.7676	-44.2908	0.9649	-0.4492	-0.9948	3.5273	-0.3819	10.2389	-31.2527	-43.6701	-12.4318	0.3843	-0.2342	-0.5283	8.7008	0.8814	-0.1774	-13.2756	-6.8256	-7.9234	-0.9792	-0.3528	-0.2967
3.3147	-4.3373	7.3131	-223.9072	-275.4692	-36.0673	0.8705	-0.4476	-1.067	3.2376	0.2507	10.1191	-24.8772	-46.5273	-17.3379	0.3662	-0.2462	-0.5283	8.3084	1.1664	0.1017	-11.1859	-8.7666	-6.2806	-0.9474	-0.3521	-0.2961
2.7368	-3.3035	8.6909	-225.6711	-280.0433	-29.2861	0.8463	-0.3731	-1.116	2.4308	1.6893	9.993	-21.4667	-48.1513	-19.4377	0.3782	-0.2402	-0.5223	7.9717	1.5082	0.3246	-10.5668	-11.2188	-5.0589	-0.9626	-0.3326	-0.2603
2.2918	-2.92	10.7212	-221.3728	-289.9887	-25.0346	0.8092	-0.3721	-1.1348	2.4715	1.1099	9.0542	-21.8988	-49.5149	-19.2734	0.3602	-0.2462	-0.5343	7.75	1.395	0.6065	-9.6019	-13.2002	-2.7067	-0.9939	-0.2953	-0.2775
1.5958	-2.7623	12.1663	-214.6162	-304.3128	-21.0012	0.7119	-0.2755	-1.1874	2.3149	0.5385	9.8099	-23.5664	-49.6944	-20.0921	0.3662	-0.2462	-0.5404	7.6933	0.4851	0.5475	-8.7306	-14.1757	-0.4667	-0.979	-0.3524	-0.279
0.1023	-3.1762	12.729	-211.9389	-316.5001	-11.765	0.6555	-0.2938	-1.2414	3.2786	0.7646	9.3024	-12.4655	-52.9618	-21.1826	0.3662	-0.2281	-0.5404	7.0652	1.0544	0.3648	-9.4688	-14.1767	1.737	-0.9951	-0.3531	-0.2971
-0.2967	-2.4914	13.9976	-220.315	-319.9968	-1.0639	0.5607	-0.2538	-1.2957	2.2075	1.5184	10.2807	-10.0625	-51.3902	-21.1138	0.3662	-0.2221	-0.5283	6.5988	0.9407	-0.3304	-8.4843	-13.471	3.4647	-0.9944	-0.3333	-0.2609
-0.7628	-2.1516	14.8607	-233.703	-319.9813	6.3317	0.5385	-0.1781	-1.3111	2.5957	1.2846	9.5844	-0.5369	-52.0171	-19.261	0.3602	-0.2161	-0.5404	6.2023	0.3156	-0.3382	-7.3864	-11.2367	4.7096	-0.9951	-0.3531	-0.2971
-0.6575	-1.1334	17.4181	-240.248	-318.0116	9.3782	0.4441	-0.1765	-1.3834	2.8295	1.1702	9.8226	1.6335	-49.4213	-18.5517	0.3542	-0.2342	-0.5404	6.0888	0.3158	-0.3403	-8.8891	-8.1949	6.9605	-0.9779	-0.3134	-0.2422
-0.4591	-0.213	18.4607	-241.3407	-316.1213	8.2642	0.314	-0.0766	-1.3877	2.8827	0.9966	9.5886	5.6753	-45.6503	-19.8577	0.3362	-0.2342	-0.5464	5.9731	0.4296	-0.4567	-9.6814	-4.4815	9.0726	-0.9782	-0.2953	-0.2949
-0.6173	0.4131	19.7343	-242.1889	-314.9842	5.1626	0.2974	-0.0362	-1.3372	3.4031	0.7667	9.8318	8.2879	-40.5813	-22.9758	0.3362	-0.2281	-0.5404	5.4626	0.2027	-0.4663	-12.7424	-1.1914	11.0034	-0.9945	-0.3521	-0.2437
-1.9818	0.6928	20.8158	-249.7726	-309.7522	1.3423	0.2222	0.0424	-1.339	2.708	1.3414	9.4697	10.1324	-36.2718	-23.8112	0.3422	-0.2221	-0.5343	5.2382	-0.2519	-0.3564	-16.211	1.2782	12.8476	-0.9626	-0.3326	-0.2603
-2.9174	1.5498	22.3647	-264.8987	-297.2992	0.2951	0.1134	0.0856	-1.3272	2.6543	1.8026	9.705	6.3349	-36.3097	-20.4395	0.3542	-0.2402	-0.5223	6.1373	-0.5946	-0.855	-18.8476	2.5453	13.6433	-0.9629	-0.3518	-0.2609
-4.372	2.0419	25.1348	-279.0088	-276.6477	0.7658	0.0974	0.0875	-1.2947	1.8655	2.3825	10.4537	8.6492	-37.881	-12.5468	0.3302	-0.2161	-0.5283	6.2522	-0.9359	-0.796	-23.0818	3.1342	12.9144	-0.9629	-0.3333	-0.2958
-6.4318	2.6537	27.7176	-284.1475	-255.2311	7.1684	0.0856	0.0919	-1.1951	2.8991	2.3237	10.5904	11.9232	-40.6372	-3.4541	0.3362	-0.2402	-0.5283	6.2585	-0.0826	-0.3947	-26.4232	2.7794	10.0618	-0.9314	-0.3702	-0.2608
-8.7451	2.6333	29.5451	-278.0064	-236.6604	18.5344	0.0446	0.1873	-1.211	3.4747	1.4028	10.6559	17.861	-43.9619	1.509	0.3302	-0.2342	-0.5223	6.9948	0.2577	-0.4381	-30.5464	2.2293	5.9711	-1.0108	-0.3531	-0.2796
-12.5181	4.3746	30.6244	-271.2806	-217.0637	33.9134	0.0502	0.1519	-1.1451	2.8498	1.5202	10.9372	23.379	-48.1019	5.7419	0.3362	-0.2342	-0.5404	6.8856	0.2011	-0.2113	-34.9312	1.1065	1.4842	-0.9776	-0.2758	-0.2765
-15.9222	5.8018	28.7956	-265.3844	-196.5905	42.5252	0.0129	0.2107	-1.1286	4.0025	1.4048	11.3102	28.3517	-54.1022	10.0814	0.3362	-0.2402	-0.5283	7.4457	0.3139	-0.6014	-38.953	-0.3763	-1.2343	-0.9149	-0.3131	-0.2942
-20.057	8.0521	26.535	-263.8807	-168.7554	42.0332	-0.0044	0.1927	-1.1303	3.8945	0.7737	11.598	33.3631	-63.8573	13.0295	0.3302	-0.2342	-0.5404	7.6654	1.1664	-0.94	-38.4793	-2.1497	-2.799	-0.9142	-0.2932	-0.2581
-26.9845	7.0576	22.69	-248.341	-137.5638	46.2662	0.0368	0.1941	-1.0443	4.4959	0.8369	13.1324	40.128	-75.3719	14.4719	0.3242	-0.2402	-0.5343	7.8848	1.3933	-1.3363	-32.9713	-4.054	-5.8676	-0.994	-0.3141	-0.2603
-35.3405	9.7689	16.6137	-251.8669	-112.8038	71.3275	0.0541	0.2121	-1.0427	4.3857	0.8957	13.3648	49.1268	-88.0221	14.4329	0.3182	-0.2402	-0.5163	8.6198	1.961	-1.4367	-19.4134	-7.1911	-10.0166	-0.9462	-0.2942	-0.2765
-39.0314	22.4818	12.9456	-257.6918	-59.5661	77.1066	0.0907	0.2495	-1.0059	3.2413	1.9336	13.5231	54.6075	-101.8803	14.7906	0.3182	-0.2462	-0.5163	9.2565	2.9275	-0.6805	-4.5676	-9.2082	-13.7343	-0.9465	-0.3134	-0.2771
-35.9274	30.4419	15.4103	-200.6911	28.3206	55.3237	0.1097	0.2493	-0.9881	2.6123	3.8336	13.7539	54.3498	-119.4806	24.7002	0.3062	-0.2522	-0.5283	10.7386	3.5516	-0.2523	13.4033	-7.6876	-17.9781	-0.962	-0.3131	-0.2419
-31.2926	27.8283	18.6765	-103.6916	99.8145	26.9325	0.0912	0.2885	-0.9712	1.997	4.7587	14.6246	51.7266	-139.2957	41.7676	0.2942	-0.2402	-0.5103	11.9605	2.8689	1.3716	27.2395	-2.4837	-17.9817	-0.9774	-0.2939	-0.2238
-26.5811	18.5394	19.1092	-2.3313	126.8179	12.8987	0.1288	0.2491	-0.9703	1.4452	5.34	15.7878	54.1914	-161.4596	60.1727	0.2762	-0.2582	-0.5103	14.1083	1.1622	3.927	24.4185	0.2933	-14.2182	-0.9465	-0.3319	-0.2422
-20.7168	15.5397	20.4757	78.1085	119.6028	4.5972	0.1476	0.2294	-0.9699	1.8147	5.0578	17.1404	65.5292	-186.2457	69.8437	0.2702	-0.2402	-0.4983	11.9671	-0.37	4.6303	20.6899	4.8551	-13.9472	-0.9629	-0.3518	-0.2609
-20.2077	9.131	14.9613	143.1917	89.7612	-3.9716	0.133	0.1742	-0.9559	3.6082	1.952	17.805	82.4589	-214.1492	67.8202	0.2522	-0.2462	-0.5043	10.6821	-0.4269	2.6042	16.606	8.8737	-16.1284	-0.9465	-0.3319	-0.2422
-17.5497	6.5385	12.0636	151.8928	82.5034	-13.8951	0.168	0.2493	-0.9179	4.954	-1.6683	18.9857	83.7691	-245.5938	58.5327	0.2402	-0.2582	-0.4923	10.7275	0.3119	2.0335	6.6636	10.2145	-14.0686	-0.9305	-0.35	-0.2069
-13.6768	6.5604	9.9716	130.8907	105.8048	-41.2044	0.2074	0.1917	-0.9009	5.3933	-2.8107	20.9213	79.0411	-281.6944	41.3484	0.2281	-0.2462	-0.4923	11.6192	0.0826	1.1342	0.0572	11.0741	-10.2994	-0.9477	-0.3898	-0.2618
-9.7586	3.6189	6.8669	77.3262	131.132	-69.414	0.2258	0.1331	-0.9351	5.7495	-5.6141	24.3704	69.4552	-324.9577	18.3358	0.2041	-0.2702	-0.4803	11.5395	0.0817	-0.1259	-12.9639	13.8998	-7.7669	-0.9786	-0.3517	-0.2434
28.3994	15.8877	11.6446	460.1702	-9.7427	-43.1396	0.2386	0.2066	-0.9653	4.4666	-7.3737	29.081	58.0827	-375.0601	-15.409	0.1861	-0.2822	-0.4803	10.9573	0.1387	-0.9375	-34.3612	19.99	-9.9972	-0.979	-0.3709	-0.244
28.2705	0.7845	66.7006	287.7028	56.4336	-229.1997	0.1868	0.1523	-0.9702	2.2081	-8.2115	33.777	58.4224	-419.2594	-62.1258	0.1741	-0.2702	-0.4623	11.2026	1.7291	-2.9342	-38.9883	14.9403	-3.8148	-0.9624	-0.3322	-0.2425
27.402	-4.7527	38.328	351.3708	250.9341	-190.4414	0.2044	0.1126	-1.0038	3.5109	-5.8448	36.2722	76.2493	-458.8292	-112.4041	0.1621	-0.2642	-0.4503	13.3025	8.0937	-5.5796	-17.5936	-0.0909	-17.0206	-0.9465	-0.3319	-0.2422
-6.3164	28.92	-0.8029	239.4968	334.8469	-204.5293	0.2242	0.0935	-0.9866	5.8984	7.3357	39.5984	112.451	-474.0022	-132.6747	0.1501	-0.2882	-0.4263	15.7241	7.6943	-3.4758	7.7611	-27.2746	-48.6366	-0.9473	-0.3706	-0.2612
-30.6562	17.0665	6.623	160.8344	282.4391	-96.2714	0.2044	0.0353	-1.0565	2.1362	1.7962	33.938	192.9542	-465.2565	-116.7667	0.1321	-0.2942	-0.3903	8.6949	3.2128	-0.3473	16.2436	-36.3463	-20.72	-0.9159	-0.3706	-0.2961
-14.8113	-11.428	15.9559	173.9556	122.9079	20.1036	0.2596	0.0335	-1.0366	5.9333	-2.261	28.3711	213.319	-472.5309	-109.5019	0.1201	-0.3002	-0.3782	7.4228	4.1827	1.5181	15.3142	-32.1338	-10.9786	-0.9471	-0.3702	-0.2434
-0.135	-10.3501	12.4645	216.6201	68.8019	-34.5031	0.2794	0.0144	-1.0194	9.6842	-4.4338	32.7081	258.6062	-452.5897	-137.9278	0.1141	-0.3182	-0.3362	11.2262	5.9411	1.761	3.5275	-39.2877	-29.9205	-0.9788	-0.3706	-0.2263
-1.6208	5.0403	4.4821	200.1	30.5652	-85.1007	0.3168	-0.0444	-1.0359	5.3431	0.1659	30.713	293.0965	-466.0465	-122.294	0.1021	-0.3302	-0.3122	12.8243	3.6646	2.1319	9.3263	-53.5926	-25.4143	-0.9153	-0.4065	-0.1729
-7.1331	5.4969	5.7804	132.7492	8.3371	-81.1698	0.2632	-0.0804	-1.057	-13.0953	-19.6265	-4.4558	251.6951	-346.1375	-82.2491	0.1021	-0.3482	-0.2822	11.3772	1.2197	0.3869	-1.7738	-40.3147	-19.7825	-0.9476	-0.4082	-0.2268
2.2864	5.5799	7.6377	92.1011	27.0117	8.9019	0.2841	-0.0989	-1.023	-9.3011	-14.7225	-12.3831	133.2976	-177.154	-91.6834	0.1081	-0.3542	-0.2582	13.8043	3.5479	-0.1388	-15.6711	-37.7805	-24.6013	-0.9476	-0.4267	-0.1919
-3.2446	-4.1959	10.5816	56.354	12.0606	-26.956	0.3163	-0.0834	-1.0706	-8.7672	-1.3439	-4.0556	-7.5339	-52.5855	-117.2159	0.1141	-0.3662	-0.2342	15.3704	2.7488	-1.4265	-2.0535	-27.7817	-8.8262	-0.9952	-0.4089	-0.21
-2.4975	0.7253	8.957	82.5635	8.8559	-23.295	0.2669	-0.117	-1.0246	2.168	-11.7678	9.9856	-105.4839	77.2324	-205.9793	0.1261	-0.3662	-0.2402	13.6101	2.694	-1.5161	-2.2021	-20.2465	-14.385	-0.9477	-0.4455	-0.1747
0.102	4.6622	6.5601	45.8692	13.2178	4.7853	0.3199	-0.1199	-1.0383	-22.2786	-6.7879	7.8986	-85.5383	226.1508	-180.9135	0.1561	-0.3662	-0.2402	12.3774	3.3787	-0.6228	-5.7912	-14.4877	-12.7258	-0.9796	-0.4462	-0.1754
-0.0775	2.4044	9.7957	14.6181	1.987	-6.1682	0.3212	-0.0999	-1.0041	-11.3877	-5.1806	11.5702	-61.3419	258.5922	-159.415	0.1561	-0.3843	-0.2582	12.8418	2.5823	-0.1	-3.4216	-8.5315	-5.7121	-0.9477	-0.4455	-0.1747
-0.2762	1.7175	8.7501	16.5664	5.1039	-2.0656	0.2828	-0.1189	-1.0571	-7.5462	-3.5314	8.8992	-55.8506	235.6209	-146.5657	0.1801	-0.3722	-0.2762	12.9076	1.9571	0.3584	-3.4886	-0.8012	-3.5587	-0.9804	-0.5034	-0.1595
-2.5397	0.713	9.9487	-0.0592	5.7257	-0.89	0.3349	-0.1225	-1.0876	-5.975	-4.1308	4.0664	-56.7266	202.4048	-128.1504	0.2041	-0.3722	-0.2642	12.7492	1.6165	0.9846	-3.8014	5.7238	-2.2373	-0.9813	-0.5236	-0.2134
2.5774	1.3467	10.1474	-12.4318	12.4326	1.5636	0.3375	-0.0824	-1.0193	-8.1271	-3.9622	2.3276	-63.5035	225.3411	-107.6376	0.2041	-0.3843	-0.2822	11.9011	1.6177	1.1406	-2.1217	8.3273	-1.2527	-0.996	-0.4845	-0.1592
-0.9845	0.0178	9.4011	-13.2279	13.5773	3.3514	0.3029	-0.1185	-1.0225	-7.0354	-4.5386	2.4631	-80.5543	252.1749	-85.3351	0.2342	-0.3903	-0.2702	11.6324	1.2206	1.9364	-0.5515	8.8501	-1.6335	-1.0122	-0.504	-0.1601
-0.8599	0.8311	9.6849	-15.5971	15.228	4.5549	0.2975	-0.0637	-1.0711	-5.5421	-4.7129	2.6667	-107.1634	264.3027	-68.2938	0.2281	-0.3782	-0.2822	10.716	1.2214	1.4618	2.1249	8.8156	0.7751	-0.9325	-0.502	-0.1407
-2.354	0.8258	10.2424	-21.7272	14.2801	4.6728	0.2831	-0.0995	-1.0397	-4.5534	-4.9412	3.4459	-139.7787	273.8364	-54.3036	0.2522	-0.3722	-0.2762	10.484	1.0508	1.1714	3.7922	7.6167	3.727	-0.9638	-0.4832	-0.123
-3.1456	0.6	9.706	-25.1579	14.1233	4.7125	0.2849	-0.1177	-1.0236	-3.8338	-5.0499	5.1575	-170.5322	280.9314	-41.9988	0.2522	-0.3602	-0.2822	9.8468	1.3354	0.4733	5.2114	6.2816	7.6991	-0.9648	-0.5037	-0.1947
-2.4611	-0.3494	10.8974	-21.0347	15.2351	4.408	0.3207	-0.0615	-0.9862	-3.4014	-4.0076	6.9272	-190.0518	285.4712	-31.004	0.2762	-0.3843	-0.2762	9.7818	1.2782	0.0144	7.4435	5.9952	12.8229	-0.9653	-0.5417	-0.1781
-0.6673	-0.227	10.2853	-12.3654	16.9311	6.6426	0.3364	-0.083	-1.0361	-2.8189	-3.7762	7.4665	-203.8516	290.0941	-17.4309	0.2522	-0.3602	-0.2882	9.4381	1.2785	-0.1636	8.1043	6.2998	19.1966	-0.9477	-0.464	-0.1398
-1.4422	-0.3478	10.6818	-1.923	18.855	9.6901	0.3001	-0.1008	-1.0555	-2.4469	-2.9071	9.0586	-215.7821	293.5874	-4.4145	0.2762	-0.3662	-0.2882	8.7413	0.5394	-1.0924	7.7357	9.0139	23.1007	-0.9643	-0.5027	-0.1414
-1.5734	-0.1652	10.0935	6.9259	18.9689	10.9347	0.3199	-0.1199	-1.0383	-0.946	-2.3892	9.734	-224.5037	295.6667	9.2068	0.2822	-0.3602	-0.2942	7.723	0.4839	-0.9395	3.2526	9.9863	25.3626	-0.9638	-0.4832	-0.123
-1.3306	0.6493	10.2626	11.9374	19.0778	11.4892	0.3359	-0.0446	-1.0181	-0.9772	-2.8432	11.0781	-232.1553	293.2928	21.3432	0.2762	-0.3362	-0.2942	6.7592	0.4851	-0.9	0.0505	11.1046	25.9283	-0.9487	-0.5215	-0.1417
-1.2749	0.8856	10.0272	14.7961	19.807	11.9612	0.354	-0.1227	-1.0697	-0.1574	-2.2075	12.0922	-239.7724	287.6688	32.9155	0.2942	-0.3302	-0.2882	5.9684	0.8275	-0.6854	-4.1111	12.877	25.4524	-1.012	-0.5222	-0.1074
-1.4037	0.8333	9.5586	17.9702	22.1535	13.4484	0.321	-0.1193	-1.0215	0.4367	-1.6857	13.2772	-246.6975	280.8	42.8319	0.2822	-0.3302	-0.3002	5.1304	1.0566	0.0432	-5.4591	15.0484	24.742	-0.9788	-0.4448	-0.1043
-1.3888	0.7647	10.3769	19.6133	25.9246	13.9709	0.3555	-0.1605	-1.0709	0.7864	-1.9726	13.5754	-254.7492	277.3738	51.9972	0.2882	-0.3062	-0.2942	4.6275	0.5457	0.434	-5.3403	16.7721	23.4003	-0.9634	-0.464	-0.1224
-1.2161	1.1197	9.9669	19.6738	31.1151	14.5133	0.3192	-0.101	-1.0377	1.6616	-1.51	14.4727	-263.414	276.1518	59.6165	0.2762	-0.3242	-0.2822	4.2867	0.7736	0.428	-2.6525	15.9367	22.2071	-1.0112	-0.465	-0.1233
-1.4529	1.2922	10.1941	21.1181	34.3976	14.5356	0.3921	-0.1231	-1.0341	1.3973	-0.929	15.6999	-272.4239	275.7114	68.5551	0.2762	-0.3002	-0.2822	3.839	0.7744	0.763	3.802	14.7884	21.6054	-0.9956	-0.5023	-0.0887
-1.6977	0.4208	9.9088	21.4775	36.0713	16.6895	0.3019	-0.1191	-1.0393	1.0343	0.0012	17.8053	-277.5795	278.0389	81.6661	0.2762	-0.2942	-0.2762	3.8253	0.8307	0.019	8.8027	14.295	22.0357	-1.013	-0.5612	-0.1442
-2.4369	-1.0825	8.864	18.0166	35.8307	28.5373	0.3566	-0.1599	-1.0542	1.1963	0.5874	20.3876	-272.7371	281.4386	96.0037	0.2702	-0.2942	-0.2822	3.7745	0.2623	0.3037	13.2997	13.1508	23.2746	-0.9641	-0.5208	-0.0887
-1.7045	-0.041	9.5059	11.9898	33.3813	43.5986	0.3748	-0.1412	-1.0358	2.0997	1.2867	22.809	-262.7752	286.6698	112.1765	0.2462	-0.2822	-0.2822	4.0071	-0.079	0.5938	17.8573	10.9696	22.5371	-0.98	-0.5211	-0.089
-2.3015	0.2479	9.7836	16.3149	32.2781	54.0998	0.3419	-0.2151	-1.0402	3.292	1.2381	25.2911	-252.5898	293.9687	131.073	0.2462	-0.2762	-0.2822	4.1327	0.2626	1.2829	21.57	9.2334	20.4764	-0.9968	-0.5417	-0.1432
-2.4874	1.1265	9.5359	21.9284	36.9477	60.6197	0.362	-0.2147	-1.0056	5.8485	1.7025	27.2748	-245.3747	298.6239	144.9001	0.2342	-0.2762	-0.2882	4.6376	-0.0226	0.9487	25.4752	7.204	17.6395	-0.9957	-0.5026	-0.1065
-1.5579	0.8736	11.0147	29.779	41.8802	67.9784	0.395	-0.1408	-1.0012	8.7154	2.3311	27.5084	-252.0091	291.6089	152.1143	0.2221	-0.2642	-0.3002	4.7531	0.0342	1.0653	29.4826	5.7783	13.0222	-0.9796	-0.502	-0.0884
-0.6194	1.7639	9.7358	41.6136	46.6596	63.9047	0.4117	-0.1616	-1.0343	13.4914	3.8814	28.8369	-267.1371	266.288	157.7044	0.1861	-0.2642	-0.3122	4.9803	0.7733	1.1273	32.1712	3.8716	5.8594	-0.9634	-0.5009	-0.0525
-1.1032	3.457	9.7061	40.6132	47.9857	52.0134	0.3937	-0.1609	-1.0353	18.578	6.8176	31.5831	-262.0113	227.7713	164.5456	0.1801	-0.2822	-0.3422	6.2864	0.9423	1.2086	32.562	2.3024	-1.4781	-0.9642	-0.5396	-0.0715
-0.8523	3.7412	10.2906	38.8305	50.9074	36.6914	0.4156	-0.1787	-0.9846	23.0931	8.2322	28.1628	-220.7175	197.9527	163.189	0.1921	-0.2642	-0.3662	6.9087	1.7377	1.1635	30.8651	-0.4646	-8.0561	-0.9962	-0.5591	-0.055
-0.5907	3.2017	11.4111	35.0534	54.5105	21.5629	0.4323	-0.1996	-1.0177	31.0236	2.5455	19.9157	-168.2477	194.3234	127.8813	0.1861	-0.2702	-0.3963	7.6396	2.2483	0.834	24.6359	-0.7417	-12.0819	-0.9808	-0.5783	-0.073
-0.9808	2.8308	13.1016	47.5782	52.047	6.498	0.4491	-0.1432	-0.9981	40.8887	9.554	9.1281	-167.196	195.0836	69.9847	0.1861	-0.2702	-0.4383	9.1654	2.5305	0.519	16.3661	-0.1948	-11.9838	-1.0121	-0.5595	-0.0553
-0.7515	3.4214	12.5145	43.5531	63.9342	-4.1421	0.4339	-0.2374	-1.0188	44.1148	22.1122	2.1614	-192.9805	131.601	46.9395	0.1861	-0.2582	-0.4683	10.1169	3.1544	-0.1496	4.7492	2.6863	-9.0934	-1.0123	-0.5783	-0.0381
-0.6823	3.0653	12.9872	46.1493	74.5122	-14.5861	0.4328	-0.1607	-0.9829	41.8722	28.2263	5.3081	-149.7077	33.123	38.6354	0.1741	-0.2342	-0.4923	11.2574	4.6887	0.2731	-8.1294	4.6656	-4.8511	-0.9967	-0.6156	-0.0035
-1.1119	3.713	12.5629	48.7846	84.7309	-26.6069	0.4177	-0.2549	-1.0037	37.563	25.5536	10.4248	-74.2326	-46.8991	22.9025	0.2161	-0.2342	-0.5283	12.0184	2.2977	-1.7173	-5.1375	1.877	7.1132	-1.0116	-0.5584	-0.002
-1.087	4.8036	14.009	46.3841	99.4057	-42.7426	0.4161	-0.2171	-1.0025	31.0332	16.6167	15.6462	9.5108	-76.1662	-6.8237	0.1981	-0.2281	-0.5404	11.8762	-0.6607	-3.4959	-7.5011	1.6115	12.9277	-0.9804	-0.5776	-0.0375
-0.3477	4.6742	14.9575	45.2762	120.5735	-60.6911	0.3983	-0.1968	-0.9862	25.9251	14.667	14.8951	104.6336	-74.642	-43.4941	0.2041	-0.2161	-0.5464	9.4399	-1.5106	-3.3697	-24.2269	1.8156	2.9518	-0.9639	-0.5389	-0.0359
-2.0504	3.6557	17.2168	52.1332	142.7047	-71.799	0.4697	-0.1811	-0.9815	23.2917	7.4666	11.2399	164.8895	-58.5106	-67.5076	0.1981	-0.2342	-0.5404	8.8904	-0.0305	-2.2915	-20.9862	2.5017	-4.6066	-0.9956	-0.5765	0.0333
-2.817	2.1298	17.9813	58.4094	166.2179	-72.8744	0.511	-0.257	-0.9482	7.7413	25.57	2.2392	186.0493	-52.3496	-79.8642	0.1981	-0.2582	-0.5644	9.5888	-0.5993	-1.3638	-12.8036	0.1676	-5.3003	-1.0278	-0.5964	0.032
-2.5343	1.634	20.269	67.8099	193.7633	-68.1505	0.5419	-0.1843	-0.9773	-8.39	0.9005	22.3128	488.2678	-141.2616	-167.2894	0.2041	-0.2642	-0.5584	11.0291	-0.2589	-0.1356	-4.0086	-2.636	-7.2145	-1.0268	-0.5389	0.0339
-1.8779	1.9452	23.3119	74.3328	225.3093	-64.3185	0.4922	-0.2374	-0.9486	-10.4093	-16.0146	71.7375	318.9564	-309.0864	-101.3866	0.2041	-0.3242	-0.5524	14.1314	4.8006	2.3284	-7.6392	-0.9838	-22.7342	-1.0126	-0.6159	-0.0038
0.5121	3.212	29.1168	86.94	266.597	-69.8542	0.5661	-0.2588	-0.9283	-1.0456	10.3297	11.722	257.5999	-392.7061	38.9329	0.1861	-0.3482	-0.5103	20.8563	6.9522	1.0233	1.9653	9.3085	4.6248	-0.9963	-0.6149	0.0321
-1.0575	-4.0544	31.6903	110.9141	311.8465	-64.0982	0.6388	-0.223	-0.8895	14.4918	17.2272	4.0879	158.9529	-304.6272	94.5914	0.1561	-0.3542	-0.5103	18.4739	-0.8363	0.5157	22.0085	25.7377	41.3649	-1.044	-0.5974	-0.0039
-0.8125	-10.1632	34.8648	108.8905	363.0044	-34.6986	0.6602	-0.2799	-0.8734	18.0175	8.05	11.024	109.4294	-212.5648	32.8601	0.1321	-0.3602	-0.5043	12.9933	4.2306	-1.0113	-37.1126	37.02	-0.2528	-1.0442	-0.6162	0.0133
4.3905	-14.3703	39.5036	107.575	419.8768	11.7312	0.6805	-0.26	-0.8215	9.1872	-4.8821	9.2733	50.8649	-83.2924	-7.2391	0.1141	-0.3602	-0.4743	10.8957	5.7688	-0.8198	-22.8423	27.0441	3.3272	-1.0589	-0.5587	0.0326
9.2795	-14.4863	43.6769	126.0442	458.9934	61.156	0.6698	-0.3323	-0.7578	8.2249	-1.3241	7.1628	101.27	-37.5804	-28.7934	0.1141	-0.3722	-0.4803	12.1495	2.0164	2.347	3.7663	22.467	14.6624	-1.0115	-0.5953	0.0679
11.8897	-8.4162	38.6851	145.1173	455.009	115.2648	0.8033	-0.3337	-0.6332	0.8699	3.4587	6.3404	89.3741	-20.1927	1.2244	0.1201	-0.3722	-0.4683	14.5076	1.5575	0.9596	-6.7026	29.1044	6.0872	-1.044	-0.6344	0.066
-3.3147	4.9489	30.5454	176.0187	417.0452	163.9353	0.7881	-0.3506	-0.6012	0.7678	0.5986	9.7804	85.7719	-3.8834	19.4945	0.1261	-0.3722	-0.4683	11.6271	1.2773	1.6503	28.8677	19.6434	-9.372	-1.0265	-0.557	0.0866
-8.2424	1.8017	30.6734	282.2201	375.6905	156.5369	0.8667	-0.408	-0.5318	3.5967	1.621	8.0241	89.1984	-6.0104	-6.3262	0.1141	-0.3722	-0.4923	12.1499	3.3814	2.4625	29.8954	27.6416	-10.9674	-1.042	-0.5193	0.0697
-10.832	2.156	30.5651	440.4957	340.3241	139.6347	0.8377	-0.4991	-0.4865	0.6946	1.573	9.0222	65.1735	-5.3426	-7.7563	0.1261	-0.3722	-0.4683	12.8944	2.9827	2.8192	25.5494	36.7031	-5.9712	-1.0589	-0.5772	0.0675
8.0239	-18.8556	10.6131	538.1734	354.9046	65.807	0.9202	-0.5736	-0.3673	3.2425	-0.0359	10.3521	51.8879	-1.7623	-0.6321	0.1021	-0.3843	-0.4623	14.0593	2.8663	1.3529	19.35	41.7339	-6.483	-1.0443	-0.6535	0.0654
10.665	-25.1435	-23.3504	178.2235	213.4257	109.5409	0.9219	-0.5146	-0.2985	1.1567	2.6088	9.3285	52.0542	-8.9331	-6.9819	0.1021	-0.3662	-0.4683	13.0342	3.2087	1.1627	17.5589	38.7695	-12.0766	-1.043	-0.5768	0.0679
29.1548	-13.3903	-8.2883	-73.0929	110.049	114.5736	0.9274	-0.5694	-0.2499	0.8447	4.0416	8.0993	24.357	-11.7435	-2.7465	0.1141	-0.3843	-0.4563	12.4461	2.9241	0.0074	9.5232	36.0308	-12.1347	-1.0916	-0.6166	0.0479
-2.7859	-6.18	5.8865	-136.212	88.0171	187.8983	0.8973	-0.6611	-0.2214	1.3757	2.1457	8.745	4.2979	-7.9764	2.0504	0.1021	-0.3782	-0.4503	12.2604	2.8099	-0.8543	8.7551	31.4888	-7.4464	-1.0442	-0.6347	0.0482
16.1866	-8.5303	10.1601	-164.8985	-44.2909	135.4131	0.8785	-0.7187	-0.2745	1.6478	2.1554	11.0341	-6.0872	-12.7232	1.863	0.0961	-0.3903	-0.4623	12.8811	2.2972	-1.0721	6.7955	23.1068	-10.958	-1.0425	-0.5573	0.0862
18.5967	-3.5959	7.3388	-121.898	-104.3674	89.6537	0.8858	-0.7918	-0.2098	2.659	0.9983	9.8771	-12.9102	-17.6746	-0.9253	0.1201	-0.3963	-0.4443	12.5323	2.2404	-1.5363	6.5043	12.7013	-13.4294	-1.0589	-0.5772	0.0675
13.2938	-1.9518	6.9915	-74.935	-122.5399	49.4585	0.9208	-0.794	-0.2245	2.0815	1.0557	9.6321	-14.3122	-18.3671	-0.6978	0.1201	-0.3843	-0.4503	11.5216	1.9577	-0.9829	7.7657	3.7738	-14.9213	-1.0592	-0.5964	0.0669
9.2254	-2.7379	4.8869	-69.9701	-123.661	3.9788	0.9041	-0.8505	-0.2441	2.6593	1.4586	9.9378	-19.2905	-20.0101	1.0006	0.1021	-0.3903	-0.4623	10.9037	1.7881	-0.6511	8.3917	-3.4376	-15.0592	-1.0433	-0.596	0.0672
8.9298	-3.5741	1.7985	-73.832	-133.6327	-30.0185	0.9389	-0.8721	-0.2761	1.9018	2.435	9.342	-21.8254	-20.3233	3.322	0.1141	-0.3782	-0.4563	10.2856	0.993	-0.3771	8.3258	-8.0377	-14.756	-1.0431	-0.5957	0.085
7.5262	-3.3257	0.7201	-90.3888	-144.7753	-56.4084	0.9232	-0.928	-0.2789	1.5351	-0.9508	10.8422	-27.7712	-22.8417	5.0621	0.1021	-0.3782	-0.4623	9.9968	1.7324	-0.6106	8.714	-9.6446	-13.0596	-1.0738	-0.5385	0.104
6.665	-3.6615	-0.3415	-117.6085	-169.2374	-74.4036	0.941	-0.9482	-0.2953	3.6601	-1.4135	11.1152	-25.965	-29.5118	0.8505	0.0901	-0.3782	-0.4503	9.3587	1.0502	-1.4239	7.9622	-9.5013	-10.301	-1.1066	-0.5967	0.1015
5.7214	-4.7232	0.6475	-146.7222	-205.4067	-83.8945	1.0111	-0.9526	-0.3247	3.703	-1.3594	10.355	-18.0525	-36.2513	-7.4833	0.0961	-0.3843	-0.4743	8.9096	1.2784	-1.1459	6.4172	-8.8473	-9.2048	-1.0747	-0.6145	0.1371
4.7899	-4.5105	2.3796	-171.5651	-239.0076	-84.9873	0.9727	-0.9717	-0.3776	2.6665	0.4247	10.226	-9.4009	-38.6794	-12.006	0.1081	-0.3722	-0.4563	8.2328	1.2225	-0.9295	5.2481	-7.7366	-5.9958	-1.1202	-0.5186	0.1925
4.5826	-4.9998	4.1916	-186.441	-264.2065	-76.7661	0.9701	-1.0118	-0.4459	2.4193	1.3414	9.347	-2.8451	-41.5022	-13.4718	0.0961	-0.3843	-0.4563	7.4441	0.7688	-0.6583	3.4862	-6.2887	-2.9509	-1.1065	-0.6151	0.1364
3.4059	-4.6671	5.6844	-199.2372	-279.998	-61.8473	1.0193	-0.9977	-0.5093	2.8325	1.3436	9.9991	-0.5669	-45.153	-16.106	0.0901	-0.3903	-0.4503	6.8852	0.5424	-0.211	3.6365	-5.3547	-0.1516	-1.1062	-0.5775	0.1021
1.7469	-3.6917	7.1607	-210.4107	-288.0245	-42.8749	1.0309	-1.0216	-0.6263	2.616	1.6346	10.699	4.8666	-51.5387	-17.0524	0.0901	-0.3722	-0.4563	6.6575	1.0545	-0.2148	4.3325	-6.3207	1.4177	-1.1055	-0.5576	0.1383
0.7878	-3.4599	7.3744	-219.6401	-290.5091	-21.0389	1.0815	-1.0647	-0.7082	0.9093	1.6403	11.3103	13.822	-56.3866	-12.8972	0.0781	-0.3843	-0.4563	7.1106	1.8501	-0.2059	2.6535	-8.0695	2.4065	-1.1057	-0.558	0.1205
-0.1651	-2.2995	7.9852	-230.2946	-281.5191	2.9396	0.9843	-1.1227	-0.8661	3.2143	0.9932	8.9508	11.3735	-67.0735	-12.0818	0.0901	-0.3782	-0.4383	6.5463	1.7372	-0.0447	1.4726	-8.9356	3.3875	-1.0734	-0.5378	0.1395
-0.6854	-1.6721	9.194	-243.1007	-270.7387	25.1386	1.0456	-1.0935	-1.0117	2.1506	1.231	10.2783	12.082	-67.8613	-14.3858	0.0841	-0.3662	-0.4503	6.4307	0.8841	-0.2191	2.3908	-8.7155	5.021	-1.1044	-0.4998	0.1579
-0.4534	-1.4165	12.0551	-247.8852	-266.842	45.5193	1.0415	-1.0959	-1.0788	2.1003	2.3259	10.7508	9.7325	-63.5318	-15.1353	0.072	-0.3782	-0.4503	6.2148	1.1692	0.4065	2.884	-6.0919	6.7173	-1.1198	-0.4621	0.141
-0.0033	-0.8539	13.6903	-238.6779	-268.6324	63.0794	1.032	-1.1207	-1.2471	1.3598	3.0186	11.0325	20.7077	-47.5173	-11.239	0.0781	-0.3843	-0.4443	5.4586	0.885	-0.6375	3.0929	-3.1914	8.2091	-1.1358	-0.4997	0.1928
-0.2373	0.4245	14.1372	-229.0338	-270.3456	78.0214	0.9487	-1.1046	-1.4184	3.0318	2.0841	8.4838	20.7082	-45.2929	-4.9529	0.0781	-0.3662	-0.4383	5.6365	0.6008	-0.2339	3.0901	-1.376	8.9612	-1.1194	-0.4614	0.1766
0.6658	0.9478	14.2048	-226.4467	-268.9523	86.7841	0.9023	-1.0317	-1.5355	2.7589	1.8576	9.1802	20.091	-41.2806	-1.8696	0.0781	-0.3722	-0.4503	5.9175	0.3159	-0.4006	2.715	0.5151	8.6802	-1.1365	-0.5196	0.1566
0.4421	1.636	15.1846	-228.3493	-265.431	88.299	0.7981	-0.9971	-1.7408	3.5494	1.5659	8.55	22.4085	-36.921	-1.2024	0.072	-0.3602	-0.4203	5.813	0.6577	0.1126	1.4368	1.5854	8.3276	-1.1035	-0.4611	0.1769
1.2955	2.2105	15.8345	-231.983	-261.949	81.039	0.6965	-0.9224	-1.8777	3.5039	1.1085	9.1326	23.4656	-33.2368	-1.9065	0.06	-0.3602	-0.4263	5.9761	0.4866	-0.285	1.5293	2.9572	8.1822	-1.1831	-0.4443	0.1403
1.2497	2.5505	16.6466	-233.8285	-261.1794	68.9617	0.5568	-0.8473	-2.0503	3.2813	0.4775	9.4183	31.4112	-28.775	-3.0552	0.072	-0.3662	-0.4263	6.5517	0.7706	0.1835	1.1146	4.8059	6.6115	-1.1524	-0.5199	0.1563
1.333	1.893	17.8821	-239.6408	-259.2874	56.8048	0.3768	-0.6956	-2.2394	3.7286	1.1646	8.9029	38.5986	-25.0674	-4.6559	0.072	-0.3602	-0.4443	6.6643	-0.2533	0.0703	0.7276	6.7925	3.9043	-1.1512	-0.4621	0.1759
0.0915	1.7626	19.0877	-248.5164	-254.0632	44.7893	0.2381	-0.5426	-2.3426	3.6713	1.1647	8.9018	44.1891	-22.6629	-4.9796	0.066	-0.3782	-0.4203	6.6626	0.3153	0.0135	-1.3032	8.4447	1.182	-1.1194	-0.4614	0.1766
-0.2973	1.9739	20.8877	-257.8409	-241.8952	37.8812	0.0141	-0.4021	-2.3844	3.7305	1.3376	9.0209	46.3145	-24.5109	-6.4868	0.0841	-0.3843	-0.4203	7.1042	0.2574	-0.6649	-5.8352	9.0568	-1.1665	-1.1346	-0.4419	0.2124
-1.1728	2.8891	22.4369	-267.0862	-224.5221	36.1595	-0.2368	-0.15	-2.4908	3.2788	1.2824	9.3633	43.7377	-29.4212	-6.2581	0.054	-0.3602	-0.4143	7.2161	0.7122	-0.7197	-11.4236	8.695	-3.5219	-1.1355	-0.4806	0.1934
-2.1673	4.3283	24.0942	-274.1176	-208.7244	35.9443	-0.4054	0.0855	-2.4427	3.9212	1.9171	10.0812	43.6992	-34.5156	-5.3671	0.072	-0.3722	-0.4203	7.5022	1.3375	-0.5423	-17.6768	7.7304	-6.2925	-1.1198	-0.4621	0.141
-4.2354	7.1615	26.3572	-271.941	-202.2082	33.0135	-0.5666	0.2674	-2.3125	3.4076	2.0335	10.189	42.1608	-41.8199	-1.074	0.06	-0.3662	-0.4203	7.8363	1.4506	-0.8794	-24.0208	5.836	-7.9001	-1.1194	-0.4429	0.1416
-6.4998	12.2216	27.8883	-264.864	-193.382	16.7855	-0.6403	0.3856	-2.2628	2.8564	2.8451	11.4118	41.1376	-50.8627	5.2239	0.0781	-0.3722	-0.3903	8.0524	0.9948	-1.5051	-29.2491	4.5687	-6.5246	-1.1032	-0.4419	0.1775
-8.5602	17.1319	27.382	-243.5961	-180.1791	-16.5637	-0.7602	0.4915	-2.0993	3.738	2.1009	12.538	42.1346	-62.2715	10.971	0.06	-0.3782	-0.4203	8.0417	1.2219	-2.0773	-33.7136	3.3399	-1.4535	-1.1186	-0.4227	0.1956
-10.2115	21.642	26.1874	-212.0627	-157.4587	-63.644	-0.8662	0.5942	-2.0019	3.8063	2.7362	13.1863	42.7645	-76.9697	15.9718	0.054	-0.3602	-0.4023	8.826	1.1067	-2.6351	-34.9576	2.2336	3.5528	-1.1661	-0.4234	0.2124
-14.2807	23.0139	24.1724	-137.498	-134.2366	-119.7417	-0.9259	0.6046	-1.8048	3.3005	2.1066	13.6422	47.1777	-90.1879	19.7123	0.054	-0.3602	-0.3903	8.9985	1.8459	-2.4597	-33.3987	2.6076	0.8051	-1.1191	-0.4238	0.1422
-31.4361	5.4127	19.3052	-51.3705	-146.8957	-136.6283	-0.9927	0.6302	-1.7077	3.2638	3.6649	14.8782	49.2708	-107.921	26.0749	0.048	-0.3602	-0.3903	10.4938	1.9018	-1.3451	-26.2181	4.3896	-4.6501	-1.182	-0.4052	0.1771
-42.1392	12.6751	13.4809	-56.9102	-133.7771	-82.4853	-1.0393	0.5789	-1.6287	3.0884	3.089	14.638	54.3436	-125.7025	30.6994	0.036	-0.3662	-0.3903	11.7152	1.5604	0.279	-21.8301	6.5587	-5.225	-1.1346	-0.4234	0.1775
-40.8545	21.3134	8.5503	-77.733	-52.7793	-51.6819	-1.0746	0.6389	-1.5787	3.1621	4.4736	15.6412	55.6351	-145.9717	38.0963	0.024	-0.3662	-0.3963	11.9616	1.9022	1.3708	-11.7576	8.4	-6.3106	-1.1187	-0.4231	0.1778
-36.673	25.0781	10.4445	-71.8794	57.3944	-64.2508	-1.0674	0.6431	-1.4613	1.699	4.4248	17.0182	66.0916	-167.9757	45.1734	0.042	-0.3542	-0.3843	12.1946	2.1296	1.7186	0.7238	8.8257	-10.5832	-1.1658	-0.3857	0.1781
-30.8068	23.843	15.3495	-36.1547	149.3839	-77.4346	-1.0844	0.6445	-1.4456	1.7143	5.1188	17.9	77.9667	-191.8978	50.8091	0	-0.3302	-0.3542	12.6629	0.7079	2.4126	6.3169	6.3785	-11.8764	-1.1816	-0.3672	0.1606
-24.407	18.473	19.5569	34.1086	170.0221	-83.8658	-1.0635	0.626	-1.4116	2.791	2.3661	20.0749	87.5577	-222.9038	52.5663	0	-0.3242	-0.3662	12.4435	-0.429	2.7509	7.0285	-0.1867	-8.2627	-1.1492	-0.3655	0.2145
-25.7579	26.2653	45.1188	285.1213	103.1785	-76.9042	-0.9908	0.5845	-1.4254	5.13	-1.4815	22.2691	91.4569	-258.2745	44.1174	0	-0.3182	-0.3482	12.3653	0.0821	1.6056	3.0643	-5.2755	-5.6957	-1.1343	-0.3858	0.1432
-5.732	-14.3494	15.4516	234.8805	74.1726	-33.5702	-0.9913	0.5455	-1.4601	6.1671	-5.6684	25.2566	86.9305	-301.3861	21.6272	-0.024	-0.3122	-0.3302	11.3824	1.2199	0.6731	-3.9617	-8.0712	-10.2401	-1.1658	-0.3857	0.1781
27.9016	-26.3813	41.293	374.6218	174.3591	-2.5809	-0.9735	0.4479	-1.5291	4.7824	-7.8276	30.6075	81.1616	-349.4448	-11.7637	-0.042	-0.3062	-0.2882	12.8011	3.0381	0.815	-11.2114	-10.5427	-14.0378	-1.1651	-0.3474	0.1793
16.0291	3.765	2.2399	283.6547	234.7181	-128.5272	-0.9402	0.3867	-1.6127	3.3108	-9.4047	37.4819	83.4297	-406.8368	-65.0191	-0.03	-0.3062	-0.2882	14.9472	4.8549	0.3982	-6.6328	-15.9961	-15.7857	-1.1172	-0.3275	0.1631
-5.5585	19.9317	3.9344	183.4397	273.42	-123.3226	-0.9363	0.2923	-1.6157	5.1126	-8.9854	41.9689	114.7211	-441.3106	-127.8146	-0.048	-0.2882	-0.2582	13.6334	4.9699	-0.0836	-1.208	-30.1756	-5.2754	-1.1342	-0.3854	0.1609
-15.7497	9.7885	8.6689	138.4472	230.7065	-96.683	-0.8646	0.1729	-1.6989	13.5371	4.8397	37.4501	164.3177	-440.4036	-164.0737	-0.036	-0.3002	-0.2402	8.8196	3.3838	0.2845	12.1393	-32.5621	-2.2829	-1.1501	-0.3857	0.1606
-1.7014	-5.2574	15.9922	138.4624	173.1662	-40.791	-0.8465	0.1721	-1.6979	12.5497	-0.9423	30.0853	223.3531	-440.7893	-157.6306	-0.06	-0.3062	-0.2101	8.9415	3.3271	0.7444	-2.6675	-28.2559	-7.5825	-1.1333	-0.3467	0.1799
-6.3344	-0.9125	9.6106	118.1398	126.174	-2.5902	-0.7909	0.132	-1.696	6.6069	-7.1288	33.2809	203.3992	-452.8006	-168.9582	-0.036	-0.2882	-0.1861	9.619	3.6674	0.5854	-5.3026	-37.8595	-14.8326	-1.149	-0.3467	0.1974
-4.3141	4.1755	8.5316	70.0566	76.8278	-0.7199	-0.7174	0.0715	-1.7104	6.9514	-6.9295	39.437	301.2233	-424.8236	-216.0323	-0.042	-0.3062	-0.1741	10.5206	2.9835	0.201	-1.6945	-42.0709	-13.9909	-1.1641	-0.3083	0.2161
-10.4118	-2.0255	10.3117	80.655	26.0894	-49.4073	-0.7396	0.07	-1.7785	2.2514	-9.6804	26.8028	303.5642	-456.0316	-170.8157	-0.042	-0.3122	-0.1681	10.9044	3.8356	-0.4779	3.8843	-43.0323	-14.8723	-1.1172	-0.3275	0.1631
-2.7122	3.3148	7.228	100.7661	8.6094	-36.5071	-0.7558	0.0525	-1.7633	-15.952	-19.8803	1.9881	181.2916	-350.8495	-127.6985	-0.048	-0.3302	-0.1381	13.5001	3.2061	-1.2889	11.1882	-45.0987	-12.9563	-1.1012	-0.3269	0.1812
0.093	2.003	9.22	74.5377	18.7565	-14.9527	-0.7356	-0.0245	-1.7814	-15.2767	-10.5029	-9.9609	106.5377	-193.4625	-154.6698	-0.036	-0.3242	-0.1441	14.2993	2.0111	-1.1035	21.0589	-41.874	-8.6778	-1.1169	-0.3268	0.1986
-2.544	0.7742	9.7144	62.1997	11.4839	-7.8821	-0.7189	-0.0453	-1.8145	-4.2559	-5.5855	0.9307	-10.7051	8.1221	-168.7548	-0.042	-0.3302	-0.1261	13.7525	2.0695	0.0307	17.6548	-29.1409	-11.7314	-1.1642	-0.3272	0.2332
-0.5739	0.8993	8.8719	49.744	6.167	-14.9145	-0.7022	0.0111	-1.795	-18.2216	-7.5013	4.2842	-26.4756	128.8956	-131.4838	-0.03	-0.3302	-0.1561	12.1145	3.323	0.5166	11.0992	-21.4217	-10.9819	-1.1482	-0.308	0.2164
-1.1616	0.5988	9.6242	37.8384	9.9901	-1.8268	-0.7542	-0.0626	-1.8172	-19.5513	-6.9266	3.6757	-56.4342	247.0926	-90.0234	-0.006	-0.3482	-0.1861	12.6206	2.9241	0.2395	14.7348	-12.1084	-0.384	-1.0856	-0.3642	0.2158
3.0629	1.5182	10.3873	21.0516	9.1806	-1.9719	-0.7205	-0.0076	-1.8134	-13.102	-6.5575	11.6481	-78.168	270.7826	-51.8514	-0.012	-0.3482	-0.2161	13.1949	2.4687	0.593	12.497	-3.0685	-0.4291	-1.0852	-0.3635	0.2514
-0.9142	-0.3974	9.9328	16.6211	12.8064	-3.0678	-0.6812	-0.0847	-1.8137	-7.4734	-5.4976	6.4909	-69.8868	222.7859	-18.1855	-0.018	-0.3482	-0.2582	12.3426	1.6166	0.4622	10.6224	4.7584	1.3796	-1.1161	-0.3254	0.2697
-0.3199	1.2397	9.6309	16.7303	16.2192	-0.9962	-0.6972	-0.0827	-1.7811	-6.5417	-5.235	1.2397	-100.9785	187.0526	8.7594	-0.012	-0.3542	-0.2882	11.9463	1.674	0.5122	6.8892	9.8553	0.4258	-1.1008	-0.3446	0.2517
-1.3446	1.6503	9.5494	13.4924	16.0743	-3.1729	-0.7173	-0.0831	-1.8157	-7.4376	-4.4807	2.3971	-116.9543	213.7087	33.7716	0.006	-0.3482	-0.3122	11.7701	1.3896	0.1654	5.9328	11.849	-0.6358	-1.1638	-0.2707	0.1817
0.3397	-0.0423	9.4251	4.3796	16.7207	-4.2747	-0.6985	-0.1028	-1.8153	-6.0643	-4.0807	2.3667	-129.2161	242.1049	49.3797	0	-0.3422	-0.3542	11.2202	1.5048	1.128	8.5059	12.0617	-0.6189	-1.1167	-0.308	0.1815
0.3084	0.4625	11.0526	9.7295	16.4514	-0.3496	-0.6622	-0.0849	-1.7959	-6.2782	-4.0191	3.1827	-152.5639	282.1361	62.372	0.024	-0.3302	-0.3782	10.4242	1.7901	1.0564	10.9017	11.3126	2.8064	-1.0539	-0.3823	0.2336
-2.198	1.0175	8.9002	14.9015	14.6655	0.8076	-0.7328	-0.1195	-1.8012	-5.3389	-5.6839	4.2473	-173.6614	314.4701	69.7724	0.036	-0.3182	-0.4263	9.8076	1.45	1.4453	10.1923	10.3083	7.06	-1.1316	-0.2693	0.2179
-1.2905	1.4212	9.203	10.5018	14.2269	0.2075	-0.7354	-0.0823	-1.8168	-3.5327	-5.8524	5.8623	-199.6308	336.0287	70.5957	0.06	-0.3122	-0.4503	9.4645	1.0522	1.2671	10.261	9.3938	11.4138	-1.0845	-0.3067	0.2177
-0.261	0.6574	9.5225	3.2303	13.6052	-0.053	-0.717	-0.1409	-1.851	-2.8772	-5.8476	7.2218	-222.2819	347.184	69.0025	0.072	-0.3062	-0.4983	9.294	1.2798	1.2641	10.1267	7.4671	16.3186	-1.0675	-0.23	0.2027
-1.1611	0.2486	9.6285	-1.2222	14.0412	1.7346	-0.6779	-0.1407	-1.7987	-1.5214	-4.8628	9.3604	-235.6945	348.0062	65.9412	0.1021	-0.2822	-0.5223	9.1076	0.8244	0.3449	9.8918	6.062	20.9233	-1.0842	-0.2875	0.2183
-0.8564	0.5955	9.863	0.3894	15.6899	5.5021	-0.6975	-0.1022	-1.7985	-0.9772	-4.7994	10.8936	-240.2589	341.4116	63.0259	0.1441	-0.2522	-0.5524	7.7393	0.7689	-0.0235	9.9928	4.9946	25.3362	-1.0837	-0.268	0.2367
-0.9819	0.4826	9.5704	0.8227	16.775	9.7028	-0.6985	-0.1028	-1.8153	-0.2626	-3.2408	12.4955	-236.2644	329.5013	60.5837	0.1561	-0.2281	-0.5764	7.6627	0.825	-1.1119	10.4765	3.906	29.0921	-1.0528	-0.2875	0.1834
-0.8591	1.0055	9.7411	-1.5331	16.8338	11.7327	-0.6637	-0.0471	-1.7947	0.2634	-2.8365	13.093	-230.4895	316.4659	58.1685	0.1861	-0.2041	-0.5944	7.3321	0.3709	-0.6035	11.3179	1.7109	31.4766	-1.0845	-0.3067	0.2177
-0.8701	1.3046	9.1535	-4.1737	15.7678	11.958	-0.6812	-0.0847	-1.8137	0.9122	-2.7181	14.1015	-227.294	306.6368	57.778	0.2281	-0.1681	-0.6004	6.7	-0.0268	-1.0731	11.4118	1.4202	30.5191	-1.1159	-0.2693	0.2005
-0.8693	1.5373	9.2089	-6.6425	14.3708	11.4358	-0.6642	-0.0861	-1.8294	1.2639	-1.5661	14.6405	-222.5423	298.1061	59.0303	0.2522	-0.1621	-0.6184	6.0381	-0.3664	-0.0557	12.1979	0.515	29.966	-1.084	-0.2871	0.2361
-0.9209	0.6568	9.6277	-8.214	14.0149	12.3397	-0.6642	-0.0861	-1.8294	1.0622	-1.5018	16.1008	-220.8074	294.921	63.4652	0.2702	-0.1261	-0.6184	5.8067	-0.1957	-0.2887	13.4045	0.8207	29.8709	-1.0837	-0.268	0.2367
-0.794	0.4772	9.9824	-7.3667	15.9425	13.5088	-0.6124	-0.1091	-1.8772	1.2678	-1.264	17.9211	-223.7094	294.7713	70.3683	0.3062	-0.1081	-0.6304	5.3016	0.2602	0.0457	14.5126	0.5498	29.6512	-1.0996	-0.2498	0.2014
-1.4469	0.7633	10.4926	-3.8887	19.5423	15.4807	-0.6637	-0.1244	-1.8473	2.2818	-0.796	20.1094	-227.6235	295.1246	79.2726	0.3182	-0.072	-0.6244	5.757	-0.0247	0.1111	17.0545	0.6567	30.6821	-1.0517	-0.2485	0.2202
-1.817	0.4202	9.9651	2.2908	22.6097	19.6215	-0.63	-0.0694	-1.8435	3.038	-1.0687	23.7533	-227.0693	294.4223	89.3561	0.3542	-0.036	-0.6244	4.9703	-0.4215	0.4968	20.7325	0.6627	32.3849	-1.0504	-0.1533	0.1877
-2.2312	-0.1673	10.3154	10.344	26.1971	27.7788	-0.6949	-0.1393	-1.7829	4.1431	-0.4202	27.7594	-221.0748	294.2367	99.159	0.3602	-0.012	-0.6184	4.7468	0.0908	0.7219	25.5874	-0.1235	34.1383	-1.036	-0.23	0.1678
-2.4099	0.0066	10.4268	20.1661	29.2582	34.6416	-0.6452	-0.0862	-1.8116	7.242	-0.123	31.1581	-212.2432	292.9411	106.1547	0.3903	0.042	-0.6064	4.5141	-0.3641	0.374	30.7346	-0.7954	34.2862	-1.0512	-0.2105	0.2036
-1.6534	-0.3263	8.985	23.914	30.7725	39.0867	-0.6114	-0.1085	-1.8604	11.5457	-0.1287	31.5922	-208.5407	287.2948	103.1231	0.4083	0.072	-0.5764	4.0633	0.4328	0.5952	36.0469	-2.0701	29.7543	-1.0668	-0.1732	0.169
-0.8837	1.1974	8.3957	19.6409	30.3471	35.8404	-0.6104	-0.1079	-1.8437	15.0661	1.7565	30.1458	-231.9447	266.8533	87.9506	0.4443	0.0781	-0.5584	4.6907	1.2283	0.8362	38.9095	-3.2846	23.1453	-1.0661	-0.1718	0.2401
-0.5005	2.0562	9.6759	26.9983	29.2411	26.5286	-0.5589	-0.0731	-1.8561	20.1231	3.305	31.187	-255.3212	227.6415	88.1679	0.4683	0.1201	-0.5524	4.6986	0.7737	1.2365	38.5779	-5.0497	12.4792	-1.035	-0.1725	0.1696
-0.0847	3.7504	9.4868	33.151	29.8277	11.6713	-0.5918	-0.0697	-1.8079	22.4669	6.4507	28.2012	-280.5836	195.0345	73.387	0.4863	0.1381	-0.4983	5.3835	1.9105	1.5361	34.4458	-5.9842	-0.9247	-1.0181	-0.1331	0.2067
-1.0309	2.3407	10.3051	34.2516	33.9914	-1.661	-0.5905	-0.127	-1.8264	24.6788	12.0969	18.4316	-285.9249	173.5488	56.0877	0.5223	0.1861	-0.4743	6.0043	2.9901	1.4339	26.7689	-5.1743	-12.8572	-1.0347	-0.1718	0.2052
-2.3952	0.113	11.243	33.1313	47.7449	-6.3615	-0.5926	-0.1282	-1.86	37.6831	9.7767	6.1982	-233.313	192.4317	47.644	0.5343	0.1921	-0.4443	6.9625	4.1261	1.1663	10.9304	-4.2047	-23.1619	-1.05	-0.1526	0.2232
-3.1656	-0.1858	11.8753	35.5163	65.7227	1.2258	-0.5727	-0.1473	-1.8428	45.002	27.1804	4.1338	-268.2948	178.3866	38.6514	0.5584	0.2101	-0.3963	8.5404	4.7493	0.6237	-6.7442	1.2396	-27.107	-1.0193	-0.191	0.1871
-2.7471	0.3404	11.7593	44.7314	83.3669	9.7043	-0.5212	-0.1125	-1.8553	36.5378	30.4777	5.0986	-212.2795	89.6628	17.1842	0.5764	0.2281	-0.3422	9.7781	5.9985	0.1325	-27.8224	5.4975	-26.811	-1.0187	-0.1714	0.2055
-2.5395	1.3542	9.9991	34.9476	101.9566	16.412	-0.5395	-0.1311	-1.8737	30.4986	20.6981	15.0103	-126.2427	-10.9523	5.508	0.5764	0.2161	-0.3002	10.6554	4.7449	-1.626	-20.0596	6.8103	-12.19	-1.0196	-0.2101	0.1865
-0.0519	4.5607	14.6723	37.0529	100.0649	14.0072	-0.4485	-0.154	-1.8691	28.6267	9.4289	14.9233	-22.5527	-63.2568	-26.2241	0.5824	0.2462	-0.2942	12.3495	0.9295	-5.4312	0.5711	5.171	15.142	-1.0826	-0.1731	0.1864
0.7909	4.4429	14.6886	67.396	82.3994	-9.7611	-0.448	-0.1923	-1.887	22.2639	9.3373	17.67	85.0627	-86.8874	-87.3299	0.5704	0.2342	-0.2882	12.1858	-3.506	-5.3805	-11.841	2.7243	11.7452	-1.0827	-0.192	0.2036
-2.5287	2.8211	14.0085	58.9373	102.0842	-19.5612	-0.4119	-0.1939	-1.885	15.7628	4.9557	12.6649	167.3601	-73.4921	-117.1651	0.5884	0.2281	-0.2762	9.3837	-1.9655	-3.3711	-35.6345	0.9012	-22.496	-1.0663	-0.1721	0.2223
-0.6095	3.1315	17.0152	58.2107	122.9043	-27.2501	-0.3774	-0.1578	-1.8817	12.4592	6.5498	7.6897	202.7611	-46.3419	-129.6355	0.5704	0.2402	-0.2882	9.303	-0.599	-1.4834	-19.4355	-2.0089	-23.3728	-1.0023	-0.1701	0.2591
-1.1686	3.5525	16.0662	60.6533	144.6822	-37.5722	-0.3737	-0.2716	-1.902	12.659	6.3428	0.0215	188.5447	-32.0609	-108.4441	0.5704	0.2402	-0.2822	10.4642	-0.6562	-0.0318	-2.1534	-6.878	-17.076	-1.0187	-0.1714	0.2055
-1.4037	4.0153	16.4065	59.6079	174.0237	-47.8092	-0.3392	-0.2355	-1.8988	10.7047	4.8927	-3.5361	111.9456	-35.8177	-76.1796	0.5464	0.2281	-0.2882	11.6281	-0.4289	1.5917	11.9624	-11.0875	-10.0646	-1.0025	-0.1519	0.2064
-0.6436	3.405	18.4705	61.8092	199.5642	-54.725	-0.2846	-0.2762	-1.9136	8.7549	6.5776	-0.4623	8.8202	-34.28	-40.622	0.5404	0.2522	-0.2822	12.4049	-0.7694	3.7226	41.5889	-14.4429	7.4285	-0.9712	-0.1893	0.2236
-0.9625	2.7349	20.7498	68.5415	226.816	-59.3846	-0.1938	-0.3185	-1.9264	-4.462	35.0771	27.2861	-21.3784	-42.8355	2.931	0.5343	0.2402	-0.2942	12.3137	-1.9057	4.8643	55.0104	-13.0839	12.3844	-0.9866	-0.1516	0.2067
-1.442	1.2931	24.0866	74.796	260.0411	-57.2656	-0.1508	-0.3354	-1.8243	4.3752	-12.4786	-6.7228	761.9735	-58.7328	-44.0602	0.5404	0.2582	-0.2822	12.0443	-0.9379	5.7183	55.9881	-14.1979	0.885	-1.0165	-0.0745	0.2619
-0.4488	0.9378	29.07	71.466	302.5094	-50.0586	-0.0621	-0.3789	-1.8706	-14.4606	-7.4718	64.2029	394.6774	-293.524	-30.0354	0.5464	0.2522	-0.3182	12.7188	5.3169	5.7929	19.4033	-0.0472	-18.0658	-0.9861	-0.1321	0.2251
2.6474	-0.684	37.1416	83.2789	357.8376	-41.7473	0.0463	-0.3642	-1.8471	1.1007	15.6865	1.4813	321.2866	-365.7605	93.173	0.5103	0.2342	-0.3422	17.8625	6.5584	1.7118	1.4993	24.4356	-5.9337	-0.9708	-0.1701	0.2242
1.7722	-10.7891	38.0118	98.0055	408.9671	-11.4513	0.1776	-0.4636	-1.826	7.2973	17.5125	26.6129	175.6444	-246.1981	87.9362	0.5103	0.2281	-0.3722	18.2911	5.5306	-2.8582	10.2902	37.0303	35.108	-1.0331	-0.0947	0.2254
6.0189	-16.124	39.6125	109.3437	455.7846	32.2026	0.2489	-0.3705	-1.7686	37.5455	-2.1247	6.9029	80.3911	-55.596	-17.8095	0.4983	0.2101	-0.3903	14.9391	4.5084	-6.2962	3.7296	49.1884	32.2368	-0.9854	-0.0937	0.2264
8.6776	-16.0015	43.5686	125.804	482.4155	86.3944	0.3765	-0.4333	-1.7799	0.8737	1.1852	12.4202	154.1324	5.3819	-16.4542	0.5043	0.2161	-0.4023	13.842	5.0232	-4.199	-32.396	61.3256	13.9349	-0.97	-0.1129	0.2083
5.4769	-0.53	33.9206	155.7528	443.6593	154.1885	0.4793	-0.488	-1.6088	-4.201	2.3807	7.6434	89.2484	-23.9954	14.4924	0.5103	0.1921	-0.3963	9.5696	2.3004	-2.22	-36.1366	57.2116	1.4158	-0.9699	-0.0941	0.1911
-5.5666	6.177	25.8791	214.9859	401.909	171.7284	0.5577	-0.5649	-1.5567	2.8673	-0.3303	8.6454	52.5899	-19.2341	18.1518	0.4983	0.1981	-0.3963	6.0659	0.3148	-1.5994	-20.3176	39.5418	-8.4788	-0.9856	-0.0756	0.1736
-11.6326	-3.078	29.2158	358.4672	357.0014	155.2045	0.6515	-0.6054	-1.5192	3.442	4.546	6.1605	61.2391	-12.22	-21.1202	0.5043	0.2101	-0.4143	7.5861	3.8409	1.1204	-1.1873	33.4603	-38.8782	-0.9697	-0.0753	0.174
-10.1209	5.6446	26.8565	532.2456	382.8531	98.1345	0.7202	-0.7541	-1.3866	1.3956	1.4024	9.7376	33.4269	8.3081	5.1935	0.4863	0.1861	-0.4083	13.0134	4.4614	3.223	18.8521	27.2257	-24.4383	-0.955	-0.1513	0.1896
7.3911	-25.1558	-8.1145	381.7598	284.5707	38.5953	0.7442	-0.7708	-1.3023	2.3788	0.5399	10.1625	32.3674	-0.7003	-1.2306	0.5103	0.1861	-0.4083	19.8643	1.6087	2.2595	9.9432	22.7682	16.9996	-0.9234	-0.1325	0.1376
17.9917	-25.6919	-17.4945	99.818	157.5061	110.88	0.7332	-0.8626	-1.256	2.7218	0.309	10.1094	21.21	-1.6979	-3.0644	0.4863	0.1861	-0.4083	15.2514	0.9312	1.2588	5.2415	20.6211	-15.9403	-0.9374	-0.0551	0.193
7.3648	-15.3753	-15.5924	-67.7067	68.5855	139.3475	0.7533	-0.8622	-1.2214	0.7591	2.4952	9.496	14.6739	-12.7337	-5.3879	0.5043	0.1921	-0.4083	12.2783	3.4932	0.1764	-6.0516	18.8703	-23.3297	-0.9384	-0.1126	0.1912
1.7874	1.6196	16.3759	-151.5896	17.8171	198.4703	0.736	-0.8803	-1.223	1.9387	2.7753	8.2903	-4.4375	-13.4245	-2.1373	0.4923	0.2101	-0.4083	12.5498	2.4686	-0.5632	-8.3514	16.224	-0.0199	-0.9545	-0.1133	0.1731
18.8726	-4.6119	9.2243	-159.6383	-116.3044	131.7866	0.6641	-0.8576	-1.2098	1.2766	2.092	9.5627	-10.2487	-11.5973	1.174	0.4983	0.1861	-0.4143	13.258	1.0447	-2.2677	-21.0247	8.5703	-5.4173	-0.9538	-0.0749	0.1743
14.1927	-3.7745	3.3528	-58.5959	-152.8927	93.558	0.5896	-0.7978	-1.2122	2.2661	0.0803	10.2168	-28.1058	-18.6446	1.2593	0.4923	0.1921	-0.4023	11.7788	1.4444	-2.4662	-23.9203	-1.0294	-13.0898	-0.9546	-0.1321	0.1902
8.7075	-0.7711	6.3124	-30.848	-158.3598	59.5076	0.6084	-0.8175	-1.2117	3.0103	-0.2088	10.1712	-24.2411	-20.6556	-3.0227	0.4923	0.2101	-0.4203	11.2815	1.5025	-1.7315	-24.1155	-6.7721	-15.8955	-0.9398	-0.1523	0.1188
7.8624	-1.3097	2.8021	-31.2325	-164.8008	15.9172	0.5499	-0.837	-1.2993	2.6426	1.5698	9.0596	-24.1617	-19.4719	-5.4578	0.4983	0.1801	-0.4143	10.9512	1.7308	-1.1652	-22.4674	-8.8793	-17.5289	-0.923	-0.1133	0.1382
8.1255	-2.2752	0.6591	-25.1519	-173.023	-18.1976	0.4262	-0.7913	-1.2382	1.5674	2.0926	9.8025	-32.7003	-20.7822	-0.6984	0.4863	0.1921	-0.3963	10.4983	1.6177	-1.1164	-23.4233	-9.5069	-18.3351	-0.9396	-0.1335	0.1017
6.4773	-3.0732	-0.7024	-39.4876	-181.7248	-45.7312	0.3816	-0.7366	-1.3392	2.3115	0.5952	9.6344	-40.0128	-22.3116	2.4573	0.4923	0.2041	-0.4143	10.0458	1.2771	-1.0678	-23.7718	-9.3654	-17.586	-0.9228	-0.113	0.1559
