1824_acc_x	1824_acc_y	1824_acc_z	1824_gyro_x	1824_gyro_y	1824_gyro_z	1824_mag_x	1824_mag_y	1824_mag_z	1825_acc_x	1825_acc_y	1825_acc_z	1825_gyro_x	1825_gyro_y	1825_gyro_z	1825_mag_x	1825_mag_y	1825_mag_z	1826_acc_x	1826_acc_y	1826_acc_z	1826_gyro_x	1826_gyro_y	1826_gyro_z	1826_mag_x	1826_mag_y	1826_mag_z
-1.3977	1.0623	9.906	0.6644	0.1377	0.3022	-0.6465	0.4319	-2.0446	1.8472	0.8247	9.3337	0.4664	1.6409	-0.2891	0.2882	-0.5283	-0.1381	9.4976	1.6198	0.0094	-0.2797	0.8538	-0.1077	-0.7816	-0.5027	0.6437
-1.4653	1.1259	9.4955	0.8467	-0.0437	0.296	0.3403	-0.6831	-1.9574	1.9675	0.7108	9.6283	0.5541	1.9216	-0.1376	0.2762	-0.5223	-0.1201	9.8325	1.1073	-0.3281	-0.2767	0.9133	-0.0151	-0.8615	-0.5051	0.6065
-1.7642	1.1249	9.607	0.8153	-0.0746	0.2957	0.357	-0.704	-1.9905	2.4898	0.7115	9.9897	0.7393	1.8602	-0.292	0.3062	-0.5163	-0.1261	9.8344	1.2211	-0.2135	-0.3982	0.7598	0.0794	-0.8134	-0.4849	0.6081
-1.1603	1.181	9.7336	0.7854	-0.0138	0.2974	0.3743	-0.6859	-1.9889	2.0749	0.4213	9.2191	0.7794	1.4277	-0.2896	0.2762	-0.5283	-0.1321	9.7212	1.8469	-0.1579	-0.0625	0.7317	-0.0845	-0.8127	-0.465	0.6442
-1.1005	1.4727	9.731	0.6341	0.0756	0.455	0.3034	-0.6627	-1.9589	2.314	1.0561	9.8122	0.2403	0.7437	-0.098	0.2822	-0.5163	-0.1261	10.0043	1.5621	-0.2101	0.223	0.82	0.1228	-0.8608	-0.4852	0.6426
-1.6445	0.892	9.5536	0.2958	0.3176	0.2185	0.338	-0.7038	-2.0083	2.4849	0.998	9.7567	-0.2206	0.6774	-0.0642	0.2702	-0.5343	-0.1381	10.0645	1.3347	-0.0376	0.5206	0.8867	-0.285	-0.8444	-0.4469	0.6264
-1.5216	0.5985	9.6762	0.482	0.2884	0.3385	0.3612	-0.7016	-1.9234	2.3741	1.3443	9.9903	-0.4984	0.7376	0.06	0.2882	-0.5283	-0.1441	9.9542	1.2213	0.1319	0.5855	0.9463	-0.1943	-0.8129	-0.4654	0.6265
-1.2221	0.8323	9.6202	0.8236	0.2295	0.6097	0.3552	-0.6857	-2.0067	2.0811	0.6528	9.5717	-0.5568	0.6142	0.1533	0.2882	-0.5223	-0.1321	9.7764	1.3918	-0.2717	0.5296	1.0654	-0.0073	-0.8132	-0.4846	0.6258
-1.3428	1.0659	9.6151	0.8221	0.1379	0.6078	0.3588	-0.7223	-1.9743	1.9003	0.7086	9.1	-0.7466	0.8284	0.1224	0.2762	-0.5343	-0.1381	9.4947	1.4491	-0.1624	0.4193	1.1809	0.4271	-0.8129	-0.4839	0.6614
-1.1674	0.9526	9.3278	0.453	0.2258	0.6143	0.398	-0.7221	-1.9219	1.7989	0.7119	9.8007	-0.657	0.9845	0.1824	0.2882	-0.5163	-0.1201	9.4319	1.2783	-0.507	0.5371	1.3666	0.21	-0.8293	-0.4853	0.6077
-1.2239	0.6003	9.5063	0.0216	0.4979	0.2873	0.3952	-0.7044	-1.9549	2.0701	0.6503	8.9859	-0.3845	1.0763	-0.2193	0.2762	-0.5283	-0.1321	9.7824	1.6195	0.0719	0.4749	1.2753	0.2111	-0.8295	-0.4856	0.59
-0.9813	0.832	9.6244	-0.4467	0.2184	0.2564	0.357	-0.704	-1.9905	2.0842	0.7686	9.7479	-0.1409	1.2336	-0.1909	0.2942	-0.5283	-0.1321	9.8378	1.0507	-0.042	-0.0193	1.0308	0.2854	-0.8456	-0.5048	0.6068
-0.8027	0.6581	9.513	-0.1363	0.2516	0.3455	0.3761	-0.7042	-1.9727	1.8529	0.711	9.6261	0.3145	1.5151	-0.3489	0.2822	-0.5223	-0.1261	9.5531	1.7903	-0.0466	-0.0524	0.6356	0.2525	-0.8124	-0.4459	0.6448
-1.578	0.8875	9.9051	-0.0712	0.5277	0.2276	0.3939	-0.7245	-1.989	2.4243	0.3645	9.5184	0.4649	1.6707	-0.4122	0.2762	-0.5163	-0.1201	9.7689	1.6189	-0.6721	0.1295	0.607	0.1239	-0.8291	-0.4849	0.6255
-1.28	0.7142	9.7374	-0.2536	0.5247	0.5066	0.3944	-0.6855	-1.9543	1.7899	0.8248	9.3326	0.5848	1.7947	-0.5058	0.2762	-0.5283	-0.1321	9.4422	1.3924	0.0655	-0.033	0.5495	-0.1175	-0.828	-0.427	0.6451
-1.3407	1.1228	9.7312	-0.2203	0.7085	0.4487	0.3578	-0.7229	-1.9911	2.3119	0.9981	9.6948	0.6483	1.7341	-0.4443	0.2762	-0.5283	-0.1261	9.8888	1.5053	-0.3267	-0.126	0.2143	-0.0867	-0.8127	-0.465	0.6442
-1.3431	1.2994	9.6122	-0.7412	0.9783	0.4303	0.3758	-0.6464	-1.9374	2.4867	0.5957	9.8134	0.6201	1.6737	-0.2594	0.2882	-0.5343	-0.1261	9.7723	1.3916	-0.5006	-0.307	0.212	0.0723	-0.8445	-0.4657	0.6436
-1.4618	0.8319	9.6743	-1.0126	1.3111	0.5332	0.3748	-0.7243	-2.0068	2.0288	0.9418	9.8648	0.5372	1.3039	-0.0416	0.2762	-0.5283	-0.1261	10.0617	0.9934	-0.2095	-0.4321	0.1211	0.0446	-0.8134	-0.4849	0.6081
-1.0373	0.8291	9.8569	-1.1659	1.3398	0.5973	0.3583	-0.6839	-1.9563	2.3623	0.5361	9.2838	0.5971	1.3339	-0.1958	0.2762	-0.5283	-0.1261	9.7205	1.6194	-0.2153	-0.0899	0.0595	0.0953	-0.7965	-0.4455	0.6452
-1.1007	0.8314	9.6807	-1.6605	1.2735	0.6635	0.3753	-0.6853	-1.9721	2.5964	0.882	9.5826	0.4742	1.3651	-0.0416	0.2762	-0.5343	-0.1261	9.887	1.2209	-0.4414	0.0341	0.09	0.0919	-0.8297	-0.5044	0.6071
-1.4069	0.8355	9.3834	-1.7563	1.3354	0.2663	0.3547	-0.6474	-1.9887	2.1414	0.8261	9.7493	0.7202	1.4303	0.0487	0.2822	-0.5283	-0.1381	9.4938	1.3353	-0.2197	0.314	-0.0934	0.1435	-0.844	-0.4277	0.627
-1.4623	1.1821	9.6699	-1.5103	1.1538	0.4438	0.3416	-0.7404	-1.9759	2.1461	0.6546	9.9828	0.7794	1.4277	-0.2896	0.2882	-0.5103	-0.1321	9.8954	2.0174	0.0743	0.4688	-0.0933	0.1389	-0.8751	-0.427	0.6975
-1.4674	1.069	9.3794	-1.3569	1.0942	0.4406	0.3959	-0.7233	-1.9555	2.0306	1.1724	9.983	0.6874	1.5545	0.1404	0.2822	-0.5163	-0.1261	9.5514	1.449	-0.1613	0.8383	0.182	0.0378	-0.8442	-0.4466	0.6442
-1.5814	1.0648	9.7277	-1.6019	1.2754	0.3553	0.3936	-0.6666	-1.9537	2.0176	0.4213	9.218	0.714	1.6446	-0.1676	0.2762	-0.5343	-0.1441	9.4381	1.2785	-0.1636	0.928	0.0617	-0.058	-0.829	-0.4661	0.6084
-1.1038	0.8336	9.5055	-1.3544	1.3393	0.2921	0.34	-0.7026	-1.9747	2.0249	0.6532	9.6291	0.6568	1.5863	0.2633	0.2822	-0.5223	-0.1261	9.3783	1.2216	-0.3363	0.9613	0.213	0.0037	-0.8763	-0.4664	0.6429
-1.1034	0.4834	9.5099	-1.2264	1.431	0.5693	0.3753	-0.6853	-1.9721	2.2539	0.7678	9.6341	0.6291	1.3993	0.1416	0.2822	-0.5343	-0.1321	9.3208	1.051	-0.3947	0.715	0.3646	0.043	-0.8291	-0.4849	0.6255
-1.5858	0.4265	9.4437	-0.8893	1.374	0.41	0.4096	-0.6686	-1.9862	2.2618	0.6546	10.0436	0.4754	1.3665	0.112	0.2702	-0.5283	-0.1201	9.5511	1.7333	-0.1611	0.627	0.4232	0.1997	-0.8124	-0.4274	0.6099
-1.4004	0.7144	9.7352	-0.6436	1.254	0.4658	0.381	-0.7207	-1.9062	2.1945	0.7099	9.5155	0.6936	1.2448	0.0807	0.2762	-0.5223	-0.1381	9.7193	0.88	-0.3304	0.7573	0.3898	0.4107	-0.8604	-0.4661	0.6433
-1.1619	0.8322	9.6212	-0.6424	1.3458	0.4371	0.363	-0.7199	-1.9072	2.5435	0.1928	9.7541	0.6669	0.9321	-0.2553	0.2762	-0.5283	-0.1321	9.6041	1.3919	-0.3893	0.9994	0.3925	0.2191	-0.8283	-0.4647	0.6795
-1.5255	1.126	9.4944	-1.0455	1.4654	0.1064	0.3952	-0.7044	-1.9549	2.0798	0.7676	9.5136	0.6714	0.8744	0.1752	0.2882	-0.5343	-0.1381	9.7783	1.5625	-0.1571	1.0583	0.6377	0.0963	-0.845	-0.4852	0.6252
-1.6454	0.776	9.4967	-0.6736	1.4995	0.164	0.3725	-0.6676	-2.005	2.0252	1.1136	9.6898	0.4035	0.5026	0.3941	0.2822	-0.5283	-0.1321	9.7186	1.3918	-0.33	1.1809	0.5469	0.0612	-0.8129	-0.4654	0.6265
-1.2838	0.4253	9.5074	-0.8253	1.5275	0.3818	0.3769	-0.7231	-1.9733	2.2499	1.1697	9.4601	0.0013	0.5604	0.3961	0.2822	-0.5343	-0.1381	9.6726	1.1648	0.2411	1.3286	0.3675	-0.1597	-0.8126	-0.4462	0.6271
-1.4023	0.5991	9.6199	-0.6964	1.7726	0.5085	0.3923	-0.6867	-1.9878	2.0852	0.8264	9.8068	-0.2145	0.59	0.4894	0.2882	-0.5283	-0.1201	9.6055	1.1076	-0.3323	1.2097	0.4565	-0.0018	-0.8438	-0.4459	0.6797
-1.7607	0.9476	9.7844	-0.936	2.1361	0.6424	0.3753	-0.6853	-1.9721	2.0244	0.9408	9.6304	-0.248	0.6815	0.3969	0.2762	-0.5223	-0.1261	9.7271	1.2784	0.1278	1.3332	0.3348	-0.0065	-0.7804	-0.4449	0.6633
-1.5251	0.8342	9.4981	-1.2477	2.1034	0.4303	0.373	-0.6287	-1.9703	1.8518	0.7107	9.5675	-0.1273	0.7428	0.2114	0.2882	-0.5163	-0.1321	9.7187	1.3349	-0.33	1.2669	0.4587	-0.1571	-0.8447	-0.4661	0.6258
-1.5909	1.0714	9.2021	-1.3978	2.2846	0.5592	0.3756	-0.6658	-1.9547	1.8607	0.6553	10.0359	-0.0151	1.1745	-0.0376	0.2882	-0.5223	-0.1381	10.0645	1.2779	-0.0376	1.6276	0.2811	-0.5074	-0.8286	-0.4654	0.6439
-1.4074	1.244	9.3783	-1.5297	1.9792	0.2467	0.339	-0.7032	-1.9915	2.3636	1.0542	9.4032	0.3247	1.1153	-0.1315	0.2762	-0.5163	-0.1321	9.5493	1.5058	-0.2758	1.4659	0.1928	-0.7183	-0.8284	-0.465	0.6617
-1.2783	1.0046	9.8505	-1.4978	2.0406	0.2476	0.415	-0.7235	-1.9377	1.8552	0.654	9.743	0.4764	1.2408	-0.1024	0.2882	-0.5343	-0.1261	10.0674	1.5055	0.1342	1.4535	0.1376	-1.1179	-0.8133	-0.4661	0.5909
-1.2269	1.2438	9.3814	-1.8033	2.1592	0.377	0.3387	-0.6454	-1.9562	2.2044	0.7122	10.0428	0.4157	1.2732	0.1129	0.2942	-0.5283	-0.1321	9.895	0.7094	-0.0412	1.6771	0.226	-0.9088	-0.8288	-0.4657	0.6261
-1.7014	0.7731	9.7292	-1.4348	2.0715	0.309	0.374	-0.7054	-2.0062	2.4813	1.1698	9.5817	0.1985	1.2692	-0.0702	0.2882	-0.5163	-0.1261	9.7221	1.1076	-0.1585	1.3005	0.1063	-1.0521	-0.8285	-0.4466	0.6267
-1.5865	0.8934	9.4379	-1.1881	2.0742	0.2752	0.3938	-0.6472	-1.9363	1.791	0.8251	9.3912	0.1435	0.9912	0.024	0.2882	-0.5283	-0.1381	9.7186	1.3918	-0.33	1.266	0.1689	-1.1735	-0.8119	-0.4264	0.6632
-1.5917	0.897	9.1459	-1.2785	2.0723	0.4916	0.3933	-0.6861	-1.9711	1.7382	0.7687	9.6242	0.054	1.0259	0.516	0.2762	-0.5343	-0.1381	9.7736	1.1642	-0.4436	1.2327	0.3224	-1.2634	-0.876	-0.4472	0.6436
-1.2802	0.8893	9.7352	-1.1238	2.166	0.3686	0.3601	-0.7022	-1.9402	2.2493	0.8818	9.4003	0.0018	0.5292	0.3656	0.2822	-0.5223	-0.1141	9.9484	0.8798	-0.2117	1.2278	0.2637	-1.4174	-0.8444	-0.4469	0.6264
-1.7659	0.8345	9.4938	-1.3043	2.316	0.5894	0.4142	-0.7046	-1.9371	1.851	1.2284	9.5698	0.1976	0.1003	0.5821	0.2942	-0.5283	-0.1201	9.7223	0.9938	-0.1586	1.7195	0.2961	-1.5548	-0.8129	-0.4839	0.6614
-1.4624	0.5408	9.6196	-1.3987	2.408	0.2851	0.3743	-0.6859	-1.9889	2.3146	0.711	9.8106	-0.1086	0.1316	0.9525	0.2822	-0.5283	-0.1321	9.6078	1.7901	-0.16	1.9051	0.2657	-1.5606	-0.8454	-0.5229	0.6595
-1.5795	0.4804	9.7934	-1.3928	2.6209	0.5049	0.3769	-0.7231	-1.9733	2.1424	0.8838	9.8081	-0.2031	0.2234	0.9525	0.2882	-0.5404	-0.1201	9.8957	1.8468	0.0742	1.999	0.2653	-1.5326	-0.8291	-0.4849	0.6255
-1.7026	0.8906	9.6694	-1.0532	2.5937	0.5308	0.3931	-0.7056	-1.9884	2.0832	0.7109	9.6891	-0.4795	0.1267	0.8318	0.2762	-0.5283	-0.1141	9.5515	1.3921	-0.1614	2.2445	0.175	-1.6022	-0.7954	-0.4065	0.6819
-1.8841	0.8332	9.6085	-1.1157	2.5318	0.561	0.3938	-0.6472	-1.9363	2.026	0.6535	9.6877	-0.576	0.2158	0.5552	0.2942	-0.5163	-0.1261	10.0011	1.6189	-0.3818	2.24	0.238	-1.7552	-0.8288	-0.4842	0.6611
-1.4023	0.5991	9.6199	-1.4484	2.6177	1.0898	0.3941	-0.705	-1.9716	2.4753	0.8232	9.2287	-0.6725	0.3686	0.4627	0.2822	-0.5404	-0.1321	9.4939	1.2215	-0.2198	2.3672	0.4193	-1.6653	-0.7961	-0.4448	0.6807
-1.2867	1.0104	9.3833	-1.4518	2.7114	0.6306	0.414	-0.7241	-1.9544	2.4202	0.8238	9.3447	-0.4656	0.677	0.1523	0.2762	-0.5223	-0.1201	9.7167	1.278	-0.4445	2.3162	0.3228	-1.2958	-0.8288	-0.4842	0.6611
-1.5844	0.9503	9.5539	-1.2104	2.4702	0.4686	0.4305	-0.6871	-1.9522	2.0231	1.0555	9.5724	-0.4711	0.924	0.1202	0.2762	-0.5343	-0.1381	9.4973	1.8473	0.0096	2.37	0.418	-1.5732	-0.8129	-0.4654	0.6265
-1.8233	0.3662	9.6154	-1.3945	2.5601	0.4421	0.3962	-0.7038	-1.9381	2.0869	0.4816	9.8638	-0.6181	0.6775	0.3683	0.2822	-0.5283	-0.1321	9.2669	1.2218	-0.224	2.5141	0.3012	-1.9165	-0.7975	-0.5031	0.6433
-1.2824	0.8908	9.6184	-1.1745	2.653	0.6566	0.358	-0.6261	-1.921	1.9121	0.884	9.7451	-0.6178	0.5827	0.1538	0.2822	-0.5343	-0.1321	10.0618	1.7896	-0.1517	2.1808	0.511	-1.6898	-0.8445	-0.4657	0.6436
-1.5164	1.4112	10.0163	-1.1148	2.6852	0.4105	0.4281	-0.6305	-1.9504	2.4279	0.8256	9.7548	-0.5503	0.4319	0.4923	0.2822	-0.5283	-0.1321	9.268	1.2219	-0.1667	2.1098	0.6371	-1.9939	-0.8435	-0.4267	0.6804
-1.2148	0.9439	10.0275	-1.4463	3.0782	0.577	0.3586	-0.6645	-1.939	1.8024	0.5976	9.976	-0.2755	0.4312	0.122	0.2762	-0.5404	-0.1441	9.5518	1.1647	-0.1616	2.2318	0.638	-2.059	-0.8291	-0.4849	0.6255
-1.6989	0.5382	9.849	-0.6056	3.5453	0.4843	0.4111	-0.6291	-1.9347	1.968	0.4233	9.627	0.1262	0.4365	0.2425	0.2762	-0.5223	-0.1381	10.0546	1.7324	-0.5524	2.4187	0.6985	-2.0334	-0.8127	-0.465	0.6442
-1.2209	0.7149	9.68	-0.289	4.0682	0.3994	0.3735	-0.7443	-2.0409	1.7964	0.8839	9.6844	-0.3884	0.0623	0.4628	0.2822	-0.5163	-0.1201	9.8354	1.278	-0.1563	2.7566	0.7608	-2.1352	-0.8291	-0.5034	0.6605
-1.2805	1.0644	9.733	-0.2805	4.3415	0.7743	0.3946	-0.666	-1.9369	2.1965	0.8255	9.6332	-0.3171	-0.4011	0.4345	0.2882	-0.5283	-0.1321	9.5999	1.3917	-0.6182	3.4139	0.9406	-1.9383	-0.8117	-0.426	0.681
-1.3357	1.2943	10.021	-0.2798	4.4642	0.6539	0.3756	-0.6658	-1.9547	2.083	0.8259	9.6896	-0.6482	-0.712	0.6226	0.2822	-0.5223	-0.1261	9.9486	1.5622	-0.154	3.4771	1.0619	-1.9085	-0.8603	-0.4472	0.6261
-1.3447	0.9507	9.4998	-0.5527	4.9207	0.4212	0.3586	-0.6645	-1.939	2.1343	1.1121	9.3991	-0.8886	-0.9288	0.8404	0.2702	-0.5223	-0.1261	9.776	1.733	-0.2714	3.9115	1.3969	-1.9188	-0.8284	-0.4835	0.6966
-1.8856	0.3678	9.4976	-0.6107	5.2261	0.3055	0.414	-0.7241	-1.9544	1.7369	0.941	9.5664	-1.0412	-0.9601	0.9644	0.2702	-0.5223	-0.1321	9.7166	1.3348	-0.4445	3.9772	1.6999	-1.8262	-0.8126	-0.502	0.7141
-1.2843	0.7755	9.503	-0.4204	5.5643	0.249	0.4134	-0.6857	-1.9365	2.1382	0.7678	9.5733	-0.5166	-0.9542	1.0228	0.2942	-0.5343	-0.1321	9.5993	1.9035	-0.6178	4.2167	2.1	-2.1374	-0.8285	-0.4466	0.6267
-1.408	0.8946	9.3243	-0.2266	6.1471	0.1362	0.4299	-0.6487	-1.9343	1.966	0.9406	9.5708	-0.3697	-0.549	1.2039	0.2702	-0.5283	-0.1381	9.3811	1.5061	-0.1644	4.2245	2.4926	-1.9194	-0.845	-0.5037	0.6601
-1.4664	1.1267	9.4371	-0.2213	6.7601	-0.3119	0.3957	-0.6654	-1.9201	2.1404	0.7683	9.6904	0.1441	-0.0487	1.2286	0.2882	-0.5223	-0.1261	9.6065	1.1645	-0.275	4.6904	2.3702	-1.8729	-0.7809	-0.4644	0.6449
-1.4646	0.6007	9.5021	0.4323	7.2567	-0.6169	0.3753	-0.6853	-1.9721	2.0785	0.8824	9.4555	0.6327	0.1727	1.2244	0.2762	-0.5343	-0.1261	9.6058	1.7332	-0.2745	5.3717	2.4313	-1.8928	-0.8435	-0.4267	0.6804
-1.5226	0.5409	9.6185	0.9961	7.8436	-0.7958	0.4323	-0.7054	-1.936	2.3639	0.8816	9.4025	0.3787	0.4149	0.9479	0.2762	-0.5343	-0.1261	9.3813	1.3923	-0.1645	6.0416	2.4672	-2.2813	-0.8439	-0.4274	0.6448
-1.5794	0.3637	9.7949	0.7352	8.941	-0.8917	0.4276	-0.6694	-1.9852	2.1943	0.8249	9.5161	0.8174	0.0471	0.8246	0.2822	-0.5343	-0.1321	9.6637	1.6194	-0.2164	6.6059	2.007	-2.0253	-0.829	-0.4846	0.6433
-1.5812	0.8897	9.7299	1.1663	10.44	-0.434	0.4493	-0.7068	-1.9518	2.1416	0.711	9.7488	0.351	0.3233	1.1023	0.2822	-0.5343	-0.1261	10.2284	1.3911	-0.3778	7.2984	1.7277	-1.6488	-0.8132	-0.4846	0.6258
-1.6404	0.1894	9.7376	0.7218	11.2888	0.0205	0.4127	-0.6668	-1.9359	1.9107	1.0562	9.6873	-0.1369	0.1027	1.1986	0.2822	-0.5283	-0.1381	9.6074	1.2783	-0.2177	7.0191	1.8193	-1.6704	-0.8127	-0.4835	0.6792
-1.3415	0.8901	9.6757	-0.0892	12.2244	0.7276	0.3938	-0.6472	-1.9363	1.9124	0.7114	9.7444	-0.0172	0.2265	1.0743	0.2762	-0.5343	-0.1201	9.3802	1.3923	-0.2217	7.0883	1.7549	-1.4272	-0.8279	-0.4455	0.6801
-1.4597	0.8304	9.7911	-0.3822	13.2297	0.6608	0.4317	-0.667	-1.9181	2.0272	0.5962	9.746	0.0374	0.5357	1.0107	0.2762	-0.5283	-0.1381	9.725	1.3352	0.0134	7.9287	1.997	-1.3275	-0.8438	-0.4459	0.6797
-1.4588	0.9464	9.8481	-0.6707	14.387	0.7818	0.4336	-0.6853	-1.9019	2.3703	0.3653	9.693	0.0645	0.7217	1.0401	0.2822	-0.5223	-0.1201	9.1598	1.1085	0.1173	8.4199	2.182	-1.4943	-0.8601	-0.4654	0.6788
-1.8165	0.828	10.0184	1.0649	14.6173	0.9803	0.4668	-0.6692	-1.9328	2.0884	0.2518	9.9213	0.4196	0.0787	1.3184	0.2702	-0.5404	-0.1381	9.7179	1.1643	-0.3874	8.7285	2.7616	-1.5911	-0.828	-0.427	0.6451
-1.2733	1.2343	10.1396	4.0475	13.8535	0.8955	0.4688	-0.668	-1.8992	2.0876	0.7119	9.9234	0.1703	-0.9997	2.0024	0.2882	-0.5283	-0.1321	9.9581	1.4489	0.361	8.7512	3.1312	-1.8961	-0.813	-0.4842	0.6436
-1.6914	1.2327	10.3073	5.1736	14.8432	0.6876	0.4359	-0.742	-1.9037	2.4234	0.8821	9.5207	0.5742	-1.1187	2.0622	0.2822	-0.5343	-0.1321	9.8914	1.9035	-0.1547	8.8546	3.5066	-2.6029	-0.8452	-0.4856	0.6074
-1.4462	1.0544	10.5474	6.7083	16.1416	0.6657	0.3957	-0.6654	-1.9201	2.1915	1.1695	9.4005	0.114	-1.1523	2.2802	0.2822	-0.5223	-0.1381	9.548	1.6763	-0.3329	8.6281	3.6939	-2.9327	-0.8442	-0.4281	0.6093
-1.6321	1.0583	10.2522	7.7614	18.1372	0.7573	0.4279	-0.6499	-1.9678	2.5346	0.9386	9.3474	0.3946	-1.2725	2.3407	0.2762	-0.5223	-0.1381	9.2147	1.7339	0.0616	9.0771	3.5794	-3.4387	-0.78	-0.4257	0.6639
-1.9273	0.7632	10.5426	9.1774	19.8629	0.5309	0.4678	-0.6686	-1.916	1.7311	1.1122	9.2742	0.2411	-1.2732	2.4338	0.2762	-0.5223	-0.1261	9.7242	1.9607	0.0139	9.8363	3.3428	-3.9242	-0.8433	-0.4079	0.6632
-2.1726	0.9999	10.3018	11.2729	21.534	0.3871	0.4887	-0.6871	-1.882	2.4249	0.6523	9.5783	0.6045	-0.8967	2.6138	0.2822	-0.5404	-0.1441	9.49	1.847	-0.391	10.274	3.203	-4.7988	-0.8281	-0.4643	0.6972
-1.6401	0.714	9.7894	12.909	23.2603	0.527	0.4874	-0.7072	-1.9162	2.1364	0.5372	9.4551	1.0854	-0.3994	2.3622	0.2702	-0.5163	-0.1321	9.8895	1.7328	-0.2693	10.4634	3.1709	-4.6818	-0.8285	-0.4466	0.6267
-1.8152	0.6522	10.079	14.546	25.0784	0.6074	0.4892	-0.7255	-1.9	2.4242	0.422	9.5187	1.4107	0.1264	2.0191	0.2942	-0.5223	-0.1261	9.6629	1.4488	-0.2737	10.3552	3.3769	-4.1853	-0.8285	-0.4466	0.6267
-1.5654	0.9954	10.6044	15.8508	27.4436	0.55	0.4911	-0.7437	-1.8838	2.0251	1.1711	9.69	1.9237	0.5304	1.6757	0.2822	-0.5404	-0.1321	9.551	1.8471	-0.161	10.3424	3.4599	-3.6004	-0.7963	-0.4267	0.628
-1.5118	1.1165	10.2536	17.4584	29.6607	0.1474	0.4382	-0.7213	-1.8528	2.5965	0.8245	9.5823	2.4651	0.9633	1.086	0.2762	-0.5343	-0.1321	9.6091	1.5627	-0.103	10.2511	3.6724	-3.5652	-0.8287	-0.4469	0.609
-1.8624	1.168	10.8305	18.2708	32.4815	-0.4475	0.4934	-0.7231	-1.8329	2.1324	0.3061	9.2197	2.1779	1.3926	1.0237	0.2702	-0.5343	-0.1321	9.8354	1.3349	-0.1562	10.5239	3.9191	-3.7865	-0.8278	-0.4267	0.6629
-2.2263	1.6368	10.7015	18.3407	35.4182	-1.338	0.4563	-0.7221	-1.8517	2.2005	1.0565	9.8686	2.5072	2.0188	1.479	0.2702	-0.5283	-0.1261	9.6016	1.733	-0.5035	11.4418	4.0464	-4.1817	-0.7797	-0.4065	0.6645
-1.993	0.942	10.2473	19.4076	38.6074	-1.805	0.4941	-0.7419	-1.8335	2.308	0.7095	9.4592	2.3166	2.4544	1.9692	0.2762	-0.5163	-0.1321	9.2604	1.449	-0.5672	12.4295	3.9872	-4.3039	-0.8276	-0.4263	0.6807
-2.5918	0.999	10.4112	20.1707	41.7606	-1.7462	0.5483	-0.7443	-1.8304	2.144	0.5965	9.8654	2.0377	2.6403	2.3078	0.2702	-0.5283	-0.1261	9.8279	1.4483	-0.5568	13.3814	3.8694	-4.5792	-0.8772	-0.4866	0.589
-2.2257	1.2283	10.7066	21.2469	44.7614	-1.0488	0.5143	-0.7416	-1.7989	2.4277	0.9406	9.7553	2.2529	2.7052	2.3983	0.2822	-0.5163	-0.1261	9.7789	1.9037	-0.0996	14.1919	4.1414	-4.4476	-0.8284	-0.465	0.6617
-2.3471	1.2292	10.6461	22.4746	47.5496	-0.2964	0.531	-0.7624	-1.832	2.3155	0.8263	9.8697	2.4915	2.9833	2.1187	0.2702	-0.5283	-0.1201	9.7218	1.3919	-0.1583	14.5846	4.2985	-4.7961	-0.8281	-0.4459	0.6623
-1.8629	1.5765	10.8254	24.4985	50.2257	-0.0177	0.5712	-0.7616	-1.7628	2.0731	0.8236	9.1624	3.0649	3.5133	1.9585	0.2882	-0.5404	-0.1321	9.4922	1.7902	-0.2766	14.8746	4.6431	-5.4781	-0.8283	-0.4462	0.6445
-2.5292	0.8223	10.5313	26.7514	52.3275	-0.554	0.5563	-0.8363	-1.7662	2.0761	0.9969	9.3389	3.8562	3.8259	1.4603	0.2702	-0.5283	-0.1201	9.7172	1.733	-0.3869	15.7397	4.6892	-6.5791	-0.8601	-0.4469	0.6439
-2.0958	1.2215	11.2343	29.8496	54.8635	-0.6916	0.5571	-0.8552	-1.7668	2.2549	0.8256	9.6929	4.1827	4.3214	1.1789	0.2762	-0.5043	-0.1261	9.4856	2.0743	-0.6198	16.3029	5.0973	-7.4531	-0.8281	-0.4274	0.6274
-2.1708	1.2319	10.4157	33.5835	56.5504	-0.7327	0.5937	-0.8179	-1.73	2.4262	1.1704	9.6978	4.0823	4.6596	1.0853	0.2762	-0.5283	-0.1261	9.9429	1.9601	-0.4398	17.3629	5.6429	-7.296	-0.8295	-0.4856	0.59
-2.9424	1.0505	10.9881	37.8444	56.4711	-0.7571	0.5813	-0.8524	-1.6652	2.0234	0.883	9.5716	3.6784	4.8104	1.1175	0.2822	-0.5163	-0.1261	9.8338	1.7329	-0.2131	18.1687	6.2219	-7.3463	-0.8435	-0.4267	0.6804
-2.9469	1.2869	10.7516	42.4163	52.9452	-1.0448	0.5952	-0.8556	-1.7312	2.135	0.7095	9.3973	2.5367	4.7658	0.9093	0.2822	-0.5223	-0.1201	9.9993	1.3913	-0.4964	18.5451	6.2503	-7.2036	-0.8276	-0.4079	0.6457
-2.413	1.5247	10.3494	50.2384	48.2935	-1.8282	0.5816	-0.833	-1.6478	2.1424	0.8838	9.8081	1.7435	4.3236	0.7937	0.2762	-0.5223	-0.1261	9.7184	1.6193	-0.3298	18.886	6.677	-7.2412	-0.8124	-0.4459	0.6448
-3.6175	1.2936	10.2727	55.5471	42.7909	-2.3833	0.6347	-0.8359	-1.6615	2.2588	0.4813	9.8671	0.725	4.3754	0.8301	0.2822	-0.5103	-0.1261	9.266	1.108	-0.2813	18.3434	7.188	-6.7906	-0.8276	-0.4263	0.6807
-3.63	1.1857	9.5734	58.531	34.6054	-2.4446	0.6422	-0.8896	-1.5794	2.1983	0.4231	9.69	0.0112	4.2669	-0.0562	0.2822	-0.5404	-0.1261	9.3715	0.8801	-0.7372	17.8211	7.2629	-5.6374	-0.8442	-0.4281	0.6093
-3.8654	1.124	9.8619	64.5426	28.2515	-2.3811	0.6579	-0.9111	-1.6293	2.0862	0.8842	9.8656	-0.9916	3.8941	0.8431	0.2822	-0.5223	-0.1081	9.5994	0.9936	-0.6757	17.2438	7.4708	-5.2805	-0.8284	-0.465	0.6617
-3.2726	0.838	9.3506	64.0927	23.7769	0.0186	0.586	-0.8884	-1.616	1.9051	1.1125	9.3947	-0.8245	3.2453	0.723	0.2702	-0.5223	-0.1261	9.8229	1.2775	-0.843	16.2342	7.1295	-4.8228	-0.8119	-0.4264	0.6632
-1.3086	0.734	8.1606	67.2356	14.0348	-0.1091	0.5938	-0.9226	-1.5166	2.1375	1.1704	9.5751	-0.6384	3.2168	0.7836	0.2762	-0.5223	-0.1141	9.8307	0.8797	-0.4427	15.4547	6.8575	-4.9553	-0.8287	-0.4469	0.609
-0.1249	-0.828	6.9752	55.1578	2.9006	-3.2437	0.5969	-0.9981	-1.5189	1.9715	0.9419	9.8637	-0.6071	3.2177	0.8448	0.2882	-0.5343	-0.1201	10.1711	0.9362	-0.4364	14.3666	6.341	-5.0191	-0.8273	-0.3887	0.6464
0.126	-0.5438	7.5597	36.635	-0.0201	-6.5189	0.6141	-0.98	-1.5173	2.3686	0.7101	9.636	-0.2098	3.4079	0.9028	0.2762	-0.5223	-0.1381	9.7169	1.1074	-0.4446	13.8322	5.5522	-5.1938	-0.8437	-0.427	0.6626
0.379	-0.9608	8.2115	22.0859	-2.5883	-11.3434	0.5618	-0.996	-1.5042	1.5585	0.8822	9.2113	0.5858	3.6943	0.8964	0.2762	-0.5163	-0.1141	9.5527	0.4254	-0.1621	13.6139	4.4252	-5.1348	-0.7965	-0.4455	0.6452
1.2787	-1.0765	8.0536	20.5016	-4.0069	-18.7045	0.5992	-0.9775	-1.468	2.1414	0.8261	9.7493	0.7639	3.9096	0.5868	0.2882	-0.5283	-0.1141	10.0569	1.505	-0.4381	13.1887	3.1411	-4.7329	-0.8117	-0.4075	0.6461
1.2185	-1.0764	8.0526	18.1664	-6.5848	-28.0804	0.5825	-1.0339	-1.4876	2.1389	0.3652	9.5715	1.0659	4.0317	0.0927	0.2942	-0.5343	-0.1381	9.6049	0.7663	-0.3898	12.9803	2.4971	-4.3938	-0.8445	-0.4657	0.6436
0.8988	-1.2379	6.9983	13.8245	-6.8103	-35.1965	0.5843	-1.0522	-1.4714	2.0856	0.5964	9.8057	1.0795	3.3822	0.0657	0.2762	-0.5343	-0.1261	9.7794	0.6526	-0.1578	12.5641	1.6965	-3.7424	-0.8274	-0.426	0.6985
0.7185	-1.4128	6.9973	1.238	-14.4946	-39.2339	0.5683	-1.0502	-1.4389	2.3751	1.4021	10.0492	0.6092	2.549	0.7495	0.2762	-0.5103	-0.1201	9.6581	1.1073	-0.5601	12.6753	1.2308	-3.1042	-0.8285	-0.4466	0.6267
1.0885	-1.7109	7.4745	-3.6137	-16.9775	-41.4104	0.5675	-1.0313	-1.4383	1.6888	0.7131	10.0329	0.3307	1.2819	1.1274	0.2822	-0.5343	-0.1201	9.4873	0.6525	-0.6209	12.2579	1.2536	-2.5691	-0.845	-0.5037	0.6601
0.68	-1.8359	8.1694	-7.855	-19.4026	-41.4712	0.5871	-1.0699	-1.4385	1.9117	1.1715	9.7464	1.1216	0.4262	1.343	0.2702	-0.5343	-0.1201	9.3735	0.937	-0.6227	11.7774	1.4903	-2.0919	-0.8285	-0.4466	0.6267
1.3984	-1.3094	8.0003	-9.7844	-21.987	-41.7184	0.5467	-1.0128	-1.4723	2.4281	0.7106	9.7543	1.7222	-0.2476	1.3742	0.2882	-0.5163	-0.1201	9.3731	1.2782	-0.6225	11.5391	1.4858	-1.7776	-0.8596	-0.4274	0.6623
0.8004	-1.0781	8.2204	-14.0952	-23.8075	-40.5351	0.5673	-1.0508	-1.4557	2.3751	0.7692	9.9877	2.2647	-0.981	1.7134	0.2762	-0.5223	-0.1321	9.3206	1.1648	-0.3947	10.6997	1.5786	-1.8746	-0.8759	-0.4284	0.6264
1.039	-1.0769	8.1078	-17.1649	-25.341	-39.2689	0.5474	-1.0317	-1.4729	2.0764	0.8244	9.3381	2.9157	-1.0968	1.8332	0.2702	-0.5464	-0.1261	9.8319	0.7092	-0.3856	10.6061	1.3351	-1.8738	-0.844	-0.4277	0.627
1.0435	-1.2549	8.3436	-20.3409	-27.885	-37.7157	0.5472	-1.0512	-1.4903	2.141	0.4232	9.6889	3.5383	-1.3688	1.8311	0.2822	-0.5404	-0.1321	9.5519	1.0509	-0.1616	10.8351	1.0551	-1.4527	-0.8274	-0.4075	0.6635
0.9803	-0.6114	8.2177	-24.8444	-32.6446	-35.5788	0.4946	-1.0866	-1.4945	2.3684	0.8252	9.6365	3.629	-1.3066	1.7688	0.2822	-0.5163	-0.1141	9.5008	0.71	0.1232	10.7548	1.1711	-1.0499	-0.8591	-0.3894	0.6457
0.7505	-0.8519	8.8004	-29.0226	-38.7486	-32.7063	0.5135	-1.1063	-1.4941	2.3712	1.1135	9.8136	4.4782	-0.8712	1.1159	0.2642	-0.5223	-0.1141	9.4313	0.8801	-0.5645	10.9496	1.0755	-0.7492	-0.8112	-0.4065	0.6994
0.6322	-0.8532	8.915	-32.6282	-44.4848	-28.8489	0.5287	-1.0894	-1.526	2.2535	0.9979	9.6351	5.2975	-0.4349	0.5861	0.2822	-0.5103	-0.1141	9.263	1.051	-0.453	10.7446	0.9175	-0.3448	-0.8444	-0.4469	0.6264
0.2139	-0.7381	9.0814	-34.9401	-48.8659	-24.5171	0.5679	-1.1665	-1.5263	2.3162	1.0566	9.9294	5.1204	-0.8077	0.5893	0.2642	-0.5163	-0.1081	9.4891	0.8801	-0.5062	10.8389	0.7645	-0.2874	-0.8433	-0.4263	0.6981
0.8225	-0.9767	9.4453	-37.5883	-53.0058	-20.2373	0.4931	-1.1261	-1.546	2.3638	0.9392	9.4027	5.6598	-1.5452	0.4984	0.2642	-0.5343	-0.1201	9.3798	0.8804	-0.2794	10.8659	0.7054	-0.4116	-0.8118	-0.4448	0.6982
0.9997	-0.858	9.2718	-40.5426	-57.1808	-15.6468	0.4766	-1.1631	-1.5483	2.0247	0.7682	9.6297	6.0931	-1.6656	0.3736	0.2762	-0.5343	-0.1141	9.8845	0.7089	-0.6135	10.6007	1.0953	-0.0011	-0.8284	-0.465	0.6617
1.2481	-1.0386	9.687	-43.7362	-61.9946	-12.2359	0.4375	-1.1633	-1.6006	1.9671	0.9409	9.6293	6.6678	-2.4287	0.805	0.2822	-0.5163	-0.1201	8.9814	0.9377	-0.3439	10.1812	1.3628	0.4438	-0.8119	-0.4264	0.6632
0.1662	-1.3297	9.73	-46.8157	-65.0935	-9.4658	0.4163	-1.1643	-1.652	2.0821	0.7106	9.6305	7.5107	-2.8834	0.8642	0.2822	-0.5283	-0.1261	9.261	0.9372	-0.5676	9.8558	1.3861	0.9453	-0.8428	-0.3883	0.6816
0.8908	-0.7492	9.9106	-49.0797	-66.8355	-7.6299	0.4586	-1.2396	-1.602	2.0299	0.3092	9.8619	8.082	-3.5873	1.0187	0.2822	-0.5223	-0.1321	9.8308	0.766	-0.4428	9.9275	1.8083	1.2231	-0.8432	-0.4075	0.681
0.9069	-0.1189	10.8369	-51.0359	-68.2664	-6.3755	0.3855	-1.2371	-1.6229	2.1404	0.7683	9.6904	7.9753	-4.1706	1.5759	0.2822	-0.5283	-0.1201	9.263	0.9942	-0.4531	9.5494	2.1015	2.005	-0.8434	-0.3894	0.6283
0.658	-0.3462	10.3684	-53.2654	-69.3019	-5.2935	0.3641	-1.2575	-1.6916	2.1985	0.941	9.7509	8.1428	-4.6601	1.9466	0.2642	-0.5223	-0.1081	9.8849	1.2777	-0.5558	10.0881	2.1569	2.3888	-0.7966	-0.4644	0.6623
0.7266	-0.3522	10.8367	-54.8572	-69.2626	-4.0118	0.3492	-1.3323	-1.695	2.025	1.2861	9.6906	7.7821	-5.0967	1.9513	0.2702	-0.5103	-0.1201	9.2624	0.6529	-0.5106	10.1144	1.8398	3.2766	-0.8278	-0.4082	0.628
0.3669	-0.5859	10.8917	-55.8594	-68.6954	-3.2795	0.3247	-1.2772	-1.7613	2.0848	1.0565	9.8078	7.741	-6.0557	1.9573	0.2822	-0.5223	-0.1141	9.7207	0.5388	-0.2734	9.7039	1.9813	4.0274	-0.8763	-0.4849	0.6779
-0.3611	-0.2311	10.5826	-56.9143	-67.6095	-2.5046	0.2915	-1.3706	-1.7831	2.3156	0.7688	9.8695	7.1752	-7.0524	1.8129	0.2642	-0.5163	-0.1141	9.4917	0.4821	-0.3921	9.0266	1.7049	4.1991	-0.8112	-0.3695	0.6295
-0.0549	-0.2351	10.8798	-57.4538	-65.389	-1.4963	0.2541	-1.3891	-1.8193	2.4299	0.9411	9.8725	7.2061	-8.4739	1.8826	0.2762	-0.5043	-0.1141	10.1713	0.8225	-0.4365	8.4742	1.4586	4.398	-0.8276	-0.4448	0.7156
-0.2997	-0.3486	10.6435	-57.7873	-62.006	-0.3424	0.199	-1.4646	-1.8919	2.3678	1.1702	9.6381	6.7228	-10.3326	2.0502	0.2882	-0.5163	-0.1201	9.2596	0.3684	-0.6825	7.9453	1.2158	4.3505	-0.8596	-0.4089	0.6273
-0.5258	-0.2418	11.4554	-57.0832	-57.9126	1.429	0.1578	-1.466	-1.9778	2.4226	0.7093	9.4614	7.265	-12.4248	2.5819	0.2642	-0.5223	-0.1201	9.1412	0.9371	-0.9131	7.3249	1.1247	4.3376	-0.8447	-0.503	0.6957
-0.4087	0.5766	11.3304	-55.5278	-53.1719	3.8188	0.1194	-1.4851	-2.0308	2.5965	0.8245	9.5823	8.8951	-13.7717	2.273	0.2702	-0.5163	-0.1141	9.7089	0.8795	-0.9027	7.1057	1.2477	4.2529	-0.844	-0.4277	0.627
-0.5804	0.3375	11.7974	-53.3486	-49.7067	5.8656	0.0485	-1.5392	-2.0534	1.9128	1.1718	9.805	9.1369	-15.0384	2.1255	0.2702	-0.5163	-0.1081	9.4348	0.5959	-0.393	7.7945	1.5797	4.4501	-0.844	-0.4647	0.6969
-0.6446	0.1654	11.5649	-49.5344	-48.3031	8.001	0.0099	-1.5777	-2.1238	2.6605	0.7685	9.9347	10.0157	-16.0263	1.358	0.2582	-0.5163	-0.1081	10.1725	0.7088	-0.3794	8.4557	1.8186	4.7702	-0.8912	-0.4277	0.6794
-0.5826	0.3973	11.6798	-48.0685	-46.7691	9.8611	-0.0092	-1.5775	-2.1416	2.6531	1.8599	9.6467	8.8759	-17.4585	1.5576	0.2702	-0.5283	-0.1021	10.1726	0.595	-0.3795	9.1769	2.3631	4.9988	-0.8589	-0.389	0.6635
-1.2639	0.5281	10.6156	-49.5739	-44.322	12.6394	-0.1393	-1.6322	-2.2512	2.1901	1.3418	9.3426	7.7426	-19.1049	2.0042	0.2582	-0.5043	-0.1201	9.7173	0.823	-0.4449	9.1759	3.2474	4.883	-0.8755	-0.4277	0.6619
-1.0092	0.4015	11.3804	-49.9139	-42.4441	15.5138	-0.2163	-1.6125	-2.3219	2.3728	1.4591	9.9323	7.5407	-20.8605	2.9685	0.2702	-0.5163	-0.1321	10.1099	0.3105	-0.7241	8.6137	3.7677	4.6889	-0.875	-0.4082	0.6803
-1.3156	0.5223	11.0817	-47.1406	-42.8878	18.4832	-0.3091	-1.5714	-2.3426	2.3148	1.2289	9.8716	6.9082	-22.8733	3.3529	0.2582	-0.5283	-0.1261	9.7753	0.6524	-0.3867	8.4129	4.3842	4.1467	-0.8116	-0.4445	0.7159
-1.2553	0.4055	11.0842	-43.9848	-44.3657	21.2717	-0.4189	-1.6062	-2.4003	2.1953	0.8827	9.5749	6.3305	-24.8308	2.9992	0.2582	-0.4983	-0.1141	10.1101	0.1967	-0.7242	7.7195	5.2735	3.6829	-0.8443	-0.4654	0.6614
-1.4953	0.6969	11.1347	-41.9795	-44.819	24.6504	-0.5501	-1.5842	-2.4741	2.4253	1.0551	9.6387	7.0958	-27.2927	3.4396	0.2642	-0.5043	-0.1261	9.9475	0.7091	-0.2691	7.247	5.6734	3.393	-0.8587	-0.4071	0.7162
-1.9229	0.6435	10.7776	-41.2382	-42.8379	27.3904	-0.6616	-1.6007	-2.5479	2.4806	1.5724	9.5835	5.1642	-29.1337	3.7999	0.2582	-0.5223	-0.0961	9.9494	0.8798	-0.1545	6.3183	6.3275	2.3505	-0.8425	-0.3507	0.6473
-1.9892	1.2309	10.4773	-41.2267	-39.6693	29.3658	-0.7702	-1.5381	-2.5188	2.9364	1.1107	9.4145	4.9204	-31.6905	5.1072	0.2702	-0.5043	-0.1141	9.8237	0.5951	-0.8436	5.4639	6.732	1.734	-0.8592	-0.4267	0.6978
-2.0426	0.9348	10.8303	-39.8862	-37.3667	29.8602	-0.9181	-1.4952	-2.5595	3.2291	1.3418	9.7725	6.8454	-34.9105	5.8833	0.2522	-0.5103	-0.1201	10.1654	0.481	-0.7802	3.9198	7.3841	0.8329	-0.8432	-0.4075	0.681
-1.4424	1.3432	10.7773	-36.0283	-37.2033	29.3232	-1.0057	-1.5284	-2.549	2.9369	0.8232	9.4132	7.74	-36.7675	4.7521	0.2582	-0.5103	-0.1021	10.5122	0.5377	-0.4305	2.6905	7.5768	0.1337	-0.8106	-0.387	0.7178
-1.5057	1.3455	10.6011	-33.1542	-36.6211	28.5617	-1.1675	-1.4823	-2.5236	3.1143	0.8242	9.7094	8.9493	-39.0578	3.2529	0.2522	-0.5043	-0.1081	10.0611	0.6521	-0.267	1.9265	7.7692	-0.5486	-0.8743	-0.3514	0.6466
-1.9933	1.1755	10.2444	-31.1048	-34.6668	26.5485	-1.2964	-1.3623	-2.4938	2.9498	0.3659	10.0555	14.0583	-37.6906	1.6783	0.2522	-0.5103	-0.1141	10.0538	0.6518	-0.6677	1.1923	7.9012	-1.2631	-0.8432	-0.4075	0.681
-1.9995	1.0631	9.8955	-29.1072	-29.9923	24.1645	-1.3675	-1.3585	-2.4811	3.2351	1.0556	10.0641	11.927	-40.8154	0.5724	0.2582	-0.5163	-0.1261	9.6042	0.4819	-0.4472	0.2419	8.1853	-1.9698	-0.8425	-0.3692	0.6822
-2.1064	1.9868	10.6992	-27.9913	-24.0407	21.1119	-1.4897	-1.3506	-2.4213	2.6627	1.4019	10.1133	15.2455	-41.9321	-0.1164	0.2462	-0.4923	-0.1261	10.2862	0.538	-0.3774	-0.8368	8.8371	-2.8542	-0.8437	-0.427	0.6626
-2.7133	1.8162	10.3988	-26.509	-18.2991	17.9886	-1.5796	-1.3271	-2.4091	2.9019	1.9792	10.706	16.4791	-42.3639	-1.3195	0.2522	-0.4863	-0.1141	9.9946	0.9361	-0.783	-2.32	9.4593	-3.7882	-0.8274	-0.4075	0.6635
-2.9609	2.2295	10.0391	-23.8671	-14.9262	14.3073	-1.6521	-1.2661	-2.3779	2.566	1.9241	11.1092	23.0978	-33.5553	-2.4863	0.2522	-0.4983	-0.1201	10.8475	0.4802	-0.7104	-3.7916	10.1675	-4.353	-0.8432	-0.389	0.646
-2.9679	1.8844	9.6347	-20.7404	-15.6711	10.3154	-1.7549	-1.2389	-2.2829	2.7351	1.5779	10.9353	22.6302	-37.0384	-0.7728	0.2402	-0.4923	-0.1261	9.9953	0.4243	-0.7833	-5.4713	11.2069	-4.6632	-0.843	-0.4072	0.6987
-3.5164	2.2397	9.2704	-20.0358	-19.0676	6.3271	-1.8284	-1.1785	-2.2685	2.8974	2.0357	10.472	24.3604	-39.5742	0.615	0.2402	-0.4923	-0.1141	10.0424	0.6513	-1.2972	-6.569	12.0666	-5.1766	-0.8266	-0.3688	0.6825
-3.9432	3.177	9.0176	-20.2221	-24.1848	2.5587	-1.9296	-1.1118	-2.1219	3.3053	1.9215	10.8306	23.1841	-43.0321	2.4863	0.2342	-0.4923	-0.1321	10.7274	0.8213	-1.0556	-7.0325	12.9499	-5.2171	-0.8439	-0.4274	0.6448
-4.782	3.5254	9.232	-18.7109	-27.5439	-1.1621	-1.943	-1.1469	-2.0738	3.2894	1.5151	9.9501	24.1601	-45.9993	4.8644	0.2342	-0.4743	-0.1021	10.286	0.7086	-0.3773	-6.9373	13.406	-5.1856	-0.8596	-0.4089	0.6273
-4.7833	2.9432	9.1225	-16.9355	-28.1828	-4.5812	-2.0299	-1.1217	-2.0113	2.6064	2.1501	10.2327	24.1642	-49.9106	6.5778	0.2342	-0.4743	-0.1201	10.6278	0.4808	-0.314	-5.9126	13.4964	-5.1234	-0.8596	-0.4458	0.6972
-5.1435	3.0013	9.1738	-14.7149	-26.0362	-8.2222	-2.0069	-1.139	-1.9438	3.407	1.7457	10.1291	26.1955	-52.1669	7.7778	0.2402	-0.4743	-0.1081	9.8954	0.3113	-0.0415	-4.4035	13.1044	-5.3867	-0.8595	-0.3901	0.6102
-5.9315	3.2395	8.8652	-11.5086	-22.0766	-12.0209	-2.0226	-1.1175	-1.8939	3.0052	2.1489	10.1232	28.058	-55.1983	8.9526	0.2342	-0.4563	-0.1201	10.1235	0.3111	0.0199	-2.3173	12.445	-3.9795	-0.8598	-0.4277	0.6445
-6.401	2.9986	9.502	-5.4828	-16.1365	-15.1662	-2.0755	-1.0951	-1.8629	3.5852	1.9195	10.4847	29.7437	-58.6659	9.9775	0.2161	-0.4503	-0.1081	9.9521	0.3681	-0.0404	-1.6218	11.3413	-3.4253	-0.8439	-0.4274	0.6448
-7.3849	3.5975	8.3682	1.4601	-9.1504	-17.9312	-2.0695	-1.111	-1.7796	3.4729	1.8627	10.5994	31.5668	-64.14	11.2593	0.2161	-0.4503	-0.1201	9.9578	0.0271	0.2455	-1.676	9.8892	-4.0498	-0.9073	-0.4284	0.6613
-8.0458	3.5392	8.4157	6.1321	-1.8247	-19.83	-2.1221	-1.0691	-1.7312	3.7607	1.6899	10.6627	35.3009	-65.9329	10.572	0.2161	-0.4563	-0.1021	10.1849	-0.0869	0.2496	-2.1107	7.9694	-3.8985	-0.8432	-0.4075	0.681
-8.8347	3.603	8.0508	8.1207	5.2567	-20.993	-2.1337	-1.1225	-1.6669	3.9442	1.98	11.3117	37.84	-70.6362	10.8309	0.1921	-0.4623	-0.1081	10.1197	0.0265	-0.2092	-3.2152	7.5521	-4.5141	-0.8435	-0.4267	0.6804
-8.6692	3.7882	7.2342	7.8626	10.8792	-22.0365	-2.096	-1.1619	-1.6661	4.1075	1.8627	10.8458	40.3731	-76.6104	10.7902	0.2101	-0.4443	-0.1021	10.2298	0.2537	-0.3787	-4.786	8.0499	-5.2621	-0.8598	-0.4277	0.6445
-6.1768	12.8388	15.8618	18.2863	10.1303	-22.3989	-2.1473	-1.0999	-1.5835	4.2254	2.4961	11.0852	42.7656	-84.5947	10.9466	0.2041	-0.4323	-0.1081	10.3921	-0.088	-0.8337	-6.3265	9.5088	-5.1121	-0.8435	-0.4082	0.6454
-14.0602	5.1186	8.6404	105.2364	38.8287	-8.6596	-2.1617	-1.1357	-1.5522	4.1243	2.3844	11.7854	44.7068	-93.0775	11.2008	0.1741	-0.4323	-0.1021	10.0545	0.0831	-0.6681	-7.6899	10.3014	-5.1879	-0.8595	-0.3901	0.6102
-1.1473	-0.5939	7.0126	119.2025	17.5871	18.9366	-2.1285	-1.1196	-1.5831	4.0243	2.2154	12.544	47.9091	-102.8152	11.5165	0.1801	-0.4083	-0.1021	10.9542	0.9347	-1.0514	-7.8684	9.2921	-4.8526	-0.8743	-0.3698	0.6816
0.7498	-3.4002	11.926	154.7242	44.2658	6.7062	-2.129	-1.1585	-1.6178	4.2099	2.5636	13.3104	51.0874	-114.5705	11.1069	0.1801	-0.4203	-0.0961	11.0838	1.4471	-0.1332	-5.9094	5.7518	-6.3224	-0.8752	-0.4085	0.6626
4.2869	-5.461	17.7343	125.6052	68.6549	-1.3486	-2.1442	-1.1754	-1.5859	4.2295	2.0503	14.3039	54.9515	-128.272	10.2438	0.1681	-0.3963	-0.0841	12.0028	1.8446	0.5133	-3.1386	2.3595	-9.6282	-0.9241	-0.4674	0.642
0.4588	-0.5496	12.6439	80.2458	94.3416	-22.4263	-2.1594	-1.1923	-1.554	4.7677	1.7096	15.4839	60.5737	-144.0134	7.6925	0.1621	-0.3963	-0.072	12.3653	1.7882	1.7214	-4.7273	1.9643	-13.9167	-0.8916	-0.4284	0.6438
-2.6337	3.8268	8.2737	55.2098	90.2958	-20.662	-2.1256	-1.2146	-1.6028	5.2945	-0.3599	15.8945	66.0463	-161.6893	0.329	0.1621	-0.3903	-0.0901	10.8794	1.6758	1.1219	-2.5374	3.5567	-10.3434	-0.8604	-0.4661	0.6433
-3.5906	3.2408	8.556	36.2793	66.3273	-9.2886	-2.1065	-1.2921	-1.6377	5.538	-0.9898	16.5991	66.6644	-181.7122	-11.0787	0.1441	-0.3542	-0.066	10.0916	1.3359	1.4505	1.0048	5.2618	-6.1337	-0.9063	-0.3709	0.6631
-3.087	1.0092	9.6435	23.6173	33.6768	3.7862	-2.0722	-1.2754	-1.6518	5.0323	-1.0442	17.1161	66.629	-202.1948	-24.5072	0.1321	-0.3422	-0.072	9.6815	0.7102	0.6987	-0.8142	4.9384	-4.7912	-0.8585	-0.3883	0.699
-0.8581	0.3051	9.7499	14.7789	25.6142	4.2451	-2.1627	-1.2136	-1.6216	4.3512	-0.9264	17.4549	67.2577	-222.7536	-40.0585	0.1261	-0.3302	-0.06	10.7031	0.6521	0.7174	-4.8512	6.6364	-2.1986	-0.8914	-0.428	0.6616
-1.3326	-0.2239	10.0984	2.3092	19.4644	5.8982	-2.0911	-1.2557	-1.6522	4.2734	-1.8382	19.3231	69.8886	-237.5737	-56.0847	0.1201	-0.3182	-0.066	9.6757	0.3119	0.355	-7.4788	9.6221	-0.2524	-0.8758	-0.4469	0.6613
-0.5911	-1.1128	11.1149	7.7646	20.7372	-0.0782	-2.0171	-1.2772	-1.6319	5.467	-0.7493	18.9411	77.6786	-249.3338	-74.6775	0.0961	-0.3122	-0.048	9.1104	0.1989	0.4589	-10.7165	9.1737	1.3158	-0.8598	-0.4277	0.6445
-2.1783	-1.0369	9.8603	23.5334	15.6212	-2.2324	-2.0197	-1.24	-1.6475	7.2929	3.7336	18.9965	96.3162	-251.7843	-88.9645	0.0901	-0.2882	-0.03	9.3922	0.9378	0.4075	-12.5057	7.1761	4.7949	-0.8918	-0.4287	0.6261
-2.0685	0.5446	9.3754	39.3988	9.5816	-2.5934	-2.1058	-1.2336	-1.5856	9.2155	2.5161	17.564	120.0129	-245.6262	-91.5976	0.072	-0.2762	-0.024	9.6083	1.3921	-0.1603	-13.1679	3.5257	6.7828	-0.8437	-0.4086	0.6277
-1.7574	0.8286	9.961	42.9904	3.5455	-4.0303	-2.089	-1.2545	-1.6187	9.0649	1.6448	15.5662	123.5443	-254.4409	-82.1045	0.072	-0.2882	-0.024	10.1655	2.9833	-0.6065	-15.673	-3.0144	6.5289	-0.8917	-0.4472	0.661
-1.3549	1.4242	8.9683	41.5226	1.9072	-3.0018	-2.0467	-1.3298	-1.5687	7.3745	-0.2003	13.8272	128.6573	-264.532	-75.1319	0.054	-0.2582	-0.024	10.4016	2.4147	-0.145	-15.5671	-9.4204	7.5499	-0.8762	-0.4476	0.6258
-1.1604	0.4813	9.684	37.4379	0.5902	-4.5783	-2.0684	-1.2925	-1.6021	7.9643	0.9094	17.884	162.1312	-251.1587	-90.8901	0.048	-0.2342	-0.012	10.1698	2.0736	-0.4356	-17.0753	-14.2255	7.3108	-0.8446	-0.4473	0.6086
-1.0401	1.3559	9.7335	36.3679	-0.7964	-4.2874	-2.083	-1.3477	-1.5881	4.9264	-0.2635	11.5546	201.1285	-247.7743	-82.8449	0.03	-0.2281	-0.012	10.3966	2.2439	-0.4312	-19.548	-15.7534	5.6211	-0.8907	-0.4082	0.6978
-0.8724	1.4812	9.0345	28.7532	-0.6336	-3.1734	-2.0129	-1.3521	-1.6175	3.5969	-3.0528	4.5481	159.5359	-217.9727	-79.307	0.012	-0.2101	0	10.9095	2.1865	-0.3074	-19.9494	-15.7395	4.65	-0.8916	-0.4284	0.6438
-0.7492	1.7123	9.2088	19.2512	-0.2116	-2.7681	-2.049	-1.2732	-1.5669	4.0125	-0.6201	8.6075	115.2722	-169.3193	-90.8564	0.012	-0.2041	0	10.1752	1.9032	-0.1495	-20.6302	-14.7502	3.5721	-0.843	-0.3887	0.6638
-0.3789	1.1806	9.689	14.9869	-0.254	-2.8693	-2.0294	-1.3117	-1.567	3.7471	-0.6553	0.5798	126.4668	-122.368	-93.4745	-0.018	-0.1801	0.012	10.4584	1.5047	-0.2018	-21.8757	-12.8579	3.1943	-0.9075	-0.4287	0.6435
-0.8024	1.241	9.564	12.5277	0.1775	-2.4292	-2.0135	-1.3137	-1.5996	-0.9808	-5.8156	-10.7189	21.2208	-56.8913	-103.4141	-0.024	-0.1981	0.018	10.1847	1.7898	0.3655	-22.1292	-11.4374	3.8892	-0.8917	-0.4472	0.661
-0.8721	1.2477	9.0374	9.0184	0.5061	-1.8245	-2.0848	-1.3294	-1.6043	5.2441	-4.4263	6.7401	-82.4738	11.5697	-141.7285	-0.036	-0.1921	0	9.3905	1.5065	0.3507	-21.3306	-10.4125	4.5803	-0.8439	-0.4274	0.6448
-1.2874	1.4773	9.3774	5.8793	0.9309	-1.4068	-2.0658	-1.3296	-1.5865	-4.523	-4.6904	8.1323	-45.4741	48.7014	-162.589	-0.054	-0.2161	-0.006	9.7949	1.62	0.7587	-19.1426	-9.3534	7.1351	-0.8762	-0.4476	0.6258
-1.2827	1.1242	9.6154	3.5195	1.8835	-1.1412	-2.0655	-1.3102	-1.5691	-8.139	-2.1238	1.8673	-43.5494	107.1677	-154.8101	-0.054	-0.2101	-0.018	10.1334	1.6195	0.6505	-18.4455	-7.1955	9.4668	-0.8752	-0.4085	0.6626
-1.2247	1.184	9.499	1.7488	2.7795	-0.5768	-2.0454	-1.3098	-1.5345	-5.2787	-3.4395	4.6099	-66.1869	113.0571	-135.2414	-0.0781	-0.2041	-0.06	10.0224	2.1316	0.8205	-17.1725	-4.7731	10.3391	-0.8755	-0.4277	0.6619
-1.3413	0.7734	9.6772	-0.1495	3.4299	-0.016	-2.0467	-1.3298	-1.5687	-7.0228	-1.5438	3.4138	-71.2939	114.7695	-108.8995	-0.0841	-0.2161	-0.06	10.3098	1.6764	0.997	-15.9025	-1.7704	11.0626	-0.8755	-0.4277	0.6619
-0.9817	1.1238	9.6207	-1.3326	4.2393	0.7545	-2.0828	-1.3282	-1.5707	-7.4241	-2.061	3.3452	-70.7656	122.6789	-74.1463	-0.1021	-0.2161	-0.0781	9.5649	1.5064	0.5827	-13.4528	1.1094	11.8727	-0.8921	-0.4479	0.6255
-0.8649	1.3593	9.4447	-1.6373	4.173	1.249	-2.0331	-1.2752	-1.5994	-7.2543	-1.4289	3.2928	-71.3915	131.8607	-37.6069	-0.1081	-0.2041	-0.1201	9.6923	1.2225	1.3286	-12.0021	3.0784	12.521	-0.8594	-0.4085	0.6451
-1.1045	0.5425	9.4507	-1.9187	3.7717	1.5513	-2.0689	-1.3314	-1.6368	-7.9828	-1.3088	4.1577	-75.5214	146.1255	-5.6506	-0.1321	-0.2101	-0.1381	9.5245	1.7916	1.4976	-11.0429	5.0601	12.293	-0.8756	-0.3908	0.5921
-1.6383	1.0043	9.9025	-1.6982	4.0489	1.5238	-2.0287	-1.3306	-1.5676	-6.6096	-2.1746	4.0045	-82.1602	160.5072	25.0946	-0.1501	-0.1921	-0.1561	9.3528	1.2799	1.3796	-10.5928	6.5298	11.6768	-0.8439	-0.4274	0.6448
-1.3392	0.7719	9.794	-0.68	4.0905	1.3582	-2.1	-1.3463	-1.5724	-4.8878	-2.0041	4.214	-94.8103	170.7121	52.2155	-0.1501	-0.2041	-0.2101	9.4063	1.3365	1.209	-9.8443	7.1515	10.7683	-0.86	-0.4281	0.6267
-0.8711	1.3053	9.0951	1.0213	4.2297	1.3706	-2.0686	-1.3119	-1.6194	-4.3567	-2.0014	5.0441	-110.1388	179.0185	74.3866	-0.1801	-0.1861	-0.2221	8.892	1.7351	1.0282	-8.9023	7.2066	11.1707	-0.8757	-0.4281	0.6442
-0.8008	0.8318	9.6276	2.8391	4.127	1.0995	-2.0477	-1.3304	-1.5854	-3.4386	-2.8656	5.0578	-125.291	186.1002	87.8357	-0.1981	-0.1861	-0.2582	9.1713	1.0521	0.7468	-7.7132	7.384	11.536	-0.8594	-0.4085	0.6451
-1.2825	1.0075	9.6169	4.3781	4.1756	0.5277	-2.0647	-1.329	-1.5697	-2.207	-2.6884	6.6048	-138.5654	191.5783	96.3962	-0.2161	-0.1501	-0.3002	9.0016	1.5073	0.8012	-6.6498	7.5317	11.8434	-0.8902	-0.3517	0.6463
-1.037	0.5957	9.8599	4.8811	4.1769	1.3517	-2.0483	-1.2921	-1.5675	-0.9307	-2.9744	7.4478	-147.8226	194.7931	99.9052	-0.2281	-0.1321	-0.3482	8.488	1.2235	0.6199	-5.2778	7.4057	12.1393	-0.8753	-0.4274	0.6797
-1.1626	1.3575	9.6146	4.2886	3.4043	2.019	-2.0441	-1.367	-1.5531	-0.455	-2.1081	8.4564	-152.1127	196.1298	98.8157	-0.2161	-0.1021	-0.4083	8.4331	1.4511	0.7335	-4.9217	6.6815	11.6927	-0.8747	-0.3521	0.6111
-0.7419	1.7655	9.6169	2.995	3.0821	2.8586	-1.9946	-1.3334	-1.5991	0.6449	-2.3374	9.0621	-153.3492	195.5647	92.7089	-0.2342	-0.066	-0.4383	8.317	0.9961	0.5594	-3.7225	5.9078	10.4523	-0.8588	-0.3702	0.6463
-1.6469	1.0685	9.4346	2.1618	2.8273	3.3249	-2.0294	-1.3117	-1.567	1.5116	-2.0495	9.4899	-154.2742	193.7051	83.4112	-0.2101	-0.03	-0.4743	8.7618	0.8246	0.0525	-2.5316	5.4284	9.9212	-0.9068	-0.3904	0.6447
-0.8623	1.0077	9.5659	1.9172	2.6084	3.9075	-2.033	-1.3525	-1.6521	1.8084	-1.6448	10.0831	-155.3534	190.0099	73.0191	-0.2402	0.018	-0.5404	8.1416	0.8824	0.27	-1.0515	4.4708	8.7631	-0.8759	-0.4284	0.6264
-1.5174	0.5956	9.9098	1.8716	3.2778	4.3839	-2.0299	-1.3507	-1.6018	2.5142	-1.354	11.0934	-156.6475	185.964	61.7394	-0.2221	0.06	-0.5704	8.4797	1.1662	0.162	0.4275	3.4529	7.5738	-0.8596	-0.4089	0.6273
-0.7994	1.3556	9.7378	1.6605	3.4273	4.6359	-2.0838	-1.3288	-1.5875	1.7179	-0.891	11.4316	-159.2916	182.2609	52.2181	-0.2161	0.1261	-0.6184	7.8125	0.9402	0.8934	1.8108	2.4058	6.295	-0.8747	-0.3705	0.646
-0.6847	0.8929	9.3954	0.9226	3.6644	4.5888	-2.066	-1.2718	-1.5512	1.9686	0.0342	12.6703	-161.9071	179.5396	45.1498	-0.1921	0.1861	-0.6424	8.0887	1.167	0.4981	2.4186	1.1763	5.0071	-0.9226	-0.3904	0.6622
-1.524	0.7751	9.5572	1.0502	4.0639	4.3498	-2.0809	-1.3465	-1.5546	1.9286	0.9014	13.6689	-161.1318	178.9113	39.9856	-0.1501	0.2522	-0.6484	8.5463	0.8254	0.6779	3.0441	0.5175	4.2457	-0.8752	-0.3901	0.6276
-1.5225	1.2405	9.6681	2.0339	4.0451	3.9372	-2.0454	-1.3871	-1.5872	2.1816	0.5038	14.9017	-157.1938	180.3897	35.1592	-0.1201	0.3062	-0.6544	7.9264	0.5988	0.8952	4.433	-0.2419	4.1366	-0.8916	-0.4099	0.6089
-0.7386	0.9469	9.744	3.0785	3.7196	3.917	-2.0438	-1.3475	-1.5357	2.4224	0.7938	15.5518	-152.0191	184.7287	30.7696	-0.0781	0.3542	-0.6424	8.5442	0.8253	0.5634	5.743	-1.3735	4.5185	-0.8906	-0.3709	0.6457
-1.1008	0.9482	9.6792	4.3146	3.7627	3.9025	-2.0325	-1.3135	-1.6174	2.8897	0.6801	16.0287	-152.6677	191.0646	28.1234	-0.042	0.4383	-0.6244	8.2083	0.4846	0.7858	5.7067	-2.773	4.4777	-0.8432	-0.389	0.646
-1.1011	1.1816	9.6763	5.739	3.9294	3.9805	-2.0658	-1.3296	-1.5865	2.9072	0.7418	16.9662	-158.2275	198.4779	27.067	-0.042	0.4863	-0.5824	8.2657	0.769	0.8443	5.6459	-4.2364	4.6522	-0.9381	-0.3715	0.6625
-1.0395	0.889	9.7394	6.7887	4.3401	3.2996	-2.0294	-1.3117	-1.567	4.07	1.2041	17.9276	-163.0126	204.9913	28.0704	0	0.5464	-0.5343	8.7163	0.1995	0.6233	6.486	-5.3047	4.8643	-0.843	-0.3702	0.6289
-1.2776	0.5377	9.8564	7.7149	4.5957	2.863	-2.0142	-1.2948	-1.599	4.5476	1.553	18.9924	-165.2708	209.228	30.7322	0.03	0.5704	-0.4803	8.4829	0.3133	0.2758	7.1177	-6.4379	5.3587	-0.8904	-0.3521	0.6285
-1.0414	0.7737	9.6241	8.766	4.9751	2.3659	-2.0297	-1.3312	-1.5844	5.314	1.787	20.1794	-165.2865	209.8503	34.4473	0.048	0.6064	-0.4083	8.6016	0.3134	0.5641	7.4596	-6.926	5.4368	-0.9073	-0.4099	0.6264
-1.2162	1.1781	9.9662	10.0318	5.3573	1.7125	-2.032	-1.2746	-1.5826	6.2416	3.1688	20.9061	-164.6797	208.9071	38.6292	0.048	0.5944	-0.3602	8.6477	-0.3696	-0.065	7.7072	-7.2307	5.4577	-0.9231	-0.3914	0.6089
-1.3922	0.942	10.1995	11.4328	6.4433	1.0726	-2.0647	-1.329	-1.5697	7.5472	4.5446	20.4104	-165.2266	205.2509	41.5432	0.042	0.6064	-0.2822	8.3696	0.939	0.3315	7.333	-7.8086	5.4335	-0.8748	-0.3894	0.6632
-1.2766	0.5369	9.9148	12.5466	8.5631	0.8586	-2.0642	-1.3674	-1.5877	8.9275	4.7161	20.7305	-166.1178	197.3202	43.9007	0.006	0.5704	-0.2342	8.5965	0.1994	0.2778	7.0306	-8.513	5.7442	-0.907	-0.3907	0.627
-1.276	0.8864	9.9688	13.8178	10.6525	0.9802	-2.065	-1.3485	-1.5871	10.6889	5.6302	20.0658	-162.206	185.0749	45.7026	-0.006	0.5824	-0.2161	8.4865	0.7684	0.5051	6.9243	-9.2222	6.387	-0.8578	-0.3127	0.6482
-1.0391	1.3551	9.7919	13.3023	13.4599	0.4325	-1.992	-1.3706	-1.5835	10.8411	6.8335	19.1373	-153.1955	165.8175	45.7951	-0.03	0.5404	-0.2041	8.0882	0.712	0.4405	6.004	-9.836	6.7476	-0.8904	-0.3521	0.6285
-1.4549	1.2353	10.078	10.1388	16.9137	-0.3448	-2.0488	-1.331	-1.6022	12.5669	7.9694	16.599	-146.2653	141.6814	42.3022	-0.0781	0.4983	-0.1921	9.0127	0.9391	1.3731	3.7829	-9.9785	6.0755	-0.8757	-0.4281	0.6442
-1.2808	1.2978	9.73	6.9301	21.0365	-0.5841	-2.0814	-1.3855	-1.5893	14.9241	8.3566	14.0695	-138.9082	115.0414	35.2259	-0.0781	0.4863	-0.2041	9.1684	0.8814	0.5749	0.0523	-10.4312	3.6945	-0.8901	-0.3329	0.6291
-1.565	0.6452	10.6088	2.4475	26.736	-1.0808	-2.0655	-1.3102	-1.5691	20.4009	6.6022	9.7165	-116.5157	101.234	18.7961	-0.1081	0.4503	-0.2342	10.0085	1.5054	0.0187	-5.5408	-10.4267	-0.8702	-0.8432	-0.389	0.646
-1.6863	0.5878	10.549	0.8683	34.1431	-1.3308	-1.9946	-1.3334	-1.5991	25.091	8.8228	6.5374	-112.8215	97.2912	-13.0072	-0.1381	0.4203	-0.2642	10.5208	1.1068	0.085	-11.0337	-10.2556	-2.1794	-0.8581	-0.3319	0.6476
-1.8108	0.5325	10.314	2.712	40.3261	-0.205	-1.9619	-1.3562	-1.6647	23.639	15.2645	6.0702	-121.2157	61.5159	-33.6388	-0.1381	0.4083	-0.2822	10.9676	1.959	-0.2493	-17.2864	-8.6589	-3.1472	-0.8582	-0.3507	0.6647
-1.6294	1.4062	10.423	4.7243	46.61	-0.8013	-1.9745	-1.4103	-1.6172	19.7908	16.3179	8.6361	-98.5056	5.0575	-35.1259	-0.1681	0.3963	-0.2942	10.6813	1.4474	-0.4267	-24.042	-6.8598	-3.3609	-0.8579	-0.3315	0.6653
-2.1773	1.353	10.0638	2.4529	51.9368	-1.9181	-2.0328	-1.333	-1.6347	16.6649	14.3289	12.7832	-49.0118	-35.3693	-37.5109	-0.1681	0.3903	-0.3062	9.8303	1.221	-0.4425	-25.9656	-5.6074	-1.5418	-0.8892	-0.2942	0.6481
-2.0574	0.8867	10.0134	0.3549	57.7184	-1.9509	-1.9439	-1.357	-1.6637	14.2433	10.9484	14.6538	19.9771	-49.0027	-46.4067	-0.1861	0.3903	-0.3122	9.4305	0.7095	-0.6219	-22.7802	-4.6906	-1.8142	-0.8911	-0.3904	0.6273
-2.4727	0.3583	10.3046	-2.5687	64.9203	-0.497	-1.925	-1.3767	-1.6632	11.4571	8.8158	12.4825	84.4992	-55.6458	-53.5663	-0.1981	0.3843	-0.3242	9.7281	0.4822	0.1272	-16.1561	-3.485	-3.1397	-0.8738	-0.3318	0.665
-2.1608	0.8751	10.9457	-3.8859	74.2338	3.5043	-1.9075	-1.3391	-1.6443	17.0509	9.5053	14.5841	156.3675	-59.3618	-66.5309	-0.1981	0.3602	-0.3482	10.4743	0.4248	0.5986	-9.49	-3.6718	-5	-0.9059	-0.3702	0.6987
-1.3085	0.7507	11.4875	0.8268	85.9289	7.3587	-1.874	-1.3809	-1.7105	14.5695	5.637	10.1856	205.9326	-86.2688	-64.6953	-0.1981	0.3482	-0.3662	10.6687	0.3119	1.9179	-2.002	-3.8662	-6.3318	-0.89	-0.3698	0.699
-1.6172	1.806	11.1187	11.7825	98.1024	13.7283	-1.8614	-1.3268	-1.758	14.2902	9.9542	10.961	232.691	-139.1672	-55.413	-0.2041	0.3482	-0.3843	10.735	0.1985	2.434	5.8218	-4.5296	-6.7863	-0.8899	-0.351	0.6818
0.1978	3.4463	15.0992	42.7995	76.3388	13.205	-1.8555	-1.42	-1.7274	1.1852	2.0841	7.7456	223.6831	-134.1157	-44.6679	-0.2342	0.3242	-0.3843	11.4903	0.3121	3.4206	11.0632	-3.6641	-7.7351	-0.8908	-0.3712	0.6279
-2.226	2.9777	10.8014	43.3494	84.3467	6.0216	-1.8573	-1.4017	-1.7436	-0.234	3.3824	14.6341	208.5923	-148.2753	-11.3421	-0.2402	0.3242	-0.3782	11.6084	0.8808	3.7093	12.5858	-0.3587	-6.8938	-0.8736	-0.3315	0.6828
-0.8551	3.585	13.4446	40.7482	94.9232	-2.2966	-1.789	-1.3878	-1.7892	0.5826	-0.0236	12.0578	168.6093	-151.9788	16.4174	-0.2522	0.3062	-0.4083	12.1553	1.5048	2.6328	9.8755	5.4259	-4.8613	-0.8582	-0.3507	0.6647
-0.971	4.1651	13.7271	43.1262	104.7914	-11.8307	-1.7846	-1.4433	-1.7574	2.3597	4.0451	9.4752	116.6355	-145.7981	36.1084	-0.2582	0.2942	-0.3903	12.2478	1.6176	1.4903	4.9402	14.5781	0.0917	-0.8738	-0.3318	0.665
-1.6746	2.9287	14.6642	46.7603	122.4818	-19.9498	-1.7707	-1.3691	-1.7708	19.9085	5.8742	13.9199	62.6953	-48.3913	7.7254	-0.2642	0.2882	-0.3963	12.3904	2.0712	0.0057	0.501	26.9039	8.8039	-0.8733	-0.2939	0.6485
-1.9573	2.6832	15.6546	50.4006	141.9251	-24.402	-1.6614	-1.4506	-1.8005	4.0583	-2.3354	10.8844	50.1093	-21.8815	9.0551	-0.2522	0.2882	-0.4023	12.7794	2.0703	-0.4448	6.2879	35.7098	18.8716	-0.8909	-0.3716	0.6101
-1.8735	2.4335	16.9434	54.2591	161.8471	-26.5092	-1.5877	-1.4142	-1.7448	2.0306	1.9067	6.9998	60.2581	-4.6066	-3.0918	-0.2642	0.2882	-0.4143	12.7113	0.25	-1.1913	11.9349	40.5707	21.6912	-0.8584	-0.351	0.6469
-2.6724	2.2295	19.3252	59.9587	182.0855	-27.3409	-1.531	-1.4538	-1.7261	-0.6072	1.8667	9.8768	45.8502	-4.1832	1.6917	-0.2462	0.3002	-0.3903	11.9697	0.8195	-1.3761	4.2085	35.37	10.6964	-0.8736	-0.3315	0.6828
-2.3451	-0.8212	20.595	70.9689	203.6899	-21.782	-1.463	-1.4593	-1.7891	0.5912	0.8279	9.5438	38.7359	-8.7568	6.4316	-0.2582	0.2762	-0.3843	10.5194	1.4479	0.0281	2.7549	26.5677	2.4961	-0.8913	-0.3908	0.6095
-2.8631	-2.6444	21.7761	75.1401	225.7426	-9.423	-1.3887	-1.5386	-1.8041	3.0208	2.0815	7.898	23.3265	-7.1797	0.2746	-0.2582	0.2882	-0.4083	11.5106	2.0166	1.5343	4.2248	20.2152	-4.574	-0.8908	-0.3712	0.6279
-2.5993	-3.3021	23.0148	76.6757	250.8046	6.0176	-1.4055	-1.5177	-1.771	2.7654	1.2838	9.4706	17.577	3.6248	4.5461	-0.2642	0.2822	-0.4083	12.6421	1.5032	1.3258	18.1902	11.826	0.9331	-0.9056	-0.3325	0.6644
-0.7654	-4.6652	24.5234	84.0358	276.0209	19.9737	-1.2766	-1.5605	-1.7482	2.4357	0.0795	10.1029	21.5738	7.0347	4.3795	-0.2582	0.2762	-0.4023	12.0007	1.8445	0.3989	16.3631	6.9154	-2.6159	-0.8586	-0.3514	0.6292
0.927	-5.3138	24.9115	94.5605	301.0455	35.5468	-1.1525	-1.4899	-1.7218	1.9072	1.228	9.5124	27.0224	4.6406	0.3669	-0.2582	0.2822	-0.3963	11.4203	2.129	-0.2981	13.4883	3.6145	-10.1771	-0.9215	-0.3329	0.664
2.3715	-6.1321	24.8888	101.8885	322.4167	55.3555	-1.0249	-1.4754	-1.6804	1.7895	1.7453	9.3953	24.4932	4.4232	-0.2623	-0.2702	0.2822	-0.3963	10.7896	2.3001	-0.6528	14.2333	3.3541	-11.1233	-0.8744	-0.3329	0.6117
3.1108	-3.9291	25.9832	121.1813	323.9426	77.9968	-0.9695	-1.4577	-1.6432	1.3913	0.711	9.4416	22.4561	4.6538	0.1785	-0.2702	0.2882	-0.4083	10.0951	2.2435	-1.4094	15.079	8.6675	-12.3353	-0.9057	-0.3141	0.6294
-1.2315	0.2643	22.352	156.0512	305.0111	98.4912	-0.8605	-1.4813	-1.6376	1.905	1.2275	9.3952	20.1928	2.9389	-2.1334	-0.2642	0.2582	-0.4143	8.8967	2.4722	-1.7745	16.1497	13.0149	-16.2353	-0.8739	-0.3134	0.6301
-8.111	1.2023	17.9583	195.5653	284.6804	107.6718	-0.8734	-1.4775	-1.5547	2.3648	1.6298	9.523	18.975	3.0974	-3.6636	-0.2642	0.2762	-0.4083	8.786	1.9037	-1.6626	10.0412	17.0532	-19.7693	-0.9368	-0.2764	0.63
-8.3094	1.9313	20.3389	235.4904	245.0624	104.1268	-0.7603	-1.4988	-1.482	1.6129	1.9171	9.1585	12.5995	1.2064	-3.7993	-0.2522	0.2762	-0.4083	9.3028	2.1308	-1.3096	6.0646	19.5575	-20.3371	-0.8899	-0.3325	0.6469
-12.2335	2.9943	19.6729	346.7917	264.3601	58.0321	-0.7564	-1.4386	-1.3796	1.6738	1.7452	9.3345	-0.4627	-2.107	-3.2113	-0.2642	0.2822	-0.4083	9.7014	1.846	-1.2453	0.6981	19.1207	-17.445	-0.9061	-0.3705	0.6809
0.0165	-10.1471	0.9071	387.9544	235.4581	14.8162	-0.6585	-1.4767	-1.275	1.7374	0.5959	9.5648	-9.2181	-5.2304	-3.5408	-0.2582	0.2702	-0.4203	10.0568	1.6188	-0.438	-3.687	15.32	-15.5926	-0.9048	-0.2754	0.6484
11.7244	-14.3329	-10.684	197.5147	133.6698	49.1041	-0.5781	-1.4751	-1.1367	1.6854	0.7698	9.8574	-15.258	-8.2913	-3.4871	-0.2582	0.2702	-0.4143	10.4595	1.4479	-0.1447	-8.4841	8.3844	-13.7529	-0.938	-0.3527	0.6453
4.0806	-10.2077	-3.9239	18.3206	56.953	79.5207	-0.5407	-1.4566	-1.1005	1.7391	1.5744	9.7449	-19.466	-10.2129	-2.652	-0.2702	0.2702	-0.4023	10.0149	1.392	0.362	-12.4754	1.4345	-10.8927	-0.9053	-0.2949	0.63
2.4864	-7.0282	7.916	-53.3459	-0.0387	88.8103	-0.5951	-1.3964	-1.0683	2.0253	1.056	9.6895	-21.4197	-10.6846	-1.3778	-0.2522	0.2762	-0.4083	9.7953	1.3357	0.7585	-16.3797	-4.7649	-7.2916	-0.8738	-0.3318	0.665
4.0056	-5.366	5.5286	-44.2319	-2.4259	89.8127	-0.5188	-1.3972	-0.9971	2.257	0.8836	9.8103	-19.6055	-11.7446	-0.9827	-0.2702	0.2642	-0.4023	10.0217	0.9941	0.7051	-17.8538	-11.3361	-3.2131	-0.8738	-0.3318	0.665
8.4824	-2.9557	3.7092	-55.4661	-57.0731	76.6515	-0.5758	-1.3771	-1.0331	2.2716	0.0816	10.5097	-15.6472	-12.6415	-2.0147	-0.2582	0.2762	-0.3963	9.6691	0.6528	0.0118	-17.8764	-16.2609	-1.4696	-0.8904	-0.3521	0.6285
7.403	-4.2981	3.8238	-36.791	-79.9042	58.669	-0.5382	-1.3392	-0.9796	2.2621	0.4821	10.0428	-10.6613	-13.9915	-3.0192	-0.2522	0.2822	-0.3963	9.6078	0.9371	-0.2179	-17.0709	-18.7742	-0.2232	-0.8901	-0.3144	0.5942
4.0881	-3.9989	3.5283	-33.5879	-77.8899	45.971	-0.5712	-1.3358	-0.9313	2.2656	1.0007	10.2795	-6.6555	-15.4068	-3.3416	-0.2702	0.2822	-0.4023	9.6632	1.1644	-0.2739	-16.4396	-19.7084	1.2561	-0.8588	-0.3517	0.6114
4.7246	-3.1075	2.1858	-46.2303	-82.7222	32.247	-0.5722	-1.2591	-0.8954	1.9159	0.5972	9.9196	-4.4205	-16.0317	-3.1666	-0.2642	0.2762	-0.4023	9.604	1.5056	-0.3892	-14.835	-19.8418	2.0674	-0.8738	-0.3318	0.665
5.3806	-2.5211	1.8981	-50.1515	-95.0544	13.7609	-0.6028	-1.3124	-0.8489	2.0927	0.3104	10.1559	-3.0602	-17.6572	-3.2264	-0.2702	0.2822	-0.4023	9.4917	1.3352	-0.3342	-12.8746	-19.2813	3.3038	-0.9055	-0.3137	0.6472
5.0264	-2.1756	2.2961	-55.7641	-111.2587	-3.8345	-0.641	-1.2346	-0.8319	2.486	1.6312	9.8767	-3.8479	-19.5142	-2.5347	-0.2822	0.2702	-0.4023	8.752	1.1654	-0.4623	-11.0548	-18.3778	3.9633	-0.8747	-0.3521	0.6111
4.6693	-2.0029	2.5212	-63.042	-133.1979	-21.0105	-0.5676	-1.2177	-0.7936	2.7233	1.4025	10.2901	-5.9697	-22.3092	-1.4915	-0.2702	0.2882	-0.3843	8.749	1.0515	-0.6341	-9.2126	-16.9217	4.2885	-0.8742	-0.351	0.6644
4.1813	-1.9395	2.1616	-71.6948	-156.052	-35.3597	-0.524	-1.273	-0.7094	2.094	1.5189	10.3371	-10.0409	-26.174	-0.2769	-0.2582	0.2762	-0.3843	8.6963	1.1655	-0.4061	-7.6398	-15.531	4.9286	-0.9368	-0.2949	0.6649
3.4589	-2.5798	2.0985	-89.1112	-175.1613	-46.0116	-0.5805	-1.214	-0.7108	2.546	0.7111	9.9322	-13.5965	-31.5934	-0.5003	-0.2642	0.2762	-0.3782	8.8643	1.3358	-0.5173	-5.6111	-14.1361	5.2785	-0.8742	-0.3325	0.6295
2.5687	-2.4707	2.782	-112.7189	-192.1827	-52.481	-0.5789	-1.2517	-0.712	2.7807	0.6545	10.2293	-15.9319	-37.7403	-0.4808	-0.2642	0.2882	-0.3722	9.1019	1.2223	0.0591	-4.2508	-12.2759	5.0069	-0.8886	-0.2558	0.6494
2.1747	-2.3725	4.2915	-132.5427	-203.9484	-56.9157	-0.5912	-1.2863	-0.6471	3.0133	0.5974	10.4091	-11.8007	-42.631	-2.166	-0.2642	0.2762	-0.3782	8.8824	0.9954	0.4554	-4.0647	-10.0513	4.804	-0.8576	-0.3123	0.6659
1.5949	-2.212	5.5051	-144.1895	-209.9854	-59.3914	-0.5155	-1.3261	-0.6106	2.4339	0.5393	10.0464	-8.7167	-45.8867	-3.1481	-0.2582	0.2762	-0.3662	8.4816	1.3369	0.2766	-3.1382	-8.0385	4.5159	-0.8571	-0.2743	0.6494
0.4624	-1.81	6.1222	-150.5807	-212.4394	-58.2572	-0.5299	-1.3618	-0.5793	2.7706	0.7672	9.7026	-5.0454	-47.8398	-4.3564	-0.2582	0.2642	-0.3542	8.4831	0.9958	0.3336	-2.5062	-6.0024	4.7283	-0.8885	-0.2743	0.6843
-0.1154	-1.5926	7.4519	-155.9725	-211.8972	-54.9178	-0.4899	-1.3805	-0.5275	2.1453	1.1147	9.9849	-2.6941	-48.2184	-4.4294	-0.2642	0.2702	-0.3422	8.029	1.0532	0.3253	-2.0686	-5.2423	4.7828	-0.8419	-0.2939	0.6136
-0.7713	-0.663	7.8373	-160.905	-208.9735	-49.8411	-0.4535	-1.4399	-0.5607	1.696	1.6354	10.5056	5.0278	-45.7857	-4.0897	-0.2582	0.2702	-0.3422	8.133	1.1664	-0.1876	-0.1554	-4.5217	5.4687	-0.874	-0.3322	0.6472
-0.9251	-0.9146	9.2971	-165.3976	-205.5868	-44.7907	-0.3772	-1.518	-0.5422	2.8306	1.1705	9.8812	7.3214	-47.8677	-4.3674	-0.2822	0.2822	-0.3362	7.6784	1.565	-0.1957	0.7294	-3.8594	5.9699	-0.9044	-0.2747	0.684
-1.146	0.0049	10.4491	-167.2765	-204.3105	-40.4646	-0.3576	-1.5566	-0.5423	3.0574	0.5942	9.7073	10.7368	-46.7056	-6.1766	-0.2702	0.2642	-0.3422	8.4239	1.2801	0.2183	1.103	-2.8849	5.9358	-0.8892	-0.2942	0.6481
-1.1881	-0.0659	11.4415	-164.9139	-205.1859	-37.6838	-0.3097	-1.5625	-0.6398	3.1175	0.8825	9.8854	15.8166	-46.5362	-6.8527	-0.2702	0.2582	-0.3362	8.6434	1.4501	-0.178	0.8153	-1.8751	5.5531	-0.9048	-0.2938	0.6834
-1.1772	0.5097	12.0766	-160.7733	-206.9918	-34.7303	-0.3073	-1.6192	-0.6416	2.7701	0.4219	9.6424	17.253	-46.1566	-7.5087	-0.2762	0.2582	-0.3242	8.244	1.5074	-0.2997	0.0115	0.0281	4.4247	-0.8728	-0.2743	0.6668
-1.9521	-0.3691	12.4242	-160.4718	-206.3346	-30.6295	-0.2579	-1.6629	-0.7403	2.7769	0.9988	10.0551	18.3277	-42.3301	-9.5351	-0.2702	0.2642	-0.3242	8.811	1.9048	-0.289	-1.0045	2.1425	3.4273	-0.841	-0.2552	0.6326
-2.4173	0.0867	13.3443	-164.8881	-202.1529	-25.4398	-0.2421	-1.6844	-0.7902	2.5513	0.8275	10.2256	25.266	-34.4252	-11.7738	-0.2822	0.2702	-0.3242	8.8038	0.9945	-0.7476	-2.125	3.5613	2.1201	-0.873	-0.2747	0.6491
-2.9432	0.1348	14.21	-170.9126	-196.4298	-19.9196	-0.2099	-1.7462	-0.8905	2.137	1.5154	9.5766	24.3148	-33.1023	-11.4688	-0.2762	0.2582	-0.3302	9.1915	1.1074	-1.2553	-2.8212	5.0456	0.4935	-0.9211	-0.2949	0.6475
-3.1017	0.2364	15.4317	-173.2589	-190.1781	-14.9878	-0.236	-1.7307	-1.0084	2.533	1.2259	9.2902	23.829	-32.9072	-9.9308	-0.2702	0.2642	-0.3242	8.9688	0.9941	-1.0306	-4.5009	6.4347	-0.8586	-0.889	-0.3123	0.7008
-2.9542	0.5673	16.9478	-168.8324	-186.2364	-11.4827	-0.2808	-1.6955	-1.1267	2.9293	2.0871	9.126	20.897	-32.1147	-7.9824	-0.2822	0.2582	-0.3062	8.7456	1.2789	-0.8056	-6.156	7.2332	-1.3558	-0.8892	-0.2942	0.6481
-3.671	0.4479	17.2286	-161.1055	-184.5243	-7.8521	-0.2755	-1.6456	-1.2916	2.8166	1.6275	9.1803	20.578	-31.711	-4.2033	-0.2702	0.2522	-0.3122	9.4278	1.2212	-0.7359	-7.8206	8.3105	-2.1885	-0.8412	-0.274	0.6497
-3.7231	0.6756	17.6918	-158.0054	-184.2645	-4.2872	-0.3206	-1.6299	-1.4272	3.458	1.514	9.7777	20.2481	-32.4575	-1.0319	-0.2822	0.2402	-0.3122	8.9759	1.2219	-0.6298	-10.0278	8.6493	-2.4578	-0.8258	-0.3117	0.6666
-4.5089	0.8539	17.5006	-164.85	-183.8598	-0.8403	-0.418	-1.5528	-1.4971	3.061	1.7458	10.0053	22.1122	-33.8107	0.9934	-0.2702	0.2522	-0.2882	8.4096	0.9951	-0.5832	-11.5056	8.5375	-3.152	-0.8723	-0.2548	0.6852
-5.4024	1.0236	18.0081	-178.3089	-182.1787	3.1171	-0.4856	-1.4808	-1.6656	3.6843	1.2828	9.6053	24.1026	-35.6671	2.0068	-0.2642	0.2522	-0.3062	8.2918	0.3126	-0.8719	-12.4534	8.7739	-4.7811	-0.8728	-0.2928	0.7018
-5.7507	1.7149	18.7522	-188.2485	-181.8026	6.0179	-0.5671	-1.3284	-1.7153	3.7513	1.4	10.1342	26.5253	-39.1309	2.6278	-0.2642	0.2522	-0.3002	8.6959	0.6537	-0.4638	-12.7363	8.0123	-6.8682	-0.8565	-0.2733	0.7027
-6.0955	2.1706	19.6744	-187.6595	-183.2136	8.4095	-0.6293	-1.234	-1.7826	3.9776	1.1688	9.9618	28.6556	-42.3943	1.8665	-0.2582	0.2522	-0.3002	8.8024	0.4257	-0.8625	-12.0505	8.0408	-6.7349	-0.8889	-0.275	0.6487
-7.2339	3.8011	20.0425	-179.8189	-182.6527	9.984	-0.7459	-1.0794	-1.8176	3.7499	0.9394	10.0149	29.0017	-45.8612	1.1476	-0.2762	0.2522	-0.2882	9.3823	0.5393	-0.1652	-12.097	8.7651	-6.2975	-0.8571	-0.2743	0.6494
-7.844	4.3907	19.6158	-167.5861	-177.1203	10.2579	-0.824	-0.983	-1.8523	3.2927	2.2062	10.1876	29.8192	-49.4392	1.2563	-0.2582	0.2281	-0.3002	9.3826	0.3118	-0.1653	-12.6295	10.0639	-5.5951	-0.8566	-0.2548	0.6678
-9.3594	4.5751	19.0032	-153.1177	-164.1737	11.7408	-0.906	-0.7922	-1.8841	3.6374	2.3209	10.2533	30.0211	-53.618	3.892	-0.2522	0.2522	-0.3062	8.8697	0.3124	-0.2892	-11.4899	10.3268	-4.8282	-0.8572	-0.2932	0.6666
-10.7747	4.0153	17.2342	-140.768	-145.6922	14.5389	-0.9795	-0.7318	-1.8697	3.1212	2.6094	10.2446	29.8383	-58.0663	7.8837	-0.2582	0.2402	-0.2942	9.7114	0.5384	-0.7885	-9.5024	10.2332	-4.6733	-0.8562	-0.2356	0.6684
-13.2649	4.3258	15.9607	-126.0086	-124.0265	21.1586	-1.0352	-0.6917	-1.8716	3.241	2.783	10.5405	30.5748	-63.2355	13.1343	-0.2462	0.2281	-0.2762	9.6051	0.5957	-0.3899	-6.6123	9.5891	-4.3347	-0.8565	-0.2733	0.7027
-17.0932	4.0063	13.8545	-115.7785	-102.8089	35.3295	-1.0749	-0.5762	-1.8534	3.0839	2.5566	11.2977	32.9683	-69.1849	19.1175	-0.2402	0.2342	-0.2762	9.6584	0.8799	-0.5603	-3.21	9.5308	-4.5292	-0.8733	-0.2939	0.6485
-20.0356	5.9713	10.9763	-120.2909	-76.4984	52.3486	-1.1121	-0.4979	-1.8195	3.5464	2.6719	11.5414	38.687	-75.075	24.4971	-0.2522	0.2462	-0.2822	10.0135	0.8801	0.2472	2.0498	8.8637	-4.7226	-0.8255	-0.274	0.6323
-21.284	10.0271	8.7438	-138.7666	-41.1098	63.8043	-1.1506	-0.3624	-1.7671	3.9544	3.1331	11.9612	45.8685	-81.9499	28.8292	-0.2342	0.2402	-0.2642	10.0131	1.1644	0.2474	7.4058	8.6363	-5.868	-0.8887	-0.2747	0.6665
-20.7963	16.3194	9.4907	-146.2129	0.3914	57.2939	-1.2029	-0.3783	-1.7541	3.7731	2.8435	11.4294	53.555	-88.4632	31.6195	-0.2101	0.2281	-0.2762	10.1223	1.2778	0.0206	12.4423	8.4745	-7.3413	-0.8896	-0.3134	0.6475
-18.5022	19.7683	13.457	-108.9231	33.8839	35.1939	-1.1483	-0.2644	-1.6636	3.6167	2.7899	12.246	60.7753	-98.7762	35.388	-0.2402	0.2522	-0.2762	10.9354	0.5952	1.0077	15.5239	8.9991	-9.9798	-0.8562	-0.2541	0.7033
-13.3853	18.2781	20.1615	-3.9234	28.8591	15.1912	-1.1715	-0.1893	-1.6958	3.9718	2.6194	12.8376	65.33	-110.4927	37.5824	-0.2161	0.2402	-0.2702	11.1042	0.1399	0.896	16.0387	9.871	-13.4914	-0.7926	-0.2528	0.7046
-13.014	17.8042	20.6994	98.6639	36.3297	-4.1719	-1.1694	-0.2654	-1.7149	4.3905	1.9324	13.7209	71.7879	-124.1953	37.0421	-0.2161	0.2101	-0.2762	11.445	-0.088	0.9021	14.1982	12.1002	-16.1227	-0.8714	-0.2161	0.7042
-20.2707	13.5811	18.4067	224.2047	53.2967	-26.262	-1.0952	-0.2674	-1.6772	5.431	0.3794	14.0852	76.2249	-138.385	33.0437	-0.2101	0.2101	-0.2642	11.7737	0.1955	0.279	10.4623	14.8067	-15.9279	-0.8411	-0.2925	0.6847
-17.4506	3.521	10.7022	259.3688	88.8895	-19.1654	-1.1321	-0.2469	-1.6787	6.0723	-0.9423	14.56	76.8877	-154.9405	25.0556	-0.2101	0.2221	-0.2522	11.3587	0.1952	-0.7013	4.4407	16.4446	-13.3684	-0.8407	-0.2545	0.6681
-4.3469	-1.9823	6.3318	223.4693	28.6646	9.595	-1.1132	-0.3439	-1.7309	5.8702	-0.6479	16.0214	76.44	-173.6933	14.967	-0.1981	0.1981	-0.2642	11.1341	0.7074	-0.5333	3.1583	16.0875	-9.6761	-0.8568	-0.2552	0.65
6.7475	-5.826	14.0464	288.9619	73.6224	-41.6728	-1.0915	-0.3813	-1.6975	6.2953	-1.2183	17.2567	74.8219	-195.2137	1.4296	-0.1921	0.2041	-0.2582	11.4007	1.1613	-1.4435	-1.4748	14.6786	-9.0571	-0.9046	-0.275	0.6662
4.4666	-0.9543	21.3	221.6852	104.3743	-83.9242	-1.0552	-0.4407	-1.7308	5.9468	-1.7231	20	67.9888	-225.9629	-13.9267	-0.1801	0.1981	-0.2402	12.3754	2.4686	-0.7952	-4.2185	8.6968	-10.0676	-0.8728	-0.2743	0.6668
3.2621	2.4795	8.1606	179.8428	132.9584	-104.0912	-1.0175	-0.48	-1.7299	5.3359	-4.0629	23.8425	67.1892	-259.7099	-35.2602	-0.1681	0.1801	-0.2462	12.5133	2.1283	0.5229	-9.7156	2.8703	-4.8795	-0.8894	-0.2945	0.6304
-3.0431	8.9334	5.926	115.3071	143.0406	-100.5096	-0.9933	-0.5546	-1.6809	5.0969	-6.1225	26.1709	70.0545	-291.9568	-65.2552	-0.1921	0.1681	-0.2101	10.9221	1.2202	0.3214	-13.6914	-8.0134	4.924	-0.8253	-0.2737	0.65
-4.5942	3.7118	12.9687	90.3423	117.2072	-66.958	-0.9734	-0.6509	-1.7164	5.5193	-4.3921	27.4751	81.1448	-314.6194	-98.2086	-0.1621	0.1621	-0.2041	10.0672	0.7661	0.0764	-7.6342	-17.3476	4.2686	-0.8565	-0.2733	0.7027
-4.2626	-1.8075	11.0007	79.8957	68.4454	-9.3597	-0.9025	-0.6742	-1.7464	9.1975	5.3142	26.0086	102.4185	-323.3353	-120.1512	-0.1681	0.1501	-0.1861	9.9578	0.8802	0.3034	-7.2383	-21.8415	1.4246	-0.84	-0.2346	0.7043
-1.7063	2.0593	9.5379	48.2178	44.9964	-6.6413	-0.9012	-0.6541	-1.7122	8.7816	7.5552	25.4252	149.1839	-318.0699	-114.713	-0.1741	0.1261	-0.1681	9.3917	1.3928	0.4078	-5.1319	-26.5805	0.8321	-0.8398	-0.2343	0.722
-3.4814	2.1405	7.8713	61.8285	38.0206	-14.2522	-0.9381	-0.6336	-1.7137	7.2983	-2.0762	18.7361	177.8968	-325.6182	-109.707	-0.1561	0.0841	-0.1621	8.6578	1.5645	0.6233	-5.3661	-32.864	1.8643	-0.8085	-0.2531	0.7043
-4.2493	0.7904	8.5752	84.0713	10.8246	-29.7911	-0.9001	-0.7308	-1.7481	6.1843	-0.7874	23.5808	163.7922	-301.6368	-123.6501	-0.1441	0.0841	-0.1561	9.0584	1.4504	0.8022	2.111	-35.1541	2.3905	-0.8561	-0.2353	0.6862
-1.2914	1.3052	9.146	83.6413	6.8688	-20.5222	-0.8842	-0.7328	-1.7807	5.0722	-1.2074	19.2242	229.0201	-298.8386	-134.0002	-0.1561	0.06	-0.1441	9.6187	2.2456	0.4699	3.2171	-35.7157	-0.9043	-0.8415	-0.3116	0.684
-0.7481	1.6532	9.268	63.2082	14.9482	-8.4654	-0.8957	-0.7863	-1.7164	6.4888	-0.9394	15.3879	281.9811	-299.3874	-108.8452	-0.1441	0.048	-0.1561	11.208	2.073	0.4989	3.3712	-33.8247	0.9192	-0.8083	-0.2528	0.7221
-1.3489	0.1373	9.218	55.765	6.7562	-10.2104	-0.9145	-0.7666	-1.7168	-1.6899	-7.4914	0.1516	200.8717	-232.4336	-105.8192	-0.1261	0.03	-0.1501	12.1724	2.4131	0.5169	3.5431	-28.9122	0.0008	-0.8408	-0.2733	0.6853
-1.5215	0.4818	9.6777	55.4967	1.2212	-9.4352	-0.8957	-0.7863	-1.7164	-2.924	-6.1158	-1.3884	158.8686	-141.3458	-97.6984	-0.1381	0.006	-0.1261	12.5614	2.3553	0.0663	2.8213	-21.4263	0.0208	-0.8081	-0.2524	0.7399
-0.3922	1.6563	8.9823	48.0442	1.4176	-1.8333	-0.8942	-0.824	-1.7176	-2.5739	-3.9116	-9.9797	54.7784	-62.9003	-108.0598	-0.1201	0.012	-0.1141	12.3869	2.4122	-0.1657	0.5597	-14.4159	1.4044	-0.8391	-0.2144	0.7582
-0.7412	1.2986	9.6228	32.7535	3.5266	-2.3337	-0.9498	-0.7839	-1.7195	2.7531	-3.8532	5.2895	-60.8452	23.1832	-111.088	-0.1201	-0.024	-0.1441	11.7711	2.2996	0.2806	3.3142	-9.5065	2.8669	-0.8403	-0.2538	0.7037
-0.9203	1.7643	9.7305	23.9009	5.8488	-1.8954	-0.8939	-0.8046	-1.7002	-7.403	-2.7905	7.4414	-53.5366	88.0964	-110.9951	-0.1141	-0.024	-0.1441	11.2571	1.5039	0.0417	1.9494	-4.3524	6.3904	-0.808	-0.2336	0.7227
-0.3157	0.5371	9.8149	18.3044	6.9504	-1.2477	-0.8416	-0.7887	-1.7133	-11.475	-2.9708	4.0831	-55.9947	160.4799	-81.032	-0.0961	-0.036	-0.1801	11.4735	1.6738	-0.5263	2.6353	0.2041	9.141	-0.7912	-0.1946	0.742
0.8734	1.945	9.1177	10.26	8.5227	-2.066	-0.9279	-0.8018	-1.6687	-8.0994	-2.7914	6.9595	-58.2243	190.6312	-54.502	-0.1021	-0.048	-0.1861	11.6602	1.8449	0.3926	1.9358	3.6434	11.2789	-0.7921	-0.2332	0.723
-1.5843	0.8335	9.5554	2.5124	9.3957	-2.9339	-0.8388	-0.8063	-1.6803	-4.0957	-1.3039	6.809	-44.5375	171.9268	-30.5062	-0.0961	-0.036	-0.2161	11.0342	1.5612	0.2665	2.7898	6.136	13.6392	-0.7601	-0.2322	0.7414
-1.0332	0.9429	10.0891	-1.9789	10.4982	-0.0242	-0.8733	-0.8425	-1.6836	-5.9551	-2.1835	2.2603	-41.0412	163.9014	-6.9729	-0.0841	-0.06	-0.2101	10.976	1.8456	0.2084	1.4122	6.9191	12.0889	-0.7912	-0.1946	0.742
-1.1032	1.1247	9.5602	-5.618	11.1972	-0.5785	-0.8923	-0.8423	-1.7014	-6.4176	-2.9892	1.955	-48.8681	179.3465	16.643	-0.072	-0.036	-0.2702	10.4746	1.0504	0.6563	1.9399	6.1422	13.2038	-0.7764	-0.2706	0.7577
0.155	1.4185	9.2868	-10.3334	11.3297	0.1909	-0.9119	-0.8038	-1.7012	-4.5159	-2.9898	2.5771	-60.4252	192.1484	32.892	-0.0841	-0.042	-0.2582	10.5352	1.3349	0.8865	3.2194	5.7882	14.5454	-0.8076	-0.2329	0.7582
-1.6388	0.5965	9.8493	-16.1874	10.9259	2.1932	-0.9124	-0.8427	-1.736	-4.5691	-3.449	2.7497	-80.444	208.4703	44.8986	-0.06	-0.042	-0.2822	9.916	1.3927	1.1612	2.964	5.7003	14.3065	-0.7924	-0.2709	0.7573
-1.7019	0.3653	9.676	-18.9175	11.6592	2.8277	-0.8576	-0.7867	-1.6808	-3.5799	-3.9649	3.5276	-98.2237	223.5607	51.7978	-0.066	-0.03	-0.3182	9.3993	1.1656	0.8083	2.9751	6.5645	15.6036	-0.791	-0.1942	0.7598
-1.0966	0.1872	9.8639	-17.8053	12.2416	4.8561	-0.8735	-0.862	-1.7009	-2.123	-4.1916	4.8429	-114.5785	233.6716	53.5855	-0.042	-0.03	-0.3242	9.1615	1.3929	0.2319	3.2604	7.4918	16.7393	-0.8069	-0.1945	0.7595
-1.3953	0.1278	9.9762	-16.1011	13.2278	6.7321	-0.8761	-0.8248	-1.7165	-1.1441	-3.7894	5.1563	-127.1004	238.8656	50.9849	-0.048	-0.024	-0.3542	8.9897	0.995	0.114	4.0558	9.2498	17.2519	-0.8244	-0.2534	0.704
-1.6405	0.2478	9.7369	-13.6439	13.4914	7.9372	-0.8596	-0.7879	-1.7143	-1.0129	-3.2103	6.0984	-137.2163	241.4589	45.3121	-0.024	-0.012	-0.3542	8.2529	1.0528	0.1578	3.9601	11.3701	17.9784	-0.7917	-0.2325	0.7586
-0.978	0.7131	9.8011	-11.098	12.8173	7.3063	-0.8759	-0.8054	-1.6992	-0.0262	-2.9213	6.8213	-146.2977	240.3217	39.5019	-0.006	0	-0.3722	7.9068	1.3373	-0.1344	4.8383	15.313	18.9669	-0.8074	-0.2325	0.776
-1.2211	0.132	9.629	-9.2178	12.5611	7.3386	-0.8635	-0.7708	-1.764	0.2158	-2.6886	7.5297	-151.3534	237.0043	34.1115	0.018	0.006	-0.3843	7.5838	1.4522	0.8324	5.1134	18.4093	19.5672	-0.7912	-0.1946	0.742
-1.5177	0.0127	9.8587	-7.3813	12.9121	8.1228	-0.8419	-0.8081	-1.7306	0.4634	-1.8216	8.5925	-153.5887	233.0381	28.9544	0.03	0.03	-0.4023	6.949	1.5663	0.2487	6.0965	21.4308	19.0089	-0.8067	-0.2127	0.8122
-1.3988	0.3635	9.798	-5.0976	13.4458	10.0124	-0.8769	-0.806	-1.7159	0.9291	-2.2809	8.9507	-154.1742	228.3798	24.0069	0.03	0.042	-0.3963	6.6093	1.7374	0.2998	7.3336	21.95	18.8839	-0.7754	-0.213	0.7595
-1.3425	0.8325	9.618	-3.3399	14.5282	10.9672	-0.8272	-0.7529	-1.7446	0.9927	-1.4165	9.3657	-155.5029	223.304	21.4635	0.048	0.048	-0.4083	6.5076	1.4536	0.927	8.3061	20.937	17.3411	-0.7756	-0.2319	0.7767
-1.4581	0.4795	9.8539	-1.4622	15.1213	12.3405	-0.8955	-0.7668	-1.699	1.2371	-1.9887	10.1291	-158.1136	218.2305	20.5564	0.072	0.066	-0.4143	6.5087	1.4537	0.9842	10.3052	17.8944	15.1062	-0.7746	-0.1559	0.7436
-1.5226	0.5409	9.6185	1.9224	15.0864	14.0809	-0.8259	-0.7328	-1.7105	1.423	-1.1227	10.9564	-163.442	215.0819	20.2376	0.0781	0.0841	-0.4023	6.1117	1.1698	0.9767	11.8815	14.6189	14.2647	-0.7906	-0.1935	0.7953
-1.2888	0.9535	9.2672	6.0265	14.2376	15.0259	-0.8432	-0.7509	-1.7121	2.5265	-1.4662	11.7373	-170.7876	213.9503	19.6729	0.0901	0.1081	-0.4023	6.5623	1.4535	0.8136	13.2406	11.7848	12.3578	-0.7595	-0.2312	0.7948
-0.7493	1.0126	9.1592	7.7782	12.6728	13.709	-0.8599	-0.8073	-1.7317	2.3106	-0.8874	12.497	-176.2203	209.9355	19.3907	0.0901	0.0961	-0.3903	6.3265	0.9415	0.2939	14.644	9.66	9.8099	-0.8067	-0.2127	0.8122
-0.9197	1.2974	9.7364	10.5161	11.2419	11.9829	-0.821	-0.8266	-1.6966	2.5781	-0.7637	14.5522	-179.8306	202.8802	19.208	0.0961	0.1261	-0.3963	6.894	0.9977	0.3044	15.7062	7.3221	7.2706	-0.8059	-0.174	0.8312
-1.3412	0.715	9.6779	15.0026	10.7434	10.5933	-0.8434	-0.7704	-1.7295	3.0005	-0.3566	15.7334	-181.502	192.9041	18.6012	0.1081	0.1321	-0.3963	7.7516	0.9401	0.6634	15.9619	5.3808	4.6663	-0.7585	-0.1737	0.7966
-1.5756	0.7109	10.0241	20.5192	10.7737	9.3868	-0.8604	-0.769	-1.7137	3.4334	-0.2923	17.4401	-183.5876	185.5341	19.4563	0.0901	0.1561	-0.3782	7.5167	0.5988	0.2011	16.6156	3.243	0.9116	-0.8076	-0.2329	0.7582
-1.6456	0.8927	9.4952	24.7907	10.7954	7.3039	-0.8063	-0.7714	-1.7106	3.7026	0.8099	19.6755	-181.5758	186.4238	23.0963	0.1261	0.1681	-0.3722	8.0843	0.4843	0.2114	16.4143	1.6028	-1.4615	-0.7744	-0.1555	0.7613
-1.2135	0.7681	10.0881	28.1799	11.2332	5.8254	-0.8578	-0.8061	-1.6981	4.7576	1.7918	21.0471	-174.7231	190.9726	29.2369	0.0961	0.1921	-0.3482	8.4833	0.8252	0.3335	16.6238	-0.1309	-1.5431	-0.8223	-0.1754	0.7775
-1.3994	0.772	9.7929	31.991	12.9584	4.2773	-0.8398	-0.8069	-1.6971	6.1029	2.4289	22.5983	-167.5965	192.621	38.897	0.1021	0.2101	-0.3542	8.8762	0.9382	0.1119	16.0694	-1.3066	-2.3349	-0.7588	-0.1928	0.796
-1.515	1.177	10.0777	35.4468	16.2422	1.7525	-0.8761	-0.8248	-1.7165	7.6541	3.1753	22.9243	-164.0291	188.6301	50.9785	0.1021	0.2342	-0.3482	8.3686	0.939	0.2742	15.9169	-1.7649	-2.2111	-0.791	-0.1942	0.7598
-1.6992	1.4713	9.8956	37.3075	21.276	0.4544	-0.7859	-0.8288	-1.7114	10.15	3.683	21.6863	-166.6174	179.1453	60.8243	0.0961	0.2402	-0.3302	8.196	0.3135	0.0989	15.6844	-2.3511	-1.6557	-0.7749	-0.1935	0.7779
-2.2345	0.7096	10.1876	38.0461	28.5833	0.4806	-0.8416	-0.7887	-1.7133	11.3776	6.2047	20.1988	-187.6162	157.3798	66.8866	0.1021	0.2402	-0.3182	8.3177	0.4275	0.559	15.3424	-2.2271	0.3221	-0.7272	-0.211	0.8138
-2.1075	0.4716	10.5431	34.8695	37.8027	1.1511	-0.8011	-0.8457	-1.6794	13.4241	7.9235	19.5432	-207.2024	132.1328	82.552	0.0901	0.2522	-0.3422	8.3704	0.3135	0.331	13.8512	-2.3617	1.226	-0.7908	-0.2123	0.8125
-2.4771	0.5363	10.0688	30.9785	46.5726	5.0499	-0.804	-0.828	-1.7124	15.2563	8.668	19.5818	-210.3362	117.0297	93.9728	0.0901	0.2702	-0.3242	8.6456	0.4834	-0.1215	11.3846	-2.964	-1.3476	-0.7597	-0.2315	0.777
-1.9892	1.2309	10.4773	23.6223	56.3553	6.8307	-0.8045	-0.7896	-1.6944	16.5978	8.3127	17.7907	-188.9155	115.0858	97.2707	0.0841	0.2582	-0.3242	9.3956	0.7105	0.579	7.8674	-4.7562	-3.715	-0.7591	-0.2305	0.8303
-2.2213	1.1086	10.9417	19.3697	66.5009	9.4415	-0.822	-0.8272	-1.7134	20.3431	6.9034	12.7617	-165.0302	126.9124	86.27	0.1081	0.2702	-0.3062	10.0713	0.88	0.3055	0.8812	-7.0974	-5.983	-0.7587	-0.174	0.7788
-1.3277	1.6386	10.4838	12.3415	77.877	10.5454	-0.7679	-0.8296	-1.7103	26.0052	10.9934	3.5783	-175.9967	140.7574	65.0424	0.0901	0.2762	-0.3242	10.4644	1.7324	0.1417	-8.5291	-9.0068	-6.5157	-0.7746	-0.1743	0.7785
-1.9872	1.3462	10.5926	21.903	85.5093	11.9441	-0.7473	-0.8675	-1.6937	29.7766	17.0123	0.633	-215.4338	123.4978	57.8157	0.1021	0.2882	-0.3122	10.6876	1.4476	-0.0833	-20.7598	-9.4685	-8.2429	-0.7747	-0.1932	0.7957
-0.4843	3.4028	13.9787	18.0886	83.5223	10.688	-0.7313	-0.8695	-1.7262	30.9745	22.0992	6.9448	-211.4765	63.1024	68.2646	0.1201	0.2822	-0.2942	10.6243	2.528	-0.3696	-31.2851	-9.2297	-10.0157	-0.7266	-0.1915	0.8322
-0.1008	4.0115	11.9349	55.7333	66.6845	-4.5121	-0.714	-0.8514	-1.7246	27.3334	20.514	11.1424	-133.982	4.7722	61.1793	0.1201	0.2762	-0.2882	11.0138	1.2191	-0.8784	-31.2514	-9.3338	-4.855	-0.7437	-0.2497	0.8122
-0.7101	4.0175	11.5155	41.1843	77.3493	-18.245	-0.7467	-0.9059	-1.7116	9.9187	13.4164	37.7122	-56.9945	-15.8986	25.3212	0.1141	0.2702	-0.2702	10.7183	0.5365	-1.571	-30.0273	-8.1063	-3.4376	-0.7427	-0.2106	0.849
-1.2087	3.4636	13.8485	39.3124	86.7656	-31.7028	-0.6774	-0.8914	-1.7405	26.28	17.1701	21.8231	101.2857	-31.2656	-57.4965	0.1141	0.2702	-0.2642	10.3333	-0.0881	-0.9492	-25.501	-6.6336	-8.5393	-0.727	-0.1922	0.7966
-1.9247	2.7605	14.1366	43.786	99.5523	-40.4002	-0.6212	-0.8926	-1.7038	33.699	12.2738	22.9976	257.1704	-96.5089	-97.4971	0.0961	0.2522	-0.2702	11.1383	-0.1455	-0.3623	-15.7392	-4.8066	-8.6325	-0.7595	-0.2496	0.8297
-2.5173	2.1718	14.6005	49.742	118.0066	-43.396	-0.6395	-0.9113	-1.7222	-1.835	-0.4216	-0.8147	349.2898	-121.0955	-147.8011	0.0961	0.2522	-0.2582	11.4948	-0.4296	0.5022	-6.5249	-4.6268	-4.2052	-0.76	-0.2692	0.8113
-2.5719	1.1768	14.8455	56.0295	138.3947	-41.4641	-0.5818	-0.9502	-1.6868	2.7534	6.3847	18.4528	364.4214	-151.2526	-115.1852	0.0901	0.2221	-0.3002	12.2692	0.3104	2.5767	3.031	-3.3225	-3.9276	-0.7593	-0.2308	0.8125
-2.5419	1.6808	16.5325	58.5696	160.0254	-39.4888	-0.5611	-0.9882	-1.6701	-6.8212	3.0183	20.6544	294.7981	-204.2583	-48.3236	0.072	0.2281	-0.3062	13.475	1.7313	3.4582	5.002	-0.8643	-5.5648	-0.7278	-0.2678	0.8475
-1.8498	2.8836	18.2807	63.6019	180.5902	-39.69	-0.5423	-1.0078	-1.6697	0.8764	5.4874	9.9217	204.7959	-207.3665	21.2367	0.072	0.2041	-0.2882	14.0407	1.5031	3.3539	8.3004	5.0188	4.4624	-0.728	-0.2681	0.8297
-2.2186	2.3813	21.1407	72.2654	204.7963	-40.9956	-0.4542	-1.013	-1.6981	3.3027	2.8888	-4.4486	94.9953	-93.8195	38.3847	0.048	0.1921	-0.3122	14.533	2.1273	2.3909	14.1845	15.4951	10.4542	-0.7434	-0.249	0.8478
-1.7532	0.3094	23.4514	80.1342	230.9292	-38.7126	-0.4338	-1.0704	-1.6988	12.7878	0.4909	3.2768	102.4004	-27.4825	14.098	0.06	0.1861	-0.3002	15.4998	3.4318	-0.5082	0.5679	33.9156	12.3608	-0.7437	-0.2497	0.8122
-0.6702	-0.8995	26.696	86.1723	265.1394	-32.3254	-0.448	-1.0867	-1.6501	2.2839	3.2353	8.4161	100.37	5.8289	-9.0434	0.072	0.1861	-0.3002	15.4784	3.0327	-1.7104	-3.7319	46.4475	19.5337	-0.76	-0.2876	0.8462
0.0657	-4.6249	30.5497	94.2333	303.0548	-18.6558	-0.4113	-1.1267	-1.666	-1.1719	2.2148	10.336	54.0294	-5.2094	-4.4959	0.048	0.1681	-0.3182	12.1159	2.1856	0.5157	-10.3354	40.7093	7.7943	-0.759	-0.2301	0.8481
0.6826	-8.6593	31.1365	101.9765	339.4073	8.2082	-0.3147	-1.1849	-1.5955	0.661	0.5431	10.188	60.8378	-13.3789	3.8403	0.054	0.1861	-0.3242	10.8696	2.0167	0.6071	-0.9288	30.301	3.2814	-0.728	-0.2497	0.7948
4.0443	-11.5732	30.5316	108.6373	373.3661	41.5539	-0.2982	-1.1479	-1.5933	3.6502	0.5844	7.7277	55.801	-3.5462	5.9317	0.048	0.1741	-0.3362	10.1323	1.6763	0.5933	11.7088	20.5747	-2.0602	-0.7284	-0.2504	0.7592
6.5193	-10.0072	31.0808	124.0935	384.7551	80.2037	-0.2373	-1.2624	-1.5602	1.7829	1.7437	9.0438	55.0921	6.131	-3.2484	0.054	0.1621	-0.3242	9.9209	1.6204	1.4475	18.13	13.7668	-11.341	-0.7586	-0.1925	0.8138
-0.711	0.3699	27.8468	141.6697	359.6099	122.2773	-0.1806	-1.2246	-1.4888	2.1384	0.6528	9.5728	51.5507	7.2687	-3.3573	0.06	0.1741	-0.3422	9.5795	2.417	1.4419	23.1545	9.9532	-12.8739	-0.7444	-0.288	0.811
-8.6209	4.213	19.8962	182.9938	328.0814	150.5978	-0.1213	-1.3013	-1.4545	2.0662	2.3179	8.9348	47.4305	8.219	-3.0315	0.054	0.1861	-0.3302	9.9133	2.7575	1.105	23.117	12.1042	-14.2999	-0.7446	-0.3068	0.8282
-14.3384	5.0118	26.4985	270.0977	282.945	130.7789	-0.1504	-1.3924	-1.4092	1.5535	1.8591	9.04	32.063	8.7464	-2.5449	0.066	0.1681	-0.3302	11.0818	2.1864	-0.1899	23.4254	15.9454	-14.7086	-0.6805	-0.249	0.778
-3.9838	0.6315	16.5787	409.9775	334.2791	79.2087	-0.1094	-1.4104	-1.3407	1.6906	1.5766	10.2125	24.0172	5.9501	-1.7743	0.06	0.1741	-0.3362	10.6217	2.0729	-0.5417	17.7398	18.7405	-16.4522	-0.7754	-0.25	0.8294
1.9871	-17.2357	2.9569	368.4059	259.7699	41.2691	-0.1207	-1.4444	-1.259	1.5035	1.4582	9.3885	12.8624	2.3974	-2.3944	0.06	0.1801	-0.3422	11.0702	1.4465	-0.8772	9.9839	22.4042	-15.0538	-0.6958	-0.2483	0.831
13.7905	-16.5235	-13.0135	136.6839	168.0026	78.7837	-0.1665	-1.5146	-1.1806	1.161	2.0344	9.5017	-0.2491	-1.377	-1.4653	0.06	0.1561	-0.3422	11.0063	1.3894	-1.2789	1.0932	23.4077	-17.0845	-0.7275	-0.2301	0.8132
11.9136	-13.6228	-6.8371	-17.8371	85.6794	102.8332	-0.1454	-1.5136	-1.1293	1.4441	2.0907	9.3317	-7.3256	-3.3611	-0.8589	0.042	0.1681	-0.3422	10.8971	1.2191	-1.0522	-4.9356	19.606	-17.3033	-0.7917	-0.251	0.7935
1.6213	-2.9133	10.2424	-48.8826	46.9339	113.2386	-0.1248	-1.4743	-1.06	1.6098	1.8013	8.9822	-14.568	-4.7902	-0.2547	0.042	0.1741	-0.3422	9.7713	1.3347	-0.5579	-10.1792	11.7763	-16.8095	-0.7289	-0.2884	0.7758
11.1714	-6.6193	2.4598	-65.1853	-42.5518	107.3813	-0.2126	-1.5269	-1.0669	1.7962	1.6893	9.7466	-20.7339	-5.8306	1.0476	0.054	0.1741	-0.3422	9.705	1.505	-1.0739	-11.984	2.9573	-15.2281	-0.7766	-0.2894	0.7748
14.0262	-4.0173	4.1117	-58.5883	-117.3163	79.7824	-0.2859	-1.4471	-1.0351	2.2031	0.827	9.9847	-23.2421	-7.0064	0.424	0.048	0.1741	-0.3302	8.9807	0.6534	-0.4013	-13.6946	-5.4351	-13.6461	-0.7282	-0.2685	0.812
7.9624	-2.5618	4.9209	-28.7924	-132.2673	52.6049	-0.2673	-1.4862	-1.0521	2.267	0.8285	10.3373	-21.7479	-8.1163	-0.8381	0.042	0.1681	-0.3542	9.3831	1.6199	-0.0499	-13.5947	-11.9746	-11.7962	-0.7453	-0.3082	0.7571
6.6478	-4.216	2	-41.9885	-133.2777	30.2674	-0.3183	-1.482	-1.0048	1.8595	0.7126	9.9776	-18.0589	-8.8149	-0.241	0.054	0.1801	-0.3242	9.278	0.7104	0.348	-12.2181	-17.0236	-9.8803	-0.7602	-0.2695	0.7935
7.6997	-4.3706	0.2693	-64.6908	-137.2542	7.4006	-0.3332	-1.4795	-0.9556	1.8018	1.0002	9.9778	-16.361	-10.1529	0.3101	0.036	0.1801	-0.3122	8.8134	0.7674	-0.2327	-11.9748	-20.2806	-7.7012	-0.7453	-0.3267	0.792
6.6901	-3.504	1.0578	-83.3133	-145.0247	-12.2475	-0.351	-1.4592	-0.9392	1.9227	0.4837	10.2706	-14.9002	-11.0759	-0.7685	0.054	0.1681	-0.3362	8.481	0.1426	0.1612	-12.3302	-21.7655	-6.0123	-0.7134	-0.326	0.7927
6.2651	-3.0927	0.8701	-102.7859	-162.9637	-29.2759	-0.4072	-1.458	-0.9759	2.3844	-0.2067	10.3934	-9.9184	-13.0028	-3.9206	0.042	0.1861	-0.3422	8.36	0.313	-0.2413	-12.959	-22.2167	-4.2456	-0.7448	-0.2887	0.7755
5.6843	-2.9899	2.026	-117.1271	-192.3936	-42.6197	-0.4221	-1.4554	-0.9266	2.4897	0.0786	9.9283	-2.6215	-13.6396	-7.2169	0.036	0.1801	-0.3422	8.588	0.3697	-0.1799	-12.6019	-22.3447	-1.6761	-0.7766	-0.3078	0.8098
5.4685	-3.4733	3.3709	-124.0631	-221.3438	-51.6481	-0.4232	-1.456	-0.9434	2.2534	1.0554	9.6354	1.9523	-12.7925	-7.6175	0.048	0.1801	-0.3362	8.5313	0.3129	-0.181	-13.188	-21.69	-0.6393	-0.7124	-0.2685	0.7945
4.2042	-3.9962	3.2968	-135.3851	-244.4955	-55.1446	-0.4216	-1.4165	-0.8919	2.1463	1.1724	10.0437	3.5161	-12.0569	-6.7399	0.06	0.1741	-0.3242	8.2435	1.0524	-0.3573	-12.8134	-20.7002	0.3715	-0.729	-0.3072	0.793
3.2568	-3.7141	4.1522	-153.9134	-256.307	-53.8762	-0.433	-1.4505	-0.8102	2.0788	1.3427	9.5162	3.2427	-11.7686	-5.388	0.036	0.1681	-0.3182	7.9599	0.8821	-0.3627	-11.6085	-19.3563	2.1591	-0.7288	-0.3068	0.8107
2.3722	-3.1424	5.1802	-173.8835	-257.7162	-50.3653	-0.4497	-1.5069	-0.8298	2.0779	1.2275	9.4571	-0.5996	-13.215	-3.7589	0.036	0.1801	-0.3302	7.2836	1.2813	-0.0887	-9.3627	-16.9095	3.4328	-0.6969	-0.2873	0.7942
2.1571	-2.5768	6.6286	-185.4969	-250.8175	-46.5026	-0.4502	-1.4685	-0.8118	2.3142	1.5739	9.8731	-3.3537	-14.0745	-3.3689	0.042	0.1681	-0.3122	7.7914	1.1668	-0.2511	-5.9994	-12.879	4.6242	-0.714	-0.3455	0.7743
1.2223	-1.4872	8.2329	-187.4216	-242.2594	-43.2483	-0.4453	-1.485	-0.7453	1.6817	1.632	9.7441	-4.8261	-14.7788	-4.3087	0.042	0.1681	-0.3122	7.7967	1.1101	0.035	-4.2796	-9.1829	5.8007	-0.6823	-0.3637	0.7921
0.4625	-1.0353	9.4981	-182.4127	-237.6009	-41.2727	-0.3948	-1.4509	-0.7746	2.0828	0.9409	9.6901	-5.0791	-15.1072	-6.0567	0.036	0.1561	-0.3242	7.5182	1.0538	0.3159	-4.201	-6.2041	6.068	-0.7614	-0.3274	0.7739
0.5276	-0.7473	9.7874	-173.4689	-238.0411	-38.965	-0.3577	-1.5292	-0.8084	2.1399	0.423	9.6303	-2.5525	-14.1695	-7.7365	0.03	0.1741	-0.3362	7.2335	0.9972	0.2534	-3.0666	-4.3234	6.51	-0.7295	-0.3636	0.8444
0.1886	-1.4618	10.9579	-167.7574	-243.8676	-35.9953	-0.3378	-1.5482	-0.7912	2.036	0.5983	10.2147	3.7989	-13.3813	-9.7451	0.048	0.1621	-0.3182	7.3569	0.5426	0.7702	-3.9442	-2.9473	6.0556	-0.7446	-0.2883	0.7932
-0.4026	-1.5267	11.532	-171.8411	-251.5161	-30.574	-0.2275	-1.5518	-0.7515	2.0824	1.171	9.6912	8.7048	-13.263	-9.0985	0.036	0.1621	-0.3122	7.6943	1.3951	0.6627	-4.2609	-2.1982	4.7498	-0.7295	-0.3267	0.7746
-0.6371	-1.4724	11.8774	-183.1904	-254.4097	-24.4664	-0.2236	-1.6462	-0.7544	2.1408	1.1711	9.7508	11.7427	-14.1323	-9.4799	0.042	0.1741	-0.3182	7.1211	0.8837	0.3085	-4.6186	-1.9625	3.1645	-0.7136	-0.3264	0.7749
-0.7215	-0.6808	13.909	-196.5865	-251.1092	-20.0134	-0.1535	-1.6506	-0.7838	2.4879	1.1713	9.9332	14.3081	-15.7423	-9.2089	0.024	0.1681	-0.3062	8.0296	1.3944	0.3828	-4.696	-1.4836	1.6036	-0.6814	-0.325	0.8111
-0.9359	-0.6405	15.364	-205.7122	-242.2528	-17.6156	-0.0863	-1.6372	-0.8462	2.0878	1.2298	9.9843	13.9505	-17.4697	-8.3668	0.024	0.1741	-0.3062	7.9039	1.1666	-0.3063	-4.8464	-0.0403	-1.4225	-0.7766	-0.3078	0.8098
-1.3264	0.0384	17.0998	-210.7339	-233.5689	-15.3346	-0.0504	-1.6583	-0.8615	2.0852	1.5168	9.8684	12.9658	-18.8039	-7.7693	0.024	0.1621	-0.3002	8.6997	0.995	-0.2346	-5.2112	0.9606	-3.3087	-0.697	-0.3062	0.8114
-1.6698	1.0179	18.1322	-214.9086	-223.0966	-14.594	0.0354	-1.7614	-0.9935	2.1463	1.8628	10.1054	12.3758	-19.5383	-6.3172	0.036	0.1681	-0.3122	8.7543	0.9949	-0.348	-5.7508	3.0086	-3.9215	-0.7134	-0.326	0.7927
-2.9112	1.5871	19.3874	-216.2504	-211.9281	-12.8589	0.0665	-1.6692	-1.0052	1.9793	1.5766	10.3351	12.4443	-20.8556	-5.0806	0.042	0.1861	-0.3182	8.805	0.8808	-0.6904	-5.9203	4.6163	-3.5348	-0.6808	-0.2866	0.8123
-3.8424	2.266	21.172	-215.9632	-198.6423	-9.3454	0.1882	-1.7934	-1.1525	2.3165	0.8841	9.9286	15.5157	-23.0796	-4.8703	0.036	0.1681	-0.3122	8.4168	1.1092	-0.1825	-6.8376	6.1809	-2.2657	-0.7458	-0.3462	0.7736
-5.44	2.3658	22.6604	-215.2417	-186.6773	-3.6209	0.2163	-1.7803	-1.2672	2.7797	1.2872	10.2321	19.2327	-24.8865	-3.7751	0.012	0.1621	-0.3182	8.4063	1.1656	-0.7547	-7.4131	7.5463	-1.961	-0.6666	-0.3637	0.7746
-7.8303	2.9985	23.6027	-208.7362	-182.1777	2.8226	0.2946	-1.8297	-1.4813	2.9454	0.9978	9.8826	23.1094	-28.8056	-3.836	0.054	0.1681	-0.3182	8.3529	0.9952	-0.5842	-7.3452	8.5493	-1.8628	-0.6978	-0.3633	0.8273
-9.5652	4.5679	24.253	-195.2178	-188.7165	11.9834	0.3348	-1.8788	-1.7309	3.1268	1.2874	10.4144	27.5903	-35.1338	-4.2241	0.024	0.1681	-0.3062	7.7895	1.0529	-0.3657	-6.9649	9.2768	-1.6533	-0.7458	-0.3462	0.7736
-11.3797	5.6843	23.7986	-185.8905	-196.3662	20.8652	0.2812	-1.8874	-2.0181	3.0065	1.4013	10.1199	27.3036	-43.0767	-3.4069	0.006	0.1561	-0.3182	8.4156	1.2229	-0.2396	-5.9208	10.1955	-2.0459	-0.7283	-0.2873	0.8291
-13.3845	6.9827	22.8131	-181.5552	-196.0323	24.2933	0.2213	-1.8222	-2.3533	2.6731	1.7495	10.7006	17.7463	-53.127	-2.7993	0.012	0.1561	-0.3002	8.2433	0.313	-0.4151	-4.4978	10.7612	-1.1621	-0.7453	-0.3082	0.7571
-14.3889	10.2196	20.7119	-180.6898	-181.2647	18.8822	0.0679	-1.697	-2.7086	3.068	1.5173	10.3558	26.311	-60.977	-1.7274	0.036	0.1681	-0.3002	8.699	0.6538	-0.2921	-2.3597	11.4461	-2.2347	-0.6825	-0.3456	0.7394
-16.2357	11.7081	18.5011	-161.1906	-160.7417	5.3659	-0.2451	-1.505	-2.9876	2.7516	2.2722	11.8756	11.3672	-72.9938	2.8261	0.024	0.1681	-0.2882	9.1551	1.5064	-0.1114	1.7119	11.5445	-4.8754	-0.7136	-0.3264	0.7749
-20.8959	6.7178	16.6722	-100.6011	-147.943	-6.8655	-0.5034	-1.2765	-3.2287	1.7216	3.4825	12.037	25.5917	-78.9046	3.3617	0.024	0.1741	-0.2942	10.0066	1.3916	-0.0958	4.9072	10.962	-6.7272	-0.6981	-0.3452	0.7746
-26.3252	7.3	12.6003	-77.0058	-144.2331	16.1689	-0.8414	-1.0959	-3.3427	1.2419	3.6644	13.961	46.6291	-63.4107	6.6492	0.024	0.1561	-0.2942	10.4027	1.448	-0.1457	6.6284	10.2675	-7.1223	-0.7133	-0.2887	0.7406
-29.1837	11.2143	7.8313	-89.1487	-102.8183	35.7946	-1.1402	-0.8377	-3.3515	2.5791	2.6176	11.8739	41.95	-74.8098	16.3325	0.018	0.1561	-0.3002	11.0312	1.4474	0.0947	11.3954	9.75	-9.2664	-0.7143	-0.3647	0.7737
-27.6747	16.5737	8.4327	-95.5929	-31.6208	33.9133	-1.3998	-0.6567	-3.3607	1.8566	3.7747	13.1535	41.6951	-86.5899	26.73	0.006	0.1561	-0.2882	11.0902	1.3336	0.2101	15.0015	10.2612	-10.9682	-0.6806	-0.2678	0.7951
-24.3148	20.4415	11.4786	-83.5573	42.547	19.5325	-1.5124	-0.5192	-3.346	2.2596	3.9471	13.2791	43.5072	-98.2527	37.5146	0.024	0.1561	-0.2762	11.9934	1.048	-0.0596	15.9625	10.9475	-10.0081	-0.7126	-0.2873	0.8117
-20.0444	20.2212	14.7084	-26.0072	92.7444	0.3702	-1.6507	-0.3272	-3.4144	2.0471	3.8364	14.1529	47.833	-112.944	45.875	0.018	0.1561	-0.2762	11.7213	0.8213	0.5646	12.7522	11.3235	-8.6184	-0.6974	-0.3069	0.7758
-21.5105	15.332	23.1494	109.9487	62.8452	-0.7245	-1.6927	-0.2324	-3.4471	3.2699	2.6307	15.1079	57.4379	-128.5034	48.37	0.012	0.1621	-0.2882	11.7162	0.7642	0.2784	8.2459	11.2094	-7.0095	-0.7292	-0.326	0.8101
-30.4168	13.7104	22.9549	253.7484	99.3357	-12.0408	-1.7241	-0.2668	-3.4	3.5628	1.4235	15.3423	70.7467	-144.6014	45.5601	0.012	0.1501	-0.2762	11.1338	0.9918	-0.5331	3.5795	11.1892	-5.5795	-0.7295	-0.3267	0.7746
1.2919	-16.3707	-5.4716	267.5178	46.013	46.8461	-1.6468	-0.4216	-3.4174	4.8975	0.5047	16.1836	77.1999	-165.3987	40.6978	0.012	0.1441	-0.2762	11.4272	0.8212	-0.013	1.303	10.0539	-4.9366	-0.7292	-0.3075	0.7752
8.7214	-9.0186	26.4958	331.7719	103.0592	20.0904	-1.6117	-0.5011	-3.4847	5.1145	-0.1179	18.5273	82.4828	-189.1229	31.926	0.018	0.1561	-0.2702	12.5522	2.1843	-0.4489	0.2758	6.7774	-7.8206	-0.7296	-0.3082	0.7396
9.1782	-0.2726	22.3666	269.4523	156.3381	-17.9514	-1.6096	-0.5772	-3.5039	4.1918	0.126	21.2629	88.5975	-218.3719	23.7049	0.042	0.1441	-0.2462	14.4629	3.148	-1.3857	1.7523	-2.5932	-12.3647	-0.7145	-0.3651	0.7559
3.6586	5.9363	7.0152	191.2397	175.7016	-65.9404	-1.5636	-0.7664	-3.4742	5.0996	-1.7628	23.6727	98.0465	-250.1589	8.6881	0.024	0.1441	-0.2462	14.1963	2.8078	-0.4754	-6.0909	-11.3795	-6.6076	-0.7615	-0.3462	0.7911
-0.8477	11.0513	4.362	118.5629	173.1434	-73.4486	-1.4705	-0.8654	-3.4887	5.0207	-4.6885	25.2975	102.2899	-288.3658	-15.1394	0.012	0.1381	-0.2462	12.673	1.3883	-0.1041	-9.9521	-13.9836	3.1358	-0.7448	-0.2887	0.7755
-0.873	4.3721	15.8276	75.2655	136.9537	-51.4859	-1.3829	-0.9095	-3.5518	4.1689	-5.9375	28.6133	102.8574	-327.9871	-43.5125	0.012	0.1321	-0.2281	11.9786	2.0142	-0.8029	-8.8141	-20.9422	4.521	-0.7295	-0.3267	0.7746
-6.3713	-4.0022	14.0265	51.8782	82.6035	-8.3317	-1.3089	-0.931	-3.5315	2.6434	-8.2312	29.5105	103.105	-365.0455	-78.3163	0	0.1321	-0.1981	13.2271	1.2164	-0.8378	-8.5294	-26.7987	1.2085	-0.7297	-0.3271	0.7568
-5.5242	-5.0143	10.902	54.0995	50.1511	-19.2125	-1.3063	-0.9681	-3.5159	0.7046	-7.8231	30.0021	109.469	-390.0033	-122.6525	0	0.1081	-0.1801	12.2757	1.3319	-0.1114	-7.8886	-24.863	-4.357	-0.7463	-0.3842	0.7902
-5.2977	3.7829	7.3518	86.1378	22.6543	-13.5683	-1.3027	-1.0047	-3.4836	5.4536	0.669	27.4967	139.3084	-385.0774	-160.8165	-0.012	0.0841	-0.1741	10.2415	1.7329	0.3665	-12.9761	-25.3025	-5.5296	-0.7128	-0.2877	0.7939
0.8139	0.6618	9.0744	73.567	5.5472	-27.6517	-1.2107	-1.0269	-3.4622	9.4292	7.0844	23.2689	176.0659	-357.7911	-152.4419	-0.012	0.06	-0.1501	9.1102	2.0757	0.5748	-12.4822	-23.9593	-3.6899	-0.7133	-0.3072	0.7755
-1.8263	0.2517	9.4417	60.9235	12.6218	-19.2819	-1.2078	-1.1219	-3.4819	5.0778	0.7061	22.7465	212.8909	-340.9267	-136.8188	-0.012	0.042	-0.1141	9.4462	2.3594	0.3524	-11.2738	-23.5213	-8.7928	-0.7282	-0.2685	0.812
-1.0572	0.7263	8.7488	55.0184	11.5892	-6.5902	-1.207	-1.0635	-3.4298	7.1835	-1.345	27.9308	244.1695	-326.7278	-148.2042	-0.024	0.03	-0.1081	10.6382	3.0404	0.432	-11.2459	-27.8759	-6.4624	-0.6962	-0.2675	0.8304
-0.6817	0.1911	9.521	50.0887	4.292	-11.5457	-1.24	-1.1374	-3.4343	0.2521	-4.6667	15.3682	319.8477	-344.7367	-128.8541	-0.018	0.012	-0.0841	11.0354	2.2437	0.3815	-6.6988	-29.0434	-3.5656	-0.6975	-0.3257	0.793
-1.0428	0.1916	9.5146	46.6419	2.0678	-6.9068	-1.2201	-1.1565	-3.4171	-3.9682	-11.5693	0.4407	239.0634	-286.4409	-109.9914	-0.012	-0.006	-0.072	11.6494	2.1288	-0.1795	-4.671	-28.7932	-6.1748	-0.6816	-0.3253	0.7933
-0.5677	1.0117	9.2208	33.6449	3.5068	-2.7144	-1.199	-1.2328	-3.4184	-7.2584	-8.8654	-0.6643	156.3721	-197.3254	-84.2649	-0.006	-0.012	-0.06	11.4326	1.4471	0.3309	-0.99	-25.2237	-4.6892	-0.6979	-0.3449	0.7924
-1.1677	1.1861	9.3248	19.067	4.7299	-1.613	-1.2196	-1.1949	-3.435	-5.6992	-8.1849	-15.1536	44.0517	-99.0633	-123.4463	-0.006	-0.036	-0.048	11.491	1.8452	0.4467	0.6338	-19.775	-4.7864	-0.6976	-0.3072	0.758
-0.7511	0.7806	9.0454	12.6882	4.9666	-0.5744	-1.2358	-1.2124	-3.4199	0.1805	-3.9186	2.4875	-67.7869	26.7432	-125.9651	-0.018	-0.048	-0.066	10.244	1.4486	0.4807	1.3954	-13.4594	-3.7753	-0.7297	-0.3455	0.7917
-0.621	0.5988	9.5753	5.7112	5.2636	-0.6956	-1.2005	-1.1951	-3.4172	-7.8155	-4.5186	6.6644	-89.0617	105.9778	-126.7724	-0.024	-0.072	-0.054	11.0413	2.5852	0.7251	2.6405	-7.7137	0.9348	-0.7297	-0.3271	0.7568
-0.6738	0.6521	9.9823	1.6627	7.0561	-0.7905	-1.2543	-1.2505	-3.4556	-13.1975	-4.7523	3.6905	-88.9543	188.685	-99.3759	-0.024	-0.072	-0.048	10.4741	1.4485	0.6566	6.828	0.6231	5.3624	-0.7128	-0.2877	0.7939
0.1137	0.0061	10.2377	0.5926	9.0268	0.0961	-1.1817	-1.2148	-3.4168	-10.2561	-4.509	7.8472	-88.6043	214.1405	-75.2005	-0.024	-0.0781	-0.072	10.3115	2.0178	1.1118	4.2765	7.075	5.4289	-0.6813	-0.3062	0.7939
-0.9124	0.5926	10.0956	2.7875	11.1575	-0.1313	-1.1995	-1.1945	-3.4004	-5.1103	-2.6926	4.4994	-69.7669	188.4607	-46.0032	-0.018	-0.1141	-0.0961	9.9626	1.2216	0.5898	4.8437	11.1417	8.3943	-0.6814	-0.325	0.8111
-0.6199	0.5981	9.6337	0.9552	11.3893	-1.4257	-1.1647	-1.2161	-3.4325	-4.9085	-2.757	3.0391	-75.4734	161.7777	-24.1805	-0.054	-0.1261	-0.1021	9.685	1.2222	0.928	3.7862	13.492	10.0732	-0.6974	-0.3253	0.8108
-1.6371	0.1289	9.9135	-1.7161	11.54	-0.1587	-1.1819	-1.2342	-3.4341	-5.3903	-2.5891	1.8009	-78.4646	169.2467	0.6206	-0.048	-0.1381	-0.1201	9.4107	1.1661	1.4378	5.9364	14.0814	11.427	-0.6647	-0.2675	0.7955
-1.5195	0.5971	9.793	-3.8045	12.0982	0.0949	-1.1647	-1.2161	-3.4325	-4.7009	-2.4172	1.932	-82.6604	182.3142	20.6037	-0.0781	-0.1381	-0.1501	9.516	1.0519	0.982	6.7698	13.5502	12.3811	-0.7291	-0.2887	0.758
-0.4967	0.0712	9.7592	-4.7336	13.1841	1.0835	-1.1835	-1.1965	-3.4329	-4.5793	-2.6459	2.2847	-98.2893	203.1585	38.6115	-0.0781	-0.1321	-0.1741	9.1261	0.9958	1.3752	7.7409	12.6469	13.8197	-0.7124	-0.2685	0.7945
-1.1509	0.5331	10.2089	-2.4634	14.6946	3.0868	-1.1663	-1.1784	-3.4313	-3.6456	-3.564	3.1183	-113.4419	221.9596	52.6036	-0.066	-0.1441	-0.2041	8.6565	0.9957	0.5084	8.617	11.9884	15.1709	-0.7278	-0.2493	0.8126
-1.3366	0.4203	9.9152	-2.2532	14.9937	4.9666	-1.1114	-1.1996	-3.4288	-2.3026	-4.1932	4.4295	-126.5048	230.4042	60.898	-0.0781	-0.1561	-0.2281	8.4925	0.9393	0.8486	8.722	11.3282	16.6373	-0.6962	-0.249	0.7954
-1.1576	0.7709	9.8555	-1.7154	15.2091	5.8257	-1.1273	-1.1977	-3.3963	-1.3751	-4.0196	5.0337	-141.0805	232.8505	64.1043	-0.066	-0.1621	-0.2702	7.9196	1.1104	0.5522	8.9618	11.5004	17.369	-0.6801	-0.2298	0.7786
-0.9797	0.4227	9.6879	-0.8026	14.486	5.6447	-1.1804	-1.1947	-3.3826	-1.2502	-3.6146	5.6235	-155.612	231.9871	63.7337	-0.0781	-0.1561	-0.3062	7.3498	1.2247	0.4274	8.8084	12.5375	19.3483	-0.6952	-0.1915	0.7973
-1.4001	0.5393	9.7374	0.0179	13.2389	6.3147	-1.1085	-1.2173	-3.3958	-0.4871	-3.3239	6.635	-168.9543	230.0153	62.5329	-0.06	-0.1681	-0.3542	7.6903	1.2243	0.4336	8.6558	14.1373	20.2874	-0.7434	-0.212	0.7779
-1.3317	-0.1079	10.1554	2.1399	13.651	7.7117	-1.0724	-1.2189	-3.3938	-0.2407	-2.4572	7.6391	-177.6658	230.4046	60.8605	-0.054	-0.1621	-0.4143	6.894	0.9977	0.3044	7.8872	15.567	20.3526	-0.68	-0.2295	0.7964
-1.7003	0.0144	9.7388	5.4384	14.1046	9.3101	-1.0939	-1.1621	-3.4098	-0.2829	-2.281	8.4589	-182.1264	233.3929	58.1333	-0.048	-0.1561	-0.4623	7.005	1.3387	0.1923	7.1775	16.3422	19.3661	-0.7432	-0.2301	0.8306
-1.396	0.5947	9.9703	9.7025	15.2413	10.6037	-1.1129	-1.1619	-3.4276	0.4243	-1.5296	9.5885	-182.271	237.1198	53.6553	-0.036	-0.1561	-0.5103	6.4301	1.396	-0.2187	7.7996	16.1116	18.4546	-0.695	-0.1727	0.7801
-1.5218	0.7153	9.6747	14.2431	16.1353	12.1345	-1.0902	-1.1986	-3.3775	0.8981	-2.2171	10.3558	-182.6771	239.6258	47.8337	-0.012	-0.1381	-0.5524	6.0928	1.2828	-0.0534	8.16	14.638	17.203	-0.7113	-0.2106	0.8141
-1.4632	0.3665	9.5634	18.1842	16.2289	13.717	-1.0557	-1.1625	-3.3742	1.611	-1.5794	11.7777	-183.2336	236.1645	41.9566	0.036	-0.0961	-0.6124	6.214	0.9986	0.3491	7.8263	13.2311	15.5425	-0.726	-0.1346	0.7985
-1.7649	0.8921	9.5515	21.8604	16.8064	15.7747	-1.0925	-1.2193	-3.4284	1.5594	-1.0027	12.1307	-185.6976	227.2243	37.2912	0.0781	-0.06	-0.6604	6.4429	1.169	0.4679	8.8852	11.047	12.8816	-0.7116	-0.2113	0.7786
-1.3999	0.3642	9.7396	24.081	16.9094	18.2094	-1.0755	-1.2207	-3.4441	1.704	-0.5355	13.7752	-189.1215	218.1485	35.6751	0.1201	0	-0.6664	6.8435	0.9412	0.6467	9.6709	8.8139	9.3989	-0.7429	-0.1925	0.7963
-1.0987	0.9467	9.796	24.8898	17.3765	18.0248	-1.0717	-1.2378	-3.3944	1.5631	0.0474	15.4733	-189.4596	211.6673	33.8102	0.1501	0.042	-0.7025	6.9609	1.1687	0.8779	10.1848	6.6833	5.1261	-0.7106	-0.1723	0.8153
-1.2872	1.3606	9.3789	20.8356	16.6446	15.5073	-1.0544	-1.2197	-3.3927	2.4979	0.4528	16.4886	-186.7108	206.3291	31.7974	0.2221	0.0961	-0.6844	7.5254	1.111	0.7166	11.7138	4.2371	1.65	-0.7263	-0.1538	0.7979
-1.0469	1.6521	9.3795	20.0878	15.5895	10.7269	-0.9804	-1.2412	-3.3724	2.6398	0.5741	17.9558	-187.9878	202.1615	30.4775	0.2582	0.1561	-0.6664	8.1408	0.7117	0.2127	12.7899	2.4413	-0.486	-0.7261	-0.1719	0.8506
-1.224	0.7171	9.5048	23.0647	15.3948	6.3182	-0.9825	-1.2424	-3.406	2.9003	0.2359	19.5989	-193.6127	198.6745	30.6543	0.3062	0.2161	-0.6304	8.3261	1.224	1.0747	13.0538	0.7545	-3.8568	-0.7106	-0.1723	0.8153
-1.3416	1.0068	9.6742	27.77	15.851	3.6857	-1.0201	-1.203	-3.4069	3.861	0.9351	22.0214	-197.3898	192.9026	32.3704	0.3302	0.2762	-0.5824	8.488	1.2235	0.6199	13.0392	-0.5812	-6.2332	-0.7092	-0.0956	0.8178
-1.3384	0.9463	9.8502	29.8943	18.4768	1.8707	-1.0152	-1.2195	-3.3404	5.1514	1.5153	23.6885	-196.6958	183.648	36.8471	0.3662	0.3362	-0.5103	8.3734	1.2804	0.5607	13.6622	-1.7873	-7.0297	-0.7104	-0.1719	0.8331
-1.4615	0.6568	9.6765	30.7475	22.2781	0.6815	-0.9977	-1.2592	-3.3741	6.7829	2.9574	25.3074	-193.0627	170.9688	45.3839	0.3843	0.3903	-0.4443	8.3746	1.1667	0.6178	15.2653	-2.8037	-6.1946	-0.7095	-0.1517	0.8871
-1.6265	0.8211	10.5471	30.114	28.562	1.0718	-0.9425	-1.261	-3.3542	9.3008	4.1606	25.3027	-186.3107	160.0693	55.7055	0.3782	0.4203	-0.3542	8.027	0.9962	0.2108	15.7052	-3.4755	-3.9085	-0.7256	-0.1339	0.834
-2.2321	0.5331	10.3066	28.5409	37.0914	2.5683	-0.9428	-1.2805	-3.3715	11.9624	5.7022	23.8383	-179.654	158.6068	63.7896	0.3722	0.4623	-0.2762	8.1425	1.053	0.3274	15.5303	-4.241	-1.4511	-0.6943	-0.1713	0.8512
-2.054	0.7677	10.1901	26.6629	45.462	4.6802	-0.9221	-1.3185	-3.3549	12.704	8.9661	20.9395	-187.8073	153.399	71.0918	0.3482	0.4743	-0.2041	8.3038	0.6544	-0.1849	14.4799	-4.7735	1.741	-0.7094	-0.1144	0.835
-2.599	0.8874	10.0039	21.9411	55.1138	7.5014	-0.9041	-1.3193	-3.3539	15.646	10.2181	19.1278	-186.6595	154.7771	88.0448	0.3182	0.4983	-0.1321	8.5986	0.1995	0.3923	10.244	-5.0681	1.0665	-0.6937	-0.1144	0.8175
-1.5148	1.0019	10.0799	17.4585	65.1399	9.0054	-0.885	-1.3195	-3.3361	19.2596	9.1063	16.2643	-168.4451	163.1263	91.4539	0.3302	0.5103	-0.1021	9.1672	0.9951	0.5178	3.7498	-5.701	-1.4791	-0.6931	-0.1319	0.9058
-2.0429	1.9262	10.8762	20.2228	73.9348	8.4234	-0.8145	-1.2849	-3.3308	24.9071	8.0858	8.8729	-162.6283	175.7661	65.2471	0.3062	0.4863	-0.054	10.0086	2.3017	0.0766	-7.7574	-6.3976	-3.8137	-0.7248	-0.1137	0.888
-1.9779	2.2726	11.1648	17.4398	87.1927	7.8849	-0.8309	-1.3218	-3.333	31.1988	15.8568	0.011	-213.2272	159.6851	60.5994	0.2642	0.5043	-0.036	10.6847	2.0731	-0.1972	-17.4957	-6.5741	-2.0795	-0.7256	-0.1339	0.834
-1.0334	2.6507	13.5116	21.696	91.0998	4.1334	-0.7379	-1.3435	-3.2949	33.2744	23.1768	4.4759	-236.7313	77.303	76.9966	0.2642	0.5043	0.012	11.0119	2.7546	-0.8772	-31.893	-6.3209	-4.8425	-0.6772	-0.1131	0.8712
0.4914	4.1507	14.7453	50.0359	72.9108	-9.6875	-0.6864	-1.3087	-3.3073	31.2452	24.2373	9.3605	-175.1535	1.1476	75.6743	0.2522	0.4983	0.042	11.1218	2.2993	-1.1044	-35.9248	-8.0398	-3.8137	-0.6931	-0.1134	0.8708
-1.6129	4.077	11.4989	41.7513	81.1151	-25.9512	-0.6681	-1.3673	-3.3416	29.495	19.9008	16.3928	-84.3688	-37.8245	45.0668	0.2582	0.5043	0.0781	10.9565	0.8211	-0.937	-31.6028	-7.2489	4.7286	-0.7085	-0.0757	0.854
-0.793	4.4581	13.6099	39.1925	93.005	-41.0382	-0.6221	-1.4019	-3.2066	25.928	12.8977	17.9322	19.9655	-54.6937	-7.3509	0.2762	0.5163	0.1261	10.7256	-0.3162	-1.2282	-29.0561	-5.0288	2.7036	-0.7087	-0.0761	0.8362
-1.4354	3.2793	14.6057	48.7292	106.7968	-51.5304	-0.549	-1.4045	-3.1857	18.8013	12.373	13.5181	114.6023	-67.9063	-48.4163	0.2642	0.5163	0.1441	10.5068	-0.2019	-0.7745	-15.6656	-3.8468	-1.2521	-0.6452	-0.112	0.8896
-2.0746	1.2819	15.7285	56.3408	128.6767	-52.2891	-0.458	-1.4273	-3.1811	15.0509	8.3322	8.626	167.2742	-66.5696	-68.7332	0.2702	0.5163	0.1261	11.1538	-0.8841	0.4384	-1.0763	-4.6377	-1.3262	-0.7239	-0.075	0.907
-3.2776	0.6999	15.7147	63.5068	150.1913	-47.9141	-0.3969	-1.445	-3.0779	20.0008	23.7147	29.6373	198.2686	3.8914	-84.3255	0.2582	0.5163	0.1201	12.3127	-0.7139	1.7757	12.9452	-7.9834	-1.5266	-0.6765	-0.0747	0.8724
-3.0074	0.0961	17.303	65.3426	172.861	-41.1713	-0.3917	-1.442	-2.9941	-3.8644	-16.2594	-6.664	403.2393	-23.5691	-110.0907	0.2522	0.5343	0.1201	13.1416	0.1396	3.7368	25.5222	-10.6795	-2.4468	-0.709	-0.1137	0.8705
-3.0417	0.4864	18.7568	68.0461	194.8116	-35.9619	-0.2793	-1.5217	-2.9735	-5.0597	-7.4493	34.1678	277.4931	-161.4897	-27.7376	0.2342	0.5343	0.066	13.8093	1.2782	6.2102	26.4283	-8.9169	-4.3957	-0.7241	-0.0938	0.9241
-2.4388	2.0759	22.2498	71.9338	219.4724	-33.9684	-0.2049	-1.4269	-2.8657	-8.8105	4.6533	12.484	219.3165	-264.1074	54.2207	0.2281	0.5464	0.036	14.8632	1.617	4.9139	14.8954	0.1532	-4.3776	-0.6611	-0.1124	0.8892
-0.993	1.9732	25.662	84.96	250.7312	-33.9147	-0.1642	-1.4645	-2.8145	5.5342	13.1662	5.537	147.8374	-249.5163	94.3287	0.2522	0.5343	0.018	14.0851	2.185	2.726	19.1935	14.3373	4.1189	-0.6764	-0.0744	0.8902
-1.4358	-3.9421	27.4211	92.0511	286.3046	-23.5745	-0.0657	-1.4637	-2.6752	1.8042	8.6495	23.0123	104.3058	-201.9685	66.2056	0.2582	0.5644	0	12.7122	2.923	-0.9603	8.0929	27.9559	9.722	-0.6915	-0.0733	0.9609
-1.0774	-7.2475	30.3874	87.512	327.3892	2.7776	0.0126	-1.4632	-2.5704	17.372	-1.906	9.2684	46.958	-57.4874	17.798	0.2702	0.5704	0	12.8473	3.5469	-2.8454	-3.0285	39.1904	11.8038	-0.677	-0.1312	0.9239
2.7249	-8.7592	34.2673	89.8714	371.8716	33.5456	0.1461	-1.3873	-2.3931	14.527	3.4406	7.7154	104.6414	-8.6582	-31.5663	0.2642	0.5464	-0.012	13.0444	4.5716	-1.2962	-9.3389	42.5405	13.863	-0.7094	-0.1329	0.8699
8.0879	-11.0864	37.893	114.6283	405.8217	60.7284	0.259	-1.428	-2.3378	-4.9746	3.0792	9.2128	76.4016	1.384	-5.1274	0.2642	0.5704	-0.006	12.5419	2.0702	-1.0213	-11.0423	46.7517	19.5705	-0.6926	-0.1123	0.9242
10.6853	-7.2064	35.38	160.9701	395.7604	88.96	0.2118	-1.3637	-2.1882	2.167	0.0266	11.0344	63.1875	-4.2533	17.939	0.2822	0.5464	-0.03	8.8949	0.5384	-2.0049	-20.1397	44.4756	-0.0865	-0.7077	-0.0555	0.9079
-5.728	3.6983	23.4558	200.2548	346.4352	130.3282	0.3272	-1.3642	-2.0646	2.2646	2.3102	7.2989	55.0213	-3.9616	-4.417	0.2762	0.5644	-0.018	7.2059	2.1904	-1.1765	-7.5669	34.6691	-10.528	-0.6764	-0.0744	0.8902
-9.038	4.2689	20.1217	238.6927	326.6343	121.727	0.244	-1.3756	-1.9697	1.6751	0.9976	9.3312	39.059	-0.583	-9.1371	0.2822	0.5824	-0.018	7.86	2.589	0.4951	2.4224	26.106	-18.4549	-0.6763	-0.0928	0.9251
-16.6662	-0.6543	27.1707	358.9299	308.581	117.0883	0.2374	-1.3682	-1.7862	3.2511	0.0812	10.8213	41.7247	7.7539	-0.2603	0.2762	0.5644	-0.042	10.0366	2.4166	1.6219	10.2868	23.3348	-18.405	-0.676	-0.0737	0.9257
-1.5436	-2.5764	11.5835	457.6547	321.719	88.763	0.1745	-1.437	-1.6921	1.5536	1.8016	9.0397	45.744	6.2127	-7.3423	0.2762	0.5704	-0.048	12.82	2.1289	1.7873	12.3321	20.8108	-10.0664	-0.6921	-0.0559	0.8727
4.6931	-17.9708	-3.8158	294.4274	236.6029	53.7198	0.2374	-1.3957	-1.5201	2.0888	1.3451	10.0434	25.9014	4.8935	-4.3603	0.2702	0.5704	-0.048	13.3796	1.7867	1.3396	6.9005	15.4521	-7.8265	-0.6761	-0.0925	0.9429
15.6292	-18.4481	-17.9186	87.6761	149.3298	102.9512	0.2062	-1.4106	-1.4556	1.6223	1.5741	9.6256	21.7447	0.4977	-3.6337	0.2822	0.5824	-0.06	12.5161	1.5028	0.6369	0.7444	10.324	-11.0635	-0.6758	-0.0548	0.9085
15.2801	-17.8394	-10.5776	-64.4792	48.8138	101.7578	0.1158	-1.3488	-1.4255	1.8416	1.5714	9.1028	7.5795	-3.3575	-3.5583	0.2822	0.5764	-0.054	10.6346	1.7322	0.1448	-6.7893	6.1058	-9.7963	-0.6917	-0.0736	0.9432
0.9225	-0.6962	14.9888	-114.8901	-0.7945	126.1947	0.1178	-1.3476	-1.392	1.6261	1.2873	9.8	0.4056	-4.872	-2.2473	0.2762	0.5704	-0.048	10.5142	1.4477	-0.2581	-8.9886	2.2974	-7.3948	-0.7407	-0.1141	0.8876
13.8645	-4.6715	5.1094	-98.1768	-121.1897	98.2789	0.0026	-1.2502	-1.4455	1.2727	1.113	9.2654	-2.935	-6.3979	0.2397	0.2702	0.5524	-0.042	10.7296	1.5038	-0.8834	-13.1797	-2.8476	-5.1595	-0.6924	-0.0935	0.907
12.7054	-3.3181	4.3132	-60.9875	-172.379	64.4413	-0.1067	-1.1688	-1.4158	2.2536	1.5733	9.6963	-7.9967	-6.862	2.4232	0.2822	0.5704	-0.054	10.5598	1.1628	-0.8868	-12.4705	-8.9107	-4.7069	-0.7555	-0.0753	0.9241
6.6479	-3.4414	5.3758	-37.3681	-171.8591	42.4128	-0.1621	-1.1865	-1.4531	2.1527	0.6561	10.3343	-6.6055	-7.51	1.0668	0.2702	0.5464	-0.054	10.276	1.1632	-0.892	-12.8058	-12.6777	-5.1879	-0.7397	-0.0565	0.8895
6.3532	-3.4037	2.3932	-50.8138	-170.9758	19.812	-0.2544	-1.1064	-1.4391	2.8836	0.4215	9.586	-1.257	-7.6346	-1.5451	0.2762	0.5704	-0.06	10.2886	1.1068	-0.2053	-11.8987	-13.8862	-5.8086	-0.6609	-0.112	0.907
7.1678	-3.7935	0.8364	-65.6515	-170.2288	-2.7744	-0.3433	-1.0823	-1.4101	2.1302	1.6289	9.2257	1.0149	-7.2742	-1.8679	0.2822	0.5584	-0.042	10.0544	1.0499	-0.6101	-10.7397	-14.3637	-4.3413	-0.7078	-0.0928	0.96
6.2061	-3.9681	0.88	-83.0021	-175.2633	-23.2402	-0.456	-0.9448	-1.3954	1.7344	1.7459	9.5114	-3.6767	-7.7978	0.1602	0.2822	0.5584	-0.042	9.6656	0.937	-0.1597	-10.026	-14.4237	-2.2736	-0.6761	-0.0925	0.9429
5.9278	-3.4585	2.1529	-101.0546	-189.0294	-40.9955	-0.4728	-0.924	-1.3623	2.4922	1.2299	10.1678	-7.9544	-9.3172	1.0855	0.2642	0.5584	-0.042	9.4986	0.8236	0.0088	-8.5253	-14.2312	-0.842	-0.6761	-0.0925	0.9429
5.526	-3.0634	3.25	-110.2516	-207.2766	-55.5762	-0.5434	-0.8812	-1.315	1.9205	-0.1497	10.092	-9.614	-11.7976	-1.0718	0.2822	0.5644	-0.048	9.2198	0.1986	0.2321	-8.5001	-13.9832	0.9721	-0.6753	-0.0538	0.9619
4.5157	-3.1875	3.9342	-113.4351	-224.2988	-64.2395	-0.6331	-0.8383	-1.2854	2.2717	0.0241	10.5094	-6.6898	-14.4979	-5.2827	0.2882	0.5644	-0.054	8.654	0.4269	0.3363	-8.6597	-13.431	2.7943	-0.6452	-0.1305	0.9245
3.6223	-3.8342	4.3936	-121.1683	-236.9963	-65.9553	-0.7042	-0.7573	-1.2201	1.8568	1.0571	9.862	-1.1236	-16.0397	-7.5801	0.2882	0.5524	-0.048	8.3701	0.5978	0.3312	-9.6944	-13.7749	3.437	-0.6607	-0.1301	0.9597
2.4176	-3.8902	4.3148	-135.9303	-245.1744	-61.7953	-0.7919	-0.7131	-1.157	1.8497	1.3431	9.5118	1.3271	-13.3106	-6.1358	0.2702	0.5464	-0.048	7.5678	0.9397	-0.0838	-10.5074	-14.2735	4.2563	-0.6133	-0.1483	0.9601
1.5908	-3.0838	5.2241	-153.2162	-248.8952	-54.9853	-0.8288	-0.6154	-1.1058	1.8502	1.0556	9.5105	3.9138	-12.5257	-4.4348	0.2702	0.5584	-0.042	7.6263	1.2241	0.032	-9.596	-15.6204	4.8021	-0.6282	-0.0911	0.9616
0.9555	-2.5183	6.7235	-167.8183	-249.6885	-47.2229	-0.9156	-0.5901	-1.0433	1.908	0.7104	9.51	3.9616	-13.0118	-3.5718	0.2762	0.5764	-0.06	7.4456	1.2238	-0.5435	-7.9926	-15.8606	4.5678	-0.6441	-0.1099	0.9962
0.5545	-1.9488	7.8767	-176.6786	-249.5117	-38.3736	-1.0205	-0.5641	-0.9818	2.4873	0.8835	9.8733	4.447	-14.6294	-5.1015	0.2822	0.5704	-0.042	7.3948	1.5085	-0.2009	-6.3795	-14.7645	4.5283	-0.6128	-0.1103	0.9435
0.5153	-1.7883	9.0415	-181.7924	-250.858	-29.2046	-1.0847	-0.4984	-0.8164	2.1389	0.9981	9.6329	7.3229	-15.6374	-6.8946	0.2882	0.5644	-0.048	6.5391	1.6231	-0.4454	-5.8786	-12.9689	4.5277	-0.6131	-0.1479	0.9779
0.2298	-1.5071	9.9085	-186.0429	-255.4149	-18.117	-1.1354	-0.4747	-0.7519	2.2044	0.7122	10.0428	10.6283	-15.5077	-9.8339	0.2702	0.5584	-0.054	6.4261	1.2252	-0.4478	-4.8937	-10.2536	4.059	-0.6589	-0.0339	0.9806
-0.0459	-1.4075	11.3033	-189.8069	-261.9828	-7.5403	-1.1873	-0.3744	-0.6514	2.429	0.8258	9.8134	13.9295	-16.17	-11.5087	0.2702	0.5644	-0.042	6.4876	0.7703	-0.2182	-4.609	-9.1753	3.1373	-0.6442	-0.073	0.9263
-0.0877	-0.8954	12.3468	-193.3423	-268.9719	1.9479	-1.1272	-0.3153	-0.5123	2.4857	1.1708	9.816	15.7978	-17.557	-13.0478	0.2822	0.5824	-0.054	6.7737	1.3957	-0.0408	-4.6845	-8.1023	2.595	-0.6286	-0.1103	0.961
-0.7772	-0.9171	14.1445	-197.6625	-272.6203	7.9817	-1.1376	-0.2714	-0.3612	2.3668	1.8029	9.6409	17.3641	-18.7485	-13.2035	0.2702	0.5464	-0.048	6.8369	1.2821	0.3036	-5.1026	-6.4654	0.9306	-0.6123	-0.1092	0.9969
-0.2164	-0.1731	15.2541	-202.4473	-268.3366	10.3181	-1.1625	-0.2827	-0.1962	1.9655	1.9186	9.6337	15.8841	-19.6772	-11.7144	0.2702	0.5464	-0.048	7.4144	0.77	0.8287	-5.0434	-4.2714	-1.3889	-0.5971	-0.1103	0.9261
-0.616	0.1623	16.4686	-209.0044	-258.2724	8.4042	-1.0847	-0.244	-0.0735	2.3152	1.6892	9.9322	14.3954	-20.5221	-11.1475	0.2882	0.5644	-0.036	8.1426	0.9962	0.3273	-5.1496	-1.5993	-3.0852	-0.5961	-0.0897	0.9978
-1.2521	0.5534	17.9118	-216.8016	-244.6429	6.337	-1.095	-0.2001	0.0776	1.629	1.5181	9.9768	13.4178	-20.584	-10.0967	0.2822	0.5644	-0.048	8.1332	0.9389	-0.1878	-4.9337	1.5098	-3.4048	-0.5962	-0.0901	0.98
-2.3034	1.1157	19.6958	-224.8251	-228.6061	5.4013	-0.9922	-0.2547	0.2488	1.575	0.8861	10.09	13.2015	-20.015	-8.5624	0.2702	0.5704	-0.06	8.5858	1.2795	-0.2364	-5.5975	4.3359	-3.0858	-0.6127	-0.1099	0.9613
-3.5404	1.5069	21.1868	-228.8351	-213.5141	5.748	-0.838	-0.2941	0.39	3.3372	0.6497	9.3616	16.1583	-19.1946	-6.7716	0.2702	0.5524	-0.054	8.4794	0.5975	0.1044	-6.1381	6.6747	-2.7436	-0.6277	-0.0901	1.0149
-4.955	1.3132	22.7988	-226.4073	-202.5371	10.8145	-0.7414	-0.3523	0.4605	2.769	1.7449	9.7069	18.067	-18.8931	-6.3852	0.2822	0.5584	-0.06	8.3628	0.5406	-0.0695	-7.4086	8.4121	-2.9068	-0.5803	-0.1082	1.0153
-6.921	2.8179	23.9712	-225.8254	-190.6412	18.0462	-0.5375	-0.4158	0.5204	3.1221	1.4589	10.1809	17.5942	-21.6596	-7.38	0.2642	0.5644	-0.054	8.1735	0.7675	-1.1026	-7.9674	8.8088	-2.9791	-0.6128	-0.1472	1.0134
-9.1312	3.8005	24.9124	-227.7767	-177.8478	23.853	-0.372	-0.4985	0.5274	3.2861	0.8814	9.713	22.4285	-27.4333	-8.388	0.2642	0.5404	-0.06	8.2448	0.8249	-0.3003	-7.829	8.9545	-2.5211	-0.5808	-0.1093	0.962
-11.408	6.362	25.5991	-229.2238	-167.6928	25.9673	-0.229	-0.6022	0.4488	2.7215	1.172	10.1719	19.2648	-35.6081	-9.3655	0.2642	0.5524	-0.06	8.5215	0.6537	-0.6958	-6.7819	9.0039	-1.7224	-0.6282	-0.1096	0.9965
-13.4673	9.6389	25.0549	-219.8053	-162.5792	17.8408	-0.1058	-0.6869	0.3531	3.1276	0.7698	10.4121	12.8001	-45.9327	-8.4365	0.2882	0.5464	-0.0781	8.0645	0.4835	-0.876	-5.2528	9.3325	-3.4249	-0.5812	-0.1284	0.9613
-15.2498	12.0576	23.1253	-194.9226	-158.4041	1.4729	-0.0161	-0.7298	0.3235	2.503	1.3475	10.7541	4.8338	-56.8969	-8.0786	0.2822	0.5404	-0.054	8.9759	1.165	-0.6298	-3.1085	9.6167	-6.2831	-0.5976	-0.1668	0.9776
-17.7145	12.1587	19.9287	-154.6647	-154.5675	-20.8155	0.0662	-0.7963	0.1592	0.9996	2.3384	13.1305	4.025	-68.5054	-5.1163	0.2762	0.5584	-0.048	9.5992	1.1073	-0.6757	1.13	9.6935	-9.5436	-0.5971	-0.1288	0.961
-22.8244	10.8619	16.7615	-110.7521	-152.9407	-32.9259	0.1847	-0.845	0.0143	0.3825	4.3562	14.0062	24.5377	-63.5099	-2.7467	0.2762	0.5644	-0.042	10.1229	1.6191	0.0781	5.3896	9.2729	-12.0713	-0.5969	-0.1284	0.9788
-28.0379	11.986	11.344	-97.0048	-132.7342	-23.3727	0.1402	-0.945	-0.192	1.9452	3.4808	11.7485	38.3379	-61.1867	5.5476	0.2882	0.5404	-0.054	10.2323	1.6188	-0.1487	11.2455	8.9667	-14.0927	-0.5805	-0.1086	0.9975
-31.3677	15.369	7.0988	-108.1925	-75.2522	-14.359	0.1899	-0.9692	-0.2733	1.9097	3.6586	12.9198	32.6292	-72.7631	17.2047	0.2762	0.5464	-0.066	10.5713	2.0164	-0.1994	17.0332	9.0132	-17.3693	-0.5962	-0.0901	0.98
-31.9602	19.3866	7.8552	-113.2972	-2.3091	-9.1764	0.1445	-0.973	-0.4264	0.9937	3.8904	12.9618	32.7385	-82.9267	31.3399	0.2882	0.5464	-0.066	10.9132	1.6748	-0.1361	19.6654	9.1809	-18.4608	-0.5974	-0.148	0.9604
-28.842	30.9854	17.9795	-76.8994	22.2626	-5.4714	0.1556	-0.9585	-0.5254	1.5768	4.4097	13.5609	30.9819	-96.4747	46.1217	0.2762	0.5464	-0.066	11.8933	1.1624	0.6824	18.6706	9.9618	-15.5976	-0.5798	-0.0887	1.0337
-25.4247	23.0186	20.1241	35.6589	71.1506	3.31	0.2022	-0.9072	-0.6044	2.6939	3.1488	14.9821	37.7401	-110.7006	55.2644	0.2942	0.5283	-0.0781	11.7841	0.9921	0.9091	13.081	9.3755	-12.8845	-0.5329	-0.1079	0.9807
-28.9744	24.5885	30.1986	215.1181	100.0742	2.2689	0.2372	-0.9094	-0.6191	3.8116	1.5428	16.4017	50.7878	-129.3051	55.8211	0.3122	0.5163	-0.0841	11.8925	0.9349	0.625	8.0278	7.474	-9.737	-0.5644	-0.0894	0.9807
-0.5073	-17.2057	-8.5281	315.4249	52.9826	50.6092	0.1638	-0.9263	-0.6573	4.6223	0.3352	16.7631	67.6791	-150.2693	48.1014	0.3122	0.5404	-0.1021	11.8351	0.6506	0.5665	4.7249	4.8471	-9.0754	-0.6288	-0.1106	0.9432
4.9844	-8.7432	32.7891	346.9948	119.1954	23.6632	0.2553	-0.9102	-0.618	5.2246	0.5713	18.3568	75.5185	-175.1067	39.7819	0.3182	0.5163	-0.1141	13.2364	2.1836	-0.2647	6.8368	-1.467	-12.3849	-0.5808	-0.1462	1.0318
12.9992	0.6933	24.1143	270.5161	185.4585	-35.7237	0.2027	-0.9456	-0.6223	4.3473	0.7547	20.4489	83.0282	-203.2268	31.5764	0.3122	0.4983	-0.1081	14.7059	2.0678	-0.5811	12.9763	-9.8979	-14.5105	-0.5813	-0.1473	0.9785
3.2804	6.0069	6.0738	162.0582	192.8627	-91.8961	0.2272	-1.0006	-0.556	4.6862	-0.9595	23.0828	97.3591	-239.7517	20.4924	0.3362	0.4923	-0.1381	13.3413	1.5007	-0.7782	9.0565	-13.3442	-7.5989	-0.5647	-0.1271	1.015
-2.6114	9.1006	6.5152	99.1989	184.6051	-99.7128	0.2983	-0.9271	-0.5159	5.4046	-2.9672	24.5514	104.2475	-273.3153	0.4925	0.3302	0.4923	-0.1321	12.3897	0.9906	-0.1096	2.5001	-9.4271	1.5706	-0.5475	-0.05	1.0178
-4.9373	4.3828	10.6778	40.9888	88.6675	-57.0855	0.2421	-0.9259	-0.5526	4.7844	-5.7119	27.8649	102.6005	-318.1962	-25.5644	0.3242	0.4743	-0.1441	12.2191	1.2183	-0.1125	1.1239	-15.2097	3.7164	-0.5493	-0.1462	0.9969
-11.9831	-1.0693	13.3074	6.2811	41.1366	-23.0825	0.2591	-0.9273	-0.5683	2.6587	-7.5372	30.3923	104.8326	-359.584	-59.0356	0.3302	0.4623	-0.1741	12.9395	1.8422	-1.0142	-4.5942	-19.8352	1.5767	-0.5649	-0.1274	0.9972
-4.9139	-1.9474	8.2476	63.701	45.3471	-9.2884	0.3138	-0.968	-0.5832	0.187	-7.9817	32.9194	116.282	-391.6975	-99.8608	0.3302	0.4383	-0.1681	12.9541	1.8428	-0.213	-7.3734	-18.2244	1.7342	-0.5651	-0.1278	0.9794
-3.3163	3.3754	7.0999	67.8608	18.2696	-3.0698	0.3151	-0.9479	-0.549	2.3853	-4.772	31.3365	148.9587	-393.3266	-140.4936	0.3122	0.4383	-0.1741	10.514	1.6183	-0.258	-12.422	-19.0943	0.8642	-0.5335	-0.1274	0.9623
1.2574	-0.8701	10.2104	74.9271	8.8387	-29.7501	0.2445	-0.9825	-0.5543	11.0509	6.5105	24.1758	173.8215	-353.8851	-152.5441	0.2822	0.4083	-0.1981	9.8444	1.6197	0.3591	-18.9719	-19.2566	-0.5389	-0.5008	-0.0881	0.982
-2.6148	0.0237	9.0805	63.7644	10.3833	-24.5943	0.263	-0.9444	-0.5186	10.4336	0.7611	24.3136	201.4764	-343.998	-128.5947	0.2822	0.3843	-0.2041	10.0126	2.4724	0.3056	-20.7387	-20.5999	-4.4915	-0.5325	-0.1257	1.0512
-0.8186	1.4855	8.6851	58.2395	11.3281	-2.4537	0.2643	-1.0016	-0.5371	12.0531	-3.7122	27.7794	224.1319	-344.7831	-134.7119	0.2702	0.3482	-0.2161	10.2811	2.9833	-0.49	-19.8077	-27.1074	-4.848	-0.55	-0.1846	0.9957
-1.3213	-1.4561	10.6394	48.0393	6.2006	-12.6165	0.2782	-0.9275	-0.5505	-2.567	-8.2183	17.4061	303.0733	-351.1874	-131.8194	0.2342	0.3542	-0.2101	9.9369	2.5854	-0.7255	-13.7141	-31.292	-3.7732	-0.5331	-0.1267	0.9979
-1.3476	0.7194	9.3275	53.5475	5.4391	-7.5662	0.2984	-1.0044	-0.5686	-5.2462	-15.6292	5.1996	205.6966	-300.5178	-129.2466	0.2161	0.2942	-0.2281	10.7392	3.0398	-0.2527	-11.1781	-32.6322	-5.8264	-0.5487	-0.1079	0.9982
-0.326	1.069	9.2827	43.0179	6.1225	0.3616	0.246	-0.943	-0.5028	-3.1902	-9.0752	5.503	118.3284	-243.0325	-139.1807	0.2221	0.3002	-0.2281	10.9671	2.3571	-0.249	-5.5678	-30.9415	-4.9052	-0.5338	-0.1651	0.9966
-0.3934	2.5318	8.9713	28.7069	5.4413	-2.4259	0.3182	-0.9461	-0.4987	-7.3772	-9.5533	-13.1425	48.2716	-181.101	-151.6684	0.1981	0.2702	-0.2221	11.3261	2.5849	0.7876	-4.0527	-26.0631	-3.4366	-0.5023	-0.1836	0.9967
0.1032	1.4711	9.7522	13.5578	6.5114	-2.5201	0.2952	-0.9288	-0.5662	-1.7316	-2.9864	4.4459	-59.2369	-55.461	-168.7981	0.1861	0.2702	-0.2221	10.7601	2.1876	0.8341	-3.0302	-18.8236	-1.0739	-0.4853	-0.1442	1.0338
-1.2785	0.3633	9.8002	10.1669	8.3989	-1.9137	0.2617	-0.9644	-0.5527	-12.2424	-3.9969	5.8204	-48.7309	53.6047	-147.3976	0.1921	0.2582	-0.1921	10.3113	2.1884	1.1119	-3.8628	-11.1733	2.3923	-0.4859	-0.1452	0.9805
-1.4671	0.8939	9.3816	12.4551	8.8824	-2.424	0.3009	-0.9642	-0.5003	-11.1746	-4.0611	4.728	-49.4803	164.8529	-132.1771	0.1621	0.2402	-0.1981	10.1356	2.359	0.8227	-1.4071	-1.908	7.8624	-0.502	-0.1459	0.9624
-1.5762	0.3615	9.9701	9.8746	9.404	-1.919	0.2816	-0.9835	-0.5355	-9.8289	-2.9636	6.3399	-40.0874	205.5182	-104.6775	0.1741	0.2342	-0.1981	9.8667	2.1324	1.6186	-3.0105	6.821	8.3181	-0.485	-0.1065	0.9995
-1.1007	0.8314	9.6807	7.5923	11.9809	-2.6956	0.2849	-0.9622	-0.4678	-5.5476	-2.758	2.5583	-46.6763	166.5827	-83.2119	0.1621	0.2281	-0.1921	9.5663	2.0752	0.6976	-3.1947	12.1555	9.9027	-0.4698	-0.163	1.0335
-0.9251	1.3594	9.4437	0.5102	13.2225	-2.549	0.3001	-0.9453	-0.4997	-7.0214	-2.9954	0.3037	-79.359	140.6225	-47.1675	0.1501	0.2101	-0.1861	9.4518	2.0184	0.6383	-5.5329	15.0288	11.1939	-0.518	-0.1651	0.9792
-0.3205	0.1322	9.528	-4.7805	14.5746	-2.5763	0.2128	-0.9591	-0.472	-6.2548	-2.1861	1.5518	-92.1867	127.0591	-12.9061	0.1741	0.2041	-0.1861	9.3447	1.9051	0.9795	-4.9817	14.8954	12.006	-0.5018	-0.164	1.0151
-1.2144	-0.1643	9.983	-5.4438	17.2723	0.566	0.3027	-0.9825	-0.4841	-6.25	-1.7822	1.8465	-99.7371	133.7296	14.0788	0.1801	0.2041	-0.1621	8.8396	1.5079	1.256	-3.9742	13.6687	12.642	-0.5019	-0.1644	0.9973
-1.2171	0.3041	9.8604	-5.0313	19.6139	3.7793	0.3048	-0.9813	-0.4506	-6.2388	-1.8946	2.4318	-106.4329	160.3616	39.2523	0.1801	0.2161	-0.1621	8.7247	1.7923	1.1969	-3.3797	12.0506	12.98	-0.5332	-0.164	1.05
-0.6179	0.655	9.7497	-7.2457	20.4048	6.3461	0.2687	-0.9797	-0.4527	-5.7111	-2.4681	3.025	-112.4025	189.2776	56.9108	0.1801	0.2101	-0.1621	8.8924	1.3939	1.028	-1.5486	10.7851	14.2056	-0.486	-0.1641	0.9976
-0.5612	0.8905	9.5727	-10.5762	20.3073	7.0009	0.2808	-0.9646	-0.5349	-4.2117	-3.0436	3.5196	-123.8681	211.8261	67.6324	0.1801	0.2161	-0.1441	8.3772	1.5649	0.7898	-1.5868	9.6462	15.0887	-0.4551	-0.1836	0.9443
-0.9125	0.7093	10.0941	-11.6708	20.9041	7.7041	0.2643	-0.9243	-0.4844	-3.0545	-3.2155	4.1267	-140.1125	222.3718	72.7675	0.1921	0.2161	-0.1321	7.86	1.679	0.4371	-0.7652	8.6939	15.7018	-0.5019	-0.1644	0.9973
-0.7982	0.4801	9.7488	-12.0594	21.9096	7.3618	0.3027	-0.9825	-0.4841	-2.1857	-3.5599	4.6103	-158.0592	224.5762	73.659	0.2041	0.1981	-0.1141	7.7501	1.2812	0.6064	0.0085	8.2836	16.72	-0.4711	-0.2212	0.9961
-1.0367	0.4206	9.8621	-11.016	23.4786	7.1982	0.2816	-0.9062	-0.4828	-1.606	-2.984	5.0339	-173.0508	223.2967	72.2793	0.2101	0.2101	-0.1141	7.2401	1.5662	0.6545	0.6719	8.9032	18.0878	-0.5016	-0.1268	0.963
-1.1028	0.0749	9.515	-9.8783	24.5557	7.9454	0.2981	-0.9465	-0.5333	-0.9483	-2.9786	6.5106	-184.8902	223.0374	70.7828	0.2161	0.1981	-0.0841	7.1289	1.339	0.7667	2.2553	9.7711	19.1228	-0.4544	-0.1637	0.9805
-1.0414	0.7154	9.6248	-8.285	24.7487	9.3442	0.2659	-0.962	-0.4856	-0.6955	-1.3049	7.9284	-190.8376	225.3727	69.2362	0.2281	0.1921	-0.066	6.8952	1.7371	0.4194	3.0819	10.7206	18.7062	-0.4861	-0.1456	0.9627
-1.6416	0.3069	9.6777	-5.6895	25.6534	10.9305	0.2659	-0.962	-0.4856	-0.2804	-1.7626	8.637	-193.4436	228.705	68.1865	0.2161	0.1621	-0.048	6.3867	1.5103	0.5243	4.297	11.388	18.8596	-0.4859	-0.1268	0.9455
-1.511	-0.2251	10.2121	-1.2328	26.6966	13.05	0.2839	-0.9628	-0.4846	-0.3193	-1.5856	9.6325	-193.706	232.0006	67.2463	0.2161	0.1561	-0.06	7.0614	1.623	0.1935	6.9117	10.8033	19.299	-0.4861	-0.1456	0.9627
-1.6379	-0.1039	9.8581	2.923	27.6103	16.1238	0.2285	-0.9805	-0.5218	0.1058	-0.8326	10.9909	-193.6741	234.6224	66.6465	0.2342	0.1501	-0.036	6.3865	0.8279	0.4666	8.4656	9.6879	18.5369	-0.5355	-0.2055	0.8888
-1.4068	0.0191	9.3353	5.1332	27.0718	18.5754	0.2659	-0.962	-0.4856	0.3651	-0.4232	12.6374	-194.8783	234.6384	66.3769	0.2221	0.1201	-0.03	6.607	1.0548	0.1275	10.9282	7.8652	16.1442	-0.5502	-0.1849	0.9779
-1.1119	0.5477	9.042	6.4892	25.8257	20.2229	0.2279	-0.8649	-0.4512	0.7165	-0.3645	13.0543	-197.7512	231.0339	67.4603	0.2221	0.1081	-0.048	6.8996	1.5098	0.6482	12.9892	5.402	13.8506	-0.47	-0.1449	0.9808
-1.7063	0.5433	9.4402	7.7064	22.5063	20.7507	0.2471	-0.9424	-0.4861	1.2675	0.2183	14.9999	-201.6282	223.9893	68.6623	0.2101	0.0781	-0.054	7.472	0.9406	0.8871	13.6332	2.8435	11.8444	-0.4696	-0.1257	0.9814
-1.4153	0.783	8.9169	7.6764	18.1158	18.9336	0.2313	-0.9209	-0.4362	2.5668	0.7431	17.1354	-205.7376	212.8158	68.2305	0.2402	0.066	-0.048	7.4681	0.7129	0.658	15.103	0.6108	10.4613	-0.4531	-0.087	0.9829
-1.6571	0.784	8.8543	13.7775	13.9785	15.2613	0.2267	-0.8849	-0.4853	4.2668	0.8069	19.2179	-206.9977	198.491	64.9114	0.2522	0.042	-0.048	7.245	0.0878	0.825	16.5674	-0.9183	8.8382	-0.503	-0.2034	0.9605
-1.0446	0.7759	9.4489	19.1009	8.8819	12.562	0.2156	-0.9768	-0.439	5.8037	0.8155	21.7654	-206.688	189.421	59.9227	0.2522	0.018	-0.048	7.471	0.9405	0.8299	19.3569	-1.4238	5.8623	-0.5018	-0.1456	0.9801
-1.4745	0.8407	8.9735	26.4946	5.5769	10.0602	0.2692	-0.9408	-0.4179	6.8082	1.684	23.4869	-204.696	184.8709	53.8524	0.2822	-0.012	-0.072	7.2398	0.8838	0.5967	22.8653	-1.9161	4.0942	-0.4697	-0.1073	0.9465
-1.2854	1.5926	9.4928	30.8019	4.1028	7.8521	0.2496	-0.9022	-0.4178	8.5641	2.5528	25.5741	-198.9367	187.4774	48.6702	0.2762	-0.018	-0.072	7.2936	0.7698	0.426	26.1488	-2.3133	2.0569	-0.5021	-0.1647	0.9795
-1.3394	0.8886	9.7925	35.3533	4.8033	4.8885	0.2161	-0.9378	-0.4043	9.8722	3.7566	25.1947	-189.3079	195.2288	44.0187	0.3062	-0.042	-0.0841	7.6972	0.7127	0.7766	28.3041	-3.1761	0.6643	-0.4541	-0.1261	0.9462
-1.8179	1.0622	9.957	37.754	8.2324	1.6728	0.2149	-0.9579	-0.4384	12.5897	5.4703	23.6737	-193.5253	202.6304	37.0227	0.3182	-0.054	-0.0961	8.3166	0.4843	0.5018	28.6925	-4.6787	-0.6807	-0.5015	-0.1079	0.9458
-1.7533	0.9424	10.1932	39.6755	14.344	-1.3864	0.1953	-0.9193	-0.4383	14.6705	7.759	21.8502	-210.5088	201.3727	36.8534	0.3422	-0.06	-0.1201	8.5448	0.3134	0.563	28.2137	-6.6066	0.0557	-0.4697	-0.1073	0.9465
-2.4709	0.5903	10.4185	40.3223	22.4498	-2.5104	0.2664	-0.9231	-0.4509	16.7158	9.535	21.1363	-220.6187	196.3143	42.4136	0.3422	-0.0781	-0.1141	8.4372	0.5982	0.9046	25.3634	-8.0697	0.2214	-0.501	-0.0884	0.9642
-2.232	1.1743	10.357	40.072	31.4257	-2.2203	0.2334	-0.9197	-0.4027	17.3715	10.7922	19.5735	-213.5912	194.255	49.0847	0.3602	-0.066	-0.1321	9.1652	0.995	0.4033	20.019	-9.0092	-2.1766	-0.5174	-0.1267	0.9804
-1.6795	0.9912	10.9527	37.8546	41.3614	-2.4997	0.1813	-0.9162	-0.3722	20.8418	8.4656	15.0621	-178.7934	198.3097	41.3569	0.3903	-0.072	-0.1381	10.0153	1.9607	0.4197	10.2216	-9.7569	-7.3285	-0.5188	-0.1665	0.9081
-1.6742	0.9875	11.2447	35.366	51.6602	-2.7064	0.1806	-0.9746	-0.4243	27.8116	14.6222	5.5619	-179.2029	196.0957	29.9703	0.3963	-0.0841	-0.1561	10.5157	1.9028	-0.1433	-1.7021	-9.0759	-10.2236	-0.4539	-0.1073	0.929
-2.2755	0.5798	11.2392	36.3486	63.9744	-2.021	0.2182	-0.9366	-0.3707	32.4799	22.5911	1.7643	-213.8243	142.2832	38.6693	0.4263	-0.0781	-0.1561	10.9673	3.0395	-0.1913	-16.877	-7.1603	-12.1818	-0.4702	-0.1268	0.9281
-2.0291	1.8583	11.6361	32.94	74.8752	-2.5413	0.237	-0.9563	-0.3703	30.4355	26.8124	6.1359	-196.3412	44.6769	61.9228	0.4263	-0.0901	-0.1621	11.0067	3.5506	-1.1056	-31.3891	-5.8128	-12.7201	-0.469	-0.0689	0.9477
