1546_acc_x	1546_acc_y	1546_acc_z	1546_gyro_x	1546_gyro_y	1546_gyro_z	1546_mag_x	1546_mag_y	1546_mag_z	1548_acc_x	1548_acc_y	1548_acc_z	1548_gyro_x	1548_gyro_y	1548_gyro_z	1548_mag_x	1548_mag_y	1548_mag_z	1549_acc_x	1549_acc_y	1549_acc_z	1549_gyro_x	1549_gyro_y	1549_gyro_z	1549_mag_x	1549_mag_y	1549_mag_z
-1.0999	-0.2005	9.3092	-0.742	-1.1587	-0.3742	0.1267	-0.8206	1.5092	1.2226	1.1968	9.9973	0.4746	0.9424	0.1212	-1.1236	-0.0335	0.7469	9.7362	0.8127	0.4035	1.1185	-0.0501	-0.9854	-0.1321	-0.4923	-0.1741
-1.2691	-0.4879	9.5351	-0.7399	-0.9707	-0.4256	-0.3752	1.729	-0.8047	1.2781	1.4853	9.8827	0.901	0.7658	-0.2027	0.9513	0.9716	1.4205	9.9118	1.511	0.4086	0.6016	-0.143	-0.8323	-0.1381	-0.2522	-0.036
-1.0949	-0.3729	9.5388	-0.8891	-0.5369	-0.4033	-0.3026	1.754	-0.8256	1.1625	1.1967	9.8802	0.098	0.4274	0.0584	1.0181	0.8586	1.359	9.9168	0.9877	0.6352	0.4193	-0.2685	-0.7144	-0.1501	-0.2762	-0.018
-1.5029	-0.4875	9.4729	-0.856	-0.2302	-0.3559	-0.3204	1.7533	-0.8039	0.9284	1.4278	9.7603	-0.241	0.2042	0.3249	0.9854	0.9734	1.3572	9.6126	1.2196	0.1175	0.0853	-0.0503	-0.7003	-0.1381	-0.2582	-0.012
-0.7477	-0.1431	9.4887	-0.305	-0.0006	-0.1249	-0.356	1.7999	-0.7838	1.3921	1.3695	9.7686	-0.5487	0.0435	0.5642	0.9656	0.8567	1.3793	10.1554	0.8714	0.8103	-0.0935	0.2491	-0.3758	-0.1381	-0.2522	-0.006
-0.6826	-0.7191	9.776	-0.367	0.0239	0.0296	-0.3567	1.7767	-0.8054	1.2774	1.1965	9.8243	-0.8574	-0.1772	0.7686	1.001	0.8812	1.3584	9.6217	1.1625	0.5731	-0.1796	0.2292	0.2696	-0.1621	-0.2642	-0.024
-0.8665	-0.6045	9.3128	0.0911	-0.2188	-0.1955	-0.3374	1.7276	-0.7372	1.3995	1.2546	10.1745	-0.8261	-0.0824	0.7125	0.9495	0.9257	1.3782	9.9103	0.8704	0.2931	-0.1817	0.3939	-0.06	-0.1381	-0.2522	-0.006
-0.9778	-0.2	9.599	0.059	-0.0534	0.2434	-0.321	1.802	-0.8494	1.6268	1.5427	9.947	-0.1782	0.2954	0.3305	0.9469	0.8569	1.3149	10.0283	1.3943	0.3536	0.087	0.444	-0.7361	-0.1501	-0.2642	-0.024
-1.2095	-0.6608	9.5933	0.2998	-0.4605	0.2846	-0.3394	1.7061	-0.8254	1.1533	1.0806	9.358	0.3178	0.6975	0.1371	1.0212	0.9506	1.4222	10.0905	1.3947	0.5256	0.059	0.5913	-0.513	-0.1441	-0.2762	-0.018
-1.0858	-0.3142	9.999	0.4197	-0.7397	0.2705	-0.3388	1.7293	-0.8038	1.7431	1.1961	9.9487	0.2609	1.066	0.1924	1.0372	0.9287	1.3587	9.7936	1.0453	0.3483	0.4863	0.678	-0.4504	-0.1561	-0.2462	-0.018
-0.8636	-0.3159	9.486	0.5392	-1.138	0.1577	-0.3015	1.7767	-0.7818	1.2178	1.7162	9.7659	0.635	1.398	0.2123	1.0024	0.9273	1.3793	9.5629	1.1626	0.5719	0.7559	0.5366	-0.9212	-0.1561	-0.2582	-0.03
-1.2674	-0.1993	9.6508	0.352	-1.6837	-0.0264	-0.3393	1.7299	-0.826	1.1053	1.4856	9.9376	0.6978	1.4892	0.2179	0.9861	0.9729	1.3999	9.8508	1.5108	0.2935	1.1194	0.3846	-1.0858	-0.1441	-0.2762	-0.024
-0.9782	-0.6037	9.5405	0.5969	-1.9178	-0.3754	-0.3214	1.6825	-0.8244	1.0414	1.1965	9.5881	0.7	1.4786	0.4345	1.0015	0.9044	1.3582	9.8506	0.6375	0.2345	1.0869	0.5178	-1.3861	-0.1441	-0.2582	-0.024
-0.7462	-0.3159	9.5458	0.0694	-2.6881	-0.2971	-0.321	1.7301	-0.8255	1.5123	1.2542	10.0026	0.5466	1.3798	0.6151	1.0017	0.8807	1.4011	9.5626	1.4536	0.5726	1.2374	0.2733	-1.4923	-0.1681	-0.2702	-0.03
-0.8581	-0.1999	9.7738	0.1374	-2.1501	-0.5752	-0.2838	1.7774	-0.8035	1.2227	1.1391	9.9972	0.3926	1.4792	0.5291	0.9853	0.95	1.3787	9.7355	1.453	0.4051	1.5142	0.4169	-1.2411	-0.1381	-0.2522	-0.012
-1.0941	-0.1998	9.5967	-0.1404	-2.3668	-0.4964	-0.3017	1.7529	-0.7812	1.3349	1.5429	9.8258	0.7638	1.5975	0.5041	1.0006	0.8815	1.3371	9.5591	1.5696	0.402	1.3308	0.5147	-1.3575	-0.1441	-0.2642	-0.018
-0.8018	-0.4309	9.6594	-0.1725	-2.4927	-0.4419	-0.3202	1.7771	-0.8045	1.1066	1.2547	9.9953	0.8866	1.663	0.3836	1.0215	0.9974	1.379	9.8003	1.0462	0.6901	1.3313	0.5128	-1.2962	-0.1381	-0.2582	-0.024
-1.0442	-0.7199	9.1366	-0.2651	-2.4678	-0.2875	-0.322	1.7312	-0.8699	1.1606	1.0811	9.7641	0.5131	1.3279	0.4256	1.0016	0.9278	1.3366	9.7381	1.1622	0.5183	1.7645	0.4826	-0.471	-0.1681	-0.2582	-0.018
-0.8033	-0.8347	9.5434	-0.4465	-2.1319	-0.1477	-0.357	1.7291	-0.8043	1.2181	1.4852	9.7656	0.022	1.195	0.7918	0.9663	0.9033	1.3575	10.0307	1.2782	0.4672	1.9218	0.3366	0.1965	-0.1501	-0.2642	-0.03
-0.7995	-0.4306	9.7744	-0.3533	-1.8038	0.0856	-0.3571	1.7773	-0.8276	1.5637	1.4846	9.6558	0.1363	0.6839	0.4786	1.0014	0.881	1.3798	9.6754	0.696	0.2882	2.0745	0.4901	0.1725	-0.1501	-0.2582	-0.024
-0.856	-0.6609	9.8302	-0.3531	-1.8318	0.0226	-0.338	1.7763	-0.7827	0.8713	1.5435	9.8175	0.0781	0.8634	0.6147	1.0188	0.9052	1.3372	9.6219	0.9297	0.5725	2.6805	0.5911	-0.2576	-0.1621	-0.2702	-0.03
-1.2704	-0.4304	9.4777	-0.4394	-1.3872	-0.2	-0.3015	1.7767	-0.7818	1.5692	1.2541	9.9456	0.1063	0.8104	0.4248	1.0181	0.8586	1.359	10.0918	1.2202	0.5821	2.8926	0.8125	-0.4938	-0.1441	-0.2582	-0.024
-0.7387	-0.6034	9.8902	-0.2873	-1.3361	-0.0119	-0.3393	1.7299	-0.826	1.2214	1.3122	9.9394	0.5394	1.089	0.2547	1.0024	0.9273	1.3793	9.7277	1.452	0.0063	3.1371	0.8383	-0.4023	-0.1381	-0.2582	-0.03
-1.3292	-0.661	9.4185	-0.4709	-1.2764	0.0823	-0.3573	1.7535	-0.827	1.2246	1.2547	10.1134	0.5128	1.2972	0.4236	0.9834	0.8807	1.3581	9.8546	1.0455	0.4633	3.2868	0.6593	-0.628	-0.1441	-0.2642	-0.012
-0.9187	-0.719	9.5989	-0.2566	-1.3071	0.0206	-0.3209	1.7538	-0.8261	1.0905	1.6	9.1255	1.1005	1.6039	0.2546	0.9825	0.8578	1.337	9.7969	1.1622	0.5194	3.5299	0.5342	-0.6365	-0.1741	-0.2702	-0.012
-0.6886	-0.6045	9.4888	-0.412	-1.4666	0.1647	-0.2841	1.8018	-0.8263	1.2098	1.4269	9.3014	0.9455	1.7401	0.0468	1.0364	0.9057	1.3376	9.5577	0.7544	0.2861	3.5855	0.335	-1.1701	-0.1561	-0.2762	-0.024
-1.04	-0.4887	9.3671	-0.6552	-1.4254	0.0117	-0.3196	1.7284	-0.7589	1.5102	1.254	9.8866	1.3198	1.9093	0.2424	0.9845	0.9505	1.336	9.9091	0.8703	0.2361	3.6467	0.1142	-1.0283	-0.1441	-0.2702	-0.03
-0.8002	-0.6613	9.7164	-0.8099	-1.6967	-0.096	-0.3217	1.7068	-0.8471	1.0413	1.312	9.5882	1.0731	2.2053	-0.0477	0.984	0.9273	1.3363	9.9763	1.3952	0.6943	3.86	0.3625	-1.1401	-0.1621	-0.2582	-0.018
-0.7488	-0.7199	9.3724	-0.7777	-1.512	-0.086	-0.2669	1.7312	-0.8463	1.0479	1.0237	9.9359	1.4163	2.246	0.2639	0.9846	0.9034	1.4005	9.7382	1.0458	0.518	3.827	0.0907	-1.3077	-0.1501	-0.2582	-0.03
-0.7392	-0.9494	9.8318	-1.0571	-1.7977	0.1428	-0.3378	1.8001	-0.7833	1.108	0.9661	10.0529	1.2292	2.1614	0.1661	1.0017	0.8807	1.4011	9.3255	1.1626	0.4535	3.7339	-0.246	-1.3552	-0.1561	-0.2822	-0.024
-1.2146	-0.4307	9.3638	-0.9959	-1.8852	0.0156	-0.3759	1.7057	-0.8264	1.5109	1.5428	9.9449	1.6003	2.1506	0.2568	0.9673	0.9497	1.357	9.7903	1.0449	0.1774	3.0657	-0.2473	-1.1346	-0.1561	-0.2642	-0.024
-0.9791	-0.7192	9.4828	-1.426	-2.0677	0.0645	-0.3573	1.7535	-0.827	1.051	1.0817	10.1101	1.6593	2.0972	0.0668	0.949	0.9026	1.3785	9.7967	1.3368	0.5199	2.8197	-0.4239	-1.3263	-0.1561	-0.2762	-0.036
-1.0878	-0.4874	9.8835	-1.212	-2.2455	-0.1587	-0.3564	1.7524	-0.7826	0.8093	1.4278	9.5842	1.4705	1.9557	-0.1278	0.9668	0.9265	1.3573	9.4426	1.5699	0.4567	2.4562	-0.3344	-1.1342	-0.1441	-0.2702	-0.03
-1.1533	-0.2575	9.5379	-1.4584	-2.1376	0.245	-0.3558	1.8237	-0.7844	1.1062	1.5434	9.9957	1.406	1.5479	0.0322	0.9666	0.9031	1.3788	9.9143	1.2203	0.5218	2.2405	-0.6672	-1.2727	-0.1681	-0.2582	-0.03
-0.9743	-0.2573	9.7714	-0.9077	-2.055	0.3144	-0.3377	1.752	-0.76	1.1596	1.0233	9.706	0.8814	1.6227	-0.0537	0.9833	0.8573	1.3797	10.0904	1.4529	0.5257	2.1811	-0.3907	-1.2271	-0.1741	-0.2582	-0.018
-0.8644	-0.4889	9.4281	-0.5991	-1.8667	0.1728	-0.3403	1.7791	-0.8937	0.9951	1.0819	10.225	0.8504	1.5264	0.0333	0.9654	0.8804	1.3364	9.9742	1.2203	0.5799	1.9074	-0.3586	-1.1924	-0.1621	-0.2702	-0.024
-0.9754	-0.2574	9.7139	-0.6296	-1.7781	0.2696	-0.4133	1.7065	-0.8717	1.3961	1.4276	10.0007	0.7583	1.3314	0.2695	1.019	0.8815	1.3802	9.8034	1.3376	0.8617	1.878	-0.3623	-1.0694	-0.1441	-0.2702	-0.018
-1.0467	-0.6049	9.0218	-0.414	-1.7707	0.0562	-0.3198	1.7046	-0.7584	1.3379	1.6586	10	0.8531	1.5466	0.252	0.9839	0.9039	1.3578	9.6813	1.3954	0.6317	2.0623	-0.1196	-0.9968	-0.1501	-0.2582	-0.018
-1.0353	-0.5458	9.597	-0.3215	-1.7382	-0.0029	-0.3196	1.8003	-0.7828	1.2753	1.1964	9.7083	0.6394	1.5073	0.4988	0.9673	0.9497	1.357	9.7378	1.4533	0.519	2.0293	-0.2346	-1.2485	-0.1501	-0.2762	-0.03
-0.6938	-0.8934	9.2006	-0.5638	-1.603	-0.1816	-0.3387	1.8012	-0.8277	0.7549	1.0816	9.7568	0.4818	1.1687	0.5396	0.9684	0.949	1.4211	9.676	1.1037	0.3462	2.0871	-0.1608	-1.6448	-0.1501	-0.2762	-0.006
-1.0343	-0.4881	9.6547	-0.3468	-1.412	-0.3544	-0.3755	1.7533	-0.8275	1.0484	1.4857	9.9945	0.3557	1.0861	0.3795	1.0029	0.9505	1.3791	9.7365	1.5696	0.4623	2.546	0.0151	-1.4857	-0.1561	-0.2642	-0.024
-1.0331	-0.4879	9.7122	-0.4704	-1.5059	-0.2988	-0.3017	1.7529	-0.7812	1.6214	1.6578	9.6571	0.3225	1.0327	0.221	0.9663	0.9033	1.3575	10.2109	1.8025	0.6997	2.6075	-0.0817	-1.3682	-0.1621	-0.2582	-0.024
-0.9792	-0.0849	9.5418	-0.2539	-1.231	-0.2827	-0.302	1.7772	-0.804	1.1678	1.1394	10.1702	0.6619	1.156	0.1032	0.9684	0.949	1.4211	10.4366	1.2188	0.1901	2.301	-0.0712	-1.6112	-0.1741	-0.2702	-0.018
-1.0298	-0.4298	9.8848	-0.0407	-1.2395	-0.1588	-0.3746	1.7522	-0.7831	0.9915	1.4859	10.0515	0.7837	1.1615	-0.0522	0.9838	0.8804	1.3794	9.9755	1.104	0.6366	2.3621	-0.0727	-1.581	-0.1621	-0.2702	-0.024
-0.747	-0.489	9.4879	0.2346	-1.1842	-0.0926	-0.3379	1.7282	-0.7594	1.2802	1.4277	9.9986	0.6929	0.9927	0.2788	0.9849	0.9502	1.3574	9.5057	1.745	0.6862	2.3569	-0.1463	-2.169	-0.1441	-0.2642	-0.018
-0.6802	-0.1998	9.9498	0.2319	-1.3765	0.0508	-0.3391	1.7537	-0.8266	1.5048	1.4269	9.5967	0.5711	1.2145	0.2006	0.931	0.9023	1.3567	9.9189	1.1626	0.7495	2.2325	-0.198	-2.4474	-0.1501	-0.2582	-0.012
-0.8056	-0.2583	9.4873	-0.1044	-1.3428	0.0811	-0.3396	1.7542	-0.8488	1.3883	1.8312	9.5952	0.6043	1.2357	0.3881	0.9852	0.8795	1.4648	9.7936	1.1035	0.3484	2.6008	-0.1494	-2.1404	-0.1501	-0.2582	-0.024
-0.9248	0.0299	9.3707	0.0489	-1.4875	-0.1715	-0.3195	1.7522	-0.7595	1.3361	1.4275	9.8837	0.4519	1.4243	0.37	0.9482	0.8796	1.3573	9.8501	1.1032	0.2356	2.8704	-0.1657	-2.6662	-0.1741	-0.2762	-0.024
-1.3295	-0.5457	9.4188	-0.2268	-1.2544	0.208	-0.3202	1.7771	-0.8045	1.1019	1.7163	9.7638	0.6381	1.5457	0.346	1.0385	0.9514	1.4012	9.6807	1.9193	0.633	2.6877	-0.3518	-2.5821	-0.1681	-0.2642	-0.006
-0.9797	-0.4309	9.4834	0.0182	-1.2841	0.1158	-0.3373	1.7995	-0.7611	1.1588	1.7162	9.7069	0.9762	1.6428	0.1335	0.9854	0.9734	1.3572	9.7936	1.1035	0.3484	3.0515	-0.474	-2.7145	-0.1321	-0.2642	-0.024
-0.8651	-0.7197	9.3701	-0.0739	-1.3432	0.0813	-0.3391	1.7537	-0.8266	1.1058	1.0814	9.9371	0.6387	1.7377	0.2033	0.9844	0.9271	1.3576	10.0861	1.2777	0.2974	3.3876	-0.5125	-2.5655	-0.1501	-0.2582	-0.012
-0.8076	-0.4315	9.3719	-0.0127	-1.344	0.0817	-0.3564	1.7524	-0.7826	1.2266	1.3126	10.2295	0.8874	1.7245	0.3876	0.9656	0.8567	1.3793	9.8512	1.1615	0.2927	3.6573	-0.8107	-2.9522	-0.1501	-0.2522	-0.024
-1.3229	-0.3719	9.7642	-0.0448	-1.4993	0.1039	-0.3386	1.7531	-0.8044	0.9915	1.4281	10.0514	0.7979	1.8092	0.5798	1.0027	0.9271	1.4007	9.79	1.336	0.1781	3.6553	-0.7403	-3.2252	-0.1501	-0.2582	-0.012
-0.7998	-0.8343	9.716	-0.2317	-1.8097	0.1783	-0.3564	1.7524	-0.7826	1.1576	0.9654	9.5899	0.8877	1.7552	0.3896	0.9834	0.8807	1.3581	9.8569	1.0458	0.5772	3.5937	-0.4867	-3.4268	-0.1621	-0.2702	-0.024
-0.802	-0.3156	9.6597	-0.1387	-1.7155	0.1224	-0.3398	1.7786	-0.8715	1.2189	1.6585	9.8239	0.9484	1.4991	0.5589	0.9671	0.9263	1.3786	9.6723	1.3943	0.176	3.4107	-0.6093	-3.4009	-0.1381	-0.2582	-0.012
-0.9266	-0.7776	9.1962	-0.5349	-1.7311	-0.0961	-0.3931	1.7763	-0.8064	1.1629	0.908	9.8799	0.7026	1.7261	0.4196	0.9664	0.9268	1.3359	9.7916	0.8704	0.2339	3.2264	-0.5701	-3.6126	-0.1381	-0.2522	-0.03
-0.974	-0.3726	9.7711	-0.7476	-1.5447	-0.0568	-0.3376	1.8239	-0.7839	1.1021	1.4854	9.7635	0.9445	1.2577	0.4501	1.0036	0.95	1.4218	9.6211	1.6282	0.5742	2.6713	-0.3195	-4.5483	-0.1561	-0.2522	-0.03
-1.0343	-0.4881	9.6547	-0.35	-1.6072	-0.1498	-0.357	1.7291	-0.8043	0.9241	1.4853	9.5284	0.6702	1.5391	0.4697	0.985	0.9031	1.4219	10.0907	1.2201	0.5252	2.5161	-0.3382	-4.8862	-0.1561	-0.2522	-0.012
-1.0389	-0.4886	9.4247	-0.7142	-1.3808	-0.2629	-0.3386	1.7531	-0.8044	1.3888	1.4848	9.5947	0.7277	1.2981	0.3295	1.0035	0.9266	1.4434	9.8556	1.1621	0.5206	2.1832	-0.1557	-4.7203	-0.1561	-0.2702	-0.03
-0.8534	-0.8336	9.9448	-0.7739	-1.0213	0.0018	-0.3202	1.7771	-0.8045	0.988	1.7744	9.8779	0.417	1.2816	0.1436	0.9658	0.8802	1.3577	9.9061	1.6268	0.124	2.2115	-0.5232	-4.8011	-0.1381	-0.2702	-0.018
-0.8676	-0.6623	9.2552	-0.8016	-0.6242	0.1151	-0.3197	1.7765	-0.7823	1.1545	1.7736	9.4749	0.4799	1.21	0.3249	0.9336	0.9711	1.4201	9.4992	1.5113	0.3438	2.0271	-0.8909	-4.8187	-0.1621	-0.2762	-0.024
-0.7963	-0.8915	9.8883	-0.6161	-0.3224	0.2247	-0.3561	1.728	-0.7599	1.5703	1.1964	10.0036	0.2027	1.2777	0.2995	0.9679	0.9258	1.4213	9.969	0.8704	0.2942	1.967	-1.3628	-4.5045	-0.1441	-0.2642	-0.03
-0.7382	-0.2573	9.9485	-0.7352	0.1655	0.4037	-0.3212	1.7063	-0.8249	1.1068	1.0815	9.9951	0.3545	0.9616	0.4025	0.9498	0.9726	1.3351	9.7955	1.3949	0.463	1.9407	-1.5668	-3.8999	-0.1501	-0.2642	-0.024
-0.9191	-0.4884	9.5995	-0.7952	0.378	0.5069	-0.3565	1.8005	-0.806	0.9324	1.5436	9.9925	0.2878	0.824	0.0833	0.9671	0.9263	1.3786	9.7414	1.1627	0.6892	2.2472	-1.483	-3.7136	-0.1561	-0.2762	-0.024
-0.7521	-0.259	9.2585	-0.3066	0.3673	0.6017	-0.338	1.7763	-0.7827	1.2801	1.5432	9.9988	0.4089	0.3456	0.3622	0.9666	0.9031	1.3788	10.0895	1.2199	0.4682	2.7082	-1.19	-3.3639	-0.1561	-0.2762	-0.048
-0.746	-0.4313	9.5456	-0.3963	0.6433	0.6773	-0.3206	1.7295	-0.8033	1.3954	1.1965	9.9424	-0.4277	-0.077	0.4627	0.984	0.9273	1.3363	9.2691	1.0465	0.5661	3.292	-0.7143	-2.9749	-0.1561	-0.2702	-0.012
-0.8602	-0.3154	9.6585	-0.6726	0.5528	0.7014	-0.3386	1.7531	-0.8044	0.7526	1.3124	9.641	-0.4871	-0.022	0.6218	0.986	0.9495	1.4214	9.5015	1.5116	0.4577	3.9694	-0.2791	-2.3121	-0.1501	-0.2642	-0.024
-0.807	-0.7198	9.3712	0.1239	0.5806	0.5544	-0.3755	1.7533	-0.8275	0.521	1.9479	9.6957	-0.5797	-0.085	0.6802	0.9851	0.9266	1.4003	9.3844	1.1043	0.4545	3.4879	0.0468	-1.7685	-0.1501	-0.2582	-0.012
-1.2078	-0.3723	9.709	-0.0282	0.6752	0.5585	-0.3389	1.7775	-0.8271	1.0456	1.1968	9.8201	-1.0708	-0.0228	0.8417	0.9851	0.9266	1.4003	9.0276	0.813	0.2192	3.343	0.3639	-1.0436	-0.1561	-0.2582	-0.018
-1.2693	-0.4302	9.5352	0.0611	0.3963	0.5441	-0.3396	1.7542	-0.8488	0.9797	1.716	9.4137	-0.4872	-0.1188	0.7086	1.0029	0.9505	1.3791	9.1492	1.1627	0.4502	3.2883	0.5909	-0.4164	-0.1441	-0.2702	-0.03
-1.0311	-0.3147	9.8276	0.3967	0.2995	0.5411	-0.3581	1.7065	-0.8481	0.9369	1.2552	10.2242	-0.7595	0.218	0.8559	1.0201	0.9513	1.3581	9.5027	1.3953	0.5144	2.957	0.7357	-0.0371	-0.1381	-0.2762	-0.024
-1.0374	-0.6614	9.4817	0.1217	0.0721	0.1891	-0.3578	1.7541	-0.8492	1.2204	1.2544	9.8814	-0.1771	0.1603	0.5701	0.9324	0.9484	1.3776	9.3179	1.0451	0.0545	2.8063	0.5118	0.2599	-0.1501	-0.2762	-0.036
-1.2134	-1.0073	9.3624	0.0893	-0.2597	0.0174	-0.3567	1.7048	-0.7815	1.1007	1.774	9.7059	0.0678	0.1975	0.3541	1.0207	0.9274	1.4224	9.4971	1.4529	0.2297	2.9325	0.7441	0.6707	-0.1621	-0.2582	-0.018
-0.9217	-0.3734	9.4847	0.1208	-0.2249	-0.0727	-0.4114	1.8243	-0.8302	1.3305	1.7736	9.594	-0.2379	0.2874	0.5166	0.9666	0.9031	1.3788	9.5635	1.5702	0.6299	2.7209	0.8025	0.8292	-0.1501	-0.2762	-0.03
-0.8146	-0.3747	9.027	0.3045	-0.4582	-0.4221	-0.3386	1.7531	-0.8044	1.1607	1.0234	9.764	0.3182	0.3058	0.5773	1.002	0.9276	1.358	9.7292	1.1029	0.0624	2.9371	0.7889	1.1957	-0.1681	-0.2642	-0.03
-0.6877	-0.489	9.5466	0.3323	-0.7097	-0.3432	-0.3199	1.7527	-0.7817	0.9225	1.9471	9.4709	-0.0858	0.1971	0.4168	0.9849	0.9502	1.3574	9.6225	1.3955	0.6306	2.4538	1.0909	1.5229	-0.1561	-0.2582	-0.018
-0.804	-0.4888	9.5443	0.5496	-0.6041	-0.6742	-0.3389	1.7775	-0.8271	1.16	1.543	9.7647	-0.1436	0.1799	0.7886	1.0019	0.9042	1.3796	9.7874	1.6267	0.0648	1.8465	1.1517	1.7155	-0.1441	-0.2642	-0.006
-0.6255	-0.777	9.7196	0.3358	-0.5999	-0.7061	-0.3372	1.7514	-0.7378	0.756	1.0817	9.8148	0.0055	-0.0258	0.5261	0.9829	0.8575	1.3583	9.9675	1.2777	0.2382	1.5724	1.0289	1.7728	-0.1621	-0.2522	-0.042
-1.3249	-0.5451	9.6488	0.3377	-0.3546	-0.6623	-0.3384	1.7769	-0.8049	0.9314	1.4858	9.9345	-0.3354	0.0198	0.3443	0.95	0.9489	1.378	9.678	1.3368	0.4607	1.2997	0.9946	1.9578	-0.1621	-0.2762	-0.012
-1.0889	-0.4875	9.826	0.5501	-0.2806	-0.3188	-0.3038	1.7314	-0.8694	0.8694	1.3701	9.7012	-0.0605	-0.0696	0.182	0.9846	0.9034	1.4005	9.7922	1.3362	0.292	1.1785	0.9619	2.0493	-0.1561	-0.2642	-0.024
-0.9225	-0.5465	9.4268	0.6115	-0.28	-0.3491	-0.3374	1.8477	-0.7845	1.213	1.3694	9.4754	-0.1822	-0.0105	0.2796	0.9492	0.926	1.3569	9.7878	1.2775	0.064	0.7509	0.9386	1.9286	-0.1561	-0.2702	-0.024
-0.913	-0.6607	9.8866	0.4916	-0.1464	-0.5272	-0.3383	1.8007	-0.8055	1.0456	2.0052	9.8792	-0.0308	0.0328	-0.0288	0.9324	0.9484	1.3776	9.7362	0.8709	0.4037	0.3545	1.0065	1.8431	-0.1621	-0.2702	-0.012
-1.1557	-0.2001	9.423	0.4634	-0.0139	-0.7047	-0.3024	1.7297	-0.8029	1.102	1.6008	9.7637	-0.2136	0.2526	-0.0447	1.0199	0.9045	1.4013	9.8508	1.4526	0.2934	0.2038	0.9393	2.0561	-0.1501	-0.2642	-0.018
-1.0377	-0.4885	9.4822	0.4928	0.0947	-0.3913	-0.3744	1.776	-0.7837	0.8663	1.3699	9.5272	-0.1814	0.3106	0.021	0.9856	0.9498	1.4001	9.8445	1.1607	-0.0491	-0.0416	0.7915	1.9274	-0.1501	-0.2642	-0.036
-0.9134	-0.4877	9.887	0.1863	0.1811	-0.1735	-0.3013	1.8005	-0.7824	1.2221	0.7926	9.9388	-0.3043	0.1806	0.1994	0.9861	0.9729	1.3999	9.9719	1.3365	0.4662	-0.6232	0.5888	1.6756	-0.1561	-0.2582	-0.024
-1.1525	-0.6611	9.5369	0.2202	0.2023	-0.6332	-0.3751	1.7527	-0.8053	1.1683	0.7929	10.1698	-0.2436	0.1841	0.1062	0.9663	0.9033	1.3575	9.6179	1.5114	0.403	-1.108	0.458	2.0418	-0.1441	-0.2642	-0.03
-1.2088	-0.4301	9.6514	0.0061	0.4374	-0.3146	-0.3377	1.752	-0.76	1.3972	1.4276	10.0587	0.0023	0.249	-0.0459	0.9309	0.8788	1.3783	9.7379	1.3369	0.5187	-1.3883	0.1713	1.4449	-0.1441	-0.2822	-0.036
-0.9767	-0.7766	9.5976	0.2806	0.4002	-0.2534	-0.3555	1.7994	-0.7616	1.451	1.4273	9.8277	0.0611	0.2616	-0.3248	0.9679	0.9258	1.4213	9.8497	1.4525	0.2364	-1.88	-0.1204	1.0648	-0.1621	-0.2582	-0.03
-1.2177	-0.0275	9.2498	0.2513	0.5254	-0.2776	-0.3196	1.8003	-0.7828	1.0478	1.1392	9.9361	-0.1532	0.2899	-0.1978	0.9845	0.88	1.4221	9.6121	1.6853	0.1186	-2.2462	-0.3337	1.0874	-0.1561	-0.2582	-0.024
-1.1496	-0.3724	9.7101	0.3722	0.3108	-0.3498	-0.3746	1.7522	-0.7831	1.2726	1.7159	9.5929	0.1549	0.254	-0.2015	0.9318	0.9018	1.3994	9.7355	1.5112	0.4052	-2.428	-0.2418	1.1552	-0.1561	-0.2582	-0.024
-0.5113	-0.3161	9.6655	0.2183	0.2481	-0.2927	-0.2837	1.7293	-0.7802	1.3333	1.1963	9.7093	-0.2424	0.3408	0.0543	0.9845	0.9505	1.336	9.6187	1.8026	0.4607	-2.6161	-0.564	0.6788	-0.1561	-0.2642	-0.048
-1.152	-0.8917	9.5364	0.2188	0.3098	-0.2894	-0.3583	1.8027	-0.8948	0.6347	2.0631	9.5819	0.2477	0.2509	-0.1711	0.9668	0.9265	1.3573	9.7386	1.6863	0.5765	-2.4625	-0.3826	0.7484	-0.1501	-0.2642	-0.012
-0.8009	-0.3154	9.7172	0.2187	0.1922	-0.4186	-0.3383	1.8007	-0.8055	0.8136	1.3126	9.8161	0.0318	0.2546	-0.1699	0.9838	0.8804	1.3794	9.4974	1.1618	0.229	-2.4042	-0.279	0.3844	-0.1621	-0.2522	-0.036
-1.0428	-0.2584	9.2527	0.2797	0.1032	-0.5152	-0.3764	1.7063	-0.8486	0.9899	1.0816	9.935	0.1587	0.3986	-0.0058	1.0022	0.9039	1.4009	9.9098	1.2779	0.2941	-1.8578	-0.12	0.0807	-0.1501	-0.2702	-0.036
-0.9205	-0.3733	9.5422	0.2798	0.0752	-0.5781	-0.3388	1.7293	-0.8038	0.9917	1.2549	10.0512	0.1912	0.6824	-0.1428	0.9678	0.9729	1.3568	9.732	1.569	0.2345	-1.5558	-0.2377	-0.1739	-0.1441	-0.2702	-0.03
-0.803	-0.431	9.6019	0.3087	-0.1691	-0.6525	-0.3933	1.7526	-0.8058	1.5698	0.7921	9.945	0.2817	0.5932	-0.2421	0.9676	0.9495	1.3784	9.9713	0.8706	0.4082	-1.3108	0.0054	-0.1325	-0.1441	-0.2642	-0.012
-1.0386	-0.6039	9.4244	0.1244	-0.2887	-0.6908	-0.3389	1.7775	-0.8271	1.0462	1.5433	9.8786	-0.0228	0.9043	-0.1895	1.0005	0.858	1.3587	9.7336	1.1617	0.2905	-1.0031	0.0843	0.2073	-0.1501	-0.2642	-0.024
-0.9791	-0.7192	9.4828	-0.2127	-0.2019	-0.4732	-0.3383	1.8007	-0.8055	0.8749	1.1395	9.991	0.3163	0.7696	-0.0756	0.9319	0.9252	1.3779	9.1476	1.6283	0.3943	-0.7923	0.0606	-0.0724	-0.1621	-0.2822	-0.03
-0.5665	-0.6616	9.7785	-0.308	-0.5149	-0.3676	-0.3747	1.8003	-0.8065	0.7536	1.3125	9.699	0.3492	0.8245	0.052	0.9843	0.9036	1.3792	9.556	1.2782	0.2304	-0.8563	-0.459	-0.1911	-0.1681	-0.2702	-0.024
-0.9217	-0.3734	9.4847	-0.4906	-0.245	-0.1392	-0.3212	1.7063	-0.8249	1.1643	1.4856	9.9966	0.6548	0.6379	-0.0236	0.9841	0.8802	1.4008	9.6228	1.1626	0.63	-0.7062	-0.4207	-0.4671	-0.1561	-0.2642	-0.018
-0.8035	-0.7194	9.5437	-0.2433	-0.0853	-0.3135	-0.3575	1.7297	-0.8265	0.9908	1.1971	9.9931	0.5659	0.9469	-0.0031	0.9834	0.8807	1.3581	9.7423	1.3956	0.7467	-0.4923	-0.6755	-0.2668	-0.1621	-0.2642	-0.024
-1.2732	-0.2	9.3632	-0.4884	-0.085	-0.2536	-0.3212	1.7782	-0.8489	1.3323	1.1385	9.6512	1.0537	0.8353	-0.4162	1.0202	0.9042	1.4226	9.6244	1.6868	0.7452	-0.0951	-0.6213	-0.1443	-0.1621	-0.2582	-0.018
-1.0979	-0.6039	9.3657	-0.4561	0.1879	-0.1466	-0.3384	1.7769	-0.8049	1.4586	1.1391	10.2335	0.6829	0.5204	-0.1555	0.983	0.8809	1.3367	9.7395	0.8713	0.5746	0.2982	-0.3954	-0.5662	-0.1441	-0.2642	-0.036
-0.7971	-0.488	9.8893	-0.55	0.1747	0.1595	-0.3391	1.7537	-0.8266	1.2752	1.3119	9.7084	0.4052	0.2655	0.1086	0.9658	0.8802	1.3577	9.9225	0.9302	0.9199	0.6343	-0.4022	-0.4463	-0.1561	-0.2642	-0.018
-1.0354	-0.4882	9.5972	-0.2437	0.2325	0.1646	-0.3928	1.752	-0.7836	1.0425	1.1389	9.646	0.6842	0.3193	0.1729	0.9839	0.9039	1.3578	10.0959	1.5118	0.8107	1.0906	-0.4666	-0.4841	-0.1561	-0.2702	-0.036
-0.6221	-0.7766	9.8921	-0.5484	0.3892	0.2017	-0.32	1.8008	-0.805	1.3322	1.254	9.6514	-0.0894	-0.0459	0.339	0.9846	0.9034	1.4005	9.4915	1.3939	-0.0553	1.4872	-0.4104	-0.423	-0.1501	-0.2822	-0.018
-0.796	-0.4302	9.9469	-0.5455	0.6697	0.1553	-0.3937	1.7531	-0.828	1.2183	1.2543	9.7653	-0.3965	-0.0468	0.4645	0.9853	0.95	1.3787	9.554	1.1032	0.1161	1.7608	-0.3482	-0.5142	-0.1501	-0.2762	-0.018
-0.8572	-0.0844	9.8316	-0.2112	0.4774	0.2086	-0.3197	1.7765	-0.7823	1.3885	1.7157	9.595	-0.2696	0.1619	0.5706	0.9856	0.9498	1.4001	9.5648	1.4539	0.6866	1.9427	-0.2525	-0.6645	-0.1681	-0.2522	-0.024
-1.0951	-0.8919	9.48	-0.3029	0.5948	0.368	-0.356	1.7999	-0.7838	1.0988	1.6584	9.5897	-0.3017	-0.0267	0.6517	0.9846	0.9034	1.4005	9.5612	1.6281	0.5161	2.3989	-0.2226	-0.7589	-0.1561	-0.2582	-0.006
-0.6868	-0.9502	9.5455	-0.121	0.2911	0.1992	-0.3383	1.8007	-0.8055	1.1001	1.4852	9.6475	-0.3923	0.1609	0.6332	1.002	0.9276	1.358	9.7924	1.1616	0.2916	2.7006	-0.2144	-1.0992	-0.1501	-0.2582	-0.042
-0.8008	-0.3731	9.7171	-0.0023	-0.0541	0.2737	-0.3205	1.8014	-0.8272	1.0422	1.4276	9.6464	0.0102	0.6013	0.3185	0.9825	0.8578	1.337	9.7386	1.7445	0.5767	2.5214	0.2746	-0.9185	-0.1621	-0.2642	-0.036
-0.6248	-0.5462	9.7776	-0.0044	-0.3583	0.1652	-0.3741	1.7516	-0.7609	1.0441	1.5432	9.7626	-0.0221	0.4788	0.3107	0.9666	0.9031	1.3788	10.2037	1.2194	0.2995	2.582	0.4318	-1.0338	-0.1561	-0.2822	-0.03
-0.8658	-0.3738	9.3709	0.084	-0.7017	0.2089	-0.3017	1.7529	-0.7812	0.9293	1.5434	9.8185	0.105	0.8165	0.301	1.0025	0.9508	1.3578	9.7967	1.3368	0.5199	2.6726	0.4965	-1.1542	-0.1501	-0.2582	-0.024
-0.9814	-0.7195	9.3677	0.0539	-0.9308	-0.1724	-0.3568	1.7529	-0.8048	1.0434	1.2544	9.7042	0.3827	0.8764	0.2416	0.9497	0.9492	1.3567	9.8464	1.3938	0.0654	2.8831	0.4113	-1.4371	-0.1561	-0.2582	-0.024
-0.8605	-0.7191	9.6001	-0.1929	-1.2038	-0.2194	-0.3212	1.7782	-0.8489	0.8671	1.6009	9.5855	0.4733	0.6566	0.289	1.019	0.8815	1.3802	9.6192	1.3951	0.4597	2.8826	0.4758	-1.526	-0.1561	-0.2762	-0.024
-0.8611	-0.4309	9.6008	-0.0095	-1.2356	-0.2506	-0.3202	1.7771	-0.8045	1.5039	1.3113	9.5386	0.5695	0.9625	0.3084	0.9661	0.8799	1.3791	9.7397	1.6864	0.6335	2.5767	0.5776	-1.7334	-0.1381	-0.2702	-0.012
-0.745	-0.3158	9.6033	-0.3759	-1.053	-0.0895	-0.3199	1.7527	-0.7817	0.9811	1.4274	9.4713	0.539	0.7664	0.5442	1.0019	0.9042	1.3796	9.7378	1.4533	0.519	2.5775	0.4178	-1.5573	-0.1441	-0.2762	-0.036
-0.9784	-0.4884	9.5408	-0.5594	-0.905	0.1016	-0.2829	1.8244	-0.7825	1.2191	1.4853	9.8236	0.0466	0.8346	0.5819	0.949	0.9026	1.3785	10.0315	1.5694	0.5249	2.1526	0.2904	-1.3144	-0.1621	-0.2522	-0.03
-0.9772	-0.546	9.5982	-0.5273	-0.6629	0.207	-0.376	1.7539	-0.8497	0.9841	1.5431	9.6455	0.0105	0.5998	0.3495	0.9505	0.9721	1.3778	10.0331	1.162	0.5809	1.6038	-0.1406	-1.1786	-0.1561	-0.2642	-0.012
-0.9785	-1.0074	9.4821	-0.4673	-0.7003	0.3283	-0.2838	1.7774	-0.8035	0.9321	0.9662	9.9338	0.2242	0.6068	0.1316	0.9666	0.9031	1.3788	9.7299	1.5105	0.1204	0.9965	0.0769	-1.0701	-0.1561	-0.2582	-0.024
-1.2603	-0.8905	9.9366	-0.4321	-0.2631	0.229	-0.3572	1.8254	-0.8509	0.8183	1.7171	10.1067	-0.0539	0.4839	0.218	0.9681	0.9726	1.3781	9.7879	1.161	0.0637	0.4769	-0.1619	-1.1705	-0.1561	-0.2702	-0.006
-0.9731	-0.2571	9.8289	-0.5528	-0.047	0.2705	-0.3017	1.7529	-0.7812	1.1678	1.1971	10.1703	-0.2116	0.3403	0.0541	0.9488	0.9262	1.3355	9.8538	1.8023	0.4651	0.3256	-0.1646	-1.0464	-0.1621	-0.2702	-0.018
-1.2087	-0.4877	9.6512	-0.7307	0.3988	0.0474	-0.4113	1.7762	-0.8068	1.1623	1.4277	9.8805	0.0676	0.3281	0.2073	0.9839	0.9039	1.3578	9.7371	1.0457	0.4611	-0.2532	-0.253	-1.0155	-0.1561	-0.2762	-0.024
-0.5019	-0.4303	10.1252	-0.8211	0.8454	0.4395	-0.3394	1.7061	-0.8254	1.3359	1.6007	9.8839	-0.2161	-0.1254	0.117	1	0.8349	1.3589	9.733	1.6856	0.2917	-0.4372	-0.5284	-1.0284	-0.1441	-0.2522	-0.024
-0.9804	-0.6617	9.4254	-0.8794	1.1267	0.3927	-0.3364	1.7984	-0.7167	0.9885	1.3702	9.8773	-0.1826	0.1538	0.0729	1.0022	0.9039	1.4009	9.9686	1.2196	0.2951	-0.5321	-0.6389	-1.4023	-0.1501	-0.2702	-0.012
-0.98	-0.258	9.4839	-0.9082	1.2842	0.3395	-0.3567	1.7048	-0.7815	0.9268	1.832	9.7028	0.0338	0.2777	-0.0131	0.9487	0.9028	1.3571	9.6864	1.8618	0.9177	-0.7483	-0.7821	-1.6847	-0.1621	-0.2702	-0.018
-0.796	-0.4302	9.9469	-0.8767	1.4352	0.4093	-0.3191	1.7997	-0.7606	0.7544	1.4858	9.7573	0.3423	0.2726	-0.0149	0.9662	0.8328	1.4436	9.3831	1.2788	0.398	-0.5671	-0.7777	-1.8705	-0.1561	-0.2582	-0.018
-1.1493	-0.5453	9.7097	-0.8482	1.2174	0.4285	-0.3202	1.7771	-0.8045	1.3365	1.9472	9.9423	0.3424	0.5967	-0.3353	0.9489	0.8791	1.4	9.6802	1.3953	0.5747	-0.8413	-0.5243	-2.0088	-0.1441	-0.2702	-0.03
-0.8055	-0.316	9.4872	-0.3907	0.7675	0.0078	-0.3381	1.7525	-0.7822	1.1573	1.1964	9.5902	0.4717	1.1189	-0.333	0.9858	0.9732	1.3785	10.0804	1.3934	0.0129	-0.414	-0.3125	-2.0013	-0.1501	-0.2762	-0.03
-0.8649	-0.2583	9.4287	-0.2421	0.1263	-0.2099	-0.3397	1.8024	-0.8721	0.8712	1.6012	9.8175	1.0268	1.0773	-0.3072	0.9855	0.9263	1.4217	9.4969	1.6275	0.2301	-0.2324	-0.2783	-2.1547	-0.1441	-0.2702	-0.024
-0.9192	-0.4308	9.5996	-0.2454	-0.3027	-0.2944	-0.357	1.7291	-0.8043	0.994	1.0819	10.167	0.9062	1.4236	-0.4083	0.9853	0.95	1.3787	9.7368	1.2785	0.4616	-0.2014	-0.2806	-2.0936	-0.1501	-0.2522	-0.03
-1.1482	-0.4875	9.7674	-0.0653	-0.7634	-0.4101	-0.3386	1.7531	-0.8044	0.8622	1.3118	9.295	1.3113	1.6568	-0.2708	1.037	0.8818	1.4019	9.5003	1.5697	0.4009	-0.0499	-0.0913	-2.2695	-0.1621	-0.2762	-0.018
-0.8599	-0.4307	9.6583	-0.0967	-1.1174	-0.7674	-0.3384	1.7769	-0.8049	1.2252	1.6012	10.1719	1.3144	1.9673	-0.3127	1.0206	0.904	1.444	9.6801	1.4535	0.5749	-0.3187	0.0471	-1.7066	-0.1501	-0.2642	-0.018
-1.2646	-0.4297	9.7652	-0.1582	-1.3225	-0.9939	-0.3391	1.7537	-0.8266	1.1664	1.428	10.1126	1.5619	1.8296	-0.1054	0.9503	0.9253	1.4209	9.5632	0.8715	0.5712	-0.6849	0.1157	-1.8231	-0.1621	-0.2582	-0.018
-0.506	-0.6615	9.8947	-0.1623	-1.5822	-0.7312	-0.3562	1.7761	-0.7832	1.1583	1.2542	9.6483	1.2483	1.6317	-0.3653	0.9666	0.9031	1.3788	9.7956	1.2785	0.4628	-0.4995	0.0725	-1.4886	-0.1321	-0.2582	-0.024
-0.6248	-1.1229	9.7187	-0.4061	-1.5733	-0.8552	-0.3568	1.7529	-0.8048	0.691	1.7165	9.4665	1.2205	1.4557	0.0892	0.9671	0.9263	1.3786	9.8472	1.685	0.123	-0.1662	0.0448	-1.6772	-0.1441	-0.2642	-0.024
-0.926	-0.4892	9.2544	-0.1604	-1.2207	-0.5274	-0.3388	1.7293	-0.8038	0.9896	1.3125	9.9353	0.7229	1.1258	0.07	0.9489	0.9497	1.314	9.6741	1.8021	0.2909	-0.1048	0.0424	-1.6164	-0.1501	-0.2642	-0.018
-0.9751	-0.4304	9.7135	-0.4005	-0.7225	-0.533	-0.393	1.7282	-0.783	0.99	0.9661	9.9348	0.998	0.9059	0.0544	0.9676	0.9495	1.3784	10.0312	1.8022	0.5255	-0.6842	-0.0123	-1.676	-0.1501	-0.2702	-0.03
-0.9204	-0.4309	9.5421	-0.4279	-0.3225	-0.4811	-0.3196	1.8003	-0.7828	0.8134	1.4858	9.8163	0.2219	0.39	0.1486	0.9669	0.8794	1.4218	9.9673	1.4523	0.2387	-0.772	-0.0879	-1.218	-0.1561	-0.2762	-0.018
-0.5653	-0.6615	9.836	-0.09	0.0612	-0.1817	-0.3387	1.8012	-0.8277	1.0472	1.6011	9.9367	0.0953	0.1476	0.1023	0.9498	0.9021	1.4212	10.3203	1.1027	0.2445	-0.7693	-0.1612	-0.8528	-0.1621	-0.2702	-0.012
-1.0902	-0.43	9.7687	-0.2088	0.4933	-0.1286	-0.3383	1.7288	-0.7816	1.3893	1.0806	9.5942	0.1286	0.4929	-0.0306	1.0032	0.9503	1.4005	9.9721	1.1618	0.4658	-0.6172	-0.3183	-0.8007	-0.1501	-0.2582	-0.024
-0.805	0.0301	9.5455	-0.0265	0.5411	0.121	-0.319	1.7516	-0.7373	1.1562	1.254	9.5322	-0.3087	0.0389	-0.0582	0.9663	0.9033	1.3575	9.8554	1.395	0.5211	-0.9239	-0.3387	-1.0453	-0.1561	-0.2522	-0.018
-0.7972	-0.4303	9.8894	0.1888	0.5175	-0.094	-0.3196	1.8003	-0.7828	0.9847	1.8896	9.704	-0.1829	0.1876	0.013	1.0006	0.8815	1.3371	9.6739	0.987	0.2319	-0.9559	-0.4575	-1.1742	-0.1561	-0.2762	-0.024
-0.9713	-0.0263	9.9445	-0.3046	0.1185	-0.0264	-0.3372	1.7514	-0.7378	0.9263	1.37	9.6442	-0.0922	0.2274	-0.2021	0.951	0.9248	1.4636	10.0354	1.0459	0.6945	-0.8941	-0.0859	-1.2476	-0.1441	-0.2642	-0.012
-0.8083	-0.6623	9.3138	0.2739	-0.3416	-0.2624	-0.3753	1.7771	-0.8281	0.8136	1.3703	9.8162	0.1288	0.622	-0.1464	0.9675	0.926	1.3999	9.8498	1.336	0.2361	-0.498	0.1292	-1.3319	-0.1441	-0.2762	-0.024
-0.7505	-0.4895	9.3154	0.33	-0.958	-0.3258	-0.3563	1.7042	-0.7593	1.2163	1.1964	9.6492	0.2864	0.9929	-0.2161	1.0026	0.9742	1.3362	9.6234	1.6285	0.6881	-0.2534	0.28	-1.2953	-0.1501	-0.2522	-0.012
-0.8581	-0.1999	9.7738	0.2674	-1.257	-0.5266	-0.411	1.7518	-0.7841	1.0432	1.4854	9.7045	0.6903	1.2322	-0.2024	0.983	0.8809	1.3367	9.4981	1.5112	0.2868	-0.1356	0.2947	-1.7875	-0.1561	-0.2702	-0.018
-0.6286	-0.3737	9.6055	0.2657	-1.3847	-0.4412	-0.3388	1.8494	-0.851	0.8072	1.4854	9.4683	0.8774	1.5441	-0.3382	0.9847	0.9739	1.3145	9.3225	1.919	0.3414	-0.0766	0.2703	-2.0045	-0.1561	-0.2462	-0.018
-0.7366	-0.4878	10.0055	0.6031	-1.2951	-0.465	-0.3743	1.7278	-0.7603	1.2753	1.1964	9.7083	0.6014	1.5412	-0.1819	0.9488	0.9262	1.3355	9.7387	1.6281	0.5764	-0.1387	0.1815	-2.1008	-0.1381	-0.2762	-0.024
-0.6864	-0.5465	9.6039	-0.1003	-1.3449	-0.5337	-0.3568	1.7529	-0.8048	1.1057	2.0053	9.9963	0.665	1.7262	-0.2012	0.9665	0.8797	1.4004	9.7308	1.6853	0.1778	-0.0466	0.1777	-2.0095	-0.1321	-0.2642	0
-0.9802	-0.777	9.4251	-0.2507	-0.8902	-0.2952	-0.3394	1.778	-0.8493	1.0983	1.1964	9.5311	0.8466	1.5769	-0.367	0.984	0.9273	1.3363	9.9074	1.394	0.1804	0.0143	0.1772	-2.0101	-0.1621	-0.2522	-0.018
-0.799	-0.6612	9.7739	-0.0685	-0.9586	-0.2054	-0.3195	1.7522	-0.7595	0.9862	1.5433	9.7615	0.7537	1.5477	-0.3685	0.9485	0.8794	1.3787	9.7891	1.103	0.1205	-0.0458	0.2373	-1.945	-0.1561	-0.2762	-0.018
-1.0365	-0.546	9.5395	-0.1288	-0.8359	-0.1685	-0.3922	1.7752	-0.762	0.6996	1.4861	9.9303	1.0904	1.3268	-0.3844	0.9862	0.9258	1.4644	9.4975	1.1036	0.2289	-0.4099	0.0787	-1.7042	-0.1561	-0.2582	-0.036
-0.9188	-0.6614	9.5991	0.0276	-0.4368	-0.1461	-0.3378	1.8001	-0.7833	0.9795	1.8892	9.4139	1.1223	1.354	-0.3206	0.9851	0.9266	1.4003	9.323	1.4533	0.3403	-0.0137	-0.02	-1.6204	-0.1441	-0.2642	-0.024
-0.9791	-0.1425	9.5416	-0.0935	-0.078	0.1489	-0.3559	1.7518	-0.7604	1.106	1.7166	9.9959	0.7204	0.9105	0.056	0.9651	0.8335	1.3795	9.7917	1.7437	0.293	0.0486	-0.1197	-1.4108	-0.1741	-0.2582	-0.006
-0.7989	-0.1422	9.8326	-0.2144	-0.0384	-0.0034	-0.3567	1.7048	-0.7815	0.8648	1.774	9.4697	0.3461	0.514	0.094	0.9689	0.9722	1.4208	10.0278	1.86	0.3547	0.3518	-0.4925	-1.4019	-0.1621	-0.2702	0
-0.3446	-0.4904	9.266	-0.0273	0.3029	-0.0762	-0.3575	1.7297	-0.8265	1.2766	1.8317	9.8251	0.1296	0.261	0.2958	0.9671	0.9263	1.3786	9.9738	1.6278	0.5809	0.7464	-0.4284	-1.5863	-0.1501	-0.2702	-0.012
-1.0361	-0.7189	9.5391	-0.152	0.3181	0.2927	-0.3573	1.7535	-0.827	1.0411	1.4275	9.5884	-0.2674	0.3786	0.5537	0.969	0.9956	1.3993	9.7961	1.8025	0.521	1.3543	-0.1785	-1.855	-0.1501	-0.2642	-0.024
-1.0933	-0.6034	9.5957	-0.2406	0.66	0.2797	-0.3564	1.7524	-0.7826	0.9832	1.4276	9.5873	-0.4227	0.0616	0.7821	0.9859	0.9261	1.443	9.7347	1.22	0.3476	1.9341	-0.1565	-1.7356	-0.1621	-0.2822	-0.018
-1.0903	-0.3724	9.7688	-0.2409	0.716	0.4056	-0.3193	1.7759	-0.7601	0.9279	1.832	9.7609	-0.4838	0.2547	0.6397	1.0024	0.9273	1.3793	9.5607	1.1041	0.4579	2.0873	-0.13	-1.6432	-0.1501	-0.2702	-0.024
-0.6899	0.0297	9.4903	-0.0875	0.7463	0.3775	-0.3197	1.7765	-0.7823	0.9787	1.716	9.3557	-0.5151	0.1277	0.7248	0.9843	0.9036	1.3792	9.4473	1.3958	0.6842	2.8483	-0.2605	-1.6255	-0.1561	-0.2522	-0.018
-0.4029	-0.4326	9.265	-0.3336	0.6526	0.4631	-0.3196	1.8003	-0.7828	0.9903	1.6013	9.9937	-0.4874	0.2068	0.3572	0.9678	0.9729	1.3568	9.6831	1.745	0.7465	3.3979	0.0426	-1.6142	-0.1621	-0.2762	-0.03
-1.2103	-0.2572	9.5943	-0.5774	0.9233	0.6911	-0.4116	1.8005	-0.8296	0.6954	1.4858	9.6982	-0.0225	0.1562	0.6002	0.9689	0.9722	1.4208	9.7995	1.8029	0.6919	3.6428	-0.1212	-1.3787	-0.1561	-0.2702	-0.024
-0.8041	-0.4311	9.5444	-0.4868	0.6237	0.4605	-0.3747	1.8003	-0.8065	1.1017	1.8318	9.764	0.2853	0.2186	0.4787	0.95	0.9489	1.378	9.3897	1.3378	0.7399	3.9175	-0.0947	-1.3181	-0.1501	-0.2762	-0.012
-0.9788	-0.3155	9.5412	-0.4283	0.3438	0.4767	-0.3559	1.7518	-0.7604	1.0464	1.3701	9.8784	0.2525	0.1959	0.3221	0.9854	0.9734	1.3572	9.7937	1.9769	0.4075	3.974	0.0158	-1.8971	-0.1441	-0.2762	-0.018
-0.8576	-0.4305	9.7733	-0.309	-0.0265	0.4269	-0.3738	1.7992	-0.7621	1.044	1.6587	9.7627	0.3133	0.2317	0.1999	0.9663	0.9033	1.3575	9.6155	1.6857	0.2895	3.85	-0.0686	-2.1157	-0.1621	-0.2762	-0.03
-0.8567	-0.315	9.8311	-0.2165	0.006	0.3678	-0.3931	1.7763	-0.8064	1.1029	1.7164	9.8218	0.2214	0.198	0.2913	0.9844	0.9271	1.3576	9.5568	1.5694	0.2881	3.6311	-0.1384	-2.7632	-0.1381	-0.2582	-0.012
-0.8613	-0.3156	9.601	-0.0972	-0.2481	0.4779	-0.3209	1.7538	-0.8261	1.1021	1.4854	9.7635	0.2237	0.2519	0.45	0.9509	0.9719	1.3991	9.8597	1.5119	0.7493	3.4158	-0.0345	-3.0636	-0.1441	-0.2942	-0.018
-0.3505	-0.4334	8.9786	-0.0659	-0.3015	0.2908	-0.3384	1.7769	-0.8049	0.8189	1.313	10.1062	0.3751	0.0678	0.3753	0.9504	0.9487	1.3994	9.9115	1.8021	0.4093	3.2639	0.0284	-3.0591	-0.1501	-0.2522	-0.018
-0.5126	-0.2586	9.6081	-0.1609	-0.5837	0.398	-0.3197	1.7765	-0.7823	0.8692	1.5433	9.7014	0.3131	0.0704	0.3447	0.9307	0.9025	1.3354	9.8495	1.6853	0.237	3.262	0.1295	-3.3305	-0.1441	-0.2702	-0.03
-0.7431	-0.7192	9.6599	-0.0965	-0.1849	0.4505	-0.3194	1.8241	-0.7834	0.6916	1.1968	9.4658	0.2544	0.1546	0.5367	0.9495	0.9257	1.3782	10.0746	1.5674	-0.2715	2.68	0.179	-3.7537	-0.1561	-0.2702	-0.024
-0.9141	-0.1418	9.8878	-0.063	0.1246	0.4366	-0.3573	1.7535	-0.827	1.1033	1.4277	9.8215	-0.0864	0.2001	0.3549	1.0027	0.9271	1.4007	9.732	1.6272	0.2346	2.0976	0.0418	-4.1251	-0.1441	-0.2642	-0.03
-0.6361	-0.6629	9.2023	-0.4286	0.2836	0.4427	-0.3755	1.7533	-0.8275	0.8199	1.313	10.1642	-0.1501	-0.0494	0.4321	0.9855	0.9263	1.4217	10.1443	1.8016	0.2998	1.9432	0.0202	-4.3709	-0.1621	-0.2642	-0.006
-0.8677	-0.6047	9.2553	-0.4905	0.2212	0.4697	-0.3381	1.7525	-0.7822	1.1552	1.254	9.4742	-0.2428	0.0182	0.3438	0.9499	0.9255	1.3996	9.7936	2.0933	0.4077	1.3308	-0.2437	-4.6256	-0.1561	-0.2822	-0.036
-0.5774	-0.3746	9.2616	-0.1531	0.3109	0.446	-0.3384	1.7769	-0.8049	0.9915	1.4859	10.0515	-0.1473	0.0998	0.535	1.001	0.8812	1.3584	9.966	1.6268	0.1821	1.084	-0.7926	-4.7444	-0.1501	-0.2642	-0.018
-0.7898	-1.2367	10.175	0.8569	0.4492	0.5213	-0.3383	1.8007	-0.8055	1.1051	1.6011	9.9377	-0.2373	0.5117	0.3449	1.0017	0.8807	1.4011	9.6719	1.8018	0.1769	0.4807	-0.7476	-4.0607	-0.1561	-0.2702	-0.03
-1.1471	-0.4874	9.8249	-0.425	0.9184	0.7533	-0.3383	1.7288	-0.7816	1.2218	1.832	9.9981	-0.2097	0.2667	0.2977	0.9157	0.9708	1.3984	9.8545	1.162	0.4636	0.4481	-1.0521	-4.1685	-0.1441	-0.2702	-0.018
-0.8544	-0.8914	9.8872	0.0632	0.7593	0.7172	-0.2832	1.7287	-0.758	0.9926	1.3705	10.1094	-0.1479	0.3302	0.2395	1.0027	0.9271	1.4007	9.8566	1.3369	0.5779	0.0794	-1.0987	-4.5369	-0.1441	-0.2642	-0.024
-0.7407	-0.7766	9.7748	-0.4256	0.7979	0.6854	-0.3381	1.7525	-0.7822	0.9855	1.2545	9.7031	0.2209	0.3301	0.1136	0.9668	0.9265	1.3573	9.6178	1.5696	0.4031	-0.26	-0.9849	-5.1124	-0.1501	-0.2642	-0.03
-0.6934	-0.5474	9.2589	-0.273	0.7357	0.6523	-0.3381	1.7525	-0.7822	0.9881	1.6589	9.8777	-0.3017	0.4281	0.1845	0.9665	0.9502	1.3143	9.6164	1.8605	0.3469	-0.1707	-0.9778	-5.3588	-0.1381	-0.2702	-0.03
-0.8041	-0.4311	9.5444	-0.3012	0.8387	0.4425	-0.3565	1.8005	-0.806	0.7511	1.6588	9.5835	-0.2384	0.4517	0.3099	1.0205	0.9511	1.3795	9.9141	1.3949	0.5222	0.0117	-0.8215	-5.4751	-0.1621	-0.2642	-0.018
-0.8596	-0.6037	9.6579	0.7975	0.7528	0.6601	-0.3196	1.8003	-0.7828	1.16	1.543	9.7647	-0.1132	0.5388	0.3771	0.968	0.9492	1.3997	9.6833	1.6286	0.7462	0.2523	-0.8743	-5.8181	-0.1501	-0.2702	-0.03
-0.8034	-0.777	9.5436	-0.3656	0.6149	0.6145	-0.3379	1.7282	-0.7594	1.333	1.4273	9.7096	0.3478	0.5709	0.1908	0.9845	0.88	1.4221	9.6185	1.9772	0.4611	0.2775	-1.0107	-6.3789	-0.1681	-0.2642	-0.036
-0.7479	-0.6045	9.4301	-0.3041	0.5582	0.489	-0.3554	1.8231	-0.7622	1.221	1.6009	9.9398	0.1631	0.5403	0.2517	0.9853	0.95	1.3787	9.7846	1.1606	-0.1072	0.7672	-0.8678	-6.1602	-0.1561	-0.2702	-0.018
-0.9721	-0.1994	9.8865	-0.4575	0.6441	0.677	-0.3577	1.826	-0.8731	0.8165	1.5438	9.9905	0.0682	0.2928	0.2982	0.9844	0.9271	1.3576	9.8562	1.6862	0.5788	0.9543	-0.6985	-5.7224	-0.1381	-0.2702	-0.018
-0.8551	0.0312	9.9469	-0.5188	0.6728	0.7396	-0.3393	1.7299	-0.826	0.4607	2.1211	9.5789	0.036	0.2349	0.2325	0.9134	0.9017	1.3564	9.7923	1.2198	0.2917	1.1988	-0.7353	-5.6033	-0.1441	-0.2822	-0.03
-0.8644	-0.4889	9.4281	0.4004	0.877	0.7564	-0.3381	1.7525	-0.7822	0.5835	1.6595	9.9284	0.3166	0.2811	0.4515	0.9482	0.8796	1.3573	9.8496	1.5689	0.2367	1.6269	-0.5264	-5.5037	-0.1501	-0.2822	-0.03
-0.8685	-0.2011	9.2563	-0.3077	0.5057	0.9472	-0.3565	1.7286	-0.7821	1.0411	1.4275	9.5884	0.1932	0.2832	0.4522	1.0021	0.8805	1.4225	9.8493	1.8599	0.2374	2.085	-0.4727	-5.3817	-0.1501	-0.2882	-0.024
-0.864	-0.7196	9.4276	-0.3091	0.2633	0.842	-0.3381	1.8245	-0.8061	1.0408	1.6584	9.5887	0.1052	0.4908	0.6524	0.9676	0.9495	1.3784	9.3225	1.8608	0.3413	2.5122	-0.511	-5.2642	-0.1501	-0.2822	-0.036
-1.0896	-0.7183	9.768	0.5162	0.0468	0.6205	-0.3381	1.7525	-0.7822	0.9851	1.6009	9.7036	0.0463	0.6411	0.7556	0.95	0.9489	1.378	9.5093	1.5126	0.8565	3.0926	-0.2409	-5.1934	-0.1561	-0.2642	-0.042
-0.9737	-0.5455	9.7707	-0.584	0.0653	0.5222	-0.3216	1.7788	-0.8711	0.8738	1.2549	9.9331	-0.0464	0.5458	0.843	1.0036	0.95	1.4218	9.3947	1.9206	1.0261	3.7061	-0.2945	-4.6477	-0.1501	-0.2762	-0.018
-0.6952	-0.2016	9.2022	-0.2171	0.0311	0.492	-0.3215	1.7306	-0.8477	1.0471	1.6589	9.9368	0.0493	0.6919	0.9762	0.9851	0.9266	1.4003	9.7322	1.4526	0.2342	4.2003	-0.2319	-3.849	-0.1501	-0.2642	-0.024
-1.0907	-0.1994	9.7692	-0.4612	-0.0202	0.334	-0.321	1.7301	-0.8255	1.1603	1.3121	9.7644	-0.6006	0.5506	0.939	0.9668	0.9265	1.3573	9.859	1.1625	0.6915	4.4144	-0.0809	-3.8121	-0.1441	-0.2822	-0.03
-0.7904	-0.3718	10.2346	-0.5172	0.6255	0.4297	-0.3741	1.7516	-0.7609	0.8676	1.1967	9.585	-0.1408	0.1017	1.125	0.948	0.8562	1.3789	9.4959	1.5109	0.1729	4.5699	0.0619	-3.4985	-0.1561	-0.2822	-0.012
-0.8631	-0.6041	9.4853	-0.4553	0.9497	0.7548	-0.3931	1.7763	-0.8064	0.8703	1.5434	9.7594	-0.576	-0.2	1.1384	0.9846	0.9034	1.4005	9.9153	1.395	0.5792	4.3595	0.2722	-3.2706	-0.1321	-0.2762	-0.03
-1.2128	-0.7189	9.4206	-0.3924	1.2222	0.862	-0.3552	1.775	-0.7388	0.9326	1.3704	9.9923	-0.7957	-0.6329	1.2354	1.0026	0.9742	1.3362	9.7354	1.5694	0.4054	4.5165	0.4715	-2.8003	-0.1501	-0.2702	-0.03
-0.9195	-0.3155	9.5999	-0.0551	1.3692	0.9335	-0.3373	1.7995	-0.7611	1.0988	1.6584	9.5897	-0.7682	-0.7151	1.0126	0.9493	0.9494	1.3353	9.8496	1.5689	0.2367	4.4913	0.7329	-2.2945	-0.1501	-0.2762	-0.012
-0.6238	-0.4884	9.8353	1.0784	1.6588	1.0485	-0.3744	1.776	-0.7837	1.1623	1.37	9.8805	-0.7714	-0.9273	0.9367	0.9665	0.8797	1.4004	9.966	1.5686	0.182	4.3976	0.7118	-2.5716	-0.1621	-0.2642	0
-0.9844	-0.3738	9.2536	0.9825	1.1385	0.9586	-0.2844	1.7542	-0.8252	1.2167	1.7161	9.7079	-1.1107	-0.9538	0.9676	0.9675	0.926	1.3999	9.7919	1.6273	0.2927	4.1909	1.2517	-2.0498	-0.1621	-0.2582	-0.006
-0.4499	-0.7772	9.7805	0.281	1.0723	0.5817	-0.3568	1.7529	-0.8048	0.981	1.4851	9.4714	-1.0457	-0.6136	0.9273	1.0209	0.9508	1.4008	9.6132	1.7436	0.1757	3.7659	1.1561	-1.8361	-0.1561	-0.2762	-0.03
-0.8621	-0.4887	9.5431	0.155	0.642	0.5579	-0.3207	1.7776	-0.8267	0.8089	1.7742	9.5847	-1.2011	-0.5727	0.7755	0.9329	0.9716	1.3774	9.8504	1.8019	0.2942	3.0044	1.226	-1.8877	-0.1561	-0.2822	-0.03
-0.9804	-0.6617	9.4254	0.4312	0.5868	0.3415	-0.338	1.7763	-0.7827	1.0419	0.7923	9.5876	-0.9863	-0.4412	0.5347	0.9482	0.8796	1.3573	9.2672	1.8031	0.5109	2.0928	1.1008	-1.5793	-0.1441	-0.2882	-0.024
-0.9207	-0.8346	9.4836	0.4616	0.4688	0.2125	-0.3557	1.7756	-0.761	1.3414	1.3701	10.1737	-0.9259	-0.4362	0.4105	1.0201	0.8808	1.4442	9.5534	1.6271	0.1173	1.4894	1.0526	-0.8696	-0.1441	-0.2822	-0.036
-1.5017	-0.4874	9.5304	0.4611	0.3203	0.0816	-0.3389	1.7775	-0.8271	1.1061	1.6589	9.9958	-0.7697	-0.4156	0.5664	0.9849	0.9502	1.3574	9.6645	1.4515	-0.2227	1.3386	0.9854	-0.6567	-0.1561	-0.2882	-0.012
-1.097	-1.0651	9.3646	0.9814	0.2003	-0.1366	-0.3202	1.7771	-0.8045	1.1042	1.5433	9.8796	-0.061	-0.2294	0.2958	1.0022	0.9039	1.4009	9.8	1.3954	0.6909	0.3011	0.6576	-0.7267	-0.1621	-0.2822	-0.042
-0.9156	0.031	9.8307	0.95	0.1949	-0.0142	-0.3757	1.7295	-0.8269	0.4651	1.1397	9.7516	-0.1242	-0.3513	0.2882	0.9325	0.9013	1.4421	9.6686	1.7432	0.0059	-0.0936	0.406	-0.4599	-0.1501	-0.2822	-0.024
-0.7356	-0.43	10.0631	0.953	0.4769	-0.0913	-0.3391	1.7537	-0.8266	1.1074	1.428	10.0535	-0.1852	-0.321	0.3215	0.9675	0.926	1.3999	9.4369	1.6856	0.1722	-0.4255	0.3027	-0.032	-0.1501	-0.2882	-0.018
-0.9214	0.088	9.5433	0.8023	0.58	-0.2711	-0.3739	1.7754	-0.7615	1.2785	1.1389	9.8822	-0.6523	-0.7468	0.358	0.9841	0.8802	1.4008	9.7354	1.5694	0.4054	-1.248	0.0913	0.0559	-0.1441	-0.2882	-0.03
-1.0429	-0.7774	9.1939	0.5309	1.0743	-0.185	-0.3754	1.7052	-0.8042	1.5069	1.3693	9.7127	-0.562	-0.7055	0.1119	0.9673	0.9497	1.357	9.8501	2.1512	0.2951	-1.9179	0.1277	0.0633	-0.1561	-0.2762	-0.018
-1.1039	-0.4893	9.0785	0.5328	1.0578	-0.4932	-0.3376	1.8239	-0.7839	0.8706	1.3124	9.7591	-0.6238	-0.9963	0.4037	0.9479	0.9033	1.3144	9.9085	1.4524	0.2375	-2.2809	-0.1917	0.5109	-0.1381	-0.2822	-0.036
-0.69	-0.4893	9.4316	0.2911	1.2253	-0.7009	-0.3212	1.7063	-0.8249	0.8114	1.4279	9.7002	-0.746	-0.902	0.4104	0.9676	0.9495	1.3784	10.0293	1.5109	0.4108	-2.7383	-0.1859	0.4534	-0.1561	-0.2822	0
-0.9857	-0.3163	9.1962	0.3851	1.6753	-0.4303	-0.3386	1.7531	-0.8044	1.1626	1.9474	9.9392	-0.7761	-0.5804	0.1521	0.9856	0.9498	1.4001	9.9039	1.5683	0.0099	-2.9199	-0.4076	0.6894	-0.1561	-0.2702	-0.018
-0.856	-0.6609	9.8302	0.3865	1.7722	-0.5174	-0.3204	1.7533	-0.8039	1.5693	1.1963	9.9455	-0.6878	-0.8541	0.0407	0.9494	0.9023	1.3998	10.0848	1.4522	0.2409	-2.8635	-0.6097	0.2479	-0.1621	-0.2822	-0.018
-0.8093	-0.7201	9.2562	0.2651	1.8957	-0.4808	-0.3746	1.7522	-0.7831	1.2185	1.9472	9.8242	-0.5955	-0.7896	-0.0487	0.9846	0.9034	1.4005	9.7359	2.0935	0.4636	-3.1391	-0.8208	0.1777	-0.1501	-0.2822	-0.03
-0.9121	-1.1219	9.8855	0.2649	2.0399	-0.2579	-0.3025	1.7059	-0.8023	0.9251	1.5431	9.5864	-0.3477	-0.7015	-0.0441	0.9829	0.8575	1.3583	10.0956	1.8029	0.8114	-3.049	-1.1611	0.19	-0.1441	-0.2522	-0.024
-1.2093	-0.7761	9.593	0.3574	2.1312	-0.2524	-0.3745	1.704	-0.7598	1.3345	1.0809	9.7672	-0.195	-0.5997	-0.2865	0.9838	0.8804	1.3794	9.5013	1.6863	0.4581	-3.2941	-0.8405	-0.1295	-0.1621	-0.2642	-0.018
-0.8603	-0.8344	9.5998	0.444	1.7469	0.0042	-0.3202	1.7771	-0.8045	1.0959	1.4849	9.4155	-0.3771	-0.578	-0.0359	1.0013	0.9281	1.3153	9.4934	1.7435	0.0595	-3.1731	-1.0886	-0.1127	-0.1441	-0.2762	-0.018
-1.1	-0.7195	9.2504	0.3512	1.6541	0.0293	-0.3565	1.8005	-0.806	1.1014	2.0628	9.7643	0.118	-0.3665	-0.1175	0.9851	0.9266	1.4003	9.3858	1.8613	0.5703	-3.5705	-1.0169	-0.321	-0.1381	-0.2702	-0.018
-0.9758	-0.0845	9.7143	0.3817	1.5949	-0.0351	-0.3207	1.7776	-0.8267	0.8733	1.6014	9.9336	0.2674	-0.3463	-0.5826	0.9676	0.9495	1.3784	9.0903	2.3272	0.5088	-3.5429	-1.0688	-0.6314	-0.1561	-0.2822	-0.024
-0.9748	0.031	9.7721	0.0457	1.4565	-0.2906	-0.3028	1.7302	-0.825	0.63	1.6008	9.2912	0.4315	-0.0057	-0.0334	0.9661	0.8799	1.3791	9.7396	1.8028	0.6338	-3.7247	-1.2588	-0.4245	-0.1501	-0.2882	-0.036
-1.0919	-0.1419	9.7119	-0.1672	1.3503	-0.605	-0.3015	1.7767	-0.7818	1.046	1.7165	9.8788	0.2767	-0.1629	0.0813	1.0024	0.9273	1.3793	9.743	1.8033	0.8047	-3.2379	-0.9791	-0.6292	-0.1561	-0.2642	-0.024
-0.6274	-0.4312	9.6629	-0.504	1.3517	-0.5456	-0.2838	1.7774	-0.8035	1.2186	1.8895	9.8242	0.2147	-0.1604	0.0507	0.9856	0.9498	1.4001	9.5053	2.0943	0.687	-2.9094	-1.1756	-1.3186	-0.1621	-0.2822	-0.018
-0.8055	-0.316	9.4872	-0.598	1.1635	-0.4641	-0.358	1.7303	-0.8487	1.0965	1.8314	9.4739	0.2127	-0.2481	-0.0482	0.9663	0.9033	1.3575	9.9191	1.9777	0.8085	-2.5755	-0.9552	-1.5558	-0.1441	-0.2702	-0.024
-0.8591	-0.8343	9.6573	-0.3851	1.1241	-0.3419	-0.3202	1.7771	-0.8045	0.7572	0.9663	9.8726	-0.215	-0.2928	0.3856	0.985	0.9031	1.4219	9.5039	2.3852	0.6307	-1.7575	-0.8511	-2.1413	-0.1381	-0.2822	-0.024
-1.0934	0.0309	9.6548	-0.5106	0.8143	-0.2978	-0.3578	1.7541	-0.8492	0.9387	1.4863	10.3405	-0.1235	-0.3221	0.3211	0.9307	0.9025	1.3354	10.0291	1.6855	0.4112	-1.4825	-0.5755	-2.16	-0.1561	-0.2822	-0.012
-0.8006	-0.4307	9.7169	-0.3279	0.7194	-0.3017	-0.3391	1.7537	-0.8266	0.8142	1.7168	9.8747	-0.1826	-0.1058	0.3355	1.0385	0.9514	1.4012	9.9658	1.8015	0.1825	-1.3282	-0.0835	-2.1664	-0.1621	-0.2762	-0.018
-1.0299	-0.3722	9.885	-0.4521	0.6506	-0.1218	-0.3391	1.7537	-0.8266	0.6963	1.6591	9.7565	-0.5549	-0.0567	0.092	0.9851	0.9266	1.4003	9.6255	1.687	0.8022	-1.48	-0.0842	-2.1037	-0.1501	-0.2642	-0.03
-0.5196	-0.2018	9.2632	-0.3627	0.663	0.2483	-0.3017	1.7529	-0.7812	1.163	0.8503	9.8798	-0.4911	-0.1006	0.3372	0.9675	0.926	1.3999	9.3198	2.268	0.2283	-1.1187	-0.3216	-2.488	-0.1681	-0.2822	-0.03
-0.926	-0.4892	9.2544	-0.3933	0.7796	0.408	-0.3384	1.7769	-0.8049	0.8729	1.1394	9.8749	-0.2806	-0.2736	0.0145	0.984	0.8568	1.4223	9.2038	1.919	0.2822	-1.2119	-0.2822	-2.7312	-0.1501	-0.2822	-0.006
-1.0908	-0.7184	9.7105	-0.5113	1.2748	0.4338	-0.2828	1.7763	-0.7591	1.3345	1.8893	9.8262	-0.2844	-0.4505	-0.1522	0.9305	0.8791	1.357	9.6197	1.9191	0.5179	-1.1822	-0.4988	-2.7119	-0.1501	-0.2822	-0.018
-0.9742	-0.3149	9.7712	-0.5096	1.4025	0.3484	-0.3752	1.8009	-0.8286	0.9281	0.7926	9.7015	-0.0673	-0.7843	0.2908	1.0021	0.951	1.3364	9.6726	2.1512	0.2347	-1.1869	-0.5744	-3.2386	-0.1381	-0.2702	-0.018
-1.0863	-0.6602	9.9406	-0.5391	1.4101	0.1949	-0.3391	1.7537	-0.8266	1.164	1.6588	9.9969	-0.4986	-0.6173	0.1794	0.9855	0.9263	1.4217	9.8531	2.3844	0.4665	-1.0038	-0.5462	-3.2078	-0.1561	-0.2822	-0.036
-1.0326	-0.7185	9.7116	-0.571	1.5475	0.5709	-0.3389	1.7775	-0.8271	1.2114	1.8312	9.418	-0.6851	-0.9645	0.4061	0.9675	0.926	1.3999	9.5599	1.8026	0.4595	-1.1245	-0.6433	-3.0274	-0.1501	-0.2762	-0.012
-0.6947	-0.4322	9.2017	-0.5414	1.4237	0.5645	-0.2838	1.7774	-0.8035	1.0978	1.6583	9.5317	-0.4049	-0.754	0.4185	1.0024	0.9273	1.3793	9.4389	1.9188	0.2867	-0.7291	-0.3629	-3.2313	-0.1561	-0.2882	-0.018
-0.6293	-0.6044	9.5475	-0.5707	1.5489	0.5403	-0.3397	1.7304	-0.8482	1.1087	1.2549	10.1113	-0.4054	-0.6541	0.2698	0.9499	0.9255	1.3996	9.5566	1.744	0.2885	-0.6068	-0.3659	-3.171	-0.1561	-0.2762	-0.024
-1.2627	-0.2564	9.8806	-0.6647	1.3901	0.6541	-0.337	1.7752	-0.7384	1.1077	1.197	10.0532	-0.5864	-0.4756	0.4685	0.983	0.8809	1.3367	9.4388	1.977	0.2868	-0.3312	-0.4366	-2.9616	-0.1501	-0.2942	-0.012
-0.7408	-0.719	9.7749	-0.6956	1.4464	0.7799	-0.3748	1.7284	-0.7825	1.2797	1.8319	9.9992	-0.7422	-0.6928	0.5482	0.9683	0.9961	1.3566	9.7384	1.9191	0.5771	-0.1762	-0.5738	-2.5703	-0.1561	-0.2822	-0.024
-0.9735	-0.6608	9.7704	-0.5112	1.363	0.5307	-0.3382	1.6806	-0.7583	1.0494	1.4858	10.0526	-0.9568	-0.4679	0.4396	1.0024	0.9273	1.3793	9.4427	1.5117	0.4566	-0.1444	-0.3914	-2.4996	-0.1501	-0.2582	-0.024
-0.5167	0.0869	9.4364	-0.6329	1.5719	0.7255	-0.3041	1.7557	-0.8922	1.2213	1.37	9.9395	-0.7399	-0.6712	0.7359	0.9659	0.9036	1.3361	9.7894	1.8017	0.1792	0.1628	-0.4355	-2.1661	-0.1621	-0.2942	-0.018
-0.7435	-0.4886	9.6604	-0.5698	1.7297	0.6422	-0.3585	1.6589	-0.8469	1.1012	1.3698	9.7054	-0.7411	-0.6006	0.5542	1.003	0.9034	1.4436	9.8528	1.6857	0.4079	0.164	-0.4087	-2.0418	-0.1561	-0.2762	-0.03
-1.154	-0.4882	9.4799	-0.6947	1.3654	0.5296	-0.283	1.7525	-0.7586	1.0935	1.7157	9.2997	-0.4602	-0.5236	0.7753	0.9495	0.9257	1.3782	9.379	1.9187	0.2286	0.1693	-0.1475	-1.5362	-0.1621	-0.2822	-0.03
-1.2101	-0.3725	9.594	-0.5727	1.2741	0.4641	-0.3193	1.7759	-0.7601	1.1552	1.254	9.4742	-0.9253	-0.6666	0.706	0.967	0.9028	1.4002	9.7959	1.9771	0.5214	0.3228	-0.2788	-1.3291	-0.1501	-0.2822	-0.018
-0.9149	-0.3149	9.8299	-0.4507	1.2417	0.4631	-0.302	1.7772	-0.804	1.1054	1.3701	9.9374	-0.8968	-0.7533	0.576	0.9674	0.9731	1.3354	9.615	2.0932	0.2905	0.5639	-0.1459	-1.6931	-0.1501	-0.2822	-0.012
-1.0328	-0.6609	9.7118	-0.2714	0.659	0.3101	-0.3567	1.7767	-0.8054	1.3309	1.4271	9.5936	-0.7093	-0.6057	0.6469	1.0205	0.9511	1.3795	9.2079	2.2106	0.5108	0.7484	0.065	-1.5914	-0.1681	-0.2822	-0.024
-1.3913	-0.4307	9.2454	-0.1808	0.4756	0.2394	-0.3201	1.7289	-0.7811	1.1033	1.4277	9.8215	-0.649	-0.4701	0.376	0.9495	0.9257	1.3782	9.727	2.0924	0.0079	0.9615	0.345	-1.7323	-0.1501	-0.2702	-0.024
-1.1512	-0.1419	9.6532	-0.0615	0.2215	0.3495	-0.32	1.8008	-0.805	0.9874	1.4278	9.8194	-0.6109	-0.083	0.6494	1.0369	0.9289	1.3374	9.3177	2.1513	0.1141	0.9324	0.1835	-1.4945	-0.1561	-0.2762	-0.018
-0.6901	-0.4316	9.4317	-0.001	0.1002	0.282	-0.3928	1.752	-0.7836	0.9264	1.3122	9.6442	-0.4542	0.0651	0.7204	1.0029	0.9505	1.3791	9.0863	1.8609	0.2798	1.0842	0.1842	-1.5572	-0.1561	-0.2882	-0.012
-1.1632	-0.4893	9.0198	-0.0303	0.1092	0.0979	-0.3206	1.7295	-0.8033	0.9316	1.3703	9.9343	0.1609	0.1607	0.4444	0.9845	0.88	1.4221	9.1991	2.0931	0.0548	0.8998	0.2234	-1.7689	-0.1681	-0.2762	-0.012
-1.156	-0.0848	9.4233	-0.1203	0.2381	0.012	-0.3387	1.8012	-0.8277	1.3354	2.0049	9.8844	0.2235	0.3179	0.3612	0.986	0.9495	1.4214	9.7426	2.0943	0.8054	1.0546	-0.0696	-1.3242	-0.1501	-0.2762	-0.012
-0.6884	-0.1431	9.5474	-0.3045	0.0611	-0.1216	-0.3009	1.7999	-0.7602	1.1056	1.2546	9.9373	-0.0859	0.1325	0.4747	1.0024	0.9273	1.3793	9.6236	1.4538	0.6877	1.0862	-0.2931	-1.0901	-0.1681	-0.2762	-0.012
-0.9194	0.2035	9.6586	-0.208	0.4108	-0.3482	-0.3202	1.7771	-0.8045	0.8186	1.4862	10.1064	0.467	0.2967	0.0793	0.9487	0.9028	1.3571	9.7913	2.093	0.2938	0.7205	-0.5083	-1.006	-0.1621	-0.2762	-0.042
-0.6269	-0.6618	9.6623	-0.5769	0.2864	-0.2343	-0.3564	1.7524	-0.7826	0.9873	1.4856	9.8195	0.5592	0.2967	0.0478	1.019	0.8815	1.3802	9.9046	1.9177	0.0678	0.8121	-0.2282	-1.1152	-0.1501	-0.2822	-0.024
-0.8602	-0.8921	9.5997	-0.4254	0.1007	-0.274	-0.2816	1.7508	-0.692	1.3343	2.0048	9.8264	0.6565	0.4675	0.3069	0.9663	0.9033	1.3575	9.6154	1.7439	0.2896	0.7847	-0.2398	-0.7466	-0.1441	-0.2882	-0.03
-0.7446	-0.5464	9.6028	-0.485	0.3734	-0.1368	-0.3567	1.7048	-0.7815	0.9877	2.0053	9.8782	0.0089	0.38	0.4283	0.9844	0.9271	1.3576	9.4977	1.9187	0.2878	0.9992	-0.0589	-0.6774	-0.1621	-0.2762	-0.024
-0.8045	-0.8348	9.4859	-0.2124	0.2364	0.0728	-0.3394	1.778	-0.8493	1.1593	1.2543	9.7063	0.253	0.2912	0.2662	0.967	0.9028	1.4002	9.6683	1.976	0.0065	1.0885	-0.2394	-0.8413	-0.1441	-0.2702	-0.03
-0.8617	-0.1426	9.6015	-0.1233	-0.0439	0.0891	-0.2834	1.7049	-0.7574	0.984	1.6008	9.6456	0.1936	0.3462	0.4253	1.0021	0.8805	1.4225	9.7386	1.7445	0.5767	0.7545	-0.2405	-0.7156	-0.1441	-0.2702	-0.018
-1.2164	-0.6616	9.2483	-0.2139	0.1395	0.1598	-0.3369	1.7271	-0.715	1.1616	1.1389	9.8221	-0.1123	0.5343	0.4699	0.9671	0.9263	1.3786	9.7339	1.8604	0.3491	0.9654	-0.296	-0.9662	-0.1561	-0.2762	-0.024
-0.6927	-0.8933	9.2581	-0.0597	0.2624	0.1366	-0.321	1.7301	-0.8255	1.4539	1.6007	10.002	-0.3306	0.4517	0.3414	0.9331	0.9479	1.4203	9.3215	1.8025	0.2842	0.6596	-0.1635	-1.1721	-0.1321	-0.2882	-0.018
-0.6866	-0.4889	9.6041	-0.0608	0.139	0.13	-0.3562	1.7761	-0.7832	1.1622	1.4854	9.8806	-0.5168	0.2981	0.3943	0.9855	0.9263	1.4217	9.7906	1.8018	0.2361	0.4443	-0.122	-1.4449	-0.1501	-0.2762	-0.012
-0.8602	-0.3154	9.6585	-0.0019	-0.1968	0.0202	-0.357	1.7291	-0.8043	1.2702	1.1383	9.4181	0.0729	0.3684	0.6446	0.9681	0.9726	1.3781	9.6215	2.2687	0.6327	0.5672	-0.1587	-1.2941	-0.1501	-0.2882	-0.018
-0.6836	-0.8345	9.7183	-0.092	0.0483	0.0942	-0.2835	1.7531	-0.7808	1.2737	0.8498	9.5918	0.1301	0.6482	-0.0516	0.9853	0.95	1.3787	9.1974	1.6853	-0.0602	0.3543	-0.4398	-1.1225	-0.1561	-0.2642	-0.024
-1.3309	-0.4305	9.3615	-0.1556	-0.1418	0.2066	-0.2842	1.778	-0.8257	0.6367	1.2548	9.6389	0.4361	0.4923	-0.1252	0.9846	0.9034	1.4005	9.7404	2.094	0.6915	0.2616	-0.4023	-1.3043	-0.1561	-0.2762	-0.024
-1.4999	-0.2565	9.646	-0.214	-0.0355	-0.0648	-0.3031	1.7546	-0.8478	0.9862	1.5433	9.7615	0.8384	0.5763	-0.0905	0.9663	0.9033	1.3575	9.7392	2.1521	0.6346	0.078	-0.3661	-1.4239	-0.1501	-0.2702	-0.018
-0.7363	-0.6608	10.0051	-0.3978	-0.0066	0.0278	-0.3386	1.7531	-0.8044	1.1023	1.3699	9.7634	0.651	0.461	-0.1903	0.9679	0.9258	1.4213	9.3271	1.8032	0.569	-0.2231	-0.2205	-1.0756	-0.1501	-0.2822	-0.024
-1.0373	-0.1424	9.5405	-0.1517	0.2327	0.1344	-0.3012	1.7523	-0.759	1.5114	1.0809	9.9444	0.0983	0.3936	0.1183	1.0024	0.9273	1.3793	9.7338	1.9768	0.3494	0.0817	-0.1615	-1.075	-0.1681	-0.2762	-0.012
-1.0353	-0.5458	9.597	-0.2717	0.3663	-0.0436	-0.3377	1.752	-0.76	1.0475	1.3702	9.9364	0.1273	0.0443	0.3128	0.9489	0.8791	1.4	9.6731	1.7437	0.2338	-0.0383	0.0827	-0.9691	-0.1381	-0.2822	-0.024
-0.6906	-0.7777	9.3734	-0.3653	0.1516	-0.0557	-0.3381	1.7525	-0.7822	0.8703	1.4857	9.7594	-0.1515	0.0872	0.1616	0.949	0.9026	1.3785	9.6137	2.2677	0.2339	-0.1316	-0.253	-1.0473	-0.1501	-0.2882	-0.03
-0.9202	-0.5462	9.5418	-0.3934	0.459	-0.0087	-0.34	1.7548	-0.871	0.9821	1.4275	9.5293	-0.0851	0.194	0.4787	0.9654	0.8804	1.3364	9.6723	1.3943	0.176	-0.3428	-0.3841	-0.7449	-0.1621	-0.3062	-0.018
-1.3246	-0.6604	9.6485	-0.1491	0.3956	-0.0413	-0.3009	1.7999	-0.7602	1.2184	1.1965	9.7653	-0.0857	0.2939	0.33	0.9659	0.9036	1.3361	9.6759	2.2098	0.4058	-0.1293	-0.3562	-0.7144	-0.1561	-0.2762	-0.024
-1.0906	-0.8337	9.7102	0.0946	0.1823	-0.174	-0.3022	1.7535	-0.8034	1.5013	1.6576	9.423	-0.085	0.3231	0.3629	0.9835	0.9041	1.3365	9.567	1.4542	0.8005	0.174	-0.4789	-0.8155	-0.1441	-0.2822	-0.03
-1.1481	-0.5452	9.7672	-0.0627	-0.2226	-0.0738	-0.3206	1.7295	-0.8033	1.1012	1.3698	9.7054	0.3777	0.8023	-0.1358	1.0024	0.9273	1.3793	9.5639	2.2107	0.6884	0.3848	-0.3775	-1.1502	-0.1681	-0.3002	-0.006
-0.6901	-0.4316	9.4317	0.1205	-0.4308	-0.2989	-0.3017	1.7529	-0.7812	0.8745	1.486	9.9914	0.3564	0.8879	0.6461	0.9487	0.9028	1.3571	9.8483	1.6852	0.18	0.4177	-0.1683	-0.9551	-0.1501	-0.2762	-0.03
-1.3284	-0.4879	9.4764	0.0561	-0.8002	-0.3191	-0.338	1.7763	-0.7827	1.567	1.3694	9.8297	-0.294	1.3011	-0.0072	0.9848	0.9268	1.379	9.5002	1.6861	0.4012	0.265	-0.5094	-0.8486	-0.1441	-0.2702	-0.03
-0.742	-0.6614	9.7175	0.2096	-0.7978	-0.4102	-0.3564	1.7524	-0.7826	1.216	1.4273	9.6495	0.8159	1.4146	-0.1911	0.968	0.9492	1.3997	9.3261	1.6866	0.5118	0.3558	-0.5082	-0.9108	-0.1441	-0.2822	-0.03
-0.9179	-0.5459	9.6568	-0.0964	-0.8247	-0.4136	-0.2835	1.7531	-0.7808	1.3946	1.8317	9.9432	1.3094	1.2112	0.0107	0.9825	0.8578	1.337	9.6275	1.9201	0.9167	0.5385	-0.6348	-0.8574	-0.1501	-0.2762	-0.03
-1.0383	-0.7769	9.424	-0.1563	-0.7285	-0.4703	-0.3744	1.776	-0.7837	1.3395	1.2545	10.0575	0.7483	0.4689	0.2444	1.0188	0.9052	1.3372	9.2741	1.6293	0.8523	0.846	-0.5549	-0.5482	-0.1561	-0.2702	-0.024
-1.0282	-0.6603	9.9418	-0.3086	-0.4899	-0.2434	-0.3197	1.7765	-0.7823	1.337	1.543	9.9418	0.3442	0.2635	0.1708	1.0029	0.9505	1.3791	9.623	1.9778	0.6889	1.178	-0.6402	-0.8629	-0.1561	-0.2882	-0.018
-1.0426	-0.9504	9.1935	-0.3055	-0.1491	-0.2558	-0.3197	1.7765	-0.7823	1.3325	1.7737	9.7101	0.6214	0.1958	0.1962	1.0029	0.9505	1.3791	9.5054	1.9779	0.6867	1.3907	-0.3582	-1.0652	-0.1621	-0.2762	-0.03
-1.0341	-0.5457	9.6545	-0.3675	-0.0378	0.0263	-0.3193	1.7759	-0.7601	0.8678	1.8319	9.6438	-0.0585	-0.0464	0.3388	1.002	0.9276	1.358	9.9172	1.6864	0.6938	1.3923	-0.114	-0.991	-0.1441	-0.2882	-0.024
-1.0907	-0.7761	9.7103	-0.3954	0.3004	0.075	-0.3554	1.8231	-0.7622	0.8154	1.6014	9.9325	-0.4544	0.1312	0.6316	0.9665	0.8797	1.4004	10.0294	2.4424	0.47	1.7937	-0.0447	-0.3757	-0.1501	-0.2702	-0.024
-1.6135	-0.429	9.7583	-0.4593	0.2251	0.3779	-0.3378	1.8001	-0.7833	0.6984	1.6015	9.8724	-0.3017	-0.0589	0.6806	0.9674	0.9026	1.4215	9.8573	1.6863	0.6358	1.9489	0.0365	-0.0653	-0.1561	-0.2882	-0.012
-0.9757	-0.1421	9.7142	-0.2141	0.1381	0.1904	-0.3381	1.7525	-0.7822	0.9798	1.6583	9.4136	-0.3999	-0.1607	0.2708	0.9856	0.9498	1.4001	9.2637	1.9191	0.3403	1.9776	0.2307	-0.3629	-0.1621	-0.2882	-0.018
-0.9207	-0.8346	9.4836	-0.2154	0.1589	0.4067	-0.3007	1.8237	-0.7608	0.8131	1.7745	9.8167	-0.1188	0.0454	0.3761	0.9844	0.9271	1.3576	9.6694	2.0344	0.0636	1.5477	0.1855	-0.7615	-0.1501	-0.2882	-0.024
-0.8093	-0.7201	9.2562	-0.1518	0.2901	0.2297	-0.32	1.6808	-0.7578	0.9839	1.7163	9.6457	-0.0548	0.2933	0.3298	0.9497	0.9492	1.3567	8.6746	2.1525	0.2727	1.4225	0.0118	-1.077	-0.1621	-0.2822	-0.018
-0.9782	-0.6037	9.5405	-0.3327	0.4259	0.0207	-0.3391	1.7537	-0.8266	1.0413	1.312	9.5882	0.1651	0.5957	0.3795	0.9143	0.9247	1.3775	9.0849	2.1519	0.2236	1.0857	-0.1035	-1.2339	-0.1501	-0.2822	-0.012
-1.1489	-0.1416	9.7682	-0.272	0.3929	0.05	-0.3375	1.7758	-0.7605	1.2731	1.3117	9.5924	0.475	0.7458	0.3568	0.9498	0.9021	1.4212	9.3837	1.7446	0.456	0.5033	-0.6476	-1.4112	-0.1741	-0.2642	-0.018
-1.0959	-1.065	9.4221	-0.3329	0.3083	-0.1086	-0.3015	1.7767	-0.7818	1.1635	1.2546	9.9383	0.1047	0.818	0.2701	1.0024	0.9273	1.3793	9.501	1.9773	0.4588	0.078	-0.773	-1.2298	-0.1441	-0.2822	-0.018
-1.2087	-0.4877	9.6512	-0.0573	0.2488	-0.2329	-0.3186	1.7992	-0.7385	1.3965	1.1389	10.0004	0.3222	1.2615	-0.0436	0.949	0.9026	1.3785	9.7369	2.2101	0.5208	-0.0119	-0.9032	-0.9898	-0.1441	-0.2822	-0.006
-0.9242	-0.2584	9.37	-0.0619	-0.2462	-0.2287	-0.3573	1.6334	-0.7798	0.8793	0.9666	10.2228	0.8762	1.1277	-0.0238	0.9312	0.9257	1.3352	9.6129	1.9765	0.1762	0.1691	-0.7728	-1.2613	-0.1621	-0.2882	-0.03
-0.9728	-0.4301	9.8285	0.0905	-0.4555	-0.4234	-0.3199	1.7527	-0.7817	1.1585	1.1387	9.6481	0.5402	1.4101	-0.0039	0.985	0.9737	1.3358	9.4956	1.802	0.1736	0.1703	-0.4958	-1.2469	-0.1501	-0.2882	-0.012
-1.1603	-0.2007	9.193	0.3919	-1.0412	-0.545	-0.3573	1.7535	-0.827	0.696	1.8901	9.7568	0.6667	1.8154	-0.1333	0.9302	0.8793	1.3356	9.3767	1.9766	0.1148	0.17	-0.4006	-1.3342	-0.1561	-0.2822	-0.03
-0.9784	-0.4884	9.5408	0.7241	-1.7127	-0.8247	-0.3188	1.7754	-0.7379	1.0402	1.3119	9.5302	1.0339	1.5309	-0.1224	0.9681	0.9726	1.3781	9.4998	2.0354	0.402	0.3262	-0.1358	-0.9834	-0.1621	-0.2822	-0.024
-0.7982	-0.4881	9.8318	0.4194	-1.4104	-0.5953	-0.2657	1.7538	-0.8025	1.2729	1.4849	9.5926	1.1936	1.9896	-0.0933	0.967	0.9028	1.4002	9.4976	1.9769	0.2879	0.1138	-0.3245	-0.807	-0.1561	-0.2762	-0.036
-0.9858	-0.2587	9.1963	0.6306	-1.6069	-0.42	-0.3753	1.7771	-0.8281	1.4471	1.196	9.5954	0.8256	2.148	-0.0503	0.9308	0.9259	1.3138	9.562	1.9193	0.5738	-0.0638	-0.4369	-0.1349	-0.1501	-0.2942	-0.024
-0.8048	-0.6619	9.4864	0.6026	-1.3274	-0.436	-0.3368	1.799	-0.7389	0.9314	1.4858	9.9345	0.9145	1.8067	-0.0419	0.9851	0.9266	1.4003	9.5054	1.9779	0.6867	-0.1535	-0.8807	0.2732	-0.1561	-0.2822	-0.03
-1.0361	-0.7189	9.5391	0.1789	-0.6533	-0.1875	-0.303	1.7065	-0.8245	1.0485	1.3703	9.9944	1.8702	1.7277	-0.0203	1.0027	0.9271	1.4007	9.9722	2.0352	0.5249	0.3337	-1.4793	0.5456	-0.1501	-0.2762	-0.018
-1.1472	-0.4298	9.825	0.0942	-0.053	-0.4325	-0.3033	1.7308	-0.8472	1.1004	2.005	9.7062	1.1589	1.2939	0.2652	0.9506	0.925	1.4423	9.4432	2.0357	0.5148	0.758	-1.4125	0.2688	-0.1741	-0.3062	-0.018
-0.7981	-0.5457	9.8317	-0.0568	0.3105	-0.2296	-0.3745	1.704	-0.7598	1.0486	1.3125	9.9943	0.6623	0.9272	0.3678	0.9839	0.9039	1.3578	9.7394	1.9775	0.6342	1.274	-1.2224	-0.033	-0.1381	-0.2822	-0.024
-1.2056	-0.891	9.7653	0.0055	0.4625	-0.1904	-0.3021	1.8254	-0.8273	0.9873	1.4856	9.8195	0.4735	0.5905	0.3778	1.0196	0.9281	1.3583	9.9679	1.9182	0.2967	1.8827	-1.3824	-0.0155	-0.1441	-0.2642	-0.042
-0.5714	-0.4892	9.5489	-0.2395	0.551	-0.0335	-0.2828	1.7763	-0.7591	0.988	0.9082	9.8187	0.1948	0.5029	0.3734	1.0032	0.9503	1.4005	9.9146	1.9771	0.5806	2.0666	-0.9502	-0.0868	-0.1621	-0.2882	-0.024
-0.8691	-0.4895	9.1981	-0.2104	0.3949	-0.011	-0.3564	1.7524	-0.7826	1.2148	1.6005	9.5917	0.104	0.139	0.909	0.9495	0.9257	1.3782	9.8503	1.9183	0.2945	2.4672	-0.471	0.2423	-0.1621	-0.2882	-0.018
-1.5003	-0.6026	9.5877	0.2795	0.4224	-0.0678	-0.2824	1.7757	-0.7369	0.9266	1.139	9.6439	-0.4197	0.3721	0.7402	0.9674	0.9026	1.4215	9.8535	2.0351	0.4657	2.9212	-0.4641	-0.0992	-0.1501	-0.2822	-0.024
-0.806	-0.662	9.4288	0.3968	-0.1359	-0.0662	-0.2841	1.8018	-0.8263	1.277	1.4852	9.8247	0.052	1.004	0.9034	0.9497	0.9492	1.3567	9.4987	2.0353	0.345	3.0715	-0.4575	-0.3461	-0.1501	-0.2942	-0.018
-0.5683	-0.3159	9.7218	0.546	-0.5698	-0.0884	-0.3201	1.7289	-0.7811	0.9882	1.6011	9.8776	0.4302	1.7387	0.8874	1.0015	0.9044	1.3582	9.2637	1.9191	0.3403	3.1347	-0.3418	-0.1254	-0.1621	-0.2822	-0.03
-0.7374	-0.6609	9.9475	0.697	-1.0495	-0.4512	-0.357	1.7291	-0.8043	1.3819	1.1956	9.1882	1.2095	2.6941	0.6355	0.9679	0.9258	1.4213	9.5603	1.4534	0.4587	3.0133	-0.5928	0.0471	-0.1561	-0.2882	-0.042
-1.2049	-0.6602	9.8233	0.8486	-1.2925	-0.5862	-0.3012	1.7523	-0.759	1.3953	1.2543	9.9425	1.822	3.0292	-0.1217	1.0191	0.9049	1.3586	9.7358	2.2099	0.4639	2.3112	-0.6118	-0.1327	-0.1561	-0.2762	-0.012
-1.0367	-0.4307	9.5398	0.2968	-1.2072	-0.2779	-0.3765	1.7544	-0.8719	0.8685	1.3123	9.6431	2.5886	2.3877	0.1125	0.9849	0.9502	1.3574	9.333	1.4546	0.853	2.828	-1.1759	0.0183	-0.1561	-0.2762	-0.03
-0.8602	-0.3154	9.6585	0.2402	-0.9144	-0.5699	-0.3381	1.7525	-0.7822	1.1646	1.2546	9.9963	1.292	2.0252	0.4053	0.9142	0.9012	1.3991	9.5595	2.1519	0.4604	3.4979	-1.1816	0.0125	-0.1381	-0.2882	-0.006
-1.0341	-0.5457	9.6545	-0.1206	-0.084	-0.3741	-0.3571	1.7773	-0.8276	1.277	1.4852	9.8247	1.4917	0.3446	0.6366	0.9666	0.9031	1.3788	9.8536	1.9769	0.4655	3.1294	-1.4168	-0.2427	-0.1501	-0.2762	-0.024
-0.6907	-0.1434	9.4324	-0.4183	0.8454	-0.3263	-0.3399	1.7067	-0.8476	1.447	1.2537	9.5955	0.4064	-0.7791	1.2826	0.9674	0.9026	1.4215	9.969	1.8601	0.3536	2.5509	-1.2561	-0.2911	-0.1621	-0.2882	-0.024
-1.0954	-0.719	9.4805	-0.5973	1.6046	0.0206	-0.3399	1.7067	-0.8476	0.7586	1.4861	9.9893	-0.8256	-1.1239	1.8246	0.9665	0.8797	1.4004	10.136	2.2081	-0.098	2.3693	-1.3528	-0.1102	-0.1561	-0.2942	-0.012
-1.031	-0.3723	9.8275	-0.0741	2.2019	0.3325	-0.321	1.802	-0.8494	0.8772	1.0242	10.1069	-1.6413	-1.9225	1.4038	0.9665	0.8797	1.4004	10.0289	1.8602	0.4117	1.7307	-1.1945	-0.066	-0.1621	-0.2882	-0.018
-0.7448	-0.4311	9.6031	-0.5011	2.7383	0.881	-0.3017	1.7529	-0.7812	0.9871	1.6588	9.8197	-1.9813	-1.946	1.3727	0.9499	0.9255	1.3996	9.972	2.2098	0.5253	1.1513	-0.9048	-0.2922	-0.1501	-0.2822	-0.018
-1.2035	-0.7754	9.8805	-0.106	2.6879	1.1882	-0.3378	1.8001	-0.7833	1.038	1.4273	9.4143	-1.6773	-1.8977	0.9088	1.0029	0.9505	1.3791	9.5526	2.3257	0.119	0.1427	-0.6632	-0.8249	-0.1441	-0.2762	-0.024
-1.1014	-0.6043	9.1932	0.0201	3.1476	1.2444	-0.3014	1.7286	-0.7585	1.1624	1.3122	9.8804	-1.6449	-1.9381	1.0923	1.0022	0.9039	1.4009	9.6809	1.7447	0.6325	-0.5907	-0.9291	-0.9864	-0.1441	-0.2822	-0.024
-0.9845	-0.3162	9.2537	0.0471	2.9786	1.5428	-0.3197	1.7765	-0.7823	1.2792	1.4276	9.9406	-1.1507	-1.4301	0.6263	0.9839	0.9039	1.3578	9.7419	1.7449	0.7476	-0.9831	-1.002	-0.5258	-0.1501	-0.2642	-0.024
-1.0969	-0.5461	9.4234	-0.0114	2.851	0.9824	-0.284	1.7536	-0.803	1.6259	1.4271	9.8889	-0.8073	-1.2927	0.851	1.0196	0.9281	1.3583	8.9066	1.9189	0.1057	-1.438	-1.1311	-0.2213	-0.1681	-0.2822	-0.03
-1.3222	-0.1412	9.8223	0.0229	2.9913	0.6213	-0.3394	1.778	-0.8493	1.1019	1.6586	9.7638	-1.1465	-1.4498	1.0286	0.9313	0.8786	1.3997	9.6125	2.3258	0.1771	-1.4098	-1.06	-0.5253	-0.1561	-0.2702	-0.036
-1.0423	-0.489	9.2521	0.1436	2.6884	0.4522	-0.2847	1.7786	-0.8479	1.2185	1.1388	9.7652	-0.9604	-1.1656	0.8289	0.9846	0.9034	1.4005	9.5615	2.385	0.5749	-1.9884	-0.805	-0.6303	-0.1621	-0.2882	-0.012
-0.8617	-0.1426	9.6015	0.3571	2.449	0.2256	-0.3191	1.7997	-0.7606	1.1624	1.3122	9.8804	-0.4696	-1.2908	0.6944	0.9845	0.88	1.4221	9.4405	1.5114	0.3427	-2.0219	-1.2623	-0.7768	-0.1441	-0.3002	-0.024
-1.0893	-0.3146	9.8264	0.4768	2.0815	0.1145	-0.2828	1.7763	-0.7591	1.5056	1.6002	9.655	-0.2808	-0.6945	0.4218	1.0014	0.9515	1.2937	9.3789	2.0351	0.2289	-2.72	-1.0777	-0.5771	-0.1621	-0.2882	-0.03
-1.2777	-0.2582	9.1331	0.0783	1.9927	0.1379	-0.3567	1.7767	-0.8054	0.8759	1.1973	10.0491	-0.7803	-1.0477	0.2459	1.0017	0.8807	1.4011	9.2035	2.1519	0.2828	-2.8729	-0.8551	-0.7487	-0.1441	-0.2822	-0.012
-0.8588	-0.4306	9.7158	0.0185	2.0315	-0.0141	-0.3192	1.7278	-0.7367	1.1035	1.2545	9.8213	0.4281	-1.2887	0.9699	0.9845	0.88	1.4221	9.5585	2.0935	0.4033	-2.1979	-0.5044	-0.3363	-0.1681	-0.2882	-0.03
-1.2572	-0.7171	10.1095	-0.1924	2.4044	0.0045	-0.2666	1.7068	-0.8235	0.6921	1.6588	9.5244	-1.9594	-2.0992	0.7107	0.9839	0.9039	1.3578	9.8545	2.1517	0.5229	-2.226	-0.2629	-0.1697	-0.1561	-0.2762	-0.036
-1.1494	-0.4877	9.7099	-0.0681	2.532	-0.1108	-0.3388	1.7293	-0.8038	1.1042	1.5433	9.8796	-1.7411	-2.4714	1.3064	0.9308	0.9259	1.3138	9.6731	1.6855	0.2336	-1.4933	0.0059	-0.1002	-0.1501	-0.2822	-0.024
-0.9774	-0.4307	9.5985	0.0239	2.7073	0.0836	-0.2832	1.8488	-0.8052	1.4501	1.3117	9.7696	-2.64	-2.8576	1.3164	1.0021	0.8805	1.4225	9.9742	2.2683	0.6394	-1.4922	0.3772	-0.1424	-0.1621	-0.2882	-0.018
-1.2134	-0.4306	9.4213	0.1774	2.6508	-0.0721	-0.3208	1.7057	-0.8028	1.162	1.6009	9.8808	-2.9784	-2.9533	1.498	0.9674	0.9026	1.4215	9.5017	2.3267	0.5167	-1.6425	0.5899	-0.0072	-0.1561	-0.2822	-0.024
-0.9757	-0.1421	9.7142	0.4812	2.4883	0.0134	-0.3017	1.7529	-0.7812	1.0378	1.6005	9.4146	-3.2578	-3.0701	1.4607	0.984	0.9273	1.3363	9.6737	2.1513	0.2917	-2.2165	0.2952	0.6894	-0.1501	-0.2702	-0.024
-1.15	-0.1994	9.7106	0.3873	2.3589	0.1595	-0.3026	1.754	-0.8256	1.0446	1.139	9.762	-2.7371	-3.159	1.2041	1.0009	0.8578	1.38	9.7911	2.3259	0.2944	-2.7929	0.0719	1.0822	-0.1621	-0.2942	-0.024
-1.2051	-0.5449	9.8236	0.2954	2.5337	0.4141	-0.319	1.7516	-0.7373	1.3953	1.312	9.9426	-3.1973	-3.2279	1.5122	1.0041	0.9732	1.4216	9.2052	1.6281	0.3385	-3.28	0.0125	1.1446	-0.1381	-0.2942	-0.024
-1.0933	-0.0267	9.6546	0.874	2.1029	0.2104	-0.32	1.8008	-0.805	1.0484	1.428	9.9945	-2.061	-3.0937	0.8948	0.9312	0.9257	1.3352	9.9629	2.3251	0.0699	-3.4658	0.1827	0.6938	-0.1561	-0.2762	-0.018
-0.8594	-0.719	9.6576	1.2741	2.3475	0.1646	-0.2833	1.7769	-0.7813	1.3319	1.4272	9.6516	-2.3659	-2.8133	0.9455	0.985	0.9031	1.4219	9.5532	1.8018	0.1177	-3.4998	0.1967	0.2643	-0.1561	-0.2822	-0.03
-0.9796	-0.4886	9.4833	0.9703	2.5394	0.1115	-0.3024	1.7297	-0.8029	1.2785	1.9473	9.9413	-1.9305	-2.3825	0.8163	0.984	0.9273	1.3363	9.6728	1.9766	0.2343	-3.9278	0.0811	0.1388	-0.1441	-0.2822	-0.018
-0.8612	-0.3732	9.6009	0.7864	2.2477	-0.2127	-0.3207	1.7776	-0.8267	1.2688	1.4269	9.3605	-1.4932	-1.6689	0.5813	0.949	0.9026	1.3785	9.7366	2.4429	0.5214	-4.3822	0.1069	0.4206	-0.1561	-0.2762	-0.018
-1.3342	-0.4886	9.1889	0.5718	2.0725	-0.3771	-0.303	1.7065	-0.8245	1.392	1.4273	9.7687	-1.6175	-1.4027	0.2266	0.949	0.9026	1.3785	9.6731	1.6855	0.2336	-4.7775	0.0448	0.5436	-0.1621	-0.2882	-0.024
-0.8656	-0.4891	9.3706	-0.0073	2.1798	-0.5288	-0.2846	1.7304	-0.8246	0.9853	1.4277	9.7034	-0.6907	-1.2952	0.2294	0.9663	0.9033	1.3575	9.4889	1.8011	-0.1682	-4.534	-0.2382	0.6499	-0.1681	-0.2822	-0.03
-0.8606	-0.6615	9.6002	-0.3138	2.0338	-0.6308	-0.3199	1.7527	-0.7817	0.9223	2.0626	9.4711	-0.4426	-1.2409	0.2939	0.9668	0.9265	1.3573	9.32	2.1516	0.228	-4.2001	-0.6122	0.6892	-0.1501	-0.2762	-0.018
-1.2119	-0.0268	9.5373	-0.0139	1.5836	-0.3456	-0.2662	1.7544	-0.8247	1.0985	1.8893	9.59	-0.5676	-1.0038	-0.0938	0.9839	0.9039	1.3578	9.4355	1.9765	0.1159	-4.663	-0.5222	-0.0711	-0.1621	-0.2942	-0.012
-1.096	-0.4307	9.4811	0.1706	1.4134	-0.7224	-0.284	1.7536	-0.803	1.1619	1.7164	9.8809	-1.0226	-0.61	0.2134	0.9656	0.8567	1.3793	9.9675	2.2674	0.2976	-4.8177	-0.4803	-0.3751	-0.1621	-0.2882	-0.012
-1.2668	-0.4876	9.6501	0.1041	0.8266	-0.7235	-0.3212	1.7063	-0.8249	1.0442	1.4854	9.7625	-1.2369	-0.1593	-0.0979	1.0199	0.9045	1.4013	9.8567	2.2102	0.637	-5.0933	-0.6289	-0.4728	-0.1621	-0.2762	-0.012
-1.507	-0.7187	9.2424	-0.1099	0.8588	-0.6924	-0.3383	1.8007	-0.8055	1.3975	1.1967	10.0584	-0.6171	-0.4106	0.4108	0.9643	0.8106	1.3584	9.6193	2.2684	0.5187	-5.002	-0.5354	-0.5302	-0.1621	-0.2762	-0.018
-1.1006	-0.4313	9.2511	0.1636	0.7569	-0.5731	-0.3011	1.7042	-0.7357	1.2707	1.5425	9.4767	-0.4629	0.0738	-0.0862	0.9676	0.9495	1.3784	9.4978	1.8023	0.2875	-4.9101	-0.945	-0.2755	-0.1501	-0.2822	-0.012
-0.918	-0.4883	9.657	-0.0209	0.7815	-0.3886	-0.3568	1.7529	-0.8048	1.274	1.4273	9.6506	-0.4011	0.1696	-0.1734	0.9309	0.8788	1.3783	9.6205	2.2103	0.5756	-4.8818	-0.8431	-0.5779	-0.1561	-0.2882	-0.012
-1.0971	-0.4308	9.4236	-0.356	0.7945	-0.5745	-0.3198	1.7046	-0.7584	1.0423	1.3698	9.6463	0.0621	0.0942	-0.0562	0.967	0.9734	1.3141	9.7892	1.9763	0.1796	-4.2778	-0.7968	-1.2262	-0.1441	-0.2882	-0.024
-1.1501	-0.1418	9.7107	-0.3879	0.6406	-0.5829	-0.3013	1.8005	-0.7824	1.1557	1.6582	9.5328	0.1301	0.8433	-0.2562	0.9308	0.9259	1.3138	10.0341	2.2684	0.6975	-4.4284	-0.7081	-1.0666	-0.1561	-0.2642	-0.018
-1.616	-0.3139	9.6436	-0.0848	0.415	-0.4701	-0.3555	1.7994	-0.7616	0.9833	1.3698	9.5873	-0.2737	0.7008	-0.3568	0.9839	0.9039	1.3578	9.7307	1.8017	0.1781	-4.0609	-0.1871	-1.0733	-0.1621	-0.2882	-0.012
-1.2095	-0.0841	9.6522	-0.6955	0.6036	-0.3717	-0.2835	1.7531	-0.7808	1.2188	0.9078	9.7649	0.587	0.8951	-0.8448	1.0196	0.9281	1.3583	9.7927	1.9185	0.3504	-3.6656	-0.4069	-1.0572	-0.1501	-0.2822	-0.012
-0.9772	-0.546	9.5982	-0.1154	0.561	-0.2781	-0.3214	1.6825	-0.8244	1.3857	1.4268	9.4206	0.9919	0.7396	-0.329	0.9834	0.8807	1.3581	10.2088	1.6858	0.5855	-3.5123	-0.5689	-0.8516	-0.1501	-0.2822	-0.018
-1.2576	-0.4865	10.1101	-0.1439	0.7493	-0.3296	-0.3195	1.7522	-0.7595	1.6857	1.6004	10.0062	-0.0879	0.7592	-0.3538	0.9839	0.9039	1.3578	9.6152	1.9186	0.29	-2.9647	-0.7899	-0.8368	-0.1681	-0.2822	-0.03
-1.336	-0.1428	9.1322	-0.0495	1.0566	-0.3126	-0.3388	1.7293	-0.8038	0.8644	1.2543	9.411	0.341	0.3109	-0.1676	1.0025	0.8802	1.4438	9.9773	2.4433	0.8107	-1.9938	-0.7526	-1.304	-0.1621	-0.2882	-0.018
-0.8657	-0.4314	9.3707	-0.1092	1.5323	0.1121	-0.3565	1.7286	-0.7821	1.0457	1.0813	9.82	0.0867	0.0257	-0.5576	0.9659	0.9036	1.3361	9.564	2.1525	0.6882	-1.6313	-0.6813	-1.703	-0.1621	-0.2822	-0.024
-1.4965	-0.7751	9.7598	-0.1992	1.923	0.3783	-0.3203	1.7052	-0.7806	1.3365	1.1388	9.8833	-0.2804	-0.4042	0.1613	1.002	0.9276	1.358	10.0307	2.3262	0.5267	-1.3529	-0.7004	-1.1836	-0.1561	-0.2762	-0.024
-1.0862	-0.7179	9.9405	-0.1707	1.9964	0.7819	-0.3199	1.7527	-0.7817	1.0515	1.486	10.1686	-1.0538	-0.6403	0.2115	0.9668	0.9265	1.3573	9.9685	2.3258	0.3547	-1.3514	-0.6437	-1.0269	-0.1441	-0.2702	-0.024
-1.1503	-0.0265	9.711	0.2567	2.2484	1.2285	-0.3368	1.799	-0.7389	1.2732	1.1962	9.5923	-1.3333	-1.049	0.4656	0.9844	0.9271	1.3576	9.8437	1.801	-0.0476	-1.1663	-0.4666	-0.8347	-0.1621	-0.2942	-0.024
-1.155	-0.546	9.4222	-0.0503	2.2731	1.443	-0.3024	1.7297	-0.8029	1.1622	1.4854	9.8806	-1.1531	-1.2889	0.2629	0.9669	0.8794	1.4218	9.6725	2.2094	0.2349	-0.8286	-0.511	-0.5015	-0.1621	-0.2822	-0.012
-1.2146	-0.4307	9.3638	-0.0178	2.4313	1.3594	-0.3567	1.7767	-0.8054	1.2785	1.1966	9.8823	-1.6762	-1.3508	0.4476	0.9663	0.9033	1.3575	9.6766	2.5593	0.4636	-0.4041	-0.2258	-0.8592	-0.1561	-0.3002	-0.024
-0.7359	-0.8337	10.0046	-0.3852	2.5493	1.5785	-0.3012	1.7523	-0.759	1.2773	1.312	9.8245	-1.2734	-1.2037	0.4553	1.0015	0.9044	1.3582	9.1482	2.0359	0.4523	-0.162	-0.347	-0.9904	-0.1441	-0.2942	-0.024
-1.035	-0.7188	9.5966	-0.292	2.6156	1.4597	-0.3198	1.7046	-0.7584	0.9865	1.3123	9.7612	-1.1478	-1.2164	0.6712	0.9654	0.8804	1.3364	9.3188	2.2097	0.1712	0.1419	-0.3159	-1.0835	-0.1561	-0.2882	-0.006
-1.2168	-0.4887	9.2487	-1.0869	2.7729	1.6167	-0.2653	1.7533	-0.7803	0.9223	1.3119	9.4121	-0.9265	-0.8556	0.7869	1.0017	0.8807	1.4011	9.2638	1.8027	0.34	0.6019	-0.7077	-0.5234	-0.1741	-0.2942	-0.018
-1.0907	-0.1994	9.7692	-1.3004	2.6917	1.4266	-0.3366	1.7746	-0.7162	0.9887	1.197	9.8771	-0.8297	-0.585	0.8972	1.0014	0.881	1.3798	9.5588	1.8025	0.4026	0.9669	-0.7713	-0.5605	-0.1681	-0.2942	-0.024
-0.7514	-0.6049	9.2576	-1.3928	2.543	1.3258	-0.2828	1.7763	-0.7591	1.2117	1.5425	9.4176	-0.1526	-0.4597	0.6228	0.9824	0.8343	1.3585	9.6136	2.3259	0.2341	0.9073	-0.745	-0.4049	-0.1621	-0.2942	-0.012
-1.3238	-0.4873	9.7064	-1.3678	2.0404	1.4835	-0.3386	1.7531	-0.8044	1.1618	1.7741	9.881	0.497	-0.4797	0.8048	1.0195	0.9047	1.3799	9.2611	2.2681	0.2272	1.5162	-0.9684	-0.3292	-0.1561	-0.2642	-0.018
-1.5076	-0.4304	9.2431	-1.1876	1.6384	1.4324	-0.2839	1.7055	-0.7796	1.2767	1.7739	9.8251	-0.3691	-0.8755	1.0004	0.9839	0.9039	1.3578	9.4391	1.7441	0.2863	2.0062	-0.5447	-0.2189	-0.1501	-0.2942	-0.006
-1.2098	-0.4878	9.5937	-0.9446	1.4208	1.3916	-0.3018	1.801	-0.8046	1.2163	1.1964	9.6492	0.4966	-0.5749	0.8608	0.9489	0.8791	1.4	9.61	1.6268	0.0045	2.2169	-0.756	-0.4161	-0.1441	-0.2702	-0.018
-1.3903	-0.3729	9.303	-0.3676	1.1256	1.5947	-0.2483	1.6589	-0.7997	0.9874	1.4278	9.8194	-0.7114	-1.2126	1.0731	1.002	0.9276	1.358	9.3778	2.035	0.1719	2.4003	-0.1968	-0.6038	-0.1681	-0.2882	-0.024
-1.0941	-0.7765	9.5378	0.274	0.9968	1.5304	-0.302	1.7772	-0.804	1.0485	1.3703	9.9944	-0.8972	-1.0114	0.8076	1.0015	0.9044	1.3582	9.7842	2.4414	-0.0472	2.0698	0.0702	-0.1875	-0.1561	-0.2702	-0.006
-1.3291	-0.7186	9.4183	0.2108	0.9552	1.7737	-0.3196	1.7284	-0.7589	1.1576	1.0232	9.5899	-0.8054	-1.3018	1.0367	1.0012	0.8575	1.4014	9.6194	2.152	0.5185	1.951	0.2787	0.0703	-0.1441	-0.2942	-0.018
-0.9734	-0.7185	9.7703	-0.0291	1.3386	1.5775	-0.3025	1.7778	-0.8262	1.1011	1.4853	9.7055	-0.8017	-0.962	1.0278	1.0015	0.9044	1.3582	9.7959	1.9771	0.5214	2.0104	0.159	-0.0594	-0.1501	-0.2822	-0.024
-1.2693	-0.4302	9.5352	0.3068	1.1858	1.4485	-0.3199	1.7527	-0.7817	1.1559	1.485	9.5325	-0.4365	-1.2374	0.8529	1.0017	0.8807	1.4011	9.9598	2.0918	-0.1016	1.6142	0.1634	-0.0867	-0.1441	-0.2942	-0.018
-0.9727	-0.4878	9.8283	0.1235	1.0146	1.1923	-0.3188	1.7754	-0.7379	1.4502	1.1962	9.7694	-0.4345	-0.7918	0.5714	0.9663	0.9033	1.3575	9.3198	2.3262	0.2285	1.0957	-0.1112	-0.0352	-0.1621	-0.2882	-0.018
-1.5028	-0.5452	9.4728	0.1253	1.2305	1.2039	-0.3759	1.7057	-0.8264	1.0434	1.3121	9.7043	-0.1872	-0.5716	0.3983	0.9663	0.9033	1.3575	9.4956	1.7438	0.1734	0.7565	-0.3109	-0.4426	-0.1561	-0.2882	-0.012
-1.0428	-0.2584	9.2527	-0.2082	1.2536	0.8034	-0.3568	1.7529	-0.8048	0.9888	1.1392	9.877	-0.0302	-0.4572	0.5293	1.0196	0.9281	1.3583	9.8478	2.1509	0.1811	0.5122	-0.4002	-0.476	-0.1501	-0.2882	-0.024
-1.6238	-0.4879	9.2406	-0.1177	1.1276	0.828	-0.32	1.8008	-0.805	1.2141	2.1201	9.5924	-0.6162	-0.2201	0.299	0.9843	0.9036	1.3792	9.7313	2.2094	0.236	-0.3097	-0.5828	-0.325	-0.1561	-0.2882	-0.012
-0.9743	-0.2573	9.7714	-0.361	1.1688	0.6749	-0.3012	1.7523	-0.759	0.9862	1.4855	9.7615	0.158	-0.053	0.3995	0.9846	0.9034	1.4005	9.5018	2.2103	0.5164	-0.9496	-0.6697	-0.3243	-0.1561	-0.2942	-0.03
-1.0925	-0.4303	9.6537	-0.2376	0.9994	0.2978	-0.2652	1.7051	-0.757	1.0512	1.7169	10.1689	0.0354	0.0105	0.4042	1.0003	0.8817	1.3157	9.6747	2.3261	0.3491	-1.3176	-0.8761	-0.5165	-0.1681	-0.2882	-0.024
-0.8103	-0.7779	9.1986	-0.6068	0.9603	0.57	-0.2839	1.7055	-0.7796	1.1614	1.2544	9.8223	0.0638	-0.1407	0.3321	1.0375	0.905	1.4016	9.677	2.2682	0.4629	-1.5316	-0.9964	-0.5518	-0.1501	-0.2762	-0.024
-0.9737	0.0311	9.8296	-0.3904	1.0601	0.3616	-0.2639	1.7516	-0.7137	1.0463	1.4856	9.8785	-0.124	-0.4174	0.377	0.9851	0.9266	1.4003	9.7325	2.1513	0.2928	-1.8666	-0.9936	-0.5489	-0.1561	-0.2882	-0.024
-0.8004	-0.546	9.7167	-0.2967	0.9851	-0.0414	-0.3391	1.7537	-0.8266	1.0998	1.7162	9.6478	-0.7731	-0.3021	0.1391	1.0185	0.8583	1.3804	9.4925	2.5003	0.0613	-1.8651	-0.7176	-0.5038	-0.1501	-0.2882	-0.024
-0.98	-0.258	9.4839	-0.9405	0.7495	-0.1196	-0.3028	1.7302	-0.825	1.1571	1.3696	9.5904	-0.6777	-0.772	0.8843	0.9835	0.8336	1.4226	9.9056	2.0342	0.125	-2.0783	-0.434	-0.6411	-0.1561	-0.2882	-0.042
-0.8708	-0.778	9.0824	-0.1163	0.5552	-0.1554	-0.2653	1.7533	-0.7803	1.3932	1.3119	9.8265	-0.8674	-0.6494	0.3343	0.9654	0.8804	1.3364	9.3822	2.0937	0.3999	-2.623	-0.1613	-0.3457	-0.1501	-0.2942	-0.024
-1.5028	-0.5452	9.4728	-0.3036	0.2125	-0.0521	-0.3199	1.7527	-0.7817	1.5629	1.2536	9.5975	-0.5276	-0.6904	0.4232	0.9478	0.8799	1.336	9.4948	2.4423	0.1751	-2.6209	-0.2009	-0.071	-0.1741	-0.2942	-0.018
-1.0937	-0.4304	9.5962	-0.0288	0.0604	-0.1814	-0.3023	1.6815	-0.7795	1.1593	1.2543	9.7063	-0.4673	-0.5548	0.1523	1.001	0.8812	1.3584	9.3712	1.8595	-0.1703	-2.5	-0.0104	-0.2774	-0.1501	-0.2702	-0.018
-1.1441	-0.833	9.9391	-0.1228	0.0472	0.1247	-0.3012	1.7523	-0.759	1.157	1.4273	9.5905	-0.9005	-0.606	0.0889	0.9844	0.9271	1.3576	9.6768	2.3846	0.4632	-2.6867	-0.15	-0.6828	-0.1441	-0.2822	-0.024
-1.1514	-0.0843	9.6533	-0.2104	0.4244	0.0214	-0.2471	1.7534	-0.7798	1.3378	1.7163	10.0001	-0.2243	-0.7036	-0.0448	1.0371	0.9052	1.3803	9.6107	1.9762	0.0623	-2.9586	-0.2816	-0.3492	-0.1381	-0.3002	-0.018
-1.1599	-0.4313	9.1925	-0.3624	0.5777	0.0901	-0.3202	1.7771	-0.8045	1.2199	1.6586	9.8819	-0.7502	-0.6227	-0.2544	1.0014	0.881	1.3798	9.6766	1.6277	0.4044	-3.2292	-0.4806	0.1654	-0.1501	-0.2762	-0.012
-1.154	-0.4882	9.4799	-0.571	1.1106	-0.0057	-0.3377	1.752	-0.76	0.9863	1.4278	9.7614	0.2133	-0.5107	0.2763	1.0204	0.9276	1.401	9.7915	1.9184	0.2934	-2.9546	-0.3598	0.1694	-0.1501	-0.2702	-0.024
-1.395	-0.8924	9.0142	-0.6279	1.4888	-0.1395	-0.3206	1.7295	-0.8033	1.1614	1.3122	9.8224	-0.65	-0.2059	0.0206	0.9839	0.9039	1.3578	10.0301	1.8603	0.4686	-2.8051	-0.3503	-0.1695	-0.1501	-0.2822	-0.024
-0.9798	-0.3733	9.4836	-1.0559	1.4369	-0.2372	-0.2837	1.7293	-0.7802	1.6269	1.4272	9.9469	0.618	0.0819	0.0025	1.0006	0.8815	1.3371	10.0862	2.2092	0.3566	-2.7164	-0.5596	-0.3964	-0.1441	-0.2822	-0.018
-1.0426	-0.3737	9.2524	-0.6941	0.7873	-0.3312	-0.284	1.7536	-0.803	1.336	1.4852	9.8837	0.5846	0.3864	-0.5364	0.9656	0.8567	1.3793	9.729	2.2673	0.1222	-2.47	-0.4474	-0.1158	-0.1561	-0.2882	-0.018
-0.907	-0.7753	10.1738	-2.4981	1.0737	-0.0201	-0.3015	1.7767	-0.7818	1.5112	1.2541	9.9446	0.2171	0.1532	-0.0531	1.0015	0.9044	1.3582	9.3879	1.978	0.6845	-2.1642	-0.3606	-0.0216	-0.1561	-0.2822	-0.024
-1.0863	-0.6602	9.9406	-0.7549	0.8483	-0.2976	-0.249	1.6838	-0.8447	0.9852	1.4854	9.7034	0.7087	0.4459	-0.5331	1.0207	0.9274	1.4224	9.6219	1.9776	0.632	-1.7347	-0.4078	0.3722	-0.1621	-0.2822	-0.024
-1.2676	-0.6607	9.5921	-1.1535	0.73	-0.3065	-0.3006	1.7756	-0.7374	1.103	1.6009	9.8217	0.1539	0.2263	-0.2654	0.9843	0.9036	1.3792	9.9777	2.0941	0.8099	-1.4922	-0.4367	0.2457	-0.1441	-0.2882	-0.018
-1.0879	-0.4297	9.8837	-0.2121	0.2099	-0.0209	-0.2646	1.7765	-0.7587	1.1046	1.1968	9.8792	0.5239	0.3507	-0.4142	0.985	0.9031	1.4219	9.089	2.4435	0.4521	-1.523	-0.3411	0.1587	-0.1561	-0.2942	-0.012
-1.2132	-0.5459	9.4211	-0.1226	-0.1263	-0.1305	-0.3185	1.751	-0.7151	1.1563	2.0047	9.5912	0.4646	0.4379	-0.2841	0.9656	0.8567	1.3793	9.6227	2.2688	0.6896	-1.4637	-0.2415	-0.0826	-0.1681	-0.2762	-0.012
-1.1563	-0.4885	9.3648	0.2113	-0.3215	-0.0158	-0.283	1.7525	-0.7586	1.334	1.4851	9.7677	0.1892	0.4319	-0.0659	1.0014	0.881	1.3798	9.7311	2.384	0.2364	-1.095	-0.038	0.2017	-0.1501	-0.2882	-0.024
-1.6183	-0.3142	9.5286	0.3023	-0.5315	-0.1802	-0.2843	1.7061	-0.8018	1.0945	0.9074	9.2987	0.6842	0.5789	-0.0896	1.0186	0.8818	1.3588	9.3237	1.8027	0.3981	-0.8808	-0.0437	0.3227	-0.1621	-0.2822	0
-1.21	-0.4302	9.5938	0.0845	-0.9312	-0.1722	-0.283	1.7525	-0.7586	1.3919	1.485	9.7687	0.4713	0.8285	-0.0724	1.0001	0.8583	1.3373	9.7248	2.0339	-0.1062	-0.8183	0.4193	0.2847	-0.1381	-0.2822	-0.036
-1.5026	-0.6028	9.4727	0.2393	-0.9496	-0.4796	-0.3197	1.7765	-0.7823	1.4531	1.3697	9.9437	0.779	0.7941	-0.1071	0.9825	0.8578	1.337	9.7361	1.9189	0.4632	-0.3929	0.1377	0.2974	-0.1561	-0.2882	-0.018
-1.0405	-0.8348	9.3088	-0.0998	-1.167	-0.3705	-0.229	1.7298	-0.7788	0.9257	1.0812	9.5859	0.6898	0.845	0.145	0.9843	0.9036	1.3792	9.6147	2.3843	0.2912	-0.6343	0.1935	0.5482	-0.1561	-0.2882	-0.012
-1.216	-0.8922	9.2477	-0.2188	-1.1438	-0.831	-0.2839	1.7055	-0.7796	0.8095	1.2546	9.584	0.7498	0.8193	0.0188	0.984	0.8568	1.4223	10.0289	1.8602	0.4117	-0.5702	0.2119	0.9176	-0.1561	-0.3002	-0.03
-1.2103	-0.8339	9.5354	-0.1311	-1.4915	-0.6954	-0.2473	1.7778	-0.8026	1.1652	1.6011	10.0548	0.6262	0.6278	0.1932	0.9851	0.9266	1.4003	9.9769	1.8029	0.7522	-0.236	0.2438	0.7936	-0.1621	-0.2702	-0.018
-1.03	0.2621	9.944	-0.3165	-1.5889	-0.5481	-0.3204	1.7533	-0.8039	1.1609	1.6586	9.8228	0.1025	0.6658	0.2291	1.0196	0.9281	1.3583	9.5008	2.0937	0.4591	0.1581	0.1848	0.6028	-0.1501	-0.2882	-0.018
-0.8551	-0.5455	9.888	-0.3436	-1.3331	-0.719	-0.3024	1.7297	-0.8029	1.1589	0.7923	9.6477	0.5959	0.593	0.2843	0.9833	0.8573	1.3797	9.2652	2.5597	0.4558	0.3672	0.1362	0.1373	-0.1501	-0.3062	-0.018
-0.6885	-0.6621	9.4887	-0.2537	-1.3458	-0.4732	-0.284	1.7536	-0.803	1.1001	1.4275	9.6474	-0.1439	0.4088	0.524	1.0014	0.881	1.3798	9.492	1.9762	0.0031	0.3063	0.0742	0.1654	-0.1561	-0.2942	-0.006
-0.8053	-0.4313	9.4869	-0.0391	-1.025	-0.1166	-0.2476	1.6821	-0.7781	1.3364	1.1965	9.8834	-0.1465	0.4209	0.2764	0.9664	0.8562	1.422	9.9702	1.802	0.4104	0.548	-0.0142	-0.0257	-0.1621	-0.2882	-0.018
-0.9137	-0.8914	9.8285	-0.009	-1.0577	-0.0874	-0.2826	1.7519	-0.7364	1.2202	1.4276	9.8816	0.1605	0.325	0.2378	0.9488	0.9262	1.3355	9.7268	2.267	0.0083	0.7319	0.2612	-0.0129	-0.1561	-0.2942	-0.012
-1.5034	-0.1993	9.4736	-0.1606	-0.9603	-0.1446	-0.2826	1.7519	-0.7364	1.1622	1.4854	9.8806	0.4081	0.4792	0.1535	0.9836	0.857	1.401	9.4419	2.2685	0.4584	0.9761	0.3197	0.0189	-0.1681	-0.2702	-0.006
-0.979	-0.7768	9.4826	0.1447	-0.9965	-0.1139	-0.2833	1.7769	-0.7813	1.1005	1.1388	9.6471	-0.027	0.437	-0.0956	0.9836	0.857	1.401	9.7368	2.3265	0.5211	1.3096	0.3853	-0.1957	-0.1501	-0.2942	-0.012
-1.1502	-0.6608	9.652	-0.0082	-0.8784	0.0451	-0.3201	1.7289	-0.7811	1.3328	1.5427	9.7098	0.8105	0.8228	-0.0744	1.0195	0.9047	1.3799	9.6171	2.2681	0.4048	1.2484	0.6061	-0.3374	-0.1561	-0.2882	-0.018
-1.1542	-0.3729	9.4801	0.2051	-1.0311	-0.0539	-0.3197	1.7765	-0.7823	0.929	1.7744	9.8188	0.0104	0.7304	0.2027	0.9829	0.928	1.2722	9.9117	2.559	0.4681	1.3093	0.7306	-0.3929	-0.1441	-0.2822	-0.036
-0.984	-0.6044	9.253	-0.2222	-0.8168	0.1085	-0.2827	1.7282	-0.7358	1.1612	1.4276	9.8225	-0.052	0.6699	0.1991	0.9656	0.8567	1.3793	9.9665	2.1509	0.2403	0.9127	0.7369	-0.4816	-0.1621	-0.2702	-0.018
-1.0351	-0.6611	9.5968	-0.3107	-0.7072	-0.2243	-0.2828	1.7763	-0.7591	1.2802	1.4277	9.9986	-0.1119	0.8247	0.2094	1.0354	0.8594	1.3381	9.443	2.2686	0.5154	0.6981	0.306	-0.4408	-0.1441	-0.2882	-0.03
-1.2134	-0.4306	9.4213	-0.6162	-0.643	-0.1921	-0.3016	1.7048	-0.7579	1.0402	1.3119	9.5302	0.4974	0.4605	-0.1275	0.9478	0.8799	1.336	9.4458	1.745	0.6281	0.6076	0.0527	-0.2072	-0.1681	-0.2882	-0.012
-0.9804	-0.085	9.4843	-0.8572	-0.2962	-0.2673	-0.284	1.7536	-0.803	1.2196	1.8895	9.8822	0.3755	0.6178	-0.1478	0.9496	0.8786	1.4427	9.3784	2.4426	0.2299	0.3957	0.0496	-0.0519	-0.1501	-0.2882	-0.018
-0.98	-0.258	9.4839	-0.6755	-0.3101	-0.021	-0.3192	1.7278	-0.7367	1.5689	1.485	9.9459	0.1944	0.635	0.1957	0.9854	0.9029	1.4432	9.5006	2.3266	0.4597	0.3339	-0.3221	0.0215	-0.1561	-0.2822	-0.006
-1.1542	-0.3729	9.4801	-0.2459	-0.1893	-0.0732	-0.2838	1.7774	-0.8035	1.0474	1.4279	9.9365	0.5927	0.8678	-0.2878	1.0009	0.8578	1.38	9.6171	2.2099	0.4047	0.211	-0.3479	-0.1018	-0.1561	-0.2822	-0.024
-1.2695	-0.3149	9.5355	-0.4325	-0.4984	-0.0295	-0.2995	1.7263	-0.6697	1.0443	1.37	9.7623	0.6573	0.8531	-0.0096	1.0199	0.9045	1.4013	9.6125	2.3258	0.1771	0.2721	-0.2869	-0.0991	-0.1681	-0.2942	-0.018
-1.0376	-0.5461	9.482	-0.2824	-0.897	-0.142	-0.3197	1.7765	-0.7823	1.5054	1.7157	9.6551	0.5399	1.1843	0.1988	0.9846	0.9034	1.4005	9.675	2.0351	0.3484	0.6414	-0.1797	0.3032	-0.1621	-0.3002	-0.012
-1.0399	-0.5464	9.367	0.1723	-1.4819	-0.3241	-0.3201	1.7289	-0.7811	1.3384	1.2544	9.9995	0.0818	1.2031	0.6057	0.9844	0.9271	1.3576	9.4964	2.035	0.2311	0.9444	-0.0195	0.0323	-0.1501	-0.2702	-0.024
-1.1537	-0.6612	9.4794	-0.1051	-1.6089	-0.179	-0.3029	1.7784	-0.8484	1.1004	1.2543	9.6472	0.3248	1.2817	0.175	0.9845	0.88	1.4221	9.4417	2.4431	0.4588	0.7933	0.0086	0.158	-0.1681	-0.2942	-0.018
-1.2218	-0.2586	9.0192	-0.074	-1.8388	-0.5599	-0.3193	1.7759	-0.7601	1.1085	1.4281	10.1115	0.975	1.4215	0.2433	0.983	0.8809	1.3367	9.856	1.8608	0.5792	0.947	-0.1862	0.4233	-0.1561	-0.2822	-0.024
-1.5006	-0.4873	9.5879	-0.3241	-2.2203	-0.2746	-0.3375	1.7758	-0.7605	0.9766	1.7158	9.2396	0.664	1.2437	0.2021	0.9495	0.9257	1.3782	9.152	1.6871	0.6223	1.437	0.0182	0.6452	-0.1501	-0.2942	-0.03
-0.9831	-0.4313	9.3109	-0.2003	-2.0088	-0.201	-0.2828	1.7763	-0.7591	1.3354	1.1965	9.8253	0.8486	1.1131	0.2859	0.967	0.9028	1.4002	9.2096	1.6869	0.5665	1.8301	-0.3187	0.4707	-0.1561	-0.2822	-0.024
-1.0401	-0.4311	9.3673	0.1406	-1.6343	-0.3632	-0.3196	1.8003	-0.7828	0.926	1.6587	9.6446	0.8174	1.0829	0.2841	0.9492	0.926	1.3569	9.9631	2.2087	0.0696	1.8012	-0.3243	0.6551	-0.1501	-0.2762	-0.018
-1.2634	-0.4872	9.8226	-0.3789	-1.5673	-0.3322	-0.3006	1.7756	-0.7374	0.6993	1.7171	9.9306	0.4153	1.0296	0.2514	0.9687	0.9487	1.4424	10.0885	2.1513	0.4704	2.1393	-0.3707	1.0497	-0.1501	-0.3002	-0.024
-1.3283	-0.5455	9.4763	0.0206	-1.2977	-0.2537	-0.3016	1.7048	-0.7579	1.387	1.2537	9.4784	0.4761	0.8058	0.3918	0.983	0.8809	1.3367	9.9676	2.151	0.2973	2.5656	-0.3426	1.0169	-0.1561	-0.2882	-0.024
-1.2006	-0.4867	10.0537	-0.407	-0.9393	0.1315	-0.3193	1.7759	-0.7601	1.2816	1.1968	10.0564	0.1365	0.6179	0.5674	1.0009	0.8578	1.38	9.5617	2.2104	0.5745	2.6592	0.0547	1.0983	-0.1381	-0.2702	-0.012
-0.9785	-1.0074	9.4821	-0.1008	-0.9991	0.0073	-0.2833	1.7769	-0.7813	1.2141	1.3117	9.5333	-0.3285	0.3443	0.6449	1.037	0.8818	1.4019	9.7422	2.5018	0.8064	2.6624	-0.0514	1.5233	-0.1501	-0.2822	-0.018
-1.2112	-0.3727	9.5365	0.022	-0.939	0.0113	-0.3206	1.7295	-0.8033	1.1611	1.4854	9.8226	0.2282	0.458	0.6497	0.984	0.8568	1.4223	9.7338	2.035	0.3495	2.6917	-0.141	1.4261	-0.1561	-0.2882	-0.03
-0.8088	-0.9507	9.2556	0.0513	-1.0643	0.0356	-0.3019	1.7291	-0.7807	0.9311	1.7745	9.9348	0.3526	0.7433	0.4504	0.9666	0.9031	1.3788	9.5517	2.1509	0.0616	2.6916	0.0158	1.342	-0.1561	-0.2762	-0.018
-0.9139	-0.7761	9.8288	0.293	-1.2611	0.211	-0.3197	1.7765	-0.7823	1.041	1.543	9.5885	0.2335	0.9853	0.5909	0.9669	0.8794	1.4218	9.7893	1.9181	0.1795	2.9924	0.153	0.824	-0.1741	-0.2882	-0.018
-1.1591	-0.2582	9.2504	0.3213	-1.3347	0.4531	-0.3564	1.7524	-0.7826	1.0493	1.5436	10.0526	0.4814	1.3653	0.304	0.9661	0.8799	1.3791	9.6754	1.6858	0.3476	3.0187	0.0435	0.3876	-0.1621	-0.3002	-0.006
-1.0339	-0.661	9.6543	0.1985	-1.4817	0.3215	-0.2839	1.7055	-0.7796	0.9864	1.37	9.7613	0.9737	1.2002	0.3531	0.985	0.9031	1.4219	9.6058	2.3831	-0.1646	2.8074	0.0692	0.6059	-0.1621	-0.2882	-0.024
-1.0916	-0.3148	9.7114	0.2601	-1.5958	0.1007	-0.2838	1.7774	-0.8035	1.453	1.4852	9.9438	1.1002	1.6055	0.2236	1.0191	0.9049	1.3586	9.6139	2.0931	0.2335	2.6267	0.1571	0.7964	-0.1561	-0.2882	-0.018
-1.4994	-0.4871	9.6455	0.1956	-1.9078	0.1758	-0.3565	1.7286	-0.7821	1.2841	1.659	10.231	1.0084	1.6362	0.2571	0.9838	0.8804	1.3794	9.3795	2.5009	0.287	2.7791	-0.0953	0.9358	-0.1561	-0.2822	-0.012
-1.278	-0.0853	9.1335	0.0763	-1.6831	0.0333	-0.3196	1.8003	-0.7828	1.105	0.9081	9.8788	1.3157	1.7662	0.0158	0.9843	0.9036	1.3792	9.3187	2.3261	0.1715	3.2005	-0.1109	0.3473	-0.1681	-0.2762	-0.03
-1.0962	-0.892	9.4225	0.1347	-2.0512	-0.0475	-0.3196	1.7284	-0.7589	1.217	1.4851	9.7076	1.5037	1.814	0.2354	0.9487	0.9028	1.3571	9.2624	2.0936	0.2837	3.3522	0.1716	0.1455	-0.1681	-0.2942	-0.012
-1.2713	-0.5458	9.4199	0.4391	-2.2093	-0.054	-0.3207	1.7776	-0.8267	1.1028	1.8319	9.822	0.9781	1.8288	0.1145	0.9491	0.8555	1.443	9.261	2.3263	0.2273	3.1097	0.0129	0.3545	-0.1681	-0.2762	-0.024
-1.3269	-0.6607	9.5335	0.4383	-2.3019	-0.0589	-0.2824	1.7757	-0.7369	1.3326	1.716	9.71	1.0729	1.8489	0.3017	1.0005	0.858	1.3587	9.6727	2.0348	0.2345	3.1111	0.0388	0.5096	-0.1561	-0.2882	-0.024
-0.3806	-0.603	10.3571	0.35	-2.1041	-0.2948	-0.2835	1.7531	-0.7808	1.4416	1.4266	9.3056	1.1663	2.0057	0.2183	1.0008	0.9049	1.3155	9.5562	2.0933	0.2893	2.9588	-0.1475	0.5934	-0.1561	-0.2762	-0.03
-1.1547	-0.1423	9.4807	0.3206	-2.0083	-0.3513	-0.3559	1.7518	-0.7604	1.1062	1.5434	9.9957	1.474	1.6471	0.5041	0.9668	0.9265	1.3573	9.9736	1.8024	0.5813	2.7734	-0.1669	0.2864	-0.1501	-0.2822	-0.012
-1.1564	-0.4309	9.365	0.537	-1.9084	-0.5597	-0.3017	1.7529	-0.7812	1.2172	1.3119	9.7074	0.9204	1.9085	0.3994	0.9487	0.9028	1.3571	10.0247	2.6747	0.2427	2.7398	-0.2173	-0.0542	-0.1561	-0.3002	-0.012
-1.1586	-0.4888	9.2498	0.352	-2.0617	-0.5384	-0.3016	1.7048	-0.7579	1.2181	1.4852	9.7656	1.4762	1.8639	0.4871	0.9833	0.8573	1.3797	9.6829	1.9196	0.7469	2.8316	-0.1258	-0.0502	-0.1561	-0.2882	0
-0.5688	-0.6619	9.6635	0.5044	-2.1254	-0.5408	-0.3012	1.7523	-0.759	1.4479	1.3693	9.6536	1.2666	2.6821	0.2308	0.9848	0.9268	1.379	9.623	1.9195	0.6888	2.678	0.0372	-0.2864	-0.1621	-0.2822	-0.018
-1.3846	-0.3145	9.5907	0.5055	-1.9432	-0.4696	-0.2822	1.7995	-0.7375	1.2246	1.2547	10.1134	1.328	2.6825	0.1995	1.0027	0.9271	1.4007	9.4976	1.9769	0.2879	2.7706	-0.3754	0.0604	-0.1501	-0.2882	-0.024
-1.0363	-0.6036	9.5394	0.7168	-2.3132	-0.5495	-0.3383	1.7288	-0.7816	0.8642	1.3697	9.4111	2.1683	3.4771	0.0611	0.967	0.9028	1.4002	9.4355	1.9765	0.1159	2.4988	-0.507	0.394	-0.1381	-0.2822	-0.036
-0.7455	-0.6619	9.545	0.5638	-2.1377	-0.2952	-0.3202	1.7771	-0.8045	1.1605	1.1966	9.7642	3.2249	4.4616	-0.2522	0.9293	0.8564	1.3145	9.616	2.2098	0.3477	2.1898	-0.9879	0.0947	-0.1561	-0.2882	-0.036
-1.0379	0.2035	9.5413	0.6561	-2.164	-0.419	-0.3011	1.7761	-0.7596	0.978	1.4272	9.2973	2.6951	4.0738	-0.3372	1.0003	0.8817	1.3157	9.4436	1.6865	0.514	2.3687	-1.6634	-0.0341	-0.1621	-0.2822	-0.018
-0.6357	-0.3169	9.2606	0.565	-2.1585	-0.5115	-0.3183	1.7748	-0.7157	1.4532	1.3119	9.9436	3.7432	3.8641	-0.2003	0.9846	0.9034	1.4005	9.5595	2.1519	0.4604	2.4281	-1.9399	-0.0797	-0.1681	-0.2822	-0.018
-1.0911	-0.5455	9.7109	0.1397	-1.9018	-0.5927	-0.3017	1.7529	-0.7812	1.3368	1.7163	9.942	2.4125	3.2255	0.0747	1.0031	0.9269	1.422	9.6148	2.326	0.291	3.0371	-2.1326	-0.0024	-0.1621	-0.2882	-0.036
-1.0343	0.0886	9.7136	0.1703	-1.7566	-0.4003	-0.319	1.7516	-0.7373	1.1028	0.9657	9.7629	2.5876	2.3922	0.0197	0.9493	0.9494	1.3353	10.0288	1.9766	0.4119	3.5236	-1.7894	-0.2653	-0.1441	-0.2822	-0.012
-0.9792	-0.6615	9.4829	-0.0117	-1.5118	-0.2961	-0.32	1.8008	-0.805	1.1041	1.601	9.8797	0.9782	1.4064	0.5528	1.0199	0.9045	1.4013	9.9775	2.3269	0.8104	3.9837	-1.1798	-0.1759	-0.1561	-0.2762	-0.036
-1.0344	-0.4304	9.6548	0.0805	-1.3939	-0.197	-0.3019	1.7291	-0.7807	1.0423	1.3121	9.6462	-0.4422	0.7879	1.0779	1.0014	0.881	1.3798	9.5607	2.0938	0.5172	4.0451	-0.5878	-0.3916	-0.1621	-0.2882	-0.03
-0.9781	-0.6614	9.5404	0.2336	-1.2782	-0.0669	-0.3194	1.704	-0.7362	1.4496	1.6582	9.77	-0.2577	0.5927	1.2196	0.9655	0.9038	1.3148	9.8023	2.269	0.8639	4.3262	-0.2415	0.2698	-0.1561	-0.2942	-0.012
-1.3229	-0.9486	9.7053	0.3266	-1.1546	-0.0904	-0.3197	1.7765	-0.7823	0.8134	1.4858	9.8163	-0.5942	0.7476	1.3243	0.9673	0.9497	1.357	9.3282	1.7451	0.6258	3.8401	0.1338	0.2318	-0.1441	-0.2822	-0.024
-1.2171	-0.3157	9.2491	0.3276	-0.7988	0.236	-0.3019	1.7291	-0.7807	1.2825	1.3124	10.1145	-0.4999	1.0304	1.187	0.9838	0.8804	1.3794	9.7923	2.2678	0.3512	3.7807	0.0659	0.444	-0.1741	-0.2822	-0.03
-1.2711	-0.6611	9.4196	0.3644	-0.1764	0.1466	-0.3401	1.6829	-0.847	0.9874	1.4278	9.8194	0.1238	1.572	1.2505	1.0385	0.9514	1.4012	9.6852	1.9199	0.8608	4.0875	-0.0081	0.7452	-0.1621	-0.2822	-0.018
-1.1464	-0.2567	9.8829	0.3345	-0.0261	0.2466	-0.2656	1.7776	-0.8031	0.8715	1.428	9.8173	-0.129	1.4098	0.8685	0.9824	0.8343	1.3585	9.7394	1.9775	0.6342	3.9903	-0.3291	0.2065	-0.1501	-0.2762	-0.018
-0.9298	-0.3167	9.0823	-0.1202	0.3837	0.2042	-0.3015	1.7767	-0.7818	1.1082	0.8506	10.0528	0.9521	1.5792	0.8125	0.9646	0.8575	1.3152	10.3229	1.8016	0.4171	4.2581	-0.7454	-0.34	-0.1501	-0.2822	-0.018
-1.1029	-0.4315	9.1361	0.0959	0.4821	0.0264	-0.3189	1.7035	-0.714	1.1611	1.4854	9.8226	1.378	1.5025	0.3399	0.9851	0.9266	1.4003	9.7919	1.5691	0.2925	4.0124	-1.1106	-0.4185	-0.1561	-0.2762	-0.018
-0.8602	-0.3154	9.6585	-0.3303	0.8492	0.2277	-0.3019	1.7291	-0.7807	1.3937	1.7161	9.8851	1.0673	1.0636	0.5922	1.002	0.9276	1.358	9.9087	2.2675	0.2965	4.0711	-1.2591	-0.6112	-0.1501	-0.3002	-0.03
-0.5696	-0.835	9.6056	-0.2119	0.5599	0.4282	-0.3375	1.7758	-0.7605	1.2176	1.8317	9.7661	0.0797	0.6284	1.003	0.9508	0.9484	1.4207	9.8991	1.8588	-0.2172	4.07	-1.0358	-0.8456	-0.1681	-0.2882	-0.024
-1.0955	-0.6613	9.4806	-0.0284	0.5575	0.4292	-0.3386	1.7531	-0.8044	1.2793	1.3699	9.9406	-0.4461	0.482	1.0269	0.9856	0.9498	1.4001	10.3168	2.2084	0.1333	3.9222	-0.5511	-0.5424	-0.1561	-0.2882	-0.03
-1.1534	-0.7765	9.4792	0.0941	0.528	0.367	-0.3023	1.8016	-0.8268	1.0483	1.5435	9.9946	-0.0473	0.323	0.9837	0.9855	0.9263	1.4217	9.4332	1.9763	0.002	3.0389	-0.23	-0.703	-0.1621	-0.2702	-0.024
-1.1496	-0.3724	9.7101	0.2145	0.4267	0.516	-0.2832	1.7287	-0.758	1.1643	1.4279	9.9966	-0.3015	-0.1572	0.7984	0.9843	0.9036	1.3792	9.6757	2.3845	0.4062	2.7986	-0.1782	-0.3294	-0.1621	-0.2942	-0.036
-1.0361	-0.7189	9.5391	0.3702	0.7052	0.4704	-0.3391	1.7537	-0.8266	0.9261	1.5432	9.6445	-0.6122	-0.3366	0.7882	0.9851	0.9266	1.4003	9.5006	2.3266	0.4597	2.5239	-0.0171	-0.4725	-0.1621	-0.2822	-0.012
-1.2705	-0.3727	9.4778	0.4019	0.8282	0.4772	-0.283	1.7525	-0.7586	0.8167	1.3706	9.9902	-0.4893	-0.4662	0.8723	0.9829	0.8575	1.3583	9.4973	2.268	0.2886	2.5548	0.0124	-0.4405	-0.1621	-0.2942	-0.03
-1.0464	-0.7778	9.0214	0.7384	0.7959	0.4162	-0.3023	1.6815	-0.7795	1.0391	1.4273	9.4724	-1.1355	-0.5597	1.1175	0.9658	0.8802	1.3577	9.854	2.6174	0.5241	2.2162	0.3108	-1.0064	-0.1501	-0.2882	-0.018
-1.0324	-0.2572	9.7702	0.6776	0.7114	0.2576	-0.3391	1.7537	-0.8266	1.1047	1.9475	9.9382	-1.4434	-0.3624	0.9765	0.9829	0.8575	1.3583	9.1405	1.9767	0.0534	1.939	-0.0502	-1.2074	-0.1501	-0.2702	-0.006
-1.0381	-0.3155	9.4826	0.8596	0.3797	0.0259	-0.2644	1.8003	-0.7592	1.1062	1.5434	9.9957	-0.9799	-0.2442	0.92	1.0194	0.8813	1.4015	9.6739	2.0349	0.2914	1.7295	0.1562	-0.8567	-0.1501	-0.2822	-0.012
-1.1532	-0.3151	9.5378	0.8292	0.2065	-0.2295	-0.2831	1.8006	-0.7819	0.6894	1.3121	9.3499	-1.1931	0.1037	0.8194	1.0184	0.8349	1.402	9.5595	2.1519	0.4604	1.303	0.129	-0.8546	-0.1501	-0.2822	-0.012
-0.6924	-0.4319	9.3167	1.2578	0.0009	-0.5758	-0.2822	1.7995	-0.7375	0.9897	1.197	9.9351	-0.6272	0.8233	1.05	0.9838	0.8804	1.3794	9.3888	2.1528	0.7419	1.0599	0.1916	-0.8187	-0.1501	-0.2942	-0.018
-0.7468	-0.6043	9.4876	0.8576	-0.4775	-0.8192	-0.3025	1.7059	-0.8023	1.277	1.543	9.8248	-0.1961	1.2415	0.5474	0.9661	0.8799	1.3791	9.5609	1.9192	0.5168	0.7269	0.3434	-0.6543	-0.1441	-0.2882	-0.012
-1.094	-0.8341	9.5377	0.8851	-0.9922	-1.0617	-0.2832	1.7287	-0.758	1.1053	1.4856	9.9376	-0.0949	2.1085	0.4481	1.0017	0.8807	1.4011	9.3157	1.9764	-0.0002	0.6359	0.0921	-0.4821	-0.1561	-0.2882	-0.012
-0.8124	-0.3168	9.1422	1.3417	-1.4773	-1.3921	-0.3199	1.7527	-0.7817	1.0435	1.1967	9.7041	0.8384	3.1919	0.0486	0.967	0.9028	1.4002	9.6073	2.034	-0.1085	0.4562	0.1761	-0.1688	-0.1501	-0.2942	-0.036
-0.9227	-0.4312	9.4271	0.9438	-1.8531	-1.8451	-0.3202	1.7771	-0.8045	1.1061	1.6589	9.9958	2.3664	5.1339	-0.453	0.9482	0.8796	1.3573	9.614	1.9766	0.2332	0.2448	-0.1109	0.187	-0.1561	-0.2822	-0.018
-0.9792	-0.6615	9.4829	0.8794	-2.4843	-2.2174	-0.2846	1.7304	-0.8246	1.1615	1.1967	9.8222	3.8093	7.1072	-0.3001	1.0021	0.8805	1.4225	9.4927	2.3256	0.0609	-0.2719	-0.7992	0.6474	-0.1621	-0.2822	-0.03
-0.9294	0.0293	9.1407	1.8574	-3.3734	-3.3037	-0.3009	1.7999	-0.7602	1.0407	1.7739	9.5888	6.1601	10.7884	-0.6923	0.9838	0.8804	1.3794	9.2602	2.0351	0.1697	-0.5159	-1.7975	1.0894	-0.1561	-0.2762	-0.018
-1.1015	-0.5467	9.1933	1.1139	-4.0377	-2.7908	-0.3012	1.7523	-0.759	1.2678	1.3691	9.3024	8.2067	15.2016	-1.4391	1.0027	0.9271	1.4007	9.378	1.8021	0.1714	-0.6398	-3.3537	1.5938	-0.1801	-0.2882	-0.024
-0.7485	-0.3162	9.4308	3.1641	-4.3172	-3.315	-0.3194	1.704	-0.7362	1.0359	1.4848	9.2984	11.306	19.4807	-1.7026	1.0022	0.9039	1.4009	8.7356	2.0945	0.3876	-0.4581	-5.4483	2.4673	-0.1621	-0.2882	-0.03
-0.8079	-0.2586	9.3723	3.2828	-5.4184	-4.2646	-0.3375	1.7758	-0.7605	1.1004	1.1965	9.6471	14.8141	23.0491	-3.3493	0.9671	0.9263	1.3786	8.9176	2.095	0.6758	0.2344	-7.99	2.7292	-0.1501	-0.2882	-0.018
-1.0376	0.0305	9.5409	1.8763	-6.1563	-5.2968	-0.3193	1.7759	-0.7601	1.0551	1.082	10.3421	15.4499	24.7681	-3.3956	1.0014	0.881	1.3798	8.3307	2.3286	0.7222	1.0444	-10.7978	2.6073	-0.1561	-0.3002	-0.006
-0.6978	-0.0289	9.0876	1.4507	-6.8616	-6.6282	-0.3396	1.7542	-0.8488	0.9947	1.4284	10.2255	14.9304	22.853	-3.7973	0.9684	0.949	1.4211	8.5025	2.3278	0.4976	2.4697	-12.9149	2.8853	-0.1621	-0.2882	0.006
-1.0976	-0.2002	9.4242	-1.7015	-7.5649	-7.2702	-0.3758	1.7777	-0.8503	0.8111	1.6589	9.7005	14.7681	19.6138	-1.2129	0.9671	0.9263	1.3786	9.0386	1.9788	0.8487	4.0857	-14.282	3.7542	-0.1501	-0.2882	-0.012
-0.8054	-0.3736	9.487	-2.3412	-7.7732	-7.931	-0.3371	1.8233	-0.7617	0.4093	1.8906	9.9256	9.4065	15.895	0.3703	0.9836	0.857	1.401	9.3867	2.0361	0.6276	5.3765	-14.2448	5.1293	-0.1561	-0.2822	-0.012
-1.2619	-0.66	9.8797	-2.0076	-7.883	-7.6581	-0.3375	1.7758	-0.7605	0.4059	1.313	9.6928	7.2166	12.6519	3.7399	0.95	0.9489	1.378	10.0856	1.7434	0.2986	5.9644	-13.3156	5.7878	-0.1561	-0.2822	-0.018
-1.5036	-0.7183	9.4149	-1.1252	-7.7776	-6.8476	-0.3567	1.7048	-0.7815	0.8671	1.5432	9.5854	3.9115	11.074	4.9873	0.9508	0.9484	1.4207	10.3851	1.6856	0.5888	6.0937	-12.3439	6.2062	-0.1441	-0.2942	-0.018
-1.4455	-0.6608	9.4162	2.1172	-7.2018	-6.1503	-0.3019	1.7291	-0.7807	0.465	2.0636	9.8108	2.4329	10.1157	6.1737	0.9668	0.9265	1.3573	9.7384	1.9191	0.5771	5.7273	-11.5231	5.6984	-0.1501	-0.2882	-0.018
-1.0884	-0.7758	9.8253	3.0873	-7.3573	-5.0766	-0.3379	1.7282	-0.7594	0.7014	1.7172	10.0466	1.2959	9.6282	7.0786	0.9495	0.9257	1.3782	10.2197	1.92	1.1557	5.5783	-11.2528	5.9597	-0.1621	-0.2882	-0.024
-0.7965	-0.7762	9.8886	2.5658	-6.7209	-4.0008	-0.2824	1.7757	-0.7369	1.0452	1.4855	9.8205	1.707	9.9309	7.6863	0.932	0.9486	1.3563	9.808	2.1533	1.1485	6.0291	-11.8909	5.5539	-0.1621	-0.3062	-0.03
-1.0881	-0.8911	9.8251	1.9944	-5.2542	-3.465	-0.3569	1.8011	-0.8282	0.4685	1.7752	9.9845	2.175	8.3864	6.9317	0.9318	0.9018	1.3994	9.6933	1.6298	1.2589	5.5017	-12.913	4.8901	-0.1501	-0.3002	-0.006
-0.6821	-0.4307	9.8342	0.3518	-4.187	-3.3569	-0.357	1.7291	-0.8043	0.8166	1.4283	9.9903	2.7069	6.0513	7.181	0.9681	0.9726	1.3781	9.1543	1.6291	0.7361	6.3117	-14.0307	3.9644	-0.1321	-0.2702	0.006
-1.141	-0.6597	10.112	1.6794	-2.8408	-3.3993	-0.3383	1.7288	-0.7816	0.8749	1.1973	9.9911	4.1016	4.3224	6.7207	0.8967	0.9241	1.3771	9.4535	1.8624	1.0271	7.4589	-14.659	3.0614	-0.1561	-0.2822	-0.03
-1.1503	-0.6031	9.6521	0.1596	-1.8591	-3.4795	-0.4114	1.7043	-0.7829	0.6966	1.4281	9.7562	2.7727	2.1314	5.9321	0.9846	0.9034	1.4005	9.3305	1.7454	0.7398	7.7565	-14.4783	2.1459	-0.1501	-0.2942	-0.018
-1.0394	-0.777	9.3665	0.9273	-1.3237	-3.2307	-0.3556	1.7274	-0.7377	0.4675	1.7174	9.9264	2.1354	-0.4573	6.7291	0.9324	0.9484	1.3776	9.9082	1.7435	0.2382	7.6307	-14.0864	1.4908	-0.1321	-0.2762	-0.018
-0.7392	-0.3728	9.8907	1.0245	-0.6785	-3.1648	-0.3578	1.7541	-0.8492	0.7516	2.0631	9.642	0.0987	-0.9702	7.2018	0.9677	0.9024	1.4429	10.3262	1.8603	0.5881	6.8042	-12.8104	0.3648	-0.1561	-0.2942	-0.006
-1.0324	-0.2572	9.7702	0.6268	-0.4704	-2.8796	-0.338	1.7044	-0.7588	0.6934	1.4857	9.5822	-0.711	-0.9526	6.4925	0.9675	0.926	1.3999	9.9739	1.5114	0.5806	5.9772	-11.2198	-0.9602	-0.1441	-0.2762	-0.018
-1.0288	-0.3144	9.9426	2.3962	-0.4338	-2.1593	-0.3383	1.7288	-0.7816	0.6945	1.3703	9.6401	-1.0524	-1.2943	6.6581	0.9317	0.9489	1.3349	10.1514	1.4531	0.6408	5.8247	-9.3707	-1.8775	-0.1381	-0.2642	-0.012
-0.3915	-0.9503	9.7813	2.8845	-0.2135	-1.714	-0.3388	1.7293	-0.8038	0.6884	2.1205	9.351	-1.202	-0.3389	6.1	0.9504	0.9487	1.3994	10.0348	1.628	0.6959	6.6527	-7.9603	-1.8725	-0.1501	-0.2822	-0.006
-0.6798	-1.0071	9.8904	4.0735	0.0379	-0.8016	-0.319	1.7516	-0.7373	0.9807	1.7161	9.4717	-1.2819	0.8371	6.0527	0.9479	0.9033	1.3144	9.9185	1.5119	0.7504	7.5145	-6.5948	-1.4395	-0.1381	-0.2942	-0.012
-0.7447	-0.4888	9.6029	5.7212	-0.152	-0.4937	-0.3573	1.7535	-0.827	0.8613	2.0047	9.2959	-1.0324	1.8593	5.2487	0.9142	0.9012	1.3991	9.9191	1.9195	0.8083	8.1873	-5.2655	-1.7449	-0.1441	-0.2882	-0.012
-0.6885	-0.6621	9.4887	5.5687	0.0853	-0.2361	-0.3941	1.7056	-0.8268	0.4072	1.9482	9.8096	-0.042	2.671	4.707	0.949	0.9026	1.3785	9.7399	1.5118	0.6331	8.9175	-4.1741	-2.3398	-0.1441	-0.2882	-0.018
-0.74	-0.5459	9.8328	5.9741	1.2954	0.2308	-0.3569	1.681	-0.7809	0.9766	1.6581	9.2396	-0.5585	3.4223	4.6651	0.9656	0.8567	1.3793	9.9726	1.6859	0.5241	9.6533	-3.0726	-2.2885	-0.1441	-0.2762	0.006
-1.0889	-0.4875	9.826	6.2539	1.5545	-0.0916	-0.3565	1.7286	-0.7821	0.4647	2.2946	9.8111	-0.5983	2.5881	4.7042	0.949	0.9026	1.3785	9.6799	1.6281	0.5753	9.6853	-2.1399	-2.5478	-0.1561	-0.2942	-0.012
-0.9124	-0.3723	9.9448	6.508	2.6899	0.0323	-0.3207	1.7776	-0.8267	0.8094	2.2362	9.6433	-1.0094	1.571	4.8262	0.9871	1.0193	1.3994	9.5541	2.0348	0.1753	9.7793	-1.0866	-2.7398	-0.1441	-0.2702	-0.018
-1.0944	-0.6612	9.5381	5.9984	3.9276	0.1567	-0.3387	1.8012	-0.8277	0.6362	1.7168	9.6395	-1.7041	0.7165	4.2459	0.9684	0.949	1.4211	9.6776	1.6861	0.4615	9.5376	0.0975	-3.076	-0.1441	-0.2762	0
-0.5066	-0.3732	9.8953	5.7017	4.8348	0.0189	-0.3575	1.7297	-0.8265	0.7467	1.0233	9.2926	-1.6254	0.2609	3.4397	0.9325	0.9013	1.4421	9.733	1.7438	0.2919	9.3852	1.383	-3.7151	-0.1561	-0.2702	0
-0.5665	-0.6616	9.7785	5.2215	5.6282	-0.2798	-0.339	1.7055	-0.8032	0.4043	1.7171	9.6353	-2.2187	-0.0524	3.1115	0.9505	0.9721	1.3778	10.1885	1.8579	-0.4395	8.8881	2.5838	-5.4628	-0.1381	-0.2702	0
-1.0961	-0.373	9.4813	6.4203	5.9444	-0.7469	-0.3396	1.7542	-0.8488	0.6383	1.6592	9.7554	-2.3161	-0.2877	2.9104	0.9501	0.9018	1.4425	9.5474	1.9757	-0.1667	7.9089	3.487	-6.4533	-0.1381	-0.2942	-0.006
-0.7396	-0.7188	9.8324	6.4562	6.1535	-1.258	-0.3578	1.6821	-0.8253	0.7632	2.0061	10.2801	-3.4613	-0.5745	2.8659	0.9499	0.9255	1.3996	9.725	1.8592	-0.1066	7.4761	4.0482	-7.4968	-0.1441	-0.3002	-0.012
-1.4988	-0.7754	9.6448	10.1909	6.2476	-1.6284	-0.3581	1.7065	-0.8481	0.4065	1.6595	9.7513	-4.2095	-1.6288	3.2354	0.9511	0.9482	1.442	9.7248	2.0339	-0.1062	7.47	4.3537	-8.3726	-0.1501	-0.3002	-0.024
-0.9715	-0.4876	9.8858	12.3418	6.8701	-2.2882	-0.3594	1.732	-0.9152	0.5851	1.1976	9.9858	-4.6361	-2.1005	4.2002	1.0031	0.9269	1.422	9.9049	1.6266	0.0671	8.187	4.3699	-10.0381	-0.1561	-0.2822	-0.018
-1.0247	-0.6599	10.1143	11.7097	7.555	-2.8703	-0.3404	1.7072	-0.8698	0.9286	1.2546	9.7601	-4.4176	-1.8889	4.2129	0.9676	0.9495	1.3784	10.0124	1.6252	-0.4434	8.4275	4.3797	-10.4086	-0.1501	-0.2762	-0.012
-1.2066	-0.3721	9.7665	13.7109	8.8983	-3.0314	-0.3572	1.7054	-0.8037	0.6983	1.717	9.8726	-3.5396	-1.8266	2.6295	0.9855	0.9263	1.4217	9.8961	1.5673	-0.3888	6.3547	4.4993	-10.693	-0.1441	-0.2882	-0.006
-1.2653	-0.6604	9.7072	14.7999	11.3926	-2.4298	-0.3765	1.6825	-0.848	0.87	1.7744	9.7597	-2.5617	-2.0926	2.0489	0.9502	0.9724	1.3564	9.8886	2.2068	-0.7291	4.7691	4.6148	-10.9815	-0.1501	-0.2822	-0.012
-1.2691	-0.4879	9.5351	16.6922	13.9018	-3.021	-0.3591	1.6357	-0.8686	0.6959	1.9478	9.7568	-3.0593	-2.0646	1.6494	0.9321	0.9015	1.4208	10.1953	1.8005	-0.0978	3.5215	4.7157	-10.9046	-0.1441	-0.2942	-0.012
-1.9072	-0.6594	9.5795	11.2892	18.0756	-3.5086	-0.3024	1.7297	-0.8029	0.8103	1.4856	9.6423	-3.582	-2.2585	2.0117	0.8968	0.877	1.4416	9.8383	1.6839	-0.3327	3.693	4.2255	-12.0077	-0.1441	-0.2942	0
-1.2525	-0.7165	10.3396	18.5407	22.5741	-2.4526	-0.2859	1.684	-0.8678	0.6472	1.1978	10.2189	-4.7891	-3.128	2.5505	0.9329	0.901	1.4635	9.7118	1.6829	-0.7907	3.0423	4.0866	-13.2704	-0.1441	-0.2882	-0.012
-2.1422	1.1284	9.6366	7.5217	12.7389	3.7732	-0.3766	1.6106	-0.8241	1.103	1.6587	9.8218	-5.9831	-4.9533	2.4372	0.9846	0.9034	1.4005	9.6616	2.0334	-0.3352	2.2388	4.4205	-14.8147	-0.1441	-0.2882	-0.012
-2.2447	-0.023	10.2066	39.5696	24.8261	-2.0428	-0.2669	1.7312	-0.8463	0.7553	1.6014	9.8154	-6.7662	-6.6048	3.0475	0.9674	0.9026	1.4215	9.7218	1.7424	-0.2778	1.8414	5.1185	-15.3287	-0.1621	-0.2882	-0.012
-0.1214	-1.2346	11.6253	44.7687	41.0148	1.562	-0.305	1.5649	-0.8654	0.9884	1.4279	9.8774	-8.4421	-7.0799	2.6205	0.9667	0.856	1.4433	10.4148	1.6819	-0.8912	1.4503	5.6351	-14.9911	-0.1501	-0.2882	-0.006
-1.1058	0.2095	11.9542	47.9782	41.7208	2.7885	-0.3238	1.6134	-0.9114	0.8136	1.3126	9.8161	-9.0765	-7.7666	1.7404	0.9489	0.8791	1.4	9.5259	2.2059	-1.2485	0.8175	5.5832	-14.1584	-0.1381	-0.2762	-0.006
-0.7407	-0.4236	12.7072	56.7168	42.0564	4.4917	-0.3228	1.6842	-0.891	0.9894	1.4857	9.9355	-8.9813	-7.5207	1.725	0.9498	0.9021	1.4212	9.9452	2.1482	-0.842	-0.0795	5.2686	-15.6434	-0.1561	-0.2882	-0.024
-1.2072	1.9991	12.8763	60.7688	31.9611	2.3485	-0.2863	1.6364	-0.8667	0.697	1.0817	9.7557	-8.3702	-7.5037	1.1644	0.9664	0.8562	1.422	9.2987	2.2071	-0.8542	-1.6089	3.335	-15.4855	-0.1381	-0.2882	-0.012
-1.7321	-0.076	12.5734	74.6116	30.0898	1.6	-0.2152	1.5913	-0.9302	0.9887	1.197	9.8771	-7.4707	-6.8931	0.9827	0.9484	0.8559	1.4003	9.5894	1.9736	-1.0201	-3.3378	1.1932	-13.584	-0.1441	-0.2942	-0.012
-6.1443	-4.6938	6.5541	49.8454	43.2448	-4.4638	-0.2518	1.5671	-0.9306	1.2245	1.3125	10.1135	-6.1752	-6.5907	0.655	0.9319	0.9252	1.3779	10.0657	1.5662	-0.7273	-4.5585	-1.0098	-12.7968	-0.1381	-0.2822	-0.012
-5.1967	-2.0339	10.603	-55.5587	50.5618	6.9583	-0.253	1.5926	-0.9978	0.5812	0.9664	9.7535	-5.6826	-6.3671	0.3257	0.986	0.9495	1.4214	9.7729	1.6249	-0.6758	-5.7467	-3.0332	-11.8468	-0.1501	-0.3002	-0.018
-1.4183	-0.7081	13.6702	-41.0281	45.8833	18.3568	-0.2707	1.5437	-0.9527	0.9874	1.4278	9.8194	-5.7497	-6.5031	-0.0243	0.932	0.8781	1.4424	10.2918	1.5649	-1.1785	-6.265	-5.0614	-10.9333	-0.1321	-0.2762	-0.03
-0.6074	0.2702	13.6312	57.3258	34.339	21.7533	-0.251	1.5422	-0.8857	0.8736	1.3704	9.9333	-6.6499	-6.6882	-0.3428	1.0031	0.9269	1.422	10.1823	1.3913	-0.7824	-5.686	-5.756	-10.5744	-0.1501	-0.2762	-0.012
-2.4042	-1.1166	10.8331	80.4275	28.9911	22.077	-0.1957	1.6379	-0.8865	0.5841	1.1398	9.9278	-7.8291	-7.8688	0.2378	0.9677	0.9024	1.4429	10.239	1.2746	-0.8955	-5.0772	-6.0727	-10.4728	-0.1441	-0.2882	-0.006
-1.9365	-0.6559	11.0159	63.9747	30.2723	23.5759	-0.2162	1.5205	-0.9507	0.9844	1.2544	9.6451	-10.0849	-8.7531	0.8115	0.9488	0.8557	1.4216	10.6414	1.3312	-1.3433	-4.9505	-5.9049	-9.9731	-0.1381	-0.2882	-0.006
-0.1205	-1.1191	11.6831	52.5504	23.9639	26.6062	-0.2152	1.5194	-0.9063	1.0432	1.4276	9.7044	-10.5278	-9.9924	1.0744	0.968	0.9492	1.3997	10.0036	1.5077	-0.8994	-5.6999	-4.8184	-9.0495	-0.1441	-0.2882	-0.012
2.1832	-2.222	10.519	61.6707	17.2662	21.2364	-0.1991	1.498	-0.9941	1.1677	1.2549	10.1704	-12.8797	-10.8907	1.3372	0.968	0.9492	1.3997	10.3595	1.6241	-0.7215	-6.519	-4.3548	-8.865	-0.1561	-0.2942	-0.006
3.4613	-2.859	10.4278	67.1645	16.0407	7.6845	-0.1426	1.4244	-0.88	0.9912	1.7168	10.0518	-14.2421	-12.1096	2.1334	0.9498	0.9021	1.4212	10.0082	1.45	-0.6717	-5.7006	-3.8766	-9.5848	-0.1381	-0.2882	-0.006
4.5878	-3.6729	8.5513	67.618	14.5343	-11.6957	-0.18	1.4251	-0.9253	1.1621	0.7348	9.8216	-16.2861	-13.6922	3.0333	0.9831	0.8338	1.4012	9.7131	1.5084	-0.7341	-6.1528	-3.7346	-9.0817	-0.1381	-0.3122	-0.018
5.554	-4.0812	7.4198	50.9018	17.6542	-36.7227	-0.2347	1.4246	-0.9267	1.0533	0.9086	10.2259	-18.6011	-14.8795	4.1464	1.0206	0.904	1.444	10.0735	1.5672	-0.3285	-5.4856	-3.8227	-9.3993	-0.1261	-0.2942	-0.018
6.4777	-4.8335	7.0339	31.6836	23.7772	-63.1183	-0.1814	1.4268	-0.9919	1.0479	1.0237	9.9359	-20.9645	-16.8601	4.463	0.9669	0.8794	1.4218	9.4256	1.8007	-0.3972	-4.6038	-3.5742	-9.701	-0.1501	-0.3002	0
5.9919	-4.8927	5.9895	13.4051	34.5423	-91.1425	-0.1621	1.3778	-0.9237	0.8093	1.4278	9.5842	-22.5232	-18.5098	4.6733	0.9667	0.856	1.4433	9.9504	1.5084	-0.6157	-3.1088	-3.6591	-9.3794	-0.1441	-0.3002	-0.006
5.6372	-5.4117	5.6363	-15.048	42.6207	-110.6146	-0.1974	1.3519	-0.8575	1.3442	1.6013	10.348	-24.1398	-19.5268	4.5834	1.0009	0.8578	1.38	9.601	1.6257	-0.4512	-1.9764	-3.5335	-8.7979	-0.1561	-0.3002	0
5.0264	-4.8303	7.1201	-58.3318	39.884	-117.7794	-0.1411	1.3746	-0.79	1.1676	1.3126	10.1705	-25.9737	-21.0535	4.8961	0.9657	0.8096	1.4438	9.723	1.6843	-0.221	-0.904	-3.0669	-8.2596	-0.1561	-0.3002	0
4.644	-3.8463	8.437	-63.0322	33.3165	-118.931	-0.2319	1.3493	-0.7696	0.7015	0.7933	9.9874	-27.9859	-22.5766	5.8307	1.018	0.8351	1.3806	10.0152	2.1496	-0.2712	-0.931	-2.6418	-8.0528	-0.1501	-0.3002	-0.012
4.7609	-3.6158	8.4974	-43.645	24.2329	-112.4922	-0.2486	1.3712	-0.7041	1.5661	1.1961	9.7715	-30.1726	-23.334	6.9402	0.9826	0.8106	1.4015	10.0164	2.0333	-0.2146	-0.2552	-1.9813	-7.6857	-0.1501	-0.3122	0
3.9382	-3.2692	8.0795	-45.0405	14.857	-99.5273	-0.2659	1.298	-0.6363	1.2822	0.7349	10.0558	-32.7183	-24.0254	6.1927	1.0179	0.8117	1.4022	9.8283	1.6244	-0.8455	-1.1626	-1.7789	-7.0221	-0.1501	-0.2942	-0.006
3.3688	-3.5549	8.6424	-48.3235	5.7097	-83.0264	-0.2646	1.3444	-0.593	1.5173	0.5616	10.2337	-30.3723	-23.6692	3.1314	1.0543	0.8355	1.4454	9.7647	1.915	-1.0738	-2.0145	-1.994	-6.811	-0.1381	-0.3002	-0.006
2.5003	-3.0338	8.8563	-50.1688	-4.7891	-63.8233	-0.2439	1.2937	-0.4582	1.3318	0.7342	9.5927	-27.5849	-22.9754	0.5868	1.0009	0.8578	1.38	9.7729	1.6249	-0.6758	-2.1646	-2.0323	-6.5351	-0.1561	-0.3182	0
2.5165	-3.0895	9.6613	-47.8703	-16.516	-43.9556	-0.2791	1.3397	-0.4159	1.9697	1.1954	9.6628	-28.3209	-20.8719	-1.167	1.0176	0.7649	1.4453	9.2389	2.0906	-0.9126	-2.7643	-2.0329	-5.3925	-0.1441	-0.3242	-0.006
2.4636	-2.8005	9.9483	-37.7933	-27.4546	-24.5221	-0.2027	1.3603	-0.2592	1.3998	1.0236	10.1742	-31.184	-21.6607	0.1919	1.0358	0.812	1.4239	8.5336	2.0914	-0.926	-3.1545	-2.0829	-4.6846	-0.1561	-0.3062	-0.012
2.1715	-2.6847	9.8853	-32.3047	-35.9317	-6.2197	-0.2012	1.3824	-0.1932	1.1683	0.7352	10.1697	-27.7898	-21.6447	-2.5858	1.0357	0.7886	1.4455	9.0619	1.7414	-0.9737	-2.9926	-1.7147	-3.7136	-0.1441	-0.3002	0
2.6313	-2.9169	9.6065	-30.8157	-40.161	7.6711	-0.2191	1.3579	-0.1709	1.8029	0.561	10.0069	-30.6029	-25.0925	-2.3937	1.0165	0.7656	1.3813	8.8849	2.3237	-0.9757	-3.1973	-1.2452	-2.9188	-0.1441	-0.3242	0.006
2.4653	-3.0886	10.0051	-38.4802	-42.6876	16.0914	-0.1626	1.3561	-0.0807	1.4042	0.7929	10.406	-31.6188	-27.9599	-2.0788	1.0172	0.7651	1.424	9.0181	2.3256	-0.1759	-3.6394	-0.5472	-1.4952	-0.1501	-0.3062	0
2.5243	-2.9732	10.0641	-41.509	-47.1618	19.305	-0.1425	1.3541	0.0085	3.5401	0.7897	9.9805	-10.7923	-36.123	3.6605	0.9819	0.7406	1.4448	9.48	1.7418	-0.6241	-4.3326	-0.1629	-0.7931	-0.1381	-0.3062	-0.012
2.3584	-2.6259	10.5215	-42.306	-51.3215	18.5241	-0.123	1.3288	0.0761	0.7289	0.5643	11.4955	-43.8828	-34.0446	5.4985	1.0005	0.7875	1.4448	9.013	1.8592	-0.4619	-4.6571	0.1747	0.3034	-0.1621	-0.2942	-0.012
2.6504	-2.1073	10.6435	-46.7095	-53.5637	15.4256	-0.0493	1.2564	0.1463	2.5167	0.0417	11.005	-13.6348	-39.2523	3.6562	1.035	0.7891	1.4028	9.1264	1.5674	-0.6882	-5.2244	0.6047	1.468	-0.1321	-0.3122	-0.006
2.2409	-1.4148	10.5796	-48.5523	-51.6201	10.1089	0.0061	1.2321	0.1927	1.7423	0.2144	9.8314	-20.589	-41.8608	5.1637	1.0704	0.7665	1.4464	9.3607	2.2657	-0.682	-5.1825	1.6558	2.3218	-0.1261	-0.3122	0
1.6637	-1.2402	10.7985	-52.1487	-48.4754	3.4004	0.0073	1.2066	0.2599	2.039	-0.3629	10.1839	-16.0184	-42.4694	3.3956	1.033	0.6963	1.4037	9.0642	1.6253	-0.8601	-4.4408	2.5472	3.1616	-0.1501	-0.3002	-0.018
1.7318	-1.0085	11.3177	-56.6391	-46.7626	-4.19	0.0817	1.1575	0.3517	1.8082	0.5036	10.2969	-23.4745	-44.1853	3.2247	1.0676	0.6508	1.4262	9.0085	1.8586	-0.6897	-4.1834	3.149	4.5129	-0.1321	-0.3182	0
1.2739	-0.0264	11.7709	-51.1693	-46.6609	-12.4179	0.1368	1.0856	0.3992	2.5027	0.4449	10.2513	-17.5201	-47.5584	3.8787	1.0509	0.7437	1.3609	9.0039	2.0327	-0.9172	-4.8971	4.0271	6.1633	-0.1381	-0.3122	0
1.1454	-0.2583	11.1355	-44.7655	-48.2345	-20.7916	0.1556	1.037	0.4452	2.0393	0.2723	10.2428	-18.6569	-49.3313	3.3028	1.0666	0.675	1.3406	8.7113	1.8585	-0.8662	-6.1916	4.5428	7.7381	-0.1441	-0.3002	-0.012
1.0355	0.0311	11.4789	-45.9214	-52.4269	-27.3566	0.2096	0.8943	0.4722	2.154	0.3875	10.187	-17.2133	-49.9767	3.3785	1.104	0.7217	1.4049	8.4817	1.9177	-0.5857	-7.1552	5.2591	8.7364	-0.1501	-0.3122	0.006
0.6971	-0.0247	11.9894	-40.8058	-58.2216	-31.7844	0.2461	0.9666	0.4493	2.1499	0.3295	9.9548	-20.3051	-53.7719	3.8287	1.1201	0.7232	1.3199	9.0072	2.0331	-0.7463	-8.2411	5.8532	9.7293	-0.1561	-0.3122	-0.006
-0.2464	0.2063	11.339	-29.5817	-63.5616	-34.3653	0.2627	0.8728	0.4076	2.5044	-0.1324	10.3086	-18.9745	-54.4816	2.0999	1.0668	0.6984	1.319	8.5937	1.9169	-0.8683	-10.2977	6.0012	11.4449	-0.1441	-0.3002	-0.03
-0.3715	-0.5442	10.8173	-32.0649	-67.3211	-33.9985	0.3717	0.7782	0.4349	3.0752	0.155	9.8553	-21.8596	-55.8013	-0.8293	1.1206	0.7463	1.3197	9.0633	2.4403	-0.8581	-12.4167	6.4057	12.8668	-0.1441	-0.3122	-0.006
-0.3817	-0.6608	10.2995	-39.2494	-69.1928	-32.3925	0.3727	0.777	0.4793	1.817	0.1	10.7605	-21.3113	-54.2839	-3.0307	1.102	0.6994	1.3198	9.0609	1.5667	-1.0311	-14.0583	6.2499	13.3641	-0.1501	-0.3062	0
-1.2447	-0.6003	10.7424	-44.7533	-70.6874	-30.0484	0.3877	0.733	0.3478	2.2806	0.1572	10.7689	-12.029	-54.9045	-5.5661	1.1011	0.6765	1.2987	9.6529	1.7412	-0.7916	-15.4899	5.2278	13.9068	-0.1501	-0.3002	-0.012
-1.079	-0.8323	10.2852	-48.311	-73.297	-27.5364	0.4053	0.71	0.3266	3.4335	0.0398	10.4415	0.8022	-59.069	-4.3739	1.1009	0.7002	1.2557	9.1854	1.3927	-0.6875	-16.2154	5.0555	14.6725	-0.1561	-0.3122	0
-1.0687	-0.8311	10.8028	-47.6354	-74.8259	-25.4618	0.3851	0.6401	0.2613	2.3832	-0.8833	9.9575	-3.8146	-60.0288	-5.2226	1.0993	0.6072	1.278	9.36	1.9163	-0.7398	-17.2235	5.1999	14.2885	-0.1381	-0.3302	-0.018
-1.069	-0.6581	10.8032	-44.8361	-75.594	-24.3474	0.4395	0.665	0.2399	3.4763	0.5006	9.631	-7.54	-60.1773	-7.2024	1.0828	0.6765	1.2556	9.5314	1.2751	-1.0229	-17.5318	5.5299	13.6932	-0.1621	-0.3182	-0.036
-1.2445	-0.1389	10.801	-43.1002	-76.2155	-24.0928	0.4394	0.7132	0.2166	1.9799	0.561	10.1841	-2.9001	-63.9085	-5.0755	1.1185	0.7007	1.2561	10.0605	1.1581	-1.0131	-17.1926	5.9182	13.9874	-0.1561	-0.3182	-0.012
-1.0729	-0.4279	10.6312	-43.4661	-77.4553	-25.9139	0.4563	0.6669	0.1738	2.9608	0.6749	9.9699	-7.2233	-64.2666	-5.0791	1.0813	0.6774	1.1702	9.9423	1.7985	-1.0138	-17.1531	6.1644	14.953	-0.1441	-0.3182	0.006
-1.4788	-0.427	10.6807	-42.2232	-79.6952	-27.2863	0.4746	0.739	0.1504	2.6094	0.2709	9.7311	-8.5001	-65.5844	-4.8175	1.1167	0.7019	1.1493	10.2969	1.0415	-0.9519	-17.2968	6.5391	15.8038	-0.1561	-0.3182	-0.03
-1.5325	-0.311	10.9098	-37.0864	-81.3071	-29.2456	0.4902	0.6463	0.0643	3.4254	1.5406	10.0954	-12.2923	-69.9798	-5.7382	1.1332	0.6327	1.1718	10.2986	1.5075	-0.8369	-17.6027	7.0786	15.4039	-0.1621	-0.3122	0
-2.1858	-0.3691	10.2069	-36.1675	-81.7162	-29.9994	0.5069	0.6963	-0.0251	3.3563	-1.1742	9.2786	1.7503	-71.1993	-3.9874	1.1157	0.6556	1.1498	10.357	0.867	-0.8943	-17.5954	6.6749	16.459	-0.1501	-0.3182	-0.006
-2.6557	-0.3111	9.9678	-37.8006	-80.0046	-30.441	0.4889	0.7199	-0.0262	3.7106	0.2117	9.7508	-10.5201	-69.8486	-4.62	1.0617	0.6547	1.0847	10.2993	0.8672	-0.8384	-18.4865	6.1481	15.8239	-0.1501	-0.3062	-0.006
-3.2487	-0.8879	9.3224	-38.7621	-77.5529	-29.701	0.5047	0.651	-0.1128	3.8256	0.096	9.6947	-4.7668	-71.5815	-1.4677	1.1325	0.7037	1.043	10.4247	0.868	-0.4374	-17.8553	5.0805	15.3021	-0.1561	-0.3062	0
-3.885	-1.3476	9.4236	-39.7275	-74.9521	-28.1845	0.4868	0.6984	-0.1144	3.8786	-0.1354	9.4054	-4.8608	-70.8435	-5.1761	1.1327	0.68	1.0859	10.4781	0.6344	-0.7217	-16.6978	4.3829	15.5946	-0.1681	-0.3002	-0.018
-4.4726	-1.1742	9.125	-40.6883	-71.0414	-25.5833	0.5223	0.6999	-0.1578	3.7041	-0.4239	9.3439	-7.78	-71.0733	-3.8738	1.1475	0.5649	1.0661	10.1275	0.8097	-0.614	-16.439	4.1896	13.8606	-0.1501	-0.3002	-0.012
-4.814	-0.8266	9.5214	-44.3757	-66.6626	-21.6835	0.4842	0.7256	-0.2481	4.1709	-0.482	9.5262	3.0026	-67.9794	-8.4409	1.1482	0.6349	1.0227	11.0688	0.0519	-0.598	-14.9642	3.3705	12.0841	-0.1621	-0.3062	-0.018
-6.2128	-0.3053	9.38	-43.8976	-60.8101	-16.6944	0.4481	0.7728	-0.2502	4.5642	-0.5989	8.8372	1.7137	-66.8366	-11.8071	1.0763	0.5632	1.0219	10.1991	0.3455	0.0126	-14.0939	2.7255	10.8136	-0.1681	-0.2942	-0.012
-6.9094	-0.3038	9.4237	-42.5632	-54.0656	-10.5149	0.5185	0.7525	-0.3587	3.9973	0.0957	9.5818	0.837	-67.1502	-12.6618	1.0955	0.6568	1	10.7113	0.3428	-0.8319	-13.619	2.3002	9.527	-0.1441	-0.3002	-0.018
-7.3361	-0.2477	8.4381	-40.5654	-47.3623	-2.9812	0.5	0.6566	-0.3347	4.3537	-0.1351	10.0519	8.2403	-65.8017	-16.9546	1.1113	0.588	0.9797	10.4219	0.4019	-0.6094	-13.2409	1.6154	7.7049	-0.1621	-0.3002	-0.012
-8.3761	0.5049	8.8217	-36.9123	-39.7232	5.258	0.4995	0.6572	-0.3569	4.1193	-0.5392	9.8731	10.3667	-67.8926	-17.8454	1.0753	0.6579	0.8502	10.4177	0.1685	-0.8379	-13.0713	0.9138	6.4679	-0.1681	-0.3062	-0.012
-9.3134	0.5635	8.4584	-34.1975	-31.0482	13.423	0.5182	0.7769	-0.3815	4.7594	-0.1356	10.0592	13.6109	-70.0871	-20.7972	1.0573	0.5871	0.9146	10.5931	-0.0065	-0.8919	-13.904	0.2713	5.5803	-0.1501	-0.3062	-0.012
-10.1288	0.6803	8.385	-33.7074	-24.6772	21.8492	0.5549	0.7529	-0.3578	4.7009	-0.5976	9.9995	17.5372	-77.8013	-23.4281	1.0735	0.5886	0.8295	10.3543	0.2262	-1.0667	-14.9755	-0.3252	5.2506	-0.1561	-0.2942	-0.018
-11.0591	1.2588	8.4255	-23.065	-18.5546	30.204	0.5354	0.7063	-0.4015	4.2398	-0.0771	10.1659	13.8638	-76.9957	-27.2712	1.0755	0.6814	0.8286	9.8763	0.2257	-1.4744	-16.1147	-0.864	4.0942	-0.1621	-0.3122	-0.018
-11.0724	0.9689	7.7347	-10.4424	-9.8027	38.6808	0.5913	0.6813	-0.3329	4.8721	-0.136	9.8872	21.64	-80.199	-29.4709	1.1097	0.6361	0.8298	9.7035	0.1099	-1.3072	-18.0808	-1.9109	2.6721	-0.1561	-0.3062	-0.012
-11.4854	1.0843	7.4394	-6.102	1.6443	45.3429	0.6281	0.7293	-0.3331	4.6969	0.1528	9.8264	19.8643	-85.1553	-31.6171	1.0734	0.6357	0.765	9.8801	-0.1231	-1.3044	-20.1035	-2.7558	1.6915	-0.1561	-0.3062	0.006
-10.5578	1.3128	7.3434	-1.3718	16.2299	48.3043	0.6662	0.8236	-0.2901	4.8076	0.0946	9.5384	21.216	-90.549	-37.9043	1.0726	0.6362	0.7223	10.0555	-0.2981	-1.3584	-21.3015	-3.4904	0.8944	-0.1561	-0.3182	-0.012
-9.3547	1.0199	6.4468	2.1366	31.0123	46.7522	0.7016	0.7532	-0.3096	6.4238	1.1315	9.2788	16.9302	-98.0395	-38.4652	1.0202	0.6344	0.7426	9.8123	-0.066	-1.7611	-21.9051	-4.1024	1.8822	-0.1561	-0.3122	-0.03
-7.9762	1.4188	5.6704	1.8577	47.4089	37.5506	0.7402	0.7989	-0.221	5.9882	1.1918	10.8369	13.0324	-101.415	-44.4421	1.0014	0.6346	0.6782	9.8663	-0.7653	-2.0465	-22.9369	-4.3287	2.4938	-0.1681	-0.3002	-0.012
10.0701	0.5055	24.4202	-15.0715	46.503	20.5854	0.7405	0.7745	-0.1983	5.8667	1.4803	10.5452	17.991	-107.5388	-38.9326	1.0552	0.6591	0.7004	9.8733	-1.0555	-1.7054	-24.8567	-3.9046	2.2855	-0.1561	-0.3122	-0.012
12.4882	11.8437	18.6325	115.7557	-10.3095	5.1429	0.7423	0.8204	-0.1328	5.6888	-0.1944	10.1918	18.9062	-114.6075	-41.1042	0.9822	0.6116	0.614	9.8094	-0.4739	-1.933	-26.0283	-3.4348	0.4439	-0.1741	-0.3182	-0.006
-1.9376	10.7476	6.3301	181.1472	264.8012	-29.8743	0.7807	0.8904	-0.067	5.7548	0.7878	10.7162	17.3157	-121.6496	-46.7401	0.9666	0.7038	0.6127	9.3389	-0.2405	-1.9413	-27.36	-2.5652	-6.1418	-0.1501	-0.3182	0
2.4245	-0.1313	16.9668	-149.8493	198.2601	-17.249	0.7793	0.8921	-0.1336	5.9615	1.1941	12.5763	15.5267	-131.8233	-47.5799	0.9823	0.6821	0.5279	10.0604	4.3019	-0.8346	-32.1773	-4.5636	-12.6946	-0.1741	-0.3362	-0.012
-0.1622	3.7481	21.696	24.3823	212.266	-2.0043	0.8179	0.8658	-0.0211	3.9326	0.3347	15.6704	26.276	-144.962	-41.3731	0.9112	0.6334	0.5483	11.4755	6.6954	2.5579	-7.8583	-15.1844	-7.1725	-0.1741	-0.3182	-0.006
7.666	18.9618	2.057	247.6564	159.5403	43.8136	0.837	0.9849	-0.0235	7.1599	-1.0566	14.6247	65.5153	-154.9619	-39.8731	0.9286	0.6576	0.5057	14.9685	4.4898	6.776	13.5795	-39.7641	7.8246	-0.1801	-0.3242	0.012
-15.7356	-15.9122	8.2335	39.8767	116.1855	74.9276	0.8366	0.9374	-0.0224	8.9357	-3.6011	13.3194	94.6354	-166.4585	-50.968	0.8921	0.6338	0.4625	15.3465	2.746	7.9748	31.669	-54.284	11.8104	-0.1621	-0.3242	0.006
-0.7907	-2.7867	12.8729	-12.426	55.3288	-15.1922	0.8357	0.9385	-0.0667	7.1578	-4.3482	14.2724	106.3155	-169.3954	-68.8477	0.8205	0.6324	0.397	11.6982	2.1598	4.6581	38.5624	-42.2652	-10.3747	-0.1621	-0.3182	-0.006
-4.567	-4.0546	9.9208	30.4349	-2.6918	-31.3646	0.8724	0.9145	-0.043	7.3818	-3.1364	13.93	139.2987	-182.9276	-80.0615	0.8543	0.6345	0.3123	10.2165	1.8032	0.9845	48.3589	-27.3758	-14.2006	-0.1681	-0.3182	0
0.8413	1.5213	7.7424	-9.1564	42.1382	-5.2416	0.8716	0.9876	-0.1113	6.5932	-2.0943	15.2511	146.5417	-195.3466	-90.5581	0.7833	0.6092	0.3111	8.0636	1.9173	-0.9353	49.0456	-14.4245	-0.1873	-0.1681	-0.3242	0
-1.8514	-1.8131	9.3478	-27.6684	36.055	1.4749	0.873	0.9859	-0.0448	7.4134	-0.8821	15.8474	175.2137	-208.4303	-93.0295	0.7482	0.6315	0.2888	7.6837	2.2636	-2.3084	36.3579	-4.3779	6.1887	-0.1741	-0.3242	0
-2.8898	-3.021	9.6117	-8.3099	9.0974	-7.2815	0.8738	1.0329	-0.0237	9.6747	0.6743	16.0641	203.9725	-217.0326	-89.3417	0.7125	0.6778	0.2022	7.6236	3.4861	-2.3066	17.621	-1.3293	6.5618	-0.1741	-0.3062	0.012
-2.8016	-4.2285	10.9901	15.4689	-9.0758	-2.1073	0.8372	1.0087	-0.0241	10.3562	1.7695	15.3818	222.3456	-215.0975	-78.4944	0.6576	0.6306	0.1375	8.5909	3.372	-0.9218	6.5519	-5.4983	3.0839	-0.1801	-0.3242	0.006
