1812_acc_x	1812_acc_y	1812_acc_z	1812_gyro_x	1812_gyro_y	1812_gyro_z	1812_mag_x	1812_mag_y	1812_mag_z	1813_acc_x	1813_acc_y	1813_acc_z	1813_gyro_x	1813_gyro_y	1813_gyro_z	1813_mag_x	1813_mag_y	1813_mag_z	1814_acc_x	1814_acc_y	1814_acc_z	1814_gyro_x	1814_gyro_y	1814_gyro_z	1814_mag_x	1814_mag_y	1814_mag_z
9.831397	-3.673636	7.271799	77.418119	-69.506977	-234.86958	0.456062	-1.037312	-1.045733	1.816037	0.703511	9.125238	1.274358	-7.41612	1.394047	-0.216141	0.228148	-0.120078	11.037034	1.313659	0.004469	0.013326	-1.450584	-1.352811	-0.6011	-0.12639	1.069976
5.374164	-7.795552	5.034722	68.15379	-114.409903	-240.64466	1.11548	-0.233618	-0.45802	1.646543	1.047676	9.180369	-0.036017	-6.522952	0.849989	0.120078	-0.114074	-0.186121	10.527138	1.14152	0.107729	0.72541	-3.904086	-4.748228	-0.574286	0.551366	-0.290416
2.104943	-9.540704	2.075785	27.745092	-135.626784	-210.329566	1.082424	-0.214647	-0.5156	1.709752	0.989604	9.535558	-1.263102	-6.021523	0.586814	0.120078	-0.102066	-0.186121	10.645632	1.663674	0.397808	1.312327	-5.331018	-7.220008	-0.551611	0.518802	-0.289874
0.511765	-8.318433	2.798308	-44.156583	-156.359192	-157.987538	1.024267	-0.145564	-0.542171	1.706663	0.932616	9.358659	-0.78237	-6.913625	0.604832	0.10807	-0.114074	-0.186121	9.957819	1.084761	0.096203	2.942185	-5.625456	-8.733715	-0.56898	0.515357	-0.271921
0.446477	-6.280539	5.402577	-86.181285	-174.72899	-97.602436	1.023623	-0.124926	-0.579596	1.874155	0.531362	9.185629	-0.553467	-6.862204	0.04354	0.102066	-0.10807	-0.180117	10.01623	0.911221	0.153633	4.693784	-5.422963	-10.594748	-0.589428	0.543672	-0.28493
1.466771	-4.012091	7.797863	-110.857508	-195.633757	-45.571798	1.025415	-0.087028	-0.599965	1.82228	1.16114	9.537427	0.382766	-6.909784	0.191879	0.10807	-0.090059	-0.192125	9.557305	0.911342	-0.026654	4.969016	-4.965959	-12.25553	-0.605897	0.54498	-0.284067
2.231055	-1.572506	8.859257	-120.581939	-211.007999	-13.399793	0.993386	-0.069183	-0.639386	1.826158	0.588013	9.656443	0.982102	-7.508261	0.440746	0.096063	-0.090059	-0.180117	9.566201	0.971341	0.430347	5.520082	-4.056646	-13.19125	-0.556063	0.5273	-0.264942
2.872754	-0.526953	9.452493	-123.920756	-218.589199	0.944532	0.987485	-0.102575	-0.691657	1.93044	0.244831	9.128223	4.013362	-7.735124	1.119507	0.102066	-0.096063	-0.192125	9.850246	0.738924	0.377834	5.919856	-4.082827	-13.157907	-0.573432	0.523855	-0.246989
3.515596	0.518741	10.103543	-126.686284	-220.960448	-0.370606	1.036998	-0.081126	-0.671607	1.352823	2.596032	8.818194	-4.894522	-5.763752	2.713174	0.120078	-0.102066	-0.186121	10.242763	0.968399	0.101309	7.272878	-4.104061	-12.660756	-0.550712	0.523555	-0.306964
4.566782	3.951955	14.120437	-114.623282	-221.258948	-20.593619	0.911582	-0.032636	-0.755545	2.060929	0.586519	10.132791	-0.068708	-13.839729	4.522918	0.102066	-0.096063	-0.174113	10.190097	1.085357	0.329077	8.563529	-3.810926	-12.752375	-0.586302	0.544176	-0.314486
2.402239	2.78799	11.936206	-134.670694	-203.180419	-34.52975	0.876735	-0.051562	-0.792757	2.152618	-0.270975	8.838483	39.292336	-12.706665	2.763277	0.120078	-0.10807	-0.192125	10.020507	1.028065	0.382527	10.346764	-3.760116	-12.621621	-0.569453	0.496848	-0.233118
-1.394403	1.230295	14.226259	-95.043358	-182.732627	-42.790253	0.879936	0.004721	-0.81423	2.478206	0.989349	8.311768	-11.936814	-9.14109	6.893491	0.102066	-0.096063	-0.192125	10.242433	0.562862	0.042376	12.098429	-3.450879	-13.414626	-0.56988	0.510603	-0.254831
0.38062	3.027614	14.150394	-68.004487	-168.49776	-56.261297	0.812295	-0.035384	-0.852333	1.654448	1.676979	9.710254	-4.54185	-7.671222	7.862321	0.10807	-0.102066	-0.174113	9.678393	1.260333	0.376821	13.265513	-3.046916	-14.885881	-0.555637	0.513545	-0.243228
-5.389687	3.442746	15.365671	-65.136582	-159.83023	-102.683827	0.817288	0.058797	-0.894177	2.436303	-0.271929	8.902916	4.668034	-13.16909	-5.371943	0.114074	-0.10807	-0.186121	9.563607	1.144505	0.316951	14.647242	-2.233386	-14.866733	-0.568553	0.501601	-0.250207
0.38825	-0.874912	8.535285	-76.240484	-126.400212	-59.530206	0.782441	0.039871	-0.931388	3.760811	0.242455	7.276077	24.245339	-1.266813	-7.916219	0.102066	-0.10807	-0.180117	9.444761	1.375267	0.087381	14.645573	-1.474354	-14.394957	-0.600591	0.50897	-0.265571
-4.019259	-4.635382	11.732491	-85.400027	-116.648296	-61.508803	0.804033	0.07466	-0.878119	3.362	1.675857	7.324933	19.691766	-9.241382	1.750977	0.102066	-0.096063	-0.186121	9.85193	1.028932	0.493333	13.505961	-0.578352	-13.779543	-0.550285	0.509799	-0.28525
-11.469295	3.332978	15.41768	0.006575	-160.614185	-65.253149	0.738566	0.091965	-0.955856	1.357176	-2.163434	11.36254	19.78589	-6.809151	3.881353	0.096063	-0.102066	-0.186121	9.335049	0.971008	0.254565	13.351474	-0.29895	-14.153893	-0.604144	0.522222	-0.257729
-6.658075	0.243462	11.980726	-60.016507	-137.185895	-63.383552	0.761568	0.14514	-0.903692	1.542154	1.791803	9.766878	3.21427	-11.353836	7.776843	0.096063	-0.114074	-0.186121	9.385235	0.969317	-0.086862	12.151953	-0.131177	-14.072473	-0.589001	0.529916	-0.263216
-7.673463	-2.372683	9.815861	-76.987821	-129.695833	-48.648832	0.696364	0.122294	-0.924739	1.712821	2.879442	10.00421	0.808126	-9.84939	14.697104	0.10807	-0.102066	-0.204133	9.847994	0.738399	0.26365	11.384374	-0.49276	-13.058855	-0.566327	0.497352	-0.262674
-7.54944	-0.33286	13.290781	-93.621393	-106.943008	-34.058187	0.689054	0.070516	-0.975905	2.107157	0.759139	9.602571	9.44337	-9.943753	3.808995	0.090059	-0.102066	-0.192125	9.779788	0.735884	-0.308398	10.832692	-1.02126	-10.939101	-0.566754	0.511107	-0.284387
-8.4271	0.536658	12.466325	-83.622295	-94.361464	-13.948098	0.661898	0.12288	-0.981215	1.697693	1.391666	8.944846	0.623696	-10.002468	9.564541	0.090059	-0.10807	-0.186121	9.662409	0.793219	-0.481664	9.788241	-1.404672	-10.752307	-0.584168	0.475398	-0.205917
-10.131338	-0.685655	10.348913	-98.843167	-70.859069	11.032089	0.615849	0.117564	-0.966049	2.446403	1.445423	9.725873	5.07362	-12.054702	10.105512	0.102066	-0.084055	-0.168109	9.826368	0.849197	-0.820575	9.019827	-1.614654	-11.699744	-0.571679	0.501097	-0.220652
-11.051082	-0.278606	10.273789	-113.812619	-55.85071	39.938745	0.65108	0.156002	-0.948102	1.932123	1.504757	9.420991	0.007413	-9.960584	8.106365	0.090059	-0.102066	-0.186121	9.997311	0.790959	-0.817459	6.682815	-1.572625	-12.355598	-0.587248	0.507158	-0.236878
-10.741867	-0.856656	11.376587	-149.708862	-47.117755	64.045276	0.618286	0.134823	-0.948994	2.096057	0.473794	8.954077	-3.025084	-10.871426	8.930708	0.090059	-0.10807	-0.180117	9.838074	1.199467	-0.190984	4.221813	-1.102089	-13.08323	-0.581896	0.503413	-0.2789
-10.316377	1.532962	15.609652	-136.125696	-78.332325	82.76727	0.58652	0.112518	-0.931725	2.100126	0.931626	9.248266	0.007849	-11.414278	8.538442	0.090059	-0.096063	-0.180117	9.553244	1.257932	-0.196353	1.883733	-0.652535	-14.360278	-0.567227	0.492599	-0.245584
-11.323318	5.368414	17.101485	-40.45015	-46.763651	101.200428	0.637442	0.152353	-0.91278	1.994182	1.103133	9.658789	1.069796	-13.068376	7.80663	0.084055	-0.102066	-0.186121	8.923944	1.026809	-0.381069	0.623147	-0.639227	-14.245017	-0.55431	0.504542	-0.238604
-15.71821	3.954158	6.550221	-7.319038	-56.002348	109.143251	0.608232	0.20697	-0.95441	1.484995	1.276545	9.648705	0.263293	-12.967327	7.718819	0.078051	-0.10807	-0.180117	9.093864	1.489639	-0.375588	0.286771	-1.2223	-12.398108	-0.580143	0.480655	-0.252563
-15.081601	4.585672	3.963809	-55.935474	-41.811991	102.505975	0.650435	0.17664	-0.985527	1.939943	0.702155	9.717413	-4.231218	-14.928459	8.405341	0.096063	-0.114074	-0.174113	8.92507	1.027072	-0.323977	1.703629	-2.038962	-9.863473	-0.564574	0.474594	-0.236336
-14.530867	7.027436	5.830038	-72.216867	-25.90448	94.253306	0.634743	0.175244	-0.986525	1.826286	1.275319	9.773225	-2.307935	-16.921182	8.671153	0.096063	-0.10807	-0.180117	9.329976	1.259438	0.027511	1.858429	-2.415759	-9.119836	-0.565473	0.469841	-0.219246
-14.956966	5.987025	7.437192	-47.072758	-19.03179	85.133377	0.623542	0.188854	-0.934147	1.872216	0.817926	9.126122	-2.661833	-19.492527	8.766316	0.090059	-0.096063	-0.192125	9.040982	1.143163	-0.207015	0.228181	-2.100483	-9.013568	-0.600165	0.495214	-0.243858
-14.782905	6.393436	7.557229	-33.200632	-7.8272	69.21527	0.651724	0.135364	-0.910678	1.60089	1.046831	9.769284	-4.26136	-21.277817	8.52455	0.090059	-0.096063	-0.192125	9.043917	0.79631	-0.094408	-2.141186	-1.029993	-6.726602	-0.552084	0.500293	-0.25107
-13.301934	7.261372	7.068709	-13.237013	6.395334	50.373595	0.637442	0.152353	-0.91278	2.27009	1.160183	9.31012	-5.366193	-23.49477	9.565872	0.060039	-0.090059	-0.180117	8.703372	1.376483	0.015648	-4.447833	-0.317661	-2.962914	-0.585922	0.498156	-0.232255
-12.182977	9.643838	8.657154	5.474635	30.691519	22.196896	0.669208	0.174658	-0.930049	2.110758	0.64425	9.779775	-9.200654	-26.647333	10.491895	0.084055	-0.114074	-0.186121	8.586573	0.565109	-0.218653	-5.340055	0.403031	1.419824	-0.565001	0.488349	-0.25805
-12.834386	11.332495	10.613193	37.777933	50.83642	-10.381598	0.703674	0.174072	-0.873573	2.563895	1.043731	9.905758	-12.576392	-31.363374	11.795376	0.084055	-0.10807	-0.192125	8.698321	0.506459	-0.330848	-6.139319	0.684124	4.528637	-0.584595	0.489153	-0.227631
-9.302661	13.053166	3.637134	110.346855	33.897746	-32.693667	0.689391	0.191061	-0.875675	1.823601	1.447399	9.65492	-15.513918	-35.276418	12.856311	0.078051	-0.102066	-0.186121	8.920918	0.273104	-0.612855	-7.860572	0.856011	8.032579	-0.61886	0.500771	-0.230529
-2.800866	2.541991	4.087886	30.117045	2.485033	-34.094225	0.620985	0.111932	-0.875249	2.401836	1.444477	10.373788	-17.491742	-38.802441	14.061671	0.072047	-0.090059	-0.192125	8.972457	0.155884	-0.897716	-12.441142	0.975158	10.635399	-0.5668	0.478843	-0.22387
-2.427917	-3.942244	11.014579	-27.655363	-10.908267	-18.176426	0.704701	0.172946	-0.855413	2.848431	0.756315	9.970699	-23.123986	-45.658799	14.722789	0.078051	-0.084055	-0.186121	8.752557	0.737405	-0.442855	-17.115638	1.858076	13.311725	-0.601964	0.485708	-0.209678
-3.060622	-3.876686	13.833927	-0.580811	1.719171	-0.761056	0.669853	0.15402	-0.892624	2.06894	0.814877	10.604386	-21.848014	-52.034705	14.885508	0.066043	-0.084055	-0.198129	9.879705	0.964087	-0.9902	-20.651545	2.27094	15.576881	-0.5659	0.483596	-0.24096
-1.756944	-2.428716	13.112117	30.942446	10.280023	21.822803	0.687982	0.172676	-0.874571	2.178784	1.158493	10.48795	-25.704336	-59.088797	16.674454	0.072047	-0.102066	-0.174113	10.344022	1.6603	-0.464206	-18.434316	0.757526	16.17439	-0.598838	0.486212	-0.239234
-3.359784	-1.621044	10.423734	68.487739	0.306235	11.321921	0.703674	0.174072	-0.873573	2.894241	0.694759	12.448807	-24.609632	-63.297025	12.502342	0.060039	-0.078051	-0.198129	11.896689	1.95039	0.366807	-13.171276	-2.17801	11.897353	-0.564528	0.506858	-0.296853
-2.228271	-0.172906	9.698495	71.157426	-1.591171	5.099061	0.697391	0.121168	-0.906579	2.671721	1.32515	12.738345	-6.037893	-73.730446	6.801074	0.048031	-0.102066	-0.198129	11.728214	2.472588	0.537071	-6.152046	-6.439493	9.648382	-0.601064	0.490461	-0.226768
-1.726606	0.98577	9.017799	51.1045	3.068464	5.094636	0.650697	0.13649	-0.928838	3.733575	0.979375	12.051598	-7.112791	-85.261328	1.125244	0.060039	-0.084055	-0.174113	12.202008	2.360091	1.45903	0.833954	-9.432626	8.623741	-0.614407	0.492273	-0.255461
-1.958167	0.6955	8.896899	32.118388	6.333927	3.601899	0.719748	0.194981	-0.891839	2.595245	2.181222	14.858655	-10.063985	-93.952737	-5.567684	0.048031	-0.096063	-0.174113	11.465909	2.53631	1.673546	4.246236	-9.233235	8.362206	-0.588148	0.502405	-0.219789
-2.169042	0.291659	9.816385	15.196436	8.783131	1.476563	0.698418	0.120041	-0.888419	2.581331	1.380651	13.975074	6.468842	-110.290589	-11.48181	0.048031	-0.090059	-0.174113	10.673231	1.380501	1.766705	4.886314	-6.971794	7.242767	-0.586821	0.493402	-0.215165
-2.516046	0.698013	9.694876	8.731208	10.962004	1.077978	0.713083	0.122564	-0.905581	2.931038	1.836851	14.629783	0.379362	-126.463753	-11.865187	0.036023	-0.096063	-0.174113	9.580934	2.075316	1.291723	5.617308	-4.048956	7.056583	-0.600591	0.50897	-0.265571
-2.230112	-0.637527	9.581747	6.79813	11.74047	1.981004	0.652107	0.154876	-0.929942	2.596608	1.722883	14.859467	2.867903	-142.028568	-14.715863	0.03002	-0.084055	-0.150098	9.584779	1.265292	1.402228	7.520499	-2.442173	9.812691	-0.589047	0.497652	-0.202699
-2.523769	0.406821	9.289474	8.286231	10.963138	1.883146	0.666007	0.118375	-0.908575	2.427284	2.009755	14.9147	0.253378	-159.88112	-16.106033	0.03002	-0.084055	-0.162106	10.085664	1.435329	0.842231	9.859621	-2.99744	14.089247	-0.61796	0.505525	-0.247619
-2.638379	0.232804	9.286769	7.437519	10.303888	2.212398	0.681699	0.119771	-0.907577	3.447128	0.803648	14.877391	6.823067	-175.865994	-16.659399	0.006004	-0.096063	-0.162106	10.183328	1.663007	0.046245	10.662747	-4.311207	16.570675	-0.601491	0.504217	-0.248482
-2.289144	-0.115227	9.524047	8.666133	10.132255	3.398529	0.693927	0.105034	-0.941795	2.083905	0.521986	14.438818	3.320865	-192.166394	-16.712294	0	-0.096063	-0.156102	10.116579	2.066292	-0.409779	9.037194	-6.018044	16.662681	-0.638027	0.48782	-0.178396
-2.178631	0.754883	9.354985	9.51053	8.979056	2.750461	0.714492	0.14095	-0.906686	2.315928	0.34892	14.73847	12.051665	-204.525106	-11.764462	0.006004	-0.096063	-0.168109	9.837494	2.068176	-0.129949	5.748936	-6.864887	15.22724	-0.586821	0.493402	-0.215165
-2.233399	0.406962	9.468633	8.561029	8.703551	2.211642	0.683108	0.138157	-0.908682	2.899397	1.152489	12.801996	16.497523	-216.864598	-6.690774	-0.018012	-0.090059	-0.162106	9.206385	2.184168	-0.370181	1.688428	-6.185877	13.568759	-0.665613	0.48669	-0.218692
-2.737153	0.234872	10.093889	4.140488	9.651075	2.325075	0.663188	0.081603	-0.906366	3.276902	1.038437	11.806803	12.507273	-226.929536	-4.904304	-0.03002	-0.084055	-0.156102	8.531405	1.955788	0.014898	-1.297499	-4.740907	12.815784	-0.586821	0.493402	-0.215165
-2.905332	-0.344969	10.262507	6.165091	11.685398	2.757778	0.710264	0.085793	-0.903372	3.526921	2.128882	10.217303	7.044384	-231.869091	-1.839348	-0.018012	-0.072047	-0.132086	8.37533	1.90165	0.753454	-1.639753	-3.108303	11.950333	-0.603717	0.508466	-0.236016
-2.494192	-0.634454	10.732328	7.380272	14.605182	3.062731	0.676443	0.06574	-0.922423	4.420708	2.012585	9.64489	-10.326182	-232.129523	3.410938	-0.042027	-0.102066	-0.126082	8.494745	1.381406	0.98171	-0.565254	-2.529272	10.994592	-0.585922	0.498156	-0.232255
-2.335435	0.234482	10.10189	10.678622	17.66831	2.315589	0.681699	0.119771	-0.907577	6.353004	1.719414	10.213345	-11.818764	-220.744993	12.693255	-0.048031	-0.084055	-0.114074	8.560243	1.614981	1.440625	0.26587	-2.948164	11.008774	-0.641107	0.51958	-0.209358
-2.854327	0.350789	9.976253	12.5046	19.370558	2.647696	0.677852	0.084126	-0.923528	5.864157	0.17774	7.965387	0.078686	-210.808778	12.867141	-0.054035	-0.096063	-0.10807	9.177496	1.669523	0.996539	4.69589	-4.029536	11.179998	-0.600637	0.476706	-0.205054
-2.402246	0.523633	9.638928	13.906636	19.783684	1.195042	0.67747	0.064614	-0.904263	4.752005	-0.106938	8.888164	0.146995	-193.895934	14.072897	-0.066043	-0.084055	-0.114074	9.417089	1.961442	1.630372	8.756468	-4.951327	10.611529	-0.607696	0.535473	-0.249887
-2.527087	0.290316	9.11575	14.4375	19.533266	0.438715	0.731594	0.160732	-0.906792	3.000006	-0.5026	8.796188	22.502755	-171.104521	8.665563	-0.10807	-0.096063	-0.096063	9.356209	1.671022	1.399563	11.954704	-5.321119	9.291611	-0.637555	0.506328	-0.2172
-2.807393	0.523604	9.457483	15.630561	18.724371	0.988322	0.725956	0.087189	-0.902374	-5.025049	-2.53531	5.283616	60.597374	-122.169924	-8.987933	-0.084055	-0.078051	-0.090059	9.014447	1.150374	1.333347	13.522074	-4.969613	9.628307	-0.605043	0.517468	-0.240639
-2.749782	0.291377	9.458067	16.346505	16.887283	1.079211	0.722754	0.030906	-0.8809	-6.376127	-1.787128	5.669218	76.218462	-61.892021	-16.259397	-0.090059	-0.084055	-0.078051	9.358234	1.78734	1.514273	13.950033	-3.759084	11.009387	-0.601491	0.504217	-0.248482
-3.388077	0.465279	9.099024	16.911709	15.661577	1.809981	0.741265	0.069074	-0.882111	-5.936052	-2.474681	4.912127	80.285049	-27.780868	-17.062574	-0.096063	-0.096063	-0.072047	9.46244	1.553162	1.001644	14.469557	-2.270206	12.292746	-0.620186	0.509774	-0.235153
-2.687988	0.466009	9.690888	15.624958	14.609265	2.469654	0.711673	0.104178	-0.904476	-6.191874	-2.700327	3.256182	66.787251	-2.788457	-16.050609	-0.096063	-0.114074	-0.042027	10.31974	1.668037	1.19034	13.573427	-0.192995	14.044178	-0.623312	0.50927	-0.205597
-2.576697	0.523521	9.519869	13.411914	14.410234	3.339191	0.727365	0.105575	-0.903478	-6.338208	-2.472879	4.55052	56.61184	27.003839	-13.21332	-0.090059	-0.102066	-0.060039	10.483255	1.376373	0.79276	12.492594	1.920723	15.243263	-0.636655	0.511082	-0.23429
-3.148348	0.582399	9.624209	12.632168	14.69959	3.980803	0.693162	0.06601	-0.903265	-6.454784	-2.013996	4.429534	53.462459	57.074648	-7.770152	-0.084055	-0.102066	-0.054035	10.761328	1.316331	0.455575	9.966991	3.678713	14.424342	-0.650517	0.46212	-0.163662
-3.025515	0.525224	10.031058	12.532412	17.099554	4.326223	0.739856	0.050688	-0.881007	-6.172251	-2.358501	4.376576	48.814543	92.454231	-0.387088	-0.090059	-0.102066	-0.042027	11.220605	0.563293	0.575352	7.411344	4.944254	11.659337	-0.639781	0.510578	-0.204734
-2.57742	1.278076	9.521686	13.121353	17.880624	4.619343	0.728392	0.104449	-0.885318	-5.544826	-2.819121	4.625342	40.945907	125.836783	6.180952	-0.072047	-0.102066	-0.054035	11.045145	1.199706	0.403588	4.028385	4.951974	8.307346	-0.621512	0.518776	-0.239776
-3.086499	0.698988	9.85689	16.543176	18.950899	5.284844	0.711291	0.084666	-0.885212	-5.205538	-2.877436	4.631964	32.640217	152.332991	10.4379	-0.078051	-0.10807	-0.054035	10.811513	1.31464	0.114148	2.461645	4.194495	6.420278	-0.60637	0.526471	-0.245263
-2.981145	0.987972	9.397357	16.036624	19.002702	4.718374	0.740238	0.0702	-0.900271	-4.7952	-2.708173	5.465268	20.215451	173.570828	12.189659	-0.072047	-0.10807	-0.048031	10.818168	0.794887	0.397243	2.523635	3.819908	4.869501	-0.640207	0.524333	-0.226447
-3.15989	0.697087	9.046341	13.667826	18.983171	3.979321	0.723519	0.06993	-0.919429	-3.870582	-2.598244	6.603454	11.480025	189.682408	12.088081	-0.072047	-0.10807	-0.060039	10.423047	1.317802	0.620094	2.676743	3.8274	2.423389	-0.588148	0.502405	-0.219789
-2.575498	0.465618	9.577544	11.443355	19.324299	3.61837	0.725191	0.048165	-0.863844	-3.172895	-2.201171	7.736787	5.287368	199.909104	11.269486	-0.054035	-0.120078	-0.084055	10.81917	1.432273	0.514319	2.551796	4.493099	0.816872	-0.622412	0.514023	-0.222687
-2.864083	0.988141	9.515272	11.312032	21.272798	3.243123	0.723136	0.050418	-0.900165	-2.105309	-1.91744	7.461925	-1.392675	205.806531	10.376365	-0.054035	-0.114074	-0.078051	10.765264	1.606864	0.685258	2.548242	5.888205	-0.285973	-0.639781	0.510578	-0.204734
-2.916955	1.046798	9.745528	11.750401	23.274705	4.659553	0.756957	0.07047	-0.881113	-1.856646	-2.206614	8.646782	-10.745852	209.030476	9.254445	-0.042027	-0.102066	-0.090059	10.369823	1.145015	0.789456	1.867479	7.640043	-1.217227	-0.639781	0.510578	-0.204734
-2.861463	0.640164	9.630063	11.119935	25.001805	5.723389	0.775468	0.108638	-0.882324	-0.729217	-1.579704	8.608398	-19.001435	209.319057	9.233134	-0.024016	-0.096063	-0.090059	10.085209	1.666914	0.843282	1.864353	8.905277	-1.827704	-0.590374	0.506654	-0.207323
-3.327958	0.001161	9.214679	13.039743	25.464017	6.4913	0.727627	0.065425	-0.846789	-0.080208	-0.896811	10.212138	-28.917299	206.393602	10.147602	-0.012008	-0.096063	-0.090059	10.36847	1.260545	0.732889	0.59986	10.547066	-2.025504	-0.589047	0.497652	-0.202699
-3.25437	0.989928	10.085419	-0.681195	27.724731	5.198943	0.753111	0.034825	-0.897064	0.832456	-0.785765	10.701322	-35.402815	201.597698	10.755616	0	-0.078051	-0.10807	9.862283	1.494732	1.066357	-1.215626	11.196276	-1.86681	-0.624211	0.504517	-0.188507
-3.503354	0.987775	9.097996	7.890293	27.40951	7.121447	0.739856	0.050688	-0.881007	1.186275	-0.616331	11.53354	-40.677763	197.733295	11.595668	0.006004	-0.090059	-0.114074	9.85846	1.146302	0.836412	-2.96942	11.621439	-3.078924	-0.617533	0.491769	-0.225905
-3.436544	0.698623	9.560959	6.587919	25.86474	7.791843	0.757219	0.03032	-0.824424	2.215303	-0.162278	12.26029	-44.7284	191.594827	15.026354	0.012008	-0.096063	-0.120078	9.57735	1.031867	1.001531	-4.384964	11.994454	-4.624456	-0.608169	0.516964	-0.211083
-3.028135	0.8732	9.916267	6.171996	26.802966	9.857246	0.788724	0.092775	-0.898382	3.134828	-0.166426	13.103678	-46.569309	185.095461	20.547216	0.012008	-0.090059	-0.13809	9.641051	1.03333	1.34521	-5.429853	11.71797	-5.449472	-0.636655	0.511082	-0.23429
-3.435122	0.40855	9.618075	6.741597	25.126106	7.452251	0.74191	0.048435	-0.844686	1.827762	-1.421924	12.490917	-61.961439	182.095998	23.695197	0.042027	-0.090059	-0.13809	9.748407	0.915732	1.004384	-4.99892	11.374064	-6.693193	-0.68161	0.506507	-0.256633
-3.206879	0.582315	9.565251	10.330148	24.60287	9.515241	0.753756	0.014187	-0.859639	2.977606	-1.026215	13.632943	-71.417136	175.47397	27.074722	0.036023	-0.084055	-0.13809	9.63542	1.032016	1.059749	-4.289662	10.357476	-7.797478	-0.617106	0.478013	-0.204191
-3.558123	0.639854	9.211644	10.942	25.338764	10.845023	0.773676	0.070741	-0.861955	4.405978	-1.089189	14.486213	-74.656635	164.698823	25.265722	0.042027	-0.084055	-0.150098	9.182808	0.686073	1.163347	-3.612823	10.019315	-9.223539	-0.634429	0.506832	-0.246756
-3.671533	0.407934	9.266614	14.270721	25.407941	12.877429	0.804678	0.054022	-0.840694	6.389083	-0.923785	14.818941	-81.138381	144.516233	20.499535	0.048031	-0.084055	-0.13809	8.96359	0.920217	1.61663	-2.872839	9.111649	-9.382026	-0.621086	0.505021	-0.218063
-3.890101	0.873895	9.841308	17.298325	26.233436	14.21461	0.770212	0.054607	-0.897171	8.920743	-0.643977	14.277331	-89.028157	121.280297	11.138937	0.048031	-0.066043	-0.174113	9.068694	0.802093	1.16162	-0.719133	8.571978	-8.379178	-0.60727	0.521718	-0.228173
-3.429351	0.351206	9.907009	21.580312	27.656058	16.768958	0.755165	0.032573	-0.860744	12.823027	1.801815	17.945868	-94.987389	115.928616	7.767816	0.078051	-0.072047	-0.162106	8.946469	1.032066	0.760774	0.420678	7.984465	-4.994989	-0.602391	0.499464	-0.231392
-3.538802	0.758314	10.194775	25.954819	28.982299	19.439423	0.801476	-0.002262	-0.819221	11.846996	1.811242	14.034471	-29.89004	126.544785	-24.825151	0.078051	-0.054035	-0.162106	8.66694	0.686308	0.981934	2.882007	7.4679	-3.226406	-0.571679	0.501097	-0.220652
-3.886227	0.409973	10.013634	30.184173	30.199402	21.344838	0.774321	0.050102	-0.82453	14.495778	2.553649	10.722301	-22.780425	108.937565	-34.436193	0.096063	-0.048031	-0.174113	9.405621	0.916152	0.940534	4.051024	7.419022	-1.016852	-0.605516	0.49896	-0.201836
-3.887117	1.338656	10.01587	32.183343	31.590588	21.568395	0.817168	-0.000865	-0.818223	17.597954	4.310225	16.853763	11.430275	112.605712	-97.014588	0.102066	-0.066043	-0.168109	9.241447	0.39674	1.220251	3.128218	7.619034	-0.812356	-0.589001	0.529916	-0.263216
-3.539192	1.164613	10.195753	32.804665	33.405183	20.497372	0.800832	0.018377	-0.856645	19.986283	4.202487	8.465841	37.251486	80.735429	-79.183472	0.10807	-0.072047	-0.174113	9.013662	0.976422	1.275467	0.913695	7.852362	-1.869567	-0.635328	0.502079	-0.229666
-3.661216	1.570185	9.847557	32.467775	35.074912	18.342961	0.799804	0.019503	-0.874805	17.801021	6.961741	6.826671	-15.157978	83.245389	-80.548907	0.132086	-0.078051	-0.186121	9.244143	0.744907	1.393104	0.269185	7.596786	0.365604	-0.637981	0.520084	-0.238914
-3.488439	0.931548	9.849448	37.107408	34.312858	15.420311	0.848935	0.02144	-0.835491	17.332842	6.50639	5.874788	-32.493905	82.867618	-81.272323	0.132086	-0.072047	-0.186121	9.009055	0.45404	0.98764	0.394869	6.5701	1.521729	-0.619286	0.514527	-0.252242
-14.639307	3.276319	14.660899	154.324733	37.097712	-34.737222	0.784375	-0.022044	-0.819114	17.41138	10.050196	10.706508	-56.195689	56.808175	-76.484654	0.132086	-0.066043	-0.192125	8.900686	0.513478	1.271111	0.613617	5.205582	2.808522	-0.620186	0.509774	-0.235153
-3.866932	1.74747	11.057514	2.831177	41.3386	9.555721	0.845733	-0.034844	-0.814017	17.706733	9.42322	8.236137	-23.353065	22.294596	-59.5773	0.162106	-0.060039	-0.156102	8.718366	0.626984	0.697336	1.724309	3.834367	5.293049	-0.56988	0.510603	-0.254831
-3.67209	0.988361	9.268012	28.399343	38.362684	13.134805	0.831451	-0.017854	-0.81612	16.897838	9.14087	7.218429	7.535006	-4.728356	-47.438605	0.156102	-0.072047	-0.162106	9.172558	0.741604	0.64978	3.511034	2.544555	6.984112	-0.607696	0.535473	-0.249887
-4.121297	1.396362	9.780179	30.177472	38.494136	13.586916	0.844324	-0.053229	-0.812913	16.21432	7.997879	6.735418	33.465979	-19.071668	-42.840106	0.156102	-0.060039	-0.192125	8.943329	0.336258	0.529251	4.467958	1.03992	8.002838	-0.620613	0.523529	-0.256866
-4.134791	1.162515	9.085843	31.562186	40.585428	15.656926	0.816403	-0.039889	-0.779693	16.008761	10.230427	8.202116	50.909301	-27.683676	-37.503555	0.156102	-0.066043	-0.174113	9.294226	0.221886	0.99222	6.408738	-0.667005	6.951828	-0.586348	0.511911	-0.253968
-4.182003	1.279913	9.605312	31.57263	42.69018	17.148941	0.817813	-0.021504	-0.780798	7.263022	12.619129	0.008761	108.025975	-41.253748	-28.424604	0.162106	-0.060039	-0.186121	9.293453	-0.531293	0.874618	6.689173	-2.470497	4.823677	-0.631776	0.488828	-0.237508
-4.283342	1.571915	10.297502	33.338725	44.832302	16.950455	0.812175	-0.095046	-0.776379	-2.0793	2.495531	6.511192	53.901695	10.80283	-69.278377	0.156102	-0.078051	-0.174113	9.520202	-0.010681	0.881489	7.397634	-3.14819	3.589239	-0.61886	0.500771	-0.230529
-4.108026	1.862381	10.475074	40.386981	48.919764	15.056021	0.842914	-0.071615	-0.811808	-2.033753	-0.783704	14.597828	-16.417522	-2.27095	-27.891594	0.156102	-0.072047	-0.162106	9.98238	0.62711	1.293036	7.14979	-2.43491	2.806752	-0.653597	0.493881	-0.194623
-4.346389	1.513229	10.007145	28.024245	50.624351	15.817153	0.870834	-0.084955	-0.845028	0.731867	-3.884628	13.948553	-16.939736	-35.47488	12.462809	0.168109	-0.084055	-0.174113	10.727478	1.03222	1.594978	5.944405	0.486319	5.240455	-0.637128	0.492573	-0.195486
-4.790802	1.689619	10.750013	33.273693	58.716564	17.430556	0.86066	-0.072471	-0.77449	2.80395	2.187273	10.852077	47.001093	-38.248142	3.224505	0.162106	-0.084055	-0.162106	11.818399	1.611388	2.132835	3.198461	5.199766	11.569598	-0.651797	0.503387	-0.228803
-5.172168	1.924695	11.783237	35.166053	65.748512	19.81369	0.828894	-0.094776	-0.757221	2.522666	1.391241	7.722142	52.820245	-34.07704	10.758815	0.150098	-0.072047	-0.156102	12.090056	1.37608	1.452308	0.390135	9.880181	13.862051	-0.637981	0.520084	-0.238914
-5.928223	1.633947	11.247347	36.198652	73.347041	23.004597	0.861687	-0.073597	-0.75633	1.79456	2.080154	8.178799	16.681686	-15.459085	11.072131	0.156102	-0.072047	-0.168109	11.629663	1.549627	1.215718	-1.521513	11.835605	10.56458	-0.55431	0.504542	-0.238604
-5.000924	1.692217	11.728292	38.445113	81.316378	25.998544	0.874178	-0.128484	-0.733858	1.300863	1.793906	8.936529	7.17324	-12.511458	4.190365	0.168109	-0.084055	-0.168109	10.933056	1.432045	0.516572	-1.179882	10.047957	7.427152	-0.60727	0.521718	-0.228173
-5.058034	1.402059	11.72645	40.186988	90.649824	29.335603	0.906327	-0.086667	-0.770391	1.490066	0.30237	9.768431	-1.166717	-10.44393	5.862208	0.150098	-0.084055	-0.168109	10.197867	1.145094	0.728985	0.335778	6.013701	5.938483	-0.61706	0.510278	-0.264709
-5.060876	1.982207	11.612218	42.411359	97.996026	28.300804	0.92369	-0.107035	-0.713809	1.718488	0.244193	9.890879	5.827963	-11.822458	6.910146	0.156102	-0.084055	-0.168109	10.03301	0.97306	1.010278	1.050581	2.773048	6.048062	-0.622885	0.495514	-0.183883
-5.080141	1.805703	10.628948	46.783163	104.617958	28.805043	0.921636	-0.104783	-0.750129	1.6478	0.990282	9.239471	6.078525	-11.545675	7.351416	0.13809	-0.078051	-0.156102	9.572856	0.451588	0.713442	2.469956	0.803914	7.783482	-0.634429	0.506832	-0.246756
-5.197537	2.153791	10.511871	45.507923	109.008841	27.732044	0.922281	-0.125421	-0.712704	1.538638	0.417495	9.356313	4.474899	-11.156352	7.156556	0.162106	-0.078051	-0.168109	9.456035	0.798668	0.598582	2.932644	0.381231	9.814307	-0.639308	0.529086	-0.243537
-4.920995	2.268341	9.997532	44.581598	113.102988	27.433196	0.942081	-0.12853	-0.639066	1.77113	0.81715	9.77295	4.475817	-11.358817	7.452555	0.150098	-0.072047	-0.156102	9.632041	1.031227	0.888473	1.150232	0.128845	10.881008	-0.653551	0.526145	-0.25514
-5.438687	2.326744	9.92957	44.658053	115.741487	25.736548	0.975137	-0.147501	-0.581485	1.873302	0.817824	9.185122	11.63837	-11.422475	4.715967	0.126082	-0.066043	-0.168109	9.957262	0.795016	0.037797	-1.524274	0.026432	11.41951	-0.602391	0.499464	-0.231392
-5.384283	1.861928	9.756151	41.98772	118.293791	24.437838	0.954572	-0.183416	-0.616594	1.925305	0.875352	8.950106	9.033668	-8.97875	2.371531	0.150098	-0.072047	-0.168109	9.615488	0.853595	0.031302	-5.891139	0.355405	10.379146	-0.653597	0.493881	-0.194623
-5.391197	1.919132	9.409402	42.066052	120.384262	22.26023	0.97411	-0.146375	-0.599645	1.54339	0.646157	9.650908	8.56885	-6.735875	0.925301	0.150098	-0.072047	-0.168109	9.381185	0.73668	-0.316282	-10.966157	1.057068	8.408812	-0.635755	0.515835	-0.25138
-5.342199	2.324397	9.00682	41.593737	122.091784	22.188767	0.971673	-0.163634	-0.616701	1.927819	0.760564	9.06831	11.593587	-5.746256	-0.202805	0.13809	-0.066043	-0.156102	9.671419	0.795322	-0.024927	-15.827297	2.427082	7.005212	-0.619286	0.514527	-0.252242
-5.071428	2.496291	8.203547	45.677673	123.809947	23.782052	0.9866	-0.201262	-0.577173	1.936001	0.93163	9.540006	13.083553	-5.274125	-0.906571	0.156102	-0.096063	-0.180117	8.926526	1.432872	-0.207953	-19.151726	4.111199	6.367185	-0.572578	0.496344	-0.203562
-5.239688	3.193529	8.433054	39.827034	126.709507	23.581744	1.005111	-0.163094	-0.578384	1.481501	0.990488	9.413211	11.654173	-4.942278	-1.327799	0.150098	-0.078051	-0.156102	8.92259	1.142339	-0.437636	-21.091814	5.416161	5.592471	-0.621086	0.505021	-0.218063
-6.319918	2.150936	8.871341	40.73005	127.699201	23.784298	0.990709	-0.205767	-0.504533	1.815185	0.989973	9.124731	7.043916	-4.373505	-0.752889	0.132086	-0.090059	-0.174113	9.162399	1.897691	0.255392	-21.554092	5.792777	4.602553	-0.623692	0.55529	-0.287828
-6.675652	0.930836	8.225586	43.199095	126.250915	28.158815	1.02312	-0.2041	-0.484377	1.531906	1.219995	9.118891	9.23286	-3.753444	-1.287153	0.13809	-0.090059	-0.150098	9.379365	1.663022	-0.312076	-22.261463	5.85352	4.046821	-0.637981	0.520084	-0.238914
-7.249448	2.034343	8.274626	45.340314	125.602276	33.276994	1.042276	-0.18657	-0.448163	1.649803	1.047371	9.35737	7.005606	-2.908404	-1.368324	0.150098	-0.084055	-0.168109	9.625272	1.608877	0.605641	-21.092495	5.371333	2.412722	-0.62104	0.537285	-0.27858
-7.588229	2.209504	8.557261	57.301096	120.843561	40.621611	1.07225	-0.202163	-0.445063	1.309428	1.105788	9.291748	6.401342	-3.073625	-0.707966	0.13809	-0.078051	-0.156102	9.621006	0.912806	0.317026	-19.52476	5.316825	1.199026	-0.622793	0.560043	-0.304917
-6.951577	2.557846	8.859746	71.641706	115.004929	47.98781	1.0091	-0.227261	-0.42979	1.533099	0.818948	9.119602	5.292931	-2.758892	0.681381	0.132086	-0.084055	-0.156102	10.196172	1.434313	0.673207	-16.358626	5.401895	0.174189	-0.628145	0.563788	-0.262895
-7.712761	2.846967	8.093994	86.458855	106.483789	47.68307	1.045357	-0.189949	-0.393683	1.491153	0.302269	9.827431	6.307429	-4.834049	0.882251	0.144094	-0.102066	-0.168109	9.909772	1.144874	0.552077	-12.855503	5.931558	-1.623778	-0.628617	0.545279	-0.224092
-7.113663	3.01657	6.488173	87.764749	98.23278	44.837402	1.074566	-0.244566	-0.352053	1.596713	0.989945	9.533385	6.620437	-5.052374	1.227715	0.13809	-0.078051	-0.168109	10.146897	0.972833	1.012531	-9.198402	6.425213	-2.930731	-0.589901	0.525163	-0.246126
-5.343384	2.607428	6.060109	84.879997	85.351449	37.285989	1.089111	-0.301705	-0.293261	1.598546	1.104326	9.651182	5.664835	-4.886631	1.211273	0.150098	-0.084055	-0.156102	9.861498	1.32078	1.008477	-8.30726	6.51245	-3.93728	-0.608596	0.53072	-0.232797
1.152481	3.292008	3.879494	84.979898	71.601512	28.894687	1.07213	-0.261825	-0.369109	1.711585	1.103986	9.653356	3.447795	-5.040365	1.189289	0.13809	-0.078051	-0.156102	10.150605	1.379159	1.242739	-7.538453	6.430423	-3.96183	-0.622839	0.527779	-0.2444
8.352805	0.610981	2.340453	44.225183	33.745592	4.470569	1.088849	-0.261555	-0.349951	1.880973	1.160767	9.656514	2.274441	-5.166201	1.563808	0.144094	-0.102066	-0.162106	10.150036	1.668641	1.244054	-6.584838	6.14473	-4.561787	-0.625492	0.545783	-0.253648
12.704846	1.889755	4.915286	15.263417	-17.231575	-45.336657	1.08462	-0.316712	-0.346637	1.202099	0.647383	9.526388	-0.693104	-5.52508	2.48305	0.156102	-0.084055	-0.168109	10.32189	1.147232	1.245067	-5.444803	5.114383	-4.378835	-0.608123	0.549229	-0.271601
11.884085	1.837438	6.921518	18.742003	-59.766735	-104.5086	1.103776	-0.299182	-0.310423	1.702721	1.16209	9.181253	-0.627676	-6.426811	3.009996	0.144094	-0.090059	-0.168109	10.771009	1.550282	0.970456	-3.195668	3.117765	-4.228683	-0.623266	0.541534	-0.266114
9.299269	-0.482324	6.633236	25.173548	-93.124229	-153.343002	1.154698	-0.259348	-0.291478	1.599462	1.161517	9.710081	-1.745507	-5.752058	2.908488	0.13809	-0.096063	-0.156102	10.48338	0.73925	0.732776	-0.945391	0.632523	-4.189536	-0.590801	0.52041	-0.229036
6.641286	-3.036158	5.533844	12.072191	-118.565049	-179.515285	1.06413	-0.191932	-0.338205	1.82456	0.759992	9.597138	-3.517204	-6.376039	3.767248	0.13809	-0.090059	-0.150098	10.764263	0.969478	0.568182	0.443995	-1.94127	-5.101115	-0.641534	0.533336	-0.231071
3.313019	-4.484138	5.406243	-14.010786	-137.924331	-180.911976	1.031074	-0.17296	-0.395786	1.316119	1.047886	9.645851	-3.507271	-8.07836	4.770202	0.13809	-0.084055	-0.144094	10.249509	1.549203	0.503582	0.602707	-4.215583	-6.576803	-0.621512	0.518776	-0.239776
2.023507	-4.014744	6.942071	-41.879276	-157.207902	-161.222105	1.014738	-0.153718	-0.434208	1.989026	0.645403	9.3056	-4.634607	-11.759612	6.460117	0.132086	-0.090059	-0.162106	10.301163	1.374086	0.218459	0.942973	-5.179585	-7.409021	-0.604144	0.522222	-0.257729
0.891776	-2.850681	7.789228	-55.679896	-171.927328	-130.895955	1.064633	-0.112757	-0.433424	1.543795	0.875226	9.709502	-4.824679	-13.657355	6.623432	0.120078	-0.10807	-0.156102	10.186377	1.258258	0.158589	2.049568	-5.046513	-7.192057	-0.590801	0.52041	-0.229036
0.100889	-1.629329	8.469938	-65.590827	-182.258913	-100.325649	1.014355	-0.17323	-0.414944	1.70238	1.276675	9.18105	-3.594865	-14.766178	7.774588	0.13809	-0.102066	-0.180117	10.017572	1.374918	0.26992	2.939915	-4.566234	-7.840711	-0.637981	0.520084	-0.238914
0.222888	-0.815864	8.878884	-69.043818	-189.045364	-76.114017	0.969192	-0.07986	-0.514261	1.873771	1.390545	9.302107	-4.07774	-14.742392	8.875216	0.144094	-0.090059	-0.156102	9.966044	0.912912	0.49506	3.738058	-4.196107	-9.404891	-0.638881	0.515331	-0.221824
0.00209	-0.408225	9.337808	-73.992281	-194.181159	-57.296165	0.983212	-0.056699	-0.568848	1.98355	1.390509	9.12728	-2.958857	-13.741919	9.053218	0.144094	-0.090059	-0.168109	10.135065	1.259686	0.442923	3.797475	-3.415012	-10.370856	-0.608123	0.549229	-0.271601
0.819438	0.579538	10.107778	-77.483129	-200.175	-46.307558	0.985004	-0.018801	-0.589217	1.981207	1.448005	9.009178	-3.156983	-12.140122	8.915938	0.126082	-0.066043	-0.162106	9.95973	1.258976	0.211176	4.011995	-3.241432	-11.566594	-0.623692	0.55529	-0.287828
0.669968	0.756628	11.261063	-77.977531	-206.643514	-42.650646	0.922618	-0.004875	-0.612474	1.703808	1.161989	9.240253	0.114346	-10.63356	7.812105	0.120078	-0.066043	-0.168109	10.301493	1.779624	0.277392	3.980607	-3.100627	-12.824073	-0.556536	0.508792	-0.226138
0.156149	0.35111	11.365428	-77.779119	-212.309296	-38.24387	0.936639	0.018286	-0.667061	3.315693	-1.766626	10.396859	4.88204	-5.766488	13.049591	0.120078	-0.090059	-0.174113	10.260226	0.68286	0.956377	4.103686	-3.265349	-14.012468	-0.636182	0.52959	-0.273093
0.047144	0.293877	11.652076	-80.918314	-215.627754	-37.022263	0.884307	-0.039935	-0.684901	1.642495	1.678095	9.061252	-2.911966	-9.251618	6.465646	0.13809	-0.072047	-0.168109	9.905381	1.085926	0.323446	4.289629	-3.877467	-13.905513	-0.619713	0.528283	-0.273956
-0.325719	0.007546	13.088746	-75.584357	-213.743987	-38.904981	0.889683	0.073759	-0.746009	2.627616	0.813781	10.261251	-26.324649	-10.657824	-8.596401	0.144094	-0.084055	-0.150098	9.688415	1.320595	0.890914	4.967933	-4.58681	-13.028991	-0.621512	0.518776	-0.239776
-4.703092	3.209628	15.263198	-36.630877	-210.835119	-60.151678	0.839788	0.032798	-0.746793	3.156545	-5.255845	7.33287	0.0426	-29.655133	-26.073848	0.132086	-0.096063	-0.174113	9.915062	1.319877	0.838326	6.506712	-5.183624	-12.823358	-0.601918	0.517972	-0.270195
-3.373955	0.996522	12.74147	-57.230875	-195.082931	-71.632593	0.808786	0.049517	-0.768054	0.703339	3.178376	4.3223	6.767134	-15.755061	2.359231	0.144094	-0.078051	-0.162106	9.846299	1.027618	0.207872	7.337889	-5.711537	-13.724245	-0.55431	0.504542	-0.238604
-2.797307	4.072927	13.049379	-25.445181	-181.876484	-63.566329	0.794624	0.126168	-0.846111	0.233789	1.338297	9.211696	-7.789041	-2.037634	6.85838	0.126082	-0.060039	-0.162106	9.668484	1.142174	-0.137534	8.045112	-5.840678	-14.757395	-0.559616	0.540552	-0.2571
-5.183405	7.445094	14.397034	11.816452	-198.825016	-99.638182	0.746401	0.063442	-0.791311	0.30825	3.341128	10.507233	6.892017	-12.834469	-2.340809	0.126082	-0.072047	-0.162106	9.960515	1.432928	0.269057	8.230558	-6.211667	-14.380754	-0.603244	0.526975	-0.274819
-3.577118	2.328038	11.238071	-44.263657	-175.799405	-96.351749	0.742675	0.08746	-0.883216	1.948337	0.071329	10.072531	0.753236	-3.95716	9.236814	0.126082	-0.084055	-0.13809	9.393005	1.029053	0.313046	7.677065	-6.16126	-14.109618	-0.623312	0.50927	-0.205597
-0.78403	-5.825146	1.218172	-75.862917	-137.18189	-75.9602	0.663952	0.120627	-0.944895	0.191905	-4.676933	9.044267	45.240377	-0.928609	-0.622213	0.13809	-0.090059	-0.162106	9.38726	1.085635	0.027848	5.800652	-5.786798	-14.067217	-0.634429	0.506832	-0.246756
-6.515215	-8.300634	7.16613	-70.168258	-96.846125	-29.984508	0.642315	0.186872	-0.878669	0.788394	-2.041732	8.107548	-18.977037	0.098051	7.185733	0.132086	-0.090059	-0.162106	9.842238	1.374207	0.038173	4.44734	-5.642503	-14.597813	-0.621985	0.500267	-0.200973
-5.979187	0.655018	14.422497	-129.600505	-112.524639	-23.83724	0.622132	0.170468	-0.933043	1.399584	0.763926	7.996527	10.533782	-9.002618	1.048433	0.132086	-0.090059	-0.180117	9.219809	1.086765	0.195746	3.739468	-5.37127	-14.883189	-0.621939	0.532532	-0.26149
-7.745091	0.077853	15.02163	-98.973983	-101.146194	3.770636	0.577493	0.183538	-0.918981	2.123968	0.585739	10.487878	0.672768	-4.532455	4.938391	0.132086	-0.084055	-0.150098	9.334367	1.318386	0.256142	3.95501	-5.573666	-15.51966	-0.605043	0.517468	-0.240639
-7.515054	-1.380619	12.075298	-68.43211	-87.302498	26.778289	0.594977	0.222832	-0.938353	1.829141	1.045946	9.891631	5.411967	-9.417749	4.143777	0.10807	-0.102066	-0.162106	9.670293	0.795059	-0.082019	4.633031	-6.214462	-15.134112	-0.650898	0.50814	-0.245893
-9.950308	-0.394491	10.815559	-70.380331	-62.863538	40.451335	0.545082	0.181871	-0.939138	2.152022	1.390099	9.07154	5.044595	-10.348618	3.232147	0.132086	-0.096063	-0.174113	9.099734	0.795934	-0.150374	5.617451	-6.393049	-14.665877	-0.620613	0.523529	-0.256866
-9.236802	-3.417766	9.030893	-110.518242	-37.299398	50.678329	0.567057	0.236172	-0.905133	2.156199	1.446986	9.307439	0.088158	-8.885517	4.80406	0.132086	-0.102066	-0.168109	9.719466	0.735209	-0.480801	5.55435	-5.691529	-14.498964	-0.602391	0.499464	-0.231392
-10.911254	0.776308	14.497925	-129.836704	-43.176916	61.319522	0.562183	0.201654	-0.939244	1.945205	0.75894	10.012312	1.225791	-10.282441	5.600187	0.144094	-0.096063	-0.162106	9.672545	0.795585	0.032165	5.398556	-4.832904	-14.672648	-0.605943	0.512715	-0.223549
-19.572101	7.72854	29.425904	-118.861865	-19.268199	70.63009	0.580695	0.239822	-0.940455	1.923771	1.390984	8.949193	0.173401	-11.403576	6.462697	0.120078	-0.078051	-0.174113	9.489532	1.835695	-0.480311	5.672528	-3.584556	-13.904871	-0.621086	0.505021	-0.218063
-12.534629	0.587557	7.81909	35.749539	-23.098197	102.500827	0.539257	0.309175	-0.947868	1.983252	0.760495	9.010396	2.884733	-11.748866	5.538544	0.120078	-0.084055	-0.13809	9.668268	0.67874	-0.196729	4.994162	-2.73782	-13.714048	-0.621132	0.472756	-0.157546
-13.384933	-1.797423	5.311324	-9.904753	-16.356771	112.943438	0.534646	0.234506	-0.925289	1.830164	0.702192	9.89224	1.548927	-13.857552	7.645896	0.126082	-0.096063	-0.156102	9.273374	1.085863	0.025596	5.94732	-2.594116	-12.274689	-0.665613	0.48669	-0.218692
-12.118599	-0.985491	5.569685	-48.262266	-6.852835	116.417025	0.569876	0.272944	-0.907342	1.762266	0.875254	9.300847	1.840787	-13.441391	6.611317	0.120078	-0.084055	-0.168109	9.677608	1.086381	0.318941	7.516233	-2.621014	-9.145832	-0.653551	0.526145	-0.25514
-10.940247	1.687412	7.275601	-69.733903	1.813372	114.379479	0.5367	0.232253	-0.888969	2.440735	1.15957	9.37238	1.080971	-14.438207	6.080571	0.120078	-0.096063	-0.162106	9.046283	0.73894	0.019514	7.793716	-2.819185	-7.94689	-0.606843	0.507962	-0.20646
-10.24777	1.280865	7.461782	-69.775173	-1.003345	108.608754	0.621443	0.29214	-0.850973	2.101554	0.816939	9.307469	1.544367	-15.483229	6.645647	0.10807	-0.090059	-0.162106	8.647225	0.971322	0.012681	6.933413	-2.80655	-5.382603	-0.620659	0.491265	-0.196349
-9.992273	3.076277	5.968645	-73.865374	1.509602	96.85577	0.585448	0.214678	-0.83039	2.098294	0.817244	9.130468	0.197956	-17.230202	7.231483	0.120078	-0.090059	-0.156102	8.824699	1.030454	0.358876	6.072742	-2.559579	-2.089733	-0.622885	0.495514	-0.183883
-10.111995	4.417993	8.685725	-69.219324	8.247187	78.741256	0.585065	0.195166	-0.811126	2.106028	1.503839	9.660252	0.055125	-19.410431	7.405863	0.126082	-0.084055	-0.162106	8.587358	0.739061	-0.160773	5.426277	-1.988037	0.156833	-0.619332	0.482263	-0.191725
-10.69583	4.069036	8.153123	-34.869644	10.586589	60.99414	0.639834	0.270646	-0.77623	2.111739	1.045094	9.897064	-3.690797	-21.945357	8.924519	0.10807	-0.072047	-0.162106	8.922931	0.96865	-0.438425	4.81107	-1.738329	1.401714	-0.589947	0.492899	-0.185609
-10.910827	5.580325	8.961591	-6.759221	16.975728	42.982411	0.666344	0.23892	-0.808345	2.000319	1.961708	10.129268	-5.566584	-24.527587	9.846829	0.090059	-0.090059	-0.156102	9.0375	0.621044	-0.437749	4.133497	-1.121112	2.607147	-0.638881	0.515331	-0.221824
-10.780519	7.265547	9.835151	37.170999	12.238892	28.78456	0.588267	0.25145	-0.832599	2.734476	0.699465	9.909627	-6.445253	-26.241588	11.190279	0.114074	-0.084055	-0.186121	8.862393	0.504541	-0.670022	3.055947	-0.305593	4.570436	-0.622839	0.527779	-0.2444
-10.138592	10.45896	10.549187	79.99746	5.99528	7.400938	0.622087	0.271502	-0.813548	1.599185	1.619755	9.768269	-9.256455	-30.465012	12.721123	0.10807	-0.078051	-0.156102	9.038627	0.621307	-0.380657	1.824301	0.635163	6.224135	-0.622458	0.481759	-0.162169
-8.457838	13.761112	8.683554	119.37701	9.16147	-19.990413	0.617859	0.216345	-0.810234	2.727679	1.158312	9.613814	-12.360617	-33.705972	14.140202	0.10807	-0.078051	-0.168109	8.633596	1.026064	-0.672162	0.223086	1.792719	7.412049	-0.632722	0.45181	-0.159901
-7.768091	8.572959	-0.215212	166.57366	-15.49665	-33.796287	0.599085	0.218327	-0.865712	2.802032	0.640987	10.500816	-14.276058	-38.074014	14.176897	0.10807	-0.090059	-0.156102	8.629888	0.619737	-0.90237	-1.809196	3.220816	8.591366	-0.633575	0.479321	-0.203328
-3.930868	4.28676	5.05207	-24.208906	-20.137939	-14.084392	0.602549	0.23446	-0.830497	2.742253	0.641462	10.322729	-15.604301	-43.056216	14.183763	0.102066	-0.096063	-0.150098	9.042677	0.853944	-0.151237	-5.101239	4.460185	11.113962	-0.653597	0.493881	-0.194623
0.687602	1.680504	9.29874	-30.042065	-2.860828	11.272301	0.566554	0.156998	-0.809914	2.572417	1.100211	10.377657	-18.630003	-50.628571	13.375526	0.090059	-0.096063	-0.168109	9.600278	1.13966	-0.709582	-11.375012	5.616747	14.662254	-0.620186	0.509774	-0.235153
-3.228574	-2.308668	14.123345	-19.895891	-9.749812	-11.987923	0.607805	0.288491	-0.815651	2.65084	1.040718	11.558849	-21.053026	-56.624788	12.275654	0.084055	-0.090059	-0.162106	10.349881	1.545821	-0.179271	-17.615739	5.96274	19.177531	-0.620186	0.509774	-0.235153
-4.514592	-4.051799	12.822082	33.654979	-4.69114	-4.007746	0.583393	0.216931	-0.86671	2.631501	1.323797	13.622261	-7.669276	-66.481413	5.131243	0.084055	-0.078051	-0.156102	11.664411	1.949794	0.133934	-20.594434	4.435023	18.462961	-0.61886	0.500771	-0.230529
-2.268569	-0.112712	10.564713	45.773719	-1.299226	1.497003	0.614012	0.1807	-0.826185	2.445238	1.096763	12.675404	-3.651652	-82.525387	5.377712	0.090059	-0.078051	-0.162106	12.176218	2.296148	0.145647	-16.189333	0.315608	14.789886	-0.589001	0.529916	-0.263216
-2.064775	0.522461	9.298897	38.036593	4.518334	-1.380588	0.584038	0.196292	-0.829286	3.260247	1.149436	13.988519	-5.054241	-93.26825	-0.235742	0.078051	-0.078051	-0.162106	12.876659	2.182934	1.015019	-8.982111	-5.637384	11.052002	-0.637128	0.492573	-0.195486
-2.64242	0.870854	9.114861	19.76034	10.034118	-2.155961	0.567319	0.196022	-0.848444	3.09561	1.321317	14.279956	8.701063	-107.16079	-4.315545	0.072047	-0.084055	-0.150098	11.575973	2.187653	1.445852	-1.315236	-10.769057	8.092666	-0.619759	0.496018	-0.213439
-2.644929	1.102746	8.999791	8.371676	9.597651	-4.439583	0.61363	0.161188	-0.80692	2.402291	2.01209	13.557696	11.486981	-122.305618	-6.531756	0.072047	-0.084055	-0.156102	10.202702	1.551683	1.016286	2.435179	-10.563685	7.710474	-0.621512	0.518776	-0.239776
-2.477002	0.753764	8.771122	2.925775	7.711945	-4.570938	0.5645	0.159251	-0.846235	2.745989	2.297022	13.858709	-3.453931	-135.485725	-7.606699	0.072047	-0.084055	-0.156102	9.405838	1.379586	0.99973	2.304321	-6.928584	10.439192	-0.636228	0.497326	-0.212576
-2.634141	0.581619	9.518866	0.747354	6.4121	-2.036157	0.596266	0.181556	-0.863503	3.050256	1.950486	14.985754	-7.314058	-150.13701	-7.973476	0.054035	-0.084055	-0.156102	9.506994	1.550156	0.374757	3.9252	-3.071749	12.071151	-0.652697	0.498634	-0.211713
-2.582412	0.522822	9.230795	2.387761	4.534114	-0.716005	0.581984	0.198545	-0.865606	2.314969	1.036327	14.796252	0.639129	-168.466594	-11.13825	0.060039	-0.078051	-0.150098	9.84482	1.780271	0.211289	4.65657	-0.303141	11.949715	-0.637128	0.492573	-0.195486
-2.637236	0.232944	9.344583	4.147333	4.031429	1.146758	0.630732	0.18097	-0.807027	3.380935	0.403786	14.287013	-4.779803	-185.276729	-11.7723	0.042027	-0.072047	-0.162106	10.239601	1.431045	-0.010773	3.854546	0.631458	10.241633	-0.639781	0.510578	-0.204734
-2.405564	0.407129	9.465204	8.326526	3.414174	2.152767	0.633933	0.237253	-0.828501	2.944738	0.518212	15.163119	-1.434634	-199.652342	-11.950656	0.03002	-0.078051	-0.13809	10.18582	0.968513	0.100182	1.210492	0.301595	7.543688	-0.652224	0.517143	-0.250517
-2.523881	0.522906	9.289753	8.055718	2.946654	3.117909	0.596649	0.201068	-0.882768	2.533078	0.06269	14.212322	15.32613	-212.042714	-9.862234	0.018012	-0.096063	-0.150098	9.498439	1.316468	-0.083032	-3.43086	-0.431577	5.578353	-0.605043	0.517468	-0.240639
-2.693982	0.755523	9.402513	8.013005	2.0314	2.561819	0.583011	0.197419	-0.847446	3.356624	0.176951	12.930415	18.206898	-221.813997	-3.887102	0.018012	-0.078051	-0.120078	8.706648	0.855941	0.127466	-8.533254	-1.064595	4.739826	-0.643333	0.523829	-0.196892
-2.234123	1.161517	9.47045	5.011376	1.786354	1.52296	0.63637	0.254513	-0.811445	3.61751	1.266381	11.930917	19.002291	-231.386927	1.774453	0.006004	-0.084055	-0.132086	8.880959	1.377718	0.36158	-11.697184	-2.049428	6.519542	-0.652224	0.517143	-0.250517
-2.693982	0.755523	9.402513	0.73532	2.126328	0.721785	0.615422	0.199085	-0.82729	4.179652	2.301049	8.873034	14.332576	-232.384134	3.76531	0.006004	-0.078051	-0.114074	8.140355	1.552886	0.347727	-11.233763	-2.807472	8.435822	-0.690514	0.523504	-0.206769
-2.621011	0.002729	10.153431	0.839998	3.541711	0.594074	0.581601	0.179033	-0.846341	5.211811	2.067491	9.660002	-4.573226	-231.675744	8.978711	0	-0.072047	-0.102066	8.949381	1.843667	0.992822	-9.540538	-3.794966	8.253737	-0.657103	0.539397	-0.247298
-2.685368	0.118032	9.805679	2.714381	4.779775	0.997641	0.627268	0.164837	-0.842243	6.22733	1.950042	9.561764	3.325409	-214.731138	13.857189	-0.012008	-0.084055	-0.096063	8.836519	1.322827	0.988204	-7.600778	-5.051224	7.803952	-0.640207	0.524333	-0.226447
-2.576641	0.465478	9.51973	4.621011	5.733918	1.847172	0.625858	0.146451	-0.841138	5.61479	-0.392168	6.605051	4.80996	-208.493344	15.253851	-0.03002	-0.084055	-0.102066	9.306149	1.03559	1.681006	-2.523352	-7.111253	6.319229	-0.640207	0.524333	-0.226447
-2.730573	0.525924	10.441477	6.724332	6.505954	2.103921	0.59832	0.179303	-0.827183	5.48254	0.578559	8.783072	-0.980969	-190.946156	19.123294	-0.066043	-0.066043	-0.090059	8.961668	1.325228	1.561378	1.722792	-8.631602	4.93985	-0.659802	0.525137	-0.196029
-2.635061	0.349309	9.460492	7.977304	6.870686	2.272476	0.645396	0.183493	-0.824189	3.670698	-0.160281	8.454618	24.623877	-176.663105	15.555369	-0.060039	-0.060039	-0.084055	9.413835	1.32353	1.399112	4.277366	-9.870805	3.850695	-0.626437	0.508766	-0.176041
-2.574411	0.5238	9.635499	5.932885	7.694218	2.324336	0.598703	0.198815	-0.846448	-2.846122	-2.425037	3.968789	57.632024	-138.648593	3.753673	-0.066043	-0.084055	-0.090059	9.304124	0.919271	1.566296	6.459073	-9.242183	4.612457	-0.639308	0.529086	-0.243537
-2.804884	0.291712	9.572553	5.255892	8.821986	2.23395	0.608494	0.166819	-0.897721	-7.441581	-1.326464	6.178761	73.298205	-78.894157	2.165164	-0.042027	-0.084055	-0.066043	9.863648	0.799975	1.063203	7.410303	-8.352391	5.330962	-0.64286	0.542338	-0.235695
-3.084102	0.583182	9.97224	3.796636	10.334755	2.544686	0.616187	0.238109	-0.865819	-8.188821	-2.239506	5.340257	85.735831	-33.67571	5.695056	-0.054035	-0.084055	-0.078051	9.923742	0.916443	1.236131	7.712874	-6.265608	5.375951	-0.64068	0.505825	-0.187644
-2.683472	0.52461	9.922287	3.670009	11.388545	2.285382	0.633551	0.217741	-0.809236	-7.969626	-3.213245	4.815328	80.767613	-1.019939	11.925261	-0.054035	-0.084055	-0.042027	10.54269	0.681766	0.847824	7.309046	-4.415266	6.309568	-0.677171	0.521692	-0.178076
-2.746297	0.233754	9.631371	3.097785	13.071203	1.94026	0.594857	0.16317	-0.862399	-7.583556	-4.015416	4.175354	63.744328	27.290633	15.904285	-0.066043	-0.090059	-0.048031	10.365887	0.854482	0.559773	7.334738	-2.16208	7.297317	-0.656676	0.525641	-0.225585
-2.289114	1.045767	9.584657	3.763919	13.7964	1.648616	0.629704	0.182096	-0.825187	-6.848845	-3.273033	4.306161	44.076301	67.652774	18.187597	-0.072047	-0.102066	-0.042027	10.591851	1.201142	0.508763	7.545272	-0.248182	6.520048	-0.69274	0.527753	-0.194303
-2.805552	0.988225	9.57423	6.455054	13.396077	0.895899	0.614012	0.1807	-0.826185	-7.225327	-3.502735	5.301963	40.981772	106.080664	19.095823	-0.066043	-0.102066	-0.048031	10.812196	0.967262	0.112571	6.250106	1.334282	6.170546	-0.642434	0.528583	-0.213981
-2.807504	0.639689	9.457762	3.071351	13.463553	0.276236	0.62765	0.184349	-0.861507	-6.93917	-2.873878	5.60128	38.388435	138.913979	20.708494	-0.054035	-0.096063	-0.042027	11.106377	0.73721	0.573888	4.495192	2.298946	5.771731	-0.656676	0.525641	-0.225585
-2.746687	0.640053	9.632349	2.354343	13.454866	0.048449	0.642577	0.146721	-0.82198	-6.085646	-2.246929	6.029465	29.990136	165.770565	22.952131	-0.048031	-0.096063	-0.03002	10.990909	0.96876	0.515595	1.697167	2.1677	4.016425	-0.655777	0.530394	-0.242674
-2.974874	0.408244	9.685033	2.704326	14.098478	-0.422384	0.613368	0.201338	-0.86361	-5.174132	-2.479435	6.401258	21.185883	186.936157	24.351213	-0.048031	-0.096063	-0.072047	10.817827	0.968576	0.398032	-1.100614	1.837306	1.225845	-0.674045	0.522196	-0.207632
-2.801789	0.640388	9.746836	1.282595	15.247861	-0.646975	0.610549	0.164567	-0.861401	-4.823914	-2.195112	7.056272	13.379623	206.252761	25.224708	-0.036023	-0.090059	-0.066043	10.653755	0.970494	0.737206	-3.190253	1.141471	-1.124294	-0.69184	0.532506	-0.211393
-2.981788	0.465448	9.338284	3.132205	16.28132	-1.015205	0.631759	0.179844	-0.788867	-4.128165	-1.511475	8.130097	11.753238	222.246854	23.436034	-0.03002	-0.096063	-0.078051	10.755253	0.967375	0.111445	-4.141677	0.344589	-1.906142	-0.676271	0.526445	-0.195166
-3.313488	0.409277	9.967249	4.383313	17.583946	0.41428	0.623804	0.148704	-0.877458	-3.157511	-2.259885	8.562891	8.983387	235.117916	17.564564	-0.03002	-0.102066	-0.072047	10.297795	0.794071	-0.012538	-4.911525	0.803037	-2.471446	-0.705184	0.534318	-0.240086
-3.212205	0.175318	9.275199	5.925278	19.718441	1.229277	0.640141	0.129462	-0.839035	-1.558707	-1.521581	9.595	2.517636	240.169599	10.800301	-0.018012	-0.084055	-0.090059	10.42407	0.796735	0.617728	-5.652289	1.966827	-3.052953	-0.620186	0.509774	-0.235153
-3.264713	1.046713	9.565226	7.579635	20.543226	0.734878	0.616832	0.217471	-0.828394	-0.188794	-1.297821	10.387676	-6.701775	235.076784	3.423249	0.012008	-0.096063	-0.078051	10.143518	0.972044	0.841254	-5.96286	3.255342	-3.420944	-0.624165	0.536781	-0.249024
-3.258719	0.757198	9.853601	7.561714	20.3302	2.896278	0.644369	0.184619	-0.842349	0.542295	-1.528801	10.166207	-10.841783	222.258473	-2.502061	0.012008	-0.096063	-0.102066	10.134849	0.796252	0.383728	-6.242918	4.610056	-4.096161	-0.625918	0.559539	-0.275362
-3.268116	-0.172743	9.331032	12.80946	23.990318	6.619607	0.62894	0.143072	-0.786658	0.616222	-0.442344	11.286368	-30.580154	209.123875	-4.697564	0.018012	-0.084055	-0.096063	10.0743	0.91137	0.211851	-6.369427	6.109935	-4.10104	-0.625065	0.532028	-0.231934
-3.313321	0.235149	9.96683	9.902038	23.598556	7.161587	0.629322	0.162584	-0.805922	1.927954	-0.390088	11.960262	-38.872488	200.647446	-7.690382	0.054035	-0.090059	-0.090059	9.745256	0.799151	0.832582	-6.218532	7.226998	-4.921358	-0.693167	0.541509	-0.216016
-3.600095	0.061299	9.960696	6.846218	24.205986	0.016523	0.64886	0.199626	-0.788974	2.684717	-0.852572	13.096203	-32.411695	194.423257	-10.982543	0.066043	-0.078051	-0.120078	9.805806	0.684033	1.004459	-6.834691	7.716159	-5.364214	-0.672719	0.513193	-0.203008
-2.869353	0.5231	9.225081	23.689788	27.737903	6.392675	0.657625	0.168756	-0.858407	3.796059	-1.026031	12.056238	-35.708325	188.816033	-18.084022	0.066043	-0.072047	-0.114074	9.467183	0.859193	1.169766	-6.282241	8.014227	-6.408069	-0.658049	0.502379	-0.169691
-3.199769	1.511977	9.97219	13.586032	30.380887	8.483308	0.646041	0.162855	-0.786764	3.684853	-0.911308	12.171862	-69.909627	193.531283	-16.939522	0.084055	-0.084055	-0.102066	9.638343	1.26439	1.232077	-4.468476	8.044278	-6.918973	-0.704757	0.520562	-0.218372
-3.214992	0.697423	9.160827	18.111748	30.857942	12.184831	0.643342	0.185745	-0.860509	4.684591	-0.115969	14.43092	-77.542811	193.257395	-18.564923	0.090059	-0.066043	-0.102066	9.518393	0.336435	0.825974	-2.716556	8.280867	-6.945627	-0.660229	0.538893	-0.217742
-3.657397	1.164305	10.020023	18.27917	32.020255	12.442516	0.663143	0.182637	-0.786871	5.664429	0.795782	15.627772	-73.191704	189.17999	-18.459295	0.10807	-0.078051	-0.120078	9.46426	0.626819	0.997439	-1.671608	8.447446	-6.974459	-0.694066	0.536755	-0.198927
-3.316275	0.931381	9.852877	26.964883	33.787639	14.998019	0.64155	0.147848	-0.84014	6.73276	1.193997	15.411707	-63.766303	175.985675	-13.559478	0.10807	-0.066043	-0.10807	9.469436	0.859719	1.283951	-1.364441	8.573378	-6.945142	-0.609496	0.525967	-0.215707
-3.48239	0.583991	10.137684	28.73995	35.359642	15.967789	0.689653	0.150911	-0.818986	8.988001	1.588633	15.218462	-65.672099	160.584055	-8.420296	0.120078	-0.066043	-0.120078	9.120905	0.916721	0.934903	-1.948473	8.586863	-6.275708	-0.656676	0.525641	-0.225585
-3.482891	1.106375	10.138942	32.390924	37.622258	16.829659	0.630349	0.161458	-0.787762	10.775256	2.558876	14.248506	-72.290115	145.234362	-4.590121	0.132086	-0.060039	-0.120078	9.466398	0.685241	1.111886	-2.378689	8.624282	-5.024877	-0.623738	0.523025	-0.22731
-3.654944	0.990457	10.135233	32.645248	39.363841	17.353565	0.691708	0.148658	-0.782666	12.640648	2.844721	11.275935	-66.897131	130.312656	2.075476	0.150098	-0.072047	-0.126082	9.23941	0.859648	1.165261	-2.53303	9.057661	-3.384142	-0.690087	0.509748	-0.185055
-3.426312	0.757924	10.081431	33.37863	42.275825	16.90563	0.673961	0.149514	-0.819984	14.490695	6.443817	14.136321	-80.175226	138.126413	-0.927074	0.162106	-0.066043	-0.132086	9.41115	0.396136	1.166537	-4.256172	9.837699	-1.637551	-0.626864	0.522521	-0.197754
-3.490948	1.16344	9.734378	31.803394	44.75968	16.219931	0.656095	0.090708	-0.781348	16.950046	3.632339	12.242102	43.980793	138.115115	-50.790159	0.156102	-0.048031	-0.126082	9.122373	0.743295	0.991207	-6.471993	10.787118	-1.396216	-0.626818	0.554786	-0.258272
-3.826633	1.687276	10.191296	32.471569	46.017045	15.277734	0.655712	0.071196	-0.762083	22.941058	4.353763	15.540889	-36.024572	127.415602	-38.580933	0.150098	-0.054035	-0.120078	9.301769	0.397415	1.392653	-9.670419	11.2061	-1.331373	-0.644613	0.565096	-0.262033
-3.776857	1.279943	9.786757	31.249851	47.717287	14.918186	0.757557	0.150866	-0.724194	21.533077	3.80012	6.490972	-40.711228	63.039784	-40.098739	0.168109	-0.066043	-0.102066	9.467638	0.627608	1.168715	-11.084344	11.334964	1.196589	-0.675371	0.531198	-0.212256
-4.04732	1.97883	10.649941	34.130289	48.605408	16.475382	0.705345	0.152308	-0.817988	21.077405	5.348277	6.538538	-56.037659	41.392142	-49.432608	0.168109	-0.054035	-0.10807	9.060924	0.742357	0.761712	-10.58835	9.702583	2.18524	-0.65535	0.516639	-0.220961
-4.071046	1.685682	9.435132	37.678845	50.876463	16.912175	0.682223	0.03947	-0.794198	19.05178	7.415519	7.321767	-43.888836	14.954326	-53.178951	0.162106	-0.060039	-0.126082	9.004777	0.337196	0.758746	-8.183596	7.068643	4.124911	-0.64376	0.537585	-0.218605
-3.725128	1.221146	9.498687	37.256705	52.320358	18.020597	0.683633	0.057856	-0.795303	19.1844	8.501603	8.561015	2.668427	4.879591	-59.260451	0.180117	-0.048031	-0.114074	8.941532	0.104147	0.414015	-3.994407	4.042321	7.153704	-0.622839	0.527779	-0.2444
-4.01034	1.802131	9.609999	36.985986	54.057917	19.901527	0.732763	0.059793	-0.755989	17.318574	8.736397	8.52475	39.214855	-10.857733	-53.281691	0.174113	-0.054035	-0.114074	9.005346	0.047714	0.757431	-0.914035	1.540748	6.922434	-0.642434	0.528583	-0.213981
-4.066807	2.034497	9.667229	34.683	56.194442	19.004917	0.705608	0.112157	-0.761298	16.234604	9.943385	8.14797	80.001187	-33.005162	-47.095492	0.174113	-0.054035	-0.126082	9.357256	-0.008499	1.277755	1.395923	-0.122526	7.371016	-0.65445	0.521392	-0.238051
-3.664867	1.801936	9.674671	35.231683	58.828676	18.97782	0.782658	0.100754	-0.755204	12.19821	12.024746	4.056239	107.43217	-54.671685	-31.180503	0.174113	-0.054035	-0.102066	9.178098	-0.357639	0.816062	2.781291	-0.900141	7.243575	-0.658003	0.534644	-0.230208
-4.80636	1.223321	9.939488	31.596213	64.476306	18.409893	0.79694	0.083765	-0.753101	-0.212714	2.380329	3.539332	99.842039	-3.7325	-58.30617	0.180117	-0.072047	-0.10807	9.580308	-0.47344	0.994697	3.765023	-0.828077	7.338945	-0.661555	0.547895	-0.222366
-4.674716	1.515519	10.809694	29.584252	69.022634	18.674992	0.73379	0.058667	-0.737829	-4.478134	-2.264252	13.550739	18.237569	5.364571	-39.358125	0.186121	-0.078051	-0.102066	10.091091	0.393982	1.008776	4.745182	0.613472	5.995667	-0.673999	0.55446	-0.268149
-5.234492	1.111454	11.491064	31.627112	75.739311	21.316662	0.748455	0.06119	-0.754991	3.815519	-2.464871	15.9517	-32.644678	-40.623427	3.124032	0.180117	-0.072047	-0.096063	11.187518	1.611588	1.892077	3.107841	4.012659	6.825563	-0.639262	0.561351	-0.304055
-5.101984	1.694005	12.419783	31.708918	84.192522	22.36481	0.795531	0.065379	-0.751997	1.53675	1.042604	12.422119	75.426977	-49.045231	-9.286794	0.174113	-0.078051	-0.096063	11.760216	1.669136	2.074879	0.208944	8.416712	13.222182	-0.655304	0.548903	-0.281478
-5.681302	1.40365	12.118581	34.390333	93.197985	25.329831	0.812895	0.045011	-0.695414	2.706692	1.274825	8.492607	50.349532	-40.687495	5.480393	0.168109	-0.072047	-0.10807	12.727239	1.609043	2.03667	-3.398102	12.974856	16.889393	-0.676271	0.526445	-0.195166
-5.397512	1.112739	11.950153	37.88406	102.58487	28.107862	0.777664	0.006573	-0.713361	2.480891	0.817269	8.430073	27.654269	-24.937935	16.801639	0.180117	-0.078051	-0.090059	11.68763	1.028446	1.214479	-5.585358	14.656277	15.309492	-0.675798	0.544954	-0.233969
-5.004241	1.575713	11.554568	41.683057	109.823344	29.720728	0.860998	0.048075	-0.67426	1.309258	1.16308	9.291647	21.142197	-21.33914	9.327783	0.162106	-0.078051	-0.102066	11.275967	0.794502	0.520438	-6.872223	12.852341	16.047819	-0.623738	0.523025	-0.22731
-5.181201	1.807491	11.320439	42.601035	116.375769	30.793205	0.877717	0.048345	-0.655102	1.428646	1.219423	9.647719	14.415299	-21.264591	7.444846	0.168109	-0.090059	-0.102066	10.592534	0.853764	0.507186	-7.508735	8.847954	14.883355	-0.639308	0.529086	-0.243537
-5.129583	1.86478	11.032648	41.152865	122.610985	30.350178	0.828204	0.026896	-0.675151	2.045822	0.186995	9.248499	19.753869	-21.695586	5.461761	0.168109	-0.072047	-0.102066	9.964929	0.333422	0.378247	-7.682999	4.281752	12.725147	-0.609496	0.525967	-0.215707
-5.23254	1.459989	11.607532	38.931914	129.368875	29.213473	0.826674	-0.051152	-0.598093	2.489137	1.331987	8.960161	21.882667	-16.224412	3.819335	0.150098	-0.072047	-0.10807	9.787558	0.79562	0.09151	-5.891166	0.43739	11.050085	-0.629044	0.559035	-0.245806
-5.744684	1.69322	11.829063	38.751692	137.166026	29.232328	0.904107	-0.043043	-0.611263	0.865326	0.59091	9.63797	20.461923	-12.161327	1.659318	0.180117	-0.084055	-0.102066	9.677039	1.375863	0.320255	-4.350252	-1.591078	6.54841	-0.689568	0.560521	-0.284376
-5.981515	0.937909	11.417971	42.379267	145.625137	29.768553	0.891879	-0.028307	-0.577045	1.431608	0.589104	9.707836	18.953901	-13.010039	0.114508	0.174113	-0.084055	-0.084055	9.849905	0.912613	0.378623	-5.14845	-2.440426	3.23012	-0.638408	0.53384	-0.260627
-6.089322	0.822774	11.762294	44.778854	151.798922	28.589722	0.911417	0.008735	-0.560096	1.592601	1.276711	9.355877	22.146216	-15.510953	-2.170709	0.174113	-0.072047	-0.090059	9.557532	0.795549	-0.027179	-6.62481	-2.1296	3.765496	-0.627291	0.536277	-0.219468
-5.6446	1.517164	11.079338	48.155983	159.558738	31.273143	0.924673	-0.007128	-0.576154	1.402865	1.851873	8.348599	18.743278	-13.737905	-1.80968	0.168109	-0.090059	-0.096063	9.108402	0.971726	0.307152	-9.487015	-0.717134	5.307743	-0.675798	0.544954	-0.233969
-5.55536	1.920277	9.810677	52.860226	166.486614	33.646379	0.957728	-0.026099	-0.518573	1.182732	1.680169	8.639558	12.331891	-10.139409	-0.635033	0.156102	-0.096063	-0.084055	8.987303	1.201962	-0.036602	-11.305201	1.25946	6.873095	-0.630844	0.549529	-0.211626
-5.599477	2.386351	10.504429	48.021223	174.744108	36.209354	0.945118	-0.030875	-0.465091	1.643581	1.677994	9.120252	6.712107	-9.570115	1.89263	0.174113	-0.090059	-0.090059	9.163651	1.260831	0.252501	-12.231317	3.005891	8.173314	-0.659283	0.57591	-0.295349
-6.190535	1.223818	9.565168	52.134029	176.180555	38.096109	0.939217	-0.064267	-0.517362	1.249883	1.392623	9.172154	9.23107	-11.138392	2.473067	0.168109	-0.084055	-0.078051	9.614794	1.7802	0.0926	-11.310538	3.580741	7.369749	-0.628145	0.563788	-0.262895
-6.491136	1.164377	8.865536	59.45954	175.363534	45.498975	0.995275	-0.030064	-0.407616	1.58785	1.048049	9.061282	7.310362	-10.211369	2.942272	0.156102	-0.084055	-0.090059	8.823106	1.841003	0.362556	-10.327065	3.421808	4.442636	-0.627291	0.536277	-0.219468
-7.39468	2.560248	9.660009	69.576751	170.629657	54.631074	0.976381	-0.087744	-0.387141	1.932805	1.275587	9.421397	2.063639	-8.653186	4.129103	0.150098	-0.090059	-0.090059	9.160818	2.129014	0.199352	-8.914183	3.589632	0.500919	-0.611249	0.548725	-0.242045
-7.232383	3.313518	9.202737	92.325061	162.4613	58.187101	0.992073	-0.086347	-0.386143	1.375664	0.761051	9.765445	8.25744	-7.626026	2.115667	0.162106	-0.084055	-0.084055	8.76358	1.435054	0.188313	-7.469971	3.512633	-3.435013	-0.661129	0.53414	-0.200652
-8.056281	3.195696	8.14579	102.203246	150.87935	54.664635	1.011229	-0.068818	-0.349929	1.988174	0.931865	9.305092	5.684348	-8.514497	2.739371	0.156102	-0.084055	-0.096063	9.102191	1.83912	0.082727	-6.364876	4.044766	-5.337713	-0.662836	0.589162	-0.287507
-7.630992	3.887711	6.479982	102.883907	139.012143	44.685852	0.98049	-0.092249	-0.3145	1.70449	0.932819	9.240659	8.017571	-7.694824	2.429006	0.162106	-0.078051	-0.084055	8.941725	1.726035	0.592652	-5.198065	4.727119	-4.919067	-0.64594	0.574099	-0.266656
-5.626754	3.653034	6.288168	98.548327	126.265183	34.484873	0.979725	-0.131273	-0.275971	1.365607	1.220202	9.292632	8.965528	-7.514095	1.788075	0.162106	-0.078051	-0.090059	9.053245	1.783178	0.480983	-4.799788	5.530595	-2.978091	-0.60945	0.558231	-0.276224
-4.946598	4.173772	5.898438	103.488555	111.178515	21.889609	1.023982	-0.163855	-0.270768	1.703403	0.93292	9.181659	8.722823	-7.545198	1.980322	0.162106	-0.084055	-0.072047	9.349236	1.206011	0.997815	-4.86225	6.14494	-1.065807	-0.673999	0.55446	-0.268149
5.460277	4.217076	4.198712	105.080708	91.717085	4.549709	1.028473	-0.148848	-0.217392	1.479221	1.391637	9.353501	7.105024	-8.364332	2.295621	0.168109	-0.078051	-0.084055	9.620323	1.260184	0.318603	-4.678024	6.428337	0.64137	-0.663735	0.584409	-0.270417
17.232174	3.967295	1.889757	61.911443	22.417623	-47.444484	1.058447	-0.164441	-0.214292	1.37087	1.276987	9.587531	4.195442	-9.122169	3.650702	0.162106	-0.084055	-0.102066	10.200006	1.203516	0.843432	-4.339051	6.176431	1.38307	-0.65843	0.548399	-0.251922
19.798248	2.699841	6.850086	60.80585	-72.657609	-138.414217	1.030909	-0.131589	-0.200337	1.431906	1.219118	9.82472	1.427883	-10.526694	4.773714	0.168109	-0.090059	-0.084055	10.310514	1.2025	0.674408	-3.658239	4.233135	0.758931	-0.681577	0.562455	-0.213661
15.605043	-0.656369	9.301251	82.108618	-150.376951	-212.195268	1.045574	-0.129066	-0.217499	1.703126	1.391158	9.239847	3.232497	-12.097204	5.379954	0.156102	-0.084055	-0.090059	10.656337	1.376558	0.910323	-1.561833	1.511845	-2.011098	-0.643714	0.569849	-0.279122
6.731231	-5.992758	7.031044	104.185525	-176.341449	-239.004416	1.02962	-0.090312	-0.275186	1.533397	1.448962	9.236486	-0.912668	-11.960539	7.269902	0.13809	-0.072047	-0.090059	10.369482	1.318704	0.790244	0.934953	-1.56241	-5.443703	-0.65843	0.548399	-0.251922
1.486717	-11.221932	2.637307	55.102729	-184.557467	-217.476184	0.982926	-0.07499	-0.297445	1.698609	1.448857	9.003745	-1.696745	-11.467666	7.978947	0.168109	-0.090059	-0.084055	11.047841	1.547873	0.576442	4.045759	-4.178433	-8.271963	-0.629044	0.559035	-0.245806
-0.221208	-8.838557	3.418154	-29.417713	-179.843838	-176.067884	0.984074	-0.016454	-0.355239	1.709987	1.275964	9.594051	-2.859927	-9.954275	7.932878	0.162106	-0.066043	-0.084055	10.650262	1.027602	0.566193	7.001027	-5.893593	-9.990292	-0.611249	0.548725	-0.242045
-0.400407	-6.510199	6.078651	-78.943873	-185.291329	-121.026122	0.922071	0.016984	-0.39776	1.757813	1.276606	9.123136	-2.204979	-8.724158	7.091816	0.150098	-0.084055	-0.084055	10.59804	1.492201	0.85263	8.292916	-6.283249	-11.564797	-0.643287	0.556094	-0.257409
0.44842	-3.777102	8.529441	-92.862552	-200.1633	-71.971771	0.92348	0.03537	-0.398865	1.866335	1.333964	8.889207	-1.347909	-7.6269	4.504347	0.150098	-0.090059	-0.078051	10.130333	1.374427	0.215081	8.352679	-5.735126	-13.351203	-0.629471	0.572791	-0.267519
1.144498	-1.977329	9.010006	-90.385334	-218.260504	-37.669176	0.874733	0.052945	-0.457444	1.866463	2.02127	9.00599	-1.996091	-6.643011	4.065666	0.156102	-0.078051	-0.090059	10.308375	1.144078	0.559961	8.041964	-4.466782	-14.422233	-0.649112	0.54133	-0.176583
1.946931	-0.933339	9.028523	-88.802566	-230.865906	-18.730099	0.904707	0.037352	-0.454343	1.479328	0.990691	9.295211	-1.286327	-5.952912	2.229947	0.174113	-0.072047	-0.090059	10.080033	1.434015	0.55677	8.131214	-3.288196	-15.305516	-0.628617	0.545279	-0.224092
2.35534	-0.758762	9.383832	-96.970793	-239.486455	-13.756425	0.857369	0.073313	-0.514026	1.653062	1.047067	9.53437	-0.855934	-6.334224	2.622491	0.162106	-0.084055	-0.102066	10.431499	1.03016	1.018425	9.08301	-2.776967	-15.923993	-0.611676	0.56248	-0.263758
2.423602	-0.176994	9.96452	-104.354888	-245.461065	-17.21817	0.843086	0.090302	-0.516129	1.81461	0.818198	9.066035	-0.774368	-6.29858	3.054456	0.162106	-0.084055	-0.084055	10.246142	0.969188	0.272585	10.31305	-2.960063	-17.014264	-0.662409	0.575406	-0.265793
1.650695	0.175814	11.510356	-108.67225	-250.416669	-27.066655	0.871007	0.076962	-0.549349	1.772621	1.046117	9.890545	-1.78044	-6.102804	2.516423	0.150098	-0.078051	-0.090059	10.363066	1.143438	0.446903	12.374678	-3.691455	-17.628547	-0.65843	0.548399	-0.251922
0.694695	0.005008	12.473357	-106.186228	-250.067152	-37.500234	0.780056	0.124866	-0.57681	1.476579	0.819119	9.118515	0.474292	-4.394951	3.687415	0.156102	-0.078051	-0.096063	9.679075	0.912955	0.375244	14.651659	-4.399063	-17.599896	-0.641534	0.533336	-0.231071
-3.547944	1.467934	15.570939	-71.180371	-251.55968	-71.696292	0.761283	0.126849	-0.632289	1.09965	1.104947	10.172404	2.291964	-6.11706	9.444079	0.144094	-0.078051	-0.096063	9.509929	1.203304	0.487364	16.406142	-5.17623	-17.450092	-0.690895	0.569524	-0.289
-2.387983	-4.815176	10.08859	-81.813122	-233.214327	-48.234114	0.757054	0.071691	-0.628975	1.127748	7.006911	9.573033	33.034623	-25.141213	-19.132341	0.150098	-0.084055	-0.090059	10.18954	0.795612	0.27067	18.036931	-5.621822	-17.033359	-0.641534	0.533336	-0.231071
-3.697375	0.651115	13.774439	-102.499468	-218.150597	-58.733422	0.731571	0.102291	-0.5787	0.278505	3.114801	8.855634	-38.950736	3.982138	37.01888	0.150098	-0.078051	-0.084055	9.898396	1.200142	-0.018582	18.436563	-5.585793	-17.062634	-0.641534	0.533336	-0.231071
-4.526421	-1.491996	15.255308	-113.09345	-212.44214	-47.859029	0.713945	0.162809	-0.691972	0.33859	1.906381	11.925775	22.157395	1.095608	-0.426068	0.162106	-0.084055	-0.090059	9.793076	0.854831	0.377234	17.882363	-5.257706	-16.920286	-0.69184	0.532506	-0.211393
-5.923426	-4.801889	14.063616	-83.424488	-200.251297	-33.306004	0.69787	0.141901	-0.673705	0.976526	2.314146	6.747176	-11.074193	-9.004092	-0.422185	0.132086	-0.084055	-0.102066	9.511727	1.435415	0.6026	17.08162	-4.634288	-16.235548	-0.658003	0.534644	-0.230208
-5.22558	-3.415317	11.711423	-92.187299	-183.344294	-25.650221	0.65464	0.173356	-0.660749	2.269408	1.389352	9.309714	0.95322	-8.36637	12.438549	0.156102	-0.078051	-0.090059	9.329304	1.02759	-0.030633	15.140631	-3.162406	-17.931818	-0.659802	0.525137	-0.196029
-4.84743	-1.728081	13.514591	-123.974106	-175.996579	-19.214389	0.621585	0.192328	-0.718329	1.687849	1.048926	8.355454	3.756122	-8.491358	7.322699	0.168109	-0.084055	-0.084055	9.670964	1.026907	-0.023875	13.508689	-2.171893	-17.902389	-0.659802	0.525137	-0.196029
-5.387659	0.134174	15.299891	-138.035488	-168.550192	-16.312754	0.623256	0.170563	-0.662745	1.768957	0.817353	9.65495	-3.82181	-8.460219	7.507432	0.144094	-0.090059	-0.084055	9.391549	0.623253	0.197022	12.953996	-1.575654	-17.246283	-0.693594	0.555264	-0.23773
-6.301712	1.760958	15.57459	-124.814781	-159.913416	-14.01117	0.620175	0.173942	-0.717225	1.590258	1.334207	9.237775	-1.187484	-9.239307	6.032928	0.150098	-0.084055	-0.078051	9.215532	0.969921	-0.033148	12.337906	-0.98516	-16.253918	-0.658902	0.52989	-0.213118
-8.358654	1.880164	15.99624	-133.009503	-133.886406	-7.979941	0.562663	0.222387	-0.70637	2.044353	1.04628	9.305976	-1.36078	-10.55844	5.831015	0.162106	-0.090059	-0.096063	9.382198	0.794839	-0.258927	14.643988	-0.907681	-15.417471	-0.686535	0.496496	-0.192897
-18.100759	4.097202	16.616651	-119.819999	-109.582706	10.85706	0.583611	0.277814	-0.690526	2.271517	1.045496	9.369323	-1.49478	-9.408101	9.432452	0.156102	-0.096063	-0.090059	9.383438	0.737206	-0.202097	16.335881	-1.278968	-15.827981	-0.64376	0.537585	-0.218605
-27.734139	4.033838	34.224442	-157.449689	-120.405294	64.335973	0.57771	0.244422	-0.742797	1.705811	1.219078	9.358152	1.949368	-13.020695	7.963127	0.144094	-0.078051	-0.084055	9.775272	1.314059	-0.477046	17.105025	-1.535843	-16.460215	-0.708736	0.54757	-0.232243
-14.660183	6.452346	7.964358	171.077044	-33.8006	97.224658	0.550817	0.256635	-0.691418	2.333534	1.388471	9.723801	-2.277713	-12.751518	9.184681	0.150098	-0.084055	-0.090059	9.540286	1.544522	-0.823052	16.028346	-1.440383	-17.599937	-0.655304	0.548903	-0.281478
-24.088858	-2.501444	-2.243137	47.485334	-32.809131	121.603395	0.580027	0.202019	-0.649788	2.22433	1.560283	9.957324	-2.885033	-14.432278	10.273202	0.144094	-0.066043	-0.084055	9.785852	1.664066	0.095453	16.520783	-1.486722	-16.128038	-0.659375	0.511382	-0.174315
-22.39269	-1.447194	2.358749	-57.515405	-22.114725	131.816914	0.582584	0.27894	-0.708686	1.432588	0.989948	9.825126	-0.604604	-17.044419	10.208195	0.156102	-0.078051	-0.090059	9.786421	1.374584	0.094139	18.890451	-2.160881	-14.142109	-0.652697	0.498634	-0.211713
-18.135424	-0.521232	3.023713	-96.86581	-22.486794	148.270697	0.60692	0.189805	-0.701167	2.161568	1.102825	9.544049	-4.614412	-19.042885	10.627484	0.13809	-0.096063	-0.096063	9.392778	1.144846	0.313572	18.337102	-2.146111	-13.533693	-0.673618	0.50844	-0.185918
-16.139668	3.081392	5.499458	-108.828651	-21.287932	149.216222	0.591228	0.188408	-0.702165	2.170367	0.701067	9.95776	-3.091384	-22.632774	10.836308	0.126082	-0.072047	-0.078051	9.050105	1.087369	0.24946	16.031522	-2.117457	-11.191594	-0.641107	0.51958	-0.209358
-15.097643	5.577623	6.104188	-123.132209	-16.378584	137.4666	0.636894	0.174212	-0.698067	1.538766	1.104801	9.473095	-3.550731	-25.662073	12.01835	0.132086	-0.096063	-0.084055	8.701927	0.391455	-0.160097	13.972007	-1.955171	-7.321996	-0.609069	0.512211	-0.193994
-12.432331	6.448918	7.488601	-98.859771	-8.014009	119.774436	0.623901	0.149925	-0.62532	2.450856	1.044071	9.903584	-8.150378	-28.730074	13.132085	0.13809	-0.090059	-0.10807	8.596027	0.914853	0.296753	13.20256	-1.30588	-4.221452	-0.639354	0.496822	-0.18302
-12.072333	6.798797	8.305704	-60.010156	-2.126684	99.433871	0.673152	0.211524	-0.66196	2.502752	1.502545	9.726858	-9.501583	-32.873195	13.749792	0.126082	-0.084055	-0.084055	8.132494	0.392593	-0.17136	11.971597	-0.618483	-2.011281	-0.658049	0.502379	-0.169691
-9.828559	8.074404	8.700243	-18.162693	0.463683	77.910212	0.608592	0.16804	-0.645582	2.107733	0.930915	9.661267	-14.834162	-35.032341	14.732143	0.126082	-0.072047	-0.090059	8.354192	0.043182	-0.510985	9.879689	0.115076	0.499021	-0.654923	0.502883	-0.199247
-9.384823	10.749428	10.969448	35.482377	1.066419	52.60316	0.655023	0.192868	-0.680013	2.667154	1.044303	9.376929	-13.831241	-39.225792	14.426761	0.126082	-0.084055	-0.096063	8.406289	0.215706	-0.737439	8.064419	1.044847	4.47429	-0.622412	0.514023	-0.222687
-9.655196	14.931295	12.01446	108.895078	-0.01305	19.364279	0.674561	0.22991	-0.663064	2.565216	1.32999	10.02325	-17.885892	-43.12529	13.211673	0.120078	-0.090059	-0.084055	8.004763	-0.015872	-0.917651	6.064603	1.976871	8.142613	-0.608169	0.516964	-0.211083
-10.633735	15.853602	8.99204	199.877493	7.823081	-17.740101	0.685642	0.156637	-0.639488	2.732026	1.157906	9.849814	-19.754254	-46.971039	12.16775	0.126082	-0.078051	-0.084055	8.27866	0.328572	-1.424272	2.709988	3.642783	10.777322	-0.66694	0.495693	-0.223316
-3.936787	0.208429	-1.257236	131.62897	-18.822338	-17.183274	0.664432	0.14136	-0.712022	2.347937	0.928914	10.432616	-21.578086	-51.888813	11.362453	0.132086	-0.078051	-0.090059	8.335604	0.328458	-1.423145	-1.935578	5.22422	13.896354	-0.637555	0.506328	-0.2172
-4.083026	-1.559483	11.56531	-11.244356	-20.901031	-12.743256	0.632021	0.139693	-0.732178	2.439869	1.440924	12.438794	-20.843007	-56.289178	9.323076	0.126082	-0.078051	-0.096063	9.023303	0.965268	-1.121278	-6.612848	7.23617	16.882861	-0.676271	0.526445	-0.195166
-3.62316	-4.977683	14.340175	12.189059	-12.105206	-5.574483	0.698253	0.161413	-0.69297	2.158656	2.071688	12.609245	-2.583041	-65.141213	4.537875	0.126082	-0.072047	-0.096063	10.115123	1.660492	-0.525803	-11.380695	8.54701	19.548695	-0.674945	0.517443	-0.190542
-1.514232	-1.846834	13.811864	52.554363	3.772448	21.041858	0.663022	0.122974	-0.710917	2.548391	1.498281	12.204865	-6.927331	-78.045629	4.455292	0.120078	-0.072047	-0.096063	10.866079	1.951124	0.061074	-12.794921	8.477348	18.931056	-0.671392	0.504191	-0.198384
-3.010686	-0.633953	10.722041	97.542807	-0.430954	10.968023	0.616974	0.117659	-0.695751	3.265403	1.607166	14.341708	-6.043074	-86.625274	0.195378	0.126082	-0.078051	-0.090059	12.180826	2.81853	0.433474	-7.502538	6.347219	16.164703	-0.620613	0.523529	-0.256866
-1.462106	1.737392	7.92685	73.128879	3.742831	5.271301	0.650412	0.118199	-0.657435	2.701124	1.666062	14.38974	9.036777	-103.076043	-5.363771	0.102066	-0.084055	-0.10807	12.995267	2.647192	1.304835	0.873058	0.526003	12.797069	-0.657149	0.507132	-0.186781
-1.682849	2.086988	8.385635	33.133287	7.098281	-0.332998	0.66264	0.103462	-0.691652	3.488222	1.606789	14.169054	6.8549	-118.452504	-8.619626	0.102066	-0.078051	-0.102066	12.441715	2.594113	2.0926	7.740537	-4.438216	10.288332	-0.675371	0.531198	-0.212256
-1.802086	1.970455	8.15181	15.775919	8.588209	-1.234433	0.645276	0.123831	-0.748235	2.594052	2.582269	14.857944	18.206474	-134.020818	-13.77072	0.10807	-0.066043	-0.084055	10.965376	1.613358	2.173033	11.585864	-5.43921	8.68069	-0.691886	0.500242	-0.150875
-2.473907	1.102439	8.945405	7.269545	7.115857	-3.170729	0.63331	0.098417	-0.657328	3.444571	1.663034	14.875868	3.384075	-149.379273	-16.658882	0.090059	-0.072047	-0.102066	10.33305	0.62853	1.75653	11.060627	-4.344903	8.835994	-0.641534	0.533336	-0.231071
-2.238083	0.522488	9.237653	0.210393	5.527696	-3.92381	0.701379	0.057	-0.757985	2.832232	1.434927	15.336322	5.309898	-171.041425	-23.682387	0.084055	-0.066043	-0.096063	9.352956	1.03311	1.168303	12.593313	-2.014732	12.093236	-0.627764	0.517768	-0.180665
-2.5168	0.291574	9.636083	0.636938	4.672942	-3.021731	0.659559	0.106841	-0.746132	2.781657	1.262713	15.630541	0.289901	-190.354556	-22.606028	0.090059	-0.072047	-0.084055	9.454897	1.377632	0.601211	15.020004	-0.6022	15.98818	-0.690041	0.542012	-0.245572
-2.854104	0.118618	9.975694	4.36239	3.515262	-2.149388	0.629202	0.102922	-0.729968	2.230119	0.690376	16.269692	2.594639	-210.688936	-27.425565	0.072047	-0.084055	-0.066043	9.674218	1.664819	0.207385	16.159668	-1.151392	18.851243	-0.639781	0.510578	-0.204734
-2.450156	0.176551	10.099465	8.785814	3.798628	0.110161	0.674868	0.088726	-0.72587	1.999566	0.004158	15.912562	12.215769	-227.912118	-22.357996	0.066043	-0.084055	-0.078051	9.716178	1.834977	-0.532898	16.74765	-2.793473	18.494906	-0.691367	0.551015	-0.250196
-2.121187	0.696785	9.355988	12.863128	3.530218	2.87481	0.634075	0.137441	-0.695857	2.496523	0.290101	15.331833	14.19023	-242.933392	-14.027834	0.072047	-0.078051	-0.060039	10.110174	1.311799	-0.812841	13.46098	-4.507903	15.642205	-0.662028	0.529386	-0.183563
-2.343937	0.755888	9.698444	14.425989	2.837578	3.206489	0.664432	0.14136	-0.712022	2.185119	1.210068	13.908771	24.345018	-259.873642	-7.694989	0.036023	-0.084055	-0.060039	9.26301	1.19929	-0.487708	4.359366	-4.712572	11.499864	-0.658902	0.52989	-0.213118
-2.525079	0.580809	9.232078	10.581716	3.197789	2.334752	0.692997	0.107382	-0.707816	2.653334	2.75878	11.968805	27.862496	-267.827741	-0.73034	0.036023	-0.078051	-0.054035	8.179279	1.548567	-0.564621	-5.914575	-2.902445	8.955962	-0.661129	0.53414	-0.200652
-2.284096	0.581984	9.814798	7.200354	4.782975	1.043937	0.677687	0.125497	-0.728079	5.339275	2.695844	10.546061	4.066477	-270.373513	6.399119	0.03002	-0.096063	-0.048031	8.20169	1.611721	0.577485	-9.516164	-0.935562	9.686169	-0.661601	0.515631	-0.161849
-2.289058	0.987724	9.584517	5.81908	6.521706	0.414759	0.64874	0.139964	-0.71302	5.849996	2.006801	10.557059	20.80552	-255.396912	14.909043	0.024016	-0.090059	-0.060039	9.105581	1.260682	0.194282	-11.209855	0.157008	8.978884	-0.670919	0.5227	-0.237188
-2.342294	0.233644	9.755002	5.950232	8.127155	-0.164165	0.672814	0.090978	-0.76219	5.862836	-0.108519	7.847894	12.902083	-245.179955	17.952599	0.012008	-0.090059	-0.048031	8.551233	1.612878	0.983887	-8.256988	-0.55523	7.818502	-0.659329	0.543646	-0.234832
-2.286215	0.407577	9.698749	7.022268	10.246431	0.416903	0.649385	0.119325	-0.675595	5.212002	0.177349	9.368351	5.276641	-223.188748	25.077875	0	-0.084055	-0.042027	9.416986	1.440111	1.570914	-3.455222	-2.969372	7.258034	-0.662882	0.556898	-0.22699
-2.393324	0.756922	10.102005	7.408759	11.338544	0.880402	0.659821	0.066691	-0.689443	3.173827	0.98568	9.26881	32.683623	-207.642517	22.050968	-0.012008	-0.084055	-0.012008	9.57925	1.785308	1.176225	3.070795	-6.590975	4.838608	-0.69184	0.532506	-0.211393
-2.800924	0.930741	9.805349	7.877348	12.779634	0.408942	0.631638	0.120181	-0.712913	-8.008126	-0.861312	3.100161	77.424194	-154.263034	4.999729	-0.024016	-0.078051	-0.03002	8.899651	1.613773	1.333198	7.379444	-8.69597	1.60745	-0.716314	0.555564	-0.177755
-2.460079	0.988031	9.638903	6.575806	13.286854	-0.394947	0.642457	0.087059	-0.746026	-11.132033	-0.45468	5.339605	88.897909	-71.504543	17.955429	-0.036023	-0.072047	0	9.577907	1.321611	1.059938	10.425713	-9.913252	-0.550059	-0.675798	0.544954	-0.233969
-2.684559	0.466428	9.864332	6.766441	13.937496	-1.075617	0.674868	0.088726	-0.72587	-8.461383	-0.864955	6.09939	106.453781	-19.751562	30.739593	-0.036023	-0.096063	0	9.692704	0.858213	1.060087	12.945656	-9.332706	-0.397049	-0.662455	0.543142	-0.205276
-2.458881	0.930128	9.696578	4.947397	15.439923	-1.581855	0.645921	0.103192	-0.71081	-7.782326	-3.324858	2.695871	102.947679	-1.202572	39.069038	-0.048031	-0.096063	0	10.322811	0.104834	1.183243	13.064048	-7.048731	2.731444	-0.711862	0.547066	-0.202687
-2.405341	0.174958	9.464645	3.481287	16.423595	-0.834305	0.67795	0.085347	-0.67139	-6.732247	-2.643665	4.602218	73.968345	32.594404	42.381014	-0.03002	-0.084055	-0.006004	9.859256	0.741027	0.834572	12.535371	-4.243053	5.263221	-0.658476	0.516135	-0.191405
-2.68941	0.756082	9.633772	4.755708	16.699094	-0.94496	0.708044	0.129417	-0.744243	-7.187386	-3.100235	4.358336	65.672999	55.325454	39.691299	-0.042027	-0.090059	0	10.939381	0.506754	0.740734	9.819919	0.050723	6.861769	-0.675371	0.531198	-0.212256
-2.803154	0.872419	9.68958	5.320065	18.965006	-1.109785	0.645921	0.103192	-0.71081	-7.07292	-3.215262	4.419713	56.706035	86.599446	38.871145	-0.03002	-0.084055	0.012008	10.880174	1.085569	0.685145	5.383475	3.82795	6.719743	-0.715841	0.574073	-0.216559
-2.744512	0.756418	9.748258	5.445665	19.71335	-2.059926	0.677305	0.105985	-0.708814	-6.328727	-3.103806	4.964638	49.709821	123.345765	37.09457	-0.042027	-0.078051	0.006004	10.760099	0.794738	0.339025	0.828416	5.820911	6.95488	-0.698046	0.563763	-0.212798
-2.512673	0.756474	9.86846	7.561947	19.773946	-1.588237	0.67795	0.085347	-0.67139	-5.979127	-2.246661	5.677637	43.819282	159.022122	34.097039	-0.048031	-0.072047	0.006004	10.592193	1.027453	0.507974	-2.738712	5.869081	4.854858	-0.64466	0.532832	-0.201515
-2.751901	0.11697	9.342018	7.869721	20.142899	-2.161021	0.665842	0.159746	-0.713126	-5.30215	-2.191312	5.631575	35.592255	187.398995	29.295108	-0.036023	-0.084055	-0.012008	10.530858	0.968619	0.278216	-4.674021	4.794831	1.290971	-0.660656	0.552648	-0.239456
-3.079474	0.525699	10.20336	6.165029	22.100343	-2.376258	0.695051	0.105129	-0.671496	-3.926121	-2.19723	6.719658	25.205827	208.437974	23.266678	-0.036023	-0.084055	-0.006004	10.250761	0.912343	0.500691	-5.22419	3.168244	-1.05989	-0.663781	0.552144	-0.2099
-2.517134	0.63983	9.636921	7.254961	24.540382	-2.790895	0.692614	0.08787	-0.688552	-3.237937	-2.257481	7.2638	14.652596	221.352298	16.352165	-0.024016	-0.090059	-0.006004	10.656235	0.855227	0.850865	-4.545213	1.992537	-1.793603	-0.645132	0.514323	-0.162712
-2.972699	0.524609	9.800942	9.623957	26.53169	-2.123683	0.694406	0.125768	-0.708921	-2.205948	-2.433746	8.050667	9.108328	227.104413	9.135726	-0.018012	-0.084055	-0.024016	10.37376	1.435549	1.019139	-2.915898	2.046889	-2.030785	-0.698945	0.559009	-0.195708
-2.975096	0.640415	9.685592	6.712284	27.003027	-1.63785	0.723998	0.090663	-0.686556	-1.745674	-2.607697	8.472666	0.655865	228.765175	1.638468	-0.012008	-0.090059	-0.036023	10.537729	0.9123	0.620506	-1.318083	2.409632	-2.428216	-0.694066	0.536755	-0.198927
-3.210476	0.756024	9.392226	6.634185	26.794917	-2.041808	0.724381	0.110175	-0.70582	-0.718649	-2.210733	9.081516	-5.327665	228.541219	-4.555599	-0.012008	-0.096063	-0.03002	10.655677	0.565483	0.792458	0.372318	2.648191	-2.638757	-0.660656	0.552648	-0.239456
-3.031954	1.27908	9.743801	7.784918	29.745142	0.741213	0.692997	0.107382	-0.707816	-0.000422	-1.414643	11.394141	-13.202943	230.353645	-9.530699	-0.012008	-0.072047	-0.042027	10.081512	0.681361	0.553353	0.338623	3.876997	-2.881533	-0.747453	0.567686	-0.210209
-3.032596	0.756556	9.684729	-2.240423	35.594491	-2.233439	0.675895	0.0876	-0.70771	0.77306	-1.644473	10.406758	-20.977311	231.122035	-15.998467	0.012008	-0.084055	-0.042027	10.196184	0.855086	0.613486	0.890204	4.758623	-1.950871	-0.658003	0.534644	-0.230208
-3.379631	0.001916	9.50261	8.292969	36.168744	2.979321	0.725026	0.089537	-0.668396	2.095125	-2.509607	11.495276	-27.26556	231.686104	-23.893865	0.012008	-0.066043	-0.042027	9.918225	0.857232	0.950408	-1.294264	5.405575	-1.947033	-0.677597	0.535447	-0.19979
-2.428728	1.913584	8.370357	3.541929	34.811141	-1.211256	0.696078	0.104003	-0.653336	2.999119	-1.309497	11.687531	-31.51272	228.55183	-29.381012	0.024016	-0.090059	-0.054035	10.147124	0.85704	1.012005	-3.202482	6.107426	-3.349906	-0.677597	0.535447	-0.19979
-3.265269	1.627139	9.566623	13.458128	37.238733	0.180702	0.694286	0.066105	-0.632967	4.218734	-1.717068	13.422066	-31.576499	229.382377	-34.395239	0.03002	-0.096063	-0.054035	9.851145	0.85498	0.435452	-5.048015	6.318277	-4.649306	-0.712761	0.542312	-0.185598
-3.026658	0.525084	9.973244	7.980613	37.366738	3.830498	0.727462	0.106796	-0.65134	3.515912	-1.483619	12.110617	-45.517292	231.087296	-40.116417	0.03002	-0.072047	-0.060039	9.971573	0.392896	0.721063	-7.323525	6.34038	-5.977233	-0.676271	0.526445	-0.195166
-3.947964	0.177299	9.780673	16.796561	40.081175	6.696741	0.7411	0.110445	-0.686662	4.704704	-1.034272	15.376547	-66.455125	228.861307	-40.641494	0.054035	-0.096063	-0.060039	9.628901	0.335419	0.65695	-8.400741	6.71123	-7.092713	-0.643287	0.556094	-0.257409
-3.533532	1.223355	10.484967	10.648761	41.02346	8.348459	0.677567	0.065835	-0.652125	4.984489	-1.55035	15.146893	-83.291141	219.577898	-40.964733	0.048031	-0.096063	-0.096063	9.74909	0.568354	1.002807	-8.370005	6.63144	-7.88593	-0.663309	0.570653	-0.248704
-3.95287	0.524996	9.550253	17.381948	43.065336	10.380942	0.724261	0.050513	-0.629866	7.253367	0.103095	15.895417	-87.305268	199.884772	-32.993199	0.060039	-0.072047	-0.084055	9.063734	1.032627	0.934303	-6.400993	6.099003	-7.526551	-0.64286	0.542338	-0.235695
-3.603913	0.467178	9.78823	16.362467	44.230841	12.775654	0.737516	0.03465	-0.645924	10.070267	0.954569	15.594226	-100.74944	183.939486	-26.571683	0.060039	-0.078051	-0.120078	9.237385	0.74333	1.050551	-5.415414	5.481362	-6.375253	-0.639781	0.510578	-0.204734
-3.832713	0.87384	9.842451	24.297142	45.772582	15.278617	0.725026	0.089537	-0.668396	12.344386	1.576547	16.462577	-100.823431	167.118203	-14.944006	0.078051	-0.078051	-0.090059	8.897409	1.03402	1.159293	-3.538349	5.041387	-4.061038	-0.659802	0.525137	-0.196029
-3.999162	0.874705	10.128096	28.813702	48.101904	18.65924	0.754235	0.03492	-0.626766	14.835656	1.912295	16.804781	-87.974308	152.561294	-11.121753	0.078051	-0.066043	-0.102066	8.555863	0.976806	1.152272	-2.615345	4.910215	-2.707278	-0.631743	0.544776	-0.194536
-3.999162	0.874705	10.128096	34.86362	49.209664	20.516889	0.722851	0.032127	-0.628762	24.761752	7.190568	28.959278	-30.004486	175.935786	-78.945614	0.078051	-0.072047	-0.126082	8.667736	0.281034	0.980094	-2.677171	5.222594	-1.09384	-0.676271	0.526445	-0.195166
-3.540335	1.164474	10.137938	36.708007	50.636562	20.684466	0.758081	0.070565	-0.610815	20.49858	2.253214	8.361072	89.920388	94.299549	-41.85336	0.090059	-0.072047	-0.114074	8.955376	0.512839	1.158053	-4.340284	6.456064	-0.947876	-0.682903	0.571457	-0.218285
-4.109422	0.933418	10.357209	37.831394	52.823541	20.717027	0.73969	0.092059	-0.685558	22.716095	4.36456	9.461698	-17.078058	74.50976	-30.793343	0.090059	-0.072047	-0.126082	9.354651	0.743891	1.22408	-8.710727	8.72106	1.759327	-0.678878	0.576714	-0.264931
-3.881235	1.165227	10.304525	37.902441	55.666761	19.823576	0.802338	0.037983	-0.605612	21.356714	3.176335	2.949905	-59.363659	35.412703	-34.422462	0.114074	-0.066043	-0.120078	9.478457	0.282595	1.680967	-13.234658	10.573329	1.172107	-0.645986	0.541834	-0.206139
-4.002005	1.454853	10.013864	36.829428	58.572053	18.868183	0.771337	0.054702	-0.626872	22.000873	8.035757	8.026158	-87.859181	30.576415	-44.702178	0.096063	-0.066043	-0.132086	9.246282	0.803329	1.507552	-15.264222	10.843945	1.888954	-0.696719	0.55476	-0.208174
-4.120433	1.686715	9.838692	36.471749	63.459245	17.977189	0.755645	0.053306	-0.62787	20.477573	7.123679	7.998442	-53.279044	17.860194	-44.828424	0.096063	-0.054035	-0.150098	9.356004	0.628361	1.280647	-13.353485	9.091887	3.866689	-0.711389	0.565574	-0.241491
-4.690385	1.165307	9.999449	31.994946	68.738958	18.972783	0.754235	0.03492	-0.626766	18.389845	7.416042	8.19373	-14.694925	10.982934	-48.559208	0.084055	-0.084055	-0.156102	9.470915	0.107066	1.280534	-11.132537	6.20503	6.178235	-0.69274	0.527753	-0.194303
-5.017513	1.109694	10.859673	32.811843	74.93542	21.499983	0.785237	0.018201	-0.605505	18.757357	8.104794	6.784114	33.928079	-2.314517	-61.724829	0.114074	-0.066043	-0.144094	9.521886	0.279327	0.996988	-6.449962	2.432992	8.248264	-0.664208	0.5659	-0.231614
-4.562114	1.399043	10.696071	35.573564	81.906573	26.732845	0.786264	0.017075	-0.587345	16.35035	10.859215	8.44352	62.924591	-12.350854	-72.638849	0.10807	-0.072047	-0.150098	8.780508	-0.298684	0.865533	-0.322733	-1.378844	8.002591	-0.710962	0.551819	-0.219777
-4.607738	1.05224	11.272238	35.448171	88.652457	29.21339	0.801311	0.03911	-0.623772	16.298264	18.133088	9.845546	103.369616	-34.979308	-68.232425	0.10807	-0.072047	-0.156102	8.677543	-0.122138	1.434991	4.972045	-4.050728	8.704691	-0.666434	0.570149	-0.219148
-5.007448	1.343123	11.380565	36.308298	96.405305	32.751035	0.821111	0.036001	-0.550133	-0.44963	2.392242	-3.18886	145.34593	-28.51654	-57.716272	0.10807	-0.072047	-0.144094	9.132861	-0.007256	1.444527	9.125957	-5.350985	8.940676	-0.679351	0.558205	-0.226127
-5.229333	1.692579	11.781535	33.455796	106.110164	33.584169	0.815211	0.002608	-0.602404	-1.666134	2.425205	13.596747	-27.264843	5.768609	-48.683965	0.120078	-0.084055	-0.13809	9.982722	0.453421	1.292247	11.737349	-4.433055	9.147514	-0.717214	0.550811	-0.160666
-5.439232	1.463007	12.759255	35.413646	115.321532	31.807069	0.831165	-0.036145	-0.544717	-0.405079	-4.97397	16.46467	-32.777827	-18.067735	35.627903	0.114074	-0.078051	-0.120078	11.354855	1.668355	1.724442	14.619099	-0.490543	12.252282	-0.699799	0.586521	-0.239135
-5.476157	1.581663	13.799057	40.178986	125.882561	31.791327	0.81791	-0.020282	-0.52866	3.653491	3.788295	11.219535	28.470904	-35.664298	11.44912	0.10807	-0.078051	-0.150098	12.391654	1.958681	2.374043	9.252159	7.376054	18.646953	-0.694493	0.550511	-0.22064
-6.081209	0.707667	12.166718	43.939829	135.816343	34.646645	0.820991	-0.023661	-0.474179	1.618332	0.305716	7.529684	42.746857	-38.288899	28.868236	0.102066	-0.078051	-0.132086	12.832218	2.128043	1.641643	4.834311	16.76001	22.656549	-0.698046	0.563763	-0.212798
-6.139963	0.939753	12.108319	47.004834	144.805345	38.152134	0.914116	-0.014156	-0.486351	2.086597	2.192973	8.715031	-17.927501	-18.656807	23.835518	0.10807	-0.072047	-0.144094	11.912923	1.143258	1.105325	0.730367	22.509547	17.852613	-0.682903	0.571457	-0.218285
-5.108341	1.170783	12.071637	50.082776	152.993028	39.362701	0.877859	-0.051468	-0.522458	1.703169	0.64656	9.123166	-1.496729	-20.25872	11.703115	0.102066	-0.078051	-0.126082	10.700118	0.620374	0.165834	-1.60091	19.622912	12.218567	-0.682004	0.57621	-0.235375
-5.69251	1.170081	11.539874	50.711034	161.487934	38.596317	0.928016	-0.050657	-0.464984	2.637075	-0.905398	10.500297	1.065948	-15.991445	7.80471	0.090059	-0.084055	-0.13809	9.674809	0.216884	0.086629	-4.629036	12.671369	9.458061	-0.678451	0.562959	-0.243217
-5.358635	1.342618	11.026819	50.039284	169.251957	37.49461	0.914378	-0.054306	-0.429662	1.899701	-0.387449	10.426257	27.509585	-17.618806	3.339981	0.090059	-0.084055	-0.144094	9.441951	1.084996	-0.08521	-5.779342	5.079804	10.086687	-0.632597	0.572287	-0.237963
-5.764283	1.864972	10.846631	47.778852	176.814399	36.208438	0.946789	-0.052639	-0.409506	2.327333	0.186244	9.194932	27.248652	-14.628181	0.54365	0.114074	-0.078051	-0.132086	9.103556	1.144364	0.079572	-5.611745	-0.749604	10.742693	-0.677125	0.553956	-0.238593
-4.831657	2.33024	11.617629	45.774226	187.306306	36.503534	0.963891	-0.032857	-0.409612	1.823708	1.046454	9.59663	30.376438	-13.075989	-1.880996	0.114074	-0.078051	-0.126082	9.726212	1.316013	-0.078527	-3.791316	-3.64758	9.321078	-0.663262	0.602918	-0.309221
-6.100919	0.995504	11.184566	52.577205	192.911834	39.169954	0.964153	-0.073007	-0.352923	1.704149	1.047404	9.240456	27.214612	-10.955412	1.676659	0.090059	-0.090059	-0.126082	10.302619	1.779886	0.334484	-1.850582	-5.570315	6.287113	-0.700226	0.600276	-0.260849
-7.200525	-0.107507	10.639861	58.120716	196.538255	44.933216	0.950515	-0.076656	-0.317601	1.238186	2.768352	8.756716	23.279852	-10.685602	0.909865	0.102066	-0.078051	-0.13809	10.079578	1.6656	0.557822	0.609595	-6.027562	4.047702	-0.64684	0.569345	-0.249567
-7.553245	0.298147	10.229278	69.212651	197.059026	55.388859	0.995417	-0.129877	-0.274973	1.068393	2.482503	8.694964	10.853615	-6.971754	4.690017	0.120078	-0.078051	-0.132086	9.334253	1.376283	0.256405	2.941255	-4.01893	2.790276	-0.699799	0.586521	-0.239135
-7.538577	1.693128	11.042039	87.574116	191.072369	68.09488	0.964678	-0.153308	-0.239544	1.424662	2.193495	9.586994	1.007817	-6.593282	8.316864	0.096063	-0.084055	-0.126082	9.269085	1.548246	-0.143578	3.608029	-0.04072	1.631142	-0.686029	0.570953	-0.188729
-6.938893	2.443298	9.495429	119.003682	177.07078	73.650769	0.981397	-0.153038	-0.220386	1.085758	1.392627	9.463895	-3.678823	-7.810333	10.943044	0.090059	-0.066043	-0.126082	9.553357	1.200036	-0.196616	1.473947	5.217254	0.671944	-0.664635	0.579656	-0.253327
-8.137506	3.018689	6.930117	125.447536	165.119564	65.364906	1.015862	-0.153623	-0.16391	1.713119	0.588354	9.654269	-4.439187	-9.889785	12.629544	0.096063	-0.084055	-0.132086	9.103101	1.375949	0.080624	-2.595762	9.847279	-0.894805	-0.713615	0.569824	-0.229025
-6.94685	3.828442	6.262299	109.765253	147.847945	47.452669	0.999405	-0.194044	-0.126379	1.82473	0.702699	9.597239	-2.423101	-10.16486	12.106022	0.084055	-0.084055	-0.126082	8.422819	1.551792	0.239174	-7.922932	13.150562	-2.896336	-0.682903	0.571457	-0.218285
-5.139307	5.332417	4.914953	106.556748	129.705259	30.768287	1.01548	-0.173135	-0.144645	1.938686	0.759549	9.658311	-2.111084	-11.724229	9.615322	0.084055	-0.090059	-0.132086	8.424742	1.14678	0.294426	-13.154271	14.821668	-6.327625	-0.714515	0.56507	-0.211935
-1.526835	4.864151	4.812398	101.484728	110.120164	10.524976	1.042635	-0.2255	-0.139336	1.728907	0.758708	10.538967	2.395479	-12.252005	7.192769	0.096063	-0.096063	-0.13809	8.940599	1.725772	0.535559	-16.106486	14.938707	-8.42605	-0.669087	0.588154	-0.228395
18.27512	6.695836	2.552861	86.08675	64.816032	-30.450575	1.031816	-0.192377	-0.106223	1.427091	0.646803	9.471734	6.202229	-13.730797	5.661676	0.096063	-0.090059	-0.144094	9.108505	1.493056	0.36661	-15.519705	13.678157	-9.70886	-0.663309	0.570653	-0.248704
21.364045	5.951104	7.871623	97.630941	-14.949638	-136.217087	1.030407	-0.210763	-0.105118	1.602892	1.10392	9.887183	6.607623	-13.762691	4.192479	0.096063	-0.084055	-0.13809	9.910102	1.550411	0.611009	-11.208091	10.622076	-8.697218	-0.684656	0.594215	-0.244622
18.922522	1.312737	8.909777	137.913966	-101.80657	-232.837615	1.045072	-0.20824	-0.12228	1.596948	1.276305	9.591878	4.778837	-13.162174	4.297466	0.096063	-0.084055	-0.120078	10.424048	1.955188	0.73717	-5.355393	5.988829	-7.487788	-0.651246	0.610108	-0.285152
10.678292	-4.888141	9.424013	149.160387	-165.790321	-279.721469	1.017916	-0.155876	-0.12759	1.708836	0.932413	9.47666	3.381347	-13.100963	4.25948	0.084055	-0.084055	-0.13809	11.046715	1.547611	0.51935	2.280557	1.355835	-6.880503	-0.701125	0.595523	-0.243759
1.851637	-10.283886	6.634477	160.24967	-182.798487	-261.298335	0.953859	-0.120186	-0.206431	1.363434	1.220405	9.174631	1.028692	-12.695253	5.514408	0.078051	-0.078051	-0.126082	10.828066	1.492272	0.971319	6.994133	-2.523586	-5.817038	-0.650819	0.596353	-0.263438
-3.356448	-12.729303	1.323553	72.947395	-186.880296	-198.850407	1.000673	-0.075846	-0.260127	1.700378	1.219586	9.063151	-2.446986	-12.49032	6.179225	0.090059	-0.072047	-0.13809	10.754684	1.256857	0.112759	10.472327	-4.162537	-6.035603	-0.685556	0.589462	-0.227532
-3.012671	-9.76918	1.453168	-10.260077	-188.184443	-121.891448	1.018419	-0.076702	-0.222809	1.871364	1.104388	9.125614	-2.938391	-11.459292	6.479527	0.10807	-0.072047	-0.132086	10.640809	0.677858	0.050786	10.563778	-3.958913	-7.29385	-0.666861	0.583905	-0.240861
-1.39212	-6.395124	5.250093	-84.614604	-200.010062	-51.386386	0.974282	0.015542	-0.303966	1.930056	1.104014	9.244701	-3.691343	-10.677954	5.259116	0.072047	-0.090059	-0.13809	10.308819	1.491719	0.61863	9.852222	-2.286617	-9.079856	-0.714515	0.56507	-0.211935
0.081539	-2.908783	7.426198	-106.602246	-221.694094	3.033109	1.003995	0.0401	-0.357555	1.762096	0.932547	9.300746	-3.514566	-10.996349	4.676025	0.096063	-0.084055	-0.132086	10.243992	1.489992	0.217859	8.433342	-0.50679	-10.443965	-0.699799	0.586521	-0.239135
2.289308	-1.282209	8.918913	-113.082467	-242.73217	31.142056	0.953072	0.000265	-0.3765	1.483546	0.302979	9.41443	-4.346274	-12.646363	4.785846	0.090059	-0.084055	-0.126082	10.075198	1.027425	0.269469	7.569092	0.73356	-12.159625	-0.699372	0.572765	-0.217422
3.397446	0.46039	9.927673	-113.574893	-256.622938	39.843641	0.951018	0.002518	-0.41282	1.541856	1.161789	9.649994	-5.754879	-13.80885	6.122193	0.078051	-0.084055	-0.13809	10.591635	0.737708	0.449568	6.891313	1.146342	-13.702169	-0.681577	0.562455	-0.213661
4.025287	0.459359	9.766802	-115.854607	-262.715964	32.770631	0.964273	-0.013345	-0.428877	1.824901	0.645407	9.597341	-4.938167	-15.8473	7.537767	0.084055	-0.072047	-0.13809	10.302403	1.316452	0.275289	7.507558	0.439595	-15.120041	-0.685129	0.575706	-0.205819
3.646375	0.520586	10.915236	-119.597425	-261.758549	16.853825	0.915788	-0.03592	-0.430767	1.700207	1.276878	9.063049	-5.567036	-15.595743	8.565608	0.072047	-0.072047	-0.13809	10.755924	1.199224	0.169589	8.126395	-1.208889	-15.017309	-0.681577	0.562455	-0.213661
2.694167	1.162936	12.111453	-112.667077	-253.074822	-6.638087	0.918989	0.020363	-0.45224	2.092413	1.333282	8.893554	-2.920311	-16.247317	8.76753	0.078051	-0.072047	-0.132086	10.187287	0.795087	0.156486	9.791641	-3.16779	-13.770045	-0.666907	0.55164	-0.180344
1.37736	0.293855	12.198697	-110.324942	-248.311324	-20.065651	0.899834	0.002833	-0.488454	1.190851	4.428683	9.519688	-4.748343	-9.341921	11.934311	0.084055	-0.084055	-0.126082	10.077667	1.491385	0.442849	10.564419	-4.798263	-12.688135	-0.662028	0.529386	-0.183563
2.448876	0.64586	14.185812	-92.042469	-238.434532	-44.874998	0.881825	0.04384	-0.582461	2.156241	0.702387	9.190758	1.201704	-18.539536	9.984853	0.072047	-0.078051	-0.126082	9.95444	1.083972	-0.075073	10.93607	-5.90217	-12.324085	-0.680677	0.567208	-0.230751
0.156893	-4.002511	11.181503	-97.535728	-214.574939	-27.386682	0.877979	0.008195	-0.598412	2.104679	1.967287	6.592517	20.225577	-27.735307	14.512961	0.072047	-0.084055	-0.120078	9.908305	1.3183	0.495773	11.828566	-6.28513	-12.616271	-0.698945	0.559009	-0.195708
-3.704426	2.043441	13.488719	-70.432095	-207.518598	-63.703009	0.845306	0.046678	-0.675258	1.241211	-0.439415	8.4084	-29.481018	-8.737907	13.829971	0.078051	-0.084055	-0.132086	9.510384	0.971718	0.486313	11.85782	-5.776647	-13.820782	-0.697146	0.568516	-0.229888
-5.292819	-1.725959	14.199225	-58.869697	-201.113451	-77.798633	0.826532	0.04866	-0.730736	1.447715	-0.443378	10.417666	5.211026	-15.835393	10.908678	0.072047	-0.084055	-0.132086	9.334253	1.376283	0.256405	12.808409	-4.798383	-14.93948	-0.680677	0.567208	-0.230751
-3.676852	-3.823258	11.683491	-93.637521	-186.216387	-54.454857	0.873991	0.072362	-0.747007	2.336494	-2.162949	9.317094	-4.882919	-17.07442	-5.615204	0.078051	-0.066043	-0.144094	9.554711	1.084506	-0.140049	14.066675	-3.907838	-16.085082	-0.71764	0.564566	-0.182379
-4.787174	-3.52732	13.569217	-94.712782	-179.107421	-42.924177	0.827942	0.067046	-0.731841	1.395578	0.649747	7.760729	-2.066804	-11.173529	13.820587	0.072047	-0.078051	-0.120078	9.104569	1.202523	0.136927	13.664141	-2.851126	-17.426994	-0.68115	0.548699	-0.191947
-4.9498	-1.552304	14.148687	-106.29653	-173.748655	-40.778641	0.84158	0.070695	-0.767163	1.884638	1.38953	9.892109	0.687482	-21.566776	8.264335	0.066043	-0.084055	-0.126082	9.622246	0.855172	0.373855	12.371253	-2.22245	-17.509699	-0.68115	0.548699	-0.191947
-5.685636	-4.808176	11.583296	-121.559248	-172.862708	-35.18496	0.796034	0.144554	-0.847215	1.435166	1.218813	10.00172	-11.652774	-21.832712	17.193345	0.072047	-0.078051	-0.144094	9.327621	0.737582	-0.146131	11.756537	-2.214328	-16.50382	-0.648212	0.546083	-0.193673
-6.757783	-0.211909	15.61851	-137.372128	-158.02286	-31.510351	0.73685	0.214763	-0.891946	2.386858	1.732259	9.606279	-16.605169	-22.602298	11.082265	0.060039	-0.072047	-0.126082	9.379604	0.968003	-0.372322	10.712781	-2.634444	-13.838635	-0.593027	0.524659	-0.21657
-7.741611	-2.3598	15.073576	-138.333276	-136.045765	-22.456777	0.748313	0.161002	-0.887634	2.039154	1.333148	9.069468	-9.891343	-27.456032	9.878019	0.072047	-0.078051	-0.132086	9.03874	0.56341	-0.38092	9.515495	-3.120478	-10.989258	-0.649539	0.555086	-0.198297
-8.584243	-2.015516	13.09271	-143.205579	-113.229526	-6.094251	0.730949	0.18137	-0.944217	2.428654	0.47338	8.606596	-7.135372	-27.129066	11.467453	0.072047	-0.078051	-0.13809	9.494173	0.620397	-0.371647	7.948298	-3.426083	-10.287112	-0.68025	0.553452	-0.209037
-16.255561	0.903772	16.934614	-176.108679	-111.007439	10.762558	0.721278	0.273029	-0.968898	2.502219	0.586171	9.551482	-4.481778	-27.790799	11.853871	0.066043	-0.072047	-0.126082	9.319168	1.025224	-0.544462	5.98091	-3.656278	-10.873489	-0.709209	0.529061	-0.19344
-15.110257	11.815663	17.388448	-126.451136	29.052432	69.127719	0.670738	0.252706	-1.007107	2.902671	1.157293	9.912074	-5.047132	-27.600193	12.226547	0.048031	-0.084055	-0.132086	9.312854	1.371288	-0.828346	4.842946	-3.596757	-11.706819	-0.681577	0.562455	-0.213661
-24.540463	4.937324	1.406794	13.243296	-21.673419	77.415518	0.68643	0.254103	-1.006109	2.112186	0.529564	9.838978	-2.015692	-28.409047	12.157191	0.054035	-0.072047	-0.132086	8.916618	1.314714	-0.722308	1.893605	-4.474311	-10.784733	-0.648639	0.559839	-0.215387
-26.114351	-1.797898	-0.201275	-21.794615	-42.160624	113.663935	0.687075	0.233464	-0.968685	2.621714	0.241568	9.849265	-2.331488	-30.791027	12.17041	0.048031	-0.072047	-0.126082	8.92292	1.547877	-0.378704	3.278617	-4.615375	-6.30846	-0.697665	0.517743	-0.130567
-24.010591	2.906727	1.990337	-94.430719	-45.152388	143.673132	0.641529	0.307323	-1.048737	2.561934	0.242043	9.671178	-7.775975	-32.986701	10.435258	0.048031	-0.084055	-0.13809	8.635735	1.084486	-0.557714	2.879589	-4.628163	-3.710535	-0.647359	0.518572	-0.150246
-23.558842	4.138564	7.492533	-80.455793	-53.610233	165.957046	0.670356	0.233194	-0.987843	2.624867	0.642209	10.084555	-3.102514	-36.534412	8.523704	0.060039	-0.060039	-0.144094	8.076336	0.566659	-0.114605	0.601904	-3.448253	-2.526729	-0.633116	0.521514	-0.138643
-19.577128	5.349374	5.841033	-60.581675	-39.762372	163.790441	0.68784	0.272488	-1.007214	2.625826	-0.045199	10.026773	-6.685605	-38.562635	7.998541	0.060039	-0.072047	-0.13809	8.2386	0.911856	-0.509295	-2.108434	-1.108162	0.646451	-0.696719	0.55476	-0.208174
-15.402923	8.013738	5.294936	-58.718215	1.816065	138.454894	0.654401	0.271948	-1.04553	2.624697	0.699501	10.084454	-4.848931	-41.612671	6.005661	0.042027	-0.072047	-0.132086	8.135987	0.335485	-0.000346	-5.742354	1.690714	3.100541	-0.695866	0.527249	-0.164747
-14.176037	8.95109	9.367065	-32.504016	36.761501	97.962269	0.653637	0.232924	-1.007001	2.582773	1.271073	10.967355	-1.822114	-44.852418	3.710092	0.036023	-0.060039	-0.144094	8.256745	0.278938	0.344196	-8.083235	3.688771	4.846105	-0.732783	0.556872	-0.176892
-11.616139	14.126374	14.342905	47.228366	41.07579	56.290531	0.651845	0.195026	-0.986632	2.520415	1.042683	10.612673	4.049463	-50.154927	2.260386	0.048031	-0.078051	-0.126082	8.080067	-0.185469	-0.003838	-10.021824	4.72255	7.900711	-0.699372	0.572765	-0.217422
-10.840749	14.760711	12.972889	164.952718	11.58521	9.982623	0.699303	0.218728	-1.002902	2.417049	1.443056	11.199791	-1.182882	-56.431962	2.820561	0.048031	-0.084055	-0.13809	8.36591	-0.185775	0.058885	-11.282383	5.086733	11.219122	-0.700272	0.568012	-0.200332
-12.038303	15.902584	4.687599	213.183727	6.413005	-42.497251	0.693403	0.185335	-1.055173	2.599008	0.925897	11.793966	2.282708	-64.748721	2.068459	0.042027	-0.072047	-0.120078	8.750987	0.389501	-0.558616	-12.080139	4.671931	13.732294	-0.714088	0.551315	-0.190221
-4.608047	1.140015	-0.34368	108.868815	-16.969216	-43.883263	0.721323	0.171995	-1.088393	3.171	0.465346	12.100645	0.564189	-73.367596	-1.141418	0.042027	-0.066043	-0.132086	9.371845	0.329039	-0.831951	-13.369866	4.28217	16.211632	-0.66738	0.533132	-0.141541
-3.557721	-1.21061	12.038953	-0.259113	-11.607746	-13.447745	0.675274	0.166679	-1.073227	3.130163	1.036816	13.042546	10.792173	-85.916257	-4.296001	0.024016	-0.084055	-0.10807	10.055153	0.906901	-0.758715	-16.873345	4.067	19.531309	-0.699845	0.554256	-0.178618
-3.135824	-3.182215	12.967239	21.50864	-2.458202	5.204293	0.660991	0.183668	-1.075329	2.934575	1.378309	14.748596	3.136496	-98.224254	-7.094204	0.03002	-0.078051	-0.132086	10.627953	1.485779	-0.516456	-22.931305	4.886961	21.161764	-0.683376	0.552948	-0.179481
-1.366541	-0.166558	12.66305	47.698408	8.971996	21.829264	0.722995	0.15023	-1.032808	3.106988	1.148425	14.870262	7.966306	-119.17386	-9.386247	0.018012	-0.072047	-0.126082	11.720456	1.833625	0.077442	-25.913343	4.666025	19.101828	-0.666907	0.55164	-0.180344
-3.132432	-0.518595	10.373146	79.178262	-2.207343	-1.65655	0.707303	0.148834	-1.033806	3.531687	1.602729	16.529061	3.656651	-138.738087	-13.482579	0.012008	-0.078051	-0.114074	12.807441	2.122259	0.385616	-23.57058	1.593558	15.423981	-0.672686	0.569141	-0.160036
-2.314427	1.21682	8.313151	58.268186	5.956449	0.5202	0.691993	0.166949	-1.054069	2.862764	1.031139	16.930038	1.526381	-161.993788	-17.153294	0.012008	-0.078051	-0.10807	12.995392	2.010068	1.244851	-19.131347	-3.995462	11.693371	-0.689155	0.570449	-0.159173
-2.357988	1.102468	9.005506	30.942537	10.206353	-0.428312	0.690583	0.148564	-1.052964	2.821628	0.972596	17.755055	7.847398	-187.303381	-22.839611	0	-0.084055	-0.102066	11.625147	2.127803	1.047071	-12.110764	-8.927722	9.21529	-0.715841	0.574073	-0.216559
-3.051218	1.102576	8.760531	18.960069	9.708482	-1.539134	0.672837	0.14942	-1.090282	2.691863	-0.34286	16.634213	4.384082	-212.282341	-28.705705	0.012008	-0.090059	-0.114074	9.876924	1.498149	1.808555	-7.186613	-10.883554	10.908051	-0.685602	0.557198	-0.167015
-2.190451	1.159784	8.777815	13.717969	6.354364	-2.805216	0.706275	0.14996	-1.051966	2.47158	0.630981	17.100142	8.908119	-237.40863	-37.561621	-0.012008	-0.084055	-0.114074	8.845984	1.093345	1.44389	-5.463631	-11.065449	14.285707	-0.700272	0.568012	-0.200332
-2.527199	0.406402	9.116029	7.338114	5.873259	-2.48998	0.67181	0.150546	-1.108442	2.174047	0.175016	16.210519	18.788276	-259.223201	-44.545494	-0.012008	-0.078051	-0.102066	8.665234	1.554754	0.985877	-2.513436	-10.371484	15.417051	-0.716741	0.56932	-0.199469
-3.021585	0.003259	10.203245	12.653701	5.80805	-1.274408	0.704221	0.152213	-1.088286	1.875149	0.177391	15.320083	11.307405	-275.106791	-35.863223	-0.018012	-0.072047	-0.090059	8.719811	1.612011	0.873082	0.715755	-10.625256	16.633031	-0.715841	0.574073	-0.216559
-3.030143	0.582707	9.799939	16.466308	5.919654	-1.085412	0.670401	0.13216	-1.107338	2.115901	1.096872	13.199886	10.585536	-290.342308	-27.787708	-0.036023	-0.072047	-0.084055	9.617946	1.896781	0.264402	2.81012	-12.324515	15.185123	-0.721193	0.577818	-0.174537
-2.74613	0.059626	9.630952	19.034693	8.130746	1.175183	0.721967	0.151357	-1.050968	3.308131	3.331689	10.800826	13.393406	-294.056542	-16.382022	-0.036023	-0.078051	-0.072047	9.687289	1.320332	0.833821	2.474554	-13.970954	10.205817	-0.737662	0.579126	-0.173674
-2.752736	0.98761	9.344114	18.210907	9.818288	3.281002	0.653299	0.112378	-1.107231	4.274005	3.104324	7.988784	-9.364413	-292.033268	-1.300582	-0.066043	-0.084055	-0.090059	9.463122	1.205783	1.000067	-0.633848	-13.225793	4.880791	-0.754558	0.594189	-0.194525
-2.297504	1.451087	9.180931	18.226684	9.795219	2.668487	0.719148	0.114585	-1.048759	5.483159	2.926838	9.191911	-13.994457	-273.768914	8.012119	-0.054035	-0.090059	-0.072047	9.57735	1.031867	1.001531	-5.652793	-10.149601	4.017868	-0.734109	0.565874	-0.181516
-2.347979	1.393939	9.526537	11.426062	9.743938	1.605643	0.655736	0.129637	-1.090176	6.472704	-0.510223	7.152555	-17.876107	-259.95786	15.68253	-0.084055	-0.072047	-0.042027	8.96235	0.97785	1.559801	-7.412769	-6.658554	6.832961	-0.720293	0.582571	-0.191627
-2.926377	1.335893	9.283709	9.850277	11.148036	1.059019	0.698583	0.07867	-1.083868	5.268223	-0.452835	9.252554	-16.694431	-230.926668	12.711916	-0.090059	-0.072047	-0.048031	9.52986	1.381724	1.515811	-6.432555	-4.899882	8.907745	-0.722519	0.586821	-0.179161
-2.803852	0.407938	9.630647	8.09299	13.491489	2.022143	0.706275	0.14996	-1.051966	-4.611472	-0.533501	6.585674	17.778069	-200.73017	1.714695	-0.096063	-0.096063	-0.042027	9.302417	1.787717	1.570239	-2.743132	-5.047691	7.49356	-0.701644	0.54475	-0.144439
-2.44522	0.989847	10.390495	9.635412	14.343891	1.98993	0.701402	0.115441	-1.086077	-10.056885	-2.348162	5.1276	65.008665	-104.570223	-18.249839	-0.096063	-0.078051	-0.03002	9.405394	1.031945	0.94106	1.040487	-6.15393	4.664637	-0.738988	0.588128	-0.178298
-2.743703	1.104813	9.806912	8.803595	15.852373	1.36879	0.690201	0.129052	-1.033699	-10.097168	-2.693167	5.953125	109.063895	-34.039108	-26.330189	-0.096063	-0.072047	-0.036023	9.687289	1.320332	0.833821	4.730638	-6.737053	1.608955	-0.70605	0.585513	-0.180024
-2.337747	1.453239	10.04701	9.144482	17.236497	0.806347	0.70102	0.095929	-1.066812	-8.093872	-3.097305	4.22295	107.944927	-0.263506	-24.895428	-0.120078	-0.078051	-0.036023	9.801744	1.030623	0.83476	6.236044	-6.471301	-0.591227	-0.722519	0.586821	-0.179161
-2.577031	0.871777	9.520708	9.945149	19.300663	-0.869785	0.702429	0.114315	-1.067917	-8.393302	-4.011304	3.157138	76.498879	30.20447	-19.603434	-0.096063	-0.072047	-0.024016	10.307818	0.854333	0.501554	5.465449	-5.626139	-0.370289	-0.687782	0.593711	-0.215066
-2.801091	1.104869	9.805769	10.438054	19.85307	-1.714468	0.765842	0.099263	-1.0265	-7.019149	-3.387005	4.244104	49.547658	57.714648	-13.150107	-0.096063	-0.090059	-0.03002	10.420464	0.911739	0.446978	3.770444	-3.932738	-0.265745	-0.726971	0.595319	-0.154229
-2.743536	0.930685	9.806492	10.861546	20.738945	-2.0243	0.714275	0.080066	-1.08287	-7.575118	-2.469738	4.880615	40.569548	86.05841	-5.689708	-0.090059	-0.084055	-0.024016	10.941406	0.623073	0.855445	2.258956	-1.622404	1.782908	-0.719394	0.587324	-0.208717
-3.03293	1.104812	9.685567	12.639215	21.574213	-1.237713	0.714275	0.080066	-1.08287	-7.634663	-2.182903	4.76102	36.354118	119.40096	5.131592	-0.096063	-0.102066	-0.03002	10.650945	0.680224	0.564615	0.748469	0.286718	4.024361	-0.723419	0.582067	-0.162071
-2.577142	0.987862	9.520987	13.959782	21.010617	-0.86442	0.671307	0.071372	-1.013224	-7.353727	-2.355429	4.648758	30.404929	157.451483	18.263289	-0.102066	-0.078051	-0.024016	10.816143	0.678568	0.282533	-0.638697	1.776995	3.61533	-0.723419	0.582067	-0.162071
-2.5748	0.930099	9.636477	15.425895	24.01579	-0.53137	0.701402	0.115441	-1.086077	-6.773085	-2.072194	5.544119	19.695333	195.252735	29.356761	-0.084055	-0.102066	-0.048031	10.760656	1.084482	0.397431	-2.270324	2.43411	1.328055	-0.725645	0.586317	-0.149605
-3.439386	1.278771	9.446726	11.90048	22.295813	-0.76269	0.67028	0.072498	-1.031384	-5.225964	-2.594255	6.636375	14.376058	226.487158	35.692573	-0.072047	-0.090059	-0.084055	10.823242	0.506456	0.624298	-3.808751	2.558775	-2.169797	-0.735909	0.556368	-0.147337
-3.200856	1.453794	9.914236	11.466617	25.391441	-1.114185	0.735867	0.114856	-1.029601	-4.525997	-2.598331	7.829418	9.449013	251.447903	36.32896	-0.060039	-0.090059	-0.060039	10.424969	0.91279	0.675346	-4.085128	2.216105	-4.090212	-0.70605	0.585513	-0.180024
-3.455277	1.160729	8.63704	10.578322	26.176908	-0.510747	0.743484	0.02545	-1.04124	-3.561841	-2.257879	8.083283	1.449093	266.713291	31.697752	-0.060039	-0.096063	-0.084055	10.770565	1.202641	0.911787	-4.330599	1.89223	-5.1851	-0.690908	0.593207	-0.18551
-3.730844	1.220447	9.209613	11.673907	25.745488	1.95136	0.728557	0.063077	-1.080767	-2.246168	-2.435098	8.934583	-9.464745	273.602452	23.174741	-0.054035	-0.102066	-0.084055	10.546751	0.335176	1.017523	-2.948582	2.416902	-6.352093	-0.721193	0.577818	-0.174537
-2.787122	2.035369	10.559596	6.322721	34.213449	3.434804	0.753996	0.133512	-1.011547	-1.995991	-1.407054	10.412106	-14.692467	274.067351	13.970568	-0.048031	-0.090059	-0.126082	10.478192	1.085577	0.505985	-1.967451	3.4032	-7.990741	-0.740315	0.597131	-0.182922
-3.20253	0.815045	9.797069	10.70272	36.167791	2.860884	0.735485	0.095344	-1.010336	-0.72156	-1.24187	12.146713	-20.221644	263.287048	4.766058	-0.024016	-0.090059	-0.126082	10.549106	0.857032	1.191165	-0.527092	5.195699	-9.890318	-0.761282	0.574673	-0.096609
-2.79886	1.163191	9.921538	-1.799383	37.68042	4.442575	0.732021	0.07921	-1.045552	0.62598	-1.531509	11.642298	-15.869248	241.913905	-2.603806	-0.03002	-0.090059	-0.144094	10.203044	1.377994	1.015497	1.435388	7.319078	-10.938359	-0.759483	0.584179	-0.130789
-3.375726	0.698987	9.735546	17.32083	36.872471	8.416668	0.745276	0.063348	-1.061609	2.550286	-0.964785	11.91423	-35.750317	225.268195	-8.233536	-0.006004	-0.078051	-0.156102	9.977864	1.205285	1.124388	2.568863	9.105775	-10.637254	-0.724792	0.558805	-0.106177
-3.638497	0.528072	10.943522	19.219416	39.826487	14.054898	0.766486	0.078625	-0.989075	3.240303	-0.910655	12.57617	-54.895514	212.08362	-13.451871	0.006004	-0.084055	-0.162106	9.974372	1.262393	0.953374	2.997352	10.099393	-9.0981	-0.727444	0.57681	-0.115425
-4.132035	-0.520584	9.139605	16.55688	37.183674	9.700582	0.766869	0.098137	-1.00834	3.784007	-2.461927	14.240695	-53.428012	206.391869	-23.328692	0.036023	-0.084055	-0.168109	9.85598	1.261569	0.722753	2.595178	11.084298	-9.734827	-0.738089	0.592882	-0.195388
-3.722453	0.815127	9.613338	19.74804	38.322651	14.92796	0.762378	0.08313	-1.061716	3.711827	-1.944805	13.471693	-61.666693	201.668271	-35.480839	0.042027	-0.060039	-0.198129	9.690122	0.452149	0.886971	1.303212	11.29154	-10.327717	-0.738089	0.592882	-0.195388
-3.494878	1.685405	9.562191	19.719551	41.589466	17.110412	0.780769	0.061635	-0.986973	4.265708	-1.429964	12.950644	-76.867406	202.373876	-41.869518	0.060039	-0.072047	-0.198129	9.240434	0.338581	1.162896	-0.202476	11.042127	-9.228926	-0.769746	0.554231	-0.128521
-4.241511	1.105561	9.48812	26.351862	41.931441	19.809033	0.775896	0.027117	-1.021084	5.267684	-0.291175	15.386094	-94.550609	203.358023	-46.264328	0.072047	-0.066043	-0.204133	9.066339	0.280237	0.987978	-1.339731	10.931635	-8.926616	-0.735863	0.588632	-0.207854
-3.605502	0.93138	9.731533	26.855488	43.149752	19.816539	0.761231	0.024594	-1.003922	6.239298	1.19411	16.22793	-91.064409	199.446006	-46.240275	0.072047	-0.060039	-0.222145	9.069377	0.454715	1.160043	-4.658864	10.31338	-9.266569	-0.722093	0.573065	-0.157447
-3.551123	1.6856	9.618863	27.49145	44.735963	19.683202	0.782561	0.099533	-1.007342	7.825765	2.792714	16.727515	-89.963696	187.239973	-38.685081	0.102066	-0.060039	-0.216141	9.186517	1.092399	1.393555	-5.918016	9.796591	-8.527287	-0.722992	0.568312	-0.140357
-4.40046	1.629789	10.179726	29.998788	46.576329	19.852002	0.806897	0.010398	-0.999823	10.452119	3.761212	15.301857	-86.488703	167.253069	-24.173405	0.10807	-0.03002	-0.234152	9.524127	0.85908	1.170893	-5.670366	9.307715	-6.343021	-0.724745	0.59107	-0.166695
-3.885053	1.571106	10.132059	33.592555	48.869246	20.869297	0.815617	0.080562	-0.949761	12.353435	4.38736	14.334683	-89.410647	147.183854	-4.800478	0.13809	-0.024016	-0.234152	9.179771	0.511595	0.991282	-5.053859	8.800436	-4.676318	-0.725645	0.586317	-0.149605
-3.896595	1.685794	9.55419	34.651074	51.655719	19.950046	0.802668	-0.044759	-0.996509	14.538137	4.38254	13.31506	-97.542214	131.78438	11.627806	0.150098	-0.024016	-0.240156	8.726363	0.570927	1.096719	-4.8378	8.516823	-3.965113	-0.752331	0.58994	-0.206991
-3.893277	1.802299	9.727914	32.949447	54.144566	19.145299	0.840335	0.010938	-0.961507	17.226422	4.262109	12.010418	-93.175939	119.998066	25.606196	0.150098	-0.018012	-0.240156	8.721756	0.048546	0.808892	-5.515169	9.017295	-3.154556	-0.69228	0.569945	-0.129617
-3.940545	1.97774	10.247523	31.407682	57.912298	16.800087	0.855	0.013461	-0.978669	18.54343	4.376258	9.912288	-89.382782	117.063063	30.377835	0.162106	-0.012008	-0.258168	9.009282	0.338247	0.987114	-7.053029	9.43544	-1.643258	-0.739888	0.583375	-0.161208
-4.18479	1.802018	9.49094	29.629934	62.258075	15.462199	0.857054	0.011208	-0.942349	18.818528	3.975171	9.44643	-89.701357	114.460807	27.534675	0.180117	0.012008	-0.24616	8.781509	0.338702	0.982609	-11.418998	9.668663	-0.356981	-0.70695	0.580759	-0.162934
-4.231836	1.745289	10.00999	26.723168	67.459017	12.2915	0.793904	-0.01389	-0.927076	21.629612	7.847514	18.517626	-97.474262	100.976389	12.523288	0.192125	0.018012	-0.24616	9.185413	-0.066317	1.217022	-17.012475	9.130312	2.347483	-0.742114	0.587624	-0.148742
-4.515403	1.804029	10.17786	24.30001	72.133702	10.676876	0.856672	-0.008304	-0.923084	20.429555	6.092079	8.294184	-19.534394	48.820995	-3.822774	0.186121	0.018012	-0.24616	9.181125	0.396065	1.047848	-19.682923	7.616512	5.090253	-0.654417	0.57734	-0.195078
-4.458126	1.920058	10.179282	19.31421	77.596721	8.177617	0.867491	-0.041426	-0.956197	20.970567	6.550846	7.065235	-26.108529	24.524611	-8.356411	0.198129	0.036023	-0.252164	8.84521	0.340166	1.326288	-20.352977	5.210542	7.680933	-0.739888	0.583375	-0.161208
-4.802622	2.09452	10.172843	15.607555	83.579346	8.053006	0.873009	-0.027545	-0.884662	18.800922	6.616645	5.843837	-25.005279	0.015468	-10.339556	0.204133	0.036023	-0.240156	8.952794	0.106776	0.984936	-17.671545	2.709632	11.209315	-0.711829	0.603014	-0.159715
-4.971079	1.804893	10.34216	15.709717	88.609329	9.418435	0.885882	-0.06292	-0.881454	17.856973	7.872938	10.011056	28.868762	-7.025702	-26.597416	0.216141	0.03002	-0.240156	9.010534	-0.298613	0.984223	-12.530085	-0.058006	14.114808	-0.759483	0.584179	-0.130789
-5.479349	1.574201	10.736018	17.865795	94.499901	11.442724	0.891137	-0.008889	-0.866608	16.97168	8.795422	8.105127	82.24287	-24.677264	-35.945486	0.210137	0.03002	-0.234152	9.060833	-0.3582	0.642533	-5.882705	-2.638918	16.014795	-0.724792	0.558805	-0.106177
-5.643068	1.111005	11.136174	19.132871	101.674254	15.985762	0.968188	-0.020292	-0.860513	19.124599	7.413826	8.207856	111.886683	-34.853706	-40.087199	0.204133	0.024016	-0.252164	8.610918	-0.355976	0.918984	-1.081854	-4.546056	16.390656	-0.726545	0.581563	-0.132515
-5.86512	1.63459	11.537563	22.670442	109.842468	22.318874	0.89011	-0.007763	-0.884768	7.452232	9.289635	3.615833	150.871182	-60.940563	-53.597239	0.204133	0.018012	-0.24616	9.070844	0.281289	1.216346	3.993482	-5.441915	16.989204	-0.723419	0.582067	-0.162071
-5.56951	0.938778	11.946305	30.054204	118.622223	28.249645	0.921756	-0.04512	-0.826083	0.269342	-0.37821	7.799824	153.517813	0.278251	-100.794011	0.210137	0.012008	-0.234152	9.036199	0.402453	2.357589	7.098949	-5.600094	15.786247	-0.70387	0.548999	-0.131973
-5.95344	1.463787	12.864598	34.791221	130.303477	32.070377	0.956604	-0.026194	-0.788871	-5.063386	-2.843659	18.494728	-20.405463	-4.521371	-18.1231	0.210137	0	-0.234152	10.062292	0.979895	2.494674	7.830922	-3.641495	10.362094	-0.710975	0.575502	-0.116288
