1757_acc_x	1757_acc_y	1757_acc_z	1757_gyro_x	1757_gyro_y	1757_gyro_z	1757_mag_x	1757_mag_y	1757_mag_z	1758_acc_x	1758_acc_y	1758_acc_z	1758_gyro_x	1758_gyro_y	1758_gyro_z	1758_mag_x	1758_mag_y	1758_mag_z	1759_acc_x	1759_acc_y	1759_acc_z	1759_gyro_x	1759_gyro_y	1759_gyro_z	1759_mag_x	1759_mag_y	1759_mag_z
-2.1196	0.1526	9.6354	-0.0725	-0.0286	-0.2149	1.0491	0.0673	-0.7952	3.2848	0.4343	9.8038	-0.4552	0.6382	-0.0146	-0.2473	-0.2927	-0.6434	8.8305	2.9663	-0.4194	-0.2516	0.3304	0.4985	-0.2888	-0.6926	-0.5486
-2.1857	0.0359	9.179	-0.1945	-0.0309	-0.0613	0.6615	0.1519	-1.081	3.1651	0.3217	9.5747	-0.1476	0.5207	-0.2005	0.0031	-0.3222	-0.8466	9.3556	2.2665	-0.8318	-0.1576	0.39	0.6813	-0.2755	-0.741	-0.546
-2.1163	0.2108	9.8062	-0.1023	0.0313	-0.0912	0.6894	0.1649	-1.0851	2.9322	0.4347	9.4567	-0.5481	0.6074	-0.1691	-0.0098	-0.3223	-0.8463	9.2426	2.9651	-0.4716	-0.1287	0.2697	0.4984	-0.2746	-0.6957	-0.4864
-1.8914	-0.2499	9.5813	-0.1329	-0.0942	0.1215	0.6764	0.1586	-1.1095	2.9901	0.2656	9.4578	-0.4865	0.5783	-0.2926	0.0037	-0.3354	-0.8742	9.4741	2.5568	-0.7685	0.0913	0.5729	0.8323	-0.261	-0.7109	-0.501
-2.2901	-0.0193	9.6882	-0.3155	0.2768	-0.1479	0.676	0.155	-1.0954	3.1077	0.8851	9.6306	-0.3975	0.3025	-0.1412	-0.0096	-0.3365	-0.8596	9.1236	2.9071	-0.5339	0.1528	0.6355	0.7095	-0.2746	-0.6957	-0.4864
-2.2341	0.0953	9.6329	-0.3791	0.0014	-0.2749	0.7321	0.1673	-1.1002	2.8783	0.4349	9.6254	-0.4302	0.1784	0.0117	-0.0099	-0.3376	-0.8453	9.0637	2.7908	-0.5954	0.1847	0.7268	0.7701	-0.2327	-0.6789	-0.487
-2.1241	0.2091	9.4082	-0.4093	0.0627	-0.2738	0.7172	0.1952	-1.1067	3.2247	0.4906	9.6893	-0.5519	0.33	0.0439	0.0035	-0.3058	-0.8619	9.5953	3.0802	-0.5244	-0.1869	0.7286	0.4658	-0.2609	-0.6939	-0.5174
-2.2936	0.2097	9.5186	-0.3483	0.0326	-0.3051	0.6909	0.179	-1.1414	2.8309	0.7734	10.1342	-0.5831	0.2989	0.0436	0.004	-0.319	-0.8896	9.473	3.0214	-0.7665	-0.0976	0.6728	-0.0232	-0.2751	-0.7094	-0.5321
-2.4621	0.3255	9.6863	-0.2266	-0.1208	-0.2773	0.7035	0.1645	-1.0855	3.3489	0.2091	10.088	-0.4276	0.3925	0.1063	-0.0095	-0.3212	-0.8606	9.6537	2.3827	-0.6461	-0.4026	0.9448	0.1905	-0.2606	-0.6972	-0.4553
-2.407	0.1526	9.573	-0.287	-0.1239	-0.0319	0.6898	0.1684	-1.0992	3.3393	0.1524	9.6348	-0.208	0.6416	-0.0452	0.0032	-0.3069	-0.8476	9.7211	2.0939	-0.2269	-0.3417	0.8223	0.2214	-0.3029	-0.7285	-0.4849
-2.6924	0.4977	9.6257	0.0197	-0.0603	-0.093	0.7031	0.1783	-1.0889	3.2203	0.2651	9.4626	0.3181	0.7388	0.172	0.0155	-0.3396	-0.8171	9.052	2.6139	-1.2552	-0.5892	0.7609	0.1615	-0.2886	-0.6764	-0.5494
-2.0657	0.2093	9.4662	-0.1651	-0.2777	0.0266	0.6894	0.1649	-1.0851	2.9314	0.2093	9.3999	0.3171	0.6476	0.0478	0.0032	-0.3069	-0.8476	9.3604	2.5581	-0.531	-0.4969	0.7928	0.0693	-0.2609	-0.7117	-0.4855
-2.2974	0.8409	9.3507	-0.226	-0.0601	-0.215	0.7047	0.1405	-1.0927	3.1076	0.2654	9.5735	0.2569	0.7699	-0.0127	0.0043	-0.2577	-0.8936	9.5948	2.3247	-0.6474	-0.2811	0.7314	0.1605	-0.2608	-0.676	-0.5493
-2.4125	0.094	9.2885	-0.0117	-0.2148	-0.0341	0.6897	0.1857	-1.1167	2.936	0.3221	9.6265	-0.0189	0.9495	0.1122	0.0034	-0.3211	-0.8609	9.5431	2.5008	-0.2284	-0.281	0.6381	0.3138	-0.2474	-0.726	-0.5156
-2.1218	0.0373	9.5212	-0.0415	-0.061	-0.0622	0.689	0.1787	-1.0885	3.1633	-0.0164	9.4611	0.0139	1.0744	-0.164	-0.0224	-0.306	-0.8614	9.1237	2.849	-0.5342	-0.3119	0.7934	0.0687	-0.2892	-0.7623	-0.4521
-2.2969	0.0367	9.3473	0.2348	-0.0611	0.0597	0.6886	0.1752	-1.0745	3.1108	0.4909	9.7436	-0.0515	0.7974	-0.136	0.0038	-0.3047	-0.8763	9.4201	2.7324	-0.4693	-0.4676	0.6406	0.0088	-0.2604	-0.6615	-0.5191
-2.1859	0.3231	9.1802	0.1422	-0.0908	-0.0632	0.6768	0.1448	-1.1061	3.5105	0.321	9.582	-0.3291	0.825	-0.1976	0.0168	-0.3649	-0.8869	9.4232	2.3845	-0.3509	-0.404	0.8234	0.0994	-0.2745	-0.6787	-0.5028
-2.5137	0.0969	9.9685	0.0792	-0.3366	-0.0977	0.7187	0.1747	-1.128	3.2208	0.0398	9.4624	-0.3292	0.7955	-0.3828	-0.0096	-0.3365	-0.8596	9.3086	2.7923	-0.1118	-0.2815	0.8875	-0.1458	-0.2887	-0.6934	-0.5331
-2.6384	0.3246	9.4555	-0.1649	-0.153	-0.1247	0.6752	0.1999	-1.1198	3.168	0.0401	9.6878	-0.1431	0.8588	-0.3204	-0.023	-0.3081	-0.8327	9.2977	2.7317	-0.7111	-0.4029	1.1006	-0.0853	-0.2887	-0.6934	-0.5331
-2.5746	0.6132	9.799	-0.2575	-0.2767	-0.0958	0.6756	0.1688	-1.0988	2.8201	0.097	9.5673	-0.3576	0.9799	-0.5043	0.002	-0.3112	-0.7902	9.7057	3.0202	-0.9418	-0.524	1.127	0.2818	-0.2886	-0.6951	-0.502
-2.7459	-0.1334	9.7925	0.1721	-0.245	-0.0045	0.689	0.1614	-1.071	3.2787	0.4904	9.5206	-0.4542	0.6719	-0.4767	0.0153	-0.3702	-0.8151	9.3005	2.4999	-0.5923	-0.7103	0.9737	0.2526	-0.2888	-0.7113	-0.5012
-1.8928	0.152	9.5261	-0.0119	-0.2456	-0.0346	0.7035	0.1818	-1.103	3.3905	0.321	9.353	-0.1742	0.8576	-0.1971	0.0157	-0.3385	-0.8315	9.1238	2.7909	-0.5344	-0.6176	0.8803	0.4361	-0.2467	-0.6775	-0.5182
-2.472	0.151	9.1739	0.1117	-0.0913	-0.0325	0.6905	0.1582	-1.1099	3.0997	0.6031	9.2339	-0.2673	0.7967	-0.4444	0.0162	-0.3068	-0.8478	9.2416	2.442	-0.5936	-0.3705	1.0979	0.1897	-0.2887	-0.7121	-0.4856
-2.2398	0.3238	9.3496	-0.1334	-0.0303	-0.0921	0.6756	0.1688	-1.0988	2.9409	0.3223	9.8531	-0.3329	0.5187	-0.2623	-0.0099	-0.3376	-0.8453	9.415	2.557	-0.7696	-0.4057	1.0129	-0.4822	-0.2888	-0.7113	-0.5012
-2.8088	0.0952	9.5081	-0.5004	0.2163	-0.3017	0.676	0.155	-1.0954	2.9866	0.2091	9.2878	-0.6446	0.2998	-0.2031	-0.01	-0.2927	-0.8339	9.2412	2.6162	-0.5929	-0.7156	0.8595	-0.5415	-0.2749	-0.7111	-0.5011
-2.2877	-0.2486	9.8009	-0.4102	-0.0599	-0.3065	0.7039	0.1508	-1.0821	3.2851	0.3216	9.8037	-0.4593	0.3019	-0.1721	-0.0222	-0.3202	-0.8747	9.3102	3.0251	0.009	-1.0272	0.8026	-1.0596	-0.2608	-0.6947	-0.5019
-2.2353	0.2099	9.5765	-0.3488	-0.0914	-0.2152	0.7024	0.1713	-1.0607	3.2828	0.8849	9.7475	-0.7067	0.2976	0.0127	0.0291	-0.322	-0.8471	9.3567	2.7316	-0.71	-1.4985	0.2276	-1.8192	-0.2611	-0.7101	-0.5165
-2.1188	0.6124	9.6942	-0.041	0.188	-0.3342	0.7039	0.1681	-1.0995	3.165	0.378	9.5748	-0.6146	0.2382	-0.1112	0.0034	-0.3364	-0.8599	9.2457	3.024	-0.2916	-1.6534	0.1665	-1.8795	-0.2468	-0.6953	-0.4863
-2.2924	0.0376	9.5747	-0.4722	-0.246	-0.1866	0.6764	0.1586	-1.1095	3.3345	0.1522	9.4083	-0.7685	0.2968	0.0126	0.0034	-0.3364	-0.8599	9.7783	3.3717	-0.1604	-1.4676	0.0413	-1.5434	-0.2474	-0.726	-0.5156
-2.459	0.6134	9.858	-0.3175	0.001	-0.2137	0.6482	0.142	-1.0913	2.9973	0.2658	9.7976	-0.3942	0.5488	-0.2929	-0.0224	-0.306	-0.8614	9.543	3.0238	-0.1663	-1.4038	0.1617	-1.3303	-0.2748	-0.7119	-0.4856
-2.0075	0.3818	9.5249	-0.225	0.125	-0.2733	0.6611	0.183	-1.1019	3.7362	0.1514	9.3601	-0.4234	0.6719	-0.415	-0.0089	-0.3191	-0.8893	9.4236	3.1399	-0.2279	-1.4656	0.3169	-1.5753	-0.2888	-0.6926	-0.5486
-2.0577	-0.1336	9.8627	-0.2869	0.0636	-0.3048	0.6756	0.1688	-1.0988	3.1061	0.4344	9.517	-0.3599	0.825	-0.2593	-0.0225	-0.3213	-0.8603	9.5284	3.1367	-0.9446	-1.6579	0.0507	-2.5207	-0.247	-0.7115	-0.4854
-2.5134	-0.3051	9.9668	-0.6543	0.0923	-0.2726	0.6898	0.1684	-1.0992	3.0507	0.5472	9.6291	-0.1765	0.674	-0.2606	0.0027	-0.3539	-0.8302	9.7763	2.7902	-0.3426	-1.5381	-0.0352	-3.0403	-0.3022	-0.6613	-0.5348
-2.2973	0.6111	9.3497	-0.5324	0.0321	-0.3353	0.6753	0.1653	-1.0848	3.1029	0.2089	9.3468	-0.2389	0.6127	-0.3846	-0.01	-0.3529	-0.8443	9.5927	2.7891	-0.7054	-1.0425	-0.0067	-2.6755	-0.2477	-0.7414	-0.5303
-2.1802	0.0945	9.4635	-0.5332	-0.2159	-0.1553	0.6321	0.2113	-1.108	3.1598	0.5468	9.3483	0.1628	0.618	-0.415	0.0025	-0.3397	-0.8168	9.3585	2.9063	-0.5894	-0.9173	-0.0409	-2.2785	-0.3165	-0.6947	-0.5177
-2.0081	-0.3651	9.4649	-0.1349	-0.2762	-0.0961	0.6757	0.1515	-1.0814	2.8229	0.5478	9.7376	-0.0855	0.5515	-0.1076	0.0428	-0.3494	-0.8884	9.6458	2.962	-1.003	-0.8837	0.0472	-1.9123	-0.2607	-0.6768	-0.5337
-2.0635	0.1524	9.5796	-0.0127	-0.3999	0.0242	0.6898	0.1684	-1.0992	3.2295	0.5472	9.9159	-0.0232	0.5836	-0.1997	0.0032	-0.3069	-0.8476	9.3589	2.7321	-0.5902	-1.1859	0.1275	-0.903	-0.289	-0.7088	-0.5477
-2.2307	0.096	9.8035	0.1113	-0.1842	0.0274	0.6482	0.1593	-1.1088	2.8234	0.2661	9.7373	-0.1119	0.8897	-0.2892	0.03	-0.3188	-0.8902	9.4115	2.6724	-0.9488	-1.2129	0.1822	-0.2919	-0.2886	-0.6951	-0.502
-2.4072	0.3824	9.5739	0.0187	-0.2454	-0.0347	0.6604	0.2105	-1.1087	3.1064	0.2654	9.5168	-0.1392	1.1659	-0.379	0.0034	-0.3211	-0.8609	9.242	2.7326	-0.5325	-1.2112	0.4273	-0.3237	-0.2885	-0.6781	-0.5184
-2.1241	0.2666	9.4085	-0.0443	-0.4598	-0.13	0.7035	0.1991	-1.1205	3.1065	0.2091	9.5168	-0.1096	1.0736	-0.2874	0.0029	-0.3682	-0.8435	8.8235	3.1391	-0.7781	-1.4864	0.6082	-0.1707	-0.2184	-0.6455	-0.5042
-2.2431	0.2082	9.1786	-0.0439	-0.3983	-0.129	0.7039	0.1508	-1.0821	3.2302	0.1528	9.9156	0.045	1.076	-0.3489	0.0036	-0.2905	-0.8629	9.1843	2.152	-0.5361	-1.4894	0.5209	-0.5982	-0.275	-0.7289	-0.4692
-2.462	0.0957	9.6853	0.1398	-0.2403	-0.4337	0.6612	0.1657	-1.0844	3.1048	-0.129	9.4032	-0.1382	1.257	-0.2548	0.0151	-0.356	-0.8018	9.1229	2.7326	-0.5946	-1.9272	0.3446	-1.4515	-0.2748	-0.6941	-0.5175
-2.3441	0.0389	9.8579	0.0176	-0.2109	-0.3715	0.6901	0.1547	-1.0958	3.1672	0.4907	9.6881	-0.2623	1.1952	-0.4096	0.0029	-0.3079	-0.8332	9.3559	3.08	-0.7085	-2.1747	0.0659	-1.2048	-0.2608	-0.6947	-0.5019
-2.6897	-0.1337	9.7368	-0.2579	-0.1193	-0.4305	0.7035	0.1818	-1.103	3.1727	0.1529	9.9144	-0.3871	1.1012	-0.349	0.0025	-0.3397	-0.8168	9.1247	2.9073	-0.474	-2.2676	-0.089	-1.0509	-0.3027	-0.6937	-0.5331
-2.2244	0.6144	10.1468	-0.4104	0.1597	-0.7016	0.7176	0.1642	-1.0858	3.1067	0.7724	9.5739	-0.5711	1.192	-0.5332	0.003	-0.2926	-0.8342	9.4163	2.964	-0.648	-2.3602	-0.3063	-0.7744	-0.261	-0.7109	-0.501
-2.1776	-0.422	9.575	-0.3484	0.1265	-0.457	0.6344	0.1286	-1.0876	3.0431	0.0963	9.2323	-0.5769	0.7325	-0.5995	0.0293	-0.3363	-0.8604	9.2424	3.0232	-0.4713	-2.454	-0.3353	-0.9573	-0.3029	-0.7285	-0.4849
-2.5809	0.0948	9.4557	-0.5332	0.0659	-0.6108	0.663	0.166	-1.1373	3.1686	0.3781	9.7447	-0.455	0.6104	-0.4464	0.0301	-0.3484	-0.9025	9.3025	2.5585	-0.4722	-2.3297	-0.2125	-0.9584	-0.3025	-0.6766	-0.5495
-2.3534	0.6114	9.4055	-0.2249	0.2811	-0.4855	0.676	0.2069	-1.1479	3.2234	-0.0728	9.5756	-0.4573	0.4552	-0.1705	0.0039	-0.3496	-0.8876	8.7049	2.4419	-0.9031	-2.2665	-0.1842	-0.7142	-0.289	-0.7096	-0.5322
-2.5777	0.2104	9.6267	-0.5629	0.1569	-0.5172	0.6901	0.172	-1.1133	2.8163	0.8292	9.4546	-0.6777	0.145	-0.0505	-0.0092	-0.3201	-0.875	9.1816	2.8486	-0.593	-2.1428	-0.1223	-0.7455	-0.2748	-0.6932	-0.533
-2.288	0.0961	9.8024	-0.2848	0.402	-0.33	0.634	0.177	-1.126	2.9329	0.0403	9.4564	-0.5233	0.1175	-0.2356	-0.0231	-0.3234	-0.8316	9.2955	2.7312	-0.8309	-2.0481	0.1534	-0.7472	-0.2746	-0.6779	-0.5183
-2.3444	0.4984	9.8598	-0.5317	0.2807	-0.5766	0.6611	0.2003	-1.1194	3.0467	0.7724	9.4594	-0.5214	0.2711	-0.2649	0.0023	-0.3101	-0.8045	9.3604	2.5581	-0.531	-2.2636	0.245	-0.808	-0.2889	-0.7105	-0.5167
-2.5798	0.0376	9.5123	-0.4381	0.4327	-0.3904	0.718	0.1677	-1.0999	3.2185	-0.0166	9.3491	-0.4279	0.3338	-0.295	-0.0228	-0.3223	-0.846	9.3651	2.4429	-0.2919	-2.4471	0.1485	-0.4095	-0.2611	-0.7279	-0.4847
-2.3496	-0.0198	9.5734	-0.7141	0.5257	-0.5721	0.7031	0.161	-1.0714	2.8284	0.21	9.9638	-0.5819	0.3629	-0.3565	-0.0098	-0.3223	-0.8463	9.4761	3.0803	-0.5865	-2.3229	0.1782	-0.2879	-0.2607	-0.6955	-0.4863
-1.9545	0.0936	9.2974	-0.5913	0.557	-0.5719	0.7035	0.1645	-1.0855	2.8746	0.4348	9.4555	-0.7355	0.4222	-0.3561	0.0033	-0.3518	-0.8589	9.4832	2.9075	-0.2278	-2.512	-0.2182	-0.4687	-0.2748	-0.6941	-0.5175
-2.3508	0.0374	9.5167	-0.8347	0.8325	-0.5668	0.7329	0.1398	-1.0934	3.1635	-0.1291	9.4611	-0.5517	0.3019	-0.3571	0.0162	-0.367	-0.8582	9.7096	2.7886	-0.7631	-2.1138	-0.3051	-0.8059	-0.2883	-0.6611	-0.5347
-2.3533	0.4965	9.405	-1.2045	0.4923	-0.5406	0.6905	0.1582	-1.1099	3.2317	0.0402	9.9722	-0.5829	0.3003	-0.1722	-0.0235	-0.3551	-0.8153	9.3639	2.9656	-0.2897	-1.8363	-0.3971	-0.6842	-0.3164	-0.6768	-0.5496
-2.5769	0.7276	9.6857	-1.0837	0.3728	-0.7882	0.6764	0.1413	-1.092	3.1607	0.0961	9.348	-0.6452	0.2392	-0.327	-0.0103	-0.354	-0.8299	9.5925	2.8472	-0.7051	-1.4037	-0.4283	-0.4717	-0.3024	-0.697	-0.471
-2.3478	0.5551	9.6895	-1.0208	0.431	-0.4807	0.6318	0.1731	-1.059	3.1628	0.2652	9.4614	-0.4909	0.2408	-0.2652	0.0029	-0.3079	-0.8332	10.0146	2.7901	-0.2184	-0.9072	-0.1532	-0.2914	-0.2884	-0.6789	-0.5028
-1.8927	0.0371	9.5257	-0.777	0.2485	-0.5457	0.6749	0.1791	-1.0882	3.0587	0.1532	9.9686	-0.1512	0.2443	-0.1416	0.0166	-0.3506	-0.8735	9.5949	2.7896	-0.5855	-0.3818	-0.1226	-0.1101	-0.247	-0.7115	-0.4854
-2.4051	0.5552	9.6884	-0.5899	0.4903	-0.113	0.7035	0.1645	-1.0855	3.1119	-0.0724	9.7431	-0.0559	0.4309	-0.3554	0.0163	-0.2915	-0.8488	9.1322	2.9671	-0.0544	-0.1024	0.1231	-0.1123	-0.2467	-0.6775	-0.5182
-2.5836	0.7262	9.3446	-0.5297	0.1494	0.1573	0.6764	0.1586	-1.1095	3.0518	-0.0161	9.6286	-0.1144	0.7051	-0.1986	0.0165	-0.3659	-0.8725	9.009	2.85	-0.3567	0.2059	0.4037	-0.5121	-0.2889	-0.7105	-0.5167
-2.4025	0.0961	9.8001	-0.4671	0.3338	0.1908	0.7043	0.1716	-1.1136	3.6269	0.2645	9.641	-0.1468	0.582	-0.1999	0.0293	-0.3363	-0.8604	9.1765	2.6732	-0.8933	0.4576	0.8918	-0.3014	-0.2612	-0.7271	-0.5002
-2.4116	0.324	9.3463	-0.5295	0.2741	0.006	0.6898	0.1338	-1.0642	3.0557	0.4911	9.8556	-0.2095	0.5193	-0.108	-0.0098	-0.3672	-0.8576	9.2441	3.256	-0.3505	0.6152	1.01	0.156	-0.247	-0.6937	-0.5173
-2.167	0.3272	10.1467	-0.4385	0.1523	-0.0576	0.6753	0.1826	-1.1023	3.1671	0.5471	9.6882	-0.3347	0.3945	-0.0169	0.0166	-0.3506	-0.8735	9.0716	3.1993	-0.1145	0.9223	1.0445	-0.1204	-0.2611	-0.7279	-0.4847
-2.3487	0.2103	9.6312	-0.5296	0.2745	-0.0247	0.6894	0.1995	-1.1201	3.3961	0.5466	9.6364	-0.55	0.4541	-0.1706	-0.0226	-0.2764	-0.849	9.4784	3.0807	-0.4667	1.1682	1.2021	-0.4888	-0.2611	-0.7092	-0.5321
-2.7483	0.0959	9.6798	-0.6212	0.3044	0.0067	0.6604	0.1932	-1.0913	2.5863	0.0409	9.3925	-0.2103	0.4578	-0.0778	0.0295	-0.3659	-0.8728	9.121	3.0808	-0.653	1.1379	1.2011	-0.397	-0.2742	-0.6447	-0.5355
-2.1262	-0.0211	9.2935	-0.3443	0.459	0.0391	0.6894	0.1995	-1.1201	3.165	0.378	9.5748	-0.3346	0.3953	-0.1402	0.0155	-0.3243	-0.8181	9.5362	2.6155	-0.5874	0.8567	1.0518	-0.8537	-0.2467	-0.6961	-0.4707
-2.405	0.4977	9.6881	-0.4683	0.3372	-0.1158	0.7176	0.1469	-1.0683	2.8801	0.097	9.6818	-0.3023	0.5173	0.0152	0.0033	-0.2916	-0.8486	9.4135	2.7309	-0.8287	0.9501	1.0815	-0.7319	-0.2889	-0.7105	-0.5167
-2.342	0.2117	9.9723	-0.5613	0.2774	-0.3006	0.6604	0.1759	-1.0738	3.0439	0.3216	9.2891	-0.2756	0.181	-0.0806	0.0293	-0.3363	-0.8604	9.653	2.6731	-0.6448	0.4872	1.0805	-0.7914	-0.2611	-0.7101	-0.5165
-1.9491	0.3246	9.5826	-0.59	0.5846	-0.2955	0.6756	0.1688	-1.0988	3.4495	0.2083	9.4107	-0.6455	0.2378	-0.1112	0.0037	-0.3201	-0.8753	9.6536	2.9056	-0.5839	0.4875	0.9868	-0.6075	-0.2751	-0.7273	-0.5003
-2.4647	0.7845	9.5745	-0.6836	0.2133	-0.1172	0.6752	0.1999	-1.1198	3.3399	0.4904	9.6918	-0.4614	0.1478	-0.0503	-0.0095	-0.3059	-0.8616	9.0017	3.1389	-0.7149	0.2985	0.7143	-0.9417	-0.2614	-0.7246	-0.5468
-2.3455	0.3833	9.8025	-0.5906	0.3985	-0.1452	0.676	0.1723	-1.1129	3.4501	0.5463	9.4677	-0.4604	0.239	0.0739	0.0298	-0.3046	-0.8768	9.2401	3.0808	-0.5909	0.2981	0.5598	-0.7882	-0.247	-0.6928	-0.5328
-2.2834	-0.1327	10.0288	-0.529	0.4606	-0.175	0.6612	0.1657	-1.0844	3.1669	-0.0163	9.6311	-0.4618	0.1169	-0.0198	0.029	-0.3374	-0.8461	9.1271	2.7917	-0.3547	0.3609	0.8063	-0.9424	-0.2469	-0.6945	-0.5018
-2.4027	0.3259	9.8011	-0.3771	0.2462	-0.1789	0.7035	0.1645	-1.0855	3.2757	0.1523	9.3504	-0.4589	0.3612	0.1368	0.0029	-0.3079	-0.8332	9.4149	3.0799	-0.7074	0.2067	0.7748	-0.9111	-0.2604	-0.6802	-0.4716
-2.1095	0.0399	10.1466	-0.1626	0.1532	-0.0277	0.6752	0.1999	-1.1198	2.9347	0.3784	9.5699	-0.4242	0.6394	-0.1378	0.0157	-0.3385	-0.8315	9.4129	3.0213	-0.8275	0.391	0.5904	-0.7581	-0.2891	-0.7267	-0.5159
-1.9995	0.0963	9.9216	-0.011	-0.0915	-0.0628	0.6467	0.1625	-1.07	3.2222	0.5469	9.5761	-0.4239	0.6695	-0.0451	0.0041	-0.3037	-0.8906	9.1754	2.6729	-0.9532	0.3633	0.8949	-0.6372	-0.2609	-0.7117	-0.4855
-2.9806	0.0953	9.5047	0.5687	-0.363	-0.2835	0.7039	0.1854	-1.117	3.0518	-0.0161	9.6286	0.0474	1.3179	0.1776	-0.01	-0.3529	-0.8443	9.2382	2.9641	-0.7112	0.4247	0.9888	-0.8213	-0.275	-0.7103	-0.5166
-2.2298	0.326	9.8613	3.153	-1.8872	-3.0452	0.6615	0.1865	-1.116	3.4665	-0.467	10.1465	1.1177	3.2387	3.9277	0.0044	-0.3026	-0.905	9.1804	2.9065	-0.6527	0.0848	1.02	-1.0036	-0.2747	-0.6949	-0.5019
-2.4381	-0.646	10.8761	13.6665	-1.9421	-10.161	0.7016	0.2161	-1.0851	2.3803	-1.2534	10.4061	9.1957	7.96	15.0487	0.0161	-0.3221	-0.8468	9.5946	2.9058	-0.585	-0.2221	1.0782	-0.8193	-0.2467	-0.6775	-0.5182
-2.7914	1.1781	7.5239	23.6394	2.4216	-6.009	0.6741	0.172	-1.06	3.3332	0.8282	9.4088	22.4985	7.4667	17.8599	0.0432	-0.333	-0.9038	9.0656	2.4426	-0.537	-0.29	0.7794	-1.5206	-0.275	-0.7103	-0.5166
-2.3511	0.5544	9.5189	-9.4037	-5.8277	-2.2144	0.6768	0.1794	-1.1411	2.667	0.9971	7.8664	10.1425	6.4832	8.2524	0.016	-0.3374	-0.8458	8.9487	2.908	-0.4174	-0.1683	0.5657	-1.52	-0.2752	-0.7265	-0.5158
-2.3452	0.0961	9.8013	5.8132	-2.8275	-3.0682	0.7039	0.1335	-1.0646	3.1786	0.2095	10.1976	-4.972	8.0745	7.5162	0.0421	-0.322	-0.8474	9.595	2.7315	-0.5858	-0.2621	0.4436	-1.5802	-0.2477	-0.7414	-0.5303
-2.5831	0.0369	9.3417	2.7536	-2.6688	-2.0447	0.6905	0.1582	-1.1099	2.5324	0.0412	9.5612	0.5558	5.4234	6.3536	0.0162	-0.3068	-0.8478	9.2995	2.9064	-0.5905	-0.5376	0.4388	-1.2125	-0.2609	-0.6939	-0.5174
-1.9018	0.2075	9.0716	2.761	-1.845	-1.51	0.6913	0.1653	-1.138	2.8855	0.4352	9.9652	-1.2523	3.999	4.9816	0.0032	-0.3671	-0.8579	9.5951	2.6735	-0.586	-0.9644	0.459	-0.3553	-0.2743	-0.6804	-0.4717
-2.1208	0.3247	9.5793	1.6629	-1.2079	-1.2205	0.6634	0.1349	-1.1164	2.8836	0.1534	9.8517	0.5864	2.5988	2.287	0.0295	-0.3057	-0.8625	9.5929	2.673	-0.7058	-1.3955	0.208	0.1059	-0.2886	-0.6951	-0.502
-2.2938	0.4395	9.5195	1.2419	0.0501	-1.1988	0.676	0.1896	-1.1304	3.4475	-0.0171	9.2973	0.7977	2.1464	1.5428	0.0033	-0.3518	-0.8589	9.8208	1.9152	-1.2438	-1.3919	0.4496	0.4104	-0.2471	-0.7107	-0.5009
-2.2936	0.2097	9.5186	-0.4099	0.4087	-0.9736	0.6474	0.1696	-1.0981	3.0539	0.153	9.7421	0.4946	2.5736	1.2694	0.0031	-0.3222	-0.8466	9.7689	3.1372	-0.7006	-1.1816	0.7402	-0.9976	-0.261	-0.7109	-0.501
-2.2375	0.2094	9.4628	-0.041	0.7827	-1.2752	0.6909	0.1617	-1.1239	3.1627	0.3216	9.4614	1.4449	4.5402	2.4612	0.0031	-0.3222	-0.8466	9.5954	3.0222	-0.5246	-0.4792	1.563	-3.4185	-0.2474	-0.726	-0.5156
-2.2353	0.2099	9.5765	-0.0455	0.2323	-1.5295	0.6619	0.1727	-1.1126	4.0155	0.2069	8.9697	0.8322	7.5546	4.4945	0.0291	-0.322	-0.8471	9.8831	2.9036	-0.939	-0.3635	1.7331	-5.0395	-0.3034	-0.7601	-0.4987
-2.2352	0.095	9.5761	0.0454	0.0794	-1.5629	0.6615	0.1865	-1.116	3.1669	-0.0163	9.6311	-1.232	10.4963	5.4469	0.0294	-0.321	-0.8615	9.7744	3.1384	-0.401	-1.0445	1.6427	-5.4034	-0.2331	-0.7113	-0.4854
-1.891	0.6695	9.642	0.8401	-0.3178	-1.449	0.7191	0.1783	-1.1421	2.8797	0.3223	9.6819	-0.791	11.1184	4.9294	0.0423	-0.3362	-0.8607	9.5987	3.0229	-0.3449	-1.665	1.7098	-6.1961	-0.2753	-0.7256	-0.5313
-2.2904	0.3253	9.6896	1.4836	-0.6273	-0.9958	0.6764	0.1759	-1.127	2.8199	0.2096	9.5674	-1.8413	11.1055	4.8668	0.0419	-0.3526	-0.8454	9.9411	2.3803	-1.0599	-1.9765	1.9011	-7.0516	-0.2335	-0.725	-0.5311
-2.2389	0.6113	9.4077	2.7304	-1.6262	-1.8437	0.6753	0.1826	-1.1023	2.822	-0.241	9.6236	-2.74	10.908	5.2032	0.0295	-0.3505	-0.8738	9.2399	2.674	-0.6525	-1.8643	1.6432	-8.701	-0.2606	-0.6785	-0.5027
-2.2991	0.0936	9.2338	2.5318	-3.7755	-2.1234	0.6898	0.1684	-1.0992	2.9972	0.3222	9.7976	-1.4986	11.497	6.6282	0.0296	-0.3352	-0.8748	9.5387	2.4999	-0.4681	-1.259	1.2944	-10.2601	-0.2604	-0.6615	-0.5191
-2.4663	-0.0776	9.4572	2.6748	-5.3729	-2.1498	0.7027	0.2094	-1.1098	3.2244	0.0399	9.6323	-4.2987	12.4653	7.8379	0.0042	-0.3332	-0.9029	9.2384	2.3831	-0.7736	-2.3743	-0.0035	-9.3636	-0.2611	-0.7092	-0.5321
-2.1231	0.3817	9.4658	5.2738	-6.1259	-2.4455	0.7031	0.1956	-1.1064	3.0027	0.6041	10.0811	-3.8054	12.3516	7.4364	-0.0101	-0.308	-0.8329	9.1753	2.2661	-1.0148	-3.6735	-0.7142	-9.1111	-0.2471	-0.7107	-0.5009
-2.0626	0.5547	9.6382	4.0419	-7.0533	-2.4877	0.6756	0.1688	-1.0988	2.9349	0.2658	9.5698	-4.0923	11.5576	6.3801	0.0295	-0.3505	-0.8738	9.2959	2.0921	-0.8935	-4.4193	-0.6437	-10.27	-0.2614	-0.7246	-0.5468
-2.0074	0.267	9.5244	3.8662	-6.4831	-1.3432	0.7329	0.1571	-1.1109	3.0051	0.6042	10.1944	-5.2566	9.8577	6.2081	0.0281	-0.3559	-0.802	8.8856	2.791	-0.6587	-5.0349	-0.4305	-10.391	-0.2757	-0.758	-0.5296
-2.3509	0.2672	9.5177	2.0322	-5.7544	-1.2954	0.6623	0.1589	-1.1092	2.8781	-0.1285	9.5683	-2.8418	7.6351	3.8141	0.0422	-0.2913	-0.8494	9.24	2.1511	-0.7147	-4.8127	-0.3799	-9.2919	-0.289	-0.7275	-0.5003
-2.3479	0.7275	9.6902	0.541	-4.6337	-0.4449	0.6615	0.1865	-1.116	2.7683	-0.3534	9.7922	-1.9008	6.2145	2.506	0.0295	-0.2903	-0.8635	9.4183	2.5577	-0.5898	-3.4368	-0.5701	-11.1296	-0.2755	-0.7418	-0.5305
-2.3499	0.3249	9.5748	0.1188	-3.654	-0.2744	0.6913	0.1307	-1.103	2.9914	0.2093	9.5143	-1.0364	6.1361	2.1051	0.0293	-0.3363	-0.8604	9.2998	2.3254	-0.6529	-1.4982	0.0962	-12.79	-0.233	-0.6943	-0.5017
-2.1714	0.3262	9.9193	-1.1063	-3.3179	-0.6028	0.6882	0.1889	-1.0779	3.391	0.7154	9.41	-2.434	8.159	4.1896	0.0424	-0.3209	-0.8617	9.8319	2.8474	-0.521	-0.3519	0.6488	-12.5829	-0.247	-0.7115	-0.4854
-1.8344	0.0373	9.5836	-1.2793	-1.6288	-0.5441	0.6497	0.1215	-1.1126	3.2269	-0.0163	9.7456	-5.623	10.1336	5.5015	0.0285	-0.3242	-0.8184	9.5929	2.673	-0.7058	0.8306	1.3464	-11.6126	-0.2752	-0.7451	-0.4684
-2.1201	0.8419	9.6383	-2.0378	-0.4338	-0.5225	0.6627	0.1625	-1.1232	2.7683	0.2663	9.8494	-6.8815	10.7043	4.8587	0.0161	-0.3221	-0.8468	9.1772	1.9179	-0.9564	1.2453	2.8118	-11.1933	-0.2475	-0.7431	-0.4993
-2.0087	0.4965	9.4685	-1.4814	0.901	-1.4532	0.6894	0.1995	-1.1201	2.708	-0.1844	9.6779	-6.2756	9.7047	4.1711	0.0286	-0.3538	-0.8307	9.2982	2.0345	-0.774	0.7634	4.2787	-11.2291	-0.275	-0.7289	-0.4692
-2.6317	0.3261	9.7966	0.4872	1.7347	-0.9853	0.6756	0.1688	-1.0988	2.7803	0.3231	10.4158	-4.9997	7.9762	3.7233	0.0296	-0.3352	-0.8748	9.5474	2.0951	-0.0504	1.1371	5.3598	-12.1218	-0.2476	-0.7609	-0.4674
-2.4607	-0.1338	9.7412	1.2556	1.7631	-0.4656	0.6909	0.1617	-1.1239	2.6583	0.0977	10.0734	-2.8344	5.6804	2.654	0.0167	-0.32	-0.8755	9.1863	2.2686	-0.4157	1.3437	5.6264	-14.1713	-0.2609	-0.6939	-0.5174
-2.2969	0.0941	9.3475	1.9612	1.8897	-0.4963	0.7184	0.1712	-1.114	2.8245	0.3225	9.794	-0.515	3.3281	1.1528	0.0301	-0.3035	-0.8912	9.0049	2.2099	-0.6589	1.36	4.9712	-15.8796	-0.2752	-0.7265	-0.5158
-2.3534	0.5539	9.4052	1.8291	0.6958	-0.9753	0.6493	0.1699	-1.151	3.2281	-0.0162	9.8022	0.4951	2.5478	0.5293	0.0428	-0.2892	-0.8781	9.3589	2.2672	-0.6521	2.0554	3.7889	-16.671	-0.2616	-0.7416	-0.5304
-2.1771	0.4399	9.6355	0.8392	-0.4403	-1.4816	0.6325	0.2148	-1.1221	2.8257	-0.2971	9.7935	0.7492	3.1023	0.6275	-0.0085	-0.2873	-0.9057	9.5928	2.2662	-0.7675	2.8819	3.0893	-16.7623	-0.2337	-0.7599	-0.4828
-2.4062	0.5549	9.6315	1.0811	-0.6802	-1.9156	0.6341	0.1424	-1.091	3.2907	0.5472	10.0871	-0.2272	4.0696	0.8521	0.0292	-0.3067	-0.8481	9.5841	2.2061	-1.247	3.6245	3.0248	-16.1841	-0.2332	-0.7105	-0.5009
-2.0107	0.1514	9.3533	1.1377	-0.2592	-3.7797	0.6901	0.172	-1.1133	2.9382	-0.1848	9.6827	-0.4734	4.129	0.6675	0.0419	-0.3077	-0.834	9.7082	2.4396	-0.8844	3.7468	2.9341	-16.2452	-0.3031	-0.726	-0.5314
-1.7225	0.5537	9.4743	1.1086	-0.3263	-3.29	0.6482	0.1593	-1.1088	2.4118	0.3792	9.3325	-0.1481	2.9406	0.1627	0.0035	-0.3058	-0.8619	9.8261	2.9623	-0.82	3.4707	2.682	-15.6318	-0.2612	-0.7271	-0.5002
-1.9447	0.383	9.8103	0.9944	0.3999	-2.3271	0.676	0.1896	-1.1304	3.0525	0.2656	9.6855	1.4997	1.3091	-0.3454	0.0172	-0.3485	-0.9022	9.7661	2.9041	-0.8813	3.3491	2.8645	-15.5711	-0.2615	-0.7424	-0.5149
-2.5273	0.4961	9.2879	2.0381	0.8381	-2.599	0.6882	0.1889	-1.0779	2.7614	0.097	9.5094	2.5256	-0.6954	-1.2894	0.0421	-0.322	-0.8474	9.6584	2.7324	-0.3451	3.5672	2.4884	-14.6228	-0.2332	-0.7291	-0.4535
-1.8985	0.2657	9.2424	0.6012	1.3221	-2.495	0.6604	0.1932	-1.0913	2.4814	0.3796	9.9001	4.2893	-3.0243	-2.7909	0.0168	-0.3047	-0.8765	9.5936	2.3826	-0.7071	2.5541	1.4208	-12.2915	-0.2617	-0.7586	-0.514
-2.2353	0.2099	9.5765	1.031	1.1966	-2.0996	0.6741	0.1893	-1.0775	2.6575	-0.1276	10.0166	5.9879	-5.5714	-3.863	0.0036	-0.2905	-0.8629	9.7745	3.0803	-0.4013	1.2362	0.7178	-9.8386	-0.2473	-0.7269	-0.5001
-2.1779	0.095	9.5772	0.018	0.6017	-1.5543	0.6898	0.1684	-1.0992	2.9405	-0.1284	9.7961	8.4654	-7.6161	-5.2377	0.0295	-0.3057	-0.8625	9.6496	3.1953	-0.7624	0.3417	0.3116	-9.3139	-0.2757	-0.758	-0.5296
-2.2311	0.613	9.8056	-0.3469	0.4667	-0.6354	0.7061	0.1719	-1.1665	2.9393	-0.1284	9.7394	9.4659	-9.1914	-6.2391	0.0423	-0.3362	-0.8607	8.8868	2.7331	-0.599	0.4003	0.2866	-9.8335	-0.2757	-0.7759	-0.4977
-2.4646	0.6122	9.5738	-0.7446	0.4627	-0.4504	0.676	0.1896	-1.1304	2.7163	-0.1277	10.0744	9.5386	-10.955	-8.3837	0.0417	-0.3384	-0.832	9.1823	3.0231	-0.5323	0.5202	0.4488	-10.6904	-0.3036	-0.7576	-0.5453
-2.1737	0.3832	9.8058	-1.0484	0.6726	-0.1087	0.6623	0.1416	-1.0917	2.6555	0.323	9.9603	10.134	-12.8398	-9.7275	0.0553	-0.3208	-0.862	8.7719	2.7922	-0.4212	0.6722	0.8262	-11.6401	-0.275	-0.7103	-0.5166
-2.2474	1.5861	9.0138	-4.5167	1.735	-3.0563	0.6634	0.1349	-1.1164	3.3953	0.3212	9.5795	9.348	-14.0663	-11.2817	0.0295	-0.3505	-0.8738	8.8245	3.1974	-0.7179	1.6877	1.1752	-12.5011	-0.2474	-0.7252	-0.5312
-2.8619	0.3834	9.7356	-5.0802	-1.1755	-1.4152	0.6771	0.1656	-1.1377	2.9362	0.8855	9.6836	6.4612	-15.2051	-11.542	0.0429	-0.3341	-0.8894	8.7611	2.7317	-1.0205	1.7852	1.2591	-11.7073	-0.2616	-0.7595	-0.4985
-2.6368	-0.307	9.5097	-0.5093	-0.3527	-1.6297	0.6623	0.1762	-1.1266	2.8233	0.3224	9.7374	6.4745	-16.5852	-11.494	0.0034	-0.3364	-0.8599	8.8226	3.0808	-0.8382	1.6061	1.3404	-10.7597	-0.2204	-0.7904	-0.5122
-2.8774	0.3801	8.9396	1.7872	-0.5236	-1.8844	0.6764	0.1586	-1.1095	3.1104	0.0965	9.6866	3.599	-16.6053	-9.3078	0.0027	-0.3539	-0.8302	8.6477	3.0817	-0.7217	1.6397	0.9315	-9.6577	-0.2617	-0.7586	-0.514
-2.1638	0.5577	10.3182	-0.8804	-1.0647	-1.3335	0.6764	0.1413	-1.092	3.3923	0.6591	9.4665	2.7001	-13.9513	-4.2264	0.0425	-0.3505	-0.8741	8.5258	3.3135	-0.9027	3.092	0.3098	-8.1931	-0.2479	-0.7755	-0.4976
-2.0694	0.6107	9.2973	0.6238	-0.7832	-1.1492	0.6898	0.1684	-1.0992	2.7118	0.3228	9.9049	0.4645	-12.3029	-2.7321	0.0423	-0.3362	-0.8607	7.8824	2.7352	-0.6776	4.478	-0.6758	-7.0626	-0.2482	-0.7908	-0.5123
-1.9012	1.0119	9.1318	-2.3789	0.2647	-2.6263	0.6753	0.1826	-1.1023	2.8267	0.4352	9.9074	1.8811	-12.623	-2.6108	0.0287	-0.3384	-0.8317	7.5907	3.2015	-0.4415	5.3015	-1.8355	-7.0295	-0.1923	-0.756	-0.5447
-1.9997	0.3835	9.9228	-4.0682	-1.6107	-0.5665	0.6478	0.1558	-1.0947	1.8035	-0.013	10.4516	-4.3989	-18.3087	-3.4739	0.0555	-0.3504	-0.8743	8.1821	3.1423	-0.3708	4.9951	-2.1198	-6.263	-0.2759	-0.7929	-0.4814
-2.177	0.3825	9.6352	0.9346	-0.1368	-1.109	0.66	0.207	-1.0947	3.0199	0.4921	10.8739	3.3655	-27.4207	-6.5485	0.0031	-0.3222	-0.8466	8.128	3.376	-0.0714	3.7629	-2.2507	-5.8606	-0.2486	-0.8232	-0.5106
-1.8338	0.8417	9.6439	-4.0871	1.2974	-2.2366	0.6894	0.1649	-1.0851	3.4141	-0.016	10.4289	-1.4722	-36.3643	-8.306	-0.0355	-0.3214	-0.8601	8.7083	3.3724	-0.5996	3.2309	-2.8895	-6.3752	-0.2618	-0.757	-0.5451
-2.1724	0.0962	9.8614	-4.5919	-1.5116	-1.3914	0.6481	0.1766	-1.1263	3.3108	-0.5224	10.9358	-0.9517	-44.1674	-9.9862	0.055	-0.3372	-0.8466	8.8859	3.1397	-0.5973	2.3815	-4.0092	-7.8337	-0.262	-0.7918	-0.4968
-2.0076	0.4967	9.5254	-0.939	-0.8223	-1.0534	0.6608	0.1967	-1.1053	4.0446	0.1517	10.329	1.0379	-50.5457	-11.0037	-0.0101	-0.3233	-0.8319	9.0072	3.1402	-0.4153	1.3493	-5.3821	-8.5263	-0.262	-0.7732	-0.5443
-1.8853	0.4983	9.9256	-4.838	-1.1656	-2.1825	0.7333	0.1433	-1.1075	4.2144	-0.8628	10.1052	-2.9319	-54.3598	-12.3704	0.029	-0.3374	-0.8461	8.587	3.8368	-0.7196	1.5219	-6.9723	-8.4888	-0.2342	-0.7736	-0.5286
-2.3133	-0.369	8.4928	-0.8992	-3.2328	-2.5954	0.6336	0.1908	-1.1294	4.0432	-0.3554	10.2153	1.5703	-59.7372	-11.5262	0.016	-0.3528	-0.8448	8.588	3.3722	-0.7216	1.6384	-7.9523	-8.3317	-0.2196	-0.7248	-0.531
-2.3311	0.5588	10.5423	-8.3145	-3.4287	-1.9025	0.7314	0.1776	-1.0896	3.8638	-0.0173	9.9288	-3.1299	-64.8953	-10.5023	-0.0096	-0.3365	-0.8596	8.4671	3.6623	-0.8424	1.3229	-8.9644	-8.173	-0.2623	-0.8259	-0.4641
-2.003	0.3828	9.7523	-4.5633	-1.9124	-1.2753	0.6466	0.1798	-1.0875	3.1107	-0.6921	9.6293	-10.3434	-70.886	-9.0263	-0.01	-0.3529	-0.8443	8.5909	4.012	-0.4792	-0.7209	-10.0104	-8.2828	-0.2342	-0.7923	-0.4812
-2.634	0.4405	9.6834	-3.2107	-1.6046	-0.7529	0.6474	0.1869	-1.1156	3.8083	-0.4678	9.9838	-14.989	-76.5096	-7.1438	-0.0491	-0.3389	-0.8301	9.2391	3.4873	-0.5892	-3.9104	-10.5857	-9.9494	-0.2617	-0.7586	-0.514
-2.3479	0.67	9.69	-5.5948	-1.3531	0.4848	0.6741	0.1893	-1.0775	5.4699	0.4301	9.7364	-31.8389	-89.6163	-5.8695	-0.024	-0.3868	-0.7989	9.6469	3.8919	-0.8194	-7.5005	-10.666	-12.2891	-0.2766	-0.8406	-0.4944
-2.2376	0.3818	9.4636	-8.3492	-0.6578	0.3814	0.6478	0.1731	-1.1122	5.3333	1.2276	19.5851	-44.9263	-72.9164	-19.0315	-0.0232	-0.3387	-0.8306	9.2416	3.8365	-0.408	-11.3842	-9.8749	-13.2262	-0.2483	-0.8078	-0.4959
-1.7099	0.1543	10.098	-12.7528	0.9829	0.2674	0.6455	0.1865	-1.0628	3.1084	-0.5209	12.2336	47.7664	-109.8944	-20.4341	-0.0359	-0.3377	-0.8447	9.7691	4.0088	-0.577	-14.0928	-9.5829	-12.8205	-0.2757	-0.7759	-0.4977
-2.0596	0.9575	9.8104	-14.1786	3.375	0.157	0.66	0.1897	-1.0772	4.2351	0.5487	13.9001	-7.3547	-106.172	-16.4032	-0.0494	-0.3246	-0.8167	9.5931	4.0094	-0.5204	-14.9757	-9.7315	-10.5857	-0.22	-0.7767	-0.4664
-3.8109	-1.7487	7.9464	-0.852	2.3588	0.3475	0.676	0.1896	-1.1304	4.2123	0.7192	15.5415	19.6833	-122.6519	-19.7203	-0.0367	-0.3256	-0.8027	9.3547	4.0676	-0.6444	-14.831	-9.8372	-12.1443	-0.1924	-0.7738	-0.5128
-2.3213	0.9056	11.0554	-23.9776	2.9885	3.123	0.6333	0.1699	-1.0978	4.3595	1.3939	14.4129	29.5868	-135.7172	-20.3046	-0.0889	-0.3423	-0.7862	8.9431	4.3594	-0.5311	-12.5626	-10.8907	-13.0031	-0.2485	-0.8062	-0.527
-2.1891	0.0926	9.0086	-18.5226	3.4553	2.1335	0.6478	0.1731	-1.1122	3.6622	1.6766	14.1155	39.6272	-144.9665	-17.6756	-0.076	-0.3423	-0.7865	9.0025	3.7202	-0.5926	-6.805	-11.5345	-7.9173	-0.2343	-0.7906	-0.5122
-2.2284	-0.0184	9.9167	-17.6947	2.9263	3.0426	0.6481	0.1766	-1.1263	3.9861	0.8865	13.0459	49.5165	-153.8268	-13.9023	-0.128	-0.3732	-0.7834	8.5363	3.0834	-0.3645	0.4695	-12.2772	-1.6139	-0.2344	-0.7898	-0.5277
-2.5752	-0.1912	9.7387	-16.7802	1.5366	3.9987	0.6592	0.2172	-1.084	4.0117	1.1668	11.5747	54.5683	-157.2051	-13.0995	-0.1412	-0.359	-0.7698	8.6111	3.3774	0.5365	3.7499	-11.1397	-1.0505	-0.2487	-0.8224	-0.5261
-2.2217	-0.0744	10.2576	-11.0501	0.5349	5.2233	0.631	0.2353	-1.1008	4.7312	0.4319	10.1738	53.5031	-158.3572	-12.6493	-0.1544	-0.3449	-0.7561	8.9647	3.144	0.4822	4.3436	-7.4579	-4.921	-0.2342	-0.7923	-0.4812
-2.3518	-0.0202	9.4596	-5.6256	0.4363	5.2981	0.7035	0.1472	-1.068	4.4421	-0.131	10.054	55.4413	-156.693	-14.635	-0.1813	-0.4084	-0.7229	9.2142	3.0303	1.205	5.6507	-3.5023	-8.3981	-0.248	-0.7933	-0.4657
-2.5697	-0.0751	10.0235	-4.7353	0.9995	4.7833	0.6733	0.2341	-1.1018	5.322	0.0934	10.8653	55.2415	-145.9361	-17.3952	-0.1813	-0.3635	-0.7115	9.7975	3.6084	0.9189	7.5248	-0.0019	-9.0633	-0.262	-0.7918	-0.4968
-2.1192	-0.3643	9.6332	-2.467	1.7919	3.5937	0.6607	0.2313	-1.1403	5.7258	0.318	10.9306	68.8976	-128.6537	-19.8637	-0.2088	-0.3844	-0.6382	10.1486	3.0259	0.6834	9.1214	2.7524	-8.6544	-0.2209	-0.822	-0.526
-2.4668	-0.882	9.3969	-1.4625	2.0358	1.4787	0.6886	0.1752	-1.0745	5.2279	-0.3586	9.1079	81.7237	-111.2158	-24.5507	-0.1826	-0.4434	-0.6635	10.2596	2.7335	0.265	8.6034	4.9432	-10.68	-0.2066	-0.8072	-0.4957
-2.2846	0.0393	9.9727	-1.61	2.7695	1.767	0.6741	0.172	-1.06	5.6552	-0.6988	7.5314	87.916	-93.285	-28.6216	-0.247	-0.412	-0.6784	11.0759	3.1942	-0.1969	7.0981	6.2623	-11.5671	-0.2482	-0.7908	-0.5123
-2.125	-0.0783	9.3502	-2.0749	2.7198	0.5409	0.6478	0.1558	-1.0947	6.1456	-0.7572	6.2395	72.9145	-82.8492	-25.7248	-0.2091	-0.4303	-0.6352	10.308	3.0215	-0.2718	4.3375	6.2249	-8.8981	-0.2348	-0.8222	-0.5261
-2.0645	0.0372	9.5223	-1.4009	3.1933	-0.2814	0.6894	0.1822	-1.1026	-7.5646	-4.5627	5.1556	59.0129	-71.8264	-7.2843	-0.2229	-0.4938	-0.6022	10.525	3.191	-1.2851	1.6071	5.7852	-5.7689	-0.248	-0.7746	-0.5131
-2.8601	6.3462	7.1466	-9.6839	10.47	-13.8178	0.6741	0.2066	-1.095	-3.5256	-1.9221	5.9221	-1.361	-40.6427	8.3912	-0.2097	-0.4927	-0.6169	10.4031	2.958	-1.5279	-1.0303	4.7206	-7.2518	-0.2342	-0.7914	-0.4967
-3.1171	0.6202	11.3229	-27.9075	-1.8994	1.5828	0.689	0.1614	-1.071	-4.1854	-2.7059	9.9838	16.7468	-14.8135	18.9902	-0.2616	-0.4328	-0.6054	10.6433	3.0746	-1.2834	-2.5868	2.9424	-7.3905	-0.2623	-0.8072	-0.5115
-2.6014	-0.8863	8.3714	7.3765	5.7028	-1.1553	0.702	0.185	-1.0641	-4.8313	-4.5103	6.5152	20.8111	4.9228	33.2481	-0.2234	-0.4204	-0.5642	10.64	3.0738	-1.4631	-3.8723	0.3084	-7.4955	-0.2482	-0.7908	-0.5123
-2.1086	0.3848	10.2049	-5.0382	4.9003	-0.5192	0.66	0.1897	-1.0772	-5.373	-3.9446	8.1461	0.263	19.9768	44.9736	-0.2491	-0.4797	-0.5883	10.1101	3.0172	-1.4133	-6.369	-2.0341	-9.584	-0.2209	-0.8398	-0.4941
-2.4089	-0.3074	9.4573	-7.0309	6.0507	-2.4882	0.6741	0.2239	-1.1125	-4.8867	-4.3975	6.6273	-7.4195	26.495	55.3607	-0.2354	-0.4469	-0.6193	9.936	2.6697	-1.2983	-9.0216	-4.1252	-12.3759	-0.2344	-0.8085	-0.4803
-2.2099	5.8331	8.18	-21.0254	16.2458	-15.5315	0.7012	0.1953	-1.0535	-3.7213	-4.1737	7.3314	-32.6601	36.5612	60.9902	-0.2354	-0.402	-0.608	9.6507	3.1955	-0.7025	-10.8671	-5.3234	-15.45	-0.2489	-0.8386	-0.5253
-2.5093	-1.2809	10.1332	-39.2915	2.7492	-1.0076	0.6749	0.1445	-1.0532	-3.1086	-4.5677	9.0423	-53.6689	58.1073	58.1969	-0.2492	-0.4502	-0.576	9.648	3.4273	-0.8213	-11.8017	-5.8982	-16.3912	-0.2213	-0.8357	-0.5718
-2.4661	-0.4222	9.4557	-0.0501	12.3377	-6.5464	0.7016	0.1815	-1.0501	-2.8246	-3.836	8.9357	-51.3584	68.8914	49.3033	-0.2492	-0.4348	-0.577	9.3021	3.1976	-0.4096	-12.2468	-6.6193	-17.7919	-0.2483	-0.79	-0.5278
-3.757	-1.8069	7.7767	8.3082	9.8032	-4.5875	0.6875	0.1819	-1.0497	-2.3569	-3.1606	9.3424	-66.612	80.8379	39.3899	-0.2218	-0.4447	-0.6483	10.0066	2.9046	-0.6373	-11.1215	-6.6789	-20.5154	-0.2066	-0.808	-0.4802
-2.8239	0.2193	11.6679	-23.0601	6.6924	-3.2904	0.6734	0.2168	-1.0844	-2	-2.2594	9.9735	-72.1501	91.3809	28.4839	-0.2729	-0.3968	-0.6789	9.249	3.0247	-0.1119	-10.4435	-5.8377	-21.7747	-0.2351	-0.8375	-0.5408
-2.5273	-1.055	9.2246	-2.1232	12.2649	-3.6894	0.702	0.185	-1.0641	-1.7637	-1.5836	10.3187	-77.0621	102.6599	18.6034	-0.2472	-0.3978	-0.6651	9.4258	3.1404	-0.1081	-8.6894	-4.5211	-24.2625	-0.2343	-0.7906	-0.5122
-2.6054	-3.0128	8.0782	14.9451	10.5662	-1.4047	0.6733	0.2341	-1.1018	-1.1783	-1.0209	10.841	-76.0547	112.9391	8.9954	-0.2333	-0.3792	-0.7094	9.2546	2.503	0.1255	-7.9728	-2.8252	-25.3426	-0.2486	-0.8054	-0.5425
-2.8261	0.2763	11.5544	-17.2207	6.7998	0.4668	0.7161	0.2192	-1.0995	-0.4979	-0.6283	10.4028	-71.8786	119.7899	0.25	-0.1554	-0.3634	-0.7121	9.025	2.5631	0.4808	-7.435	-1.0794	-25.3835	-0.2352	-0.8546	-0.5244
-1.9042	-1.1144	8.8954	5.2802	12.969	-0.4178	0.6737	0.2204	-1.0984	-0.5962	0.0486	11.2505	-70.2663	124.5079	-5.9598	-0.1559	-0.3502	-0.6844	8.903	2.853	0.3001	-5.8822	0.5815	-25.7331	-0.2349	-0.8213	-0.5416
-2.4463	-0.0158	10.4808	-5.0241	11.8758	-0.3752	0.6734	0.2168	-1.0844	-0.0918	0.2161	10.6385	-66.729	127.735	-10.0249	-0.1679	-0.392	-0.7385	8.7923	2.5644	0.6561	-5.1685	1.4758	-26.1983	-0.2343	-0.8093	-0.4648
-3.4607	-1.6901	8.2944	38.0511	14.1453	-6.7187	0.6318	0.1904	-1.0765	0.3146	0.3281	10.817	-63.8489	130.5675	-11.2275	-0.1543	-0.3295	-0.7571	9.0261	2.0985	0.4788	-3.9599	2.8346	-27.0342	-0.22	-0.7759	-0.4819
-3.6288	0.2192	11.4817	-27.3613	7.6761	0.3568	0.673	0.1787	-1.0353	0.4883	0.4405	10.8773	-62.6242	132.3154	-9.082	-0.1284	-0.3294	-0.7577	9.0886	2.9707	0.7832	-3.5606	2.3731	-26.6362	-0.2628	-0.8388	-0.5254
-2.1329	3.0798	9.0792	-4.2595	24.3198	-5.1741	0.6577	0.2204	-1.0452	0.7719	1.3975	10.7709	-62.8466	132.3099	-3.9649	-0.1144	-0.2954	-0.803	8.961	2.8526	0.2413	-1.3076	2.1907	-25.9713	-0.2067	-0.8251	-0.4638
-1.5599	-2.0911	8.898	-18.6187	11.7039	-4.3258	0.6722	0.2063	-1.0421	0.7758	1.2287	10.9407	-61.0047	131.8696	1.3655	-0.1134	-0.2769	-0.8471	9.2017	3.2018	0.5467	1.1297	1.6378	-24.908	-0.2075	-0.8712	-0.5079
-3.7906	1.945	12.0541	-12.7328	21.0346	-3.5163	0.6867	0.2267	-1.074	1.4823	1.228	11.6915	-54.1217	131.8869	7.4135	-0.1147	-0.2965	-0.7887	8.7243	2.6206	0.176	2.929	2.5859	-24.2773	-0.1936	-0.871	-0.5078
-1.4758	-3.2468	7.3035	-5.3559	19.188	-2.9849	0.66	0.1897	-1.0772	2.0955	1.6203	10.7989	-44.0765	132.9438	15.2318	-0.14	-0.2792	-0.8178	8.7942	2.681	0.7764	4.5241	4.2252	-22.5186	-0.2353	-0.8724	-0.4925
-3.2954	3.434	11.1039	-25.586	23.9511	-3.0639	0.6596	0.2034	-1.0806	2.5521	1.732	10.6387	-40.2764	141.2242	26.0459	-0.0883	-0.3249	-0.8159	8.9597	2.4456	0.1198	3.0898	6.4584	-23.0435	-0.2212	-0.8552	-0.5088
-2.5377	-2.0339	8.6519	-6.1404	22.9666	-5.8654	0.7008	0.2436	-1.0919	3.7063	2.1243	10.8332	-37.8352	154.4173	37.1238	-0.0997	-0.2441	-0.8781	8.4297	2.4471	0.1698	1.1213	8.1499	-24.6029	-0.2076	-0.8703	-0.5234
-2.7333	4.0058	10.6058	-27.4273	30.0568	-5.6276	0.6879	0.2027	-1.0813	5.8286	1.6693	10.4811	-33.3867	164.8089	44.6919	-0.0622	-0.2941	-0.8185	8.7847	2.9694	0.2984	4.3758	9.6195	-23.6133	-0.2076	-0.8703	-0.5234
-2.8055	-3.0064	9.5519	-16.8533	28.8883	-3.9595	0.6722	0.2063	-1.0421	7.7571	0.2562	9.0483	-27.4284	167.1644	47.3716	-0.0616	-0.2919	-0.8472	8.7906	1.8667	0.4734	9.9034	11.4278	-19.0889	-0.1937	-0.8888	-0.4759
-2.1281	-0.4811	9.1779	-5.0625	31.3497	-10.21	0.6875	0.2338	-1.1022	10.3971	-0.5941	8.6501	-28.1049	162.4466	46.1216	-0.0228	-0.2621	-0.8357	8.2137	2.3359	1.2432	8.2731	12.7496	-20.281	-0.221	-0.839	-0.5096
-4.3223	-0.069	11.126	-35.4598	33.4078	-3.5872	0.7142	0.2016	-1.0291	11.7618	-1.2734	7.829	-24.8444	151.1855	41.2334	-0.0224	-0.2457	-0.851	8.1619	2.0471	1.6003	10.6237	13.3033	-19.7727	-0.2082	-0.9189	-0.5209
-3.7177	-2.258	9.7646	-21.4943	37.3322	-5.189	0.6875	0.1819	-1.0497	12.9778	-1.8387	8.1371	-12.0123	137.2488	37.6212	-0.0088	-0.2282	-0.881	8.2228	2.6866	1.7838	13.0676	11.8686	-16.2605	-0.1936	-0.871	-0.5078
-3.6659	-0.823	9.5444	-35.105	39.2424	-8.4617	0.7008	0.2263	-1.0744	31.4507	3.6544	16.8522	23.3616	152.1439	-16.7998	-0.0092	-0.1997	-0.8543	8.0591	3.5616	2.6229	12.0741	10.5461	-9.9858	-0.2077	-0.8874	-0.5071
-2.7756	0.3322	11.2146	-48.3363	44.1846	-13.3732	0.7142	0.2189	-1.0466	46.7281	5.9951	21.1381	216.8655	64.7321	-3.5181	0.0303	-0.1973	-0.8838	8.1229	5.3057	3.1107	8.1874	9.7934	-3.6114	-0.2216	-0.8697	-0.539
-2.3428	0.741	12.8729	-47.7937	50.2276	-17.6011	0.7421	0.2319	-1.0507	47.5822	5.3687	15.2676	235.9035	-180.8799	21.9865	0.0559	-0.2585	-0.8804	9.1637	4.6012	1.8695	21.48	10.5668	23.815	-0.2079	-0.8857	-0.5381
-3.3518	-2.0562	16.7627	-50.001	73.0239	-15.3839	0.7428	0.2044	-1.0439	23.8787	7.1974	-6.006	192.0398	-160.7091	62.7248	0.0309	-0.2554	-0.9229	10.8542	4.1277	0.7013	29.5979	12.0814	39.8891	-0.1934	-0.8548	-0.5087
-3.802	-4.5944	14.1291	-10.9243	101.422	-8.1952	0.7703	0.2658	-1.0864	17.5026	14.0335	3.2075	132.0839	-77.2032	131.8039	-0.0106	-0.3102	-0.8042	11.2325	3.9446	-1.2088	35.7207	12.8195	47.5373	-0.1657	-0.8527	-0.5396
-3.9851	-3.3778	16.5175	-39.0786	118.0043	-0.024	0.7978	0.258	-1.0589	14.8116	2.6596	2.8012	137.4369	-12.5934	111.1741	-0.0102	-0.3387	-0.8309	9.9569	3.9393	-3.2088	17.0279	7.334	9.5106	-0.1794	-0.8375	-0.525
-3.6081	-3.4857	18.2293	-12.8004	152.3981	9.1077	0.7833	0.1856	-0.9745	3.9067	6.5121	4.4439	83.4934	16.1822	31.9307	-0.0359	-0.3377	-0.8447	9.4989	6.8489	-2.067	6.4431	16.4932	-22.0341	-0.2072	-0.8558	-0.4932
-3.0916	-2.107	18.3588	-7.1495	179.2915	15.3553	0.7963	0.2439	-1.0026	-0.0551	11.3084	5.2707	-12.221	-4.7716	-35.0357	-0.0492	-0.3542	-0.8291	10.8425	8.0048	-2.6358	27.2084	29.1978	-9.8546	-0.222	-0.9021	-0.5373
-3.5827	-1.6418	19.6015	-4.2034	203.2825	24.323	0.8253	0.2329	-1.014	0.3555	-0.1773	12.6857	-71.0457	-17.323	-11.6254	-0.0362	-0.3541	-0.8294	12.7922	7.0712	-2.6035	28.8037	32.6627	-21.9171	-0.2344	-0.8076	-0.4959
-3.4261	-3.8283	18.7429	10.5224	231.7032	29.097	0.8234	0.2325	-0.9611	3.5537	-9.7565	16.0846	-44.792	-18.8058	31.7878	-0.0227	-0.3672	-0.8573	12.8096	6.7264	-1.7063	16.482	23.572	-34.571	-0.2076	-0.8703	-0.5234
-3.8165	-2.6768	19.3085	10.6693	256.5812	34.0698	0.8521	0.218	-0.9584	6.4264	-4.1897	10.998	48.6138	-19.9736	21.1843	-0.0364	-0.3246	-0.817	11.5996	6.3872	-0.1734	17.5516	10.587	-12.0534	-0.2078	-0.8865	-0.5226
-2.4544	-1.4739	18.7717	25.3078	281.5337	38.1743	0.9093	0.189	-0.953	2.1271	6.4593	4.6329	18.9984	-11.9625	-0.0317	0.0023	-0.3254	-0.8035	10.8156	5.5717	-1.2095	15.121	4.3582	-2.1436	-0.1941	-0.9025	-0.5217
-3.3019	0.47	16.4902	36.7056	307.2569	43.159	0.878	0.2134	-0.8921	2.5519	2.2366	7.9783	-31.6706	4.2322	-0.6513	-0.0369	-0.3716	-0.7997	9.6298	5.5732	-1.5311	3.1948	1.6224	-13.8228	-0.1934	-0.8734	-0.4612
-0.8077	-1.0759	18.1235	14.345	317.2655	44.7658	0.9491	0.1804	-0.873	3.3368	0.2086	9.5216	-27.8701	4.5098	1.7899	-0.0361	-0.3235	-0.8314	9.1449	5.8619	-2.1976	5.5864	2.0945	-11.3278	-0.2076	-0.8703	-0.5234
-3.9267	1.5305	22.6202	52.4258	314.2698	40.2538	0.9502	0.1564	-0.8802	2.9775	0.5467	8.8916	-26.4893	6.1845	1.561	0.0027	-0.3539	-0.8302	8.5066	5.9239	-1.6104	5.3148	4.6661	-2.7514	-0.1662	-0.9029	-0.506
-2.4932	-1.7696	16.7807	115.8021	327.7175	41.5778	0.977	0.1243	-0.8071	3.2742	0.3212	9.2939	-33.8993	6.004	-3.9958	-0.0366	-0.3103	-0.8037	7.331	4.8237	-1.5173	-2.8795	7.9138	-6.099	-0.1938	-0.8872	-0.507
-4.5844	-2.4516	18.101	115.2695	314.4799	36.5809	1.0178	0.1263	-0.7693	3.521	-0.1293	10.0347	-39.3461	4.8593	-8.3274	-0.0486	-0.3521	-0.8578	7.5653	4.6484	-1.6335	-8.9938	9.7418	-10.4558	-0.1941	-0.9025	-0.5217
-3.2759	-1.7075	17.7318	165.7492	296.798	30.0768	1.0599	0.0525	-0.6863	2.8342	0.3229	10.2471	-38.1124	4.6627	-8.6983	-0.023	-0.3683	-0.843	7.6288	4.5912	-1.393	-15.2955	9.618	-12.4799	-0.1807	-0.9339	-0.5355
-6.2626	-2.3968	17.1593	197.2698	256.8053	44.5433	1.0595	0.0835	-0.7073	2.4273	0.4925	10.0689	-35.673	2.4631	-5.173	-0.0364	-0.3246	-0.817	7.9223	4.3577	-1.5083	-19.9869	5.9469	-8.1364	-0.194	-0.9042	-0.4906
-1.451	-0.8486	17.4299	251.2809	210.8211	46.2459	1.1022	0.0341	-0.6699	2.2713	-0.0136	10.8012	-32.9484	-1.603	-1.6969	-0.0099	-0.3376	-0.8453	8.3288	4.3553	-1.86	-22.025	1.1644	-1.8716	-0.2075	-0.8712	-0.5079
-2.9278	-10.4517	14.6897	385.431	219.3572	52.5283	1.1439	0.0086	-0.6253	2.9673	-0.24	11.042	-21.9408	-7.9448	0.0986	-0.0098	-0.307	-0.8473	8.2678	4.7036	-1.9195	-23.1804	-3.5967	-3.2811	-0.2079	-0.9044	-0.4907
25.6197	-13.1822	-0.6222	195.6225	241.7675	16.0941	1.116	-0.0044	-0.6212	2.7805	-0.4092	10.3586	-12.0881	-12.7963	1.4764	-0.0351	-0.305	-0.8754	8.4971	4.2948	-2.3362	-23.5674	-7.6671	-6.1331	-0.1807	-0.9339	-0.5355
12.6411	-7.7407	-20.1741	195.7638	77.1143	-1.9172	1.1447	-0.0363	-0.601	3.4555	-0.4111	9.6368	-8.3625	-13.7316	1.6859	-0.0101	-0.3682	-0.8433	8.8068	4.1812	-1.5524	-24.1842	-10.156	-8.1971	-0.2078	-0.8865	-0.5226
2.3628	-10.6726	4.2781	-135.7601	-78.965	-2.1499	1.129	-0.0154	-0.5793	3.1775	0.1531	10.141	-4.6286	-13.9075	3.0127	-0.0362	-0.3388	-0.8304	8.6844	5.1102	-1.6705	-22.9614	-11.5289	-8.1033	-0.1662	-0.9029	-0.506
8.9793	2.3058	18.2712	-85.6231	-111.4959	-44.0155	1.0875	-0.0764	-0.5364	3.6857	-0.3552	9.6417	-3.5534	-11.9898	2.5703	-0.0227	-0.2917	-0.848	8.8661	4.9947	-1.428	-16.9759	-11.7641	-6.9626	-0.208	-0.9027	-0.5217
8.0194	-6.8051	9.8033	28.4459	-106.4197	-57.2072	1.1584	-0.0229	-0.6047	4.1355	0.2068	9.1987	-2.0111	-9.789	1.946	0.0027	-0.2937	-0.8199	8.9875	4.9951	-1.2461	-8.287	-11.0048	-3.4525	-0.2078	-0.8679	-0.57
4.6254	-2.1402	12.0301	7.1709	-101.8262	-58.8199	1.1294	0.0227	-0.6284	3.7408	0.2642	9.5868	-6.2687	-9.6121	-0.5528	-0.049	-0.3082	-0.8321	9.2913	4.9964	-0.7614	-2.051	-9.1621	0.9171	-0.1935	-0.8718	-0.4923
3.8247	-5.2092	6.0913	43.4135	-70.8899	-71.4911	1.1011	0.0235	-0.6277	3.4529	0.3211	9.5808	-7.243	-8.6912	-2.6099	-0.0232	-0.3387	-0.8306	9.0741	4.0134	0.1286	0.204	-7.0785	4.2915	-0.2076	-0.8703	-0.5234
3.9711	-5.617	4.7853	-17.4002	-72.6401	-72.1728	1.1171	0.0061	-0.6634	3.6288	0.5463	9.7545	-12.11	-10.0411	-2.5655	-0.036	-0.3082	-0.8324	8.5523	4.2491	0.6589	-0.1186	-4.7828	4.0067	-0.194	-0.8847	-0.5536
4.4486	-4.8088	5.8209	-37.2629	-84.2042	-69.1435	1.0893	-0.0242	-0.6418	3.5066	-0.1862	9.355	-16.877	-10.7495	-1.9599	-0.023	-0.3081	-0.8327	8.017	3.6683	0.347	-0.6548	-2.9919	-0.7678	-0.1661	-0.8859	-0.5224
4.4189	-4.3432	7.2431	-53.5285	-106.5075	-61.2983	1.074	0.0521	-0.6867	3.3412	0.4341	9.7483	-18.5224	-11.4129	-2.1836	-0.0619	-0.293	-0.8328	7.6127	3.6713	0.8185	-0.3995	-1.7689	-6.5508	-0.1801	-0.8853	-0.538
4.8983	-3.1324	8.3941	-51.7595	-128.1269	-52.3284	1.0313	0.0324	-0.6541	3.3902	-0.1297	9.296	-18.4078	-9.7801	-3.1229	-0.0103	-0.2938	-0.8196	7.0173	3.5552	0.5075	0.8077	0.0893	-8.3671	-0.2076	-0.8703	-0.5234
3.5884	-3.4747	8.7082	-40.7567	-149.5667	-42.033	1.0874	0.062	-0.6764	4.0923	-0.3558	9.82	-18.2959	-8.4186	-4.8048	-0.0621	-0.2788	-0.8195	6.6524	3.9603	-0.0365	0.4762	1.3776	-8.8305	-0.1662	-0.8843	-0.5534
2.1761	-3.0223	6.7504	-33.6428	-165.5229	-31.5459	1.0335	0.0363	-0.721	3.63	-0.6931	9.6968	-16.2906	-8.8384	-7.0578	-0.0233	-0.3092	-0.8183	6.7006	3.8416	-0.635	-1.2241	1.2558	-9.4655	-0.1944	-0.9179	-0.5364
2.1832	-2.0441	7.1525	-51.9703	-181.7636	-20.04	1.0755	0.0835	-0.7605	3.7523	-0.017	10.0963	-17.6985	-10.3508	-8.2763	-0.0227	-0.307	-0.847	6.5735	3.4912	-1.1779	-3.5369	-1.4254	-11.278	-0.2082	-0.9002	-0.5683
0.7803	-1.3475	8.6057	-56.4234	-193.3888	-11.1988	1.0323	0.1122	-0.7663	3.2235	-0.1291	9.5755	-17.4963	-13.7891	-7.293	-0.0496	-0.3257	-0.8024	6.9887	3.5488	-1.0501	-4.7545	-4.6299	-9.4246	-0.1801	-0.8853	-0.538
-0.0547	-0.4225	9.8436	-54.1624	-200.028	-2.603	1.0197	0.0921	-0.7872	3.1704	-0.5795	9.7439	-18.3191	-17.6121	-5.7286	-0.0101	-0.308	-0.8329	7.218	3.6049	-1.4049	-4.0524	-6.9392	-1.7758	-0.1523	-0.9027	-0.5059
-0.9092	-0.1912	10.0553	-45.4262	-203.3989	2.5306	0.993	0.0896	-0.8254	3.6928	-0.9183	9.9244	-15.6273	-19.7809	-6.4879	-0.0358	-0.2622	-0.8354	7.4019	3.4898	-1.0426	-1.1619	-8.1524	4.1488	-0.2217	-0.8867	-0.5227
-0.9577	-0.0169	10.5097	-37.6021	-203.9148	5.1065	1.0063	0.0995	-0.815	3.9811	-1.1442	9.9302	-9.9745	-20.0014	-8.7051	-0.0363	-0.3092	-0.818	6.7519	3.8397	-1.0533	2.4877	-8.3471	6.49	-0.2079	-0.9036	-0.5062
-1.0791	0.269	10.1676	-31.677	-202.1585	4.5659	1.0357	0.0747	-0.823	3.8671	-0.4679	10.0417	-9.102	-22.0309	-10.8517	-0.0498	-0.3564	-0.8004	7.1708	3.7239	-0.7465	5.6115	-7.0503	6.3808	-0.2075	-0.8712	-0.5079
-1.4148	0.2135	10.5586	-30.9026	-198.3249	0.4858	0.9792	0.1454	-0.8916	3.8535	-0.3557	9.4187	-9.7029	-23.2849	-12.5293	-0.0622	-0.2339	-0.8081	7.1177	3.551	-0.4488	8.4327	-4.337	5.2573	-0.1803	-0.9015	-0.5371
-1.7957	0.5053	11.5754	-34.7366	-195.987	-3.7894	0.9926	0.1034	-0.8288	3.6896	0.0956	9.8686	-8.3442	-25.7515	-12.5527	-0.0496	-0.2655	-0.7921	7.5383	3.6679	-0.0213	10.492	-1.4884	5.5724	-0.2076	-0.8703	-0.5234
-1.9535	-0.4108	12.2504	-20.8699	-193.4856	-12.5295	0.9666	0.0907	-0.8775	3.1712	0.2656	9.8579	-12.9503	-33.122	-10.5335	-0.0241	-0.2971	-0.7763	7.3078	3.1468	0.2117	11.0336	1.6162	4.272	-0.1657	-0.8714	-0.4922
-3.298	-0.6456	10.8025	-26.1504	-195.8408	-18.564	0.9654	0.1493	-0.9053	3.748	-0.2988	9.8695	-10.6263	-37.1582	-7.8589	-0.0501	-0.2972	-0.7757	7.3538	3.5505	-0.4444	11.5169	3.4379	-0.1702	-0.2075	-0.872	-0.4924
-2.8256	-1.9642	11.4881	-33.1568	-197.9845	-19.5601	0.9818	0.1182	-0.9376	3.47	-1.0302	10.2593	-3.1381	-38.4239	-6.1083	-0.0488	-0.3225	-0.8454	7.4604	3.2571	-1.1024	11.8378	4.4675	-4.9745	-0.1799	-0.8691	-0.5388
-4.2755	-1.61	13.4505	-36.1338	-200.1183	-17.0712	0.9253	0.1543	-0.9712	4.7795	-0.4136	9.6646	-9.2396	-44.4006	-4.4771	-0.0628	-0.3115	-0.7888	7.8688	3.3713	-1.3339	11.3292	4.9915	-8.4897	-0.1941	-0.9025	-0.5217
-5.2451	-2.2404	13.5995	-30.6123	-200.9805	-14.7394	0.9536	0.1536	-0.9719	3.6201	-0.5808	9.2438	-11.9738	-45.8328	-6.5281	-0.0624	-0.2798	-0.8051	8.6237	3.483	-1.978	10.4664	4.5838	-7.8123	-0.1939	-0.905	-0.4751
-5.7038	-2.7573	13.5315	-25.8858	-207.0267	-11.3241	0.8543	0.1873	-0.9904	4.0257	-0.0744	9.4226	-16.4373	-49.4193	-6.105	-0.0754	-0.2799	-0.8049	9.1517	3.8878	-2.0862	7.904	2.7486	-5.7467	-0.2216	-0.8689	-0.5545
-6.5768	-3.2194	12.7738	-25.9301	-216.0459	-8.1274	0.8696	0.1975	-1.0329	3.6748	-0.3557	9.1319	-25.9542	-54.1323	-2.7067	-0.0884	-0.2953	-0.8036	8.8585	4.0051	-1.9714	4.0058	-0.4073	-3.6087	-0.2361	-0.9185	-0.5366
-6.9603	-4.0771	13.6152	-35.577	-226.3092	-4.9847	0.8432	0.2159	-1.1026	4.0412	0.0389	10.159	-31.199	-60.5407	0.863	-0.0881	-0.2789	-0.8189	9.6795	3.8859	-2.256	1.418	-1.9422	-0.9942	-0.194	-0.9033	-0.5062
-7.9166	-4.4749	14.4474	-34.7964	-234.3145	-4.1049	0.816	0.2272	-1.1442	3.8082	0.2082	10.041	-33.5544	-72.955	4.3447	-0.0628	-0.3115	-0.7888	9.3207	4.0018	-2.5018	-1.0261	-4.1707	0.7062	-0.1798	-0.8699	-0.5233
-8.4417	-4.7639	13.9245	-31.123	-238.1414	-6.9685	0.8435	0.254	-1.1517	4.1965	0.2632	9.3699	-42.1675	-84.1976	8.6961	-0.1274	-0.2955	-0.8028	10.3402	3.6545	-1.6459	-4.5114	-7.1614	4.7675	-0.2215	-0.8705	-0.5235
-8.9659	-4.7654	13.4596	-28.0209	-237.147	-14.6901	0.7584	0.27	-1.153	3.4989	0.5506	14.4507	-70.9338	-77.077	8.5896	-0.1148	-0.267	-0.7763	10.1798	2.6709	-0.8746	-11.2004	-10.8209	10.3108	-0.194	-0.9033	-0.5062
-12.1056	-4.6012	10.9555	-29.2855	-231.3026	-25.9401	0.7874	0.2763	-1.1819	5.103	2.0683	14.2593	-7.0936	-93.6776	1.7862	-0.1414	-0.2692	-0.7471	10.2355	2.67	-1.0532	-18.1664	-14.1715	15.4566	-0.2077	-0.8882	-0.4915
-15.8116	-6.0889	11.616	-56.009	-220.7635	-32.9922	0.7328	0.2955	-1.2508	4.2678	-0.5814	9.9368	-12.6031	-106.264	6.3118	-0.1405	-0.266	-0.7901	10.1854	2.614	-0.5753	-19.4273	-15.6101	18.0968	-0.2079	-0.8857	-0.5381
-19.0756	-5.3972	11.5554	-63.1939	-205.3065	-37.1683	0.703	0.3167	-1.2288	5.5375	-0.1306	12.8511	-37.309	-112.356	12.5512	-0.1541	-0.2836	-0.7602	10.1202	1.9736	-0.9984	-17.1001	-15.8508	15.5524	-0.2219	-0.9038	-0.5063
-23.0109	-5.8057	9.3176	-74.4812	-189.0064	-33.3742	0.674	0.3969	-1.2874	5.1217	-1.0317	12.1622	-15.4794	-125.5386	10.958	-0.1552	-0.2725	-0.7038	10.2407	2.3225	-0.815	-11.595	-15.153	12.0752	-0.2219	-0.9038	-0.5063
-25.586	-4.597	9.3862	-98.3954	-173.5721	-26.3065	0.6194	0.3814	-1.3214	4.1237	-0.3546	11.2927	-16.7982	-136.8828	11.615	-0.18	-0.2684	-0.7606	9.5228	2.2638	-1.3677	-7.7005	-12.6117	10.1844	-0.2214	-0.8714	-0.508
-35.6222	1.1315	17.3419	-2.3121	-141.2607	0.533	0.6167	0.4086	-1.2754	5.1736	0.0383	11.9944	-21.872	-146.8815	14.9952	-0.2197	-0.2412	-0.7187	9.2237	2.5542	-1.5516	-9.3264	-9.1525	12.2828	-0.2221	-0.9013	-0.5529
-30.0266	-1.2811	4.8811	31.2737	-98.9339	2.2892	0.6316	0.4326	-1.3214	4.9437	0.4895	12.0466	-14.4696	-159.6657	17.9262	-0.2453	-0.2403	-0.7325	9.1719	1.8005	-1.2564	-18.1289	-5.6983	21.2849	-0.2079	-0.8857	-0.5381
-30.2111	8.9099	10.4898	-26.6512	-71.6438	12.2833	0.5877	0.4369	-1.2815	4.5059	0.6039	13.1132	-21.3454	-175.1649	23.2544	-0.2458	-0.272	-0.7162	8.9461	0.6994	-0.8462	-32.0496	-2.0711	35.4719	-0.2357	-0.8861	-0.5383
-27.12	9.7118	10.5533	94.7817	-6.3996	1.3712	0.5598	0.4239	-1.2774	4.6756	0.9414	13.0038	-12.6087	-192.2389	27.2538	-0.2712	-0.2251	-0.733	9.2638	0.4713	0.3565	-42.2576	0.4209	42.4063	-0.221	-0.839	-0.5096
-28.3125	17.081	14.2552	161.5843	29.9329	-14.9455	0.5602	0.4274	-1.2915	5.3243	0.4338	13.6964	-20.0054	-209.9505	31.419	-0.2846	-0.1967	-0.706	9.2143	0.6479	0.8953	-46.4501	7.1401	27.1343	-0.2491	-0.8548	-0.5245
-44.2497	31.2055	36.8505	238.2909	141.7645	-47.5492	0.5621	0.4451	-1.3618	5.5122	-0.5799	14.3222	-18.2486	-229.7302	31.2548	-0.2985	-0.2	-0.6627	9.0064	6.8007	0.0196	-36.6881	14.4851	3.497	-0.2214	-0.8722	-0.4924
-33.4064	16.5881	5.459	559.8653	255.9712	-6.8979	0.5915	0.3511	-1.2998	6.0868	-1.9331	14.1632	-23.8773	-252.7841	23.9921	-0.3249	-0.2318	-0.6458	10.1018	10.3368	-0.9029	-20.861	10.6322	-0.0567	-0.249	-0.8556	-0.5089
12.0969	7.2327	2.3265	168.2045	182.4586	59.6057	0.6232	0.2437	-1.2873	5.76	-1.9293	17.723	-52.3717	-276.1612	16.523	-0.3521	-0.2516	-0.5868	12.0312	8.889	1.1629	-39.4168	-3.5484	54.5531	-0.2212	-0.8373	-0.5407
-11.4049	8.8447	12.2193	-10.1103	84.2208	-38.0759	0.6515	0.2257	-1.2705	5.0629	-1.9235	22.8037	-51.0156	-306.1168	10.9859	-0.3776	-0.22	-0.6026	13.5277	7.3796	2.1425	-51.4954	-17.1769	63.9881	-0.2075	-0.8533	-0.5398
5.2277	0.184	4.891	-17.0802	126.0432	-30.75	0.6656	0.2253	-1.2708	5.7484	-3.6151	22.4203	-12.9079	-340.5377	-6.928	-0.4185	-0.2124	-0.5024	13.3599	3.3727	2.1222	-50.6012	-20.5505	29.666	-0.2489	-0.8386	-0.5253
1.9992	1.8724	9.6091	-38.9629	133.4964	-49.4618	0.6648	0.2528	-1.2777	7.2082	-5.1404	20.5813	-3.7004	-362.6684	-11.3636	-0.4188	-0.2135	-0.488	9.9344	3.0894	1.8774	-30.0264	-19.682	-2.9045	-0.2769	-0.8373	-0.5565
-3.3907	-2.799	17.6681	4.702	170.5824	-73.0674	0.7064	0.262	-1.268	11.2364	-3.7959	20.7237	13.5257	-382.1804	-29.8544	-0.4721	-0.2641	-0.4265	7.8952	5.7596	0.4136	-12.7351	-20.9595	-24.261	-0.249	-0.8377	-0.5408
-9.1173	-4.601	11.582	46.2714	147.0421	-38.873	0.7484	0.2573	-1.255	9.2571	-5.5395	19.4917	10.0928	-387.531	-31.3591	-0.4994	-0.194	-0.3449	7.092	7.4965	-1.3306	4.9595	-27.3257	-32.4837	-0.249	-0.8377	-0.5408
-6.0845	-2.138	-2.9541	-33.3987	78.4902	-27.2741	0.7209	0.2305	-1.2475	10.3574	-4.5273	19.912	16.4854	-385.8652	-38.674	-0.539	-0.2566	-0.3257	6.6211	7.4397	-1.2798	23.2385	-33.0535	-25.3114	-0.2909	-0.8545	-0.5402
-2.7885	3.3619	7.7605	-64.0147	1.1071	-1.8219	0.7622	0.2707	-1.2588	7.8676	-2.4365	22.0695	35.1397	-353.4067	-55.2908	-0.5149	-0.2782	-0.2391	6.7569	5.9908	-0.505	20.7896	-33.6796	-9.9591	-0.2492	-0.8539	-0.54
-3.9884	-2.1395	10.5555	-14.0235	7.5383	1.6963	0.7759	0.2668	-1.2451	5.4781	-4.4073	17.7716	99.6376	-320.6983	-59.4456	-0.5427	-0.3154	-0.1505	8.7188	5.4666	0.248	11.4683	-31.0126	6.9324	-0.2488	-0.8394	-0.5098
-2.1154	0.5557	9.8645	-36.6425	-1.1252	8.3366	0.7339	0.2888	-1.2756	7.3421	1.2236	19.3443	88.4484	-225.909	-50.0677	-0.5034	-0.3437	-0.178	9.9086	5.6403	0.8099	4.287	-29.5198	10.9247	-0.2349	-0.8392	-0.5097
-2.0028	0.0956	9.7511	-17.0521	1.3674	5.2541	0.7621	0.288	-1.2763	13.7109	-29.7122	21.0925	11.5797	-314.5276	-60.9964	-0.5826	-0.3189	-0.1066	10.0304	5.9314	1.053	9.1467	-25.2265	2.5731	-0.2627	-0.8404	-0.4943
-2.5068	-0.1314	10.3086	-17.1173	-0.3433	7.0052	0.7618	0.2845	-1.2622	-37.5506	15.76	-9.5532	-157.7533	-261.0679	-26.1392	-0.5707	-0.3078	-0.0505	9.5492	6.0467	0.5654	23.4602	-18.1428	-12.0905	-0.2629	-0.8379	-0.5409
-2.2409	0.2662	9.2925	-12.3536	2.5214	5.6887	0.7484	0.2746	-1.2725	-12.9835	-2.2479	-0.5044	-89.7643	208.8877	-89.5658	-0.5963	-0.3069	-0.0643	8.8953	6.1633	0.3142	31.993	-7.1912	-18.2549	-0.2344	-0.8076	-0.4959
-2.2846	0.0968	9.9729	-20.1791	5.0841	6.8875	0.7748	0.2908	-1.2378	-0.8345	-7.7066	31.733	-134.6021	293.5332	-67.5526	-0.5571	-0.3056	-0.0795	8.2878	5.5797	-0.7177	32.2795	3.3868	-20.6289	-0.249	-0.8369	-0.5564
-2.1109	0.4418	10.0914	-15.3715	10.6026	4.6633	0.7484	0.2746	-1.2725	-4.4978	-1.6781	25.0941	95.8307	195.0142	-94.9793	-0.5567	-0.3341	-0.1061	7.7558	4.9997	-0.8499	26.1208	6.9221	-18.5455	-0.2768	-0.8568	-0.4936
-2.3557	0.7258	9.2922	-18.3448	13.2495	0.4215	0.7614	0.2636	-1.2306	-4.4608	-5.6367	7.5976	86.4754	183.7681	-112.2973	-0.5566	-0.3789	-0.1175	7.6911	4.127	-1.274	20.3954	5.5816	-9.1977	-0.2488	-0.8402	-0.4943
-2.2409	0.3236	9.2928	-22.9893	12.8677	-3.0369	0.761	0.3293	-1.2865	-7.1384	-0.6731	9.3008	4.273	211.1789	-112.6146	-0.5291	-0.3581	-0.1908	7.8018	4.9385	-1.5679	11.3587	3.19	-11.7512	-0.235	-0.857	-0.4778
-2.1082	-0.1896	10.2025	-24.6652	11.9808	-6.8187	0.7908	0.2562	-1.2561	-7.731	-1.0646	11.1563	16.7389	227.9388	-103.9618	-0.5284	-0.4009	-0.2308	7.3337	4.127	-1.4604	4.2623	-0.8354	-12.4092	-0.2906	-0.8765	-0.4307
-2.5122	-0.4198	10.0232	-16.5184	14.766	-5.1714	0.7465	0.3089	-1.2546	-7.8157	-1.4036	9.8521	23.3036	249.4299	-95.4515	-0.5416	-0.3714	-0.2182	6.6796	3.895	-1.773	1.0351	-4.8341	6.4173	-0.2635	-0.9052	-0.491
-2.5738	-0.4782	9.7944	-20.0529	16.1593	-2.1024	0.7763	0.2876	-1.2766	-6.1573	-0.7311	9.4346	10.1009	260.9538	-90.1692	-0.5018	-0.4435	-0.2714	6.918	3.372	-1.7109	0.1264	-7.6249	24.5905	-0.2346	-0.8425	-0.4476
-2.2271	-0.3628	9.9721	-27.142	18.8161	-0.7815	0.7457	0.3364	-1.2614	-5.3523	-0.8453	9.3948	13.0985	261.6829	-83.471	-0.5009	-0.4402	-0.3145	6.9809	4.07	-1.4073	1.9303	-7.7103	27.5496	-0.2349	-0.84	-0.4942
-2.2241	0.0975	10.1446	-25.571	22.6558	2.7419	0.7744	0.2873	-1.2237	-4.0317	-0.3409	9.3097	5.9286	257.4269	-73.8098	-0.4864	-0.4195	-0.3875	7.8553	4.4723	-1.9282	2.2975	-5.2542	17.9075	-0.2625	-0.8421	-0.4633
-2.2198	0.4431	10.3735	-20.296	27.9353	2.7819	0.787	0.342	-1.2377	-2.4722	0.0507	9.6259	3.219	254.403	-61.3276	-0.4475	-0.4795	-0.3987	8.6288	3.6585	-1.6778	2.7957	-3.6816	10.9291	-0.2768	-0.8568	-0.4936
-2.4005	-2.6611	9.7886	-20.1505	26.033	26.9147	0.7461	0.288	-1.223	-1.9586	-0.1194	9.4101	1.7458	251.9704	-43.228	-0.4072	-0.4892	-0.4702	8.6857	3.5997	-1.7967	0.9264	-4.8623	9.1075	-0.277	-0.8917	-0.4453
-0.0092	-1.0571	9.2167	-16.5063	25.0843	19.9281	0.8015	0.2933	-1.1997	2.4847	-0.1789	15.3912	-12.5092	258.8677	-34.7245	-0.4069	-0.4881	-0.4846	8.5787	3.1376	-1.2617	-2.8219	-5.9568	13.0999	-0.2902	-0.8068	-0.5272
-9.5544	-6.6768	9.6325	-0.3756	30.7573	-2.1365	0.7877	0.2972	-1.2134	-4.1989	7.1545	12.9362	130.6339	231.8937	-42.7693	-0.4196	-0.5025	-0.4976	8.4133	3.315	-0.6053	-10.9425	-5.3705	15.7246	-0.277	-0.873	-0.4927
-3.4222	-1.0498	10.2869	-19.3192	35.3527	13.0502	0.7874	0.3109	-1.2168	-1.4458	-10.7821	-7.9691	60.8486	227.115	-13.7421	-0.367	-0.5296	-0.5398	8.5926	3.3151	-0.4822	-15.4824	-3.0092	16.5245	-0.2486	-0.8419	-0.4632
-2.7811	0.2161	10.9299	-0.8185	27.5353	-8.168	0.8163	0.3172	-1.2457	0.0049	1.7433	18.0017	-161.3926	282.0914	39.4057	-0.3535	-0.5427	-0.5678	9.6571	3.3131	-0.3426	-17.1466	-0.0358	12.3593	-0.2908	-0.8562	-0.5092
-2.2352	-1.3987	9.5129	-29.5145	35.0415	1.1145	0.8022	0.3176	-1.2453	-2.6437	-1.3526	14.9428	2.631	267.62	56.4738	-0.3265	-0.5087	-0.6134	10.2373	3.3096	-0.8707	-13.7884	0.5052	5.5592	-0.2764	-0.8431	-0.4478
-3.305	-0.1301	10.4636	-32.3691	31.2158	-1.4542	0.8293	0.3409	-1.2388	0.2283	-0.8535	12.0596	-33.7714	266.9522	59.9836	-0.3001	-0.537	-0.6406	9.4691	3.253	-0.9452	-7.818	0.7927	-2.4408	-0.2626	-0.8226	-0.5262
-3.2489	-0.1304	10.4079	-34.9777	41.5815	-3.3024	0.8152	0.2894	-1.186	5.0501	-1.6495	14.1417	-13.9095	270.4835	73.4775	-0.2596	-0.5008	-0.7152	10.0124	3.2545	-0.2763	-1.3052	2.3825	-9.0122	-0.2624	-0.8437	-0.4322
-3.651	-1.3368	10.2813	-30.4158	43.3766	0.1485	0.8289	0.3546	-1.2422	3.8844	-3.2276	10.6057	-13.8169	269.0953	84.7178	-0.2603	-0.5336	-0.6845	9.5381	3.2551	-0.4049	4.9692	4.1115	-14.33	-0.2756	-0.7775	-0.4667
-3.3768	-1.6269	9.6603	-29.0994	44.5819	5.5005	0.7988	0.3724	-1.2061	4.7366	-3.3963	12.7748	-53.1895	270.7727	88.9887	-0.2318	-0.4942	-0.8018	9.3028	2.9072	-0.4108	8.583	7.09	-23.0664	-0.2768	-0.8568	-0.4936
-2.9189	-1.4549	9.6699	-23.7102	42.4954	7.4137	0.8007	0.3208	-1.2065	6.887	-2.7235	13.8396	-51.0518	268.2956	83.3541	-0.1807	-0.5267	-0.7722	8.5924	2.9083	-0.5438	10.4052	9.5095	-31.6098	-0.2908	-0.8749	-0.4617
-3.6641	-1.7418	9.5974	-14.1123	34.95	12.7527	0.8274	0.3578	-1.2034	8.2314	-2.6688	14.8304	-42.1203	264.8816	70.2541	-0.1662	-0.5059	-0.8453	8.0736	2.7961	0.1047	9.9994	10.9767	-34.6097	-0.2492	-0.8913	-0.4452
-3.8607	-0.0437	17.1591	-69.3584	39.3781	19.7299	0.8554	0.2844	-1.1201	8.899	-2.5584	13.7688	-33.5259	261.6514	56.4778	-0.1386	-0.4698	-0.9196	8.0179	2.797	0.2834	9.1941	12.3504	-31.6495	-0.2773	-0.9062	-0.4755
-3.5562	1.5562	15.2396	-11.5092	79.1744	18.8304	0.8687	0.3461	-1.1622	10.9401	-2.6198	12.3397	-43.1234	258.7727	42.6291	-0.0353	-0.5162	-0.9044	7.0686	3.0885	0.0274	11.3152	14.3952	-24.5474	-0.2768	-0.8568	-0.4936
-1.8863	0.3258	9.868	14.177	97.8546	13.1725	0.842	0.3091	-1.1653	14.5571	-2.6833	11.9627	-63.5728	250.1483	24.9227	-0.0346	-0.4988	-0.9341	7.2598	2.6845	0.7478	19.0409	15.5153	-11.8684	-0.2769	-0.8738	-0.4772
-2.4969	1.5368	10.8842	-39.9443	107.0925	0.0771	0.8832	0.3493	-1.1766	17.6351	-0.9979	13.4441	-72.424	257.2422	9.0475	-0.0213	-0.4221	-0.9394	7.6145	1.4636	0.6294	28.4589	17.5528	4.3773	-0.2627	-0.8404	-0.4943
-2.7054	2.4607	11.9638	-36.8156	121.4361	-14.5426	0.8977	0.3524	-1.1911	20.1857	-1.0607	11.6294	-54.5057	290.2189	0.3577	0.0181	-0.4504	-0.9669	7.6216	0.768	0.926	34.0581	20.1232	15.1037	-0.3047	-0.8751	-0.4618
-2.761	3.2079	12.0795	-39.6425	133.0228	-26.9521	0.9237	0.3305	-1.1073	22.1554	-0.8409	9.5762	-66.9843	319.6234	0.7639	0.0825	-0.4817	-0.952	7.7462	1.2921	1.3497	28.1019	20.8559	13.1961	-0.2354	-0.8894	-0.4761
-2.9608	2.8697	13.5518	-50.8282	147.6052	-41.5291	0.9241	0.334	-1.1214	25.8019	-2.6519	7.7263	-82.902	323.702	-3.3084	0.0965	-0.4631	-0.9963	7.4643	1.2957	2.0631	21.4728	20.0856	14.4159	-0.2354	-0.8707	-0.5236
-3.372	1.8911	12.9713	-41.3516	167.1682	-56.2698	0.9504	0.3675	-1.1042	32.1994	-2.2693	8.2573	-109.3373	287.9706	-10.1903	0.1748	-0.3707	-1.004	7.5347	0.659	2.6007	16.1392	19.0744	21.6234	-0.2767	-0.8576	-0.478
-3.3667	-0.8654	13.1303	-47.6317	184.6575	-59.9248	0.9645	0.3499	-1.087	44.9089	4.6967	13.9654	-56.4058	280.9659	-86.6945	0.175	-0.385	-1.0173	8.0568	2.1665	2.3175	14.1322	19.4827	31.7471	-0.2483	-0.8265	-0.4485
-4.5483	-2.4562	17.0219	-69.0938	203.4763	-51.7339	0.9916	0.3904	-1.098	38.0952	-3.2465	-1.3573	45.9657	128.3747	-34.6201	0.2526	-0.3856	-1.0046	7.7348	2.8584	0.9371	13.2837	18.7372	35.514	-0.2629	-0.8558	-0.509
-5.146	-5.2639	18.5329	-45.3115	234.3372	-33.6923	0.9916	0.3731	-1.0805	52.09	9.2973	8.4588	-127.1994	26.1446	17.0312	0.2657	-0.3549	-1.0069	8.1172	5.6397	-0.3613	7.9889	9.7731	21.9724	-0.2483	-0.8265	-0.4485
-5.0403	-6.0577	20.9753	-52.4232	266.2108	-15.0258	0.9913	0.335	-1.0314	76.1579	36.9342	35.9936	-10.6319	-177.296	83.8255	0.2783	-0.3712	-0.9918	6.611	8.9482	-1.6328	3.2613	2.2167	8.6068	-0.3185	-0.8574	-0.4938
-4.849	-4.4325	24.964	-53.2753	303.1944	4.6238	1.0165	0.3752	-0.9895	61.835	38.9658	9.4256	333.5474	-358.3519	187.4879	0.2526	-0.3703	-1.0056	7.0953	9.227	-4.1377	19.9169	6.2029	43.0095	-0.277	-0.873	-0.4927
-3.6205	-3.566	26.3555	-18.4052	349.2249	20.1146	1.0597	0.312	-0.9487	32.6946	1.7755	-3.2214	255.9934	-206.7111	162.2864	0.188	-0.3696	-1.0186	10.3785	10.028	-5.151	35.4771	5.7467	80.6886	-0.2908	-0.874	-0.4773
-4.6679	-5.5672	28.3157	-10.842	385.7706	29.304	1.1421	0.3404	-0.9188	-0.0249	-5.5767	21.3349	58.5312	-65.8647	46.6026	0.1341	-0.4825	-0.9387	12.733	8.3943	-5.653	42.7262	8.5176	105.1481	-0.304	-0.8087	-0.4962
-5.6675	-3.7788	29.9519	30.7202	414.3844	31.5818	1.1548	0.2568	-0.7929	-4.2412	8.3922	11.0681	51.5129	-108.2068	-36.6906	0.0953	-0.4674	-0.9389	12.3647	4.2797	-3.7613	37.5638	10.3103	77.8762	-0.2901	-0.8084	-0.4961
-2.5873	-2.9591	20.6951	73.8568	446.6294	41.3955	1.1399	0.2674	-0.7819	-9.7647	8.7336	3.0264	67.1666	-233.7686	-77.5347	0.0951	-0.498	-0.9369	11.0503	6.4291	-4.3754	-3.4532	18.2076	-1.898	-0.3458	-0.8263	-0.4801
-1.3885	-0.1907	23.5716	4.555	439.4097	54.5076	1.1797	0.2762	-0.7194	1.7192	-4.2883	16.9001	-46.5347	-215.2142	-32.2838	0.0951	-0.498	-0.9369	10.0773	9.5178	-2.3442	-18.114	27.5938	-18.27	-0.2761	-0.8091	-0.4805
-4.7944	1.107	30.8988	94.4163	417.8182	57.8523	1.2362	0.2228	-0.6683	32.3552	-21.5273	16.5093	-48.6401	-57.8831	43.8825	0.0306	-0.482	-0.9509	10.5239	6.9677	-0.8497	-8.4671	31.0465	20.9828	-0.3038	-0.8103	-0.4652
-0.9809	-0.9813	26.8155	215.5012	395.2416	44.3209	1.2756	0.1934	-0.5568	-11.91	11.3307	5.1916	94.2679	-55.4672	-6.0143	0.0306	-0.4973	-0.9499	13.0114	6.964	-0.3242	-20.6385	37.7385	29.4015	-0.2906	-0.8579	-0.4781
-2.3905	-2.769	24.9052	305.8863	375.3886	5.2547	1.2336	0.1808	-0.5523	7.7275	1.0929	-0.3495	37.739	-30.014	20.7366	0.044	-0.5257	-0.9768	16.0106	7.2453	-0.806	-29.635	40.338	32.3259	-0.3034	-0.7592	-0.5142
1.0118	-20.9206	25.4632	123.1642	429.5799	36.2849	1.2611	0.173	-0.5249	2.3201	4.3214	8.0885	-65.5304	-14.4513	-46.3028	0.0302	-0.5137	-0.9345	14.2321	6.434	-1.3816	-29.6141	31.5861	20.6901	-0.3047	-0.8564	-0.5092
61.5178	-3.0768	-8.2923	31.6958	309.1714	-32.9416	1.2459	0.1627	-0.4823	4.2549	-3.0583	11.8026	-35.8005	2.556	-0.8563	0.0423	-0.5015	-0.8927	12.623	7.4801	-2.1258	-25.7091	22.0596	-12.2876	-0.3177	-0.774	-0.5445
4.8637	-12.6738	-20.062	-51.5252	-75.3057	91.7005	1.286	0.1578	-0.4164	2.9599	1.7314	10.8738	5.5113	-1.373	0.2785	0.0033	-0.5324	-0.8899	11.2664	7.1928	-2.1523	-13.2988	14.9144	-27.0275	-0.3312	-0.7418	-0.5463
16.8725	-10.3609	26.2708	-274.6605	-320.8334	146.2478	1.3005	0.1263	-0.3958	3.7251	1.9513	6.3043	-15.3775	-5.0837	-7.3897	0.0432	-0.5136	-0.9348	10.6811	6.0331	-2.0485	-15.647	10.5928	-32.9261	-0.2758	-0.775	-0.5133
11.6202	3.8738	36.2876	-32.7548	-248.4344	107.502	1.3165	0.1263	-0.449	3.0176	-0.2404	10.7034	-50.237	0.6782	-13.7109	0.0435	-0.4972	-0.9501	10.7444	5.6272	-1.8694	-18.5786	6.0817	-32.5273	-0.3041	-0.807	-0.5273
10.5574	-1.9196	11.0098	112.3341	-156.0871	93.565	1.2905	0.1482	-0.5328	2.2345	-0.745	11.7056	-37.2763	-7.3449	-8.9095	0.0686	-0.5003	-0.9076	10.1642	5.1078	-1.4033	-17.6939	1.7526	-33.6099	-0.2905	-0.8408	-0.4945
8.9395	-3.3253	4.3233	10.8609	-165.3599	91.3464	1.2638	0.1112	-0.5359	2.7692	0.4354	9.9062	-20.6052	-17.4396	-3.7249	0.0687	-0.485	-0.9086	9.753	4.2957	-1.4145	-14.6202	-2.7271	-40.077	-0.2906	-0.8392	-0.5255
9.5908	-0.7933	5.5401	0.9793	-185.6734	58.7049	1.3073	0.1033	-0.5617	2.6962	0.8855	9.2257	-29.276	-18.6818	0.6025	0.0684	-0.5463	-0.9046	8.8723	3.7758	-1.2535	-14.9736	-6.1819	-43.2979	-0.2764	-0.8244	-0.4952
9.8006	-1.8892	4.5166	-30.3175	-218.7868	33.6379	1.321	0.0994	-0.548	3.1746	-0.2413	9.9707	-39.2963	-19.2578	3.6099	0.069	-0.5288	-0.9343	8.0602	3.839	-0.4899	-16.0052	-8.363	-42.7338	-0.2762	-0.8082	-0.4961
7.98	0.9546	11.0287	-52.2004	-256.0287	1.6956	1.3221	0.1619	-0.6427	3.9941	-1.031	10.5534	-37.3242	-17.5828	-0.1946	0.0433	-0.483	-0.9368	6.9372	3.6087	-0.6316	-16.2802	-8.5205	-36.4686	-0.3036	-0.7576	-0.5453
6.3899	-0.133	11.6183	0.8645	-273.0013	-23.6981	1.2923	0.2177	-0.6556	3.4799	-1.1425	10.7123	-26.5906	-17.1842	-7.519	0.0303	-0.4831	-0.9365	6.4146	3.2632	-0.2236	-15.1385	-7.2697	-26.8844	-0.3467	-0.8716	-0.5397
3.9014	-1.8605	10.1418	8.373	-294.8376	-35.178	1.2529	0.2125	-0.7322	3.1795	-0.2411	10.1973	-19.8503	-19.3827	-9.94	0.03	-0.4841	-0.9222	5.7155	3.1507	0.2419	-12.7028	-5.2672	-18.5606	-0.2904	-0.823	-0.5264
1.6038	-2.4924	9.6967	5.4286	-316.9276	-31.4792	1.2258	0.2065	-0.7563	3.3426	-0.2982	9.7477	-22.3352	-22.9652	-10.9024	0.0179	-0.4963	-0.9639	5.6622	3.0359	0.5399	-9.0545	-3.2521	-13.9996	-0.3039	-0.7908	-0.5281
-1.0123	-3.6931	10.4932	-16.8236	-337.2547	-14.9367	1.1857	0.2461	-0.8572	3.5303	-1.1993	10.3736	-19.9922	-26.1011	-14.5385	0.0176	-0.4372	-0.9392	5.486	2.6878	0.5351	-5.6962	-1.6485	-11.1468	-0.3041	-0.807	-0.5273
-3.4596	-3.8605	11.1837	-21.1978	-345.1587	15.2168	1.1864	0.2532	-0.8853	3.692	-0.524	9.9247	-8.3597	-27.3789	-16.9772	0.0433	-0.483	-0.9368	5.7229	2.8037	0.5999	-1.8179	0.1821	-9.3665	-0.3185	-0.8388	-0.5412
-6.8537	-3.8491	13.2204	-32.3294	-338.5539	49.6668	1.1593	0.2818	-0.9443	2.9912	0.3219	9.5144	-2.1204	-27.0779	-13.3624	0.0033	-0.5171	-0.8909	5.3117	2.9213	0.7125	1.1242	2.6209	-10.5196	-0.2765	-0.8228	-0.5263
-9.6971	-2.8662	14.1922	-39.8047	-315.207	82.8994	1.1188	0.2833	-0.9962	2.647	0.3226	9.5638	2.1429	-26.595	-8.5759	0.0302	-0.4535	-0.9242	5.3629	2.9775	0.2945	2.9288	5.3287	-11.4558	-0.2771	-0.8722	-0.5082
-6.1122	-0.0011	13.2511	-26.329	-291.0005	103.0231	1.105	0.3045	-1.0274	3.2192	0.2087	9.4059	-1.7187	-28.8082	-5.8882	-0.0219	-0.4844	-0.9211	5.3004	2.5701	0.052	3.7539	8.2367	-11.381	-0.2909	-0.8545	-0.5402
-3.5177	-1.2179	11.2505	-23.0925	-276.164	114.7474	1.1061	0.3324	-1.0871	3.7497	-0.5804	9.9259	-2.9718	-29.9738	-3.5887	0.0167	-0.5006	-0.9065	5.8784	3.089	-0.5338	2.2032	10.3942	-10.53	-0.2907	-0.857	-0.4936
-3.8485	-0.2957	11.9299	-36.4383	-264.8974	116.9913	1.0378	0.3035	-1.1173	3.7516	-0.9184	9.9822	-2.24	-30.9309	-5.8789	0.0177	-0.4821	-0.9506	6.9264	3.0833	-1.2928	0.0709	11.3925	-7.2265	-0.2904	-0.823	-0.5264
-2.4688	-0.3529	12.2407	-33.6533	-246.5887	109.8637	0.995	0.3357	-1.1372	3.9159	-0.9753	9.5893	3.9527	-32.4019	-8.1081	0.056	-0.484	-0.9227	6.8021	2.443	-1.7171	-3.291	11.5412	-2.0501	-0.2768	-0.8568	-0.4936
-2.9367	1.0241	11.7827	-42.8105	-224.2137	91.8635	0.9969	0.3187	-1.1726	4.2509	-0.5821	9.1438	2.7318	-33.9901	-11.4851	0.0172	-0.5138	-0.9342	6.7933	3.3708	-2.0726	-6.4226	10.9458	1.2037	-0.2771	-0.8722	-0.5082
-3.078	-1.9691	10.2898	-48.9643	-201.5433	73.2751	0.9408	0.3411	-1.2028	2.8798	-0.3537	9.6247	-1.369	-31.0609	-12.4766	0.0301	-0.4688	-0.9232	6.9579	3.077	-2.7894	-6.5112	9.9754	3.3176	-0.2627	-0.8218	-0.5417
-3.0809	1.3174	13.2019	-73.5934	-191.4859	47.1137	0.9125	0.3764	-1.2371	4.8886	0.2056	9.441	-5.7203	-35.7659	-14.284	-0.0085	-0.468	-0.9367	7.5571	2.9615	-2.2996	-7.762	6.5543	-0.5431	-0.2769	-0.8373	-0.5565
-2.1255	0.9231	15.2079	-55.4191	-198.8658	11.005	0.8564	0.3641	-1.2322	4.5998	-0.5262	9.321	-18.2673	-38.2797	-10.6507	-0.0344	-0.4528	-0.9371	7.546	3.0171	-2.8984	-9.6202	2.9274	-2.4445	-0.3184	-0.8396	-0.5257
-2.0331	-0.9202	14.0085	-33.0081	-222.342	-28.1763	0.8572	0.3539	-1.2429	3.6925	-0.1296	9.9817	-30.2325	-43.6631	-7.9393	-0.0083	-0.4822	-0.95	7.6725	2.2053	-2.5402	-14.7521	-1.0698	0.7717	-0.3328	-0.8714	-0.5396
-2.7071	-2.9401	11.6568	-42.6528	-249.42	-66.9342	0.8293	0.3755	-1.2738	3.7519	-0.4677	10.0393	-38.039	-52.2823	-4.2086	0.0168	-0.4853	-0.9075	7.9168	2.439	-2.0556	-21.9436	-5.8	6.1384	-0.2486	-0.8045	-0.558
-5.3654	-3.3906	13.2513	-81.022	-270.283	-106.8062	0.7724	0.3907	-1.2758	4.6218	-0.638	10.3404	-48.1851	-64.9871	0.5277	-0.0483	-0.4714	-0.8928	8.2116	2.5545	-2.0496	-28.4545	-9.8484	10.8883	-0.3183	-0.8226	-0.542
-9.0603	-3.3247	14.5436	-96.9963	-277.7569	-140.7028	0.7441	0.4434	-1.3276	4.1737	-0.8057	10.897	-41.9287	-78.2275	1.5726	-0.0602	-0.4223	-0.9386	8.9208	2.1463	-2.0381	-32.8688	-12.5856	13.7905	-0.3038	-0.7738	-0.5445
-13.6942	-3.7802	14.6221	-102.2856	-287.5045	-159.7237	0.6594	0.4283	-1.308	3.12	-1.3067	15.4036	-65.9293	-73.4357	-3.794	-0.0616	-0.4726	-0.8782	9.1599	2.2627	-1.8535	-32.6833	-13.6104	15.3537	-0.3041	-0.8257	-0.4798
-19.6116	-5.1591	13.4214	-119.192	-294.3339	-158.6809	0.63	0.4877	-1.335	5.8784	0.547	15.4065	-5.4221	-92.534	-15.0946	-0.0612	-0.4408	-0.8945	9.3399	1.4495	-1.7938	-27.8477	-11.7768	23.0915	-0.3466	-0.8545	-0.556
-25.704	-5.7218	15.0054	-147.7085	-289.2449	-141.5415	0.5732	0.503	-1.337	4.5018	-2.5534	9.9399	6.4943	-107.9469	-18.3826	-0.0995	-0.4389	-0.9224	8.6312	1.6834	-1.806	-21.1855	-11.0067	33.7326	-0.2767	-0.8211	-0.5573
-33.557	-4.4418	17.3586	-142.0306	-269.6387	-118.0056	0.5155	0.5631	-1.3634	4.614	0.4907	12.7757	-43.8033	-115.2182	-12.8848	-0.0862	-0.4378	-0.937	8.1617	2.4404	-1.5719	-13.5874	-10.1016	40.5183	-0.2906	-0.8205	-0.5729
-47.1465	1.6333	25.0761	-5.4933	-220.7473	-40.8674	0.4159	0.5759	-1.3503	3.3603	1.4513	13.4296	-25.8287	-132.5775	-12.0871	-0.0998	-0.44	-0.9081	8.0534	2.0361	-1.0966	-8.9097	-9.0092	42.9726	-0.3321	-0.8058	-0.5585
-38.7896	-11.6041	7.054	66.4087	-156.1435	6.7175	0.4022	0.5798	-1.364	2.8419	2.8606	13.5332	-22.7663	-148.6614	-5.5857	-0.1133	-0.4269	-0.8801	9.6094	2.2118	0.1309	-7.9145	-9.2981	50.5528	-0.3321	-0.8058	-0.5585
-40.3143	-5.3937	8.3576	-47.9414	-132.566	66.5443	0.3598	0.5637	-1.3455	3.2028	2.3535	14.2197	-27.0837	-169.0936	3.5796	-0.1387	-0.4402	-0.9072	11.2205	2.2121	1.1191	-13.0095	-9.6641	66.4731	-0.3317	-0.7725	-0.5757
-38.13	-1.0722	11.9418	10.3634	-71.5338	109.6976	0.3732	0.5562	-1.3177	4.2122	2.0149	15.6559	-30.2835	-193.5055	17.5774	-0.1535	-0.4621	-0.8199	11.4718	2.2731	1.9624	-18.3288	-5.0161	73.6259	-0.318	-0.7885	-0.5748
-31.8048	1.1448	7.6982	32.9836	-23.9884	120.0889	0.3873	0.5905	-1.353	4.477	1.6778	17.2464	-12.6951	-223.5692	24.8462	-0.2053	-0.4317	-0.8208	11.6488	1.8079	1.9039	-13.9733	5.6645	59.7679	-0.3455	-0.7744	-0.5447
-24.9866	10.5753	11.3941	45.7834	9.6973	87.6824	0.3888	0.5527	-1.3568	4.3266	-0.126	15.43	2.3472	-252.5954	27.3447	-0.2183	-0.4318	-0.8205	10.1746	1.2885	1.8741	-10.9455	12.4532	34.3478	-0.3037	-0.7559	-0.5764
-20.2164	24.4462	18.8196	185.5639	66.1789	-9.1194	0.3461	0.5503	-1.3417	5.2278	-1.0862	14.429	-6.7977	-279.2892	29.2921	-0.2711	-0.3751	-0.766	8.8177	2.512	2.0337	-12.8744	13.7113	12.5839	-0.3593	-0.7576	-0.5611
-14.5052	36.9556	30.4064	308.1819	195.6492	-193.0813	0.4171	0.5346	-1.34	5.5701	-1.141	16.9838	-29.6121	-302.549	28.457	-0.3234	-0.4071	-0.7485	6.2257	9.304	-0.0814	-3.0093	18.483	-22.4677	-0.3176	-0.7561	-0.5764
-26.908	20.3488	13.046	433.2105	264.2006	-196.9622	0.4331	0.5173	-1.3758	4.8493	-2.0375	20.8742	-34.6908	-331.0657	19.8459	-0.3238	-0.3786	-0.7218	6.9076	14.468	-0.825	28.5542	13.6739	-28.7315	-0.3173	-0.7408	-0.5617
1.9457	10.5483	10.1561	279.4768	265.2802	-105.9483	0.4228	0.3973	-1.3588	4.0658	-2.1454	24.5942	-28.8395	-367.0602	14.5916	-0.3757	-0.3636	-0.7217	10.5105	9.5929	1.976	18.3942	-5.8195	18.9523	-0.3449	-0.7258	-0.5472
-17.1525	16.4275	11.287	-62.9533	158.9538	-101.8434	0.5083	0.3848	-1.3715	2.6372	0.1698	27.9631	-21.4209	-410.5436	14.2587	-0.4164	-0.3856	-0.6338	12.7687	4.3036	2.175	-26.8457	-27.7839	60.1272	-0.3596	-0.7908	-0.5439
4.0578	-2.5208	3.4929	-56.5188	223.5524	-59.389	0.5361	0.3805	-1.3581	2.3002	-1.6883	28.1808	27.2119	-452.2479	-1.006	-0.4826	-0.4056	-0.574	11.5781	1.1662	1.1812	-35.2753	-27.1817	34.4417	-0.3447	-0.7088	-0.5636
9.7188	-0.3433	3.3281	-127.3877	220.1538	-70.2544	0.551	0.3353	-1.3342	6.2054	0.1583	22.6031	60.4321	-474.3761	5.7685	-0.5094	-0.4089	-0.5304	9.0057	1.3966	-0.7223	-25.3365	-21.2247	0.0199	-0.3311	-0.7426	-0.5308
-1.4554	-4.6863	19.971	-28.9078	250.4161	-104.5035	0.593	0.3825	-1.3736	4.6876	-4.6281	21.1516	80.6532	-459.8467	9.7208	-0.5369	-0.3695	-0.4468	8.1476	4.7034	-2.0416	-20.4784	-29.9123	-1.0565	-0.3315	-0.7564	-0.5765
-9.7707	-3.3867	13.3361	52.7903	238.3872	-47.4674	0.6041	0.4577	-1.3663	10.8723	-6.0494	19.6384	99.3867	-435.6809	-10.371	-0.6161	-0.4049	-0.3857	9.9955	8.9317	-3.6657	-13.1691	-38.5789	17.4501	-0.3456	-0.7736	-0.5602
-15.2617	-8.3147	1.6151	26.6285	111.8962	-14.2976	0.6347	0.3224	-1.294	4.7669	-1.928	17.0228	112.368	-379.6007	-20.5013	-0.6056	-0.4287	-0.2702	11.4091	9.6252	-3.6962	4.5903	-40.1188	36.4685	-0.3731	-0.7586	-0.5457
-0.5845	6.1442	0.5976	-49.2162	19.2775	36.1792	0.6766	0.387	-1.351	6.1469	-0.074	14.4492	135.6463	-301.529	-17.5808	-0.6183	-0.3828	-0.2729	12.272	7.1329	-2.0141	26.254	-37.3737	35.7349	-0.3587	-0.7269	-0.5317
-4.0432	5.2147	10.9832	3.2592	22.0776	8.5989	0.6892	0.4071	-1.33	28.6723	-32.3811	28.9907	92.8262	-294.8815	-27.6913	-0.6075	-0.4056	-0.1718	13.7838	6.1499	-0.1336	18.1475	-34.4603	32.143	-0.4139	-0.6953	-0.5337
-2.0691	-2.7788	9.1694	-40.897	11.7516	20.2723	0.6762	0.3835	-1.3369	-29.3186	-10.782	-3.6857	-129.3566	-373.7401	-28.8375	-0.6219	-0.411	-0.0997	14.0343	7.0242	0.7731	-4.5669	-36.3374	25.4477	-0.3448	-0.7266	-0.5317
-1.3513	2.4553	10.9671	-21.6089	17.0486	13.6793	0.6614	0.3768	-1.3084	-28.9564	-1.1605	-15.5019	114.6939	8.2242	-92.9079	-0.636	-0.4603	-0.0534	12.3948	7.612	1.5235	-0.2157	-37.6428	11.2243	-0.4001	-0.6943	-0.5491
-2.6345	-0.4214	9.623	-8.3945	13.8967	4.3288	0.6907	0.3866	-1.3513	7.2087	-19.1724	13.9451	-256.6948	338.8005	-141.2027	-0.5965	-0.4579	-0.0829	10.6885	7.7914	1.7919	17.0111	-32.6338	-8.8808	-0.3445	-0.7113	-0.517
-2.3683	1.1827	8.6688	-18.5444	11.9847	6.167	0.6736	0.4107	-1.2908	-3.8255	-3.4147	37.5618	-25.3239	328.8562	-147.3104	-0.5947	-0.4362	-0.17	9.925	6.167	1.7707	24.2735	-21.8352	-21.4879	-0.3584	-0.7123	-0.5015
-3.1606	0.7256	9.1061	-24.8624	9.0497	2.212	0.6751	0.4075	-1.3297	3.8857	-6.3189	18.4724	119.3324	212.151	-202.502	-0.5673	-0.446	-0.2413	10.2184	5.4687	1.5935	24.2819	-14.4624	-30.5679	-0.3724	-0.7109	-0.5326
-2.7377	-0.5912	10.1885	-23.6156	7.989	1.3939	0.6472	0.3772	-1.308	-2.2598	-2.5982	8.5524	53.5398	178.6594	-205.6924	-0.5548	-0.4929	-0.2243	9.9039	4.8258	0.447	23.5453	-11.1809	-34.6447	-0.3591	-0.7601	-0.5145
-2.8066	0.0957	9.6218	-19.6179	9.0969	2.9031	0.7186	0.3823	-1.3379	-7.0843	-0.7296	9.1321	31.7755	208.2414	-181.7487	-0.5678	-0.5379	-0.2353	9.4231	4.302	-0.1032	25.5018	-9.5547	-34.4762	-0.3864	-0.7468	-0.4689
-2.4134	-0.2509	9.2302	-20.383	3.9202	3.7412	0.645	0.4079	-1.2761	-9.2841	-0.6133	8.5198	36.4924	229.0802	-132.6595	-0.5282	-0.5804	-0.2762	8.5945	4.3614	-0.2381	26.5428	-8.0088	-26.8485	-0.4	-0.7138	-0.4862
-2.5173	0.4983	9.7996	-14.5074	3.1926	2.5471	0.6873	0.4068	-1.2771	-7.9169	-2.5882	7.6976	54.0743	251.9208	-103.0766	-0.4757	-0.5933	-0.305	8.1773	4.2452	-0.486	26.5013	-5.7431	-15.2472	-0.3729	-0.7611	-0.4991
-1.9386	-0.2476	10.0919	-14.4996	4.2968	2.749	0.6747	0.4212	-1.3331	-6.6967	-1.8037	5.6292	43.6107	255.4592	-69.6995	-0.4627	-0.6381	-0.3166	8.2869	4.5336	-0.9019	23.7939	-1.8116	-2.9708	-0.4005	-0.764	-0.4526
-1.5901	0.5575	10.3862	-17.4772	10.9051	-1.1832	0.7026	0.3997	-1.3022	-4.9448	-1.8083	4.1374	23.0498	251.807	-37.7871	-0.4234	-0.6215	-0.3328	8.223	3.8354	-1.2654	22.3048	2.0258	1.0811	-0.3586	-0.7464	-0.4688
-2.3438	-0.4206	9.8559	-15.0183	16.348	-0.4271	0.6877	0.4103	-1.2912	-3.7145	-1.0211	5.2396	-14.7253	247.4011	-8.2678	-0.4092	-0.6171	-0.3904	7.6861	3.4286	-1.6365	20.4131	4.7718	-4.8237	-0.4	-0.7324	-0.4388
-3.3182	-0.3627	9.7804	-14.3174	17.714	4.0705	0.7026	0.3824	-1.2847	-2.6907	-0.6268	7.4128	-23.4202	245.9204	14.1534	-0.4211	-0.6282	-0.4466	7.9769	2.904	-1.9327	17.6043	6.7508	-13.7772	-0.3869	-0.7791	-0.4672
-2.8031	-0.1908	9.7911	-9.2186	17.5497	7.0892	0.6594	0.4283	-1.308	-2.6198	-0.6264	8.037	-21.6405	249.0422	31.9129	-0.382	-0.6423	-0.4607	7.3261	2.6726	-2.0656	12.5727	8.7924	-17.7108	-0.3866	-0.7451	-0.5
-2.4072	0.3824	9.5739	-6.1272	16.1052	8.3448	0.6755	0.3764	-1.3087	-1.3299	-0.9095	9.1395	-13.6127	254.7557	44.6476	-0.3679	-0.6532	-0.5174	6.9789	3.0236	-1.6514	4.906	9.3028	-16.4632	-0.373	-0.7781	-0.4827
-2.6947	0.6121	9.5125	-0.4292	16.4213	7.1989	0.7159	0.4268	-1.3094	-0.812	-1.4175	9.0933	-11.4699	256.2982	51.725	-0.3542	-0.6357	-0.5474	6.2754	2.9101	-1.4255	-3.1127	8.2256	-9.7058	-0.3451	-0.7607	-0.4989
-2.9714	-0.3048	9.9579	2.8747	16.9238	4.8976	0.7156	0.406	-1.2778	0.7568	-1.4762	9.8056	-14.0242	255.0714	56.4896	-0.3534	-0.6478	-0.5894	6.3358	3.2589	-1.3031	-9.1838	6.9286	-1.7317	-0.4287	-0.7976	-0.4356
-3.046	0.5532	9.1076	3.4208	18.2259	1.4211	0.7015	0.3891	-1.26	2.3787	-1.0281	10.3496	-17.4145	258.2622	58.2452	-0.3264	-0.5985	-0.636	7.5154	3.5466	-1.2798	-11.4916	6.6321	-0.4688	-0.3867	-0.763	-0.4681
-1.6268	1.9284	8.5727	-4.752	17.2189	5.5683	0.6862	0.4481	-1.2874	2.614	-1.141	10.5809	-23.0616	263.4648	56.9359	-0.3129	-0.6116	-0.664	6.9138	2.79	-2.0129	-13.4003	3.9772	-1.7329	-0.3456	-0.7914	-0.5283
-3.5973	-1.0504	10.113	0.9784	18.9018	-4.9706	0.7301	0.3919	-1.2747	-2.5651	-1.4129	10.5285	-20.6114	267.0496	61.2284	-0.2725	-0.5458	-0.7263	7.1499	2.7895	-2.0085	-12.1093	1.8126	-4.9363	-0.3725	-0.7466	-0.4689
-3.2047	0.9583	9.7882	-0.3887	14.9744	-3.405	0.7579	0.3876	-1.2614	5.7247	-2.2734	10.6452	-41.1566	265.4551	45.1328	-0.2592	-0.6048	-0.7512	8.1625	2.5568	-1.5115	-10.2637	1.6689	-11.1156	-0.3588	-0.7447	-0.4998
-2.9745	-0.6502	9.7859	14.8106	16.3379	1.8176	0.7297	0.4402	-1.3131	4.6804	-1.5934	13.0017	-46.0231	267.7213	30.8153	-0.2584	-0.5567	-0.7829	8.5678	2.6122	-1.9229	-8.3988	0.4916	-17.9009	-0.3723	-0.7125	-0.5016
-3.3083	-0.1882	10.2928	9.8376	17.7838	5.0755	0.7011	0.4202	-1.2809	6.1761	-1.7089	12.9764	-44.1388	279.1207	23.2538	-0.2313	-0.5676	-0.8399	8.15	2.2635	-2.2317	-6.4219	-1.8436	-25.0779	-0.359	-0.7609	-0.499
-2.9259	-0.9968	9.3307	18.9627	19.0732	8.9342	0.7442	0.4261	-1.3101	6.1295	-2.3844	13.4277	-40.6029	293.8024	12.9518	-0.1792	-0.5816	-0.8543	7.8118	2.5003	-1.3387	-5.924	-3.9066	-32.4644	-0.3864	-0.7289	-0.5008
-3.2083	-0.1915	9.5559	6.4949	17.6232	12.4424	0.73	0.4265	-1.3097	6.4952	-2.4993	11.6803	-49.9036	304.9476	3.5909	-0.1656	-0.5793	-0.8833	7.5238	2.7931	-0.9236	-5.034	-6.1031	-35.6654	-0.3725	-0.7466	-0.4689
-2.5925	0.7243	8.8898	7.4766	18.8454	10.7729	0.7301	0.3746	-1.2573	5.5296	-2.328	12.2829	-77.7336	307.5654	-1.3687	-0.1374	-0.5257	-0.9873	7.2405	2.4478	-0.3315	-2.8812	-6.2988	-30.7835	-0.3317	-0.7912	-0.5282
-2.7663	0.4367	8.7715	-1.4583	16.7546	9.9059	0.7579	0.4049	-1.2789	6.8773	-0.8085	13.5581	-96.4561	312.8239	0.6724	-0.0851	-0.5692	-1.0141	6.9	2.2773	0.38	-2.959	-4.2092	-19.915	-0.4008	-0.7785	-0.4828
-3.0302	0.3268	9.9026	-17.28	18.9527	4.7432	0.7297	0.4056	-1.2782	9.5603	-0.136	15.3134	-111.6779	319.3192	7.5688	-0.0576	-0.5484	-1.0874	6.7312	1.5823	0.7332	-5.5406	-2.6754	-9.4006	-0.3316	-0.7929	-0.4972
-3.3712	0.7422	12.9665	-38.9991	24.0062	0.1344	0.7572	0.4324	-1.2857	12.1736	0.536	16.5012	-118.0949	320.6145	12.355	0.0084	-0.4835	-1.1359	6.9101	1.7566	0.8571	-7.1233	-1.7544	-1.3921	-0.3313	-0.7775	-0.4825
-3.7785	1.443	15.5758	-40.8098	52.6388	0.237	0.7442	0.3915	-1.2751	17.0777	1.0906	17.1708	-126.3913	319.7005	14.4048	0.0614	-0.4494	-1.182	7.6859	1.8149	1.3509	-3.6188	-0.6597	6.3531	-0.4011	-0.7939	-0.4975
-2.7407	1.3739	13.0383	-24.9069	75.0953	-6.2521	0.772	0.4045	-1.2792	23.3608	2.3186	17.8134	-131.556	316.803	12.2445	0.1921	-0.4301	-1.2288	8.6462	2.0488	2.2681	2.2079	1.7291	13.9925	-0.3733	-0.8122	-0.45
-2.7527	0.9691	12.4112	-35.5174	89.1806	-14.3961	0.7713	0.4148	-1.2686	43.8686	-1.0382	24.0158	-88.8895	326.5919	-82.9065	0.2446	-0.4276	-1.2586	8.0064	2.7496	2.858	0.7193	2.706	16.622	-0.3729	-0.7611	-0.4991
-2.3769	2.5845	14.1302	-51.399	103.2957	-21.9727	0.7568	0.4116	-1.2541	44.3728	5.0326	10.4443	-6.9287	165.403	-13.8869	0.3496	-0.3023	-1.2976	7.3488	3.0398	2.4278	-0.3092	-0.04	18.5645	-0.387	-0.7775	-0.4983
-2.6627	1.9528	14.122	-41.8882	129.5523	-38.7809	0.7988	0.407	-1.2411	46.5433	9.4783	10.0975	-53.4917	111.3015	-15.5726	0.4135	-0.3205	-1.2549	6.9346	3.5053	2.4221	-1.3492	0.6235	19.1154	-0.3727	-0.7627	-0.468
-2.3204	2.0098	14.0721	-54.5008	150.7242	-52.6034	0.798	0.4172	-1.2304	50.6602	8.1737	8.7675	9.7226	47.3779	-6.4162	0.4518	-0.3377	-1.226	7.6918	4.0243	1.9593	2.2964	7.6775	21.5139	-0.3727	-0.7449	-0.4999
-3.4101	0.8736	16.8308	-67.7417	174.7574	-59.1383	0.8537	0.4605	-1.2562	52.1762	9.2397	7.1018	39.3511	-20.3572	14.9455	0.5429	-0.2759	-1.232	9.0176	5.2924	0.4325	3.8307	16.7396	18.3472	-0.3728	-0.7619	-0.4835
-4.1596	-0.1486	19.4261	-73.6338	209.0911	-61.2317	0.8378	0.4087	-1.1504	56.9094	19.2049	11.3995	67.7885	-138.4583	55.6929	0.5171	-0.2454	-1.2334	12.5114	5.6805	-2.0158	1.688	24.5959	21.0991	-0.3863	-0.7111	-0.5327
-3.2866	-1.2952	20.1202	-89.7669	249.8837	-58.0365	0.8789	0.4835	-1.1967	45.5004	24.3523	11.1078	146.5056	-254.9839	123.7585	0.5161	-0.3242	-1.1997	10.6304	4.6272	-4.9898	-0.783	9.5631	36.3119	-0.3448	-0.7453	-0.4842
-4.5206	-3.5743	24.2352	-116.5418	295.3826	-38.9049	0.879	0.4662	-1.1792	21.1577	5.2373	1.1251	228.2568	-185.3648	125.2868	0.4262	-0.3215	-1.2408	10.0351	6.3706	-5.0533	2.0316	15.1004	57.9525	-0.3586	-0.7285	-0.5007
-3.6862	-5.7509	25.8335	-111.2778	354.7576	-13.0781	0.9187	0.4749	-1.1167	-0.3732	-6.0339	13.0615	121.2332	-90.392	53.7471	0.4252	-0.3554	-1.1958	8.3367	6.4355	-4.3661	10.0268	19.4309	59.0342	-0.4006	-0.7437	-0.5311
-2.8533	-5.0428	30.3991	-98.0212	396.6419	14.7065	0.9454	0.4774	-1.0786	-5.7574	5.4156	17.9405	72.5652	-117.8477	24.1769	0.3857	-0.4628	-1.1879	7.6483	5.047	-3.4866	17.6991	28.9336	33.1565	-0.4142	-0.7107	-0.5484
0.2101	-1.9939	32.0628	-12.8777	433.1918	27.506	0.987	0.5038	-1.0865	-0.5353	7.5388	9.3901	33.1969	-186.3873	-13.5298	0.3469	-0.4324	-1.1891	8.337	4.5896	-1.3798	4.3656	35.5082	-6.6848	-0.3586	-0.709	-0.5636
-3.4472	-3.5782	23.5173	97.0966	458.0564	36.1489	1.0558	0.4324	-0.9654	-0.7909	0.1607	10.2275	14.0751	-259.4035	-64.2079	0.3206	-0.4489	-1.1732	8.3488	6.626	-0.4725	-9.6515	40.2145	-16.9246	-0.4003	-0.7291	-0.5009
-1.078	-3.1979	18.8481	50.0838	461.3402	41.2128	1.0837	0.4281	-0.952	29.3279	-14.2018	12.8289	-192.6817	-140.0447	-6.0067	0.295	-0.4929	-1.1983	9.8937	5.9275	0.0324	-7.8179	39.9718	30.8729	-0.3725	-0.7287	-0.5007
-0.2708	2.3304	22.2969	26.1854	442.1138	41.3366	1.1807	0.3905	-0.8666	-8.0444	-5.6306	6.843	-47.3517	-13.7497	3.8123	0.282	-0.4481	-1.1867	12.6159	5.5162	0.4407	-0.5891	33.9079	81.3576	-0.4008	-0.7607	-0.5147
-1.2062	7.7521	27.3594	78.2197	407.2892	38.0445	1.2093	0.3414	-0.8289	7.3233	6.2835	8.1387	80.6553	-16.5636	16.8046	0.2684	-0.4503	-1.1577	14.3854	6.4417	0.5376	-5.4129	33.7995	90.1837	-0.386	-0.6957	-0.518
-6.335	-1.9031	25.1731	206.9638	416.0234	-11.1876	1.2209	0.3163	-0.7307	2.992	5.1057	4.5932	-14.696	-27.7024	-17.3246	0.2559	-0.4636	-1.1851	15.3273	6.4971	0.4356	-7.7278	33.8412	61.6595	-0.4139	-0.6774	-0.5656
4.8512	-13.1716	11.4197	1.3866	474.0162	-3.5174	1.2487	0.2948	-0.6998	2.1115	2.4636	8.9317	-48.9998	-8.3892	-7.9428	0.2561	-0.4931	-1.1975	12.9479	6.4983	-0.6268	-10.5506	34.0541	13.426	-0.3727	-0.7262	-0.5473
56.8734	0.8767	-11.4916	-59.0886	300.9971	-4.3196	1.261	0.2768	-0.6298	4.6354	-4.3532	13.338	-27.0501	-0.7998	8.89	0.2686	-0.4799	-1.1701	11.9869	6.6129	-1.5425	-11.2694	32.5626	-14.1931	-0.4138	-0.6783	-0.55
16.9502	1.1317	-13.1195	-118.7163	-76.6177	114.7978	1.2736	0.2623	-0.5738	2.9513	1.5597	7.7597	4.7034	-9.6782	-6.6793	0.2692	-0.4624	-1.1998	11.0927	5.7413	-2.1618	-15.1289	29.9752	-22.6925	-0.3996	-0.644	-0.5827
3.7288	-5.163	30.413	-147.0409	-272.9412	146.0451	1.3149	0.2852	-0.5676	3.6846	0.2081	9.6421	-26.4171	-6.0175	-7.9319	0.2297	-0.4648	-1.1702	11.3243	5.7398	-2.397	-20.4797	27.4109	-22.1109	-0.3856	-0.6446	-0.5671
9.6778	5.7146	36.5418	44.5744	-181.2891	118.3294	1.316	0.2611	-0.5749	3.6442	-1.1995	10.3194	-8.6416	-2.9157	-11.7094	0.3081	-0.4622	-1.2006	11.5638	5.6819	-2.2132	-20.9649	19.8102	-20.9117	-0.3858	-0.6608	-0.5663
11.6905	-2.5224	4.5507	235.73	-101.9407	96.0503	1.3331	0.2717	-0.6704	3.0038	0.0408	10.0806	-11.535	-6.4821	-6.4757	0.2822	-0.4624	-1.2	11.2111	5.1019	-2.2222	-20.103	10.1799	-24.1079	-0.4	-0.6764	-0.581
10.3772	-5.5455	-4.1827	65.4414	-122.7566	72.2938	1.3075	0.2452	-0.7157	3.3501	-0.4105	10.0875	-9.1964	-9.6113	-6.3816	0.2565	-0.4767	-1.2128	10.7533	4.6414	-1.5141	-17.3286	2.6355	-30.1321	-0.386	-0.6584	-0.6129
10.6073	0.237	4.8822	-45.558	-158.4522	28.8355	1.3205	0.2689	-0.7088	3.7397	0.2079	9.5301	-3.9739	-9.51	-7.0546	0.2955	-0.4612	-1.2147	10.2305	4.3539	-1.1059	-14.0305	0.2515	-38.0463	-0.3864	-0.6916	-0.5957
10.0002	-0.9516	8.9004	-33.2863	-192.0971	-15.2622	1.3216	0.2622	-0.7336	2.8768	0.5475	9.5689	-2.7573	-5.9517	-4.8911	0.2563	-0.4472	-1.2005	10.0025	4.182	-0.6917	-10.5913	-0.1133	-40.043	-0.3581	-0.6596	-0.5817
8.2759	1.4735	11.5481	-19.1879	-217.3515	-44.7914	1.2804	0.2739	-0.7747	3.6354	-0.3548	9.9803	-4.882	-5.3404	-4.0236	0.2556	-0.48	-1.1698	9.9365	3.89	-1.1134	-6.8958	-0.1193	-35.2289	-0.428	-0.6938	-0.5648
6.0645	0.0886	9.6238	19.6471	-234.8549	-69.6689	1.2681	0.2919	-0.8448	3.5895	-1.4246	10.4313	1.3506	-8.8143	-9.3246	0.2301	-0.4331	-1.1866	9.7655	4.5891	-0.6944	-4.5592	-0.6228	-30.1017	-0.3449	-0.7063	-0.6101
4.1683	-1.3478	9.1831	10.7869	-257.1297	-81.4495	1.2547	0.3339	-0.9076	3.1749	0.2657	10.0278	6.4937	-12.7162	-12.2571	0.2696	-0.446	-1.2151	9.64	3.5417	-1.2402	-1.529	-0.504	-28.7077	-0.3722	-0.676	-0.5809
1.5435	-1.2865	9.5869	14.4881	-271.4272	-83.5334	1.2414	0.2895	-0.8829	3.391	0.7154	9.41	4.5655	-15.9463	-9.732	0.2814	-0.4502	-1.158	9.005	3.1397	-0.5352	1.3383	0.1896	-29.7297	-0.3723	-0.693	-0.5645
-0.6211	-2.7763	10.05	10.7324	-284.9378	-74.0464	1.2291	0.3421	-0.9879	3.104	-0.3544	9.3464	-1.5349	-14.5625	-8.0893	0.2554	-0.4504	-1.1574	8.2375	3.2576	-0.549	4.55	1.4336	-30.6028	-0.415	-0.7567	-0.5924
-2.5977	-2.022	11.4355	13.8669	-294.1927	-57.1783	1.158	0.4442	-1.077	3.925	-0.6933	10.0427	-1.1583	-11.9041	-10.6213	0.2688	-0.4788	-1.1844	8.1836	3.4332	-0.2498	7.3694	1.6942	-34.1281	-0.4283	-0.7084	-0.595
-4.1824	-1.27	12.374	23.2587	-300.3285	-36.0462	1.1038	0.4496	-1.1426	3.7485	-0.5805	9.8692	3.1407	-11.9399	-15.5814	0.2565	-0.4614	-1.2138	7.652	3.1438	-0.3208	10.2805	0.963	-36.3656	-0.3588	-0.7074	-0.5947
-4.8614	-1.6125	12.7571	29.2832	-300.7514	-15.3357	1.0763	0.4747	-1.1875	3.5064	-0.0735	9.3551	4.2887	-11.6988	-17.3969	0.2559	-0.4636	-1.1851	7.0134	2.8571	0.205	13.0865	-0.6106	-34.0767	-0.373	-0.7416	-0.562
-4.7484	-1.1533	12.7044	34.668	-298.7758	2.561	0.9648	0.4745	-1.2236	3.1035	0.5469	9.4038	-0.8441	-11.9876	-16.0166	0.2821	-0.4777	-1.199	6.4817	3.0906	0.1961	15.8811	-0.6375	-30.5117	-0.4008	-0.742	-0.5622
-4.2458	-0.467	12.092	35.4113	-293.8024	12.0235	0.9224	0.5275	-1.275	3.5214	0.3214	10.0917	-0.0516	-15.0002	-13.3332	0.2563	-0.4472	-1.2005	6.4186	2.9736	-0.0452	16.8832	0.0197	-28.6546	-0.3586	-0.709	-0.5636
-3.7021	0.2856	13.5833	34.5486	-284.2248	11.0162	0.8682	0.5329	-1.3406	3.7507	-0.4677	9.9826	0.5093	-19.3555	-12.1121	0.23	-0.4637	-1.1846	6.7156	2.6247	0.0188	16.8483	0.9621	-25.145	-0.3589	-0.7244	-0.5783
-3.353	0.2291	13.874	45.9925	-270.1397	0.1411	0.7831	0.5316	-1.3244	3.6704	0.0385	8.9623	2.0369	-20.7424	-12.772	0.256	-0.5085	-1.1965	6.4236	1.7545	0.0695	15.9833	2.3317	-21.8177	-0.3728	-0.7254	-0.5629
-3.5973	-0.1762	13.0719	49.9528	-257.8922	-17.3064	0.7418	0.5606	-1.3831	3.7379	0.5458	9.4737	-0.1085	-19.535	-13.9948	0.2164	-0.4813	-1.1546	6.4115	2.2166	-0.5276	14.1767	2.86	-20.2858	-0.3453	-0.7582	-0.5455
-2.9044	-0.5201	13.3681	47.9385	-248.7489	-37.5496	0.6562	0.6596	-1.4578	3.9736	-0.4121	9.6477	-1.4541	-18.65	-15.9601	0.2427	-0.4647	-1.1705	6.0009	2.1019	-0.416	10.3401	3.2161	-17.5845	-0.3456	-0.7549	-0.6076
-3.356	-1.7248	13.6384	48.8033	-238.8692	-59.1722	0.6559	0.6215	-1.4087	3.9169	-0.243	9.7032	-8.5899	-21.2447	-17.5638	0.2171	-0.4485	-1.1853	5.9386	2.1013	-0.5968	4.8183	3.701	-13.1357	-0.3593	-0.7576	-0.5611
-3.8747	-3.1615	13.3949	38.5214	-230.5012	-76.8934	0.5738	0.6484	-1.5051	3.983	-0.9187	10.0437	-8.9746	-24.7191	-16.9204	0.2175	-0.477	-1.212	6.409	1.8674	-0.7088	0.5649	3.7172	-7.2833	-0.3314	-0.7393	-0.5929
-5.5192	-3.6739	14.1564	20.5302	-237.0113	-90.7241	0.5292	0.6457	-1.4371	3.6985	-0.1294	10.2649	-12.681	-31.9151	-16.3784	0.2554	-0.4504	-1.1574	5.9304	1.3441	-1.1392	-1.5906	3.8005	-1.2858	-0.3731	-0.7399	-0.5931
-7.5208	-5.2805	14.1675	11.4766	-260.4766	-95.3138	0.4876	0.6539	-1.4642	3.4683	-0.7486	10.2029	-10.9536	-37.1552	-18.3712	0.2689	-0.4635	-1.1854	5.7414	1.2837	-1.8017	-3.5734	4.1254	2.1123	-0.3461	-0.8051	-0.5741
-10.0189	-5.2167	15.199	-6.4769	-296.4615	-90.5994	0.4162	0.7006	-1.4868	4.3692	-1.5962	9.202	-19.2682	-44.8927	-19.1022	0.2166	-0.4802	-1.169	5.6198	1.8642	-1.9213	-5.8571	4.2764	1.5086	-0.3594	-0.7559	-0.5922
-11.3137	-6.4749	16.2483	0.1206	-323.9279	-75.7229	0.3731	0.7119	-1.4751	4.1368	-1.1452	9.1409	-28.7118	-49.0289	-19.3359	0.204	-0.4639	-1.184	5.3756	1.5724	-2.4062	-10.2558	5.3586	1.825	-0.3591	-0.7406	-0.5775
-14.9239	-6.7027	16.0066	12.3426	-329.3543	-45.5046	0.3315	0.6509	-1.4322	3.556	-0.3556	8.9596	-31.876	-52.0448	-14.5285	0.2169	-0.4791	-1.1833	6.5623	1.6874	-2.0242	-17.6312	6.9628	3.8918	-0.3871	-0.7393	-0.6087
-20.2348	-10.3153	16.4564	11.7619	-319.6058	0.9394	0.2754	0.6732	-1.4624	2.156	0.9467	13.5737	-74.5252	-53.1338	-15.221	0.2038	-0.4496	-1.1707	6.6792	1.6868	-2.0819	-26.4453	9.7569	11.6738	-0.3588	-0.726	-0.5473
-27.9894	-9.2811	15.0596	-34.476	-294.1018	55.8207	0.262	0.6634	-1.4727	5.147	4.9431	16.584	-4.6663	-82.2962	-21.7126	0.2044	-0.4475	-1.1994	6.5044	1.2229	-2.0273	-38.0352	10.8983	21.5529	-0.3452	-0.7217	-0.6248
-45.975	-7.4639	20.23	87.346	-234.2764	134.385	0.1765	0.6586	-1.4425	2.5197	0.3787	8.9951	3.5369	-92.7663	-18.4807	0.191	-0.4191	-1.1724	7.145	1.5681	-2.4331	-39.4838	10.2749	28.1029	-0.4009	-0.7404	-0.5932
-25.9932	-18.5385	-0.2848	53.9897	-174.0787	139.9622	0.1475	0.6696	-1.4311	3.6781	1.9566	12.1912	-50.3589	-100.5233	-6.5785	0.1779	-0.4345	-1.1711	6.924	1.7464	-1.598	-36.4732	10.3402	31.699	-0.3586	-0.709	-0.5636
-31.9258	-6.8996	7.0368	-25.6034	-136.5153	201.1852	0.0915	0.64	-1.4088	3.8932	1.9016	14.1771	-32.4633	-116.638	-3.6415	0.1256	-0.4665	-1.1537	7.7531	1.9194	-1.4022	-33.2636	8.448	29.4342	-0.3449	-0.7063	-0.6101
-35.2904	-3.8493	7.7799	-11.424	-78.1463	236.1801	0.0922	0.6297	-1.4195	3.527	1.3944	13.1499	-24.5521	-135.4677	0.6787	0.1264	-0.4184	-1.1854	7.9385	2.0952	-0.9189	-27.2001	5.5045	26.2776	-0.4146	-0.7244	-0.5941
-34.8386	2.0338	13.5533	3.0316	-19.2503	239.9728	0.0915	0.6227	-1.3913	4.08	0.8314	14.7463	-34.7407	-151.4983	6.0911	0.0993	-0.4228	-1.1274	8.3017	2.4451	-0.3716	-23.532	2.5382	30.4359	-0.3869	-0.7223	-0.625
-33.5261	12.8575	19.6485	76.5099	75.4477	182.6442	0.1334	0.6526	-1.4133	4.8546	1.0564	16.0082	-22.8649	-172.0258	9.5962	0.1004	-0.3736	-1.1735	9.3323	3.9597	1.3309	-19.7105	-1.823	36.4348	-0.3867	-0.7061	-0.6259
-42.7532	32.9498	28.5898	228.1598	245.062	34.0227	0.1491	0.5972	-1.4	5.7835	0.0973	16.31	-13.6107	-199.6381	11.3333	0.0345	-0.4079	-1.1271	9.9261	8.5496	2.1402	-8.889	-3.764	50.4076	-0.3723	-0.6565	-0.6438
0.9095	27.2114	-15.7653	359.2971	377.4162	-119.2673	0.1792	0.5622	-1.4186	5.7499	-1.0847	17.3273	-15.1357	-227.1437	12.662	0.0085	-0.408	-1.1265	11.7941	8.554	4.2711	-8.0697	-7.9691	87.6708	-0.358	-0.6418	-0.6136
-6.8411	10.5287	17.373	85.9266	222.1212	-78.0775	0.267	0.5017	-1.4458	6.5366	-0.6315	21.8733	-30.4671	-261.913	12.4277	-0.0048	-0.3643	-1.1006	13.0735	6.9332	6.2642	-23.7461	-27.7532	96.7225	-0.3866	-0.7078	-0.5948
-8.0719	-5.4229	21.0895	3.0205	127.5533	-142.1042	0.3243	0.438	-1.4054	5.0044	-0.5691	25.5777	5.1453	-308.8569	8.3834	-0.0828	-0.38	-1.0979	12.3558	5.8287	5.5873	-9.1758	-35.0294	60.0672	-0.4276	-0.6428	-0.6139
-5.2719	8.4146	6.8242	-17.9075	170.4702	-85.9521	0.2964	0.4596	-1.4363	4.4926	-2.5959	25.6784	40.5455	-350.7702	-1.4684	-0.1488	-0.4449	-1.0495	11.248	3.6129	2.8024	12.6256	-33.9679	-2.624	-0.4134	-0.6264	-0.6147
10.0688	4.4013	-1.9872	-104.2532	213.7331	-49.7785	0.3254	0.4659	-1.4651	2.6838	-4.1685	27.0544	52.1481	-393.3942	-6.9377	-0.1887	-0.4035	-0.9942	9.695	2.1595	1.5695	23.3986	-29.6219	-34.77	-0.3855	-0.609	-0.6309
-0.3139	3.1005	14.2862	-162.4376	238.361	-73.4777	0.3811	0.4746	-1.4558	2.503	-4.3938	26.6541	81.2991	-433.5748	-19.7978	-0.2278	-0.3741	-0.9811	8.8679	4.2397	-1.4313	19.9384	-27.3865	-39.1985	-0.3858	-0.6422	-0.6137
-6.6492	-8.8729	20.5343	-44.677	230.0053	-52.2008	0.3811	0.5092	-1.4908	0.943	-4.7879	23.6205	106.5888	-459.0537	-32.8847	-0.2944	-0.3809	-0.8936	9.4697	6.6099	-3.6855	13.8341	-32.0602	-21.0957	-0.4276	-0.642	-0.6294
-14.9768	-20.8844	3.9546	-58.257	60.089	-43.2684	0.4078	0.529	-1.4702	7.8154	-0.8024	22.4662	99.2388	-457.1215	-37.0638	-0.3477	-0.4161	-0.8331	10.8036	7.7055	-4.7937	11.6179	-38.1606	38.7877	-0.3577	-0.6264	-0.5989
-0.8599	9.9059	7.1436	18.8723	25.1187	15.1045	0.4223	0.4802	-1.4321	7.2049	-0.9154	20.8115	131.247	-441.9666	-49.6495	-0.3884	-0.4381	-0.7452	9.8	5.9646	-5.0595	10.6809	-43.7983	83.951	-0.3994	-0.6278	-0.5835
-4.0278	5.1931	5.9255	-2.6395	13.0625	-3.767	0.4509	0.5003	-1.4644	5.104	-3.2811	16.5192	115.1419	-402.8669	-57.3508	-0.4168	-0.5071	-0.6401	9.1206	6.3794	-3.4534	-0.9868	-49.8547	62.3405	-0.4139	-0.6774	-0.5656
-2.34	-4.9709	6.9385	-22.0611	9.7005	27.2374	0.4491	0.5173	-1.429	3.8423	0.5523	17.0622	137.288	-329.6855	-63.5425	-0.4311	-0.5421	-0.5805	11.6847	6.8444	-1.9065	-2.0385	-50.2447	28.6842	-0.3714	-0.6112	-0.5842
-1.5609	3.264	11.9894	-36.3016	-0.5974	16.1333	0.4513	0.4865	-1.461	4.0863	2.6344	15.2009	269.3867	-262.6991	-49.7633	-0.4707	-0.5149	-0.5386	12.778	6.2679	-0.2717	7.1363	-47.41	44.5653	-0.3851	-0.5952	-0.5851
-3.1966	-2.4869	10.058	18.4827	5.7813	1.8808	0.4075	0.5081	-1.4386	23.1008	-13.5098	17.6807	226.9497	-214.2114	-71.8487	-0.4597	-0.5672	-0.4498	12.9366	5.4051	1.8236	15.563	-39.9646	57.8913	-0.412	-0.5496	-0.5412
-2.3118	2.1591	8.674	-12.8763	8.3869	11.3361	0.4792	0.4996	-1.4651	-25.4755	-20.5285	2.9537	-70.7913	-313.3392	-12.901	-0.4746	-0.6043	-0.3614	12.4235	5.236	2.7714	23.3318	-26.8678	33.1273	-0.4125	-0.5819	-0.5395
-2.5279	1.3578	9.2915	-9.9998	3.0827	3.2376	0.4353	0.5212	-1.4427	-22.1888	11.832	-23.4442	145.9116	-39.5339	-114.7785	-0.5003	-0.5432	-0.3648	11.1161	5.818	2.3304	35.9714	-15.4327	-0.7188	-0.4266	-0.5975	-0.5543
-2.9849	-0.1928	9.2761	-9.945	1.5367	4.071	0.4498	0.507	-1.4397	-0.7357	-16.9089	8.5718	-255.6213	244.5197	-105.0328	-0.4625	-0.5921	-0.3196	10.8848	4.7156	2.4411	40.9155	-7.5239	-21.4637	-0.3985	-0.5826	-0.5239
-2.2485	1.5284	8.9567	-14.8734	3.2796	2.8562	0.3945	0.5018	-1.463	-4.7147	6.4914	26.4555	-68.3168	195.9173	-101.7908	-0.4621	-0.5758	-0.335	10.693	4.4222	1.5978	40.6895	-1.572	-26.2582	-0.4127	-0.5973	-0.5542
-2.9727	-0.0178	9.9022	-23.0354	3.3294	0.5498	0.4212	0.4696	-1.3899	-3.4349	-7.2164	6.995	109.8737	159.381	-108.237	-0.3961	-0.5864	-0.3927	9.8462	3.7803	0.3816	36.7273	3.1095	-18.9018	-0.4127	-0.5973	-0.5542
-2.9187	-0.2484	9.7318	-20.8307	1.8748	2.3292	0.4632	0.5342	-1.4469	-6.5283	-4.8486	2.4596	-38.7996	165.8115	-96.3954	-0.4096	-0.6335	-0.3751	10.0124	4.1842	-0.1526	30.719	3.5509	-7.4529	-0.3986	-0.6182	-0.4602
-2.7506	0.2677	9.5668	-17.0123	-0.8553	3.4085	0.4513	0.5038	-1.4785	-5.8316	-0.5072	8.5358	-8.0274	167.7688	-78.3199	-0.3958	-0.6302	-0.4184	11.0637	4.1793	-0.7318	25.3108	2.657	-2.7225	-0.4268	-0.5959	-0.5854
-2.6327	0.2109	9.7393	-20.513	-2.6683	4.6465	0.4349	0.5349	-1.4462	-6.2395	-1.9737	5.4688	-15.6017	174.4912	-52.9217	-0.37	-0.6607	-0.417	10.9374	3.9453	-1.2143	22.2164	3.3494	-5.6791	-0.4132	-0.6484	-0.5051
-1.9932	0.6722	10.2652	-20.6456	1.215	3.6673	0.4067	0.5357	-1.4455	-6.735	-1.1268	6.5914	-18.6614	195.9241	-29.6225	-0.3566	-0.6443	-0.4326	10.8775	4.352	-1.2136	21.3505	4.0307	-12.7082	-0.4405	-0.5985	-0.5388
-2.3385	-0.0173	10.1419	-19.0391	5.9123	-0.6158	0.4204	0.5145	-1.4142	-6.5562	-1.1833	6.8782	-6.7978	212.8225	-5.5538	-0.3173	-0.6878	-0.4591	10.0508	3.5984	-1.3521	18.0087	4.0374	-20.4275	-0.426	-0.5676	-0.5094
-2.6707	-0.187	10.703	-14.783	12.3039	-4.1737	0.4498	0.4897	-1.4222	-5.5462	-2.0312	5.5965	-16.0934	226.9106	13.6618	-0.33	-0.6266	-0.4628	9.2139	3.9465	-1.9052	13.1492	3.9929	-23.7099	-0.4128	-0.6151	-0.5223
-2.8511	-0.5909	10.2432	-12.2423	16.2429	-3.565	0.4338	0.5417	-1.4214	-4.3894	-1.7515	5.9041	-34.4825	237.129	26.2038	-0.3169	-0.6561	-0.4755	8.7018	2.848	-1.0211	9.4356	3.2945	-19.5679	-0.4133	-0.6467	-0.5362
-3.1472	-0.9375	9.7245	-10.762	16.1294	-1.0869	0.4178	0.559	-1.3857	-2.3315	-1.5282	7.9857	-46.1276	247.7362	34.3775	-0.2648	-0.6252	-0.4786	8.5264	3.0812	-0.9036	6.6952	2.815	-12.5882	-0.4129	-0.6143	-0.5379
-2.9211	0.0383	9.6193	-6.5694	13.382	1.6778	0.4059	0.5459	-1.4348	-1.1997	-0.5711	9.8786	-40.6754	256.7925	41.1931	-0.2899	-0.6221	-0.5211	8.5836	2.9063	-1.0231	3.2356	2.9419	-8.2978	-0.3714	-0.6299	-0.5368
-2.6998	-0.021	9.2256	-1.8265	11.8614	2.1914	0.3922	0.5671	-1.466	-0.1718	-0.686	9.5037	-32.7587	269.8794	44.9062	-0.2504	-0.6351	-0.5496	8.2912	3.1981	-0.8476	-1.2943	3.8833	-9.2027	-0.3709	-0.617	-0.4755
-2.7512	-0.4218	9.507	0.626	11.9022	2.3077	0.4609	0.5303	-1.3799	0.9228	-1.1387	9.5263	-26.3153	285.9024	45.9651	-0.2235	-0.5562	-0.5839	8.2885	2.907	-1.0286	-5.5878	5.1522	-18.025	-0.3711	-0.6145	-0.5221
-2.5182	0.2109	9.7415	2.9528	12.2333	1.1717	0.4628	0.5134	-1.4153	1.3766	-1.4215	9.1959	-35.2427	300.2536	43.2952	-0.2224	-0.5672	-0.6403	7.9383	2.6762	-0.8565	-7.8393	4.7386	-23.1791	-0.4133	-0.6467	-0.5362
-2.692	-0.0767	9.6233	2.9602	13.9957	0.2496	0.4326	0.5657	-1.4142	2.3572	-1.8176	9.2728	-50.4729	307.0462	37.462	-0.208	-0.5771	-0.7113	7.7667	2.213	-0.6221	-9.888	3.8571	-24.4203	-0.3848	-0.5799	-0.5705
-2.7526	-0.0774	9.4516	5.7236	14.1189	1.3477	0.462	0.5236	-1.4046	2.557	-1.4226	10.5795	-63.8513	304.1819	32.9832	-0.1544	-0.5857	-0.7975	7.6388	2.2111	-1.1635	-10.363	2.7614	-25.1162	-0.3854	-0.6471	-0.5205
-2.7537	-0.1351	9.3945	7.9274	13.3547	1.881	0.4479	0.5413	-1.4218	2.8263	-1.6468	12.3966	-66.0847	295.8256	28.7361	-0.1144	-0.5363	-0.8444	8.0546	2.4432	-0.9751	-7.5956	1.8231	-25.1217	-0.4133	-0.628	-0.5836
-3.4428	-0.3648	9.2665	8.941	12.2575	4.1909	0.4636	0.5031	-1.426	4.5817	-1.3109	13.7925	-65.9028	283.3462	27.7178	-0.0756	-0.5667	-0.8432	7.922	2.5564	-1.7556	-3.8137	1.4221	-26.4474	-0.3998	-0.6789	-0.5345
-2.9196	-0.4209	9.6742	11.4638	11.74	7.4873	0.4487	0.531	-1.4324	5.2151	-0.8051	13.8628	-54.0068	273.7309	27.9091	-0.0598	-0.4661	-0.9643	7.4557	1.9777	-1.5272	-0.3462	1.3419	-29.3319	-0.3988	-0.5979	-0.5386
-2.9677	-0.8785	10.126	15.1234	11.8766	10.4843	0.4617	0.5201	-1.3906	4.7424	-1.368	13.2297	-52.6647	272.6563	31.0133	0.0298	-0.4699	-0.9088	7.4617	1.7466	-1.2287	2.4338	1.4011	-34.1088	-0.3716	-0.6461	-0.536
-3.4324	-0.8222	9.7762	17.374	12.2235	13.3353	0.4201	0.511	-1.4002	4.67	-1.8192	12.4917	-65.796	280.2987	35.2718	0.0447	-0.493	-1.0075	7.2984	1.9825	-0.4522	3.6148	0.9185	-37.319	-0.371	-0.5967	-0.554
-2.758	-0.2509	9.1666	19.4885	11.0126	15.2721	0.4483	0.4929	-1.3834	6.3103	-1.5394	13.8852	-88.1538	288.7857	37.5273	0.1226	-0.4323	-0.9989	7.3792	2.5684	0.8094	-0.1123	0.3703	-35.8668	-0.3855	-0.6641	-0.5042
-2.9472	0.7221	8.3146	13.3319	10.4741	16.8757	0.4766	0.5095	-1.4016	6.2177	-2.6087	14.8447	-101.2514	291.3007	34.7671	0.2138	-0.4154	-1.0161	7.2119	2.1642	1.2836	-2.7188	0.0265	-27.1781	-0.3714	-0.6299	-0.5368
-2.2407	1.5876	9.3549	3.2253	11.3726	9.4063	0.4494	0.5208	-1.4431	7.7679	-0.863	17.5397	-104.4466	292.817	35.427	0.2141	-0.3541	-1.0201	6.9098	1.4079	0.7957	0.1948	1.008	-14.6035	-0.3575	-0.6289	-0.5523
-2.8157	0.3235	9.1679	-0.6885	12.1681	2.7145	0.491	0.5299	-1.4335	9.5361	-1.1487	16.784	-98.3876	288.2927	36.9283	0.3053	-0.3372	-1.0374	7.4554	1.8167	1.646	3.1859	1.7701	-4.4413	-0.3718	-0.6623	-0.5351
-2.5722	0.2691	9.9112	-6.0051	16.2903	0.2207	0.5197	0.4981	-1.4133	15.4948	-2.2877	15.4928	-118.833	281.4865	31.7263	0.3439	-0.2778	-1.0136	7.342	1.7018	1.8829	7.6796	2.1188	4.8013	-0.3442	-0.6772	-0.5497
-2.8048	0.6706	9.7379	-5.135	21.2048	-4.5782	0.4632	0.5169	-1.4294	20.7105	-2.803	17.1871	-156.4994	274.0282	22.6194	0.435	-0.2313	-1.0185	7.8749	0.9456	1.8896	12.9491	2.2093	9.7027	-0.3853	-0.6293	-0.5524
-2.9882	-0.1936	9.1056	-14.1211	20.9917	-5.7212	0.5166	0.5391	-1.3706	29.8314	-3.5514	18.5102	-169.3589	272.5542	7.704	0.4345	-0.2028	-0.9918	7.6827	0.8264	1.0471	18.2053	3.4429	10.5336	-0.3721	-0.6963	-0.5024
-2.1076	0.4425	10.262	-27.1988	23.1846	-6.5987	0.4907	0.5264	-1.4194	38.3916	-0.9767	18.1262	-155.0226	249.2948	-3.1519	0.5247	-0.1596	-0.9537	8.0912	1.8703	0.9395	20.7638	4.6647	8.6234	-0.3857	-0.6625	-0.5352
-2.8857	2.8735	14.4625	-46.5483	28.6574	-9.2756	0.5059	0.5193	-1.4445	47.7305	7.8509	19.7454	-50.6365	245.8986	-92.0015	0.5628	-0.1472	-0.9125	7.54	2.4481	-0.0864	23.5628	4.2225	7.9736	-0.3438	-0.6449	-0.5514
-2.6979	1.3133	12.3001	-14.8491	59.2715	-18.4997	0.5044	0.5398	-1.4232	40.3401	-1.279	-1.1386	43.1047	127.8018	-102.8105	0.6141	-0.1491	-0.8849	8.0533	2.5591	-1.0345	25.8926	4.7572	10.3161	-0.3857	-0.6625	-0.5352
-2.743	0.4992	9.9657	-36.5935	66.7504	-25.7075	0.5044	0.5225	-1.4057	41.2331	-1.1691	-2.4219	-72.0672	72.2012	-118.0963	0.6537	-0.1467	-0.9144	8.6975	2.7889	-1.261	27.5624	5.9066	15.1034	-0.3853	-0.648	-0.505
-4.0964	2.0108	13.9807	-54.956	69.9845	-23.0562	0.5181	0.5359	-1.4094	40.317	4.0743	0.9603	-64.3819	31.5237	-131.1002	0.5993	-0.1709	-0.7975	8.9865	2.5544	-1.616	33.883	8.0803	23.0177	-0.399	-0.632	-0.5059
-3.5956	0.5711	13.1888	-38.382	97.8118	-31.5773	0.4892	0.5296	-1.3806	35.0273	2.6761	1.0179	-69.3087	8.3881	-133.0293	0.652	-0.1225	-0.8303	8.9322	2.4394	-1.3779	34.0106	11.8951	23.9161	-0.3712	-0.6129	-0.5532
-2.9712	0.3396	12.9158	-59.1626	115.5499	-35.5847	0.4891	0.5469	-1.3981	29.3861	10.9186	9.7385	-76.4213	-6.9952	-110.5964	0.6259	-0.1084	-0.8164	9.347	2.6713	-1.2494	27.4679	19.4859	6.4195	-0.3716	-0.6461	-0.536
-3.4597	-1.2628	14.2066	-73.0915	134.2402	-36.8971	0.5743	0.5309	-1.3968	19.1868	17.6483	17.7392	61.1032	-37.9314	-78.8923	0.6652	-0.0765	-0.8336	8.3885	4.0648	-1.8602	26.7969	15.9471	-9.5454	-0.3852	-0.6309	-0.5214
-4.2902	-0.4517	15.6715	-99.6186	162.5592	-36.6055	0.5159	0.5493	-1.36	5.3066	20.9319	6.6373	214.0592	-75.0509	31.9611	0.6131	-0.0625	-0.8192	7.6391	8.7191	-0.2971	19.3149	12.8804	-14.3321	-0.3989	-0.6149	-0.5223
-2.9681	0.008	15.9833	-119.7234	199.2137	-37.7612	0.6289	0.529	-1.3453	-19.3802	72.7316	54.3432	46.6721	-25.3386	196.086	0.6389	-0.1532	-0.8281	8.589	9.5898	0.1436	-5.5573	10.2896	-3.075	-0.3433	-0.5955	-0.5694
-1.5893	2.0887	19.2582	-191.4647	238.0625	-50.8804	0.5838	0.5746	-1.3157	-18.6857	0.5842	4.87	399.1447	-270.0385	123.35	0.6256	-0.1544	-0.8134	13.2793	8.2355	-1.6312	-7.1092	18.6312	44.6685	-0.3861	-0.6949	-0.5335
-2.2219	1.7113	24.9273	-195.1855	287.5273	-46.997	0.6533	0.6141	-1.3277	7.0943	-7.5672	15.0286	181.5991	-259.025	110.2408	0.5995	-0.2005	-0.8099	15.3468	5.0354	-1.9058	11.775	17.6163	48.7324	-0.3855	-0.665	-0.4886
-0.8459	5.2727	25.1964	-130.8764	347.2918	-47.4976	0.6232	0.5972	-1.2566	28.789	5.0601	8.1922	-18.2416	-122.4111	29.4845	0.56	-0.2477	-0.7917	12.396	2.3827	0.9022	23.9252	13.5802	37.9458	-0.3431	-0.5971	-0.5384
-1.2809	0.8294	20.3387	-60.2254	382.1072	-49.4042	0.6941	0.6507	-1.3249	2.5881	-3.3509	-4.3111	73.7304	-113.9696	-31.8903	0.5492	-0.225	-0.8929	9.7186	1.7447	-0.4081	23.634	15.1787	16.3572	-0.3985	-0.5826	-0.5239
-2.5192	-1.2007	15.4754	-78.8158	392.6277	-45.6515	0.7201	0.6115	-1.2236	1.0293	-4.9653	14.1676	-84.1657	-35.0408	22.8391	0.522	-0.2294	-0.8349	8.4635	3.3129	-1.0835	15.0751	21.7676	9.296	-0.3431	-0.5971	-0.5384
-5.5844	-1.0204	16.7805	-84.2565	382.5102	-40.6164	0.7892	0.6301	-1.2041	-0.2633	-2.8185	18.5016	71.1199	-76.5839	44.9954	0.5081	-0.3082	-0.8009	8.3403	6.043	-1.0142	15.9102	27.2722	18.6505	-0.3853	-0.6114	-0.5843
-5.2321	-2.3401	17.1796	-69.9429	371.7693	-40.2496	0.8007	0.6397	-1.1409	0.6237	2.8611	9.3537	78.1491	-84.4902	48.0056	0.4828	-0.2909	-0.8301	9.8096	6.7355	-1.2233	19.4186	31.1584	28.6458	-0.357	-0.5973	-0.5384
-2.2478	-1.3066	17.6398	-66.7722	374.9979	-42.2001	0.8717	0.6067	-1.1217	9.0391	-0.7643	4.3188	52.3683	-63.3008	36.5415	0.4953	-0.2777	-0.8026	10.4512	6.6742	-1.6308	16.8889	31.5311	39.078	-0.3432	-0.5963	-0.5539
-4.9514	2.312	17.091	-36.637	360.1291	-34.0626	0.8725	0.5619	-1.0974	3.0869	3.0203	3.4611	-17.2393	-37.0481	-4.6879	0.4568	-0.3064	-0.8285	11.0751	5.7373	-3.1203	11.0152	28.6851	46.0224	-0.3989	-0.5963	-0.5697
-8.2513	0.6078	20.9409	-10.4463	360.1396	-45.9478	0.8981	0.6056	-1.0695	1.6495	0.3261	11.3545	-33.5038	-20.0717	8.0149	0.4179	-0.3066	-0.8277	12.0754	4.6304	-3.4058	5.7406	25.1818	33.8903	-0.4127	-0.5795	-0.5861
-2.3681	-0.0314	20.3139	-21.5359	384.6039	-37.2659	0.8829	0.5781	-1.0094	3.1472	-0.1837	11.3855	-14.1006	-28.8309	15.8356	0.4701	-0.2899	-0.8441	11.2583	4.5181	-2.9425	-4.3563	20.7401	-1.5706	-0.3846	-0.5637	-0.5713
-0.6789	0.1412	7.2197	50.5077	352.2853	-40.2694	0.981	0.5684	-0.9837	3.6466	0.4883	7.8865	-10.8657	-28.0183	5.6728	0.4566	-0.2768	-0.8162	9.9621	4.9864	-2.785	-15.0686	13.9658	-33.5249	-0.3428	-0.5639	-0.5556
17.9512	-8.5022	-9.1625	30.4609	230.2969	-17.4436	0.9784	0.5783	-0.9202	3.4601	-0.918	9.8063	-19.0717	-18.4528	-5.2443	0.4432	-0.3086	-0.7995	9.8047	5.0493	-1.7097	-17.2796	7.0722	-33.209	-0.3568	-0.5633	-0.5712
13.6477	2.3694	-6.3589	-70.5724	-30.8534	65.1956	1.0204	0.5564	-0.8897	3.2263	0.9414	9.803	-14.0177	-14.5263	-5.0163	0.4824	-0.3073	-0.8147	9.2188	4.6449	-1.5427	-17.8264	3.27	-20.6608	-0.3429	-0.5622	-0.5866
0.1816	-16.987	18.303	31.2111	-215.9364	203.0111	1.0062	0.5395	-0.8718	3.2902	0.7725	10.0873	-11.2938	-11.2695	-0.6966	0.4442	-0.2901	-0.8436	9.5051	4.6422	-2.0165	-21.546	1.9317	-16.76	-0.3425	-0.5299	-0.5883
7.038	1.9761	21.4146	106.609	-187.786	244.26	0.994	0.5229	-0.9069	2.9387	0.2096	9.7397	-17.0177	-14.437	-1.041	0.4825	-0.292	-0.8157	10.0317	4.6981	-2.246	-20.9092	-0.5329	-20.7537	-0.3432	-0.5963	-0.5539
1.6166	-4.1107	7.36	137.0886	-130.6573	255.4185	1.0111	0.5334	-1.0023	2.6051	0.3233	10.2989	-19.8599	-19.5184	-3.2517	0.4694	-0.3227	-0.8134	10.3806	4.5799	-2.5394	-19.9356	-4.5476	-28.5301	-0.3431	-0.5979	-0.5228
7.6325	-4.701	4.7467	56.295	-127.0639	282.3165	1.0417	0.4501	-0.9825	3.2281	-1.2556	9.6879	-18.746	-21.9471	-4.8472	0.457	-0.3206	-0.8419	10.1053	4.585	-1.4666	-18.6176	-7.7327	-36.5556	-0.3572	-0.6135	-0.5376
8.4156	1.7987	7.0057	54.8239	-129.3492	247.439	1.0417	0.4501	-0.9825	3.565	0.0391	9.413	-25.1778	-17.8404	-7.5861	0.444	-0.2605	-0.8312	9.9958	4.2386	-1.0509	-16.5589	-8.2708	-37.0493	-0.3579	-0.6434	-0.5825
6.7087	-0.7255	7.4165	53.7258	-161.9115	200.4532	1.0444	0.3537	-0.9586	3.5049	0.0954	9.2986	-23.8793	-12.8023	-6.4559	0.4575	-0.2736	-0.8592	9.6026	3.2562	-0.1043	-17.671	-7.55	-27.2711	-0.2874	-0.5784	-0.57
6.9077	0.0846	8.8446	66.6159	-193.5919	148.8629	0.9768	0.3665	-1.052	3.4118	-0.0725	10.3155	-26.6038	-10.9009	-7.0866	0.4574	-0.244	-0.8469	8.843	3.7826	0.3629	-19.7666	-5.8414	-12.7872	-0.3155	-0.5942	-0.5848
6.8761	-0.8415	7.192	84.6536	-218.1686	101.9546	1.0046	0.3622	-1.0386	3.3468	-0.5797	9.9174	-24.5646	-11.0758	-9.2138	0.4321	-0.2267	-0.876	8.7932	4.0753	0.9022	-19.3221	-2.5976	-3.9111	-0.3714	-0.6112	-0.5842
6.3421	-1.2473	6.2138	75.2208	-232.1381	63.1632	0.9352	0.34	-1.0441	3.4628	-1.0305	9.9195	-15.809	-12.4954	-9.5908	0.4707	-0.2429	-0.8615	8.5649	3.5547	1.255	-15.4498	0.6722	-5.2549	-0.329	-0.562	-0.5865
4.2322	-2.1632	6.5667	63.5643	-233.9858	31.4958	0.9229	0.3408	-1.0967	3.3441	-1.0868	9.7471	-8.8175	-11.7582	-10.2869	0.4702	-0.2746	-0.8451	8.8606	3.7866	1.3214	-11.1747	4.0607	-12.0099	-0.3012	-0.5616	-0.5864
2.5154	-3.3108	6.5284	40.1471	-230.2245	7.7061	0.9092	0.3274	-1.0929	3.2948	-0.354	10.1996	-6.7406	-11.2374	-10.8658	0.431	-0.2759	-0.83	8.4963	2.9716	0.6523	-8.1845	6.8359	-16.0984	-0.3436	-0.61	-0.5996
0.1889	-2.9598	7.5644	23.7869	-224.8938	-7.8315	0.8519	0.3564	-1.0983	3.4582	-0.5237	9.75	1.4144	-11.1975	-10.5197	0.4176	-0.2924	-0.8143	8.016	3.1452	0.2249	-5.3819	8.9943	-19.7553	-0.3015	-0.5957	-0.5537
-0.9348	-3.3565	8.6207	11.0614	-220.2623	-17.2274	0.8115	0.3233	-1.1152	3.3942	-0.3548	9.4657	-0.5341	-8.8966	-9.7894	0.4191	-0.1819	-0.8644	8.3012	3.1423	-0.3087	-3.1136	9.6178	-23.0667	-0.3295	-0.5936	-0.6004
-2.0015	-3.2362	9.6802	9.4329	-217.0307	-23.4273	0.7699	0.3141	-1.1248	3.4546	0.0958	9.6372	0.1304	-7.7753	-11.1649	0.4693	-0.2778	-0.8021	7.4618	3.1412	-1.043	-0.1768	10.0484	-22.2849	-0.3157	-0.6104	-0.584
-0.9195	-2.8936	9.4186	10.2155	-216.2653	-28.2021	0.755	0.3421	-1.1313	3.5109	-0.524	9.5246	-2.8982	-7.9335	-11.6005	0.4443	-0.2594	-0.8456	7.2788	2.8497	-1.407	0.8616	11.0991	-20.0019	-0.3297	-0.6098	-0.5996
-0.9121	-2.3749	9.8187	7.3198	-215.8281	-32.665	0.6558	0.3239	-1.0973	2.7059	0.2662	9.6216	-4.124	-9.7184	-13.0065	0.4843	-0.2856	-0.9018	7.811	2.8488	-1.3372	-1.0635	10.7796	-16.3875	-0.3573	-0.6127	-0.5531
-1.5855	-2.7162	10.4861	6.0064	-212.5888	-36.7189	0.6577	0.3069	-1.1327	3.4512	-0.0733	9.4671	-6.2251	-12.2267	-13.3414	0.4566	-0.2768	-0.8162	7.7447	3.1378	-1.6965	-4.9978	9.5311	-12.364	-0.3852	-0.6123	-0.5688
-2.3912	-3.2335	10.241	-0.8421	-207.5939	-40.5138	0.6149	0.3564	-1.17	3.6253	-0.1299	9.5274	-7.1489	-14.4447	-13.58	0.4181	-0.2607	-0.8307	7.8696	3.0229	-1.3353	-9.5371	7.1993	-10.2889	-0.3157	-0.6104	-0.584
-2.2677	-1.7954	10.7609	-4.6125	-200.3054	-44.5871	0.5726	0.3229	-1.134	3.6277	-0.1298	9.6406	-7.4807	-16.229	-13.3514	0.4571	-0.2451	-0.8325	7.9865	3.5453	-1.3309	-12.3582	4.0204	-8.5216	-0.2882	-0.6254	-0.5985
-2.2982	-1.847	12.124	-7.0399	-193.2457	-49.6498	0.5153	0.3347	-1.1219	2.999	0.0406	9.854	-6.14	-17.5401	-11.8836	0.4446	-0.1982	-0.8496	8.2885	3.3719	-0.9667	-12.5665	0.4934	-7.6788	-0.3022	-0.6248	-0.6141
-2.8005	-1.2693	12.7987	-0.6483	-185.3702	-57.946	0.4436	0.3605	-1.1129	3.5714	-0.186	9.696	-4.9161	-18.3595	-10.8118	0.4448	-0.2277	-0.8619	8.2279	3.1392	-1.0886	-11.7344	-3.4804	-7.6323	-0.3157	-0.6104	-0.584
-2.6186	-1.4971	13.3127	9.8881	-175.8067	-66.9634	0.4455	0.3436	-1.1483	3.4551	-0.1858	9.637	-2.6784	-19.6254	-9.8361	0.4181	-0.2607	-0.8307	8.0517	3.256	-1.0315	-9.7587	-7.0517	-7.653	-0.3157	-0.6112	-0.5684
-3.7228	-1.902	12.4371	18.2401	-165.0044	-72.2425	0.4001	0.3857	-1.1046	3.8049	-0.5806	9.8138	-0.0846	-22.0799	-9.3035	0.4061	-0.2422	-0.8745	8.1778	3.0832	-0.6107	-6.497	-7.6486	-7.9676	-0.3163	-0.6411	-0.6133
-5.2598	-3.3927	12.7987	6.3949	-159.3655	-69.877	0.3444	0.3423	-1.0789	3.9839	-0.7497	10.1005	2.8275	-23.9655	-10.738	0.4439	-0.2912	-0.8292	8.4185	2.9675	-0.3672	-4.1719	-6.7639	-6.9411	-0.3016	-0.5762	-0.6166
-7.4098	-3.443	14.0638	-6.7031	-164.2802	-64.9489	0.344	0.3561	-1.0823	3.701	-0.8053	10.321	5.2112	-26.1325	-12.3915	0.419	-0.2574	-0.8737	7.9527	2.6214	-0.0779	-2.6569	-4.8072	-3.3802	-0.3301	-0.643	-0.5824
-7.1478	-3.7931	12.8171	-11.765	-184.7277	-56.7685	0.3307	0.2943	-1.0402	3.5216	-0.4109	10.0345	8.1144	-28.5515	-12.0124	0.4047	-0.2771	-0.8151	8.7096	2.7916	-0.602	-1.0209	-2.2865	-1.0755	-0.3019	-0.6094	-0.5994
-6.7841	-3.9614	13.8464	-24.1655	-214.6719	-44.3961	0.3158	0.305	-1.0292	4.2568	-0.5255	9.427	3.2058	-33.1843	-11.8466	0.4193	-0.2564	-0.8881	8.3059	3.0271	-0.0696	0.7289	0.5941	-1.0039	-0.3016	-0.6127	-0.5373
-7.9382	-4.4671	16.2656	-27.0076	-240.7026	-31.6818	0.2582	0.3132	-1.003	3.7453	-0.1863	9.7563	-2.481	-35.9203	-12.5258	0.4183	-0.2749	-0.844	8.0686	3.0855	-0.1337	2.4128	4.0416	-2.524	-0.3158	-0.6096	-0.5995
-9.4818	-4.5229	16.349	-17.042	-259.2569	-16.6449	0.2578	0.3096	-0.989	3.9085	-0.2433	9.3068	-5.8228	-38.7568	-12.0326	0.4056	-0.2739	-0.8581	7.7714	2.5627	-0.3211	3.1723	6.8637	-3.0292	-0.3017	-0.6119	-0.5528
-12.517	-5.9696	13.2718	-18.0608	-273.8426	4.6815	0.2704	0.2952	-0.933	4.314	0.3194	9.4856	-13.4276	-41.6149	-11.8205	0.4314	-0.2442	-0.8463	8.0553	2.1528	-0.9763	1.9216	8.1376	-2.4195	-0.3018	-0.5915	-0.6313
-14.0774	-5.9142	12.5029	-37.1469	-285.8346	34.0103	0.2418	0.2924	-0.9182	3.7288	-0.4122	8.9631	-19.803	-44.8913	-10.9334	0.3789	-0.262	-0.8155	7.1042	2.2696	-1.3529	-1.024	8.6275	-0.5163	-0.2886	-0.6578	-0.5968
-16.8327	-6.8329	12.0476	-43.6043	-286.3779	68.3269	0.2972	0.3149	-0.9124	4.4402	-0.4127	9.9405	-23.4557	-47.8264	-10.0715	0.3929	-0.2127	-0.8618	8.3555	2.3276	-0.6705	-4.7743	8.251	2.0664	-0.3022	-0.6248	-0.6141
-16.3438	-7.4662	25.2959	-92.3312	-273.4411	114.9294	0.3098	0.3523	-0.9089	4.0352	-1.2571	9.7614	-28.7058	-54.8066	-8.1413	0.4048	-0.2618	-0.8161	8.4639	2.6738	-1.1461	-8.744	7.5391	4.4681	-0.316	-0.6258	-0.5987
-35.5664	-4.499	17.0351	47.4325	-209.7812	158.0312	0.3224	0.3551	-0.8704	4.5952	-0.6391	9.0944	-30.8352	-59.3521	-6.6777	0.341	-0.2283	-0.8597	8.054	2.7336	-0.9738	-9.7543	6.8075	6.8287	-0.3016	-0.594	-0.5847
-22.6261	-10.258	2.4866	-6.6002	-149.0243	159.5707	0.3658	0.3819	-0.9312	3.2748	-0.0168	9.2936	-46.2068	-62.6779	-1.6673	0.393	-0.2576	-0.8732	8.5268	2.907	-0.9044	-10.8319	5.2483	9.3464	-0.302	-0.6077	-0.6305
-25.7799	-3.2229	8.3085	-50.8205	-105.9942	178.7169	0.3242	0.3728	-0.9408	5.2375	2.2966	17.8856	-79.5528	-56.6191	-7.9228	0.3537	-0.2293	-0.8457	8.9457	2.7911	-0.5976	-12.3118	4.0632	11.0385	-0.2881	-0.6262	-0.583
-24.8293	-2.654	7.1928	-35.2527	-43.8771	178.7306	0.3383	0.3897	-0.9587	4.133	1.9578	14.6351	26.9763	-92.5378	-12.5716	0.3667	-0.2139	-0.8469	8.7152	2.2699	-0.3646	-14.4304	3.48	13.4637	-0.2875	-0.5776	-0.5855
-21.171	-2.026	6.9824	-56.1472	-14.9369	174.4201	0.3101	0.3904	-0.958	2.8781	-0.1285	9.5683	-7.9464	-100.6392	-5.0042	0.3407	-0.2743	-0.8567	9.5305	2.2656	-0.9483	-19.2249	1.6918	13.1839	-0.2873	-0.5614	-0.5863
-17.1531	0.8458	7.6978	-45.9729	-3.3585	155.0933	0.3658	0.4165	-0.9662	4.4622	2.2382	13.9063	-34.4997	-111.1413	1.1282	0.3669	-0.2282	-0.8603	9.2453	2.7333	-0.3528	-20.9599	-0.6303	9.3806	-0.2874	-0.5784	-0.57
-13.8078	3.8936	9.1397	-26.0012	-10.6649	124.5814	0.3803	0.4023	-0.9631	4.2337	1.281	13.9007	-9.0699	-129.8893	3.6136	0.3404	-0.2305	-0.831	8.4257	1.2841	-0.1946	-27.3559	-2.2441	3.5125	-0.2877	-0.5751	-0.6321
-10.4944	6.4749	8.9308	17.5072	-26.554	85.2745	0.3799	0.3988	-0.949	4.1612	0.8862	13.1628	-9.8339	-145.7678	8.8502	0.2894	-0.2122	-0.874	8.6012	1.5157	-0.2502	-37.3462	-7.2856	-6.3601	-0.302	-0.6086	-0.6149
-9.2977	17.2735	9.1133	83.0367	-26.9513	30.6627	0.3941	0.3984	-0.9494	4.3979	1.3367	13.5079	-7.5409	-164.1278	14.4038	0.2765	-0.197	-0.8747	9.3712	1.2241	-0.1174	-44.4496	-7.9695	-7.7369	-0.3156	-0.5934	-0.6003
-9.5125	26.621	18.9802	198.6388	50.0756	-90.3144	0.3815	0.361	-0.9529	5.2193	0.1528	14.1468	-10.3742	-185.0258	17.5851	0.2762	-0.2134	-0.8594	8.7028	4.3009	-0.7753	-31.3772	1.4274	-9.8155	-0.3021	-0.6256	-0.5986
-11.8103	37.754	16.084	387.9179	194.4231	-228.3678	0.3693	0.3271	-0.9704	6.2927	-0.9744	15.8102	-21.223	-212.01	20.0214	0.1988	-0.1821	-0.8741	8.0216	10.0477	-1.7814	-5.9682	4.9289	-8.3962	-0.2883	-0.6059	-0.6615
-8.1701	18.7827	-0.4628	302.6561	247.1666	-118.34	0.3548	0.324	-0.956	5.3218	-1.5896	18.7898	-26.7265	-241.6703	18.7975	0.1728	-0.1823	-0.8735	9.8106	9.641	-0.7916	6.6179	-6.8014	15.2094	-0.2876	-0.5768	-0.601
0.4919	-7.4126	14.0871	112.3259	216.5118	-100.7058	0.3857	0.2787	-0.9853	5.4633	0.0473	22.8705	-31.278	-279.1778	16.2943	0.1467	-0.2131	-0.871	13.4481	6.2711	0.8787	-21.9971	-28.9686	52.1348	-0.3015	-0.577	-0.6011
-20.8202	11.8908	10.8555	-86.4928	191.7482	-67.3061	0.4139	0.2607	-0.9685	4.8186	-0.6819	24.951	-4.732	-324.8942	12.8714	0.1201	-0.1705	-0.8304	14.5267	4.0062	1.4879	-58.2758	-36.9643	64.6882	-0.3288	-0.5458	-0.5874
6.4596	-0.3649	-2.3616	-67.655	176.6649	-40.4251	0.428	0.2603	-0.9688	2.1919	-1.2982	23.1402	30.6702	-363.8352	8.4133	0.0551	-0.2015	-0.827	11.628	2.7329	0.8894	-50.2857	-35.7155	47.194	-0.2737	-0.5953	-0.5535
-1.5613	1.6677	14.8242	-116.4373	119.4428	-63.6101	0.4849	0.2623	-0.9843	3.1817	-2.7079	23.5561	27.1675	-398.5397	12.228	0.0165	-0.1853	-0.8415	8.5094	2.5097	1.3093	-22.0651	-33.1643	29.0114	-0.3152	-0.5602	-0.6175
-3.0933	1.8567	18.4323	1.7707	131.1554	-99.9658	0.4837	0.3037	-0.9945	2.5786	-3.553	22.1839	62.6818	-422.0524	-3.4833	-0.0369	-0.191	-0.7687	7.4163	3.9579	-0.202	-18.643	-31.3958	4.048	-0.3287	-0.5467	-0.5719
-9.7234	-7.6776	3.8851	17.9723	108.5584	-97.3115	0.4826	0.3104	-0.9698	7.8218	-2.7223	17.1995	84.7839	-431.0707	-15.1461	-0.1146	-0.221	-0.7793	6.5742	6.048	-0.8075	-6.5675	-34.4534	-21.4383	-0.2868	-0.5299	-0.5725
-5.219	-0.6434	-2.5331	-61.1517	39.9682	0.8869	0.4849	0.2796	-1.0018	8.6078	-1.8232	16.3676	68.9166	-416.2305	-16.738	-0.1421	-0.2418	-0.706	7.2151	5.8122	-1.2757	6.8245	-41.4473	-20.6589	-0.3011	-0.5625	-0.5709
-3.1476	3.6134	12.8125	-81.2928	22.9855	13.2115	0.4547	0.2973	-0.9657	7.1677	-5.088	15.9948	65.4067	-390.0498	-32.0177	-0.1829	-0.2638	-0.6181	7.645	5.234	-0.4318	11.404	-44.9278	4.0649	-0.3149	-0.5456	-0.5873
-1.1707	-3.7475	11.1718	-7.612	7.8647	2.6338	0.483	0.2966	-0.9664	5.4477	-2.3804	16.5272	80.5484	-356.7129	-48.6906	-0.2226	-0.2519	-0.5752	9.0613	5.2308	-0.4053	11.4354	-46.1535	33.9351	-0.2867	-0.5307	-0.557
-2.3624	2.3329	9.0147	-4.8659	19.7282	3.7694	0.4402	0.3115	-0.9688	5.2183	1.3358	14.2045	130.2036	-305.9744	-57.7645	-0.2758	-0.2718	-0.5157	10.6794	4.5935	0.8797	6.2954	-44.6865	55.9293	-0.3013	-0.5795	-0.5545
-2.6655	2.387	8.1566	-14.6829	10.5907	0.5824	0.4555	0.2871	-0.9763	4.9559	1.673	12.7273	174.6286	-244.5374	-52.9884	-0.3145	-0.2863	-0.5283	11.2838	4.1305	1.6076	5.4513	-36.8041	59.2888	-0.2874	-0.5606	-0.6019
-2.5826	0.7839	9.4017	-21.2937	3.854	-1.6242	0.4685	0.328	-0.9869	22.3946	-25.3934	18.5612	203.7205	-241.6972	-36.2294	-0.3426	-0.3093	-0.4262	11.463	4.6535	1.7929	12.0557	-23.9743	36.3032	-0.3285	-0.5313	-0.5572
-2.169	0.0969	10.032	-22.0472	1.6801	-2.6694	0.5108	0.3096	-0.9705	-26.1273	-10.794	-10.5256	-126.5265	-302.8588	-14.0132	-0.3289	-0.3366	-0.4676	9.8134	4.3674	1.8806	18.782	-8.6562	9.4583	-0.2874	-0.5793	-0.5544
-2.5789	0.3825	9.5706	-15.9314	3.9153	-2.1293	0.4708	0.2627	-0.9839	-32.9536	-1.4945	-19.4926	36.6972	80.5498	-129.2985	-0.33	-0.3409	-0.4102	9.6281	4.1335	1.3971	25.2467	3.9343	-4.99	-0.3287	-0.5467	-0.5719
-3.038	0.2677	9.5043	-17.9551	2.5307	-0.1219	0.454	0.3249	-0.9725	3.7093	-9.3092	12.6348	-274.1534	323.636	-158.4414	-0.3306	-0.3431	-0.3815	9.0954	4.7736	1.3899	25.8028	9.6197	-7.3723	-0.3003	-0.4977	-0.5742
-2.6832	0.0975	10.0788	-15.0935	2.2617	3.0856	0.4822	0.2895	-0.9382	-6.5449	0.8102	31.847	-42.3347	288.7774	-144.9495	-0.3165	-0.354	-0.4381	9.5613	4.1319	0.9766	22.0408	9.0507	-0.9686	-0.2585	-0.4979	-0.5585
-2.8002	0.4992	9.9646	-12.9135	3.4815	2.1178	0.4677	0.321	-0.9588	-2.5675	-3.7204	12.9042	145.2535	211.3495	-174.6927	-0.2127	-0.3381	-0.4413	10.4978	4.651	0.637	19.0599	6.4435	4.6172	-0.3285	-0.5492	-0.5253
-2.1211	0.6119	9.5805	-10.265	5.8049	1.5959	0.4402	0.3115	-0.9688	-6.1961	-4.2865	1.901	77.7481	206.8799	-160.5845	-0.2513	-0.3975	-0.4652	11.8471	4.8203	0.2437	21.7231	6.3349	1.2461	-0.2865	-0.5145	-0.5578
-2.5983	0.9528	8.6065	-14.2105	6.7325	2.2051	0.4967	0.31	-0.9702	-7.0427	0.394	5.7937	15.5245	222.9375	-123.584	-0.1993	-0.3818	-0.4673	11.2393	4.3529	-0.7877	27.2788	6.0589	-8.6137	-0.3143	-0.5157	-0.5424
