1546_acc_x	1546_acc_y	1546_acc_z	1546_gyro_x	1546_gyro_y	1546_gyro_z	1546_mag_x	1546_mag_y	1546_mag_z	1548_acc_x	1548_acc_y	1548_acc_z	1548_gyro_x	1548_gyro_y	1548_gyro_z	1548_mag_x	1548_mag_y	1548_mag_z	1549_acc_x	1549_acc_y	1549_acc_z	1549_gyro_x	1549_gyro_y	1549_gyro_z	1549_mag_x	1549_mag_y	1549_mag_z
-2.8479	-0.6588	9.0435	0.3419	0.7788	0.2283	0.4236	-0.8335	-2.4954	0.4109	0.6204	9.924	1.2305	-0.4925	0.1797	-0.2361	-0.3147	-2.5175	9.4811	-0.2375	-0.6858	2.4508	0.4765	1.4602	-0.1981	-0.3182	0.042
-2.7281	-0.6586	9.2183	0.6472	0.597	0.0669	0.2055	-0.5465	-1.7321	0.6945	0.5618	9.581	1.0458	-0.4264	0.1538	0.0679	-0.2146	-2.3628	9.4729	0.1108	-1.0838	2.2663	0.5474	1.2194	-0.2221	-0.2762	-0.2281
-2.7929	-0.2557	8.9306	0.5557	0.5996	0.0357	0.1324	-0.571	-1.7334	0.2295	0.851	9.515	0.89	-0.4162	-0.0001	0.0157	-0.1696	-2.3857	9.8321	0.1694	-0.7351	2.2667	0.5772	1.2517	-0.2221	-0.2642	-0.2462
-2.4933	-0.6588	9.3379	0.6484	0.7792	0.1381	0.2063	-0.5714	-1.6871	0.5844	0.9666	9.9275	0.6494	0.0784	0.0642	0.123	-0.1439	-2.3197	9.8377	0.2283	-0.4501	1.8091	0.459	1.2185	-0.2221	-0.2822	-0.2342
-3.0169	-0.4848	9.328	0.4944	0.6284	0.0983	0.2044	-0.5691	-1.7759	1.0423	0.5036	9.5872	0.2171	0.1854	-0.0821	0.0869	-0.1679	-2.3415	9.6556	0.3442	-0.738	1.5702	0.3798	1.8313	-0.2161	-0.2762	-0.2462
-2.9618	-0.1393	9.2149	0.554	0.4719	0.121	0.1866	-0.5699	-1.7542	0.4627	0.5621	9.5768	0.1538	-0.0333	-0.0029	0.0858	-0.1672	-2.4056	9.5992	0.2282	-0.6255	1.5109	0.1551	2.1276	-0.2101	-0.2762	-0.2281
-3.0254	-0.2552	8.926	0.1553	0.3242	0.0798	0.1679	-0.5695	-1.7768	0.9841	0.7347	9.5864	-0.2415	0.4991	-0.0285	0.05	-0.1914	-2.4061	9.4796	0.0534	-0.7421	1.1465	0.2167	2.2261	-0.2161	-0.2762	-0.2402
-2.7794	-0.6577	9.5622	0.3077	0.29	0.1097	0.1692	-0.523	-1.7336	1.0483	0.735	9.9356	-0.6715	0.6278	0.0128	0.086	-0.1909	-2.3627	9.5391	0.4609	-0.683	1.0538	0.5043	1.9343	-0.2101	-0.2882	-0.2342
-3.0811	0.2642	9.0986	0.1548	0.1169	-0.1157	0.1869	-0.5942	-1.7314	1.1044	0.5039	9.8203	-0.5487	0.466	0.126	0.0528	-0.0992	-2.3643	9.9531	0.1115	-0.5621	0.8042	0.3106	1.3113	-0.2221	-0.2882	-0.2462
-2.9601	0.2069	9.3308	0.1251	0.2981	-0.014	0.2046	-0.5453	-1.7765	0.4649	0.5045	9.6928	-0.5203	0.3793	-0.004	0.1217	-0.1666	-2.3621	9.7143	0.4024	-0.7368	0.3748	0.3886	0.9191	-0.2161	-0.2762	-0.2342
-2.8505	-0.4861	8.9289	0.1561	0.3006	-0.0751	0.1138	-0.5706	-1.7561	0.696	1.0239	9.6976	-0.0886	0.243	0.1094	0.0874	-0.1447	-2.3418	9.7689	0.1689	-0.9641	0.0713	0.4497	1.017	-0.2281	-0.2882	-0.2402
-2.9091	-0.2554	8.9283	0.2487	0.3919	-0.0696	0.206	-0.547	-1.7099	0.8168	0.5044	9.9311	0.0621	0.0297	0.0017	0.0865	-0.1677	-2.3629	9.4817	0.2283	-0.6277	0.0125	0.1913	1.4038	-0.2101	-0.2642	-0.2342
-2.9074	-0.5435	8.9851	0.2174	0.388	0.0222	0.1692	-0.523	-1.7336	0.7566	0.562	9.8141	0.0331	-0.0111	0.2165	0.1017	-0.2125	-2.4474	9.7753	0.4026	-0.6217	-0.0433	0.2972	1.9632	-0.2161	-0.2702	-0.2402
-2.8403	-0.4273	9.4466	0.3402	0.2437	-0.2306	0.1857	-0.5687	-1.7986	1.0982	0.5034	9.4722	-0.0274	0.1789	0.136	0.0865	-0.1677	-2.3629	10.4214	-0.1804	-0.6678	-0.2239	0.1965	2.2669	-0.2342	-0.2882	-0.2342
-2.966	-0.3128	8.9845	0.3083	0.2355	-0.0469	0.1515	-0.5238	-1.7119	0.8738	0.3888	9.874	-0.3984	0.2542	-0.0127	0.0511	-0.1922	-2.342	9.7224	0.2287	-0.3384	-0.2276	0.117	1.8631	-0.2161	-0.2762	-0.2342
-3.0854	-0.486	8.8093	0.34	0.1555	-0.3276	0.1689	-0.5706	-1.7325	0.8693	0.6772	9.6423	-0.2122	0.3111	0.0212	0.0869	-0.1679	-2.3415	9.9452	0.1687	-0.9607	-0.3545	0.0127	1.3052	-0.2161	-0.2762	-0.2402
-3.0768	-0.1966	9.27	0.2453	0.0203	-0.0588	0.2052	-0.5221	-1.7548	0.3464	0.9087	9.5752	-0.7019	0.5285	0.1618	0.0864	-0.1911	-2.3413	9.9499	-0.0054	-0.7333	-0.0545	0.0904	0.7226	-0.2281	-0.2822	-0.2221
-2.8425	-0.4852	9.3314	0.1228	-0.0369	-0.1241	0.1684	-0.57	-1.7546	0.8698	1.0814	9.7008	-0.6415	0.5013	0.0666	0.0694	-0.145	-2.3635	9.8337	-0.1797	-0.679	-0.2433	0.1155	-0.0125	-0.2161	-0.2702	-0.2281
-2.9732	-0.1983	8.6397	0.1548	0.0301	-0.2433	0.1865	-0.5217	-1.7775	0.6946	0.5041	9.5809	-0.609	0.5577	0.1632	0.0683	-0.1443	-2.4275	9.597	0.2279	-0.7394	-0.0002	0.2723	-0.1601	-0.2041	-0.2642	-0.2161
-2.9712	-0.0251	8.7552	0.0953	0.3322	-0.0738	0.1878	-0.5472	-1.7104	0.8078	0.9657	9.4676	-0.4594	0.2522	0.0495	0.0513	-0.1687	-2.3636	9.8425	-0.1204	-0.2231	0.123	0.0777	0.1055	-0.2221	-0.2702	-0.2281
-2.6733	-0.1402	9.1057	0.0341	0.3624	-0.0419	0.1874	-0.5948	-1.7092	1.0443	0.5615	9.7033	-0.4874	0.4019	0.1526	0.1028	-0.2133	-2.3834	9.8384	0.5777	-0.3923	0.2449	0.2018	0.0495	-0.2221	-0.2882	-0.2402
-3.5469	-0.0233	9.0312	0.1878	0.453	-0.036	0.1694	-0.4993	-1.7342	0.8683	0.6193	9.5842	-0.3947	0.3343	0.2409	0.1038	-0.1669	-2.3839	9.5393	0.2863	-0.6834	0.3392	0.346	0.333	-0.2281	-0.2762	-0.2342
-2.8422	-0.0238	9.39	0.2486	0.4493	0.0257	0.1692	-0.523	-1.7336	0.7586	0.6777	9.9303	-0.3659	0.2461	0.1419	0.0688	-0.1916	-2.3417	10.2449	-0.0637	-0.6709	0.2481	0.2833	0.3919	-0.2161	-0.2642	-0.2221
-2.9696	-0.2556	8.8121	0.3109	0.5145	-0.0627	0.1695	-0.5474	-1.7108	1.0454	0.5616	9.7613	-0.488	0.2421	0.2664	0.0851	-0.2138	-2.3838	9.8921	0.1113	-0.6772	0.0054	0.3756	0.4602	-0.2281	-0.2762	-0.2281
-3.0212	-0.0817	9.1564	0.2481	0.3008	-0.1052	0.1689	-0.5706	-1.7325	0.8689	0.9659	9.6427	-0.3635	0.3646	0.2427	0.0698	-0.1453	-2.3421	9.5372	0.1696	-0.7977	-0.3935	0.1715	0.2069	-0.2101	-0.2762	-0.2342
-2.9114	-0.2557	8.8133	0.2783	0.327	-0.0114	0.1863	-0.5455	-1.7769	0.697	1.0817	9.7557	-0.3958	0.4372	0.0302	0.1019	-0.2362	-2.4045	9.7733	0.2277	-0.7361	-0.2446	0.0579	-0.1385	-0.2161	-0.2822	-0.2402
-2.7309	0.1483	9.1627	0.3399	0.329	-0.0724	0.1697	-0.5236	-1.7114	0.9251	0.7347	9.5274	-0.5198	0.4423	-0.031	0.0843	-0.2367	-2.4049	10.0684	0.1111	-0.6738	-0.4275	0.3106	-0.2776	-0.2101	-0.2882	-0.2402
-2.7858	-0.3125	9.2755	0.278	0.2961	-0.0131	0.1138	-0.5706	-1.7561	0.5849	0.5624	9.927	-0.2726	0.3383	0.1164	0.0853	-0.1904	-2.4053	9.7181	-0.0047	-0.5669	-0.4911	0.2276	-0.5581	-0.2161	-0.2642	-0.2402
-3.029	-0.198	8.7536	0.0956	0.2763	-0.1997	0.1503	-0.4983	-1.779	0.7577	0.5621	9.8721	-0.3653	0.2108	0.2327	0.0682	-0.1677	-2.4059	10.0688	-0.2382	-0.6746	-0.4296	0.0683	-0.4132	-0.2221	-0.2762	-0.2342
-2.9627	-0.2548	9.1571	0.2182	0.3055	-0.1974	0.1685	-0.4981	-1.7786	0.7015	0.7933	9.9874	-0.581	0.3758	0.0892	0.1397	-0.1663	-2.3404	9.7112	0.1691	-0.9082	-0.5205	0.0671	-0.351	-0.1981	-0.2822	-0.2281
-2.7241	-0.3698	9.449	0.2194	0.5172	-0.0938	0.1331	-0.5477	-1.7118	1.1017	1.0234	9.7049	-0.4267	0.4377	0.0304	0.0535	-0.0997	-2.3216	9.771	0.2856	-0.8499	-0.3392	-0.1478	-0.4251	-0.2101	-0.2762	-0.2281
-2.6739	-0.4286	9.0475	0.0679	0.5866	-0.214	0.1698	-0.5717	-1.6881	0.9322	0.8507	9.9336	-0.4877	0.4357	0.0927	0.0684	-0.1914	-2.363	9.7788	0.3448	-0.451	-0.6411	-0.2494	-0.059	-0.2161	-0.2822	-0.2522
-2.7843	-0.4853	9.3326	0.0969	0.4011	-0.2238	0.1317	-0.546	-1.7784	0.8144	0.6775	9.8153	-0.3301	0.7744	0.0519	0.0518	-0.1456	-2.3638	9.9488	-0.0055	-0.7903	-0.6662	-0.2073	0.5584	-0.2161	-0.2702	-0.2221
-2.6174	-0.1982	8.9917	0.0029	0.3585	0.0499	0.1493	-0.5691	-1.7995	1.048	0.9083	9.9358	-0.3958	0.4694	0.0013	0.0867	-0.1914	-2.32	10.0043	-0.0642	-0.9602	-0.8446	0.0276	0.9718	-0.2101	-0.2762	-0.2402
-3.1951	-0.3119	9.1524	0.157	0.4225	-0.0378	0.1325	-0.499	-1.7573	0.4635	0.7354	9.6351	-0.4255	0.5945	-0.0215	0.0693	-0.1685	-2.3419	9.9488	-0.0637	-0.7904	-1.0308	-0.0513	0.6002	-0.1981	-0.2642	-0.2342
-3.4864	-0.0231	9.1473	0.1546	0.1743	-0.0204	0.1516	-0.5719	-1.6885	0.6966	0.562	9.697	-0.4576	0.6011	-0.1451	0.1055	-0.121	-2.3416	9.8293	-0.2967	-0.9071	-1.0336	0.1163	0.1785	-0.2101	-0.2822	-0.2161
-3.078	-0.1391	9.2126	0.1269	0.4258	-0.0993	0.1117	-0.5921	-1.8443	0.6394	0.7931	9.7543	-0.7352	0.4106	0.0611	0.0519	-0.1221	-2.3854	9.4812	-0.354	-0.6861	-0.824	-0.1536	-0.114	-0.2161	-0.2582	-0.2281
-2.4989	-0.1405	9.1091	0.3101	0.3926	-0.0999	0.1679	-0.5695	-1.7768	0.8115	0.504	9.641	-0.5863	0.0759	-0.0855	0.0866	-0.1443	-2.3845	9.7112	0.1691	-0.9082	-1.0052	-0.0011	-0.0123	-0.2161	-0.2702	-0.2281
-2.7896	-0.7166	9.0445	0.3428	0.639	-0.0865	0.1691	-0.5468	-1.733	0.5844	0.1004	9.8684	-0.4902	0.2527	0.0497	0.0703	-0.1221	-2.3424	9.7101	0.169	-0.9652	-0.9786	-0.1117	-0.418	-0.2161	-0.2762	-0.2462
-2.8485	-0.3706	9.0442	0.3766	0.8632	-0.2587	0.132	-0.5704	-1.7556	0.7537	0.4463	9.6399	-0.1533	-0.002	0.0937	0.0689	-0.1682	-2.3632	9.7744	0.2278	-0.6791	-0.8557	-0.1484	-0.2672	-0.2101	-0.2882	-0.2462
-2.8534	-0.1982	8.8146	0.5269	0.7277	-0.0499	0.1322	-0.5466	-1.7562	1.104	0.8503	9.8207	0.4599	-0.1569	-0.1054	0.087	-0.1445	-2.3631	9.7216	-0.1207	-0.3962	-1.1569	0.029	0.052	-0.2041	-0.2822	-0.2281
-2.5575	-0.4864	9.0497	0.3144	0.945	-0.0089	0.1866	-0.5699	-1.7542	0.755	1.0239	9.7567	0.4296	-0.1917	-0.0144	0.0521	-0.1458	-2.3425	9.9547	-0.2959	-0.5061	-1.2144	0.0475	0.4531	-0.2281	-0.2822	-0.2161
-2.4398	-0.0252	9.1681	0.4966	0.7884	-0.0161	0.205	-0.5459	-1.7543	0.76	0.3891	9.9879	0.3341	-0.4684	-0.0009	0.0514	-0.1453	-2.3852	10.0686	-0.0053	-0.6741	-1.4566	0.0128	0.6378	-0.2041	-0.2822	-0.2342
-3.1417	-0.255	8.9237	0.4972	0.7927	-0.108	0.1875	-0.5229	-1.7331	0.5822	1.0242	9.8116	0.3054	-0.3157	0.0402	0.124	-0.0976	-2.3201	9.5991	0.3446	-0.6252	-1.4862	-0.0841	0.7867	-0.2161	-0.2702	-0.2402
-2.7304	-0.6589	9.1033	0.7399	0.631	-0.0229	0.1865	-0.5936	-1.7536	1.1047	1.0813	9.879	0.3389	-0.0364	-0.0039	0.087	-0.1445	-2.3631	9.5429	0.0539	-0.5131	-1.4571	-0.142	0.6605	-0.2161	-0.2762	-0.2281
-2.9615	-0.2546	9.2147	0.8627	0.6911	-0.0189	0.1683	-0.5219	-1.778	0.9837	1.0234	9.5868	0.461	-0.0324	-0.1284	0.0687	-0.1445	-2.4062	9.8938	0.5773	-0.5621	-1.4922	-0.3741	0.2182	-0.2161	-0.2702	-0.2342
-2.9692	-0.4285	8.8117	0.6185	0.6971	-0.0816	0.1867	-0.4979	-1.7781	0.9841	0.7347	9.5864	0.2756	-0.2552	0.0753	0.0698	-0.1453	-2.3421	9.7757	0.1115	-0.6224	-1.1895	-0.3381	-0.0284	-0.2161	-0.2762	-0.2342
-3.0315	-0.6596	8.58	0.5881	0.7857	0.0151	0.2052	-0.5221	-1.7548	0.6924	0.5617	9.465	0.3346	-0.3731	-0.0568	0.0513	-0.1687	-2.3636	9.8343	0.2861	-0.6209	-0.9727	-0.1661	0.317	-0.2221	-0.2642	-0.2281
-2.6137	0.2636	9.2228	0.8344	0.8809	-0.1011	0.1143	-0.4992	-1.7578	0.6439	0.5624	9.9861	0.6778	-0.1051	0.0211	0.0667	-0.2373	-2.4053	9.8371	-0.2957	-0.5084	-1.0924	-0.3922	0.6752	-0.2101	-0.2762	-0.2462
-3.0169	-0.4848	9.328	0.7119	0.9104	-0.0389	0.1871	-0.5704	-1.732	0.9212	0.5034	9.295	0.6441	-0.2861	-0.0526	0.0328	-0.1922	-2.3851	9.8377	0.2283	-0.4501	-0.813	-0.2902	1.2625	-0.2221	-0.2762	-0.2402
-3.0284	0.0904	8.8118	0.7114	0.8782	-0.0099	0.1871	-0.5704	-1.732	0.5786	0.562	9.5789	0.522	-0.2578	0.043	0.1043	-0.1437	-2.3841	10.3158	0.1706	-0.0426	-0.8379	-0.0297	1.799	-0.2342	-0.2822	-0.2342
-3.1928	-0.3117	9.2674	0.6821	0.9446	-0.0987	0.1515	-0.5238	-1.7119	0.6371	0.9661	9.6385	0.6171	-0.0441	0.0564	0.0861	-0.1674	-2.3842	9.8934	-0.005	-0.6205	-0.776	0.1226	1.8371	-0.2101	-0.2882	-0.2281
-3.0164	-0.1388	9.3863	1.138	0.6876	-0.0173	0.2059	-0.4989	-1.7332	0.9255	0.3882	9.5269	0.5559	0.0199	0.0298	0.0859	-0.1438	-2.4272	9.8969	-0.1792	-0.45	-0.5978	0.0445	1.3396	-0.2101	-0.2642	-0.2342
-3.0885	-0.0827	8.6952	0.5861	0.5978	0.0665	0.1698	-0.5717	-1.6881	0.9864	0.5616	9.7022	0.5905	0.1641	0.2253	0.0869	-0.1679	-2.3415	9.655	-0.0634	-0.796	-0.5424	0.1907	0.6088	-0.2041	-0.2642	-0.2462
-3.0217	-0.3701	9.0982	0.3711	0.4198	-0.0366	0.2063	-0.4995	-1.711	0.6362	0.8506	9.5803	0.2829	0.5226	-0.0604	0.1044	-0.1908	-2.3196	9.5996	-0.1211	-0.6263	-0.4556	0.2077	0.0555	-0.2281	-0.2702	-0.2221
-2.9607	-0.6582	9.2137	0.1574	0.4254	-0.0992	0.1312	-0.5455	-1.8006	0.926	0.7925	9.5855	0.0375	0.3578	0.2404	0.0706	-0.1223	-2.321	9.772	0.4022	-0.7926	-0.553	0.0127	-0.5688	-0.2161	-0.2822	-0.2281
-2.6142	-0.6591	9.1056	0.0331	0.239	-0.0485	0.1875	-0.5229	-1.7331	0.7549	1.0816	9.7568	-0.1156	0.7123	-0.0152	0.0859	-0.2143	-2.3411	10.0698	-0.1216	-0.6174	-0.3366	0.155	-0.2557	-0.2161	-0.2822	-0.2402
-3.0216	-0.4277	9.0981	0.0347	0.3079	-0.1984	0.1508	-0.547	-1.7335	0.6971	0.9662	9.7556	0.0051	0.4305	0.028	0.0503	-0.2151	-2.3632	9.8323	0.053	-0.7354	-0.3021	0.2958	0.1511	-0.2101	-0.2762	-0.2281
-2.6685	-0.2549	9.3354	0.0049	0.517	-0.0338	0.2047	-0.5935	-1.7531	1.0429	0.8502	9.6457	-0.2434	0.3454	-0.0385	0.0682	-0.1677	-2.4059	10.1319	-0.0631	-0.4452	-0.1482	0.1943	0.3905	-0.2281	-0.2642	-0.2462
-2.7387	0.0321	8.7599	0.2495	0.3683	-0.2246	0.151	-0.5232	-1.7341	0.9835	0.3882	9.528	-0.1177	0.3327	0.1774	0.1229	-0.0968	-2.3842	10.1904	0.1115	-0.4437	-0.0234	0.1189	0.7853	-0.2041	-0.2822	-0.2342
-3.2542	-0.4273	9.0935	0.1882	0.397	-0.1619	0.1682	-0.5938	-1.7541	0.7581	1.0241	9.9307	-0.1488	0.4315	0.0598	-0.0011	-0.1472	-2.3649	10.0018	0.1684	-1.0736	-0.235	-0.042	1.0554	-0.2161	-0.2642	-0.2281
-3.1279	-0.2533	9.6137	0.0964	0.3688	-0.1948	0.1675	-0.5689	-1.799	1.1009	0.7923	9.6466	-0.3313	0.4225	0.3084	0.0509	-0.1685	-2.385	9.5339	0.111	-0.9687	-0.1175	-0.0263	0.5326	-0.2221	-0.2942	-0.2221
-3.0824	-0.2549	8.9823	-0.1203	0.0631	-0.2125	0.1513	-0.5476	-1.7113	0.7008	0.5045	9.929	-0.2413	0.4653	0.0314	0.0329	-0.1688	-2.4067	9.7146	0.1695	-0.7373	-0.0916	0.0537	-0.0477	-0.2342	-0.2762	-0.2402
-2.9631	-0.0241	9.1577	-0.0911	0.0246	-0.0607	0.1502	-0.5702	-1.7551	0.8684	0.5616	9.5841	-0.2389	0.5515	0.1612	0.1043	-0.1437	-2.3841	9.656	0.0532	-0.7387	-0.3405	0.0764	-0.6902	-0.2342	-0.2762	-0.2281
-2.851	-0.2555	8.9294	-0.0613	-0.0389	-0.0332	0.1688	-0.5225	-1.7558	0.8165	0.6776	9.9313	-0.4848	0.6817	0.1086	0.0148	-0.1925	-2.4068	9.8899	0.111	-0.7911	0.0222	-0.0101	-0.9744	-0.2281	-0.2642	-0.2342
-2.7899	-0.6013	9.0448	-0.0893	0.095	-0.2414	0.1868	-0.5461	-1.7547	0.6962	0.8507	9.6974	-0.7607	0.7433	0.2071	0.0866	-0.1443	-2.3845	9.6583	-0.063	-0.6251	0.1147	-0.1716	-0.7683	-0.2281	-0.2642	-0.2281
-2.7938	-0.3711	8.8728	-0.2756	-0.2126	-0.2283	0.2046	-0.5453	-1.7765	0.7562	0.9085	9.8146	-0.4835	0.7079	0.2035	0.0874	-0.1447	-2.3418	10.0108	0.1113	-0.618	0.0876	-0.2784	-0.3124	-0.2041	-0.2702	-0.2221
-3.0223	-0.0818	9.0989	-0.2133	0.085	0.0032	0.2059	-0.4989	-1.7332	0.4638	0.5622	9.6349	-0.5168	0.5577	0.1318	0.0515	-0.1219	-2.4068	10.1271	0.2274	-0.6724	0.3364	-0.0501	0.1894	-0.2161	-0.2702	-0.2221
-3.1416	0.264	8.9824	-0.2754	-0.1818	-0.2267	0.1327	-0.5953	-1.7106	0.9327	0.5042	9.9332	-0.5167	0.6222	0.0739	0.1043	-0.1437	-2.3841	10.0094	0.344	-0.6744	0.1878	-0.0318	0.622	-0.2101	-0.2762	-0.2462
-2.915	-0.1985	8.6409	-0.4585	-0.0897	-0.1614	0.1691	-0.5468	-1.733	0.5816	0.6777	9.7531	-0.6687	0.6142	0.2914	0.1048	-0.1205	-2.3843	9.83	0.0527	-0.8493	0.4615	0.0929	0.5033	-0.2221	-0.2762	-0.2342
-3.256	-0.0815	9.0368	-0.1208	0.0308	-0.1835	0.1863	-0.5455	-1.7769	0.9325	0.6197	9.9333	-0.5159	0.4564	0.3115	0.051	-0.1451	-2.4065	9.7101	0.2272	-0.9651	0.4293	0.0058	0.3453	-0.2101	-0.2762	-0.2342
-2.6214	0.0896	8.8199	-0.0291	0.0296	-0.183	0.1689	-0.5706	-1.7325	0.811	0.9659	9.6416	-0.3323	0.3948	0.2445	0.0694	-0.145	-2.3635	10.0152	0.1701	-0.3899	0.4573	0.1404	-0.0169	-0.2281	-0.2702	-0.2342
-2.7251	-0.4276	9.3914	-0.0909	0.1423	0.0685	0.1324	-0.571	-1.7334	0.9301	0.8505	9.8176	-0.4535	0.5168	0.3151	0.0688	-0.1916	-2.3417	9.8392	-0.179	-0.3941	0.4567	0.2992	-0.1624	-0.2101	-0.2822	-0.2161
-2.9013	-0.1392	9.3311	-0.2758	0.1066	0.2191	0.1876	-0.571	-1.7098	0.4666	0.7934	9.8092	-0.1781	0.3599	0.2726	0.0869	-0.1679	-2.3415	9.7078	0.2269	-1.079	0.7883	0.059	-0.4543	-0.2101	-0.2642	-0.2221
-2.844	0.2643	9.3332	-0.028	0.2986	0.0158	0.1491	-0.5929	-1.7989	0.7587	0.5622	9.9301	-0.0576	0.1764	0.198	0.0168	-0.1703	-2.3216	9.7807	0.5779	-0.3365	0.6656	0.0948	-0.5745	-0.2161	-0.2642	-0.2221
-2.9135	-0.3713	8.698	0.0036	0.3922	-0.0097	0.187	-0.5223	-1.7553	0.9286	0.4462	9.7011	0.0657	0.0776	0.2842	0.0514	-0.1453	-2.3852	10.1906	-0.0049	-0.444	0.819	0.1521	-0.4805	-0.2101	-0.2762	-0.2402
-2.3264	-0.3141	8.9972	0.2487	0.5375	0.1226	0.1879	-0.5234	-1.7109	0.9293	0.6772	9.7594	0.3706	-0.106	0.1467	0.0682	-0.1677	-2.4059	10.1271	0.2274	-0.6724	0.8205	-0.0732	-0.1847	-0.2161	-0.2882	-0.2342
-3.1409	-0.0819	8.9816	0.3728	0.6931	0.0702	0.1679	-0.5695	-1.7768	0.6975	0.6775	9.7552	0.2794	-0.0783	0.242	0.0176	-0.1474	-2.3005	9.7723	0.1111	-0.7933	0.8544	0.2889	0.049	-0.2161	-0.2702	-0.2221
-2.6059	-0.1968	9.5667	0.4027	0.5428	-0.0298	0.1865	-0.5936	-1.7536	0.9303	0.735	9.8175	0.3689	-0.1952	0.0788	0.05	-0.1914	-2.4061	9.36	-0.1214	-0.8587	0.4917	0.1561	0.4448	-0.2161	-0.2882	-0.2342
-3.1391	-0.4276	9.0383	0.3699	0.3831	0.0844	0.1686	-0.5463	-1.7552	0.641	0.3312	9.8117	0.5557	-0.1091	0.1456	0.0521	-0.1458	-2.3425	9.5982	0.1116	-0.6828	0.521	0.004	0.3752	-0.2161	-0.2702	-0.2281
-3.0803	-0.1394	9.0976	0.2493	0.658	0.1905	0.1874	-0.4747	-1.7565	0.9887	0.3308	9.818	0.3704	-0.0077	0.0289	0.0511	-0.1922	-2.342	9.3675	0.1706	-0.4592	0.5484	0.2031	-0.0759	-0.2101	-0.2702	-0.2221
-2.8017	-0.4297	8.4701	0.1552	0.2654	0.0152	0.1144	-0.5474	-1.7344	0.6418	0.5623	9.87	0.403	0.081	0.0966	0.0683	-0.2148	-2.3414	10.0096	0.1694	-0.6748	0.1785	0.1297	-0.5687	-0.1981	-0.2822	-0.2281
-3.1972	-0.4275	9.0371	0.2809	0.5766	-0.0595	0.2046	-0.5453	-1.7765	0.7555	0.6775	9.7562	0.278	0.0261	0.0004	0.0513	-0.1687	-2.3636	9.8291	-0.0639	-0.9066	0.1474	-0.0239	-0.5764	-0.2281	-0.2702	-0.2281
-2.5588	-0.4289	8.9923	0.4322	0.5646	0.156	0.1865	-0.5217	-1.7775	0.6375	0.6774	9.6381	0.2145	-0.0621	-0.0671	0.0685	-0.168	-2.3846	9.3611	-0.0631	-0.8016	0.2411	0.2165	-0.4109	-0.2221	-0.2822	-0.2342
-2.3135	-0.4279	9.6295	0.5901	1.0605	0.0913	0.1147	-0.5717	-1.7117	1.1014	0.4459	9.6462	0.3663	-0.4105	0.0648	0.0863	-0.144	-2.4058	9.7127	-0.1218	-0.852	0.3016	0.1862	-0.4438	-0.2221	-0.2762	-0.2342
-3.0822	-0.3702	8.9821	0.9573	1.3778	0.4795	0.1686	-0.5463	-1.7552	0.6347	1.197	9.5228	0.7043	-0.4101	-0.0609	0.0875	-0.1213	-2.3633	10.4258	-0.1216	-0.4398	0.1504	0.0268	-0.2356	-0.2101	-0.2642	-0.2281
-2.7855	-0.4854	9.2751	1.3577	1.6532	0.4353	0.2047	-0.5935	-1.7531	0.4653	0.9665	9.7514	0.6448	-0.4842	0.214	0.0531	-0.0994	-2.343	9.8405	-0.2953	-0.3375	0.5464	-0.1959	-0.1274	-0.2161	-0.2822	-0.2402
-2.7836	-0.2545	9.3906	1.3297	1.7577	0.1949	0.1689	-0.5706	-1.7325	0.6399	0.3889	9.7538	0.8877	-0.6975	0.0748	0.1038	-0.1669	-2.3839	10.0085	0.111	-0.7319	0.1244	-0.2408	0.4272	-0.2281	-0.2762	-0.2281
-3.1357	-0.3696	9.2109	1.9715	2.0672	0.6766	0.1678	-0.5933	-1.7763	0.3482	1.0821	9.6915	1.0463	-0.3311	0.0979	0.0502	-0.168	-2.4277	9.7283	-0.1198	-0.0544	0.0346	-0.371	0.6671	-0.2101	-0.2762	-0.2462
-3.195	-0.3696	9.1523	2.519	1.459	0.3095	0.2047	-0.5935	-1.7531	0.6389	0.3311	9.6957	1.2924	-0.3322	0.0346	0.0694	-0.145	-2.3635	9.3054	0.1703	-0.6312	0.0032	-0.1792	0.4621	-0.2041	-0.2822	-0.2161
-2.8556	-0.2561	8.6994	2.1493	1.3876	0.6106	0.1871	-0.5704	-1.732	0.7508	1.0813	9.5247	1.1379	-0.2636	-0.0534	0.0865	-0.1677	-2.3629	9.8879	-0.1221	-0.9056	0.1196	-0.3471	-0.101	-0.2161	-0.2762	-0.2342
-2.7253	-0.37	9.3915	1.9049	1.276	0.4187	0.1857	-0.5687	-1.7986	0.9893	0.735	9.8765	0.8631	0.0531	-0.1247	0.0859	-0.1438	-2.4272	10.1261	0.1109	-0.7297	0.0247	-0.3951	-0.5025	-0.2161	-0.2762	-0.2402
-2.6175	-0.7172	8.9329	1.3222	1.0395	0.3408	0.2048	-0.5697	-1.7537	0.4618	0.4466	9.5187	0.7096	0.1172	-0.1198	0.0165	-0.1466	-2.3646	9.5358	0.4023	-0.8541	-0.0975	-0.2988	-0.5887	-0.2281	-0.2882	-0.2462
-2.7926	-0.371	8.9303	0.8925	0.7144	0.1362	0.2047	-0.5935	-1.7531	0.8152	0.9085	9.8736	0.5887	0.2699	-0.0472	0.1051	-0.1208	-2.363	9.7132	0.4605	-0.7936	-0.1265	-0.2102	-0.4609	-0.2161	-0.2822	-0.2221
-2.7901	-0.486	9.045	0.4337	0.6909	0.1012	0.1862	-0.5693	-1.7764	0.8081	0.7347	9.4673	0.2195	0.2716	0.0477	0.087	-0.1445	-2.3631	9.7732	0.2859	-0.7359	0.026	-0.4943	-0.2924	-0.2281	-0.2582	-0.2342
-3.2499	-0.2538	9.3239	0.2816	0.6104	-0.1192	0.1684	-0.57	-1.7546	0.8746	0.562	9.9322	-0.18	0.4013	0.058	0.0699	-0.1218	-2.3637	9.4908	0.0548	-0.1724	0.3938	-0.4437	-0.0468	-0.2281	-0.2762	-0.2342
-2.7983	-0.4293	8.6426	0.1585	0.5194	-0.1249	0.1866	-0.5699	-1.7542	0.4656	0.7356	9.7511	-0.3947	0.5617	0.0073	0.0685	-0.168	-2.3846	9.5985	-0.1212	-0.6833	0.3665	-0.487	0.3509	-0.2221	-0.2762	-0.2402
-2.7353	0.0325	8.9324	-0.2109	0.2759	-0.1095	0.2058	-0.5708	-1.7093	0.6927	1.1391	9.5237	-0.3024	0.3988	0.1515	0.0521	-0.1458	-2.3425	9.6623	0.4033	-0.3961	0.2178	-0.2494	0.672	-0.2161	-0.2762	-0.2161
-3.3158	-0.4276	8.9198	-0.4596	-0.0969	-0.0082	0.1884	-0.524	-1.6887	0.9829	0.8501	9.5286	-0.2105	0.4003	0.0891	0.0694	-0.145	-2.3635	9.6532	0.5186	-0.8516	0.0036	-0.0869	0.4669	-0.2161	-0.2762	-0.2462
-2.9628	-0.1971	9.1573	-0.3678	-0.1849	-0.1352	0.2048	-0.5697	-1.7537	0.9878	0.2152	9.7598	-0.2079	0.6155	0.1031	0.0685	-0.168	-2.3846	9.5349	0.2275	-0.9115	0.152	-0.0734	0.0052	-0.2161	-0.2822	-0.2281
-2.9029	-0.4853	9.2153	-0.341	-0.501	0.0017	0.224	-0.5706	-1.7088	1.0444	0.5038	9.7032	-0.1164	0.6185	0.0097	0.0866	-0.1443	-2.3845	9.9559	-0.4121	-0.4494	-0.0329	-0.2823	-0.1579	-0.2161	-0.2762	-0.2402
-3.2514	-0.081	9.2668	-0.0939	-0.2265	0.018	0.1679	-0.5695	-1.7768	0.4623	0.8508	9.5772	-0.2394	0.6513	0.0124	0.0673	-0.1907	-2.4271	9.6497	0.6346	-1.0222	0.0577	-0.0926	-0.3333	-0.2101	-0.2762	-0.2342
-2.6754	-0.2557	8.9904	-0.306	-0.0652	-0.0669	0.2056	-0.5946	-1.7087	1.0438	0.9657	9.7038	-0.3645	0.5642	-0.0548	0.0865	-0.1677	-2.3629	9.7201	0.2285	-0.4524	0.0593	-0.3178	-0.0375	-0.2342	-0.2822	-0.2342
-3.0189	-0.6581	9.2125	-0.2767	-0.1904	-0.0427	0.1879	-0.5234	-1.7109	0.9814	0.388	9.412	-0.0841	0.741	0.0175	0.0342	-0.1461	-2.3642	9.9517	0.4024	-0.6184	-0.1808	-0.3295	0.3943	-0.2281	-0.2642	-0.2402
-2.7303	-0.7166	9.1032	-0.6117	-0.2936	-0.3885	0.151	-0.5951	-1.7102	0.6376	0.562	9.638	-0.2096	0.7859	-0.2274	0.087	-0.1445	-2.3631	9.7745	0.1696	-0.6793	-0.028	-0.2703	0.4269	-0.2342	-0.2762	-0.2281
-2.3802	-0.1981	9.2263	-0.5825	-0.3027	-0.2044	0.1314	-0.6417	-1.7539	0.7024	0.9089	10.0456	-0.3623	0.7487	-0.0428	0.0684	-0.1914	-2.363	9.8341	0.4608	-0.6205	0.0968	-0.2514	0.7651	-0.2161	-0.2762	-0.2342
-2.6735	-0.0825	9.1058	-0.8887	-0.4178	-0.3047	0.151	-0.5951	-1.7102	1.0995	1.081	9.589	-0.7293	0.9026	0.0931	0.05	-0.1914	-2.4061	10.0058	0.5764	-0.8447	-0.0265	-0.4012	0.6661	-0.2281	-0.2822	-0.2462
-3.1977	-0.1969	9.0377	-0.7955	-0.3515	-0.4235	0.2046	-0.5453	-1.7765	0.584	0.4469	9.8688	-0.5172	0.4947	0.1587	0.0689	-0.1682	-2.3632	9.7726	-0.1799	-0.794	-0.1191	-0.333	0.4859	-0.2221	-0.2762	-0.2281
-3.134	-0.081	9.3266	-0.7658	-0.3577	-0.3007	0.1329	-0.5715	-1.7112	0.9263	0.5615	9.5852	-0.3	0.485	0.2813	0.0337	-0.1693	-2.364	9.9508	0.2276	-0.6758	-0.3042	-0.4477	0.2662	-0.2221	-0.2642	-0.2281
-2.7965	-0.1408	8.7583	-0.7364	-0.5109	-0.3395	0.1866	-0.5699	-1.7542	0.4638	0.5622	9.6349	-0.21	0.4956	0.0332	0.0499	-0.2149	-2.3845	9.8966	0.1118	-0.4493	-0.3352	-0.2261	0.0935	-0.2041	-0.2822	-0.2342
-2.9536	-0.196	9.6173	-0.8885	-0.4458	-0.3677	0.2597	-0.5454	-1.7529	0.5839	0.5046	9.8689	-0.24	0.4593	0.1552	0.0508	-0.1919	-2.3634	10.3008	-0.4717	-0.8416	-0.3656	-0.1008	0.0387	-0.2161	-0.2762	-0.2342
-2.8462	-0.3703	9.1592	-0.7658	-0.4739	-0.4606	0.1856	-0.5206	-1.8219	0.6398	0.5044	9.7539	-0.0549	0.4884	0.1252	0.0865	-0.1677	-2.3629	9.7748	-0.1214	-0.68	-0.302	-0.1429	0.3743	-0.2161	-0.2822	-0.2221
-3.6071	-0.1387	8.9147	-0.4286	-0.2695	-0.2938	0.1491	-0.5929	-1.7989	0.5817	0.6199	9.753	-0.2389	0.5193	0.1901	0.0684	-0.1914	-2.363	9.8427	-0.2368	-0.2234	0.036	0.1243	0.6006	-0.2221	-0.2762	-0.2281
-3.1979	-0.0816	9.0379	-0.5176	0.0696	-0.2455	0.1873	-0.5466	-1.7326	0.8744	0.7353	9.9324	-0.2759	0.289	-0.1352	0.068	-0.1912	-2.3844	9.658	0.2281	-0.6244	-0.1175	-0.1513	0.5876	-0.1981	-0.2762	-0.2402
-2.7293	-0.0821	9.2197	-0.2127	-0.0563	-0.281	0.2042	-0.5929	-1.7753	0.876	0.3312	9.9899	-0.2445	0.2209	-0.0156	0.0525	-0.1461	-2.3211	9.8268	-0.0641	-1.0205	0.1866	-0.0269	0.4686	-0.2041	-0.2702	-0.2342
-3.0765	-0.3119	9.2697	-0.2093	0.3154	-0.2918	0.1691	-0.5468	-1.733	1.1025	0.3882	9.7041	0.0933	0.0922	-0.0255	0.0329	-0.1688	-2.4067	10.1202	0.4012	-1.0138	0.3077	-0.1818	0.4595	-0.2161	-0.2942	-0.2402
-2.8406	-0.2543	9.447	0.094	0.1206	-0.1774	0.1326	-0.5472	-1.734	0.7009	0.4468	9.9289	0.3998	-0.1312	0.0207	0.0513	-0.1687	-2.3636	9.7128	-0.18	-0.8521	-0.0858	-0.094	0.7133	-0.2101	-0.2702	-0.2161
-2.7843	-0.4853	9.3326	0.0337	0.2139	-0.1727	0.1684	-0.57	-1.7546	1.051	1.024	10.11	0.3104	0.0503	0.1261	0.0503	-0.2151	-2.3632	9.879	-0.1233	-1.3613	0.1008	-0.1103	1.1721	-0.2221	-0.2822	-0.2462
-3.1421	-0.082	8.9241	-0.0897	0.0921	-0.1801	0.2056	-0.5946	-1.7087	0.8104	0.5617	9.5831	0.1853	-0.0691	0.0878	0.0869	-0.1679	-2.3415	9.7168	0.228	-0.6233	-0.172	-0.2072	1.3846	-0.2221	-0.2822	-0.2402
-2.9639	-0.1972	9.0998	-0.1175	0.4892	-0.0668	0.2413	-0.5693	-1.7528	0.8714	0.6196	9.7583	-0.0591	0.0212	0.219	0.1029	-0.1898	-2.405	9.5946	0.344	-0.8531	-0.3246	-0.0481	1.2711	-0.2221	-0.2762	-0.2402
-2.9091	-0.2554	8.9283	-0.0574	0.3356	-0.1053	0.1686	-0.5463	-1.7552	1.105	0.8504	9.8787	0.0672	0.4924	0.0007	0.0689	-0.1682	-2.3632	9.7167	0.2862	-0.6231	-0.3589	-0.1581	0.8659	-0.2342	-0.2822	-0.2462
-3.0268	-0.14	8.8687	-0.1178	0.2539	-0.3253	0.186	-0.5931	-1.7758	0.8154	0.7353	9.8734	0.0944	0.1522	0.0095	0.0692	-0.1214	-2.4064	9.9486	0.1109	-0.79	-0.2412	-0.3935	0.4837	-0.2161	-0.2822	-0.2342
-3.1988	-0.1971	8.9802	-0.1194	0.0982	-0.3029	0.1876	-0.571	-1.7098	0.7587	0.6199	9.9302	0.1292	0.4899	0.0313	0.1212	-0.1898	-2.3619	9.891	0.1111	-0.7341	-0.1191	-0.333	0.4859	-0.2281	-0.2822	-0.2402
-3.1418	0.3793	8.9827	-0.2709	0.3133	-0.2309	0.1695	-0.5474	-1.7108	0.8076	1.1389	9.4678	0.1584	0.2373	0.1389	0.0698	-0.1453	-2.3421	9.594	-0.0636	-0.911	-0.1784	-0.3702	0.6997	-0.2101	-0.2762	-0.2281
-2.96	0.1492	9.3306	-0.0272	0.2749	-0.1391	0.1678	-0.5933	-1.7763	0.9847	0.215	9.5858	0.095	0.1814	0.0424	0.0333	-0.169	-2.3853	9.8907	0.344	-0.7336	0.0663	-0.2511	0.7654	-0.2221	-0.2822	-0.2402
-3.1351	-0.6578	9.2102	0.1583	0.4312	-0.2218	0.187	-0.6423	-1.7081	0.6978	0.4466	9.7549	0.2177	0.1501	0.0088	0.0693	-0.1685	-2.3419	9.9509	0.1112	-0.676	0.1263	-0.4045	0.7262	-0.2281	-0.2822	-0.2342
-2.9606	-0.1392	9.2724	0.067	0.4352	-0.2836	0.1876	-0.571	-1.7098	0.6345	0.5617	9.4639	0.43	-0.1287	-0.0414	0.0345	-0.1463	-2.3429	9.8887	0.1691	-0.8479	0.0978	-0.1302	0.8329	-0.2161	-0.2762	-0.2221
-2.7878	0.0909	9.2189	0.2818	0.728	0.01	0.151	-0.5951	-1.7102	0.9303	0.735	9.8175	0.3075	-0.1957	0.1101	0.0856	-0.1906	-2.384	10.0674	-0.0055	-0.7311	0.0089	-0.1701	1.139	-0.2101	-0.2822	-0.2342
-2.8543	-0.3136	8.7568	0.4646	0.5757	-0.0891	0.1856	-0.6406	-1.7747	0.47	0.5626	9.9829	0.3984	-0.2542	0.0127	0.0874	-0.1447	-2.3418	9.8891	-0.1802	-0.8488	0.1037	-0.3097	1.623	-0.2161	-0.2762	-0.2281
-2.9103	-0.2556	8.8708	0.403	0.603	0.0041	0.2057	-0.5227	-1.7327	0.9906	0.5042	9.9342	0.5567	-0.0491	0.1806	0.068	-0.1912	-2.3844	9.6614	0.2285	-0.4535	-0.0177	-0.2164	1.6288	-0.2281	-0.2822	-0.2281
-2.6206	0.2627	8.8778	0.3721	0.6299	0.0976	0.1511	-0.5713	-1.7107	0.6948	1.1393	9.6398	0.5537	-0.1323	-0.0111	0.086	-0.1909	-2.3627	9.9431	0.1102	-1.0748	0.0717	-0.2092	1.3825	-0.2161	-0.2762	-0.2342
-2.9636	-0.3702	9.0994	0.4318	0.4161	0.0251	0.1508	-0.547	-1.7335	0.8652	0.5614	9.4101	0.3677	-0.1246	-0.1029	0.0703	-0.1221	-2.3424	9.5999	-0.354	-0.6269	0.0352	-0.3422	0.7301	-0.2221	-0.2882	-0.2402
-2.7317	-0.6014	9.0459	0.2185	0.3658	-0.1634	0.2063	-0.5714	-1.6871	1.1023	0.5615	9.7043	0.3692	-0.0017	-0.0949	0.0521	-0.1458	-2.3425	9.7141	0.6352	-0.7362	-0.1223	-0.2894	0.0884	-0.2161	-0.2882	-0.2342
-3.4254	-0.3112	9.2628	0.4027	0.5428	-0.0298	0.151	-0.5232	-1.7341	0.8176	0.6199	9.9893	0.4318	-0.0395	0.0265	0.122	-0.1198	-2.4053	9.8339	0.5772	-0.6202	-0.0018	-0.2538	-0.0952	-0.2161	-0.2702	-0.2342
-2.6713	-0.0246	9.221	0.3409	0.3936	-0.1304	0.187	-0.5223	-1.7553	0.8133	0.7929	9.7574	0.1857	0.0261	0.0319	0.0854	-0.1669	-2.4269	9.3697	0.2291	-0.3451	0.059	-0.16	-0.1523	-0.2161	-0.2702	-0.2342
-3.0809	-1.0044	8.9805	0.1898	0.5821	-0.152	0.2061	-0.5952	-1.6865	0.5776	0.5619	9.5209	0.2804	-0.0506	0.3059	0.0523	-0.1224	-2.3641	10.0667	0.6931	-0.7294	-0.1496	-0.1759	0.4021	-0.2101	-0.2642	-0.2281
-3.0253	0.2638	8.9847	0.2802	0.4561	-0.1275	0.1512	-0.6195	-1.6874	0.2374	0.3319	9.9205	0.2808	0.0125	0.279	0.0866	-0.1443	-2.3845	9.6539	-0.0635	-0.853	0.0674	-0.0675	0.8057	-0.2161	-0.2882	-0.2281
-2.6709	-0.1975	9.2206	0.3716	0.4815	-0.0333	0.15	-0.594	-1.7545	0.7517	1.1969	9.5829	0.1874	0.0508	0.1577	0.0691	-0.1919	-2.3203	9.8442	0.4038	-0.1079	-0.2023	-0.1762	1.3864	-0.2161	-0.2762	-0.2462
-3.3691	0.0344	9.2073	0.3073	0.1415	-0.0212	0.1694	-0.5712	-1.7103	0.6966	0.562	9.697	0.0952	0.2782	-0.0444	0.0503	-0.1446	-2.4492	9.5995	-0.0629	-0.6262	-0.3241	0.1067	1.2484	-0.2101	-0.2702	-0.2221
-3.0799	-0.37	9.0971	0.0629	0.0299	-0.2131	0.2247	-0.5474	-1.6872	0.4676	0.8512	9.8673	-0.0883	0.2737	0.1114	0.0508	-0.1919	-2.3634	9.8375	0.403	-0.4497	-0.0561	-0.0288	0.5934	-0.2101	-0.2642	-0.2281
-2.4993	0.0324	9.1096	-0.0907	0.0275	-0.1221	0.1689	-0.5706	-1.7325	1.0367	0.8497	9.2976	-0.3902	0.7678	0.207	0.0875	-0.1213	-2.3633	9.4783	0.2861	-0.7985	-0.1243	-0.0622	-0.2687	-0.2041	-0.2702	-0.2281
-3.0275	-0.3708	8.8107	-0.0923	-0.1576	-0.132	0.1671	-0.6165	-1.7979	0.9832	0.6191	9.5283	-0.8239	0.8164	-0.0052	0.05	-0.1914	-2.4061	9.4843	-0.1207	-0.5146	-0.3742	-0.1924	-0.9499	-0.2101	-0.2762	-0.2462
-2.962	-0.024	9.2152	-0.1841	-0.1858	-0.1648	0.2048	-0.5697	-1.7537	0.7505	0.5039	9.466	-0.7274	1.0886	0.0741	0.0511	-0.1922	-2.342	10.1827	0.0523	-0.8426	-0.3433	-0.3197	-0.8338	-0.2161	-0.2702	-0.2161
-2.9082	-0.7166	8.9272	-0.3962	-0.0539	-0.2821	0.2237	-0.5463	-1.7316	0.4092	0.3315	9.8076	-0.7874	0.9192	0.4049	0.0876	-0.1684	-2.2988	9.8344	0.1115	-0.6213	-0.1246	-0.4056	-0.1328	-0.2281	-0.2882	-0.2342
-3.0814	-0.1972	9.04	-0.3332	0.1318	-0.3024	0.1687	-0.5944	-1.7319	0.6367	1.2548	9.6389	-0.5468	0.652	0.107	0.0684	-0.1914	-2.363	9.5954	-0.3545	-0.8548	-0.0282	-0.2693	0.3962	-0.2101	-0.2822	-0.2281
-2.5592	-0.1983	8.9928	-0.2405	0.1658	-0.3922	0.2051	-0.594	-1.7309	0.9866	1.1968	9.7611	-0.6086	0.6207	0.1363	0.068	-0.1912	-2.3844	9.9576	0.1121	-0.3342	-0.179	-0.2114	0.5542	-0.2041	-0.2822	-0.2281
-3.137	-0.3121	9.1536	-0.2123	0.0334	-0.2147	0.1863	-0.6174	-1.753	0.6404	0.8509	9.8124	-0.4224	0.7099	0.1412	0.07	-0.0984	-2.3853	9.8346	-0.0632	-0.6217	-0.2409	-0.2069	0.4319	-0.2161	-0.2822	-0.2402
-2.613	-0.659	9.1631	-0.182	0.0022	-0.2162	0.1142	-0.5711	-1.7339	0.8684	0.5039	9.5841	-0.4852	0.6187	0.1356	0.0518	-0.1456	-2.3638	9.7819	-0.4699	-0.339	-0.1525	-0.0708	0.0078	-0.2161	-0.2762	-0.2402
-2.84	0.0341	9.5052	-0.1505	0.0369	-0.3064	0.2058	-0.5708	-1.7093	0.7018	0.5623	9.9871	-0.5122	0.8284	0.2736	0.0508	-0.1919	-2.3634	9.6013	0.3449	-0.5113	-0.0647	-0.1829	-0.3677	-0.2221	-0.2762	-0.2342
-2.7917	-0.2555	8.9881	-0.2434	0.0309	-0.1536	0.1869	-0.5942	-1.7314	0.7587	0.6199	9.9302	-0.5762	0.8077	0.0862	0.0497	-0.1912	-2.4274	9.78	0.2285	-0.3943	0.0234	-0.2651	-0.7109	-0.2281	-0.2822	-0.2221
-3.0248	0.0332	8.9842	-0.2443	-0.1205	-0.2232	0.1689	-0.5706	-1.7325	0.9292	0.735	9.7594	-0.5779	0.7185	0.0183	0.0502	-0.168	-2.4277	9.5497	-0.0617	-0.1716	0.0577	-0.2176	-0.2783	-0.2161	-0.2642	-0.2221
-3.0245	-0.1398	8.9838	-0.2439	-0.0602	-0.1892	0.1504	-0.5464	-1.7557	1.2177	0.9078	9.7069	-0.5145	0.7744	0.1148	0.1049	-0.1676	-2.3198	9.5313	0.4017	-1.0819	0.2464	-0.086	0.3728	-0.1981	-0.2702	-0.2402
-2.9026	-0.6583	9.2148	-0.3368	-0.1824	-0.1963	0.1871	-0.5704	-1.732	0.469	0.5626	9.9249	-0.635	0.9902	0.1604	0.0871	-0.1211	-2.3847	9.6629	-0.1206	-0.3974	0.0062	-0.2535	0.858	-0.2221	-0.2882	-0.2281
-3.1379	0.1491	9.1547	-0.3355	-0.087	-0.2527	0.206	-0.547	-1.7099	0.8676	1.1967	9.585	-0.9141	0.8719	0.154	0.0327	-0.2157	-2.3635	9.654	-0.2382	-0.8534	0.006	-0.2843	0.8564	-0.2101	-0.2822	-0.2342
-2.9653	-0.0821	9.0426	-0.5501	-0.1753	-0.2896	0.1863	-0.5455	-1.7769	0.9841	0.7347	9.5864	-0.9127	0.8981	0.2489	0.1231	-0.1205	-2.3413	9.7113	0.1109	-0.9084	0.1883	-0.2214	0.7659	-0.2221	-0.2882	-0.2281
-2.9068	-0.2551	9.0433	-0.3677	-0.2717	-0.2628	0.2236	-0.4981	-1.7549	0.8798	0.5624	10.2223	-1.1608	0.9083	0.1265	0.0869	-0.1679	-2.3415	9.5382	0.228	-0.7406	0.2479	0.0024	0.5003	-0.2041	-0.2702	-0.2342
-2.9055	-0.3703	9.1005	-0.3659	-0.1146	-0.3158	0.1324	-0.571	-1.7334	1.0422	0.6191	9.5873	-1.001	1.2041	0.3313	0.0695	-0.1216	-2.3851	10.0162	0.2284	-0.3328	0.2781	-0.2162	0.581	-0.2342	-0.2822	-0.2462
-2.7371	-0.1984	8.8169	-0.3657	0.0325	-0.1543	0.1318	-0.5942	-1.755	1.0419	0.7923	9.5876	-1.2814	0.995	0.2879	0.0511	-0.1922	-2.342	9.8364	0.4028	-0.5067	0.3086	-0.2165	0.5807	-0.2101	-0.2822	-0.2161
-2.79	-0.5436	9.0449	-0.3039	-0.139	-0.4704	0.1874	-0.5948	-1.7092	0.2973	0.4474	10.0377	-0.8814	1.0251	0.1638	0.0508	-0.1919	-2.3634	9.2449	-0.2374	-0.7473	0.1291	-0.1335	0.9247	-0.2161	-0.2702	-0.2221
-2.7891	-0.4282	9.1027	-0.5206	-0.2697	-0.2637	0.169	-0.6187	-1.7091	0.8729	1.0816	9.8749	-1.1903	0.935	0.2215	0.0505	-0.1683	-2.4063	10.1254	-0.2967	-0.7876	0.0086	-0.3567	1.1908	-0.2221	-0.2702	-0.2281
-2.9673	-0.2553	8.9271	-0.6139	-0.5698	-0.434	0.169	-0.6187	-1.7091	0.6447	0.7357	10.0443	-0.9742	0.8653	0.3091	0.0174	-0.1237	-2.3435	9.7723	0.1693	-0.7932	0.0083	-0.2306	1.1051	-0.2101	-0.2822	-0.2221
-3.1913	0.0922	9.3834	-0.5825	-0.4777	-0.4289	0.1871	-0.5704	-1.732	0.4629	1.1973	9.6357	-0.8842	0.6486	0.2946	0.1222	-0.1434	-2.3624	9.8951	0.461	-0.5054	-0.0851	-0.4096	0.9429	-0.2101	-0.2822	-0.2342
-2.9045	-0.2549	9.1583	-1.0727	-0.7389	-0.6612	0.1504	-0.5464	-1.7557	1.0524	0.7931	10.1677	-0.9138	0.8058	0.2429	0.0694	-0.145	-2.3635	9.5926	0.1109	-0.9676	-0.147	-0.3426	0.7931	-0.2101	-0.2582	-0.2221
-2.9662	-0.1975	8.9848	-1.9575	-0.4233	-0.5578	0.2044	-0.5691	-1.7759	0.6961	0.9661	9.6976	-0.6693	0.6172	0.2295	0.1039	-0.214	-2.3194	9.7135	0.1112	-0.7944	-0.2969	-0.3819	1.0998	-0.2161	-0.2822	-0.2281
-2.7321	-0.4284	9.0463	-0.7675	-0.6016	-0.3752	0.1878	-0.5472	-1.7104	0.988	0.9082	9.8187	-0.7608	0.6788	0.265	0.0514	-0.1453	-2.3852	9.952	0.1114	-0.6191	-0.0509	-0.4871	1.4305	-0.2221	-0.2582	-0.2342
-3.0191	-0.5428	9.2128	-1.1044	-0.7457	-0.5081	0.1149	-0.5479	-1.7122	0.9923	0.8508	10.0507	-1.0405	0.5634	0.1966	0.0345	-0.1463	-2.3429	9.7147	0.1113	-0.7375	-0.08	-0.4293	1.5568	-0.2101	-0.2762	-0.2342
-2.5633	0.0895	8.821	-1.0744	-0.8666	-0.5758	0.1863	-0.6174	-1.753	0.6376	0.562	9.638	-0.9452	0.9062	0.0943	0.0687	-0.1445	-2.4062	9.5387	-0.2377	-0.7417	0.0096	-0.2981	1.2861	-0.2281	-0.2762	-0.2402
-3.0303	-0.1404	8.6962	-0.8905	-0.7205	-0.4439	0.1876	-0.571	-1.7098	0.8088	0.2151	9.4666	-0.9766	0.7146	0.2372	0.104	-0.1906	-2.3409	9.8343	0.2279	-0.621	0.1005	-0.3912	1.2805	-0.2161	-0.2762	-0.2402
-2.445	-0.3141	8.8799	-1.2296	-1.0835	-0.527	0.1875	-0.5229	-1.7331	0.3468	0.5623	9.5748	-0.9464	0.7494	0.1462	0.0861	-0.1674	-2.3842	9.7676	0.3434	-1.0206	0.377	-0.4341	1.5835	-0.2161	-0.2822	-0.2342
-3.2001	-0.1395	8.9228	-1.3774	-0.4954	-0.4964	0.2061	-0.5952	-1.6865	0.4697	0.7936	9.9832	-1.0074	0.7474	0.2084	0.0342	-0.1461	-2.3642	10.0742	-0.0629	-0.3894	0.2514	-0.199	1.0126	-0.2342	-0.2762	-0.2402
-2.7961	-0.3714	8.7578	-0.9198	-0.5953	-0.4681	0.15	-0.594	-1.7545	0.8115	0.504	9.641	-0.8539	0.7479	0.1457	0.016	-0.1698	-2.3643	9.8344	0.1697	-0.6212	0.5543	-0.0388	0.7417	-0.2101	-0.2822	-0.2342
-2.8538	-0.0252	8.815	-0.3033	-0.0185	-0.4025	0.2234	-0.5938	-1.7305	0.7584	0.8509	9.9305	-0.7027	0.4348	0.1867	0.0698	-0.1453	-2.3421	9.7147	0.0531	-0.7376	0.4291	0.0693	0.2871	-0.1981	-0.2702	-0.2342
-3.0831	-0.4857	8.9243	0.0036	0.1304	-0.3618	0.1857	-0.5687	-1.7986	0.6944	0.6773	9.5812	-0.212	0.2451	0.1101	0.068	-0.1912	-2.3844	9.8377	0.1701	-0.4503	0.5187	0.0129	0.0989	-0.2221	-0.2762	-0.2281
-2.7279	-0.1973	9.2769	-0.0254	0.4321	-0.1922	0.1692	-0.523	-1.7336	0.4652	0.2736	9.6925	-0.0284	0.119	0.101	0.068	-0.1912	-2.3844	9.8353	0.3445	-0.5638	0.277	0.1013	0.29	-0.2221	-0.2762	-0.2281
-2.5586	-0.5442	8.992	0.2185	0.3952	-0.1311	0.1871	-0.5704	-1.732	1.0965	0.9653	9.4148	0.1549	0.0266	0.0321	0.1055	-0.121	-2.3416	9.8256	-0.0061	-1.0773	0.3411	-0.037	0.7435	-0.2161	-0.2822	-0.2281
-2.7334	-0.3133	8.9891	0.0668	0.4632	-0.2207	0.1499	-0.5459	-1.7779	0.7575	0.6776	9.8723	0.1571	0.1789	0.073	0.087	-0.1445	-2.3631	9.6483	-0.0642	-1.1378	0.2211	-0.1054	0.9869	-0.2041	-0.2762	-0.2161
-2.7877	0.0333	9.2188	0.1253	0.2995	-0.0446	0.1697	-0.6436	-1.6642	0.8688	1.0236	9.6427	0.0934	0.1245	-0.0544	0.087	-0.1445	-2.3631	10.0729	0.1116	-0.4459	0.0683	-0.1647	0.9543	-0.2161	-0.2822	-0.2281
-2.9732	-0.1983	8.6397	0.2201	0.6965	0.0387	0.2231	-0.5695	-1.7532	1.1644	0.5617	9.9374	0.1261	0.1149	0.1311	0.0319	-0.2152	-2.4062	10.066	0.2854	-0.7873	0.033	-0.1457	0.3714	-0.2161	-0.2762	-0.2281
-2.7286	-0.428	9.2188	0.1594	0.6707	-0.0553	0.1677	-0.5451	-1.7996	0.927	0.8503	9.6436	0.1242	-0.1034	0.179	0.1229	-0.0968	-2.3842	9.9559	-0.3539	-0.4493	0.0886	-0.3449	-0.1622	-0.2161	-0.2942	-0.2281
-2.7394	-0.1987	8.7019	0.3126	0.6422	-0.148	0.1695	-0.5474	-1.7108	0.8159	0.3888	9.8729	-0.0599	0.0902	0.0682	0.0682	-0.1677	-2.4059	9.6603	0.1702	-0.5106	0.0514	-0.1305	-1.0732	-0.2041	-0.2702	-0.2281
-2.6199	-0.0832	8.877	0.3753	0.9133	-0.0102	0.2044	-0.5691	-1.7759	0.6356	0.5041	9.5219	-0.2146	0.0298	0.0961	0.1224	-0.12	-2.384	9.8333	0.1696	-0.6781	-0.1656	-0.1765	-1.5043	-0.2221	-0.2822	-0.2402
-2.9003	-0.0814	9.3887	0.559	0.883	-0.0721	0.1505	-0.5946	-1.7324	0.8115	0.5618	9.6411	-0.1506	0.0504	0.2834	0.068	-0.1912	-2.3844	10.1273	-0.0054	-0.673	0.0499	-0.1871	-1.2298	-0.2342	-0.2702	-0.2281
-2.9046	-0.1972	9.1584	0.3732	0.8122	0.1688	0.1863	-0.6174	-1.753	0.4027	0.562	9.4598	-0.0899	0.0539	0.1902	0.0678	-0.1675	-2.4273	9.9928	0.2255	-1.5292	-0.1603	-0.0721	-0.9147	-0.2041	-0.2822	-0.2221
-2.9112	-0.371	8.813	0.4648	0.6933	0.0401	0.2238	-0.5944	-1.7083	1.099	0.6767	9.5304	0.0303	0.067	-0.12	0.0149	-0.1691	-2.4284	10.0063	0.1107	-0.8458	-0.3076	-0.0587	-0.3285	-0.1921	-0.2582	-0.2342
-3.0717	-0.4267	9.4995	0.2822	0.7015	-0.0836	0.1859	-0.5449	-1.7991	0.7546	0.5619	9.6981	0.1573	0.1128	0.1619	0.0861	-0.1674	-2.3842	9.7758	-0.0049	-0.6227	-0.3074	0.0346	-0.3544	-0.2041	-0.2822	-0.2281
-3.1973	-0.3699	9.0373	0.3419	0.6038	0.0038	0.2245	-0.5712	-1.6866	0.9822	0.5613	9.4702	0.2176	0.0211	0.1246	0.051	-0.1451	-2.4065	9.4266	-0.0623	-0.4587	-0.5274	0.2505	-1.2639	-0.2161	-0.2822	-0.2281
-2.9592	-0.2543	9.3297	0.3441	0.9094	0.0816	0.1325	-0.499	-1.7573	0.6422	1.082	9.9287	0.3396	-0.0395	0.058	0.0677	-0.1909	-2.4057	9.668	0.2876	-0.1115	-0.4092	0.3576	-1.7512	-0.2161	-0.2762	-0.2342
-3.0808	-0.4854	9.0393	1.0523	1.4556	0.1154	0.1505	-0.5946	-1.7324	0.9274	0.5616	9.6432	0.6169	-0.2377	0.2301	0.105	-0.1442	-2.3414	9.4792	0.4609	-0.7411	-0.1032	0.3808	-1.5988	-0.1981	-0.2702	-0.2221
-2.9531	-0.4266	9.6168	1.2334	1.3507	0.3261	0.2048	-0.5697	-1.7537	0.7573	0.8508	9.8725	0.3692	-0.1968	0.1097	0.0848	-0.2136	-2.4051	9.48	-0.2377	-0.7428	-0.313	0.0562	-1.0297	-0.2221	-0.2702	-0.2402
-2.7339	-0.0827	8.9897	0.9891	1.1817	0.0389	0.1497	-0.5696	-1.7773	0.4603	0.8507	9.4612	0.6161	-0.1041	0.0215	0.0518	-0.1456	-2.3638	10.0617	0.1102	-1.0156	-0.2728	-0.0757	0.193	-0.2101	-0.2702	-0.2402
-3.0311	-0.3135	8.6383	0.8336	0.934	0.0861	0.2418	-0.5699	-1.7306	0.5847	0.6779	9.9272	0.612	-0.2472	-0.2052	0.087	-0.1445	-2.3631	9.595	-0.0052	-0.8539	-0.5079	-0.2322	1.2938	-0.2281	-0.2882	-0.2221
-3.0265	-0.313	8.8683	0.8307	0.7402	0.2601	0.1691	-0.5468	-1.733	1.0419	0.7923	9.5876	0.4626	-0.04	0.0263	0.0867	-0.1914	-2.32	9.4231	0.0537	-0.6293	-0.4783	-0.1977	1.1723	-0.2221	-0.2642	-0.2342
-3.3669	-0.4843	9.2635	0.7083	0.6536	0.1625	0.1691	-0.5468	-1.733	0.8164	0.7931	9.9315	0.4629	-0.0415	0.0573	0.0341	-0.2166	-2.2781	9.6467	0.3431	-1.1938	-0.4507	0.0947	0.6953	-0.2041	-0.2702	-0.2161
-3.1343	0.0919	9.327	0.4028	0.456	-0.1574	0.2051	-0.594	-1.7309	0.751	0.9081	9.5245	0.2815	0.269	0.0783	0.0865	-0.1677	-2.3629	9.7227	-0.0623	-0.3391	-0.3671	0.187	-0.2845	-0.2161	-0.2762	-0.2342
-2.8466	-0.1397	9.1597	0.033	0.2096	-0.0808	0.1515	-0.5238	-1.7119	0.2337	0.8513	9.7471	-0.0594	0.2178	-0.0166	0.0674	-0.2378	-2.3626	9.6549	-0.0052	-0.7958	-0.4057	0.2187	-1.2665	-0.2161	-0.2762	-0.2281
-3.0201	-0.0239	9.2141	-0.0283	0.3839	0.174	0.1336	-0.5483	-1.6896	0.9286	0.4462	9.7011	-0.3328	0.4624	0.1247	0.0504	-0.1917	-2.3847	10.0107	0.1695	-0.6178	-0.1013	0.1854	-1.2707	-0.2161	-0.2762	-0.2342
-3.0815	-0.7162	8.9812	-0.0572	0.337	-0.136	0.1494	-0.5453	-1.8001	0.809	0.8503	9.5255	-0.2445	0.0258	0.1891	0.0855	-0.214	-2.3624	10.1801	0.4013	-0.9557	-0.0048	-0.1169	-0.5185	-0.2161	-0.2942	-0.2221
-2.6751	-0.4287	8.99	0.0335	0.2419	-0.1098	0.188	-0.5715	-1.6876	0.8114	0.6195	9.6412	-0.1226	0.0636	0.0047	0.087	-0.1445	-2.3631	9.9536	0.6938	-0.5037	0.0354	-0.0613	0.6217	-0.2221	-0.2822	-0.2342
-3.079	-0.2545	9.1548	-0.1497	0.2457	-0.1415	0.1681	-0.6176	-1.7535	1.1059	1.0237	9.937	0.0615	-0.1301	0.1155	0.0345	-0.1463	-2.3429	9.8363	0.461	-0.5065	0.0773	0.0817	1.9203	-0.2161	-0.2882	-0.2161
-2.9056	-0.3127	9.1007	-0.0268	0.219	-0.2651	0.1695	-0.5474	-1.7108	0.8677	1.0813	9.5848	0.2758	-0.1584	-0.0116	0.0678	-0.1675	-2.4273	9.7763	-0.4706	-0.6238	-0.1017	0.1628	2.3257	-0.2161	-0.2762	-0.2402
-3.0208	-0.2546	9.156	-0.0588	0.1519	-0.1459	0.1684	-0.57	-1.7546	0.7549	1.0816	9.7568	0.5277	0.0728	0.2197	0.0874	-0.1447	-2.3418	9.7714	-0.0636	-0.8507	-0.0706	0.4732	2.2493	-0.2161	-0.2582	-0.2342
-3.5473	-0.3693	8.9728	0.2166	0.266	-0.0151	0.1692	-0.523	-1.7336	0.758	0.3312	9.8718	0.707	-0.1303	-0.1048	0.0699	-0.1218	-2.3637	10.0638	0.2852	-0.9013	0.0448	0.3092	1.5634	-0.2161	-0.2702	-0.2281
-2.6658	-0.4276	9.45	0.1877	0.3353	-0.1653	0.1684	-0.57	-1.7546	1.1107	0.5043	10.1684	0.8024	-0.1133	0.1442	0.0672	-0.2141	-2.4055	9.7165	-0.5289	-0.6821	0.0648	0.1617	0.3871	-0.2221	-0.2642	-0.2342
-2.6736	-0.0249	9.106	0.0959	0.3071	-0.1981	0.1876	-0.4991	-1.7337	0.7609	0.5046	10.0461	0.4932	-0.0068	-0.0337	0.0684	-0.1914	-2.363	9.7759	-0.0631	-0.6228	-0.0024	0.1868	-0.3797	-0.2041	-0.2882	-0.2281
-2.9082	-0.14	8.9861	-0.0582	0.2725	-0.078	0.1684	-0.57	-1.7546	0.8061	0.6769	9.3512	0.5572	0.3057	-0.1379	0.1028	-0.2133	-2.3834	9.6491	0.227	-1.0801	0.0837	0.1125	-0.9685	-0.2161	-0.2762	-0.2281
-2.7316	-0.0824	9.1047	-0.2437	0.0574	-0.06	0.1863	-0.6174	-1.753	1.0427	0.2149	9.5868	0.1872	0.1491	0.0399	0.12	-0.2125	-2.4044	9.8346	-0.0049	-0.6216	0.1465	0.1358	-0.7526	-0.2221	-0.2762	-0.2342
-3.2589	0.2065	8.9225	-0.2106	0.2773	-0.1402	0.2048	-0.5697	-1.7537	0.8725	0.5619	9.8162	0.0952	0.2782	-0.0444	0.0515	-0.1924	-2.3207	9.3633	-0.0628	-0.6876	0.4255	-0.167	-0.0327	-0.2101	-0.2822	-0.2221
-3.0809	0.1489	9.0983	-0.3314	0.3184	-0.3232	0.1686	-0.5463	-1.7552	0.7473	0.5036	9.2919	0.0343	0.373	-0.069	0.1226	-0.1437	-2.341	9.9443	-0.0061	-1.0181	0.463	0.0245	0.715	-0.2221	-0.2762	-0.2462
-3.0293	-0.6017	8.6951	-0.2114	0.0686	-0.305	0.1685	-0.6182	-1.7313	0.7516	0.4462	9.5239	-0.0887	0.1785	0.1673	0.0327	-0.2157	-2.3635	9.4813	0.5194	-0.627	0.4697	-0.0954	1.5696	-0.2161	-0.2762	-0.2101
-3.198	-0.024	9.0381	-0.1507	0.2105	-0.0512	0.2238	-0.5944	-1.7083	0.8672	0.677	9.5263	-0.1506	0.2455	0.0788	0.0861	-0.1674	-2.3842	9.5965	0.6354	-0.7385	0.566	0.0409	2.0987	-0.2161	-0.2762	-0.2342
-3.0808	-0.4854	9.0393	-0.1514	0.1768	0.0085	0.1686	-0.5463	-1.7552	0.761	0.4469	10.046	-0.2401	0.3625	0.242	0.0507	-0.1448	-2.4279	9.5316	0.1689	-1.0825	0.5705	0.18	2.5671	-0.2221	-0.2582	-0.2281
-2.9105	-0.1403	8.8711	0.2467	0.2334	0.0141	0.1876	-0.571	-1.7098	0.4697	0.7936	9.9832	0.0038	0.372	-0.0379	0.1036	-0.1903	-2.3623	10.2921	0.3423	-1.2384	0.5402	0.211	2.5689	-0.2161	-0.2642	-0.2221
-2.4364	-0.0248	9.3406	0.2784	0.2696	-0.1067	0.1876	-0.571	-1.7098	0.7013	0.9665	9.9876	-0.0899	0.2813	-0.0434	0.0875	-0.1213	-2.3633	9.8913	-0.1799	-0.7348	0.6908	0.1224	2.4094	-0.1981	-0.2822	-0.2161
-2.7308	0.0907	9.1626	0.248	0.2126	-0.2022	0.2229	-0.5933	-1.7527	0.4586	0.5041	9.3447	0.4025	-0.0788	0.2104	0.0316	-0.2149	-2.4276	9.7708	0.4603	-0.8495	0.6297	0.0921	2.4083	-0.2161	-0.2762	-0.2342
-2.9589	-0.4273	9.3292	0.0677	0.5851	-0.1834	0.1862	-0.5693	-1.7764	0.6952	0.8506	9.6394	0.7372	-0.3229	0.0377	0.0689	-0.1682	-2.3632	10.0729	0.1116	-0.4459	0.6029	0.2662	2.7558	-0.2161	-0.2822	-0.2281
-2.9029	-0.4853	9.2153	0.1592	0.4663	-0.3121	0.2059	-0.4989	-1.7332	0.7557	0.4465	9.7559	0.6436	-0.4136	0.0323	0.0674	-0.2378	-2.3626	9.7707	0.5185	-0.8493	0.4556	-0.0023	3.481	-0.2161	-0.2822	-0.2221
-3.0825	-0.1973	8.9825	0.3121	0.5805	-0.1513	0.1689	-0.5706	-1.7325	0.7572	0.9086	9.8726	1.1043	-0.6719	0.1065	0.0516	-0.169	-2.3423	10.1853	-0.2385	-0.7294	0.4609	0.0395	4.0981	-0.2101	-0.2882	-0.2462
-2.8521	-0.2557	8.8719	0.4335	0.5438	-0.0603	0.2226	-0.5689	-1.7754	0.8759	0.3889	9.99	1.2895	-0.5782	0.0186	0.0509	-0.1685	-2.385	10.1271	0.2274	-0.6724	0.611	-0.1097	3.9046	-0.2161	-0.2762	-0.2402
-2.851	-0.2555	8.9294	0.19	0.5836	-0.1827	0.2053	-0.5702	-1.7315	1.1094	0.6775	10.1106	1.4156	-0.4311	0.1208	0.0706	-0.1223	-2.321	9.6552	-0.238	-0.7964	0.4855	0.1562	3.3352	-0.2221	-0.2822	-0.2342
-3.0195	-0.3122	9.2134	0.3415	0.5435	-0.0302	0.1869	-0.5942	-1.7314	0.9285	0.5039	9.7011	1.076	-0.4561	0.1207	0.0677	-0.1909	-2.4057	10.195	0.0539	-0.216	0.2634	0.0049	2.3452	-0.2041	-0.2822	-0.2281
-2.962	-0.024	9.2152	0.8294	0.4404	0.0597	0.1692	-0.5949	-1.7097	0.4628	0.5044	9.5768	1.2002	-0.3322	0.0661	0.1039	-0.214	-2.3194	9.782	0.4617	-0.2798	0.0704	-0.2043	1.229	-0.2161	-0.2882	-0.2342
-3.084	-0.0245	8.9254	1.0418	0.2231	0.0187	0.2057	-0.5227	-1.7327	1.3928	0.7921	9.7679	1.262	-0.2364	-0.0211	0.0499	-0.2149	-2.3845	9.4771	0.3442	-0.8553	-0.3591	0.0304	0.7527	-0.2101	-0.2822	-0.2462
-2.9676	-0.0824	8.9275	0.9197	0.2555	0.0196	0.2045	-0.4972	-1.7998	1.0462	0.7349	9.8195	1.1399	-0.0453	-0.1013	0.0519	-0.1221	-2.3854	10.0688	-0.18	-0.6745	-0.4764	0.2331	1.1947	-0.2161	-0.2642	-0.2221
-2.7304	-0.0823	9.1622	1.0729	0.1682	-0.1378	0.1516	-0.5719	-1.6885	0.6441	1.1976	10.0449	0.7422	0.2704	-0.11	0.0514	-0.1453	-2.3852	9.5352	-0.0635	-0.9122	-0.374	0.4401	2.4038	-0.2221	-0.2762	-0.2221
-2.4986	0.2632	9.1676	0.6775	0.4201	-0.1268	0.1689	-0.5706	-1.7325	0.869	0.9081	9.6426	-0.1825	0.4457	-0.2186	0.0495	-0.2146	-2.4059	10.247	0.1112	-0.5565	-0.5817	0.577	2.9969	-0.2161	-0.2762	-0.2281
-2.8475	-0.2551	9.1019	-0.0873	0.3697	-0.1652	0.2229	-0.5933	-1.7527	0.6386	1.4282	9.7551	-0.7028	0.5976	0.011	0.0154	-0.2164	-2.3425	10.1768	0.2845	-1.1269	-0.1897	0.3383	2.643	-0.2161	-0.2642	-0.2281
-3.0821	-0.4279	8.9819	-0.9426	0.2703	-0.4526	0.2244	-0.5231	-1.71	0.8121	0.8505	9.6995	-1.0385	0.8462	0.0908	0.1051	-0.1208	-2.363	9.8266	0.1105	-1.0201	-0.1395	0.4109	1.3242	-0.2221	-0.2702	-0.2462
-3.0234	-0.1396	9.0413	-1.0333	0.2199	-0.6711	0.1879	-0.5234	-1.7109	0.8647	1.0233	9.4107	-1.2214	0.7742	0.3664	0.0684	-0.1914	-2.363	9.8861	0.4598	-0.9612	0.0604	-0.1342	0.0028	-0.2161	-0.2642	-0.2281
-2.8502	-0.6591	8.9285	-1.1571	0.154	-0.5525	0.1684	-0.57	-1.7546	0.8733	0.7929	9.8745	-1.314	0.9063	0.2202	0.0683	-0.2148	-2.3414	10.0674	0.0527	-0.7309	0.5723	-0.241	-0.6527	-0.2221	-0.2822	-0.2342
-3.0184	0.2646	9.3298	-0.9452	0.0206	-0.4046	0.1502	-0.5702	-1.7551	1.0495	0.5619	9.9934	-0.9147	0.6476	0.3257	0.069	-0.1448	-2.3848	9.4848	0.4616	-0.4563	0.7254	-0.402	-0.4778	-0.2161	-0.2822	-0.2462
-2.7325	-0.1978	9.0469	-0.615	-0.4314	-0.0885	0.17	-0.4279	-1.7359	1.2226	0.3307	9.9382	-0.3903	0.7033	0.2649	0.0866	-0.1443	-2.3845	9.8968	-0.0628	-0.4497	1.2187	-0.4297	0.2547	-0.2101	-0.2642	-0.2221
-2.9675	-0.14	8.9274	-0.3086	-0.3148	-0.0188	0.1681	-0.5457	-1.7774	1.103	0.7925	9.7626	0.1617	0.5141	0.1569	0.087	-0.1445	-2.3631	9.7232	0.5199	-0.2808	1.5925	-0.3085	1.1804	-0.2281	-0.2642	-0.2342
-2.8398	-0.0812	9.5049	-0.0944	-0.4044	-0.1452	0.1863	-0.5455	-1.7769	0.6342	0.7927	9.4642	0.2828	0.263	0.2021	0.0167	-0.1232	-2.3862	10.0204	0.52	-0.1043	2.2964	-0.2339	1.5475	-0.2161	-0.2942	-0.2522
-2.7994	0.1472	8.644	-0.0344	-0.2962	0.1683	0.1879	-0.5234	-1.7109	0.8121	0.8505	9.6995	0.4085	0.5099	0.1555	0.0849	-0.1901	-2.4267	9.8389	0.1703	-0.3933	2.6332	0.1315	1.5945	-0.2161	-0.2942	-0.2342
-3.3143	-0.0237	9.0358	-0.3994	-0.2785	-0.1097	0.1863	-0.5455	-1.7769	0.757	1.0818	9.8728	0.0983	0.1663	0.3519	0.087	-0.1445	-2.3631	9.7711	0.1692	-0.8502	3.2407	0.164	1.376	-0.2281	-0.2702	-0.2281
-2.9105	-0.7169	8.8122	-0.8583	-0.3902	-0.2416	0.1681	-0.6176	-1.7535	0.6985	0.6776	9.8132	-0.1743	0.5368	0.4393	0.0325	-0.2391	-2.3419	9.4794	0.2862	-0.7415	3.359	0.3018	0.8902	-0.1981	-0.2762	-0.2342
-3.0217	-0.3701	9.0982	-1.2544	-0.4927	-0.5877	0.1687	-0.4743	-1.7791	0.6952	0.8506	9.6394	-0.0221	0.4466	0.3396	0.1036	-0.1903	-2.3623	9.6592	0.17	-0.5676	3.5414	0.3013	0.858	-0.2161	-0.2642	-0.2221
-3.4398	-0.0246	8.5734	-1.4727	-0.9247	-0.5508	0.2048	-0.5697	-1.7537	0.9245	0.3304	9.4689	-0.5725	0.8879	0.3398	0.087	-0.1445	-2.3631	10.0651	0.1107	-0.8447	3.7278	0.2542	1.3152	-0.2221	-0.2882	-0.2281
-2.9118	-0.0827	8.8137	-1.7487	-1.0137	-0.5573	0.1867	-0.618	-1.7308	1.214	0.561	9.4744	-1.0338	0.9218	0.4372	0.0347	-0.1229	-2.3644	10.1825	0.227	-0.8422	3.2106	0.1941	1.4086	-0.2041	-0.2822	-0.2402
-2.7354	0.0901	8.9326	-1.905	-1.3539	-0.5151	0.1689	-0.5706	-1.7325	0.7558	1.1972	9.8149	-1.4017	0.8851	0.6849	0.1221	-0.1669	-2.3408	10.0729	0.1116	-0.4459	3.5173	0.0894	1.7081	-0.2161	-0.2702	-0.2402
-2.6714	-0.5436	9.1622	-1.7524	-1.2705	-0.3559	0.1882	-0.5478	-1.6882	1.046	0.8504	9.8197	-1.5269	0.798	0.6177	0.068	-0.1912	-2.3844	9.8296	0.4602	-0.8483	3.3338	0.0939	1.6176	-0.2101	-0.2522	-0.2221
-2.7912	-0.4861	8.9875	-1.4433	-0.8455	-0.2697	0.186	-0.5931	-1.7758	0.6925	0.5039	9.4649	-1.5573	0.8615	0.5909	0.0526	-0.1226	-2.3427	10.1269	0.4021	-0.672	3.2699	0.2938	1.1673	-0.2041	-0.2762	-0.2402
-2.7263	-0.4278	9.3339	-0.7071	-0.5199	-0.1553	0.1142	-0.5711	-1.7339	0.6986	0.6199	9.8131	-1.1603	0.5811	0.5088	0.0694	-0.145	-2.3635	9.9494	0.4021	-0.7323	2.7517	0.3001	1.1103	-0.2041	-0.2762	-0.2281
-2.8515	-0.0249	8.93	-0.2452	-0.1556	-0.1329	0.1689	-0.5706	-1.7325	0.808	0.7925	9.4674	-0.6678	0.5129	0.4711	0.0684	-0.1209	-2.4491	9.6582	0.0535	-0.6248	2.5712	0.3871	1.3316	-0.2161	-0.2822	-0.2221
-2.4335	-0.3128	9.4549	-0.3971	-0.0891	-0.1917	0.151	-0.5232	-1.7341	0.9277	0.3306	9.6429	-0.1493	0.0766	0.3782	0.069	-0.1448	-2.3848	9.8934	-0.0632	-0.6206	2.0537	0.3904	1.3667	-0.2161	-0.2702	-0.2402
-3.2642	-0.0248	8.6344	-0.2429	0.0632	-0.1826	0.1689	-0.5706	-1.7325	0.9257	1.0234	9.5858	0.1889	0.2061	0.1367	0.0693	-0.1685	-2.3419	10.0063	0.1107	-0.8458	1.8381	0.3078	1.1182	-0.2221	-0.2762	-0.2402
-3.0787	0.2068	9.2135	-0.3649	-0.0206	-0.3415	0.1491	-0.5929	-1.7989	1.0441	0.7348	9.7035	0.4058	0.2302	0.1994	0.0693	-0.1685	-2.3419	10.1205	0.1102	-1.0145	1.5969	0.175	1.4822	-0.2041	-0.2702	-0.2462
-2.9082	-0.14	8.9861	-0.6416	0.0317	-0.0639	0.1678	-0.5933	-1.7763	0.4623	0.8508	9.5772	0.3744	0.266	0.1087	0.0507	-0.1448	-2.4279	9.9489	-0.1219	-0.7905	1.4089	0.1347	0.8667	-0.2221	-0.2822	-0.2281
-2.8992	-0.0236	9.4464	-0.6719	0.063	-0.0624	0.1879	-0.5234	-1.7109	0.8604	0.2723	9.1197	0.0698	0.4803	0.2483	0.0677	-0.1909	-2.4057	9.655	-0.1216	-0.7961	1.3088	0.2632	-0.2327	-0.2101	-0.2702	-0.2281
-2.566	-0.2568	8.6477	-0.6417	-0.0859	-0.1932	0.1691	-0.5468	-1.733	0.8267	0.8516	10.5117	-0.2354	0.6977	0.3259	0.0838	-0.2599	-2.4047	9.8285	0.4018	-0.9054	1.306	0.149	-0.5154	-0.2221	-0.2702	-0.2281
-2.7935	-0.4864	8.8725	-0.5483	0.0406	-0.278	0.1505	-0.5946	-1.7324	0.4667	0.7356	9.8091	-0.5135	0.6071	0.3834	0.0699	-0.1218	-2.3637	9.7671	0.8091	-1.0195	1.3959	0.3417	-0.7828	-0.2221	-0.2822	-0.2342
-2.7987	-0.1987	8.6432	-0.5494	-0.1122	-0.3169	0.1499	-0.5459	-1.7779	1.0446	1.139	9.762	-0.7346	0.343	0.1809	0.1067	-0.0983	-2.2992	9.5413	-0.5285	-0.6284	1.4308	0.1986	-0.1756	-0.2221	-0.2822	-0.2402
-2.9581	-0.2542	9.3872	-0.366	-0.0572	-0.2206	0.1692	-0.523	-1.7336	0.9906	0.5042	9.9342	-0.6094	0.527	0.1612	0.0677	-0.1909	-2.4057	9.7162	-0.296	-0.6815	1.5878	0.2729	0.3497	-0.2161	-0.2642	-0.2342
-2.7949	-0.3712	8.8153	-0.1493	0.1029	-0.395	0.1873	-0.5466	-1.7326	0.7572	0.9086	9.8726	-0.27	0.5536	0.1304	0.0861	-0.1674	-2.3842	9.7135	0.1112	-0.7944	1.5931	0.4091	0.9102	-0.2161	-0.2762	-0.2342
-2.7893	-0.3129	9.103	-0.0902	0.0598	-0.1511	0.1508	-0.547	-1.7335	0.6966	0.562	9.697	-0.15	0.2748	0.1117	0.0877	-0.145	-2.3204	9.7696	0.5183	-0.9063	1.5106	0.3754	1.9853	-0.2101	-0.2822	-0.2402
-2.7855	-0.4854	9.2751	-0.1501	0.1854	-0.1755	0.1315	-0.5698	-1.7778	1.036	0.5609	9.2392	-0.333	0.3656	0.2116	0.0866	-0.2148	-2.2984	9.5997	-0.2375	-0.6266	1.1794	0.426	2.4212	-0.2161	-0.2822	-0.2281
-3.0685	-0.3109	9.6722	-0.0291	0.0296	-0.183	0.1691	-0.5468	-1.733	0.8115	0.5618	9.6411	-0.1512	0.3454	-0.07	0.0672	-0.2141	-2.4055	9.7288	0.4624	0.0039	1.2378	0.4978	2.0862	-0.2221	-0.2822	-0.2342
-2.966	0.2638	9.0434	0.0639	0.24	-0.0789	0.206	-0.547	-1.7099	0.7566	0.562	9.8141	-0.1786	0.4275	0.1528	0.0685	-0.168	-2.3846	9.5999	-0.4122	-0.627	1.5374	0.3581	1.5537	-0.2101	-0.2822	-0.2342
-2.7957	0.0323	8.8163	0.0946	0.2117	-0.1417	0.1686	-0.5463	-1.7552	1.103	0.7925	9.7626	-0.1184	0.3357	0.1155	0.1041	-0.1671	-2.3625	9.832	0.2858	-0.7348	1.2576	0.132	0.9908	-0.2221	-0.2882	-0.2342
-2.7929	-0.2557	8.9306	-0.0894	0.1229	-0.1784	0.2062	-0.5232	-1.7105	0.6943	0.735	9.5812	0.0361	0.2994	0.1746	0.0875	-0.1213	-2.3633	10.2394	-0.0645	-0.9557	1.444	-0.0401	1.5031	-0.1981	-0.2702	-0.2402
-3.1381	-0.3122	9.096	-0.1795	0.2224	-0.2966	0.151	-0.5951	-1.7102	0.9285	0.5039	9.7011	0.1894	0.3013	0.0808	0.1031	-0.2135	-2.3621	10.0695	0.1694	-0.6167	1.9361	-0.2197	2.1662	-0.2281	-0.2762	-0.2342
-3.1973	-0.3699	9.0373	-0.0576	0.3636	-0.0424	0.1889	-0.5245	-1.6665	0.7511	1.6588	9.5835	0.217	0.0886	0.0048	0.0694	-0.145	-2.3635	9.8933	0.0532	-0.6203	2.0869	-0.4345	2.0923	-0.2161	-0.2702	-0.2281
-2.7912	0.0905	9.0464	-0.054	0.5616	-0.3084	0.1861	-0.6412	-1.7525	0.9324	0.7352	9.9335	0.4027	-0.1449	0.2992	0.0685	-0.168	-2.3846	9.7168	0.1698	-0.6234	2.2422	-0.2907	2.3752	-0.2041	-0.2642	-0.2221
-2.7828	-0.0815	9.4485	-0.1184	0.3084	-0.1687	0.2242	-0.5468	-1.7094	0.5764	0.6773	9.4631	0.2169	-0.0082	0.0916	0.0869	-0.1679	-2.3415	9.6606	-0.0627	-0.5112	2.4597	-0.1842	2.8402	-0.2101	-0.2762	-0.2281
-2.5612	-0.3716	8.8774	-0.148	0.4896	-0.067	0.1488	-0.5685	-1.8217	0.8086	0.3883	9.4668	0.1264	0.0488	0.2199	0.0498	-0.2383	-2.3629	9.7172	-0.1794	-0.6242	2.4911	-0.3135	3.0177	-0.2161	-0.2762	-0.2281
-2.9079	-0.3129	8.9856	-0.4265	0.1229	-0.0884	0.1692	-0.523	-1.7336	0.8095	0.4461	9.5249	0.2223	0.3885	0.1795	0.0706	-0.1223	-2.321	9.834	-0.4708	-0.6797	2.487	-0.2034	2.47	-0.2161	-0.2762	-0.2281
-2.8502	-0.0824	8.9874	-0.4534	0.3802	-0.2899	0.1505	-0.5946	-1.7324	1.2125	0.9074	9.4168	0.1301	0.3886	0.211	0.0859	-0.2143	-2.3411	9.9475	0.1108	-0.8469	2.5111	-0.1166	1.6749	-0.2101	-0.2702	-0.2402
-2.6123	-0.4283	9.2212	-0.3012	0.3151	-0.2617	0.1865	-0.5936	-1.7536	1.2166	0.9654	9.6489	-0.0555	0.2964	0.2679	0.0342	-0.1461	-2.3642	10.064	0.1105	-0.9017	2.6593	-0.1021	1.1824	-0.2281	-0.2822	-0.2342
-3.0108	-0.0804	9.674	-0.3645	0.2147	-0.0831	0.1507	-0.5708	-1.7329	0.6904	0.5615	9.349	-0.3609	0.6121	0.2277	0.0861	-0.1674	-2.3842	9.5404	0.2864	-0.6265	2.7761	-0.0209	0.54	-0.2281	-0.2822	-0.2221
-3.2509	0.2074	9.325	-0.4597	-0.1852	-0.1051	0.1878	-0.5472	-1.7104	0.6904	0.5038	9.3489	-0.3305	0.5163	0.2835	0.068	-0.1912	-2.3844	9.9483	0.402	-0.7893	2.5028	0.166	0.5519	-0.2101	-0.2642	-0.2402
-3.0265	-0.313	8.8683	-0.458	-0.0574	-0.1904	0.1331	-0.5477	-1.7118	0.8676	1.139	9.5849	-0.4852	0.6509	0.1066	0.0332	-0.1925	-2.3637	9.6503	0.1107	-1.0234	2.2317	0.1883	0.8935	-0.2161	-0.2882	-0.2221
-3.0892	-0.3134	8.6372	-0.2729	0.0091	-0.3394	0.1508	-0.6189	-1.7096	0.9876	0.4462	9.7601	-0.8508	0.8633	0.3084	0.085	-0.2372	-2.3622	9.7108	-0.4131	-0.9666	1.9	0.3034	1.2405	-0.2161	-0.2762	-0.2342
-3.0812	-0.3125	9.0397	-0.3379	-0.2484	-0.1077	0.187	-0.5223	-1.7553	0.93	0.0998	9.7586	-1.0057	0.8366	0.2763	-0.0006	-0.124	-2.3652	10.0052	0.1106	-0.9028	1.5976	0.3913	1.4627	-0.2161	-0.2882	-0.2402
-2.6116	-0.1975	9.2792	-0.3969	-0.0876	-0.2224	0.17	-0.5479	-1.6886	0.7514	0.5617	9.524	-0.883	0.8376	0.2137	0.068	-0.1912	-2.3844	9.8878	-0.0639	-0.9054	1.3577	0.5354	1.8412	-0.2101	-0.2642	-0.2342
-3.2587	-0.4855	8.8633	-0.4907	-0.3038	-0.2038	0.1873	-0.5466	-1.7326	0.6962	0.8507	9.6974	-0.8825	0.9329	0.1578	0.0515	-0.1219	-2.4068	9.7172	-0.1212	-0.6241	0.7486	0.4781	1.8739	-0.2101	-0.2822	-0.2342
-2.8451	-0.3125	9.2168	-0.4577	-0.1134	-0.3164	0.1865	-0.5217	-1.7775	0.6995	0.7354	9.8713	-0.3933	0.6524	0.0442	0.0333	-0.169	-2.3853	9.7081	-0.0059	-1.0796	0.1385	0.5497	1.7289	-0.2161	-0.2762	-0.2402
-2.9591	-0.312	9.3295	-0.6432	-0.4446	-0.4582	0.1497	-0.5696	-1.7773	0.9896	0.5041	9.8762	-0.5154	0.6484	0.1687	0.0357	-0.0765	-2.3649	9.8316	-0.3546	-0.7933	0.0146	0.6528	1.4278	-0.2281	-0.2822	-0.2342
-2.7292	-0.7164	9.1607	-0.7335	-0.2009	-0.3536	0.1866	-0.5699	-1.7542	0.6353	0.735	9.5222	-0.3917	0.8722	-0.0346	0.0342	-0.1461	-2.3642	10.0617	0.1102	-1.0156	-0.5073	0.4854	1.0236	-0.2221	-0.2762	-0.2221
-2.9584	-0.0812	9.3876	-0.6435	-0.5049	-0.4922	0.206	-0.547	-1.7099	0.6987	0.5621	9.8131	-0.5782	0.72	-0.0126	0.0869	-0.1679	-2.3415	9.7056	0.2266	-1.1929	-0.604	0.3818	0.4348	-0.2041	-0.2942	-0.2402
-2.6806	0.032	8.7611	-0.6414	-0.2875	-0.5113	0.2063	-0.5714	-1.6871	0.9852	0.677	9.6444	-0.3647	0.4029	0.09	0.0513	-0.1687	-2.3636	10.2939	0.75	-1.1235	-0.9399	0.3568	0.344	-0.2342	-0.2642	-0.2281
-2.8958	-0.0232	9.6189	-0.4885	-0.2894	-0.5104	0.1708	-0.5009	-1.6676	1.1056	1.1969	9.9372	-0.3032	0.5002	-0.0282	0.1015	-0.236	-2.4259	9.6005	0.1119	-0.5688	-0.9401	0.1384	0.4249	-0.2161	-0.2762	-0.2402
-2.6743	-0.2556	9.0479	-0.4285	-0.3268	-0.3891	0.1676	-0.617	-1.7757	0.9902	0.8506	9.9347	-0.1501	0.4053	-0.035	0.0853	-0.1904	-2.4053	9.6525	0.1692	-0.9094	-1.2097	0.2798	0.8956	-0.2161	-0.2882	-0.2342
-2.6688	-0.6586	9.277	-0.3359	-0.3517	-0.5435	0.1514	-0.4756	-1.7352	0.6997	0.6199	9.8712	-0.1193	0.4048	-0.0352	0.0499	-0.2149	-2.3845	9.9455	-0.0641	-0.9613	-1.3598	0.1472	1.2282	-0.2221	-0.2762	-0.2342
-3.0145	-0.5422	9.4428	-0.3657	-0.1131	-0.3465	0.1147	-0.5717	-1.7117	0.756	1.0817	9.8148	-0.2122	0.3111	0.0212	0.0691	-0.1919	-2.3203	9.6065	-0.2949	-0.285	-1.1453	0.3598	1.2683	-0.2161	-0.2822	-0.2342
-3.0787	-0.3698	9.1546	-0.5199	-0.3522	-0.4832	0.1324	-0.6429	-1.7095	0.755	0.2155	9.6976	-0.1503	0.244	0.1097	0.0705	-0.1458	-2.2994	10.1283	0.1694	-0.6156	-1.5103	0.1416	1.4444	-0.2041	-0.2702	-0.2342
-3.1467	-0.0826	8.6941	-0.6749	-0.5676	-0.465	0.1518	-0.5481	-1.6891	0.6357	0.3886	9.5217	-0.0911	0.3196	-0.1961	0.0708	-0.0989	-2.3426	9.5972	0.0533	-0.7399	-1.0265	0.0887	1.038	-0.2221	-0.2642	-0.2281
-2.9104	-0.1979	8.8709	-0.7664	-0.565	-0.4962	0.1507	-0.5708	-1.7329	1.2216	1.139	9.9392	-0.2738	0.3767	-0.0364	0.087	-0.1445	-2.3631	10.3116	-0.121	-0.2711	-1.21	0.2183	0.8924	-0.2161	-0.2702	-0.2342
-2.8495	-0.4284	8.9865	-1.0741	-0.8064	-0.5419	0.15	-0.594	-1.7545	0.6985	0.7353	9.8133	-0.4874	0.6615	-0.11	0.1041	-0.1671	-2.3625	10.1228	0.0522	-0.9007	-1.2727	0.2882	0.6506	-0.2041	-0.2702	-0.2402
-2.9688	-0.0825	8.87	-0.9788	-0.4933	-0.6474	0.1506	-0.5226	-1.7563	1.1041	0.7926	9.8207	-0.515	0.6469	0.1997	0.0675	-0.2143	-2.3841	9.8982	-0.3537	-0.3934	-1.0319	0.2662	0.3093	-0.2041	-0.2642	-0.2221
-2.6686	-0.1973	9.3356	-0.703	-0.4058	-0.6102	0.1694	-0.5712	-1.7103	0.7607	0.6201	10.0462	-0.7641	0.5971	0.0423	0.0858	-0.1672	-2.4056	9.8307	-0.5294	-0.8507	-1.1232	0.5171	0.2001	-0.1981	-0.2642	-0.2342
-2.7839	-0.7159	9.332	-1.1001	-0.2522	-0.4816	0.1687	-0.5944	-1.7319	0.9318	1.1971	9.9341	-0.5809	0.408	0.0602	0.1027	-0.1662	-2.4479	9.8379	-0.0045	-0.4507	-1.1571	0.3743	-0.1453	-0.2402	-0.2642	-0.2161
-2.7345	-0.3711	8.9315	-0.6705	-0.1608	-0.5662	0.1502	-0.5702	-1.7551	0.8726	0.5042	9.8161	-0.5803	0.405	0.1221	0.05	-0.1914	-2.4061	9.3577	-0.0635	-0.9725	-1.0049	0.373	-0.1466	-0.2041	-0.2642	-0.2281
-2.908	-0.2553	8.9858	-0.7648	-0.2637	-0.3264	0.1878	-0.4753	-1.7343	0.757	1.0818	9.8728	-0.5482	0.5935	0.0411	0.1225	-0.1671	-2.3195	10.0143	-0.0047	-0.4473	-0.9416	0.0818	0.2682	-0.2101	-0.2882	-0.2342
-2.6746	-0.6593	8.9894	-0.3952	0.0107	-0.3401	0.1688	-0.5225	-1.7558	1.0419	0.8501	9.5876	-0.4248	0.5914	0.0404	0.0685	-0.168	-2.3846	9.5961	-0.0051	-0.797	-0.9386	0.1325	0.609	-0.2101	-0.2702	-0.2161
-2.677	-0.6019	8.8746	-0.3649	-0.05	-0.3739	0.1863	-0.5455	-1.7769	0.8177	0.5622	9.9892	-0.333	0.5284	0.0359	0.1038	-0.1669	-2.3839	9.8858	-0.2388	-1.0198	-1.0614	-0.0818	0.5989	-0.2281	-0.2702	-0.2281
-2.9621	0.0336	9.2153	-0.1516	-0.1159	-0.3453	0.1507	-0.4989	-1.7568	0.6345	0.5617	9.4639	-0.2746	0.2829	-0.0114	0.086	-0.1909	-2.3627	9.9522	-0.0633	-0.6195	-1.1846	-0.0441	0.4174	-0.2161	-0.2762	-0.2402
-2.894	0.2654	9.7346	-0.0581	0.0695	-0.3655	0.1508	-0.547	-1.7335	0.464	1.1974	9.6937	0.0331	0.2162	-0.0171	0.0703	-0.1221	-2.3424	10.0695	0.1694	-0.6167	-1.0944	-0.0717	0.2922	-0.2221	-0.2702	-0.2462
-3.143	-0.1974	8.8663	0.0366	0.5532	-0.1546	0.1688	-0.6425	-1.7085	1.0454	0.5616	9.7613	0.245	-0.0933	-0.0693	0.088	-0.0981	-2.3636	9.9509	0.1112	-0.676	-0.9747	-0.0331	0.0165	-0.2101	-0.2702	-0.2281
-2.9121	0.0902	8.8141	0.1915	0.6804	-0.2697	0.1684	-0.57	-1.7546	0.469	0.5048	9.9248	0.5228	-0.164	0.018	0.0489	-0.2612	-2.384	9.8921	0.1113	-0.6772	-1.2509	-0.3356	-0.0892	-0.2221	-0.2702	-0.2281
-3.0273	-0.4861	8.8104	0.1281	0.5212	-0.1557	0.188	-0.5715	-1.6876	0.469	0.5626	9.9249	0.8007	-0.2025	0.0763	0.0875	-0.1213	-2.3633	10.419	-0.0642	-0.7815	-1.219	-0.4043	0.1222	-0.2221	-0.2822	-0.2462
-2.9123	-0.4288	8.7554	0.0382	0.8545	0.0153	0.1499	-0.5459	-1.7779	0.6358	0.3309	9.5217	0.5849	-0.1021	-0.0093	0.068	-0.1912	-2.3844	10.01	-0.1799	-0.6756	-1.1548	-0.1357	0.3816	-0.2041	-0.2702	-0.2402
-2.6669	0.0913	9.4513	0.0691	0.6526	-0.3027	0.1691	-0.5468	-1.733	0.6973	0.8507	9.7554	0.4617	-0.0032	-0.0955	0.0508	-0.1919	-2.3634	9.8333	0.1696	-0.6781	-1.367	-0.1379	0.5062	-0.2101	-0.2762	-0.2342
-2.6752	-0.371	8.9901	0.4043	0.5822	-0.2121	0.1505	-0.5946	-1.7324	0.925	0.7924	9.5275	0.4903	-0.1882	-0.1076	0.086	-0.1909	-2.3627	9.3038	-0.3539	-0.7464	-1.5509	-0.0063	0.2993	-0.2041	-0.2642	-0.2342
-2.8498	-0.2554	8.9869	0.3731	0.6077	-0.088	0.1871	-0.5704	-1.732	1.1036	1.139	9.8211	0.3698	0.0276	-0.062	0.0689	-0.1682	-2.3632	9.7758	-0.0049	-0.6227	-1.5839	0.0663	-0.0349	-0.2221	-0.2702	-0.2342
-2.8489	-0.14	9.0447	0.1607	0.7088	-0.2069	0.1322	-0.5466	-1.7562	0.5276	0.8513	9.9844	0.4019	0.1838	-0.1141	0.0328	-0.1922	-2.3851	9.7716	-0.2383	-0.8511	-1.5882	0.1455	-0.5842	-0.2281	-0.2822	-0.2402
-2.4375	-0.0249	9.2831	0.5247	0.6265	0.1291	0.2057	-0.5227	-1.7327	0.9874	0.5617	9.7603	-0.0275	0.2772	0.0182	0.0844	-0.2133	-2.4265	9.7159	-0.005	-0.6808	-2.0153	0.0896	-0.6451	-0.2161	-0.2702	-0.2342
-2.7934	-0.544	8.8724	0.4358	0.7332	-0.1424	0.186	-0.5931	-1.7758	0.6991	0.2734	9.8127	0.2468	0.0281	-0.0303	0.0863	-0.144	-2.4058	9.7144	0.3442	-0.7369	-2.0746	0.0524	-0.4313	-0.2101	-0.2762	-0.2281
-2.6063	-0.5429	9.5084	0.7108	0.7282	-0.1101	0.1507	-0.5708	-1.7329	0.8684	0.5039	9.5841	-0.0953	-0.1154	-0.1313	0.0694	-0.145	-2.3635	10.2447	0.1691	-0.6703	-2.0406	-0.0241	0.0257	-0.2281	-0.2822	-0.2402
-3.0195	-0.3122	9.2134	0.5594	0.8565	-0.1657	0.188	-0.5715	-1.6876	0.8755	0.6776	9.9904	0.1214	-0.0575	-0.1285	0.0143	-0.2157	-2.4066	9.7167	0.2862	-0.6231	-2.162	-0.2127	0.1706	-0.2101	-0.2702	-0.2342
-3.1304	-0.1383	9.499	0.7423	0.7924	-0.1679	0.1696	-0.4755	-1.7347	0.9295	0.504	9.7591	0.244	-0.0888	-0.1621	0.0509	-0.239	-2.2989	9.8935	-0.1214	-0.6208	-2.4045	-0.1212	0.2696	-0.2161	-0.2642	-0.2402
-2.7334	-0.3133	8.9891	0.4681	0.8899	-0.1952	0.1686	-0.5463	-1.7552	0.9879	0.9659	9.8188	0.1828	0.0075	-0.2177	0.0698	-0.1453	-2.3421	9.843	-0.5279	-0.2241	-2.5278	-0.1143	0.0864	-0.2041	-0.2762	-0.2402
-3.1364	-0.0237	9.2117	0.5563	0.5745	-0.0886	0.2235	-0.5701	-1.731	0.4725	1.0825	10.1576	0.1558	0.2172	-0.0797	0.0859	-0.2143	-2.3411	9.7758	-0.0049	-0.6227	-2.4393	-0.2293	-0.197	-0.2161	-0.2702	-0.2281
-3.2014	-0.082	8.8654	0.4014	0.3885	-0.0381	0.1679	-0.5695	-1.7768	0.4682	1.14	9.9257	0.2807	0.3704	-0.1014	0.0693	-0.1685	-2.3419	9.4291	-0.2948	-0.3453	-2.4723	-0.2192	-0.5037	-0.2101	-0.2582	-0.2221
-2.8015	0.0316	8.5287	0.0654	0.3663	-0.1336	0.1511	-0.6433	-1.6868	0.7556	0.562	9.7561	0.0944	0.3795	-0.2241	0.069	-0.1448	-2.3848	9.6617	-0.1207	-0.4543	-2.4123	-0.185	-0.6254	-0.2161	-0.2762	-0.2281
-2.7324	-0.2555	9.0467	-0.0272	0.1293	-0.3313	0.1686	-0.5463	-1.7552	0.8754	0.7931	9.9905	0.0348	0.5005	-0.1539	0.1046	-0.144	-2.3627	9.84	0.1704	-0.3363	-1.6794	-0.0422	-0.4702	-0.2221	-0.2822	-0.2342
-2.785	-0.1394	9.3334	-0.1491	0.1044	-0.4257	0.1863	-0.5455	-1.7769	0.5857	0.7357	9.9852	-0.1221	0.2234	-0.1091	0.0685	-0.168	-2.3846	9.6105	0.1131	-0.0561	-1.7132	-0.2168	-0.7865	-0.2161	-0.2762	-0.2281
-3.6651	-0.1963	8.9134	0.1289	0.6138	-0.1507	0.1868	-0.5461	-1.7547	0.7588	0.5045	9.9301	-0.2454	0.0626	0.0673	0.0874	-0.1447	-2.3418	10.5456	-0.1214	-0.3236	-1.649	0.0518	-0.5271	-0.2101	-0.2822	-0.2342
-2.9023	-0.7736	9.2146	0.3459	0.9503	-0.1313	0.1516	-0.5719	-1.6885	0.9869	0.9659	9.7608	0.063	-0.0071	0.1234	0.0518	-0.1456	-2.3638	9.7799	0.345	-0.394	-1.3128	-0.1435	-0.294	-0.2101	-0.2702	-0.2342
-2.7897	-0.6589	9.0446	0.6818	0.9137	-0.1004	0.1699	-0.4998	-1.712	0.9914	0.6775	9.9925	-0.214	-0.0377	0.2159	0.0337	-0.1693	-2.364	9.7754	0.3444	-0.6219	-1.4019	0.0052	-0.101	-0.2161	-0.2702	-0.2402
-3.0808	-0.4854	9.0393	0.897	1.0932	-0.0279	0.2058	-0.5708	-1.7093	0.9945	0.7354	10.1666	0.1225	-0.3877	0.3158	0.0343	-0.1227	-2.3858	10.128	0.4022	-0.615	-1.2168	0.0881	0.1478	-0.2281	-0.2762	-0.2221
-2.8535	-0.1405	8.8147	1.2322	1.0228	0.0627	0.1694	-0.5712	-1.7103	0.8131	0.9083	9.7576	0.3101	-0.1756	0.3287	0.0313	-0.2618	-2.3844	9.9517	0.3442	-0.6185	-1.0025	-0.0745	0.3528	-0.2221	-0.2702	-0.2342
-2.7843	-0.4853	9.3326	0.986	0.9865	0.2436	0.1511	-0.5713	-1.7107	0.7554	0.7352	9.7563	0.3979	-0.3495	0.0686	0.0674	-0.2378	-2.3626	10.0166	-0.0626	-0.3335	-0.8812	0.0833	0.2063	-0.2161	-0.2762	-0.2462
-2.4341	-0.0245	9.4556	1.0163	0.9847	0.2744	0.1878	-0.5472	-1.7104	0.7499	0.9658	9.4665	0.3393	0.0266	-0.0309	0.0164	-0.1701	-2.343	9.7778	0.2283	-0.5082	-0.7632	0.0345	-0.2277	-0.2281	-0.2822	-0.2342
-2.795	0.2631	8.8743	0.6471	0.6544	0.1621	0.1323	-0.5228	-1.7567	1.1056	1.1969	9.9372	0.1571	0.1789	0.073	0.0152	-0.1928	-2.3855	9.4748	0.3439	-0.9693	-0.4027	0.3637	-0.9823	-0.2041	-0.2702	-0.2402
-2.7364	0.0324	8.8749	0.6156	0.7358	0.4122	0.1504	-0.5464	-1.7557	0.9319	1.0816	9.9339	-0.0869	0.2999	0.2062	0.1046	-0.144	-2.3627	9.9571	-0.412	-0.3925	-0.131	0.4645	-1.3175	-0.2221	-0.2762	-0.2281
-2.6731	-0.2555	9.1054	0.7726	1.1098	0.3103	0.1331	-0.5477	-1.7118	0.46	1.0816	9.4615	-0.4271	0.3424	0.0863	0.0334	-0.2161	-2.3208	9.656	0.0532	-0.7387	0.2002	0.539	-1.8083	-0.2161	-0.2702	-0.2281
-3.1984	-0.4277	8.9796	1.0194	1.2666	0.1973	0.1702	-0.5242	-1.6892	0.9874	0.5617	9.7603	-0.6086	0.3934	0.3699	0.0347	-0.1229	-2.3644	9.8968	-0.0628	-0.4497	0.4712	0.4235	-2.124	-0.2101	-0.2762	-0.2281
-3.0816	-0.0818	9.0402	1.2943	1.5808	0.6769	0.15	-0.594	-1.7545	0.8212	0.2737	10.1629	-0.5168	0.2981	0.3943	0.1034	-0.1667	-2.4052	9.7726	-0.1799	-0.794	0.8731	0.4282	-1.4198	-0.2101	-0.2822	-0.2342
-2.7382	-0.2562	8.7592	1.9383	1.6429	0.5	0.1868	-0.5461	-1.7547	0.6382	0.9085	9.6964	-0.1819	-0.0443	0.3395	0.0511	-0.1922	-2.342	10.0763	0.1121	-0.275	0.7559	0.1922	-0.7546	-0.2281	-0.2822	-0.2342
-2.7837	-0.1969	9.3908	2.0592	1.5739	0.62	0.1862	-0.5693	-1.7764	0.6959	0.3309	9.6387	0.3058	-0.2527	0.0132	0.0344	-0.1698	-2.3213	9.901	0.1124	-0.2214	0.8275	0.0561	0.5906	-0.2221	-0.2702	-0.2281
-3.0224	-0.0242	9.099	1.9052	1.4524	0.6125	0.2056	-0.5946	-1.7087	1.1	0.6768	9.5885	0.7992	-0.3577	0.0973	0.0687	-0.1445	-2.4062	9.779	0.112	-0.4515	0.5549	0.1468	0.7206	-0.2161	-0.2702	-0.2281
-2.9041	-0.4855	9.1577	1.967	1.3971	0.4563	0.2047	-0.5935	-1.7531	1.0982	0.5034	9.4722	0.5289	0.0023	0.4014	0.0694	-0.145	-2.3635	9.8903	-0.2383	-0.7919	0.4594	0.3201	0.1461	-0.2281	-0.2822	-0.2342
-3.2014	-0.082	8.8654	1.8428	1.3284	0.6362	0.1873	-0.5466	-1.7326	0.4648	0.5623	9.6929	-0.0272	0.0806	0.2538	0.0696	-0.1687	-2.3205	9.7142	-0.4709	-0.7959	0.4225	0.3142	-0.6226	-0.2161	-0.2762	-0.2281
-3.3703	0.0343	9.1498	1.2605	0.9492	0.3048	0.1686	-0.5463	-1.7552	0.9834	1.2543	9.5871	-0.3619	0.357	0.3974	0.0516	-0.169	-2.3423	9.5384	0.0533	-0.741	0.7212	0.0524	-1.1921	-0.2281	-0.2762	-0.2402
-2.9671	-0.3706	8.9269	0.7096	0.6622	-0.0214	0.169	-0.4987	-1.7564	0.8145	0.6197	9.8152	-0.2698	0.4875	0.2192	0.0514	-0.1453	-2.3852	9.9443	-0.0061	-1.0181	1.0267	-0.0166	-1.0445	-0.1981	-0.2642	-0.2281
-3.0195	-0.3122	9.2134	0.4005	0.4122	0.1169	0.1692	-0.523	-1.7336	0.4639	0.4467	9.6347	-0.4836	0.5788	0.3193	0.0874	-0.1447	-2.3418	9.4772	0.2277	-0.8556	1.0609	-0.0624	-0.5859	-0.2101	-0.2762	-0.2161
-2.5031	-0.3717	8.8786	-0.0283	0.2383	-0.0182	0.1698	-0.5717	-1.6881	0.7544	0.6774	9.6982	-0.7608	0.6465	0.2939	0.051	-0.1451	-2.4065	9.7692	-0.0639	-0.9647	1.2723	0.1303	-0.8851	-0.2161	-0.2822	-0.2342
-3.3143	-0.0237	9.0358	-0.03	0.0238	-0.0604	0.1504	-0.5464	-1.7557	0.9893	0.735	9.8765	-0.9168	0.5599	0.2269	0.086	-0.1909	-2.3627	9.8331	0.3442	-0.6777	1.4546	0.1932	-0.9755	-0.2161	-0.2642	-0.2402
-3.0743	-0.254	9.3849	0.3063	0.0769	0.0368	0.2047	-0.5935	-1.7531	0.8691	0.8504	9.6425	-0.7311	0.3264	0.5213	0.1041	-0.1671	-2.3625	10.0161	0.3448	-0.3326	1.7643	0.4836	-0.5017	-0.2101	-0.2702	-0.2402
-2.7238	0.0339	9.5075	0.3095	0.4471	0.0567	0.1496	-0.5215	-1.8007	1.454	0.6768	9.9428	-0.6091	0.2658	0.4547	0.0503	-0.2151	-2.3632	9.3037	-0.2957	-0.7463	1.7978	0.4715	-0.1337	-0.2221	-0.2762	-0.2221
-2.6766	-0.2559	8.9329	0.5511	0.3076	0.3274	0.186	-0.5931	-1.7758	0.5234	0.851	9.7523	-0.4266	0.2749	0.2061	0.0332	-0.1925	-2.3637	9.3057	-0.1208	-0.6319	1.4028	0.5652	-0.0641	-0.2221	-0.2702	-0.2221
-2.7333	-0.3709	8.989	0.4607	0.2306	0.0153	0.2058	-0.5708	-1.7093	0.9902	0.8506	9.9347	-0.1478	0.1674	0.4152	0.0681	-0.2383	-2.3199	9.9479	-0.1803	-0.8476	1.5902	0.5767	0.4885	-0.2161	-0.2582	-0.2281
-3.0771	-0.0236	9.2704	0.1847	0.1416	0.0088	0.1685	-0.6182	-1.7313	0.8112	0.735	9.6413	-0.148	0.2979	0.2684	0.0178	-0.1239	-2.3221	9.9456	-0.1223	-0.9614	1.623	0.5676	0.7645	-0.2161	-0.2822	-0.2402
-2.7355	0.1478	8.9327	0.0928	0.1708	0.0712	0.1692	-0.5949	-1.7097	0.4572	0.7927	9.2871	-0.2413	0.2057	0.2939	0.0332	-0.1925	-2.3637	9.8932	0.1696	-0.6201	1.6521	0.6665	0.5541	-0.2101	-0.2642	-0.2342
-3.0154	-0.6576	9.385	-0.1205	0.1204	-0.1173	0.2053	-0.5702	-1.7315	1.2807	1.0813	9.9982	-0.1793	0.3983	0.1199	0.0508	-0.1919	-2.3634	9.484	0.1704	-0.5139	1.7688	0.5601	-0.0058	-0.2161	-0.2762	-0.2402
-2.6199	-0.0832	8.877	-0.1846	-0.1019	0.0241	0.2056	-0.5946	-1.7087	0.9919	0.331	9.992	-0.4871	0.4004	0.1835	0.0858	-0.1672	-2.4056	9.5943	0.6351	-0.8524	1.614	0.6338	-0.339	-0.2161	-0.2702	-0.2221
-2.903	-0.4277	9.2154	-0.1531	-0.0671	-0.0661	0.2061	-0.5952	-1.6865	1.0443	0.5615	9.7033	-0.4261	0.3701	0.1502	0.0869	-0.1679	-2.3415	9.6519	-0.3549	-0.9676	1.7955	0.4804	-0.4099	-0.2221	-0.2762	-0.2281
-3.2015	-0.0244	8.8656	-0.0604	0.0831	0.0041	0.187	-0.5223	-1.7553	0.8705	0.5618	9.7002	-0.178	0.4245	0.2147	0.0691	-0.1919	-2.3203	10.064	0.1105	-0.9017	1.7339	0.2645	-0.3899	-0.2342	-0.2702	-0.2402
-3.0795	0.0337	9.1555	-0.0915	0.0806	0.0652	0.1862	-0.5693	-1.7764	0.9873	0.6772	9.7604	-0.3333	0.1075	0.4432	0.0684	-0.1914	-2.363	9.7156	0.2861	-0.6801	1.77	0.2108	0.3142	-0.2221	-0.2762	-0.2221
-2.2526	-0.6583	9.7451	-0.0907	0.0275	-0.1221	0.1873	-0.5466	-1.7326	0.9305	0.5618	9.8172	-0.1768	0.3861	0.3675	0.0682	-0.1677	-2.4059	9.4819	-0.0046	-0.6283	1.7757	0.0949	1.0461	-0.2221	-0.2762	-0.2462
-2.9619	-0.6583	9.1562	-0.2436	0.0295	-0.1229	0.1875	-0.5229	-1.7331	1.0483	0.735	9.9356	-0.2731	0.1785	0.2302	0.068	-0.1912	-2.3844	9.9531	0.1115	-0.5621	1.8984	0.1842	1.1113	-0.2221	-0.2762	-0.2402
-2.7299	-0.3705	9.1615	-0.3969	-0.0876	-0.2224	0.1506	-0.5226	-1.7563	1.1019	0.8502	9.7047	-0.1825	0.2506	-0.0139	0.0851	-0.2138	-2.3838	9.9461	0.3435	-0.9034	1.7752	0.2219	0.9298	-0.2281	-0.2702	-0.2221
-2.8443	-0.1394	9.2747	-0.3983	-0.1551	-0.1031	0.151	-0.5232	-1.7341	1.0981	0.5612	9.4723	-0.0878	0.1416	0.2891	0.0341	-0.099	-2.4287	10.0099	-0.0635	-0.6753	1.7414	0.2042	0.5294	-0.2221	-0.2642	-0.2342
-2.8414	-0.4274	9.3891	-0.3968	-0.0582	-0.1901	0.2046	-0.5453	-1.7765	0.4682	0.3315	9.8666	0.1283	0.2993	0.1431	0.0321	-0.1917	-2.4278	9.7726	-0.1217	-0.7939	1.6755	0.0676	0.0001	-0.2221	-0.2702	-0.2221
-3.0194	-0.3698	9.2132	-0.4573	0.0925	-0.0902	0.1337	-0.5245	-1.6901	0.8119	1.0815	9.6998	0.1595	0.2973	0.1739	0.068	-0.1912	-2.3844	9.6519	-0.3549	-0.9676	1.7334	0.329	-0.4788	-0.2161	-0.2762	-0.2402
-2.9578	0.2071	9.4458	0.0016	0.2336	0.074	0.1689	-0.5706	-1.7325	0.5807	0.5621	9.695	0.0641	0.3125	-0.1042	0.0516	-0.169	-2.3423	9.7809	0.4033	-0.3369	1.793	0.2709	-0.6053	-0.2221	-0.2702	-0.2161
-3.1491	-0.0252	8.5792	0.2786	0.5034	0.1824	0.1688	-0.5225	-1.7558	0.7062	0.3894	10.2189	0.1268	0.1118	0.193	0.0339	-0.1224	-2.4071	9.5364	-0.1216	-0.8553	1.8241	0.3619	-0.5701	-0.2281	-0.2642	-0.2281
-2.7355	-0.4289	8.8738	0.1572	0.5401	0.0914	0.1862	-0.5693	-1.7764	0.6404	0.7932	9.8123	0.0333	0.1502	0.0717	0.0526	-0.1226	-2.3427	10.4285	0.4609	-0.2675	1.9159	0.0466	-0.372	-0.2281	-0.2822	-0.2342
-2.5055	-0.3143	8.7637	0.2183	0.5394	0.0918	0.2236	-0.6182	-1.7077	0.5835	0.851	9.8694	0.0019	-0.0091	0.1857	0.068	-0.1912	-2.3844	9.8786	0.226	-1.3605	1.7658	0.0708	-0.1235	-0.2161	-0.2822	-0.2402
-3.0116	-0.2535	9.616	-0.0559	0.6075	0.0322	0.1871	-0.5704	-1.732	0.5234	0.9087	9.7524	0.0963	0.1754	0.1662	0.0514	-0.1453	-2.3852	10.186	0.0527	-0.6717	1.6154	-0.0291	0.1493	-0.2101	-0.2942	-0.2462
-3.1444	-0.0823	8.8091	0.0671	0.6396	-0.0268	0.1323	-0.5228	-1.7567	0.9846	1.1389	9.645	0.1898	0.137	0.2875	0.0338	-0.1459	-2.3856	9.4818	0.1119	-0.628	1.5215	0.1065	-0.2119	-0.2342	-0.2702	-0.2342
-3.1954	-0.1966	9.1527	0.0356	0.6049	0.0633	0.2063	-0.5714	-1.6871	0.813	0.9661	9.7577	0.2195	0.0442	0.2813	0.067	-0.2375	-2.3839	9.8961	0.5775	-0.4482	1.3693	0.1704	-0.2381	-0.2041	-0.2702	-0.2402
-3.3731	-0.2544	8.9766	0.2194	0.4877	-0.1262	0.2249	-0.5718	-1.6645	1.0521	1.024	10.168	0.1264	0.1133	0.162	0.1043	-0.1437	-2.3841	9.656	-0.005	-0.7389	1.37	0.1049	-0.1185	-0.2161	-0.2582	-0.2342
-2.6762	-0.4288	8.9325	0.3698	0.2949	-0.0126	0.1696	-0.5955	-1.6875	1.1007	0.9656	9.6468	0.3112	0.144	0.1011	0.0516	-0.169	-2.3423	9.95	-0.0636	-0.7334	1.4315	0.1024	-0.0576	-0.2221	-0.2822	-0.2402
-3.3751	0.1491	8.92	0.2159	0.3779	0.2368	0.1868	-0.5461	-1.7547	0.9316	1.3703	9.9343	0.3749	0.1984	0.2285	0.0514	-0.1453	-2.3852	9.7158	0.1115	-0.6805	1.0972	-0.1796	0.1764	-0.2161	-0.2702	-0.2281
-2.9632	0.0335	9.1578	0.004	0.3363	-0.1357	0.2224	-0.5927	-1.7749	0.6941	0.9083	9.5815	0.2493	0.1788	0.0415	0.1043	-0.1437	-2.3841	10.0609	-0.181	-1.0733	1.0058	-0.022	0.0931	-0.2101	-0.2762	-0.2281
-2.8457	-0.0242	9.2175	-0.2732	0.2401	0.0111	0.1508	-0.547	-1.7335	0.6413	0.9087	9.8705	0.373	0.2075	0.0429	0.0693	-0.1685	-2.3419	9.8387	0.3449	-0.3929	0.9158	-0.0579	0.2765	-0.2161	-0.2882	-0.2402
-3.194	-0.3118	9.2099	-0.3348	0.0629	-0.1525	0.1865	-0.5936	-1.7536	0.992	1.024	10.0509	0.4341	0.274	-0.0773	0.0677	-0.1909	-2.4057	9.5387	-0.1795	-0.7415	1.0054	0.0107	0.0333	-0.2161	-0.2642	-0.2342
-2.6123	-0.4283	9.2212	-0.1514	0.0606	-0.1514	0.1331	-0.5477	-1.7118	0.8204	0.9089	10.1637	0.3121	0.3346	-0.0107	0.0513	-0.1687	-2.3636	9.8368	0.0536	-0.5075	0.5762	0.1194	-0.3572	-0.2281	-0.2882	-0.2342
-2.8459	0.0911	9.2178	-0.2117	0.1833	-0.1145	0.1676	-0.617	-1.7757	1.164	0.9081	9.9379	0.2219	0.39	0.1486	0.1031	-0.2135	-2.3621	10.2426	-0.0058	-0.7847	0.3614	0.2214	-0.5962	-0.2281	-0.2642	-0.2281
-2.8521	-0.2557	8.8719	-0.1489	0.3382	-0.1365	0.1689	-0.5706	-1.7325	0.4717	0.8515	10.0993	0.1875	0.1476	0.0708	0.0332	-0.1925	-2.3637	9.594	-0.0636	-0.911	0.391	0.0365	-0.606	-0.2161	-0.2702	-0.2342
-2.9658	-0.4281	8.9842	-0.3338	0.1863	-0.1459	0.2217	-0.5678	-1.8198	0.7577	0.5621	9.8721	0.6482	0.0844	-0.0596	0.1387	-0.2127	-2.34	9.7169	0.1116	-0.6235	-0.1251	0.2851	-0.5274	-0.2041	-0.2822	-0.2281
-3.0163	-0.1964	9.3862	-0.2413	0.1027	-0.3649	0.1878	-0.5472	-1.7104	1.0451	0.7348	9.7615	0.5247	0.022	-0.001	0.0334	-0.1456	-2.4069	9.7135	0.1694	-0.7943	-0.3994	0.0691	-0.4441	-0.2161	-0.2522	-0.2281
-2.6754	-0.2557	8.9904	-0.3941	0.1341	-0.3335	0.1504	-0.5464	-1.7557	0.8806	0.7935	10.2806	0.5846	0.0945	-0.2449	0.0851	-0.2138	-2.3838	9.9506	0.3441	-0.6755	-0.7582	0.2967	0.2471	-0.1981	-0.2762	-0.2281
-3.0234	-0.1396	9.0413	-0.2422	-0.0487	-0.4345	0.1686	-0.5463	-1.7552	0.5816	0.6777	9.7531	0.6172	0.0204	-0.0015	0.0693	-0.1685	-2.3419	9.8932	0.1114	-0.6202	-1.0917	0.1685	0.4892	-0.2221	-0.2762	-0.2221
-2.9622	-0.4854	9.1566	-0.3635	0.1631	-0.301	0.1505	-0.5946	-1.7324	1.1061	0.7927	9.9367	1.0145	-0.0664	-0.2573	0.0682	-0.1677	-2.4059	9.8897	0.2856	-0.7907	-1.4567	0.2947	0.4987	-0.2221	-0.2882	-0.2281
-3.081	-0.3701	9.0396	-0.2701	0.2602	-0.4181	0.1505	-0.5946	-1.7324	1.1029	0.908	9.7628	0.9823	-0.1566	-0.2941	0.0675	-0.2143	-2.3841	9.8246	-0.0644	-1.1344	-1.7302	0.1382	0.6465	-0.2041	-0.2882	-0.2402
-3.2566	-0.3699	8.9786	-0.1792	0.1371	-0.4549	0.1333	-0.524	-1.7123	1.2706	0.8496	9.4178	1.1959	-0.377	-0.2783	0.0698	-0.1453	-2.3421	9.716	-0.0632	-0.6809	-2.032	0.13	0.9868	-0.2161	-0.2702	-0.2462
-3.0807	0.0336	9.098	0.0357	0.2563	-0.4164	0.1676	-0.617	-1.7757	1.1575	1.0809	9.59	1.2566	-0.4058	-0.3426	0.0689	-0.1682	-2.3632	10.0639	0.1687	-0.9015	-2.4897	0.0435	0.9246	-0.2221	-0.2822	-0.2221
-2.9667	0.0331	8.9853	0.1907	0.4717	-0.4346	0.1852	-0.5682	-1.8208	0.5245	0.7933	9.8102	1.3494	-0.4411	-0.2832	0.0516	-0.169	-2.3423	9.4216	0.4029	-0.6854	-2.7625	0.2284	0.9979	-0.2101	-0.2822	-0.2281
-3.2025	-0.0822	8.8079	0.281	0.2574	-0.5069	0.17	-0.5479	-1.6886	1.1017	1.0234	9.7049	1.4406	-0.5011	-0.3496	0.068	-0.1912	-2.3844	9.8349	0.6937	-0.5629	-3.1904	0.0186	0.929	-0.2161	-0.2822	-0.2221
-3.1357	-0.3696	9.2109	0.0373	0.3252	-0.5663	0.1687	-0.5944	-1.7319	1.0451	0.7348	9.7615	1.5321	-0.4981	-0.443	0.068	-0.1912	-2.3844	10.0071	0.4019	-0.7882	-3.4393	0.1664	0.2315	-0.2101	-0.2642	-0.2462
-2.7884	-0.1974	9.1607	0.1293	0.4416	-0.4366	0.206	-0.6671	-1.6626	0.6401	1.0818	9.8127	1.4129	-0.2884	-0.2736	0.0513	-0.1687	-2.3636	9.665	-0.0621	-0.2833	-3.5639	0.1783	-0.1051	-0.2161	-0.2762	-0.2161
-2.8457	-0.0242	9.2175	0.159	0.3193	-0.4737	0.1691	-0.5468	-1.733	0.9263	0.5615	9.5852	1.3189	-0.4421	-0.2521	0.051	-0.2156	-2.3205	10.0034	-0.2972	-1.0177	-3.933	0.1951	-0.5317	-0.2101	-0.2642	-0.2221
-3.0238	-0.4857	8.9829	0.0678	0.5278	-0.2787	0.1878	-0.5472	-1.7104	1.1559	0.6766	9.4735	1.3177	-0.3392	-0.4627	0.0874	-0.1447	-2.3418	9.779	0.112	-0.4515	-4.0856	0.2917	-0.6177	-0.2101	-0.2702	-0.2342
-2.8463	-0.3126	9.1593	0.5603	0.7754	-0.4159	0.1871	-0.5704	-1.732	1.3962	0.5614	9.9416	1.0405	-0.3361	-0.4302	0.0871	-0.1211	-2.3847	9.8335	-0.0051	-0.6786	-4.1197	-0.0069	-0.9097	-0.2221	-0.2702	-0.2402
-2.9702	0.0327	8.8128	0.8359	0.8322	-0.3804	0.1681	-0.6176	-1.7535	0.9865	0.4461	9.7021	1.0117	-0.2479	-0.3312	0.0685	-0.168	-2.3846	10.0154	-0.0628	-0.3905	-4.2102	0.0217	-0.8152	-0.2221	-0.2882	-0.2522
-2.9044	-0.3125	9.1582	0.6841	1.0163	-0.31	0.2047	-0.5215	-1.777	0.9321	0.9084	9.9337	0.7673	-0.1898	-0.1711	0.0525	-0.1461	-2.3211	9.7741	0.5189	-0.6784	-3.9979	-0.0705	-0.8832	-0.2101	-0.2702	-0.2462
-2.7247	-0.0816	9.4497	1.1438	1.2206	-0.1732	0.1685	-0.6182	-1.7313	1.1061	0.7927	9.9367	0.86	-0.0623	-0.2874	0.0504	-0.1917	-2.3847	9.7812	0.1705	-0.3375	-3.937	-0.1335	-0.8563	-0.2041	-0.2882	-0.2342
-2.8483	-0.4282	9.044	1.3279	1.3388	-0.1042	0.185	-0.5919	-1.8202	1.1651	0.7927	9.9957	0.798	-0.2549	-0.1134	0.0324	-0.192	-2.4064	10.3615	0.8093	-0.6665	-3.8151	-0.1663	-0.8282	-0.2221	-0.2642	-0.2281
-2.8448	0.0912	9.2753	1.4219	1.6138	-0.0581	0.1505	-0.5946	-1.7324	0.9326	0.562	9.9333	0.6128	-0.1535	-0.2301	0.1029	-0.1898	-2.405	10.243	-0.3551	-0.7855	-3.6622	-0.5139	-0.6015	-0.2161	-0.2642	-0.2221
-2.7294	-0.6011	9.1609	1.88	1.6624	0.1011	0.1684	-0.57	-1.7546	0.7482	0.6769	9.3502	0.7672	-0.2544	-0.1132	0.1028	-0.2133	-2.3834	9.7227	-0.0623	-0.3391	-3.2376	-0.5732	-0.7926	-0.2161	-0.2762	-0.2402
-2.4958	0.0329	9.2821	1.9396	1.7677	0.476	0.2243	-0.595	-1.6861	0.8738	1.1972	9.933	0.7078	-0.0043	-0.1587	0.0516	-0.169	-2.3423	9.789	0.1714	0.0613	-2.9016	-0.5174	-0.7002	-0.2281	-0.2702	-0.2342
-2.7992	0.0319	8.6438	1.9403	1.8015	0.4163	0.1692	-0.5949	-1.7097	0.9324	0.7352	9.9335	0.3383	-0.0334	-0.0658	0.1033	-0.1901	-2.3836	9.9564	0.1701	-0.3911	-2.3561	-0.5112	-1.0425	-0.2101	-0.2762	-0.2522
-3.0242	-0.3127	8.9833	1.6649	1.7168	0.3178	0.1687	-0.5944	-1.7319	0.465	0.389	9.6926	0.3092	0.0563	0.0023	0.0686	-0.2151	-2.3201	9.9601	-0.1205	-0.2209	-1.8093	-0.1348	-1.3964	-0.2101	-0.2942	-0.2342
-3.1941	-0.2542	9.21	1.5425	1.6595	0.2525	0.1686	-0.5463	-1.7552	0.9862	0.6771	9.7024	0.1876	0.2121	0.0129	0.0338	-0.2164	-2.2995	10.0809	-0.062	-0.0476	-1.321	-0.2053	-1.2503	-0.2161	-0.2762	-0.2281
-2.9649	-0.3127	9.042	1.1117	1.4433	0.361	0.2058	-0.5708	-1.7093	0.7537	0.4463	9.6399	0.1599	0.1007	0.4095	0.0683	-0.2148	-2.3414	9.8358	-0.063	-0.5648	-0.9253	-0.1452	-1.3119	-0.2281	-0.2762	-0.2281
-3.1972	0.1491	9.096	1.0495	1.2339	0.2265	0.15	-0.594	-1.7545	0.8635	0.3303	9.2938	-0.1179	0.2359	0.2643	0.069	-0.1448	-2.3848	9.3049	0.636	-0.6301	-0.4358	-0.1581	-1.0399	-0.2041	-0.2702	-0.2342
-2.9089	-0.3707	8.928	0.7418	1.0219	0.2132	0.2243	-0.4749	-1.7333	0.7514	0.5617	9.524	-0.4852	0.164	0.6028	0.0679	-0.2146	-2.3628	9.7203	0.112	-0.4526	0.0211	0.0881	-1.1538	-0.2161	-0.2762	-0.2402
-2.966	-0.3128	8.9845	0.6512	0.9141	-0.1005	0.1861	-0.6412	-1.7525	1.1599	0.8501	9.7057	-0.6111	0.1781	0.3559	0.0674	-0.2378	-2.3626	9.896	0.6357	-0.448	0.4801	0.1071	-0.9106	-0.2281	-0.2822	-0.2281
-2.6669	-0.4854	9.3924	0.5248	0.6559	0.1614	0.1333	-0.524	-1.7123	1.0391	0.5612	9.4132	-0.489	0.1821	0.2314	0.0347	-0.1229	-2.3644	9.4297	0.171	-0.2872	0.6664	0.0918	-0.4824	-0.2281	-0.2642	-0.2462
-2.9672	-0.313	8.927	0.4029	0.5442	-0.0605	0.186	-0.5931	-1.7758	0.9853	0.6193	9.6443	-0.3286	0.5072	0.4692	0.0685	-0.168	-2.3846	9.3038	0.6358	-0.6871	1.3688	0.1098	-0.272	-0.2041	-0.2702	-0.2221
-3.14	-0.5431	8.9805	0.5865	0.7463	0.1974	0.2044	-0.5691	-1.7759	0.872	1.0238	9.8168	-0.3006	0.2929	0.4241	0.0311	-0.2381	-2.4273	9.5995	-0.0629	-0.6262	1.6115	0.205	-0.4227	-0.2161	-0.2702	-0.2342
-3.1394	-0.2547	9.0387	0.5865	0.7169	0.1651	0.1695	-0.6193	-1.6869	0.7565	0.6775	9.8143	-0.2068	0.2531	0.5763	0.0696	-0.1687	-2.3205	9.7156	0.2861	-0.6801	1.8571	0.2893	-0.2359	-0.2161	-0.2762	-0.2281
-3.0838	-0.1398	8.9251	0.3416	0.573	0.0021	0.1879	-0.5953	-1.687	0.98	0.6766	9.3543	-0.116	0.1623	0.5079	0.0677	-0.1909	-2.4057	9.654	-0.1799	-0.8532	2.2537	-0.0296	-0.0097	-0.2101	-0.2822	-0.2402
-2.9086	0.033	8.9865	0.1867	0.387	0.0527	0.2044	-0.5691	-1.7759	0.7016	0.7356	9.9873	-0.1811	0.0817	0.2856	0.0333	-0.169	-2.3853	9.3639	0.4613	-0.6294	2.3128	-0.0232	-0.2251	-0.2101	-0.2762	-0.2281
-3.195	-0.3696	9.1523	0.0357	0.5181	-0.0642	0.1691	-0.5468	-1.733	0.8657	1.0234	9.4687	-0.0533	0.2212	0.5425	0.0701	-0.1455	-2.3208	9.7128	-0.2382	-0.8523	2.4618	0.1133	-0.6804	-0.2221	-0.2942	-0.2161
-3.0791	0.3798	9.2139	0.1561	0.3006	-0.0751	0.1868	-0.5461	-1.7547	1.2801	0.7348	9.9397	-0.3296	0.4472	0.4342	0.0327	-0.2157	-2.3635	9.7743	0.3443	-0.6788	2.7975	-0.2051	-0.4537	-0.1981	-0.2702	-0.2402
-2.9123	-0.4288	8.7554	-0.1521	0.0269	-0.0917	0.1687	-0.5944	-1.7319	0.9272	0.7348	9.6434	-0.2083	0.3574	0.3347	0.0503	-0.2151	-2.3632	9.8379	0.0537	-0.4505	3.0729	-0.3066	-0.246	-0.2221	-0.2642	-0.2462
-2.6184	-0.256	8.934	-0.274	0.1181	-0.0262	0.1863	-0.6174	-1.753	1.1073	0.6773	9.9945	-0.2693	0.3877	0.368	0.0513	-0.1687	-2.3636	9.6523	0.2856	-0.9091	3.0162	-0.166	0.1922	-0.2101	-0.2822	-0.2281
-2.725	0.0914	9.4501	-0.308	-0.2531	-0.0155	0.1874	-0.5948	-1.7092	0.6959	0.2732	9.6387	-0.2956	0.6266	0.5389	0.0498	-0.1678	-2.449	9.9501	0.8098	-0.6744	3.2936	-0.1186	0.5614	-0.2221	-0.2642	-0.2221
-2.9067	-0.3128	9.0432	-0.3993	-0.2197	-0.0451	0.1869	-0.5942	-1.7314	0.8132	0.8506	9.7575	-0.3599	0.3479	0.5831	-0.0008	-0.1708	-2.322	9.7126	-0.0636	-0.8518	3.4149	0.1642	0.3599	-0.2101	-0.2882	-0.2342
-3.1425	-0.4281	8.8658	-0.0934	-0.1942	-0.011	0.2037	-0.5923	-1.7975	0.9864	0.5616	9.7022	-0.1773	0.2263	0.4813	0.0335	-0.1927	-2.3424	9.9612	0.8694	-0.1045	3.4137	0.2942	0.1514	-0.2221	-0.2762	-0.2342
-2.6736	-0.0249	9.106	-0.2755	0.0212	0.0608	0.1869	-0.5942	-1.7314	0.5829	0.4468	9.8108	0.0396	0.2182	0.5729	0.0514	-0.1453	-2.3852	9.5959	0.1695	-0.7965	3.293	0.5414	0.1653	-0.1981	-0.2702	-0.2342
-3.1371	-0.2544	9.1537	-0.0904	0.0878	-0.0881	0.1507	-0.5708	-1.7329	1.1055	0.4462	9.8782	-0.088	0.0126	0.4049	0.0854	-0.1669	-2.4269	9.6615	0.1121	-0.4538	3.1737	0.9395	0.2792	-0.2221	-0.2702	-0.2342
-3.3743	-0.2545	8.9191	-0.2153	-0.0441	0.1192	0.2243	-0.595	-1.6861	0.8044	1.1964	9.2938	0.035	-0.0202	0.4022	0.0503	-0.2151	-2.3632	9.8986	0.2868	-0.3349	2.808	0.9435	0.2516	-0.2161	-0.2702	-0.2402
-3.081	0.2065	9.0984	-0.1808	0.2138	-0.1127	0.1694	-0.5712	-1.7103	1.0465	0.5039	9.8192	-0.302	0.2022	0.3871	0.0879	-0.1216	-2.342	10.0635	0.518	-0.9007	2.6235	0.8894	0.0658	-0.2221	-0.2942	-0.2281
-2.853	-0.4288	8.814	0.124	0.1453	-0.0529	0.2242	-0.5468	-1.7094	0.6938	1.1392	9.5818	-0.4274	0.1488	0.26	0.0858	-0.1672	-2.4056	9.7228	0.8692	-0.2799	2.1978	1.1094	0.05	-0.2101	-0.2762	-0.2221
-2.9119	-0.0251	8.8138	-0.0293	0.1738	0.0398	0.1876	-0.571	-1.7098	0.9867	0.3306	9.702	-0.365	0.177	0.2926	0.0672	-0.2141	-2.4055	9.8963	0.4029	-0.4486	1.9203	0.7494	-0.1817	-0.2161	-0.2702	-0.2342
-3.426	-0.5996	9.2046	0.0937	0.2059	-0.0191	0.15	-0.594	-1.7545	1.1587	0.9655	9.6479	-0.3345	0.178	0.2615	0.0503	-0.2151	-2.3632	10.1252	-0.0639	-0.787	1.5286	0.8303	0.2869	-0.2101	-0.2702	-0.2462
-2.9649	-0.3127	9.042	0.1234	0.1704	0.0714	0.1692	-0.5949	-1.7097	0.811	0.9659	9.6416	-0.3629	0.3293	0.3336	0.0148	-0.1925	-2.4068	9.6596	-0.1792	-0.5684	0.919	0.7748	0.2583	-0.2161	-0.2822	-0.2402
-2.8487	-0.2553	9.0444	0.0643	0.2135	-0.1726	0.1678	-0.5933	-1.7763	0.9296	0.4463	9.7591	-0.3051	0.2819	0.0197	0.0504	-0.1917	-2.3847	10.2497	-0.296	-0.4436	0.6759	0.6499	0.3768	-0.2281	-0.2822	-0.2342
-3.0202	-0.5429	9.1553	0.0955	0.3336	-0.1045	0.1874	-0.5948	-1.7092	0.6298	0.9656	9.2324	-0.1813	0.1477	0.1967	0.0504	-0.1917	-2.3847	10.2459	0.111	-0.6135	0.6754	0.7144	0.2879	-0.2221	-0.2762	-0.2281
-2.7902	-0.4283	9.0452	0.2183	0.3938	-0.1005	0.2053	-0.5702	-1.7315	0.8742	0.9085	9.9327	0.061	-0.0625	-0.0043	0.0854	-0.2375	-2.3408	9.824	0.4595	-1.1332	0.1556	0.6641	0.0743	-0.2161	-0.2822	-0.2402
-2.6753	0.2633	9.0491	0.2195	0.4598	-0.1891	0.1689	-0.5706	-1.7325	0.7509	0.9659	9.5246	0.0341	0.2439	0.0468	0.0506	-0.2154	-2.3418	9.4764	-0.0635	-0.9133	0.0943	0.5723	0.07	-0.2161	-0.2882	-0.2342
-2.6227	-0.4295	8.7036	0.2786	0.271	-0.1374	0.1871	-0.5704	-1.732	0.7551	0.9661	9.7566	-0.028	0.2142	0.0451	0.0861	-0.1674	-2.3842	9.7698	0.3437	-0.9067	-0.0567	0.5687	0.2248	-0.2161	-0.2822	-0.2281
-3.3096	-0.6575	9.2068	0.1538	0.0523	-0.0577	0.205	-0.5459	-1.7543	0.8191	0.2736	10.0468	0.1243	0.1885	-0.1125	0.0677	-0.1909	-2.4057	10.189	0.4024	-0.5	-0.0568	0.4436	0.2798	-0.2161	-0.2762	-0.2402
-2.6724	-0.0247	9.1635	-0.0598	-0.0288	-0.2478	0.1326	-0.5472	-1.734	0.9838	0.9656	9.5867	0.1278	0.3992	-0.0057	0.0326	-0.1685	-2.428	9.8932	0.1696	-0.6201	-0.3611	0.3201	0.3681	-0.2221	-0.2702	-0.2342
-3.1437	0.1485	8.8671	-0.3676	-0.2129	-0.1982	0.1692	-0.5949	-1.7097	0.9304	0.6196	9.8173	0.0034	0.3735	-0.0689	0.0508	-0.1919	-2.3634	9.656	0.0532	-0.7387	-0.2388	0.2546	0.4559	-0.2161	-0.2942	-0.2281
-2.9628	-0.1971	9.1573	-0.4593	-0.2985	-0.3263	0.1868	-0.5461	-1.7547	0.9263	0.5615	9.5852	-0.1797	0.3675	0.1179	0.0327	-0.2157	-2.3635	9.6625	0.1705	-0.3967	-0.3891	0.248	0.7028	-0.2101	-0.2762	-0.2402
-2.957	-0.1964	9.4448	-0.3977	-0.2964	-0.3873	0.1691	-0.5468	-1.733	0.9886	0.4463	9.8181	-0.333	0.5607	0.0069	0.0516	-0.169	-2.3423	9.8896	0.3438	-0.7905	0.0328	0.3247	0.1191	-0.2161	-0.2762	-0.2342
-3.0803	-0.716	9.0387	-0.6734	-0.3251	-0.3598	0.1672	-0.5446	-1.8218	0.6956	0.5042	9.639	-0.2122	0.3434	-0.0077	0.0693	-0.1685	-2.3419	9.7177	0.4028	-0.5659	0.1542	0.2939	0.0858	-0.2161	-0.2762	-0.2522
-2.7361	-0.1406	8.8745	-0.458	-0.1736	-0.3503	0.1508	-0.6189	-1.7096	1.2197	0.9656	9.823	-0.427	0.4715	-0.0295	0.0866	-0.1443	-2.3845	9.7756	0.1698	-0.6223	0.0316	0.2978	-0.0053	-0.2281	-0.2762	-0.2342
-2.9679	0.0329	8.9278	-0.2127	-0.0269	-0.2487	0.2039	-0.5685	-1.7981	0.8132	0.8506	9.7575	-0.3964	0.2774	0.144	0.0692	-0.1214	-2.4064	9.4275	0.1125	-0.4013	0.1245	0.2912	0.1781	-0.2101	-0.2762	-0.2462
-2.7894	-0.2552	9.1031	-0.18	0.1607	-0.2999	0.2052	-0.5221	-1.7548	0.8753	0.8508	9.9906	-0.2147	0.1604	-0.0507	0.0683	-0.2148	-2.3414	9.6625	0.1705	-0.3967	-0.1184	0.2277	0.2998	-0.2221	-0.2702	-0.2402
-2.8477	-0.7741	9.0432	0.0961	0.3085	-0.2288	0.1334	-0.5721	-1.689	0.8149	1.1394	9.8739	-0.0905	0.057	0.1283	0.0509	-0.1685	-2.385	9.9545	-0.1212	-0.5057	-0.117	0.1285	0.5099	-0.2101	-0.2702	-0.2281
-3.4863	-0.0808	9.1472	0.1251	0.1231	-0.2385	0.1843	-0.567	-1.8652	0.8112	0.7927	9.6414	-0.0264	0.3695	0.0242	0.0505	-0.1683	-2.4063	9.8973	0.4613	-0.3915	-0.4217	-0.119	0.6225	-0.2221	-0.2762	-0.2342
-2.9035	-0.1971	9.2159	0.0047	0.2538	-0.3552	0.2048	-0.5697	-1.7537	0.5812	1.0241	9.7536	0.0657	0.3049	0.0506	0.0677	-0.1909	-2.4057	9.7224	0.1705	-0.3386	-0.3303	-0.1823	0.6492	-0.2101	-0.2642	-0.2281
-2.8531	-0.3711	8.8141	-0.1832	-0.0639	-0.1275	0.1504	-0.5464	-1.7557	0.8679	0.908	9.5846	0.0935	0.2213	-0.1413	0.1033	-0.1901	-2.3836	9.7135	0.1112	-0.7944	-0.2423	-0.3578	0.3319	-0.2161	-0.2762	-0.2281
-3.0846	0.2638	8.9261	-0.1824	-0.0875	-0.2825	0.1674	-0.6408	-1.7751	0.5732	0.7348	9.2891	0.0054	0.4289	0.0589	0.051	-0.2156	-2.3205	9.4228	0.2866	-0.6287	-0.3351	-0.4454	0.2051	-0.2161	-0.2822	-0.2342
-3.3181	0.1488	8.8637	-0.3648	0.0088	-0.3092	0.1872	-0.4985	-1.7559	1.225	0.9083	10.113	-0.0579	0.373	-0.0376	0.07	-0.169	-2.2992	9.5363	-0.0634	-0.8552	-0.2476	-0.2746	-0.3402	-0.2101	-0.2702	-0.2402
-3.4965	-0.1973	8.6294	-0.3015	0.1681	-0.4232	0.1878	-0.5472	-1.7104	1.2148	0.7343	9.5326	-0.2423	0.3731	0.0254	0.0499	-0.2149	-2.3845	9.7763	0.5774	-0.5643	-0.1598	-0.3241	-0.7433	-0.2161	-0.2762	-0.2281
-2.96	0.1492	9.3306	-0.118	0.1657	-0.4222	0.1695	-0.6193	-1.6869	1.1019	0.8502	9.7047	-0.0901	0.1523	0.0724	0.0342	-0.1461	-2.3642	9.8375	0.3448	-0.4498	-0.1273	-0.2072	-0.553	-0.2221	-0.2882	-0.2342
-3.2542	-0.4273	9.0935	-0.1788	0.2561	-0.3563	0.1876	-0.571	-1.7098	0.6387	0.5043	9.6959	-0.0896	0.2475	0.0165	0.1038	-0.1669	-2.3839	9.8917	0.4606	-0.6763	-0.2755	-0.0966	-0.1155	-0.2221	-0.2762	-0.2221
-2.9623	-0.4277	9.1567	-0.0236	0.473	-0.4051	0.2239	-0.5225	-1.7322	0.8749	1.1973	9.9911	-0.2425	0.2763	0.1122	0.05	-0.1914	-2.4061	10.1874	-0.1218	-0.6152	-0.5145	-0.2066	0.4957	-0.2101	-0.2882	-0.2402
-3.1431	-0.1398	8.8664	-0.1786	0.2576	-0.3869	0.1668	-0.5921	-1.8207	0.4656	0.7356	9.7511	-0.3656	0.2123	0.2018	0.0495	-0.2146	-2.4059	9.7059	-0.0644	-1.1936	-0.508	-0.3255	1.3197	-0.2221	-0.2702	-0.2342
-2.9049	-0.0819	9.1587	-0.0906	-0.0299	-0.2173	0.205	-0.5459	-1.7543	0.8713	0.735	9.7584	-0.2707	0.5243	0.0974	0.0509	-0.1685	-2.385	9.8898	0.1692	-0.791	-0.4498	-0.3469	1.0106	-0.2221	-0.2882	-0.2281
-2.9656	0.0332	9.0428	0.1851	-0.0011	-0.2448	0.2037	-0.5923	-1.7975	0.526	0.4469	9.8678	-0.1798	0.5304	-0.0578	0.0682	-0.1677	-2.4059	9.8285	0.4018	-0.9054	-0.6693	-0.6649	0.4116	-0.2161	-0.2762	-0.2221
-3.0272	0.0329	8.8692	-0.2139	-0.1517	-0.2246	0.2235	-0.5701	-1.731	0.6952	0.8506	9.6394	-0.4501	1.0854	0.0416	0.0494	-0.2381	-2.3843	9.4818	0.1119	-0.628	-0.6746	-0.5192	-0.288	-0.2221	-0.2822	-0.2281
-2.7944	-0.0828	8.8735	-0.3066	-0.3019	-0.2948	0.1878	-0.5472	-1.7104	0.751	0.9081	9.5245	-0.4825	0.963	0.0338	0.0324	-0.192	-2.4064	9.9506	0.4023	-0.6753	-0.4954	-0.4444	-0.7468	-0.2281	-0.2702	-0.2281
-2.9007	-0.4274	9.3304	-0.3972	-0.1479	-0.2564	0.1679	-0.5695	-1.7768	0.6959	1.0816	9.6977	-0.5478	0.9161	-0.2484	-0.0013	-0.194	-2.3218	9.8335	-0.0051	-0.6786	-0.1274	-0.4573	-0.443	-0.2221	-0.2762	-0.2342
-2.6781	-0.0831	8.8758	-0.3973	-0.2361	-0.3533	0.1497	-0.6416	-1.7534	0.9287	1.1391	9.76	-0.6058	0.965	0.0345	0.015	-0.2162	-2.3639	9.7147	0.1113	-0.7375	-0.126	-0.369	-0.3154	-0.2161	-0.2642	-0.2221
-3.0223	-0.0818	9.0989	-0.5509	-0.2385	-0.2622	0.169	-0.6187	-1.7091	0.6962	0.8507	9.6974	-0.794	0.5608	0.1643	0.0685	-0.168	-2.3846	9.7076	0.4598	-1.0784	0.0893	-0.4729	-0.0151	-0.2221	-0.2642	-0.2221
-2.9046	-0.1972	9.1584	-0.4886	-0.3188	-0.5427	0.1872	-0.4985	-1.7559	0.7519	1.0237	9.5827	-0.8233	0.7489	0.1146	0.0684	-0.1914	-2.363	9.7115	-0.0637	-0.9088	-0.0904	-0.2013	0.2158	-0.2161	-0.2822	-0.2402
-2.9076	-0.4282	8.9854	-0.459	-0.4132	-0.5169	0.1502	-0.5702	-1.7551	0.6974	0.793	9.7553	-0.731	0.8456	-0.0038	0.07	-0.169	-2.2992	9.5939	-0.0054	-0.9109	-0.3009	-0.1161	0.4986	-0.2281	-0.2822	-0.2342
-3.3747	-0.0239	8.9196	0.1508	-0.7238	-0.6525	0.186	-0.5931	-1.7758	0.8655	1.1966	9.4689	-0.823	0.9747	-0.0881	0.0845	-0.2604	-2.362	9.8903	-0.2383	-0.7919	-0.4542	-0.361	0.4872	-0.1981	-0.2882	-0.2281
-3.2014	-0.6587	8.8065	0.5172	-0.9064	-0.8136	0.1695	-0.5474	-1.7108	1.0419	0.7923	9.5876	-0.7007	0.9127	-0.1237	0.0513	-0.1687	-2.3636	9.949	-0.1801	-0.7907	-0.2709	-0.3337	0.5486	-0.2041	-0.2762	-0.2281
-2.7385	-0.0832	8.7596	0.3335	-1.1673	-1.1361	0.1683	-0.5219	-1.778	0.9882	0.7927	9.8186	-0.8202	1.1562	-0.0142	0.0509	-0.1685	-2.385	9.7738	-0.238	-0.7372	-0.4527	-0.3669	0.6713	-0.2161	-0.2762	-0.2402
-2.7963	-0.2561	8.7581	0.5755	-1.3628	-0.9913	0.1684	-0.57	-1.7546	1.0979	0.7344	9.4725	-1.0343	1.2813	0.026	0.0494	-0.2381	-2.3843	9.5405	0.17	-0.6268	-0.2123	-0.3879	0.2993	-0.2221	-0.2822	-0.2281
-2.8432	-0.7159	9.2734	-0.373	-1.7609	-1.4798	0.1507	-0.5708	-1.7329	0.8723	0.7351	9.8164	-0.9121	1.1547	0.0482	0.0662	-0.2605	-2.405	9.7158	0.1115	-0.6805	-0.1812	-0.2025	0.2779	-0.2161	-0.2882	-0.2281
-2.7847	0.2643	9.3919	-1.1401	-1.9139	-1.3085	0.1868	-0.5461	-1.7547	0.4638	0.5622	9.6349	-0.914	0.9042	0.1251	0.0506	-0.2154	-2.3418	9.9576	0.1121	-0.3342	-0.1207	0.2991	-0.004	-0.2101	-0.2702	-0.2221
-3.0291	-0.1403	8.7537	-1.9729	-2.823	-1.4855	0.1872	-0.4985	-1.7559	0.939	0.4469	10.2812	-1.0993	0.9733	0.0373	0.0861	-0.1674	-2.3842	9.774	0.5771	-0.6783	-0.2977	0.5916	0.5354	-0.2041	-0.2822	-0.2281
-2.5041	0.1472	8.8798	-3.7801	-3.5465	-2.0584	0.1679	-0.5695	-1.7768	0.7595	0.7355	9.9884	-1.0382	0.8125	0.1507	0.0332	-0.1925	-2.3637	9.8932	0.1696	-0.6201	-0.7493	1.2011	0.8783	-0.2161	-0.2822	-0.2402
-2.9035	-0.1971	9.2159	-5.346	-4.383	-2.2669	0.1333	-0.524	-1.7123	0.9263	0.5615	9.5852	-1.3474	0.9512	-0.0562	0.0882	-0.1218	-2.3206	9.6592	0.1118	-0.5677	-1.3513	1.5855	1.5489	-0.2281	-0.2582	-0.2402
-2.8527	0.0326	8.8726	-6.1448	-5.037	-2.6145	0.1681	-0.5457	-1.7774	0.9321	0.9084	9.9337	-1.7152	0.9791	0.1336	0.0866	-0.1443	-2.3845	9.7633	0.1682	-1.2489	-1.6171	2.0566	2.3135	-0.2161	-0.2762	-0.2462
-3.0214	0.0336	9.1567	-6.7275	-5.1279	-2.5001	0.1686	-0.5463	-1.7552	0.8711	0.8505	9.7586	-1.9322	1.1178	-0.1048	0.0508	-0.1919	-2.3634	9.9506	0.3441	-0.6755	-1.7701	2.0608	2.2228	-0.2161	-0.2762	-0.2342
-2.9046	-0.1972	9.1584	-6.9445	-5.3483	-2.3596	0.1878	-0.5472	-1.7104	0.862	0.6766	9.2362	-2.1773	1.1789	-0.0066	0.068	-0.1912	-2.3844	9.8377	0.2283	-0.4501	-2.1375	2.3844	1.8429	-0.2281	-0.2882	-0.2281
-2.9026	-0.6583	9.2148	-7.4597	-4.6127	-2.0777	0.1334	-0.5721	-1.689	0.8124	0.6773	9.6993	-2.0549	0.954	0.1335	0.068	-0.1912	-2.3844	9.5955	0.577	-0.7956	-2.1732	2.311	1.2551	-0.2281	-0.2822	-0.2402
-2.6624	-0.4272	9.6225	-4.2636	-2.2805	-1.2253	0.1507	-0.5708	-1.7329	0.404	1.1396	9.5765	-1.8998	0.8824	0.2834	0.1038	-0.1669	-2.3839	9.8281	-0.2386	-0.964	-2.3944	2.3126	0.3038	-0.2161	-0.2702	-0.2221
-2.8464	-0.255	9.1595	-0.8224	-0.3267	-0.9449	0.1513	-0.5476	-1.7113	1.1105	0.6775	10.1686	-1.4412	0.4719	0.3167	0.0516	-0.169	-2.3423	9.7782	-0.121	-0.5091	-2.0394	2.2248	-0.9029	-0.2041	-0.2942	-0.2221
-2.9647	-0.3703	9.0419	-0.1765	0.0381	-0.9826	0.1687	-0.5944	-1.7319	1.1068	1.1392	9.9951	-0.5198	0.2472	0.1737	0.0695	-0.1921	-2.299	9.952	0.1114	-0.6191	-2.2275	2.1845	-1.5184	-0.2161	-0.2822	-0.2281
-2.8532	-0.3135	8.8143	-0.3573	0.2328	-1.1271	0.1859	-0.5449	-1.7991	0.8109	1.0237	9.6417	-0.181	0.1462	0.2277	0.0335	-0.1927	-2.3424	9.8302	-0.1219	-0.8497	-1.8307	2.0214	-1.3456	-0.2101	-0.2822	-0.2402
-2.7302	-0.1976	9.1619	-0.1405	0.3355	-1.3968	0.1505	-0.5946	-1.7324	0.5793	0.8507	9.6373	0.1532	-0.0626	-0.0358	0.0504	-0.1917	-2.3847	9.8967	-0.0046	-0.4496	-1.6798	2.2761	-1.6411	-0.2161	-0.2882	-0.2462
-3.1471	-0.4286	8.6357	-0.1745	0.1099	-1.1939	0.1691	-0.5468	-1.733	1.2185	1.1388	9.7652	0.1267	0.3069	-0.0117	0.068	-0.1912	-2.3844	9.7762	-0.3541	-0.6236	-1.074	2.7532	-2.267	-0.2342	-0.2762	-0.2462
-2.8998	-0.312	9.3882	0.0732	0.3593	-1.3019	0.1503	-0.4983	-1.779	0.9844	0.446	9.5861	-0.2723	0.5319	-0.0573	0.0691	-0.1919	-2.3203	9.7705	-0.2384	-0.9081	-0.2287	3.0257	-3.3052	-0.2161	-0.2942	-0.2522
-2.6132	-0.5437	9.1634	0.6221	0.226	-1.2441	0.1869	-0.5942	-1.7314	0.8702	0.7927	9.7005	-0.6095	0.6576	0.0145	0.0505	-0.1683	-2.4063	9.9563	0.2283	-0.3909	0.5802	3.6654	-5.2157	-0.2041	-0.2702	-0.2221
-3.1864	-0.0802	9.613	0.9277	0.1044	-1.3715	0.1694	-0.4993	-1.7342	0.98	0.6766	9.3543	-0.7339	0.6319	-0.0487	0.0519	-0.1221	-2.3854	9.7792	-0.0627	-0.4519	1.2131	4.03	-6.1859	-0.2161	-0.2882	-0.2281
-2.9555	-0.3692	9.5019	0.9879	0.1846	-1.121	0.1504	-0.5464	-1.7557	0.988	0.9082	9.8187	-1.1622	1.0127	-0.1151	0.0157	-0.1696	-2.3857	9.6028	0.054	-0.455	1.955	3.8247	-4.7882	-0.2101	-0.2822	-0.2462
-3.1894	-0.3113	9.4399	0.8305	-0.076	-0.7978	0.1687	-0.5944	-1.7319	0.8117	1.197	9.6999	-1.3747	1.1947	0.0219	0.0173	-0.1471	-2.3219	9.6493	-0.0059	-1.0807	2.0362	3.5261	-2.2214	-0.2221	-0.2762	-0.2342
-3.0285	0.1481	8.8119	0.0651	-0.2176	-0.8718	0.1701	-0.5961	-1.6653	0.6977	0.5043	9.755	-1.8354	1.1934	0.2102	0.0875	-0.1213	-2.3633	9.476	0.2858	-0.9124	1.9033	3.3583	0.1693	-0.2281	-0.2762	-0.2522
-3.2009	0.264	8.9238	-0.6121	-0.6745	-0.8392	0.1504	-0.5464	-1.7557	0.6395	0.7353	9.7542	-1.6236	1.0466	-0.0177	0.1225	-0.1671	-2.3195	9.54	-0.354	-0.685	0.5664	2.9508	0.7433	-0.2041	-0.2762	-0.2402
-2.5572	-0.0827	9.1081	-1.5329	-1.1505	-0.9935	0.1691	-0.5468	-1.733	0.8124	0.6196	9.6992	-1.3735	1.0918	0.2325	0.0526	-0.1226	-2.3427	9.8936	-0.2379	-0.621	0.5001	2.9095	0.1267	-0.2221	-0.2822	-0.2281
-3.2011	-0.774	8.8063	-2.2097	-1.634	-1.0545	0.1694	-0.4993	-1.7342	1.0471	0.8505	9.8777	-1.2837	1.0056	0.0713	0.0337	-0.1693	-2.364	10.1237	0.227	-0.8433	1.1833	2.783	-1.8841	-0.2221	-0.2822	-0.2281
-2.5429	-0.3117	9.7976	-2.9455	-2.0729	-1.3901	0.1335	-0.5002	-1.7129	0.9808	0.8499	9.4126	-1.0704	0.7868	0.056	0.0688	-0.1211	-2.4277	9.7658	-0.0643	-1.1356	0.7075	2.7038	-4.0983	-0.2101	-0.2822	-0.2462
-2.9103	-0.2556	8.8708	-3.2833	-2.4566	-1.6895	0.2232	-0.5457	-1.7538	0.6989	0.3889	9.8128	-0.8256	0.7595	-0.1021	0.0687	-0.1445	-2.4062	10.1818	-0.1807	-0.9001	0.7299	2.7976	-5.1083	-0.2101	-0.2762	-0.2342
-3.0121	-0.0229	9.6166	-3.7759	-2.8793	-1.7767	0.1324	-0.571	-1.7334	0.5212	0.9663	9.6364	-0.4542	0.7472	0.0196	0.0675	-0.2143	-2.3841	10.1284	0.0529	-0.6159	1.3698	2.4776	-4.9149	-0.2221	-0.2702	-0.2402
-2.6705	-0.4281	9.22	-4.3295	-3.4748	-2.1196	0.1502	-0.5702	-1.7551	0.6456	0.8513	10.1025	-0.2394	0.6191	0.0414	0.0889	-0.0752	-2.3424	9.9565	0.0537	-0.3913	1.0022	2.5829	-5.214	-0.2221	-0.2882	-0.2402
-3.0795	-0.5429	9.0966	-4.8454	-3.326	-2.5145	0.15	-0.594	-1.7545	0.4646	0.7355	9.6931	-0.1763	0.7088	0.078	0.053	-0.1229	-2.3214	9.9498	0.0529	-0.7332	1.6129	2.9787	-5.2291	-0.2041	-0.2822	-0.2462
-2.6671	-0.3701	9.3927	-4.9689	-3.6523	-2.7786	0.1689	-0.5706	-1.7325	0.7573	0.0424	9.8134	0.098	0.4597	0.0295	0.0509	-0.1685	-2.385	9.6611	0.4614	-0.4529	1.9168	3.4793	-5.5438	-0.2342	-0.2882	-0.2462
-2.9654	-0.0244	9.0427	-4.6889	-3.2167	-2.9072	0.1684	-0.57	-1.7546	1.1096	0.562	10.1104	0.1622	0.382	0.3346	0.0884	-0.0984	-2.3422	9.7141	0.577	-0.7364	2.6441	4.0507	-6.258	-0.2161	-0.2762	-0.2342
-2.6778	-0.1984	8.8755	-4.5053	-3.2765	-3.0014	0.1697	-0.5236	-1.7114	0.6968	1.1972	9.7559	0.2544	0.4142	0.2742	0.0865	-0.1677	-2.3629	9.2979	-0.1218	-1.0307	2.8776	4.8393	-7.8486	-0.2161	-0.2942	-0.2402
-2.8456	-0.0819	9.2174	-4.4996	-2.7154	-3.0943	0.1694	-0.4993	-1.7342	0.7534	0.6773	9.6402	0.3179	0.275	0.5753	0.0698	-0.1453	-2.3421	10.0047	-0.4135	-0.961	3.3066	5.3886	-7.7928	-0.2101	-0.2822	-0.2402
-2.7927	-0.3133	8.9304	-4.0144	-2.9815	-2.8288	0.1695	-0.5474	-1.7108	0.4665	0.0427	9.7502	0.2538	0.1899	0.4459	0.0844	-0.2133	-2.4265	9.9525	-0.2961	-0.6201	2.8336	5.4626	-6.1247	-0.2101	-0.2762	-0.2161
-2.6707	-0.3128	9.2203	-3.8899	-2.8231	-2.9424	0.1502	-0.5702	-1.7551	0.4635	0.7931	9.6352	0.3762	0.1924	0.3523	0.0491	-0.2378	-2.4056	9.829	-0.0056	-0.9064	1.9556	5.0117	-5.2799	-0.2161	-0.2762	-0.2342
-2.9097	0.0328	8.929	-3.8008	-3.1033	-2.9261	0.1688	-0.5225	-1.7558	0.4628	0.5044	9.5768	0.8355	-0.1567	0.3896	0.086	-0.1203	-2.4487	9.7707	-0.4713	-0.9087	1.1397	4.5871	-4.3114	-0.2041	-0.2882	-0.2281
-2.6776	0.263	8.9341	-3.7685	-2.8598	-2.8514	0.151	-0.5232	-1.7341	1.0454	0.5616	9.7613	1.2666	-0.1609	0.3253	0.0851	-0.2138	-2.3838	9.7762	-0.3541	-0.6236	1.0795	4.3346	-4.1088	-0.2041	-0.2882	-0.2462
-2.7324	-0.2555	9.0467	-4.1658	-2.8532	-2.8844	0.187	-0.5223	-1.7553	1.2179	0.7923	9.7067	1.7833	-0.588	0.0468	0.1036	-0.1903	-2.3623	9.6579	0.3445	-0.6241	1.2321	4.645	-4.2169	-0.2221	-0.2822	-0.2221
-2.8418	-0.2544	9.3895	-4.1982	-2.9232	-2.7039	0.1321	-0.4985	-1.7795	0.8659	0.9079	9.4686	1.965	-0.8678	0.0278	0.0709	-0.146	-2.2781	9.7817	-0.2952	-0.3386	0.8705	5.0402	-3.9474	-0.2161	-0.2882	-0.2281
-2.846	-0.4279	9.159	-3.7403	-2.701	-2.2895	0.1316	-0.618	-1.7544	0.9914	0.7352	9.9925	2.3632	-1.2833	0.1852	0.0865	-0.1677	-2.3629	9.6525	0.111	-0.9095	1.2311	5.3377	-4.6728	-0.2101	-0.2822	-0.2462
-2.966	-0.3128	8.9845	-3.584	-2.2446	-2.1718	0.1692	-0.523	-1.7336	0.6964	0.7352	9.6973	2.6059	-1.5934	0.1329	0.0688	-0.1916	-2.3417	10.3584	-0.3555	-0.8972	0.9252	5.4395	-4.8803	-0.2101	-0.2822	-0.2402
-2.7932	-0.0827	8.931	-3.1867	-1.9893	-1.7868	0.1317	-0.546	-1.7784	0.9384	0.9089	10.2818	3.0026	-2.0997	0.2534	0.0683	-0.2148	-2.3414	9.8254	0.2268	-1.0768	0.2592	4.8974	-4.1343	-0.2041	-0.2942	-0.2522
-2.9016	-0.5429	9.2726	-2.7582	-1.6434	-1.3659	0.1322	-0.5466	-1.7562	0.8757	0.5621	9.9902	4.0206	-2.4747	0.628	0.069	-0.1448	-2.3848	9.5287	-0.2972	-1.2545	0.0219	4.5304	-3.1982	-0.2041	-0.2762	-0.2402
-2.2046	-0.775	9.2284	-2.0845	-1.558	-1.3877	0.1506	-0.5226	-1.7563	0.8152	0.9085	9.8736	4.3508	-2.9894	0.3136	0.087	-0.1445	-2.3631	10.182	-0.2971	-0.9004	-0.6785	4.3795	-3.1081	-0.2221	-0.2882	-0.2221
-2.4344	-0.4282	9.3971	-2.3583	-1.2252	-1.1565	0.1322	-0.5466	-1.7562	0.5888	0.7359	10.1593	5.0548	-3.5931	0.4264	0.0677	-0.1909	-2.4057	9.9498	0.0529	-0.7332	-1.6833	4.1677	-2.9572	-0.2101	-0.2762	-0.2402
-2.8487	-0.2553	9.0444	-2.3587	-1.1987	-1.0629	0.1324	-0.4509	-1.7806	0.6982	0.9663	9.8136	6.4075	-4.4396	0.8619	0.0511	-0.1922	-2.342	9.5412	-0.4121	-0.6282	-2.2298	3.7903	-2.5726	-0.2281	-0.2882	-0.2462
-2.7891	-0.4282	9.1027	-2.2974	-1.1113	-0.9656	0.1505	-0.5946	-1.7324	0.7555	0.6197	9.7562	7.0153	-5.1863	0.7795	0.0675	-0.2143	-2.3841	9.8886	0.2855	-0.8476	-2.5441	3.5801	-3.6264	-0.2101	-0.2822	-0.2342
-2.7238	-0.5428	9.4486	-2.8166	-0.9841	-0.9007	0.1135	-0.4743	-1.8027	0.7647	0.7936	10.2785	7.4642	-6.0061	0.3516	-0.0031	-0.2399	-2.364	9.9511	-0.0634	-0.6765	-3.6533	3.3885	-5.0418	-0.2101	-0.2822	-0.2462
-2.7923	-0.5439	8.9299	-3.1828	-0.7706	-0.738	0.1139	-0.5468	-1.7566	0.7587	0.5622	9.9301	8.1686	-7.0337	0.9336	0.0695	-0.1216	-2.3851	10.1254	-0.2967	-0.7876	-4.0573	3.204	-5.9091	-0.2221	-0.2822	-0.2462
-2.9584	-0.0812	9.3876	-3.9476	-0.7048	-0.6164	0.1137	-0.5224	-1.7794	0.7639	0.5626	10.2202	6.31	-7.842	1.0757	0.0685	-0.168	-2.3846	9.997	0.4589	-1.3007	-4.1229	2.4402	-6.102	-0.2041	-0.2942	-0.2402
-2.7265	-0.3125	9.3341	-5.1656	-0.2191	-0.752	0.1876	-0.4991	-1.7337	0.7009	0.4468	9.9289	7.1533	-9.222	0.6095	-0.0027	-0.2401	-2.3427	10.0605	0.1683	-1.0724	-4.2198	1.9614	-6.5258	-0.2101	-0.2762	-0.2522
-3.0162	-0.8307	9.3271	-5.2249	-0.0024	-0.7407	0.1502	-0.5702	-1.7551	0.7629	0.5625	10.1622	11.7078	-11.9301	-0.4877	0.0508	-0.1919	-2.3634	9.949	-0.2383	-0.7908	-4.8364	1.6199	-7.2458	-0.2161	-0.2822	-0.2402
-2.903	-0.4277	9.2154	-4.7624	0.7148	-0.3305	0.1498	-0.6178	-1.754	0.919	0.561	9.1791	10.5948	-11.672	-0.9627	0.014	-0.2154	-2.4279	9.5984	-0.063	-0.6832	-5.3003	1.3377	-7.9332	-0.2041	-0.2882	-0.2342
-2.9596	-0.658	9.2712	-4.7915	1.1327	-0.001	0.1329	-0.5715	-1.7112	5.7034	-5.5101	7.4013	12.6834	-8.9075	-10.2932	0.0683	-0.2148	-2.3414	9.6017	0.0538	-0.512	-5.1165	0.8628	-7.5904	-0.2161	-0.2942	-0.2582
-2.7356	-0.9479	8.8151	-4.794	1.1742	0.4315	0.1873	-0.5466	-1.7326	0.1351	1.4921	13.9798	-16.3713	-14.9985	-11.8925	0.0152	-0.1928	-2.3855	9.9461	0.3435	-0.9034	-5.5612	0.475	-5.9464	-0.2161	-0.2822	-0.2342
-2.9614	-0.3123	9.2145	-4.8566	1.4855	1.0625	0.1151	-0.5241	-1.7128	2.2267	0.273	11.0001	11.5878	-29.2182	-13.5034	0.0851	-0.2138	-2.3838	9.5394	0.1699	-0.6837	-6.2731	0.3131	-3.5814	-0.2101	-0.2762	-0.2402
-2.7317	-0.6014	9.0459	-4.9508	1.5871	1.5591	0.1697	-0.5236	-1.7114	1.1827	0.101	10.9231	-0.5396	-35.7466	-18.375	0.0166	-0.1937	-2.3001	9.5361	0.1112	-0.8548	-7.0886	1.013	-3.0771	-0.2041	-0.2942	-0.2281
-2.9016	-0.5429	9.2726	-5.2598	1.512	1.9219	0.1141	-0.523	-1.7572	1.0375	0.5075	12.5448	2.8806	-42.2059	-20.6115	0.0327	-0.2157	-2.3635	9.7218	0.6944	-0.3373	-8.3059	1.6138	-3.2204	-0.2041	-0.2702	-0.2221
-3.0836	-0.8317	8.8659	-5.3539	1.3518	2.0664	0.1526	-0.5011	-1.6681	0.5288	1.8372	13.3493	6.8334	-50.939	-22.5947	-0.0202	-0.2173	-2.3646	9.6578	0.4027	-0.624	-9.3735	2.4425	-3.7836	-0.2281	-0.2822	-0.2522
-2.9033	-0.3124	9.2157	-5.2631	1.3154	2.1572	0.1319	-0.5223	-1.7789	0.8626	1.3161	12.5427	12.1472	-59.6308	-21.4766	-0.0383	-0.241	-2.3648	10.3543	0.2262	-1.0667	-10.9354	2.895	-4.9772	-0.2161	-0.2882	-0.2522
-2.9673	-0.2553	8.9271	-4.6796	1.2664	1.7281	0.1691	-0.5468	-1.733	0.9852	0.97	12.8925	7.7644	-69.7462	-22.5804	-0.0538	-0.1959	-2.3015	9.946	0.4599	-0.9031	-12.7482	3.4714	-7.0849	-0.2101	-0.2822	-0.2462
-2.5509	-0.3127	9.3951	-4.1875	1.5112	1.6521	0.1326	-0.5472	-1.734	0.9895	0.9125	13.1244	7.0728	-80.3316	-24.1972	-0.0904	-0.2431	-2.3232	10.0618	0.052	-1.0158	-15.1048	3.1266	-8.1906	-0.2221	-0.2942	-0.2462
-2.673	-0.3131	9.1053	-3.8818	1.3323	1.4294	0.1515	-0.5238	-1.7119	1.5715	0.5655	13.2504	0.4176	-91.7401	-25.8405	-0.1446	-0.2908	-2.3451	9.9496	0.2857	-0.7326	-17.086	2.396	-7.9357	-0.2101	-0.2882	-0.2402
-2.6149	-0.3132	9.1064	-3.0545	1.5067	1.4441	0.1869	-0.4742	-1.7787	1.4628	-0.1845	13.5955	0.9007	-103.0578	-29.311	-0.1079	-0.2907	-2.259	9.128	0.1703	-0.6916	-18.6094	0.938	-7.2303	-0.2041	-0.3062	-0.2582
-2.847	-0.5434	9.1013	-2.0402	1.8769	1.1938	0.1139	-0.5468	-1.7566	1.2276	0.0465	13.4176	-1.9556	-113.3208	-31.7353	-0.2145	-0.2463	-2.3684	9.1351	-0.1781	-0.3506	-20.0982	-0.3802	-6.0875	-0.2161	-0.3002	-0.2402
-2.555	-0.6015	9.1644	-1.7359	1.7467	1.2503	0.1872	-0.4985	-1.7559	1.9823	-1.0515	13.4297	1.6781	-123.3162	-36.2209	-0.2136	-0.2939	-2.2612	9.1935	0.1129	-0.3488	-21.9015	-2.096	-5.916	-0.2161	-0.2882	-0.2281
-2.7932	-0.6593	8.8721	-1.8882	1.753	1.1574	0.1506	-0.5226	-1.7563	2.3225	-1.6877	12.971	-2.7784	-131.8984	-42.8133	-0.2133	-0.2941	-2.2399	9.0774	-0.1197	-0.2946	-23.0631	-4.4503	-5.2294	-0.2041	-0.2942	-0.2462
-3.0239	-0.428	8.9831	-1.9211	1.6507	1.3669	0.1317	-0.546	-1.7784	3.201	-1.5726	13.5089	0.5573	-139.3068	-48.9921	-0.2826	-0.2265	-2.2634	9.2036	0.0559	0.1638	-23.8441	-6.6782	-2.8175	-0.2101	-0.2762	-0.2342
-3.3704	-0.4847	9.091	-2.2883	1.479	1.1709	0.2235	-0.45	-1.7783	3.1783	-4.2305	12.0552	7.0982	-143.7214	-61.3558	-0.3369	-0.2976	-2.2638	9.1419	-0.2937	-0.0091	-24.1055	-8.698	-0.3067	-0.2101	-0.2762	-0.2582
-2.7266	-0.8315	9.2754	-2.1052	1.387	1.1057	0.1691	-0.5468	-1.733	4.1513	-5.272	11.3174	-1.0844	-144.3103	-75.5151	-0.4057	-0.2539	-2.223	9.2015	-0.0608	0.0496	-23.891	-10.0504	0.4822	-0.2041	-0.2762	-0.2342
-3.1324	-0.3115	9.3836	-2.3533	0.9891	1.0828	0.1335	-0.5002	-1.7129	4.299	-6.0248	9.8112	-7.1493	-141.262	-91.5898	-0.4588	-0.3024	-2.1809	9.7335	-0.7596	0.1719	-23.8956	-11.3158	0.5394	-0.2161	-0.2942	-0.2462
-2.7827	-0.7158	9.3895	-2.3248	0.6551	0.9421	0.1708	-0.5009	-1.6676	4.4786	-5.6204	10.1629	-9.129	-129.1999	-107.252	-0.4753	-0.3036	-2.1173	9.8508	-0.4687	0.1748	-24.0819	-12.5528	0.7226	-0.2041	-0.2942	-0.2462
-2.7317	-0.6014	9.0459	-2.3547	0.5436	0.6901	0.1678	-0.5213	-1.8002	1.834	-7.414	4.7195	-14.4102	-113.1462	-127.0486	-0.5124	-0.374	-2.1387	10.2039	0.055	0.2398	-23.5094	-13.065	0.1993	-0.2221	-0.2822	-0.2342
-2.8501	-0.7167	8.9283	-2.4451	0.6991	0.6978	0.1699	-0.4998	-1.712	-7.5016	-6.5365	4.3208	-40.078	-56.7874	-148.1051	-0.5294	-0.3984	-2.0748	10.4357	-0.9354	0.014	-22.7288	-12.7446	-1.3586	-0.2041	-0.2882	-0.2402
-2.3216	-1.0055	9.168	-2.3783	1.2593	0.6053	0.1488	-0.5685	-1.8217	-9.0785	-7.2241	6.7853	-30.698	-3.5701	-165.83	-0.5807	-0.3776	-2.012	10.3773	-0.2949	0.0714	-21.8329	-12.5256	-3.63	-0.2281	-0.2882	-0.2462
-2.8478	-0.7165	9.0433	-2.0378	1.4853	0.3123	0.1337	-0.5245	-1.6901	-13.6639	-4.0429	6.533	-29.5189	36.1377	-177.6898	-0.5463	-0.3995	-2.0324	10.3179	-0.7607	0.0122	-19.4471	-12.0256	-6.4216	-0.2161	-0.2762	-0.2281
-2.6778	-0.1984	8.8755	-2.3087	1.8662	0.1772	0.1875	-0.4509	-1.757	-14.7174	-6.0676	2.5678	-40.8546	62.8679	-169.6274	-0.5111	-0.3984	-2.0317	10.382	-0.5272	0.2987	-17.8571	-10.6596	-10.0535	-0.2281	-0.3062	-0.2462
-2.6116	-0.1975	9.2792	-2.3989	2.0231	0.1543	0.1498	-0.4977	-1.8012	-14.8162	-3.579	6.9188	-48.8545	78.0604	-138.0818	-0.4569	-0.3507	-2.0097	10.3188	-0.5277	0.0697	-17.9377	-9.0491	-13.1671	-0.2161	-0.2822	-0.2161
-3.4272	-0.5421	9.1472	-2.2145	2.0559	0.065	0.1503	-0.4983	-1.779	-15.1151	-3.0018	6.4503	-44.7984	87.2407	-98.1644	-0.4401	-0.3731	-2.0305	9.9736	-0.2353	0.4625	-18.3318	-7.7387	-13.557	-0.2161	-0.2822	-0.2161
-3.1399	-0.6007	8.9803	-1.7845	2.0045	-0.273	0.1321	-0.4985	-1.7795	-14.1478	-3.6396	5.4229	-43.0022	100.7866	-57.7974	-0.404	-0.3491	-2.0086	10.1442	-0.1197	0.1813	-19.2333	-7.1848	-12.3216	-0.2221	-0.2882	-0.2402
-2.7337	-0.7746	8.9305	-1.4803	1.8155	-0.2812	0.1858	-0.4968	-1.8225	-12.6403	-4.2766	5.4492	-59.236	115.1684	-25.1183	-0.3861	-0.3017	-2.0514	9.6665	-0.353	-0.227	-18.8227	-7.401	-10.4912	-0.2101	-0.2942	-0.2342
-2.8397	-0.7155	9.4459	-1.2358	1.8697	-0.1845	0.1696	-0.4755	-1.7347	-10.4715	-3.9311	6.8805	-81.4843	127.569	-1.576	-0.3498	-0.2308	-2.0727	9.6076	-0.2365	-0.2279	-18.0491	-7.673	-8.9434	-0.2161	-0.2822	-0.2281
-2.6707	-0.8895	9.1614	-0.6819	1.9725	-0.5443	0.1505	-0.4745	-1.7796	-9.5185	-2.0248	8.466	-98.3308	137.7614	16.0232	-0.2427	-0.1815	-2.0496	9.6171	-0.7593	0.2266	-18.047	-7.7752	-8.6412	-0.2161	-0.2882	-0.2281
-2.4362	-0.7167	9.2814	0.2369	2.4649	-0.0817	0.1495	-0.5934	-1.7767	-8.386	-1.331	10.2851	-95.6791	145.5216	30.519	-0.2765	-0.113	-2.051	9.6723	-0.5852	0.0573	-18.2755	-7.62	-10.5378	-0.2161	-0.2822	-0.2281
-2.8962	-0.9459	9.5017	2.4133	3.2276	0.2191	0.1504	-0.5464	-1.7557	-7.5646	-1.0426	10.8802	-91.8285	152.4346	39.8312	-0.1712	-0.0625	-2.1347	9.8996	-0.5864	-0.337	-18.7973	-7.4441	-11.0779	-0.2161	-0.2882	-0.2221
-2.8989	-0.7732	9.3871	4.1891	3.7721	0.6592	0.1493	-0.5691	-1.7995	-6.2811	-1.1591	11.3671	-92.2405	160.5341	44.6449	-0.1868	0.0297	-2.136	9.2113	-0.7582	0.5036	-19.5974	-8.0639	-11.7186	-0.2101	-0.2942	-0.2281
-2.8445	-0.6008	9.2161	4.8955	4.1906	0.7784	0.133	-0.4996	-1.7351	-5.6872	-1.0433	12.1899	-95.0985	168.0845	46.3912	-0.0632	0.0332	-2.1121	9.4943	-1.051	-0.0611	-19.6686	-9.3071	-12.3362	-0.2101	-0.3002	-0.2402
-2.7275	-1.0045	9.2175	5.5727	4.8506	1.0332	0.133	-0.4996	-1.7351	-4.3951	0.2267	13.2587	-93.9496	172.8361	47.8439	0.0481	0.2443	-2.0479	9.3767	-0.9926	-0.0632	-18.697	-10.3039	-12.2729	-0.2041	-0.2702	-0.2342
-2.73	-0.8895	9.1027	6.7057	5.1373	1.2096	0.1685	-0.4981	-1.7786	-2.93	0.5725	14.2134	-87.9829	172.5084	49.3169	0.0848	0.315	-2.0478	9.4959	-0.4686	0.0542	-17.3888	-11.2468	-12.0559	-0.2041	-0.2882	-0.2342
-2.8452	-0.8315	9.1581	7.1309	5.3455	1.9304	0.169	-0.4987	-1.7564	-2.2797	0.2839	14.9206	-83.8249	168.7326	52.5608	0.2625	0.3899	-2.0449	9.7363	-1.225	0.2847	-15.8015	-11.7731	-11.4505	-0.2221	-0.3002	-0.2221
-2.8526	-0.6017	8.8136	7.7425	5.7744	2.5105	0.1314	-0.5217	-1.8011	-0.5773	1.2073	16.2283	-78.0562	162.4303	58.9862	0.2822	0.436	-1.9809	9.6182	-0.701	0.2837	-13.5406	-12.4122	-10.3951	-0.2221	-0.2822	-0.2161
-3.1249	-0.5989	9.7279	7.7739	5.9828	2.6755	0.1317	-0.546	-1.7784	0.8164	1.4367	16.4277	-70.668	149.077	68.3918	0.3916	0.5778	-1.9374	9.3821	-0.8755	0.2219	-12.0474	-13.1779	-9.9859	-0.2161	-0.2882	-0.2281
-2.7893	-0.8895	9.0441	8.7875	7.0178	3.4136	0.1322	-0.5466	-1.7562	2.9034	1.6651	16.5235	-63.1149	126.3656	79.889	0.4825	0.6256	-1.8293	9.9112	-0.9343	0.2318	-10.3784	-13.6368	-10.5462	-0.2161	-0.2882	-0.2281
-3.0243	-0.2551	8.9835	8.4903	7.7471	3.1127	0.1501	-0.5221	-1.7785	6.0082	2.2369	15.2462	-63.3692	104.5968	87.4156	0.554	0.6036	-1.7422	9.5596	-0.8756	0.2822	-9.1039	-13.8165	-11.0579	-0.2161	-0.2942	-0.2221
-3.1947	-0.5426	9.1518	10.0813	7.9648	3.319	0.1876	-0.4991	-1.7337	9.0065	2.6939	14.4889	-64.269	89.6791	88.1257	0.6616	0.629	-1.6548	9.8019	-1.3407	0.6273	-7.8545	-13.9858	-10.9232	-0.2041	-0.2942	-0.2221
-3.5957	-0.6564	9.431	10.9721	8.7073	3.7333	0.2232	-0.5457	-1.7538	11.5409	2.6319	13.6644	-63.1857	86.7162	80.1969	0.752	0.6537	-1.5465	9.502	-0.9918	0.3378	-7.4636	-13.6804	-8.0507	-0.2161	-0.2882	-0.2221
-3.3653	-0.7147	9.3205	11.9878	9.7553	4.1955	0.1681	-0.6176	-1.7535	14.0863	3.7255	13.5377	-56.8015	90.1136	65.2373	0.7887	0.6537	-1.4603	9.1531	-1.3402	0.5011	-4.7743	-12.9791	-3.7313	-0.2101	-0.3122	-0.2281
-3.0617	-0.8291	9.9585	16.3978	11.0509	5.0616	0.1493	-0.5691	-1.7995	16.8956	4.6437	11.9656	-50.0899	92.065	45.028	0.8439	0.6773	-1.3527	9.3341	-1.5145	0.7319	-2.4785	-12.0342	0.7884	-0.2101	-0.2942	-0.2221
-2.4889	-0.543	9.5682	20.9116	14.3732	6.8667	0.2046	-0.5453	-1.7765	17.7393	5.045	10.5894	-46.484	87.59	21.0614	0.8457	0.6761	-1.246	9.6888	-1.2818	0.8531	-0.9791	-10.6273	4.5699	-0.2101	-0.2822	-0.2161
-2.5508	-0.3703	9.395	22.9467	16.4657	7.207	0.2426	-0.5229	-1.7095	19.5405	6.3134	10.9714	-41.6438	74.3379	-2.3641	0.9327	0.6089	-1.2221	9.5057	-1.2824	0.508	-0.0145	-9.9637	6.6874	-0.2161	-0.3062	-0.2221
-3.2435	-0.599	9.6106	27.7968	18.9689	7.9254	0.2244	-0.5231	-1.71	21.6391	-0.098	11.2327	-26.9553	53.5679	-23.0943	0.9003	0.653	-1.1166	9.9902	-2.038	1.1987	0.7214	-9.9578	7.2659	-0.2281	-0.3062	-0.2101
-3.2373	-0.2523	9.9565	35.4001	22.6941	10.2022	0.1512	-0.4994	-1.7346	21.7155	15.7831	13.4007	236.7337	-6.4564	-71.0754	0.918	0.6065	-1.0517	9.4498	-1.806	0.6195	2.7981	-10.123	8.009	-0.2161	-0.2882	-0.2221
-3.4763	-1.0599	9.5474	40.1244	28.3444	11.119	0.1693	-0.6431	-1.6863	22.8639	23.2384	19.8106	77.3951	-80.5258	-3.0437	0.9356	0.607	-1.0513	9.9811	-1.9227	0.7432	7.4735	-10.2642	6.3339	-0.2041	-0.2942	-0.2101
-3.2833	-0.539	10.5297	42.1684	34.3029	10.8057	0.2239	-0.5225	-1.7322	13.0609	8.4505	5.1742	126.8828	-120.7307	-3.9275	0.8809	0.5361	-1.0731	9.987	-2.2131	1.0274	11.1703	-9.662	3.8444	-0.2041	-0.2822	-0.2281
-2.7193	1.0218	12.7289	49.0304	45.6911	10.8141	0.2251	-0.548	-1.665	-3.7165	2.1795	6.0241	51.6421	-114.4355	-15.5956	0.8639	0.5822	-1.0953	9.9787	-1.7484	0.6297	14.3628	-9.4284	-0.4743	-0.2221	-0.2942	-0.2101
-2.9541	0.0923	9.618	70.7484	61.3805	4.172	0.2428	-0.6191	-1.6628	-6.5508	-0.9305	9.2748	18.369	-114.3643	-14.291	0.8803	0.4895	-1.0513	10.0263	-1.7498	0.0612	14.3578	-6.6302	-6.0481	-0.2101	-0.2822	-0.2281
-3.1256	0.6767	12.72	25.3339	61.7641	4.2378	0.2421	-0.6424	-1.6845	-3.0383	-0.0085	11.369	6.0689	-134.8999	-0.8537	0.8094	0.4876	-1.0741	11.246	-0.7633	-0.5966	8.6771	0.8096	-11.611	-0.2161	-0.2762	-0.2161
-4.6158	0.2786	13.7242	30.5153	70.392	4.8559	0.2418	-0.6899	-1.6833	0.4764	2.1222	10.4491	34.9195	-157.1024	-3.0497	0.8622	0.5363	-1.1375	12.2894	0.2817	-1.2575	1.3703	9.5748	-11.8951	-0.2161	-0.2822	-0.2101
-4.2141	0.6231	13.5031	30.1215	81.3231	5.3463	0.2975	-0.5467	-1.6853	3.2979	0.3315	12.5853	20.3073	-147.4849	-3.4135	0.7719	0.4646	-1.1813	12.2896	1.0386	-1.1988	-3.9293	11.4891	-1.8817	-0.2221	-0.2882	-0.2101
-3.5669	0.2768	13.86	31.4227	101.0403	6.6559	0.2603	-0.594	-1.7073	12.39	5.3433	12.7554	-19.5863	-68.5331	0.0399	0.7555	0.4867	-1.1392	12.288	0.5144	-1.314	-6.4389	6.4057	6.4226	-0.2041	-0.2822	-0.1981
-3.5436	0.1642	15.0098	27.0155	119.9369	5.2417	0.3699	-0.6173	-1.6817	3.2845	-3.4271	8.3465	21.1595	-36.9967	-10.4512	0.7543	0.464	-1.1817	12.7607	1.2711	-1.1323	-9.3429	4.0525	2.7264	-0.2161	-0.2882	-0.2041
-3.8663	0.9177	16.3848	17.4276	141.6645	4.8676	0.3711	-0.6428	-1.6146	0.4663	0.2159	9.7504	21.6127	-22.6626	-9.0862	0.7546	0.4638	-1.1604	14.1036	2.2	-1.5031	-16.8101	8.2794	-6.9248	-0.2221	-0.2942	-0.2041
-4.2786	-0.4661	15.9709	20.092	167.9662	7.86	0.4636	-0.6436	-1.5456	1.213	1.3694	9.4754	-1.5371	-22.1734	-2.1806	0.7184	0.4163	-1.1606	13.7709	1.3878	-0.5433	-20.4095	6.995	0.4791	-0.2161	-0.3062	-0.1981
-3.9736	-1.2723	16.6073	21.4821	191.97	15.3308	0.5007	-0.62	-1.5231	0.8085	-0.3624	9.4079	-6.814	-16.7807	-13.4801	0.7538	0.4408	-1.1815	11.5482	0.7512	-0.0746	-18.0507	-0.1524	19.9511	-0.2041	-0.3062	-0.1921
-4.2062	-1.8484	16.5438	26.3844	216.0478	28.1744	0.5184	-0.6193	-1.5448	0.9354	-0.8237	9.9895	-7.6943	-11.422	-9.1843	0.7355	0.4642	-1.2461	10.502	0.2881	0.4738	-13.6306	-6.6268	34.2131	-0.2221	-0.2882	-0.2101
-5.2293	-3.2275	17.5548	38.4212	239.834	39.3876	0.5371	-0.6196	-1.5221	0.6502	-1.1695	10.2159	2.781	-7.8371	-2.8511	0.7364	0.4872	-1.225	10.1996	-0.062	0.0116	-10.7622	-6.8264	34.8557	-0.2281	-0.2882	-0.2281
-4.6525	-4.3825	17.2185	57.1799	263.3545	55.7589	0.612	-0.5974	-1.432	0.8237	-0.881	10.2194	12.8864	-8.1809	-3.7577	0.6667	0.4845	-1.1838	10.5565	0.1128	0.2466	-8.2049	-4.1025	26.0912	-0.2161	-0.3062	-0.2101
-5.1071	-5.0147	17.6678	76.1822	285.3846	74.8136	0.6488	-0.6214	-1.4083	0.7033	-0.5924	9.9856	17.9179	-7.6673	-4.0266	0.7194	0.4627	-1.1611	10.2012	0.5204	0.127	-6.4409	-0.8104	13.273	-0.2221	-0.2702	-0.2101
-5.4982	-5.4733	18.4062	97.2316	307.1443	93.8019	0.7219	-0.645	-1.3837	0.4692	-0.4768	9.8656	22.0306	-6.3396	-1.6923	0.7546	0.4638	-1.1604	10.4885	0.4028	-0.2095	-3.1841	1.7784	0.8359	-0.2101	-0.2942	-0.2101
-5.239	-4.9516	19.7922	124.7155	330.6213	113.3498	0.8139	-0.6452	-1.3369	0.4648	-0.2462	9.6338	28.3383	-7.658	-4.6943	0.7178	0.4403	-1.2249	9.3664	1.2185	-0.4567	-1.2083	3.8285	-7.8986	-0.2161	-0.2822	-0.2101
-5.6919	-2.9886	20.5927	158.3741	348.9444	131.0006	0.834	-0.6473	-1.2477	0.7497	0.2728	9.4076	25.4503	-8.6543	-5.398	0.7354	0.4408	-1.2245	8.6576	1.3352	-0.6407	-0.2611	5.5789	-15.6566	-0.2221	-0.2882	-0.1921
-5.5548	-1.6094	18.8744	192.4781	363.9796	155.2885	0.8904	-0.6728	-1.1569	0.8181	0.2735	9.9888	20.2054	-7.1605	-1.3028	0.6647	0.3918	-1.1829	8.5919	2.5571	-0.9237	2.7277	7.2518	-19.6224	-0.2221	-0.2942	-0.2041
-10.2007	-2.1185	19.0109	194.8406	372.9999	134.5473	0.9485	-0.6525	-1.0007	0.4024	0.793	9.4601	15.1912	-7.6755	-2.276	0.7174	0.4405	-1.2463	8.1085	2.3231	-1.6168	5.9315	9.3988	-16.308	-0.2101	-0.2822	-0.1861
-6.6875	-2.1437	11.6079	188.8072	376.1243	130.9	1.0232	-0.7259	-0.8861	0.4053	0.158	9.5753	9.6604	-6.6747	-1.2543	0.7356	0.4171	-1.1816	7.705	2.2081	-1.2262	6.6214	11.9354	-4.2508	-0.2402	-0.2942	-0.2161
-7.2867	-2.4907	10.6755	155.676	361.5739	126.2558	1.0233	-0.774	-0.8628	0.6948	0.3309	9.5807	8.9571	-5.7822	-1.5967	0.719	0.463	-1.1824	7.7647	1.4512	-1.2269	8.9609	14.0377	12.2589	-0.2522	-0.2942	-0.2041
-4.8281	-1.2896	8.7728	143.3978	326.7359	113.3545	1.0805	-0.7525	-0.751	0.35	0.5047	9.7487	8.335	-6.2668	-1.5633	0.7005	0.4395	-1.2039	8.2969	1.5675	-1.0456	8.5505	15.73	27.8771	-0.2281	-0.2762	-0.2041
-2.1456	-2.1084	6.2373	143.2915	266.4321	102.6686	1.0654	-0.8286	-0.5722	0.7574	-0.0731	9.8133	7.4095	-6.6077	-1.2087	0.7543	0.464	-1.1817	8.9345	1.5075	-1.4892	8.1841	17.4182	37.8368	-0.2221	-0.2882	-0.2161
-0.0244	-1.2583	1.9703	139.8178	195.1295	91.3102	1.1023	-0.8288	-0.549	0.7604	0.1004	9.9876	8.1744	-6.6887	-1.7142	0.6838	0.4619	-1.1832	9.4044	0.8082	-1.5389	6.9751	17.4945	42.5237	-0.2281	-0.2882	-0.2041
3.1089	-0.3426	1.8047	113.9013	123.2863	73.7881	1.1948	-0.8296	-0.4801	0.698	0.2733	9.7547	7.4597	-6.5542	-2.3232	0.7524	0.3947	-1.2024	9.2403	0.8682	-0.9155	4.1586	15.1652	41.903	-0.2281	-0.2942	-0.2101
33.7719	-3.9171	-20.0713	40.3479	30.8416	4.001	1.0864	-0.7837	-0.4619	0.6325	0.5039	9.3478	7.4267	-6.7059	-2.3639	0.7009	0.5098	-1.2687	9.6454	0.4594	-1.2505	4.3656	13.2948	34.7945	-0.2041	-0.2882	-0.2161
7.8735	8.7505	22.9596	-102.7912	-131.583	-31.7157	1.1241	-0.7369	-0.4177	0.4674	0.1582	9.8084	5.2416	-6.4646	-2.121	0.7021	0.4619	-1.1401	9.7063	0.576	-1.1351	1.3752	12.2571	23.7274	-0.2342	-0.2882	-0.2161
