1757_acc_x	1757_acc_y	1757_acc_z	1757_gyro_x	1757_gyro_y	1757_gyro_z	1757_mag_x	1757_mag_y	1757_mag_z	1758_acc_x	1758_acc_y	1758_acc_z	1758_gyro_x	1758_gyro_y	1758_gyro_z	1758_mag_x	1758_mag_y	1758_mag_z	1759_acc_x	1759_acc_y	1759_acc_z	1759_gyro_x	1759_gyro_y	1759_gyro_z	1759_mag_x	1759_mag_y	1759_mag_z
-1.659263	0.037915	9.757518	-0.287545	-0.216111	-0.033353	0.209907	0.340399	-1.258825	1.896145	0.999943	9.492042	-0.299249	0.733781	-0.260121	0.586402	-0.276076	-0.81892	9.663777	2.791694	-0.045279	-2.139384	-0.221919	0.018995	-0.340628	-0.384129	-0.595822
-2.061199	0.095405	9.693112	0.020006	-0.123875	0.089932	0.489615	-0.342867	-0.886532	1.912506	0.662577	10.228073	-0.269173	0.672642	-0.229876	-0.098187	0.122566	-0.8878	9.365105	2.442924	-0.291892	-2.204141	-0.464649	-0.193552	-0.299559	-0.636651	-0.087001
-1.197846	-0.019135	9.936744	-0.228432	-0.366008	-0.342639	0.474737	-0.33225	-0.875523	2.247797	0.886873	9.782399	-0.082249	0.797653	-0.228483	-0.096931	0.142174	-0.946202	9.308175	2.966485	-0.111047	-2.513344	-0.619335	-0.130568	-0.271393	-0.621703	-0.056642
-1.547763	-0.422424	9.587256	-0.348328	-0.155281	-0.001521	0.516313	-0.288532	-0.900894	1.848465	0.88777	9.943855	-0.145285	0.704472	-0.167804	-0.097747	0.094069	-0.914492	9.717291	2.790323	-0.343713	-2.703287	-1.076318	-0.372202	-0.271601	-0.637895	-0.055805
-1.384001	-0.13703	9.193831	-0.532304	-0.093285	-0.122656	0.502978	-0.332999	-0.876222	2.078381	0.436647	9.891672	0.071209	0.737076	-0.043993	-0.084702	0.049254	-0.926106	10.016348	2.50001	-0.159726	-2.581299	-1.352754	-0.21851	-0.243856	-0.636661	-0.071193
-1.651468	0.039604	10.15549	-0.440119	-0.093551	-0.06159	0.460245	-0.335404	-0.861098	2.365345	0.886752	9.898096	-0.023306	0.583179	-0.138084	-0.110497	0.139955	-0.917227	9.551652	2.618973	0.251313	-2.645346	-1.441591	-0.523482	-0.299421	-0.619632	-0.103366
-1.485521	0.382922	9.876013	-0.376967	0.120467	0.064378	0.502978	-0.332999	-0.876222	1.9056	1.112984	9.945254	-0.116495	0.550735	-0.045997	-0.097377	0.110461	-0.929845	9.549181	2.73463	0.131994	-2.984491	-1.504935	-0.430263	-0.299555	-0.655322	-0.039581
-1.489975	0.381957	9.6486	-0.563531	-0.279558	0.027746	0.501849	-0.326285	-0.851485	2.302729	0.999331	9.670423	-0.205591	0.825945	-0.104989	-0.122883	0.142024	-0.945651	9.724299	2.617579	0.014987	-2.953086	-1.474865	-0.369395	-0.285371	-0.621081	-0.07224
-1.719443	-0.537183	9.583432	-0.533723	-0.276981	-0.186973	0.487714	-0.308611	-0.868628	1.902081	1.056511	9.775288	-0.113376	0.796053	-0.043555	-0.097597	0.124709	-0.916499	9.435281	2.852041	0.369915	-3.076492	-1.506213	-0.338235	-0.299	-0.605918	-0.05762
-1.432141	-0.422266	9.646336	-0.470037	-0.189714	0.27428	0.502206	-0.305457	-0.883053	2.085765	1.000284	10.288623	-0.236135	0.856016	-0.073886	-0.123919	0.108167	-0.900594	9.367866	2.67597	-0.111182	-3.234107	-1.624396	-0.795542	-0.285438	-0.638925	-0.040348
-1.601019	0.210439	9.816209	-0.747694	-0.342228	0.057926	0.489586	-0.308269	-0.921516	1.906678	0.549679	9.94478	-0.080261	0.951178	-0.257783	-0.110428	0.095065	-0.928566	9.187807	3.024337	-0.232814	-3.328263	-1.621576	-1.100841	-0.271184	-0.60551	-0.057479
-1.424553	-0.133369	10.045514	-0.040897	-0.062698	0.091102	0.472465	-0.301522	-0.843543	1.789021	0.60613	9.82913	0.011642	0.891024	-0.258307	-0.098187	0.122566	-0.8878	9.722098	2.617084	-0.104827	-3.82258	-1.621459	-1.282426	-0.28586	-0.652639	-0.086094
-1.659429	0.267681	9.758484	-0.04163	-0.310986	0.301744	0.530447	-0.306206	-0.883752	1.446932	0.77591	9.991938	0.193538	0.646246	0.016858	-0.123103	0.156272	-0.932305	9.252305	2.560583	0.005936	-3.976667	-1.591109	-1.312576	-0.284812	-0.590348	-0.042859
-1.433296	-0.365066	9.589724	-0.257093	-0.2467	-0.033938	0.501449	-0.295214	-0.872393	2.023795	0.77488	10.060666	0.070664	0.705606	0.079006	-0.085211	0.122641	-0.888075	9.066743	2.907713	-0.41523	-4.225515	-1.805175	-1.402341	-0.299138	-0.622937	-0.041255
-1.31454	-0.076976	9.82057	0.141418	-0.307694	0.086596	0.502206	-0.305457	-0.883053	2.129386	1.337638	9.667081	-0.302171	0.546773	0.200439	-0.097527	0.07982	-0.927838	9.430859	2.386197	0.068403	-4.71885	-1.744825	-1.492529	-0.271672	-0.637069	-0.071333
-1.318952	-0.135382	9.592916	0.139879	-0.491043	-0.008384	0.501835	-0.308986	-0.868977	1.909657	0.887804	10.114983	-0.271783	0.515896	0.29264	-0.070985	0.082114	-0.957089	9.484663	2.733529	-0.168641	-5.396801	-1.530619	-1.735596	-0.313467	-0.636855	-0.087072
-1.31656	-0.364666	9.705657	0.017756	-0.399072	-0.037205	0.487714	-0.308611	-0.868628	1.742874	0.325012	10.337441	-0.241201	0.486026	0.230712	-0.097446	0.15535	-0.918506	9.78208	2.675272	-0.043572	-5.733093	-1.382045	-1.429462	-0.312904	-0.624794	-0.01027
-1.200937	-0.364508	9.764737	0.170363	-0.459125	-0.099956	0.487328	-0.29484	-0.872044	1.797938	1.000823	10.282579	-0.516675	0.696347	0.355894	-0.123253	0.125631	-0.930297	9.662812	2.733371	-0.105433	-6.317488	-1.076368	-1.61218	-0.285163	-0.604888	-0.073077
-1.491871	-0.078058	9.532964	-0.197087	-0.524392	0.084048	0.488086	-0.305083	-0.882704	1.735645	0.944411	10.054764	-0.145283	0.733124	0.140762	-0.097672	0.109389	-0.915496	9.725264	2.675902	0.075141	-6.439672	-1.016894	-1.489771	-0.298929	-0.606745	-0.042092
-1.431483	0.209832	9.705843	-0.041847	-0.15385	-0.00238	0.459488	-0.325161	-0.850438	1.733204	0.324633	9.884324	-0.175905	0.734141	-0.075049	-0.084476	0.095216	-0.929117	9.428833	3.257337	0.072111	-6.996039	-1.109397	-1.609565	-0.313605	-0.653874	-0.070707
-1.550322	0.036626	9.47548	0.049071	-0.275653	-0.065958	0.460259	-0.352703	-0.843606	1.389929	1.114049	10.047653	-0.235667	0.887084	-0.135233	-0.110133	0.096137	-0.942916	9.487674	2.385567	-0.050311	-6.996446	-1.139671	-1.639981	-0.313116	-0.622315	-0.056853
-1.196483	-0.363543	9.992149	0.264263	-0.057442	-0.247038	0.502221	-0.322757	-0.865561	2.078512	1	9.948786	-0.299366	0.733177	-0.167643	-0.071054	0.127003	-0.94575	9.369237	2.560065	-0.05177	-7.123544	-1.319237	-2.066538	-0.257556	-0.620672	-0.0721
-1.714083	-0.248769	9.868904	0.169153	-0.361714	-0.55839	0.515198	-0.299117	-0.858666	1.846694	0.549692	9.830292	-0.086225	0.490602	-0.169883	-0.123404	0.09499	-0.92829	9.668584	2.618455	0.193607	-7.55821	-1.532392	-2.308445	-0.313325	-0.638507	-0.056016
-1.264008	-0.021023	9.480806	0.170899	-0.241568	-0.311098	0.472465	-0.301522	-0.843543	1.673244	0.944329	9.826997	-0.17766	0.581823	-0.230706	-0.084696	0.109464	-0.915771	9.424546	2.733417	-0.229648	-8.267604	-1.503407	-2.397701	-0.312975	-0.623968	-0.025797
-1.368039	-0.650626	9.987602	0.384639	-0.26956	-0.465508	0.515955	-0.30936	-0.869326	1.566683	0.888546	10.221009	-0.672123	0.574747	-0.107862	-0.085286	0.10732	-0.887072	9.782485	2.501044	-0.044314	-8.854785	-1.658145	-2.425398	-0.271184	-0.60551	-0.057479
-1.953288	-0.021008	9.353738	0.232578	-0.085884	-0.462085	0.474723	-0.314951	-0.893015	1.216563	0.832672	9.98715	-0.609126	0.667727	-0.137715	-0.084476	0.095216	-0.929117	9.429758	2.38595	0.008496	-9.132785	-1.596073	-2.608061	-0.313045	-0.623141	-0.041325
-1.607534	-0.020775	9.474125	0.446415	-0.270664	-0.343032	0.51557	-0.295589	-0.872742	1.732018	0.944268	9.884845	-0.516405	0.669104	-0.168454	-0.097522	0.14003	-0.917503	9.548216	2.676307	0.07184	-9.840607	-1.539021	-2.452959	-0.285509	-0.638099	-0.055875
-1.48622	-0.191734	9.816747	0.201821	-0.179613	-0.340848	0.473951	-0.287409	-0.899847	1.446154	0.550541	9.935108	-0.668771	0.821273	-0.290376	-0.084841	0.139033	-0.903429	9.313252	2.677094	0.127345	-10.212564	-1.598693	-2.726387	-0.27153	-0.638721	-0.040277
-1.665944	0.036467	9.4164	0.110127	-0.274672	-0.127453	0.515955	-0.30936	-0.869326	1.679396	0.888235	10.110147	-0.451069	0.946072	-0.196476	-0.097377	0.110461	-0.929845	9.367036	2.559571	-0.171584	-10.27569	-1.720326	-2.817265	-0.285789	-0.653465	-0.070566
-1.319201	0.209267	9.594364	0.199581	-0.548744	-0.316173	0.488457	-0.301554	-0.89678	2.19703	0.492904	10.064056	-0.201654	1.132794	-0.132762	-0.085066	0.093072	-0.900418	9.606537	2.501697	0.012292	-10.614991	-1.783354	-2.754611	-0.28558	-0.637273	-0.071403
-1.20869	-0.423638	9.366524	0.139935	-0.272095	-0.342173	0.544568	-0.306581	-0.884101	1.962172	1.000168	9.889728	0.043861	0.984216	-0.380667	-0.084696	0.109464	-0.915771	9.606132	2.675925	0.013033	-10.556328	-2.056858	-2.906329	-0.299071	-0.605092	-0.073148
-1.42777	-0.306418	9.874231	0.660667	-0.23754	-0.465782	0.486571	-0.284597	-0.861384	1.62578	0.719494	10.278715	0.501542	0.530727	-0.477292	-0.096931	0.142174	-0.946202	9.848239	2.444317	0.315981	-10.157023	-2.331979	-2.784213	-0.285576	-0.655944	-0.023983
-1.376207	-0.135341	9.591803	0.784308	0.041705	-0.645608	0.500692	-0.284972	-0.861733	1.910866	0.887852	10.171623	0.463321	0.005409	0.072359	-0.123844	0.123487	-0.901598	9.605281	2.09467	-0.109253	-10.094801	-2.239675	-2.815441	-0.257831	-0.65471	-0.03937
-1.656994	-0.019044	9.870983	0.262397	-0.177241	-0.524992	0.50335	-0.329471	-0.890298	1.852092	0.887912	10.113774	-0.493032	0.114912	0.226819	-0.097742	0.154278	-0.904157	9.785516	2.617938	0.135901	-10.062461	-1.963002	-2.939127	-0.28586	-0.652639	-0.086094
-1.492984	-0.078299	9.476111	0.660024	-0.204374	-0.679918	0.502235	-0.340056	-0.84807	1.85615	0.662732	10.283503	-0.772834	-0.012282	0.37947	-0.084181	0.096287	-0.943467	9.664992	2.26901	-0.047504	-10.09204	-1.655015	-3.154425	-0.25804	-0.670902	-0.038533
-1.77142	-0.133844	9.868274	0.201297	-0.146795	-0.524321	0.488829	-0.298026	-0.910856	1.797699	0.493801	10.225512	-0.771509	0.080518	0.257081	-0.098187	0.122566	-0.8878	9.786637	3.083041	0.257693	-10.61728	-1.561665	-3.489151	-0.299835	-0.670688	-0.054272
-1.60407	-0.192375	9.64396	0.355574	-0.117782	-0.309618	0.501449	-0.295214	-0.872393	2.425113	0.9994	10.012679	-0.769833	0.203781	0.165824	-0.097377	0.110461	-0.929845	10.012642	2.673496	-0.338705	-10.461356	-1.316082	-3.52145	-0.271672	-0.637069	-0.071333
-1.842037	-0.136698	9.184923	-0.014266	-0.270029	-0.58704	0.543468	-0.334465	-0.824381	1.912937	0.437255	10.227883	-0.552561	0.269063	-0.018321	-0.110798	0.078673	-0.913213	9.491266	2.735012	0.1908	-10.369434	-1.345708	-3.582765	-0.313325	-0.638507	-0.056016
-1.37398	-0.134858	9.705509	0.047794	-0.303256	-0.342414	0.502578	-0.301929	-0.897129	1.737308	1.338819	10.168375	-0.302562	0.487456	-0.108432	-0.059039	0.108542	-0.901973	9.141996	3.027439	0.484968	-10.617731	-1.405567	-3.795514	-0.272019	-0.67028	-0.054131
-1.490882	0.094508	9.590541	-0.135865	-0.210876	-0.432388	0.486957	-0.298368	-0.857968	1.914601	0.831663	10.341494	-0.302211	0.51792	-0.077301	-0.084766	0.154353	-0.904432	9.199486	2.736429	0.365019	-10.680932	-1.558104	-3.855681	-0.285367	-0.639752	-0.02482
-1.7727	0.09568	9.812386	-0.134838	-0.088644	-0.369069	0.472479	-0.318821	-0.826051	1.854725	0.775346	10.226959	-0.299911	0.701707	-0.044644	-0.110723	0.093994	-0.914216	9.432094	2.328368	0.128062	-10.776202	-1.73945	-4.098966	-0.271393	-0.621703	-0.056642
-1.607783	0.323875	9.475573	0.507231	-0.268987	-0.465852	0.488114	-0.339681	-0.84772	1.906246	0.775001	9.944969	-0.236642	0.796096	-0.290279	-0.085211	0.122641	-0.888075	9.255896	2.910028	0.247047	-11.514627	-1.93132	-3.545261	-0.27181	-0.654088	-0.054968
-1.314581	-0.019534	9.820811	-0.257377	-0.214577	-0.156087	0.51747	-0.329846	-0.890647	1.787166	0.944066	9.772775	-0.639983	0.638884	-0.477135	-0.097967	0.108317	-0.901146	9.492791	3.025887	0.31185	-11.515336	-2.085211	-3.452838	-0.27153	-0.638721	-0.040277
-1.659594	0.497447	9.759449	0.016633	-0.364515	-0.373988	0.516356	-0.34043	-0.848419	1.841859	0.549502	9.603733	-0.671655	0.605814	-0.169209	-0.110573	0.124634	-0.916223	9.60283	2.675183	-0.166687	-12.103942	-2.485606	-3.387671	-0.285785	-0.672137	-0.023146
-1.660128	-0.306976	9.699217	-0.25895	-0.460433	-0.160078	0.474723	-0.314951	-0.893015	1.904152	0.605914	9.831548	-0.545466	0.821432	-0.074479	-0.084476	0.095216	-0.929117	9.554663	2.271011	0.369644	-12.447841	-3.0677	-3.41421	-0.299555	-0.655322	-0.039581
-1.603163	0.095074	9.70202	-0.778648	-0.46669	0.178664	0.501463	-0.312514	-0.854901	1.503289	0.775755	9.936507	-0.852147	1.001098	-0.011283	-0.084916	0.123713	-0.902425	9.4903	2.676689	0.130646	-12.602225	-3.160967	-3.321519	-0.327233	-0.638712	-0.056086
-1.198752	-0.306584	9.878685	-0.012805	-0.462069	0.084531	0.489229	-0.329096	-0.889948	1.322562	0.550425	9.536213	-0.787981	1.186072	-0.04022	-0.07194	0.123788	-0.902701	9.312151	2.676847	0.067438	-12.669799	-3.739855	-3.563008	-0.244132	-0.670698	-0.038463
-1.486635	0.382681	9.81916	-0.136457	-0.647381	0.112543	0.502606	-0.336528	-0.862146	2.24812	0.717881	9.782257	-0.752177	1.526996	-0.53005	-0.097302	0.125781	-0.930849	9.375839	2.561549	0.307672	-12.981356	-4.045275	-3.713232	-0.299555	-0.655322	-0.039581
-1.545619	-0.307059	9.701444	-0.351114	-0.648035	0.082482	0.503735	-0.343242	-0.886882	2.247342	0.492512	9.725427	-1.208147	2.075293	-0.864074	-0.084326	0.125856	-0.931125	9.077167	2.212779	0.061058	-13.078677	-4.657381	-3.709958	-0.271952	-0.652435	-0.086024
-1.2551	-0.019093	9.935631	-0.504398	-0.617323	0.022087	0.515584	-0.312888	-0.855251	1.905038	0.774953	9.88833	-1.604356	2.470648	-1.137913	-0.110868	0.123563	-0.901874	9.372943	2.386579	0.127209	-13.018147	-5.120715	-3.249536	-0.326816	-0.606327	-0.05776
-1.195494	-0.190977	10.049726	0.261554	-0.519116	-0.193198	0.487714	-0.308611	-0.868628	1.902728	0.718528	9.775003	-1.818553	2.593178	-1.537632	-0.123329	0.110311	-0.929294	9.487964	2.734271	0.01108	-12.71469	-5.948647	-2.941063	-0.272298	-0.685646	-0.068822
-1.542693	0.26808	9.874417	-0.381762	-0.648178	0.082568	0.502178	-0.270859	-0.918037	1.902381	0.267836	9.717984	-1.696496	2.472289	-1.569563	-0.097151	0.156422	-0.932856	9.135933	2.793651	0.124538	-12.348453	-6.592192	-2.69482	-0.271672	-0.637069	-0.071333
-1.374928	-0.364866	9.64769	-0.319799	-0.524616	0.05373	0.530433	-0.288907	-0.901243	1.742659	0.437673	10.337535	-1.117884	1.834775	-1.421297	-0.070979	0.142324	-0.946754	9.375569	2.677701	0.308166	-11.916029	-6.747363	-2.328899	-0.27209	-0.669454	-0.069659
-1.434948	0.381433	9.536008	-0.230977	-0.859457	-0.197311	0.502592	-0.319228	-0.879637	2.250322	0.830637	9.895631	-0.23489	0.891109	-0.751754	-0.123994	0.092847	-0.899591	9.553158	2.444992	0.310478	-11.202876	-6.597231	-1.812638	-0.285789	-0.653465	-0.070566
-1.253779	-0.30606	9.991277	-0.505947	-0.706738	-0.224706	0.544568	-0.306581	-0.884101	1.677517	0.606488	9.996631	-0.022722	0.614851	-0.291909	-0.111383	0.136739	-0.874178	9.788797	2.153824	0.253737	-10.7366	-6.199181	-1.693976	-0.313601	-0.672545	-0.023286
-1.712188	0.211246	9.984541	-0.629337	-0.736304	-0.378171	0.501449	-0.295214	-0.872393	1.734436	0.944363	9.998125	-0.430737	0.146964	0.134704	-0.097967	0.108317	-0.901146	9.43472	2.61949	0.309019	-9.928443	-5.432533	-1.608875	-0.299	-0.605918	-0.05762
-1.25741	0.095307	9.822407	-0.812496	-0.833182	-0.041871	0.472093	-0.30505	-0.829467	1.907886	0.549726	10.001419	-0.646724	0.174282	0.227286	-0.110057	0.111458	-0.943919	9.48974	2.444138	0.06975	-9.14896	-4.670092	-1.126336	-0.272086	-0.688125	-0.022238
-1.205972	0.438709	9.540703	-0.751319	-0.832549	-0.072704	0.501078	-0.298743	-0.858317	1.90724	0.887709	10.001704	-0.986015	0.20144	0.10397	-0.123398	0.1552	-0.917955	9.85345	2.096849	0.554125	-8.307901	-3.876205	-0.705294	-0.27209	-0.669454	-0.069659
-1.495128	-0.193665	9.361922	-0.598405	-0.768283	-0.256108	0.502606	-0.336528	-0.862146	1.909334	1.056796	10.115125	-1.108851	0.261001	0.135292	-0.110057	0.111458	-0.943919	9.499779	2.388287	0.608665	-7.161262	-3.386465	-0.345031	-0.25776	-0.655536	-0.023842
-1.65584	-0.076245	9.927595	-0.410148	-0.12275	-0.184822	0.500677	-0.267672	-0.879225	1.792756	0.549942	9.999002	-0.765859	0.48218	-0.201342	-0.084916	0.123713	-0.902425	9.143056	2.097975	0.421106	-6.198405	-2.744443	0.015172	-0.299622	-0.673167	-0.007688
-1.718703	-0.019968	9.642457	1.061265	0.352745	-0.856027	0.473594	-0.308236	-0.868279	1.84855	0.211756	9.886647	-0.490384	0.271859	-0.326524	-0.097452	0.09514	-0.928842	9.485588	1.862141	-0.232256	-5.204787	-2.133212	0.405974	-0.27181	-0.654088	-0.054968
-1.653613	-0.075762	10.041301	1.12016	0.359985	-1.469441	0.515198	-0.299117	-0.858666	1.623686	0.550407	10.165294	-0.519876	0.364669	-0.510593	-0.085356	0.15221	-0.875733	9.379141	2.562291	0.487392	-4.82943	-1.707417	0.769339	-0.285509	-0.638099	-0.055875
-1.605349	0.03715	9.588073	-0.073953	0.382355	-1.220295	0.528947	-0.30302	-0.84494	1.853301	0.887959	10.170414	-0.304941	0.274613	-0.388003	-0.123398	0.1552	-0.917955	9.669009	2.909083	0.25475	-4.675192	-1.675958	0.738067	-0.299901	-0.688533	-0.022379
-1.203206	-0.307549	9.651272	0.69299	0.540287	-1.281272	0.473551	-0.256338	-0.920754	2.195067	0.88717	10.007748	-0.486214	0.579917	-0.539254	-0.098042	0.092997	-0.900142	9.545995	2.210957	-0.109859	-4.738032	-1.611849	0.432358	-0.272086	-0.688125	-0.022238
-1.547846	-0.307541	9.587738	0.049655	0.599093	-1.309133	0.515169	-0.264519	-0.89365	1.679049	0.437544	10.053128	-0.701149	0.669972	-0.661843	-0.110798	0.078673	-0.913213	9.373503	2.61913	0.188105	-4.275681	-1.734119	0.584083	-0.257902	-0.653883	-0.054898
-1.315902	0.267432	9.765164	0.083032	0.873041	-1.059432	0.487743	-0.34321	-0.833645	2.196599	0.718226	10.064246	-0.821607	0.913723	-0.659517	-0.111018	0.092922	-0.899866	9.253405	2.56083	0.065843	-4.278637	-2.194216	0.708541	-0.258182	-0.66925	-0.069589
-1.653488	-0.248087	10.040577	0.450699	0.781172	-0.939311	0.543439	-0.299866	-0.859365	1.906462	0.66234	9.944875	-1.378212	0.846747	-0.876427	-0.149205	0.125481	-0.929746	9.310916	2.734676	0.007778	-4.27992	-2.378065	0.739986	-0.257831	-0.65471	-0.03937
-1.191165	-0.017687	10.277863	-0.068877	0.774567	-0.569905	0.502264	-0.374655	-0.813086	1.907671	0.662387	10.001514	-1.01052	0.635187	-0.63161	-0.110793	0.138883	-0.902877	9.254641	2.503001	0.125503	-3.605778	-2.585021	0.280087	-0.272019	-0.67028	-0.054131
-1.421379	0.097121	10.217038	0.269474	0.929105	-0.507032	0.501463	-0.312514	-0.854901	1.959192	0.662042	9.719525	-0.48898	0.393714	-0.201999	-0.098187	0.122566	-0.8878	9.487289	3.024651	0.012316	-2.834825	-2.458316	0.123876	-0.313321	-0.657179	-0.008595
-1.424802	0.21128	10.046962	-0.129507	0.897556	-0.5984	0.517084	-0.316074	-0.894063	1.791331	0.662555	9.942457	-0.40292	-0.040457	0.718597	-0.097817	0.138958	-0.903153	9.369392	2.966845	0.009868	-1.383252	-1.867815	-0.281517	-0.272157	-0.687299	-0.037766
-1.370888	0.210515	9.877516	-0.003563	1.326634	-0.438449	0.488457	-0.301554	-0.89678	2.246804	0.774164	9.725664	-1.452038	0.067467	0.934623	-0.097672	0.109389	-0.915496	9.201532	2.330144	0.423195	0.291264	-0.482789	-0.538693	-0.300319	-0.720918	-0.020705
-1.542651	0.210639	9.874175	0.794227	1.859746	-1.045443	0.52969	-0.295964	-0.873091	1.565366	0.944829	10.164417	-1.883428	0.153773	0.965962	-0.097597	0.124709	-0.916499	9.496072	2.561773	0.429686	1.994213	0.937992	-1.285145	-0.272298	-0.685646	-0.068822
-1.257286	-0.077017	9.821683	2.14566	2.859187	-1.891799	0.488457	-0.301554	-0.89678	1.902859	1.281881	9.832117	-2.992003	0.41625	0.875195	-0.084841	0.139033	-0.903429	9.605591	2.908229	0.014022	3.852505	2.698666	-2.308838	-0.313254	-0.639334	-0.040488
-1.304436	-0.189688	10.331765	3.64638	3.682948	-3.44682	0.501821	-0.291686	-0.886469	1.912291	0.775238	10.228167	-3.665058	0.900276	0.571185	-0.110573	0.124634	-0.916223	9.613544	2.328952	0.370991	5.743017	4.612106	-3.302806	-0.286553	-0.719062	-0.05169
-1.415521	-0.303764	10.499615	6.494157	4.485747	-5.312763	0.515984	-0.343959	-0.834343	1.896922	1.225313	9.548872	-3.818363	0.961659	0.263391	-0.136745	0.138733	-0.902326	9.436226	2.445509	0.368184	7.757435	6.276557	-3.837598	-0.313112	-0.640986	-0.009432
-1.368205	-0.42086	9.988568	5.975623	5.728209	-6.671183	0.545711	-0.330595	-0.891345	2.067632	0.999573	9.439029	-3.874969	1.331468	-0.133742	-0.123699	0.093919	-0.91394	9.556749	2.794437	0.551589	9.800004	7.791019	-4.64683	-0.300043	-0.686881	-0.053434
-1.190957	-0.304895	10.276656	5.416427	9.164228	-6.337705	0.490358	-0.335811	-0.914684	2.022024	0.436802	9.947103	-3.906449	1.270753	-0.288512	-0.098482	0.121494	-0.87345	9.37833	2.910747	0.488876	11.966302	8.777378	-4.62882	-0.258319	-0.686268	-0.053224
-1.351917	0.157174	10.843777	4.196752	14.748166	-5.967414	0.501063	-0.281443	-0.875809	1.909119	1.169457	10.11522	-3.873217	1.426481	-0.595217	-0.084771	0.094144	-0.914768	9.491131	2.793088	0.191048	13.54492	9.827231	-5.036849	-0.314089	-0.704104	-0.03714
-1.685997	-0.587387	11.288784	3.365784	23.340289	-5.11998	0.530476	-0.340805	-0.848768	1.791547	0.549894	9.942362	-3.196888	1.188579	-0.41207	-0.084621	0.124784	-0.916775	9.315318	2.735665	0.247406	14.719403	10.074599	-4.889474	-0.244203	-0.669872	-0.053991
-1.455043	-0.184979	11.408633	9.835634	29.374933	-6.144598	0.503735	-0.343242	-0.886882	1.788698	0.775121	9.829272	-2.557535	0.489105	-0.048574	-0.098187	0.122566	-0.8878	9.614395	2.910207	0.493277	15.523357	10.042162	-4.433804	-0.286273	-0.703695	-0.036999
-3.156325	-2.145957	9.20772	-7.83511	36.833411	-7.107253	0.557174	-0.28647	-0.86313	2.021808	0.549463	9.947198	-2.992514	0.299025	0.04167	-0.110573	0.124634	-0.916223	9.899417	2.500527	-0.10202	16.412612	9.651159	-4.771338	-0.258319	-0.686268	-0.053224
-1.760111	1.444663	16.353814	-13.137478	44.42835	3.888016	0.530833	-0.319977	-0.880336	1.564588	0.719459	10.107587	-3.116717	0.20828	-0.390925	-0.110717	0.154203	-0.903881	10.020905	2.907778	0.141539	17.239339	9.044222	-4.954806	-0.285781	-0.690808	0.024275
-1.796218	-0.356573	11.514934	9.57336	60.544786	9.236627	0.543439	-0.299866	-0.859365	1.849674	0.887817	10.000495	-3.241269	0.144376	-0.237521	-0.08403	0.126928	-0.945474	10.07743	2.558445	-0.038565	18.587374	8.07208	-5.138418	-0.285785	-0.672137	-0.023146
-1.880254	0.626771	13.108696	-4.223469	64.976075	8.459049	0.502621	-0.353827	-0.844654	1.73586	0.831749	10.054669	-2.995048	0.085377	-0.114597	-0.110868	0.123563	-0.901874	10.134266	3.022671	-0.095393	19.937452	7.251321	-5.169952	-0.300252	-0.703073	-0.052597
-1.763844	-0.46446	13.163191	3.532218	75.030895	8.324178	0.51747	-0.329846	-0.890647	1.618204	0.888201	9.93902	-2.530423	0.183452	-0.144076	-0.110573	0.124634	-0.916223	9.845518	3.140982	0.25904	21.348138	6.401774	-5.354376	-0.272507	-0.701839	-0.067985
-1.60103	-0.409072	12.711949	2.460618	84.044692	9.639113	0.55946	-0.334498	-0.877618	1.905923	0.943992	9.945112	-2.221362	0.187976	-0.236266	-0.097742	0.154278	-0.904157	9.841656	2.907689	0.018424	22.732884	6.256963	-5.664314	-0.299976	-0.669036	-0.085327
-1.717932	-0.179706	12.596981	2.617808	92.961645	11.838241	0.572452	-0.328158	-0.853232	1.90493	0.831284	9.888377	-2.345564	0.125883	-0.360296	-0.123103	0.156272	-0.932305	9.493061	2.909735	0.311356	24.123955	6.379587	-5.211514	-0.258249	-0.687095	-0.037696
-1.656223	-0.178782	12.825506	5.821927	99.722621	13.01223	0.544197	-0.310109	-0.870025	2.074993	0.943527	9.77882	-3.057269	-0.003578	-0.701265	-0.111018	0.092922	-0.899866	9.610243	2.32821	0.191271	24.535095	7.448237	-4.881924	-0.272019	-0.67028	-0.054131
-2.408983	-0.81203	12.353552	10.189035	106.023898	14.543376	0.571695	-0.317915	-0.842571	1.503396	0.719425	9.93646	-3.217862	-0.495573	-0.79877	-0.084916	0.123713	-0.902425	9.422865	2.035763	-0.412336	24.027382	9.153772	-4.338113	-0.286553	-0.719062	-0.05169
-2.356058	-0.985362	12.126529	16.571338	111.197884	16.050383	0.628934	-0.329656	-0.854628	1.851422	0.606212	10.056897	-4.144194	-0.476063	-0.891806	-0.07194	0.123788	-0.902701	9.190642	1.80474	-0.238006	22.68719	10.825108	-3.729998	-0.285647	-0.655118	-0.039511
-2.465082	-0.869189	12.40905	27.306361	113.629219	14.648415	0.615614	-0.391422	-0.812464	1.737847	1.057166	10.168138	-4.791502	-0.390689	-1.138102	-0.110503	0.079745	-0.927562	9.179503	1.860344	-0.836828	20.640484	12.644033	-2.844966	-0.285576	-0.655944	-0.023983
-3.055442	-0.872635	11.488266	39.194142	113.06271	15.279616	0.669795	-0.327594	-0.816864	1.623039	0.88839	10.165578	-5.226486	-0.609423	-1.356423	-0.07135	0.125931	-0.9314	8.71054	1.920242	-0.665663	17.416278	14.00398	-2.350784	-0.300114	-0.686055	-0.068962
-3.127996	-1.278062	10.68952	40.543322	112.440395	16.52288	0.670553	-0.337836	-0.827524	1.847796	0.60607	9.886979	-5.012875	-0.849585	-1.728575	-0.110573	0.124634	-0.916223	9.248423	1.862434	-0.296565	13.967789	13.733583	-1.053382	-0.243998	-0.635008	-0.102248
-2.723874	-1.277628	10.867874	47.991615	106.079392	19.679135	0.672082	-0.375621	-0.831353	2.140566	0.54939	10.119534	-4.246977	-1.331635	-1.547784	-0.110573	0.124634	-0.916223	9.300836	1.860816	-0.654906	10.447393	12.457847	-0.178789	-0.258808	-0.717827	-0.067077
1.845527	-2.444774	7.428348	57.646953	80.648708	22.764297	0.657961	-0.375247	-0.831003	1.907994	0.493396	10.001372	-3.511937	-1.813878	-1.397848	-0.084916	0.123713	-0.902425	9.407324	2.090378	-1.250785	7.378684	10.210849	0.118114	-0.286068	-0.668832	-0.085257
0.122269	-1.455644	10.070028	55.330038	45.458253	27.749045	0.712929	-0.356259	-0.81108	2.137394	0.943609	10.006587	-2.100844	-2.506785	-0.540418	-0.110422	0.155275	-0.918231	9.64642	2.206731	-1.066168	4.769636	7.536327	0.507081	-0.34135	-0.655108	-0.055319
3.005019	-1.708072	5.294451	22.25912	17.920886	30.55497	0.685459	-0.383052	-0.80355	1.451983	0.663439	10.218401	-0.505096	-3.258273	0.254924	-0.123549	0.124559	-0.915948	10.302761	2.439281	-0.633726	3.206145	4.467313	0.955273	-0.299488	-0.637477	-0.071474
1.661292	-1.228444	9.759939	3.854451	-3.168729	28.885431	0.714829	-0.390516	-0.828984	1.79813	0.268479	10.225323	1.280177	-3.699346	0.837709	-0.085136	0.137961	-0.889079	10.057602	2.08914	-1.178773	2.724003	1.677545	1.398217	-0.272298	-0.685646	-0.068822
2.348713	-0.194753	9.834497	16.630842	-3.105155	20.386592	0.713329	-0.38733	-0.790172	1.903937	0.718575	9.831643	3.315899	-3.890953	1.269036	-0.110793	0.138883	-0.902877	10.127062	1.858925	-0.6395	2.584092	-0.402674	1.378088	-0.258044	-0.652231	-0.085954
3.122029	-1.178111	8.367804	24.199469	-7.210132	11.435913	0.742341	-0.415621	-0.784039	2.192218	1.112398	9.894659	4.335083	-3.822322	2.133728	-0.097892	0.123638	-0.902149	10.125017	2.26521	-0.697676	3.530171	-1.529464	1.227224	-0.285714	-0.672963	-0.007618
3.333687	-1.813994	7.459954	13.69709	-15.532009	3.725608	0.685073	-0.369281	-0.806966	1.956667	0.718278	9.606293	4.365433	-3.824748	2.565324	-0.085066	0.093072	-0.900418	9.951945	1.975977	-0.522493	4.578345	-1.866903	1.683486	-0.25867	-0.700808	-0.083442
3.402609	-1.0072	8.089829	2.611872	-24.639857	-2.708065	0.699565	-0.366128	-0.821391	1.400677	0.551123	10.500296	4.460727	-3.580864	2.968593	-0.124359	0.136664	-0.873902	10.432202	2.267255	-0.033198	5.875216	-1.648437	1.70831	-0.327371	-0.65573	-0.039721
2.894249	-1.350029	8.419479	2.132036	-30.286156	-6.478694	0.727078	-0.391233	-0.776446	1.622262	0.663021	10.108749	4.861099	-3.610862	3.646839	-0.110793	0.138883	-0.902877	9.719877	2.151734	-0.286525	6.894725	-1.307036	1.580736	-0.300043	-0.686881	-0.053434
2.829283	-1.466559	8.019911	-0.202473	-35.358229	-7.443805	0.727421	-0.353106	-0.825505	1.902835	0.662197	9.774956	4.734173	-3.858963	3.82924	-0.109832	0.157419	-0.94693	10.246485	2.207606	-0.516002	8.127108	-1.021308	0.994208	-0.299417	-0.638303	-0.055946
2.993086	-1.238606	7.626245	-6.57715	-40.809657	-6.440621	0.69958	-0.383427	-0.803899	2.08993	0.718774	10.458305	6.216981	-3.869203	3.583705	-0.124139	0.122416	-0.887248	10.306332	2.32387	-0.4545	9.05022	-0.641768	0.102726	-0.27181	-0.654088	-0.054968
3.118398	-0.776744	8.198933	-11.205533	-46.908966	-4.53293	0.742327	-0.398322	-0.801531	2.245595	0.774117	9.669025	6.984872	-4.168879	4.01294	-0.097886	0.183847	-0.891814	10.130249	2.382599	-0.397647	9.754056	-0.784283	-0.663213	-0.300114	-0.686055	-0.068962
3.23864	-1.005387	8.484461	-11.306083	-53.714533	-3.569822	0.728221	-0.415246	-0.78369	1.331801	0.776126	9.98952	5.476321	-3.759974	4.200762	-0.08425	0.141177	-0.932128	10.657958	2.438718	-0.567217	9.900631	-0.893477	-1.885725	-0.257902	-0.653883	-0.054898
3.285749	-0.835275	7.97462	-10.92754	-61.330569	-4.154693	0.714843	-0.407815	-0.811493	1.677301	0.719149	9.996726	5.496615	-4.530652	4.871339	-0.097302	0.125781	-0.930849	9.946193	2.555748	-0.759648	9.765926	-1.524316	-3.043593	-0.25776	-0.655536	-0.023842
3.345645	-1.40925	8.087027	-13.438452	-69.593668	-5.815169	0.756448	-0.398696	-0.80188	2.08434	1.112898	10.232079	3.684793	-6.060645	5.563722	-0.123769	0.138808	-0.902602	10.660969	2.090756	-0.448886	9.295814	-1.977251	-3.773218	-0.285927	-0.670484	-0.054201
3.114152	-1.064917	7.970315	-16.867	-77.616445	-7.377104	0.727063	-0.373933	-0.793937	2.020492	0.605746	9.890605	2.274697	-7.556299	6.472569	-0.097747	0.094069	-0.914492	9.887737	2.788435	-0.699853	8.609275	-2.398796	-4.655013	-0.285647	-0.655118	-0.039511
3.241857	-0.832339	8.655744	-19.952299	-84.465872	-9.25834	0.728578	-0.394419	-0.815258	1.90724	0.887709	10.001704	0.325863	-10.188669	6.660626	-0.150832	0.089481	-0.85599	10.009746	2.498526	-0.519167	7.923672	-2.915259	-5.230738	-0.272365	-0.703491	-0.036929
2.949111	-1.120787	8.307851	-22.884656	-91.470572	-10.958537	0.743842	-0.418807	-0.822851	1.912399	0.718907	10.22812	-0.679433	-11.490833	6.893498	-0.110717	0.154203	-0.903881	9.819492	2.495965	-1.241351	7.115596	-3.216465	-5.95985	-0.272365	-0.703491	-0.036929
3.078835	-0.600518	9.108193	-26.110897	-97.542968	-10.9559	0.744199	-0.397979	-0.854419	2.423234	0.717653	9.899163	-1.217964	-12.483274	7.561425	-0.07179	0.154428	-0.904708	9.473908	2.150049	-0.830089	6.279765	-3.213155	-6.568066	-0.258249	-0.687095	-0.037696
2.336014	-1.116712	9.148399	-29.78036	-101.818342	-9.634657	0.728592	-0.411718	-0.797766	1.67225	0.83162	9.770262	-1.621071	-12.581982	7.806748	-0.097892	0.123638	-0.902149	9.89652	2.325557	-0.282482	5.316697	-3.513339	-7.449419	-0.244412	-0.686064	-0.053154
2.107696	-0.54189	9.203212	-33.042904	-105.145794	-7.685806	0.773198	-0.408971	-0.865777	1.90195	0.493158	9.718174	-3.275745	-13.952725	7.884273	-0.097817	0.138958	-0.903153	9.763777	2.496841	-1.062731	4.634813	-3.602187	-7.966063	-0.27146	-0.639548	-0.02475
1.653824	-0.138502	9.423405	-35.473642	-108.043166	-5.364358	0.759806	-0.384241	-0.911072	2.189238	0.774272	9.724456	-3.281085	-14.352812	8.096091	-0.150241	0.091625	-0.884689	9.294544	2.672891	-0.891072	3.6115	-3.936333	-8.541419	-0.244061	-0.671524	-0.022935
1.323535	0.036966	10.099685	-36.310899	-111.150781	-2.836263	0.7476	-0.435422	-0.911135	2.206162	0.774936	10.51741	-4.080135	-14.054719	7.851783	-0.13697	0.092772	-0.899315	9.469237	2.265212	-1.069222	2.993836	-3.93666	-8.722545	-0.313392	-0.656352	-0.024123
0.919331	0.151415	9.921814	-36.284299	-113.581496	0.006983	0.746828	-0.40788	-0.917967	1.901842	0.549489	9.718221	-4.581388	-14.583949	8.092746	-0.123624	0.109239	-0.914944	9.593871	2.266426	-0.70758	2.563616	-3.754679	-8.721856	-0.271881	-0.653261	-0.070496
0.759899	0.03931	10.543375	-36.184282	-113.698347	2.212873	0.746814	-0.390581	-0.935459	2.206485	0.605945	10.517268	-8.653547	-16.769769	6.187196	-0.111013	0.153132	-0.889531	9.764722	2.090309	-1.064462	1.977151	-3.538252	-9.148614	-0.299626	-0.654496	-0.055109
0.19057	0.212773	10.703523	-37.182381	-112.145126	3.130333	0.748314	-0.393767	-0.974271	2.029516	0.944109	10.344007	-8.370734	-16.397823	6.129465	-0.136449	0.139805	-0.916676	9.174291	2.207811	-1.074972	1.333001	-2.98809	-9.332271	-0.313601	-0.672545	-0.023286
0.237928	0.038236	10.192235	-38.517762	-109.591201	2.439645	0.763535	-0.366257	-1.03434	2.425305	0.267056	9.955423	-7.884367	-17.063026	5.629987	-0.136525	0.124484	-0.915672	10.18994	2.092083	-0.397783	0.563485	-2.589738	-9.667551	-0.299689	-0.691012	0.024205
0.418433	0.269808	10.651366	-38.840091	-105.909414	0.322978	0.749786	-0.362354	-1.048066	2.325566	0.43688	10.689462	-5.357227	-17.722159	3.46748	-0.123693	0.154128	-0.903605	9.065872	1.861603	-0.599401	0.042279	-2.131527	-9.790092	-0.286344	-0.702869	-0.052527
-0.275591	0.670948	10.298574	-39.991629	-101.914014	-2.675615	0.750529	-0.355298	-1.076218	2.205169	0.662228	10.460676	-1.42741	-19.862593	0.767306	-0.123844	0.123487	-0.901598	9.352014	1.917026	-1.072907	-1.03487	-1.859791	-9.818049	-0.286411	-0.720714	-0.020634
-0.03651	0.615512	10.814465	-41.423336	-98.471271	-5.866448	0.738281	-0.354581	-1.128757	2.433444	0.43638	10.352042	-0.118959	-21.496413	-0.080245	-0.136889	0.168302	-0.889983	9.476379	2.034392	-0.71077	-1.831399	-1.468798	-9.450304	-0.271806	-0.672759	-0.007548
-0.666558	0.960617	10.803664	-41.41696	-94.951318	-9.857637	0.695133	-0.308616	-1.152033	1.907886	0.549726	10.001419	1.136703	-22.396786	-0.643092	-0.161886	0.126478	-0.94382	9.184175	1.745181	-0.597694	-2.720621	-1.295098	-8.806139	-0.271806	-0.672759	-0.007548
-0.900977	0.729811	10.51398	-39.95166	-88.439841	-14.049878	0.695833	-0.249661	-1.23266	2.540328	0.323171	9.957888	1.493553	-23.495366	-0.777039	-0.137185	0.16723	-0.875634	9.123653	1.919297	-0.65796	-3.671973	-1.244922	-8.069474	-0.314089	-0.704104	-0.03714
-1.642934	0.558507	10.612486	-40.175415	-76.944233	-19.229872	0.668707	-0.238327	-1.274189	2.827724	0.547954	9.964122	1.54154	-24.59747	-0.972926	-0.175968	0.137436	-0.887149	9.537286	1.221192	-0.713131	-5.02642	-1.378148	-7.483274	-0.285994	-0.688329	-0.022309
-1.647678	0.959633	10.386763	-41.047354	-60.299663	-26.011471	0.61261	-0.2506	-1.269377	2.496838	0.54917	10.636544	2.483733	-25.869011	-1.663026	-0.162401	0.139655	-0.916124	9.408944	1.393465	-1.253752	-6.68644	-1.548745	-6.345684	-0.271877	-0.671933	-0.023075
-2.397428	0.786641	10.087299	-39.140425	-39.599737	-34.238446	0.556071	-0.179904	-1.337947	3.011408	0.491727	10.477458	3.718292	-28.454446	-2.520092	-0.162251	0.170296	-0.918131	9.59136	1.452372	-0.950669	-8.720639	-1.80582	-5.848108	-0.258316	-0.70494	-0.005803
-2.852947	0.385364	10.190408	-37.441516	-16.573827	-44.513354	0.54045	-0.176343	-1.298786	2.606356	0.323395	10.355574	4.128734	-30.31099	-3.894646	-0.175377	0.13958	-0.915848	9.710628	1.394274	-0.888808	-11.336538	-1.824387	-4.952261	-0.258804	-0.736498	-0.019657
-3.207815	0.670408	9.616402	-35.198771	5.442583	-55.174974	0.483954	-0.157546	-1.314881	2.671497	0.15458	10.696478	5.68403	-31.971843	-4.834741	-0.162992	0.137511	-0.887425	9.774471	1.685755	-0.586937	-14.505957	-1.878691	-3.748612	-0.244758	-0.719275	-0.035952
-3.950761	0.326539	9.657332	-38.077011	22.080927	-65.419068	0.455284	-0.091127	-1.370074	2.495067	0.211092	10.52298	9.040687	-35.353214	-6.499527	-0.150236	0.151835	-0.874354	9.533019	1.162127	-0.953005	-18.109489	-2.488618	-2.204543	-0.286202	-0.704522	-0.021471
-4.581632	0.269312	9.587989	-37.369606	32.379457	-73.506752	0.469805	-0.122572	-1.349515	2.55013	0.886903	10.468119	9.75666	-37.42404	-7.351884	-0.176489	0.090403	-0.869788	9.481841	1.105917	-0.535005	-22.19941	-2.616568	-0.110862	-0.286202	-0.704522	-0.021471
-5.608415	-0.361075	9.735851	-36.081738	36.35914	-79.735555	0.454898	-0.077356	-1.373489	2.665476	0.774026	10.470442	11.11682	-39.854121	-8.299776	-0.163657	0.120047	-0.857722	9.408094	0.812211	-1.376038	-26.540999	-3.263525	1.802862	-0.244341	-0.686891	-0.037626
-6.588504	-0.246935	9.376286	-33.342577	35.08341	-82.648377	0.412551	-0.093532	-1.35495	2.495198	0.774445	10.580094	11.915722	-42.661984	-8.851115	-0.19057	0.101361	-0.813117	9.466725	1.451159	-1.312311	-30.885028	-3.781505	3.074171	-0.272365	-0.703491	-0.036929
-7.751367	-0.307408	8.444126	-30.325813	28.415706	-84.238292	0.44112	-0.038855	-1.4222	2.608558	0.436151	10.468948	13.011655	-46.473162	-10.182874	-0.176118	0.106795	-0.885142	9.41043	0.754629	-1.256471	-35.040302	-4.212726	4.894548	-0.258595	-0.720306	-0.020494
-8.514024	-1.115152	7.459769	-40.111009	7.366973	-83.202334	0.454155	-0.084413	-1.345337	3.243225	0.942035	10.595952	12.904493	-50.147556	-11.329273	-0.215191	0.136139	-0.871972	9.701534	1.043592	-1.429454	-39.07578	-4.543541	5.919363	-0.286411	-0.720714	-0.020634
-9.190605	-0.193177	8.018799	-50.168048	-22.254126	-82.765197	0.383152	-0.05147	-1.364499	2.842793	0.886554	10.700722	11.932143	-53.834016	-12.322348	-0.176564	0.075082	-0.868785	9.580896	1.217596	-1.550727	-42.525055	-4.500457	6.481811	-0.272436	-0.702665	-0.052457
-10.699694	1.309624	9.928014	-36.797426	-45.489968	-83.089411	0.381652	-0.048284	-1.325687	3.245212	1.167452	10.709421	10.705864	-58.045984	-13.197539	-0.228317	0.105423	-0.869689	9.821612	0.637037	-1.369077	-45.879238	-4.430864	7.471696	-0.272157	-0.687299	-0.037766
-12.541034	1.711111	9.439247	-5.551049	-54.24903	-81.388749	0.396144	-0.04513	-1.340112	2.738457	1.56321	11.265269	8.195228	-63.684248	-14.242074	-0.228612	0.104351	-0.855339	9.346587	0.463148	-1.558343	-49.688048	-3.787739	9.041234	-0.258946	-0.734846	-0.050713
-35.042802	-10.262699	26.000217	55.554784	88.948108	-54.170498	0.369032	-0.051095	-1.36415	3.66671	0.322404	11.510127	7.572525	-69.108877	-16.176949	-0.229203	0.102207	-0.82664	8.993766	1.33584	-1.381516	-52.581329	-2.937262	8.619746	-0.258599	-0.701635	-0.067915
-26.461928	0.003584	-3.000436	241.529333	95.127699	-5.559109	0.383567	-0.099839	-1.3261	3.614327	0.773393	11.792495	6.993951	-75.856716	-17.415909	-0.216893	0.084818	-0.797212	9.525762	1.915879	-1.249326	-55.350564	-2.273969	8.596047	-0.258946	-0.734846	-0.050713
4.072523	9.489587	4.737279	58.372774	200.976251	-9.413233	0.383567	-0.099839	-1.3261	3.919378	-0.015157	12.53419	5.654985	-84.202767	-19.719473	-0.242549	0.08574	-0.811011	9.826115	2.962303	-0.820025	-55.64221	-2.434229	6.244387	-0.272436	-0.702665	-0.052457
-4.767314	4.317631	29.492087	-57.347444	205.268897	38.674099	0.440049	-0.101338	-1.327496	3.31474	0.212489	13.880433	6.228079	-95.195489	-21.801172	-0.242549	0.08574	-0.811011	9.996081	4.587285	-0.989522	-51.977224	-4.622383	3.185151	-0.273346	-0.747937	-0.112057
-13.935927	7.285084	23.18857	68.033638	142.400407	32.538506	0.439692	-0.122165	-1.295929	3.331663	0.213153	14.673387	5.87722	-110.776396	-23.251004	-0.229428	0.056246	-0.823629	11.27081	5.463996	1.07413	-45.84994	-9.774645	3.676565	-0.30011	-0.704726	-0.021542
-4.995664	-11.325827	11.349636	94.423534	66.141537	19.172198	0.482053	-0.123289	-1.296976	3.008161	0.778006	15.74276	5.963229	-128.210488	-22.221919	-0.282953	0.080155	-0.738435	13.955479	6.742762	2.866389	-36.694525	-18.409238	4.815479	-0.272645	-0.718857	-0.05162
-1.952786	1.460367	6.518471	-1.89076	0.433504	50.361625	0.482796	-0.116233	-1.325128	3.404195	0.215998	18.071763	7.32822	-149.555698	-21.600561	-0.256781	0.066057	-0.752332	16.457152	7.265214	4.232784	-23.709491	-31.515287	7.948577	-0.300528	-0.737111	-0.019868
0.862314	-0.812704	12.814992	17.213082	-6.977399	-11.909189	0.525186	-0.151955	-1.291192	3.960142	-1.24819	19.723959	12.992715	-178.354661	-27.893254	-0.321291	0.082074	-0.766307	14.978035	4.130012	3.592854	-14.793649	-34.163848	12.819392	-0.272578	-0.701012	-0.083513
-1.615282	2.090769	6.243541	10.340568	11.35945	10.765609	0.453055	-0.112297	-1.285618	3.203584	-3.275162	19.14014	31.420318	-209.251627	-36.724108	-0.295564	0.036263	-0.763848	10.807633	2.561769	1.172779	-9.76945	-19.480687	8.268545	-0.258249	-0.687095	-0.037696
-0.907984	-0.363267	10.111423	-33.774551	4.978524	10.635546	0.497688	-0.144149	-1.318646	3.330128	-3.164626	16.991556	48.894187	-237.512806	-47.532986	-0.361625	0.0316	-0.70507	9.829126	2.614342	-0.701695	-10.665693	-3.753722	13.270598	-0.244687	-0.720102	-0.020424
-1.379506	-0.193506	9.421002	-14.052797	2.176784	2.866583	0.495059	-0.134249	-1.255098	2.115711	-1.528873	16.854265	59.482717	-262.79024	-54.402777	-0.348724	0.016355	-0.704342	9.224233	2.321851	-1.552632	-17.541616	5.643695	22.054003	-0.28697	-0.751447	-0.050016
-0.983345	0.035005	9.202349	-19.703505	3.251222	6.089687	0.510309	-0.141338	-1.280183	2.059078	-0.12036	17.024161	79.529055	-286.678672	-53.883971	-0.388312	0.058875	-0.663477	8.989249	1.857782	-1.559012	-28.753134	9.778091	23.633876	-0.27292	-0.752895	-0.01889
-1.08127	-1.340132	9.990274	-15.276478	2.633772	2.724195	0.483153	-0.095405	-1.356696	2.665726	0.497095	15.848549	93.129566	-307.024726	-49.112147	-0.429017	-0.007991	-0.586886	8.808629	1.973598	-1.741539	-41.601745	9.373678	19.86133	-0.272645	-0.718857	-0.05162
-1.66322	-0.652349	9.52721	0.479251	0.568278	-1.126861	0.495031	-0.09965	-1.290081	4.469126	2.635214	16.96398	109.967328	-320.073289	-40.936079	-0.468095	-0.038857	-0.584052	7.751476	3.081204	-1.337301	-49.397852	5.544676	14.742008	-0.286828	-0.753099	-0.01896
-1.432881	-0.939481	9.587311	-9.055243	-0.720448	0.198363	0.496188	-0.140963	-1.279834	6.199171	3.305753	14.509882	116.701924	-318.997722	-32.566185	-0.496114	-0.04651	-0.483052	7.807616	3.370954	-1.454779	-53.389375	-1.185633	10.509356	-0.286344	-0.702869	-0.052527
-1.42389	-1.052434	10.041653	-2.011038	-0.297198	-1.716455	0.481653	-0.092219	-1.317884	10.371656	3.071377	13.181953	120.598827	-303.521364	-28.741135	-0.497746	-0.14272	-0.419631	7.45491	3.720715	-1.340084	-54.492978	-9.532077	6.824262	-0.286206	-0.68585	-0.068892
-1.708101	-0.821978	10.150757	5.702944	-0.578678	-3.552671	0.524415	-0.124413	-1.298024	11.326606	2.167261	12.012314	117.289285	-271.382981	-18.005384	-0.524138	-0.114373	-0.392388	7.588619	3.607754	-0.499681	-54.144044	-17.383197	3.101088	-0.30165	-0.779904	-0.126051
-1.829291	-0.823343	9.807411	3.839272	-0.291213	-2.561242	0.468304	-0.119386	-1.310703	7.375668	-0.868918	9.945161	121.492686	-243.902326	-13.875785	-0.563731	-0.132063	-0.361857	7.537035	3.725772	-0.080939	-52.196076	-25.003372	-1.667996	-0.300323	-0.702247	-0.068125
-1.435647	-0.193223	9.476742	1.210028	-0.040491	-1.353536	0.509894	-0.092968	-1.318582	2.266164	-3.511249	4.853472	101.710938	-188.43901	-26.658136	-0.564617	-0.135278	-0.318808	7.963624	3.611641	0.645152	-49.635862	-30.219163	-5.075324	-0.300673	-0.716787	-0.098344
-1.489478	-0.307341	9.645705	-1.296303	0.209761	-0.054196	0.482425	-0.119761	-1.311052	-3.322239	-4.909342	4.395185	65.62916	-119.669168	-58.247493	-0.564617	-0.135278	-0.318808	8.730544	3.261183	0.598068	-45.676379	-33.028012	-4.159406	-0.300461	-0.719266	-0.05176
-1.089645	-0.537639	9.595681	-4.879562	0.279304	0.478603	0.496202	-0.158262	-1.262342	-5.658835	-5.469711	2.703806	56.571955	-43.533109	-94.085574	-0.590939	-0.151821	-0.302903	9.155896	3.204881	1.2645	-40.813938	-32.463559	-0.878989	-0.272995	-0.733397	-0.081838
-1.200523	-0.938923	9.762324	-6.590431	0.975341	0.740182	0.496545	-0.120135	-1.311402	-0.595721	-3.223543	5.586218	57.543318	-3.747987	-122.106686	-0.553343	-0.186524	-0.244324	10.232628	3.147588	2.06285	-36.451448	-28.469916	1.836815	-0.28697	-0.751447	-0.050016
-1.209348	-1.055736	9.307017	-5.027226	1.170158	0.462838	0.509137	-0.082725	-1.307922	-5.587987	-2.934234	3.556743	28.932791	57.225159	-134.930245	-0.57915	-0.216243	-0.256115	10.524812	2.971944	1.88789	-30.953257	-21.354697	4.747614	-0.244967	-0.735468	-0.035114
-1.538855	-0.420494	10.04208	-5.058115	1.17071	0.4016	0.496159	-0.106364	-1.314817	-4.848108	-0.792881	6.065194	13.147517	94.8958	-119.281438	-0.578635	-0.22942	-0.283811	10.178013	3.148712	2.301377	-24.550348	-12.858915	7.587486	-0.258595	-0.720306	-0.020494
-1.082922	-0.593633	9.936558	-3.461699	1.577315	0.434281	0.496574	-0.154734	-1.276418	-5.163279	-0.791049	7.473931	22.518863	111.74583	-105.175111	-0.566035	-0.305947	-0.279069	8.575929	3.55716	1.854048	-19.301489	-4.837938	8.661089	-0.287254	-0.748142	-0.112127
-1.14694	-0.480156	9.594809	-4.287459	1.599664	0.835703	0.509908	-0.110267	-1.301091	-5.760369	-0.959816	6.442187	37.052615	115.357992	-81.024401	-0.552619	-0.334369	-0.306037	8.458572	3.26705	1.850611	-14.094372	2.490148	8.729512	-0.301087	-0.767843	-0.049249
-1.601262	-0.996074	9.754288	-4.591579	1.87308	0.994361	0.48241	-0.102461	-1.328544	-4.938097	-0.906715	4.534621	35.487782	113.985671	-52.126411	-0.526001	-0.316754	-0.336291	8.634365	2.859618	1.732367	-9.736394	7.922382	8.473847	-0.259434	-0.766405	-0.064566
-1.260253	-0.594715	9.648952	-4.068988	1.870993	1.391503	0.482396	-0.085162	-1.346036	-5.059056	-1.019398	4.248911	18.330084	113.024593	-22.649498	-0.589625	-0.297522	-0.393315	8.628343	3.555541	1.495707	-6.10453	10.80746	8.783138	-0.31451	-0.717817	-0.082886
-1.20535	-0.422914	9.537083	-2.655756	1.930346	2.15509	0.495031	-0.09965	-1.290081	-5.056638	-1.019303	4.36219	-2.113638	116.067613	6.650552	-0.564119	-0.329084	-0.37751	8.913229	3.203938	0.900656	-3.418694	11.462682	8.464633	-0.259434	-0.766405	-0.064566
-1.262977	0.094101	9.538142	-1.670049	2.327483	2.772056	0.495416	-0.113421	-1.286665	-4.636972	-0.906732	5.163701	-17.191221	123.205205	33.993419	-0.576064	-0.355513	-0.432626	8.617453	3.030137	0.834506	-1.081829	10.272369	9.01202	-0.314786	-0.751855	-0.050156
-1.659755	-0.82395	9.697046	-0.163134	2.757783	3.388059	0.48131	-0.130346	-1.268824	-3.707056	-1.75313	5.52217	-22.334538	133.778746	56.416068	-0.523935	-0.309251	-0.436739	8.797243	2.797923	0.956632	0.292199	7.974197	9.873836	-0.287183	-0.748968	-0.096599
-1.198296	-0.93844	9.87603	0.972871	2.8511	3.754313	0.454198	-0.136311	-1.292862	-2.945755	-2.204701	6.103903	-28.61342	146.883648	73.560771	-0.549516	-0.293009	-0.451541	9.027515	2.447443	0.600109	0.369073	6.079165	9.760341	-0.272365	-0.703491	-0.036929
-1.262439	-0.652639	9.535005	1.251135	2.90794	4.275778	0.509923	-0.127567	-1.283599	-2.429999	-2.881779	5.944295	-38.219506	162.589047	84.562584	-0.574362	-0.304192	-0.507385	9.031356	2.215881	0.778841	0.47865	4.335955	9.768264	-0.272574	-0.719684	-0.036092
-1.369153	-0.650867	9.930749	1.49657	3.158761	3.941809	0.524015	-0.093342	-1.318932	-1.504525	-2.038309	6.247547	-50.16639	180.781796	89.790779	-0.573257	-0.315225	-0.56378	9.548756	2.444003	0.070851	0.001585	2.87164	9.226807	-0.259713	-0.781771	-0.079257
-1.19739	-0.650992	9.93409	1.190498	3.469165	3.549061	0.510309	-0.141338	-1.280183	-0.670806	-2.038727	7.567183	-58.690765	198.092867	90.973793	-0.559465	-0.267045	-0.595767	9.131666	2.734586	-0.115337	-0.805773	2.444911	8.803857	-0.300461	-0.719266	-0.05176
-1.139969	-0.880799	9.934238	0.395782	3.740984	3.647768	0.495416	-0.113421	-1.286665	0.322074	-2.547012	8.210343	-64.07636	209.2199	88.305233	-0.558429	-0.233188	-0.640823	9.018441	2.561617	0.121348	-1.421995	2.348717	9.020503	-0.286624	-0.718235	-0.067218
-1.318621	-0.594915	9.590986	1.68735	4.48559	3.564149	0.509523	-0.096496	-1.304506	1.32223	-2.43533	9.250502	-68.262705	212.386162	82.999221	-0.556877	-0.212508	-0.713575	9.076607	1.980228	0.000163	-2.354959	1.398052	8.936724	-0.272712	-0.736702	-0.019727
-1.649816	-0.706895	10.209206	2.483972	4.646443	3.257798	0.523657	-0.11417	-1.287364	2.131233	-2.155044	9.437583	-73.601087	209.767676	74.983114	-0.516838	-0.163106	-0.760463	8.958034	2.212802	-0.001049	-3.29065	0.080004	8.885274	-0.273062	-0.751242	-0.049946
-1.248005	-0.592061	10.274336	3.620539	4.925886	3.473739	0.481667	-0.109518	-1.300392	2.713517	-1.198171	9.846955	-80.001556	206.076362	65.044006	-0.475253	-0.153234	-0.890437	9.075641	1.921904	-0.059992	-4.4731	-0.804052	8.190782	-0.315274	-0.783413	-0.06401
-1.432389	-0.077617	9.647783	4.047036	4.622314	3.314241	0.469047	-0.11233	-1.338855	3.18954	-1.085756	10.593036	-85.862892	203.379141	53.974665	-0.447669	-0.056874	-0.95441	9.080468	2.213521	0.240779	-5.255659	-1.933266	7.679404	-0.286415	-0.702043	-0.068055
-1.376165	-0.192782	9.591561	4.872918	4.568192	3.00431	0.511423	-0.130753	-1.322411	3.783996	-0.804422	11.511596	-88.896539	201.941813	43.04371	-0.408672	-0.101538	-0.966576	9.376089	1.980541	0.245292	-6.400239	-2.054367	7.164528	-0.285994	-0.688329	-0.022309
-1.375668	-0.882081	9.588666	5.298528	4.29848	2.569358	0.509523	-0.096496	-1.304506	3.684927	-0.352899	12.302512	-88.598902	202.561164	33.153544	-0.355512	-0.08163	-1.026081	9.376224	1.922465	0.245045	-7.145476	-2.574835	6.955759	-0.300043	-0.686881	-0.053434
-1.085398	-0.249466	9.8243	4.531773	4.453079	2.1754	0.482796	-0.116233	-1.325128	3.749315	-0.1274	12.643748	-86.682735	204.232957	24.693514	-0.315768	-0.0333	-1.058619	9.382422	2.098177	0.605228	-7.79889	-2.690063	6.041742	-0.301299	-0.765364	-0.095832
-1.483703	-0.593343	9.928764	4.468459	4.270839	1.957948	0.495816	-0.144491	-1.265758	4.102738	0.097608	13.047668	-86.652269	206.049939	18.484085	-0.237241	0.044824	-1.079641	9.789627	2.270224	0.314138	-8.451049	-2.497194	4.912307	-0.286415	-0.702043	-0.068055
-1.60481	-0.70959	9.584935	4.590568	4.272802	1.834958	0.481682	-0.126817	-1.2829	4.223135	-0.12774	13.276455	-87.509746	206.337135	15.033393	-0.211364	0.029654	-1.079189	10.030209	1.747741	0.496036	-8.947464	-2.337828	4.118681	-0.273275	-0.748764	-0.096529
-1.37831	-0.308148	9.477372	6.951019	4.344587	1.890665	0.509937	-0.144866	-1.266107	3.824235	-0.352166	13.437722	-90.760039	203.305607	13.366661	-0.1585	0.04849	-1.124345	9.434565	2.21271	0.247382	-9.629068	-2.396086	3.601843	-0.286273	-0.703695	-0.036999
-1.485764	-0.823591	9.814092	8.57719	4.534473	2.073076	0.524	-0.076043	-1.336423	4.016058	-0.239069	14.347677	-94.929995	198.568268	13.192827	-0.107181	0.106856	-1.086413	9.262168	1.633097	0.421329	-10.459385	-1.999531	3.419575	-0.314648	-0.734836	-0.066521
-1.776491	-0.824349	9.581112	10.783745	4.701213	1.824093	0.511409	-0.113453	-1.339903	4.554158	0.042419	15.321667	-97.271263	191.861964	13.216666	-0.067662	0.109225	-1.11594	9.258442	1.341728	0.180465	-11.352145	-1.446469	2.870023	-0.31479	-0.733184	-0.097577
-1.308724	-0.420419	10.103387	14.614145	5.033018	1.235774	0.524015	-0.093342	-1.318932	5.020355	-1.02858	15.500357	-97.986457	184.112903	11.874965	-0.053725	0.127836	-1.160268	9.429738	1.921094	-0.053389	-12.456109	-0.437232	2.502443	-0.286691	-0.73608	-0.035325
-1.024679	-0.421108	9.995249	15.713032	4.894247	0.371657	0.496188	-0.140963	-1.279834	5.768167	-0.748329	15.516309	-99.678345	177.10141	8.196848	0.024576	0.159999	-1.17828	9.551186	1.398634	0.066401	-13.839707	0.233583	2.229181	-0.314231	-0.702451	-0.068195
-1.427811	-0.248976	9.874472	16.287225	4.419519	-0.895098	0.483568	-0.143775	-1.318297	6.222323	-0.580437	15.242925	-102.045128	170.364752	3.287821	0.01175	0.190565	-1.180011	9.49107	1.398522	0.005393	-15.469328	1.088627	1.803116	-0.301158	-0.767017	-0.064777
-1.14331	-0.881523	9.763679	16.710495	4.43821	-2.368088	0.53855	-0.142087	-1.280881	7.252179	0.825744	15.095952	-105.471623	162.996382	-0.795939	0.088275	0.156087	-1.122259	9.088846	1.924871	0.658891	-16.94637	1.295226	2.021423	-0.300323	-0.702247	-0.068125
-1.774471	-0.536659	9.696025	17.132225	4.273556	-3.936072	0.496931	-0.133906	-1.307986	7.999344	1.443979	15.11219	-106.604401	153.785617	-4.495392	0.114672	0.18795	-1.139168	8.842453	1.632559	0.054184	-17.748974	0.611175	2.822245	-0.300949	-0.750824	-0.065614
-1.372742	-0.306942	9.761638	16.419947	3.603213	-4.742303	0.510666	-0.12051	-1.311751	9.027907	3.526126	14.965786	-106.663431	141.668121	-6.743152	0.115269	0.250303	-1.157532	9.207129	1.343594	0.598713	-17.040349	-0.13051	3.801256	-0.300531	-0.718439	-0.067288
-1.611781	-0.308947	9.245506	16.290371	3.215996	-5.882973	0.523657	-0.11417	-1.287364	9.711031	4.369553	14.697806	-103.396672	126.335398	-7.632971	0.141	0.264702	-1.144737	8.838861	1.283114	-0.186927	-17.384333	-1.022919	4.204091	-0.301299	-0.765364	-0.095832
-1.261574	-0.307748	9.593306	14.572843	3.180728	-6.185292	0.524801	-0.138184	-1.294608	11.720924	5.661288	14.62793	-91.670062	110.349716	-9.632259	0.166877	0.249531	-1.144285	8.546251	1.168131	-0.07311	-18.778931	-2.069832	4.397523	-0.301299	-0.765364	-0.095832
-1.42909	-0.019451	9.818584	13.713167	3.212668	-6.642335	0.512195	-0.158295	-1.315579	19.396801	34.869347	64.18246	-129.990674	83.387752	-37.952722	0.19291	0.325212	-1.135505	9.082629	1.284304	0.236823	-20.947856	-3.081672	3.890622	-0.301437	-0.782383	-0.079468
-1.197928	0.095748	9.937227	12.088315	3.48862	-7.246557	0.524429	-0.141712	-1.280532	11.18727	20.019909	7.099702	2.369142	52.570251	-27.302021	0.217976	0.322146	-1.093007	8.661272	1.515823	-0.189239	-21.034022	-3.55975	5.727059	-0.328556	-0.73504	-0.066591
-1.435771	-0.020899	9.477466	11.324592	3.978832	-7.420406	0.496588	-0.172033	-1.258926	19.487834	6.597157	6.582823	56.589076	28.644621	-36.990786	0.192684	0.27925	-1.132494	8.838861	1.283114	-0.186927	-19.210151	-3.810842	6.974792	-0.273133	-0.750416	-0.065473
-1.371794	-0.076934	9.819456	11.173581	4.535105	-7.748293	0.496188	-0.140963	-1.279834	19.480895	8.570967	9.132056	5.796376	6.511992	-51.70883	0.192464	0.293499	-1.119148	9.443733	1.110749	0.602126	-17.240534	-3.82803	6.35645	-0.300323	-0.702247	-0.068125
-1.433544	-0.020416	9.591172	10.529886	4.970682	-8.475426	0.524786	-0.120885	-1.3121	19.239243	9.08033	11.335383	-16.612646	-8.631421	-72.406381	0.27054	0.279701	-1.134149	10.027157	1.165992	0.253936	-14.280955	-3.6307	6.039145	-0.300669	-0.735458	-0.050923
-1.598544	-0.133728	9.928467	9.575054	4.980152	-9.699308	0.524829	-0.172783	-1.259625	18.455466	8.009981	9.562938	-1.398159	-18.229164	-85.157906	0.230651	0.26094	-1.089269	9.081798	1.167905	0.176422	-10.074581	-3.019919	7.579786	-0.31479	-0.733184	-0.097577
-1.427935	-0.076652	9.875196	10.095314	5.767205	-11.129496	0.553813	-0.166475	-1.288475	17.946926	10.602724	10.233915	17.427462	-29.042085	-83.308404	0.217305	0.244472	-1.07364	9.514834	0.648478	1.200317	-4.743028	-0.912579	9.720531	-0.287179	-0.767639	-0.049179
-1.709629	-0.247804	10.096317	10.376062	7.475736	-12.60537	0.524801	-0.138184	-1.294608	16.645561	11.167072	8.621884	25.873136	-56.116737	-72.597627	0.178892	0.23107	-1.100508	9.861923	0.820413	0.84822	0.808711	1.839523	11.70461	-0.273062	-0.751242	-0.049946
-1.316026	0.439757	9.765888	8.175922	9.669224	-14.495619	0.539336	-0.186928	-1.256558	15.118845	13.199114	10.06358	26.822421	-93.465992	-49.325772	0.192019	0.261786	-1.102791	9.562171	0.936251	0.603585	6.848517	4.293217	13.138187	-0.272086	-0.688125	-0.022238
-1.179864	-0.245041	10.845428	5.305783	13.099188	-17.283994	0.510294	-0.124038	-1.297675	13.774051	17.991597	12.190902	52.107221	-129.251338	-7.983808	0.165841	0.215675	-1.099229	9.917928	1.16824	0.73099	11.138259	5.450247	12.169583	-0.300252	-0.703073	-0.052597
-1.365538	-0.120583	13.058728	-14.604245	28.260851	-15.446679	0.524058	-0.145241	-1.266456	14.576682	6.877818	-5.12598	124.818373	-67.909283	4.738059	0.165621	0.229923	-1.085883	10.524097	2.332613	1.765356	10.580873	7.750419	8.431645	-0.300323	-0.702247	-0.068125
-1.63633	-0.876325	10.890719	-9.961286	39.449059	-21.811166	0.538178	-0.145615	-1.266805	9.013302	1.438801	11.396945	31.796772	-19.363483	-11.10052	0.15257	0.214528	-1.084603	11.874521	3.896818	1.617621	9.042364	13.3656	12.139397	-0.300598	-0.736284	-0.035395
-1.142213	0.05037	12.77964	-49.305844	60.085732	-20.380923	0.525215	-0.186554	-1.256209	2.557861	1.901232	10.922089	20.842413	-7.87099	-26.716805	0.165841	0.215675	-1.099229	13.164458	3.252786	1.099949	9.232686	19.110728	21.648194	-0.300461	-0.719266	-0.05176
-2.451214	0.250268	19.006367	-44.364644	70.533435	-4.828824	0.553428	-0.152704	-1.291891	-1.019965	-0.458489	10.222109	-1.910178	-11.463987	-23.164128	0.15257	0.214528	-1.084603	14.503466	1.676683	-0.079554	13.533922	22.295534	19.844474	-0.272857	-0.716379	-0.098203
-3.25221	-4.529868	15.901796	-11.313976	107.917506	6.754899	0.581297	-0.156982	-1.278513	-0.182235	-1.923454	11.597151	11.055132	-16.184669	11.264767	0.113862	0.200054	-1.097122	13.91452	1.155349	-0.092783	12.677384	23.580286	13.63635	-0.327997	-0.704308	-0.03721
-1.674356	0.531588	17.772394	5.751067	119.05309	26.021733	0.580154	-0.132968	-1.271269	3.046675	0.772418	9.459391	27.442185	-16.233793	22.49927	0.114383	0.247088	-1.114483	12.338711	1.627806	0.8979	15.635336	18.588969	9.217434	-0.299835	-0.670688	-0.054272
-2.230585	-2.92394	15.530624	-12.718377	147.937337	36.785638	0.608409	-0.151016	-1.254476	1.878682	1.280932	8.699325	17.916387	-14.689749	-2.433471	0.153235	0.231992	-1.114306	11.819556	2.154672	1.609104	22.804211	13.580098	7.962211	-0.299835	-0.670688	-0.054272
-2.31734	-2.802943	16.950206	1.875496	170.856424	47.786003	0.6508	-0.186739	-1.22054	1.620598	0.268612	9.995138	17.060685	-11.19853	1.29992	0.100886	0.199979	-1.096847	12.472615	2.851336	1.92371	26.389032	11.056253	1.817895	-0.300949	-0.750824	-0.065614
-1.10106	-2.053937	17.715817	7.372217	193.838836	60.131132	0.693504	-0.149735	-1.270647	0.997912	-0.180467	10.434577	27.166906	-12.494663	8.139066	0.126028	0.212234	-1.055352	12.935131	3.196734	1.454742	28.156142	10.823931	-1.73269	-0.327579	-0.671923	-0.038884
-0.983169	-2.110737	17.888362	11.666034	220.275518	65.085773	0.748143	-0.186175	-1.184172	2.480715	1.393559	9.95758	35.321246	-17.240511	8.807498	0.114082	0.185806	-1.110468	12.104658	3.604415	1.261345	30.180381	11.662797	0.670433	-0.341838	-0.686667	-0.069173
-0.797221	-1.705635	18.632482	2.942552	248.315557	69.306807	0.749286	-0.210188	-1.191416	2.297031	1.449786	9.444244	25.317311	-10.161312	4.09142	0.139959	0.170635	-1.110016	11.445016	3.371123	0.649183	31.135525	13.996559	-2.8283	-0.328139	-0.702655	-0.068266
-0.388604	-1.761678	19.038006	7.068404	279.827629	70.144607	0.805783	-0.228986	-1.175321	1.674992	0.662723	9.883399	18.677655	-7.755144	3.061839	0.152124	0.182815	-1.068246	11.202349	3.37018	0.28534	32.110515	17.624483	-10.183851	-0.299972	-0.687707	-0.037907
1.519722	-1.758944	20.041254	15.324443	312.000139	68.222363	0.831752	-0.199007	-1.144039	1.621399	1.113665	10.109128	12.899637	-8.092365	1.204144	0.126763	0.184809	-1.096394	9.672371	4.304391	0.620125	34.971044	23.365693	-14.163829	-0.286068	-0.668832	-0.085257
0.563834	0.313757	20.997515	27.503816	343.302564	60.358054	0.875642	-0.237915	-1.148915	1.896037	1.056274	9.49209	5.608826	-5.819739	0.573483	0.139368	0.168492	-1.081317	9.372194	4.129602	0.314347	39.559667	30.542978	-14.398043	-0.313601	-0.672545	-0.023286
-1.736795	1.81931	23.402818	45.308074	367.932422	44.734583	0.95585	-0.213305	-1.052066	1.780906	1.05649	9.489672	-1.872124	-3.888227	0.155076	0.127278	0.171632	-1.12409	8.491353	4.132616	0.537468	44.881019	39.169369	-12.472092	-0.327788	-0.688115	-0.038047
-3.083686	2.687959	24.801042	44.020148	381.660115	38.00178	0.984506	-0.262424	-1.014365	1.85153	0.549881	10.05685	-6.013839	-4.122129	-0.251347	0.114082	0.185806	-1.110468	7.498077	3.149349	0.933906	49.802038	47.234853	-9.655732	-0.32793	-0.686463	-0.069103
-4.32901	1.428052	25.453473	77.92277	379.130007	31.393416	1.055923	-0.343737	-0.956805	1.67389	0.606345	9.826712	-8.263844	-3.893945	-2.008086	0.113862	0.200054	-1.097122	6.553819	3.15151	0.916299	52.116269	53.303709	-6.942588	-0.271672	-0.637069	-0.071333
-0.642067	-0.0184	23.700518	103.421938	341.80291	9.799596	1.095255	-0.30389	-0.915212	1.902967	1.22555	9.83207	-11.197032	-3.806909	-2.256204	0.113196	0.18259	-1.067419	6.086361	3.037427	1.146628	48.875854	55.908685	-5.506899	-0.286694	-0.717409	-0.082746
7.648621	-5.386963	5.539759	133.776377	279.166158	25.957227	1.136131	-0.319127	-0.859955	1.504929	0.550481	9.992957	-15.620042	-4.203504	-1.770459	0.113787	0.184734	-1.096119	5.921803	2.401468	1.739676	42.914223	55.439949	-6.613848	-0.328209	-0.701829	-0.083793
10.042696	-6.392554	-0.839749	81.518996	144.305812	54.207247	1.120138	-0.319094	-0.806718	1.852523	0.66259	10.113584	-17.674079	-5.309118	-0.796608	0.113787	0.184734	-1.096119	6.922876	2.398678	1.63857	36.137892	50.986665	-4.367636	-0.32856	-0.716369	-0.114012
4.033289	-5.316254	7.970273	-8.896941	76.49347	101.736746	1.092683	-0.363187	-0.781696	1.516132	0.381916	10.502571	-15.27817	-6.353666	-0.527614	0.114157	0.201126	-1.111472	8.270634	2.742051	1.186108	29.608971	40.474011	1.085159	-0.314026	-0.667587	-0.116453
9.309454	-1.111836	11.614108	-19.017866	36.768149	140.163162	1.120167	-0.353693	-0.771735	2.262495	0.155098	10.404818	-6.465955	-8.084151	-0.136966	0.125802	0.166273	-1.052342	10.216911	2.330568	1.100878	23.674274	25.939323	8.205728	-0.314581	-0.716991	-0.098414
9.844305	-1.350219	9.691273	31.019186	-5.426408	135.871412	1.091969	-0.404842	-0.718561	1.916648	-0.238617	10.340593	1.470263	-8.116947	1.533813	0.08747	0.228401	-1.069879	11.913804	2.439591	0.354496	18.170951	10.256111	11.2959	-0.314302	-0.701625	-0.083723
10.746533	-1.59613	6.070639	47.62529	-44.682226	121.12047	1.106461	-0.401688	-0.732986	2.028068	0.437039	10.230301	8.753729	-8.549794	2.151934	0.114007	0.170485	-1.109465	12.062781	2.200453	-1.200771	13.773516	-3.42645	10.735253	-0.328142	-0.683984	-0.115686
10.410728	-0.859798	3.566673	49.513098	-74.990864	97.115987	1.108361	-0.435945	-0.750891	1.858352	0.775488	10.396877	13.881268	-8.43084	3.297888	0.126242	0.137776	-1.079034	10.75095	2.316609	-1.943369	11.273937	-10.051418	8.69749	-0.327516	-0.635407	-0.118197
10.06671	-1.721413	3.499519	31.087375	-93.993135	70.713861	1.065242	-0.424578	-0.739183	1.735106	1.226063	10.055001	14.809602	-8.210453	4.225676	0.113787	0.184734	-1.096119	10.094475	2.142136	-2.375564	10.922745	-12.513498	10.055381	-0.328351	-0.700176	-0.114849
9.775404	-0.91799	3.269918	19.267899	-108.106339	41.485915	1.037358	-0.403002	-0.770052	1.616456	1.169806	9.882617	13.261246	-8.392644	5.640725	0.112976	0.196839	-1.054073	9.968179	1.908124	-2.858009	9.860356	-13.142576	8.411714	-0.369587	-0.66923	-0.101206
9.04219	-0.857597	3.824214	13.969588	-122.799914	11.795338	1.051493	-0.420675	-0.75291	1.918682	1.226167	10.568384	12.579896	-8.524739	5.762177	0.113492	0.183662	-1.081769	9.616843	2.14198	-2.683902	7.695431	-12.144442	5.786234	-0.313813	-0.670066	-0.06987
8.523233	-1.949578	3.582196	12.057525	-137.335157	-14.288523	1.038116	-0.413244	-0.780712	1.561955	0.832025	9.994403	12.657606	-9.689699	5.87397	0.113492	0.183662	-1.081769	9.62302	1.852836	-2.385603	5.174254	-10.366542	4.533749	-0.314093	-0.685432	-0.08456
6.978518	-2.005659	3.608743	5.453427	-152.035851	-33.218424	1.023981	-0.39557	-0.797855	1.622154	0.719351	10.108796	12.915677	-11.336545	4.994607	0.114672	0.18795	-1.139168	9.635821	2.030031	-1.665979	2.552762	-9.070796	2.550416	-0.355675	-0.687697	-0.053715
5.664266	-2.521197	3.694667	-4.667454	-170.692576	-43.860525	0.968256	-0.404315	-0.807118	2.03161	1.113195	10.457428	9.697216	-16.767771	3.982336	0.088281	0.216297	-1.111924	10.654636	1.973121	-0.808822	0.352933	-8.810011	0.234334	-0.314093	-0.685432	-0.08456
4.891572	-2.399461	5.157742	-9.654723	-192.160028	-46.096823	0.940372	-0.382738	-0.837987	1.681598	1.000991	10.223521	3.934916	-20.321314	6.316155	0.113196	0.18259	-1.067419	10.068492	2.614543	-0.517572	-1.973202	-9.910029	-0.668876	-0.341909	-0.685841	-0.084701
3.814749	-2.223937	5.70584	-13.018687	-212.047371	-43.403912	0.914031	-0.416245	-0.855193	1.906462	0.66234	9.944875	1.94661	-21.091511	7.694182	0.099925	0.181443	-1.052794	10.073434	2.383228	-0.278934	-2.721362	-10.735402	-0.967854	-0.369658	-0.668404	-0.116734
2.553007	-2.338391	5.567154	-18.214595	-223.81003	-36.432664	0.900654	-0.408814	-0.882996	2.142552	0.774807	10.233003	-1.157096	-22.064266	9.747531	0.126172	0.182665	-1.067695	9.734318	2.096872	0.492017	-3.692718	-11.578581	-2.580122	-0.341003	-0.621897	-0.072521
1.654628	-2.161543	6.459712	-26.758293	-228.103452	-27.582391	0.926623	-0.378835	-0.851714	2.074084	0.154805	9.664876	-9.223491	-24.633014	11.750199	0.088055	0.170335	-1.108913	9.259718	2.21361	0.363894	-3.422219	-11.781608	-3.55812	-0.327442	-0.654904	-0.055249
1.155211	-1.00872	7.307313	-34.277324	-229.361015	-20.15847	0.857135	-0.366377	-0.892196	2.074754	0.436505	9.721753	-10.714932	-25.38327	11.032478	0.100736	0.169338	-1.094839	9.021722	2.097504	0.239184	-2.597483	-11.95016	-4.721654	-0.327512	-0.654078	-0.070777
0.944998	-0.832129	8.270086	-37.192975	-232.842251	-15.513915	0.816259	-0.35114	-0.947452	2.205169	0.662228	10.460676	-7.609583	-24.230706	9.628314	0.060922	0.165898	-1.050963	8.726371	2.214331	0.234176	-0.849281	-12.329811	-5.856951	-0.341487	-0.672127	-0.038954
0.844426	-0.082169	9.010086	-37.144966	-239.105899	-16.597233	0.759777	-0.349642	-0.946055	2.410935	0.437863	11.993382	-0.867531	-26.503263	4.431951	0.061808	0.169113	-1.094012	8.780041	2.619739	-0.00262	0.87645	-12.632311	-5.586704	-0.326957	-0.604674	-0.088816
1.201853	-0.826263	9.695867	-38.017356	-247.131399	-22.767337	0.730736	-0.286752	-0.987172	2.521231	0.437457	11.769241	7.547206	-33.519596	-3.708	0.099479	0.149731	-1.036437	8.703937	1.918759	-1.025105	1.706186	-13.213939	-5.250756	-0.341283	-0.637263	-0.087212
0.706358	-0.476898	10.710649	-43.219701	-253.808252	-32.982894	0.700994	-0.282817	-0.947662	2.20098	0.324055	10.233833	10.978449	-35.859594	-5.02327	0.048021	0.181143	-1.051691	8.999713	2.092559	-0.958954	2.931634	-13.846471	-5.771721	-0.327792	-0.669444	-0.085468
0.313993	-1.336542	11.097207	-50.279819	-257.490803	-44.832281	0.661262	-0.291594	-1.010162	2.204845	0.831219	10.460818	11.439733	-36.065193	-5.518187	0.060552	0.149505	-1.03561	8.755385	1.858817	-1.4436	3.816914	-13.733214	-7.54802	-0.313608	-0.635202	-0.118127
-0.180099	-1.389027	12.167153	-56.716852	-259.821458	-56.263529	0.631106	-0.239289	-1.009051	2.543524	0.548635	10.127997	13.678518	-37.382101	-6.146032	0.08754	0.183512	-1.081217	9.175641	1.627051	-1.077444	4.030338	-13.696807	-8.037942	-0.2853	-0.621907	-0.056713
-1.13507	-2.131203	13.054736	-66.522455	-258.979244	-63.983408	0.604365	-0.241726	-1.047165	2.143546	0.887515	10.289738	11.085991	-37.287715	-6.856217	0.010054	0.199454	-1.094916	8.707488	1.338493	-0.907763	4.245634	-13.167227	-8.896952	-0.327579	-0.671923	-0.038884
-2.659038	-3.159447	14.100537	-75.728179	-253.449809	-66.965779	0.577596	-0.209564	-1.120262	1.905061	1.394636	9.945491	12.406818	-37.79711	-6.120354	0.048537	0.167966	-1.079387	9.235623	1.685239	-1.01619	4.687907	-12.099222	-8.506361	-0.328068	-0.703481	-0.052738
-3.787507	-3.040117	14.931546	-85.03308	-242.377171	-65.041067	0.520757	-0.228893	-1.087297	2.316026	0.999853	10.293459	11.234928	-37.543611	-4.947322	0.035636	0.183212	-1.080115	8.877394	1.568909	-1.262914	4.893835	-10.896497	-6.434695	-0.299484	-0.656148	-0.024053
-5.664447	-3.323303	15.518978	-97.756169	-225.662981	-60.161726	0.505136	-0.225333	-1.048136	2.188807	0.999594	9.724645	10.05633	-37.783278	-3.409261	0.048392	0.197535	-1.067044	8.298797	1.805282	-0.613954	4.630099	-9.899138	-5.36885	-0.341141	-0.638916	-0.056156
-7.654742	-3.663606	16.160795	-117.130165	-205.357194	-52.014542	0.489486	-0.187173	-1.043958	2.59727	1.28073	10.016543	8.412453	-38.296418	-3.169062	0.022365	0.182065	-1.065489	8.889364	1.629704	-0.603691	4.39976	-8.533978	-4.365995	-0.299626	-0.654496	-0.055109
-8.884115	-2.334784	17.733735	-145.119081	-186.965844	-46.880326	0.448225	-0.158165	-1.10263	2.946158	0.716872	10.136601	7.722125	-39.105335	-2.746068	0.047796	0.135182	-1.04868	8.12557	1.10927	-0.500408	3.812835	-6.792034	-1.468778	-0.34135	-0.655108	-0.055319
-11.899029	-0.764737	21.659838	-146.936516	-175.942541	-43.229615	0.40472	-0.133028	-1.094339	2.836987	1.393339	10.47459	6.322048	-42.313725	-2.594122	0.021919	0.150352	-1.049132	8.417329	0.642997	-0.736511	2.571656	-5.225844	0.453696	-0.327792	-0.669444	-0.085468
-14.744888	0.562351	22.519363	-111.85553	-176.947014	-43.377536	0.403534	-0.057116	-1.13957	2.774586	1.393257	10.246823	5.244778	-44.386166	-1.999032	0.036371	0.155787	-1.121156	8.706928	1.105942	-0.968659	1.018036	-3.777115	1.797187	-0.341838	-0.686667	-0.069173
-18.23558	0.208125	19.608452	-70.2382	-181.215772	-35.100296	0.376465	-0.114979	-1.111132	3.122265	0.829352	10.310242	4.086377	-48.049613	-2.159693	0.021844	0.135032	-1.048128	8.299047	1.224275	-0.676333	-0.118097	-2.951851	1.461167	-0.327792	-0.669444	-0.085468
-21.855623	-1.183342	15.895026	-55.841116	-175.64072	-16.371522	0.377579	-0.104394	-1.15336	3.009229	0.998654	10.421245	2.823943	-52.661402	-2.915595	0.008868	0.134957	-1.047853	9.063091	1.163702	-0.841995	-1.106514	-2.517383	0.515217	-0.313325	-0.638507	-0.056016
-25.401798	-0.905186	13.099361	-61.474973	-153.848502	12.366806	0.320697	-0.071826	-1.172871	2.914433	1.112337	11.381795	2.089626	-56.993594	-3.205873	-0.01819	0.14584	-0.990906	8.818783	1.394816	-1.264756	-2.196837	-3.276215	-0.424662	-0.285509	-0.638099	-0.055875
-37.711443	-9.329043	15.438617	6.229446	-29.04687	43.052926	0.305062	-0.050966	-1.151201	2.856868	1.112445	11.380587	1.461302	-62.704966	-3.478944	-0.03035	0.19387	-1.022341	9.423115	1.454755	-0.474715	-3.194193	-4.594448	-0.475884	-0.299835	-0.670688	-0.054272
-31.151662	7.973604	6.262125	73.433896	-18.055466	74.369648	0.263472	-0.077384	-1.143322	2.863905	1.225391	11.720519	-0.999017	-69.146663	-3.544952	-0.056232	0.14883	-1.033128	9.837869	1.221753	-0.408094	-5.694424	-5.746868	0.669498	-0.299693	-0.672341	-0.023216
-29.153587	0.617224	5.701678	-27.811768	32.23848	94.359855	0.290941	-0.050591	-1.150852	3.28672	0.324059	12.577817	-4.530866	-77.230142	-3.28903	-0.030506	0.103019	-1.030668	10.265017	1.340174	0.378893	-9.468626	-4.739411	2.512155	-0.299555	-0.655322	-0.039581
-29.583403	5.634311	10.260898	-2.027537	93.822646	82.933668	0.319182	-0.05134	-1.15155	3.820824	-0.464969	13.267708	-2.076089	-88.844068	-9.876294	-0.070389	0.144467	-0.975453	9.678853	1.516741	0.608258	-15.223565	-0.771703	4.317322	-0.354978	-0.639946	-0.040699
-26.349299	15.507068	9.228811	5.895583	160.574955	27.033699	0.319168	-0.034041	-1.169042	3.770404	-0.408246	13.606384	2.880664	-102.910606	-16.701613	-0.070244	0.114899	-0.987796	9.146087	2.214869	0.601321	-22.053424	3.74347	6.062667	-0.327229	-0.657383	-0.008666
-16.841399	28.944403	10.152354	66.424436	243.682736	-86.445718	0.332917	-0.037944	-1.155315	3.690546	-0.519316	15.24642	2.962772	-121.510737	-24.962991	-0.109097	0.129994	-0.987972	9.009077	2.327088	-0.418803	-25.569926	6.314822	7.621925	-0.341976	-0.703686	-0.052808
-3.961264	0.082015	6.189442	-16.164032	251.496676	-61.903601	0.390171	-0.066984	-1.14988	3.079732	-0.85526	16.25235	5.060379	-144.296369	-32.493519	-0.082699	0.161857	-1.004881	9.538177	2.732158	-0.467075	-28.488075	7.40177	7.994085	-0.299626	-0.654496	-0.055109
-9.305143	5.027232	19.916132	20.24717	231.219976	-13.657341	0.431789	-0.075165	-1.122776	3.346329	1.004781	18.127858	6.071721	-169.37773	-34.159851	-0.134678	0.146236	-1.002774	10.363498	4.066511	-0.326169	-33.83917	4.245731	3.718963	-0.314439	-0.718644	-0.067358
-7.547459	2.354603	13.119406	63.881663	115.845276	86.044524	0.502764	-0.073509	-1.138598	2.930571	-0.907982	20.042321	4.558995	-201.580499	-41.416697	-0.149055	0.156122	-0.931753	12.190163	5.281921	-0.286863	-32.288843	-4.065589	0.48273	-0.313049	-0.60447	-0.088746
-11.05701	-9.538816	11.693911	-66.686876	38.932844	106.01267	0.458887	-0.0519	-1.11623	1.82423	-0.39705	22.170874	16.753798	-239.087357	-47.666955	-0.188799	0.107792	-0.899216	15.320301	7.134681	0.138813	-20.508249	-21.122165	-2.320859	-0.299208	-0.622111	-0.056783
1.201879	0.047947	12.654734	-39.895467	-10.087649	13.996206	0.446639	-0.051183	-1.168769	1.687968	-1.747331	23.752018	23.876083	-284.321705	-52.857316	-0.201404	0.124109	-0.914293	17.768919	5.566779	1.555114	-14.757653	-43.188908	4.334718	-0.327579	-0.671923	-0.038884
0.589694	2.510145	10.72097	63.931807	-7.678034	-66.472808	0.45963	-0.044843	-1.144382	-0.088332	-2.642657	26.714473	44.508708	-335.613034	-56.432206	-0.253823	0.136986	-0.885495	14.514241	2.725019	0.643779	-18.090262	-46.547773	8.641849	-0.285647	-0.655118	-0.039511
-1.453281	-1.358501	5.607019	-37.724838	12.568906	22.668234	0.488257	-0.059363	-1.141665	0.077435	-2.812257	26.37812	92.670698	-385.181406	-56.114604	-0.268576	0.070269	-0.809456	9.474469	2.382601	-0.769193	-26.468359	-32.151882	0.534577	-0.313463	-0.655526	-0.039651
-0.576048	-3.455909	12.32123	-24.656429	3.869873	-7.103922	0.489	-0.052307	-1.169817	0.277076	1.185878	25.31017	129.802335	-421.485544	-44.176454	-0.321146	0.052505	-0.77865	8.343413	2.78972	-1.267626	-35.694248	-22.253695	7.24479	-0.355049	-0.63912	-0.056227
-1.909561	0.205821	8.67358	23.920316	1.177259	-18.114121	0.447039	-0.082254	-1.147861	3.219321	2.64297	23.108682	147.915823	-441.060777	-38.160067	-0.374155	0.063238	-0.721151	7.989566	2.209523	-1.336608	-49.200211	-19.370961	13.668131	-0.285852	-0.689982	0.008747
-1.068157	-0.992587	10.673959	-17.155077	5.472836	3.665095	0.44591	-0.075539	-1.123125	10.077715	2.571762	20.93148	177.323177	-428.995961	-30.032813	-0.375487	0.02831	-0.661745	7.753772	2.093911	-1.341504	-57.556409	-19.831417	13.914566	-0.313884	-0.66924	-0.085397
-1.179858	-1.796203	10.78206	15.987543	3.360574	-5.205035	0.446281	-0.072011	-1.137201	11.799903	-0.08649	12.416566	168.992738	-391.009256	-17.332085	-0.45593	-0.026677	-0.542282	7.391296	2.383371	-1.766219	-58.513315	-20.580803	9.153361	-0.327579	-0.671923	-0.038884
-1.422901	-0.879868	10.09923	27.670834	3.830382	-3.912277	0.474508	-0.055461	-1.155392	3.658591	-4.133092	5.335081	140.043542	-341.552426	-14.645153	-0.430643	-0.043991	-0.51313	7.407668	2.445155	-0.867368	-55.399368	-21.943249	0.009949	-0.327229	-0.657383	-0.008666
-1.0762	-0.649627	10.277435	26.276951	5.781562	-3.079169	0.430289	-0.071978	-1.083964	-1.259498	-4.458189	9.420952	78.174808	-244.835092	-25.94239	-0.457411	-0.092246	-0.480868	7.779102	2.564453	0.098239	-49.206075	-25.49229	-6.596953	-0.285927	-0.670484	-0.054201
-1.556013	0.207744	9.191938	27.534661	5.940042	-2.988209	0.531376	-0.07073	-1.153373	-10.159928	-8.952124	4.474469	47.723885	-140.563616	-79.429694	-0.509975	-0.049801	-0.439727	8.789384	2.389413	0.475646	-41.520809	-27.286096	-7.930356	-0.313605	-0.653874	-0.070707
-1.493316	0.381233	9.478041	6.87829	3.97052	-0.384621	0.459287	-0.08297	-1.095323	-11.136619	-7.037201	2.021236	61.233742	-15.852679	-134.891134	-0.484689	-0.067115	-0.410576	10.625643	2.79349	0.930839	-34.32216	-26.451816	-6.279548	-0.299138	-0.622937	-0.041255
-1.256913	-0.593991	9.819511	2.354692	5.854681	-0.340978	0.4894	-0.083377	-1.148909	-6.370788	-4.903535	4.444392	53.339818	49.622485	-171.937752	-0.459848	-0.116142	-0.365067	11.764962	2.620652	1.909516	-27.008213	-23.456068	-3.630911	-0.327442	-0.654904	-0.055249
-0.86533	-0.19412	9.37417	3.057885	6.050703	-1.075849	0.460402	-0.072385	-1.137551	-10.847284	-2.528535	5.201683	20.965574	126.656723	-172.430356	-0.48558	-0.13054	-0.377862	13.074841	1.922994	2.469921	-19.31412	-15.693598	-0.425654	-0.327442	-0.654904	-0.055249
-1.373483	-0.824157	9.702613	-6.115524	4.533168	-1.104776	0.474523	-0.07276	-1.1379	-9.874065	-3.260564	7.599272	14.661311	164.218034	-156.868483	-0.459854	-0.176352	-0.375402	11.721311	1.694537	2.623342	-13.032106	-4.000796	3.80521	-0.271948	-0.671106	-0.038603
-1.484858	-0.536142	9.872152	-4.309704	5.206089	-2.785793	0.502392	-0.077037	-1.124522	-10.011386	-3.03588	6.577531	22.995223	177.619422	-138.360303	-0.459264	-0.174208	-0.404102	9.529065	2.104335	2.165008	-6.272271	6.265031	7.246617	-0.285785	-0.672137	-0.023146
-1.43445	-0.307865	9.533112	-6.361902	5.130172	-2.351762	0.489029	-0.086906	-1.134833	-10.278344	-2.81155	4.873697	32.102404	189.989716	-105.960736	-0.484851	-0.218175	-0.429239	9.291495	2.278856	2.101441	-0.533089	12.494196	10.283168	-0.341629	-0.670474	-0.07001
-1.427355	-0.880833	9.871817	-9.389569	5.15939	-0.747826	0.474923	-0.10383	-1.116992	-9.133404	-2.644951	4.61482	25.271776	197.956257	-68.067447	-0.393799	-0.231899	-0.444515	8.223027	2.57043	1.783335	3.474666	15.214482	11.875646	-0.328072	-0.68481	-0.100158
-1.026574	-0.881123	9.879612	-5.697271	6.199171	1.221191	0.4879	-0.080191	-1.110097	-8.648971	-3.379593	2.982535	6.712137	206.456695	-31.593409	-0.366151	-0.240638	-0.530161	8.627067	2.683659	1.312277	7.062705	16.385757	12.254416	-0.299417	-0.638303	-0.055946
-1.545453	-0.536825	9.700479	-1.151257	6.848665	2.721372	0.531005	-0.074258	-1.139297	-7.647714	-3.211533	4.079381	-22.796731	218.858636	5.098302	-0.392398	-0.24186	-0.51526	8.624015	2.10191	1.070178	9.950232	16.510027	10.103772	-0.285647	-0.655118	-0.039511
-1.719195	-0.881832	9.581985	1.394123	6.918527	3.021855	0.474122	-0.04169	-1.158807	-5.999486	-2.649775	5.869532	-40.613573	227.506575	39.020819	-0.327073	-0.209772	-0.532996	8.139531	2.681278	0.464777	11.899799	15.351449	7.443084	-0.328001	-0.685637	-0.08463
-1.545536	-0.421942	9.700962	2.829235	6.283376	2.700727	0.489015	-0.069606	-1.152325	-4.470624	-3.665341	7.3161	-49.516714	232.16659	67.856578	-0.3531	-0.225242	-0.531441	8.91512	2.390873	0.897195	13.355332	13.975069	4.968665	-0.326883	-0.624172	-0.025868
-1.145951	-0.30759	9.652386	-2.450119	5.311314	2.240113	0.488643	-0.073134	-1.138249	-2.859462	-3.950059	7.293073	-54.271888	236.860691	90.099233	-0.312546	-0.189017	-0.606024	8.727607	2.156502	0.293836	14.774786	11.677056	2.865586	-0.327095	-0.621693	-0.072451
-1.891372	-0.307292	9.581057	-4.938026	4.93964	1.474544	0.516113	-0.046342	-1.145779	-1.235758	-3.839942	7.893414	-60.825833	240.326157	104.713003	-0.286443	-0.158226	-0.608582	8.957089	2.619334	0.000681	16.446961	9.803195	1.248614	-0.313608	-0.635202	-0.118127
-1.203164	-0.36499	9.651031	-7.116657	5.124646	0.533122	0.516513	-0.077412	-1.124871	-0.128933	-3.728807	8.539513	-71.58463	242.841754	111.235535	-0.285413	-0.184579	-0.663974	9.021763	3.027214	0.362954	18.708268	9.260432	-1.691016	-0.299626	-0.654496	-0.055109
-1.086263	-0.594357	9.765999	-3.461898	6.1841	0.754495	0.516884	-0.073884	-1.138947	1.159612	-3.279633	9.642641	-80.531714	244.09269	113.306742	-0.245594	-0.120929	-0.697515	8.613031	2.564293	0.532993	20.725987	9.021433	-4.508897	-0.341283	-0.637263	-0.087212
-1.714741	-0.880867	9.809397	1.359344	7.39986	1.220393	0.515741	-0.04987	-1.131703	2.156164	-2.548409	10.570043	-85.68258	244.709207	112.044503	-0.232473	-0.150423	-0.710134	8.614287	2.97132	0.654538	21.679682	9.619028	-5.768229	-0.312699	-0.58993	-0.058527
-1.704636	-0.993579	10.320592	7.463673	8.445236	0.97447	0.503521	-0.083752	-1.149258	2.462902	-2.322867	11.482511	-88.389434	245.398716	109.027372	-0.218681	-0.102243	-0.74212	8.443395	2.217725	0.88765	21.660804	10.558736	-4.947482	-0.313605	-0.653874	-0.070707
-1.309464	-0.937634	10.044362	12.394246	8.384424	0.22326	0.502749	-0.05621	-1.15609	2.755588	-1.703533	11.772275	-90.145462	247.681253	103.005108	-0.218166	-0.115419	-0.769815	8.496639	2.332506	0.58971	20.745515	10.53681	-3.140912	-0.299279	-0.621285	-0.072311
-2.172077	-0.305879	9.859755	14.593939	7.944888	-0.771591	0.51727	-0.087655	-1.135532	3.875494	-1.479216	13.041505	-90.923786	251.393198	95.641243	-0.165446	-0.067014	-0.802629	8.504883	2.101933	1.00807	18.255484	10.792747	-2.124562	-0.327095	-0.621693	-0.072451
-1.607493	-0.078216	9.473884	13.055965	7.390835	-1.328195	0.488629	-0.055835	-1.155741	4.068849	-1.535064	14.007958	-88.831772	254.978519	89.78938	-0.152099	-0.050547	-0.818258	8.618803	2.449377	0.832033	16.072135	10.152554	-0.127031	-0.326816	-0.606327	-0.05776
-1.432224	-0.307383	9.646818	12.131471	6.681468	-1.490403	0.530247	-0.064015	-1.128636	4.481585	-1.591769	14.469489	-82.086594	257.695493	85.289346	-0.086554	-0.032707	-0.84934	8.73475	1.925681	0.652289	13.266985	9.457791	1.017273	-0.327166	-0.620867	-0.087979
-1.37472	-0.652073	9.646484	12.004185	6.538017	-2.443086	0.487886	-0.062892	-1.127589	4.152686	-1.365136	15.25538	-74.434963	258.888283	81.545728	-0.059861	0.000227	-0.880598	9.312786	1.456756	-0.057568	10.455657	8.743789	1.061425	-0.327024	-0.622519	-0.056923
-1.426283	-0.82315	9.928912	11.510685	6.231894	-2.753324	0.473022	-0.069574	-1.099088	5.295054	-2.381668	14.768948	-73.300995	257.824252	77.897747	-0.007512	0.03224	-0.898058	8.959925	1.399737	-0.004511	7.507723	6.812648	0.439493	-0.35512	-0.638294	-0.071754
-1.834077	-0.364775	9.581929	11.782036	6.089608	-3.645805	0.487514	-0.06642	-1.113513	5.755254	-2.213539	14.778762	-79.732257	254.677575	73.760473	0.00532	0.061884	-0.885991	9.078362	1.225239	-0.003051	4.768771	4.584915	-1.006971	-0.340656	-0.588686	-0.089723
-1.765812	-0.19008	10.152298	12.237738	5.602489	-3.869714	0.474894	-0.069232	-1.151976	6.363201	-2.664028	16.263101	-85.924459	248.444263	69.222695	0.00591	0.064028	-0.914691	8.83583	1.16622	-0.367142	2.486803	2.338371	-3.432973	-0.31312	-0.603644	-0.104274
-1.662313	-0.3649	9.58527	10.824525	5.793853	-5.058617	0.516899	-0.091183	-1.121456	6.790874	-2.945486	17.404118	-88.018062	238.725035	62.526132	0.032082	0.04993	-0.928588	9.251414	1.049617	-0.240119	0.329967	0.275209	-5.799132	-0.341212	-0.638089	-0.071684
-1.713917	-0.478535	9.867939	12.814094	5.559738	-5.282832	0.502406	-0.094337	-1.10703	7.77048	-2.83461	17.481404	-89.862054	226.515565	53.061067	0.072121	0.099332	-0.975475	8.591792	1.281181	-0.790397	-1.326393	-1.458185	-7.343487	-0.313817	-0.651395	-0.11729
-1.316725	-0.1349	9.706622	14.619898	5.230485	-5.324051	0.532905	-0.108515	-1.157201	8.68298	-2.160653	17.161478	-95.909716	214.049239	41.80207	0.136486	0.112883	-0.949158	9.197049	0.469734	-0.063971	-3.290794	-2.603284	-9.684089	-0.313191	-0.602818	-0.119801
-1.831974	-0.191968	9.69636	17.52802	5.284544	-6.190276	0.529904	-0.102142	-1.079577	10.697769	-2.164425	17.20379	-99.763828	201.3488	28.292185	0.136486	0.112883	-0.949158	8.374145	0.937221	0.162228	-2.979263	-3.5397	-7.755422	-0.312699	-0.58993	-0.058527
-1.252832	-0.076052	10.049096	18.606602	6.211139	-6.147652	0.518427	-0.128968	-1.125284	12.423007	-1.26637	17.240816	-100.512614	187.143885	11.841448	0.162738	0.174315	-0.953724	8.899248	1.167074	-0.126414	-2.508225	-3.243812	-6.627778	-0.327095	-0.621693	-0.072451
-1.596027	-0.535336	10.040484	20.351004	6.351259	-6.947794	0.475309	-0.117601	-1.113576	14.949086	-0.877036	17.011142	-99.028854	173.26115	-7.594021	0.227543	0.15937	-0.954099	9.503425	0.820234	0.60199	-1.574299	-2.51234	-6.053986	-0.313467	-0.636855	-0.087072
-1.133786	-0.190053	10.278252	16.681869	7.562286	-6.82554	0.518427	-0.128968	-1.125284	18.41531	-0.603713	14.989458	-104.474058	158.400631	-31.667971	0.227769	0.205331	-0.95711	8.739671	1.229511	0.829042	-1.648256	-1.740684	-3.795837	-0.327166	-0.620867	-0.087979
-1.11395	0.101497	11.302814	7.685724	15.717318	-8.691271	0.502435	-0.128935	-1.072047	21.025216	0.739503	10.686165	-124.175353	144.711705	-61.319785	0.25394	0.191233	-0.971008	8.853842	0.995948	0.590627	-1.621089	-0.30203	-0.929945	-0.327166	-0.620867	-0.087979
-1.491498	-0.595032	9.530792	4.889796	20.51849	-10.414694	0.531805	-0.136399	-1.097481	22.205733	3.552864	9.637771	-160.310831	137.210564	-85.342572	0.24082	0.220727	-0.95839	9.558734	0.993585	0.424111	-0.332306	0.649227	2.178277	-0.354915	-0.60343	-0.120012
-1.935431	-0.07459	10.263146	-2.443609	25.615763	-13.009696	0.489043	-0.104205	-1.117341	23.986601	5.072784	12.33738	-174.576579	126.461006	-109.070723	0.25335	0.189089	-0.942308	10.039512	0.587704	0.850533	-1.159385	0.88433	2.821983	-0.326961	-0.586003	-0.136236
-1.418245	0.385052	10.388804	-10.715393	27.789105	-15.618895	0.502406	-0.094337	-1.10703	25.41918	30.847936	52.13335	-194.551458	97.604941	-153.908712	0.280564	0.269057	-0.990927	9.9098	0.875882	0.250499	-1.077763	1.281284	5.876187	-0.327237	-0.62004	-0.103507
-1.477561	0.154845	10.273019	-28.602747	36.873655	-19.130936	0.518413	-0.111668	-1.142776	24.100001	11.663666	12.855103	-43.22516	53.925861	-145.438068	0.292504	0.235275	-0.946146	10.310538	0.988369	-0.400279	-1.664441	2.029322	10.245515	-0.341633	-0.651803	-0.117431
-1.518937	-0.243827	11.06616	-28.300054	45.377438	-18.226781	0.545911	-0.119474	-1.115322	28.12303	10.414134	9.824714	45.967306	11.425368	-172.292621	0.319046	0.237569	-0.975397	10.242158	0.753975	-0.941531	-2.815722	2.793651	12.844121	-0.327095	-0.621693	-0.072451
-1.253257	-0.121148	12.947248	-38.033367	55.032079	-14.545324	0.531405	-0.105329	-1.118389	22.713259	9.072285	9.653299	54.406313	-29.792582	-178.458352	0.305485	0.29556	-0.936087	10.306116	0.522525	-0.701792	-3.737009	2.938546	13.305258	-0.312982	-0.586625	-0.120638
-1.740336	-0.631718	14.356382	-28.030799	69.466665	-4.341137	0.545897	-0.102175	-1.132814	18.636909	15.05421	13.309498	80.95805	-73.214517	-170.424526	0.240895	0.236047	-0.959393	9.998215	-0.118851	-1.488803	-2.168299	2.019884	13.945851	-0.327516	-0.635407	-0.118197
-2.389763	-1.21002	13.318365	-24.268163	87.30494	3.850373	0.545154	-0.109231	-1.104662	10.236495	19.858562	13.760063	121.829683	-91.164012	-146.716597	0.228069	0.266613	-0.961125	9.66294	-0.636769	-0.539121	4.565005	-0.620593	14.270295	-0.354147	-0.556505	-0.091468
-1.741242	-0.919167	14.298323	-31.835603	102.203302	11.872982	0.571866	-0.072196	-1.101532	10.902258	13.302528	-9.556775	125.278264	-160.011028	-42.725387	0.214133	0.248002	-0.916796	10.549728	0.116936	-0.339679	9.970946	-4.228461	10.080414	-0.327237	-0.62004	-0.103507
-2.59849	-1.550161	14.335819	-22.3811	122.664132	21.193901	0.586372	-0.086341	-1.098466	-19.048193	25.542796	9.017197	59.099632	-186.353392	-5.894257	0.214717	0.189936	-0.955831	10.978599	1.862721	0.753765	12.033551	-6.270592	1.219056	-0.327308	-0.619214	-0.119034
-2.072106	-1.49068	14.914613	-15.283017	143.694455	30.653014	0.572995	-0.07891	-1.126268	-9.957646	3.386023	6.980623	-2.247789	-168.994015	83.791404	0.162958	0.160067	-0.96707	12.092594	4.531406	0.726139	14.38242	-3.350675	3.611127	-0.354844	-0.604256	-0.104484
-2.619035	-3.035879	16.14773	-23.338482	168.131996	39.382784	0.615342	-0.062735	-1.144808	10.824186	7.586445	24.008746	1.037172	-214.736985	53.154823	0.163259	0.221348	-0.971085	14.74562	5.68685	0.780604	16.177562	3.797544	16.95815	-0.326957	-0.604674	-0.088816
-2.631667	-3.141071	18.420258	-20.75003	195.695684	52.823115	0.672225	-0.095303	-1.125297	10.394703	2.788241	11.540376	30.125994	-134.600996	-72.788413	0.136196	0.172021	-0.924473	16.031	4.63505	-0.038333	12.632975	13.045033	20.717218	-0.341007	-0.603226	-0.119942
-2.552303	-4.457684	19.49603	-8.635027	229.957163	69.593388	0.656604	-0.091743	-1.086136	7.846471	0.707996	10.579196	32.408911	-86.560877	-76.470444	0.111055	0.159767	-0.965967	16.307467	3.642385	-1.175265	7.47843	28.234378	20.327149	-0.285304	-0.603236	-0.104133
-2.258977	-4.973417	19.840544	-8.032184	265.718566	87.063249	0.698965	-0.092866	-1.087183	1.144703	-2.827173	11.680837	25.40244	-11.648047	20.66263	0.097928	0.129051	-0.963684	14.144853	2.199436	-0.263652	6.812346	34.143318	19.659439	-0.368689	-0.567944	-0.183868
-1.036265	-3.878315	20.948721	-4.449911	303.81477	102.445985	0.699351	-0.106637	-1.083767	-0.736042	0.949187	10.1727	34.129947	-8.632988	64.386758	0.084732	0.143224	-0.950063	11.705885	1.226221	1.722761	11.322626	32.708145	12.069396	-0.341216	-0.619418	-0.119105
0.224571	-4.05131	21.029347	4.395768	342.166518	107.764134	0.797852	-0.147386	-1.037152	3.139877	2.123377	8.556714	8.325021	-27.276453	32.763732	0.110759	0.158695	-0.951618	10.605081	1.407711	2.840825	15.671543	30.879193	-1.874867	-0.326823	-0.568984	-0.152601
0.985161	-1.922652	21.9624	10.944955	378.828288	100.985914	0.811258	-0.189416	-0.974366	3.7236	0.432573	8.793938	-6.392053	-22.872961	-12.830816	0.097708	0.143299	-0.950338	10.559176	2.3986	3.682624	24.155942	31.4221	-13.001844	-0.313124	-0.584973	-0.151694
-0.162451	0.030948	21.891482	22.852561	419.583867	86.687826	0.852091	-0.152755	-0.971585	1.923963	-1.534029	10.566061	-4.195633	-1.327689	7.361667	0.084512	0.157473	-0.936716	10.369948	3.848928	3.206249	36.091313	35.499202	-18.565134	-0.368685	-0.586615	-0.136447
-0.173198	3.488097	24.406383	8.826388	439.843653	72.099034	0.895638	-0.229791	-0.927402	2.079997	-0.408311	9.890961	12.313752	-2.675878	6.43669	0.110539	0.172943	-0.938272	9.713223	4.255462	2.836433	46.974445	42.879437	-18.456395	-0.340593	-0.55217	-0.169037
-5.648536	3.866241	31.234786	22.050683	458.52163	61.880741	0.949491	-0.221388	-0.865251	1.908856	0.042751	10.000993	21.58091	-6.014609	-4.286423	0.072347	0.145293	-0.978486	7.918299	5.299937	1.609732	53.428256	50.71973	-16.989235	-0.300543	-0.662426	-0.20955
-10.143088	1.347877	32.500677	73.294702	426.644891	47.449042	1.004873	-0.250771	-0.806928	1.565666	0.156154	10.107113	19.602822	-5.586679	1.481077	0.071091	0.125685	-0.920084	6.084356	4.373423	1.212221	54.154569	58.588892	-8.411548	-0.312565	-0.55424	-0.122313
0.593509	-1.952941	28.262831	136.649791	402.540591	20.627891	1.059855	-0.249083	-0.769513	1.567329	0.550562	10.220724	19.530672	-8.407687	6.04639	0.071235	0.096116	-0.932426	5.713442	3.556966	0.18374	48.453538	61.887001	-6.786906	-0.35436	-0.554026	-0.138051
5.441188	-5.572287	15.555025	224.285347	307.069169	30.811134	1.072504	-0.28087	-0.696066	1.163486	0.382278	10.15548	24.700464	-12.157211	8.017122	0.071096	0.185895	-0.909749	5.70902	3.091121	-0.117772	39.002851	63.029123	-11.006073	-0.341216	-0.619418	-0.119105
9.478662	-10.469283	-0.583751	146.027548	198.721969	54.538296	1.086281	-0.319372	-0.647356	1.729469	0.380821	9.714452	24.962095	-13.012092	12.663971	0.084732	0.143224	-0.950063	6.942317	3.319354	-0.393208	33.169594	59.818442	-7.302359	-0.35499	-0.583932	-0.18296
8.528473	-11.305212	-8.221032	67.391651	64.256167	141.648025	1.129429	-0.365337	-0.62408	1.781229	0.887498	9.48953	18.848626	-12.930735	11.796653	0.097338	0.126907	-0.934985	8.545522	3.376009	0.175913	26.303333	51.823013	6.055435	-0.355057	-0.601777	-0.151068
7.858641	-5.021649	10.4328	-72.982922	-28.095705	186.692569	1.085924	-0.3402	-0.615788	2.130225	0.26731	9.609541	14.35466	-14.037311	12.861044	0.083546	0.078727	-0.902999	11.256363	2.206794	-0.137853	18.844613	36.530553	11.871084	-0.327662	-0.615083	-0.196674
9.858449	-0.88755	10.432293	14.947228	-83.515891	194.607661	1.087067	-0.364213	-0.623032	1.834067	0.83087	9.264133	11.951248	-13.434136	14.437383	0.071311	0.111436	-0.93343	14.129291	1.789195	-1.163986	8.034304	13.623397	13.486722	-0.34129	-0.599921	-0.182053
10.165556	0.19587	8.62426	6.998716	-117.102551	175.919612	1.072961	-0.381138	-0.605191	2.092325	0.099185	10.514423	9.056967	-13.134519	9.875364	0.123955	0.144521	-0.96524	13.004663	1.326164	-1.4265	-5.36518	-8.079663	13.424878	-0.355131	-0.58228	-0.214016
11.068359	0.696941	5.063617	69.278568	-141.365465	149.886589	1.032128	-0.417799	-0.607972	1.912291	0.775238	10.228167	16.580453	-14.02969	11.321468	0.085323	0.145368	-0.978762	10.646933	1.97139	-1.22817	-11.853469	-19.263711	10.231227	-0.383297	-0.597228	-0.244375
9.884055	-0.517188	2.989568	74.011228	-163.110089	111.307108	1.07489	-0.449993	-0.588112	2.137394	0.943609	10.006587	15.476974	-13.655261	8.179777	0.05878	0.143074	-0.949511	8.695424	2.265484	-1.442969	-15.640872	-25.005433	8.163359	-0.326756	-0.551139	-0.184494
9.060928	-1.497939	1.832815	61.517274	-174.682946	77.163699	1.061513	-0.442562	-0.615915	1.730355	0.54986	9.771234	14.392906	-11.690565	5.732157	0.084217	0.156401	-0.922367	8.388799	2.495991	-2.046552	-18.753999	-26.946205	5.494219	-0.354993	-0.565261	-0.230381
8.933016	-1.44331	1.148593	35.552538	-184.88153	43.748906	0.964555	-0.456897	-0.648867	1.917449	0.606436	10.454584	15.970317	-11.603402	4.840269	0.058039	0.110289	-0.918804	8.983362	2.49563	-1.79592	-21.283728	-25.710479	3.419134	-0.369457	-0.614869	-0.212412
8.21308	-1.265139	2.385609	16.770438	-194.058523	12.653926	1.006145	-0.430479	-0.656746	2.322263	0.267746	10.519401	18.807505	-12.022313	4.067678	0.04588	0.158319	-0.950239	9.039502	2.78538	-1.913397	-22.711645	-21.440719	1.111668	-0.354923	-0.566087	-0.214853
6.81067	-1.25783	3.835952	10.535127	-203.312348	-14.711691	0.978304	-0.4608	-0.63514	1.395172	0.269233	10.21686	19.69245	-12.926937	3.442829	0.04632	0.129822	-0.976931	9.704471	2.148273	-1.125222	-22.434665	-16.250941	-0.839569	-0.327595	-0.597238	-0.228566
5.837511	-1.486891	3.816058	7.058483	-216.502929	-35.650558	0.938186	-0.455806	-0.701056	1.849004	0.606117	9.943618	18.530685	-11.962293	3.72894	0.057594	0.078577	-0.902447	9.893084	2.382892	-0.461956	-22.145117	-13.354617	-2.810437	-0.396926	-0.582066	-0.229754
4.868847	-1.77243	4.023334	0.557465	-232.838559	-49.149071	0.937043	-0.431792	-0.693812	1.903159	0.493206	9.774813	14.980868	-11.706538	4.622649	0.045359	0.111286	-0.932878	10.91217	2.209829	0.394707	-20.758282	-12.137818	-4.654985	-0.341015	-0.565883	-0.214783
4.136953	-1.999003	4.633278	-8.808994	-246.597804	-55.082269	0.966784	-0.435727	-0.733323	2.187359	0.492525	9.610939	9.713864	-10.48938	5.216253	0.045949	0.11343	-0.961578	10.453266	2.678732	1.16667	-17.784785	-13.119102	-6.341956	-0.327382	-0.599717	-0.181983
2.503873	-1.24503	6.025451	-17.355573	-254.965114	-55.991189	0.882418	-0.412652	-0.762795	2.128801	0.379924	9.552996	6.036323	-10.743046	4.039293	0.097708	0.143299	-0.950338	10.517379	2.854061	1.468047	-13.299933	-14.810106	-6.90023	-0.355198	-0.600125	-0.182123
1.316005	-1.241023	6.741158	-21.893492	-256.517379	-53.917228	0.88279	-0.409124	-0.776871	2.330702	-0.351605	10.858717	12.923755	-13.373746	2.35395	0.07072	0.109293	-0.90473	10.092857	3.026762	0.862017	-9.297469	-15.405849	-7.064688	-0.396922	-0.600737	-0.182334
0.582791	-1.18063	7.295454	-25.427483	-255.531545	-50.056357	0.854891	-0.370248	-0.825232	1.92809	0.099841	10.907274	20.381667	-19.678846	0.940821	0.071386	0.126757	-0.934433	9.316843	3.026539	0.368456	-6.005456	-15.815263	-7.747	-0.327662	-0.615083	-0.196674
0.715199	-1.291736	8.206848	-29.037427	-256.634423	-46.536043	0.797652	-0.358507	-0.813175	1.803073	0.212338	10.451834	22.792501	-24.200985	3.117432	0.05922	0.114577	-0.976203	8.732319	2.97105	0.656739	-4.352674	-16.903769	-8.38957	-0.341432	-0.598268	-0.213109
0.100284	-0.311397	8.994645	-29.881166	-259.78766	-45.572501	0.827022	-0.36597	-0.83861	2.138903	0.154981	10.005923	21.478816	-25.333025	4.862336	0.071681	0.127829	-0.948783	8.183411	2.56153	-0.373313	-2.443076	-18.134843	-6.984804	-0.356037	-0.646224	-0.226195
0.286523	-0.308385	9.737076	-29.890881	-263.71257	-49.470796	0.770925	-0.378243	-0.833797	1.619628	0.775587	9.995564	20.252204	-24.470966	6.657969	0.097187	0.096266	-0.932978	7.996594	2.501634	-0.916024	-1.43547	-19.10584	-7.381113	-0.34157	-0.615287	-0.196744
-0.043269	-0.822215	10.41046	-29.492379	-268.232871	-57.674964	0.800267	-0.351108	-0.894215	2.185265	0.323438	9.497518	18.847461	-25.59573	7.108084	0.032308	0.095891	-0.931599	7.995203	2.152683	-1.037321	-0.75972	-18.725968	-8.393885	-0.369386	-0.615695	-0.196884
0.705534	-0.87923	10.652107	-30.884717	-273.006082	-68.731754	0.715901	-0.328033	-0.923688	2.251831	0.04201	9.894967	13.028468	-26.529994	7.37157	0.032012	0.094819	-0.917249	7.942094	1.979826	-0.739629	-0.786207	-17.834038	-8.887018	-0.3278	-0.632102	-0.180309
-0.091734	-2.199082	10.801527	-35.208609	-276.948396	-78.29458	0.714772	-0.321318	-0.898951	2.474886	1.280661	9.674287	9.105639	-26.376366	9.096343	0.032458	0.126532	-0.933606	8.223855	2.499116	-1.390877	-1.170503	-15.569565	-9.140919	-0.34129	-0.599921	-0.182053
-0.354742	-3.572646	11.92723	-43.796972	-278.35814	-85.012313	0.716258	-0.307205	-0.955255	2.494767	0.999767	10.580284	6.473693	-24.476284	8.866487	0.006356	0.095741	-0.931048	8.648492	1.803483	-0.846979	-1.024839	-13.655709	-7.836466	-0.369106	-0.600329	-0.182193
-1.538855	-4.142331	12.811083	-50.712813	-275.293394	-86.752961	0.6178	-0.318354	-0.949395	1.929561	1.226593	11.078141	7.561052	-24.516929	3.102035	0.019627	0.096888	-0.945673	8.236055	1.514048	-0.855918	-1.684569	-11.706561	-7.262719	-0.341499	-0.616113	-0.181216
-2.659855	-5.112942	13.978626	-59.538856	-263.2659	-81.929676	0.589516	-0.265707	-1.001172	2.317774	0.718248	10.349862	10.55306	-30.065153	-0.865894	0.032823	0.082714	-0.959295	8.30648	1.342158	-0.25649	-2.667248	-10.631039	-8.089441	-0.369382	-0.634366	-0.149464
-4.132965	-4.993604	14.746101	-70.390412	-246.127136	-70.206382	0.576139	-0.258276	-1.028975	2.594721	0.717282	9.84615	12.773762	-28.004827	-2.107572	0.018961	0.079423	-0.91597	8.603087	1.632357	-0.129938	-4.141258	-9.902575	-8.057018	-0.355478	-0.615491	-0.196814
-4.262664	-4.639663	16.904626	-80.962041	-234.928202	-55.574695	0.561604	-0.209532	-1.067025	2.659948	-0.127546	10.129845	15.193999	-27.403467	-4.966639	0.018666	0.078352	-0.90162	8.549958	0.994645	0.105869	-5.143762	-9.43795	-6.008007	-0.383711	-0.648284	-0.19528
-4.707586	-4.291787	17.579403	-84.148283	-235.003734	-39.400152	0.520028	-0.253249	-1.041654	3.049739	0.43453	9.572386	18.743964	-27.744412	-6.909319	0.00569	0.078277	-0.901344	8.26231	1.113203	0.52021	-6.543092	-9.385961	-2.641388	-0.383569	-0.649937	-0.164225
-6.05485	-2.906164	18.979798	-98.989559	-240.082597	-23.581615	0.506279	-0.249346	-1.05538	2.656583	0.999017	10.074154	19.270523	-27.7305	-8.018551	-0.00662	0.095666	-0.930772	8.552314	1.401919	0.287321	-6.968837	-9.491884	-1.416845	-0.341499	-0.616113	-0.181216
-9.250792	-1.7526	19.4908	-113.287391	-240.965791	-8.55676	0.420755	-0.184958	-1.0951	3.12041	1.167288	10.253886	22.655681	-28.928949	-10.463117	0.032012	0.094819	-0.917249	7.775875	1.111069	-0.267383	-7.568915	-9.121993	1.059153	-0.313612	-0.616531	-0.165548
-11.410013	0.148406	20.3661	-118.090643	-236.030945	1.933818	0.407364	-0.160228	-1.140395	2.209465	0.94407	10.687471	24.955017	-30.336827	-11.122639	0.006205	0.0651	-0.92904	7.893347	0.878247	-0.326078	-8.721028	-8.231897	3.32077	-0.313821	-0.632724	-0.164711
-14.596265	1.763673	21.39071	-119.052843	-217.806091	8.580562	0.378737	-0.145708	-1.143112	2.726907	1.281083	10.698636	25.724237	-32.937875	-10.500502	0.019332	0.095816	-0.931323	7.768017	0.702559	-0.748369	-9.383708	-6.680648	3.927041	-0.369244	-0.617348	-0.165829
-17.08638	3.770119	19.986801	-118.624989	-190.421392	10.863971	0.277992	-0.108829	-1.122763	2.487298	1.112143	10.240541	27.735949	-34.914685	-9.131299	-0.033313	0.062731	-0.899514	8.352811	0.641896	-1.037146	-9.984764	-4.601277	3.766475	-0.327382	-0.599717	-0.181983
-20.50052	4.454143	18.104702	-124.655389	-153.957347	9.694859	0.308477	-0.105708	-1.190426	2.319461	1.732339	10.520634	24.100492	-38.954935	-8.033769	0.019482	0.126457	-0.933331	9.047934	0.579233	-1.743071	-10.829673	-2.807524	4.525071	-0.369311	-0.635193	-0.133936
-22.822953	5.942526	16.47455	-127.22143	-113.872277	10.138656	0.277592	-0.077759	-1.143671	2.842924	1.449906	10.757835	18.895007	-42.442361	-5.421446	-0.006916	0.094594	-0.916422	9.239289	0.582042	-0.96098	-12.94508	-1.596027	4.954847	-0.327591	-0.615909	-0.181146
-25.73777	4.969098	16.641072	-117.952222	-81.064548	5.891657	0.248208	-0.052996	-1.135728	1.939602	2.297347	11.645438	18.6947	-48.285742	-3.352575	-0.020488	0.032165	-0.897782	9.421569	0.699025	-0.65765	-16.771485	-1.541348	4.265474	-0.328079	-0.647468	-0.194999
-29.436028	2.666369	14.740858	-61.464706	-57.929571	8.711685	0.220353	-0.066018	-1.131614	2.5829	1.451536	12.054502	13.895802	-56.445436	-3.129269	-0.007436	0.047561	-0.899061	10.028237	0.701383	0.251958	-18.940408	-1.932269	2.869263	-0.327591	-0.615909	-0.181146
-39.458881	21.009179	44.345524	-103.92564	-3.582912	24.068069	0.19284	-0.040913	-1.176559	2.989592	1.394593	12.232836	15.488779	-64.768165	-3.149058	-0.032867	0.094444	-0.915871	10.09127	1.341321	0.555313	-18.983581	-1.939958	0.638334	-0.355407	-0.616317	-0.181286
-35.684696	7.495011	14.412345	94.560714	53.583538	-3.326857	0.206961	-0.041287	-1.176909	3.807035	1.055528	12.759232	12.892062	-74.791424	-4.638026	-0.046144	0.033087	-0.91158	10.684909	2.212347	0.86956	-17.43745	-0.670168	-0.351339	-0.313963	-0.631071	-0.195766
-37.99523	5.833858	1.573557	1.269001	147.037542	2.693378	0.236359	-0.083349	-1.167359	3.527885	0.943738	13.14957	13.263483	-87.217407	-8.337237	-0.033979	0.045267	-0.86981	10.459848	2.21536	1.464227	-18.288344	3.373926	1.680167	-0.355757	-0.630857	-0.211505
-24.184885	21.567917	3.101942	8.097776	263.563252	-76.319694	0.236017	-0.121476	-1.1183	3.615433	0.437794	14.509702	10.429217	-101.613539	-12.705943	-0.072316	0.047185	-0.897683	9.747678	2.506618	1.272537	-24.21172	8.303678	5.070666	-0.313892	-0.631897	-0.180238
-0.042321	-0.592208	10.468279	-112.752842	265.946833	-10.961394	0.319168	-0.034041	-1.169042	3.104297	1.227723	14.895963	7.690141	-120.558637	-15.886638	-0.058895	0.078973	-0.914315	9.849535	3.781054	0.561294	-29.212479	7.397316	5.215361	-0.328217	-0.664487	-0.178635
8.079562	3.389099	16.212421	-19.538759	292.279436	-4.513938	0.305448	-0.064737	-1.147785	2.588978	1.287502	17.715902	2.755209	-144.567493	-18.934404	-0.060446	0.058293	-0.841563	10.792963	3.662494	0.5185	-34.554267	1.025575	7.251806	-0.341775	-0.650151	-0.148486
-13.861047	6.644459	21.141431	-111.761336	296.72139	42.586911	0.347409	-0.03479	-1.16974	3.603462	-0.402965	19.2643	0.639681	-175.318594	-23.310713	-0.138157	0.028274	-0.852251	12.540318	3.188396	-0.768416	-37.306792	-10.834439	11.505813	-0.32815	-0.646642	-0.210527
-10.529309	2.585559	12.835058	-106.992928	250.461439	127.555385	0.403906	-0.053588	-1.153645	3.837609	-2.823272	21.927949	7.392422	-214.033696	-37.592399	-0.138817	0.07102	-0.812213	13.002563	3.649946	-1.23689	-36.817161	-23.0366	11.59285	-0.341637	-0.633132	-0.164851
0.732446	-11.029694	14.531145	84.056645	126.636742	196.319653	0.459588	0.007055	-1.196858	2.706036	-1.1303	22.981346	22.195181	-255.605987	-46.778517	-0.152979	0.006447	-0.764873	13.353305	5.565892	-1.162222	-34.491123	-32.163774	4.842589	-0.328079	-0.647468	-0.194999
-9.034647	-15.416331	21.199154	-71.532497	11.82683	-66.532611	0.473722	-0.010619	-1.179715	1.527098	-2.873239	24.20056	24.249215	-304.150134	-59.00297	-0.191977	0.051112	-0.752707	15.238425	6.548617	-1.182712	-27.017885	-42.976619	0.28261	-0.355269	-0.599299	-0.197651
-1.560987	10.822565	6.451893	219.166548	4.234114	-58.657834	0.460002	-0.041315	-1.158458	-0.51995	-2.584326	28.064199	36.993298	-359.012808	-63.698382	-0.217784	0.021393	-0.764498	16.263317	3.878285	-0.33668	-27.9892	-54.065836	7.796651	-0.369661	-0.649733	-0.164154
-1.823889	-0.59237	10.092642	-48.323863	4.829304	-9.228413	0.458473	-0.00353	-1.15463	-1.190424	-3.089249	28.955499	79.542402	-417.938157	-64.032869	-0.270278	0.018949	-0.734696	11.376191	2.381246	-0.015097	-39.944576	-48.282044	6.192422	-0.327241	-0.601369	-0.150927
-1.007659	-4.853557	7.760511	35.930287	14.164493	6.965577	0.475637	-0.062175	-1.180128	-1.131168	1.471458	26.752814	119.652074	-458.262848	-53.180352	-0.297411	0.014511	-0.676746	8.83396	2.44414	-0.301796	-50.871621	-39.503365	2.186225	-0.342125	-0.664691	-0.178705
-1.647423	-0.936179	10.321947	20.822519	0.946721	-26.145012	0.473751	-0.045218	-1.144731	1.77678	2.140884	25.568966	167.944108	-484.480147	-54.880999	-0.351161	-0.007541	-0.588541	8.885813	2.20997	-0.721033	-60.044543	-34.215842	8.184786	-0.313404	-0.600339	-0.166385
-1.74654	-0.025999	8.22113	18.969976	6.825175	-0.526374	0.473351	-0.014147	-1.165639	8.105263	1.445768	17.378983	181.777709	-480.826106	-45.925215	-0.391496	-0.058015	-0.527304	8.466387	2.558135	-1.026787	-63.541845	-32.115162	13.811492	-0.341704	-0.650977	-0.132958
-1.473143	-1.337911	10.437304	3.396963	2.942857	-3.335456	0.433676	-0.092122	-1.158172	9.796972	-2.732352	9.994371	141.510623	-452.53889	-44.320851	-0.366285	-0.090649	-0.497148	8.176498	1.746488	-0.85603	-62.730031	-31.017801	8.515463	-0.3278	-0.632102	-0.180309
-1.367584	-1.282483	9.984948	24.457577	1.700798	-7.157878	0.501606	-0.032196	-1.148846	2.819165	-6.836966	3.503413	80.420272	-417.014041	-39.08564	-0.433231	-0.098528	-0.395321	8.189298	1.923682	-0.136405	-60.873175	-29.665916	-3.295234	-0.341637	-0.633132	-0.164851
-1.204236	-0.422673	9.593936	11.38877	1.71708	-3.102367	0.475666	-0.096774	-1.145144	-0.125563	-5.247347	11.255725	-7.747827	-336.458701	-42.827152	-0.485725	-0.100971	-0.365519	8.847435	2.330954	0.416592	-53.342538	-29.473239	-7.510365	-0.299984	-0.631693	-0.180168
-1.206256	-0.710363	9.479024	15.474942	3.271299	-2.966196	0.474894	-0.069232	-1.151976	-8.922431	-5.737452	11.523452	-36.262763	-250.339271	-83.053217	-0.474225	-0.106256	-0.294046	10.385426	2.212033	0.62443	-42.406774	-27.677126	-5.908242	-0.313892	-0.631897	-0.180238
-1.484941	-0.421259	9.872634	5.764575	2.774838	-1.106214	0.489772	-0.079849	-1.162985	-24.198004	-8.087593	-3.462514	-13.527052	-94.057852	-126.574907	-0.500328	-0.137047	-0.291487	11.229529	2.097947	1.597852	-33.094469	-23.701789	-5.62477	-0.327871	-0.631275	-0.195837
-1.143849	-0.134783	9.766816	6.014002	3.7653	-1.612193	0.460402	-0.072385	-1.137551	-16.953233	-5.958419	-0.817455	49.298405	89.397815	-112.803823	-0.475192	-0.185002	-0.260328	11.528202	2.446717	1.844465	-24.065738	-17.724863	-3.791171	-0.355474	-0.634162	-0.149393
-1.031318	-0.479997	9.653889	1.359696	4.326404	-1.497672	0.488615	-0.038536	-1.173232	-11.902489	-5.851091	3.987693	18.434505	190.046423	-117.775686	-0.462065	-0.154286	-0.262611	11.304222	1.985121	2.437155	-17.455629	-10.235937	-1.10025	-0.35575	-0.6682	-0.116664
-1.483413	-0.995434	9.927074	5.040524	4.584905	-1.10538	0.503535	-0.101051	-1.131767	-13.27846	-3.087882	4.470759	-7.923391	257.123397	-91.793763	-0.462366	-0.215568	-0.258597	10.122393	2.161802	2.355981	-12.814864	-0.897934	-0.397557	-0.327587	-0.63458	-0.133725
-1.089479	-0.767405	9.594716	5.503723	4.82734	-0.612083	0.459645	-0.062143	-1.12689	-10.576015	-5.006086	6.90362	-26.040738	272.545184	-69.492944	-0.474381	-0.197107	-0.302374	8.939599	2.28016	2.214652	-7.316118	7.118832	1.225233	-0.313679	-0.634376	-0.133655
-1.14954	0.036335	9.483274	4.001593	4.258125	0.180357	0.459659	-0.079442	-1.109399	-9.061158	-4.388494	7.841807	-38.444839	261.166029	-47.946634	-0.434348	-0.207914	-0.359597	8.050111	2.687976	2.020156	-2.107478	13.265086	3.224786	-0.341637	-0.633132	-0.164851
-1.208649	-0.481079	9.366283	4.094985	4.16045	0.699854	0.460002	-0.041315	-1.158458	-7.587295	-3.828845	6.8542	-40.96157	247.950165	-21.415812	-0.446438	-0.204774	-0.40237	7.924936	2.919067	1.659502	1.948023	15.887826	2.433493	-0.327725	-0.651599	-0.11736
-1.204195	-0.480114	9.593695	2.442627	3.738266	2.016459	0.475666	-0.096774	-1.145144	-5.990939	-3.325457	6.208801	-42.506464	245.266631	2.170088	-0.459194	-0.219097	-0.41544	7.754044	2.165473	1.892615	5.22626	17.899132	1.342305	-0.327658	-0.633754	-0.149253
-1.26075	0.094584	9.651848	0.053108	3.254661	3.027504	0.502735	-0.03891	-1.173582	-5.011226	-3.270911	6.286039	-47.14692	253.981016	23.093457	-0.379932	-0.168398	-0.477505	8.213819	2.74268	1.304822	7.805894	18.145611	-0.899307	-0.327934	-0.667792	-0.116523
-1.546567	-0.537066	9.643626	-0.219551	3.118974	4.038104	0.501992	-0.045967	-1.14543	-4.136088	-3.046731	6.870759	-56.997662	265.624723	39.973041	-0.41842	-0.19712	-0.50337	8.029627	2.973906	0.943068	11.608024	16.864685	-2.924083	-0.300051	-0.649538	-0.148276
-1.143268	-0.938964	9.763437	-0.336904	3.478835	4.780301	0.461531	-0.0791	-1.162287	-2.729671	-2.76667	8.089441	-67.169973	273.609676	53.856674	-0.378901	-0.194752	-0.532896	8.508899	2.742005	1.310324	15.615802	14.455155	-5.188678	-0.32752	-0.616735	-0.165618
-1.427479	-0.708509	9.872541	4.262632	4.025514	4.530609	0.502764	-0.073509	-1.138598	-1.545185	-3.049197	9.642652	-73.174591	273.656362	63.225146	-0.378381	-0.147718	-0.550257	8.435443	2.797002	0.530681	19.457522	13.095846	-5.532281	-0.313683	-0.615705	-0.181076
-1.087045	-1.05413	9.707215	7.208808	4.9039	4.168399	0.503521	-0.083752	-1.149258	0.016681	-2.601131	10.072149	-78.441185	268.227632	68.68579	-0.337612	-0.185951	-0.648521	8.081501	3.204592	0.585716	22.64949	12.173221	-6.914698	-0.286076	-0.631489	-0.180098
-1.199327	-1.053565	9.818694	7.94646	5.527173	3.716397	0.489	-0.052307	-1.169817	1.232377	-2.377788	10.437563	-86.063285	261.962429	71.053011	-0.363037	-0.078858	-0.654995	8.073778	2.738006	0.104483	24.196718	12.696303	-6.678307	-0.342405	-0.680057	-0.193395
-1.662189	-0.537224	9.584546	9.75861	6.525617	3.144729	0.502392	-0.077037	-1.124522	1.933826	-2.265994	10.961921	-95.445373	257.988902	70.635896	-0.297422	-0.105908	-0.697416	8.493473	2.273689	0.409743	23.708592	13.616068	-7.047663	-0.314101	-0.64809	-0.179401
-1.199575	-0.708916	9.820142	13.495017	7.238625	1.42818	0.460759	-0.051558	-1.169118	3.273353	-1.535512	11.783297	-103.918358	257.257191	67.785215	-0.245073	-0.073896	-0.714876	8.320691	2.333159	0.646316	22.183112	14.697335	-5.641477	-0.314518	-0.680475	-0.177727
-1.656704	-0.421135	9.869294	16.124906	6.985477	0.435127	0.446296	-0.08931	-1.11971	3.87839	-0.465077	13.268917	-108.315732	258.518108	63.04609	-0.231582	-0.086997	-0.742848	8.434882	2.564451	0.469785	19.820459	14.293948	-2.941556	-0.313821	-0.632724	-0.164711
-1.258849	-0.996564	9.704116	17.157862	6.046023	-0.319145	0.502392	-0.077037	-1.124522	4.883835	0.041156	14.592606	-105.915006	262.104576	57.595681	-0.21794	-0.069458	-0.772826	8.610094	1.459612	0.228762	16.763618	12.179393	-0.658775	-0.314447	-0.681301	-0.162199
-1.377812	-0.997446	9.474477	19.264412	5.484172	-1.407724	0.518027	-0.097897	-1.146192	4.904255	-0.52139	15.498366	-99.601048	264.792573	51.985374	-0.204148	-0.021278	-0.804812	8.548742	1.517329	0.108095	12.909226	10.178356	2.207098	-0.342125	-0.664691	-0.178705
-1.259098	-0.651915	9.705564	21.921884	4.613758	-2.165559	0.503521	-0.083752	-1.149258	4.677596	-1.1405	15.606287	-95.054042	264.698154	47.11677	-0.138087	-0.016615	-0.86359	8.598644	0.701657	-0.493335	7.932657	7.948169	3.183233	-0.328426	-0.680679	-0.177797
-1.8375	-0.250616	9.411853	22.340052	3.989872	-3.894338	0.475651	-0.079474	-1.162636	4.603669	-0.803025	14.869048	-95.825322	262.019231	43.297269	-0.099379	-0.002142	-0.851071	8.592872	0.816573	-0.792375	3.125056	4.911019	2.389923	-0.32752	-0.616735	-0.165618
-1.553372	-0.366189	9.303231	18.42249	4.051235	-2.777995	0.489801	-0.114448	-1.128001	4.845373	-0.464999	15.440564	-102.239424	258.089908	41.865591	-0.071946	0.063578	-0.913036	8.881506	1.221194	-1.084677	-0.790304	1.601517	1.62525	-0.341286	-0.618592	-0.134633
-1.079706	-0.420584	10.107841	12.878289	4.236979	-2.452332	0.490186	-0.128219	-1.124586	4.983472	-0.464314	16.519135	-109.061019	253.897998	42.342476	-0.046879	0.060512	-0.870538	8.3498	0.989858	-1.155477	-3.57392	-2.369526	0.156692	-0.313821	-0.632724	-0.164711
-1.832963	-0.364534	9.638782	10.520934	4.406872	-2.136101	0.504293	-0.111294	-1.142427	6.215745	-0.690998	17.620485	-111.108526	248.56587	43.829261	-0.019376	0.081342	-0.943842	8.355032	1.107246	-0.855448	-5.980367	-5.390273	-1.378875	-0.327938	-0.64912	-0.163944
-1.314291	-0.421625	9.819122	8.03631	4.307955	-2.559913	0.516913	-0.108482	-1.103964	6.672295	-1.142694	17.403218	-112.55735	241.681975	44.961941	0.006576	0.081492	-0.944394	8.642005	1.279069	-1.268552	-6.629988	-7.844606	-3.84035	-0.328355	-0.681505	-0.16227
-1.659097	-0.191851	9.756553	9.321074	4.571288	-3.571392	0.50425	-0.059396	-1.194902	8.123518	-1.144914	17.999837	-115.70717	232.351698	46.962993	0.032308	0.095891	-0.931599	8.888088	0.757822	-0.78712	-7.364859	-8.698588	-7.287065	-0.327938	-0.64912	-0.163944
-1.715072	-0.421335	9.811327	13.236121	4.236125	-4.937533	0.504307	-0.128593	-1.124935	8.381194	0.71241	16.761375	-121.913194	218.506352	49.749081	0.073157	0.133188	-1.020532	9.192938	0.817448	-0.242209	-7.830959	-8.817559	-7.773786	-0.314451	-0.66263	-0.20962
-1.480529	-0.362853	10.100288	15.621499	4.292967	-6.262241	0.505064	-0.138836	-1.135595	9.077962	2.007051	17.17345	-135.728118	199.699421	56.426101	0.098154	0.175012	-0.966695	9.022917	1.109964	0.175074	-7.610322	-8.142904	-7.869487	-0.300193	-0.647886	-0.179331
-1.654146	-0.880185	9.98107	15.004157	4.647271	-7.941514	0.503907	-0.097523	-1.145842	13.25585	1.718919	18.789524	-132.378993	181.067844	55.133362	0.112681	0.195767	-1.039723	9.556128	1.167319	0.305039	-7.013924	-7.012191	-7.571433	-0.327867	-0.649947	-0.148416
-1.42575	-0.018728	9.989143	17.951987	5.489013	-7.782972	0.516899	-0.091183	-1.121456	15.548837	3.345571	15.838565	-134.802467	164.53489	44.576726	0.16466	0.211387	-1.04183	9.511148	1.28682	1.083223	-6.631829	-6.009328	-6.813575	-0.327934	-0.667792	-0.116523
-1.434492	-0.250424	9.533353	17.882688	5.230224	-9.381793	0.476423	-0.107016	-1.155804	18.817587	5.195619	12.795069	-146.4289	155.61943	31.560678	0.190247	0.255355	-1.016693	9.265044	1.343211	0.539906	-6.254621	-3.658765	-3.281009	-0.314309	-0.664282	-0.178564
-1.367258	-0.190852	10.046386	16.775294	5.049377	-10.148288	0.489043	-0.104205	-1.117341	20.658433	7.107503	12.948646	-158.667699	149.521576	17.401015	0.203964	0.288215	-1.047675	8.974386	1.809731	0.835916	-5.230264	-1.30521	0.188174	-0.369799	-0.666751	-0.147789
-1.597306	-0.305811	9.984596	14.357658	5.998736	-10.831304	0.492073	-0.145176	-1.159982	23.350536	8.84592	9.836326	-41.42145	106.094272	-11.175554	0.254768	0.359758	-0.982048	9.328327	1.402141	0.780882	-6.008798	1.876999	-0.190948	-0.327867	-0.649947	-0.148416
-1.544422	-0.4217	9.757815	16.003972	6.125078	-13.16492	0.517699	-0.153324	-1.07964	25.583434	6.590216	11.806114	-15.705446	91.940256	-18.07767	0.268109	0.316015	-1.008012	9.793719	1.457654	0.430491	-4.246824	4.424085	2.571763	-0.29998	-0.650365	-0.132748
-1.9992	-0.305762	9.919949	4.740731	9.129038	-14.341157	0.490572	-0.14199	-1.12117	29.572971	5.006093	12.567876	2.563953	63.098387	-52.720768	0.267958	0.285374	-1.006005	9.310295	1.107558	-0.238772	-3.357518	6.271771	4.63806	-0.327938	-0.64912	-0.163944
-1.095187	0.335365	12.270282	-17.510884	22.092745	-12.042143	0.504707	-0.159664	-1.104027	27.642773	4.785479	13.772655	6.605335	20.587489	-88.217702	0.28153	0.347803	-1.024645	9.373038	1.398792	0.003192	-1.485282	7.757511	6.549736	-0.342751	-0.713268	-0.176193
-1.658108	-0.019286	9.81413	-9.581367	34.434506	-18.489227	0.503907	-0.097523	-1.145842	25.53999	8.055581	12.599092	36.25315	-19.11255	-120.95126	0.281009	0.30077	-1.007284	9.306818	0.235182	-0.542015	2.083941	9.309284	8.57724	-0.327729	-0.632928	-0.164781
-1.854876	0.045318	11.458657	-28.54795	42.49983	-22.014787	0.50355	-0.11835	-1.114275	20.639456	8.569096	9.496072	81.74377	-53.893113	-130.783824	0.281009	0.30077	-1.007284	9.538751	0.1175	-0.777735	6.288833	10.699713	8.677634	-0.299842	-0.633346	-0.149113
-1.190227	-0.407191	13.231421	-33.714923	55.2512	-15.842361	0.560418	-0.13362	-1.112256	14.40006	15.68277	14.353352	124.127502	-75.13776	-115.951253	0.254837	0.314868	-0.993387	10.317391	0.408845	-0.103217	12.26242	9.525959	8.875556	-0.272168	-0.631285	-0.180028
-1.975869	-0.862766	14.009845	-34.656188	68.383871	-3.69563	0.545883	-0.084876	-1.150306	5.784138	24.14989	15.821677	170.145391	-94.713986	-82.112079	0.215979	0.269754	-1.003898	10.268258	-0.053651	0.37296	21.842464	6.411802	11.606607	-0.327867	-0.649947	-0.148416
-2.49598	-1.897547	13.711214	-23.429118	83.140356	5.650944	0.559632	-0.088778	-1.136579	-5.61389	26.642858	7.715122	57.78469	-177.878864	-4.14644	0.2291	0.24026	-1.016516	10.646605	0.880689	1.821283	23.949227	5.213887	3.932936	-0.342125	-0.664691	-0.178705
-2.074706	-0.974188	14.803078	-22.607433	96.542162	13.624991	0.573752	-0.089153	-1.136928	-1.941648	10.521388	3.079051	16.318408	-183.066971	61.066271	0.189952	0.254283	-1.002343	11.950024	3.435536	2.45544	25.347588	8.179226	1.621453	-0.328497	-0.679853	-0.193325
-1.658911	-1.718082	15.546826	-16.272564	118.563447	22.274883	0.572623	-0.082439	-1.112192	-0.649559	9.06715	17.654747	-20.906262	-216.879144	65.818575	0.163334	0.236669	-0.972089	14.063371	4.474066	2.020251	27.505091	14.133023	15.27832	-0.327587	-0.63458	-0.133725
-2.605631	-3.090426	16.829726	-16.760291	141.734172	32.250488	0.617257	-0.11429	-1.14522	11.102309	2.451966	15.008406	36.226126	-196.929255	-24.483169	0.138123	0.269303	-1.002244	15.44634	4.637636	0.250197	22.308845	21.451595	18.685718	-0.300055	-0.630867	-0.195696
-2.586661	-3.143766	17.795987	-7.580972	168.890096	46.677513	0.588644	-0.11707	-1.130446	5.297316	0.374091	9.732765	43.730668	-118.878888	-99.776143	0.111801	0.252761	-0.986339	16.409979	4.161585	-1.949629	18.796086	32.095561	20.634543	-0.32717	-0.602195	-0.135399
-2.05516	-4.002384	18.598332	6.154976	199.223984	61.417805	0.616142	-0.124875	-1.102992	4.525047	-2.045474	11.073152	24.089421	-56.487172	-56.882451	0.098455	0.236294	-0.97071	15.00386	3.063112	-1.561389	11.059945	38.868961	22.708875	-0.313333	-0.601165	-0.150857
-2.23117	-4.290433	18.366373	13.391895	232.659448	78.586316	0.615757	-0.111104	-1.106408	0.017441	-3.387422	12.732337	31.171648	-8.04415	38.831106	0.085328	0.205578	-0.968427	12.669388	0.808245	-0.476817	10.417437	36.334898	16.059555	-0.327938	-0.64912	-0.163944
-1.532325	-3.656419	19.007773	15.441176	266.496972	92.985392	0.685245	-0.123562	-1.065926	1.141319	1.22643	9.193318	42.634414	-20.788814	54.653216	0.098895	0.207797	-0.997402	11.405167	1.283736	1.417972	13.886836	29.813211	5.930343	-0.327658	-0.633754	-0.149253
-0.495271	-3.36851	19.370141	18.097954	302.661827	102.331721	0.72915	-0.17977	-1.053311	3.413198	2.122269	7.883083	26.013859	-31.945212	16.57683	0.047361	0.223889	-1.011652	11.730925	1.348059	3.101114	16.056656	25.31757	-2.338722	-0.341428	-0.616939	-0.165688
0.343818	-2.901356	21.320666	17.175789	338.624616	105.922811	0.742113	-0.138831	-1.063907	2.931198	0.321942	9.399954	12.117878	-19.675939	-10.903669	0.059967	0.207571	-0.996575	10.895841	3.265469	2.854239	19.862012	23.592598	-8.76219	-0.31375	-0.63355	-0.149183
1.142283	-1.696146	21.227616	31.538839	374.165748	101.065365	0.840256	-0.200408	-0.985725	1.348309	-1.532951	10.553972	16.662208	-3.1744	6.712688	0.047136	0.177927	-1.008642	10.889799	3.496537	2.555693	27.179826	25.460281	-15.276306	-0.341849	-0.630653	-0.211435
1.14541	0.142948	21.46275	34.607756	411.323815	89.278263	0.839885	-0.203936	-0.971649	1.743413	0.043359	10.337203	28.30943	-7.694107	7.756118	0.098524	0.191404	-0.982049	10.232648	3.612444	2.124735	33.975785	31.082845	-21.194953	-0.341152	-0.582902	-0.198418
1.696631	5.275902	26.439354	23.597731	432.219619	76.714525	0.909787	-0.264764	-0.892767	2.071474	0.887054	9.608853	31.126781	-7.88351	-0.043066	0.059892	0.192251	-0.995571	9.091054	5.23743	1.212145	38.979728	39.197154	-20.151699	-0.327942	-0.630449	-0.211364
-5.269289	2.207666	32.996915	58.556025	448.897821	65.083201	0.949863	-0.21786	-0.879326	0.988588	0.269845	10.038479	26.653581	-7.279375	2.055656	0.072497	0.175934	-0.980494	8.069747	4.945142	0.173785	46.160162	48.217705	-17.195455	-0.299913	-0.63252	-0.16464
-8.109036	1.238058	34.0742	129.47945	434.193604	45.999793	0.993396	-0.277596	-0.852635	1.683346	0.719386	10.279924	28.577321	-11.139819	5.317449	0.033425	0.205278	-0.967324	7.425356	4.308533	0.338681	49.582635	55.757378	-11.345852	-0.341503	-0.597442	-0.228637
1.931968	-1.030005	29.429364	213.895932	396.446215	15.921103	1.019408	-0.299515	-0.768878	1.746824	0.156163	10.507217	32.468015	-13.520998	6.560871	0.072572	0.191254	-0.981497	5.667071	3.327516	0.840627	45.521181	60.232009	-10.496807	-0.355895	-0.647876	-0.19514
6.394871	-6.406447	8.693579	299.378057	298.644448	13.960471	1.088553	-0.3501	-0.679336	1.627012	1.339224	10.392516	28.674241	-12.880571	9.122958	0.047136	0.177927	-1.008642	5.845355	3.269282	0.903588	42.214818	62.689859	-9.640868	-0.313754	-0.614879	-0.196603
11.274432	-10.995544	-2.426443	157.181716	182.638168	28.459325	1.059198	-0.359936	-0.63641	1.610543	1.732921	9.656533	19.268251	-11.829541	8.324295	0.059301	0.190107	-0.966872	6.254201	3.209272	0.671416	40.131824	62.345087	-6.606153	-0.341782	-0.612808	-0.243327
9.813783	-8.990086	-3.867162	52.609242	71.007397	103.953227	1.115323	-0.382262	-0.606239	1.621184	1.226326	10.109223	13.364231	-12.152365	8.717106	0.072121	0.099332	-0.975475	8.329245	2.916144	1.18795	35.956599	56.482946	-0.38954	-0.314522	-0.661804	-0.225148
8.745668	-5.533213	11.868658	-86.560339	-7.369978	139.916358	1.115337	-0.399561	-0.588747	1.665213	0.718675	9.43033	11.968655	-12.427218	10.532143	0.073012	0.162757	-1.008189	10.693982	2.098173	1.348321	29.036891	41.908617	7.132034	-0.342409	-0.661386	-0.240816
10.031782	-1.51929	10.489833	31.939138	-57.696135	134.499136	1.088239	-0.422826	-0.595293	1.843415	1.000241	9.717392	6.332765	-11.290858	8.689186	0.059296	0.129897	-0.977207	12.44823	1.974262	0.482236	20.708499	22.709706	11.83859	-0.328221	-0.645815	-0.226055
11.208385	0.197778	9.269687	13.065367	-91.65303	119.875011	1.060012	-0.439376	-0.577103	1.568323	0.663271	10.277459	10.066706	-11.493997	9.491716	0.033494	0.160388	-0.978663	12.316297	1.79709	-0.299496	14.371356	4.694294	12.436574	-0.355828	-0.630031	-0.227033
10.763655	0.003748	4.088651	58.511032	-119.806569	96.699601	1.059641	-0.442904	-0.563027	1.444622	0.719485	9.878611	12.963173	-12.125989	8.593731	0.059371	0.145218	-0.978211	11.36312	2.320204	-0.734227	8.182944	-7.902546	9.829338	-0.341156	-0.564231	-0.245839
10.175278	-1.205729	3.219652	43.267941	-142.608849	67.406325	1.033657	-0.455584	-0.611801	1.734197	0.437341	9.941058	13.004976	-11.352881	7.676594	0.059226	0.174787	-0.965868	9.984031	2.667068	-1.896284	4.357447	-15.059644	8.53249	-0.314037	-0.611574	-0.258715
