1757_acc_x	1757_acc_y	1757_acc_z	1757_gyro_x	1757_gyro_y	1757_gyro_z	1757_mag_x	1757_mag_y	1757_mag_z	1758_acc_x	1758_acc_y	1758_acc_z	1758_gyro_x	1758_gyro_y	1758_gyro_z	1758_mag_x	1758_mag_y	1758_mag_z	1759_acc_x	1759_acc_y	1759_acc_z	1759_gyro_x	1759_gyro_y	1759_gyro_z	1759_mag_x	1759_mag_y	1759_mag_z
-1.019277	-0.190136	10.280479	-0.656206	-0.183967	-0.307781	0.5489	0.210314	-1.144763	1.618096	0.944531	9.939067	-0.878731	-1.055867	0.338179	0.328949	-0.270074	-0.913854	9.668294	2.269752	0.132217	-10.132316	1.09844	-3.228544	-0.351981	-0.432749	0.01053
-1.720847	-0.135333	9.528269	-0.350052	-0.118987	-0.491614	0.563035	0.19264	-1.127621	1.901388	0.155128	9.66125	-0.506637	-0.958162	0.18531	0.32888	-0.225184	-0.902515	9.89571	2.674013	-0.280999	-11.556063	0.824337	-3.83332	-0.301826	-0.610211	-0.583892
-1.087708	-0.135066	9.711076	-0.411654	-0.243591	-0.37079	0.550801	0.176057	-1.162668	1.794096	1.113342	10.112755	-0.660523	-0.899798	0.339907	0.303813	-0.222119	-0.945013	9.838605	2.325939	-0.223676	-12.826715	0.521776	-4.59132	-0.245431	-0.543798	-0.602487
-1.021463	-0.24806	10.166532	-0.260706	-0.486645	-0.559183	0.563421	0.178869	-1.124205	1.624571	0.719446	10.222075	-0.971998	-1.088715	0.491918	0.316859	-0.266933	-0.956627	9.608873	2.444115	0.131858	-13.945164	0.099303	-5.532664	-0.301547	-0.594845	-0.569201
-1.319035	-0.020499	9.593399	0.32224	-0.423158	-0.498493	0.563049	0.175341	-1.110129	1.678187	0.888188	10.053508	-1.132238	-1.521597	0.73411	0.290096	-0.254978	-0.91403	9.834338	2.266874	-0.463551	-15.061574	-0.513326	-5.831312	-0.273802	-0.59361	-0.584588
-1.605059	-0.364941	9.586383	0.47502	-0.60892	-0.317944	0.5493	0.179244	-1.123856	1.728607	0.831465	9.714832	-1.606762	-2.387111	0.879263	0.316708	-0.297574	-0.95462	9.544894	2.21071	-0.169766	-16.212126	-1.119758	-6.741091	-0.258709	-0.514096	-0.557648
-1.197804	-0.076576	9.936503	0.689666	-0.514332	-0.439696	0.534823	0.15879	-1.091939	1.680497	0.944613	10.166834	-3.049265	-4.034037	1.416633	0.290687	-0.252835	-0.94273	9.842041	2.268605	-0.044202	-17.111171	-1.57929	-6.980132	-0.246124	-0.610221	-0.568083
-1.199948	-0.191942	9.822314	0.659071	-0.639836	-0.226972	0.534451	0.155262	-1.077863	1.792887	1.113294	10.056115	-3.985184	-4.723059	1.809795	0.303588	-0.26808	-0.942002	9.256416	2.212868	0.184173	-17.792723	-1.761797	-7.312965	-0.259476	-0.561021	-0.586192
-0.917182	0.036893	9.658287	0.412555	-0.887532	-0.168952	0.591662	0.17812	-1.124903	1.563164	0.832073	10.051043	-5.033107	-4.49428	2.304478	0.303813	-0.222119	-0.945013	9.668139	1.862972	0.070579	-17.954251	-2.462432	-7.645208	-0.231728	-0.578458	-0.554159
-1.319859	-0.422831	9.534856	0.902955	-0.822736	-0.261314	0.548543	0.189486	-1.113196	1.675423	0.437401	9.88321	-5.958972	-4.32909	3.384366	0.290687	-0.252835	-0.94273	9.666363	2.153105	0.011909	-18.047287	-2.616971	-7.521889	-0.260311	-0.625791	-0.582844
-1.608648	-0.021016	9.417272	0.687327	-1.070984	-0.142056	0.562292	0.185583	-1.099469	2.017643	0.830973	9.777516	-6.8534	-4.132037	4.341284	0.315828	-0.24058	-0.901236	9.612579	2.270629	0.310837	-18.30022	-3.009525	-8.099758	-0.259476	-0.561021	-0.586192
-1.545909	0.095032	9.703134	0.564965	-0.978317	-0.232202	0.57717	0.174966	-1.110478	1.960401	0.66209	9.776165	-7.896145	-3.389391	5.981735	0.303883	-0.267008	-0.956352	9.384623	2.098671	0.725042	-17.595093	-3.682451	-7.854613	-0.259126	-0.546481	-0.555974
-1.88696	-0.248886	9.808711	0.719121	-0.948956	-0.048161	0.548529	0.206786	-1.130687	1.898993	0.774716	9.605132	-9.739173	-2.469526	7.099225	0.316639	-0.252684	-0.943281	9.092843	2.100088	0.89926	-16.400122	-4.812744	-7.578498	-0.273455	-0.560399	-0.60179
-1.208033	0.20846	9.426032	0.138229	-0.767978	0.017788	0.561892	0.216654	-1.120376	2.246265	1.055817	9.725902	-9.977015	-1.650938	8.062858	0.290392	-0.253906	-0.92838	9.385993	1.982766	0.784454	-14.711408	-6.035227	-7.089802	-0.287363	-0.560603	-0.601861
-1.544132	-0.823791	9.756126	0.354632	-0.647177	0.29514	0.534037	0.203632	-1.116262	1.90724	0.887709	10.001704	-10.132803	0.591094	7.190999	0.32969	-0.237289	-0.944561	9.685341	2.041156	1.029831	-12.31285	-7.101265	-6.696106	-0.28708	-0.563908	-0.539749
-1.317839	-0.135141	9.649769	0.326386	-0.309965	0.362037	0.548543	0.189486	-1.113196	1.902643	1.394542	9.832212	-10.095132	0.970332	5.530062	0.317009	-0.236292	-0.958635	9.151184	2.390333	0.901597	-9.42251	-8.255709	-6.456574	-0.245431	-0.543798	-0.602487
-1.427728	-0.363859	9.873989	-0.318326	-0.466282	0.330685	0.534065	0.169033	-1.081279	5.087628	0.995011	10.747964	-14.686023	2.151469	8.251023	0.303738	-0.237439	-0.944009	8.801894	2.217904	1.13388	-6.312648	-9.136917	-5.944088	-0.273802	-0.59361	-0.584588
-1.371753	-0.134376	9.819215	-0.286062	-0.25171	0.395415	0.534823	0.15879	-1.091939	7.008348	0.482902	9.032812	-21.631962	-2.80953	3.171067	0.304404	-0.219975	-0.973712	9.577347	1.985575	1.566545	-2.766459	-9.621764	-5.160017	-0.287505	-0.55895	-0.632916
-1.602708	-0.536783	9.699366	-0.192327	-0.162562	0.703272	0.534051	0.186333	-1.09877	7.716319	1.608978	9.954501	-25.610866	-5.276122	-2.498205	0.33006	-0.220897	-0.959914	9.638004	1.753383	1.626564	0.939057	-9.650078	-4.103641	-0.245356	-0.563296	-0.539539
-1.374229	0.209791	9.706957	-0.066896	0.205402	0.831562	0.534794	0.193389	-1.126922	8.883234	1.663769	10.715042	-22.500364	-11.13706	-5.205174	0.290542	-0.223266	-0.930387	9.815457	1.57875	1.629123	4.6139	-9.771843	-2.893887	-0.258779	-0.51327	-0.573176
-1.367299	-0.133411	10.046627	-0.863791	0.233109	0.772971	0.5493	0.179244	-1.123856	8.82446	1.66383	10.657193	-13.495312	-17.301212	-6.399843	0.303964	-0.191478	-0.94702	9.635128	2.043269	1.507986	8.053886	-8.830227	-1.077096	-0.287572	-0.576795	-0.601023
-1.5377	-0.477694	10.098692	-0.893926	0.294082	0.804716	0.592062	0.147049	-1.103996	8.586406	1.945629	10.312757	-3.377434	-23.217398	-5.864796	0.31694	-0.191403	-0.947296	9.874629	1.985395	1.691861	11.215537	-7.701663	0.311956	-0.287918	-0.610007	-0.583821
-0.972127	-0.077466	9.770398	-1.352493	0.319886	1.051798	0.577927	0.164723	-1.121138	7.945803	1.383177	9.902508	4.47454	-27.537488	-5.284874	0.278226	-0.266086	-0.97015	9.815208	2.159758	1.691503	14.557714	-6.719063	1.089802	-0.273451	-0.57907	-0.55437
-0.906954	-0.248143	10.168759	-1.352624	0.414167	0.869324	0.5478	0.18243	-1.085044	7.78146	1.440163	10.295406	11.671005	-32.501354	-6.037471	0.303518	-0.223191	-0.930663	9.637444	1.520832	1.565668	17.225664	-5.218892	1.867625	-0.273451	-0.57907	-0.55437
-1.83185	-0.364293	9.695636	-1.413844	0.444961	0.839333	0.618388	0.197856	-1.104281	7.076493	1.271896	9.601081	23.258561	-34.561057	-6.23359	0.264365	-0.269377	-0.926825	10.044244	1.867107	1.27532	19.176524	-4.296141	2.039536	-0.231865	-0.595476	-0.537794
-1.141414	-0.421508	9.879315	-1.320872	0.567622	0.902394	0.548543	0.189486	-1.113196	5.22285	0.993218	8.995763	28.658704	-37.060138	-2.832201	0.276976	-0.225484	-0.901412	9.754666	1.869018	1.569352	21.249065	-3.990705	2.794659	-0.26052	-0.641983	-0.582007
-1.201062	-0.192183	9.765461	-1.228141	0.690978	0.904132	0.561906	0.199354	-1.102885	3.078855	0.771315	8.271168	27.53055	-40.239853	2.869306	0.316569	-0.207795	-0.931942	10.15747	2.040076	1.038635	23.038508	-3.861918	2.787564	-0.301964	-0.62723	-0.567527
-1.264049	0.036418	9.481047	-1.658614	0.66172	0.598218	0.549672	0.182772	-1.137932	1.225643	0.267315	7.665661	29.979249	-33.829397	12.245231	0.251024	-0.225634	-0.900861	9.569084	1.751293	1.086301	24.235774	-4.06478	2.1118	-0.246128	-0.591549	-0.615504
-1.263801	-0.308231	9.479599	-1.841085	0.844557	0.66305	0.576798	0.171438	-1.096402	-2.136335	0.385326	6.519486	27.469111	-26.117662	24.004154	0.26481	-0.237664	-0.943182	9.676517	1.574323	0.488691	24.944954	-4.900416	3.305198	-0.273731	-0.594436	-0.56906
-1.085771	0.267508	9.826472	-2.637302	0.807671	0.879417	0.534408	0.20716	-1.130338	-5.639171	-0.340112	6.784964	23.867716	-14.829483	30.618576	0.264885	-0.222344	-0.944185	9.622193	1.92415	0.788609	25.684114	-5.610116	4.161695	-0.287501	-0.577622	-0.585496
-0.740551	-0.536681	9.886627	-2.238991	0.809879	0.847639	0.562664	0.189112	-1.113545	-8.428928	-0.955665	5.423704	18.566564	5.464661	30.415324	0.238934	-0.222494	-0.943634	9.384602	1.633816	0.663157	26.206624	-6.101743	4.55948	-0.301409	-0.577826	-0.585566
-0.969941	-0.019542	9.884345	-2.545399	0.839527	0.818335	0.576027	0.19898	-1.103234	-11.416309	-1.569506	5.586877	0.985177	33.004087	18.435712	0.251684	-0.26838	-0.940899	9.850304	2.502887	0.436042	26.612322	-5.83005	5.045739	-0.26024	-0.626617	-0.567316
-0.912272	-0.593998	9.883045	-2.269387	1.059414	0.514436	0.562664	0.189112	-1.113545	-15.736751	-0.995828	8.100896	4.3771	65.202942	4.176697	0.225217	-0.255353	-0.912652	9.557944	1.806897	0.48748	27.515006	-5.377149	5.926671	-0.287568	-0.595467	-0.553603
-1.490923	0.15195	9.590782	-2.238825	1.122411	0.3927	0.561535	0.195826	-1.088809	0.750699	0.950726	15.129359	-5.599752	76.491095	20.959382	0.264735	-0.252985	-0.942178	9.738699	1.633006	0.66976	28.172632	-4.462523	6.439519	-0.231586	-0.58011	-0.523103
-1.256131	-0.134217	9.878295	-2.452719	1.432551	0.06101	0.548929	0.175715	-1.10978	1.97837	1.622851	13.400696	34.178038	71.25	-5.049246	0.251684	-0.26838	-0.940899	9.617521	2.039313	0.549476	28.493578	-2.995044	6.614739	-0.25989	-0.612077	-0.537098
-1.256006	-0.306542	9.877571	-1.901833	1.3122	0.057468	0.535194	0.162319	-1.106015	1.910496	-0.182523	10.057442	62.559215	63.476364	-36.207997	0.302997	-0.270224	-0.913302	9.962564	2.617533	0.139202	27.483261	-1.584358	5.908684	-0.258846	-0.531115	-0.541283
-1.490591	-0.307583	9.588852	-1.932262	1.499228	-0.184748	0.547786	0.199729	-1.102535	1.921638	0.944609	10.681427	35.195534	54.059844	-32.038864	0.316564	-0.268005	-0.942278	9.897911	2.674508	-0.161185	25.398458	-0.062433	5.90897	-0.274286	-0.64384	-0.551021
-1.136919	-0.477985	10.106486	-2.759288	1.83828	-0.60621	0.533679	0.182804	-1.084694	0.651848	4.836312	13.545513	-4.483993	20.463071	-10.702873	0.290536	-0.283475	-0.940722	10.536645	2.903102	-0.687253	24.217957	1.754119	7.310542	-0.27401	-0.609803	-0.583751
-1.368205	-0.42086	9.988568	-3.035396	2.119487	-1.122202	0.57677	0.206036	-1.131386	1.479032	1.058843	11.521444	-9.299541	4.325039	-4.270114	0.303292	-0.269152	-0.927652	10.764331	3.191211	-1.100964	22.771206	4.976528	8.736949	-0.245636	-0.578662	-0.554229
-1.136588	-0.937517	10.104556	-3.27973	2.710587	-1.847929	0.576798	0.171438	-1.096402	1.170631	0.438893	10.495365	-8.506871	-0.679552	3.017837	0.289871	-0.30094	-0.911019	11.640864	2.199421	-1.687729	21.728667	9.498191	8.902535	-0.259961	-0.611251	-0.552625
-1.206961	0.266143	9.483126	-0.585867	2.701139	-2.622545	0.548929	0.175715	-1.10978	1.218441	1.11442	10.100666	-14.992502	-2.856774	4.532386	0.27734	-0.269302	-0.927101	11.578392	1.792035	-1.930188	18.648062	13.828561	3.208055	-0.287359	-0.579274	-0.55444
-1.038248	-0.136796	9.314218	0.330974	1.993042	-2.145999	0.577541	0.178494	-1.124554	1.731587	1.16959	9.885035	-17.897098	-3.010042	3.572846	0.290392	-0.253906	-0.92838	10.657398	2.206166	-0.628112	14.283476	15.987467	-2.960148	-0.273243	-0.562878	-0.555207
-1.326747	-0.137071	9.194944	-0.771454	1.766164	-1.563816	0.562664	0.189112	-1.113545	1.670287	1.225886	9.713955	-14.304306	-2.460441	1.515709	0.34163	-0.27107	-0.89978	9.545995	2.210957	-0.109859	13.415087	16.521772	-4.64046	-0.246053	-0.611047	-0.552555
-1.490591	-0.307583	9.588852	-1.137902	1.666689	-1.073687	0.53518	0.179618	-1.123506	2.020492	0.605746	9.890605	-12.067577	-1.624052	-0.138894	0.290467	-0.238586	-0.929384	8.964137	3.3763	0.48315	13.182657	15.186281	-5.733464	-0.259681	-0.595885	-0.537935
-1.434533	-0.192982	9.533595	-2.179742	1.254316	-0.372024	0.533665	0.200104	-1.102186	1.963273	1.056546	9.946415	-9.772741	-1.063675	-1.672878	0.304328	-0.235295	-0.972709	8.438184	2.565193	0.649506	14.084398	12.811942	-6.550557	-0.273239	-0.581549	-0.507786
-1.029464	0.037459	9.769767	-2.638892	1.093991	0.025375	0.548929	0.175715	-1.10978	2.06774	0.943242	9.438982	-6.8541	-0.035084	-3.263354	0.289946	-0.285619	-0.912023	8.02505	2.101282	0.579918	14.922238	9.72751	-6.752801	-0.259965	-0.59258	-0.600046
-1.375301	0.152108	9.649862	-2.210863	0.817323	0.203654	0.563064	0.158041	-1.092637	1.677194	0.775479	9.996773	-4.376202	0.401358	-4.243513	0.27712	-0.255053	-0.913754	8.796527	2.158592	0.834099	14.625519	6.84434	-6.09618	-0.245565	-0.579488	-0.538702
-1.030412	-0.192549	9.711948	-1.812696	0.663438	0.384014	0.590533	0.184834	-1.100167	1.677864	1.057179	10.05365	-3.291073	0.664018	-4.794929	0.277566	-0.223341	-0.930111	9.130276	2.385636	-0.236634	13.138383	4.834241	-4.492	-0.245773	-0.595681	-0.537864
-1.322251	-0.193548	9.422115	-1.936622	0.416316	0.44169	0.561506	0.230425	-1.123792	1.617211	0.775492	9.882285	-3.13578	0.756161	-4.516437	0.290096	-0.254978	-0.91403	9.482712	2.152027	-0.350834	11.53641	4.049532	-3.107167	-0.27401	-0.609803	-0.583751
-1.653571	-0.133204	10.04106	-1.384669	0.386769	0.562293	0.548529	0.206786	-1.130687	1.500871	0.77566	9.823228	-3.443474	0.930594	-3.651771	0.290461	-0.298796	-0.939719	9.533195	2.033762	-0.829483	10.116296	4.358214	-3.867548	-0.28771	-0.593814	-0.584659
-1.70806	-0.87942	10.150515	-0.955659	0.263759	0.743066	0.576798	0.171438	-1.096402	1.742228	0.662995	10.337725	-4.952087	1.368138	-3.155387	0.302702	-0.271296	-0.898953	9.712424	1.568996	-0.768253	9.220086	4.824571	-4.905629	-0.246195	-0.609394	-0.583611
-1.253904	-0.133735	9.992001	-0.159484	0.238138	0.617686	0.576398	0.202508	-1.11731	1.559861	0.662939	9.880982	-6.711377	1.526564	-2.661981	0.290166	-0.299868	-0.925369	9.774896	1.976382	-0.525794	8.424477	5.741607	-5.121056	-0.273664	-0.576591	-0.600953
-1.602625	-0.651666	9.698883	0.421759	0.150052	0.49191	0.605025	0.187988	-1.114592	1.561632	1.001017	9.994545	-6.985728	1.828677	-2.505058	0.303443	-0.238511	-0.929659	9.717521	1.74446	-0.467977	7.847377	6.592253	-4.756285	-0.287151	-0.563082	-0.555277
-1.43342	-0.192741	9.590448	0.637181	0.461501	0.220341	0.561935	0.164756	-1.067901	1.915355	0.43735	10.341162	-5.905379	1.78006	-2.350532	0.316494	-0.223115	-0.930939	9.540202	1.861017	-0.470784	7.76692	7.158959	-3.383413	-0.315663	-0.611241	-0.568434
-1.260377	-0.42239	9.649676	1.034797	0.528302	-0.086397	0.576398	0.202508	-1.11731	1.389474	0.719688	9.990681	-4.142467	1.955523	-2.316541	0.302777	-0.255975	-0.899956	9.607482	2.095164	0.010561	7.522374	7.278228	-3.169162	-0.287221	-0.562256	-0.570805
-1.612687	-0.596396	9.187446	0.910765	0.531901	-0.453997	0.562292	0.185583	-1.099469	1.284577	1.058313	10.498305	-2.663075	1.698154	-2.287082	0.316344	-0.253756	-0.928931	9.067378	1.687622	-0.540236	7.122888	7.15001	-2.739234	-0.274081	-0.608976	-0.599279
-1.430411	0.267515	9.762938	0.388583	0.595452	-0.850146	0.534794	0.193389	-1.126922	1.792324	0.775264	9.999191	-1.430652	1.438656	-2.411983	0.316344	-0.253756	-0.928931	9.592481	1.917475	-0.828877	6.409303	6.503793	-2.611317	-0.273522	-0.578244	-0.569898
-1.143724	-0.307107	9.766092	-0.101218	0.528917	-0.604473	0.535194	0.162319	-1.106015	1.672358	0.77529	9.770215	-1.031635	1.287007	-1.889094	0.316494	-0.223115	-0.930939	9.230816	1.858479	-1.255075	5.815601	5.398851	-2.451082	-0.245982	-0.611873	-0.537027
-1.891704	0.15224	9.582988	-0.777377	0.343465	-0.789549	0.563435	0.16157	-1.106713	1.166011	0.326042	10.268712	-1.345138	0.944366	-1.676958	0.303148	-0.239583	-0.91531	9.534855	2.266561	-0.708681	4.850842	4.542981	-2.840813	-0.274077	-0.627648	-0.551858
-0.976539	-0.135872	9.542744	-0.685149	0.311771	-0.667657	0.548171	0.185958	-1.09912	1.444514	0.775816	9.878659	-2.023331	1.086651	-1.306153	0.303588	-0.26808	-0.942002	9.658235	1.860747	-0.468583	3.765738	3.680997	-2.679959	-0.245844	-0.594854	-0.553392
-1.772493	-0.191527	9.811179	-1.173511	0.585373	-0.600469	0.577141	0.209565	-1.145462	1.678941	0.493874	10.053176	-2.269433	1.174906	-1.212989	0.315678	-0.271221	-0.899228	9.823853	1.567243	-1.125493	2.282395	2.719503	-1.90594	-0.273731	-0.594436	-0.56906
-0.974188	-0.307714	9.655726	-0.8372	0.401513	-0.512421	0.5489	0.210314	-1.144763	1.676308	0.60644	9.939992	-2.983086	0.920774	-1.246918	0.290096	-0.254978	-0.91403	9.544314	1.513303	-0.292546	1.048201	2.157829	-1.256978	-0.259894	-0.593406	-0.584518
-1.373239	0.382357	9.764534	-1.020469	0.211048	-0.054969	0.53518	0.179618	-1.123506	1.677086	0.83181	9.996821	-3.260825	0.947509	-1.18522	0.290241	-0.284547	-0.926373	9.655224	2.208709	-0.586913	0.061855	1.874243	-0.793613	-0.26024	-0.626617	-0.567316
-1.259347	-0.307266	9.707012	-1.020425	0.179621	0.005856	0.57717	0.174966	-1.110478	1.733981	0.550002	9.941153	-2.98406	0.858439	-1.093399	0.303362	-0.314041	-0.938991	9.483792	1.687419	-0.352812	-1.142263	1.40729	-0.420271	-0.273869	-0.611455	-0.552696
-1.366144	-0.190611	10.103239	-0.623692	-0.064026	-0.029914	0.548943	0.158416	-1.092288	1.844708	0.324275	9.716823	-2.458971	0.835846	-1.308997	0.302997	-0.270224	-0.913302	9.535105	1.685553	-0.77106	-1.823302	0.975334	-0.293492	-0.245773	-0.595681	-0.537864
-1.488406	-0.249659	9.702799	-0.623102	0.02817	-0.028417	0.562664	0.189112	-1.113545	1.9059	0.324309	9.88795	-1.811944	0.69176	-1.464049	0.303072	-0.254903	-0.914306	9.247478	2.268966	-0.294834	-1.82267	0.756793	0.135429	-0.260378	-0.643636	-0.550951
-1.478177	-0.534695	10.21327	-0.500936	-0.095228	0.06123	0.564193	0.151327	-1.117373	1.619197	1.000909	9.995754	-1.259859	0.420215	-1.065541	0.290316	-0.269227	-0.927376	9.545569	1.92033	-0.171002	-1.882559	0.597949	0.686538	-0.218587	-0.625179	-0.582633
-1.266111	-0.19383	9.366376	-0.071579	-0.125348	0.182176	0.561549	0.178527	-1.071317	1.901734	0.60582	9.718269	-1.231614	0.235008	-0.820736	0.315458	-0.256972	-0.885882	9.548445	1.630444	-0.052424	-1.416419	0.592678	1.357263	-0.259681	-0.595885	-0.537935
-1.371794	-0.076934	9.819456	-0.989593	-0.039878	0.400883	0.575241	0.243821	-1.127557	1.742443	0.550334	10.33763	-1.140567	0.141773	-0.451653	0.315608	-0.226331	-0.887889	9.130391	1.862704	-0.298766	-1.104245	0.803816	1.752447	-0.287147	-0.581753	-0.507857
-1.199741	-0.479149	9.821108	-0.376903	-0.098828	0.428829	0.533665	0.200104	-1.102186	1.912614	0.606246	10.228025	-1.263832	0.170468	-0.389811	0.303443	-0.238511	-0.929659	9.719161	1.512403	-0.409059	-0.850088	1.349327	2.329628	-0.273313	-0.562051	-0.570735
-1.261574	-0.307748	9.593306	-0.713793	-0.101097	0.491097	0.548543	0.189486	-1.113196	1.619413	0.888248	9.995659	-1.234418	0.077255	-0.144089	0.277265	-0.284622	-0.926097	9.903373	1.746033	0.01458	-0.349732	2.113955	2.507547	-0.260032	-0.610425	-0.568153
-1.600439	-0.593742	9.81283	-0.439072	-0.159187	0.305355	0.53518	0.179618	-1.123506	1.556557	0.493805	9.71092	-1.080686	0.046739	0.133184	0.342886	-0.251462	-0.958182	9.719161	1.512403	-0.409059	-0.187332	3.030315	2.685967	-0.231795	-0.596303	-0.522266
-1.148551	0.208901	9.540851	-0.316031	0.121796	-0.027779	0.57677	0.206036	-1.131386	1.672789	0.549968	9.770025	-0.708864	0.114382	-0.112469	0.316199	-0.224187	-0.916589	9.773911	1.453203	-0.647833	-0.058103	3.671574	2.835256	-0.28708	-0.563908	-0.539749
-1.488572	-0.019892	9.703764	-0.410431	-0.090627	-0.306972	0.577541	0.178494	-1.124554	2.023903	0.71855	10.060619	-0.581701	0.392336	-0.171259	0.317009	-0.236292	-0.958635	9.477595	1.511707	-0.712995	-0.643945	3.731593	2.745401	-0.259543	-0.578866	-0.5543
-1.197265	-0.823316	9.933366	0.050973	0.250961	-0.42542	0.576798	0.171438	-1.096402	1.455178	0.888903	10.38851	-0.334315	0.39668	-0.355985	0.303588	-0.26808	-0.942002	9.53389	2.208237	-0.768835	-1.136744	3.946157	2.532217	-0.246332	-0.626413	-0.567246
-1.193392	-0.01817	10.164157	-0.042391	0.066835	-0.48948	0.548929	0.175715	-1.10978	1.622824	1.001051	10.165673	-0.211713	0.307259	-0.510916	0.32954	-0.26793	-0.942553	10.011906	1.56931	-0.523123	-2.246668	3.693661	2.904204	-0.27401	-0.609803	-0.583751
-0.630869	-0.020755	9.663614	-0.042031	0.065792	-0.397494	0.589747	0.229676	-1.124491	2.146179	0.774949	10.402922	-0.239021	0.583254	-0.56985	0.302922	-0.285544	-0.912299	9.656439	1.686025	-0.589138	-3.2964	3.382098	3.092875	-0.260307	-0.644462	-0.535423
-1.598502	-0.191169	9.928226	0.294487	0.163039	-0.703562	0.577913	0.182023	-1.13863	1.618851	0.550218	9.938735	-0.208907	0.522316	-0.570431	0.290542	-0.223266	-0.930387	9.418173	1.68607	-0.713354	-4.656866	2.763527	3.284136	-0.315525	-0.594222	-0.584799
-1.320066	-0.135624	9.536063	-0.073366	0.130242	-0.672368	0.548929	0.175715	-1.10978	1.391138	1.114096	10.104293	0.099059	0.435247	-0.72519	0.32932	-0.253681	-0.929207	9.594972	2.266673	-0.647673	-5.832918	2.17779	3.321755	-0.246612	-0.641779	-0.581937
-1.262853	-0.078223	9.537418	0.138791	-0.049671	-0.982584	0.57677	0.206036	-1.131386	1.565689	0.775837	10.164274	0.126329	0.159052	-0.63543	0.316268	-0.269077	-0.927928	10.130364	1.859667	-0.459779	-6.576905	1.623881	3.38822	-0.259894	-0.593406	-0.584518
-1.141622	-0.1343	9.880522	0.10835	-0.113016	-0.830185	0.576756	0.223336	-1.148878	1.789907	0.775169	9.885912	0.401063	-0.083746	-0.483483	0.317154	-0.265861	-0.970977	9.479525	1.628354	-0.592687	-7.568543	1.070979	3.272196	-0.27429	-0.625169	-0.598442
-0.916975	-0.250314	9.657081	0.138027	-0.016158	-1.227382	0.5497	0.148173	-1.102948	1.855264	0.493693	10.226721	0.706808	-0.325549	-0.423985	0.316124	-0.239508	-0.915585	9.722618	1.919925	-0.167701	-8.06347	0.885982	3.244308	-0.260103	-0.609598	-0.583681
-1.428883	-0.306659	9.817377	0.353513	0.075997	-1.1345	0.605411	0.174217	-1.111177	1.783085	0.549562	9.545885	0.645956	-0.235546	-0.238171	0.303518	-0.223191	-0.930663	9.481341	2.267932	-0.410246	-8.469518	0.584004	2.727638	-0.273731	-0.594436	-0.56906
-1.539187	0.039038	10.044011	0.20072	0.011384	-0.920434	0.548943	0.158416	-1.092288	2.018636	0.943682	9.83425	0.675329	-0.357612	-0.270189	0.316193	-0.284397	-0.926924	9.778333	1.919048	-0.346321	-8.933083	0.615452	2.484659	-0.273731	-0.594436	-0.56906
-1.256255	0.038107	9.879019	-0.075026	-0.052758	-0.79801	0.5474	0.2135	-1.105951	1.911644	1.113221	10.228452	0.550779	-0.421517	-0.116784	0.317009	-0.236292	-0.958635	9.370317	2.095457	-0.053748	-9.273276	0.460969	2.517192	-0.245773	-0.595681	-0.537864
-1.65658	-0.59346	9.86857	-0.104997	-0.02356	-0.674777	0.589776	0.195077	-1.089507	1.678403	0.775527	10.053413	0.549337	-0.543573	-0.210483	0.343106	-0.265711	-0.971528	9.313076	1.805459	0.003823	-9.272642	0.583958	2.455476	-0.301476	-0.595671	-0.553673
-1.146241	0.094501	9.654075	-0.439813	0.030767	-0.182242	0.563421	0.178869	-1.124205	1.895798	0.549252	9.435023	0.734741	-0.512368	0.067429	0.290832	-0.282404	-0.955072	9.729221	1.921408	0.191741	-9.058717	0.557297	2.149194	-0.27401	-0.609803	-0.583751
-1.368412	-0.133652	9.989774	-0.563072	-0.093081	-0.153232	0.5489	0.210314	-1.144763	1.912961	1.056938	10.285044	0.733339	-0.60557	0.25147	0.302777	-0.255975	-0.899956	9.722483	1.978001	-0.167453	-8.717498	0.927168	1.993376	-0.245848	-0.576183	-0.600813
-1.314374	-0.306742	9.819604	-0.411261	-0.182127	-0.369792	0.563778	0.199697	-1.155773	1.390252	0.945057	10.047511	0.76509	-0.543446	0.190457	0.303217	-0.284472	-0.926648	9.723448	2.036324	-0.107299	-8.378027	1.331412	1.470641	-0.245986	-0.593202	-0.584448
-1.203662	0.324308	9.653927	-0.470221	0.029928	-0.120832	0.564564	0.154855	-1.131449	1.799447	0.212196	10.281915	0.766493	-0.450243	0.006416	0.290762	-0.237514	-0.943733	9.895535	1.802378	-0.404521	-8.282967	1.699452	1.407414	-0.23159	-0.561439	-0.570524
-2.00151	-0.191361	9.806725	-0.288112	-0.151866	-0.277651	0.576798	0.171438	-1.096402	1.557335	0.719175	9.76775	0.952949	-0.356299	0.069156	0.251464	-0.254132	-0.927553	10.017024	2.20963	-0.160962	-8.806568	1.851777	1.28633	-0.260103	-0.609598	-0.583681
-1.146159	-0.020382	9.653592	-0.00956	0.217161	-0.180451	0.562664	0.189112	-1.113545	1.729254	0.493482	9.714547	1.075472	-0.446122	-0.024122	0.328804	-0.240505	-0.901511	9.954281	1.918395	-0.402926	-9.177409	1.976273	0.950884	-0.245915	-0.594028	-0.56892
-1.659014	-0.306734	9.75607	0.111416	0.003306	-0.245611	0.563035	0.19264	-1.127621	1.388481	0.606979	9.933947	1.232826	-0.228702	-0.145146	0.316488	-0.283325	-0.941274	9.776942	1.570097	-0.467618	-10.046311	1.518104	0.589461	-0.259614	-0.57804	-0.569827
-1.479581	-0.132845	10.158106	-0.316937	-0.000783	-0.060437	0.548171	0.185958	-1.09912	1.620622	0.888296	10.052299	1.230526	-0.412491	-0.177804	0.328579	-0.286466	-0.8985	9.832542	2.092152	-0.584106	-10.881756	1.179254	0.532978	-0.260173	-0.608772	-0.599209
-0.977529	-0.308438	9.485167	0.05024	0.002672	-0.214777	0.562678	0.171812	-1.096053	1.561955	0.832025	9.994403	1.412498	-0.685521	-0.272856	0.290832	-0.282404	-0.955072	10.07685	1.861038	-0.161345	-11.684679	0.713113	0.965994	-0.260103	-0.609598	-0.583681
-1.43313	-0.594832	9.588759	0.083508	0.183034	0.156073	0.561177	0.174998	-1.057241	1.211381	0.381791	9.703572	1.597122	-0.715645	0.004445	0.316564	-0.268005	-0.942278	9.60335	1.978023	-0.229561	-12.425482	0.432624	1.214521	-0.259685	-0.577213	-0.585355
-1.140384	-0.306384	9.936651	0.113545	0.27885	-0.149135	0.590905	0.188363	-1.114243	1.674237	1.057037	9.883731	1.224095	-0.904138	-0.028557	0.328949	-0.270074	-0.913854	9.60308	2.094175	-0.229067	-13.443526	0.181726	1.463911	-0.231869	-0.576805	-0.585215
-1.315239	-0.651632	9.761304	0.266065	0.281651	-0.333536	0.549315	0.161944	-1.106364	1.907779	0.606057	10.001467	1.10317	-0.691453	0.035117	0.316048	-0.254828	-0.914582	10.067641	2.033289	-0.639859	-14.092886	-0.189567	1.651414	-0.27394	-0.610629	-0.568223
-1.371256	-0.823674	9.816319	0.052369	0.278216	-0.118301	0.562649	0.206411	-1.131037	1.850105	0.662495	10.000305	1.073055	-0.630515	0.035698	0.303217	-0.284472	-0.926648	9.482692	1.687172	-0.412719	-14.619748	-0.55884	1.685648	-0.287639	-0.59464	-0.569131
-1.320765	-0.71028	9.476797	0.082811	0.341561	-0.270699	0.605397	0.191516	-1.128668	1.501086	0.662999	9.823133	0.948465	-0.723273	-0.088637	0.329244	-0.269002	-0.928204	9.780939	1.745314	-0.227249	-14.840467	-0.860781	1.22944	-0.287501	-0.577622	-0.585496
-1.090717	-0.595322	9.538586	0.020608	0.218695	-0.303185	0.562692	0.154513	-1.078561	1.853301	0.887959	10.170414	1.379773	-0.809982	-0.058324	0.316784	-0.282253	-0.955624	9.837369	2.383768	-0.283336	-14.843738	-1.040849	0.894117	-0.246128	-0.591549	-0.615504
-1.319983	-0.250507	9.53558	-0.041965	0.190806	-0.57947	0.577184	0.157667	-1.092986	1.509441	0.719662	10.219658	1.471675	-0.870136	-0.058848	0.315973	-0.270149	-0.913578	9.595917	1.860141	-0.649404	-15.094037	-1.376327	0.713246	-0.259406	-0.561847	-0.570664
-1.258399	-0.077258	9.76483	0.172342	0.098569	-0.489582	0.576784	0.188737	-1.113894	1.677194	0.775479	9.996773	1.439885	-0.932462	0.032991	0.290617	-0.207945	-0.931391	9.851094	1.689575	0.372673	-15.061412	-1.255435	0.865366	-0.231661	-0.560613	-0.586052
-1.321014	-0.365631	9.478245	0.29381	0.133698	-0.826709	0.59089	0.205662	-1.131735	1.787489	0.775074	9.772633	1.715748	-1.083467	0.21668	0.328949	-0.270074	-0.913854	9.716825	1.569985	-0.528625	-15.033596	-1.466927	0.62177	-0.273873	-0.592784	-0.600116
-1.143807	-0.192224	9.766574	0.262496	0.010279	-0.797957	0.576798	0.171438	-1.096402	1.558867	0.550231	9.824247	2.11503	-1.262363	0.215222	0.304108	-0.221047	-0.959362	10.138627	2.093949	0.020465	-15.189124	-1.620112	0.592502	-0.245639	-0.559991	-0.60165
-1.324644	0.035736	9.309375	0.692224	0.229492	-0.97964	0.578313	0.150952	-1.117722	1.153384	0.607221	9.702553	2.486771	-1.166469	0.339787	0.277856	-0.282479	-0.954796	9.898296	2.035424	-0.223812	-14.973413	-1.867516	0.929095	-0.259685	-0.577213	-0.585355
-1.488572	-0.019892	9.703764	0.723265	0.291098	-0.978728	0.561906	0.199354	-1.102885	1.500224	1.113643	9.823512	2.701429	-1.286587	0.369594	0.342151	-0.224037	-0.91714	9.779838	1.745067	-0.287156	-15.285525	-2.265022	0.80987	-0.259823	-0.594232	-0.56899
-1.261491	-0.422631	9.592823	0.812872	0.079186	-1.227775	0.562664	0.189112	-1.113545	1.675985	0.775432	9.940134	2.91909	-1.161988	0.49432	0.277636	-0.26823	-0.94145	9.30881	1.746394	-0.236052	-15.321726	-3.031118	0.93591	-0.27401	-0.609803	-0.583751
-0.966477	-0.191142	10.05418	0.69266	0.259528	-0.917817	0.576784	0.188737	-1.113894	1.794958	0.662698	10.112376	3.472877	-1.338722	0.462181	0.316789	-0.222044	-0.945288	9.427402	1.978676	-0.172956	-15.235943	-3.732122	0.725003	-0.301409	-0.577826	-0.585566
-1.369443	-0.248776	9.932438	1.305968	0.355281	-0.979362	0.59129	0.174592	-1.110827	1.562494	0.550373	9.994166	3.903323	-1.487164	0.553535	0.3305	-0.249394	-0.986606	9.904068	1.920508	0.075228	-14.840839	-4.496029	0.788344	-0.273873	-0.592784	-0.600116
-1.427728	-0.363859	9.873989	1.581601	0.325837	-0.980634	0.563407	0.196168	-1.141697	1.680174	1.113605	10.166977	4.334393	-1.575081	0.768805	0.316193	-0.284397	-0.926924	9.429758	2.38595	0.008496	-14.969141	-5.170051	0.853152	-0.273943	-0.591958	-0.615644
-1.725917	-0.825838	9.241107	1.059442	0.20152	-1.073156	0.5493	0.179244	-1.123856	1.504605	0.719472	9.993099	4.887437	-1.812945	0.705228	0.316048	-0.254828	-0.914582	9.846152	1.920891	0.134035	-14.788934	-5.626006	0.640734	-0.259476	-0.561021	-0.586192
-1.425791	0.038714	9.989385	1.672998	0.202643	-0.921563	0.562664	0.189112	-1.113545	1.853409	0.831629	10.170366	5.656811	-2.047663	0.580201	0.277711	-0.25291	-0.942454	10.021581	2.617398	0.140303	-14.728431	-5.623578	0.426562	-0.273522	-0.578244	-0.569898
-1.308807	-0.305536	10.10387	1.702903	0.048432	-0.862819	0.589762	0.212376	-1.106999	1.568669	1.113963	10.334478	7.032903	-3.105729	0.940725	0.290467	-0.238586	-0.929384	9.673776	1.806133	0.369867	-14.35752	-5.375649	0.240658	-0.301547	-0.594845	-0.569201
-0.976498	-0.193314	9.542503	1.214394	0.259875	-0.735305	0.562678	0.171812	-1.096053	1.850991	0.831534	10.057087	8.191717	-4.343696	0.251129	0.303518	-0.223191	-0.930663	9.088036	2.273327	0.660375	-14.111835	-5.497115	0.240347	-0.245293	-0.526779	-0.618852
-1.312147	-0.306259	9.933311	1.370199	0.56617	-0.577435	0.562649	0.206411	-1.131037	2.084987	0.774915	10.231794	9.375848	-5.953901	0.266899	0.316784	-0.282253	-0.955624	9.67115	1.515011	0.18891	-13.771664	-5.280515	0.11583	-0.259756	-0.576387	-0.600883
-1.202092	-0.307307	9.708125	1.368999	0.569647	-0.884055	0.563807	0.165098	-1.120789	1.461893	1.170841	10.728585	8.541059	-8.362098	1.167126	0.329395	-0.238361	-0.930211	9.671595	2.270494	0.311938	-13.401082	-5.031955	-0.131201	-0.245218	-0.546277	-0.555904
-1.607534	-0.020775	9.474125	0.877761	0.507284	-1.006327	0.534437	0.172561	-1.095355	1.277216	1.114359	10.158514	5.850685	-10.861423	3.020632	0.290687	-0.252835	-0.94273	9.850574	2.386735	0.435547	-13.18742	-5.368598	-0.03868	-0.288127	-0.626199	-0.582984
-1.436926	0.036301	9.420854	0.785281	0.289299	-0.794927	0.577927	0.164723	-1.121138	1.340155	0.832788	10.386045	5.549142	-12.648272	3.711674	0.316859	-0.266933	-0.956627	9.07319	2.502417	-0.117426	-12.879359	-4.994438	-0.622275	-0.287643	-0.575969	-0.616551
-1.09109	-0.078348	9.540758	-0.072689	0.159583	-0.549221	0.561163	0.192298	-1.074733	1.793426	0.831642	10.055878	5.626115	-13.84574	4.100598	0.316413	-0.298646	-0.94027	9.319969	2.155646	0.424654	-12.603472	-4.897261	-1.051615	-0.258913	-0.54896	-0.50939
-1.545577	-0.3645	9.701203	0.019048	0.223215	-0.701791	0.549672	0.182772	-1.137932	2.138926	0.774665	10.063084	4.136192	-16.810884	4.470686	0.290392	-0.253906	-0.92838	9.910016	2.677227	0.497791	-12.634859	-4.647935	-1.51113	-0.259406	-0.561847	-0.570664
-1.662562	-0.020251	9.586718	-0.287923	0.317108	-0.975395	0.563807	0.165098	-1.120789	1.914708	0.775333	10.341447	-4.910949	-18.893751	5.305893	0.303217	-0.284472	-0.926648	9.790863	2.212395	0.373798	-13.005228	-4.400144	-1.938845	-0.245915	-0.594028	-0.56892
-1.428676	-0.593867	9.816171	-0.105084	0.039294	-0.796427	0.592034	0.181648	-1.138979	1.975629	1.791748	13.28756	1.173673	-24.071665	2.330616	0.291202	-0.266011	-0.970426	9.780709	2.791177	-0.102985	-13.226172	-4.453271	-2.793536	-0.273802	-0.59361	-0.584588
-1.652458	-0.132962	10.097913	-0.318584	0.066591	-0.580693	0.563435	0.16157	-1.106713	2.391593	0.437104	11.087148	4.630098	-34.426716	-1.962173	0.27712	-0.255053	-0.913754	10.141388	2.326995	0.201175	-13.442141	-4.174336	-3.221955	-0.245915	-0.594028	-0.56892
-1.832839	-0.536859	9.638059	-0.840552	-0.026995	-0.672716	0.577556	0.161195	-1.107062	1.257256	1.67929	11.970247	3.499291	-35.96997	-2.65664	0.264145	-0.255128	-0.913479	9.493176	2.386803	0.249224	-14.117701	-3.809396	-3.251812	-0.245777	-0.577009	-0.585285
-1.143683	-0.364549	9.765851	-1.116233	0.033877	-0.732269	0.56152	0.213125	-1.1063	1.82069	1.114385	11.358826	2.074836	-40.909034	-0.518099	0.277045	-0.270374	-0.912751	9.969262	1.631229	0.374627	-14.456965	-3.65515	-3.495816	-0.245356	-0.563296	-0.539539
-1.551435	0.036384	9.418627	-1.360786	0.0935	-0.66926	0.534408	0.20716	-1.130338	1.940418	0.607337	11.530736	1.164238	-44.479866	-0.276877	0.276455	-0.272518	-0.884051	9.437326	2.445756	0.428091	-14.574469	-3.045708	-3.314926	-0.232354	-0.627035	-0.551648
-1.836469	-0.135492	9.469188	-1.78827	0.149484	-0.360439	0.577556	0.161195	-1.107062	2.235175	0.776074	11.87676	4.51254	-48.420867	-0.837437	0.251319	-0.224563	-0.91521	10.144555	2.385813	0.381142	-14.352347	-2.373866	-3.135565	-0.287013	-0.546063	-0.571642
-1.136179	0.039231	10.165511	-1.91164	-0.06795	-0.210278	0.576427	0.167909	-1.082326	2.111689	0.719627	11.477818	8.888184	-51.706267	-1.174855	0.277265	-0.284622	-0.926097	9.905034	1.978832	0.135383	-14.255463	-1.667778	-3.35322	-0.245289	-0.545451	-0.571431
-1.317798	-0.192583	9.649528	-1.758301	-0.224023	0.062756	0.57677	0.206036	-1.131386	2.458291	0.719028	11.541711	12.708579	-54.994158	-2.221788	0.251684	-0.26838	-0.940899	9.315432	2.212733	0.185274	-13.941056	-0.80891	-3.480706	-0.245498	-0.561643	-0.570594
-1.315944	0.324874	9.765406	-1.666836	-0.222203	-0.06015	0.548929	0.175715	-1.10978	2.272728	0.493508	10.914859	16.497361	-58.314591	-3.053271	0.237897	-0.25635	-0.898578	9.209775	2.099571	0.841554	-13.015282	-0.465633	-3.821879	-0.273451	-0.57907	-0.55437
-1.311158	-0.133694	9.990888	-1.511247	-0.103079	0.340021	0.576027	0.19898	-1.103234	2.678319	0.380187	11.036506	18.809054	-61.165509	-3.51134	0.250798	-0.271596	-0.89785	9.55947	2.097772	0.608529	-11.93758	-0.490135	-4.039598	-0.245844	-0.594854	-0.553392
-1.375093	-0.1351	9.648656	-1.819554	-0.255736	0.123752	0.590905	0.188363	-1.114243	2.856737	0.549092	11.323473	21.03207	-63.624291	-3.133228	0.237892	-0.31656	-0.908913	9.623988	2.098873	0.909164	-10.705444	-0.607741	-4.074061	-0.231869	-0.576805	-0.585215
-1.258067	-0.536791	9.7629	-1.236493	-0.098662	0.063291	0.576027	0.19898	-1.103234	2.330186	0.54973	10.916115	23.81668	-65.674632	-3.151367	0.237672	-0.302312	-0.895567	9.388619	2.273888	0.965411	-9.751783	-0.724455	-4.290891	-0.287501	-0.577622	-0.585496
-1.025834	-0.363908	9.938637	-1.267468	-0.035256	-0.119597	0.5497	0.148173	-1.102948	2.966732	1.337362	11.156636	27.295201	-66.581715	-3.095928	0.199334	-0.300393	-0.923439	9.624549	2.331424	0.97006	-8.332655	-0.845179	-3.959274	-0.301614	-0.61269	-0.537308
-1.202507	0.267108	9.710538	-0.806445	0.150934	-0.08723	0.563421	0.178869	-1.124205	2.859501	0.999879	11.493771	34.257107	-65.516453	-2.370696	0.223961	-0.274961	-0.854249	9.44584	2.099031	0.845956	-6.757458	-0.937911	-3.322735	-0.273731	-0.594436	-0.56906
-1.837749	0.094033	9.413301	-0.561586	0.215629	-0.270891	0.534408	0.20716	-1.130338	3.53742	0.772742	10.885053	40.191796	-65.163061	-2.670687	0.185768	-0.302612	-0.894464	8.855793	1.577449	0.77282	-5.768291	-0.783938	-3.082555	-0.26024	-0.626617	-0.567316
-1.427728	-0.363859	9.873989	-0.161884	0.245092	0.004449	0.548929	0.175715	-1.10978	3.708106	-0.072682	10.718049	43.045195	-64.293074	-3.522924	0.172942	-0.272046	-0.896195	9.57198	1.926263	1.266764	-4.748786	-0.628908	-2.934176	-0.273105	-0.545859	-0.571572
-1.834367	0.037315	9.583619	-0.345619	0.306392	-0.055362	0.561921	0.182055	-1.085393	2.904308	0.717597	10.871707	49.672385	-62.917119	-4.058816	0.160557	-0.269977	-0.924619	9.212786	1.751609	0.959885	-3.573019	-0.57045	-2.266344	-0.24571	-0.559164	-0.617178
-1.428966	-0.191776	9.81786	-0.22402	0.247239	-0.210013	0.520673	0.193764	-1.126573	3.536426	0.660033	10.828318	56.429616	-60.931923	-3.694539	0.159075	-0.335546	-0.863205	9.74009	1.981956	0.791057	-2.893179	-0.695097	-1.809776	-0.260103	-0.609598	-0.583681
-1.143724	-0.307107	9.766092	0.022398	0.307414	0.004931	0.561906	0.199354	-1.102885	3.410631	0.547161	10.316049	65.559851	-56.92042	-3.708973	0.119927	-0.321523	-0.849032	9.619431	1.691104	0.607899	-2.338657	-0.816404	-1.719518	-0.273731	-0.594436	-0.56906
-1.601718	-0.364217	9.756943	-0.284652	0.02592	0.307919	0.561921	0.182055	-1.085393	2.503875	0.662116	10.976476	77.009643	-50.036744	-2.244076	0.146174	-0.320301	-0.863933	9.801847	1.750012	0.910982	-1.570084	-1.119839	-1.690291	-0.287639	-0.59464	-0.569131
-1.595162	-0.190445	10.098785	-0.43643	0.177473	0.433491	0.561506	0.230425	-1.123792	1.084808	0.043549	9.134474	82.002148	-36.091049	-0.529195	0.146394	-0.33455	-0.877279	9.611458	1.805526	0.189045	-0.798463	-1.33592	-1.233616	-0.273593	-0.577418	-0.585425
-1.428883	-0.306659	9.817377	-0.528921	0.053421	0.493076	0.548943	0.158416	-1.092288	-1.209154	-0.684152	9.425338	86.64626	-22.080695	9.232282	0.15922	-0.365115	-0.875548	9.674451	1.515752	0.36863	-0.211895	-0.962644	-1.634835	-0.245639	-0.559991	-0.60165
-1.310293	0.211197	10.049189	-0.618846	0.234949	0.71096	0.534051	0.186333	-1.09877	-1.587663	-1.69883	7.774683	83.795356	-18.941484	25.47734	0.158184	-0.398972	-0.830491	9.626034	1.692588	0.967341	0.339376	-1.326143	-1.787909	-0.273176	-0.545033	-0.5871
-1.143973	0.037542	9.76754	-0.831723	0.416948	0.837202	0.534022	0.220931	-1.133754	-1.069003	-3.504855	4.953274	56.649544	-15.045313	42.913295	0.119256	-0.399197	-0.829664	9.668274	1.804896	0.070332	1.359465	-1.079031	-1.670533	-0.273873	-0.592784	-0.600116
-1.031525	-0.19279	9.655095	-0.923428	0.415823	0.898783	0.561921	0.182055	-1.085393	-1.031936	-2.65838	6.766453	21.493506	-2.739339	52.904138	0.119771	-0.412374	-0.85736	9.441573	2.039966	0.606081	2.189523	-0.916156	-2.346689	-0.315388	-0.577204	-0.601164
-1.028226	-0.134625	9.825896	-1.137399	0.350576	1.143681	0.548943	0.158416	-1.092288	-0.396486	-2.319104	9.610807	8.599271	4.101643	60.207215	0.132527	-0.39805	-0.84429	9.9082	2.037649	0.31535	3.485946	-0.603714	-2.536248	-0.287151	-0.563082	-0.555277
-1.258275	-0.249583	9.764106	-1.322522	0.290688	0.928566	0.548929	0.175715	-1.10978	-0.399443	-2.037546	9.497765	14.467247	6.819331	63.938795	0.107096	-0.351167	-0.861099	9.967351	1.979438	0.316204	4.447805	0.226584	-2.635381	-0.287151	-0.563082	-0.555277
-1.254976	-0.191418	9.934907	-1.41153	0.500862	1.330918	0.534808	0.17609	-1.109431	-0.026945	-2.546508	8.033171	13.781628	8.743928	63.679896	0.158109	-0.414292	-0.829488	10.152238	1.922688	0.738606	4.975868	0.593652	-2.455672	-0.274007	-0.628474	-0.536331
-1.254028	0.03859	9.992725	-1.350474	0.501843	1.269423	0.563792	0.182397	-1.138281	0.428874	-1.984207	7.873397	3.658484	11.403638	59.258411	0.119922	-0.381733	-0.859367	10.03295	1.515931	0.614861	5.502213	0.870843	-2.458901	-0.259543	-0.578866	-0.5543
-1.260253	-0.594715	9.648952	-1.47323	0.533046	1.17828	0.562292	0.185583	-1.099469	0.327579	-2.265123	8.493778	-5.648481	14.915867	52.626239	0.093159	-0.369778	-0.81677	9.796075	1.864927	0.611942	6.247293	1.515888	-2.464677	-0.259406	-0.561847	-0.570664
-1.435357	-0.595314	9.475052	-1.473603	0.283714	1.480906	0.576413	0.185209	-1.099818	0.902825	-1.421195	8.563218	-10.850837	18.028878	44.667761	0.119482	-0.353236	-0.832675	9.439642	1.923319	0.485773	6.707375	1.61531	-3.0475	-0.28743	-0.578448	-0.569968
-1.724395	0.15115	9.358916	-1.288567	0.406457	1.574371	0.577556	0.161195	-1.107062	0.844243	-2.153479	8.448113	-15.096578	21.005303	35.999724	0.107021	-0.366487	-0.860095	9.319389	1.458239	0.301874	7.01264	1.653313	-3.660028	-0.273451	-0.57907	-0.55437
-1.42575	-0.018728	9.989143	-1.227347	0.375664	1.604362	0.548529	0.206786	-1.130687	0.720974	-2.322587	8.049076	-21.136386	23.776792	27.050888	0.145434	-0.353086	-0.833227	9.32242	1.575133	0.482089	7.046428	1.772	-3.293972	-0.287989	-0.60918	-0.599349
-1.605059	-0.364941	9.586383	-1.01247	0.56349	1.392123	0.548957	0.141117	-1.074796	0.564578	-1.363934	8.89585	-27.081576	26.817906	19.245652	0.106946	-0.381808	-0.859092	9.90928	1.573041	0.313373	7.104342	1.530971	-3.629214	-0.287848	-0.610833	-0.568294
-1.767997	-0.248004	10.03835	-0.552964	0.722772	1.086712	0.577541	0.178494	-1.124554	0.052857	-1.531718	9.168025	-31.943435	30.226909	13.541432	0.132828	-0.336768	-0.848304	9.730436	1.398724	0.189516	6.913775	1.230398	-4.207766	-0.301551	-0.576173	-0.616621
-1.600771	-0.13421	9.814761	-0.67381	0.842345	1.334345	0.563421	0.178869	-1.124205	0.455707	-1.476142	9.176535	-36.714166	33.686663	9.625916	0.132828	-0.336768	-0.848304	9.742966	1.692071	0.909635	6.662852	0.989207	-4.633571	-0.259614	-0.57804	-0.569827
-1.423067	-0.650102	10.100195	-0.950287	0.874223	1.120985	0.5497	0.148173	-1.102948	0.625124	-1.025916	9.067262	-42.159111	37.768464	7.719929	0.132898	-0.381658	-0.859643	9.908335	1.979573	0.315103	6.225086	0.471414	-4.996256	-0.287781	-0.592988	-0.600186
-1.263635	-0.537997	9.478634	-0.950647	0.875266	1.028999	0.534808	0.17609	-1.109431	0.00246	-0.855312	9.563863	-46.803574	41.788575	7.417063	0.145874	-0.381583	-0.859919	10.03295	1.515931	0.614861	6.130127	0.351561	-5.270394	-0.259969	-0.573908	-0.647466
-1.375958	-0.47999	9.590355	-0.981558	0.719378	1.210561	0.575255	0.226522	-1.110065	0.523852	-0.687148	9.744804	-50.656011	45.101604	8.957518	0.145283	-0.383727	-0.831219	9.438136	2.0973	0.426608	5.784156	0.021737	-6.031605	-0.273664	-0.576591	-0.600953
-1.207618	-0.365955	9.423619	-1.040595	0.900354	1.489682	0.57717	0.174966	-1.110478	0.518694	-0.518346	9.518388	-54.544744	48.10017	11.635486	0.120518	-0.319379	-0.877732	9.618601	1.574705	0.547498	6.119408	-0.217976	-6.398411	-0.232562	-0.643228	-0.550811
-1.429007	-0.134334	9.818101	-0.827401	0.748739	1.394601	0.563435	0.16157	-1.106713	0.348092	-0.348937	9.628182	-58.222799	50.757573	15.327602	0.146394	-0.33455	-0.877279	9.493291	1.863872	0.187092	6.300522	-0.240965	-7.071304	-0.287151	-0.563082	-0.555277
-1.546442	-0.709391	9.642902	-0.859228	0.564205	1.391693	0.547786	0.199729	-1.102535	0.296055	0.552744	9.96757	-60.942716	53.54286	20.069984	0.13475	-0.299696	-0.93641	9.614334	1.51564	0.307623	7.19148	-0.262665	-7.624527	-0.260032	-0.610425	-0.568153
-0.969734	-0.306749	9.883139	-0.675143	0.595796	1.391677	0.561921	0.182055	-1.085393	-0.217198	0.553904	10.183248	-61.519629	57.270144	25.532589	0.171831	-0.321223	-0.850135	10.027468	1.979551	0.377211	7.496926	-0.287101	-8.114491	-0.232287	-0.60919	-0.583541
-1.6725	-0.137305	9.074557	-0.490523	0.500635	1.726943	0.548543	0.189486	-1.113196	0.013625	0.891503	10.245008	-60.84519	62.180267	30.638067	0.185623	-0.273043	-0.882121	9.783295	2.152588	-0.045797	8.453053	-0.377323	-7.934158	-0.302039	-0.607732	-0.630475
-1.669201	-0.07914	9.245358	-0.643994	0.406681	1.817861	0.548557	0.172187	-1.095704	0.292883	0.946963	9.854623	-60.207626	66.514899	34.597125	0.199485	-0.269752	-0.925446	9.795089	1.341749	0.489903	9.068485	-0.341679	-8.211605	-0.246262	-0.627239	-0.551718
-1.199865	-0.306825	9.821831	-0.675518	0.002156	2.240723	0.534794	0.193389	-1.126922	0.017922	1.173345	10.471803	-60.808669	70.476988	36.855839	0.186804	-0.268755	-0.93952	9.498948	2.271888	0.548264	9.875936	0.178072	-7.9114	-0.246683	-0.640953	-0.597464
-1.322334	-0.078665	9.422598	-0.400067	-0.151954	2.390763	0.605425	0.156918	-1.093685	0.654552	1.284963	10.655115	-59.951531	74.802405	37.916964	0.173388	-0.240333	-0.912552	9.321319	1.574886	0.422182	10.681535	0.484013	-7.640729	-0.274014	-0.591131	-0.631172
-1.26479	-0.480797	9.422022	-0.582483	-0.094477	2.668229	0.549315	0.161944	-1.106364	0.772987	1.453881	10.827594	-57.712888	78.296785	37.491073	0.212241	-0.255429	-0.912376	9.322015	1.749361	0.482831	11.053749	0.6364	-7.459437	-0.274499	-0.641361	-0.597605
-1.657818	-0.421376	9.812441	-0.766153	0.091837	2.426446	0.562678	0.171812	-1.096053	1.000854	2.073039	10.776312	-55.214561	80.325026	36.804164	0.213132	-0.192003	-0.94509	9.562596	1.226879	0.664728	11.855295	0.577474	-7.400937	-0.301685	-0.611863	-0.552836
-1.313385	-0.134176	9.877181	0.3676	0.348201	1.967336	0.590919	0.171063	-1.096751	1.638454	1.677682	10.959196	-53.695123	80.600689	35.081631	0.19971	-0.223791	-0.928457	9.54827	0.758809	-0.175946	12.162102	0.426266	-7.462448	-0.315388	-0.577204	-0.601164
-1.313095	-0.536267	9.875492	0.492201	0.624664	2.032806	0.576813	0.154138	-1.07891	1.689329	2.01532	10.677492	-52.581849	80.504666	33.170099	0.226033	-0.207248	-0.944362	9.497267	1.574234	0.365576	12.680469	-0.181748	-7.64479	-0.287848	-0.610833	-0.568294
-1.368537	0.038673	9.990498	0.33869	0.906445	1.516478	0.534808	0.17609	-1.109431	1.631656	2.071758	10.67633	-50.853456	80.172483	31.07174	0.238418	-0.209317	-0.915938	9.906944	1.630623	0.193806	13.19733	-0.724797	-8.194167	-0.260311	-0.625791	-0.582844
-1.605556	0.324357	9.589279	0.249039	1.149784	1.704697	0.562278	0.202883	-1.116961	2.159954	1.789515	11.14009	-47.913574	80.375425	29.164667	0.213207	-0.176683	-0.946093	9.850939	1.282796	0.311036	13.962453	-1.301014	-8.408114	-0.218099	-0.59362	-0.56878
-1.253738	-0.363501	9.991036	-0.23979	1.330842	1.801049	0.562278	0.202883	-1.116961	2.789439	1.844518	10.983517	-44.360529	80.217798	27.346997	0.252575	-0.204955	-0.973613	9.734952	0.876781	0.367011	14.883908	-1.880773	-8.225319	-0.232007	-0.593824	-0.56885
-1.080902	-0.305943	10.051471	0.220617	1.268395	2.074717	0.547814	0.16513	-1.067552	3.132629	1.731115	10.877396	-40.952338	78.431318	25.944627	0.226183	-0.176608	-0.946369	9.550626	1.166083	0.005505	15.683371	-1.842573	-8.686808	-0.27394	-0.610629	-0.568223
-1.319859	-0.422831	9.534856	0.096072	1.210879	1.675462	0.563035	0.19264	-1.127621	4.050504	2.123609	10.783792	-37.779315	75.198866	24.928472	0.291289	-0.130271	-0.950759	9.794529	1.109197	0.429008	16.63861	-1.899998	-8.720554	-0.27401	-0.609803	-0.583751
-1.080861	-0.363384	10.051229	1.168357	1.154424	1.671458	0.548171	0.185958	-1.09912	3.764748	1.673551	10.834007	-34.562617	70.699547	25.564551	0.278753	-0.158843	-0.977175	9.38045	1.051819	0.36115	17.627779	-1.714806	-8.541655	-0.260173	-0.608772	-0.599209
-1.138157	-0.305901	10.050357	0.892089	1.1231	1.610409	0.57717	0.174966	-1.110478	4.434682	2.460127	9.942945	-31.853383	65.324493	27.887149	0.291873	-0.188337	-0.989793	9.794934	0.934969	0.428266	18.555988	-1.717469	-7.964347	-0.274077	-0.627648	-0.551858
-1.318704	-0.480032	9.591468	1.136825	1.188142	1.396088	0.57717	0.174966	-1.110478	4.898701	1.896054	10.065421	-29.824486	57.63051	31.943454	0.304039	-0.176157	-0.948024	9.445239	0.936768	0.661291	19.486568	-1.569392	-7.173837	-0.273873	-0.592784	-0.600116
-1.488364	-0.3071	9.702558	1.379442	0.883707	1.237104	0.562678	0.171812	-1.096053	5.92711	2.795165	9.804742	-28.536458	47.680221	37.364122	0.292174	-0.127055	-0.993808	9.320334	1.051707	0.300143	20.788971	-1.640729	-5.741832	-0.274148	-0.626821	-0.567386
-1.257078	-0.364225	9.820477	1.252342	0.426678	0.831361	0.575998	0.233579	-1.138217	6.841681	3.018526	9.541076	-26.047358	34.929887	41.92554	0.304855	-0.128052	-0.979734	9.32321	0.761821	0.418721	21.629524	-1.435589	-4.584513	-0.246403	-0.625587	-0.582774
-1.430245	0.037749	9.761972	1.618599	0.401487	0.492552	0.591691	0.143521	-1.08992	24.252225	18.566137	47.568875	-77.121275	-5.639392	-0.015356	0.318201	-0.111585	-0.995363	9.26792	1.053326	0.658484	23.246165	-0.740771	-3.187835	-0.274148	-0.626821	-0.567386
-1.42777	-0.306418	9.874231	1.554388	0.00273	0.394252	0.562692	0.154513	-1.078561	12.867345	4.811553	11.650706	52.769263	-37.587101	26.191876	0.317316	-0.114801	-0.952314	9.08564	0.936342	0.355154	25.263821	-0.262101	-1.455374	-0.274361	-0.624343	-0.61397
-1.260585	-0.135182	9.650883	1.458589	-0.581258	0.354369	0.505453	0.166254	-1.066504	15.565632	4.970474	5.989486	119.038179	-61.487014	1.128677	0.30515	-0.12698	-0.994084	9.321954	0.354795	0.297176	26.834069	0.745029	2.262816	-0.246821	-0.657972	-0.5811
-1.198876	-0.134259	9.879408	1.890269	0.039208	0.025864	0.563792	0.182397	-1.138281	21.83897	1.695992	11.157013	101.709327	-67.709284	-33.350161	0.31687	-0.146513	-0.935957	8.909982	1.285698	0.47315	27.411889	1.542053	5.252172	-0.260382	-0.624965	-0.598372
-1.030453	-0.135107	9.71219	5.322075	0.99631	-1.655204	0.563392	0.213468	-1.159188	25.868397	7.990835	3.717508	97.402651	-76.037202	-58.281561	0.252355	-0.190706	-0.960267	9.141625	0.819314	0.176039	28.393408	3.018231	7.778423	-0.246959	-0.67499	-0.564735
-1.487292	-0.249417	9.759652	5.750089	1.408256	-2.569791	0.548929	0.175715	-1.10978	0.86012	6.123619	4.54937	48.41368	-30.898553	-58.057287	0.265777	-0.158918	-0.976899	9.147822	0.995025	0.536222	28.975459	4.8629	10.029325	-0.260311	-0.625791	-0.582844
-1.427811	-0.248976	9.874472	6.849389	2.050986	-4.586636	0.562292	0.185583	-1.099469	4.003551	1.389416	8.517591	-3.306256	30.558783	-9.861665	0.277566	-0.223341	-0.930111	9.429623	2.444026	0.008743	26.836784	7.332344	10.086415	-0.260099	-0.62827	-0.53626
-1.422285	-0.190328	10.158979	8.893367	2.682369	-7.925188	0.577541	0.178494	-1.124554	-1.491579	-0.73737	12.363297	-3.997265	24.300886	-15.319237	0.251985	-0.207098	-0.944913	10.596201	2.670662	-0.687142	25.515717	10.709437	17.319278	-0.274074	-0.646319	-0.504438
-1.367258	-0.190852	10.046386	13.785881	3.112284	-11.305952	0.577541	0.178494	-1.124554	0.002681	-1.35995	12.224288	15.569978	-9.207819	3.476491	0.291428	-0.22005	-0.973436	11.246148	1.39101	-0.80029	23.735126	13.672192	20.093224	-0.246124	-0.610221	-0.568083
-1.937533	-0.247397	10.148716	18.100006	3.496581	-13.612393	0.590919	0.171063	-1.096751	2.244062	0.943061	9.612528	27.101538	-17.703543	7.378165	0.304184	-0.205726	-0.960366	11.189313	0.926784	-0.743461	20.796784	18.181094	11.982145	-0.26024	-0.626617	-0.567316
-1.194422	-0.133294	10.106821	19.274713	5.19398	-13.741538	0.548557	0.172187	-1.095704	1.885611	1.450208	9.039305	17.458719	-6.079884	7.116038	0.225662	-0.223641	-0.929009	10.71956	1.799994	-0.508929	19.036549	22.157762	11.388794	-0.288407	-0.641565	-0.597675
-1.359422	-0.246605	10.444116	19.774023	6.641329	-13.780791	0.564193	0.151327	-1.117373	1.273997	0.269212	9.931245	7.696895	-4.094909	3.459338	0.304554	-0.189334	-0.975719	9.675261	1.167296	0.367147	21.460536	22.50327	14.312703	-0.260378	-0.643636	-0.550951
-1.129249	-0.303971	10.505182	21.569298	9.258277	-13.43672	0.548572	0.154888	-1.078212	1.565235	0.381476	10.107303	10.59751	-6.698563	3.990693	0.264445	-0.193847	-0.917493	9.272612	1.403018	0.959502	25.786133	22.468111	10.32364	-0.287288	-0.5801	-0.538912
-0.918425	-1.961697	12.43453	20.665491	11.999703	-6.212841	0.534823	0.15879	-1.091939	1.796813	0.324762	10.168731	13.701337	-7.889448	4.567088	0.26481	-0.237664	-0.943182	9.282557	2.334954	1.622433	29.252736	22.9184	6.427191	-0.246541	-0.642606	-0.566409
-1.786605	-1.331149	11.965657	27.279832	24.484855	-4.127482	0.591305	0.157292	-1.093336	2.256259	0.887205	10.178876	14.153374	-8.916366	3.046653	0.264515	-0.238736	-0.928832	10.047721	2.739483	1.578563	32.840972	23.065317	8.247376	-0.274495	-0.660032	-0.550184
-1.859749	-1.551906	14.066029	21.683809	36.176158	3.285642	0.591276	0.191891	-1.128319	1.88585	1.95723	9.096371	5.968675	-6.587524	1.460155	0.238858	-0.237814	-0.94263	10.64325	2.797445	1.889349	34.894085	24.311849	9.701116	-0.246195	-0.609394	-0.583611
-2.764028	-0.916732	14.676252	39.914269	49.242842	12.921477	0.576784	0.188737	-1.113894	1.33234	0.494473	9.989283	-1.395939	-5.264934	0.604192	0.252205	-0.221347	-0.958259	11.102444	2.677246	1.178775	34.770418	24.249902	9.732424	-0.246403	-0.625587	-0.582774
-2.446272	-2.243926	13.312908	32.862743	71.532612	22.595475	0.592419	0.167877	-1.135563	1.908079	-0.182618	9.944163	1.314636	-5.902676	0.230094	0.265111	-0.176382	-0.947196	12.030081	3.194309	0.359911	34.54421	23.150902	9.432836	-0.232637	-0.62373	-0.613759
-1.907273	-1.147602	14.578283	35.448242	82.853576	30.591125	0.634452	0.111327	-1.07006	1.673783	0.662676	9.82676	1.481146	-5.064886	-0.963736	0.278747	-0.219053	-0.98751	12.559991	3.250923	0.310155	32.90869	21.032279	6.667468	-0.287777	-0.611659	-0.552766
-1.804272	-0.633124	14.01415	36.474869	96.81513	35.353067	0.633666	0.156168	-1.094383	1.781768	0.605845	9.489293	-2.021265	-3.662042	-1.908273	0.26481	-0.237664	-0.943182	12.4458	3.01963	0.486686	31.085384	18.390416	4.14985	-0.274081	-0.608976	-0.599279
-1.968116	-0.803635	14.408058	35.167078	111.4072	37.678993	0.619917	0.160071	-1.10811	1.618073	0.324848	9.881906	-5.503822	-3.0892	-2.491111	0.251834	-0.237739	-0.942906	12.504701	3.542427	0.549919	30.202613	16.064163	3.980764	-0.246265	-0.608568	-0.599139
-1.969478	-0.459227	14.352652	29.065758	124.982271	38.254503	0.634795	0.149454	-1.119119	1.790661	0.380855	9.88558	-7.440029	-2.316391	-2.515812	0.290316	-0.269227	-0.927376	12.030081	3.194309	0.359911	30.315295	14.563379	4.201466	-0.260173	-0.608772	-0.599209
-1.274548	-0.572919	14.763503	28.329816	139.511415	38.09423	0.690177	0.120071	-1.060796	2.078165	0.549308	9.891767	-9.627506	-1.854381	-2.389666	0.238633	-0.283776	-0.939619	11.548203	3.599943	-0.126417	30.231261	13.456788	1.731399	-0.27429	-0.625169	-0.598442
-1.216304	-0.400395	14.822194	27.794433	156.307065	38.522139	0.677214	0.079133	-1.0502	1.904044	0.662245	9.831595	-11.196234	-1.3228	-2.323987	0.278012	-0.191628	-0.946468	10.670218	2.848217	0.153397	29.751737	13.394243	-1.261734	-0.288198	-0.625373	-0.598512
-1.622611	-0.458752	14.529893	23.015619	171.998157	37.012679	0.718818	0.088252	-1.040587	1.449758	-0.069	10.047866	-11.742065	-0.56041	-2.748436	0.264885	-0.222344	-0.944185	9.548506	3.02501	0.13323	29.341364	13.255605	-2.787705	-0.204888	-0.641167	-0.581726
-1.319471	-0.685107	15.387291	27.105624	187.754873	38.667518	0.690577	0.089001	-1.039889	1.619282	0.324896	9.938545	-11.946912	0.326733	-2.832264	0.251834	-0.237739	-0.942906	9.185606	3.023843	-0.352628	29.281926	13.965303	-3.402119	-0.27401	-0.609803	-0.583751
-2.225728	-0.395065	15.88236	30.753322	202.952607	37.892341	0.717704	0.077667	-0.998359	1.90195	0.493158	9.718174	-11.965221	1.222262	-3.840694	0.251985	-0.207098	-0.944913	8.716218	2.793113	-0.242606	29.599103	15.253804	-3.653912	-0.302874	-0.672502	-0.627127
-1.48126	0.925793	15.959238	45.82424	213.179016	35.960966	0.761223	0.03523	-0.98916	1.453407	0.550825	10.274946	-11.934446	1.136094	-4.673877	0.25162	-0.163281	-0.919225	7.833851	2.505253	-0.140535	29.338753	17.238477	-3.387382	-0.218658	-0.624352	-0.598161
-2.79287	-0.163678	16.156456	62.039841	221.242575	32.917938	0.830311	0.053843	-0.969585	1.615332	0.493745	9.768769	-11.567207	0.864815	-4.676279	0.239084	-0.191853	-0.945641	8.599846	3.026182	-0.124005	28.919654	19.262354	-4.006761	-0.233051	-0.674786	-0.564664
-2.412464	0.291222	15.142825	77.125837	219.830407	30.919827	0.816176	0.071517	-0.986728	1.098991	0.21311	9.814291	-10.802186	0.320836	-4.403623	0.251834	-0.237739	-0.942906	7.77335	3.144224	-0.138916	27.417534	20.637394	-4.374625	-0.218587	-0.625179	-0.582633
-2.653315	-0.285682	14.510574	84.852428	213.205975	27.876904	0.844089	0.015341	-0.920875	1.571171	0.438044	10.390548	-8.749308	-0.944656	-3.828825	0.251614	-0.223491	-0.92956	7.764256	2.793543	-0.679562	24.64319	20.936182	-4.641061	-0.246616	-0.623108	-0.629357
-4.14797	1.277698	17.15912	109.74545	215.381984	22.198557	0.872701	0.01812	-0.935649	1.457142	0.494637	10.444817	-5.455543	-1.766976	-2.971171	0.226843	-0.219353	-0.986407	8.2354	2.269284	-0.792797	22.517205	20.055842	-3.070503	-0.232775	-0.640749	-0.597394
6.317661	-0.63312	2.067253	130.062297	190.548338	18.608417	0.858609	-0.016104	-0.900317	1.679696	0.099561	10.052844	-3.636537	-2.049899	-3.065005	0.290837	-0.222194	-0.944737	8.712626	2.443668	-0.483717	19.670072	17.487827	-1.24476	-0.273943	-0.591958	-0.615644
6.530038	-1.990811	7.009907	55.011996	122.865051	-13.618262	0.899842	-0.010513	-0.876628	1.745615	0.156115	10.450577	-2.895728	-2.043914	-2.540274	0.253316	-0.17217	-1.00432	8.469648	1.629166	-0.970836	17.579368	12.74555	1.077656	-0.218938	-0.639719	-0.612852
3.625537	-1.193484	4.854047	43.019492	109.184779	-25.860113	0.927726	-0.03209	-0.845759	1.84855	0.211756	9.886647	-0.990407	-2.730953	-1.620734	0.252575	-0.204955	-0.973613	9.348713	1.916285	-1.252627	14.893771	7.366458	2.671782	-0.274219	-0.625995	-0.582914
5.504901	-1.816534	7.274854	-11.212982	68.360034	-43.453407	0.913963	-0.010888	-0.876977	1.901496	0.098797	9.661202	0.299391	-3.327599	-1.656457	0.265036	-0.191703	-0.946193	10.003528	1.857959	-0.941235	12.700318	1.619084	4.571544	-0.260803	-0.638678	-0.644118
3.72556	-1.816214	7.012923	3.988537	44.310189	-43.673494	0.899871	-0.045112	-0.841645	2.253279	0.549079	10.008673	1.128505	-3.658161	-1.073345	0.265256	-0.205951	-0.959539	9.831286	1.685125	-0.705651	10.698214	-2.835447	5.761492	-0.246962	-0.656319	-0.612155
3.691705	-2.742758	5.246617	12.952546	21.310764	-41.711203	0.941461	-0.018693	-0.849524	1.679588	0.155891	10.052891	1.401446	-4.024835	-0.737663	0.264891	-0.162134	-0.93385	9.588214	1.85841	-1.068752	9.604859	-5.358319	6.816684	-0.246545	-0.623934	-0.613829
2.980611	-3.379425	3.979832	0.1535	0.039371	-35.88514	0.926968	-0.021847	-0.835099	1.681013	0.043277	10.109436	1.274439	-4.301992	-0.802177	0.239009	-0.207173	-0.944638	9.349523	1.567828	-1.254111	8.368232	-5.946456	7.068486	-0.245848	-0.576183	-0.600813
2.988565	-2.05634	4.440207	-11.558176	-15.853481	-26.999664	0.940718	-0.02575	-0.821372	1.682006	0.155986	10.166171	2.22455	-4.873496	-0.652955	0.226328	-0.206177	-0.958712	9.652462	1.975663	-0.767623	6.645027	-5.679892	7.317972	-0.247522	-0.687052	-0.641537
2.93894	-1.824843	4.838031	-16.387024	-27.978553	-19.637466	0.927354	-0.035618	-0.831683	1.447579	0.437927	9.991653	2.962884	-5.109416	-0.654706	0.251834	-0.237739	-0.942906	9.820417	1.624577	-1.304967	4.982688	-5.132135	7.015732	-0.260382	-0.624965	-0.598372
2.875087	-1.941132	4.495316	-17.887147	-41.493469	-13.105179	0.954852	-0.043424	-0.804229	1.685763	0.719481	10.393203	3.855178	-5.345992	-0.255576	0.252135	-0.176457	-0.946921	9.354465	1.336513	-1.015472	2.912921	-5.038973	6.166978	-0.247104	-0.654667	-0.643211
2.941866	-1.249704	5.011003	-18.917193	-57.765666	-7.294014	0.926968	-0.021847	-0.835099	1.616217	0.662784	9.825551	3.318838	-6.212511	-0.079655	0.239524	-0.22035	-0.972333	9.714064	1.336939	-0.709335	0.93445	-5.036298	5.226638	-0.246962	-0.656319	-0.612155
3.168574	-1.135469	4.902233	-20.422998	-75.716872	-2.827682	0.940689	0.008849	-0.856356	1.441858	0.268699	9.708313	2.61222	-5.857359	0.509042	0.212171	-0.210539	-0.901037	9.478155	1.744259	-0.652099	-0.796907	-5.468224	4.990457	-0.287918	-0.610007	-0.583821
2.892323	-1.133091	5.408344	-20.069729	-93.285244	-1.642049	0.928083	-0.011262	-0.877327	1.844708	0.324275	9.716823	2.391989	-6.138512	0.876007	0.252129	-0.236667	-0.957256	9.589314	1.858657	-1.008845	-2.876038	-6.568008	4.147445	-0.26087	-0.656523	-0.612225
2.542364	-1.478939	5.059096	-19.034957	-107.991478	-3.202682	0.914363	-0.041958	-0.85607	1.905553	-0.126382	9.830931	2.91929	-5.94906	1.063284	0.238714	-0.208245	-0.930288	9.530028	1.974944	-1.009451	-4.461032	-7.543343	3.271491	-0.247033	-0.655493	-0.627683
2.266978	-1.13167	5.623508	-22.274946	-118.820534	-6.804189	0.89907	0.017029	-0.88346	1.675076	-0.01329	9.826191	4.6468	-6.169418	0.60006	0.266147	-0.142526	-0.992253	9.944242	1.974246	-0.941841	-5.986796	-9.041596	2.703459	-0.288757	-0.656105	-0.627894
1.644192	-1.589299	5.950447	-27.64787	-126.314992	-12.492359	0.89907	0.017029	-0.88346	1.856365	0.550071	10.283408	5.045026	-6.41106	0.813775	0.252575	-0.204955	-0.973613	9.594837	2.324749	-0.647426	-7.110657	-9.826369	1.30536	-0.288615	-0.657758	-0.596838
0.962374	-1.128063	6.223281	-32.849648	-130.604197	-18.742568	0.871544	0.059433	-0.945897	1.620036	-0.069418	9.938214	6.984256	-6.909904	1.149485	0.26422	-0.239808	-0.914482	9.653718	2.38269	-0.646078	-7.980634	-9.97201	0.300625	-0.232287	-0.60919	-0.583541
1.082492	-1.184381	6.509533	-38.608696	-135.287782	-25.703284	0.84446	0.018869	-0.934951	1.850429	0.493503	10.000163	7.933061	-7.545367	1.698837	0.252349	-0.250916	-0.970602	9.179368	1.91842	-0.83658	-7.83564	-10.450771	-0.675626	-0.259961	-0.611251	-0.552625
0.800881	-1.470416	6.730171	-44.610433	-139.980601	-31.958241	0.843317	0.042883	-0.927707	1.915571	0.324689	10.341067	8.505376	-8.645131	2.181614	0.26444	-0.254056	-0.927828	9.181859	2.267618	-0.655376	-8.053663	-10.261087	-1.34812	-0.260516	-0.660655	-0.534586
0.652335	-1.23546	7.921711	-48.682919	-145.25395	-37.768293	0.816219	0.019619	-0.934253	1.911513	0.549868	10.171338	8.374128	-9.173465	3.008618	0.278377	-0.235445	-0.972157	9.714105	2.26665	-0.585565	-7.870387	-10.008786	-2.022362	-0.287848	-0.610833	-0.568294
0.315365	-1.061439	8.256872	-51.86354	-150.625597	-42.69311	0.7742	0.058869	-0.982264	1.625888	0.663163	10.278668	8.302832	-9.911055	3.12454	0.303593	-0.20787	-0.931667	9.243346	2.151825	-0.534956	-7.158683	-9.638554	-2.087831	-0.260032	-0.610425	-0.568153
0.202835	-0.716224	8.369799	-56.447639	-155.867237	-46.108767	0.773443	0.069112	-0.971604	1.506137	0.550528	10.049597	7.666925	-11.244212	4.128107	0.239009	-0.207173	-0.944638	9.776402	1.802401	-0.466629	-6.137009	-8.866733	-2.431401	-0.246262	-0.627239	-0.551718
0.109482	-0.711558	9.447781	-60.654101	-160.102207	-48.650271	0.760037	0.111142	-1.034391	1.902081	1.056511	9.775288	6.481367	-12.121409	4.673342	0.239304	-0.206102	-0.958987	9.304698	2.094109	-0.414289	-5.366212	-8.46033	-3.016814	-0.246683	-0.640953	-0.597464
-1.13795	-0.593109	10.049151	-63.347043	-162.984799	-50.499298	0.746359	0.028548	-0.960658	2.248659	0.436229	9.78202	7.21583	-12.635156	4.94628	0.200301	-0.221647	-0.957157	9.420239	1.744641	-0.593293	-4.159173	-7.471201	-3.606585	-0.288407	-0.641565	-0.597675
-1.176565	-0.186875	11.016229	-67.86657	-165.130868	-50.245061	0.719204	0.074481	-1.037171	2.142206	0.324115	10.175984	8.294169	-12.837113	5.099282	0.226403	-0.190856	-0.959715	9.657539	1.686272	-0.529231	-2.707276	-6.881347	-3.95084	-0.260173	-0.608772	-0.599209
-2.252109	-0.240876	11.620215	-70.538711	-167.228429	-48.093382	0.703555	0.11264	-1.032994	1.801756	0.268621	10.395242	12.53062	-12.504184	4.612746	0.225958	-0.222569	-0.943358	9.425471	1.862029	-0.293264	-1.597322	-6.411597	-4.629462	-0.232149	-0.592171	-0.599906
-2.860835	-0.120953	12.688658	-71.513758	-169.317994	-43.246987	0.647458	0.100368	-1.028181	2.013131	0.661792	9.550815	16.067652	-13.685798	4.603844	0.226178	-0.236817	-0.956704	9.483657	1.745495	-0.352565	-0.057195	-6.278972	-5.094098	-0.274707	-0.657554	-0.596768
-4.15624	-0.517507	13.741568	-69.960372	-170.873247	-35.669277	0.633709	0.10427	-1.041908	2.094527	0.211941	10.627797	6.103128	-12.623431	5.685383	0.213352	-0.206252	-0.958436	9.419159	2.209249	-0.591315	0.778391	-6.033478	-4.884364	-0.274361	-0.624343	-0.61397
-5.181377	-0.34323	14.006514	-65.485234	-171.595361	-27.135922	0.620332	0.111702	-1.069711	2.073461	1.112471	9.722322	6.184427	-13.483356	6.04684	0.200596	-0.220575	-0.971506	9.655473	1.627702	-0.649292	1.741337	-5.639956	-4.156246	-0.260382	-0.624965	-0.598372
-6.320199	0.233462	14.327776	-59.955054	-170.376219	-18.482496	0.61996	0.108173	-1.055635	2.018613	0.323999	9.777089	6.919983	-13.905506	6.382348	0.238268	-0.239958	-0.913931	9.358057	1.685958	-0.774361	1.965283	-4.909469	-3.732677	-0.246679	-0.659624	-0.550044
-8.14871	-0.166579	14.461014	-55.468301	-164.675379	-9.477695	0.591705	0.126222	-1.072428	2.194505	0.54914	9.950824	6.447541	-14.588488	6.745119	0.26503	-0.251913	-0.956528	9.237959	1.627658	-0.896623	2.154881	-4.731262	-3.153535	-0.247242	-0.671685	-0.626846
-9.697796	-0.338508	14.259667	-53.039734	-153.956323	-1.766016	0.550072	0.151701	-1.117024	1.91052	0.43716	10.114604	5.434669	-16.474383	7.126323	0.225807	-0.25321	-0.941351	9.53333	1.975686	-0.82973	1.696284	-4.771394	-2.387628	-0.260658	-0.659002	-0.565642
-10.905624	-0.453727	13.951536	-50.2289	-138.955745	2.763041	0.578356	0.099054	-1.065247	2.259108	0.661978	10.291966	2.569806	-18.260745	7.445371	0.238858	-0.237814	-0.94263	9.237418	1.859962	-0.895634	1.236998	-4.344502	-2.418564	-0.301964	-0.62723	-0.567527
-11.835139	-0.341076	13.251965	-51.122842	-120.511092	3.003882	0.549329	0.144645	-1.088872	2.126837	0.77419	9.496688	-0.038387	-19.335593	7.309271	0.212241	-0.255429	-0.912376	9.239329	1.511753	-0.837211	-0.052641	-3.862577	-2.141133	-0.232913	-0.657768	-0.581029
-12.36404	0.001051	12.561155	-54.214064	-98.47491	0.058646	0.537495	0.096992	-1.103012	1.450235	0.945044	10.161999	-2.05891	-20.31341	7.544552	0.238858	-0.237814	-0.94263	9.59055	1.800829	-0.949186	-1.776571	-3.439282	-2.259159	-0.260032	-0.610425	-0.568153
-14.033948	0.861946	12.077659	-57.102541	-71.39078	-6.178741	0.509611	0.118569	-1.133881	1.919652	0.719192	10.567958	-2.963158	-21.084049	6.395507	0.251244	-0.239883	-0.914207	9.767308	1.45172	-1.007274	-3.65342	-3.329365	-1.702763	-0.288407	-0.641565	-0.597675
-14.213961	1.492239	11.679001	-57.825038	-39.410775	-15.195338	0.535951	0.152076	-1.116675	2.679097	0.605557	11.093335	-2.139093	-24.494124	4.235105	0.19956	-0.254432	-0.92645	9.528908	1.509842	-1.131243	-5.813383	-3.551249	-1.693882	-0.24675	-0.658798	-0.565572
-25.171571	50.448007	26.959594	-196.218545	71.458135	22.272014	0.493204	0.166971	-1.119043	2.363842	1.283402	12.55928	-0.247308	-29.164201	-0.156582	0.212982	-0.222644	-0.943083	9.349928	1.3936	-1.254852	-8.281395	-4.147295	-1.10141	-0.315943	-0.626607	-0.583125
-16.770276	9.446749	4.218022	153.884676	65.519797	-28.975251	0.537095	0.128062	-1.123919	2.57791	0.268311	11.713668	2.900173	-39.26576	-1.641736	0.213126	-0.252213	-0.955425	10.065555	1.509863	-0.821804	-11.881409	-3.894742	-0.142133	-0.274707	-0.657554	-0.596768
-18.682753	2.216797	5.627938	-0.784339	87.644984	-48.998348	0.550429	0.172529	-1.148592	2.710935	-0.238216	12.508614	3.548293	-46.788582	-3.750642	0.199786	-0.20847	-0.929461	9.537731	1.976675	-0.590103	-16.586949	-3.437102	1.309188	-0.288407	-0.641565	-0.597675
-16.968938	5.329501	8.515915	-8.517204	124.34545	-48.195136	0.551558	0.165815	-1.173328	2.878796	-0.238729	12.285682	2.09351	-56.97346	-6.288449	0.199265	-0.255504	-0.9121	9.711323	1.568749	-0.82816	-21.458776	-1.090539	3.424513	-0.246124	-0.610221	-0.568083
-18.197805	7.774885	16.003934	43.789107	136.594396	-53.146914	0.565707	0.130841	-1.138694	1.920866	0.327262	13.285118	7.155264	-69.911523	-11.499521	0.225518	-0.194072	-0.916666	9.303422	1.222227	-0.597719	-27.331458	2.183659	7.189551	-0.261008	-0.673542	-0.59586
-33.379273	11.058588	15.381495	269.648805	76.272009	-76.162902	0.634824	0.114855	-1.084136	2.331985	1.115515	13.747361	11.83734	-80.99327	-15.305166	0.160487	-0.225088	-0.91328	9.526126	0.81194	-1.373837	-33.240362	5.375181	10.068832	-0.273518	-0.596915	-0.522477
-20.944637	4.128117	-4.580646	72.675586	7.169914	20.821516	0.608826	0.119475	-1.150401	1.895208	1.342647	14.870671	12.806341	-97.144799	-15.865653	0.160412	-0.240408	-0.912276	9.280509	2.553525	-1.670356	-37.08072	6.202178	5.677465	-0.246336	-0.607742	-0.614666
-1.237632	5.097787	11.037316	-159.329733	-2.202531	88.293521	0.62259	0.098273	-1.119183	1.732159	0.723667	15.263	7.034108	-115.927857	-12.080231	0.160783	-0.224016	-0.92763	10.23436	1.740031	-1.236862	-42.251889	3.370609	5.587454	-0.260524	-0.623312	-0.629427
1.654571	-8.616124	14.957067	-55.835735	-20.855173	8.28591	0.608469	0.098647	-1.118834	2.788733	-0.460503	16.133358	-0.551439	-134.371192	-12.485376	0.121334	-0.271274	-0.909442	11.245358	2.204322	-0.736922	-47.46001	-2.836774	3.618721	-0.260382	-0.624965	-0.598372
-0.98653	-0.814997	11.926564	103.837129	12.809655	-16.498955	0.62259	0.098273	-1.119183	1.912653	0.049999	18.266748	2.225954	-156.891433	-17.300121	0.082186	-0.257251	-0.895269	12.482652	2.607771	-0.771989	-47.991521	-10.127283	1.54656	-0.260733	-0.639505	-0.62859
-1.532495	0.659997	7.48939	8.295909	11.565272	-2.780061	0.622961	0.101801	-1.133259	2.737882	-0.178458	16.472224	9.168818	-182.272232	-22.972171	0.095388	-0.211214	-0.898555	12.557324	2.03009	0.005429	-48.155245	-17.5329	4.852811	-0.274223	-0.607324	-0.630335
-1.483993	-0.191252	9.930453	8.176675	4.971969	-6.843156	0.609241	0.071105	-1.112002	2.13486	-0.79577	17.817755	2.05564	-205.55073	-30.638257	0.082481	-0.256179	-0.909618	12.021642	2.088392	-0.243855	-50.634479	-19.348554	5.084407	-0.302173	-0.643422	-0.56669
-1.089686	-0.480197	9.595922	7.330926	6.058988	-5.473615	0.636696	0.115198	-1.137024	1.626658	-0.907081	18.259897	10.476016	-233.689423	-35.4115	0.043704	-0.225763	-0.910798	10.494385	2.325938	0.14787	-52.754167	-16.824502	2.787751	-0.246262	-0.627239	-0.551718
-2.00093	-0.995543	9.803347	7.290387	6.781088	-1.413512	0.606583	0.115604	-1.083437	1.401316	-1.582474	18.424411	20.080865	-261.044264	-41.069858	0.003665	-0.275165	-0.863911	10.017604	2.907036	-0.038182	-54.959223	-14.873055	2.603043	-0.260244	-0.607946	-0.614737
-1.608565	-0.135899	9.416789	13.003673	3.853825	-1.140185	0.59472	0.10255	-1.13256	0.551287	-0.3973	19.143588	37.038411	-287.557639	-39.654815	-0.009531	-0.260992	-0.850289	9.367866	2.67597	-0.111182	-57.818367	-14.804845	3.896749	-0.287989	-0.60918	-0.599349
-1.318745	-0.42259	9.591709	1.218138	3.916236	2.084211	0.609226	0.088405	-1.129494	1.85297	-0.738663	18.094956	70.157249	-310.134138	-31.65255	-0.023613	-0.250034	-0.793618	9.418484	2.499629	-0.590079	-59.803464	-16.278837	3.78872	-0.260315	-0.60712	-0.630264
-1.418862	-0.304488	10.329055	4.800686	3.660566	1.701733	0.593591	0.109265	-1.107824	2.014894	-0.795744	17.588779	77.767673	-325.670879	-27.423283	-0.075887	-0.266726	-0.777162	9.019697	2.968644	0.242893	-60.604748	-18.054997	0.774321	-0.315529	-0.575551	-0.632219
-1.084533	0.095424	9.882601	12.116573	2.499018	1.416454	0.622975	0.084502	-1.115767	3.981189	0.77832	18.197606	112.669622	-329.138204	-21.233455	-0.102725	-0.270092	-0.733561	8.487005	2.214129	0.050054	-58.663773	-20.936539	-0.869352	-0.287922	-0.591335	-0.631242
-1.378765	0.323709	9.480027	5.978397	1.557143	0.652123	0.622575	0.115572	-1.136675	7.967914	1.442746	13.63956	136.043645	-316.308729	-16.185836	-0.141508	-0.299886	-0.745077	8.788399	1.866234	0.353607	-55.092706	-24.581193	-2.087392	-0.260315	-0.60712	-0.630264
-1.599657	-0.133969	9.871614	1.71669	1.229241	0.720397	0.593591	0.109265	-1.107824	2.920469	-2.042172	11.37914	115.560184	-275.310509	-7.811102	-0.182873	-0.324007	-0.628448	8.672992	2.157626	0.532363	-50.704445	-27.135084	-2.029973	-0.274294	-0.606498	-0.645863
-1.201103	-0.134741	9.765702	5.142668	1.389401	-1.157608	0.609212	0.105704	-1.146985	-1.291773	-2.997118	5.345343	109.567028	-202.988363	-11.567814	-0.2218	-0.324232	-0.627621	8.97288	1.983712	0.776751	-45.508921	-28.455125	-2.714863	-0.274014	-0.591131	-0.631172
-1.194547	0.039031	10.107545	1.095992	1.81223	-2.15114	0.608469	0.098647	-1.118834	-7.041411	-6.98347	7.881937	74.168621	-138.121418	-35.335861	-0.248418	-0.341846	-0.597366	9.679163	2.3303	0.731533	-40.029696	-26.70921	-1.092673	-0.273384	-0.561225	-0.586262
-1.148137	-0.365514	9.538438	1.097815	1.963454	-1.934009	0.594334	0.116321	-1.135976	-10.895979	-8.670933	2.364534	52.742643	-75.816528	-75.638376	-0.210382	-0.405046	-0.565479	9.981947	2.331356	1.156384	-35.672296	-22.146928	-0.121662	-0.301267	-0.579478	-0.55451
-1.60539	0.094591	9.588314	-2.239101	2.187452	-1.368735	0.595863	0.078536	-1.139805	-10.118097	-6.025808	1.307535	44.140419	-1.785727	-101.139537	-0.223352	-0.344912	-0.554868	10.514308	1.807456	1.164062	-31.057645	-16.268736	0.872707	-0.301551	-0.576173	-0.616621
-1.542817	0.440405	9.875141	-2.080696	2.517524	-0.597124	0.650845	0.080224	-1.102389	-9.264858	-4.222749	3.70484	40.706707	69.434655	-113.625713	-0.262285	-0.405347	-0.564376	10.157875	1.865848	1.037893	-25.903873	-9.05079	2.653387	-0.26024	-0.626617	-0.567316
-1.657818	-0.421376	9.812441	-1.554248	3.005055	-0.008024	0.637439	0.122254	-1.165176	-8.907972	-3.037549	7.053617	43.05749	126.199921	-106.278474	-0.19733	-0.389651	-0.566759	10.159245	1.749943	1.097306	-21.410204	-2.493634	3.064269	-0.287225	-0.543584	-0.618225
-1.480404	-0.535177	10.099564	0.838588	3.353915	0.021426	0.609584	0.109232	-1.161061	-8.614448	-3.488542	7.285841	56.383048	149.966813	-98.048431	-0.19667	-0.432397	-0.606797	10.042854	1.518156	1.154023	-17.522733	2.423996	2.109814	-0.259272	-0.526157	-0.63445
-1.600854	-0.019327	9.815244	0.746065	3.167358	0.172	0.623718	0.091558	-1.143919	-8.323693	-3.998345	4.687246	62.067236	158.621766	-84.765719	-0.158628	-0.435387	-0.564575	9.919879	1.749742	0.913183	-14.224197	6.507409	1.772746	-0.28771	-0.593814	-0.584659
-1.607576	0.036667	9.474366	0.070346	3.011944	0.048748	0.622975	0.084502	-1.115767	-7.678221	-4.959106	2.492002	39.497693	163.122968	-67.293036	-0.132531	-0.464806	-0.577469	9.62783	1.86731	1.087896	-11.966434	8.520301	0.16568	-0.273735	-0.575765	-0.616481
-1.718703	-0.019968	9.642457	-1.371144	2.882988	-0.010535	0.651202	0.101052	-1.133957	-6.731896	-4.903505	3.700824	5.703909	167.096403	-47.090589	-0.131941	-0.462662	-0.606168	9.747233	1.751136	1.149509	-9.277326	9.790175	-0.430813	-0.287781	-0.592988	-0.600186
-1.660252	-0.134651	9.699941	-2.996628	2.471722	0.355475	0.637839	0.091184	-1.144268	-6.371735	-3.776877	4.50198	-21.494263	172.854334	-24.675571	-0.131501	-0.491159	-0.632861	9.505936	1.634287	0.845079	-7.497312	9.625985	-1.689544	-0.25976	-0.557716	-0.648304
-1.602832	-0.364459	9.70009	-3.300321	2.524801	0.970568	0.636724	0.080599	-1.10204	-5.550882	-4.003139	5.19839	-39.68309	180.549038	0.048257	-0.11867	-0.461515	-0.620794	9.677907	1.923274	0.609989	-4.824656	8.846883	-2.337315	-0.246057	-0.592376	-0.599976
-1.653488	-0.248087	10.040577	-3.908735	2.508728	2.137428	0.635953	0.108141	-1.108872	-4.901624	-4.172699	5.947861	-57.949493	189.471841	24.107224	-0.093239	-0.508398	-0.603985	9.378155	2.039112	0.365353	-2.716247	7.741898	-4.203965	-0.287296	-0.542758	-0.633753
-1.710577	-0.477811	10.038498	-4.086712	2.897645	3.00295	0.636696	0.115198	-1.137024	-3.100388	-4.062716	6.778386	-76.638857	199.017937	45.614248	-0.118004	-0.444051	-0.650497	9.492461	1.747473	0.12669	-0.97641	7.347058	-6.836673	-0.273597	-0.558746	-0.632846
-1.263884	-0.193348	9.480082	-3.657065	2.491099	3.792456	0.608469	0.098647	-1.118834	-1.691446	-3.83889	8.110301	-91.038033	208.02346	64.345378	-0.091317	-0.471326	-0.69209	9.252825	1.863423	-0.056937	1.10179	6.892887	-9.531389	-0.288064	-0.589683	-0.662298
-1.4875	0.03779	9.760859	-3.592494	2.544504	4.52915	0.636339	0.09437	-1.105456	-1.037221	-3.444908	9.143443	-99.718151	216.854436	78.609282	-0.064474	-0.407751	-0.725356	9.202497	2.388468	0.483349	2.94049	7.386774	-12.290823	-0.302177	-0.624751	-0.61411
-1.366393	0.154038	10.104687	-3.257846	2.615885	3.793335	0.621846	0.091216	-1.091031	0.598464	-3.277986	10.310227	-106.324104	223.25356	89.397672	-0.038157	-0.451418	-0.751596	8.729153	2.912232	0.476771	5.396962	7.849767	-14.807812	-0.273806	-0.574939	-0.632009
-1.309547	-0.822751	10.044845	-1.420571	2.942216	2.873331	0.651216	0.083753	-1.116465	1.875783	-3.27993	10.84658	-112.515764	225.485063	96.753366	-0.037787	-0.435026	-0.766949	8.789425	3.319124	0.599416	8.141579	8.976675	-16.351081	-0.246198	-0.590723	-0.631031
-1.596275	-0.190687	10.041932	1.029765	3.615364	1.435844	0.636367	0.059771	-1.070472	2.547924	-2.772576	12.729411	-115.654675	224.498481	101.088636	-0.022739	-0.367238	-0.857338	8.739462	2.740229	1.015191	10.003879	10.450447	-16.242621	-0.273526	-0.559573	-0.617318
-1.311733	-0.880675	9.930898	3.634042	4.099275	0.485512	0.623361	0.070731	-1.112351	3.597961	-2.435964	13.431131	-113.185677	222.205865	105.29211	-0.037046	-0.402241	-0.797656	8.976202	2.449309	1.018357	11.931445	11.482931	-14.84881	-0.245502	-0.542972	-0.618015
-1.603163	0.095074	9.70202	5.718949	4.669818	-0.185911	0.650845	0.080224	-1.102389	3.617734	-2.660527	14.337175	-106.316812	220.483515	105.712167	0.015448	-0.399797	-0.827458	9.160663	2.101931	1.379616	12.162243	12.355733	-13.386958	-0.301413	-0.559155	-0.632986
-1.952216	0.036674	9.410832	7.064096	4.654421	-0.987402	0.62259	0.098273	-1.119183	4.026652	-1.985031	14.686044	-98.799092	218.969671	108.293252	0.042512	-0.35047	-0.87407	9.148673	1.57628	0.658508	11.627586	12.780773	-10.300492	-0.273806	-0.574939	-0.632009
-1.8816	0.039528	10.094183	7.061629	4.536363	-1.418668	0.609241	0.071105	-1.112002	4.95415	-2.831523	14.931234	-97.455164	217.760096	108.559801	0.018036	-0.345261	-0.945267	9.386938	1.576234	0.782724	10.031396	12.109252	-8.03002	-0.259898	-0.574735	-0.631939
-1.490301	-0.709673	9.587162	5.431612	3.919368	-1.884027	0.637096	0.084127	-1.116116	5.997042	-2.551526	15.293069	-99.705976	215.454128	105.60573	0.017816	-0.331012	-0.931921	9.082629	1.284304	0.236823	7.624981	10.799048	-6.395315	-0.315876	-0.608762	-0.615018
-1.372084	0.325156	9.821145	6.472344	4.147001	-2.558027	0.62259	0.098273	-1.119183	7.139996	-2.610344	14.920723	-103.533063	210.966048	105.496288	0.032053	-0.25112	-0.980264	9.375488	0.818279	0.060627	5.308193	8.780548	-4.268544	-0.301763	-0.573695	-0.663205
-1.495294	0.036102	9.362887	5.642977	3.960835	-2.742676	0.623733	0.074259	-1.126427	8.34201	-0.922834	14.777614	-112.464454	198.587417	103.207421	0.097448	-0.263921	-1.009339	9.486628	0.467822	-0.358004	2.029713	6.738762	-3.177258	-0.260177	-0.590101	-0.646629
-2.064498	0.03724	9.522312	6.499618	3.906508	-3.022041	0.622632	0.046375	-1.066707	10.61836	-1.489157	16.240277	-123.216764	178.768862	96.803756	0.123626	-0.21781	-1.012901	8.889593	0.583841	-0.727955	-1.09611	4.948897	-2.729526	-0.259756	-0.576387	-0.600883
-1.834201	-0.192451	9.582653	5.456062	3.906162	-3.417733	0.608455	0.115947	-1.136325	13.489077	-0.706156	16.018188	-121.697449	155.971952	82.055398	0.149647	-0.262549	-1.024791	8.540033	0.527564	-0.495177	-3.145331	2.857349	-2.314814	-0.287576	-0.558124	-0.648444
-1.770183	-0.305928	9.924403	7.574867	4.529967	-3.352357	0.608498	0.064049	-1.08385	14.681828	0.135969	15.364612	-119.280996	132.614912	60.488774	0.138449	-0.195983	-1.100279	9.016294	0.643625	-0.246252	-5.536506	1.453026	-3.399691	-0.246061	-0.573704	-0.647396
-1.600936	0.095556	9.815726	8.525	4.815852	-3.779806	0.650073	0.107766	-1.109221	17.593187	0.918199	14.350778	-115.519729	110.040099	33.844972	0.15121	-0.12145	-1.076873	8.782025	0.818888	-0.130098	-6.23929	-0.521027	-5.007503	-0.246336	-0.607742	-0.614666
-1.606462	0.036908	9.531219	8.034397	5.346423	-4.689831	0.637853	0.073884	-1.126776	28.333876	46.308089	87.648673	-182.98288	103.271846	-46.336178	0.177602	-0.149797	-1.104117	8.970348	0.704803	0.471778	-5.569124	-1.807118	-4.637052	-0.25976	-0.557716	-0.648304
-1.596648	0.326287	10.044104	7.547988	6.647357	-5.771367	0.608483	0.081348	-1.101342	13.784002	13.473377	-1.230432	87.570113	12.240752	-37.52971	0.21653	-0.149571	-1.104944	8.848205	1.052787	0.29134	-4.401591	-1.981396	-5.129435	-0.315321	-0.559359	-0.633057
-1.136261	0.154114	10.165994	3.936074	8.526963	-7.662577	0.607712	0.10889	-1.108173	30.40349	5.172188	11.056883	82.371543	-4.499826	-104.217934	0.190723	-0.17929	-1.116735	8.794981	1.402862	0.651164	-4.022598	-1.158886	-4.676308	-0.288202	-0.606702	-0.645933
-1.818819	0.098134	10.379803	-0.83792	11.614208	-10.818967	0.650816	0.114823	-1.137373	25.183746	6.924375	6.589511	32.37257	-26.571568	-132.123828	0.203108	-0.181359	-1.088311	9.624353	0.994934	0.784653	-2.898288	-0.809573	-2.57327	-0.273876	-0.574113	-0.647537
-1.300929	-0.41873	10.501359	-5.409536	15.587324	-10.710558	0.608483	0.081348	-1.101342	24.194207	10.984246	9.119947	36.159152	-31.030834	-169.887295	0.190723	-0.17929	-1.116735	9.81007	1.054583	1.267457	-1.991222	-0.768821	-0.28456	-0.273876	-0.574113	-0.647537
-1.171163	0.044097	11.30146	-11.336628	23.710029	-11.205535	0.637453	0.104955	-1.147684	22.005095	13.976386	11.963932	72.756459	-29.511933	-181.060246	0.203247	-0.271138	-1.110989	9.570299	1.228609	1.084076	2.345249	-0.201099	2.508835	-0.287993	-0.590509	-0.64677
-1.058384	-0.645767	11.187085	-27.116603	27.720207	-16.247565	0.621861	0.073917	-1.073539	18.946339	17.810189	9.185593	101.887754	-50.810185	-159.830243	0.22972	-0.223955	-1.128901	9.863024	0.82066	0.908127	7.950615	0.424469	6.061528	-0.288273	-0.605875	-0.661461
-1.745479	-0.587828	11.173964	-22.313984	36.606972	-17.435781	0.637467	0.087655	-1.130192	14.647836	34.329827	16.866027	113.772493	-77.976068	-110.131776	0.152009	-0.253974	-1.139589	9.56026	1.28446	0.545161	11.201328	1.032143	7.575082	-0.258925	-0.492946	-0.651652
-1.25841	-0.69677	12.66057	-34.676308	46.792986	-12.87937	0.651202	0.101052	-1.133957	3.994246	8.977679	-10.101973	116.975876	-51.899646	-5.590661	0.163949	-0.287755	-1.094809	10.080306	2.268559	0.080013	11.911352	1.374647	7.234664	-0.287576	-0.558124	-0.648444
-1.283207	-0.919498	14.307231	-16.41255	62.060017	-7.623227	0.664208	0.090092	-1.092078	-0.157646	0.779213	10.297926	8.029378	-15.092421	-30.498072	0.137401	-0.350259	-1.075893	10.557614	4.302365	0.636632	12.125604	4.548792	7.982857	-0.287505	-0.55895	-0.632916
-1.904181	-0.802229	14.75029	-19.651704	75.241656	4.65299	0.634824	0.114855	-1.084136	2.274523	1.451269	11.085584	2.97139	-10.770253	-16.58718	0.150307	-0.305295	-1.06483	12.363445	4.060436	-0.648195	15.74272	10.018624	18.641797	-0.273876	-0.574113	-0.647537
-1.894154	-2.351221	15.198599	-12.445647	96.224696	10.55468	0.677943	0.103489	-1.095843	0.937151	-0.405823	10.26326	-1.652477	-10.677856	2.584825	0.151714	-0.255046	-1.12524	13.429516	2.431877	-0.63531	16.529383	15.397559	19.377463	-0.274436	-0.604845	-0.676918
-2.627984	-2.980368	15.693147	1.417501	117.629309	25.183152	0.650073	0.107766	-1.109221	1.224308	-0.688062	10.212428	7.48751	-13.712358	24.912989	0.137772	-0.333867	-1.091246	14.138189	0.803386	-0.808748	13.622836	20.060215	11.204451	-0.246061	-0.573704	-0.647396
-2.68499	-3.324975	15.690586	9.475006	137.195312	39.582561	0.692821	0.092872	-1.106853	2.411731	1.674892	9.446852	13.187657	-13.300215	15.117947	0.17685	-0.303001	-1.094081	12.444328	0.811258	0.11785	14.157218	18.36256	9.896303	-0.273668	-0.55792	-0.648374
-1.879684	-0.796922	16.001058	16.796601	155.317509	56.258731	0.720676	0.105893	-1.110967	1.608425	0.944152	9.48595	-2.096355	-11.830775	-0.170703	0.177075	-0.25704	-1.097092	10.996975	0.58851	1.587022	23.669355	14.29407	7.252682	-0.301621	-0.575347	-0.632149
-1.594313	-2.635741	15.885197	14.551013	180.166832	60.74658	0.735954	0.064206	-1.101069	0.885199	-0.180156	10.545438	-6.320585	-10.49486	7.762062	0.163579	-0.304148	-1.079455	11.317116	1.174529	3.032762	31.219841	12.152783	3.934619	-0.273809	-0.556268	-0.679429
-1.464464	-2.287797	16.684815	22.726809	204.962185	65.908568	0.77683	0.048969	-1.045813	1.743891	1.057404	10.451336	2.498024	-13.6681	13.101806	0.137702	-0.288977	-1.079907	12.430491	2.216096	2.758586	35.370645	13.370909	-0.028898	-0.315738	-0.591744	-0.631382
-1.399125	-2.68824	17.082211	19.438475	229.77309	70.214684	0.748203	0.063489	-1.04853	3.116437	0.716454	10.026949	5.168847	-11.024589	3.203431	0.150307	-0.305295	-1.06483	12.185508	2.737589	2.337061	39.356161	16.852127	1.92666	-0.273947	-0.573286	-0.663065
-0.348999	-1.995345	18.128505	23.211549	257.390294	73.411834	0.776872	-0.002929	-0.993337	2.155157	-0.126055	10.742001	16.545282	-8.015646	1.238668	0.163434	-0.274579	-1.067113	11.346772	2.910988	1.663421	42.357999	22.000825	2.044037	-0.259969	-0.573908	-0.647466
0.234017	-1.074283	18.712032	25.088654	287.547783	73.559675	0.845203	0.025926	-0.963103	1.500116	1.169974	9.82356	22.756357	-10.49334	-1.709638	0.138582	-0.345972	-1.133292	9.861079	3.551222	1.159375	42.894107	27.942342	-4.343275	-0.287788	-0.555645	-0.695027
0.356113	-0.785469	19.113437	37.332877	316.621594	70.318753	0.858581	0.018495	-0.9353	1.890447	1.450398	9.265863	14.9545	-7.181671	-2.792794	0.150678	-0.288902	-1.080183	9.094004	3.494902	1.144822	43.279143	33.660204	-9.842396	-0.287717	-0.556472	-0.6795
2.583711	0.418222	18.934518	52.372862	342.106922	59.561918	0.94369	0.002476	-0.93398	1.78695	1.056727	9.77287	4.458288	-4.223707	-1.908645	0.150823	-0.318471	-1.092526	8.841338	4.47952	0.365833	44.892355	39.24098	-10.516631	-0.288344	-0.605049	-0.676988
-1.414823	1.457242	19.372596	34.210536	362.677171	51.640625	0.972345	-0.046642	-0.896279	2.016434	0.830926	9.720876	0.494132	-5.011871	-1.611392	0.137112	-0.291121	-1.051208	7.893894	3.958007	0.106373	47.360596	44.844512	-7.160062	-0.287717	-0.556472	-0.6795
-3.467133	2.449757	22.746684	30.083663	370.162066	42.17793	1.000601	-0.064691	-0.879485	1.914254	0.380972	10.284475	1.051511	-4.912214	-1.702436	0.12435	-0.365655	-1.074613	7.296839	3.609171	-0.325463	49.931395	49.49443	-6.213595	-0.260386	-0.606293	-0.645792
-7.61878	0.792768	24.022876	87.616345	358.081149	37.584563	1.04109	-0.066157	-0.827645	1.90329	1.056559	9.831927	1.695539	-5.071804	0.516115	0.150898	-0.303151	-1.093529	6.948899	2.855982	-0.095652	48.991985	50.763837	-5.024351	-0.288344	-0.605049	-0.676988
-5.933889	-0.134778	22.346827	102.423298	334.881147	16.160265	1.053339	-0.066874	-0.775106	1.491978	1.00065	9.42694	-3.679391	-4.878708	2.764169	0.150527	-0.319543	-1.078176	6.834573	2.682765	0.081126	44.328693	48.989409	-3.684842	-0.316092	-0.587612	-0.709022
7.103028	-3.242594	9.914127	142.007539	287.956095	25.800544	1.054139	-0.129014	-0.733291	1.742551	0.494003	10.337583	-8.784453	-5.411423	3.987897	0.125241	-0.302229	-1.107327	7.658038	2.447829	-0.084177	39.658219	44.309477	0.510896	-0.260248	-0.589275	-0.662157
10.216531	-5.542919	-3.617476	124.585569	161.17438	28.112215	1.08128	-0.157648	-0.67427	1.913261	0.268263	10.227741	-7.895393	-5.951439	3.890757	0.150823	-0.318471	-1.092526	8.313123	2.273352	0.226721	34.297467	34.460364	4.367174	-0.232991	-0.619599	-0.691398
6.368464	-7.126468	1.472567	24.319217	63.542347	59.773199	1.051138	-0.122642	-0.655667	1.739009	-0.182152	10.110455	-2.863868	-6.253728	3.614345	0.137332	-0.30537	-1.064554	9.955536	2.325422	-0.281382	28.271261	21.538469	9.371553	-0.274436	-0.604845	-0.676918
4.661104	-4.110679	7.930736	-40.882695	24.320727	96.138504	1.095043	-0.17885	-0.643051	2.26392	0.042484	10.461363	2.013903	-6.55375	2.690438	0.098624	-0.319843	-1.077073	10.666316	1.685213	-0.210989	21.484696	7.473896	12.305847	-0.302811	-0.635986	-0.70644
7.412895	-1.354268	8.280032	15.365784	-17.638354	95.111256	1.135119	-0.131946	-0.62961	2.152523	-0.013489	10.628816	11.263776	-7.84781	2.839155	0.150603	-0.304223	-1.079179	10.771028	2.204907	-0.865539	16.103715	-2.426982	12.494855	-0.287997	-0.571838	-0.69419
8.599111	-0.611776	7.510609	26.242142	-54.50389	83.937121	1.093143	-0.144594	-0.625147	1.673005	0.437307	9.76993	17.832273	-8.597747	3.669347	0.137332	-0.30537	-1.064554	10.175925	2.437573	-1.115182	14.087809	-6.793119	11.055839	-0.287859	-0.554819	-0.710555
7.73742	-0.624224	4.424953	39.396794	-77.48533	68.996105	1.094657	-0.165079	-0.646467	2.36215	0.661288	9.727987	17.433878	-8.271147	4.535468	0.176549	-0.364283	-1.090066	9.749836	1.389688	-1.966032	12.021862	-10.156911	10.284675	-0.287859	-0.554819	-0.710555
8.053358	-0.975153	3.008859	27.712741	-97.362902	51.998949	1.095058	-0.196149	-0.625559	1.6672	0.944091	9.543799	13.079593	-8.117991	5.489167	0.124651	-0.304373	-1.078628	9.168633	1.799796	-1.436144	10.923176	-11.179333	8.215105	-0.302251	-0.605253	-0.677059
8.343261	-1.376727	3.183297	13.113202	-116.901443	33.603547	1.095058	-0.196149	-0.625559	2.251208	0.999676	9.952413	7.401895	-7.583028	6.4456	0.124576	-0.319693	-1.077624	9.868138	1.273266	-1.964326	9.371949	-11.259933	6.601179	-0.260319	-0.588448	-0.677685
7.618416	-0.567664	4.195555	9.551492	-134.904299	14.340682	1.124027	-0.172543	-0.671902	1.7988	0.550179	10.2822	4.210127	-8.390062	6.435008	0.150527	-0.319543	-1.078176	9.693736	2.029649	-1.724785	8.534471	-10.632581	4.797926	-0.274365	-0.605671	-0.66139
7.103623	-1.25659	4.182638	10.420806	-151.812467	-2.128521	1.069446	-0.205301	-0.688409	1.802103	0.719313	10.452261	6.041559	-10.085686	6.697078	0.098404	-0.305595	-1.063727	10.057042	1.856588	-1.239669	6.744311	-9.735266	3.180242	-0.302251	-0.605253	-0.677059
5.552559	-1.773651	3.866137	9.04934	-167.369942	-13.970302	1.096944	-0.213107	-0.660956	2.089822	0.775104	10.458353	7.171102	-13.652602	5.706838	0.111154	-0.351481	-1.060992	10.534538	1.91482	-0.931084	4.801321	-8.841022	1.807654	-0.315462	-0.557706	-0.664112
4.631377	-2.406051	3.561401	1.916941	-181.887472	-19.614339	1.071718	-0.236029	-0.72039	1.927444	0.437824	10.907558	5.268829	-20.018174	4.747992	0.11116	-0.291271	-1.050656	10.361757	1.97429	-0.69451	3.190652	-8.708676	0.284699	-0.302322	-0.604427	-0.692586
3.781919	-1.484193	4.060237	-8.453753	-194.004053	-18.677107	1.056468	-0.22894	-0.695304	1.913392	0.831616	10.284854	5.159588	-21.19382	6.123495	0.123539	-0.35355	-1.032568	10.074109	2.092848	-0.28017	2.131324	-9.529806	-0.532742	-0.287784	-0.574317	-0.647607
2.529416	-2.056249	4.374446	-18.274813	-203.634637	-14.357955	1.086596	-0.246646	-0.731399	2.137263	0.380256	9.949473	3.880482	-22.076673	7.346829	0.110934	-0.337233	-1.047645	9.547115	2.67606	0.011933	1.441139	-10.565289	-1.197679	-0.302318	-0.623098	-0.645166
1.577946	-1.476304	5.494992	-24.543849	-209.97682	-8.339574	1.070932	-0.191188	-0.744713	1.901734	0.60582	9.718269	0.861842	-23.632181	9.579423	0.12406	-0.306517	-1.049928	9.719762	2.674666	-0.224393	0.995317	-11.316083	-2.690039	-0.301905	-0.572042	-0.694261
1.367527	-1.012505	6.458971	-28.378915	-213.556097	-3.540954	1.060227	-0.245555	-0.783588	2.075663	1.225227	9.835696	-4.334169	-23.928427	11.97694	0.110569	-0.293415	-1.021957	9.245142	2.326548	-0.414401	1.416486	-12.474325	-2.930534	-0.302598	-0.638464	-0.659857
1.266172	-0.722319	7.140187	-32.580325	-215.606667	-0.771343	1.045692	-0.196811	-0.821639	1.908964	-0.013579	10.000945	-11.734207	-25.280171	12.050033	0.1116	-0.319768	-1.077349	8.825851	2.616637	-0.720402	2.530388	-12.508801	-2.170347	-0.315809	-0.590917	-0.64691
0.471208	-0.605408	7.4662	-37.468836	-218.501116	0.177101	1.075833	-0.231816	-0.840241	2.089822	0.775104	10.458353	-4.720082	-25.386947	9.156713	0.124425	-0.350334	-1.075617	8.88002	1.86003	-1.081957	3.333296	-12.13572	-2.480659	-0.288273	-0.605875	-0.661461
0.374515	-0.601466	8.373622	-42.194844	-222.774166	-2.025451	1.017793	-0.157934	-0.87	2.850369	0.717847	11.040417	-0.439981	-24.415653	4.915477	0.1245	-0.335014	-1.076621	8.884152	1.977171	-0.841835	4.313221	-11.622602	-4.442626	-0.30183	-0.59154	-0.631312
0.671632	-0.197169	8.94941	-46.057224	-227.78443	-9.39491	1.047149	-0.148099	-0.912926	1.944368	0.438488	11.700513	7.505574	-26.993986	-2.779976	0.072301	-0.336386	-1.061168	9.001644	2.209205	-0.838646	4.86356	-10.80453	-6.465586	-0.287851	-0.592162	-0.615714
0.906715	-0.885427	9.235233	-50.211747	-232.623974	-21.085749	1.005145	-0.126147	-0.943446	2.135861	1.112553	9.95009	12.182133	-31.061205	-4.851287	0.085572	-0.335239	-1.075793	9.123093	1.686746	-0.718856	4.862872	-9.996015	-7.75301	-0.329366	-0.576582	-0.616762
0.754787	-0.593753	10.256455	-57.031154	-235.38412	-35.46597	1.034072	-0.050642	-1.042264	2.534199	0.998948	9.731899	13.249784	-29.754882	-5.577308	0.05866	-0.353925	-1.031189	8.943998	2.093436	-0.780334	5.08058	-9.502054	-8.122887	-0.315045	-0.525321	-0.665786
0.535175	-1.280955	10.70393	-66.44412	-236.877732	-48.65367	1.006974	-0.073907	-1.048809	2.307457	1.055851	9.897029	11.506311	-30.820841	-5.404342	0.085057	-0.322062	-1.048098	8.761428	1.627749	-1.145054	4.681614	-9.010309	-8.490519	-0.30183	-0.59154	-0.631312
-0.412582	-1.217261	11.992863	-76.415334	-237.067566	-57.677977	0.993596	-0.066476	-1.076612	2.144431	1.056554	10.346519	11.131585	-31.104198	-5.006699	0.072081	-0.322137	-1.047822	9.352284	1.800874	-1.073401	3.845399	-9.099392	-9.037159	-0.287922	-0.591335	-0.631242
-1.872164	-1.324793	13.44161	-82.766092	-230.815721	-60.840786	0.950792	0.017616	-1.148947	3.009013	1.111315	10.42134	10.305489	-32.952023	-5.426495	0.045904	-0.368249	-1.04426	8.93722	1.220317	-1.263297	2.98191	-9.164303	-8.9726	-0.287781	-0.592988	-0.600186
-3.181801	-0.51797	13.81735	-90.474246	-219.086176	-59.308879	0.922893	0.056492	-1.197308	2.550992	0.436259	10.467739	12.078244	-34.489083	-6.11856	0.058735	-0.338605	-1.032193	9.120217	1.976631	-0.837434	1.882639	-9.00242	-7.257982	-0.301621	-0.575347	-0.632149
-4.598272	-1.088213	14.52619	-99.285146	-204.135278	-54.80704	0.909902	0.050153	-1.221695	2.490901	0.492602	10.353299	13.537541	-36.368673	-6.629314	0.045834	-0.323359	-1.032921	8.760617	1.976205	-1.143571	-0.573462	-8.782979	-5.660947	-0.316018	-0.60711	-0.646073
-6.52443	-0.163155	15.572401	-117.517993	-186.449815	-48.54654	0.909073	0.146892	-1.298494	2.380953	0.943699	10.634458	15.669325	-38.821019	-7.361015	0.033078	-0.337683	-1.045991	8.935445	1.51045	-1.321968	-3.000577	-8.715105	-4.185521	-0.301413	-0.559155	-0.632986
-8.438753	1.338971	17.246409	-129.98486	-171.379236	-45.412928	0.880032	0.209782	-1.339611	2.669103	0.774169	10.64036	15.131544	-42.319112	-8.136085	0.006536	-0.339977	-1.01674	8.582583	1.453432	-1.268911	-6.894867	-8.273193	-0.933928	-0.329993	-0.625159	-0.614251
-10.479668	2.608761	18.291841	-125.1147	-166.696614	-46.792659	0.865897	0.227456	-1.356753	2.842338	0.492193	10.64375	17.349794	-45.232279	-8.594845	0.05866	-0.353925	-1.031189	8.40729	0.698848	-1.275426	-10.727172	-7.179567	1.428079	-0.302177	-0.624751	-0.61411
-13.611095	2.95955	19.141696	-114.834709	-168.173041	-50.711511	0.810901	0.243067	-1.41166	2.793258	1.112316	11.09618	17.587941	-48.472697	-9.767484	0.032853	-0.383644	-1.04298	8.763183	0.872761	-1.148268	-13.325575	-5.772148	3.447962	-0.315809	-0.590917	-0.64691
-16.703415	3.765969	19.084946	-97.800251	-168.452159	-54.385018	0.764724	0.330003	-1.392296	3.135886	0.660883	10.933135	18.126048	-52.300126	-9.712614	0.032262	-0.385788	-1.014281	8.405805	1.337685	-1.272707	-14.572408	-3.76037	3.687386	-0.301551	-0.576173	-0.616621
-19.765239	3.072836	17.601708	-81.164922	-164.377932	-56.974344	0.709356	0.342087	-1.433127	3.196193	0.491878	11.047481	16.438917	-56.247093	-9.784033	-0.00681	-0.356444	-1.001111	8.355862	1.223645	-0.795046	-15.949416	-1.829115	2.79681	-0.329437	-0.575755	-0.63229
-38.293808	-10.602332	26.560684	-97.706235	47.929646	-90.017165	0.681858	0.349892	-1.46058	3.036925	1.056076	11.724003	13.827831	-62.414212	-9.878262	-0.006886	-0.371764	-1.000107	8.698705	1.801371	-1.325133	-17.215559	-0.432558	0.410796	-0.329366	-0.576582	-0.616762
-38.725967	0.641897	-3.804599	171.747373	53.332947	-52.568887	0.722691	0.386554	-1.457799	3.250052	0.775665	13.5965	12.641891	-70.707953	-10.393236	0.032413	-0.355147	-1.016288	8.232929	2.384942	-0.912116	-18.428528	-0.603081	-1.26495	-0.287572	-0.576795	-0.601023
-40.659196	7.922319	5.906485	-165.447721	105.255939	-16.551936	0.708184	0.400699	-1.460866	3.787651	-0.576574	14.399196	13.146399	-82.280269	-12.974035	0.005355	-0.344264	-0.959341	8.94815	2.675432	-0.478327	-19.942284	-1.720445	-0.215003	-0.34307	-0.541922	-0.66509
-42.093489	8.899378	5.769044	35.71561	199.767183	-42.034037	0.722691	0.386554	-1.457799	4.089746	-1.083566	15.02785	20.50899	-99.18738	-21.675217	-0.020527	-0.389304	-0.970129	9.962794	1.57167	0.014939	-20.846797	-3.87718	0.990522	-0.315596	-0.593396	-0.600327
-47.375374	30.703475	26.27399	141.35577	241.810934	-72.179281	0.792536	0.394923	-1.448885	3.0776	0.891033	16.31046	29.262414	-118.096548	-26.757497	-0.033428	-0.374058	-0.970856	9.788277	2.850984	0.316611	-20.26773	-4.917924	1.26846	-0.31588	-0.590091	-0.662438
-6.943044	-34.374679	7.406968	183.398792	37.505683	-15.253269	0.792908	0.398452	-1.462961	2.230935	0.949644	17.085328	23.063217	-141.624165	-26.009793	-0.046774	-0.390526	-0.955227	10.677637	5.813308	0.944795	-18.581297	-4.959678	-5.950152	-0.315525	-0.594222	-0.584799
4.183683	23.391803	5.139022	-89.216508	-0.791478	163.102777	0.794451	0.343368	-1.449298	2.138107	0.277084	20.762706	14.92457	-169.305951	-23.20867	-0.046479	-0.389454	-0.969577	13.414004	6.451125	2.25618	-8.858597	-14.424576	-7.162644	-0.357111	-0.577816	-0.601374
2.495423	-16.766165	16.643983	-179.089639	-38.762005	-8.119217	0.779587	0.336686	-1.420797	2.891308	-2.259191	20.776288	36.893424	-207.633082	-24.743066	-0.073612	-0.393891	-0.911627	16.27583	3.89449	3.556168	-6.021218	-31.465844	6.294912	-0.329437	-0.575755	-0.63229
1.577746	9.246788	14.689883	175.906685	27.478314	-20.271402	0.82002	0.404417	-1.438924	2.712867	-3.047779	20.43216	44.140558	-243.716386	-37.826731	-0.125591	-0.409512	-0.90952	14.423794	1.278827	1.953349	-7.443101	-35.47189	5.799592	-0.343066	-0.560593	-0.617669
-1.026888	-2.539591	-1.891281	39.371611	24.188509	24.19902	0.821935	0.352861	-1.439336	1.242892	-2.480581	21.703913	57.928007	-282.448685	-47.601901	-0.126552	-0.428048	-0.865467	10.553111	1.977099	0.08758	-11.266423	-21.971555	3.151059	-0.315388	-0.577204	-0.601164
-1.819778	-0.751385	13.217725	-175.701782	3.01997	-2.021552	0.848247	0.420967	-1.457114	1.047959	-3.495155	20.566641	79.87488	-320.219686	-53.630899	-0.151983	-0.381165	-0.882276	9.399196	1.79802	-1.731276	-20.780234	-10.30966	16.731416	-0.315667	-0.59257	-0.615855
-1.247549	-1.223918	10.271682	99.682226	13.802049	-0.032032	0.793294	0.384681	-1.459545	0.080343	-0.394481	21.341652	101.575455	-355.043883	-56.270828	-0.21879	-0.478822	-0.803127	8.738818	0.460542	-2.527857	-34.118892	-5.527802	22.96216	-0.329016	-0.562042	-0.586543
-1.123298	-0.200227	7.891536	-20.525269	8.801981	-1.269935	0.793694	0.35361	-1.438638	1.271107	0.222228	20.574607	135.149054	-380.539024	-53.599211	-0.192983	-0.449103	-0.791336	8.737198	1.157455	-2.52489	-43.878114	-6.867967	16.095623	-0.329158	-0.560389	-0.617599
-1.975936	-1.679534	11.051219	-4.539357	8.889667	2.9483	0.807414	0.384306	-1.459895	4.110446	1.851385	21.654731	155.987912	-389.770332	-48.865318	-0.273351	-0.488769	-0.672877	8.440092	2.02927	-2.526684	-50.833688	-12.081827	3.247175	-0.356485	-0.529239	-0.603886
-1.473635	-2.199776	10.376832	15.955183	4.998015	-0.547392	0.820034	0.387118	-1.421432	8.578568	2.346763	18.069088	192.535103	-377.367414	-46.216021	-0.261185	-0.476589	-0.631107	7.87441	1.919907	-1.220231	-52.131734	-19.603218	-3.344366	-0.356974	-0.560797	-0.617739
-1.596317	-0.133245	10.042173	40.154869	5.166123	-2.761106	0.84829	0.369069	-1.404638	8.662948	0.483928	13.76654	196.298762	-347.250225	-34.662846	-0.340228	-0.541537	-0.582389	7.764816	3.026094	-0.618666	-49.279348	-25.749809	-8.337439	-0.329366	-0.576582	-0.616762
-1.548711	-0.652432	9.529437	20.887413	4.68127	-0.413398	0.764309	0.378373	-1.430695	0.851262	-4.411326	3.181151	186.962936	-286.094868	-18.619391	-0.354755	-0.562292	-0.509361	7.832906	2.911785	-0.138805	-42.86694	-30.794072	-12.217755	-0.301271	-0.560807	-0.601931
-1.204734	0.266626	9.596832	25.581742	5.500089	-0.229597	0.807043	0.380778	-1.445819	-4.286564	-8.341003	7.42907	127.271257	-200.227254	-19.140447	-0.356607	-0.644253	-0.432594	9.453428	2.623693	1.327436	-36.40554	-34.878956	-14.208038	-0.370389	-0.548114	-0.556535
-1.206671	-0.135948	9.481437	9.776778	3.39556	-2.702426	0.806671	0.37725	-1.431743	-12.716814	-10.300357	3.174067	65.931848	-118.390832	-65.478254	-0.369728	-0.614759	-0.419976	11.176056	3.029029	2.020056	-31.83632	-35.930418	-11.499751	-0.342503	-0.548532	-0.540867
-1.490757	-0.077816	9.589817	8.834656	4.150718	-1.920732	0.805928	0.370193	-1.403591	-17.822397	-8.041411	-1.29046	39.565816	-10.20405	-83.96637	-0.409246	-0.617128	-0.390449	12.131008	2.215782	2.513457	-29.293737	-34.921315	-4.698697	-0.300783	-0.529248	-0.588077
-1.604153	-0.077492	9.644443	5.184438	3.892706	-2.343774	0.836798	0.359543	-1.467837	-8.027412	-7.153298	4.803914	45.61667	57.966152	-79.708185	-0.370029	-0.676041	-0.415961	12.431321	2.332495	2.818988	-23.90028	-30.018218	-0.860237	-0.314758	-0.547298	-0.556255
-1.372825	-0.192059	9.762121	5.333793	4.280277	-3.932667	0.807829	0.335936	-1.421495	-11.885218	-5.399736	4.837666	19.865235	131.13575	-81.343597	-0.331616	-0.662639	-0.389092	11.591039	1.750164	1.962413	-18.496204	-18.426025	0.868069	-0.286454	-0.515331	-0.542261
-1.374104	0.037466	9.706233	1.957765	3.683769	-4.208662	0.836055	0.352487	-1.439685	-10.071593	-6.077952	6.177284	-6.21292	164.367789	-55.819961	-0.369513	-0.689218	-0.443657	10.04577	2.157982	1.39637	-14.193773	-6.697315	3.883415	-0.357037	-0.597314	-0.538426
-0.910336	-0.191425	9.998441	-2.240031	3.379587	-3.496143	0.835684	0.348958	-1.425609	-10.544159	-4.838198	5.715539	-18.174972	177.719711	-36.307608	-0.318646	-0.722774	-0.399703	9.560436	2.156095	0.668684	-10.109747	2.300825	4.742595	-0.328874	-0.563694	-0.555488
-1.657942	-0.249052	9.813165	-2.96608	3.755497	-1.709176	0.792551	0.377624	-1.431393	-9.205756	-4.783778	6.423067	-29.037564	185.837889	-10.649422	-0.329625	-0.670457	-0.488537	9.620957	1.981979	0.728949	-8.179854	9.262354	3.663209	-0.34327	-0.595457	-0.569412
-1.544505	-0.306817	9.758297	-3.66396	4.107424	-0.505391	0.792922	0.381152	-1.445469	-7.709509	-5.180941	6.397527	-33.551999	192.577571	13.244217	-0.265266	-0.717115	-0.472555	8.732839	2.27389	0.593865	-6.401988	13.26638	1.620469	-0.356552	-0.547084	-0.571993
-1.658766	-0.651384	9.754623	-2.337437	4.52678	1.000333	0.820792	0.376875	-1.432092	-6.798134	-5.183045	5.963753	-42.703242	203.515881	32.305896	-0.289962	-0.697657	-0.530406	9.263964	1.807819	0.541884	-4.18075	14.42077	0.201013	-0.342995	-0.561419	-0.602141
-1.424553	-0.133369	10.045514	1.376948	4.902439	1.915777	0.821563	0.349333	-1.42526	-5.470264	-4.678359	6.218543	-56.184811	218.674065	48.447053	-0.2761	-0.694366	-0.573731	8.737916	1.984499	0.832256	-2.090763	13.757808	-0.047896	-0.315033	-0.581335	-0.523525
-1.318828	-0.307707	9.592192	3.091949	4.788918	1.786325	0.848633	0.407196	-1.453698	-4.178223	-4.792396	7.434476	-70.659829	235.359619	58.282621	-0.235991	-0.689853	-0.631957	8.445326	2.334372	1.007958	-0.574935	11.173143	-1.019059	-0.356552	-0.547084	-0.571993
-1.606338	-0.135416	9.530496	2.110397	4.692841	1.726253	0.863925	0.348209	-1.426308	-2.543963	-4.51286	8.544715	-80.809066	249.307478	64.148094	-0.262169	-0.735965	-0.628395	8.256733	2.564609	0.406577	0.932055	8.512191	-3.487367	-0.342644	-0.54688	-0.571923
-1.316891	0.094866	9.707587	-1.562964	5.038535	2.263794	0.806657	0.394549	-1.449234	-1.836577	-4.344498	9.352318	-87.9059	257.562015	66.228688	-0.234735	-0.670245	-0.69036	8.740947	2.101393	1.012472	1.791963	6.220769	-6.413466	-0.328878	-0.545023	-0.602908
-1.541289	-0.133769	9.929581	-1.160216	5.027879	3.366488	0.821163	0.380403	-1.446168	-0.095324	-4.234501	10.068356	-95.76698	261.299224	64.68715	-0.16875	-0.680903	-0.748134	8.786913	2.50507	0.356327	3.488409	5.104575	-10.295509	-0.329363	-0.595253	-0.569341
-1.547022	0.094791	9.64628	1.628503	5.135528	3.145539	0.820406	0.390646	-1.435508	0.894945	-4.010537	10.655493	-103.234972	261.663698	59.998319	-0.16853	-0.695152	-0.76148	8.430636	2.970241	0.291795	5.815474	4.988738	-13.084345	-0.342786	-0.545227	-0.602978
-1.94743	-0.421893	9.636314	1.195527	5.019639	2.347549	0.8078	0.370535	-1.456479	2.234473	-3.280055	11.476869	-112.781737	258.656578	51.882825	-0.128126	-0.689567	-0.834056	8.549498	3.086371	0.354397	7.781446	5.103052	-14.589425	-0.370598	-0.564306	-0.555698
-1.594996	-0.420211	10.09782	6.950023	5.411701	-0.054726	0.849776	0.383182	-1.460942	2.260636	-3.05369	12.72313	-124.626484	255.080846	46.688885	-0.11478	-0.6731	-0.849685	8.389092	3.032408	1.249452	9.225676	5.117721	-15.5115	-0.329154	-0.57906	-0.570178
-1.321345	0.093901	9.480175	11.329567	5.878739	-1.501142	0.836055	0.352487	-1.439685	2.567636	-1.701443	13.749825	-130.614526	250.353845	41.611568	-0.061024	-0.590838	-0.927555	8.677414	2.62347	0.833876	10.472985	6.803376	-15.401824	-0.342436	-0.530687	-0.57276
-1.195411	-0.30586	10.049244	11.909771	6.513463	-3.025913	0.807043	0.380778	-1.445819	2.36939	-0.742065	15.331705	-129.363504	246.379264	38.489934	-0.021065	-0.616966	-0.983774	8.446022	2.508847	1.068607	10.492136	8.505746	-14.371002	-0.315525	-0.594222	-0.584799
-1.542734	0.325522	9.874658	14.913176	7.466103	-4.49117	0.834169	0.369444	-1.404289	2.50628	-0.741427	16.353635	-124.123741	245.16741	37.310523	0.006068	-0.612529	-1.041724	8.738341	2.275126	0.893399	9.862787	10.145568	-13.429204	-0.343062	-0.579264	-0.570249
-0.97324	-0.077707	9.713544	16.254679	7.179343	-5.757116	0.807057	0.363478	-1.428327	3.03404	-0.742017	16.817632	-119.942765	245.892072	37.598576	0.044335	-0.569558	-1.002513	8.971239	2.215768	0.717833	8.061691	10.942925	-11.287297	-0.357108	-0.596487	-0.553954
-1.65947	0.325122	9.758725	12.88379	7.695416	-6.567089	0.835284	0.380029	-1.446517	2.911417	-1.249108	16.41831	-120.640641	247.008759	38.719032	0.09727	-0.595611	-1.059007	9.555318	1.515775	0.306523	4.307691	10.479995	-9.223949	-0.34327	-0.595457	-0.569412
-1.66223	-0.479783	9.584787	11.716502	7.948342	-7.66371	0.850176	0.352112	-1.440035	3.62189	-0.798951	17.39607	-125.885103	245.519442	40.950612	0.150215	-0.501245	-1.094832	9.420084	1.337862	-0.65493	0.512449	9.074301	-7.706018	-0.342786	-0.545227	-0.602978
-1.945245	-0.363969	9.750262	8.618424	8.067243	-8.572942	0.821149	0.397703	-1.46366	4.576115	-1.081048	18.944445	-128.318207	239.191831	44.061202	0.202264	-0.530513	-1.108277	9.064211	1.628805	-0.720204	-4.013355	6.309661	-8.134849	-0.342991	-0.580091	-0.554721
-1.94178	-0.53557	9.920097	5.587771	8.638007	-8.646949	0.821949	0.335562	-1.421844	5.547258	-0.970504	18.625253	-125.27266	228.763362	48.060314	0.229252	-0.496507	-1.153885	9.357901	1.279179	-0.835999	-6.679005	3.749775	-7.012783	-0.371228	-0.594213	-0.600608
-1.768039	-0.190562	10.038592	2.479032	11.077345	-8.199649	0.820806	0.359576	-1.4146	6.478363	1.110186	16.608534	-126.588251	215.758941	53.448548	0.26818	-0.496282	-1.154712	9.291857	0.987203	-1.257683	-9.33405	1.011216	-9.312726	-0.370669	-0.56348	-0.571226
-1.650148	-0.247363	10.211136	1.432354	14.753018	-7.523505	0.822692	0.342618	-1.449996	9.09892	1.162852	18.078972	-146.615996	194.542788	60.528282	0.334096	-0.46205	-1.201147	9.014363	0.526979	-0.36656	-12.075529	-0.962899	-11.615961	-0.356832	-0.56245	-0.586684
-1.652541	-0.018079	10.098396	0.870168	18.698317	-8.745875	0.821949	0.335562	-1.421844	11.975682	1.94609	18.140082	-148.223158	177.155066	56.037444	0.373394	-0.445433	-1.217328	8.364916	0.644616	-0.37817	-14.848036	-3.029815	-13.82692	-0.357253	-0.576164	-0.63243
-1.650479	0.212169	10.213067	-5.27459	20.627552	-7.930093	0.850919	0.359169	-1.468187	13.992261	3.292056	15.692598	-158.150353	166.039861	45.559519	0.374065	-0.367759	-1.236696	9.088111	0.820685	0.474473	-13.557829	-4.13392	-13.092894	-0.3576	-0.609375	-0.615228
-1.536545	-0.534895	10.155304	-10.908742	23.120881	-10.572275	0.834926	0.359201	-1.414949	16.266234	4.356981	14.495784	-169.322963	163.344082	28.536163	0.439315	-0.350991	-1.253428	9.027589	0.994801	0.414207	-11.665544	-3.621332	-11.727	-0.343129	-0.597109	-0.538356
-1.294704	0.214574	10.845132	-18.690063	27.178066	-8.367722	0.864296	0.351737	-1.440384	18.645092	7.618344	13.02004	-184.080944	160.266981	6.635781	0.452222	-0.306027	-1.242365	8.801698	0.881414	0.948473	-9.591213	-3.909691	-9.74672	-0.371015	-0.596691	-0.554024
-1.807063	-0.761076	10.944714	-15.119836	34.605895	-8.77864	0.848647	0.389897	-1.436206	26.921584	3.374845	9.510201	-60.555667	72.379818	-52.494275	0.492041	-0.242376	-1.275906	9.149213	1.343976	0.657519	-7.324411	-4.211569	-6.391789	-0.357667	-0.62722	-0.583335
-2.277777	0.742668	13.271944	-17.016683	40.1989	-1.413745	0.821549	0.366632	-1.442752	24.602581	13.692504	15.018786	-30.588209	95.097736	-42.534253	0.54365	-0.243148	-1.262659	9.688892	1.46089	1.147173	-3.599594	-3.810999	-2.434157	-0.329292	-0.596079	-0.553814
-2.42915	-0.644048	11.33092	-2.994737	51.43479	-0.075408	0.862024	0.382466	-1.408403	28.210961	13.741333	14.245401	34.779491	73.959114	-66.920172	0.556405	-0.228824	-1.249589	9.920939	0.820278	0.849321	0.042387	-2.342355	1.732747	-0.385691	-0.64382	-0.582639
-1.765123	-0.234935	13.107304	-12.379611	57.489881	4.09815	0.889151	0.371132	-1.366874	28.795987	9.231477	11.592844	57.076935	36.879086	-100.097439	0.595183	-0.25924	-1.248409	9.789276	0.526954	0.067094	2.624922	-2.036074	5.542402	-0.357596	-0.628046	-0.567808
-2.011998	-0.181187	12.193442	-4.992702	70.055648	7.317176	0.849447	0.327756	-1.394391	27.206926	10.359717	10.031882	87.725755	1.1188	-132.574543	0.581692	-0.246138	-1.220437	10.323993	0.410328	0.256224	8.983516	-1.526098	11.6605	-0.357175	-0.614332	-0.522061
-1.99179	-0.406611	13.215832	-10.003047	80.665886	9.865387	0.889165	0.353832	-1.349382	24.600327	12.732359	12.130569	139.092258	-27.637848	-146.410446	0.608084	-0.274485	-1.247681	10.083642	-0.113052	-0.049937	17.340367	-1.835451	17.836705	-0.342991	-0.580091	-0.554721
-2.52085	-1.38588	12.462618	-9.205898	92.918385	13.52751	0.919278	0.353425	-1.402969	22.025199	16.737577	13.155688	202.477699	-61.705019	-132.212823	0.581096	-0.308492	-1.202073	10.206055	-0.577189	0.130007	24.987142	-2.955821	19.373295	-0.34292	-0.580917	-0.539193
-2.268615	-1.151214	13.661952	-4.759348	104.242451	19.218493	0.933399	0.353051	-1.403318	3.419967	41.601362	-1.706361	58.502161	-187.591713	-10.161246	0.595403	-0.273489	-1.261755	10.093816	-0.226979	0.48873	31.517133	-3.694512	19.10863	-0.384994	-0.596069	-0.569622
-2.165075	-1.383475	13.094683	1.441171	116.711055	24.892185	0.946033	0.338563	-1.347363	-2.280031	10.407274	0.694049	-4.732226	-216.142076	-20.391185	0.517026	-0.320972	-1.24274	10.932052	0.761637	1.287129	32.99892	-4.13027	14.428596	-0.371366	-0.611231	-0.584243
-2.494334	-1.092883	13.828299	2.590877	129.950926	30.86873	0.975017	0.34487	-1.376214	6.468196	5.741067	30.029963	-30.411647	-208.194445	-32.170286	0.50368	-0.337439	-1.227111	10.633001	4.364015	1.536583	29.87937	-1.492866	9.720168	-0.343133	-0.578438	-0.585776
-2.645888	-1.318182	14.847349	2.811574	146.878645	36.263816	1.016264	0.333162	-1.335033	4.564528	-4.745627	15.374276	55.532286	-144.727438	-93.951464	0.439171	-0.321422	-1.241085	11.843945	6.156097	0.249405	30.039052	6.241809	22.001074	-0.343129	-0.597109	-0.538356
-3.246524	-3.149824	16.248706	0.890308	167.888168	43.693522	1.017793	0.295377	-1.338862	4.39606	1.162912	8.016107	38.671599	-57.741097	-47.851496	0.452667	-0.274314	-1.258722	14.779461	5.622953	-0.596402	20.260822	19.332858	30.594551	-0.356899	-0.580295	-0.554791
-2.7965	-3.484148	18.756588	9.941413	195.210545	56.681779	1.059026	0.300968	-1.315173	1.235572	-2.152324	10.607672	33.046448	-0.82999	45.902924	0.42671	-0.334674	-1.268506	16.15231	3.982953	-3.15291	14.397336	32.093815	28.17042	-0.384506	-0.564511	-0.555769
-2.790927	-5.034105	18.977485	29.092786	231.3196	75.883131	1.072018	0.307307	-1.290786	-0.904357	0.555339	10.33866	30.800007	-15.997639	58.69944	0.452737	-0.319203	-1.270061	15.538961	2.307403	-1.434885	6.34021	45.229236	24.376894	-0.343688	-0.627842	-0.567737
-2.328811	-4.516497	19.215977	33.831385	265.695376	95.371493	1.125885	0.29841	-1.211143	2.285289	1.900003	8.934867	19.713103	-38.458221	24.861768	0.413068	-0.352213	-1.238527	10.914195	1.338689	0.390998	6.855897	40.640858	12.628472	-0.357111	-0.577816	-0.601374
-0.93693	-4.45619	20.152592	43.2385	301.207265	108.212205	1.143049	0.239766	-1.236641	3.260205	0.038979	8.614016	13.32578	-20.434609	4.349566	0.374511	-0.336046	-1.253053	9.592483	2.105189	2.405736	11.928571	35.460254	0.561847	-0.384927	-0.578224	-0.601515
-0.826218	-3.82514	19.986914	51.902436	335.476532	113.494932	1.183196	0.200173	-1.135741	1.866505	-1.590252	10.564804	14.801082	-4.915193	20.844365	0.387412	-0.351291	-1.252325	9.725132	2.921691	3.310002	19.454667	31.594304	-4.642566	-0.384506	-0.564511	-0.555769
-0.118345	-1.810359	21.145783	66.782608	369.829892	102.671074	1.225572	0.18175	-1.119297	2.715527	-0.353071	10.017585	34.228709	-10.617672	11.492911	0.387632	-0.36554	-1.265671	9.679767	3.680276	4.150812	28.722714	32.740459	-8.74624	-0.357178	-0.595661	-0.569482
-1.860295	1.932346	22.946249	76.1397	395.289813	88.652658	1.266848	0.135442	-1.043134	1.902835	0.662197	9.774956	33.68649	-8.216355	-0.445081	0.412918	-0.382854	-1.236519	9.716234	3.9075	2.954763	36.501406	36.821865	-13.194546	-0.343341	-0.594631	-0.584939
-1.114615	2.206911	20.12039	66.064423	411.685161	86.49626	1.337107	0.095442	-0.99582	1.274775	0.494581	9.988074	31.568855	-6.682368	4.716781	0.387041	-0.367684	-1.236972	8.583848	5.360236	2.520688	42.869873	43.684639	-8.971923	-0.357671	-0.608549	-0.630756
-7.584041	4.489574	28.869719	32.51142	416.720771	69.815304	1.348999	0.073898	-0.911714	1.328282	0.719653	9.819554	25.782287	-7.695655	3.068148	0.426264	-0.366387	-1.252149	7.56086	4.370294	1.299639	48.25755	51.526777	-5.086454	-0.37109	-0.577194	-0.616973
-10.60491	2.598854	29.428124	90.882658	396.345013	58.463453	1.388788	0.013477	-0.779246	1.047254	0.326116	10.096375	19.903064	-5.914177	5.269944	0.412107	-0.370749	-1.194474	7.133556	3.845094	0.451015	48.233271	56.331599	-5.200974	-0.330272	-0.640525	-0.628941
4.043993	-2.621426	20.31404	155.399862	349.364771	46.292297	1.403295	-0.000668	-0.776179	1.457142	0.494637	10.444817	16.551776	-7.036668	6.304253	0.412478	-0.354357	-1.209827	7.0623	3.900586	-0.208815	43.115998	57.520771	-6.563383	-0.371508	-0.609579	-0.615298
9.250999	-4.354176	5.575281	201.516136	213.113436	34.990264	1.387688	-0.014407	-0.719526	1.563033	0.26872	9.993929	13.601176	-8.473689	4.622855	0.412692	-0.428815	-1.233509	7.827559	3.317328	-0.376702	37.902136	55.704845	-4.365972	-0.371578	-0.608753	-0.630826
13.535777	-9.624637	-3.797439	123.957906	81.558695	50.888402	1.430078	-0.050129	-0.68559	1.438016	0.381217	9.538489	9.458523	-8.513261	7.332033	0.399867	-0.398249	-1.23524	9.60204	3.488495	-0.103319	34.359276	49.473886	5.212235	-0.385695	-0.625149	-0.630059
4.070672	-3.37973	4.114695	-16.051877	15.663165	102.730674	1.471311	-0.044539	-0.661902	1.614901	0.719067	9.768959	2.388258	-8.265493	7.297979	0.412032	-0.38607	-1.19347	11.316905	2.497534	-0.015703	27.243429	37.563776	12.477619	-0.343554	-0.592152	-0.631523
9.456989	0.963456	13.387468	-30.833699	-56.291641	115.151001	1.428206	-0.050472	-0.632702	1.801194	-0.069409	10.338317	-1.419859	-8.900195	7.874347	0.399942	-0.382929	-1.236244	11.785442	2.147008	-0.24801	17.869693	22.858461	11.267413	-0.315738	-0.591744	-0.631382
9.109289	-1.245212	7.233711	-1.678174	-78.783237	98.795491	1.416358	-0.080825	-0.664334	1.918312	0.155792	10.454204	5.485444	-9.978327	7.961668	0.360053	-0.40169	-1.191364	11.190339	2.379674	-0.497653	9.180614	8.207662	11.063147	-0.343416	-0.575133	-0.647888
9.714793	0.012979	6.057353	22.079356	-94.847498	79.98344	1.460606	-0.098906	-0.700777	1.391761	0.15643	10.046847	10.025259	-10.071624	7.594451	0.426334	-0.411276	-1.263487	10.35668	2.263681	-0.932902	4.277396	-4.083095	11.812012	-0.358159	-0.640107	-0.64461
9.736706	-0.396873	4.237478	18.231613	-102.480956	49.337133	1.41863	-0.111553	-0.696314	1.902489	0.211506	9.717937	16.44517	-10.478143	7.194803	0.373544	-0.414792	-1.219335	9.997621	2.030951	-1.240028	-0.927181	-13.561982	9.767086	-0.329158	-0.560389	-0.617599
9.021857	-0.459849	2.802548	12.608046	-112.22603	22.458362	1.349885	-0.092039	-0.764948	1.626619	-0.350834	10.221174	17.621949	-10.305082	6.457586	0.399571	-0.399321	-1.22089	8.511253	2.961566	-1.742838	-4.876976	-19.53748	6.570038	-0.357671	-0.608549	-0.630756
8.167494	-0.458262	3.013258	0.680446	-125.822862	-3.641104	1.362876	-0.085699	-0.740561	2.086519	0.60597	10.288291	21.758632	-10.467626	6.520956	0.412843	-0.398174	-1.235516	8.627489	2.786573	-1.861193	-7.521861	-21.177415	4.539641	-0.329855	-0.60814	-0.630616
7.429044	-0.858608	3.281359	-7.291775	-142.102397	-24.861269	1.391861	-0.079392	-0.769411	1.677948	0.381166	9.996441	25.164638	-12.290375	5.827347	0.373695	-0.384151	-1.221342	8.736158	2.551774	-2.399143	-8.81615	-19.755273	2.612025	-0.371161	-0.576368	-0.6325
6.242823	-0.049937	4.11415	-7.398888	-164.232361	-39.667858	1.365877	-0.092071	-0.818185	1.778919	0.831073	9.376203	21.090574	-12.065711	5.764645	0.373029	-0.401615	-1.191639	9.573523	2.49428	-1.784915	-9.998424	-16.414046	1.469514	-0.371228	-0.594213	-0.600608
5.095223	-1.198662	3.916495	-7.307531	-188.34781	-47.667511	1.350571	-0.015785	-0.863067	1.728715	0.775134	9.714784	14.577638	-11.691434	6.225553	0.347517	-0.430262	-1.21778	9.640648	2.321647	-1.365208	-9.760698	-13.039902	0.596781	-0.356903	-0.561624	-0.602212
3.382085	-1.253896	4.110261	-14.764662	-209.395891	-47.343733	1.351728	-0.057098	-0.852819	1.615224	0.550075	9.768816	7.815006	-11.590459	5.789517	0.372659	-0.418007	-1.176286	9.647385	2.265054	-1.006014	-9.540916	-11.556441	-0.816987	-0.371441	-0.591734	-0.647191
2.650192	-1.480469	4.720205	-27.094836	-224.289634	-41.169524	1.338694	-0.01154	-0.929681	1.527119	0.326012	11.01228	5.233549	-13.030465	5.279867	0.347737	-0.444511	-1.231126	10.016909	2.732561	-0.09883	-8.70449	-11.498891	-0.178473	-0.385348	-0.591938	-0.647261
1.867228	-1.016255	5.673049	-35.577317	-233.225688	-32.547945	1.269577	0.004446	-0.984239	1.882075	0.382075	11.472698	9.811724	-19.952295	3.488341	0.360568	-0.414867	-1.219059	9.663217	2.559143	-0.106175	-7.225758	-11.988009	0.307512	-0.357115	-0.559145	-0.648795
1.254416	0.136891	6.575276	-36.674812	-236.851499	-25.272762	1.21308	0.023244	-1.000334	1.747279	0.550524	10.564189	13.241474	-26.916497	5.918959	0.360267	-0.476149	-1.215045	9.914397	2.213361	0.675533	-6.061955	-12.186244	-0.826581	-0.385069	-0.576572	-0.632571
0.804133	0.196353	6.964581	-33.526958	-236.616069	-20.339788	1.257314	0.022462	-1.05427	1.556581	1.113488	9.768082	11.121268	-25.96775	6.789883	0.360493	-0.430187	-1.218056	9.08487	2.214509	0.480407	-4.764839	-12.185685	-0.433966	-0.371236	-0.55687	-0.695449
0.58753	-0.030593	7.584546	-33.079267	-236.009844	-16.650673	1.186668	0.076233	-1.104999	1.574151	0.776169	10.560752	8.324774	-27.089359	8.749511	0.320824	-0.463197	-1.186522	9.2519	2.734811	0.006678	-4.030494	-12.172307	-1.475819	-0.357044	-0.559971	-0.633267
0.143597	0.489848	8.3169	-36.275782	-238.820028	-14.325455	1.186268	0.107304	-1.125907	1.394225	1.395891	10.274448	7.074443	-27.954266	11.976922	0.359827	-0.447651	-1.188353	8.83535	2.79309	-0.180499	-3.580265	-13.233943	-2.175318	-0.344042	-0.623711	-0.645376
0.558977	0.32037	9.063061	-38.586561	-244.378977	-16.126631	1.11788	0.147646	-1.226108	2.234476	0.266668	9.102202	0.859992	-28.258625	13.633656	0.3209	-0.447877	-1.187526	8.418085	2.212039	-0.490209	-2.566449	-13.50273	-2.452768	-0.343345	-0.575959	-0.63236
0.912691	0.092526	9.580454	-37.281665	-251.488086	-23.545659	1.089625	0.165694	-1.242901	1.809487	1.28295	10.849212	-2.872794	-25.768975	10.202576	0.333876	-0.447802	-1.187801	8.597335	2.212128	-0.367093	-2.076033	-13.46438	-3.035409	-0.412743	-0.578633	-0.601655
0.918383	-0.078592	9.863996	-36.055067	-258.423122	-35.50172	1.046878	0.180589	-1.24527	1.871865	0.663349	11.019818	0.199861	-27.335142	7.106615	0.346631	-0.433478	-1.174731	7.990667	2.20977	-1.276701	-1.304435	-12.190201	-4.725191	-0.384439	-0.546666	-0.587661
0.810187	-1.111251	10.141691	-41.142625	-264.575453	-48.53211	0.99151	0.192672	-1.286101	1.894833	0.66425	12.095971	4.662729	-31.793638	-1.226926	0.307999	-0.432631	-1.188253	8.412158	1.920176	-0.850886	-0.496196	-10.585428	-5.835994	-0.399048	-0.57595	-0.648169
0.429739	-1.508709	11.155563	-51.26827	-268.868156	-59.401957	0.936142	0.204755	-1.326932	2.133875	0.887136	9.836621	12.578695	-35.842558	0.188109	0.307924	-0.447952	-1.18725	8.707103	1.977576	-0.845137	-0.826367	-9.020373	-6.453495	-0.371299	-0.593386	-0.616135
-0.178406	-2.192967	12.220627	-59.62908	-273.11059	-65.858793	0.893766	0.223178	-1.343376	2.55207	-0.127046	10.467265	6.563127	-35.559476	-3.204997	0.334096	-0.46205	-1.201147	8.947435	2.036101	-0.60086	-2.636684	-8.143334	-6.11495	-0.370811	-0.561828	-0.602282
-1.301059	-2.41708	13.334454	-64.858563	-275.278089	-66.799345	0.880346	0.282508	-1.423654	2.49904	0.661926	10.749918	14.087487	-36.794442	-6.109034	0.308954	-0.474305	-1.242641	9.056799	1.975777	-1.078162	-3.831213	-7.759155	-5.226174	-0.343763	-0.608344	-0.630686
