1757_acc_x	1757_acc_y	1757_acc_z	1757_gyro_x	1757_gyro_y	1757_gyro_z	1757_mag_x	1757_mag_y	1757_mag_z	1758_acc_x	1758_acc_y	1758_acc_z	1758_gyro_x	1758_gyro_y	1758_gyro_z	1758_mag_x	1758_mag_y	1758_mag_z	1759_acc_x	1759_acc_y	1759_acc_z	1759_gyro_x	1759_gyro_y	1759_gyro_z	1759_mag_x	1759_mag_y	1759_mag_z
-2.306535	-3.527347	8.706953	-0.885472	3.655086	5.275416	0.356776	0.470193	-0.768294	3.894226	0.882846	8.741305	-8.209092	-19.612429	-8.48402	0.263699	-0.286841	-0.897122	9.552422	1.340805	0.12606	-0.098945	-5.413336	2.878763	-0.503381	-0.248615	-0.154728
-1.719474	-3.582067	9.456937	-0.393474	3.777867	5.490664	0.357133	0.49102	-0.799861	3.944646	0.826123	8.402629	-7.862257	-21.679711	-10.569738	0.27734	-0.269302	-0.927101	9.794259	1.225349	0.429502	0.143646	-6.056696	3.064336	-0.533422	-0.427966	-0.130133
-1.331107	-3.355245	8.840312	0.068386	3.961621	5.737656	0.343384	0.494923	-0.813588	4.115271	1.276397	8.349995	-7.918814	-23.933112	-13.12003	0.276009	-0.30423	-0.867694	9.675956	1.341772	0.427796	0.452472	-6.398048	3.645557	-0.491911	-0.424875	-0.176506
-1.733043	-3.297754	8.775906	-0.083457	3.98816	6.045193	0.371268	0.473346	-0.782719	4.407694	0.769025	8.525532	-7.815361	-25.754804	-15.727543	0.264214	-0.300018	-0.924818	9.619701	1.574952	0.607405	1.130317	-6.798299	4.134034	-0.519376	-0.410743	-0.146427
-1.898907	-3.755956	9.054901	-0.14471	3.956447	6.106188	0.399152	0.451769	-0.751849	4.05548	0.544066	8.178251	-7.812896	-28.222368	-18.249064	0.225286	-0.300243	-0.92399	9.500684	1.052044	0.483165	2.14834	-7.261343	4.896656	-0.505543	-0.391042	-0.209306
-1.444129	-3.871894	8.892767	0.499139	3.958757	6.165706	0.357891	0.480777	-0.810521	3.884124	1.107789	8.288378	-8.523164	-30.882002	-20.927188	0.263624	-0.302162	-0.896118	9.55916	1.284213	0.485254	3.41412	-7.756608	5.903054	-0.561588	-0.442914	-0.160492
-1.617048	-3.81457	8.832815	-0.080707	4.074096	6.598584	0.356776	0.470193	-0.768294	-1.650886	2.272881	40.216778	251.25399	15.729195	-122.126983	0.224696	-0.302387	-0.895291	9.791923	1.282931	0.309936	4.768728	-8.461871	6.543367	-0.519305	-0.41157	-0.1309
-1.617089	-3.757128	8.833056	0.168733	4.282016	7.337244	0.400653	0.448583	-0.790661	-6.758345	-0.219294	13.668494	162.385675	-11.970891	-44.029464	0.251458	-0.314341	-0.937888	9.496572	1.399758	0.304928	7.107724	-8.879783	6.353503	-0.519723	-0.443955	-0.129225
-1.666508	-3.81284	9.229673	0.262717	4.276535	7.858216	0.357148	0.473721	-0.78237	-6.217037	0.332164	1.33846	48.671437	-14.771758	-24.050288	0.263178	-0.333874	-0.879761	9.845342	2.269347	0.135518	8.567489	-8.649641	2.343242	-0.53356	-0.444985	-0.113768
-1.389268	-3.642652	8.781139	0.662157	4.494558	7.76861	0.399895	0.458826	-0.780001	-13.845115	7.227539	11.205043	28.186504	-0.276729	-43.805426	0.237892	-0.31656	-0.908913	10.665101	2.207897	-0.208764	7.685607	-7.034128	-3.345947	-0.505886	-0.442924	-0.144683
-2.003436	-3.69626	9.564593	0.295311	4.771856	7.559507	0.413244	0.485994	-0.787182	0.324227	5.56291	6.349274	-7.228745	-7.442711	-1.241011	0.238112	-0.330809	-0.922259	11.474726	3.190085	-0.967945	5.35548	-4.494176	-10.195344	-0.519443	-0.428588	-0.114535
-1.730774	-3.354713	8.889371	0.177866	5.977102	6.935434	0.38576	0.4765	-0.797144	1.739273	-2.994147	15.25987	-0.827634	-16.019521	5.121957	0.250422	-0.348198	-0.892831	11.411848	2.956927	-1.209662	0.562274	-0.914197	-17.89605	-0.519443	-0.428588	-0.114535
-1.720256	-4.04184	9.398153	0.986171	7.982162	6.628359	0.385032	0.452144	-0.7515	2.968884	-3.335972	13.530354	2.724134	-10.217473	15.756761	0.238037	-0.346129	-0.921255	10.646528	2.145618	-1.227429	-7.966155	1.391552	-19.006829	-0.533698	-0.462004	-0.097403
-2.23769	-4.156833	9.273943	-0.16285	9.746942	7.733679	0.401381	0.472939	-0.836305	1.800571	0.888257	10.395763	6.518816	-6.553958	6.794236	0.224765	-0.347276	-0.90663	9.354776	2.150072	-0.892197	-14.39922	1.009738	-10.914077	-0.533702	-0.443332	-0.144823
-1.829239	-3.98311	9.680433	1.38289	11.343048	8.552497	0.370882	0.487117	-0.786135	1.468625	2.464438	8.4653	13.373548	-12.190019	0.393078	0.224916	-0.316635	-0.908637	9.12875	2.094761	-0.357684	-15.916646	-0.159445	-4.851934	-0.533702	-0.443332	-0.144823
-1.848126	-4.044653	8.713689	1.14993	16.820205	10.604818	0.385389	0.472972	-0.783068	1.404884	1.900956	8.123779	15.608877	-11.101734	2.440358	0.22469	-0.362596	-0.905626	9.306764	2.152679	-0.294228	-17.081747	-0.238077	-3.563741	-0.533564	-0.426314	-0.161188
-1.953852	-3.870315	9.167011	1.164016	18.563455	11.369091	0.370911	0.452519	-0.751151	2.096339	2.181363	8.195163	9.966327	-5.5845	1.195891	0.263988	-0.345979	-0.921807	9.376379	2.329245	0.306683	-17.257535	0.457881	-2.89406	-0.547259	-0.428997	-0.114675
-1.831466	-3.983592	9.566727	-2.814626	19.404934	11.424884	0.412501	0.478937	-0.75903	1.892865	1.450493	9.379142	-0.547073	0.526659	-1.896265	0.238112	-0.330809	-0.922259	9.204118	1.691555	0.480382	-15.065108	0.366104	-2.137506	-0.547539	-0.444363	-0.129366
-1.838229	-3.870157	9.226091	-5.304425	22.611781	12.189481	0.383503	0.489929	-0.747672	1.270933	0.6071	9.81825	-5.459759	2.684076	-3.759268	0.250497	-0.332877	-0.893835	9.67254	1.863961	0.310207	-11.328659	-0.159413	-0.314776	-0.519864	-0.442302	-0.160281
-2.23872	-4.271957	9.216607	-4.108612	26.627053	13.631248	0.385003	0.486743	-0.786484	1.304865	-0.067586	11.34695	2.176547	0.81593	-3.34011	0.237741	-0.347201	-0.906905	9.845768	2.559974	0.196661	-8.666102	0.201751	1.171443	-0.519652	-0.444781	-0.113698
-1.940283	-4.154628	9.848041	-5.995791	31.405187	16.995503	0.371654	0.459575	-0.779303	1.303094	-0.405664	11.233386	12.682999	-1.172734	-2.364938	0.22491	-0.376845	-0.918972	10.134631	1.918732	-0.219904	-7.330867	1.213139	1.436849	-0.505957	-0.442098	-0.160211
-2.234183	-4.385875	9.443537	-6.442826	36.879514	19.170955	0.401024	0.452112	-0.804737	1.396058	0.438272	10.273642	17.9161	-2.348207	0.001343	0.250497	-0.332877	-0.893835	10.374422	2.209561	0.025361	-7.357199	2.508517	0.391617	-0.533493	-0.42714	-0.145661
-2.047121	-3.980531	10.24451	-6.763558	43.564101	20.353772	0.399895	0.458826	-0.780001	1.792456	1.338616	10.056305	15.982	-1.107101	3.403229	0.224985	-0.361525	-0.919976	10.311989	2.731886	-0.093328	-9.170568	4.229835	-1.046481	-0.519861	-0.460973	-0.11286
-1.865212	-4.150809	10.758804	-7.344667	51.422928	23.549564	0.41253	0.444338	-0.724047	1.25481	1.451489	9.139286	7.68423	-0.117253	4.732014	0.250127	-0.34927	-0.878482	10.375137	2.848892	0.147894	-11.97607	5.523452	-2.876238	-0.575217	-0.427752	-0.145871
-2.189566	-2.939946	11.780547	4.014894	59.091018	24.040129	0.399538	0.437998	-0.748434	1.439356	0.944617	9.652242	2.619377	0.08499	6.178886	0.198368	-0.379139	-0.889721	9.786211	2.792413	0.19655	-13.977596	6.070341	-3.207782	-0.519234	-0.412396	-0.115372
-2.505033	-4.152525	10.234878	9.807287	67.326457	26.395735	0.427393	0.45102	-0.752548	1.679611	0.775574	10.110053	-0.190037	0.00208	4.017812	0.237446	-0.348273	-0.892556	9.906154	2.443934	0.257174	-14.006964	6.191647	-3.116568	-0.491698	-0.427354	-0.129922
-3.062728	-4.665948	10.960662	11.304383	73.677728	30.542135	0.470512	0.439654	-0.764256	1.614793	0.775397	9.769006	0.491304	0.019358	2.692916	0.237151	-0.349345	-0.878206	9.781654	2.384645	-0.104715	-12.429348	5.876896	-1.714915	-0.505886	-0.442924	-0.144683
-2.098435	-4.496258	10.52549	17.343924	81.156348	34.663023	0.41403	0.441152	-0.762859	1.440672	0.888334	9.708835	1.822788	0.309781	3.066814	0.22469	-0.362596	-0.905626	9.729511	2.270111	0.253131	-9.493677	5.409029	0.171572	-0.50526	-0.394347	-0.147194
-2.544264	-4.435831	11.142208	19.309956	88.796569	39.104771	0.472041	0.401869	-0.768084	1.563918	0.437759	10.050711	2.287641	0.466369	3.469513	0.251012	-0.346054	-0.921531	9.790843	1.747539	0.311913	-5.304066	4.375211	1.017097	-0.506236	-0.457464	-0.174902
-2.259147	-4.378838	11.091163	21.890013	96.37346	43.942186	0.470541	0.405055	-0.729272	0.885006	0.552188	10.602695	3.593836	1.215163	4.03292	0.249982	-0.319701	-0.866139	10.083473	2.327377	0.259981	-2.016773	2.422376	1.686901	-0.519376	-0.410743	-0.146427
-2.543109	-4.493031	11.198819	24.545723	106.411746	48.482006	0.485019	0.425508	-0.761189	1.228004	1.171129	10.55383	5.323059	1.175582	4.064746	0.211124	-0.364815	-0.876651	10.022411	2.733797	0.200704	0.183792	0.418059	1.04667	-0.492395	-0.475105	-0.142939
-3.063143	-4.091532	10.963075	26.365104	115.032407	53.031732	0.469783	0.415298	-0.718612	1.501218	1.226352	9.880247	6.181486	0.636805	3.720967	0.263103	-0.349195	-0.878757	9.375434	2.735777	0.308413	0.110317	-0.801642	0.655437	-0.505606	-0.427558	-0.129992
-2.605066	-4.149305	10.971741	26.971471	122.604077	54.747278	0.526637	0.417328	-0.734085	1.22293	0.663918	10.270205	4.235778	0.61513	3.256762	0.238181	-0.375698	-0.933598	10.145115	2.618364	0.442038	0.317073	-1.311426	-0.259767	-0.547263	-0.410325	-0.162096
-2.729099	-4.840692	10.454941	30.032536	129.802036	57.89057	0.525894	0.410271	-0.705933	1.448703	1.113988	10.105501	2.878517	0.694508	2.547408	0.198217	-0.40978	-0.887714	9.552888	2.561144	0.310973	2.259808	-1.273851	-0.266982	-0.519514	-0.427762	-0.130062
-2.907093	-3.922709	10.171196	31.103355	137.079858	61.286085	0.512145	0.414174	-0.71966	1.449889	0.494353	10.10498	0.382574	1.068647	1.439305	0.224395	-0.363668	-0.891276	9.667619	2.560132	0.133453	4.817539	-1.789707	0.215223	-0.519585	-0.426936	-0.14559
-3.520888	-4.493291	10.952478	35.748093	143.374183	63.459672	0.513674	0.376389	-0.723488	1.279202	1.339776	10.271983	-0.35542	1.249065	0.546488	0.224615	-0.377917	-0.904622	8.896142	2.502822	-0.120727	6.258555	-2.265725	-0.582358	-0.519097	-0.395377	-0.131737
-3.752133	-4.493608	10.834317	41.067359	149.263185	66.421754	0.555307	0.35091	-0.678892	1.392347	1.114144	10.160932	3.127962	0.766823	1.346028	0.238332	-0.345057	-0.935605	8.954483	2.793067	-0.118391	6.680567	-2.401041	-2.14193	-0.491911	-0.424875	-0.176506
-3.979338	-3.918545	10.945983	46.100713	154.335066	68.175769	0.596182	0.335673	-0.623636	1.450127	1.001375	10.162046	3.898551	0.652956	1.499657	0.211789	-0.347351	-0.906354	9.01572	3.258282	0.064408	7.326846	-2.085887	-2.818145	-0.533288	-0.392276	-0.193918
-4.325092	-3.918778	10.825596	52.097739	157.770323	68.367628	0.624795	0.338452	-0.63841	1.504174	0.944794	9.993289	4.762207	0.542278	1.34511	0.211419	-0.363743	-0.891001	9.185045	2.791291	-0.413524	7.695452	-2.112939	-3.033286	-0.533426	-0.409295	-0.177553
-4.621717	-3.46121	10.310281	62.534708	160.137793	69.724902	0.624424	0.334924	-0.624334	1.499554	0.831943	9.766636	3.034537	0.647214	0.697372	0.224985	-0.361525	-0.919976	9.369507	2.443913	-0.052264	7.970336	-2.231145	-3.339338	-0.519447	-0.409917	-0.161955
-4.846198	-3.574962	10.532757	63.833195	159.88581	65.394642	0.63893	0.320778	-0.621268	1.388481	0.606979	9.933947	1.425753	0.38574	0.046087	0.250196	-0.394159	-0.889821	8.949791	2.443375	-0.419409	7.539247	-2.264863	-3.184806	-0.533843	-0.44168	-0.175879
-5.543645	-3.059662	10.009889	61.694159	156.695402	64.153351	0.640445	0.300293	-0.642588	1.208878	1.05771	9.647502	-0.124606	-0.15013	-0.73119	0.237371	-0.363593	-0.891552	9.291938	2.846625	-1.010144	7.103198	-2.69277	-3.364557	-0.506165	-0.45829	-0.159374
-5.508288	-3.581503	8.871769	65.098614	153.035259	63.256334	0.681292	0.319654	-0.622315	1.388828	1.057671	9.990966	-0.531925	-0.6717	-1.476577	0.224615	-0.377917	-0.904622	8.770137	2.617514	-0.541782	6.673166	-2.635351	-3.149339	-0.547472	-0.426518	-0.161259
-5.691476	-3.1817	8.301586	66.316667	147.614232	62.336983	0.695798	0.305509	-0.619249	1.273266	1.283208	9.988738	-2.453107	-1.212679	-2.192546	0.211494	-0.348423	-0.892004	9.180644	2.790302	-0.653151	6.456632	-3.193662	-2.473522	-0.533702	-0.443332	-0.144823
-5.305543	-2.668153	7.572463	69.44308	139.637016	60.052342	0.708804	0.294549	-0.57737	1.385309	1.001198	9.821	-4.618965	-1.514694	-2.413087	0.199033	-0.361675	-0.919424	9.476109	2.150544	-0.710275	5.316713	-3.634204	-1.67267	-0.547889	-0.458903	-0.159584
-5.833455	-2.15346	6.939229	74.293975	133.017999	57.876759	0.710733	0.225694	-0.560291	1.512636	0.945126	10.389766	-6.261615	-1.963574	-2.60384	0.250052	-0.36459	-0.877478	9.769955	2.207697	-0.764433	4.051714	-4.382337	-0.747641	-0.547818	-0.459729	-0.144057
-4.146502	-2.850757	5.377851	72.837336	126.453849	56.394668	0.738603	0.221417	-0.546913	1.331478	0.945118	9.989662	-3.954407	-2.701616	-2.48601	0.23722	-0.394234	-0.889545	9.529508	2.672104	-0.946577	2.570542	-5.068488	0.025068	-0.53356	-0.444985	-0.113768
-2.336506	-3.029233	4.275697	54.799579	104.423509	54.647593	0.751994	0.196686	-0.501619	1.507693	1.001267	10.163255	-3.801962	-2.882038	-2.734305	0.211639	-0.377992	-0.904347	9.818817	2.786345	-1.240115	1.244361	-5.35202	0.367416	-0.519727	-0.425283	-0.176646
0.563599	-4.816618	3.244796	42.434307	73.37867	53.350859	0.738617	0.204117	-0.529422	1.683777	0.494064	10.279734	-3.278079	-2.968176	-2.611428	0.224615	-0.377917	-0.904622	10.005459	1.974606	-0.820927	-0.109903	-5.671925	1.260177	-0.534052	-0.457872	-0.175042
1.585788	-3.08322	5.829354	23.621471	40.951509	43.619006	0.751966	0.231285	-0.536602	1.679611	0.775574	10.110053	-2.781234	-2.776906	-2.763266	0.224985	-0.361525	-0.919976	9.653158	2.150139	-0.706974	-0.636344	-6.19728	1.600787	-0.547609	-0.443537	-0.144894
2.525615	-3.59579	7.038913	29.745172	3.954718	31.992895	0.793584	0.223104	-0.509498	1.683238	0.775716	10.279971	-2.007391	-2.644847	-2.699675	0.211049	-0.380136	-0.875647	9.82735	2.904475	-0.760366	-0.51413	-6.722511	2.152991	-0.505468	-0.410539	-0.146357
4.118262	-2.967265	6.561067	42.817631	-35.380477	14.788417	0.796242	0.178605	-0.538063	1.84825	1.000431	9.94395	-1.913071	-2.520607	-2.760019	0.22469	-0.362596	-0.905626	9.884976	2.555389	-0.880562	-0.392821	-7.277067	2.583086	-0.506303	-0.475309	-0.143009
4.493723	-3.375195	5.259551	52.043117	-58.924134	-0.831348	0.766501	0.18254	-0.498552	1.335774	1.22696	10.216458	-1.659445	-1.996966	-2.631297	0.198518	-0.348498	-0.891729	10.126273	2.672237	-0.576132	0.127465	-7.70247	2.491542	-0.548169	-0.474269	-0.174275
3.562643	-4.182091	4.442414	47.747487	-70.154923	-15.324081	0.738974	0.224945	-0.560989	1.1533	1.283234	9.759762	-1.536023	-1.996203	-2.507878	0.225136	-0.330884	-0.921983	9.656189	2.267032	-0.526759	0.86384	-8.158628	2.491052	-0.534119	-0.475717	-0.143149
3.171552	-3.720097	4.948227	33.632722	-82.518906	-31.556598	0.795485	0.188848	-0.527403	1.388266	0.71964	9.934042	-0.731212	-1.863351	-2.50591	0.224395	-0.363668	-0.891276	9.832407	2.150228	-0.583859	2.186518	-8.489382	2.39615	-0.547542	-0.425692	-0.176786
3.07923	-3.600306	6.083545	23.56429	-93.306218	-49.648007	0.753523	0.158901	-0.505447	1.799254	0.94454	10.339171	0.597043	-1.847502	-2.350544	0.198518	-0.348498	-0.891729	10.001908	2.554872	-0.938268	2.766804	-8.849286	1.906752	-0.519514	-0.427762	-0.130062
2.850088	-3.427816	6.079815	19.355054	-100.229171	-64.504713	0.75348	0.210799	-0.557923	1.676093	0.719101	9.940086	1.892292	-1.986178	-2.073429	0.212015	-0.30139	-0.909365	9.769124	2.091298	-0.824834	3.317618	-8.653046	0.864671	-0.520073	-0.458495	-0.159444
2.129661	-4.111509	7.256359	16.728615	-108.178727	-80.396509	0.753495	0.1935	-0.540431	1.227442	0.833099	10.496906	3.589073	-2.148813	-2.042853	0.236856	-0.350417	-0.863856	9.651382	2.440271	-0.765645	4.114604	-8.454973	-0.26999	-0.562006	-0.475299	-0.158817
0.86128	-4.284852	6.776313	10.055696	-114.197432	-91.981528	0.697356	0.233125	-0.588094	1.676763	1.000801	9.996963	6.461783	-2.114372	-1.731919	0.198443	-0.363818	-0.890725	9.413927	2.091861	-0.891344	4.385821	-8.504119	-1.340431	-0.533493	-0.42714	-0.145661
0.349331	-4.283755	6.936851	3.485359	-120.498001	-100.380811	0.712976	0.229565	-0.627255	1.501864	0.888369	9.879962	7.484147	-1.857323	-1.543573	0.211865	-0.332031	-0.907358	9.662677	2.791447	-0.105186	4.84726	-7.848445	-2.476041	-0.505681	-0.408061	-0.192941
-0.323206	-4.337563	7.662338	-4.929841	-125.501884	-104.580621	0.683592	0.254327	-0.619312	1.326966	0.775936	9.762962	7.888566	-1.608515	-1.294149	0.224916	-0.316635	-0.908637	10.128298	1.801097	-0.57984	5.307659	-7.346026	-3.580343	-0.560895	-0.376492	-0.194896
-0.951151	-3.819651	7.765968	-11.674785	-129.822937	-105.950982	0.669457	0.272001	-0.636455	1.448272	1.33931	10.105691	7.671652	-1.643333	-1.078874	0.211199	-0.349495	-0.877655	9.653468	2.963697	-0.583699	6.077633	-6.813798	-4.502528	-0.547609	-0.443537	-0.144894
-1.275541	-4.102509	8.724583	-15.700652	-132.003092	-105.176952	0.697713	0.253953	-0.619661	1.445315	1.620868	9.992649	5.912683	-1.512349	-1.078987	0.237371	-0.363593	-0.891552	9.777232	1.918801	-0.406228	6.231672	-5.912629	-5.821536	-0.547676	-0.461382	-0.113001
-1.444212	-3.757011	8.893249	-17.380081	-132.217369	-103.242312	0.656051	0.314031	-0.699241	1.337199	1.114346	10.273002	5.079418	-1.432547	-0.832239	0.211569	-0.333103	-0.893008	9.471437	2.265707	-0.949409	6.663909	-5.135964	-6.835332	-0.506094	-0.459117	-0.143846
-1.661971	-3.926758	9.456602	-18.401474	-130.716491	-100.422492	0.669415	0.323899	-0.68893	1.675769	0.888093	9.940229	3.814964	-1.265432	-0.708283	0.211049	-0.380136	-0.875647	9.174966	1.917431	-1.076208	6.631722	-4.66779	-7.754282	-0.575425	-0.443945	-0.145034
-1.658837	-3.638826	9.628368	-18.68361	-128.721613	-97.474075	0.598426	0.339543	-0.6906	1.796082	1.338759	10.226224	3.660337	-1.325501	-1.202253	0.250052	-0.36459	-0.877478	9.362344	2.209879	-0.472601	6.482594	-3.560216	-8.431368	-0.561864	-0.476952	-0.127762
-2.055579	-3.063156	9.850399	-19.273532	-127.194264	-94.102829	0.642317	0.300635	-0.695476	1.395734	0.607264	10.273785	3.563056	-1.694257	-1.267654	0.198298	-0.334249	-0.878382	9.179928	2.150972	-0.775685	6.266369	-2.970348	-9.350221	-0.505815	-0.44375	-0.129155
-2.216906	-3.635275	10.356324	-19.777401	-126.933399	-90.20016	0.572042	0.357934	-0.760281	1.561201	1.226339	9.994735	2.823474	-1.608046	-1.822296	0.212305	-0.360528	-0.93405	9.005776	2.326346	-0.598523	5.685596	-1.988563	-9.841771	-0.575701	-0.477982	-0.112304
-2.561422	-3.807593	10.292066	-20.068037	-127.701157	-84.995516	0.541901	0.39294	-0.741678	1.3307	0.719748	9.932833	2.761842	-1.608025	-1.945657	0.211193	-0.409705	-0.88799	8.765309	2.325898	-0.842553	4.761508	-1.341637	-10.605522	-0.520349	-0.492532	-0.126714
-2.731948	-3.979552	10.344854	-21.459653	-128.19943	-79.599388	0.557136	0.40315	-0.784255	1.384986	1.17019	9.821142	2.112564	-1.676177	-2.162653	0.224395	-0.363668	-0.891276	8.948535	2.036349	-0.540953	4.022952	-0.819237	-11.094304	-0.561655	-0.460759	-0.128599
-2.732072	-3.807227	10.345578	-24.026161	-126.539342	-72.4775	0.558665	0.365365	-0.788084	1.048055	1.171168	10.210366	1.799414	-2.017012	-2.22795	0.22469	-0.362596	-0.905626	8.934115	2.556066	-1.257611	4.423384	-0.506544	-11.616768	-0.52014	-0.47634	-0.127551
-2.720937	-3.804814	10.914109	-24.807886	-123.419239	-65.920248	0.543001	0.420824	-0.801398	1.909789	1.451157	10.172097	1.616	-1.866038	-2.226596	0.185687	-0.378142	-0.903795	9.290413	2.55575	-1.131194	4.765569	-0.29372	-11.374542	-0.548098	-0.475095	-0.158747
-2.960018	-3.749378	10.398219	-26.297999	-119.854275	-60.918612	0.487276	0.412079	-0.810661	1.333896	0.945212	10.102941	1.212002	-2.026674	-1.889411	0.184877	-0.366037	-0.86175	9.232517	3.020988	-1.010503	5.044386	0.108408	-11.713631	-0.53391	-0.459525	-0.143986
-2.445593	-4.094642	10.349939	-28.091549	-115.078479	-57.062351	0.472398	0.422697	-0.799652	1.733442	0.831655	9.94139	1.084526	-2.363548	-2.201143	0.172711	-0.378217	-0.90352	9.175411	2.672914	-0.95318	5.106734	0.386773	-11.990225	-0.547468	-0.445189	-0.113838
-3.190066	-3.864337	10.336429	-29.577891	-109.677044	-54.025196	0.445658	0.42026	-0.837765	1.274151	1.452247	10.04552	0.494733	-2.586055	-2.142174	0.224615	-0.377917	-0.904622	8.816758	2.265956	-1.261048	4.775705	0.99104	-11.380709	-0.548306	-0.491288	-0.15791
-3.01925	-4.094469	10.281951	-31.982889	-104.032323	-51.134883	0.473499	0.450581	-0.859371	1.73191	1.000599	9.884893	0.52434	-2.706916	-2.359148	0.249461	-0.366734	-0.848779	9.593446	1.975798	-0.768723	4.440546	1.199535	-10.952649	-0.533981	-0.458699	-0.159514
-3.589236	-4.553104	10.382592	-35.364933	-97.777432	-48.23189	0.459007	0.447427	-0.844946	1.513198	1.283157	10.44669	0.40201	-2.616085	-2.419999	0.22447	-0.348348	-0.89228	8.883457	1.802696	-0.902484	4.478588	1.900057	-10.650527	-0.505957	-0.442098	-0.160211
-3.310883	-4.382675	9.990912	-40.762992	-90.676556	-44.849251	0.41513	0.469036	-0.822578	1.211835	0.776152	9.760544	0.616554	-2.736808	-2.297715	0.197476	-0.442564	-0.857007	9.292593	2.091389	-1.073265	4.547566	2.165815	-9.704673	-0.534469	-0.490257	-0.173368
-3.507858	-4.030864	11.636645	-48.658846	-89.692841	-50.761819	0.444872	0.465101	-0.862089	1.27536	1.452295	10.102159	0.553129	-2.860656	-2.237341	0.198813	-0.347426	-0.906078	9.174021	2.323963	-1.074477	4.40127	2.864416	-9.279629	-0.520073	-0.458495	-0.159444
-2.55701	-3.749186	10.519719	-65.596929	-101.007456	-44.209423	0.402496	0.483524	-0.878533	1.335667	1.28329	10.216505	1.044705	-3.069043	-2.239018	0.237741	-0.347201	-0.906905	8.941372	1.802314	-0.96129	5.081736	2.987009	-9.068754	-0.547747	-0.460555	-0.128529
-4.689661	-4.71495	12.633722	-48.683794	-101.02359	-46.712469	0.358634	0.487834	-0.838673	1.626558	0.944863	10.335544	1.536513	-3.276223	-2.42565	0.237226	-0.334024	-0.87921	9.003555	1.860996	-0.780222	4.967779	3.62076	-8.276786	-0.547676	-0.461382	-0.113001
-7.237983	-5.109144	14.003253	-40.044062	-91.7517	-47.353581	0.387618	0.494142	-0.867524	0.991244	0.776962	10.208825	1.317996	-3.433904	-2.18077	0.211934	-0.37692	-0.918696	8.993651	1.858771	-1.319384	4.20921	4.277732	-6.993611	-0.534607	-0.507276	-0.157003
-7.322199	-4.150732	9.743373	-40.972922	-97.303111	-40.845771	0.359377	0.494891	-0.866825	1.561847	0.888356	9.99445	1.780316	-3.462313	-1.625777	0.211419	-0.363743	-0.891001	9.603485	1.919947	-0.229808	4.273652	4.458974	-6.75022	-0.533839	-0.460351	-0.128459
-9.070244	-2.764819	11.135974	-44.101749	-99.817228	-37.34998	0.302495	0.527459	-0.886336	1.858698	1.22618	10.453896	2.210532	-3.611965	-1.349467	0.212085	-0.346279	-0.920704	9.291648	2.497922	-1.071535	5.234154	4.732995	-6.296587	-0.534261	-0.474065	-0.174205
-7.0673	-4.437324	-3.551194	-68.626588	-49.587497	-16.801837	0.358991	0.508662	-0.870241	1.569986	1.057679	10.39107	2.206479	-3.919426	-1.229215	0.185762	-0.362822	-0.904799	9.536496	2.034504	-0.649763	6.007002	4.669859	-5.840663	-0.534398	-0.491084	-0.15784
-12.774795	-1.609434	11.978073	-96.963753	-29.051552	-12.184702	0.359348	0.529489	-0.901809	1.556042	1.395141	9.768319	3.628178	-3.841071	-1.073152	0.198443	-0.363818	-0.890725	9.186936	1.978227	-0.416985	7.643521	4.671322	-5.418736	-0.534328	-0.49191	-0.142312
-12.332224	-1.785468	11.190313	-44.481718	-20.566752	-12.473856	0.331522	0.481869	-0.862711	1.908125	1.056748	10.058486	3.16337	-3.940155	-0.889543	0.249976	-0.379911	-0.876474	9.176357	2.266382	-0.954911	8.509062	4.887614	-5.331218	-0.520211	-0.475513	-0.143079
-12.143541	-1.44967	9.149504	-37.039987	-21.198748	-13.333643	0.259776	0.507755	-0.853721	1.786735	1.169388	9.772965	3.346434	-4.092943	-0.613463	0.224835	-0.392165	-0.917969	9.056414	2.614861	-1.015535	9.657692	5.342692	-4.573507	-0.562703	-0.523051	-0.171834
-11.932132	-1.740903	8.243102	-47.503798	-23.315458	-12.571171	0.272725	0.565993	-0.881809	2.136077	0.999892	9.949995	4.393116	-4.356614	-0.461102	0.224621	-0.317707	-0.894287	9.170179	2.555526	-1.253209	9.878961	5.860985	-4.332288	-0.520558	-0.508724	-0.125877
-12.362045	-0.585468	9.717201	-56.801529	-22.546721	-8.268813	0.302509	0.51016	-0.868844	1.911321	1.282213	10.228594	4.73014	-4.538712	-0.092704	0.211934	-0.37692	-0.918696	9.17126	2.090918	-1.255187	8.44076	6.611081	-3.413801	-0.547747	-0.460555	-0.128529
-11.16861	-0.588269	9.285759	-45.635436	-19.472788	-3.711973	0.286845	0.565619	-0.882158	1.508232	0.719614	10.163018	4.789353	-4.780436	-0.526653	0.211344	-0.379064	-0.889997	9.237128	1.511259	-0.957024	6.226896	7.088134	-2.980191	-0.533839	-0.460351	-0.128459
-9.796897	-0.35998	9.199742	-28.174457	-14.556264	0.856568	0.329607	0.533425	-0.862298	1.681598	1.000991	10.223521	4.751595	-5.389315	-1.272611	0.211124	-0.364815	-0.876651	9.113189	1.684521	-1.258018	4.204262	7.585097	-1.447121	-0.520424	-0.473035	-0.189663
-9.31064	-0.251742	7.732066	-19.284859	-8.55843	6.847229	0.274239	0.545508	-0.903129	1.795951	0.775406	10.16911	4.594203	-5.635596	-1.429326	0.250052	-0.36459	-0.877478	8.994191	1.626467	-1.320373	2.827334	7.684186	0.330032	-0.520979	-0.522438	-0.171623
-8.726754	-0.536952	8.310525	-13.731168	-2.279097	13.741149	0.259361	0.556125	-0.89212	1.509225	0.832323	10.219752	4.184594	-6.283671	-1.59024	0.198298	-0.334249	-0.878382	9.226414	1.85749	-1.494703	1.513995	7.748808	2.504469	-0.535095	-0.538835	-0.170857
-8.261214	-0.133504	8.719094	-3.738254	4.754417	18.273112	0.314329	0.575112	-0.872197	1.629322	1.39565	10.505843	3.677628	-7.272267	-1.446338	0.185392	-0.379214	-0.889446	9.047455	2.206104	-1.556428	1.526487	7.476655	5.164774	-0.520703	-0.488401	-0.204353
-8.253544	0.04051	9.117789	18.337512	14.666287	20.547818	0.258247	0.54554	-0.849892	1.565043	1.11382	10.164559	3.330428	-7.887691	-1.791844	0.185317	-0.394534	-0.888442	8.819458	1.104435	-1.265992	1.110736	7.44484	8.100624	-0.492537	-0.473453	-0.173994
-9.276619	0.445035	9.497407	26.210417	30.536239	25.47461	0.285702	0.589633	-0.874914	1.918466	1.338828	10.568479	3.468325	-9.289346	-2.884648	0.223949	-0.395381	-0.874919	8.872432	1.335368	-1.563438	-0.655049	8.14075	11.190787	-0.534469	-0.490257	-0.173368
-10.222854	1.485719	10.904149	47.219528	43.63752	25.105779	0.328835	0.560967	-0.86913	1.915055	1.226024	10.398466	3.6901	-11.222446	-2.256304	0.224169	-0.40963	-0.888265	8.812876	1.567807	-1.563549	-3.019144	7.740531	13.5854	-0.506933	-0.505215	-0.187918
-14.072251	-1.616725	10.020571	114.890526	33.60389	18.891048	0.315858	0.537328	-0.876025	1.922393	0.550295	10.681095	3.799836	-12.323887	-2.421307	0.210973	-0.395456	-0.874644	9.465935	2.264471	-1.248943	-4.495786	6.642149	15.76621	-0.53419	-0.474891	-0.158677
-2.833452	-0.669414	5.298925	49.960451	13.163191	38.615222	0.315086	0.56487	-0.882857	1.412766	0.551597	11.066692	3.075899	-15.655873	-0.72865	0.172566	-0.348648	-0.891177	9.401322	3.251156	-1.425561	-3.787989	5.001651	17.880599	-0.548236	-0.492114	-0.142382
-2.528618	-5.421546	8.978801	17.865212	-5.73725	3.658114	0.318144	0.4893	-0.890514	0.781533	0.7782	11.166862	-2.358226	-22.403901	3.053406	0.197702	-0.396603	-0.860018	10.827074	3.482445	-0.859	-0.505192	1.473909	19.994704	-0.478838	-0.489441	-0.173087
-1.219234	-4.332557	8.667878	-2.395002	-9.955673	9.566556	0.317001	0.513314	-0.883269	0.912294	1.454614	11.962804	-18.34418	-44.482265	13.85769	0.210829	-0.365887	-0.862301	12.016896	3.656198	-0.297087	4.265479	-3.898486	20.583856	-0.520144	-0.457668	-0.174972
0.588229	-3.177774	10.412815	-7.474102	4.691011	11.505826	0.302495	0.527459	-0.886336	2.440186	0.946023	13.409799	-22.170038	-49.321284	10.04539	0.185467	-0.363893	-0.890449	11.668841	3.42594	-0.005144	6.506674	-7.104287	17.839959	-0.519864	-0.442302	-0.160281
-0.504924	-3.522842	10.105945	7.526401	16.244973	4.321137	0.303238	0.534516	-0.914488	2.077523	0.495314	12.552572	-22.983025	-66.833159	12.830226	0.198958	-0.376995	-0.918421	10.725373	2.614789	-0.086119	4.950157	-6.771167	14.665055	-0.52077	-0.506246	-0.172461
-1.498375	-3.411597	9.064143	1.210987	16.597119	3.210351	0.302866	0.530988	-0.900412	1.770275	0.779131	14.358023	-27.484419	-81.325646	6.146879	0.159145	-0.380436	-0.874544	10.365213	2.381811	-0.453152	3.386989	-4.248711	12.733004	-0.548165	-0.49294	-0.126855
-2.078714	-3.412871	8.655037	-9.105959	10.839839	-0.134963	0.359734	0.515718	-0.898393	1.546194	0.951175	17.354019	3.906657	-98.94941	-5.810178	0.132452	-0.413371	-0.843286	9.472113	1.975327	-0.950645	0.927105	-1.755609	10.376455	-0.506024	-0.459943	-0.128318
-1.336882	-3.069243	8.557254	-22.408727	8.712664	3.119524	0.289131	0.517591	-0.896647	1.324928	1.062262	15.084903	-0.720609	-124.980592	-3.513861	0.145874	-0.381583	-0.859919	10.171969	3.192067	-1.231782	-3.758878	0.523931	7.203785	-0.548098	-0.475095	-0.158747
-1.557566	-3.814129	8.947634	-25.274908	9.156141	6.201687	0.345228	0.529864	-0.90146	0.598792	1.458878	16.145672	6.949925	-145.999422	-2.945824	0.132678	-0.367409	-0.846297	10.293998	3.367014	-0.989212	-7.995742	1.868227	2.933738	-0.534402	-0.472412	-0.205261
-2.018859	-3.929404	8.767684	-20.908013	6.845227	5.783561	0.316201	0.575455	-0.925085	0.895404	1.28968	16.548051	19.447058	-168.484747	0.87933	0.107611	-0.364344	-0.888795	10.703384	3.074699	-1.222373	-9.82634	2.194062	0.371498	-0.548444	-0.508306	-0.141545
-1.610449	-3.698239	9.174416	-17.398979	3.746356	6.735103	0.343727	0.53305	-0.862648	0.791261	1.233991	17.055343	31.307818	-189.853099	5.886605	0.107611	-0.364344	-0.888795	10.466914	3.249468	-1.226033	-9.776509	1.782103	-1.185418	-0.534398	-0.491084	-0.15784
-1.445409	-3.642369	8.836879	-16.33106	2.951651	6.780447	0.358605	0.522433	-0.873657	0.562423	1.121809	17.107052	52.01083	-210.349387	11.680455	0.081289	-0.380886	-0.87289	10.820741	3.36481	-1.218935	-8.746015	0.298329	-2.282318	-0.547822	-0.441058	-0.191477
-1.321494	-4.329821	9.291035	-11.559236	2.188164	5.588968	0.317744	0.52037	-0.911421	0.897021	0.444722	16.54734	69.433844	-229.031833	15.054271	0.015599	-0.369156	-0.829466	10.06193	3.542771	-0.753244	-7.471635	-1.365558	-3.623727	-0.548306	-0.491288	-0.15791
-1.503486	-4.04466	8.777223	-8.49979	2.062026	4.412765	0.329978	0.536953	-0.876374	1.47617	-0.119566	16.672234	83.792868	-243.245869	19.117449	0.002692	-0.414121	-0.840529	9.709338	3.3696	-0.700682	-6.958242	-2.833525	-3.465771	-0.548515	-0.50748	-0.157073
-1.781224	-3.525549	9.228652	-8.506556	1.768616	3.181327	0.302866	0.530988	-0.900412	1.976557	-0.34657	15.833331	102.639635	-254.491856	19.26759	-0.023479	-0.400022	-0.826631	9.298156	3.487192	-0.588077	-7.519148	-3.352064	-3.797447	-0.547889	-0.458903	-0.159584
-1.441902	-3.871412	9.006473	-9.067126	1.009221	2.158573	0.344885	0.491737	-0.8524	3.928623	-0.181432	15.648017	117.431246	-256.673685	20.090225	-0.050612	-0.40446	-0.768681	9.074331	3.432375	0.06625	-8.667128	-4.11868	-4.003564	-0.548377	-0.490462	-0.173438
-1.448708	-3.700535	8.666078	-8.702302	0.393521	2.392857	0.315844	0.554627	-0.893517	6.000846	-0.748665	15.634424	125.731778	-252.693015	14.494694	-0.115787	-0.405907	-0.752952	9.195665	3.432847	0.248172	-9.874719	-5.137787	-3.474774	-0.548169	-0.474269	-0.174275
-1.679005	-3.470844	8.605737	-9.010274	-0.010553	2.663184	0.317001	0.513314	-0.883269	6.429963	-0.131077	14.228627	126.231686	-243.066115	8.394094	-0.130025	-0.4858	-0.704609	9.021202	2.794663	0.302058	-10.31573	-6.177139	-3.68215	-0.534048	-0.476544	-0.127621
-1.782254	-3.640673	9.171317	-8.30485	0.335656	2.237435	0.302109	0.54123	-0.889752	5.343267	-2.15917	11.656378	133.087769	-236.497874	-1.338571	-0.143516	-0.472698	-0.676638	9.142846	3.608694	0.607254	-9.494217	-7.177883	-4.230464	-0.520491	-0.49088	-0.15777
-1.21969	-3.700701	8.670532	-9.251647	0.853661	2.248579	0.317758	0.503071	-0.89393	2.696331	-2.32554	8.939773	134.192999	-223.337719	-11.472627	-0.157158	-0.490238	-0.646659	8.7912	3.028991	0.658086	-8.359297	-7.255773	-5.181616	-0.562076	-0.474473	-0.174345
-1.561771	-4.159743	8.718774	-9.246635	1.465166	2.53451	0.359748	0.498419	-0.880901	-0.175169	-2.941934	6.444512	116.097156	-195.812267	-25.949123	-0.169838	-0.489241	-0.660733	9.489335	2.618366	0.070492	-7.337416	-6.329109	-5.709285	-0.548236	-0.492114	-0.142382
-1.493589	-3.870164	9.289625	-9.304638	1.674439	3.028757	0.342941	0.577891	-0.886971	-2.561215	-3.952555	5.091382	90.395423	-164.092694	-40.173836	-0.209507	-0.52225	-0.629199	9.261783	2.27218	0.483955	-6.992499	-5.469524	-5.898005	-0.534052	-0.457872	-0.175042
-1.44747	-3.872618	8.722208	-9.176144	2.252655	3.589796	0.329621	0.516125	-0.844807	-4.967895	-4.287969	2.832588	62.127762	-130.186367	-56.844396	-0.197417	-0.525391	-0.586425	9.960228	2.675114	0.019636	-7.167327	-4.309715	-5.719539	-0.562494	-0.506858	-0.172671
-0.927892	-3.64226	8.960607	-9.665067	2.3087	3.868119	0.344485	0.522807	-0.873308	-5.84161	-4.624762	2.304413	33.336535	-85.97114	-71.00807	-0.22448	-0.574718	-0.539814	9.433755	2.561167	0.248865	-7.338506	-2.815312	-5.359312	-0.534331	-0.473239	-0.189733
-1.44054	-4.21582	9.061878	-7.794498	2.502513	3.804551	0.329593	0.550724	-0.87979	-6.958222	-2.53686	4.094457	10.331723	-42.132049	-74.443842	-0.211354	-0.544002	-0.542097	9.548351	2.618231	0.071593	-7.570657	-1.446626	-4.692647	-0.562285	-0.490666	-0.173508
-1.217339	-3.872543	8.783515	-6.475352	2.661628	3.864674	0.329621	0.516125	-0.844807	-7.848401	-2.871933	5.49082	-0.778339	-4.120614	-65.598376	-0.198603	-0.589888	-0.539362	9.493581	2.212575	0.248482	-7.810087	-0.126183	-5.278753	-0.549074	-0.538213	-0.186455
-1.220472	-4.160474	8.611749	-5.218661	2.698574	3.83099	0.357091	0.542918	-0.852337	-8.847887	-2.701915	4.507538	-8.176046	27.836154	-48.487181	-0.211504	-0.574643	-0.54009	9.367171	2.501495	-0.171831	-7.928058	1.043026	-5.98682	-0.534469	-0.490257	-0.173368
-1.611314	-4.04313	9.116115	-4.39329	2.614763	3.428578	0.301766	0.503103	-0.840692	-7.978015	-2.252603	4.865888	-18.619133	58.828243	-26.609307	-0.211429	-0.559323	-0.541093	9.778508	2.790683	-0.222799	-7.554073	1.999258	-6.634526	-0.520561	-0.490053	-0.173298
-1.840249	-4.157847	9.111178	-4.025177	2.552931	3.610517	0.344856	0.526336	-0.887384	-6.315524	-1.805322	4.618128	-33.768146	86.514093	-5.907725	-0.185182	-0.558101	-0.555994	9.372403	2.618883	0.128198	-8.048998	2.155792	-7.15302	-0.575914	-0.475504	-0.158888
-1.383493	-3.928654	9.064198	-2.739406	2.500606	3.32996	0.315472	0.551099	-0.879441	-5.769609	-1.185518	5.98888	-43.972937	114.120883	12.331638	-0.184667	-0.571277	-0.58369	9.67063	2.21217	0.251783	-8.940577	2.582411	-7.304633	-0.562632	-0.523877	-0.156306
-1.610242	-3.985447	9.173209	-1.668129	2.32192	3.262638	0.357091	0.542918	-0.852337	-4.887025	-1.693398	6.856181	-51.92968	138.406103	26.810048	-0.185332	-0.588742	-0.553987	9.544084	2.559166	-0.168282	-9.68137	2.922859	-7.945356	-0.520144	-0.457668	-0.174972
-1.849323	-3.930011	8.657319	-1.115947	2.385611	3.292751	0.37234	0.535829	-0.877422	-3.439081	-1.245069	7.3399	-60.998781	159.911804	37.344876	-0.197643	-0.571352	-0.583415	9.485628	2.791852	-0.108487	-10.512654	2.855533	-7.636414	-0.53482	-0.504797	-0.203586
-1.504558	-4.102343	8.720129	-0.593737	2.4785	3.446094	0.37234	0.535829	-0.877422	-2.283153	-1.134374	7.590731	-70.753824	180.575167	43.770503	-0.157534	-0.56684	-0.641641	9.54532	2.501337	-0.108623	-12.144203	2.65855	-6.896099	-0.548448	-0.489635	-0.188966
-1.677601	-3.872694	8.6609	-0.254185	2.62956	3.815579	0.343713	0.550349	-0.880139	-1.290035	-1.135637	8.290958	-80.26209	198.447028	46.283929	-0.170209	-0.505633	-0.645379	9.65949	2.267774	-0.347038	-12.9464	1.942643	-5.972938	-0.562356	-0.489839	-0.189036
-1.734731	-4.044977	8.659063	-0.865031	2.651867	4.308375	0.386089	0.531926	-0.863695	-0.652819	-0.066305	8.588355	-89.992137	210.762254	45.504625	-0.156573	-0.548304	-0.685694	9.654683	2.441013	-0.585924	-13.092964	1.710307	-4.259848	-0.506583	-0.490675	-0.1577
-2.016881	-3.584272	8.882838	-0.859639	3.07446	4.989903	0.316229	0.540856	-0.890101	0.283381	-0.405444	9.287088	-99.56946	215.469459	42.306558	-0.13032	-0.486872	-0.69026	9.30885	2.676105	-0.112283	-12.473474	1.17926	-2.975953	-0.506654	-0.489849	-0.173227
-1.732836	-3.584962	8.7747	-1.532428	3.129646	5.268739	0.344113	0.519279	-0.859232	1.455586	0.043898	10.331159	-104.62834	213.351262	37.965119	-0.116974	-0.470405	-0.705889	9.371437	2.56056	0.068044	-12.47194	0.648518	-1.934309	-0.562214	-0.491492	-0.15798
-1.563998	-4.160225	8.605068	-1.041935	3.131588	5.298026	0.358962	0.54326	-0.905225	2.104868	0.494021	11.137791	-104.340466	206.375102	32.901385	-0.116754	-0.484653	-0.719235	9.436631	2.271281	0.367443	-12.814465	0.219045	-1.931019	-0.548169	-0.474269	-0.174275
-1.675457	-3.757328	8.775089	-2.141062	3.36464	5.979649	0.385703	0.545697	-0.867111	2.827429	0.944652	12.681946	-97.780517	196.905121	27.910411	-0.051504	-0.467886	-0.735967	9.49001	2.327986	0.069256	-13.650202	-0.243421	-1.86466	-0.534674	-0.525121	-0.12511
-1.678922	-3.585727	8.605254	-2.722554	3.45342	6.044099	0.370797	0.590913	-0.891085	3.287545	1.788795	12.748968	-89.472302	188.807276	22.472116	-0.024145	-0.417487	-0.796928	9.672831	2.212665	0.371597	-13.867653	-0.706821	-1.494911	-0.534469	-0.490257	-0.173368
-1.212802	-3.986461	9.010444	-2.567019	3.697901	6.231625	0.302509	0.51016	-0.868844	2.999155	1.451303	12.686	-84.433699	183.550515	16.442954	0.002692	-0.414121	-0.840529	9.437846	1.748597	0.365218	-13.16265	-1.503689	-1.096348	-0.534544	-0.47076	-0.236316
-1.553687	-4.560145	9.115056	-2.135484	3.911895	6.509862	0.345585	0.550692	-0.933027	3.005977	1.67691	13.026027	-83.25076	181.161115	9.391133	-0.009618	-0.396732	-0.869956	9.322595	2.446768	0.605611	-11.965602	-1.861705	-1.557413	-0.534402	-0.472412	-0.205261
-1.558762	-3.699487	8.891264	-2.13209	3.964666	7.277376	0.329235	0.529896	-0.848222	3.126614	1.958584	13.31188	-83.9545	181.016975	1.928649	0.015819	-0.383405	-0.842812	9.319564	2.329874	0.425396	-10.889631	-2.255482	-1.559431	-0.54859	-0.487983	-0.220021
-2.015436	-4.043563	8.937761	-1.39189	4.330271	7.863852	0.372726	0.522058	-0.874006	3.758216	2.802356	13.325889	-84.214425	181.765827	-5.401167	0.042361	-0.381111	-0.872063	9.262033	1.691173	0.421576	-9.559356	-2.04195	-1.045705	-0.548102	-0.456424	-0.206168
-2.308389	-4.044804	8.591075	-1.297185	4.322704	8.568784	0.357848	0.532675	-0.862997	4.170283	2.463951	13.730544	-83.975913	180.493419	-11.794947	0.068759	-0.349248	-0.888971	9.258752	2.155287	0.30374	-8.047428	-2.038723	-0.837257	-0.520912	-0.504593	-0.203516
-1.96045	-3.986646	8.82541	-0.865796	4.380608	9.059144	0.358219	0.536204	-0.877073	4.29038	3.027277	14.016634	-81.512922	176.94031	-16.390763	0.081069	-0.366638	-0.859544	9.384197	1.808044	0.663899	-6.068031	-1.701765	-0.204217	-0.562218	-0.472821	-0.205401
-1.732628	-3.87217	8.773493	-0.678044	4.526779	9.796968	0.342598	0.539764	-0.837911	4.818918	3.252056	14.537461	-74.913514	170.852316	-18.788905	0.121178	-0.362125	-0.91777	9.204813	1.866031	0.541031	-4.734368	-1.339384	0.706112	-0.53482	-0.504797	-0.203586
-2.120954	-4.156433	9.389876	-0.825915	4.792215	10.721689	0.343327	0.56412	-0.883555	4.864741	3.702166	14.029293	-72.964597	163.74121	-18.981423	0.121178	-0.362125	-0.91777	9.253385	2.095975	0.003958	-4.051681	-1.252111	1.375612	-0.562565	-0.506032	-0.188199
-1.61581	-3.986653	8.888944	0.62273	5.276039	12.013347	0.399809	0.562622	-0.884952	6.184257	4.150189	13.887558	-71.01317	154.565897	-17.406517	0.172497	-0.303759	-0.879838	8.963111	1.92341	0.237342	-3.182068	-1.260985	2.533912	-0.548866	-0.52202	-0.187292
-1.677808	-3.585486	8.662107	1.577049	5.675113	12.446405	0.373483	0.511815	-0.884666	6.700359	3.923802	13.784969	-69.978556	143.926856	-14.028101	0.147135	-0.301765	-0.907986	9.264254	2.156523	0.603275	-2.743777	-0.930516	3.264274	-0.53482	-0.504797	-0.203586
-1.902657	-4.733427	8.823386	1.795119	5.884975	13.001169	0.385346	0.52487	-0.835543	7.737314	4.147231	13.863559	-67.359921	133.978179	-10.1791	0.212455	-0.329887	-0.936057	8.738071	2.391278	0.893894	-2.801132	-0.938934	4.05918	-0.534887	-0.522642	-0.171694
-1.795326	-4.045659	8.48739	3.789109	6.076577	13.182536	0.373512	0.477217	-0.849683	9.411546	4.144295	14.125176	-59.058388	128.698051	-6.525657	0.199114	-0.286144	-0.910093	8.966973	2.156704	0.477959	-3.107336	-1.161418	4.764321	-0.506445	-0.473657	-0.174064
-1.673064	-3.986612	8.88783	4.894473	6.232254	13.457874	0.357834	0.549975	-0.880489	12.290736	4.143675	19.620605	-51.520245	126.22093	-6.667554	0.265985	-0.293586	-1.010916	8.913999	1.925771	0.775404	-3.073855	-1.849399	6.234566	-0.576823	-0.520776	-0.218488
-2.125532	-3.985074	9.163188	6.546029	6.093279	12.837552	0.371968	0.532301	-0.863346	12.690304	0.572404	-5.114546	-28.903878	49.198457	24.738625	0.239298	-0.266311	-0.969323	9.143886	2.214374	0.481507	-2.398555	-2.741607	6.969927	-0.534469	-0.490257	-0.173368
-1.553236	-3.640839	9.175771	7.588968	6.189294	12.928107	0.387604	0.511441	-0.885015	18.959125	4.177682	8.551081	-47.829028	40.858066	2.381955	0.278301	-0.250766	-0.971153	9.19684	1.980452	0.122177	-1.57858	-3.087398	5.195874	-0.549007	-0.520368	-0.218347
-2.018901	-3.871962	8.767926	5.174221	7.286394	12.768893	0.357091	0.542918	-0.852337	18.463057	5.306211	9.673941	-36.609082	29.566345	7.026247	0.239964	-0.248847	-0.999026	9.374314	2.270674	0.186622	-5.827813	-2.896143	5.943893	-0.562982	-0.538417	-0.186525
-1.625132	-3.414168	8.436532	5.938334	7.139445	12.488315	0.343356	0.529522	-0.848572	18.000332	5.194317	9.550896	-21.195238	17.084853	4.694869	0.251389	-0.269452	-0.926549	8.84701	2.040327	0.355449	-6.045556	-3.203754	6.037843	-0.534749	-0.505624	-0.188059
-1.596632	-4.327201	9.853998	4.572653	8.220894	14.135091	0.372354	0.51853	-0.85993	18.281463	5.923501	6.613507	-16.342204	-1.735104	8.580987	0.278672	-0.234373	-0.986507	9.30966	2.327649	-0.113766	-7.026657	-3.124677	6.927388	-0.575709	-0.44064	-0.207145
-1.609786	-4.617304	9.170555	7.049692	11.82122	14.769112	0.414716	0.517406	-0.860978	17.045484	6.43408	8.059967	-3.645936	-20.908186	11.021001	0.265621	-0.249769	-0.985227	8.961335	2.213543	0.178671	-8.685833	-2.955327	7.727271	-0.535099	-0.520164	-0.218277
-2.05013	-4.440788	10.07202	-1.299098	19.059109	15.432077	0.385332	0.542169	-0.853035	16.923414	8.408106	10.606782	18.90226	-45.13105	11.846503	0.290542	-0.223266	-0.930387	8.670076	1.517801	0.290016	-8.831173	-2.413791	8.550464	-0.506587	-0.472004	-0.20512
-2.402275	-4.84456	9.608825	-4.183093	26.356946	18.441475	0.371983	0.515002	-0.845854	15.337394	8.578774	9.101654	54.305395	-72.999941	17.702109	0.238928	-0.282704	-0.953969	8.731853	1.750711	0.471826	-8.078241	-1.876918	10.134563	-0.562352	-0.508511	-0.141615
-2.101486	-4.899072	10.353242	-2.768751	30.768453	20.256969	0.371968	0.532301	-0.863346	21.125258	15.282524	22.080542	219.126744	-90.660594	-10.702774	0.213497	-0.235821	-0.970778	9.208114	1.866772	0.720752	-5.630542	-1.611454	11.927799	-0.534402	-0.472412	-0.205261
-2.335822	-5.244762	10.063074	0.106141	37.162686	23.970951	0.428465	0.513503	-0.847251	4.834748	4.991956	7.349328	186.40468	-67.370698	-42.557169	0.225431	-0.329812	-0.936333	9.788682	2.676756	0.315869	-1.369213	-1.080548	12.337752	-0.548381	-0.47179	-0.220859
-2.398644	-5.245927	9.777695	-2.432647	48.981084	29.505699	0.399838	0.528023	-0.849968	2.229646	-0.125499	11.536164	52.470817	-41.834715	-28.5395	0.199259	-0.315713	-0.922435	10.908639	3.25495	0.33925	2.475477	0.721042	8.036077	-0.576406	-0.488391	-0.220162
-2.071919	-4.20326	11.891171	-8.69345	62.577868	36.520969	0.413587	0.524121	-0.836242	0.965235	1.733633	9.076839	53.10396	-34.207449	-11.755015	0.199774	-0.32889	-0.950131	12.846713	4.003752	-0.04057	2.587399	4.841636	0.038837	-0.589963	-0.474055	-0.190014
-1.832874	-5.752417	12.343934	4.612572	87.497336	36.581092	0.414344	0.513878	-0.846902	0.51391	0.328853	12.066672	60.225311	-28.223714	10.999665	0.185617	-0.333253	-0.892456	12.78339	3.015112	-0.405315	-3.783381	9.857627	-5.065925	-0.562218	-0.472821	-0.205401
-2.620226	-4.4724	16.027992	21.197918	106.293089	46.74214	0.415488	0.489864	-0.854146	2.395867	0.099263	11.256782	53.944611	-21.003387	20.191798	0.198223	-0.34957	-0.877379	10.839003	2.61353	-0.323546	-5.475889	10.997509	-0.511468	-0.562498	-0.488187	-0.220092
-2.392963	-6.036557	12.956977	41.677971	124.872159	58.512693	0.401367	0.490239	-0.853797	2.188376	1.224916	9.724835	48.125186	-17.957674	12.047689	0.211789	-0.347351	-0.906354	10.363728	3.020648	-0.450433	-2.225459	8.904054	4.86591	-0.56236	-0.471168	-0.236457
-2.025313	-5.514524	14.216597	43.053561	141.55625	69.632203	0.512831	0.490428	-0.817779	2.574325	1.899512	8.997552	33.700008	-11.416313	5.96622	0.172786	-0.362897	-0.904523	10.910819	2.790589	0.397179	-2.307149	6.989128	9.5823	-0.548452	-0.470964	-0.236386
-2.269546	-6.034709	13.414028	47.597764	158.837707	75.325896	0.457106	0.481684	-0.827042	1.88615	1.168556	9.039068	22.408726	-6.036432	0.677331	0.173302	-0.376073	-0.932219	10.851938	2.732648	0.395831	0.925984	6.046472	10.155829	-0.520699	-0.507072	-0.156933
-1.912948	-5.629972	14.104636	46.747735	175.471997	81.606825	0.499111	0.459732	-0.796522	1.451683	1.452114	10.275705	12.290808	-2.892883	-2.659809	0.186202	-0.391319	-0.931491	11.020609	3.020893	-0.01898	7.396713	4.087472	6.596212	-0.534194	-0.45622	-0.206098
-1.931012	-5.289183	13.196434	48.778414	192.711108	87.092129	0.500254	0.435719	-0.803766	1.335536	0.719938	10.159391	10.813058	-2.627456	-3.922302	0.134154	-0.36205	-0.918046	11.07922	3.194986	-0.017138	10.193701	2.279282	1.979559	-0.575847	-0.457659	-0.19078
-1.815266	-5.461349	13.25479	51.613433	207.14181	91.30326	0.540743	0.434253	-0.751926	1.620753	1.451648	10.109413	9.302581	-2.371882	-3.736009	0.185687	-0.378142	-0.903795	10.835607	3.600575	-0.37925	9.126346	2.342668	-1.562178	-0.548452	-0.470964	-0.236386
-2.213571	-5.805226	13.359254	58.10798	220.105492	93.610235	0.612475	0.425665	-0.778408	1.437284	1.395214	9.595982	5.319846	-2.266301	-4.169754	0.185386	-0.439424	-0.899781	10.775875	2.961379	-0.502884	7.142974	2.540862	-3.664735	-0.562636	-0.505206	-0.203727
-2.930155	-5.00682	11.87109	67.802927	232.035642	93.531084	0.555264	0.402808	-0.731367	1.388073	1.451984	9.991298	2.81364	-2.604302	-4.236787	0.185097	-0.380286	-0.875096	9.770015	3.602264	-0.578779	7.05174	2.78651	-3.787825	-0.562009	-0.456628	-0.206238
-3.764268	-5.288098	13.103949	77.264306	238.071479	90.475583	0.654537	0.334517	-0.677921	1.660401	1.338168	9.260933	2.379569	-2.703798	-3.929847	0.159069	-0.395756	-0.873541	9.643314	3.54248	-1.060482	6.897407	3.127804	-4.308447	-0.576681	-0.522428	-0.187432
-4.797323	-4.943185	12.971648	83.688329	238.533978	87.522062	0.63963	0.379733	-0.701895	2.180692	1.449954	9.385187	-0.18292	-2.612865	-4.054316	0.159069	-0.395756	-0.873541	9.586344	3.13633	-1.003406	4.559091	3.482359	-3.904367	-0.589758	-0.439191	-0.238271
-5.779183	-5.461385	12.495722	83.886012	235.956646	87.418285	0.696898	0.333393	-0.678968	1.742143	1.339009	10.394934	-5.37035	-2.492107	-4.458051	0.172416	-0.379289	-0.88917	9.221378	3.076592	-1.609325	2.340312	3.161539	-3.222436	-0.590522	-0.504788	-0.219395
-6.074944	-4.658926	12.038708	85.243795	230.612871	90.729816	0.709919	0.305134	-0.619598	1.511989	1.283109	10.390051	-6.829934	-3.093777	-4.372724	0.186057	-0.36175	-0.919149	9.042533	2.902274	-1.733182	-0.074183	1.649572	-2.778607	-0.548799	-0.504175	-0.219184
-4.614414	-4.321386	10.64778	102.56443	220.979062	94.324048	0.738931	0.276843	-0.613465	1.563726	1.170103	10.107967	-4.953963	-3.773363	-4.655422	0.172416	-0.379289	-0.88917	9.044619	3.4257	-1.551236	-2.452727	0.314331	-1.663376	-0.590105	-0.472403	-0.221069
-4.818883	-3.753842	8.998113	122.774123	211.756324	92.614048	0.752695	0.255641	-0.582246	1.570309	0.888688	10.390928	-2.828823	-4.296085	-4.998016	0.198958	-0.376995	-0.918421	9.750592	2.95873	-1.719729	-3.838906	-0.251987	-0.616525	-0.534402	-0.472412	-0.205261
-4.973602	-3.59012	6.949898	130.604438	205.998628	91.700977	0.780578	0.234064	-0.551377	1.510996	1.170401	10.333316	-1.712649	-4.003567	-5.364142	0.172636	-0.393537	-0.902516	9.877023	3.134666	-1.237531	-4.885998	-1.189514	0.950451	-0.562427	-0.489013	-0.204564
-5.68379	-3.939338	5.741174	121.849973	202.062285	91.294377	0.779078	0.23725	-0.512565	1.677648	1.16984	10.053745	-1.832133	-3.668819	-5.206771	0.186353	-0.360678	-0.933498	9.231147	3.136893	-1.069916	-5.005939	-1.506882	2.022113	-0.562569	-0.487361	-0.23562
-4.842623	-4.173586	4.847262	108.296634	197.511095	94.385798	0.795128	0.16802	-0.495835	1.7296	0.944173	9.771566	-0.87191	-3.385911	-4.401663	0.186573	-0.374926	-0.946844	9.469952	2.904543	-0.946689	-5.214545	-1.210908	2.907797	-0.562986	-0.519746	-0.233945
0.141247	-4.246496	2.159206	91.705102	178.681332	95.935854	0.822283	0.122087	-0.419322	1.452006	1.283122	10.275563	0.43017	-2.944962	-3.656362	0.17197	-0.411002	-0.872813	8.928342	2.670982	-1.556651	-5.888774	-1.314257	3.797079	-0.575776	-0.458485	-0.175253
3.047121	-4.76872	1.474732	66.51015	123.050115	88.422288	0.822626	0.160214	-0.468381	1.627444	1.113902	10.392326	0.923737	-2.942515	-3.070211	0.172711	-0.378217	-0.90352	9.525242	2.613039	-1.186452	-6.258611	-1.253778	3.737003	-0.56236	-0.471168	-0.236457
5.947742	-4.820031	3.46317	41.649869	48.383508	73.057486	0.808534	0.12599	-0.433049	1.447279	1.226602	10.048957	1.698076	-2.750534	-2.790228	0.198657	-0.438277	-0.914406	9.538852	2.441778	-0.468311	-6.412441	-1.254963	3.798693	-0.520286	-0.456016	-0.206027
7.029543	-4.809679	6.098455	33.057967	-19.687992	47.358786	0.808905	0.129519	-0.447124	1.27536	1.452295	10.102159	1.760488	-2.689225	-2.666256	0.172931	-0.392466	-0.916866	9.002765	2.674308	-0.716854	-6.204864	-2.107846	3.526938	-0.576335	-0.489217	-0.204634
7.55345	-4.406032	6.56499	35.019276	-65.32675	19.966637	0.836789	0.107942	-0.416255	1.162085	1.114575	10.156097	2.342639	-3.050568	-2.546069	0.186428	-0.345357	-0.934502	9.648641	2.672081	-0.88447	-5.130753	-2.591183	3.311408	-0.561734	-0.422591	-0.238968
6.149979	-3.836894	5.062499	45.125229	-87.941285	-6.956591	0.823797	0.101602	-0.440642	1.792109	0.887925	9.999286	3.726855	-3.52237	-2.734614	0.160106	-0.3619	-0.918597	9.890228	3.137633	-0.518649	-4.523403	-2.850711	1.996216	-0.561939	-0.457454	-0.19071
5.620297	-3.95454	4.312905	41.61039	-106.310073	-37.119434	0.823797	0.101602	-0.440642	1.789799	0.831499	9.885959	3.635463	-3.37364	-2.209134	0.172485	-0.424178	-0.900509	9.305258	2.32666	-0.353394	-2.927735	-3.171966	1.075072	-0.53454	-0.489431	-0.188896
4.124094	-4.242359	3.884776	29.450834	-109.157372	-62.132481	0.823412	0.115373	-0.444058	2.022586	0.774833	10.004027	3.700174	-3.128538	-2.052505	0.185537	-0.408783	-0.901788	9.422075	2.849074	-0.348968	-1.857434	-3.244406	-0.426043	-0.548661	-0.487157	-0.235549
2.755555	-4.240158	4.142318	16.88245	-106.801924	-82.430329	0.809277	0.133047	-0.4612	1.332926	1.452187	10.103368	2.37283	-3.139757	-2.916867	0.172781	-0.423106	-0.914858	9.482327	2.791111	-0.288208	-1.309208	-3.012212	-1.987829	-0.534753	-0.486952	-0.235479
2.418917	-4.52567	4.475549	4.761269	-104.59377	-97.701767	0.796671	0.112936	-0.482172	1.221421	1.452545	10.270869	2.528352	-3.046404	-2.82333	0.15981	-0.362972	-0.904247	9.42028	2.674352	-0.469523	-0.792342	-2.996457	-3.334514	-0.548102	-0.456424	-0.206168
1.816748	-4.231975	5.885834	-9.55312	-107.453105	-108.999806	0.825626	0.153842	-0.546005	1.443221	1.451782	9.879228	1.107039	-3.036789	-2.361959	0.186127	-0.406639	-0.930487	9.486439	2.443396	-0.10997	-0.426007	-2.926068	-4.100225	-0.548102	-0.456424	-0.206168
1.701209	-4.347016	5.826272	-12.722011	-115.115478	-115.222255	0.767644	0.158527	-0.505797	1.67985	1.282596	10.167119	1.606524	-2.688568	-3.067137	0.134229	-0.346729	-0.919049	9.070855	2.559999	-0.236993	-0.061225	-2.94587	-5.018305	-0.57578	-0.439814	-0.222673
0.854889	-4.68839	6.433506	-22.846637	-128.553092	-119.431855	0.755424	0.124645	-0.523352	1.210757	1.339457	9.761018	1.822975	-2.684818	-3.221065	0.134374	-0.376298	-0.931392	8.827222	2.500732	-0.66099	-0.155453	-2.29091	-6.274111	-0.54859	-0.487983	-0.220021
0.694012	-4.341204	7.000144	-30.12626	-144.625212	-120.74629	0.741246	0.194217	-0.59297	1.330831	1.283101	9.989947	1.635897	-2.810636	-3.099155	0.146094	-0.395831	-0.873265	9.303348	2.674869	-0.411817	0.033016	-1.551693	-6.706179	-0.548381	-0.47179	-0.220859
0.068211	-3.707926	7.217962	-38.312142	-160.241248	-119.349967	0.724854	0.225319	-0.56064	1.566167	1.789881	10.278407	0.927831	-2.606201	-2.912724	0.186422	-0.405567	-0.944837	9.662096	2.09404	-0.227966	0.499874	-0.720022	-7.109134	-0.548657	-0.505828	-0.188129
-0.260923	-3.589658	7.950854	-47.913255	-172.902098	-116.12155	0.712219	0.239807	-0.616595	1.39498	1.001577	10.274117	0.622515	-2.333529	-3.002742	0.16003	-0.37722	-0.917594	9.00346	2.848783	-0.656205	1.737049	-0.164032	-7.207951	-0.562569	-0.487361	-0.23562
-1.045948	-3.355693	8.789027	-54.560024	-179.595829	-111.730621	0.714134	0.188251	-0.617007	1.614708	1.451411	9.826215	0.775037	-2.484896	-3.004125	0.172416	-0.379289	-0.88917	8.823921	2.499991	-0.840711	2.662366	-0.099211	-7.242172	-0.506728	-0.470352	-0.236176
-1.607316	-3.410308	9.346182	-55.327156	-182.917797	-106.626814	0.670243	0.22716	-0.612131	1.434975	1.338789	9.482656	0.682862	-2.42615	-2.787819	0.146464	-0.379439	-0.888618	9.069889	2.501676	-0.297147	3.646324	-0.183648	-7.612066	-0.576197	-0.472199	-0.220999
-2.333684	-3.578233	10.240632	-52.43009	-183.794199	-101.401913	0.642331	0.283335	-0.677984	1.38872	1.114001	9.991013	0.86651	-2.575917	-2.974128	0.172636	-0.393537	-0.902516	9.249679	2.269461	-0.175021	5.069058	0.185689	-7.343931	-0.56236	-0.471168	-0.236457
-2.725888	-3.116481	10.689592	-49.035974	-183.810319	-95.888457	0.613318	0.311627	-0.684117	1.566683	0.888546	10.221009	0.742504	-2.637004	-3.252287	0.146389	-0.394759	-0.887615	8.950331	2.211071	-0.420398	5.965665	0.432675	-7.256673	-0.534402	-0.472412	-0.205261
-2.491262	-3.172882	10.978071	-47.357149	-184.08954	-89.576723	0.61519	0.311969	-0.737005	1.325241	1.677225	9.76372	0.675843	-3.035433	-3.410441	0.185097	-0.380286	-0.875096	9.065062	2.210059	-0.597917	6.555384	0.86209	-7.169175	-0.548448	-0.489635	-0.188966
-2.711289	-3.285669	11.427959	-46.660696	-184.870634	-82.810306	0.629696	0.297823	-0.733939	1.846179	1.451027	9.88769	-0.715643	-3.174123	-3.659563	0.172121	-0.380361	-0.87482	9.000834	2.557662	-0.837162	7.482665	1.109504	-7.112591	-0.589967	-0.455384	-0.237434
-2.541343	-2.309529	11.378548	-47.760844	-192.565525	-77.409285	0.558708	0.313467	-0.735608	1.6135	1.451364	9.769575	0.48159	-3.74269	-3.479286	0.120437	-0.39491	-0.887063	9.062031	2.093166	-0.778133	7.67254	1.535588	-6.840262	-0.561939	-0.457454	-0.19071
-1.832222	-3.569156	12.46681	-44.04051	-203.052674	-73.386972	0.558651	0.382665	-0.805576	1.158805	1.565124	10.043197	0.849123	-3.983714	-3.419731	0.146464	-0.379439	-0.888618	8.820869	1.918241	-1.082811	7.431808	1.989134	-6.413697	-0.56236	-0.471168	-0.236457
-2.248053	-4.318984	11.659935	-50.912611	-201.937575	-68.746923	0.529695	0.341758	-0.741742	1.27536	1.452295	10.102159	0.968956	-4.287998	-3.545972	0.17197	-0.411002	-0.872813	8.468858	2.442478	-0.907467	6.326763	2.317217	-5.983401	-0.562431	-0.470342	-0.251984
-3.78675	-3.454553	12.031462	-52.56784	-195.639587	-63.301512	0.546445	0.331483	-0.805639	1.558329	0.831883	9.824484	1.275088	-4.527794	-3.794733	0.121103	-0.377445	-0.916766	9.181434	1.976991	-0.716519	6.301763	2.523355	-5.220257	-0.548661	-0.487157	-0.235549
-3.588346	-3.334004	13.39976	-55.700703	-188.015514	-61.481268	0.546402	0.383381	-0.858114	1.620406	1.000957	10.052394	2.349713	-4.978288	-3.150962	0.134148	-0.42226	-0.928381	9.116375	2.208194	-1.016165	6.339683	3.037821	-4.672739	-0.534753	-0.486952	-0.235479
-3.656321	-3.91079	12.827702	-46.169944	-184.290297	-60.589168	0.504426	0.370734	-0.853651	1.674799	1.395068	9.940655	1.91591	-5.133684	-3.67693	0.17219	-0.42525	-0.886159	8.947435	2.036101	-0.60086	6.565833	3.57787	-3.575908	-0.576335	-0.489217	-0.204634
-4.49497	-4.078151	13.833632	-44.003229	-180.706862	-61.058733	0.420832	0.366267	-0.876292	1.448164	1.395641	10.105739	2.809884	-5.246993	-3.369059	0.146609	-0.409008	-0.900961	9.182669	1.919162	-0.65686	6.138832	3.784774	-3.025232	-0.548799	-0.504175	-0.219184
-5.867015	-3.846907	13.921579	-46.019034	-174.938238	-60.652419	0.491034	0.395464	-0.898945	1.902859	1.281881	9.832117	2.53024	-5.402038	-3.648276	0.133262	-0.425475	-0.885332	8.708899	2.152299	-0.724581	6.544631	3.838885	-2.201779	-0.57585	-0.438987	-0.238201
-6.725335	-4.535584	13.901981	-45.655997	-168.992507	-55.924391	0.464308	0.375728	-0.919567	1.675554	1.000754	9.940323	4.132744	-5.574105	-2.353926	0.184946	-0.410927	-0.873089	8.995041	2.207722	-1.198087	8.147742	3.876187	-2.29945	-0.562848	-0.502727	-0.25031
-10.753733	-1.052774	21.680902	-15.767867	-167.059807	-43.278736	0.393305	0.408671	-0.938729	1.225048	1.452687	10.440788	5.082336	-6.205537	-2.421096	0.134003	-0.392691	-0.916038	9.172785	2.381792	-1.134137	9.260787	4.091788	-2.060011	-0.535241	-0.518511	-0.249333
-12.535999	-2.813942	12.432284	-9.153442	-125.525622	-33.819269	0.393677	0.4122	-0.952805	1.846502	1.282036	9.887548	6.531524	-6.344873	-1.7431	0.133858	-0.363122	-0.903696	9.595782	1.918217	-0.649157	10.520905	3.514176	-1.970131	-0.562569	-0.487361	-0.23562
-22.821264	-0.753926	22.129399	-82.511707	-58.269366	-40.337284	0.380342	0.367733	-0.928132	2.13938	1.169026	10.120056	5.532842	-7.097229	-1.165652	0.133338	-0.410155	-0.886335	9.477925	2.790122	-0.527835	13.325294	3.092539	-1.642088	-0.562498	-0.488187	-0.220092
-24.894368	10.263031	19.009838	-144.695729	-38.947833	8.738192	0.380314	0.402332	-0.963116	1.674691	1.451398	9.940703	8.304902	-7.592133	0.188092	0.185681	-0.438352	-0.91413	9.543929	2.152386	-0.22992	16.278357	2.588829	-2.200501	-0.534891	-0.503971	-0.219114
-23.141375	1.109924	14.629414	-35.259606	-14.844257	23.319576	0.379528	0.447173	-0.987439	1.977456	1.226106	10.626233	6.077938	-7.805964	0.430799	0.15981	-0.362972	-0.904247	9.423851	2.558941	-0.290297	18.769332	2.113732	-2.726813	-0.576543	-0.50541	-0.203797
-19.574814	-0.19026	6.737049	5.452864	-9.821089	25.27716	0.393662	0.429499	-0.970296	1.902535	1.450872	9.832259	5.611883	-8.083413	-0.250553	0.15981	-0.362972	-0.904247	9.069599	2.152972	-0.358537	19.574885	2.730304	-2.916046	-0.549078	-0.519541	-0.233875
-18.38389	-1.342614	6.130222	-29.924758	-18.740293	22.10636	0.43641	0.414604	-0.967928	1.838148	1.225373	9.491023	4.891515	-8.744879	1.037071	0.120807	-0.378517	-0.902417	8.712876	1.862661	-0.546097	19.492377	3.549283	-2.277849	-0.562848	-0.502727	-0.25031
-17.114334	1.198901	9.689115	-61.802184	-24.606856	24.923809	0.392891	0.457041	-0.977128	1.668647	1.451161	9.657505	5.89198	-10.1769	1.578545	0.147054	-0.377295	-0.917318	8.76639	1.861289	-0.844531	16.607428	4.320333	-0.926332	-0.534961	-0.503145	-0.234642
-15.632944	3.494278	9.443452	-45.760545	-15.434452	27.694381	0.392891	0.457041	-0.977128	1.91253	1.28226	10.285234	2.018266	-11.176169	1.503836	0.132967	-0.426547	-0.870982	8.882781	2.093076	-0.901248	13.660826	4.811754	0.824077	-0.520774	-0.487575	-0.219881
-15.758563	4.366158	11.831561	5.586369	-6.461542	38.056138	0.394763	0.457383	-1.030016	1.815639	1.226856	11.132363	-1.953204	-15.112453	0.197549	0.160326	-0.376148	-0.931943	9.222957	1.449969	-1.736061	10.751049	5.695605	3.092086	-0.54922	-0.517889	-0.264931
-17.495949	3.960968	10.773112	46.691605	-1.131526	48.326187	0.408155	0.432653	-0.984722	1.684231	0.888425	10.336706	-15.58752	-30.101713	5.58664	0.120512	-0.379589	-0.888067	8.928997	1.915746	-1.619772	7.715179	6.118581	5.515612	-0.535028	-0.52099	-0.202749
-17.944449	5.272281	8.383038	54.365765	3.755252	59.604324	0.409283	0.425938	-1.009458	1.543612	0.551998	11.805424	-19.521861	-33.488587	4.686607	0.120726	-0.454047	-0.911748	8.685385	2.321335	-1.981884	5.139861	6.547004	7.570715	-0.548869	-0.503349	-0.234712
-15.970769	3.94292	6.824573	31.829396	14.947782	60.801393	0.424176	0.398022	-1.002975	1.850565	0.664879	12.717797	-26.330216	-46.034596	10.598804	0.133633	-0.409083	-0.900685	9.518639	2.611556	-1.545894	2.869935	6.920084	9.166531	-0.563199	-0.517267	-0.280529
-1.103948	-6.043541	11.56126	-78.734335	-0.604136	15.641997	0.423032	0.422036	-0.995731	2.393477	0.326874	13.861185	-27.934344	-60.410412	10.762896	0.120512	-0.379589	-0.888067	10.279152	3.596104	-1.767013	2.095583	6.023563	9.815484	-0.562639	-0.486534	-0.251147
-1.345665	-3.243498	8.101705	-19.28262	-8.981789	-7.297593	0.409655	0.429467	-1.023534	1.327608	2.189062	15.31241	-33.476368	-80.730925	11.481323	0.107536	-0.379664	-0.887791	11.29123	3.595786	-1.26905	0.907516	2.852475	11.393761	-0.576827	-0.502105	-0.265908
-0.01991	-5.413195	11.414511	-37.685243	1.103538	20.059346	0.423018	0.439335	-1.013223	0.534194	0.954063	18.465051	-5.122311	-106.26243	1.816877	0.133193	-0.380586	-0.873993	11.82168	3.420096	-1.319795	-0.691077	0.071035	10.648687	-0.590522	-0.504788	-0.219395
-1.335649	-5.412001	11.445754	11.440772	7.76398	0.338593	0.438268	0.432246	-1.038308	0.69467	0.389913	17.845168	0.852939	-136.721299	2.413052	0.081509	-0.395135	-0.886236	12.126374	3.072942	-0.836521	-2.124405	-0.55753	8.822963	-0.548799	-0.504175	-0.219184
-2.08816	-2.668061	8.203349	15.98484	5.627037	-1.794648	0.422618	0.470405	-1.03413	0.77281	1.010295	18.866411	11.548769	-165.190056	2.693739	0.081364	-0.365566	-0.873894	11.477352	3.481207	-0.786988	-4.044492	0.879908	5.216435	-0.534894	-0.4853	-0.266535
-1.212103	-3.411804	9.06971	3.00463	6.027124	0.978673	0.438282	0.414947	-1.020816	0.367087	0.560263	18.687651	29.2074	-195.303558	-0.304045	0.029825	-0.409683	-0.898479	10.407088	3.598059	-1.22565	-8.291667	3.05445	3.479295	-0.548869	-0.503349	-0.234712
-1.907857	-3.700444	8.600317	4.783762	5.060506	2.920566	0.436739	0.470031	-1.03448	-0.063215	0.56231	20.093969	48.15837	-225.281897	1.201519	0.015964	-0.412974	-0.855154	9.81349	3.656743	-1.416127	-11.215042	3.312606	4.130491	-0.548586	-0.506654	-0.172601
-2.026783	-2.207605	8.433805	0.811188	1.434992	3.8851	0.423032	0.422036	-0.995731	-0.478176	-0.113423	19.461902	74.418929	-253.136253	5.940263	0.002843	-0.38348	-0.842536	10.354249	3.30905	-0.928452	-12.645981	1.592894	4.2967	-0.520703	-0.488401	-0.204353
-0.985519	-3.125245	8.961665	-9.367209	0.864003	3.997119	0.452402	0.414572	-1.021165	-0.534533	-0.113268	19.517333	99.782531	-278.630175	8.913745	-0.049437	-0.460382	-0.836415	9.822294	3.658721	-0.936872	-12.975339	-1.566179	5.015943	-0.548452	-0.470964	-0.236386
-2.072939	-3.698873	8.938095	-6.944454	0.871136	4.358268	0.424161	0.415321	-1.020467	-0.373063	-0.56471	18.954184	125.088536	-298.809291	11.076787	-0.101781	-0.432185	-0.80862	9.481652	3.081491	-0.286971	-10.873872	-5.141835	5.453295	-0.535241	-0.518511	-0.249333
-1.964039	-3.64272	8.656298	-4.248729	1.20078	3.497184	0.422261	0.449578	-1.002563	1.565574	-0.963446	18.088722	151.226972	-309.17826	12.875469	-0.089835	-0.405757	-0.753504	9.430359	3.548212	0.193161	-7.19241	-8.01202	6.248332	-0.562639	-0.486534	-0.251147
-1.615359	-3.067347	8.949658	-7.777846	1.040748	2.615387	0.450488	0.466128	-1.020753	4.138147	0.157697	17.407756	154.848911	-308.537513	11.189159	-0.168507	-0.454312	-0.720139	8.850351	2.97078	0.65894	-3.355401	-10.20111	6.306012	-0.562777	-0.503553	-0.234782
-1.269357	-3.411763	9.068597	-10.261941	1.659436	1.252551	0.409269	0.443238	-1.026949	5.95945	-0.35358	16.426502	156.772607	-301.068051	4.760015	-0.182519	-0.488244	-0.674807	9.148463	3.086998	0.844657	-1.08899	-11.716288	5.724313	-0.590526	-0.486116	-0.266816
-1.556867	-3.239472	9.0069	-13.99372	2.402621	1.950059	0.422647	0.435807	-0.999147	5.714977	-0.750415	13.024167	151.338638	-291.888225	-0.455695	-0.247694	-0.489691	-0.659078	8.975526	2.739689	1.019593	0.28728	-12.279848	4.499453	-0.57641	-0.46972	-0.267582
-1.392152	-4.275233	8.607926	-16.160073	2.95863	3.529369	0.437124	0.45626	-1.031064	1.369239	-2.604856	8.741812	143.300413	-274.782667	-15.798646	-0.24873	-0.523547	-0.614022	9.554528	2.329087	0.369891	0.896471	-11.859824	2.539163	-0.534611	-0.488605	-0.204423
-1.55897	-3.412279	8.89247	-15.323286	3.217522	5.432528	0.438268	0.432246	-1.038308	-3.345264	-4.006523	6.093923	112.743637	-226.980835	-31.37851	-0.276309	-0.559698	-0.539715	9.491806	2.502708	0.189811	0.460279	-10.57987	-0.124363	-0.562431	-0.470342	-0.251984
-1.846024	-3.871845	8.828119	-14.182704	3.360481	6.842242	0.409641	0.446766	-1.041025	-7.531252	-5.803094	3.909699	72.244797	-181.452379	-49.300214	-0.276158	-0.529057	-0.541722	10.022566	3.140577	0.262342	-0.155195	-8.597367	-2.759972	-0.562569	-0.487361	-0.23562
-1.841694	-3.698556	9.056256	-14.30556	3.110233	7.175862	0.423761	0.446391	-1.041375	-10.519523	-6.193998	1.35557	29.282612	-123.168101	-72.459747	-0.302851	-0.561992	-0.510464	10.195618	2.964954	0.025274	-0.212671	-6.339127	-5.246055	-0.548661	-0.487157	-0.235549
-1.38803	-3.814736	8.837268	-12.007492	3.467355	6.439051	0.451274	0.421286	-0.996429	-11.336351	-4.669513	3.66094	0.083213	-59.470301	-83.624792	-0.277565	-0.579306	-0.481312	9.898201	3.023211	-0.099795	-0.786665	-3.476324	-7.213566	-0.534961	-0.503145	-0.234642
-1.561979	-3.872535	8.719981	-10.939286	3.391641	5.42274	0.422647	0.435807	-0.999147	-12.426631	-3.707272	6.582827	-16.817337	-2.726077	-70.868299	-0.303366	-0.548815	-0.482768	10.018009	2.732808	-0.038923	-1.756089	-0.656221	-8.140343	-0.590317	-0.469924	-0.267653
-1.496681	-4.215537	9.117618	-10.052336	3.213488	5.23329	0.42339	0.442863	-1.027299	-13.811565	-2.578123	6.498122	-18.743709	40.063941	-44.952482	-0.304258	-0.61224	-0.450054	10.130404	2.789378	-0.33601	-3.28688	1.118415	-8.723924	-0.548802	-0.485504	-0.266605
-1.218411	-3.930225	8.72642	-8.398723	3.162881	4.951706	0.477986	0.458322	-0.993299	-11.8989	-3.935569	4.329143	-27.553129	71.629213	-14.1276	-0.277495	-0.624195	-0.492651	10.543652	2.730357	-0.328554	-4.859305	2.013102	-10.006043	-0.548519	-0.488809	-0.204494
-1.553112	-3.813164	9.175047	-5.856062	2.771424	5.275362	0.435996	0.462974	-1.006328	-10.550695	-3.317416	5.546901	-45.771335	111.215588	12.671228	-0.303077	-0.607953	-0.507453	9.710418	2.904992	-0.70266	-6.802193	2.50375	-10.795917	-0.576339	-0.470546	-0.252055
-1.72038	-3.869516	9.398877	-4.168938	2.869055	5.486761	0.422661	0.418507	-0.981655	-8.868863	-2.869376	6.205374	-60.418171	139.605911	33.042808	-0.263998	-0.577087	-0.510287	10.356545	2.321757	-0.932655	-8.933196	2.254532	-11.092613	-0.548523	-0.470138	-0.251914
-1.207524	-3.583164	9.296399	-3.002847	2.87032	5.851428	0.449359	0.472842	-0.996017	-7.363354	-2.421155	6.690302	-68.871906	163.756196	47.890085	-0.28892	-0.60359	-0.565127	9.065217	2.616839	-0.53628	-10.380247	1.997035	-10.352698	-0.590105	-0.472403	-0.221069
-1.614821	-3.814087	8.946521	-2.602135	2.865575	6.432867	0.465008	0.434683	-1.000194	-5.673083	-2.592466	7.688092	-75.012731	184.544519	56.200726	-0.275944	-0.603515	-0.565403	9.062726	2.267641	-0.717484	-11.760078	2.101795	-9.125781	-0.590526	-0.486116	-0.266816
-1.841694	-3.698556	9.056256	-2.388328	2.61829	6.6429	0.437896	0.428718	-1.024232	-4.289719	-1.637292	7.88783	-80.979888	203.899272	58.85516	-0.275869	-0.588195	-0.566407	9.00373	2.732631	-0.6567	-12.98445	1.987307	-7.34827	-0.590735	-0.502309	-0.265978
-1.617048	-3.81457	8.832815	-2.416444	2.861218	6.892262	0.421889	0.446049	-0.988487	-3.073484	-1.695601	8.253008	-84.820301	219.915271	56.051711	-0.249031	-0.584829	-0.610007	8.830233	2.152771	-0.54266	-14.300539	2.119411	-5.785509	-0.548452	-0.470964	-0.236386
-1.670014	-3.583797	9.060079	-3.058917	2.980096	6.988043	0.450888	0.435057	-0.999845	-0.982866	-1.135417	9.203236	-91.649433	231.472466	50.118358	-0.260525	-0.519335	-0.671145	8.778515	2.328864	-0.12367	-14.969366	1.695347	-3.45837	-0.576547	-0.486738	-0.251218
-1.838354	-3.697832	9.226815	-2.564654	3.284138	7.482228	0.465737	0.459039	-1.045838	-0.049253	-0.122623	9.903108	-95.895683	239.516778	43.134761	-0.221378	-0.533358	-0.685318	9.133307	2.50253	-0.056419	-14.995982	1.035199	-1.743638	-0.562431	-0.470342	-0.251984
-1.324302	-3.526122	9.180707	-1.676789	3.103204	7.538065	0.435996	0.462974	-1.006328	1.226557	0.66406	10.440124	-93.816997	244.250985	34.828516	-0.207736	-0.515819	-0.715297	8.726641	2.098179	0.233682	-14.621577	0.872864	-0.705092	-0.576827	-0.502105	-0.265908
-1.267089	-3.468722	9.182062	-1.090072	3.46879	8.063648	0.492492	0.444176	-0.990233	2.136837	0.213601	12.610183	-90.616308	254.400701	24.511659	-0.168067	-0.482809	-0.746831	8.908922	2.215162	0.537012	-14.743125	0.713798	-0.153762	-0.563057	-0.518919	-0.249473
-1.49825	-3.583921	9.063419	-0.659347	3.747723	8.036275	0.408883	0.457009	-1.030365	3.543839	1.451377	13.942951	-92.055873	249.811743	16.479996	-0.218865	-0.494142	-0.802124	8.967918	1.750171	0.476228	-14.49794	0.251744	0.244872	-0.562643	-0.467863	-0.298568
-2.121451	-3.467135	9.392772	-1.54927	3.778129	7.701999	0.465751	0.441739	-1.028346	3.225313	0.436686	12.406784	-77.792571	241.515496	15.884755	-0.165775	-0.429345	-0.85029	8.673688	2.332101	0.593012	-14.192162	-0.2391	0.490611	-0.576965	-0.519123	-0.249543
-1.716749	-4.270883	9.567747	-1.5197	4.125705	6.879565	0.422618	0.470405	-1.03413	3.13255	2.015152	13.595125	-85.25943	234.425319	8.717508	-0.152359	-0.457767	-0.877258	8.615772	2.332483	0.651818	-13.5754	-0.454475	0.825598	-0.549011	-0.501696	-0.265768
-1.617296	-3.469921	8.834262	-0.536916	4.124373	7.398047	0.4784	0.409952	-0.9549	3.447056	1.339642	14.790033	-92.222979	230.837003	5.470009	-0.099645	-0.469572	-0.920407	8.621099	1.462085	0.82783	-11.944392	-0.815355	0.79085	-0.576272	-0.452701	-0.283947
-1.333085	-3.700376	8.725158	-0.291994	3.969775	7.578829	0.464237	0.462225	-1.007026	3.972183	1.451618	15.140845	-93.76392	230.611043	-0.452504	-0.085413	-0.449889	-0.979085	9.026684	2.331044	0.539708	-10.06874	-1.388841	0.695105	-0.576827	-0.502105	-0.265908
-1.613666	-3.871288	9.003132	0.260294	4.127051	7.487795	0.467652	0.407483	-1.046251	4.574539	1.395253	16.398958	-95.745687	232.156112	-6.480978	-0.059015	-0.418026	-0.995994	8.437873	1.751634	0.526231	-7.169418	-1.877301	1.60383	-0.57641	-0.46972	-0.267582
-1.896805	-3.583149	9.169331	0.908561	4.304361	8.378139	0.452417	0.397273	-1.003674	5.334655	1.563318	16.981212	-97.327653	231.191008	-11.825022	-0.033358	-0.418948	-0.982195	8.973555	1.693331	0.775515	-4.022935	-2.24157	2.419384	-0.590593	-0.503961	-0.234923
-1.781964	-4.042764	9.169627	0.237395	4.573971	8.721782	0.464637	0.431155	-0.986118	6.370101	2.575374	17.060466	-101.656154	228.165127	-16.390234	0.044862	-0.462315	-1.009538	8.68027	1.868729	0.890568	-1.059871	-2.45419	3.296011	-0.576477	-0.487565	-0.23569
-1.387864	-4.044502	8.836303	0.891907	5.421806	10.113656	0.45013	0.4453	-0.989185	7.645133	3.136688	17.540653	-104.931748	223.116051	-18.570205	0.058804	-0.383494	-1.043532	8.790599	1.866728	0.473421	0.82292	-2.389085	3.563954	-0.548735	-0.467659	-0.298498
-1.848209	-3.92977	8.714172	2.491156	5.726129	11.033978	0.479515	0.420537	-0.997128	9.92271	3.582072	16.456597	-107.324841	214.815018	-18.130719	0.099133	-0.39323	-1.115104	8.857049	1.984476	0.894364	1.936698	-2.609618	4.569581	-0.590388	-0.469098	-0.28318
-1.955172	-3.583349	9.111364	1.146476	5.896572	11.715266	0.493635	0.420163	-0.997477	27.248171	22.234221	61.562118	-135.503793	194.295018	-35.096426	0.112555	-0.361442	-1.131737	8.976026	1.577674	0.894834	2.893949	-2.639922	4.871899	-0.590317	-0.469924	-0.267653
-1.604799	-3.811916	9.458199	4.398869	5.963467	12.565632	0.451259	0.438586	-1.013921	11.632981	-9.665214	9.120989	-180.345774	125.664704	30.279547	0.164019	-0.332645	-1.106147	8.850216	3.028856	0.659187	6.221374	-2.809273	4.646708	-0.576477	-0.487565	-0.23569
-2.193554	-2.953256	8.65474	5.601695	6.792181	13.158283	0.491363	0.450891	-0.965497	22.93088	7.949395	14.355855	-108.557095	88.59741	3.82533	0.164904	-0.329429	-1.149197	9.19713	2.329155	0.183567	3.585442	-2.510615	1.476212	-0.589896	-0.45621	-0.221906
-1.555961	-2.952023	9.06496	5.578235	7.991936	13.055186	0.4776	0.472093	-0.996715	22.74565	5.411797	10.839648	-64.396626	84.845305	11.869779	0.203462	-0.345596	-1.13467	9.365665	2.675476	-0.230996	-0.198444	-2.136999	2.496724	-0.562222	-0.454149	-0.252822
-1.828042	-4.097752	9.736803	5.796657	12.838146	14.022613	0.479515	0.420537	-0.997128	25.681158	5.967269	8.240924	-61.085377	77.275185	4.244126	0.229929	-0.358623	-1.162918	8.771237	2.617761	-0.481875	-1.433877	-2.66523	2.870481	-0.590806	-0.501483	-0.281506
-2.038296	-3.863718	10.699817	-0.357123	18.711476	13.951785	0.452045	0.393744	-0.989598	25.000522	6.982986	8.793667	-53.20265	55.051001	-3.461842	0.204278	-0.297491	-1.166381	8.647412	2.268092	-0.845001	-3.320151	-3.344635	2.849992	-0.576756	-0.502931	-0.25038
-1.83621	-3.582467	9.341004	-3.978132	22.687524	14.180153	0.479129	0.434308	-1.000544	21.352301	7.779981	10.472788	-38.630115	22.482968	-6.08612	0.256697	-0.310368	-1.19518	8.94786	2.326729	-0.539717	-7.073905	-3.776622	4.882862	-0.57613	-0.454354	-0.252892
-2.175324	-3.523811	9.561976	-6.58372	26.750335	15.2963	0.464251	0.444926	-0.989534	17.763665	7.278883	9.434536	-2.252174	-12.384011	-4.985487	0.243206	-0.297266	-1.167208	8.65523	1.746891	-0.487785	-9.505951	-4.661724	6.821446	-0.576343	-0.451875	-0.299475
-1.897255	-4.502455	9.108617	-7.243733	28.615019	15.911141	0.521133	0.412357	-0.970024	14.761178	8.241821	9.032641	18.850873	-41.20557	-7.043055	0.24313	-0.312587	-1.166204	8.663878	1.342089	-0.070167	-8.070636	-4.906363	10.271256	-0.590668	-0.484464	-0.297871
-2.351784	-4.731166	9.269303	-7.840604	33.953614	19.158089	0.521876	0.419414	-0.998175	10.362813	8.082457	10.525321	33.981574	-65.70774	-6.503747	0.243426	-0.311515	-1.180554	8.788128	1.982386	0.354102	-4.756233	-6.041389	14.696728	-0.575713	-0.421969	-0.254566
-2.632655	-4.499986	9.548966	-7.172217	39.711106	23.910662	0.479886	0.424066	-1.011204	10.20771	8.365144	11.371526	57.128432	-95.66111	-1.788707	0.23082	-0.295198	-1.195632	8.806816	1.521734	1.310634	0.536265	-6.526328	19.050954	-0.562293	-0.453323	-0.268349
-2.285415	-5.016485	9.724035	-5.523474	45.255178	28.902113	0.506613	0.443802	-0.990582	8.009176	9.72084	10.930248	87.347666	-126.85412	13.062411	0.191371	-0.342456	-1.177444	9.16655	1.464084	1.616524	5.151231	-6.114667	22.241905	-0.589967	-0.455384	-0.237434
-2.8814	-4.032044	11.478334	-1.752233	58.302184	31.617621	0.520362	0.439899	-0.976855	0.387054	5.729646	3.916331	164.349933	-146.52328	7.65726	0.217543	-0.356554	-1.191341	9.532482	1.582145	2.282597	11.455981	-5.436754	23.927669	-0.603599	-0.421551	-0.270234
-2.539561	-4.779515	11.368172	5.104813	73.961405	35.501148	0.563123	0.407705	-0.956995	-1.761193	-6.317989	7.314051	274.882738	-128.23758	-44.477892	0.151998	-0.374394	-1.16026	10.420775	2.161869	2.541204	16.824081	-4.11887	22.556918	-0.61848	-0.503543	-0.250591
-2.776881	-4.711251	13.864382	16.344658	92.584065	42.578174	0.561594	0.44549	-0.953167	4.582454	-1.477509	16.509819	141.492159	-84.517074	-45.630489	0.138426	-0.436822	-1.14162	12.981678	4.297818	0.921377	28.986415	-1.778003	10.366635	-0.576059	-0.45518	-0.237364
-2.372055	-5.687323	14.038633	31.274847	111.307148	53.018366	0.53604	0.367141	-0.946049	3.234768	0.549726	12.859995	83.219464	-30.978826	17.403205	0.1382	-0.482784	-1.138609	17.256654	6.256118	-0.547464	20.251021	5.279684	-12.58793	-0.631624	-0.438151	-0.269537
-2.397883	-6.025176	15.627958	30.685933	138.389564	62.105647	0.577244	0.40733	-0.957344	2.417231	2.348759	7.069767	60.718292	-11.96715	30.214244	0.098977	-0.484081	-1.123432	14.645651	3.411637	-1.746229	-2.364085	16.595513	-20.169193	-0.631762	-0.45517	-0.253173
-2.44668	-6.942511	16.020956	39.020851	165.302415	73.279213	0.605113	0.403053	-0.943967	0.431454	2.353669	8.386805	45.1158	-19.038221	12.003695	0.098462	-0.470904	-1.095736	11.061478	3.249106	-0.975401	-4.069424	15.837987	-9.616467	-0.576406	-0.488391	-0.220162
-2.676729	-7.057469	15.959166	43.339235	190.32369	86.854408	0.633412	0.333106	-0.874698	2.759218	1.843332	9.567527	43.677731	-17.610533	15.993668	0.124414	-0.470754	-1.096287	10.582725	2.783848	-1.40553	8.635399	11.319741	2.767271	-0.575917	-0.456832	-0.206308
-2.391197	-7.574891	15.905709	51.108056	214.454124	98.932945	0.634926	0.312621	-0.896018	3.459214	1.840034	7.317659	34.405006	-9.270673	7.46789	0.15014	-0.516565	-1.093828	10.359637	3.833217	-0.566785	18.139173	6.932091	10.303217	-0.603595	-0.440222	-0.222814
-1.929987	-7.344733	16.086141	59.906319	238.089804	108.823651	0.660895	0.3426	-0.864736	2.277821	2.01238	8.595125	9.599777	-3.31678	-4.022616	0.123673	-0.503538	-1.065581	10.366239	3.834701	-0.207344	19.202162	4.572708	5.145182	-0.603804	-0.456414	-0.221977
-1.939185	-6.944572	15.633005	69.991958	262.101119	118.409745	0.689937	0.27971	-0.82362	1.641927	0.494788	11.01484	6.368978	-2.288068	-3.490913	0.124113	-0.532036	-1.092273	10.662805	3.195189	-0.204561	18.142604	4.493645	-2.369154	-0.604434	-0.48632	-0.266886
-2.095442	-6.826187	16.426091	83.765762	282.891128	120.975913	0.744904	0.298697	-0.803696	1.459991	0.26941	10.557907	8.732072	-0.919072	-1.934003	0.098016	-0.502617	-1.079379	11.074123	3.019522	-0.317414	20.084003	5.213752	-9.225388	-0.589487	-0.386483	-0.318422
-4.1097	-6.367376	15.877371	95.342204	294.905062	116.724901	0.718978	0.21682	-0.782503	1.553085	1.676699	9.655277	7.82241	-2.032977	-2.161607	0.098387	-0.486224	-1.094732	10.234826	2.960369	-1.05195	19.960024	6.860143	-11.708181	-0.590176	-0.471576	-0.236597
-4.684886	-5.793028	15.754943	90.20824	296.748347	109.107858	0.802244	0.165861	-0.693311	1.488613	2.127213	9.371249	2.684383	-2.864477	-2.204837	0.110992	-0.502542	-1.079655	9.214795	3.539964	-1.906882	15.106621	8.577159	-10.812556	-0.63197	-0.471363	-0.252335
-6.071572	-5.335155	15.104766	82.170489	293.807113	110.707494	0.815207	0.206799	-0.703907	2.171691	1.731275	8.988947	-6.942985	-2.210073	-3.747471	0.097866	-0.533258	-1.077372	9.155354	3.249471	-1.969125	10.005921	9.114762	-8.351808	-0.603942	-0.473433	-0.205612
-4.558533	-4.596531	13.489228	94.154473	285.771548	117.591143	0.857611	0.153777	-0.65248	1.214599	1.226938	9.930842	-12.622202	-1.995741	-5.352955	0.123082	-0.505682	-1.036881	9.334063	3.481865	-1.845021	5.48251	8.770482	-6.194508	-0.562222	-0.454149	-0.252822
-3.799242	-4.66372	11.344158	118.961893	274.902667	111.520115	0.872146	0.105033	-0.61443	1.334134	1.452234	10.160008	-13.309202	-2.643707	-6.068989	0.08467	-0.519084	-1.06375	9.1463	3.828501	-2.386001	-0.775071	7.968695	-4.762189	-0.618267	-0.506022	-0.204008
-4.318395	-4.848982	8.207606	128.192598	269.615431	107.729845	0.914137	0.100381	-0.601401	1.503289	0.775755	9.936507	-14.915636	-2.72059	-6.810911	0.111583	-0.500398	-1.108354	9.514122	3.133498	-1.723389	-8.271273	6.210382	-2.954058	-0.604084	-0.471781	-0.236667
-3.043275	-5.663284	6.069421	113.938995	265.02037	111.802964	0.898544	0.069343	-0.527256	1.915378	1.057033	10.398323	-13.534207	-3.379202	-6.569727	0.123893	-0.517787	-1.078927	9.278058	3.134038	-1.727791	-11.976561	4.096122	-0.91343	-0.603737	-0.438569	-0.253869
2.886415	-6.202463	1.977036	81.599187	243.19492	116.996363	0.926099	-0.00766	-0.429836	1.861978	0.77563	10.566796	-11.184693	-3.227354	-6.473843	0.124709	-0.469682	-1.110637	9.387557	3.015638	-2.20534	-12.266496	1.3865	0.720383	-0.617436	-0.422581	-0.254777
6.008022	-5.291468	0.677665	49.727873	158.789792	110.169033	0.912007	-0.041884	-0.394503	1.452006	1.283122	10.275563	-8.619479	-3.07558	-5.946199	0.097866	-0.533258	-1.077372	9.511766	2.726224	-1.904841	-10.947153	-0.552579	2.344711	-0.603737	-0.438569	-0.253869
7.851946	-5.277795	4.237075	37.534357	55.203167	90.529668	0.938348	-0.008377	-0.377297	1.863403	0.663017	10.623341	-5.744753	-2.802257	-4.646403	0.071844	-0.488518	-1.065481	9.695708	3.076006	-1.480708	-8.58553	-2.631669	3.079605	-0.604013	-0.472607	-0.221139
8.837053	-5.2635	7.779782	34.066002	-24.709155	62.235348	0.954026	-0.081135	-0.346491	1.280411	1.339823	10.328623	-3.429944	-2.84204	-3.44265	0.085046	-0.442482	-1.068768	9.650727	3.195507	-0.702524	-7.016804	-3.39515	3.505459	-0.631553	-0.438978	-0.25401
7.727689	-4.750323	6.680589	51.831984	-72.231455	36.517264	0.967746	-0.050439	-0.367748	1.563942	1.057442	10.107872	-3.093769	-3.143175	-3.630341	0.111953	-0.484006	-1.123708	9.885806	2.671788	-0.820161	-4.983501	-3.850446	3.867033	-0.604225	-0.470128	-0.267723
7.474051	-4.58314	5.426091	66.262568	-114.440078	3.776623	0.925013	-0.052844	-0.352624	1.851122	1.394887	10.114201	-2.629142	-3.016445	-3.351256	0.111658	-0.485077	-1.109358	10.074959	2.674103	-0.157884	-2.921152	-3.681247	3.002972	-0.603525	-0.441048	-0.207286
5.384556	-3.898381	3.967574	64.224563	-128.243515	-24.473975	0.941392	-0.066647	-0.402446	1.443221	1.451782	9.879228	-1.765032	-3.038953	-2.919194	0.07295	-0.499551	-1.121877	9.482462	2.733035	-0.288455	-1.044162	-3.667232	2.293146	-0.617574	-0.4396	-0.238412
5.289775	-4.366074	2.031525	50.250851	-127.84526	-48.99768	0.955512	-0.067022	-0.402795	0.813281	1.002418	9.978829	-1.177883	-3.002048	-2.733387	0.084525	-0.489515	-1.051407	9.179969	3.080682	-0.651915	0.584641	-3.464899	1.033186	-0.616948	-0.391022	-0.240923
4.317522	-4.307687	2.06969	25.706371	-124.146336	-70.618238	0.943292	-0.100904	-0.42035	1.976786	0.944406	10.569356	0.550636	-3.016802	-1.807304	0.085561	-0.455659	-1.096464	9.23995	3.138871	-0.59066	1.376372	-3.505226	-0.711575	-0.603804	-0.456414	-0.221977
3.483285	-4.416641	3.303273	5.986158	-124.360314	-89.618847	0.941749	-0.045819	-0.434014	1.856065	1.338746	10.340712	0.860354	-3.008856	-2.423535	0.071844	-0.488518	-1.065481	8.949926	2.385299	-0.419656	1.617209	-3.027538	-2.456789	-0.589896	-0.45621	-0.221906
3.044137	-4.354766	4.261109	-4.595124	-130.289831	-105.273152	0.956255	-0.059965	-0.430947	1.494958	1.338776	9.597144	1.969687	-3.295966	-3.257852	0.111363	-0.486149	-1.095008	8.598995	2.444927	-0.246291	1.703743	-2.674336	-4.048016	-0.632246	-0.5054	-0.219606
2.086359	-4.293243	5.038364	-6.801892	-139.08408	-114.401356	0.929486	-0.027803	-0.504044	1.674799	1.395068	9.940655	1.259672	-3.273511	-3.381511	0.071769	-0.503839	-1.064478	9.016915	2.270743	0.000298	1.454655	-1.894421	-5.609482	-0.631899	-0.472189	-0.236808
1.009251	-5.26679	5.524783	-6.844479	-151.279176	-121.105643	0.97029	0.043457	-0.536247	1.727637	1.33844	9.715259	1.723081	-3.267631	-3.38108	0.111067	-0.487221	-1.080658	8.887473	2.442769	-0.60023	0.932801	-1.155546	-6.252909	-0.561734	-0.422591	-0.238968
0.539956	-5.096546	4.948069	-14.701678	-159.307664	-118.788997	0.89933	0.024502	-0.502933	1.615032	1.282419	9.826072	0.427207	-3.189481	-3.782108	0.045742	-0.519309	-1.062923	8.708514	2.791383	-0.661955	-0.39127	-0.511634	-6.862412	-0.617988	-0.490656	-0.189317
-0.941854	-5.266346	5.259512	-25.421534	-166.68466	-112.740178	0.970662	0.046985	-0.550323	1.625804	1.339177	10.335876	0.148342	-3.254541	-3.752151	0.098462	-0.470904	-1.095736	9.122998	2.674533	-0.594839	-0.758326	-0.332266	-6.586888	-0.617574	-0.4396	-0.238412
-1.442342	-4.171206	6.050019	-36.499149	-173.21781	-105.326587	0.972519	0.064626	-0.620703	1.275683	1.283303	10.102017	0.086591	-3.283776	-4.091598	0.085335	-0.50162	-1.093453	8.711525	2.443421	-0.543624	-1.248428	-0.309125	-6.035119	-0.645252	-0.422989	-0.254917
-1.365744	-4.741562	7.015222	-44.662626	-179.212275	-98.127764	0.985111	0.102037	-0.617223	1.913068	1.000607	10.284997	-0.28461	-3.376854	-4.647723	0.085115	-0.487371	-1.080107	8.538879	2.444815	-0.307298	-1.368837	-0.408271	-5.361857	-0.617988	-0.490656	-0.189317
-1.58734	-4.222733	7.410912	-50.312032	-184.03774	-92.635841	0.943078	0.158587	-0.682727	1.739056	1.057214	10.224778	-1.151443	-3.569004	-5.08192	0.071474	-0.50491	-1.050128	8.895291	1.921568	-0.243014	-1.337733	-0.50182	-5.178154	-0.602898	-0.392471	-0.209797
-1.916516	-4.047024	8.144045	-54.571121	-186.351093	-88.396013	0.943078	0.158587	-0.682727	1.443868	1.113799	9.878943	-0.662088	-3.989435	-5.486468	0.111583	-0.500398	-1.108354	8.301559	2.038328	-0.433244	-0.469435	-0.166645	-4.755035	-0.603249	-0.407011	-0.240016
-2.242268	-3.985473	9.047255	-57.373044	-185.666513	-84.817497	0.942649	0.224256	-0.738618	1.563379	0.719412	10.050948	-0.264207	-4.318844	-5.921011	0.098161	-0.532186	-1.091721	8.886373	2.442521	-0.660137	-0.063766	0.042934	-4.17683	-0.603875	-0.455588	-0.237504
-2.574002	-3.350714	9.668612	-60.842564	-183.439011	-81.948456	0.942992	0.262383	-0.787678	1.677971	1.000849	10.053603	0.443162	-4.555557	-5.86114	0.085486	-0.470979	-1.09546	8.76805	2.094088	-0.723728	0.77197	0.350246	-4.028514	-0.645457	-0.457853	-0.206659
-2.44782	-4.095124	10.236233	-63.137834	-183.712487	-80.473515	0.886867	0.284709	-0.817848	1.574282	1.339522	10.617865	0.686767	-4.828615	-5.832832	0.072435	-0.486374	-1.094181	8.640384	1.975981	-1.265585	0.594526	0.987234	-3.572482	-0.617432	-0.441252	-0.207356
-2.434706	-3.74758	10.919918	-65.661094	-185.67116	-79.669644	0.886067	0.346849	-0.859664	1.214253	0.776247	9.873823	1.3602	-5.281992	-5.528521	0.111212	-0.51679	-1.093001	8.343548	2.731644	-1.267874	0.105282	1.226079	-3.174543	-0.603804	-0.456414	-0.221977
-2.429838	-4.321031	11.144917	-70.672516	-188.035346	-79.386805	0.843305	0.379044	-0.879524	1.559776	1.338953	9.93819	1.784021	-5.980412	-5.750918	0.085555	-0.515868	-1.106799	8.645616	2.093369	-0.965556	-0.507942	1.403617	-2.806424	-0.603875	-0.455588	-0.237504
-2.47501	-4.088569	11.770153	-76.944639	-190.364234	-80.020241	0.830256	0.441901	-0.973878	1.794765	1.395042	10.169632	1.779147	-6.406718	-6.217577	0.07236	-0.501695	-1.093177	8.82226	2.267192	-0.961513	-0.900765	1.88373	-2.043236	-0.589967	-0.455384	-0.237434
-2.734392	-4.312338	13.128094	-79.472806	-191.432232	-81.809918	0.81465	0.428162	-0.917225	2.08039	1.281747	10.062302	1.677187	-7.14348	-6.28664	0.072064	-0.502767	-1.078828	8.875753	1.800965	-1.321832	-1.140177	2.396881	-1.464131	-0.589479	-0.423825	-0.22358
-2.828568	-4.710003	14.147534	-78.077741	-196.335414	-85.575597	0.786723	0.501637	-1.000569	1.506161	1.170211	10.106758	2.871678	-7.955378	-6.417062	0.098236	-0.516865	-1.092725	8.702006	1.802112	-1.145413	-1.315089	2.842771	-0.273681	-0.589754	-0.457863	-0.190851
-4.259437	-3.847103	14.180169	-70.59701	-199.373299	-88.592148	0.730212	0.537734	-1.034156	1.796729	1.000776	10.225939	3.732767	-8.222614	-6.079922	0.099122	-0.51365	-1.135774	8.69803	2.091751	-1.323897	-1.98565	2.949767	0.981318	-0.604013	-0.472607	-0.221139
-5.816235	-4.135604	13.580368	-74.87035	-191.988625	-87.815493	0.772559	0.55391	-1.052695	1.902081	1.056511	9.775288	4.466338	-8.884247	-6.640809	0.045522	-0.505061	-1.049577	8.704227	2.267462	-0.963714	-3.113437	3.572924	2.449467	-0.645386	-0.458679	-0.191131
-7.336944	-5.048242	14.79721	-72.425864	-185.67775	-84.559561	0.686664	0.61477	-1.078339	1.510434	0.83237	10.276392	6.929633	-9.382271	-5.41067	0.085335	-0.50162	-1.093453	8.464011	1.686006	-1.270123	-3.934734	3.92125	3.978962	-0.631132	-0.425264	-0.208263
-6.578452	-4.643554	15.552465	-63.111044	-183.074641	-82.457617	0.672915	0.618673	-1.092066	1.911428	1.225882	10.228547	6.064576	-9.47941	-6.306336	0.071694	-0.519159	-1.063474	8.647662	1.687084	-0.90738	-3.703019	4.357552	6.237786	-0.603666	-0.439396	-0.238341
-12.895184	-1.261141	26.298464	-62.369978	-203.118342	-72.384151	0.629382	0.678409	-1.118758	2.246719	1.450178	9.782873	6.274791	-9.880365	-5.53946	0.110992	-0.502542	-1.079655	8.763379	2.209251	-0.962861	-3.173939	3.853286	7.8582	-0.631549	-0.457649	-0.206589
-14.540194	-2.410401	12.395001	9.935361	-174.194732	-65.342013	0.600341	0.741299	-1.159874	1.852762	1.169612	10.170651	6.924643	-9.780536	-5.476289	0.072134	-0.547656	-1.090166	9.181994	2.209542	-0.655623	-1.357629	2.840584	8.803967	-0.617153	-0.425886	-0.192665
-27.832739	-10.079207	43.474511	-105.296373	-81.432453	-72.952479	0.530853	0.753757	-1.200356	1.671065	1.451256	9.770784	6.120836	-9.736439	-4.397525	0.059088	-0.502842	-1.078552	9.069194	2.3272	-0.357795	3.358506	2.239132	9.431624	-0.589967	-0.455384	-0.237434
-29.367652	14.401089	18.712948	-190.831671	-37.935541	-7.182612	0.516346	0.767902	-1.203423	2.131696	1.394063	9.780408	10.312921	-10.161447	-1.593038	0.084815	-0.548653	-1.076092	10.013587	2.266964	-0.340436	7.0454	0.756064	9.180827	-0.631687	-0.474668	-0.190224
-31.990207	2.673059	15.827812	22.459753	-10.713092	18.743635	0.543073	0.787638	-1.182801	1.680281	1.057274	10.166929	9.407633	-10.880367	-1.261807	0.059013	-0.518162	-1.077548	9.726365	2.676149	0.135048	12.372399	-0.111218	9.104543	-0.63134	-0.441456	-0.207426
-32.634071	2.460777	6.323715	41.228161	3.529538	30.818432	0.487348	0.778894	-1.192064	1.912314	1.394921	10.285329	7.486096	-13.559972	1.515362	0.071474	-0.50491	-1.050128	9.847138	2.444069	0.256074	17.173913	-0.667237	8.325682	-0.604013	-0.472607	-0.221139
-26.799852	2.685109	6.15399	-2.862726	-4.870124	37.922345	0.543416	0.825765	-1.231861	1.705367	1.846945	11.413664	-5.763288	-20.602853	2.390351	0.097426	-0.50476	-1.05068	9.663487	2.442991	-0.106669	19.340999	0.41084	8.343253	-0.589963	-0.474055	-0.190014
-22.24642	4.769072	10.797777	-5.565412	-10.318107	37.473672	0.514431	0.819458	-1.20301	1.916803	0.944419	10.454868	-11.744801	-26.710245	5.592621	0.058944	-0.473273	-1.066209	9.140139	1.45815	0.178759	19.236642	1.771485	9.834827	-0.589408	-0.424651	-0.208053
-19.602534	6.090734	11.423078	21.204983	0.288182	40.113806	0.544173	0.815523	-1.242521	1.933534	1.677427	11.305079	-13.848743	-31.713364	6.866812	0.072134	-0.547656	-1.090166	9.013303	1.456442	-0.302697	15.561416	3.604621	11.73445	-0.589896	-0.45621	-0.221906
-18.475366	8.683742	13.558658	71.263916	17.680792	41.938637	0.572071	0.776647	-1.19416	1.836405	1.115002	12.095141	-22.507371	-42.185794	6.324135	0.032916	-0.488743	-1.064654	9.236588	1.743563	-0.956035	8.060935	5.210208	13.618477	-0.603942	-0.473433	-0.205612
-18.794758	9.825783	11.909177	98.568793	36.193468	38.573568	0.544559	0.801752	-1.239105	1.979317	0.496194	13.343108	-23.104832	-55.080349	7.120327	0.058938	-0.533483	-1.076545	9.691826	2.377857	-1.783209	-0.263733	5.272669	13.587199	-0.631482	-0.439804	-0.238482
-2.252436	2.389331	8.789775	-63.965508	3.770227	37.042764	0.558708	0.766778	-1.20447	1.637012	0.778635	13.506011	-28.899494	-73.524292	6.624049	0.032841	-0.504064	-1.063651	10.922496	2.314968	-2.239602	-6.286292	5.239369	11.775213	-0.589754	-0.457863	-0.190851
-1.917671	-3.989823	8.087433	-60.203213	1.785249	-0.441752	0.529309	0.808841	-1.21402	1.486042	2.303215	17.353949	-11.09877	-90.873661	-3.183287	0.02001	-0.533708	-1.075717	11.565942	3.35811	-2.402768	-11.72351	4.960931	10.206827	-0.644831	-0.409275	-0.209171
0.048366	-8.340825	11.858142	-62.392712	10.600862	20.806063	0.530081	0.781299	-1.207188	1.211705	1.571931	17.913683	-8.654025	-124.187556	0.58776	-0.005936	-0.473648	-1.064831	12.693582	3.47318	-2.021923	-14.326663	4.480139	8.476336	-0.617153	-0.425886	-0.192665
-1.273112	-6.559908	11.669454	1.708522	11.654649	-2.514298	0.58732	0.769558	-1.219245	0.947277	1.348049	18.983602	1.877224	-153.341458	2.402896	-0.005861	-0.458328	-1.065834	12.941731	3.010504	-1.420431	-14.279615	4.973891	5.11171	-0.589546	-0.44167	-0.191688
-1.68016	-3.413644	8.549125	12.470442	10.313445	0.898417	0.586163	0.810871	-1.229492	0.795539	0.504174	19.885497	13.724629	-185.629571	6.500148	-0.032259	-0.49019	-1.048926	12.459428	3.125511	-1.967902	-15.375778	5.685557	0.986195	-0.645461	-0.439182	-0.25408
-2.193264	-3.355347	8.653051	-0.070387	10.497074	6.672273	0.614404	0.810122	-1.230191	0.112546	0.224099	20.210591	40.374629	-217.385075	8.610833	-0.032629	-0.506583	-1.033572	11.462641	3.652221	-1.565036	-16.063464	6.197785	-1.458784	-0.644969	-0.426294	-0.192806
-2.012551	-3.410983	9.110975	0.471609	7.115924	9.621073	0.58582	0.772744	-1.180433	-0.285338	0.732065	20.485753	61.842919	-250.582799	13.662668	-0.072002	-0.538521	-1.016388	10.812228	3.711535	-1.6368	-16.227213	4.725106	-1.084412	-0.617503	-0.440426	-0.222884
-1.975014	-2.323736	8.150171	-5.098939	3.964483	8.788569	0.585434	0.786515	-1.183849	-0.692592	0.450977	20.250495	82.796242	-280.444441	18.500691	-0.150078	-0.524722	-1.001388	10.768618	3.715131	-0.799204	-16.216627	1.348336	0.093049	-0.644827	-0.427947	-0.16175
-1.438443	-2.49185	9.239677	-16.901208	3.44564	9.059436	0.585048	0.800286	-1.187264	-1.111719	0.056754	19.448747	108.582563	-306.499084	22.85639	-0.190036	-0.498594	-0.945169	10.66211	3.020714	-0.26521	-16.162052	-3.671119	0.422436	-0.603458	-0.423203	-0.239179
-1.43114	-3.352025	9.577176	-11.176436	3.27327	7.629504	0.572057	0.793946	-1.211651	-0.002477	0.167984	20.208126	129.841339	-324.283893	26.334878	-0.217395	-0.548993	-0.884208	10.139228	3.256211	0.20513	-14.252277	-7.389934	-0.147428	-0.616873	-0.41052	-0.177975
-1.726196	-3.526073	9.11606	-7.779612	3.148012	6.513693	0.571685	0.790418	-1.197575	2.629039	-0.06296	19.470591	147.179278	-329.914064	28.420214	-0.269889	-0.551437	-0.854405	9.55814	3.143387	0.672887	-10.30168	-9.839694	-1.464239	-0.644969	-0.426294	-0.192806
-1.839058	-2.721326	9.230917	-11.895807	2.717023	4.893191	0.627424	0.781863	-1.17082	6.112163	-0.408656	18.1847	150.063475	-324.554693	22.525601	-0.310224	-0.601911	-0.793168	9.209255	2.79673	0.904428	-6.184888	-11.411288	-1.868961	-0.645457	-0.457853	-0.206659
-1.901714	-2.952257	8.944573	-15.09253	2.603204	2.784503	0.58582	0.772744	-1.180433	6.322329	-0.015532	17.283634	144.821577	-317.159623	18.340325	-0.349371	-0.587887	-0.778995	8.981164	2.682849	1.31888	-2.9003	-12.831035	-2.454765	-0.603245	-0.425682	-0.192595
-1.617048	-3.81457	8.832815	-18.983285	3.080212	2.496779	0.586177	0.793571	-1.212001	0.625321	-2.150237	11.670526	151.445914	-302.597064	2.736709	-0.377835	-0.627253	-0.661638	8.981319	3.089628	1.380518	-1.063429	-13.140982	-4.385346	-0.589896	-0.45621	-0.221906
-1.381888	-3.066548	9.181524	-19.187532	3.487549	4.436027	0.627782	0.80269	-1.202388	-3.674402	-4.286913	6.822747	126.469146	-255.686508	-14.759458	-0.430035	-0.628625	-0.646185	9.206089	2.737913	0.72446	-0.084757	-12.656564	-6.530511	-0.630923	-0.409071	-0.2091
-2.071494	-4.158164	8.993018	-15.651451	3.972413	6.488414	0.614033	0.806593	-1.216115	-7.234401	-5.465271	4.369144	84.549575	-196.659143	-42.320699	-0.444047	-0.662557	-0.600853	9.615495	2.910454	0.553184	1.455674	-11.313703	-8.681769	-0.63099	-0.426916	-0.177208
-1.606985	-3.86984	9.344251	-12.400435	3.543435	7.69875	0.642674	0.774774	-1.195906	-10.234376	-7.321337	1.134107	32.3809	-127.75782	-77.83531	-0.431516	-0.694195	-0.584772	9.726655	3.024852	0.196438	2.07484	-9.267175	-11.169175	-0.658668	-0.410306	-0.193713
-1.315187	-3.811399	9.634325	-9.581142	3.495484	7.65919	0.613661	0.803065	-1.202039	-13.172077	-4.834818	3.905311	-0.658315	-51.047053	-97.411806	-0.445083	-0.696413	-0.555797	9.552192	2.386668	0.250324	2.328619	-7.106533	-12.98344	-0.659156	-0.441865	-0.207567
-1.72269	-3.755115	9.285654	-7.777309	3.297845	6.853455	0.641916	0.785016	-1.185245	-13.661532	-3.759999	8.028814	-15.126244	1.885647	-93.01368	-0.40682	-0.713652	-0.526921	9.551537	3.141904	0.313445	2.213454	-4.85606	-14.735653	-0.617429	-0.459923	-0.159935
-1.608015	-3.984964	9.286915	-5.69822	3.165738	5.802654	0.627053	0.778334	-1.156744	-14.277617	-3.478833	6.147855	-11.974993	40.551381	-68.95454	-0.39326	-0.771644	-0.566231	9.608468	2.618343	0.1326	0.467489	-2.462585	-16.085353	-0.617641	-0.457445	-0.206519
-2.013872	-3.124016	9.055328	-4.748047	3.044815	6.012622	0.599941	0.772369	-1.180782	-13.667558	-2.748576	5.142256	-15.665476	88.020306	-41.945321	-0.432257	-0.726979	-0.554065	9.781269	3.023728	-0.042089	-2.539325	0.044322	-17.003193	-0.603383	-0.442701	-0.17623
-1.672199	-3.641721	8.946131	-3.679673	2.467662	5.846833	0.61329	0.799537	-1.187963	-12.116703	-2.864289	5.004883	-29.626373	122.833639	-8.471651	-0.367082	-0.725532	-0.569794	9.768314	2.439754	-0.823351	-5.825255	1.870356	-17.244477	-0.645386	-0.458679	-0.191131
-1.720629	-3.524867	9.400325	-0.739561	2.299791	5.590307	0.642288	0.788545	-1.199321	-10.614736	-3.092224	5.262684	-48.050171	148.969255	21.184	-0.366567	-0.738709	-0.59749	9.002049	2.034977	-0.839387	-7.888329	2.416696	-17.545199	-0.61722	-0.443731	-0.160773
-1.729412	-3.699121	8.944776	1.469844	2.39603	6.137515	0.613661	0.803065	-1.202039	-8.990038	-2.869398	5.919759	-62.173285	172.454716	42.216691	-0.366272	-0.737637	-0.611839	9.069464	2.211048	-0.35829	-9.306796	2.536161	-17.754542	-0.631199	-0.443109	-0.176371
-1.558597	-3.929253	8.890298	1.99274	1.986088	7.264015	0.626667	0.792105	-1.16016	-6.83715	-2.872485	7.040641	-71.65255	193.680362	56.664365	-0.339654	-0.720023	-0.642094	8.76697	2.558696	-0.72175	-10.74661	2.513297	-16.037929	-0.645248	-0.44166	-0.207496
-1.562186	-3.585328	8.721187	2.424361	2.043297	7.8157	0.669014	0.808281	-1.1787	-5.265074	-2.705692	7.923018	-78.6781	212.751815	62.98413	-0.325717	-0.701412	-0.686422	8.59857	2.1543	-0.307434	-12.580865	2.570042	-13.281221	-0.631132	-0.425264	-0.208263
-1.905837	-3.412754	8.71523	2.090262	2.533776	7.793966	0.614433	0.775523	-1.195207	-3.47096	-2.03264	8.470819	-87.770812	229.137049	63.664125	-0.325277	-0.729909	-0.713115	8.353722	2.617717	-0.729206	-14.543332	2.325173	-10.980952	-0.630919	-0.427743	-0.16168
-1.78444	-3.698597	9.057369	2.308768	2.773677	8.410565	0.628167	0.788919	-1.198972	-1.964134	-1.640702	9.012339	-95.444074	240.004154	58.52476	-0.297919	-0.67951	-0.774076	8.475481	2.908816	-0.486141	-15.449822	2.442012	-7.799927	-0.631061	-0.42609	-0.192735
-1.672774	-4.388702	8.886141	1.854849	3.161653	9.246167	0.641173	0.77796	-1.157094	-0.847053	-0.571474	10.225641	-99.710811	248.731132	50.037103	-0.270786	-0.675072	-0.832026	8.469128	2.326325	-0.907962	-15.805979	2.166016	-4.893994	-0.645524	-0.475698	-0.174767
-1.672324	-3.469397	8.946855	2.162996	3.252149	9.522747	0.585806	0.790043	-1.197925	0.035338	-0.34701	11.150198	-99.013134	254.069877	40.194125	-0.205461	-0.642984	-0.849762	8.479863	2.44495	-0.308398	-15.244331	1.56537	-2.81495	-0.617429	-0.459923	-0.159935
-2.019807	-4.159411	8.709866	2.013163	3.554576	9.896087	0.627424	0.781863	-1.17082	0.92995	0.441281	12.698265	-99.144662	254.987726	30.614944	-0.191229	-0.623301	-0.90844	8.721409	1.98079	-0.066347	-15.146418	0.717085	-0.610759	-0.61785	-0.473637	-0.205682
-1.680408	-3.068995	8.550573	4.104485	4.1692	10.758704	0.612532	0.809779	-1.177303	2.149164	0.721097	13.233646	-93.53021	253.489048	22.496315	-0.15149	-0.635181	-0.951313	8.724866	2.388312	0.175011	-15.175447	-0.248953	1.105481	-0.659644	-0.473423	-0.22142
-1.672282	-3.526838	8.946614	3.705316	4.10692	10.666843	0.612547	0.79248	-1.159811	2.6308	1.059072	14.263114	-87.379556	250.521273	15.350147	-0.086095	-0.647982	-0.980388	8.255208	2.273734	0.285527	-14.006983	-1.046051	1.685754	-0.631336	-0.460128	-0.160006
-1.842973	-3.469031	9.000368	3.61798	4.406156	11.346608	0.641888	0.819615	-1.220229	2.868122	1.79127	14.665044	-81.901451	248.298661	9.999024	-0.071713	-0.597658	-1.041073	8.260825	1.752039	0.522929	-12.804079	-1.663598	2.662374	-0.617291	-0.442905	-0.1763
-1.49825	-3.583921	9.063419	5.455567	4.105342	11.520425	0.628167	0.788919	-1.198972	3.225388	1.903758	15.238788	-83.138993	245.256216	4.634392	0.019414	-0.596061	-1.057353	8.73668	2.042328	0.772597	-11.295654	-1.995275	2.71962	-0.631966	-0.490034	-0.204915
-1.613873	-3.58408	9.004339	6.413581	4.837942	12.357548	0.656794	0.774399	-1.196255	3.133656	1.679553	16.312333	-84.835434	242.518066	-1.344081	0.045956	-0.593767	-1.086604	8.379167	2.565328	0.648405	-10.711889	-2.48606	3.056048	-0.673135	-0.441242	-0.223165
-1.90563	-3.699962	8.714024	5.463712	4.95817	12.208907	0.68505	0.756351	-1.179461	4.5282	1.846479	16.964525	-87.685089	238.771181	-9.830488	0.059453	-0.546659	-1.10424	8.619769	2.5077	0.892188	-10.154716	-2.333011	3.236681	-0.672718	-0.408857	-0.224839
-1.559011	-3.354838	8.892712	6.760258	5.531733	13.655777	0.642302	0.771245	-1.18183	5.738845	2.182294	17.103475	-91.462841	234.807563	-19.768519	0.124333	-0.546284	-1.105619	8.908247	2.505542	0.538248	-9.660156	-2.364663	3.510114	-0.659432	-0.475902	-0.174837
-2.245691	-3.871314	8.877178	7.651556	5.685019	14.054353	0.62781	0.768092	-1.167404	6.83278	1.447902	17.069189	-96.335252	232.210175	-30.063544	0.1508	-0.559311	-1.133866	8.377912	2.158301	0.526861	-8.827922	-2.795904	4.08987	-0.673548	-0.492299	-0.17407
-1.719391	-3.69695	9.456454	8.149298	7.16831	13.555714	0.654922	0.774057	-1.143367	8.349754	2.854264	18.177958	-101.786374	228.06009	-38.154832	0.216496	-0.51083	-1.166955	8.801604	1.869201	1.07249	-8.204212	-2.558746	5.033963	-0.61757	-0.458271	-0.190991
-1.951998	-3.352859	9.282889	7.766542	9.593839	13.626899	0.626667	0.792105	-1.16016	13.406302	0.267216	33.794158	34.288828	221.507376	-74.298725	0.255644	-0.524854	-1.181129	8.907936	1.691983	0.414973	-7.242058	-2.815781	6.55992	-0.673202	-0.459087	-0.191272
-1.591396	-3.866462	10.140194	4.742091	14.971734	15.164272	0.684664	0.770122	-1.182877	18.143843	13.063151	-9.971038	-147.24688	28.138482	29.582535	0.333279	-0.510155	-1.169437	8.676699	1.984139	0.711342	-4.341168	-3.493444	8.019751	-0.631269	-0.442283	-0.191898
-1.670138	-3.411473	9.060803	4.250614	18.858775	16.394128	0.643088	0.726404	-1.157506	23.519042	1.022	17.022963	-101.915786	72.890194	-32.578382	0.334391	-0.460978	-1.215497	8.902319	2.213678	0.177571	-1.850307	-3.658223	7.06401	-0.645524	-0.475698	-0.174767
-1.941645	-3.81022	9.792636	2.620916	22.971904	16.189681	0.669029	0.790982	-1.161208	24.300099	6.819629	13.704245	-44.693238	57.47019	-14.775466	0.347147	-0.446655	-1.202427	9.436476	1.864501	0.305805	-4.370475	-2.937596	7.497603	-0.659152	-0.460536	-0.160146
-2.011189	-3.755391	9.16638	1.612656	26.906721	18.403064	0.642688	0.757474	-1.178414	27.249101	4.892169	6.121568	-37.76335	46.294104	-12.538182	0.360788	-0.429115	-1.232406	9.135218	2.154321	0.002005	-5.690255	-2.457039	7.897432	-0.631896	-0.49086	-0.189387
-1.72962	-3.411914	8.945983	-0.05046	30.151192	18.889883	0.699199	0.721377	-1.144827	29.052262	6.523267	7.179932	-55.124879	38.571834	-18.516935	0.399276	-0.400393	-1.206541	8.94815	2.675432	-0.478327	-5.420273	-3.280051	7.716993	-0.617566	-0.476942	-0.143571
-2.452108	-4.325856	10.007855	-2.960714	34.58292	19.859552	0.670572	0.735898	-1.147544	26.862883	8.780678	7.249169	-38.779728	14.465826	-18.157805	0.385855	-0.432181	-1.189908	8.772182	2.211229	-0.483606	-7.736815	-4.429292	8.61725	-0.658944	-0.444343	-0.160983
-2.102853	-3.003501	10.361205	-6.317834	41.165743	20.650814	0.683535	0.776836	-1.158141	23.484834	10.590467	8.198874	-4.028762	-26.43534	-12.155303	0.425298	-0.445132	-1.218431	8.825561	2.267934	-0.781793	-12.206732	-5.657552	10.503781	-0.644827	-0.427947	-0.16175
-2.387598	-3.577468	10.410077	-5.428557	51.756438	19.317839	0.68505	0.756351	-1.179461	21.601607	12.115707	9.066494	49.858428	-69.551452	2.349279	0.360204	-0.371049	-1.193371	8.659537	2.735667	-0.12414	-14.655528	-6.321059	14.672788	-0.645244	-0.460332	-0.160076
-2.950902	-4.034656	10.851837	-1.96324	64.049006	23.371331	0.741932	0.723782	-1.159951	21.562751	15.217325	12.918177	111.725058	-107.937321	20.514854	0.411806	-0.432031	-1.190459	9.142246	2.446431	0.422589	-10.382203	-7.427723	19.645024	-0.701089	-0.458669	-0.20694
-2.619884	-4.312421	13.130321	6.859067	77.452889	31.812116	0.755681	0.719879	-1.146224	28.441382	13.172829	8.814778	350.897601	-120.212739	16.63935	0.39868	-0.462747	-1.188176	9.682329	2.389118	0.911501	-0.665587	-8.177354	21.539184	-0.64504	-0.425468	-0.208333
-2.504629	-5.346451	13.128205	23.036993	94.333156	42.801964	0.726683	0.730871	-1.134865	8.16633	11.914596	7.708476	150.028131	-86.112278	-76.063097	0.34596	-0.511152	-1.155363	11.867919	3.895335	1.25818	9.460673	-6.64744	16.084759	-0.686551	-0.428559	-0.161961
-2.825347	-6.088118	14.255449	27.664119	112.526988	52.343446	0.727826	0.706857	-1.14211	5.88571	-0.356473	12.971486	23.391722	-41.406878	-9.661747	0.331653	-0.546155	-1.095681	13.859777	4.526613	0.579432	6.656629	-1.479467	3.385666	-0.658664	-0.428977	-0.146292
-2.284032	-6.657357	15.570678	33.126888	136.428992	62.618569	0.741603	0.668356	-1.093399	-0.301048	-1.019661	14.199705	29.124517	-15.680474	16.155292	0.332759	-0.557188	-1.152076	14.087288	3.943088	0.042199	-1.605737	5.9096	-7.072024	-0.617425	-0.478595	-0.112515
-2.541229	-6.823202	17.042567	42.647082	162.061554	73.430676	0.768301	0.722691	-1.107761	0.843803	0.214929	11.337516	80.674672	-21.124799	29.738461	0.28093	-0.542168	-1.151977	11.672797	2.671446	0.111456	-4.956837	10.139683	-0.203626	-0.659227	-0.441038	-0.223094
-2.88937	-8.145315	16.74607	57.594151	187.140759	86.271211	0.798471	0.653086	-1.09138	4.062217	1.445686	8.575487	58.860988	-25.902721	14.536135	0.306361	-0.589051	-1.135168	10.904102	3.312038	0.099869	8.017315	8.777427	11.767651	-0.658947	-0.425672	-0.208404
-2.38101	-7.802486	16.416421	69.466786	211.105034	98.457871	0.867574	0.6544	-1.054314	3.658182	2.009745	8.567499	36.474168	-11.812788	6.334452	0.2928	-0.53106	-1.095857	11.141983	3.951075	0.286711	23.025263	7.047072	12.699662	-0.68711	-0.459292	-0.191342
-2.435996	-7.859404	16.528772	85.067658	233.606882	110.946295	0.825984	0.627981	-1.046435	1.360054	1.563555	8.688682	19.153387	-4.746868	-1.223807	0.305846	-0.575874	-1.107472	11.438569	3.776419	0.351379	23.003593	7.585071	7.9901	-0.631336	-0.460128	-0.160006
-2.153396	-7.400803	16.365711	102.328143	254.306571	120.396477	0.910736	0.591135	-1.013547	1.6135	1.451364	9.769575	6.282927	-4.563005	-7.459555	0.331572	-0.621686	-1.105013	11.249416	3.774105	-0.310898	16.801895	7.380268	1.99241	-0.67243	-0.430834	-0.115307
-2.395242	-6.599109	15.739252	116.588182	269.375864	124.093999	0.938648	0.53496	-0.947694	1.628006	1.451933	10.44925	5.963646	-2.885337	-6.734095	0.319117	-0.574728	-1.122098	11.178565	3.655368	-0.971469	16.079285	6.996201	-5.49094	-0.644965	-0.444965	-0.145385
-2.902779	-6.539606	16.127443	129.145955	275.345086	122.683927	0.981038	0.499237	-0.913758	1.314385	2.296481	9.311125	1.346606	-4.075549	-7.181231	0.292424	-0.607662	-1.090839	10.337743	3.305341	-1.827055	14.641024	6.501006	-8.386681	-0.63064	-0.412376	-0.146989
-5.974641	-6.303259	17.091636	139.730303	274.426789	121.351418	0.994073	0.453679	-0.836896	1.094872	1.733986	9.758932	-6.346658	-4.204621	-7.065394	0.266547	-0.592492	-1.091292	9.788855	3.360677	-2.795222	11.232064	7.114709	-6.788092	-0.64441	-0.395562	-0.163424
-5.679202	-6.026674	14.65484	143.084308	274.989516	124.538024	1.079954	0.410118	-0.828744	1.673052	1.676673	9.884253	-6.533389	-4.242671	-6.295231	0.279454	-0.547527	-1.080228	9.387017	3.247942	-2.204351	6.157982	7.598486	-5.030024	-0.659503	-0.475076	-0.190365
-4.124994	-4.60217	12.247368	144.429315	268.431474	126.695252	1.095646	0.320061	-0.780446	0.913737	2.353661	9.415989	-12.210951	-3.733354	-6.109768	0.305846	-0.575874	-1.107472	9.323484	3.77002	-2.382947	-0.832809	7.12266	-2.83254	-0.644618	-0.411754	-0.162587
-3.395736	-5.352826	11.462763	159.516633	260.386556	122.077496	1.109081	0.243432	-0.682676	1.788182	1.676457	9.886671	-17.861809	-3.703024	-7.655396	0.253716	-0.622136	-1.103358	9.277923	3.192114	-1.727544	-7.524118	5.609441	-0.783964	-0.672781	-0.445374	-0.145526
-3.030463	-5.533161	9.650534	171.406561	257.780636	121.173467	1.150328	0.231724	-0.641496	1.39796	1.339703	10.44432	-15.828235	-4.164382	-8.182417	0.331126	-0.653398	-1.088656	9.149831	2.78338	-2.330544	-11.146208	3.17164	0.03542	-0.658735	-0.428151	-0.16182
4.686623	-5.796108	3.320865	144.250754	243.781833	128.746609	1.149199	0.238438	-0.61676	1.050581	1.114933	10.323598	-12.741881	-4.428421	-8.706628	0.305695	-0.606515	-1.105465	9.223578	3.077086	-1.489511	-11.002957	1.298962	0.746787	-0.686062	-0.397	-0.148107
6.406825	-5.636889	0.570305	90.293314	162.975166	112.510816	1.177483	0.185791	-0.564983	1.396081	1.057955	10.330804	-10.206145	-4.212486	-8.671613	0.305991	-0.605443	-1.119815	9.522096	3.019077	-1.304535	-9.774467	0.50523	1.021194	-0.700321	-0.411744	-0.178396
10.508883	-5.97652	2.524067	49.415017	64.553875	89.176135	1.177511	0.151192	-0.529999	1.677086	0.83181	9.996821	-5.482774	-4.342949	-7.682627	0.280635	-0.54324	-1.137627	9.286726	3.194092	-1.248289	-9.590085	-0.424397	2.247494	-0.644965	-0.444965	-0.145385
10.564267	-5.562366	5.368411	22.549856	-6.800999	50.510997	1.150013	0.158998	-0.557453	1.558028	1.620558	9.881788	-0.909319	-3.992973	-5.425046	0.305475	-0.592267	-1.092119	9.595958	2.789852	-0.525634	-7.988047	-1.192505	3.1317	-0.644618	-0.411754	-0.162587
10.509815	-4.814861	5.540994	14.460571	-45.78647	12.677054	1.179412	0.116936	-0.547904	1.22129	0.889192	10.213755	0.977218	-3.672269	-3.909777	0.253496	-0.607887	-1.090012	9.995325	3.018244	-1.235825	-5.067957	-2.46892	3.341161	-0.673131	-0.459914	-0.175744
8.797542	-4.525204	5.793061	17.846786	-79.192598	-30.383514	1.179426	0.099637	-0.530412	1.564719	1.282812	10.164701	2.643586	-3.689618	-2.706321	0.292795	-0.59127	-1.106193	9.305009	2.907668	-0.291014	-1.808927	-3.712572	3.457548	-0.644756	-0.428773	-0.146222
7.520502	-5.045126	4.856743	12.969177	-91.165517	-66.486616	1.150413	0.127928	-0.536545	1.792001	0.944255	9.999333	2.115116	-3.942412	-2.585948	0.266843	-0.59142	-1.105641	9.416999	3.138466	-0.587359	1.142615	-4.493135	3.053256	-0.672576	-0.41051	-0.193783
6.237397	-4.876956	3.639055	4.251669	-95.788773	-93.445319	1.151142	0.152284	-0.582189	1.8443	1.16928	9.774174	2.88781	-3.959454	-3.171226	0.305921	-0.560554	-1.108476	9.539568	3.081108	-0.345778	3.661639	-4.342144	1.148482	-0.672434	-0.412162	-0.162728
4.871167	-4.989156	4.009821	-5.487975	-97.903352	-111.587522	1.109538	0.143165	-0.591801	1.393471	1.790205	10.27478	3.22924	-3.832278	-3.200515	0.280629	-0.60345	-1.147963	9.366091	2.966103	-0.169853	5.784839	-3.922655	-0.236544	-0.658735	-0.428151	-0.16182
4.292931	-4.817623	3.715144	-16.154506	-101.719866	-121.040461	1.109138	0.174235	-0.612709	1.392562	1.001483	10.160837	1.719922	-3.54181	-3.661259	0.279819	-0.591345	-1.105917	9.189447	2.79228	-0.173896	7.901815	-3.73968	-2.415025	-0.6862	-0.414019	-0.131742
3.160174	-4.929023	4.317776	-27.413187	-110.491981	-124.894888	1.107194	0.26039	-0.64728	1.33465	0.550899	10.102609	1.655525	-3.699343	-3.138804	0.280039	-0.605593	-1.119263	9.250914	2.211632	-0.115361	9.225501	-3.265047	-3.49176	-0.659014	-0.443517	-0.176511
2.433475	-4.637417	5.214157	-37.560804	-125.36355	-124.677752	1.079296	0.299266	-0.695641	1.09662	1.452381	9.815335	2.519229	-3.78117	-3.015611	0.305846	-0.575874	-1.107472	8.956124	2.561011	-0.059473	10.15135	-2.176607	-4.906152	-0.673131	-0.459914	-0.175744
1.924949	-4.750479	5.544771	-43.277165	-143.99762	-121.803063	1.052198	0.276001	-0.702187	1.442682	1.733434	9.879465	1.907278	-3.29997	-2.764695	0.306141	-0.574803	-1.121822	9.062071	3.022876	-0.654363	10.274406	-1.337332	-6.163625	-0.644898	-0.42712	-0.177278
1.251175	-4.632204	6.214129	-47.289357	-161.111965	-116.760338	1.009794	0.329023	-0.753615	1.90858	1.451109	10.115457	2.521255	-3.656092	-3.3843	0.29302	-0.545309	-1.109204	9.070449	2.734227	-0.236251	10.243591	-0.716516	-7.052753	-0.672993	-0.442895	-0.192109
0.621743	-3.597559	6.263077	-54.551627	-173.851664	-111.054214	1.036892	0.352288	-0.747069	0.984338	1.227369	9.926006	1.806836	-3.971563	-3.41884	0.254162	-0.590423	-1.119715	9.006471	2.500822	-0.537875	10.61237	-0.402357	-7.727931	-0.63071	-0.41155	-0.162517
-0.161754	-3.937768	7.15569	-59.452176	-181.5678	-105.304128	0.981853	0.419797	-0.854451	1.845509	1.169327	9.830813	0.969267	-4.286387	-3.792578	0.280114	-0.590273	-1.120267	9.001394	2.790213	-0.776266	10.61246	-0.433577	-7.66666	-0.685921	-0.398653	-0.117051
-0.553094	-3.131125	7.662952	-62.647215	-186.419219	-99.23642	0.981081	0.447339	-0.861283	1.738409	1.395197	10.225062	0.846003	-4.257692	-3.730737	0.293385	-0.589126	-1.134892	8.824056	2.441915	-0.840958	10.519145	-0.152931	-8.217759	-0.672714	-0.427529	-0.177418
-1.678098	-3.183395	8.663796	-64.075068	-187.811035	-93.731506	0.938677	0.500361	-0.91271	1.566467	1.001207	10.221104	0.657363	-4.534828	-3.918611	0.292499	-0.592342	-1.091843	8.87977	2.441038	-1.019578	11.695196	0.060365	-7.734061	-0.658522	-0.43063	-0.115237
-2.012634	-3.2961	9.111457	-62.820341	-186.853719	-88.134958	0.938677	0.500361	-0.91271	1.212482	0.438169	9.760259	1.156033	-4.190831	-3.976445	0.318752	-0.53091	-1.096409	9.239099	2.557616	-0.712947	12.503469	0.640666	-7.373024	-0.686689	-0.445578	-0.145596
-2.122813	-3.122727	9.337367	-62.233619	-185.07266	-82.21646	0.895529	0.546326	-0.935986	1.562841	1.001064	10.051185	1.460334	-4.554699	-4.010646	0.305475	-0.592267	-1.092119	8.470384	2.733352	-0.786417	13.581238	0.802539	-7.866676	-0.658597	-0.411132	-0.178185
-2.67923	-3.865675	10.119038	-63.584243	-184.129614	-76.428937	0.824898	0.582798	-0.969224	1.678187	0.888188	10.053508	2.069831	-5.220501	-4.170915	0.293235	-0.619767	-1.132885	8.757066	2.556471	-1.260912	13.829605	1.017554	-7.868601	-0.672572	-0.429181	-0.146363
-2.78739	-3.404612	10.45986	-70.935887	-185.405508	-72.716027	0.811134	0.604	-1.000442	1.678318	1.45154	10.110622	0.460149	-5.45796	-3.804637	0.292424	-0.607662	-1.090839	8.291114	2.268407	-0.971417	13.342039	1.408402	-7.379725	-0.658802	-0.445996	-0.129927
-3.795036	-4.318106	11.573018	-82.044699	-185.206654	-67.679845	0.740903	0.609401	-1.012772	1.662603	1.450924	9.374307	4.435554	-6.17485	-3.685255	0.29302	-0.545309	-1.109204	8.643956	1.86057	-1.086359	12.517509	1.886963	-6.614994	-0.67334	-0.476106	-0.174907
-3.319682	-3.625279	12.494471	-89.315997	-187.2965	-65.391858	0.739003	0.643657	-0.994868	1.272404	1.733853	9.989117	3.884381	-5.784053	-3.558502	0.254457	-0.589351	-1.134065	8.522082	2.092403	-1.267292	11.50689	2.397972	-6.09423	-0.687319	-0.475484	-0.190505
-3.298195	-4.080227	13.572749	-90.242975	-192.297394	-66.9124	0.682463	0.714353	-1.063438	1.91089	1.507535	10.228784	2.430424	-5.984459	-3.869943	0.280039	-0.605593	-1.119263	8.57299	2.264765	-1.684798	10.806396	2.751468	-5.023727	-0.644894	-0.445792	-0.129857
-3.111008	-3.847208	14.372998	-85.816551	-197.580678	-71.183538	0.624081	0.750108	-1.044137	1.855957	1.395076	10.340759	4.12822	-5.969945	-2.789456	0.292575	-0.577021	-1.092847	8.581638	1.859964	-1.26718	9.829075	3.382113	-4.228592	-0.658944	-0.444343	-0.160983
-3.573663	-3.618075	14.137643	-82.836856	-202.479106	-77.438695	0.596611	0.723315	-1.036607	2.027768	1.225714	10.287604	4.348604	-5.71664	-3.588286	0.29309	-0.590198	-1.120542	8.69913	2.091998	-1.26399	8.946867	3.852893	-2.730105	-0.701085	-0.477341	-0.15952
-4.543441	-3.903855	14.288067	-83.766455	-205.123059	-83.370055	0.554178	0.810935	-1.123018	1.564481	0.77579	10.107635	4.205813	-7.192798	-3.202316	0.293015	-0.605518	-1.119539	8.342563	2.208466	-1.389912	7.445466	4.450437	-1.871774	-0.644756	-0.428773	-0.146222
-5.177279	-4.478779	14.045993	-88.182187	-202.793767	-87.124266	0.482861	0.771153	-1.058136	2.135777	1.788566	10.007298	3.736169	-7.746645	-3.824758	0.253942	-0.576175	-1.106369	8.759632	1.453027	-1.26561	6.070031	5.167636	-0.708838	-0.700317	-0.430416	-0.130975
-6.374754	-5.051359	14.247609	-94.788584	-194.6308	-88.10793	0.45382	0.834043	-1.099253	1.441797	1.564395	9.822683	5.088163	-8.225696	-2.965253	0.29287	-0.575949	-1.107196	8.689361	2.031697	-1.8034	5.0329	5.732475	0.514736	-0.686689	-0.445578	-0.145596
-7.867906	-4.936364	13.991728	-97.219528	-183.07537	-85.48915	0.424793	0.879633	-1.122878	1.558998	1.113583	9.881361	6.383939	-8.218291	-1.576879	0.254382	-0.604672	-1.133061	8.883436	1.337841	-0.964369	4.581141	5.834575	2.319115	-0.630498	-0.414029	-0.115933
-8.946376	-5.565503	14.422742	-99.807262	-172.419636	-82.301591	0.383217	0.835916	-1.097507	2.31836	1.675961	10.463947	3.273666	-7.547321	-2.374237	0.254752	-0.588279	-1.148415	9.113459	1.568368	-1.258512	4.497339	6.190295	3.387446	-0.673686	-0.509317	-0.157705
-10.265787	-5.1055	14.285356	-100.571391	-164.026185	-79.616333	0.339698	0.878353	-1.106707	1.733981	0.550002	9.941153	7.982444	-8.668774	0.084643	0.266547	-0.592492	-1.091292	9.17153	1.974766	-1.255681	5.121445	6.644122	4.085987	-0.645453	-0.476524	-0.159239
-33.614699	10.237728	38.389774	-219.663918	-127.124268	-54.804833	0.323691	0.895684	-1.070962	1.624379	1.45179	10.279332	1.749302	-10.502408	1.109552	0.292795	-0.59127	-1.106193	9.176802	3.021865	-0.831883	7.680022	6.530333	4.138392	-0.65894	-0.463015	-0.113563
-19.922805	-0.810487	9.398696	-79.793254	-71.677747	-52.434814	0.29545	0.896433	-1.070263	1.564181	1.564464	10.164938	2.661314	-11.484068	2.950219	0.267213	-0.575028	-1.120995	9.654818	2.382937	-0.586171	11.458567	5.421895	3.18252	-0.658806	-0.427325	-0.177348
-28.421098	0.294315	10.942963	-46.997353	-64.859433	-19.47394	0.282115	0.851967	-1.045591	1.759306	1.846695	11.244955	-4.770705	-15.122417	5.651787	0.241406	-0.604747	-1.132786	9.0029	2.616232	-0.717101	15.859285	5.23686	1.883799	-0.658664	-0.428977	-0.146292
-28.465389	-0.059985	8.667392	-63.552265	-52.170726	-1.124921	0.267237	0.862584	-1.034581	1.5067	0.888559	10.106521	-9.526613	-19.617536	8.562806	0.267138	-0.590348	-1.119991	9.245702	2.559099	-0.353505	17.810345	5.972974	2.362235	-0.659152	-0.460536	-0.160146
-26.542635	1.554489	10.473339	-47.773151	-48.672181	13.974562	0.252745	0.85943	-1.020156	1.842098	1.056524	9.6608	-12.279055	-22.204184	9.552219	0.215014	-0.5764	-1.105542	9.537887	2.383454	-0.528465	19.485166	6.612538	3.208897	-0.701293	-0.493533	-0.158683
-22.572186	0.854087	8.615383	-28.32202	-36.9926	30.237546	0.280629	0.837853	-0.989287	1.920668	1.451583	10.681853	-14.522597	-26.186555	9.233362	0.279674	-0.561776	-1.093574	8.955698	2.270383	-0.120616	18.145021	7.134964	5.472989	-0.672848	-0.463219	-0.113633
-18.146592	1.071936	6.656489	-23.732004	-19.262406	46.241435	0.253517	0.831888	-1.013324	2.151253	1.282161	10.686547	-15.990361	-29.855133	9.319022	0.22858	-0.574181	-1.134517	8.885252	1.977419	-0.781928	16.749603	7.613969	8.960125	-0.687035	-0.478789	-0.128394
-13.792329	1.643925	6.914087	-22.272781	1.907188	55.717421	0.280601	0.872452	-1.02427	2.509489	0.887675	11.259864	-15.609377	-36.465136	7.866325	0.241186	-0.590498	-1.11944	8.818378	1.569044	-1.264015	15.90187	8.357353	10.732434	-0.631057	-0.444761	-0.145315
-10.628384	3.438297	10.734	-6.172894	22.573515	55.792269	0.294364	0.85125	-0.993052	2.170356	0.775897	11.535714	-24.241721	-45.0535	5.307721	0.215309	-0.575328	-1.119892	8.93749	1.104165	-1.263792	11.566316	8.473866	12.76492	-0.672501	-0.430007	-0.130835
-7.691017	3.394947	14.59859	50.931566	46.879539	44.21927	0.335597	0.856841	-0.969363	1.896496	1.058658	12.209582	-26.994546	-55.141099	4.157063	0.241261	-0.575178	-1.120443	9.335353	1.506538	-2.033148	4.111335	8.527139	13.922614	-0.643921	-0.364003	-0.149571
-8.411901	7.064948	13.008785	102.429537	81.221691	36.596091	0.32412	0.830015	-1.01507	1.468982	2.131175	13.84336	-18.216727	-67.303361	0.128048	0.216201	-0.511902	-1.152606	9.445256	1.21391	-2.511438	-4.697652	9.968211	13.519716	-0.673198	-0.477759	-0.143851
-9.90343	19.097445	19.168175	170.702997	112.310736	29.699273	0.351989	0.825738	-1.001693	1.868098	2.24294	13.681998	-17.090029	-85.658796	-0.670042	0.201372	-0.593939	-1.075563	10.325617	2.837766	-2.547916	-10.908273	12.117175	13.593088	-0.700179	-0.413397	-0.14734
-6.605368	-11.02351	-12.378684	211.342447	91.961232	20.144354	0.340898	0.785141	-1.043984	1.10229	2.133353	15.534086	-16.390872	-106.075985	-1.673912	0.189508	-0.544837	-1.121347	12.44895	5.737943	-2.196404	-9.507345	9.050212	14.855871	-0.659014	-0.443517	-0.176511
-3.826736	-8.231609	9.794163	-10.933546	22.356128	45.930373	0.355047	0.750168	-1.00935	0.753407	2.305233	18.074547	-14.832954	-133.361087	7.15056	0.163926	-0.528595	-1.136149	15.829471	4.746168	-1.359092	-0.335795	-0.769006	9.184275	-0.658877	-0.426498	-0.192876
0.206259	-4.552221	11.308879	-40.33897	10.703183	23.50402	0.410372	0.789983	-1.020994	0.993724	0.840493	18.417988	-9.94878	-166.544795	13.237189	0.124703	-0.529892	-1.120972	12.961964	3.305581	-0.280963	2.479124	-3.390955	3.409919	-0.672576	-0.41051	-0.193783
-0.251528	-4.896538	11.298523	22.000785	20.254185	-7.217278	0.4092	0.848595	-1.048733	0.614943	0.842195	19.542317	4.068006	-198.718174	12.990547	0.124188	-0.516715	-1.093277	11.427794	2.728084	-0.371954	-5.251371	-0.792639	6.818134	-0.700805	-0.461974	-0.144829
-2.827019	-4.045154	8.410494	30.922407	20.877593	-7.048815	0.369911	0.75685	-1.037851	0.286667	0.111162	20.270762	29.252761	-231.659479	14.780039	0.059384	-0.50177	-1.092902	11.012926	3.484018	-0.376443	-11.036752	1.866718	4.992537	-0.672714	-0.427529	-0.177418
-2.222842	-0.948834	7.241859	0.597135	11.74043	3.010514	0.411129	0.77974	-1.031654	-0.175497	0.337299	20.204641	55.623587	-263.396147	16.829151	0.046257	-0.532486	-1.090619	10.402956	3.480918	-1.465772	-13.106719	4.071844	1.046804	-0.658664	-0.428977	-0.146292
-1.631031	-2.955842	8.154197	-17.995064	7.920013	4.351296	0.398138	0.7734	-1.056041	-0.597688	0.280964	19.289898	78.236869	-291.63	19.865788	-0.032339	-0.565721	-1.058257	9.93934	3.135273	-1.05671	-14.717879	3.615421	0.260179	-0.658247	-0.396592	-0.147967
