1757_acc_x	1757_acc_y	1757_acc_z	1757_gyro_x	1757_gyro_y	1757_gyro_z	1757_mag_x	1757_mag_y	1757_mag_z	1758_acc_x	1758_acc_y	1758_acc_z	1758_gyro_x	1758_gyro_y	1758_gyro_z	1758_mag_x	1758_mag_y	1758_mag_z	1759_acc_x	1759_acc_y	1759_acc_z	1759_gyro_x	1759_gyro_y	1759_gyro_z	1759_mag_x	1759_mag_y	1759_mag_z
-2.46718	1.128678	9.462249	3.002123	-2.207763	-1.945946	0.324729	0.355044	-1.331998	2.184164	0.26706	9.440831	-3.257745	1.192626	-1.151952	0.442844	-0.385216	-0.794512	9.712309	2.091928	-0.706121	6.004623	6.975398	-3.987395	-0.546022	-0.257157	-0.30938
-2.753203	0.784236	9.455234	7.272806	-4.039451	-4.012128	0.453486	-0.312417	-0.69519	1.671449	-0.013432	9.656272	-3.749641	1.370745	-1.212233	-0.109913	0.081889	-0.956262	9.716711	2.092916	-0.466493	5.018906	6.752671	-3.493771	-0.519979	-0.571348	0.140607
-2.401675	0.498468	9.85868	14.885403	-5.578614	-6.113871	0.426731	-0.297554	-0.750795	2.07266	0.267418	9.608332	-2.111257	1.482506	-1.055663	-0.096051	0.085179	-0.999587	10.18857	2.207988	-0.457195	4.210702	6.327508	-4.069492	-0.492167	-0.552269	0.093327
-2.985644	0.898561	9.280703	15.452991	-7.067192	-7.427803	0.441609	-0.308172	-0.761804	1.566983	0.099871	10.163705	-7.730364	1.631055	-1.860235	-0.096346	0.084108	-0.985237	10.132045	2.557321	-0.277092	3.875109	6.971529	-4.346407	-0.478814	-0.601468	0.111436
-2.054849	0.556385	10.036161	13.018103	-8.697255	-8.336698	0.425974	-0.287312	-0.740135	1.44734	-0.069095	9.934587	-7.642394	1.292706	-1.524421	-0.122223	0.099278	-0.985689	9.600494	2.732764	-0.286254	4.194542	7.69673	-3.373042	-0.491888	-0.536903	0.108018
-2.585112	1.24292	9.289945	15.177107	-10.610413	-9.508781	0.425974	-0.287312	-0.740135	1.681767	-0.351036	10.109104	-7.083395	1.601175	-0.719375	-0.096051	0.085179	-0.999587	9.306359	2.326907	-0.293487	4.60711	8.545261	-2.461721	-0.492305	-0.569287	0.109692
-2.297561	1.013188	9.351401	15.371481	-12.898764	-10.926673	0.455758	-0.343145	-0.72717	1.89338	0.549157	9.321744	-6.087191	2.254453	-0.218828	-0.121262	0.117814	-1.029742	9.595667	2.441148	-0.587025	5.145821	10.134104	-2.104506	-0.436465	-0.552278	0.109136
-2.697228	1.013719	9.400459	17.824324	-16.433156	-12.678032	0.426731	-0.297554	-0.750795	2.2972	0.097758	9.329827	-8.605499	3.417621	-0.116804	-0.122073	0.129919	-0.987696	9.366475	2.32702	-0.232479	6.657228	11.318404	-3.704864	-0.464765	-0.602917	0.142562
-2.469283	0.955871	9.347819	22.934249	-20.680604	-15.522122	0.439723	-0.291214	-0.726408	2.461542	0.040773	8.936929	-16.068732	4.223503	-1.871993	-0.109398	0.068712	-0.983958	9.376629	1.748237	0.244303	6.468779	12.224757	-5.633896	-0.464213	-0.534842	0.077103
-2.631066	1.015608	9.856397	24.950679	-25.166414	-17.594445	0.455358	-0.312075	-0.748078	1.730008	0.099168	9.714215	-32.858476	5.308234	-3.416111	-0.109027	0.085104	-0.999311	9.607347	2.15324	0.010808	7.148909	13.093224	-6.557344	-0.478885	-0.600642	0.095909
-2.526578	1.013354	9.346947	23.67606	-27.373387	-18.669466	0.453086	-0.281346	-0.716097	1.736484	-0.125917	9.997224	-37.983964	5.577253	-2.924313	-0.121708	0.086101	-1.013385	9.549431	2.153623	0.069615	9.365516	13.666679	-8.004479	-0.505795	-0.537107	0.107948
-2.072049	1.242065	9.186261	23.68525	-26.586094	-17.613875	0.469493	-0.329748	-0.730935	1.862255	-0.632728	10.452331	-36.186174	6.259496	-0.603983	-0.121708	0.086101	-1.013385	9.310626	2.385972	-0.053612	12.938429	14.339	-9.670905	-0.492447	-0.567635	0.078636
-1.55214	1.01289	9.422729	21.300804	-25.330512	-18.169357	0.440466	-0.284158	-0.75456	1.569377	-0.519717	10.219823	-31.710237	6.064779	0.353352	-0.109612	0.14317	-0.960276	9.48918	2.211586	0.008855	16.639379	15.686057	-11.463231	-0.46428	-0.552687	0.108995
-2.224717	1.016524	10.148457	25.485307	-25.521669	-21.282339	0.42716	-0.363223	-0.694904	1.688566	-0.745113	10.39197	-24.299289	5.935143	1.745292	-0.121922	0.16056	-0.989704	9.490685	2.037606	0.06802	18.368297	16.433421	-12.145377	-0.492305	-0.569287	0.109692
-2.637664	0.899277	9.514796	27.543	-24.429751	-21.853283	0.427117	-0.311325	-0.747379	1.918588	-1.252566	10.339739	-13.930413	5.229454	3.195544	-0.108801	0.131066	-1.002322	9.143461	1.923747	0.420364	18.373724	16.60941	-11.412797	-0.477842	-0.51968	0.091723
-2.297027	1.817611	9.411632	19.074264	-23.336587	-18.713295	0.456158	-0.374215	-0.706263	1.344598	-0.85708	10.441261	-7.016105	4.941031	4.462201	-0.083735	0.128	-0.959824	9.081548	1.748912	0.238801	18.929388	15.709724	-10.004744	-0.478468	-0.568257	0.094234
-2.644801	1.529687	9.176332	11.785674	-20.343577	-14.564426	0.426745	-0.314854	-0.733303	1.692516	-0.913962	10.561747	-0.417679	4.012188	4.581587	-0.096566	0.098356	-0.971891	9.318734	2.213475	0.364995	19.329625	14.842918	-8.871316	-0.478255	-0.570736	0.140818
-1.841095	1.644472	9.30611	9.948971	-17.034966	-11.622355	0.413025	-0.345549	-0.712047	1.689559	-0.632404	10.448705	6.213026	3.20639	4.702223	-0.108801	0.131066	-1.002322	9.25406	1.805594	0.002722	18.886649	13.838132	-9.47613	-0.47833	-0.551238	0.077869
-1.891668	1.645961	9.646115	8.637324	-13.047132	-8.732146	0.399261	-0.324347	-0.743265	1.92705	-1.252234	10.736217	8.918415	2.227144	4.972118	-0.109392	0.128922	-0.973622	9.247748	2.152814	-0.295329	18.019358	14.215056	-10.727765	-0.492096	-0.553095	0.108855
-2.187097	1.988887	9.187171	5.586929	-8.120709	-5.300356	0.427131	-0.328625	-0.729888	1.801818	-1.027076	10.280872	14.298404	0.183294	4.432041	-0.08344	0.129072	-0.974174	9.543099	2.035987	-0.290321	16.779502	14.8439	-12.804356	-0.492514	-0.58548	0.110529
-1.904947	1.528183	8.963395	0.989055	-1.869629	-0.063901	0.399261	-0.324347	-0.743265	1.409763	-0.406211	10.839327	21.343111	-2.085743	4.045207	-0.096196	0.114748	-0.987244	9.716056	2.848152	-0.403372	16.079429	15.162187	-17.203866	-0.492096	-0.553095	0.108855
-1.894553	1.01338	9.472901	-4.418947	3.413986	3.410974	0.370263	-0.313355	-0.731907	1.628798	-0.857761	10.277387	26.496424	-4.929901	3.527819	-0.095901	0.11582	-1.001594	9.417653	2.38323	-0.65048	16.290192	14.982963	-23.468144	-0.492305	-0.569287	0.109692
-2.069947	1.414872	9.300691	-2.285193	5.24688	5.274648	0.412239	-0.300708	-0.73637	1.647601	-0.575349	11.183858	27.286545	-8.441296	2.78449	-0.135199	0.099203	-0.985413	9.712329	2.556783	-0.644236	13.846935	14.705264	-29.99703	-0.450794	-0.566196	0.063319
-1.902803	1.643549	9.077584	-4.772851	7.60262	7.926764	0.399647	-0.338118	-0.739849	1.636051	-0.857476	10.617225	26.245101	-12.738748	1.446137	-0.082925	0.115895	-1.00187	9.592947	3.137813	-0.643965	7.878585	13.940496	-32.049532	-0.46484	-0.583419	0.079614
-1.901607	1.528907	9.133954	-6.593784	9.263371	9.798974	0.441623	-0.325471	-0.744313	1.431499	-1.025041	11.801679	26.341097	-17.165011	3.251899	-0.121702	0.146311	-1.00305	9.297825	2.208778	-0.773236	3.142448	10.82273	-30.948078	-0.478814	-0.601468	0.111436
-1.665701	1.242981	9.47832	-5.644463	8.205925	11.28169	0.398919	-0.362474	-0.694206	1.253513	-1.419268	11.514522	34.231951	-22.887214	7.332364	-0.082849	0.131216	-1.002873	8.777279	2.386693	-0.18333	-2.317766	5.309151	-29.129782	-0.478397	-0.569083	0.109762
-1.954117	1.127822	9.358564	-3.658884	6.763223	11.927176	0.427117	-0.311325	-0.747379	1.382695	-1.813276	12.139643	48.498452	-29.681984	14.274418	-0.096862	0.097284	-0.957541	8.249861	2.679277	0.04763	-7.20831	-2.56192	-26.874484	-0.464836	-0.60209	0.127034
-1.949912	1.473437	9.587424	-3.894021	7.358967	13.50148	0.400433	-0.38296	-0.715526	1.14333	-1.867171	14.399135	63.396591	-45.254911	18.725124	-0.14766	0.085951	-1.012833	7.491454	2.683011	0.512579	-11.207794	-12.817323	-27.361079	-0.478747	-0.583623	0.079544
-2.07077	1.01254	9.242148	-6.790169	8.489855	15.582766	0.398518	-0.331404	-0.715113	1.034285	-0.235375	12.133718	84.382011	-53.690088	17.363334	-0.108952	0.100425	-1.000315	7.208613	2.628329	1.165806	-11.428873	-23.373463	-29.937711	-0.451487	-0.632619	0.097723
-1.952921	1.013181	9.414935	-8.227516	8.693031	16.05018	0.427503	-0.325096	-0.743963	0.976176	7.095327	20.857546	92.647364	-67.280209	10.236727	-0.135349	0.068562	-0.983406	7.158036	3.734381	1.768472	-11.144116	-32.957633	-31.63466	-0.46484	-0.583419	0.079614
-1.948301	0.784379	9.641382	-10.656555	8.203245	14.883938	0.42716	-0.363223	-0.694904	-0.230681	-3.044951	17.313176	62.377687	-132.871889	16.682002	-0.122593	0.082886	-0.970336	7.795534	4.020804	1.182744	-12.183345	-40.99401	-29.637	-0.492931	-0.617865	0.112203
-2.39776	1.246173	10.089229	-8.074455	6.529586	11.752094	0.427131	-0.328625	-0.729888	1.701419	-1.922906	16.279075	32.826205	-164.164035	-9.640928	-0.148181	0.038918	-0.995473	8.070672	4.073754	0.110169	-11.683165	-43.143746	-19.697577	-0.465324	-0.633649	0.113181
-1.9957	1.016358	10.152911	-2.418083	6.001022	9.181945	0.426345	-0.283783	-0.754211	1.351045	0.049261	16.216842	48.724292	-174.172032	-6.583133	-0.188509	0.048654	-0.923901	9.181899	3.197329	-0.531607	-8.078075	-38.484674	1.20115	-0.437158	-0.618701	0.14354
-2.619724	0.730813	10.423722	-1.270622	5.117204	6.281627	0.412639	-0.331778	-0.715462	2.472193	-1.249777	14.71066	54.294901	-187.736703	-5.54193	-0.200524	0.067115	-0.967678	9.812484	2.668709	-1.600051	2.151388	-29.132857	20.100618	-0.478602	-0.603947	0.15802
-2.226944	1.016042	10.034751	2.586064	5.086982	5.104693	0.397747	-0.303862	-0.721945	3.117065	-0.633189	12.630023	53.382232	-191.494475	-5.364193	-0.202006	0.001546	-0.906264	11.217557	1.849437	-2.295985	10.118425	-13.377318	16.420169	-0.478811	-0.62014	0.158857
-2.056419	1.188001	9.981962	3.68467	4.949255	4.148613	0.414525	-0.348736	-0.750859	2.263232	-1.250876	13.007845	53.19954	-183.862916	-3.90129	-0.241079	0.03089	-0.893095	11.92465	1.84757	-2.342686	9.076124	1.29272	-3.574094	-0.451692	-0.667482	0.145981
-2.062028	1.244236	9.697938	3.743665	5.14401	3.262258	0.41301	-0.32825	-0.729538	1.712612	-1.307517	11.467648	57.424517	-179.365538	-2.80507	-0.228404	-0.030317	-0.889356	11.698355	1.908411	-1.807679	4.741469	12.492467	-17.333425	-0.451625	-0.649637	0.114088
-2.295582	1.35832	9.466555	3.099065	5.175213	2.957947	0.399276	-0.341647	-0.725773	-3.839316	-2.424871	10.047934	43.246553	-162.342441	-0.396939	-0.293949	-0.048156	-0.858274	11.010819	2.495736	-0.620274	-2.156307	20.065061	-15.419369	-0.451487	-0.632619	0.097723
-1.951067	1.530637	9.530813	1.630568	5.630356	2.877569	0.398904	-0.345175	-0.711697	-8.697301	-1.402675	8.984366	25.903869	-140.69405	11.02572	-0.30729	-0.004414	-0.83231	10.448574	2.329039	0.865653	-10.026504	22.387543	-9.014933	-0.451069	-0.600234	0.096049
-2.299912	1.18503	9.238418	-0.179099	5.626086	2.514699	0.398533	-0.348703	-0.697621	-9.852798	-1.738692	8.733345	1.195732	-124.038554	58.125765	-0.308696	-0.054663	-0.7719	10.715971	1.638262	2.484574	-16.43892	23.95052	-5.576325	-0.478811	-0.62014	0.158857
-1.952139	1.472954	9.473718	-1.647627	5.736927	2.980739	0.39889	-0.327876	-0.729189	-11.025889	-2.357073	7.632492	-8.035238	-95.20749	102.896978	-0.346883	-0.022103	-0.801779	10.501375	1.876051	3.679299	-18.72383	23.7004	-5.841909	-0.49314	-0.634057	0.11304
-2.527982	1.415203	9.291783	-4.032975	6.430496	3.182881	0.427131	-0.328625	-0.729888	-11.03392	-2.582727	7.235825	-22.390721	-56.584884	145.29851	-0.345922	-0.003567	-0.845832	10.27643	1.356132	4.211834	-14.950692	22.101176	-12.601841	-0.437229	-0.617875	0.128012
-2.174144	1.015035	9.808452	-5.930755	6.633613	3.467651	0.39929	-0.358946	-0.708282	-10.606705	-2.86657	5.659351	-42.628608	-34.387247	177.66704	-0.347323	0.006394	-0.775087	10.320755	1.991866	3.496771	-4.850824	21.782897	-25.685246	-0.5204	-0.585062	0.094861
-2.291087	1.301843	9.693726	-7.061108	7.087198	3.66228	0.41301	-0.32825	-0.729538	-10.167266	-2.978562	7.366906	-61.143522	-22.494335	208.425374	-0.359483	0.054424	-0.806522	10.43236	2.861748	3.263053	4.588091	20.77779	-34.697943	-0.493211	-0.633231	0.097513
-2.057325	0.900552	9.923903	-8.529367	7.47879	3.764872	0.412982	-0.293651	-0.764522	-9.888525	-2.021767	7.033919	-62.666373	-18.903596	228.56856	-0.373345	0.051133	-0.763197	10.644911	3.030244	2.010152	10.249203	20.731866	-31.265526	-0.451345	-0.634271	0.128779
-2.183218	1.242871	9.354593	-8.524355	8.090279	4.0508	0.400019	-0.33459	-0.753925	-9.833053	-2.190961	6.921707	-67.257446	-13.948942	245.176676	-0.372378	0.129879	-0.796914	10.570103	3.666001	1.232981	11.294522	21.217293	-15.718047	-0.492931	-0.617865	0.112203
-2.463715	0.957077	9.632084	-8.702564	8.730249	4.460387	0.385141	-0.323973	-0.742916	-9.671537	-1.403037	6.472881	-78.246223	-4.777528	256.270215	-0.423391	0.193004	-0.828526	10.14309	3.489504	0.445747	11.465049	20.917344	4.483921	-0.451699	-0.63014	0.05114
-2.181938	1.013346	9.410481	-9.034665	9.402666	4.656274	0.413396	-0.342021	-0.726123	-8.616557	-1.122565	7.401112	-88.861683	9.029258	262.444473	-0.41034	0.2084	-0.829805	10.146195	2.153756	0.44006	9.433442	19.48176	18.374945	-0.436811	-0.58549	0.126338
-2.005928	1.301395	9.64244	-8.140398	10.236195	4.697914	0.427131	-0.328625	-0.729888	-7.537831	-0.615824	9.462325	-92.298261	23.173654	263.538614	-0.410629	0.267538	-0.80512	9.487924	1.80456	-0.11269	5.858577	16.763818	22.619234	-0.49349	-0.648597	0.082822
-2.243978	1.471955	9.183885	-8.782423	10.447609	4.764532	0.426731	-0.297554	-0.750795	-5.621787	-0.337064	10.29541	-83.020192	35.379113	257.437014	-0.409663	0.346284	-0.838838	9.021142	1.400097	0.116404	3.064072	13.682403	17.906049	-0.452117	-0.662525	0.052814
-2.356136	1.300196	9.294641	-8.138202	10.636736	4.612416	0.442395	-0.353013	-0.737481	-4.178463	-0.001585	10.552476	-65.854944	50.028883	244.241352	-0.409142	0.393317	-0.856198	8.846429	1.34292	0.232669	2.635291	11.088087	5.357473	-0.437158	-0.618701	0.14354
-2.40774	1.18656	9.57731	-10.059024	11.787832	5.311327	0.42826	-0.335339	-0.754624	-1.84377	-0.342647	12.073177	-47.135185	64.780924	222.87517	-0.394979	0.457889	-0.903538	8.735674	1.054294	0.588673	1.083282	8.732328	-9.937386	-0.437579	-0.632415	0.097793
-2.184165	1.012864	9.296774	-8.239551	13.078605	6.063073	0.413025	-0.345549	-0.712047	0.298778	-0.627813	12.684066	-20.772263	79.409236	188.130231	-0.381922	0.533495	-0.894482	8.501021	1.86864	0.767453	0.898639	6.330086	-23.218343	-0.479374	-0.632201	0.082055
-2.577318	1.244609	9.687917	-8.136509	14.392784	6.758804	0.427903	-0.356167	-0.723056	1.866557	-0.742862	13.339647	6.401994	99.202963	147.426493	-0.419224	0.56927	-0.967411	8.561718	2.566159	0.951241	0.341679	3.872216	-31.240884	-0.465816	-0.646537	0.051907
-2.356918	0.840422	9.235857	-9.294731	15.245007	7.021321	0.426774	-0.349452	-0.69832	3.026997	-0.462986	13.817179	34.576675	119.599274	100.473495	-0.379335	0.588031	-1.012291	8.504342	2.334237	1.009059	-1.647875	2.126217	-31.683678	-0.479232	-0.633853	0.113111
-2.176329	0.957111	9.694505	-8.699512	16.744104	7.871969	0.41301	-0.32825	-0.729538	3.531873	-1.140491	13.147815	58.212636	140.361046	54.049049	-0.32691	0.635364	-1.030754	8.620599	2.6241	0.952589	-2.830292	0.313974	-25.437348	-0.479511	-0.649219	0.09842
-2.28857	0.900235	9.805743	-9.024406	18.428493	8.268277	0.427145	-0.345924	-0.712396	4.042338	-2.21212	12.704678	68.961573	158.277557	9.809907	-0.312753	0.639727	-1.088429	8.687028	2.276992	1.311647	-1.334771	-1.010936	-15.107864	-0.479303	-0.633027	0.097583
-2.868909	0.898961	9.396636	-9.847045	19.286795	8.131262	0.427517	-0.342396	-0.726472	4.43541	-2.100593	12.260118	73.30757	173.44228	-29.124924	-0.284885	0.616739	-1.187421	8.569826	2.393661	1.369848	0.156904	-1.800691	-6.24702	-0.452046	-0.663351	0.068342
-2.11792	0.899869	9.75223	-7.611898	19.648127	6.99604	0.399619	-0.30352	-0.774833	4.262259	-2.494631	12.19952	70.659781	185.654288	-61.156303	-0.244406	0.637644	-1.261001	8.745909	2.334933	1.312995	1.348697	-2.145238	-2.093279	-0.465603	-0.649015	0.09849
-2.809427	0.899402	9.511456	-7.462567	19.62889	6.044629	0.454986	-0.315603	-0.734002	4.33062	-1.818298	12.767694	67.170186	195.394338	-86.892283	-0.178646	0.581025	-1.315764	8.619188	1.810294	0.769407	4.374127	-1.893126	-1.769253	-0.451487	-0.632619	0.097723
-2.578638	1.531575	9.63227	-7.559176	19.454165	5.152727	0.456144	-0.356916	-0.723754	4.797056	-2.382276	13.003449	67.324881	200.654218	-108.93922	-0.138688	0.554897	-1.371983	8.379978	2.216871	0.646922	8.159567	-1.182883	-4.078513	-0.479444	-0.631374	0.066527
-2.800561	0.958773	9.966522	-3.881181	20.003122	4.323052	0.427488	-0.307797	-0.761455	5.596019	-3.172744	12.623233	67.792192	201.641515	-127.976266	-0.059507	0.530066	-1.443379	8.259474	2.332799	0.525402	10.552147	-0.560569	-7.237981	-0.480071	-0.679952	0.069038
-2.405264	0.842394	9.689568	-1.210074	20.690573	4.418538	0.427903	-0.356167	-0.723056	5.482552	-2.77812	12.734426	64.679592	198.187883	-144.5325	0.018343	0.470306	-1.455368	8.972745	2.041788	0.776999	11.568259	0.563539	-9.111239	-0.437788	-0.648607	0.09863
-2.803943	1.015491	9.796204	1.637794	21.055112	3.250911	0.427131	-0.328625	-0.729888	5.697314	-2.891829	12.002852	58.250572	191.669289	-157.792983	0.070762	0.45743	-1.484167	9.214312	2.042484	1.080935	11.577833	1.07316	-8.1052	-0.451833	-0.66583	0.114925
-2.57377	0.958125	9.85727	-1.145035	22.307552	2.7886	0.4546	-0.301832	-0.737418	5.408709	-3.116659	11.939978	50.338177	182.851668	-168.981585	0.134455	0.393307	-1.438482	9.273868	1.810045	1.081046	10.843503	1.152811	-7.186091	-0.4663	-0.696766	0.085473
-3.319191	0.958422	9.785941	-0.957873	23.832558	1.187467	0.412639	-0.331778	-0.715462	5.572774	-1.765287	11.661545	44.123387	174.450398	-175.01796	0.238263	0.393908	-1.440688	9.102322	1.811686	1.377279	10.09998	0.877364	-7.426572	-0.452046	-0.663351	0.068342
-3.211073	0.554801	9.44536	5.345293	26.400558	2.253761	0.468735	-0.319506	-0.720275	5.166298	-1.821006	11.483117	39.198296	170.838102	-175.520125	0.251089	0.363342	-1.438956	9.447345	1.92505	0.905121	10.82948	0.185923	-8.342743	-0.48	-0.680778	0.084566
-2.927318	0.956202	9.338911	-0.840041	26.637438	3.226106	0.482842	-0.302581	-0.738116	5.495652	-1.653277	10.754197	30.954175	176.478774	-168.783236	0.315303	0.346253	-1.410632	9.876425	2.160117	1.812417	11.377214	-0.884916	-8.12569	-0.49377	-0.663964	0.068131
-3.156501	1.186134	9.335422	-9.169518	27.642248	3.358414	0.469493	-0.329748	-0.730935	5.027683	-0.920355	10.461945	20.884338	187.522212	-153.395631	0.366321	0.343337	-1.368686	9.51584	1.636513	1.384241	11.403639	-2.211488	-7.019258	-0.437996	-0.6648	0.099468
-2.921626	0.785084	9.622452	-9.31811	28.942554	2.459955	0.482127	-0.344236	-0.674981	4.8609	-1.483148	10.684402	13.977781	192.841429	-132.391135	0.378261	0.309556	-1.323905	9.692193	1.461632	1.326894	11.084551	-4.086084	-6.275687	-0.451833	-0.66583	0.114925
-3.26305	0.95814	9.730202	-7.460821	34.69309	5.614796	0.483628	-0.347422	-0.713793	5.25816	-1.033448	10.466685	10.276598	190.93248	-105.105906	0.404288	0.325026	-1.32546	9.929108	2.042347	1.453581	11.155833	-6.498143	-6.66173	-0.438209	-0.662321	0.052884
-2.913915	0.901656	10.020907	-22.192367	41.418664	5.429177	0.454215	-0.288061	-0.740833	5.659239	-1.31595	10.361632	7.008209	179.894556	-71.991594	0.455306	0.322111	-1.283514	9.748488	2.158162	1.271054	10.989334	-8.679591	-5.764437	-0.424577	-0.696154	0.085684
-3.193257	0.558661	10.35501	-20.534438	47.119326	4.750392	0.454986	-0.315603	-0.734002	6.791983	-1.093494	9.536405	7.739349	160.472801	-37.321541	0.467026	0.302578	-1.225387	10.343862	1.809345	1.520202	10.211252	-11.431769	-3.120171	-0.46595	-0.682227	0.115692
-2.959252	1.363883	10.647108	-26.727404	57.770366	-4.81105	0.46875	-0.336805	-0.702783	7.391547	-1.828352	7.906538	4.648767	137.007226	-1.058497	0.506174	0.288555	-1.23956	9.91963	2.330749	0.975562	8.637639	-13.236066	-0.721993	-0.45253	-0.713581	0.101909
-3.84918	2.174518	11.997144	-31.653627	68.996928	-5.043729	0.468721	-0.302206	-0.737767	8.701561	-2.732736	7.19727	-3.928693	109.291632	32.015826	0.505438	0.31598	-1.198518	9.494932	1.631815	0.24601	7.641549	-14.836121	-0.130056	-0.424435	-0.697807	0.11674
-4.115351	1.189975	10.055583	-21.850651	74.541156	-7.61935	0.481327	-0.282095	-0.716796	9.290138	-3.41169	5.057694	-22.192802	79.649021	59.053191	0.506249	0.303875	-1.240564	9.679278	1.807369	0.669401	7.159804	-15.484215	-2.692471	-0.451766	-0.647985	0.083032
-3.008593	2.744452	11.10661	-50.829735	80.480241	-12.101191	0.524074	-0.29699	-0.714428	10.172979	-2.400887	3.378702	-54.078896	44.730378	78.135336	0.531535	0.286561	-1.211412	9.501824	1.982002	0.666841	5.52871	-15.933977	-7.085299	-0.480067	-0.698623	0.116459
-3.848108	2.232201	12.054239	-26.381528	90.445578	-8.421161	0.536309	-0.280408	-0.679381	20.06923	-6.226724	29.965375	-112.701809	2.089855	95.084932	0.544146	0.330453	-1.185999	9.678198	2.271977	0.671379	3.286967	-16.583658	-10.099597	-0.466297	-0.715438	0.132894
-4.266331	1.711657	11.134623	-13.836075	94.676155	-5.168221	0.539738	-0.352449	-0.701113	15.145864	-0.775575	4.673475	-42.904311	-147.78053	78.974498	0.569803	0.329532	-1.172201	9.972178	2.271055	0.616974	1.97657	-17.707716	-11.281338	-0.466021	-0.6814	0.100164
-3.917978	1.1954	11.366545	-24.387953	102.351443	-11.668332	0.539338	-0.321379	-0.722021	17.981474	0.517793	8.244249	-26.069093	-118.63797	80.29513	0.543701	0.298741	-1.169642	9.396457	2.217543	1.384512	0.099148	-18.093491	-10.111408	-0.437996	-0.6648	0.099468
-4.248018	1.026219	12.041377	-21.241674	113.864018	-9.619328	0.538952	-0.307608	-0.725437	24.138494	1.801863	8.374693	22.026044	-151.563805	65.576997	0.543706	0.358951	-1.159307	9.51638	1.404208	1.383252	-0.909648	-18.424129	-8.058613	-0.45218	-0.699041	0.132127
-4.031125	0.851075	11.419723	-20.855111	122.670557	-11.22542	0.565693	-0.305171	-0.687323	17.495961	5.754441	4.841821	50.099065	-247.828442	76.945544	0.505149	0.375118	-1.173833	9.754821	2.275798	1.63099	-1.10674	-17.436049	-6.07614	-0.451554	-0.650464	0.129616
-4.17938	0.683941	12.609573	-21.615037	132.857514	-10.44418	0.593934	-0.30592	-0.688022	5.660732	12.385283	25.150047	61.728904	-249.387379	18.483783	0.466215	0.314683	-1.183341	9.326072	3.319145	0.908854	3.585582	-14.418576	-9.37756	-0.466159	-0.698419	0.116529
-4.118418	1.718812	12.842443	-18.380937	145.851241	-11.77568	0.565307	-0.2914	-0.690739	0.098348	1.230469	11.549212	114.786166	-306.253152	53.755941	0.439378	0.311317	-1.139741	10.398345	4.990647	-1.519251	1.64635	-5.176562	-16.473937	-0.452318	-0.71606	0.148492
-4.085262	2.070699	14.549483	-25.577312	161.010846	-18.808053	0.60764	-0.257925	-0.72677	12.343769	5.542293	8.753032	-21.207795	-275.655501	-23.800553	0.362257	0.283442	-1.179128	12.788201	5.966223	-2.967602	-18.523257	14.031916	-11.511363	-0.465879	-0.683053	0.13122
-5.203082	-0.220585	15.825182	-18.676695	180.132473	-17.443409	0.607312	-0.313351	-0.660219	13.595156	0.086692	21.059777	-8.245839	-142.545377	-124.586708	0.310579	0.329103	-1.181036	14.092578	5.267329	-2.706731	-34.290658	33.252521	8.808687	-0.424222	-0.700285	0.163323
-5.871408	-1.479942	16.716161	-10.824034	201.882945	-12.020894	0.649659	-0.297175	-0.678758	4.264647	-10.207666	17.004971	-20.798095	-99.457713	-70.106801	0.324366	0.317073	-1.223357	12.743295	4.633082	-2.37532	-45.868378	46.621077	25.65987	-0.424506	-0.69698	0.101212
-6.337414	-1.871044	19.205986	-9.353495	228.822509	-1.190067	0.719118	-0.275034	-0.67326	2.927354	-7.050962	16.639984	32.525753	-40.521935	-19.417822	0.284182	0.29724	-1.164128	10.98476	4.233073	-1.810995	-55.881294	43.496031	25.588784	-0.465741	-0.666034	0.114855
-6.209289	-3.764044	19.825634	1.198503	260.156727	12.752044	0.705055	-0.343857	-0.602944	0.466957	-0.40534	9.800472	75.159588	-22.644691	2.805109	0.245254	0.297015	-1.1633	8.704984	3.836504	-0.717411	-64.543149	17.97338	17.488573	-0.438414	-0.697184	0.101142
-6.470485	-4.562711	21.067456	19.023665	293.740368	25.880809	0.731739	-0.272223	-0.634797	0.478936	3.590164	5.331728	79.142911	-46.18291	-15.274932	0.245844	0.299159	-1.192	7.269871	3.5584	1.41049	-66.436731	-12.121399	13.543141	-0.466021	-0.6814	0.100164
-5.141011	-5.077984	21.716279	36.587455	330.870899	45.137785	0.745516	-0.310724	-0.586087	2.047101	-1.928274	10.907984	28.912287	-47.404225	-15.17336	0.298263	0.286282	-1.220799	6.992282	4.085962	2.42563	-43.396526	-33.510488	1.886033	-0.480279	-0.696144	0.069875
-4.671095	-6.109851	22.289374	53.712967	366.327796	65.163711	0.81499	-0.305883	-0.563097	3.14613	-5.082494	13.58915	45.620994	-14.329803	1.014315	0.219742	0.268368	-1.189441	8.532825	5.710805	3.000326	-23.375689	-40.898631	-13.126352	-0.438272	-0.698837	0.132197
-4.330743	-6.340589	22.12453	84.156877	399.545252	87.411442	0.830297	-0.382169	-0.518215	1.019971	-0.968288	11.396786	96.068939	-2.503563	6.721607	0.258224	0.23688	-1.173911	8.602056	6.526454	3.663863	-9.38375	-42.300372	-17.662522	-0.452534	-0.69491	0.054488
-5.120026	-3.292471	22.860821	109.102808	412.488097	100.913875	0.84256	-0.400185	-0.448185	1.491782	-1.813728	11.858863	108.429972	-3.465364	13.720113	0.25911	0.240096	-1.216961	8.549798	6.934852	4.083842	3.20002	-42.342502	5.549329	-0.438969	-0.746588	0.119181
-7.479308	0.785647	22.377476	177.404342	405.247908	93.488612	0.910919	-0.405929	-0.382967	1.961522	-2.208572	12.26468	119.980845	-2.622246	19.780304	0.258814	0.239024	-1.202611	8.302439	6.584216	3.418981	15.190561	-37.457008	37.028832	-0.439178	-0.762781	0.120018
-9.684389	2.963969	20.923006	215.898646	382.691037	79.554512	0.882349	-0.460606	-0.315717	1.651377	0.999806	8.807531	131.453622	-6.433001	15.219759	0.245167	0.161275	-1.182967	8.292784	6.000984	2.817439	26.291216	-30.632831	55.208799	-0.438552	-0.714203	0.117507
-9.6834	3.136535	20.980583	248.812776	374.686119	57.380211	0.950337	-0.469878	-0.236423	0.946281	3.814909	5.681427	83.595418	-12.33621	4.363323	0.193779	0.147798	-1.20956	9.2304	5.067629	2.351836	34.507674	-17.83292	50.531541	-0.45218	-0.699041	0.132127
-5.342104	0.705841	17.531295	288.596624	363.943925	22.260285	0.950008	-0.525304	-0.169872	1.351353	1.056201	8.235138	41.320736	-1.761005	11.95663	0.232706	0.148023	-1.210387	10.90928	5.346924	0.647685	41.494399	0.135118	27.857976	-0.479716	-0.684083	0.146677
-4.406104	-2.22048	18.446454	234.837548	360.335648	-17.143144	0.948136	-0.525646	-0.116984	1.331131	0.494426	9.932643	41.45767	1.534604	9.954812	0.232486	0.162272	-1.197041	13.175676	4.868891	-1.288304	43.750272	23.056315	6.954759	-0.451759	-0.685327	0.177874
-1.450599	-4.525363	17.300788	205.303012	349.045309	-29.633365	0.960028	-0.547191	-0.032877	1.569142	2.519984	7.78809	33.788662	-1.945492	6.769518	0.232706	0.148023	-1.210387	13.442995	5.443042	-2.718095	36.62803	41.049717	-1.877032	-0.43841	-0.715856	0.148562
19.15433	-7.481267	-11.976358	192.278478	223.651557	19.979482	0.987926	-0.586067	0.015484	1.906354	0.71867	9.944922	4.34054	-0.540648	6.728962	0.206014	0.115088	-1.179129	12.539586	5.208561	-3.754007	25.866369	48.163295	4.760219	-0.465808	-0.683879	0.146748
21.453974	-5.802362	-8.457896	90.10383	35.786607	-48.140056	0.943278	-0.536916	0.03102	1.321699	1.001069	9.536593	5.048132	-3.571203	2.630051	0.271339	0.147176	-1.196865	10.364346	4.460052	-3.438496	19.906244	33.214003	13.44193	-0.479783	-0.701928	0.17857
1.659709	-4.573364	6.620136	-180.994559	-9.065146	-71.374172	0.957441	-0.589188	0.083146	1.891094	1.112415	9.265579	-0.014254	-3.441831	1.14751	0.258583	0.132853	-1.209935	9.499027	3.943596	-2.438811	8.255814	18.219052	24.712843	-0.46595	-0.682227	0.115692
1.770213	-2.468756	15.26938	-19.665159	-108.068363	-53.536748	1.013495	-0.525017	0.025858	1.667977	1.169461	9.600628	-6.872935	-3.701168	-0.648617	0.245092	0.145954	-1.181964	10.359751	3.310286	-0.628917	-6.489246	13.614424	30.07677	-0.451483	-0.65129	0.145144
4.836062	-1.454941	11.127837	27.58446	-144.713015	-43.408621	1.013109	-0.511246	0.022442	1.784425	1.112962	9.659638	-12.069276	-4.284713	-1.213505	0.258583	0.132853	-1.209935	10.615739	2.791265	0.391677	-17.190959	10.501197	22.763188	-0.479575	-0.685736	0.177733
2.900543	-4.808143	5.677165	46.843575	-146.263078	-29.041534	1.015009	-0.545503	0.004538	2.08136	0.774772	10.061875	-18.080609	-5.797825	-1.880775	0.246128	0.179811	-1.22702	10.506395	3.316444	0.930863	-22.476542	9.010874	11.235109	-0.465391	-0.651494	0.145073
1.528431	-5.393668	2.806487	20.414902	-140.720815	-18.753532	1.057357	-0.529327	-0.014002	1.619628	0.775587	9.995564	-24.55703	-7.525053	-3.537039	0.21995	0.133699	-1.223458	10.680838	3.489773	0.815092	-24.242435	7.465003	6.29735	-0.480063	-0.717294	0.163879
1.467711	-5.222025	2.635539	-19.032239	-129.60114	-6.651289	1.058114	-0.53957	-0.024662	1.793533	0.775311	10.055831	-28.422329	-7.876688	-4.160203	0.245532	0.117457	-1.208656	10.67385	4.127373	0.518277	-25.703599	3.850125	9.284679	-0.479649	-0.666238	0.114785
2.838928	-4.304438	2.552417	-61.295578	-129.135066	2.739731	1.072592	-0.519117	-0.056579	1.89733	0.380308	9.491521	-31.675106	-8.649413	-4.848715	0.245312	0.131706	-1.19531	10.125658	4.357184	-0.389241	-23.399634	-3.142738	17.837677	-0.451621	-0.668309	0.161509
3.789967	-3.378316	4.393393	-84.842399	-147.146402	8.464306	1.130589	-0.541101	-0.079296	2.027075	0.324331	10.173566	-35.107195	-8.934431	-5.440037	0.270969	0.130784	-1.181511	9.53287	4.067412	-0.581203	-21.215376	-9.211187	25.71476	-0.493345	-0.668921	0.161298
4.737045	-1.591296	6.067429	-83.465084	-177.199946	9.413568	1.116054	-0.492356	-0.117346	1.840327	0.718446	9.547236	-37.887099	-8.878716	-5.287581	0.245538	0.177667	-1.198321	9.355106	3.428486	-0.707037	-22.148311	-14.480458	26.232401	-0.465808	-0.683879	0.146748
4.649917	-0.953324	7.489184	-70.820928	-211.452552	5.171645	1.10382	-0.508939	-0.152393	1.90359	0.267884	9.774624	-38.376799	-8.459682	-4.667253	0.206089	0.130409	-1.180133	8.577297	3.253541	-1.321154	-25.943071	-16.824165	17.912198	-0.465458	-0.669339	0.176966
3.700224	-1.292203	8.662721	-50.402728	-241.246829	-1.473733	1.14691	-0.485707	-0.199084	1.792948	-0.182402	9.941745	-33.270342	-7.636396	-3.421845	0.257848	0.160278	-1.168893	7.52352	2.909246	-0.923097	-28.238647	-18.084974	5.944741	-0.493695	-0.683461	0.131079
2.66779	-1.808913	8.5268	-35.80369	-260.90023	-6.956517	1.120126	-0.436245	-0.289673	2.022994	-0.070173	9.946676	-32.062778	-7.407451	-3.264458	0.220396	0.165412	-1.239815	7.517457	2.675459	-1.283527	-29.05622	-17.967645	-2.732826	-0.46532	-0.65232	0.160601
1.799076	-1.982787	7.997696	-36.166547	-271.083809	-12.610693	1.123899	-0.47016	-0.360465	1.90754	0.099035	9.9444	-29.030376	-7.031105	-3.35076	0.258369	0.207311	-1.186254	6.926215	3.141417	-1.292554	-29.590096	-17.267951	-5.515362	-0.50802	-0.71605	0.132683
1.966634	-2.328526	7.772177	-43.680151	-277.85725	-18.035751	1.082266	-0.44468	-0.405062	1.798777	-0.069504	10.225038	-26.921234	-6.446823	-4.206433	0.206905	0.178514	-1.211843	6.808858	2.851307	-1.295991	-31.291955	-16.482684	-2.181695	-0.438134	-0.681818	0.115832
1.405142	-2.210816	8.330055	-59.363492	-286.946431	-23.413725	1.083366	-0.416796	-0.464781	1.667631	0.718769	9.543609	-25.709297	-5.908603	-4.446729	0.245173	0.221485	-1.172632	6.635381	2.736302	-1.120066	-31.96204	-16.000554	4.206124	-0.45218	-0.699041	0.132127
0.857918	-1.802762	9.628231	-69.998326	-297.615388	-28.555989	1.028742	-0.397656	-0.533764	1.330569	0.156395	9.875719	-22.738849	-5.619405	-5.397126	0.20639	0.19169	-1.184147	6.333563	2.79357	-1.484762	-33.872848	-15.756833	9.56068	-0.493278	-0.651076	0.129405
0.259504	-2.082758	11.206662	-69.690638	-304.646992	-32.505229	1.000829	-0.34148	-0.599617	1.905638	-0.802396	9.773723	-21.191205	-5.499355	-6.689451	0.219736	0.208158	-1.199776	6.579936	2.621026	-0.94194	-35.792546	-15.340952	13.050132	-0.465529	-0.668513	0.161438
-0.412499	-1.332144	11.992381	-66.967866	-307.943763	-36.462222	0.96034	-0.340015	-0.651457	2.022994	-0.070173	9.946676	-19.70427	-5.25984	-7.610703	0.193119	0.190544	-1.169522	6.289912	1.867455	-0.770935	-37.563494	-14.479595	14.91698	-0.466438	-0.713785	0.101838
-1.088293	-1.501558	12.546826	-62.879164	-308.525476	-40.471184	0.933184	-0.294082	-0.72797	1.789645	-0.351536	9.771684	-19.101721	-4.054817	-7.844857	0.20698	0.193834	-1.212847	6.694917	2.039007	-1.181839	-38.72398	-13.324973	15.251905	-0.479925	-0.700276	0.147515
-2.048049	-1.785166	13.208927	-62.228758	-309.423974	-45.089013	0.919464	-0.324778	-0.706714	1.841944	-0.126512	9.546525	-16.867593	-3.289413	-8.020415	0.244658	0.234661	-1.144936	6.353175	1.461529	-0.591845	-39.679405	-11.931817	13.292468	-0.507253	-0.669125	0.161228
-1.917661	-2.183963	14.005408	-63.898637	-313.532273	-49.84444	0.876674	-0.257985	-0.761557	2.078704	0.267655	9.89153	-16.275812	-2.970883	-8.694978	0.232863	0.238874	-1.202059	6.75876	2.330488	-0.879968	-38.520478	-9.013073	12.41849	-0.493624	-0.684287	0.146607
-1.945965	-2.177649	15.482475	-66.841868	-319.636533	-55.518407	0.779287	-0.206651	-0.8504	2.537564	-0.127615	9.78759	-16.51784	-2.660923	-9.678572	0.193489	0.206936	-1.184875	7.000017	1.517626	-0.699307	-37.633556	-5.298401	11.388875	-0.4519	-0.683675	0.146818
-3.419939	-2.403201	16.191649	-69.416662	-322.194223	-58.988512	0.751032	-0.188602	-0.867193	1.907301	-0.407988	9.887334	-17.690268	-2.696017	-11.282891	0.232272	0.23673	-1.17336	7.176255	1.865677	-0.694522	-36.81849	-3.585935	5.784359	-0.493691	-0.702132	0.1785
-4.020539	-2.741122	17.656133	-76.2704	-323.025325	-61.774072	0.695279	-0.162748	-0.91144	1.458088	-0.632021	10.387229	-18.861417	-2.667164	-13.287324	0.206025	0.235508	-1.158459	6.95106	1.926765	-0.099607	-34.890272	-1.875765	0.787332	-0.479508	-0.667891	0.14584
-5.03091	-2.965799	18.658481	-80.345671	-321.892957	-62.879093	0.610169	-0.14673	-0.912761	2.138533	-0.915393	9.891743	-15.760791	-4.535353	-17.002664	0.245173	0.221485	-1.172632	7.486317	1.577836	0.088534	-33.788142	-0.801478	-2.155807	-0.465462	-0.650668	0.129546
-6.386496	-3.937451	19.537304	-85.441182	-318.730604	-61.585904	0.596392	-0.108228	-0.961471	2.138987	-0.521032	9.948714	-12.60387	-6.832106	-20.722192	0.232342	0.191841	-1.184699	8.202213	1.577946	0.521087	-32.693657	0.694351	-1.494536	-0.479441	-0.650046	0.113948
-7.078785	-4.397692	19.237746	-96.044476	-313.054273	-53.578843	0.525775	-0.089056	-0.977217	1.764736	0.661512	8.696386	-16.818045	-7.951892	-21.784827	0.206986	0.254044	-1.202511	8.011555	1.749612	-0.200355	-31.864569	0.92431	3.177515	-0.494254	-0.714193	0.101698
-9.153674	-5.433284	18.454227	-122.806426	-306.271181	-38.544329	0.524989	-0.044214	-1.00154	1.637302	0.773914	8.127667	-38.659862	-8.014157	-21.833844	0.193715	0.252897	-1.187886	8.482718	1.690209	-0.251706	-29.58021	1.89269	7.932639	-0.479437	-0.668717	0.161368
-12.182793	-6.693836	18.617316	-160.007992	-307.17336	-20.385364	0.441366	-0.014083	-1.059165	2.109459	0.379165	8.646762	-52.992685	-7.627465	-19.683652	0.192754	0.234361	-1.143833	8.472814	1.687984	-0.790868	-25.749809	4.379406	11.330202	-0.47972	-0.665412	0.099257
-16.340594	-5.996687	19.675988	-181.482989	-315.199538	0.094867	0.369649	-0.022795	-1.015191	1.89733	0.380308	9.491521	-65.674977	-8.283599	-14.274816	0.193495	0.267146	-1.17454	8.661387	0.992891	-0.251371	-24.47635	6.19793	10.430509	-0.493975	-0.698827	0.116389
-20.030592	-3.401886	21.320063	-170.948239	-320.725725	19.447878	0.340622	0.022796	-1.038816	1.837324	-0.239362	9.319871	-74.779826	-7.079302	-9.769372	0.219076	0.250903	-1.159738	8.310976	0.35536	-0.140879	-24.696033	8.564297	6.324311	-0.47972	-0.665412	0.099257
-25.403508	-2.891432	18.773998	-130.401764	-313.40846	44.746216	0.269247	0.052211	-1.043901	1.721415	-0.464516	9.260624	-81.748585	-5.483397	-4.734203	0.180148	0.250678	-1.158911	8.006687	0.528285	-0.624895	-27.612582	9.551691	1.531641	-0.465529	-0.668513	0.161438
-33.519627	-4.056415	13.439652	-104.630464	-288.103568	76.10743	0.212765	0.053709	-1.042505	1.793702	-0.576716	9.941413	-82.703937	-2.629267	-2.271189	0.219447	0.267296	-1.175091	7.956474	0.530398	-0.14674	-32.264573	8.469715	-1.930509	-0.47909	-0.635506	0.144166
-40.460262	-1.953407	6.891676	-104.916514	-239.939054	104.782461	0.140233	0.124437	-1.057838	2.371451	-0.408708	10.066924	-78.916995	1.331009	-0.348255	0.194016	0.314179	-1.191901	8.72523	1.284373	0.0505	-36.029643	6.286859	-5.115466	-0.493419	-0.649424	0.09835
-42.281756	3.080978	1.762728	-152.959983	-171.407653	123.593346	0.12537	0.117755	-1.029336	1.683815	-1.421316	10.108203	-77.12499	1.609396	2.769599	0.206476	0.327431	-1.16448	9.142185	1.051865	0.236935	-34.371977	1.673295	-10.967149	-0.479791	-0.664586	0.083729
-40.007703	10.901544	4.226802	-219.64323	-93.626598	120.144168	0.152839	0.144548	-1.036867	1.511357	-0.913971	10.161643	-70.729576	4.305539	6.131017	0.194536	0.361212	-1.209261	9.74146	1.866051	0.850469	-38.350195	-5.237854	-12.478321	-0.493975	-0.698827	0.116389
-36.413283	20.297974	12.804056	-225.465109	-23.556227	95.676881	0.122697	0.179554	-1.018264	1.455563	-0.575785	10.273998	-71.175593	-0.900936	13.755234	0.181265	0.360065	-1.194636	9.919089	2.563053	0.976551	-37.940999	-11.40306	-7.682956	-0.493904	-0.699653	0.131917
-28.05579	25.946608	18.957621	-86.22398	12.825006	61.505074	0.110077	0.176742	-1.056727	2.085456	-1.365787	10.060073	-75.520807	-6.729152	19.767122	0.206772	0.328502	-1.17883	10.097468	1.517032	0.915496	-27.478928	-16.664215	1.900781	-0.465883	-0.664382	0.083799
-22.278964	22.366772	15.701904	96.81167	25.588047	21.848594	0.108162	0.228298	-1.056314	2.037861	-2.153975	10.454678	-81.472083	-15.052772	24.396477	0.167994	0.358918	-1.18001	10.207372	1.224404	0.437205	-11.357308	-20.878329	18.673466	-0.493557	-0.666442	0.114715
-25.907771	16.441495	66.867378	-119.100008	174.639227	11.523229	0.136804	0.196478	-1.036105	1.304903	-1.982966	11.175419	-75.654729	-25.852076	31.785427	0.180901	0.403883	-1.168947	10.443666	0.178001	0.317343	-2.25772	-24.540914	35.899213	-0.521861	-0.698409	0.10072
-16.894188	-1.031311	12.070874	662.001397	201.770016	32.311976	0.150924	0.196104	-1.036454	1.7253	-2.884392	11.919437	-72.437029	-37.105155	37.749689	0.180461	0.43238	-1.142255	10.26148	-0.926769	-0.110004	-2.938484	-25.125182	41.896657	-0.520885	-0.635292	0.128428
5.535043	-13.547137	-9.197994	283.378497	226.423791	-24.707157	0.140619	0.110666	-1.054422	1.968621	-3.391324	12.490242	-70.124933	-54.497885	37.948602	0.206557	0.402961	-1.155149	9.430717	-0.867791	-0.364791	-7.738617	-22.118662	39.331576	-0.507394	-0.667473	0.130172
8.884441	27.675476	40.767522	146.201379	210.175101	-50.741724	0.240234	0.080502	-1.050035	1.879222	-2.939421	13.734275	-68.061136	-79.057653	40.388383	0.167265	0.446553	-1.128633	9.942871	2.090151	-1.001254	9.769621	-23.735942	18.366043	-0.493624	-0.684287	0.146607
-2.573891	4.487473	15.839337	472.47177	186.303442	-176.453532	0.241392	0.039189	-1.039787	1.809658	-4.007778	15.769982	-63.456174	-114.239487	52.868106	0.153918	0.430086	-1.113004	13.91084	5.105755	0.223563	18.821313	-41.456033	-48.231827	-0.479578	-0.667064	0.130313
-12.311883	13.323644	-1.759771	431.631523	173.750813	-96.5232	0.298274	0.00662	-1.020276	1.202083	-6.425614	19.43501	-62.031121	-162.667469	51.432283	0.16727	0.506763	-1.118298	15.840017	6.840366	-0.511495	-14.743159	-61.476381	-33.92991	-0.465249	-0.653147	0.176129
-11.475727	-3.47755	5.175817	-123.327978	71.234765	-69.068456	0.313967	-0.083437	-0.971979	2.113989	-9.864117	18.715145	-31.386828	-212.14846	44.984196	0.166749	0.45973	-1.100937	13.363965	7.137159	-0.376757	-17.181173	-50.312044	44.78957	-0.507111	-0.670778	0.192283
0.020914	0.020891	19.564959	67.158805	54.049949	-31.243074	0.299089	-0.07282	-0.960969	3.833723	-13.186652	23.503923	-53.691749	-260.180201	-1.878152	0.062577	0.502947	-1.073043	13.626726	4.366905	3.927974	-14.338129	-37.247275	77.618623	-0.506693	-0.638393	0.190609
1.712626	1.712654	12.501194	339.702014	42.585124	-30.589382	0.369706	-0.091992	-0.945224	2.145724	-11.043535	22.790991	-40.194424	-340.429934	-24.828618	0.04886	0.470087	-1.04206	12.179178	2.807667	5.211739	7.953817	-19.051203	29.049291	-0.479228	-0.652524	0.160531
-6.740681	0.389389	10.398956	198.790862	46.343698	-53.864889	0.342236	-0.118785	-0.937694	3.988032	-5.861813	26.004648	10.879773	-403.188225	-107.802673	0.010748	0.517967	-1.072943	10.943583	3.379014	2.256765	48.272923	-12.301719	-44.933573	-0.520672	-0.637771	0.175011
-7.748431	0.887243	5.721358	190.192756	47.850391	-16.852921	0.372378	-0.153791	-0.956296	1.869104	-6.305706	29.130148	-47.895743	-445.148464	-123.429947	-0.056424	0.464128	-0.968106	9.21038	6.386184	-1.774953	48.202519	0.247661	-81.344629	-0.506626	-0.620548	0.158716
0.651511	5.805882	2.325163	43.060516	53.133538	50.444745	0.356771	-0.167529	-0.899643	0.215126	-1.966566	27.514041	-71.58841	-526.922385	-116.831786	-0.1474	0.493171	-0.953833	9.07179	8.125026	-2.668341	20.727672	11.707023	-80.841709	-0.479015	-0.655003	0.207115
-3.661536	-5.667994	18.332744	-145.4386	-1.472526	-21.718466	0.388056	-0.226549	-0.925491	-0.090721	-2.415046	29.318875	-128.997363	-577.122399	-111.858391	-0.200635	0.457943	-0.893324	8.858545	7.782054	-1.476088	-6.287023	15.029141	-41.627906	-0.479228	-0.652524	0.160531
-2.204338	2.732009	8.337511	226.532801	25.390692	-2.478615	0.371263	-0.164376	-0.914069	2.731769	0.68052	32.43805	-131.390335	-577.650805	-106.286882	-0.305774	0.422414	-0.831712	8.508478	5.575728	-1.551992	-7.32066	5.491912	19.541698	-0.46504	-0.636954	0.175292
-1.319144	2.942011	3.866012	-7.016872	17.512085	5.886275	0.371306	-0.216274	-0.861593	7.276708	2.244539	27.156537	-78.12674	-588.153268	-104.529626	-0.360109	0.458428	-0.704472	8.467278	4.069101	-0.780731	-17.841697	-11.529071	70.658347	-0.492856	-0.637362	0.175152
-2.858613	1.430692	12.865733	-33.087922	11.389141	-4.166568	0.385798	-0.21312	-0.876018	6.085735	-3.949317	27.409132	-44.984097	-542.152381	-125.621906	-0.362401	0.404964	-0.601013	9.663973	4.128185	0.140128	-37.289846	-29.197257	69.008989	-0.451621	-0.668309	0.161509
-1.75261	2.213256	8.003129	51.081514	15.407307	1.146055	0.358314	-0.222614	-0.88598	5.291653	3.378539	31.305295	22.309444	-516.964654	-102.140722	-0.429197	0.427726	-0.501194	12.248714	4.061448	-0.470675	-33.804379	-42.69383	32.73734	-0.49286	-0.618691	0.127731
-2.06933	2.104411	9.360439	-24.017156	14.323612	-1.752838	0.370906	-0.185203	-0.882501	-4.392918	-3.648096	27.132707	100.318121	-487.447407	-47.905943	-0.44358	0.377403	-0.440508	13.615854	4.118644	0.094044	-16.586804	-41.065468	-0.558928	-0.464623	-0.604569	0.173618
-2.055347	1.245683	10.039057	-0.795152	20.295391	1.497519	0.371278	-0.181675	-0.896577	-8.25549	-1.394807	18.901132	75.617846	-469.802473	-43.435346	-0.471604	0.30954	-0.349844	13.089536	4.411475	0.384911	0.46975	-30.61739	-14.39248	-0.492715	-0.639015	0.206207
-1.965174	2.56169	8.852919	-2.482511	22.519626	5.218605	0.344951	-0.232482	-0.896291	-17.581528	-7.025035	1.999117	1.567377	-402.950157	-40.026845	-0.472929	0.334821	-0.280102	11.579191	4.478501	1.674498	14.706109	-18.118195	-11.569955	-0.478736	-0.639637	0.221805
-2.237463	1.703169	9.525969	-19.591394	21.862886	4.643833	0.398776	-0.189481	-0.869123	-6.758772	-9.761177	-11.476623	-173.04978	-294.986427	-54.200416	-0.474556	0.298821	-0.206346	11.008142	4.309826	2.681169	24.859628	-5.787086	0.283971	-0.479224	-0.671196	0.207952
-2.577608	1.6467	9.689606	-13.864673	21.904243	3.340001	0.330431	-0.201037	-0.916849	-10.390233	0.012629	13.365964	-304.132423	-9.237254	-101.555274	-0.463131	0.278216	-0.13387	10.600666	4.253931	2.972753	30.494269	3.080331	8.41238	-0.465107	-0.654799	0.207185
-2.471924	1.529804	9.236526	-12.608657	22.037198	2.970538	0.44038	-0.180362	-0.859511	-14.8927	1.428919	12.819738	-206.027783	107.598573	-92.146687	-0.488788	0.279138	-0.147668	10.242863	4.428228	2.787172	39.830081	10.246067	7.8859	-0.507111	-0.670778	0.192283
-2.510415	1.763713	10.20288	-21.22848	21.32825	2.339808	0.400662	-0.206438	-0.90452	-10.871916	3.73312	15.397239	-120.705514	195.763664	-67.251144	-0.450005	0.308932	-0.136153	10.061662	3.846636	2.481864	48.717208	17.971302	3.415598	-0.450503	-0.606844	0.220272
-2.873611	1.242645	9.170672	-16.563023	22.583337	1.978769	0.386913	-0.202535	-0.918246	-6.980108	3.163921	17.063671	-9.48633	229.210366	-63.40726	-0.448899	0.297899	-0.192548	9.405747	3.904714	2.110565	55.318796	21.376023	-1.117337	-0.450778	-0.640881	0.253001
-2.23346	0.784828	9.692667	-25.114884	23.138046	1.061701	0.428503	-0.176117	-0.926126	-6.113942	2.537996	11.759578	95.068043	239.874769	-63.432723	-0.436149	0.252013	-0.189813	9.448952	4.075346	1.27371	56.974001	24.32362	-1.595834	-0.491951	-0.573419	0.187331
-2.568244	1.016773	10.141776	-21.359466	25.018841	2.062827	0.38577	-0.178521	-0.911002	-4.645467	0.616339	7.599276	142.76149	251.380129	-63.588019	-0.422143	0.225734	-0.24548	9.865326	3.145432	1.337365	60.013376	27.628163	2.350579	-0.436457	-0.589621	0.203977
-2.763473	1.126714	8.945004	-21.177931	25.183077	1.20628	0.427017	-0.19023	-0.869822	-2.863863	-0.628848	4.691658	152.440537	252.809578	-62.086431	-0.433862	0.245267	-0.303607	9.922006	3.202878	1.218898	63.312517	32.026889	7.085632	-0.492226	-0.607456	0.220061
-2.585319	1.530128	9.291152	-24.618978	24.376446	0.467047	0.38577	-0.178521	-0.911002	-3.540301	-1.418044	2.582031	131.697041	252.94723	-62.502473	-0.419711	0.18942	-0.371617	10.560314	3.140845	0.631687	66.758574	35.598386	6.078049	-0.478389	-0.606426	0.204603
-2.865941	1.416658	9.569367	-30.547005	23.757545	-1.58071	0.427745	-0.165874	-0.915465	-5.341514	-0.908345	1.808667	86.445363	256.980612	-55.378281	-0.420082	0.173028	-0.356264	10.974393	3.198223	0.699544	66.316889	37.541089	1.485808	-0.478181	-0.590233	0.203766
-2.741986	0.671765	10.023282	-31.985206	24.776346	-2.572066	0.399519	-0.182424	-0.897275	-6.174512	0.221163	3.320751	42.634878	269.105678	-37.537457	-0.419347	0.145602	-0.397306	10.025827	2.211607	0.318293	63.93095	39.230794	-2.975769	-0.548138	-0.623639	0.205089
-2.633376	1.130008	9.743174	-28.480194	26.796627	-3.132016	0.427745	-0.165874	-0.915465	-6.450953	1.463879	6.656277	14.332535	289.806542	-13.925908	-0.366482	0.164439	-0.442461	9.32055	2.853053	0.547435	57.008702	37.64868	-3.248778	-0.533115	-0.543299	0.216502
-2.641253	1.243203	9.345685	-21.801411	27.025747	-4.34359	0.413625	-0.165499	-0.915116	-6.448076	1.466358	9.487049	17.292807	316.286104	14.578808	-0.365006	0.169798	-0.51421	9.306804	3.08239	-0.170459	55.236632	36.616818	1.255269	-0.506272	-0.624679	0.236356
-2.644428	1.012713	9.17416	-22.614493	25.62902	-6.173418	0.428503	-0.176117	-0.926126	-4.437231	1.239458	12.020104	42.482183	337.088662	41.165838	-0.352331	0.108591	-0.510471	8.367873	2.214152	-0.012054	50.710919	33.076656	7.737548	-0.506138	-0.588989	0.17257
-2.869856	0.668953	9.338818	-26.968155	25.893257	-6.861982	0.399147	-0.185952	-0.883199	-2.590911	-0.341198	12.114101	71.458065	349.060989	58.728077	-0.311261	0.13164	-0.61275	7.598192	2.331565	-0.145679	46.551056	29.142374	14.006755	-0.505717	-0.575275	0.218317
-2.975333	0.498642	9.790692	-18.057957	27.90812	-4.738716	0.385398	-0.18205	-0.896926	-0.540901	-1.303645	11.024024	86.314925	352.674707	68.364805	-0.246237	0.102446	-0.626471	7.759159	2.618079	-0.979838	44.684269	25.81661	21.396084	-0.491671	-0.558052	0.202022
-2.685928	0.786366	9.968025	-10.873724	32.481366	-1.280858	0.412096	-0.127715	-0.911288	1.250163	-2.827768	11.230138	85.448927	348.22233	73.807916	-0.271818	0.118689	-0.641273	7.537805	2.447605	-0.206192	42.533837	23.46417	26.275523	-0.505859	-0.573623	0.187261
-2.854309	0.729772	10.135002	-12.920053	36.367927	2.038999	0.454843	-0.142609	-0.90892	2.981506	-3.225173	11.435992	73.685599	340.810401	70.79549	-0.231785	0.107881	-0.698496	8.008544	2.097574	-0.318685	39.15112	20.573771	26.546125	-0.519629	-0.556808	0.170826
-3.541321	0.672828	10.121399	-3.18918	41.632706	5.163293	0.454486	-0.163437	-0.877352	4.026469	-3.395773	11.854088	55.434113	337.487014	61.621358	-0.166384	0.155289	-0.717235	7.829294	2.097485	-0.441801	36.224284	17.104541	20.826374	-0.50565	-0.55743	0.186424
-3.019184	0.444136	10.471574	4.380163	46.463314	5.036023	0.483856	-0.170901	-0.902786	5.084383	-4.016542	12.8382	36.105233	336.765409	50.221772	-0.165573	0.143184	-0.759281	7.528556	1.690144	-0.808475	34.422101	12.73907	13.425939	-0.505441	-0.541238	0.185587
-3.74766	1.654566	11.314962	-1.717175	54.044935	8.734143	0.441123	-0.173305	-0.887663	5.943488	-4.015965	15.347267	26.827343	339.569451	38.557363	-0.126206	0.114912	-0.7868	7.365138	1.984143	-0.03175	31.579568	8.820296	6.852819	-0.51914	-0.52525	0.184679
-3.729637	1.371219	12.223405	1.470931	65.463672	13.84778	0.454843	-0.142609	-0.90892	6.611895	-3.452422	17.060227	32.054768	344.106538	28.617807	-0.087278	0.115138	-0.787627	7.541221	1.925415	-0.088603	28.170739	5.203848	3.398112	-0.546748	-0.509465	0.183702
-4.128097	1.87662	9.433095	8.987192	78.91569	17.509963	0.456372	-0.180394	-0.912748	7.035403	-3.452371	18.031563	41.69434	346.313627	23.252362	-0.073931	0.131605	-0.803256	7.058918	2.040422	-0.636074	26.534753	1.378737	2.9944	-0.504677	-0.475642	0.166711
-3.015316	2.800446	10.765733	0.357281	78.494657	21.299674	0.439594	-0.13552	-0.883834	7.730007	-4.185866	18.158732	51.328337	343.601374	21.506638	-0.008606	0.163693	-0.820992	7.186719	2.100453	-0.094464	26.945852	-1.871645	3.925336	-0.490832	-0.511954	0.246094
-3.033748	2.107046	9.796335	2.00119	81.413266	13.890865	0.483485	-0.174429	-0.88871	8.609396	-4.91921	18.855925	59.328676	339.241663	25.230837	0.031723	0.153957	-0.892564	7.173534	2.562342	-0.751462	26.066061	-4.824202	5.195737	-0.519487	-0.558461	0.201881
-3.445788	2.277248	9.220733	3.677959	83.324217	8.642576	0.483113	-0.177957	-0.874634	7.892129	-5.367268	20.25582	69.453384	334.818095	33.488152	0.057304	0.137715	-0.877762	7.657053	1.92465	-0.206216	27.046043	-9.033517	4.417613	-0.532076	-0.443665	0.164896
-3.563472	2.046841	9.046982	-10.250211	83.643089	4.639844	0.538809	-0.134614	-0.900355	8.025824	-5.592094	21.107642	72.380899	327.967883	43.226337	0.071015	0.110364	-0.91908	8.2509	1.284958	-0.078117	28.529509	-11.428427	2.86492	-0.546677	-0.510292	0.19923
-4.015442	1.359081	9.319444	-18.761976	85.642062	3.71549	0.524717	-0.168838	-0.865022	8.843889	-6.888825	21.576593	68.673175	318.984875	52.660641	0.110904	0.129126	-0.96396	8.081575	1.751949	0.399814	27.528834	-12.895749	2.447658	-0.518932	-0.509057	0.183842
-4.185144	1.589454	9.430775	-16.224455	87.268679	-0.497502	0.539967	-0.175927	-0.890107	10.58816	-8.356083	22.291302	61.219497	306.433216	57.555117	0.18832	0.158073	-0.938922	8.489861	1.459388	0.106747	30.382958	-14.939487	2.90553	-0.51907	-0.526076	0.200207
-3.963056	1.932489	9.095558	-16.458398	89.581689	-1.348598	0.567451	-0.166434	-0.880145	12.874776	-10.107399	21.431955	43.814819	290.339146	55.777528	0.254085	0.161664	-0.98335	8.84863	1.343415	0.352483	31.68615	-16.005665	5.901167	-0.532143	-0.46151	0.196789
-4.302704	1.186722	9.256299	-20.326041	89.955254	-3.355505	0.567865	-0.214803	-0.841746	14.330306	-11.970863	19.366156	12.246766	274.696012	46.254429	0.332016	0.177434	-0.986008	8.619148	0.880583	0.645637	32.202025	-16.822765	11.160372	-0.532213	-0.460684	0.181261
-4.87096	1.417868	9.473542	-18.443898	91.461301	-2.631061	0.581585	-0.184107	-0.863003	16.650896	-12.765522	17.489311	-30.977292	260.44531	30.354176	0.357673	0.176513	-0.97221	8.440033	0.822417	0.522275	33.47514	-18.263009	14.830563	-0.504394	-0.478947	0.228822
-4.759501	1.01497	9.303521	-18.087236	94.222503	-2.12717	0.59572	-0.201781	-0.84586	19.657435	-13.561663	15.400415	-82.720704	246.519523	4.215712	0.382965	0.219408	-0.932723	8.962105	0.935376	0.053418	33.055311	-18.442392	17.247717	-0.518443	-0.477498	0.197696
-4.646106	1.014646	9.248894	-14.28969	98.322039	-1.734096	0.581214	-0.187636	-0.848927	20.210917	-12.326613	11.789821	-147.454435	234.835588	-24.868848	0.435824	0.178035	-0.988214	8.667139	0.41312	-0.014216	31.587403	-18.129548	19.024444	-0.504882	-0.510505	0.214968
-4.655635	1.874339	8.797689	-11.747983	98.340514	-2.323809	0.606797	-0.143886	-0.821061	20.049057	-10.018506	9.806962	-213.024329	226.869507	-52.928959	0.461411	0.222002	-0.963077	9.600508	-0.114444	-0.65781	28.697284	-14.706823	21.250022	-0.518093	-0.462958	0.227915
-4.774515	1.758574	8.567567	-10.378098	98.812128	-5.417617	0.608698	-0.178142	-0.838965	21.283708	-4.391015	6.157935	-268.203658	223.081274	-76.961341	0.460676	0.249428	-0.922035	9.78582	0.119433	-0.174264	27.628758	-11.471325	18.548485	-0.51844	-0.49617	0.245117
-5.01141	1.871934	8.165624	-14.656479	100.127166	-12.03921	0.636939	-0.178891	-0.839664	16.809433	10.532524	-8.0198	-348.044902	194.197875	-85.604419	0.460901	0.295389	-0.925046	9.436145	0.586087	0.120645	21.000983	-5.848426	10.812334	-0.518026	-0.445113	0.196022
-4.753898	2.509898	9.650913	-21.300567	101.540717	-20.186229	0.64953	-0.141481	-0.836184	23.174314	19.777412	13.352345	-567.211674	201.22851	-1.495417	0.499094	0.323039	-0.884831	10.366253	0.987492	-0.5789	13.478105	0.142705	-3.248364	-0.531721	-0.447796	0.242535
-5.306643	1.308141	10.601213	-33.730692	108.072222	-26.85348	0.663679	-0.176454	-0.80155	39.594733	12.329996	35.260642	-321.263723	198.524872	-34.833723	0.537067	0.364938	-0.83127	10.706179	0.925392	-1.351334	0.745363	3.909349	-13.977621	-0.517609	-0.412728	0.194348
-5.305731	0.044427	10.595904	-20.12779	115.831439	-25.508873	0.721662	-0.181139	-0.841759	43.493802	6.899732	17.957191	79.080967	140.842532	-92.233911	0.576	0.425373	-0.821762	10.711411	1.04278	-1.051305	-6.924278	6.009495	-15.610069	-0.518097	-0.444287	0.180494
-5.996041	-0.070682	10.411501	-15.892237	124.479754	-22.43588	0.678186	-0.1906	-0.798483	39.154806	-1.10203	5.347272	210.019984	62.719307	-187.860368	0.537512	0.396651	-0.847627	10.398993	0.923348	-2.015812	-7.759635	6.60529	-11.392665	-0.490139	-0.445531	0.21169
-6.108655	0.389415	10.52491	-18.98975	132.739596	-20.636355	0.6763	-0.173643	-0.763087	33.491971	-7.343099	6.355118	262.264571	-10.346207	-268.044852	0.576371	0.441765	-0.837116	10.816758	0.342384	-1.83086	-13.047556	6.591817	-3.030266	-0.518026	-0.445113	0.196022
-6.402224	-0.301365	10.118476	-9.267337	141.661768	-17.850823	0.719033	-0.171238	-0.778211	23.701686	-7.043266	5.979922	285.50952	-50.027393	-312.509805	0.537883	0.413043	-0.862981	10.580943	-0.238084	-1.897641	-18.688421	5.516858	4.330423	-0.55947	-0.43036	0.210502
-6.584957	-0.533419	9.545639	-9.865964	150.042414	-12.192081	0.761009	-0.158591	-0.782674	10.399068	-9.213255	7.963189	262.023483	-44.483243	-300.73533	0.486049	0.367854	-0.873217	9.786725	-1.21681	-0.299764	-18.401401	1.646274	6.028884	-0.573449	-0.429737	0.194904
-7.091955	-1.220656	9.930693	-10.242316	159.058316	-5.603763	0.718304	-0.195594	-0.732567	-13.013121	28.099303	46.681398	297.055337	-263.884042	-266.005196	0.486639	0.369997	-0.901916	8.729376	-1.445695	-0.080934	-16.071152	-4.885323	-9.321309	-0.559541	-0.429533	0.194974
-7.022328	-1.390368	10.556467	-15.084985	168.372076	2.65805	0.774772	-0.179793	-0.751456	-19.732021	-19.596333	-13.626034	332.848717	-199.703578	132.105047	0.409443	0.326801	-0.9403	8.339703	-0.161144	1.354568	-14.293796	-10.870437	-36.281283	-0.531867	-0.427473	0.164059
-8.04705	-1.790506	10.819	-13.147787	181.989564	13.331195	0.814861	-0.150189	-0.720523	-46.075367	-18.402865	5.806551	98.284903	-158.920762	81.074085	0.447775	0.264673	-0.922763	7.975648	1.754939	1.056589	-15.225766	-13.453995	-61.836669	-0.545984	-0.443869	0.164826
-7.525007	-2.523826	14.065397	-29.003314	200.575116	20.026706	0.829768	-0.195405	-0.696549	10.669969	32.776224	35.237332	-11.129338	-275.983244	149.664977	0.356648	0.263076	-0.906483	7.778987	3.087384	0.160371	-22.565162	-11.986987	-64.260894	-0.546188	-0.478733	0.213083
-8.776406	-3.715153	17.332199	-24.536101	232.595259	36.295265	0.830168	-0.226475	-0.675641	12.659615	5.430184	10.061692	80.86238	-383.760686	258.80108	0.370654	0.236798	-0.962151	9.277038	4.993213	-1.540159	-22.378237	2.622434	-51.317498	-0.54633	-0.47708	0.182028
-9.403574	-4.908141	20.326983	-21.885196	273.139975	52.430252	0.858409	-0.227224	-0.676339	18.058946	9.70103	10.009015	21.315545	-364.136367	106.940695	0.31801	0.203713	-0.930341	10.630451	5.556887	-4.866062	-8.667886	34.082378	-47.85111	-0.518239	-0.442635	0.149438
-7.961545	-4.89442	23.821746	-21.30063	323.379774	73.019117	0.870672	-0.24524	-0.606309	14.344826	2.216598	10.547165	-39.127875	-302.300203	-47.044739	0.278642	0.231985	-0.902821	13.318358	5.254115	-6.31435	-10.901145	73.670709	-51.178552	-0.532426	-0.458205	0.134677
-7.657111	-1.373764	27.820636	13.111381	367.656681	85.656469	0.911176	-0.264006	-0.536977	3.111733	2.638749	18.067758	-10.379532	-227.792535	-203.373554	0.227109	0.248077	-0.917072	12.488986	5.662043	-6.44784	-40.256508	103.120277	-38.503091	-0.519077	-0.488733	0.105366
-7.723118	1.496907	27.490469	71.075237	395.763284	85.425834	0.939803	-0.278526	-0.534259	4.088299	-18.312591	24.184118	-6.410357	-167.385724	-62.724982	0.201081	0.232606	-0.915517	10.869992	6.428724	-4.558417	-70.975602	108.3767	-9.846136	-0.561081	-0.504712	0.090465
-10.122066	3.440762	24.894632	127.029529	405.762004	68.169342	0.97955	-0.287048	-0.454267	5.44469	-20.224449	30.948005	190.548163	-31.702496	74.149643	0.162669	0.219205	-0.942385	8.845859	7.081928	-2.257844	-95.226407	85.460344	1.872855	-0.532985	-0.488937	0.105296
-14.516462	4.468692	22.653933	174.134625	409.382479	57.700089	0.923096	-0.320149	-0.417887	-0.81716	11.414804	-3.463788	398.782595	-44.04458	11.700784	0.174169	0.21392	-0.870912	7.699609	6.162582	-0.546509	-108.008336	60.928661	-0.531104	-0.533611	-0.537515	0.107807
-15.264079	3.791554	25.364397	189.994801	393.920839	36.707786	0.991455	-0.325892	-0.352669	1.252743	11.5751	-8.911748	-66.815241	-38.217225	-25.39356	0.174383	0.139462	-0.894594	7.02829	6.404912	1.478109	-85.264631	50.00336	-13.213716	-0.561151	-0.503886	0.074937
-11.125182	3.964513	26.298088	271.058585	393.762344	26.997008	1.004104	-0.357679	-0.279222	3.908234	-8.627712	19.32006	-99.598207	4.350107	13.661273	0.136121	0.156701	-0.92347	7.045783	6.931799	2.498751	-52.397483	31.966907	-41.755612	-0.547244	-0.503682	0.075007
-7.830779	-3.639515	21.783684	311.476948	387.796775	6.697912	1.017496	-0.38241	-0.233928	1.806094	2.181807	8.075839	77.222536	-17.273215	-12.769514	0.161482	0.154707	-0.895322	8.49702	8.040409	4.566694	-29.603916	10.908581	-65.322129	-0.547873	-0.533588	0.030098
-4.213018	-2.445787	19.529038	280.021588	381.180403	-7.273011	1.00116	-0.420504	-0.131631	1.947147	-1.645789	11.642118	-7.683839	-2.101649	-3.00712	0.174898	0.126285	-0.92229	10.651313	8.042223	6.223796	-23.927668	-3.543298	-38.297907	-0.53445	-0.583614	0.063735
1.271177	-8.292257	10.006729	246.541511	335.633112	-12.886334	0.985197	-0.455071	-0.043411	1.700611	1.562718	8.469377	23.041787	-5.749119	-9.245864	0.149172	0.172096	-0.924749	12.140111	6.066241	6.722156	-24.943635	-6.962367	22.874631	-0.589735	-0.551219	0.046252
16.14299	-9.045331	-2.153033	171.31408	242.006462	-23.026368	1.01158	-0.473461	0.026271	1.268407	0.663336	9.705018	3.980433	-3.084885	-3.500758	0.174383	0.139462	-0.894594	12.358488	4.202323	5.520509	-15.152509	-10.704339	53.918441	-0.561781	-0.533792	0.030028
18.158049	-16.070556	-19.363065	182.809647	77.067671	-3.107316	0.982196	-0.448699	0.034214	1.778249	0.549373	9.319326	-0.024502	-2.103482	-1.921998	0.148802	0.155704	-0.909396	11.548745	3.555353	3.107207	0.415117	-7.573101	43.359942	-0.561781	-0.533792	0.030028
2.986017	-0.977778	1.432692	-250.657569	-27.123739	-28.090027	0.967704	-0.451852	0.048639	1.855695	0.268371	10.226532	8.724789	-1.357844	-0.489455	0.187585	0.185498	-0.89788	12.548601	3.887534	-0.226287	-0.414056	-1.876384	24.565046	-0.575898	-0.550188	0.030795
7.057165	1.942909	13.629069	-155.642933	-174.861631	-28.217858	0.940206	-0.444047	0.021185	1.681706	0.944661	10.223474	-0.664494	-1.120895	1.324206	0.148211	0.15356	-0.880696	12.932408	3.705685	-1.836812	-7.183338	6.983816	14.337686	-0.589526	-0.535026	0.045415
6.246825	0.218072	13.094563	-23.221005	-262.366949	-16.248235	1.040178	-0.453383	-0.005995	1.910735	0.324499	10.114509	-2.040649	-2.542906	0.414942	0.149242	0.127207	-0.936088	12.156279	4.228394	-2.268241	-17.60664	8.006282	12.444894	-0.548433	-0.56432	0.000716
3.379324	-0.872452	12.750039	12.716626	-304.874941	-5.877926	0.968804	-0.423968	-0.011081	1.55973	0.099586	9.823868	-3.166261	-3.629102	0.218268	0.174904	0.186495	-0.911954	11.272137	4.230667	-2.224841	-24.385885	2.790059	20.564013	-0.561781	-0.533792	0.030028
1.937958	-1.805238	9.251415	66.06588	-321.408147	13.817804	1.042407	-0.432213	-0.090451	1.628067	0.156236	10.33488	-3.813253	-3.484811	0.342494	0.148501	0.094422	-0.905381	10.869718	3.420525	-1.75675	-30.31073	-6.038337	32.243966	-0.561852	-0.532966	0.0145
2.054234	-4.530005	3.388659	51.021011	-311.575507	36.0983	0.943935	-0.426063	-0.102083	1.869747	-0.125421	10.849235	-2.074616	-2.645157	1.924479	0.148651	0.125063	-0.907388	10.052721	3.715021	-1.231758	-32.537294	-17.530419	30.717226	-0.575622	-0.516151	-0.001935
1.327675	-5.342374	1.325208	-38.004621	-300.198192	49.263069	0.973677	-0.429998	-0.141593	1.36994	1.451273	9.141704	6.083885	-4.836778	1.231031	0.149027	0.201665	-0.912407	10.531703	3.134417	-0.925892	-29.729837	-24.708808	19.002847	-0.58953	-0.516355	-0.002006
1.106928	-3.547004	4.738306	-126.140324	-298.409085	58.926933	1.029744	-0.383127	-0.181389	1.660832	1.112846	9.260743	-3.492739	-4.812408	2.364211	0.135235	0.153485	-0.88042	10.407628	3.365755	-1.226639	-28.994065	-29.48902	8.324825	-0.575969	-0.549362	0.015267
1.765573	-0.943491	9.251694	-154.577379	-296.707357	70.869516	0.975134	-0.381286	-0.23288	1.661479	0.774863	9.260459	-7.674455	-5.695316	2.66035	0.20063	0.140684	-0.909495	10.648229	3.308128	-0.982856	-35.586801	-31.077154	5.849989	-0.547807	-0.515743	-0.001795
2.899671	1.306316	11.726945	-122.353445	-303.975123	79.058193	0.9629	-0.397869	-0.267927	1.956751	0.042264	9.549085	-9.779192	-6.057083	2.315949	0.161332	0.124066	-0.893314	9.594027	2.673205	-0.645943	-39.16998	-32.749494	12.564715	-0.533686	-0.518017	0.044859
3.172042	2.049953	11.053412	-60.709819	-319.894665	83.343221	0.936159	-0.400306	-0.306041	1.899963	0.267742	9.604705	-11.245244	-7.379659	0.08199	0.13575	0.140309	-0.908116	9.367056	3.024426	-0.109699	-37.965702	-31.034879	21.661151	-0.547944	-0.532761	0.01457
2.219024	0.7787	9.097282	-28.793399	-338.141529	82.495617	0.952495	-0.362211	-0.408338	1.332879	0.212821	9.989046	-11.621888	-8.073787	-2.360628	0.136196	0.172021	-0.924473	8.897087	2.09629	-0.122458	-37.426034	-28.327505	26.20101	-0.561923	-0.532139	-0.001028
1.392474	-0.087891	7.770453	-32.596166	-346.031688	79.190642	0.939517	-0.38585	-0.415233	1.740326	-0.238436	10.167047	-11.690779	-8.741585	-3.538784	0.12307	0.141306	-0.92219	8.077194	2.215816	0.222072	-39.077666	-25.223021	24.113479	-0.547247	-0.48501	0.027587
1.162342	-0.087967	7.709146	-64.148235	-343.340523	73.255578	0.897884	-0.360371	-0.459829	2.138471	0.380303	10.006113	-11.474945	-8.884324	-4.742316	0.161998	0.141531	-0.923018	7.783193	1.751883	0.214591	-40.158539	-21.094457	17.831244	-0.547598	-0.49955	-0.002632
0.557496	-0.71406	8.945011	-101.706494	-336.914891	63.964688	0.857023	-0.362433	-0.497593	1.73683	0.324775	10.054243	-12.12407	-9.037435	-6.039126	0.161633	0.185348	-0.897329	7.77576	1.634	-0.205251	-39.631702	-16.285863	11.417993	-0.589877	-0.549566	0.015196
0.14239	-0.015022	11.156269	-126.356434	-329.186023	53.58426	0.844417	-0.382544	-0.518564	1.388889	-0.238026	9.876596	-11.415892	-9.298782	-6.90433	0.122774	0.140234	-0.907841	8.017077	2.215704	0.161064	-39.446433	-11.939367	5.222464	-0.561923	-0.532139	-0.001028
-0.460194	0.853089	12.568968	-138.305535	-324.677607	41.97998	0.774172	-0.359843	-0.548386	1.60687	0.493413	9.372292	-11.970807	-9.270945	-7.551881	0.135681	0.185198	-0.896777	7.075695	1.927979	0.262035	-38.102714	-8.557271	-1.950353	-0.589042	-0.484796	0.011848
-0.427245	1.492183	14.277215	-139.961554	-324.35157	26.168613	0.773729	-0.276875	-0.621769	2.124289	0.210743	9.326295	-13.911902	-8.952872	-8.382625	0.149172	0.172096	-0.924749	7.140483	1.812928	0.562175	-38.400343	-3.859468	-6.769899	-0.57604	-0.548536	-0.000261
-1.498667	1.89868	15.110544	-133.29793	-325.172176	6.326578	0.719104	-0.257735	-0.690752	2.130009	0.379971	9.609635	-15.673561	-9.09285	-9.156123	0.135455	0.139237	-0.893767	7.141449	1.871251	0.622329	-38.804143	0.153404	-7.490493	-0.547807	-0.515743	-0.001795
-1.193672	2.189782	16.083821	-119.484455	-323.463197	-16.533722	0.719876	-0.285277	-0.68392	2.181423	0.435957	9.327694	-19.097322	-8.734273	-9.67938	0.135901	0.17095	-0.910124	6.847178	1.52347	0.615344	-36.401777	3.33666	-6.872602	-0.562199	-0.566177	0.031702
-1.195568	1.729767	15.968184	-112.496043	-318.31962	-41.100928	0.662593	-0.221638	-0.724339	1.77363	0.436522	9.092673	-23.098695	-7.58924	-9.671214	0.148877	0.171025	-0.910399	7.079131	1.870644	0.441508	-32.981442	7.174552	-7.086671	-0.603785	-0.54977	0.015126
-1.991065	1.042255	16.233965	-112.697469	-311.12928	-64.574707	0.636624	-0.251617	-0.755621	1.904475	0.436923	9.831406	-30.491433	-5.875822	-9.382677	0.122554	0.154482	-0.894494	6.846213	1.465147	0.55519	-30.279191	11.120355	-9.101746	-0.561986	-0.568656	0.078285
-2.654895	-0.273578	17.352115	-120.09364	-308.370477	-85.586969	0.635824	-0.189476	-0.797436	2.300049	-0.127469	9.442917	-32.09014	-5.310533	-9.840755	0.148952	0.186345	-0.911403	7.554251	1.056747	0.506757	-25.509214	13.948493	-14.72499	-0.604482	-0.597522	0.00211
-3.319471	-0.555463	18.474608	-126.694027	-314.03956	-101.248076	0.579328	-0.170679	-0.813531	1.955088	-0.352144	9.435473	-33.937952	-4.872856	-10.022855	0.123145	0.156626	-0.923194	7.253553	1.579117	0.263853	-21.505665	13.595262	-20.605046	-0.576457	-0.580921	0.001413
-3.812818	-1.641895	19.540211	-139.196835	-325.622411	-110.790566	0.578542	-0.125837	-0.837854	2.130764	-0.014342	9.609304	-33.564363	-4.595783	-9.464905	0.161998	0.141531	-0.923018	7.959411	1.635079	0.157491	-19.153364	11.626685	-21.704249	-0.548846	-0.615376	0.049811
-5.267288	-1.116365	21.275877	-147.778342	-340.184181	-116.64912	0.522774	-0.082684	-0.899593	1.720014	0.26778	9.261241	-37.537636	-3.520976	-8.039346	0.13531	0.168806	-0.881424	8.079354	1.2866	0.218116	-18.812592	9.920385	-13.354846	-0.576319	-0.563902	-0.014952
-6.948667	-1.969025	23.058152	-159.763467	-347.172926	-118.661577	0.423902	-0.045463	-0.932132	1.889084	0.267315	9.094949	-42.444581	-2.979248	-6.619836	0.148877	0.171025	-0.910399	8.142617	0.880674	0.397206	-14.639133	7.402228	-2.08094	-0.590294	-0.581951	0.016871
-10.04483	-2.644705	25.66611	-171.741171	-345.242544	-117.368173	0.426159	-0.058892	-0.981604	1.893811	0.323835	9.321554	-51.362494	-2.026887	-5.446086	0.12256	0.214692	-0.884159	7.854523	0.243749	0.688519	-9.996267	5.307418	9.832133	-0.548295	-0.547301	-0.015649
-15.977684	-1.716505	26.69123	-170.805077	-335.928321	-105.128376	0.381897	-0.023512	-0.962652	1.884356	0.210795	8.868343	-61.186779	-1.910638	-4.774622	0.161488	0.214917	-0.884986	7.736181	-0.56954	0.563043	-7.97692	3.453689	15.274405	-0.5629	-0.595257	-0.028735
-24.116296	-1.667454	23.180136	-161.666856	-330.619818	-83.742186	0.297917	-0.014208	-0.988709	2.388501	0.547286	8.256472	-77.558117	-1.422741	-3.303203	0.123075	0.201515	-0.911855	7.495309	-0.39576	0.319756	-4.875457	1.377525	15.976114	-0.590507	-0.579473	-0.029713
-39.306034	-3.900792	21.909148	-139.069995	-326.314909	-47.105432	0.282625	0.04478	-1.016099	2.512825	-0.466594	8.597874	-95.88144	1.1281	-2.244427	0.161708	0.200669	-0.898333	7.618959	-0.917726	0.559359	-5.955099	0.067217	12.165489	-0.604832	-0.612062	-0.028109
-53.733776	-5.593671	12.812662	-61.670714	-277.264484	36.151595	0.197115	0.091868	-1.038327	2.228385	-0.972935	8.704682	-111.357091	6.423669	-2.789946	0.135906	0.231159	-0.899788	7.154168	0.189024	1.094415	-4.659943	-4.098992	1.391402	-0.590156	-0.564933	0.000506
-66.515766	-0.549099	-5.486771	-34.056409	-168.472528	138.467876	0.125041	0.062329	-0.962785	1.798838	-1.365201	10.110668	-118.953064	16.686089	-2.1391	0.148813	0.276124	-0.888725	7.686609	1.524546	1.349633	3.99051	-8.588228	-17.016203	-0.561994	-0.531313	-0.016556
-57.904622	4.365514	-9.788162	-218.050895	-66.709129	130.352313	0.139876	0.103609	-1.02627	1.42463	-2.490014	11.347329	-101.346614	23.575547	0.53313	0.148512	0.214842	-0.884711	8.065264	3.084731	-0.313382	4.841341	-12.579741	-35.945206	-0.548641	-0.580513	0.001553
-46.971636	17.427974	11.279487	-437.713572	11.456189	149.656739	0.139504	0.100081	-1.012194	1.054419	-2.544309	12.868088	-68.565411	11.319179	2.102332	0.135912	0.291369	-0.889453	9.577621	4.993774	-1.235122	-6.724579	-15.03948	-38.671986	-0.604415	-0.579677	-0.029783
-34.883771	28.718426	21.109709	-209.046596	41.326118	161.894371	0.096714	0.166874	-1.067037	2.074535	-2.997557	12.096515	-19.974126	-3.272901	6.928859	0.161638	0.245558	-0.886994	11.564187	4.113098	-2.399554	-10.02383	-13.267891	-18.868308	-0.5492	-0.611245	-0.027828
-24.456344	29.012125	24.609936	23.955609	24.194692	130.979533	0.151682	0.185861	-1.047114	1.603371	-2.4901	11.634153	5.399239	-9.373013	9.015791	0.095879	0.302177	-0.832231	12.552494	1.55076	-3.529955	-1.860155	-9.780112	25.280531	-0.604411	-0.598348	0.017638
-23.965486	17.836165	17.070763	271.404288	8.311704	96.205455	0.136432	0.19295	-1.022029	2.059836	-2.265782	11.474096	26.314744	-18.533464	10.852918	0.121975	0.272758	-0.845125	12.786237	-1.239407	-4.016676	-4.261991	-3.403174	61.488364	-0.590853	-0.612684	-0.012511
-16.811226	5.371336	4.882012	386.361912	11.357994	48.224893	0.139847	0.138208	-1.061253	1.841317	-2.715569	11.978637	41.316079	-29.095633	9.126055	0.135837	0.276049	-0.88845	10.984321	-2.681683	-2.739019	-20.953895	-2.601959	58.120343	-0.56227	-0.565351	0.016174
-9.741388	-13.291547	-6.027406	361.625636	21.257801	-5.480848	0.195229	0.108826	-1.002931	2.239547	-2.772843	11.760494	60.580264	-39.683297	5.398532	0.148813	0.276124	-0.888725	8.118556	-2.03005	-1.292548	-31.549566	-5.448813	19.162039	-0.577016	-0.611653	-0.027968
-0.086406	-13.220762	-1.065552	322.619436	247.694521	108.52969	0.168903	0.058019	-1.002645	1.945568	-2.716211	11.471298	70.235852	-47.83688	4.677851	0.148888	0.291444	-0.889729	6.583791	-0.457745	-1.134764	-13.524074	-12.442289	-23.015427	-0.590365	-0.581125	0.001343
38.499936	-39.844184	13.041587	-157.385592	134.091274	-117.74982	0.225785	0.02545	-0.983134	2.32761	-4.180123	13.063228	68.828494	-57.192659	-2.630072	0.109219	0.258434	-0.858195	7.388522	4.997534	-1.575373	5.215635	-22.951411	-65.042282	-0.576666	-0.597113	0.00225
4.6028	32.869055	59.062354	494.923088	236.512384	-250.994732	0.21125	0.074194	-1.021184	2.560356	-5.868133	15.727493	60.711613	-77.68443	-18.254004	0.135247	0.273905	-0.85975	12.749603	10.632848	1.962341	-15.390777	-48.517049	-125.344697	-0.576666	-0.597113	0.00225
-20.45918	15.873743	-11.455006	855.085623	278.013388	-42.543457	0.270447	-0.041	-0.981179	1.830228	-6.934012	19.164683	48.808036	-112.550274	-15.773978	0.122711	0.245333	-0.886167	18.423801	10.215084	2.485601	-74.526326	-95.404599	-31.565394	-0.590432	-0.59897	0.033236
-18.101811	-5.977111	-3.033522	-146.96969	88.427997	-63.965381	0.313667	-0.173462	-0.870444	1.571029	-5.467646	20.632501	8.857322	-180.740954	-4.21424	0.083487	0.244036	-0.87099	13.060758	7.03319	2.371863	-104.224242	-83.430041	172.331801	-0.548917	-0.61455	0.034283
-5.109215	10.140846	21.042249	29.138156	54.802243	14.177484	0.327758	-0.139238	-0.905777	1.724457	6.594009	28.912031	-57.257134	-280.227634	-24.059897	0.056945	0.241742	-0.841739	11.670469	3.292168	9.69573	-75.038203	-51.911462	76.104359	-0.548362	-0.565146	0.016244
8.783837	-0.966241	5.239492	275.725353	60.996598	-16.517719	0.329273	-0.159724	-0.927097	0.506887	5.696941	31.093621	-0.998189	-381.163463	-39.751145	0.031954	0.260128	-0.88524	7.633566	3.121683	8.302206	89.205828	-32.537997	-25.85823	-0.618106	-0.601031	0.064151
-3.027621	0.065048	15.868701	44.720144	60.322261	-59.666754	0.330031	-0.169966	-0.937757	-0.131767	1.977454	27.793305	-58.768368	-455.276346	-24.965496	-0.034182	0.240145	-0.825459	4.542816	5.260323	4.121656	108.545855	5.272235	-46.579828	-0.548567	-0.60001	0.064502
-5.365721	7.557447	7.841715	336.538939	77.39329	-12.224661	0.37355	-0.212403	-0.928557	-0.915408	1.078481	28.738495	-100.214094	-537.55827	-37.158567	-0.100538	0.23441	-0.752331	4.64469	6.811901	0.237684	38.600213	20.623429	-28.770431	-0.590015	-0.566585	0.031561
-4.233468	-2.077738	-1.951706	67.572538	71.87761	44.271027	0.399919	-0.213495	-0.876368	-5.644246	-0.31665	33.506766	-176.572045	-610.100028	-41.11381	-0.153917	0.228751	-0.67948	8.685277	6.156331	-1.486312	40.107706	23.285169	-16.443419	-0.562408	-0.582369	0.032539
-0.289181	-0.283762	15.409023	-127.68328	35.657193	25.90862	0.371721	-0.264643	-0.823194	-4.682509	-1.659348	46.094127	-124.638688	-619.855738	-48.227698	-0.180309	0.257098	-0.652236	11.555134	4.692128	-2.81643	43.171512	15.278439	-30.961481	-0.520542	-0.583409	0.063805
-3.606474	3.268878	12.745273	115.422809	9.333969	-8.829247	0.398776	-0.189481	-0.869123	0.662404	0.238571	37.885773	92.839469	-660.645128	-18.863772	-0.234054	0.295256	-0.553696	12.180658	1.793404	-1.260207	-1.980237	14.251724	2.516654	-0.534797	-0.616825	0.080937
-1.388481	2.709633	3.238549	60.664661	17.734358	11.245657	0.399933	-0.230794	-0.858876	-1.429605	-7.030234	30.871882	214.928261	-609.992848	4.086306	-0.286479	0.247922	-0.535232	11.373679	1.567193	-0.258185	-32.190823	12.537179	84.051411	-0.562474	-0.600214	0.064432
-2.271541	1.995484	10.719977	-46.06772	13.534721	4.584671	0.372835	-0.254059	-0.865422	-8.98514	-0.087509	30.662708	317.807023	-553.837646	2.043559	-0.313982	0.227092	-0.461929	13.489538	3.419776	-0.450286	-4.090812	-10.261978	80.052083	-0.562337	-0.583196	0.048067
-2.406502	1.014477	9.633439	30.310304	13.673743	4.581765	0.373993	-0.295372	-0.855174	-18.529879	0.437832	31.028852	416.506675	-543.90668	30.738442	-0.355272	0.218292	-0.346303	16.000997	4.279671	-1.71721	18.123839	-35.725706	18.454158	-0.589735	-0.551219	0.046252
-1.91023	2.676049	8.740809	-0.149592	13.214132	5.551321	0.385813	-0.230419	-0.858527	-20.320402	3.867893	20.23758	384.729563	-611.789978	97.192242	-0.420302	0.187276	-0.342918	13.728364	3.652282	-0.265174	18.725138	-39.625538	-12.337537	-0.534521	-0.582787	0.048207
-1.786523	2.275805	9.196172	-4.18369	17.987026	8.523167	0.399562	-0.234322	-0.8448	-13.909306	4.518587	5.256818	156.921897	-648.368946	149.375289	-0.370615	0.149432	-0.241565	11.091304	2.73285	0.579954	23.754907	-38.155286	-13.799072	-0.533962	-0.552055	0.077589
-2.124974	1.415396	9.413283	-13.858883	19.790452	8.150995	0.385455	-0.251247	-0.826959	-18.743734	-4.626939	-27.972073	-105.59603	-612.997566	177.91645	-0.411308	0.202986	-0.144304	10.222474	3.726371	1.586067	44.570803	-24.875354	-10.331755	-0.562545	-0.599388	0.048904
-2.290429	1.933941	9.753233	-6.867583	21.37901	6.439362	0.399933	-0.230794	-0.858876	-46.755286	-4.972631	-32.919976	-190.905307	-194.870958	229.55344	-0.412414	0.214019	-0.087909	9.685847	4.191205	1.338513	55.169004	-6.04231	-0.09963	-0.562266	-0.584022	0.063595
-2.422505	1.585515	8.839909	-1.957328	22.885593	5.683045	0.399576	-0.251622	-0.827308	-8.275814	10.491028	19.024417	-447.44659	166.497875	320.727161	-0.37289	0.276597	-0.1071	10.228226	3.1466	1.823222	50.129817	7.613497	11.620693	-0.547732	-0.53524	0.061153
-2.753825	1.645859	9.458853	-9.447477	21.851916	4.338455	0.415611	-0.303552	-0.82807	-20.120578	-2.147354	34.446627	-158.049659	365.05887	304.24518	-0.386601	0.303948	-0.065783	11.121982	2.797849	2.257594	52.499708	17.477477	2.181716	-0.561569	-0.536271	0.076611
-2.126709	2.276777	9.36005	-5.594368	21.519619	2.696598	0.414068	-0.248468	-0.841733	-13.456116	-1.324814	23.264488	-37.644169	381.818476	290.134776	-0.373405	0.289774	-0.079405	10.762112	2.913575	1.951951	62.361526	25.99693	-22.526313	-0.547728	-0.553911	0.108574
-2.124358	2.104935	9.473032	-6.86848	20.59417	-0.228208	0.401476	-0.285878	-0.845213	-1.763988	-2.527108	26.396311	74.827861	408.57675	227.971266	-0.371408	0.342167	-0.168514	9.176785	2.744723	2.340846	64.598247	31.30868	-38.418015	-0.576032	-0.585878	0.09458
-3.032261	1.590313	9.851016	-12.682141	19.125141	-3.148835	0.39959	-0.268921	-0.809816	3.847767	-3.951934	19.605985	191.798945	400.547253	119.463666	-0.357252	0.346529	-0.226189	8.934948	2.860179	2.037404	57.777569	30.982946	-38.850074	-0.547452	-0.519874	0.075844
-2.521425	1.588975	9.633625	-8.261511	19.939148	-2.657633	0.415211	-0.272482	-0.848978	6.209761	-3.346064	9.012663	273.124262	411.169942	17.795906	-0.291336	0.380761	-0.272624	9.290435	3.208319	2.165304	54.091118	32.281049	-32.518213	-0.575685	-0.552667	0.077378
-2.410754	2.277467	9.468189	-7.858865	20.273122	-2.132001	0.414054	-0.231168	-0.859225	7.511566	-6.278821	7.735291	252.796714	445.558814	-61.595609	-0.302245	0.388189	-0.372796	8.930931	2.220106	1.73515	52.139009	31.521934	-21.904516	-0.603781	-0.568442	0.062547
-2.463016	1.531734	9.69135	-17.703025	20.054984	-3.180607	0.3572	-0.233198	-0.843752	5.108498	-4.079029	5.875108	202.958544	455.694687	-137.449181	-0.313606	0.303695	-0.466947	9.036878	2.681972	1.14026	51.857806	31.068772	-10.716782	-0.54794	-0.551433	0.061991
-2.235485	2.0483	9.641123	-17.179699	21.021151	-4.147805	0.386598	-0.275261	-0.834203	0.990289	-1.251126	9.980559	146.457355	486.064112	-164.158361	-0.287063	0.305988	-0.496198	9.506942	2.622322	1.029002	48.557431	30.626595	-4.590522	-0.589664	-0.552045	0.06178
-2.413805	1.874653	9.29594	-20.775214	21.062603	-6.559626	0.400319	-0.244565	-0.85546	-0.449605	0.896991	15.500402	165.44065	503.502183	-157.343315	-0.259635	0.311498	-0.568498	8.909752	2.331561	0.597414	43.550438	29.546231	0.536681	-0.562337	-0.583196	0.048067
-2.517836	1.24505	9.802737	-22.738591	21.465093	-7.620856	0.414039	-0.213869	-0.876717	0.272043	2.310009	22.480347	227.68822	501.142913	-124.555702	-0.259566	0.266609	-0.579837	8.076228	2.157493	0.161917	38.019189	27.191009	7.475381	-0.575756	-0.551841	0.06185
-2.925132	1.014126	9.452858	-24.879588	21.879725	-7.117246	0.456415	-0.232292	-0.860273	1.571506	0.84423	23.9217	316.409758	462.571313	-80.393005	-0.270487	0.153617	-0.700679	7.439426	2.045546	0.808294	34.439464	23.674033	12.059352	-0.520613	-0.582583	0.048277
-2.918576	1.187899	9.794701	-24.458536	23.975817	-4.784211	0.427074	-0.259427	-0.799855	1.221335	-5.356865	17.737932	380.532838	411.21074	-28.389633	-0.203905	0.205313	-0.776818	7.542592	1.80951	-0.029191	32.70984	19.881281	11.41127	-0.575827	-0.551015	0.046322
-2.871384	1.243127	9.284378	-18.7299	26.176662	-1.391391	0.442681	-0.245689	-0.856508	0.955173	-9.193337	10.312501	354.450102	374.957924	15.49659	-0.20295	0.163639	-0.831206	7.179826	1.750266	-0.515296	32.625248	16.629795	6.32273	-0.54759	-0.536893	0.092209
-2.35857	1.586921	9.182141	-21.878978	26.733255	-0.26923	0.470922	-0.246438	-0.857206	1.235827	-9.478197	7.260979	247.377845	353.835806	62.586302	-0.175302	0.1549	-0.916852	6.881465	2.215055	-0.638634	29.383877	14.634162	2.951387	-0.589873	-0.568238	0.062617
-2.353085	1.70301	9.466889	-26.376996	26.532855	2.009873	0.469393	-0.208653	-0.853378	0.985587	-9.924495	11.671235	142.762089	330.418188	109.505437	-0.109021	0.145314	-0.988976	6.827546	2.390655	-0.339458	27.430406	11.849717	-0.604142	-0.575831	-0.532343	-0.001098
-2.809344	0.784519	9.510973	-26.394347	28.15298	2.772276	0.470907	-0.229138	-0.874698	2.233327	-8.514499	16.341046	93.604286	296.967538	145.518947	-0.055937	0.149902	-1.047478	7.419348	2.157247	-0.269536	30.974456	8.164904	-6.895155	-0.589593	-0.552871	0.077308
-2.522373	1.358968	9.575807	-25.571158	30.553294	5.538298	0.468664	-0.233009	-0.807734	2.99364	-9.470756	19.526565	87.695425	264.781624	173.903622	0.049127	0.17011	-1.108086	7.134171	2.160148	0.264124	31.287968	4.392531	-11.737424	-0.562057	-0.567829	0.062757
-2.75209	0.784477	9.512087	-17.400039	31.979812	7.745971	0.455286	-0.225578	-0.835537	4.174453	-10.992792	20.795534	98.722708	239.410718	184.545966	0.036151	0.170035	-1.10781	7.254559	2.567151	0.447776	32.528549	0.343766	-10.225146	-0.534241	-0.567421	0.062898
-2.81875	1.471887	9.059044	-15.503478	34.101595	11.117614	0.425502	-0.169744	-0.848501	4.296097	-13.133473	20.909429	105.133418	221.204306	181.039123	0.115112	0.159452	-1.16586	7.671379	2.39272	0.634458	34.171595	-5.10359	-6.415555	-0.548358	-0.583818	0.063665
-2.924392	1.531341	9.511883	-14.486075	35.873084	9.794174	0.456401	-0.214993	-0.877764	5.650037	-14.881154	22.181835	111.313722	207.776035	162.530503	0.179622	0.143435	-1.151885	7.086139	1.6979	0.800208	35.069974	-10.110073	-4.072233	-0.548291	-0.565973	0.031772
-3.102588	1.185369	9.165976	-11.802284	36.586837	12.987298	0.48317	-0.247155	-0.804667	8.564696	-17.476514	23.712728	129.100787	187.547054	124.352277	0.231751	0.189697	-1.155999	7.328401	1.873071	1.164793	37.369176	-14.860321	-5.310918	-0.589456	-0.535853	0.060943
-3.720878	0.671264	9.720087	-8.6131	39.82563	15.943961	0.485042	-0.246812	-0.857555	13.259819	-19.458058	22.450849	147.255818	158.021031	65.365119	0.309972	0.146329	-1.183342	7.332938	1.815984	1.404173	38.744586	-17.846716	-8.846739	-0.561573	-0.517599	0.029191
-2.738443	1.936444	10.256003	-19.233919	48.907362	12.902284	0.48237	-0.185014	-0.846482	15.750228	-20.255519	17.746859	149.656232	133.768913	-6.954618	0.321761	0.081907	-1.136554	7.506705	2.279692	1.289638	39.201269	-20.941695	-11.064533	-0.589176	-0.520486	0.075634
-3.423062	1.650216	10.355141	-27.343767	55.622728	5.460217	0.525489	-0.19638	-0.85819	16.923355	-17.613818	13.640993	116.681908	117.557705	-75.451895	0.336283	0.042452	-1.219917	7.147916	1.93081	0.982018	39.827459	-21.578295	-8.43556	-0.576312	-0.601245	0.079889
-3.315359	1.821011	10.016973	-26.873464	63.641962	3.043847	0.47015	-0.218896	-0.864038	16.718539	-14.969388	9.676032	51.422364	109.317013	-127.613648	0.349629	0.05892	-1.235547	7.739313	1.871631	1.052682	41.775398	-19.870273	-4.355549	-0.561711	-0.534618	0.045555
-3.136832	1.707451	10.36095	-22.77477	65.845731	-2.636352	0.51214	-0.223548	-0.851009	15.409555	-11.928975	5.235317	-38.022404	111.365307	-164.678941	0.348298	0.023991	-1.17614	8.321076	1.694075	0.58369	42.371879	-17.24606	-0.611075	-0.506075	-0.552473	0.093257
-3.41894	2.110714	10.584484	-17.4076	71.848611	4.008697	0.525475	-0.179081	-0.875682	14.106137	-9.90237	0.963667	-181.284718	140.895797	-188.722679	0.374325	0.039462	-1.177695	8.674437	0.589079	0.405874	42.114366	-12.997499	2.51758	-0.548007	-0.569278	0.093883
-3.601263	2.855407	10.072602	0.915864	72.856055	1.242932	0.496505	-0.202688	-0.82934	13.774656	-8.715782	4.411216	-302.904657	194.327672	-201.262335	0.387891	0.04168	-1.206671	8.845443	0.819742	0.11063	41.033588	-5.602833	2.822399	-0.548216	-0.58547	0.09472
-3.601589	1.763776	10.011164	-6.022838	72.264319	-0.893468	0.525132	-0.217208	-0.826622	12.235041	-5.386181	8.061739	-358.135881	238.448719	-204.349745	0.451966	0.11437	-1.155669	9.891903	0.523223	-0.769402	42.442852	-0.329629	-0.844882	-0.548078	-0.568451	0.078355
-4.009176	1.934943	9.662975	-13.640012	71.962278	-4.464659	0.51174	-0.192477	-0.871917	10.709494	2.499988	4.696419	-398.617284	252.395745	-196.200511	0.478885	0.193266	-1.189938	10.018063	0.81531	-0.28671	39.144352	4.499872	-7.579592	-0.547728	-0.553911	0.108574
-4.157266	1.538043	10.851861	-9.099174	73.659865	-5.983576	0.52436	-0.189666	-0.833454	12.219239	5.884881	13.732766	-460.619347	255.196162	-144.880327	0.530719	0.238456	-1.179702	10.712377	1.101103	-0.991151	32.956906	8.865908	-11.887053	-0.519357	-0.5041	0.090675
-4.619133	0.675787	10.611921	-8.324665	78.369544	-3.701082	0.551458	-0.166401	-0.826908	17.351437	5.99777	25.050259	-347.036049	237.331994	-133.47128	0.529474	0.339268	-1.100629	10.827222	0.57716	-1.230803	26.329773	11.820992	-10.043546	-0.561774	-0.571134	0.124869
-4.281423	1.018981	10.335784	0.092293	83.865415	0.105567	0.567508	-0.235631	-0.810178	22.766694	5.250717	19.898215	-122.615261	219.618753	-155.564614	0.556537	0.388595	-1.14724	10.756662	0.807127	-1.829983	16.829992	12.664124	-6.101374	-0.547795	-0.571756	0.140467
-4.629694	1.420356	10.10338	-0.870049	87.499857	-1.059296	0.610241	-0.233226	-0.825302	25.066714	2.08446	11.451602	29.1864	193.032941	-193.365922	0.581389	0.459987	-1.081061	10.590618	0.810004	-1.234215	6.980665	10.887147	-0.342115	-0.547381	-0.5207	0.091372
-4.852362	1.881501	10.441975	1.125999	92.415307	-0.187756	0.609098	-0.209213	-0.818058	26.435784	-1.979451	5.135984	83.61737	150.605299	-246.591192	0.620612	0.461284	-1.096238	10.117928	0.578533	-1.303915	-1.622587	7.286843	4.68806	-0.561703	-0.571961	0.140397
-4.557549	0.849035	10.841171	-2.211942	96.026442	2.425983	0.594606	-0.212366	-0.803632	24.949223	-4.116972	5.385948	108.015682	121.877678	-299.359692	0.659465	0.446189	-1.096062	9.755568	0.345062	-1.790761	-7.183394	1.416059	5.530886	-0.561289	-0.520904	0.091302
-4.663275	1.023373	11.294492	-3.744293	104.883741	3.739759	0.567522	-0.25293	-0.792687	21.399818	-1.743459	6.44578	143.450756	87.289936	-325.616145	0.594805	0.431565	-1.108029	9.882674	0.230617	-1.3098	-15.002977	-6.126914	1.683047	-0.561778	-0.552463	0.077448
-5.0101	0.965456	11.117011	5.365314	115.052567	4.798885	0.608769	-0.264639	-0.751506	10.570505	0.673346	41.151415	130.544585	33.489737	-302.500248	0.635279	0.39226	-1.191944	10.361811	0.056792	-0.942297	-20.340934	-15.465414	-8.063484	-0.547515	-0.55639	0.155158
-5.391129	1.372179	12.134261	-0.727709	125.936022	4.318707	0.609126	-0.243811	-0.783074	3.474251	31.158353	37.632416	327.061563	-205.016981	-250.668593	0.543492	0.433409	-1.135626	9.856941	0.122017	0.485812	-17.574495	-24.831848	-24.102806	-0.561427	-0.537923	0.107667
-4.815285	1.42993	12.316197	-2.108015	139.869495	4.947914	0.637367	-0.24456	-0.783772	-13.817564	7.366866	-22.536301	645.397884	-216.923048	96.941446	0.556757	0.374346	-1.160586	9.694083	0.648568	1.323432	-8.643572	-34.609964	-45.476541	-0.534379	-0.58444	0.079263
-4.810831	1.430895	12.543609	-2.591745	156.56792	3.135477	0.677829	-0.211428	-0.766916	-39.223722	11.444145	11.411738	295.620115	-163.489289	201.667033	0.517893	0.269022	-1.181433	10.699525	3.02912	1.771625	18.586518	-39.006315	-66.38869	-0.547937	-0.570104	0.109411
-5.009956	3.218504	14.138522	-10.768931	177.203205	-5.092464	0.692735	-0.256644	-0.742941	2.555223	2.405775	8.148384	89.673219	-358.616768	416.29461	0.452342	0.190972	-1.160687	10.472383	5.633057	-0.616827	30.240647	-25.416243	-69.458693	-0.533682	-0.536689	0.092279
-5.284317	1.510223	17.59264	-33.722525	197.677831	-13.46489	0.677843	-0.228727	-0.749424	45.246477	28.356314	15.74836	-49.827718	-324.994779	241.760149	0.414225	0.178643	-1.201905	11.149397	6.54074	-5.391117	11.553575	4.228369	-61.834669	-0.520609	-0.601254	0.095698
-6.889507	-0.88954	20.279162	-5.282386	229.571059	-11.371745	0.734354	-0.264824	-0.715837	23.106255	7.71674	6.376735	-23.972993	-352.252	29.20149	0.40243	0.182855	-1.259028	14.239527	5.711619	-7.492903	2.503594	39.662311	-54.028251	-0.492301	-0.587959	0.157113
-6.505848	-2.489708	22.268945	-9.709874	273.048225	0.542487	0.74886	-0.27897	-0.712771	5.22754	2.965118	9.3939	-199.842031	-322.884436	-152.604322	0.297887	0.20968	-1.21578	16.190726	4.603965	-7.401379	-6.350195	80.184783	-40.349691	-0.534304	-0.603937	0.142211
-6.967021	-4.947982	24.920642	-13.182265	329.183245	16.64569	0.817191	-0.250114	-0.682536	2.992032	-10.768884	16.638063	-286.120235	-285.851138	-135.078238	0.271935	0.20953	-1.215229	14.253755	4.043124	-3.727039	-40.213394	102.799766	-13.414808	-0.534308	-0.585266	0.094791
-5.449983	-7.298372	26.304174	-20.898639	388.904146	46.554077	0.802341	-0.274096	-0.636543	0.491547	-13.065498	25.981474	-53.80986	-156.430824	-93.570047	0.206691	0.252972	-1.188162	9.523567	5.227449	-0.935699	-83.612052	78.865124	10.359132	-0.534033	-0.551229	0.062061
-4.770533	-6.656115	28.877465	-7.208271	458.463909	79.375999	0.857323	-0.272408	-0.599128	6.716746	-5.030414	16.438282	131.154415	-77.464008	0.517206	0.168064	0.314029	-1.191349	6.654345	5.471561	0.269413	-104.74311	40.069464	23.55066	-0.561848	-0.551637	0.06192
-3.933558	-3.259442	30.840297	50.532066	503.478658	101.980714	0.871858	-0.321152	-0.561078	2.684659	-0.016274	8.60188	141.967152	-57.1345	3.934114	0.193419	0.251825	-1.173536	6.360793	5.950825	3.619574	-91.601328	22.714349	17.105479	-0.507193	-0.613938	0.034494
-6.892404	2.766554	29.046401	130.941909	510.15632	92.356429	0.940575	-0.306068	-0.527428	4.630094	-0.809087	8.019283	57.738994	-34.642126	7.511871	0.155007	0.238424	-1.200405	7.095147	6.536145	5.132924	-61.814571	7.561711	1.756719	-0.562896	-0.613928	0.018685
-11.941189	7.006841	25.669905	196.48659	495.59185	75.316946	0.98185	-0.352375	-0.451264	1.685005	-2.432929	12.768202	45.175819	0.364369	13.275679	0.12942	0.194456	-1.225542	6.781285	7.98526	4.294906	-35.600749	-8.002034	-7.463175	-0.576315	-0.582573	0.032469
-10.990175	7.058753	24.552013	242.499267	464.483565	42.825309	0.980407	-0.418387	-0.342485	1.858544	0.043144	10.339621	86.765106	-3.064549	8.804883	0.154856	0.207783	-1.198398	7.630793	8.672483	2.457266	-25.74886	-18.813669	-5.552459	-0.534245	-0.54875	0.015477
-5.562785	3.31798	23.90302	271.600848	453.591	14.231782	0.977792	-0.425785	-0.261445	1.998756	1.224576	8.928254	74.071518	1.991124	12.852678	0.154781	0.192462	-1.197394	8.260932	7.38838	1.265794	-10.955811	-15.410919	16.536777	-0.521381	-0.629508	0.019733
-1.335821	-2.444723	20.323802	279.236017	450.434666	-7.339395	1.00609	-0.495732	-0.192176	1.382956	3.25213	7.218684	58.746889	-1.85599	4.015934	0.154926	0.162893	-1.209736	8.679041	5.238622	1.264349	8.40737	-9.394917	35.941124	-0.534103	-0.550402	0.046533
3.065939	-3.151247	17.11028	238.583521	436.739552	-20.296102	1.017582	-0.486206	-0.128977	1.750623	2.351001	8.188052	18.852317	-1.02703	6.119233	0.14254	0.164962	-1.23816	9.495708	3.665712	0.554197	26.095399	-3.117824	47.2814	-0.562199	-0.566177	0.031702
7.150909	-8.140406	6.314098	175.507277	363.794972	-32.497443	1.014581	-0.479834	-0.051353	1.508855	-0.238052	10.105572	5.391678	1.927886	6.384413	0.154555	0.146501	-1.194383	13.122236	3.41762	-1.175771	32.899061	4.448519	45.569621	-0.548429	-0.582991	0.048137
26.133771	-5.624227	-6.206562	92.360684	249.314403	-36.329632	0.998588	-0.479801	0.001884	1.889561	1.281359	9.209081	19.029795	0.440538	2.403738	0.15404	0.159678	-1.166687	15.329811	4.276212	-2.927453	24.211577	15.820981	19.531024	-0.534174	-0.549576	0.031005
10.167332	-10.174512	-12.162518	29.064619	127.934342	-51.312686	1.011223	-0.494289	0.057839	1.549674	1.563895	9.485263	-1.32498	0.574034	3.436848	0.128968	0.102533	-1.21952	13.854698	4.628291	-2.893573	9.702385	24.391906	-12.640928	-0.5485	-0.582165	0.032609
7.918376	0.526654	4.944798	-180.314371	-41.058887	-49.991366	1.024972	-0.498192	0.071565	2.075855	0.492883	9.77844	-2.686288	0.288855	2.199787	0.154405	0.11586	-1.192376	11.211461	3.998003	-2.346744	1.989919	23.530034	-17.742827	-0.561848	-0.551637	0.06192
8.786457	0.94264	8.373261	-28.053561	-181.692863	-57.101747	1.024957	-0.480893	0.054073	1.609634	0.944199	9.54259	-6.189871	-0.90863	0.33537	0.128528	0.13103	-1.192828	9.539491	4.346037	-3.39449	-6.193247	17.199791	5.879874	-0.534383	-0.565769	0.031842
6.14021	-0.826691	10.530717	-38.01686	-276.22935	-53.362634	1.025315	-0.460065	0.022506	1.663896	0.774958	9.373738	-11.323391	-1.371538	0.203325	0.115332	0.145204	-1.179206	10.20529	3.825329	-2.545914	-18.648928	6.107216	33.060863	-0.520542	-0.583409	0.063805
1.707407	-3.401572	12.024893	22.008639	-328.051542	-28.916203	1.053913	-0.439987	-0.00976	1.672143	0.887951	9.77031	-12.470859	-1.780864	-0.387402	0.14136	0.160674	-1.180761	10.75018	3.594776	-1.818116	-31.047702	-3.180137	45.47083	-0.548429	-0.582991	0.048137
0.029519	-4.737973	8.122155	69.547198	-355.11519	18.381811	1.055771	-0.422345	-0.08014	1.673113	0.380976	9.769883	-11.386355	-1.521622	-0.41478	0.116438	0.134171	-1.235601	10.233591	3.018198	-1.111609	-37.226906	-10.417454	42.225825	-0.520688	-0.563086	-0.014671
-0.641463	-5.678094	3.047234	31.93343	-352.66395	55.415222	1.056142	-0.418817	-0.094216	1.793964	0.549989	10.055641	-8.828158	-1.979129	-0.509755	0.128604	0.146351	-1.193832	10.195577	2.035244	-0.098496	-43.422188	-15.574606	33.040127	-0.534521	-0.582787	0.048207
-0.701586	-7.242285	-0.086202	-73.377178	-333.772341	88.763854	1.058386	-0.414946	-0.16118	1.966984	0.380674	10.059126	-9.543741	-2.415044	-0.884602	0.168047	0.133399	-1.222355	9.610263	2.793066	0.253155	-48.446187	-18.115706	25.641939	-0.561781	-0.533792	0.030028
0.538486	-5.511465	1.934279	-174.295266	-318.447891	107.324683	1.03316	-0.437869	-0.220614	1.904152	0.605914	9.831548	-10.044696	-2.999933	-1.507381	0.141284	0.145354	-1.179758	9.263599	2.911758	0.666395	-49.095108	-20.260527	22.842199	-0.520058	-0.533179	0.030238
2.735864	-2.278661	6.139267	-229.741769	-308.411829	122.295951	1.020154	-0.426909	-0.262493	2.075639	0.605544	9.778535	-12.143719	-2.845009	-1.137594	0.154631	0.161821	-1.195387	9.329488	2.796955	1.026443	-47.797005	-21.876579	25.779818	-0.561644	-0.516773	0.013663
3.627317	1.244717	10.888382	-229.073995	-313.527022	128.554553	1.007133	-0.39865	-0.321863	2.020707	0.493085	9.890511	-10.752019	-2.791472	-1.93747	0.167456	0.131256	-1.193655	8.969909	3.261384	0.78219	-47.937957	-19.880959	30.906528	-0.534036	-0.532557	0.01464
2.987641	3.496049	13.385968	-166.938455	-325.881091	125.264439	0.996814	-0.466789	-0.357323	1.907432	0.155365	9.944448	-12.079869	-2.833558	-2.771311	0.180287	0.1609	-1.181588	8.61112	2.912502	0.47457	-48.286173	-18.154019	32.366935	-0.533477	-0.501825	0.044022
2.510013	4.411344	12.414418	-94.042629	-341.417735	116.589897	0.983765	-0.403931	-0.451677	1.910735	0.324499	10.114509	-10.508215	-3.206784	-3.606111	0.128974	0.162743	-1.209185	8.064839	2.794104	-0.374525	-45.521681	-14.182333	24.848339	-0.534178	-0.530905	-0.016415
3.03938	4.056871	10.206835	-54.167319	-353.744132	101.68694	0.927654	-0.398904	-0.464356	1.791547	0.549894	9.942362	-8.505911	-3.756102	-4.812247	0.129269	0.163815	-1.223535	7.894393	2.795992	-0.018385	-36.772384	-10.696953	13.184345	-0.576248	-0.564728	0.000576
2.493084	2.26956	8.540593	-63.659295	-359.768475	83.532492	0.915777	-0.394659	-0.53097	1.789668	0.268147	9.828846	-7.736887	-4.050141	-5.246141	0.128829	0.192312	-1.196843	7.643192	2.676919	-0.861978	-28.53227	-7.70688	4.887651	-0.492104	-0.515753	0.014014
1.577262	1.925574	8.521329	-95.771173	-359.058847	64.875928	0.887908	-0.390382	-0.544348	1.898085	-0.014006	9.491189	-8.454535	-4.6973	-6.147158	0.141655	0.161746	-1.195111	7.645933	2.44511	-0.743153	-20.685039	-8.616974	-2.013155	-0.561919	-0.550811	0.046393
0.874278	1.762715	10.609694	-137.528801	-352.158353	41.930424	0.875273	-0.375894	-0.600303	1.510087	0.381679	10.219373	-9.696704	-5.290195	-6.9864	0.141805	0.192387	-1.197118	8.057271	2.734297	-0.794121	-15.821351	-11.165251	-5.319302	-0.533686	-0.518017	0.044859
0.815852	2.751608	13.511077	-158.596916	-340.994449	17.887511	0.834383	-0.343358	-0.673051	1.906223	0.155318	9.887808	-8.21911	-5.671648	-6.742383	0.115558	0.191165	-1.182217	8.165669	2.61565	-1.331576	-16.819691	-12.353909	-0.145	-0.561852	-0.532966	0.0145
0.561001	3.965084	15.159317	-151.256561	-333.128037	-7.766207	0.821763	-0.346169	-0.711513	1.79582	0.212053	10.111996	-5.687278	-5.733517	-6.432684	0.103022	0.162593	-1.208634	7.520313	1.920718	-1.226834	-27.760101	-12.705304	12.336002	-0.547456	-0.501203	0.028424
0.694356	4.083985	16.128529	-134.408577	-330.61079	-32.80188	0.751504	-0.306169	-0.758827	1.791762	0.437233	9.942267	-5.478811	-6.344094	-6.438588	0.128604	0.146351	-1.193832	7.404711	0.875619	-1.233485	-44.497005	-12.109255	28.808757	-0.505386	-0.467379	0.011432
-0.512974	3.279468	15.817502	-124.38083	-331.732918	-54.536849	0.753747	-0.302299	-0.825791	1.676069	0.099418	9.882925	-5.386791	-6.432299	-6.840151	0.115558	0.191165	-1.182217	6.584082	-0.109041	-1.073374	-52.774111	-11.016262	35.620236	-0.547661	-0.536066	0.076681
-0.792809	2.074609	16.091133	-138.963376	-336.322337	-73.713551	0.668223	-0.237911	-0.865511	1.855934	0.775393	10.283598	-4.895867	-6.730072	-7.243476	0.14173	0.177067	-1.196115	6.10616	-0.457901	-1.443102	-47.788432	-10.927181	22.79291	-0.589459	-0.517181	0.013522
-1.743367	1.39084	17.206369	-153.251463	-339.024172	-90.960193	0.626976	-0.226202	-0.906691	1.95237	0.436436	9.379498	-4.168156	-7.823241	-7.469553	0.102432	0.160449	-1.179934	6.649586	0.415239	-0.6507	-40.161623	-10.784882	-3.154754	-0.51929	-0.486255	0.058783
-2.67512	0.883497	19.288833	-162.607237	-339.268023	-105.819949	0.627691	-0.184547	-0.969826	1.910065	0.042799	10.057632	-4.388396	-8.161705	-7.719717	0.128308	0.145279	-1.179482	6.409295	1.286425	-0.771207	-35.794155	-8.959177	-24.418141	-0.562132	-0.548332	-0.000191
-4.134411	0.373873	20.73589	-157.397378	-334.965549	-113.958794	0.541039	-0.113444	-0.98481	1.897438	0.323977	9.491473	-5.453556	-9.397266	-8.411066	0.089606	0.191015	-1.181666	6.53505	1.752741	-0.287773	-34.90768	-7.765166	-33.104908	-0.561647	-0.498102	-0.033758
-6.648531	-0.484961	20.91069	-156.357128	-335.521824	-121.459076	0.472279	-0.07663	-1.070936	1.897784	0.774669	9.548492	-6.886849	-10.423476	-9.008146	0.102432	0.160449	-1.179934	6.538642	2.102186	-0.046662	-34.961742	-3.609429	-20.902032	-0.54655	-0.437259	0.040603
-9.084778	-0.592513	22.169948	-153.108329	-334.526563	-123.754045	0.431046	-0.082221	-1.094624	1.436483	0.550162	9.481992	-10.383543	-10.89751	-8.954018	0.103688	0.180057	-1.238337	6.367501	1.929599	0.248829	-26.741676	1.367506	3.493044	-0.561293	-0.502233	0.043881
-13.040363	-1.3376	21.805715	-145.143136	-330.5626	-117.236979	0.372621	0.005432	-1.127798	1.907563	0.718718	10.001562	-14.072756	-11.926307	-8.843905	0.102507	0.17577	-1.180938	6.599144	1.463214	-0.048281	-19.26758	6.012367	27.22464	-0.547456	-0.501203	0.028424
-17.827455	-0.709782	19.953504	-152.282958	-325.561759	-107.928623	0.317253	0.017515	-1.168629	1.905014	0.15527	9.831169	-15.611809	-14.023847	-9.944961	0.103248	0.208554	-1.211644	5.738476	0.36674	1.128653	-12.619876	9.149499	48.58608	-0.51992	-0.516161	0.013873
-24.546562	1.243978	18.864927	-157.1603	-309.638996	-94.706256	0.257727	0.077283	-1.142084	1.895906	0.492921	9.434976	-20.484923	-15.948873	-11.077809	0.103613	0.164737	-1.237333	5.91757	-0.03995	1.19013	-9.099698	10.214366	59.239284	-0.533481	-0.483154	-0.003399
-31.663435	2.107122	17.877678	-138.402813	-281.413057	-74.142782	0.230229	0.085089	-1.169537	2.47223	0.773544	9.503942	-27.247126	-18.320949	-13.172265	0.090052	0.222728	-1.198023	5.858803	-0.620823	1.126651	-7.044778	9.121228	53.244039	-0.533757	-0.517191	0.029331
-42.998108	1.930899	14.814942	-85.661517	-235.601339	-33.454626	0.131385	0.087711	-1.167093	2.465408	0.547937	9.163914	-38.720205	-19.520051	-16.214481	0.089826	0.176767	-1.195012	6.097724	-1.376104	1.187745	-5.493176	7.045066	35.637854	-0.575622	-0.516151	-0.001935
-51.125694	4.944873	6.144993	-34.885663	-168.739311	15.513654	0.059625	0.130897	-1.175594	2.417167	0.097733	9.558803	-49.732928	-18.27529	-16.919987	0.115778	0.176917	-1.195563	6.398502	-0.039052	1.678189	3.472536	3.747615	5.572858	-0.561506	-0.499754	-0.002702
-48.302913	6.000814	-1.638247	-68.556736	-102.041298	45.577626	0.058139	0.116784	-1.11929	2.23985	-0.014795	9.328523	-45.087666	-17.275236	-15.457434	0.051564	0.194006	-1.223888	7.209093	1.001459	0.979163	15.649985	0.297782	-23.426315	-0.491269	-0.450983	0.010665
-45.218737	11.492076	7.026282	-147.228142	-44.948837	67.792849	0.015735	0.169806	-1.170718	1.643477	1.337504	8.467978	-48.087106	-16.780085	-7.87139	0.089311	0.189943	-1.167316	7.308188	2.042849	0.08721	18.785231	-0.98274	-34.584418	-0.505248	-0.45036	-0.004933
-38.505728	15.811548	10.982702	-56.920935	3.795703	89.077372	-0.013607	0.142671	-1.1103	2.193511	0.436431	9.89409	-58.286024	-16.345201	-0.353277	0.088796	0.20312	-1.13962	8.294801	1.630065	-0.854323	18.80745	1.310354	-22.648091	-0.519432	-0.484602	0.027727
-27.745039	18.61815	11.147009	52.792384	16.391831	82.927883	-0.041891	0.195318	-1.162077	1.680558	-0.351084	10.052465	-55.149084	-16.783885	7.197819	0.063289	0.234683	-1.155426	9.4107	0.638477	-1.256966	20.967422	3.077516	14.284936	-0.533202	-0.467787	0.011292
-17.739383	12.420464	27.909989	147.674927	23.921934	54.022346	-0.012535	0.205154	-1.205003	2.392756	-0.802215	11.029465	-50.433635	-19.640554	12.414088	0.089612	0.251225	-1.17133	10.813801	-1.227152	-2.196977	20.124715	5.204309	59.799442	-0.575138	-0.465921	-0.035502
-15.417529	-10.067157	8.197042	570.097259	266.15659	130.610192	0.015363	0.166277	-1.156642	2.521268	-1.477923	11.59771	-43.146312	-24.678036	13.757166	0.037563	0.280494	-1.157885	11.446587	-1.755277	-3.145608	13.677224	9.898733	91.727366	-0.575555	-0.498306	-0.033828
11.969472	-15.258096	-5.10192	-112.600485	379.545522	38.75527	0.086752	0.119563	-1.134065	2.653731	-2.322479	12.335731	-30.841304	-31.122948	14.936147	0.038154	0.282638	-1.186584	11.90333	-1.294963	-3.913616	5.121323	9.92053	77.781566	-0.561017	-0.468196	0.011151
5.45062	27.218672	40.755635	84.528407	393.964309	35.785809	0.117636	0.091614	-1.18082	2.770029	-3.953991	14.940987	-17.658342	-44.843068	4.667713	0.06285	0.26318	-1.128733	12.816013	3.286185	-5.014709	11.680647	0.07796	-27.199924	-0.560671	-0.434985	-0.006051
-3.978423	1.896602	14.153015	333.821289	310.977209	-90.325005	0.229472	0.095332	-1.158877	2.702944	-6.31795	16.975603	9.075541	-63.982923	-4.3487	0.089762	0.281866	-1.173338	15.967451	7.816623	-3.079987	-7.93208	-28.663472	-176.688847	-0.547043	-0.450147	-0.020671
-11.321574	1.139444	10.313014	242.53612	140.161571	-31.789818	0.302018	0.007305	-1.126052	3.178011	-8.233623	17.493418	30.993833	-82.867869	-15.123419	0.06359	0.295964	-1.15944	16.448723	12.595712	1.261285	-5.723431	-75.218913	-156.604989	-0.533343	-0.466135	-0.019764
-10.393797	-5.190686	7.74701	68.523379	43.697053	-33.685194	0.275306	-0.029731	-1.129182	1.909459	-4.114166	23.131826	34.362358	-110.456399	-26.245908	0.023551	0.246562	-1.112553	10.718108	9.527814	0.422556	-62.467916	-77.61382	61.564477	-0.491612	-0.502865	0.075288
0.437031	-2.988396	14.388801	209.314548	34.904159	-21.841906	0.290184	-0.040348	-1.140192	0.444286	3.274457	30.637256	-33.363584	-265.986932	14.573791	0.06285	0.26318	-1.128733	10.425108	3.990927	9.43596	-83.802255	-61.191205	160.460842	-0.547389	-0.483358	-0.003469
-3.581867	-0.874674	10.909714	277.302712	25.431862	-55.719778	0.2616	-0.077726	-1.090434	6.15537	0.337221	33.755162	83.495546	-350.541484	-98.71524	-0.015006	0.262729	-1.127079	9.98925	2.882742	8.045701	36.165685	-49.834356	67.251244	-0.547039	-0.468818	0.026749
-9.400803	2.7736	3.253461	246.753439	37.936299	-24.569024	0.290255	-0.126845	-1.052733	1.072759	0.845959	24.817054	-3.821441	-417.82677	-83.517672	-0.092717	0.23271	-1.137767	8.742635	6.111111	1.628599	100.122196	-40.40507	-59.803915	-0.547389	-0.483358	-0.003469
-0.306509	0.939055	5.8095	-1.656367	31.274507	14.037043	0.306676	-0.192547	-1.050079	3.347896	-3.267134	28.597744	-60.002698	-489.952563	-85.141027	-0.133492	0.210733	-1.049838	10.594263	8.713289	-0.002454	55.108149	-25.689948	-117.250913	-0.519569	-0.501621	0.044092
-4.546348	1.668216	14.368327	-13.837651	-3.952578	-25.695444	0.320025	-0.165379	-1.05726	-1.074656	-2.643494	23.636592	-130.819122	-556.653807	-102.688005	-0.225799	0.204849	-0.976159	12.180496	7.545897	-0.516849	15.190698	-15.584242	-67.190708	-0.51964	-0.500795	0.028564
-1.775942	2.770259	3.913233	122.566166	17.091633	3.819635	0.320025	-0.165379	-1.05726	-7.090544	-0.023099	43.950271	-177.112014	-560.675515	-99.991105	-0.304095	0.232896	-0.947812	12.894766	4.930856	-0.514769	-9.464019	-19.339841	24.344937	-0.533265	-0.504304	0.090605
-2.838679	0.675708	10.930704	-57.516019	2.992194	2.636904	0.305505	-0.133934	-1.077818	-0.997106	1.488547	46.51399	106.07953	-568.891744	-75.155753	-0.35755	0.211916	-0.873957	14.12412	3.066373	-1.278361	-37.862456	-13.09886	70.64666	-0.505591	-0.502243	0.05969
-2.556819	0.617095	10.708618	39.66131	10.25403	3.701918	0.303633	-0.134276	-1.02493	4.331883	-3.55043	28.844617	238.088428	-565.906115	-58.005055	-0.423836	0.161292	-0.812169	14.54366	2.195277	-1.034739	-37.50692	-8.627155	67.199088	-0.518872	-0.45387	0.057108
-2.145514	2.100352	8.392823	4.562175	8.747084	2.981119	0.291413	-0.168158	-1.042485	1.387693	-3.601595	28.386438	300.615903	-529.999944	-49.954324	-0.464316	0.140387	-0.738589	14.393468	2.957098	0.522753	-7.247525	-11.650428	23.872237	-0.533131	-0.468614	0.02682
-2.276612	1.304979	10.432816	2.299867	9.440174	3.274902	0.305519	-0.151233	-1.060326	-4.996188	-2.629344	31.310385	375.693099	-498.765263	-23.721366	-0.518957	0.054909	-0.61767	13.838713	4.115137	-0.620437	19.20621	-12.389503	-25.73153	-0.532922	-0.452421	0.025983
-1.959975	1.528707	9.075988	9.527846	12.497348	4.95981	0.292556	-0.192172	-1.04973	-15.611051	-4.190148	27.179694	409.740674	-514.596405	-10.225312	-0.559512	0.018684	-0.543087	12.663373	4.816233	-0.280038	31.479428	-11.514617	-38.093833	-0.519294	-0.467583	0.011362
-2.065575	1.53072	9.528586	2.484594	16.459692	7.71249	0.320411	-0.17915	-1.053844	-18.640227	-1.768284	20.267896	362.452475	-561.484095	16.431563	-0.561063	-0.001996	-0.470335	11.850527	5.692725	0.546961	28.00022	-7.108552	-9.867581	-0.560876	-0.469848	0.042207
-2.346073	1.244926	9.806077	-2.312524	18.742304	7.732729	0.290641	-0.140616	-1.049317	-18.905939	-4.818419	10.238916	293.024893	-559.933363	48.515953	-0.641437	-0.101872	-0.36221	11.504633	4.533251	0.834948	17.069787	1.0689	14.919968	-0.533406	-0.502651	0.05955
-2.123985	1.587962	9.47086	-2.431991	19.765539	6.891039	0.30439	-0.144519	-1.03559	-15.160491	-9.623197	-0.726422	189.825873	-477.718452	73.050088	-0.630898	-0.125692	-0.246684	10.513693	3.492403	1.350953	20.736864	9.818122	13.122649	-0.561014	-0.486867	0.058572
-2.464254	1.703817	9.635221	-6.316935	21.00901	6.769097	0.319254	-0.137837	-1.064091	-7.287202	-10.042287	-11.997497	121.377082	-399.519007	58.72453	-0.658696	-0.147594	-0.159031	10.359288	2.277661	2.420784	38.920594	15.954021	-3.079766	-0.533127	-0.487285	0.07424
-2.469283	0.955871	9.347819	-9.231838	20.284819	7.10305	0.319268	-0.155136	-1.0466	-10.201739	-4.740488	-10.582064	-17.282352	-143.651374	8.618608	-0.698585	-0.166355	-0.114151	11.485672	1.985705	2.680084	53.402621	18.572202	-14.635522	-0.560525	-0.455308	0.072426
-2.462643	1.01476	9.689179	-10.398927	19.503845	7.737714	0.333774	-0.169282	-1.043533	-13.029621	-1.909287	0.06112	-70.271986	50.303357	9.825853	-0.647787	-0.155022	-0.058859	11.314706	2.684753	3.099097	55.668918	22.12279	-17.013711	-0.518872	-0.45387	0.057108
-2.080175	1.699908	8.790219	-12.758241	19.208962	8.383708	0.332988	-0.124441	-1.067856	-10.439998	1.526982	5.779956	-51.082764	191.097889	8.806869	-0.660762	-0.155097	-0.058583	10.298942	3.323412	2.48404	57.654638	24.439465	-12.570302	-0.547039	-0.468818	0.026749
-2.297152	1.989935	9.412356	-17.940665	18.691023	8.574203	0.361644	-0.173559	-1.030155	-7.196848	-0.450005	6.58231	-36.658335	268.8979	14.063348	-0.647121	-0.137558	-0.088562	9.008695	3.153885	2.878437	61.028453	24.618007	-5.004308	-0.547039	-0.468818	0.026749
-2.693888	1.014443	9.571019	-24.388755	17.410099	7.774615	0.334532	-0.179525	-1.054193	-5.763967	-0.732253	8.98995	-16.909458	318.201102	15.834357	-0.672853	-0.151957	-0.101356	8.838479	2.109911	3.110313	62.946215	24.213834	2.203435	-0.546688	-0.454278	0.056968
-2.583916	1.128278	9.346316	-18.16133	17.83133	8.407534	0.334503	-0.144926	-1.089177	-4.659583	-1.240896	9.465609	0.570966	346.574978	11.167675	-0.671301	-0.131277	-0.174109	8.577239	2.046689	1.727806	69.035892	24.084932	4.932738	-0.574851	-0.487897	0.07403
-2.46487	1.014277	9.575472	-18.595832	17.312832	7.879029	0.333746	-0.134683	-1.078517	-2.839681	-1.019876	8.484971	14.921613	371.529002	3.350817	-0.670561	-0.098492	-0.204815	8.521524	2.047565	1.906426	74.606769	24.779006	1.852885	-0.561431	-0.519252	0.060246
-2.180825	1.013588	9.467334	-16.545329	17.0811	7.470696	0.36123	-0.12519	-1.068555	-2.087296	-1.86614	8.613255	19.79798	394.737637	-4.398418	-0.630527	-0.1093	-0.262038	9.037513	1.461881	1.015254	79.773366	28.83196	-6.681475	-0.560876	-0.469848	0.042207
-2.467097	1.013795	9.461766	-12.252385	17.408776	7.433	0.347138	-0.159414	-1.033222	-2.132018	-2.259872	9.17811	22.435702	411.921514	-12.394322	-0.576632	-0.116817	-0.362585	8.843263	1.284103	0.052701	79.206418	33.075713	-14.920374	-0.547385	-0.502029	0.043951
-2.64014	1.243444	9.402538	-10.874194	17.668701	6.758592	0.389099	-0.129467	-1.055177	-1.111256	-3.051103	8.406252	18.477489	422.733153	-22.431823	-0.575086	-0.156347	-0.445673	8.662798	1.806697	-0.068189	75.225843	38.161354	-16.977678	-0.546897	-0.47047	0.057805
-2.636841	1.301609	9.573339	-12.441358	17.704301	5.690343	0.36203	-0.18733	-1.02674	-1.196541	-3.7281	7.045123	10.977833	424.606016	-33.455029	-0.521631	-0.135367	-0.519528	8.482698	1.225353	-0.31359	74.391386	42.857774	-12.841007	-0.532993	-0.451595	0.010455
-2.526868	1.415445	9.348636	-11.120044	18.483214	5.30053	0.374993	-0.146392	-1.037336	-1.56671	-2.151052	6.019685	-19.835186	420.971373	-33.053659	-0.481297	-0.084893	-0.580765	8.058851	1.107674	-0.920857	72.965221	43.308295	-3.639174	-0.560667	-0.453656	0.04137
-2.628839	1.01609	9.970104	-11.512222	19.996834	4.467583	0.333774	-0.169282	-1.043533	-2.81257	-1.920169	9.673644	-51.474947	419.470671	-19.068019	-0.49117	-0.043609	-0.725994	8.003541	0.934323	-0.742978	69.347623	43.474619	5.664321	-0.532225	-0.40467	0.038999
-2.863134	0.612959	9.679695	-7.692556	22.463183	5.355351	0.362373	-0.149203	-1.075799	-2.677915	-0.508883	13.414252	-44.162108	412.859464	-4.084277	-0.438236	-0.069662	-0.782489	7.762535	1.166178	-0.986019	64.397547	41.160418	11.775724	-0.574996	-0.467574	-0.004447
-2.751101	0.957043	9.569664	-8.083012	22.563381	7.19811	0.360101	-0.118475	-1.043819	-2.829129	0.900651	14.544603	-18.274405	407.655187	18.821111	-0.333757	0.008613	-0.804062	7.767611	0.876787	-0.747627	59.231035	36.38998	15.699108	-0.560738	-0.452829	0.025842
-2.692567	0.727477	9.626665	-12.636988	24.820872	6.818575	0.361244	-0.142489	-1.051063	-2.71329	-0.733244	14.432366	9.038001	405.489576	42.868895	-0.293428	-0.001123	-0.875635	7.767747	0.818711	-0.747875	54.483468	29.530764	14.679202	-0.546204	-0.404048	0.023401
-2.812685	0.783795	9.340414	-6.915129	27.134059	8.434362	0.403991	-0.157384	-1.048695	-2.171024	-0.733266	15.576038	27.414348	407.67151	67.693962	-0.227292	0.01886	-0.935416	7.408438	1.166988	-0.992621	50.287387	22.646472	7.422077	-0.560809	-0.452003	0.010314
-3.103452	0.840479	9.107675	1.683417	27.531875	12.096005	0.403963	-0.122785	-1.083678	-1.012078	-2.199825	15.825542	33.177005	401.07998	85.97842	-0.225	0.072324	-1.038875	7.412704	1.226053	-0.752747	46.33182	16.33419	-1.794238	-0.588695	-0.451585	-0.005354
-2.762194	0.897189	9.000891	-3.563297	27.77479	10.213769	0.390614	-0.149953	-1.076498	-0.442276	-2.933484	15.497177	24.789208	396.255283	101.309669	-0.095391	0.042434	-1.039625	7.241448	1.576398	-0.395123	42.110863	10.401813	-9.360463	-0.574646	-0.453034	0.025772
-3.106094	1.414411	8.996382	-5.033849	26.733371	12.010363	0.416954	-0.116445	-1.059292	-0.415166	-3.833777	16.68585	1.022483	391.352987	112.712173	-0.0294	0.091986	-1.087064	7.30141	1.169731	-0.395753	37.978623	5.350067	-13.294209	-0.560041	-0.405078	0.038859
-2.472664	1.012589	9.177501	-5.055751	27.928511	12.305842	0.41694	-0.099146	-1.076783	0.727015	-4.509941	18.917194	-26.864212	387.829147	120.486763	0.010929	0.08225	-1.158636	7.303111	2.33224	-0.151181	35.267149	1.544727	-13.021756	-0.560391	-0.419618	0.00864
-2.866723	0.956885	9.510584	-1.402554	28.960964	12.189445	0.418112	-0.157758	-1.049044	1.718391	-4.621576	22.221539	-49.5792	385.331003	126.425706	0.126757	0.124599	-1.10673	7.185329	1.751503	-0.215761	33.998582	-0.873542	-10.316341	-0.546204	-0.404048	0.023401
-3.270679	0.726685	9.331265	-2.780409	29.639238	11.437791	0.390242	-0.153481	-1.062422	2.6587	-4.338505	25.864844	-63.958301	377.388586	129.603573	0.179697	0.158756	-1.152889	7.363727	1.170337	-0.214932	34.715641	-4.025016	-9.967733	-0.560391	-0.419618	0.00864
-2.982221	0.784402	9.45078	-3.224926	31.689965	11.993719	0.37575	-0.156635	-1.047996	5.458434	-4.903224	30.282438	-58.5965	364.263408	130.710495	0.282984	0.112323	-1.137734	7.249246	0.590341	-0.099792	31.421222	-5.819744	-12.055893	-0.615814	-0.404242	0.007522
-3.434689	0.785939	9.726137	2.255511	34.334386	14.10618	0.432218	-0.140834	-1.066885	7.161252	-5.071677	34.564115	-42.159	347.284183	129.506053	0.322728	0.160653	-1.170272	7.434538	0.359363	0.321869	27.408377	-8.53086	-14.503755	-0.588483	-0.454064	0.04123
-3.329544	1.415783	9.276194	8.377201	34.07241	12.61236	0.445195	-0.117194	-1.05999	11.662647	-6.316639	37.771336	-26.726316	326.079856	121.690693	0.413785	0.20714	-1.175213	7.322993	0.884048	0.741242	24.589301	-10.441171	-14.117719	-0.561084	-0.486041	0.043044
-3.120735	1.641041	8.258257	10.311573	31.906359	9.290333	0.41584	-0.12703	-1.017064	16.81381	-8.240521	39.010109	-7.41982	297.132933	97.335778	0.503876	0.17488	-1.146436	7.268494	0.36224	0.917637	24.089969	-12.946364	-11.598057	-0.602741	-0.468808	0.010941
-3.051108	1.471329	8.884031	4.192369	29.245698	8.344713	0.389485	-0.143238	-1.051761	23.575924	-12.087568	34.676216	13.782505	267.041687	49.447513	0.594267	0.203903	-1.121674	7.4512	0.769851	1.28211	24.705519	-14.649437	-9.361255	-0.588349	-0.418374	-0.022556
-3.098299	1.4161	9.394354	0.223327	27.206467	7.678998	0.40362	-0.160912	-1.034619	28.842568	-16.671215	22.214439	25.607321	251.691934	-33.932988	0.632599	0.141774	-1.104137	7.266063	1.407609	0.922087	25.91693	-17.117784	-9.812269	-0.532989	-0.470266	0.057875
-4.002738	0.729877	9.942173	1.688446	27.042869	6.445457	0.44521	-0.134494	-1.042498	37.073812	-20.982288	5.795559	-27.851115	273.751799	-145.580581	0.645205	0.125457	-1.08906	7.371471	2.101779	0.328186	24.934824	-17.875259	-7.879773	-0.574508	-0.436015	0.009407
-3.672289	1.875806	9.328296	4.100029	29.966271	7.099364	0.444467	-0.14155	-1.014346	39.944826	-3.04557	-25.209502	-118.723814	277.284158	-211.474596	0.72203	0.15226	-1.035322	7.489233	2.217661	0.330881	20.489418	-14.553083	-2.378439	-0.574642	-0.471705	0.073193
-3.13737	2.454191	10.364087	11.76505	34.431531	-6.804017	0.416583	-0.119974	-1.045216	38.526667	-2.875415	-26.937562	-611.058093	287.306401	-220.58322	0.734346	0.195081	-0.99556	8.409687	2.035833	-0.970205	15.268141	-8.336636	-1.961328	-0.532851	-0.453247	0.04151
-2.972661	2.969593	10.02848	-8.985205	44.95405	-16.356981	0.431847	-0.144362	-1.052809	42.795333	0.469099	6.217716	-762.491769	293.963992	-225.414612	0.72108	0.254144	-0.970599	10.398048	1.32988	-2.014081	2.9961	0.754003	-3.855124	-0.574508	-0.436015	0.009407
-3.243427	3.08806	10.819339	-17.815753	49.303484	-24.112794	0.461231	-0.169125	-1.060752	37.741102	12.095823	21.18119	-584.702768	254.831818	-235.984238	0.758989	0.401142	-0.895364	11.153538	0.686321	-2.721378	-14.598291	8.159545	-1.351203	-0.601977	-0.403212	-0.007935
-3.605256	0.671422	9.779167	-12.57622	50.084137	-25.771501	0.444438	-0.106952	-1.04933	28.434797	13.984917	35.537245	-296.881317	186.047412	-258.438089	0.797112	0.473682	-0.843811	11.879683	-0.880138	-1.936058	-20.399877	10.736143	10.760869	-0.54683	-0.452625	0.025912
-4.307334	0.796011	11.925592	-18.773597	54.020419	-25.843028	0.44561	-0.165564	-1.021591	25.83459	6.212823	31.626016	205.83628	98.727835	-308.661567	0.797193	0.549212	-0.834479	11.453655	-0.533456	-2.601254	-16.894817	9.807934	15.948847	-0.560596	-0.454482	0.056898
-4.94806	0.506847	11.343606	-13.906485	64.5025	-13.325995	0.459702	-0.13134	-1.056923	25.193655	-3.992347	19.544735	480.419358	23.919686	-343.966333	0.757895	0.532595	-0.818298	10.443663	-0.009712	-2.917271	-20.544987	6.982323	0.998729	-0.560667	-0.453656	0.04137
-4.596822	0.62317	11.748741	-8.007209	73.885846	-9.203324	0.473837	-0.149014	-1.039781	21.562617	-12.27167	13.120385	598.285434	-45.034128	-355.277161	0.772121	0.492068	-0.887312	9.676339	0.514974	-2.869444	-36.074245	0.276019	-21.374909	-0.547247	-0.48501	0.027587
-4.146131	1.540456	11.420392	-4.40041	83.051887	-3.145557	0.501692	-0.135992	-1.043895	2.664216	7.942686	27.234533	475.350615	-224.233951	-389.839574	0.733633	0.463346	-0.913177	9.222647	0.63641	-1.859336	-46.875289	-10.466161	-30.390387	-0.56032	-0.420445	0.024168
-4.431207	1.426021	11.471195	-6.407435	91.543929	-4.995179	0.486428	-0.111604	-1.036301	-0.184053	-4.86003	3.159012	506.121341	-259.875806	-279.323185	0.708561	0.406201	-0.96601	9.656263	0.81439	-0.71266	-48.906048	-20.239122	-32.444707	-0.560805	-0.470674	0.057735
-4.254699	1.024771	11.700258	-9.802477	101.311119	-3.385175	0.542925	-0.130401	-1.020207	-22.113837	4.741482	-15.183173	432.386831	-163.797435	-119.696673	0.643896	0.331368	-0.988313	10.037891	1.284616	0.853499	-50.95374	-29.793022	-37.891472	-0.561017	-0.468196	0.011151
-4.764422	1.02635	11.974502	-9.386144	113.379573	-2.699452	0.529161	-0.109199	-1.051425	-44.287976	3.571556	16.054023	85.265133	-99.34077	85.72567	0.592727	0.303642	-1.028252	10.397801	2.098601	1.282911	-50.53029	-40.719503	-51.650339	-0.575063	-0.485419	0.027446
-3.890353	3.039801	12.852447	-12.783724	126.062666	-6.347705	0.570794	-0.134679	-1.006829	-9.25218	3.000427	18.431162	53.888163	-333.433635	263.504633	0.592652	0.288322	-1.027248	11.55411	3.426952	0.172376	-50.932757	-38.758742	-49.183643	-0.51929	-0.486255	0.058783
-4.928407	1.959815	15.328242	-26.626174	139.858375	-17.615487	0.556317	-0.155132	-0.974912	24.376331	23.652513	2.624316	49.471935	-371.883251	242.361567	0.567216	0.274995	-1.054392	12.573308	2.543244	-2.267708	-47.974954	-10.265352	-17.645092	-0.575201	-0.502437	0.043811
-5.96922	0.074923	17.630099	-43.330542	163.510625	-16.262606	0.626162	-0.146762	-0.965998	24.356756	6.030799	13.591511	-78.777116	-311.1906	127.18195	0.475568	0.226365	-1.020752	12.277201	1.09103	-2.519018	-30.628612	23.352055	-11.756472	-0.5745	-0.473357	0.104248
-6.487203	0.087159	20.404765	-25.34757	195.571073	-8.432052	0.640997	-0.105481	-1.029483	17.339386	-2.575048	12.927012	-40.064693	-276.753802	-104.031071	0.462962	0.242682	-1.035829	13.056205	0.278435	-1.969012	-28.093805	46.750183	-66.537118	-0.547244	-0.503682	0.075007
-7.474683	-0.994317	22.540555	-6.612362	232.424282	-3.562167	0.696779	-0.165934	-0.950252	0.173711	-10.599237	11.313904	-123.861004	-152.570152	-130.203614	0.424474	0.21396	-1.061694	13.937802	1.844462	-1.94583	-40.369076	56.569219	-120.809017	-0.589389	-0.518008	0.02905
-6.632414	-1.847835	24.599236	-0.834156	277.388085	5.923665	0.72502	-0.166683	-0.950951	-1.023007	-10.925041	22.611317	-15.520295	-71.02457	-21.393493	0.386218	0.291409	-1.080235	13.756203	4.749163	-1.816956	-59.453809	62.286422	-123.97316	-0.533895	-0.53421	0.045696
-5.996727	-2.926128	27.789559	-7.089076	325.790816	20.528676	0.76591	-0.19922	-0.878203	4.421161	-0.58248	9.03415	223.701083	-26.876671	42.96098	0.385402	0.243304	-1.048525	10.216841	6.907561	-1.514393	-89.730564	49.885316	-68.436609	-0.562199	-0.566177	0.031702
-5.507171	-6.481563	29.261686	23.658596	392.089405	32.833705	0.807486	-0.155502	-0.903574	1.400521	3.306787	5.350833	71.372726	-30.747099	10.521117	0.411724	0.259846	-1.06443	7.288468	7.209885	-0.310134	-117.167345	28.360042	-5.171357	-0.56227	-0.565351	0.016174
-3.773115	-9.179422	30.022839	28.380397	455.247034	63.740581	0.863268	-0.215955	-0.824343	4.538341	-5.591676	14.070854	9.539055	-18.982613	9.447661	0.398742	0.199561	-1.074489	6.618229	6.987607	1.712506	-107.849001	11.080087	27.276856	-0.576457	-0.580921	0.001413
-2.359757	-6.471738	32.164469	34.235863	511.141873	98.505037	0.890023	-0.230817	-0.768738	2.363247	-2.829057	12.159341	134.647815	1.605761	11.232849	0.372345	0.167699	-1.057581	7.814653	7.162843	2.63386	-77.913266	0.512636	27.157678	-0.561781	-0.533792	0.030028
-1.576478	-2.741996	31.399799	132.753909	540.617835	114.362556	0.930512	-0.232283	-0.716898	2.188807	0.999594	9.724645	81.822454	-1.341288	2.929805	0.345808	0.225615	-1.017994	9.176177	7.741733	2.961177	-60.306934	-5.719625	14.743595	-0.548086	-0.531109	-0.016486
-7.017752	4.532808	25.641582	222.18367	527.822891	97.254646	0.972174	-0.292362	-0.637318	2.359906	-1.082811	12.160811	98.651137	4.85015	17.247784	0.372125	0.181947	-1.044234	9.778578	7.685027	3.63091	-44.852832	-4.723937	9.547794	-0.561644	-0.516773	0.013663
-8.916916	6.35803	22.25934	260.761563	499.732166	77.314275	0.955095	-0.337513	-0.506869	1.015138	6.516946	3.760374	94.702799	-9.380775	-8.731062	0.385541	0.153525	-1.071202	9.824619	6.636062	2.788863	-35.933594	1.853815	24.309088	-0.534596	-0.56329	-0.014741
