1812_acc_x	1812_acc_y	1812_acc_z	1812_gyro_x	1812_gyro_y	1812_gyro_z	1812_mag_x	1812_mag_y	1812_mag_z	1813_acc_x	1813_acc_y	1813_acc_z	1813_gyro_x	1813_gyro_y	1813_gyro_z	1813_mag_x	1813_mag_y	1813_mag_z	1814_acc_x	1814_acc_y	1814_acc_z	1814_gyro_x	1814_gyro_y	1814_gyro_z	1814_mag_x	1814_mag_y	1814_mag_z
-2.518891	7.482383	6.995074	119.387939	89.282456	-77.196524	0.486063	0.210709	-1.179317	2.507205	1.101193	9.904569	-12.090914	-22.448104	11.020765	0.174113	-0.216141	-0.186121	9.501943	0.680133	0.028261	-19.855383	2.956033	9.295671	-1.173923	-0.215055	2.055116
1.701017	0.632219	8.276132	84.9361	86.975127	-75.648202	0.505743	0.147938	-1.029725	2.554349	1.331005	9.433249	-14.011834	-28.159705	13.505316	0.162106	-0.216141	-0.198129	9.84416	0.969195	0.093425	-18.963629	2.982263	10.339704	-1.062899	0.066799	0.808641
1.234357	0.878082	13.69985	64.317673	73.335535	-81.003513	0.469606	0.170289	-1.141786	2.784944	1.272625	9.673697	-17.598181	-31.802569	15.843119	0.156102	-0.210137	-0.198129	10.824357	1.085946	0.741111	-17.701088	2.135956	10.610787	-1.079368	0.068107	0.809504
-2.511611	2.033693	9.987164	86.254084	60.063317	-69.391148	0.480807	0.156678	-1.194163	2.619285	1.78826	9.964525	-19.933272	-40.29734	19.523654	0.174113	-0.216141	-0.198129	11.034554	1.428926	-0.10919	-16.439195	1.458304	9.838109	-1.078469	0.07286	0.792414
-4.549022	3.483354	8.563098	75.372082	48.634229	-42.715763	0.480042	0.117654	-1.155634	2.797515	0.698685	10.264714	-24.703915	-48.341574	23.105194	0.156102	-0.228148	-0.192125	11.204815	1.718067	-0.104496	-13.361363	-0.219648	7.783279	-1.080741	0.044845	0.865398
-4.145772	3.076805	8.627936	62.808252	40.601495	-13.321835	0.498553	0.155822	-1.156845	2.902096	0.985517	9.853379	-20.581861	-57.878993	22.56006	0.156102	-0.210137	-0.204133	11.726986	1.950995	0.420521	-9.023138	-1.955462	4.482592	-1.133654	0.094285	0.815311
-3.103948	2.206142	9.051117	51.136344	35.801392	7.4162	0.513098	0.098683	-1.098053	3.54109	1.382963	10.867624	-19.652463	-60.264702	21.075604	0.156102	-0.216141	-0.180117	11.165437	1.953972	0.808903	-5.300301	-3.453658	1.173041	-1.114959	0.088728	0.801982
-1.320924	4.004439	9.379955	22.311162	14.749817	24.839898	0.543837	0.122114	-1.133482	3.766252	1.325091	10.813072	-11.02767	-66.12129	18.501778	0.162106	-0.222145	-0.192125	11.273806	1.894534	0.525432	-2.654612	-4.394976	-1.329459	-1.113206	0.06597	0.82832
-0.850201	0.232197	9.784719	19.228959	12.772166	-0.900191	0.571758	0.108774	-1.166701	2.987337	1.555428	11.505455	-9.880744	-66.125103	15.339063	0.144094	-0.198129	-0.192125	11.171307	1.260267	1.034118	-0.901647	-4.749654	-2.810485	-1.097636	0.059909	0.844547
-2.843508	0.990656	10.555938	29.754185	-0.797622	-13.442081	0.543455	0.102602	-1.114217	3.606132	1.439273	11.340611	-1.0645	-76.9818	14.229683	0.126082	-0.210137	-0.192125	10.428678	1.319116	0.905555	0.790029	-4.900203	-1.57449	-1.097164	0.078417	0.805743
-1.049293	2.086656	8.513837	43.691494	1.227057	-3.697602	0.555683	0.087866	-1.148435	3.899703	1.036461	11.877756	-1.165287	-86.289868	12.740314	0.13809	-0.210137	-0.192125	10.994959	1.201397	0.745015	3.282001	-5.383964	0.071132	-1.069151	0.065791	0.867753
-1.048372	2.318966	8.572211	13.829206	2.76914	0.284153	0.510399	0.121574	-1.171798	3.744824	0.119176	12.525122	4.106968	-97.81341	9.461207	0.132086	-0.204133	-0.192125	10.707422	1.490922	0.626514	6.451238	-6.037575	3.406478	-1.116331	0.065466	0.857876
-1.368085	1.683765	9.777926	6.627516	3.512423	-1.836637	0.526091	0.12297	-1.1708	4.201157	0.174699	12.769714	8.24057	-109.838043	7.149209	0.120078	-0.204133	-0.192125	10.713281	1.376444	0.911449	9.403529	-6.27889	3.550283	-1.081121	0.090865	0.783167
-1.941133	0.813681	9.7644	5.32097	-0.575509	-4.41819	0.50758	0.084802	-1.169589	4.261235	0.804238	13.064685	11.16751	-123.29187	4.603941	0.132086	-0.210137	-0.210137	10.763694	1.25896	0.569497	11.525363	-6.351504	4.02214	-1.082494	0.067603	0.83906
-1.603353	1.683289	9.48428	7.33983	-3.525852	-6.573661	0.552219	0.071732	-1.18365	4.087201	0.117849	12.708643	16.127134	-140.331393	1.785653	0.096063	-0.216141	-0.204133	10.988191	1.779047	0.462183	13.400287	-6.108395	3.659568	-1.082967	0.049094	0.877864
-1.66063	1.567259	9.482857	5.71312	-3.067682	-5.354953	0.523272	0.086199	-1.168591	3.862509	0.748443	12.88018	14.398006	-154.959047	1.033917	0.090059	-0.210137	-0.204133	10.87419	1.837171	0.460193	14.505754	-5.617759	2.491919	-1.101189	0.07316	0.852389
-1.422156	1.800325	9.950507	1.642306	-2.197824	-4.733527	0.519426	0.050554	-1.184542	4.495324	1.031914	13.540627	17.018433	-169.958714	-0.857805	0.096063	-0.210137	-0.192125	10.462425	1.081897	-0.293306	15.887502	-4.912324	1.534862	-1.145717	0.05483	0.851759
-1.59078	1.684826	10.120242	-0.440716	-2.448816	-4.847115	0.554274	0.06948	-1.14733	4.501652	0.000346	13.719455	20.875542	-186.12227	-2.900069	0.072047	-0.216141	-0.180117	10.582728	1.256936	0.052288	16.747475	-4.556844	1.0113	-1.116331	0.065466	0.857876
-1.252555	2.090092	9.839005	-2.613338	-2.044753	-3.098142	0.479015	0.118781	-1.173794	4.916167	0.226495	14.788658	25.198614	-201.647591	-7.359929	0.084055	-0.210137	-0.174113	9.951278	1.546618	-0.187155	18.37722	-4.571497	1.295663	-1.099436	0.050402	0.878727
-1.309665	1.799935	9.837163	-7.373731	-2.136717	-2.866525	0.536145	0.050824	-1.165384	5.712063	-0.234535	14.981684	30.773165	-219.60032	-14.524727	0.060039	-0.222145	-0.168109	9.902105	1.606468	0.211627	20.099416	-4.81029	0.239989	-1.097636	0.059909	0.844547
-1.480298	1.393942	9.890571	-7.80131	-1.550083	-2.12941	0.473639	0.005087	-1.112686	5.042735	-1.035193	15.324067	37.208555	-235.75776	-27.448393	0.024016	-0.204133	-0.144094	9.164993	1.724528	0.368788	21.113892	-4.787821	-0.427949	-1.097636	0.059909	0.844547
-1.424331	1.68396	9.834598	-9.283942	-1.950105	-1.499414	0.521863	0.067813	-1.167486	5.45791	-2.126465	16.218604	46.818326	-255.862603	-38.856499	0.006004	-0.204133	-0.156102	9.623577	1.898096	0.549863	21.605972	-4.922332	-1.278566	-1.09631	0.050906	0.849171
-1.425028	1.219479	9.775665	-8.628067	-1.487517	-0.548673	0.488042	0.047761	-1.186538	5.459103	-2.527512	16.219315	58.043928	-276.644839	-58.654759	0.012008	-0.210137	-0.144094	8.9335	1.897884	0.193795	22.098072	-5.138376	-2.830756	-1.097636	0.059909	0.844547
-1.589414	1.452795	10.177498	-9.885974	-2.068758	-0.634321	0.506935	0.105441	-1.207013	5.352008	-2.699556	16.512447	71.988854	-285.7069	-74.710705	-0.012008	-0.216141	-0.126082	8.874065	2.592491	0.138731	22.035337	-4.886056	-5.436709	-1.067824	0.056789	0.872377
-1.488577	1.683178	9.486566	-8.502171	-1.743123	-0.103776	0.476196	0.082009	-1.171585	4.673348	-1.093729	16.732566	111.149374	-289.768773	-92.571358	-0.006004	-0.210137	-0.114074	8.818817	2.303386	0.193383	21.266384	-4.908506	-6.633164	-1.082967	0.049094	0.877864
-1.133794	1.509973	10.013337	-7.921925	-1.566407	-0.660377	0.520453	0.049427	-1.166382	5.116911	0.342733	13.435798	150.171838	-283.468423	-96.462316	-0.012008	-0.216141	-0.078051	8.367662	2.363244	0.413004	20.342788	-4.589791	-8.235985	-1.118131	0.055959	0.892056
-1.718939	1.335004	9.423341	-6.338891	-1.51852	-0.482127	0.506171	0.066417	-1.168484	4.901905	1.378467	11.129704	151.630692	-279.244689	-87.614216	-0.018012	-0.228148	-0.060039	8.195479	2.479115	0.353059	19.60421	-4.404097	-8.978326	-1.146663	0.017812	0.929366
-1.376673	1.10222	9.31401	-5.914205	-1.242952	-1.214324	0.50899	0.103188	-1.170693	4.932516	1.32344	9.714888	157.198439	-266.60149	-77.78816	-0.036023	-0.210137	-0.054035	7.796648	2.595704	0.345701	18.374951	-4.532954	-7.513819	-1.110599	0.015701	0.898085
-1.304759	1.452237	10.067584	-5.273551	-0.677077	-1.053516	0.524682	0.104585	-1.169695	4.749769	2.470714	9.178597	153.906864	-252.505301	-61.950666	-0.042027	-0.222145	-0.036023	8.251523	2.362946	0.296567	18.09898	-4.73704	-6.378895	-1.147516	0.045323	0.885939
-1.254563	1.799599	9.722676	-5.146944	-0.588077	-1.05287	0.5355	0.071462	-1.202808	5.533903	0.120658	8.43097	149.799213	-223.493647	-44.07768	-0.018012	-0.216141	-0.024016	8.317488	1.785708	0.69471	18.348218	-5.764713	-2.989316	-1.115005	0.056463	0.8625
-0.89543	1.859125	10.481266	-4.377761	-0.091192	-0.592359	0.485605	0.030501	-1.203593	7.846516	0.228661	8.239318	140.828425	-213.914937	-36.397401	-0.048031	-0.216141	0.018012	8.767846	2.131125	0.476929	19.39687	-6.862265	-0.419658	-1.111026	0.029456	0.876371
-1.084128	1.218726	9.609078	-3.89073	-0.037158	-0.998986	0.519808	0.070066	-1.203806	7.053559	-1.028879	7.931338	122.794982	-201.309907	-36.850114	-0.048031	-0.204133	0.012008	9.219115	2.013371	0.257044	20.352642	-7.685543	2.173698	-1.08254	0.035339	0.899577
-1.252975	1.335398	9.779373	-2.460411	0.107881	-0.874233	0.510279	0.061911	-1.095844	-9.784159	-1.942047	1.593399	124.037084	-169.178513	-33.287918	-0.054035	-0.210137	0.036023	9.334242	1.955509	0.316126	22.137282	-7.999548	4.17857	-1.083013	0.01683	0.938381
-1.705445	1.568852	10.117677	-1.338601	0.29221	-0.771092	0.503734	0.049157	-1.18554	-17.996595	-9.294186	-6.808919	134.494163	-2.717036	-2.928925	-0.066043	-0.216141	0.054035	9.847858	1.954749	0.383354	23.428779	-7.827364	6.047163	-1.147989	0.026815	0.924743
-1.312983	1.68343	9.663439	0.032855	0.719435	-0.908382	0.476196	0.082009	-1.171585	-7.530416	-0.698343	7.591476	25.146721	80.329923	82.206791	-0.060039	-0.204133	0.060039	10.586766	2.0688	0.341429	24.318157	-6.781905	6.547632	-1.114151	0.028952	0.905927
-1.258412	1.044486	9.489601	1.668769	0.582903	-0.861199	0.508607	0.083676	-1.151429	-6.477442	-6.833325	8.5659	66.393961	192.378656	70.535304	-0.060039	-0.198129	0.072047	11.204246	2.007549	-0.103182	24.282938	-4.96294	5.771242	-1.099009	0.036647	0.90044
-1.542091	1.219311	9.657749	3.317762	0.752162	-0.679529	0.526091	0.12297	-1.1708	-3.979482	-6.555478	9.262207	66.129229	203.198985	65.555926	-0.060039	-0.198129	0.042027	11.658325	2.180065	-0.150476	24.06325	-3.227802	4.292361	-1.064318	0.011273	0.925052
-1.701404	0.930802	10.289584	5.585781	0.57718	-1.32125	0.510399	0.121574	-1.171798	-3.049822	-6.670017	7.569878	63.245317	203.397866	40.870464	-0.072047	-0.192125	0.042027	11.553903	1.95081	0.302958	22.765956	-1.054621	1.298869	-1.085666	0.034835	0.929133
-0.855886	1.392492	9.556255	6.430674	0.907234	-0.044292	0.554656	0.088992	-1.166595	-2.479967	-6.037005	4.866706	28.379669	182.399592	19.164291	-0.066043	-0.198129	0.024016	11.083375	2.121992	-0.447462	20.976752	1.029581	-2.306944	-1.133746	0.029756	0.936346
-1.363068	1.219983	10.008067	4.604879	0.567305	-0.931631	0.491888	0.083406	-1.170587	-2.599164	-5.062388	4.685807	-20.678818	173.542071	4.403784	-0.066043	-0.192125	0.03002	10.456327	1.891395	-0.517994	18.080438	3.246122	-5.432461	-1.099909	0.031893	0.91753
-0.970885	1.624774	9.554528	5.332207	0.82071	-0.602361	0.525709	0.103458	-1.151535	-3.190665	-4.261465	6.442438	-50.725721	179.280327	-9.897127	-0.054035	-0.186121	0.018012	10.624575	1.48499	-0.687732	15.123593	5.225125	-7.054124	-1.134219	0.011247	0.975149
-1.596106	1.277829	9.83019	6.076141	0.580046	-0.202099	0.489451	0.066146	-1.187642	-3.455855	-3.173986	7.556079	-59.628459	199.800251	-20.187713	-0.048031	-0.198129	0.006004	9.830975	1.371579	-0.532749	12.751092	7.150909	-8.732594	-1.081214	0.026336	0.904201
-1.540473	1.916103	9.775056	6.741	0.835498	0.098182	0.475814	0.062497	-1.15232	-3.054252	-2.259312	8.034062	-58.133796	229.953289	-24.613442	-0.054035	-0.186121	-0.012008	9.887361	1.08172	-0.590029	10.688301	8.265452	-9.167151	-1.116378	0.033201	0.918393
-0.853377	1.160601	9.671325	7.002173	1.165546	0.227767	0.505143	0.067543	-1.186644	-2.267538	-1.459401	7.929854	-54.4316	259.246475	-24.012516	-0.036023	-0.192125	-0.024016	9.605341	1.430456	-0.422807	9.610933	8.828189	-8.757789	-1.08164	0.040092	0.882487
-1.198794	1.102752	9.606513	5.94336	1.104288	0.005944	0.519808	0.070066	-1.203806	-0.911134	-1.807144	7.897542	-59.159937	281.591841	-18.82141	-0.018012	-0.186121	-0.036023	9.495527	0.504867	-0.315081	9.241497	9.063854	-8.428795	-1.098582	0.022891	0.922154
-1.419758	1.684519	10.065857	7.335234	1.581972	0.664784	0.488424	0.067273	-1.205802	0.242545	-1.239964	9.275264	-71.619084	293.681808	-11.132837	-0.024016	-0.192125	-0.054035	9.388273	1.143795	0.085204	8.964749	9.196474	-7.271093	-1.093703	0.000637	0.918935
-1.197231	1.857586	9.723959	7.44333	2.323034	0.295381	0.460122	0.061101	-1.153318	1.336018	-1.989628	10.241233	-84.517495	295.972959	-4.211874	0	-0.192125	-0.066043	9.614135	0.969125	-0.025264	9.364036	9.410959	-6.937477	-1.09323	0.019146	0.880132
-0.792029	1.799574	9.905265	8.674449	2.808599	0.683332	0.491243	0.104044	-1.208012	2.585627	-1.879401	10.618937	-95.695639	291.68691	1.049908	0.006004	-0.174113	-0.078051	9.611211	0.736751	-0.197592	9.640603	9.502691	-6.693432	-1.09503	0.009639	0.914312
-1.142938	1.508855	9.550819	10.718713	3.813772	2.0512	0.474787	0.063623	-1.17048	3.3194	-2.282461	10.515773	-108.822716	284.091296	6.355483	0.036023	-0.168109	-0.090059	9.162866	1.086879	0.19462	10.471434	9.235263	-6.56042	-1.080787	0.012581	0.925915
-0.906916	1.91577	9.903258	11.496803	4.273968	2.937834	0.473759	0.06475	-1.18864	4.019495	-1.59923	11.825599	-123.31934	275.31119	11.634669	0.036023	-0.162106	-0.132086	9.669383	1.25823	-0.079916	11.426616	8.333869	-6.962581	-1.09503	0.009639	0.914312
-1.251412	2.090232	9.896819	10.945436	4.707137	3.885521	0.473115	0.085388	-1.226065	4.531431	-1.601069	12.012379	-135.635148	264.88207	16.944845	0.048031	-0.168109	-0.132086	8.993947	1.261435	0.306214	11.951438	7.342015	-7.823746	-1.065218	0.00652	0.942142
-1.427593	1.509413	9.660734	8.888811	5.03613	4.100718	0.536145	0.050824	-1.165384	4.377618	-0.685605	13.010498	-149.417318	253.827093	25.234073	0.060039	-0.162106	-0.13809	9.155312	1.490577	-0.146093	13.123472	5.79418	-7.84272	-1.130194	0.016504	0.928504
-1.424386	1.742003	9.834737	7.900758	5.200947	5.261687	0.518781	0.071192	-1.221966	4.50016	-0.228621	13.601861	-159.713975	241.590043	38.324782	0.060039	-0.144094	-0.168109	8.708104	1.261741	0.243491	14.511307	4.004233	-7.885505	-1.08036	-0.001175	0.947628
-0.973226	1.682537	9.439038	5.281856	5.158433	4.435957	0.502324	0.030771	-1.184435	4.51237	1.144874	14.484427	-165.796872	231.661718	59.562806	0.066043	-0.144094	-0.162106	8.878491	0.913759	0.1882	15.159806	2.89745	-7.091704	-1.077234	-0.000671	0.918073
-1.13739	1.683682	9.840312	3.431758	5.017111	4.871407	0.473377	0.045238	-1.169376	4.369764	1.944739	16.07275	-164.058973	227.582939	89.656351	0.096063	-0.114074	-0.186121	9.050333	0.971577	0.248934	16.914548	2.053126	-6.542731	-1.096829	0.000133	0.948491
-1.366022	1.916215	9.894114	4.843108	5.971361	4.388095	0.530245	0.017431	-1.217655	4.31951	3.49079	16.658924	-151.622134	229.103415	126.347252	0.102066	-0.120078	-0.192125	8.603342	1.206175	0.697713	17.622607	1.827801	-5.218516	-1.111971	-0.007561	0.953978
-1.01885	1.335734	10.015204	5.950604	6.522947	4.690023	0.502324	0.030771	-1.184435	5.556718	4.117663	16.445713	-134.488844	231.746104	166.227639	0.114074	-0.10807	-0.192125	8.771362	0.915563	0.528501	18.359819	2.331218	-3.421684	-1.12934	-0.011007	0.971931
-1.482584	1.393663	9.774941	7.738006	7.262445	3.3944	0.471967	0.026852	-1.168271	8.050225	4.796861	16.964309	-124.394965	227.458482	201.123852	0.126082	-0.096063	-0.198129	8.936901	0.740219	0.24563	18.081806	3.066884	-1.605123	-1.110645	-0.016564	0.958602
-1.137668	1.973896	9.841011	10.036244	7.539784	3.412282	0.503351	0.029645	-1.166275	13.4784	5.467602	17.303409	-108.283669	212.730832	211.346868	0.10807	-0.078051	-0.210137	8.608996	0.049036	0.863732	18.141872	3.894586	0.486371	-1.09503	0.009639	0.914312
-0.904519	1.799964	10.018608	13.334018	7.219832	4.665384	0.490479	0.06502	-1.169482	18.21398	5.855348	16.803975	-87.920029	194.097946	195.90606	0.144094	-0.090059	-0.204133	8.420806	0.856247	0.064743	17.894851	4.590911	2.915675	-1.110645	-0.016564	0.958602
-1.429348	2.147743	9.604456	12.757987	7.51529	2.124198	0.547991	0.016575	-1.180336	22.153408	5.329511	15.877951	-59.870749	183.917162	157.678192	0.132086	-0.054035	-0.216141	8.473597	0.102165	-0.223009	17.618121	4.856396	5.446539	-1.079506	-0.028686	0.991056
-1.76604	1.336318	9.942531	11.832433	8.950536	0.249344	0.467477	0.011845	-1.221647	26.293558	3.831661	13.423995	-19.604929	180.491703	100.933791	0.162106	-0.048031	-0.216141	7.959639	0.276616	-0.289449	17.157878	4.826993	9.114835	-1.079034	-0.010177	0.952252
-1.138199	1.335286	9.781659	15.564576	10.294093	0.58253	0.50027	0.033024	-1.220755	28.202792	2.171118	9.45296	8.048965	171.66419	35.373123	0.174113	-0.060039	-0.210137	8.528731	0.449167	-0.277398	16.881858	4.894079	12.628913	-1.097302	-0.018376	0.987295
-1.652907	1.858451	9.88826	15.146982	10.878941	-0.880927	0.547608	-0.002937	-1.161072	28.875926	0.971852	5.929208	5.198228	147.655342	-27.497836	0.192125	-0.066043	-0.222145	8.358914	0.507668	-0.223421	16.484134	4.408854	16.093929	-1.048749	0.005212	0.941279
-1.37065	1.973699	9.662995	15.913851	11.238263	-1.648374	0.499123	-0.025512	-1.162961	27.878787	1.49363	4.021816	-29.539639	106.968552	-76.028685	0.216141	-0.060039	-0.234152	8.926993	0.62206	-0.268725	16.054951	4.148675	18.819526	-1.079034	-0.010177	0.952252
-1.48445	2.148078	9.718943	12.867357	12.584298	-4.148747	0.516607	0.013782	-1.182332	24.539662	3.737887	4.071745	-69.811989	56.505475	-105.424351	0.210137	-0.066043	-0.252164	8.689755	0.851998	-0.728916	14.642298	3.612302	20.751071	-1.130666	-0.002004	0.967307
-1.764088	1.684853	10.058999	12.876201	13.237685	-4.67218	0.51558	0.014909	-1.200493	23.344461	13.812687	11.344907	-119.977449	-16.729382	-114.611335	0.210137	-0.060039	-0.240156	9.086219	0.792779	-0.835479	12.828811	3.399255	21.204999	-1.111545	-0.021317	0.975692
-1.360195	1.800829	10.182909	16.536242	17.766564	-5.214901	0.512761	-0.021863	-1.198283	17.491926	9.651955	8.880386	-14.225248	-38.078587	-124.844753	0.204133	-0.042027	-0.24616	9.379831	0.85221	-0.372848	10.430335	3.544549	21.800384	-1.058112	-0.019984	0.926457
-1.866933	1.163978	10.633603	0.253927	18.156897	-8.937244	0.50015	-0.026638	-1.144801	13.019938	11.26981	8.673699	39.404549	-75.787931	-91.93857	0.228148	-0.03002	-0.24616	9.844399	0.274176	0.033178	7.970612	3.489485	21.390869	-1.111072	-0.002808	0.936888
-2.306718	1.282884	11.60759	-8.587997	34.376237	-11.391789	0.504379	0.028519	-1.148115	7.869468	12.598242	11.462401	81.836166	-86.445829	-53.559788	0.222145	-0.054035	-0.228148	9.666015	0.678215	-0.310913	5.726045	3.441604	20.676519	-1.096402	-0.013623	0.970205
-1.240093	2.207715	10.475247	-13.775218	52.488282	-17.552913	0.517251	-0.006856	-1.144908	-0.009881	3.985561	2.537834	147.358397	-118.808579	19.998029	0.216141	-0.060039	-0.24616	9.843716	0.621554	0.034756	4.620609	2.870824	21.050802	-1.129767	0.002749	0.950217
-1.535075	3.200923	13.014614	-19.598831	40.542204	-10.724034	0.515197	-0.004604	-1.181228	-3.911824	0.66526	7.953585	3.804417	-140.809951	83.847615	0.198129	-0.066043	-0.228148	10.289456	1.023816	-0.411132	4.839168	1.54327	21.908484	-1.08126	-0.005928	0.964718
-1.096266	2.907749	11.982393	2.352932	59.63491	-17.551128	0.550045	0.014323	-1.144016	-6.349448	0.111794	35.038071	89.548418	-118.91679	45.662512	0.186121	-0.060039	-0.228148	10.866648	1.661642	0.05976	7.549436	-0.010307	25.628923	-1.114624	0.010443	0.94473
-0.753286	4.075312	14.881642	-26.431041	78.624943	-26.231927	0.567529	0.053617	-1.163388	-0.371413	0.536758	9.968166	213.735598	-129.574412	33.30377	0.168109	-0.054035	-0.222145	12.456327	1.773198	-0.136548	8.812397	-0.092807	34.322711	-1.099482	0.018138	0.939244
-2.564441	1.809179	13.106316	11.378412	97.594838	-25.343355	0.538582	0.068083	-1.148328	5.113944	9.413136	2.450074	115.445668	-119.337885	29.557686	0.174113	-0.066043	-0.204133	12.783676	2.174636	-0.813057	8.719386	-0.29504	29.281024	-1.145809	-0.009699	0.972794
-1.391461	1.978226	11.511925	2.084822	109.514061	-25.274752	0.581046	-0.002396	-1.122756	8.175002	3.436116	8.181153	49.460565	-79.597649	42.90517	0.162106	-0.078051	-0.222145	13.296279	2.115715	-0.803183	9.673651	-1.551585	21.822741	-1.131566	-0.006758	0.984397
-1.197993	3.606049	12.675562	-13.718945	121.076683	-29.343877	0.571637	0.049112	-1.090747	7.492875	-1.836023	10.182372	57.322345	-53.556277	4.49437	0.144094	-0.096063	-0.216141	12.949659	2.346932	-1.037258	8.384047	-3.18911	13.382344	-1.102181	0.003878	0.990513
-1.992203	2.330868	13.061189	-8.751952	137.041644	-30.792582	0.611786	0.021035	-1.158184	1.582992	1.220332	8.824977	55.956174	-42.730538	-20.073853	0.13809	-0.090059	-0.198129	13.457644	2.344857	-1.25549	5.556428	-4.35034	6.665651	-1.087465	0.025328	0.963313
-2.16551	2.330895	12.999945	-16.421627	154.046535	-31.83713	0.567791	0.013467	-1.106698	1.119692	1.680949	8.28447	40.127583	-38.788788	-9.138655	0.144094	-0.102066	-0.192125	12.65616	2.229605	-1.500152	1.220465	-4.868326	-1.297649	-1.132893	0.002245	0.979773
-2.440687	1.984314	13.57154	-20.565364	170.987665	-32.784789	0.617304	0.034916	-1.086649	2.390032	0.300049	9.549816	33.234427	-35.749316	-2.944684	0.132086	-0.090059	-0.186121	11.80473	1.421025	-1.463634	-2.378384	-4.876983	-7.862097	-1.116424	0.000937	0.97891
-3.115214	0.361324	14.189874	-19.16403	192.194467	-27.364163	0.684945	0.075021	-1.048546	3.018778	0.125688	9.916075	34.758243	-25.617255	-15.083706	0.126082	-0.096063	-0.192125	10.959943	0.671918	-1.0843	-5.237015	-4.863304	-4.972137	-1.133792	-0.002508	0.996863
-2.874175	0.304456	14.772454	-16.001123	209.445356	-24.43946	0.69808	-0.000504	-0.988649	2.669029	0.414087	9.378046	18.074507	-14.225581	-13.097425	0.13809	-0.096063	-0.186121	10.899041	1.539952	-1.195667	-6.312555	-4.956897	-3.691158	-1.098155	0.009135	0.943868
-3.255596	0.597574	15.805817	-11.847005	224.625078	-15.970289	0.715182	0.019278	-0.988756	2.605308	0.644036	9.022552	18.281254	-13.280009	-12.333404	0.144094	-0.102066	-0.180117	10.960831	1.367201	-0.966961	-6.928452	-4.508321	-3.460189	-1.110645	-0.016564	0.958602
-3.198739	-0.041091	15.747608	1.736915	245.842228	-5.429736	0.748358	0.059969	-1.007129	2.731429	-0.102122	9.616047	19.805126	-8.00323	-4.045548	0.13809	-0.10807	-0.204133	10.227439	1.31236	-0.639312	-7.852335	-3.927335	-4.151508	-1.11775	0.009939	0.974286
-2.519559	0.30538	15.299644	8.474062	259.392813	4.623107	0.769568	0.075246	-0.934595	2.829042	0.70085	8.908797	28.220891	-7.364501	-5.206722	0.132086	-0.102066	-0.174113	10.073037	2.127457	0.274464	-7.485994	-3.008066	-5.914234	-1.098155	0.009135	0.943868
-2.459187	0.770085	15.47535	11.21324	277.616845	11.846022	0.801596	0.057401	-0.895175	2.03828	0.531358	8.893889	23.420673	-6.761148	-6.291587	0.120078	-0.102066	-0.180117	9.211573	1.837841	-0.143389	-6.411574	-2.265064	-5.528075	-1.131993	0.006998	0.962683
-2.247922	0.767626	14.554885	14.1856	295.717921	18.630665	0.786932	0.054878	-0.878012	2.101107	1.33247	9.365555	20.302564	-5.354266	-4.542729	0.132086	-0.10807	-0.186121	8.751738	2.301134	-0.321573	-5.21662	-0.693716	-7.179135	-1.113725	0.015197	0.927641
-1.449419	2.333581	14.401215	16.870921	308.155018	21.002773	0.868855	0.077994	-0.837807	2.388839	0.701096	9.549106	18.258472	-5.675176	-3.901815	0.13809	-0.102066	-0.180117	8.702109	2.59257	0.07826	-3.71539	1.372722	-8.901214	-1.148462	0.008306	0.963546
-2.55688	4.654529	13.633496	25.164876	318.039221	14.151693	0.920684	0.05704	-0.724748	1.867763	1.219277	8.948411	14.710904	-5.286045	-3.717002	0.132086	-0.10807	-0.174113	8.128399	2.476863	-0.161897	-2.398606	3.409384	-10.83771	-1.114198	-0.003312	0.966444
-4.20108	4.245177	11.692628	33.846724	318.293499	5.459981	0.940485	0.053931	-0.65111	2.101213	0.931524	9.307266	13.237533	-5.660326	-4.274652	0.126082	-0.10807	-0.186121	7.998745	2.47341	-0.963439	-1.664443	5.03659	-10.443294	-1.129767	0.002749	0.950217
-3.248539	3.25457	10.495572	15.190789	324.595053	4.542374	1.023436	0.075921	-0.592744	1.869702	0.932714	9.007918	11.912247	-5.225467	-3.796819	0.132086	-0.102066	-0.186121	7.372938	2.18518	-0.977143	-0.500021	6.731741	-10.139899	-1.11865	0.005186	0.991376
-4.186156	2.034049	9.433684	1.081791	319.006884	-1.127373	1.02408	0.055282	-0.555319	2.442162	1.044883	9.431583	10.782331	-5.39363	-3.828344	0.132086	-0.096063	-0.174113	7.432247	2.127695	-0.862095	0.847949	8.880732	-9.295495	-1.131139	-0.020513	1.006111
-6.004932	1.515541	10.263073	-31.071141	310.994333	-1.516996	1.093393	0.073623	-0.461632	2.098635	0.702659	9.130671	9.480018	-4.601254	-2.493984	0.10807	-0.10807	-0.180117	7.044236	1.899272	-0.357201	1.150515	11.15511	-7.450286	-1.118604	0.037451	0.930859
-5.206837	0.882637	12.878059	-37.309802	300.783206	4.965832	1.016223	0.025364	-0.391772	1.98355	1.390509	9.12728	11.434309	-4.873835	-3.015172	0.120078	-0.10807	-0.180117	7.2764	1.957765	-0.124064	0.869502	13.257692	-4.839604	-1.115524	0.00569	0.96182
-7.703272	1.055664	11.383961	-11.433538	288.751218	23.843592	1.10161	0.064613	-0.316351	2.040176	0.989393	9.070077	10.389973	-4.196055	-2.068405	0.132086	-0.114074	-0.180117	7.610961	2.129194	-0.459071	0.3738	15.195746	-1.64517	-1.100428	-0.01888	1.016851
-5.856087	1.751793	12.000361	-32.347811	243.722434	18.335822	1.049661	0.025904	-0.353456	2.263975	1.38986	9.014713	9.977859	-3.90876	-1.880475	0.144094	-0.120078	-0.174113	8.970057	1.950935	-0.832475	-0.550586	16.311857	0.831945	-1.099955	-0.000371	0.978047
9.907398	-1.86481	11.207535	-17.69735	225.965417	29.299923	1.106363	0.039469	-0.206286	1.978117	1.391017	8.832279	10.171169	-3.960712	-1.643598	0.126082	-0.114074	-0.186121	9.027	1.950821	-0.831348	-1.658623	17.00704	2.614365	-1.12934	-0.011007	0.971931
11.624129	-5.320286	-0.78732	58.545385	124.352863	54.490431	1.074979	0.036676	-0.208282	2.27335	1.159878	9.48712	10.773146	-4.29488	-1.686913	0.13809	-0.120078	-0.186121	9.426388	2.123977	-0.765584	-3.227338	17.295107	2.538082	-1.083486	-0.001679	0.977184
3.688119	-7.005124	-4.763735	-48.001695	-12.12712	30.847723	1.108418	0.037216	-0.169966	2.04007	1.390339	9.128366	9.649291	-4.203813	-1.918362	0.114074	-0.114074	-0.174113	9.036249	1.257904	-0.434858	-3.964329	16.837173	1.810708	-1.115524	0.00569	0.96182
5.548641	-2.099515	8.346144	-64.148098	-206.278166	38.81145	1.091316	0.017434	-0.169859	2.334152	0.815649	9.665816	9.292196	-4.367158	-2.070381	0.120078	-0.114074	-0.180117	10.054903	2.181147	-0.638748	-4.670191	16.628104	4.992554	-1.084385	-0.006432	0.994274
7.728655	-1.572203	11.280431	-51.659058	-194.017325	54.728674	1.13813	0.061774	-0.223555	2.037833	1.046889	8.951975	9.156681	-4.020779	-2.043238	0.120078	-0.10807	-0.168109	10.001566	2.066257	-0.469123	-4.885321	16.594352	5.022765	-1.131566	-0.006758	0.984397
5.828835	-2.216717	8.004691	-45.893164	-205.439114	61.885979	1.083361	-0.013706	-0.258451	2.039942	0.703033	9.011584	8.769679	-4.251494	-2.074874	0.126082	-0.114074	-0.162106	10.402092	1.660449	-0.405988	-4.57644	15.905016	4.245218	-1.16583	0.004861	0.981499
6.669447	-1.40733	7.040941	-49.313477	-197.57154	67.33425	1.068434	0.023922	-0.297978	2.155218	1.046142	9.190149	8.993739	-4.002689	-2.252488	0.126082	-0.102066	-0.162106	10.525113	1.025201	-0.006982	-3.160477	15.107175	3.445553	-1.099955	-0.000371	0.978047
6.189211	-0.828973	5.992529	-61.466856	-197.35262	68.243664	1.082072	0.027571	-0.3333	2.390565	1.216424	9.725193	8.634778	-3.872499	-2.076566	0.120078	-0.096063	-0.162106	10.296885	1.257242	-0.010435	-2.420512	14.227466	3.469933	-1.097729	-0.00462	0.965581
6.820845	-0.016848	6.064873	-82.323314	-205.081487	66.221271	1.108583	-0.004155	-0.365415	1.986065	1.275721	9.245483	8.496198	-3.689196	-1.905249	0.126082	-0.114074	-0.162106	10.63528	1.197874	-0.175217	-0.635144	13.275936	3.012246	-1.12844	-0.006254	0.954841
6.970332	0.741928	7.861233	-88.530588	-220.336587	54.615713	1.078226	-0.008074	-0.349251	2.264657	1.16069	9.015119	8.499264	-3.52612	-2.049423	0.126082	-0.120078	-0.168109	10.404572	1.545182	-0.292329	0.504152	12.554385	3.035105	-1.119077	0.018942	0.969663
6.298207	1.383161	8.716276	-79.234324	-239.421061	38.45004	1.043116	0.01315	-0.443152	2.321006	1.217812	9.016104	8.823998	-3.560605	-1.66168	0.120078	-0.126082	-0.162106	10.064152	1.488231	-0.242257	1.520501	11.883552	3.667817	-1.084812	0.007324	0.972561
5.113296	1.735101	9.733778	-66.49025	-256.90074	22.055409	1.007241	-0.00465	-0.498523	2.553774	1.159229	9.374553	7.556904	-3.346387	-1.756404	0.126082	-0.114074	-0.168109	10.530062	1.373894	0.280056	2.197376	11.732298	4.103147	-1.117277	0.028448	0.935483
3.346026	1.389967	10.275655	-58.479912	-266.37018	7.601036	0.97342	-0.024703	-0.517575	2.32923	0.644279	9.37112	7.708687	-3.974005	-1.771273	0.120078	-0.10807	-0.168109	9.95692	0.968705	0.038585	2.598442	11.181466	4.393337	-1.115051	0.024199	0.923017
1.797157	0.753	10.243257	-57.960545	-268.818251	-3.75781	1.008651	0.013736	-0.499628	2.384791	1.331516	9.429989	7.674825	-4.393368	-2.044177	0.126082	-0.10807	-0.156102	10.17929	0.851143	-0.242896	3.123067	10.467575	5.452582	-1.118177	0.023695	0.952573
0.604578	0.755706	10.855217	-61.697682	-267.582113	-10.554904	0.970721	-0.001812	-0.59132	2.095908	1.619338	9.129047	6.416652	-4.851772	-1.780609	0.126082	-0.102066	-0.156102	10.229134	1.023141	-0.583534	3.648182	9.325206	4.411445	-1.051448	-0.009048	0.992548
-0.981858	-0.285129	11.803549	-63.244164	-269.071741	-11.159945	0.937283	-0.002352	-0.629636	2.21455	1.561197	9.426323	6.754615	-5.721955	-1.477854	0.13809	-0.126082	-0.168109	10.061228	1.255857	-0.414585	4.327186	8.122518	3.433699	-1.066544	0.015522	0.937518
-2.703059	-0.747801	11.768142	-61.88315	-274.308818	-6.548765	0.938048	0.036672	-0.668165	1.990241	1.332608	9.481382	6.505506	-6.235512	-1.563547	0.126082	-0.120078	-0.162106	10.281686	0.96408	-0.81104	4.022546	6.816205	2.42248	-1.135119	0.006494	0.992239
-3.625564	-1.037684	11.517897	-61.347371	-281.772558	2.849547	0.923504	0.093811	-0.726957	2.20786	1.619099	9.07222	5.498699	-6.642051	-1.305791	0.120078	-0.114074	-0.162106	10.171292	0.907199	-0.642279	3.3782	5.987664	-0.100308	-1.131947	0.039262	0.902166
-4.00612	-0.454212	12.609774	-65.821968	-286.895649	12.891403	0.873991	0.072362	-0.747007	2.091156	1.390676	8.834452	3.595735	-7.082727	-0.863127	0.132086	-0.102066	-0.150098	9.838415	1.025778	-0.191773	2.272922	5.113725	-2.012843	-1.064791	-0.007236	0.963855
-3.924672	-0.509376	13.824887	-69.270176	-286.258978	20.517651	0.84017	0.05231	-0.766058	1.991327	1.332506	9.540383	1.820461	-7.265776	-0.68672	0.126082	-0.114074	-0.150098	9.9389	0.964499	-0.874889	0.090738	4.700161	-2.8102	-1.066117	0.001767	0.959232
-3.503969	-0.043048	14.816857	-70.034811	-276.299483	22.931684	0.825888	0.069299	-0.768161	2.380444	1.331922	9.193988	2.699173	-8.301169	-0.63055	0.114074	-0.114074	-0.150098	10.057861	0.675841	-0.645582	-1.968238	4.250211	-3.116687	-1.065218	0.00652	0.942142
-3.427316	0.1334	15.80127	-66.298802	-259.373296	17.823415	0.773676	0.070741	-0.861955	2.09921	0.874435	9.189367	0.555695	-8.407406	-0.435832	0.132086	-0.102066	-0.156102	9.662523	0.735323	-0.481927	-4.980354	3.819621	-3.459333	-1.111072	-0.002808	0.936888
-3.271907	-0.275162	14.9365	-61.80241	-239.839877	7.272841	0.790133	0.111161	-0.899486	2.618987	1.158246	9.847641	0.466769	-9.337209	0.156748	0.126082	-0.102066	-0.168109	9.479873	0.44329	-1.114634	-7.80762	3.26553	-3.584025	-1.080787	0.012581	0.925915
-3.617071	0.595812	14.931738	-69.62441	-222.647615	-8.520017	0.698156	0.160192	-0.945108	2.267576	1.274971	9.191916	2.343369	-10.187598	0.03399	0.126082	-0.120078	-0.156102	9.319168	1.025224	-0.544462	-10.296264	2.506034	-4.038572	-1.131566	-0.006758	0.984397
-4.588209	0.713402	15.143846	-81.087107	-211.049354	-26.838537	0.696364	0.122294	-0.924739	2.044523	0.988987	9.306078	0.328047	-11.031598	0.547575	0.114074	-0.114074	-0.162106	9.035805	0.910263	-0.493527	-12.110057	2.426009	-4.291151	-1.131047	0.044016	0.885076
-6.411947	0.600635	15.742953	-86.232324	-207.651343	-45.24562	0.607467	0.167945	-0.915881	2.443995	1.159265	9.54938	0.79247	-11.597991	-0.278233	0.120078	-0.126082	-0.156102	9.036932	0.910526	-0.436435	-13.984928	2.190162	-4.418104	-1.096829	0.000133	0.948491
-8.576918	0.836876	16.509486	-80.123653	-212.039992	-60.755912	0.659799	0.226166	-0.89804	2.374265	1.217946	8.84019	-1.424965	-11.650492	-0.448228	0.10807	-0.090059	-0.168109	9.253329	0.965339	-1.002589	-16.228309	1.76813	-4.695647	-1.115051	0.024199	0.923017
-11.569773	1.535304	16.047025	-84.539813	-219.229758	-69.07293	0.580312	0.22031	-0.921191	2.488455	1.561157	8.959755	-2.639023	-11.83862	0.54186	0.126082	-0.10807	-0.162106	9.257959	0.329267	-0.834204	-18.687181	1.440382	-5.312978	-1.086992	0.043837	0.924509
-15.924362	1.482328	16.306907	-93.034119	-226.291493	-69.588767	0.504027	0.270737	-0.965815	2.15362	1.218121	9.130844	-3.92381	-13.073021	1.961859	0.10807	-0.096063	-0.156102	9.025681	0.32867	-1.067077	-21.08376	0.937935	-4.427229	-1.119503	0.032697	0.947949
-19.346938	2.53309	17.339324	-87.237926	-232.83571	-61.227195	0.490389	0.267087	-0.930492	2.498235	1.560243	9.490756	-5.387069	-14.802711	3.480171	0.120078	-0.10807	-0.156102	8.908074	0.501799	-1.239818	-23.849074	0.503863	-2.26047	-1.08254	0.035339	0.899577
-23.772687	2.536536	16.904427	-59.21264	-231.892194	-44.74518	0.431205	0.337297	-0.975223	2.100936	1.389762	9.365454	-5.572242	-17.445082	4.769857	0.102066	-0.114074	-0.150098	8.795314	0.502289	-1.184978	-24.953619	-0.187425	0.043505	-1.099482	0.018138	0.939244
-26.846519	1.60675	15.164985	-19.654344	-215.954872	-21.564393	0.350308	0.313055	-0.997268	2.387305	1.216728	9.548192	-7.175895	-19.59209	7.224426	0.120078	-0.10807	-0.150098	8.570908	1.082759	-0.958486	-25.689278	-0.631388	4.576377	-1.100808	0.02714	0.93462
-28.746425	-0.140715	11.828775	17.666387	-182.531191	8.257901	0.337697	0.308279	-0.943786	2.842891	1.157768	9.733987	-6.586394	-23.461806	9.334229	0.114074	-0.10807	-0.156102	8.525238	0.506275	-0.448411	-25.132811	-1.432694	9.491406	-1.120403	0.027944	0.965039
-29.148309	0.033802	11.821194	-1.843897	-111.176306	40.473722	0.315078	0.274616	-1.015215	2.750776	0.697942	10.794629	-7.309662	-31.564828	13.13603	0.10807	-0.10807	-0.162106	8.471776	1.028508	-0.218803	-23.193721	-2.042404	12.971914	-1.05718	0.040718	0.95234
-27.149425	-0.099574	5.561394	13.572195	-28.78877	63.054176	0.275694	0.341717	-0.986308	2.690208	1.328532	10.674425	-12.60344	-43.360173	18.072077	0.120078	-0.102066	-0.156102	8.710812	1.030681	0.356624	-20.854322	-2.869002	16.948882	-1.102135	0.036143	0.929996
-23.43999	0.126465	4.595581	-22.572318	42.986134	77.775073	0.271083	0.267048	-0.963729	2.714689	1.498075	12.031125	-21.163847	-60.682207	21.937997	0.120078	-0.10807	-0.144094	9.286672	0.625583	0.651507	-18.270252	-3.275525	19.66348	-1.116378	0.033201	0.918393
-19.050614	4.19618	9.200638	-58.191879	103.751888	77.052801	0.288567	0.306342	-0.9831	2.986868	0.982707	11.38847	-12.991323	-78.866734	24.028031	0.090059	-0.090059	-0.162106	8.958755	0.513628	1.329329	-16.364776	-2.872601	20.948844	-1.132846	0.034509	0.919256
-13.190002	6.172116	12.674087	-13.262738	144.122652	68.808279	0.323415	0.325268	-0.945889	2.942664	1.955428	12.21166	-14.849096	-85.79185	21.241502	0.096063	-0.102066	-0.156102	9.077602	0.282866	1.558899	-14.184892	-1.486333	22.27404	-1.153341	0.03056	0.966765
-3.606665	11.445267	13.108939	53.458285	151.029863	34.31166	0.349926	0.293543	-0.978004	3.897381	2.182208	11.934726	-5.069471	-94.356736	17.803171	0.084055	-0.102066	-0.156102	9.014811	-0.181769	1.213117	-13.328107	0.347024	23.337091	-1.134173	0.043512	0.914632
14.550545	18.918824	14.991331	114.060378	152.994536	-49.34109	0.380927	0.276824	-0.956743	2.723511	2.184569	12.619908	-2.360993	-101.763828	14.016204	0.084055	-0.096063	-0.162106	9.180237	-0.299217	0.930509	-13.239598	2.20863	25.98561	-1.103934	0.026636	0.964176
13.717152	10.338759	18.825951	208.802609	89.408878	-170.457614	0.363181	0.27768	-0.994061	3.284359	2.18327	12.394774	2.766765	-113.808435	17.105222	0.072047	-0.102066	-0.162106	9.441416	-0.363202	-0.263058	-13.516201	2.845228	32.422034	-1.118558	0.069715	0.870342
0.266152	-3.016456	10.954906	121.807198	150.35656	-176.763788	0.380283	0.297462	-0.994168	2.900293	3.04253	13.152647	-3.058455	-128.996566	21.935506	0.060039	-0.114074	-0.144094	10.639239	0.329954	-0.064976	-14.986006	1.659553	45.040676	-1.101235	0.040896	0.912906
-9.296529	5.224306	6.45005	86.089522	175.714403	-119.809352	0.346079	0.257897	-0.993955	3.606928	1.892301	14.524721	-7.90957	-149.373545	29.39431	0.054035	-0.114074	-0.156102	12.127193	0.560422	0.365004	-12.148922	-1.126119	53.437984	-1.135499	0.052514	0.910008
-13.259716	4.719428	11.975673	50.555786	81.741147	-85.738731	0.357543	0.204137	-0.989643	4.800656	-0.402975	14.551601	1.223356	-168.571424	23.505945	0.060039	-0.102066	-0.144094	13.038934	1.948904	0.560609	-6.669624	-3.838612	54.967506	-1.119884	0.078717	0.865718
-6.185281	0.752993	6.905714	100.231344	81.617605	-11.395951	0.361771	0.259294	-0.992957	4.077706	0.743668	15.361447	6.173959	-187.52213	16.889041	0.03002	-0.102066	-0.150098	14.188357	3.455089	1.275074	0.430612	-4.088833	44.706394	-1.135926	0.06627	0.888295
-0.3734	3.477615	7.952759	37.369376	74.389761	27.940135	0.359979	0.221396	-0.972587	4.880762	0.797458	16.02556	10.15971	-207.779857	10.470164	0.018012	-0.10807	-0.144094	13.803621	2.706124	1.891787	4.108369	-1.201614	24.567684	-1.092771	0.061338	0.944818
-0.505143	1.857338	9.911119	22.36622	73.205017	24.305531	0.40911	0.223333	-0.933273	4.126321	0.114195	14.832649	20.032511	-229.047184	2.566949	0.018012	-0.102066	-0.150098	12.951178	1.839384	1.87095	4.065954	2.09644	8.740775	-1.105214	0.067903	0.899035
-3.309305	0.816135	10.199487	15.988252	60.835602	20.037188	0.436385	0.230632	-1.003918	4.642475	-0.575356	15.138647	18.7849	-246.303628	-5.8189	0.024016	-0.096063	-0.132086	11.968285	1.374467	1.050411	4.736205	4.334412	5.083554	-1.103415	0.07741	0.864855
-7.134219	-2.254304	10.982722	-74.17026	-54.28964	-6.323574	0.455159	0.228649	-0.948439	4.985129	-1.034921	15.26398	21.648499	-263.846273	-14.435061	0.012008	-0.096063	-0.114074	11.001398	0.21821	0.968915	6.119035	4.577336	4.320744	-1.176442	0.07688	0.944509
-3.226881	0.935239	11.472834	17.922182	-14.099583	-3.684112	0.471233	0.249558	-0.966706	4.940498	-1.37952	15.853504	24.045792	-282.511791	-33.091762	-0.018012	-0.114074	-0.10807	10.465929	0.445562	-0.182013	8.707965	2.426321	8.972165	-1.140805	0.088524	0.891513
-2.194608	-0.46611	8.484829	18.27854	-3.86602	-14.456559	0.417109	0.15344	-0.964177	5.689868	-2.643184	16.459865	30.556728	-298.895822	-52.311601	-0.018012	-0.114074	-0.114074	9.954668	0.968179	-0.075599	13.268024	-1.164477	13.178149	-1.156847	0.076076	0.91409
-1.693848	1.396121	10.695405	23.539132	-1.015599	-7.772334	0.453749	0.210263	-0.947335	5.073288	-3.271831	16.626029	40.798217	-315.257989	-73.153757	-0.03002	-0.10807	-0.10807	9.785636	1.200632	0.036258	16.473319	-4.372773	13.178025	-1.176396	0.109144	0.883991
-1.9413	0.987809	9.764819	34.290395	0.933058	-4.464143	0.43703	0.209993	-0.966493	4.048522	-2.237093	16.368642	61.81935	-326.736721	-93.243533	-0.03002	-0.132086	-0.072047	9.617843	1.375451	0.204944	17.770073	-6.599891	13.603638	-1.122583	0.064458	0.916988
-1.429823	1.451091	9.544965	28.358608	0.932581	-4.139837	0.43703	0.209993	-0.966493	3.629769	0.05732	15.471972	96.685645	-333.072977	-104.13665	-0.054035	-0.114074	-0.066043	10.024557	1.260702	0.611947	17.775469	-8.843856	14.083866	-1.124763	0.100971	0.868936
-1.492173	1.856887	9.313541	22.778749	1.023631	-2.139391	0.417229	0.213102	-1.040131	3.680571	2.353853	12.461076	128.754459	-332.317722	-102.346369	-0.066043	-0.126082	-0.03002	9.617036	2.359953	0.266505	17.132984	-10.470354	11.640873	-1.141705	0.08377	0.908603
-1.609013	1.624548	9.195066	13.959207	0.843578	-3.373435	0.468414	0.212786	-0.964497	3.979589	1.955641	10.2263	125.689485	-323.876448	-83.288454	-0.060039	-0.13809	-0.024016	9.449584	2.361082	0.434403	15.445355	-12.176491	9.561091	-1.162199	0.079821	0.956112
-0.79649	1.682929	9.673726	7.680703	0.103862	-2.337816	0.435358	0.231758	-1.022078	3.902977	1.041264	8.987834	105.967424	-315.008506	-68.920173	-0.060039	-0.150098	-0.024016	9.564256	2.534807	0.494536	12.649291	-13.169212	8.039885	-1.160827	0.103083	0.900218
-1.36934	1.799711	9.72039	2.130064	-0.158816	-3.897407	0.460077	0.162134	-1.033823	5.31326	3.041934	9.188448	101.762329	-306.843841	-50.772359	-0.078051	-0.126082	0.006004	9.84672	2.533712	0.385983	10.58979	-13.758269	4.708798	-1.160827	0.103083	0.900218
-1.480464	1.56807	9.89099	4.760099	0.392379	-1.981514	0.402565	0.210579	-1.022969	5.128125	2.0702	8.183911	92.669519	-287.71697	-24.389637	-0.066043	-0.144094	0.036023	9.902423	2.591232	0.33028	8.59022	-13.833911	-0.132576	-1.121637	0.101475	0.839381
-0.910012	1.567095	9.728975	2.690445	0.025646	-2.680796	0.416847	0.19359	-1.020866	8.45794	0.399577	7.719965	61.519632	-279.63446	-7.810199	-0.078051	-0.150098	0.036023	10.59002	2.706711	0.572689	7.60428	-13.522412	-5.436355	-1.138152	0.070519	0.900761
-1.256516	1.451064	9.606208	3.248846	0.43087	-1.852333	0.446821	0.177997	-1.017766	1.663792	-3.6455	6.298772	25.125446	-257.723873	-11.29428	-0.078051	-0.150098	0.054035	10.356616	2.705852	0.282724	7.016806	-12.79209	-11.787753	-1.157747	0.071323	0.93118
-1.081954	1.335091	9.724987	2.796263	0.311131	-1.204753	0.431774	0.155962	-0.981339	-15.99589	-7.011195	-5.181943	77.21502	-104.434024	-30.461949	-0.090059	-0.150098	0.054035	10.975904	2.297486	-0.106373	6.797279	-11.41367	-16.072445	-1.137299	0.043008	0.944188
-1.201358	1.392686	9.491582	2.032212	0.357922	-0.879078	0.415055	0.155692	-1.000497	-15.302001	-6.452157	1.907929	-7.92338	90.75425	38.519956	-0.072047	-0.150098	0.078051	10.585765	1.431414	0.224353	6.978492	-10.165796	-17.41565	-1.156847	0.076076	0.91409
-1.425251	1.45165	9.776224	0.457291	0.210995	-0.572644	0.417492	0.172952	-0.983442	-8.147998	-2.816085	7.465278	-13.333761	99.591019	49.693232	-0.078051	-0.132086	0.066043	10.913239	1.195728	-0.512139	7.619888	-8.617798	-20.01743	-1.159973	0.075572	0.943646
-1.366775	1.509777	9.835321	-0.051925	0.591656	-0.392109	0.448231	0.196383	-1.01887	-8.52529	-6.425025	7.877068	-8.87976	212.100892	49.794205	-0.084055	-0.13809	0.072047	11.029617	0.501007	-0.455948	7.063088	-7.211888	-20.236552	-1.122583	0.064458	0.916988
-1.535233	1.220149	10.004638	0.748441	0.383939	-0.266869	0.432157	0.175474	-1.000604	-5.287783	-6.665331	8.765415	-12.003002	211.880349	41.275193	-0.066043	-0.132086	0.054035	11.035134	0.560217	-0.170225	6.383736	-5.964391	-20.207961	-1.160446	0.057063	0.982449
-1.704889	0.988425	10.11628	-0.174437	0.625651	-0.3878	0.463541	0.178267	-0.998608	-3.544562	-4.77966	8.618751	-14.815279	223.066339	22.754818	-0.078051	-0.144094	0.054035	10.861153	0.443977	-0.345406	4.536123	-4.869151	-21.222094	-1.139052	0.065766	0.917851
-1.073143	1.684465	10.188344	0.877743	0.596785	-0.322319	0.442593	0.12284	-1.014452	-3.349656	-4.891983	6.912296	-31.467075	219.097119	8.397519	-0.066043	-0.120078	0.03002	10.235562	0.619181	-0.299914	1.674188	-3.692359	-20.31656	-1.141705	0.08377	0.908603
-1.47921	1.452125	9.948525	-0.224208	0.512383	-1.033012	0.425109	0.083546	-0.995081	-3.521601	-4.089377	6.907614	-52.219938	233.972051	-4.418463	-0.078051	-0.132086	0.018012	10.247609	0.795761	0.328889	-1.064236	-2.54034	-17.635732	-1.173789	0.058875	0.953756
-1.252697	1.045184	9.778675	0.680718	0.357785	-0.480248	0.396926	0.137036	-1.018551	-2.98203	-3.521032	8.686384	-59.981891	251.960298	-15.376015	-0.066043	-0.132086	0	9.909112	0.333799	0.434213	-3.341612	-1.562769	-17.273016	-1.142178	0.065262	0.947406
-1.259666	1.160431	9.432065	0.410636	0.579907	-0.434146	0.415437	0.175204	-1.019762	-1.784807	-2.609151	9.415582	-55.803101	272.292281	-25.536772	-0.036023	-0.150098	-0.012008	9.45277	0.739983	0.427043	-5.218555	-0.86067	-16.595888	-1.107913	0.053644	0.950304
-1.141739	1.450953	9.608494	-0.166155	0.356166	-0.97969	0.445412	0.159611	-1.016661	-1.04771	-2.668862	9.54781	-53.611479	290.600227	-32.911999	-0.03002	-0.144094	-0.036023	9.119449	0.51092	0.818879	-5.926751	-0.383044	-16.33549	-1.106587	0.044641	0.954928
-1.541868	0.98714	9.65719	-0.350178	0.48573	-1.092231	0.426518	0.101932	-0.996185	0.252879	-2.157353	9.689889	-56.883771	305.593854	-37.952061	-0.024016	-0.132086	-0.042027	9.512295	1.145933	0.601285	-5.7119	-0.254164	-16.58202	-1.15822	0.052814	0.969983
-1.196897	1.50933	9.723121	-0.566688	0.460237	-1.057572	0.444647	0.120587	-0.978132	0.711661	-2.560271	9.994294	-69.027148	313.901927	-41.212711	0	-0.156102	-0.048031	9.395258	1.029579	0.427231	-5.281801	-0.15147	-16.949133	-1.17199	0.068381	0.919576
-1.250467	1.103506	9.894444	-0.126626	0.506976	-0.82164	0.425491	0.103058	-1.014345	2.125459	-2.106396	10.138648	-86.916521	315.78476	-41.894124	0.03002	-0.13809	-0.060039	9.05056	0.855784	0.248408	-4.451591	-0.227758	-17.309945	-1.106587	0.044641	0.954928
-1.252808	1.16127	9.778954	0.070077	0.714802	-0.634425	0.445029	0.140099	-0.997397	3.089444	-1.708652	10.392411	-105.676653	312.41253	-42.479067	0.03002	-0.132086	-0.078051	9.55933	1.027661	0.088057	-3.222922	0.167892	-18.168954	-1.139098	0.033501	0.978368
-1.194555	1.451567	9.83861	0.012728	0.870595	-0.657222	0.431392	0.13645	-0.962074	3.783104	-2.514009	11.114874	-124.60635	307.048543	-42.319897	0.042027	-0.126082	-0.084055	9.223199	0.508327	0.307302	-1.440522	0.47297	-18.655842	-1.15642	0.06232	0.935803
-1.024565	1.335035	9.72613	-0.699211	0.733392	-0.493138	0.42831	0.139829	-1.016555	4.248428	-1.829285	11.948352	-141.421131	298.949881	-41.547431	0.066043	-0.126082	-0.090059	9.283407	0.566898	0.479967	-0.149358	0.548822	-18.558898	-1.142178	0.065262	0.947406
-1.197539	0.986806	9.664048	-0.690373	1.041731	-0.541802	0.442975	0.142352	-1.033717	4.203457	-2.059299	12.537673	-156.634106	289.180182	-38.127087	0.084055	-0.13809	-0.114074	8.758529	0.565031	-0.158183	1.541404	0.634582	-18.796495	-1.108813	0.04889	0.967394
-1.029026	1.218391	9.494592	1.843727	1.583758	-0.06027	0.44221	0.103328	-0.995187	4.034197	-1.428774	12.651297	-174.431271	277.9646	-30.624884	0.10807	-0.120078	-0.126082	8.948744	-0.125861	0.755516	3.325184	0.439279	-18.598852	-1.10526	0.035639	0.959552
-1.301052	1.162443	10.240329	3.521178	2.067339	-0.416433	0.426518	0.101932	-0.996185	3.432405	-0.45506	13.876621	-190.220003	267.705721	-17.014704	0.120078	-0.10807	-0.132086	8.259566	-0.010018	0.457066	4.895023	-0.227956	-17.749083	-1.121729	0.036947	0.960415
-0.791138	0.870891	9.903029	5.781923	2.990331	-0.248906	0.396544	0.117524	-0.999286	2.777246	0.919466	15.336149	-199.782657	258.543122	3.143608	0.156102	-0.102066	-0.132086	8.368265	0.336081	0.232527	5.972664	-0.80613	-17.118139	-1.135545	0.02025	0.970526
-1.127578	0.988288	10.301154	11.12646	4.960049	0.713414	0.376743	0.120633	-1.072924	2.747126	2.635465	17.043022	-198.573238	250.396803	31.80734	0.174113	-0.072047	-0.144094	8.54451	-0.12638	0.462172	7.020115	-1.547908	-15.810652	-1.139052	0.065766	0.917851
-1.194277	1.161354	9.837912	15.003994	6.179512	0.824132	0.397189	0.096886	-0.961861	2.918837	4.467601	17.456035	-190.449884	241.999913	68.966667	0.162106	-0.084055	-0.150098	8.147261	-0.241113	0.510854	7.359793	-1.9703	-13.90265	-1.135545	0.02025	0.970526
-1.141517	1.218782	9.607935	18.291609	7.039886	1.331397	0.425491	0.103058	-1.014345	3.552015	5.724738	18.291757	-180.332844	233.673597	110.767802	0.180117	-0.060039	-0.162106	7.918816	-0.472507	0.448206	7.729672	-1.987664	-10.352232	-1.157747	0.071323	0.93118
-1.196619	1.219117	9.722422	20.714353	7.64072	2.245835	0.429982	0.118065	-0.96097	5.827584	7.320281	19.394384	-164.721991	226.218862	145.865966	0.210137	-0.066043	-0.162106	8.483164	0.394013	0.292135	8.191957	-2.120153	-7.226899	-1.119503	0.032697	0.947949
-0.972083	1.682677	9.496853	18.315798	8.262181	1.992213	0.409799	0.101661	-1.015343	8.491331	7.769798	19.916645	-136.940988	221.659002	163.726966	0.204133	-0.066043	-0.150098	8.48735	-0.5897	0.40185	8.192977	-2.254247	-4.379317	-1.152487	0.003049	1.010192
-1.133263	2.148583	10.072689	14.409657	8.278981	1.596795	0.413645	0.137306	-0.999393	13.347024	7.240118	19.657009	-99.248772	221.208356	159.737379	0.198129	-0.078051	-0.168109	8.769234	0.277914	0.354333	8.039952	-2.346896	-2.389942	-1.134646	0.025003	0.953436
-0.624826	2.205146	9.678413	10.944344	8.749908	0.903959	0.440156	0.105581	-1.031508	17.390222	6.542977	18.202462	-58.93712	223.872816	136.163817	0.198129	-0.072047	-0.174113	8.995767	0.335093	0.302008	7.887053	-2.553541	-0.979054	-1.136872	0.029252	0.965902
-0.915029	2.030877	9.498834	8.82582	9.206072	0.942491	0.409417	0.082149	-0.996079	21.404251	5.791284	15.155011	-30.409668	222.54715	97.691868	0.216141	-0.066043	-0.186121	9.272259	0.506373	-0.091217	8.103264	-2.790824	0.740369	-1.157747	0.071323	0.93118
-1.134016	1.742144	10.013896	9.299235	9.971978	0.29039	0.377388	0.099994	-1.0355	25.257733	3.836454	12.401433	-14.282934	210.034871	49.672748	0.222145	-0.060039	-0.168109	9.109654	0.334865	0.304261	8.749897	-2.99487	2.644831	-1.132846	0.034509	0.919256
-1.41856	1.626616	10.123532	9.242229	10.051273	-0.927367	0.423699	0.06516	-0.993976	27.396902	3.434953	8.845512	-17.353342	182.142192	-2.6133	0.216141	-0.060039	-0.168109	9.459197	0.336023	0.710663	8.810884	-2.5647	4.684345	-1.15732	0.057567	0.952893
-1.589192	1.220624	10.176939	9.282861	11.20518	-2.103304	0.392315	0.062367	-0.995972	27.346427	4.699751	6.306271	-43.100144	136.492859	-47.449042	0.252164	-0.078051	-0.174113	9.388853	0.275086	0.024168	8.655011	-1.567788	5.516751	-1.109713	0.044137	0.984484
-0.966368	1.683376	9.785927	8.89643	12.228206	-4.160665	0.422672	0.066286	-1.012136	26.485403	6.593669	5.873621	-73.166938	82.991564	-78.701777	0.222145	-0.078051	-0.174113	10.184364	0.562712	-0.015842	7.484529	-0.637435	5.855895	-1.137299	0.043008	0.944188
-1.370093	1.393272	9.661597	8.136408	14.185975	-6.292973	0.394752	0.079626	-0.978917	24.520815	8.603042	6.894038	-74.158487	33.683604	-96.832301	0.240156	-0.072047	-0.162106	9.672329	0.332151	-0.02703	6.591295	0.026808	5.774522	-1.190685	0.073939	0.932905
-1.308244	1.509861	9.894279	7.208384	15.654112	-8.319147	0.39449	0.119777	-1.035606	22.548683	10.956778	7.559845	-45.201024	-2.9475	-102.403498	0.240156	-0.072047	-0.180117	9.386941	0.100871	-0.090805	4.897679	1.08283	5.46567	-1.15732	0.057567	0.952893
-1.412845	1.627315	10.412605	1.257544	21.522993	-11.664752	0.453411	0.089718	-1.047565	18.981945	10.796247	7.13769	-8.094009	-28.115614	-92.656008	0.24616	-0.066043	-0.174113	9.496551	-0.016201	-0.317446	2.496782	2.245486	5.639891	-1.150642	0.04482	0.915495
-1.793487	1.107836	11.444013	-8.700277	32.234572	-14.532842	0.424082	0.084672	-1.013241	16.268048	8.570734	6.676489	24.68933	-46.841857	-70.24589	0.252164	-0.066043	-0.168109	9.554393	0.099741	-0.258702	-0.02678	3.337616	6.33502	-1.171563	0.054626	0.94129
-1.444611	2.327097	11.742879	-18.186789	59.682824	-21.736136	0.420235	0.049027	-1.029192	9.812148	14.647329	16.037619	190.356418	-128.510755	-60.574177	0.240156	-0.054035	-0.174113	9.212517	-0.36301	-0.324655	-1.841064	3.655432	8.183524	-1.139098	0.033501	0.978368
-1.00173	2.556866	10.943175	-17.645309	71.186524	-26.379538	0.424464	0.104184	-1.032506	5.915604	-1.009435	-1.704163	159.56765	-142.091292	-3.816848	0.252164	-0.054035	-0.156102	9.271474	0.332421	-0.149098	-2.669834	3.306532	10.358611	-1.152014	0.021558	0.971388
-2.107227	3.782186	13.120211	-9.46774	79.91757	-20.745809	0.43631	0.069935	-1.047458	-1.591634	-1.398842	4.75787	-1.577279	-176.710134	59.846614	0.258168	-0.084055	-0.156102	9.843841	-0.015569	-0.025228	-1.897296	1.847791	12.26219	-1.155994	0.048565	0.957517
-0.369062	4.195954	16.912296	-50.678512	111.526038	-36.221219	0.444265	0.101075	-0.958867	-16.310686	-5.058862	27.129211	10.927149	-201.088723	52.795	0.234152	-0.060039	-0.150098	10.298136	0.620381	-0.013327	0.260372	-0.134917	15.531008	-1.138625	0.05201	0.939564
-2.60655	2.565746	13.916397	18.549929	126.337091	-30.903182	0.469366	0.050964	-0.989878	-12.680375	-7.663762	36.699091	234.039397	-169.187698	20.603556	0.210137	-0.066043	-0.150098	12.520255	1.658868	0.206605	5.216356	-1.624343	25.072753	-1.123909	0.07346	0.912364
-0.686703	1.638301	15.223804	-25.259689	145.024945	-37.558442	0.445674	0.119461	-0.959972	4.965777	10.286126	-5.457471	220.375735	-161.979094	14.084276	0.204133	-0.072047	-0.162106	13.425614	1.134404	-0.120293	5.24921	-2.191253	28.205408	-1.138625	0.05201	0.939564
-2.507319	0.655173	15.936445	-1.195103	168.878402	-33.392904	0.49134	0.105265	-0.955873	10.696345	10.480625	5.091644	67.659147	-117.398272	43.898259	0.210137	-0.078051	-0.150098	14.326081	3.099484	-0.435889	5.83484	-3.952885	17.300986	-1.172889	0.063628	0.936666
-1.552765	2.335089	14.977077	-0.279351	189.895459	-31.268544	0.538416	0.109455	-0.952879	11.296252	-0.469245	8.306822	55.003906	-105.560704	11.10094	0.192125	-0.096063	-0.144094	14.432073	3.676643	-0.773561	7.463525	-4.801876	5.646511	-1.162672	0.061312	0.994915
-1.308661	1.465903	15.67333	-7.754968	219.839744	-32.642176	0.540088	0.08769	-0.897294	4.599961	0.579255	9.945689	46.549747	-84.839109	-49.854868	0.174113	-0.096063	-0.150098	14.020421	2.863472	-1.527323	2.754228	-4.37039	-10.874275	-1.176915	0.058371	0.983312
-2.50166	0.713914	16.225659	-8.50622	248.542539	-30.437796	0.509087	0.104409	-0.918555	2.526587	2.994617	8.191301	23.723913	-75.01636	-56.124528	0.186121	-0.090059	-0.126082	12.998935	2.808412	-1.376582	-1.953524	-3.934854	-21.462178	-1.123483	0.059705	0.934078
-1.502112	0.773946	17.459339	-9.109465	272.260995	-24.285941	0.561036	0.143118	-0.88145	2.995575	0.987003	8.793549	14.844384	-65.114807	-45.241135	0.192125	-0.090059	-0.126082	11.574465	2.115974	-1.522077	-6.106439	-3.483014	-26.480811	-1.159546	0.061816	0.965359
-1.668005	0.194384	17.743587	-1.423268	295.002024	-16.75161	0.626503	0.125813	-0.803713	3.402041	-3.029666	11.816183	16.826099	-28.431501	-27.934786	0.180117	-0.10807	-0.144094	10.436055	1.886663	-1.545653	-8.200998	-2.333728	-31.35171	-1.175162	0.035613	1.00965
-2.365894	-0.909017	17.206883	9.093528	318.134179	-2.514875	0.643604	0.145595	-0.80382	2.310146	-0.619131	11.201272	26.698134	-11.287069	-4.506721	0.174113	-0.078051	-0.150098	9.592724	1.543357	-1.050295	-10.205029	0.088756	-31.082193	-1.14265	0.046753	0.98621
-1.144795	-0.850186	18.040432	12.910633	336.953035	8.954393	0.672814	0.090978	-0.76219	3.269394	-0.444941	8.093518	38.233894	-17.189781	-12.011337	0.186121	-0.102066	-0.13809	8.580589	1.316711	-0.443605	-12.485973	3.05737	-26.544449	-1.139098	0.033501	0.978368
-1.337726	0.54063	17.057506	27.671815	359.031385	22.253771	0.696198	0.163665	-0.72929	2.732451	-0.445876	9.616656	36.136791	-8.220096	-8.269043	0.186121	-0.090059	-0.150098	8.017686	1.435218	-0.111789	-14.612265	5.550114	-22.851375	-1.171136	0.04087	0.963004
-0.787343	2.394784	15.974927	31.245058	364.078266	22.559369	0.743919	0.147217	-0.688871	2.507694	-0.158935	9.729802	54.33039	-9.897701	-7.585274	0.192125	-0.102066	-0.114074	7.215634	1.609449	-0.355136	-15.23122	7.798515	-17.951683	-1.09457	0.051832	0.978997
-2.214139	5.118397	13.583657	59.157436	365.405968	10.520591	0.757437	0.091203	-0.648239	2.266467	0.18682	8.957844	55.449851	-9.893054	-9.140077	0.186121	-0.102066	-0.132086	6.872291	1.320123	-0.477392	-15.909549	9.451854	-10.163487	-1.136826	0.061516	0.905384
-0.581052	4.24223	11.995894	62.38312	354.10135	1.423159	0.811058	0.108147	-0.55555	2.096802	0.588277	9.012874	50.067661	-9.288015	-9.214732	0.180117	-0.10807	-0.10807	6.824801	1.669981	0.036888	-15.759925	11.978102	-2.69718	-1.155094	0.053318	0.940427
-3.299808	3.074154	7.893489	46.154426	355.756635	-9.460573	0.843851	0.129326	-0.554658	2.542844	0.816591	8.72616	45.034168	-8.696258	-7.572141	0.186121	-0.090059	-0.126082	6.637066	2.245606	-0.763152	-15.824879	14.092971	3.40099	-1.15822	0.052814	0.969983
-4.232559	2.499844	10.011807	-8.639288	340.06465	-17.358471	0.879344	0.127614	-0.480022	2.371282	0.760013	8.605001	38.608596	-9.461854	-10.849271	0.192125	-0.096063	-0.120078	6.873406	1.899613	-0.360579	-15.891528	16.83391	8.59755	-1.136872	0.029252	0.965902
-4.103078	1.231513	13.594391	-26.637727	336.768408	-11.504436	0.917655	0.162673	-0.407595	2.882025	1.159222	8.791071	31.02626	-8.654728	-9.471066	0.180117	-0.096063	-0.13809	7.440017	2.187432	-0.462187	-15.956187	18.557257	12.16611	-1.154667	0.039562	0.962141
-7.271557	0.768694	12.894447	-14.855366	304.767861	0.958955	0.886796	0.07958	-0.296212	2.374436	1.160654	8.840292	24.075671	-6.492111	-6.607197	0.192125	-0.102066	-0.114074	8.354818	2.591938	-0.213958	-15.590429	20.016566	13.235235	-1.152868	0.049069	0.927961
2.925765	-1.209994	14.999891	-22.730944	263.422727	9.625416	0.921381	0.138656	-0.31569	2.369002	1.161161	8.545291	20.222712	-6.555586	-6.440315	0.186121	-0.090059	-0.114074	9.256218	2.935393	-0.651098	-16.330628	20.883718	11.987808	-1.138198	0.038254	0.961278
16.328208	-3.975782	5.088809	72.589251	188.33874	46.514452	0.935281	0.102155	-0.294323	2.102193	1.332368	9.424555	18.959629	-5.620009	-4.32553	0.174113	-0.10807	-0.10807	10.341076	2.586379	-0.517092	-16.85345	20.699447	9.511996	-1.12083	0.0417	0.943325
3.379131	-11.194176	-8.998846	118.682616	-6.354789	20.521601	0.93798	0.079264	-0.220578	2.264081	0.988914	8.956423	16.353041	-5.218308	-3.957778	0.204133	-0.090059	-0.114074	10.787942	2.988904	-0.905887	-17.927741	19.468776	4.824814	-1.17019	0.077888	0.885397
10.984475	-1.823587	4.756424	-45.523546	-204.846448	28.127525	0.943881	0.112657	-0.168307	2.322028	0.874058	9.016713	15.692605	-5.322577	-3.229643	0.186121	-0.10807	-0.10807	10.793926	2.237302	-0.680936	-19.216475	17.766377	-1.290164	-1.15732	0.057567	0.952893
10.318341	-3.141161	11.617165	-33.452978	-249.879167	45.917348	0.956491	0.117432	-0.221789	1.980397	0.989868	8.89199	13.989097	-4.963823	-2.773854	0.174113	-0.096063	-0.090059	11.31059	1.831792	-0.501363	-20.812535	16.082213	-6.826236	-1.158174	0.085078	0.909466
6.742803	-4.946452	7.669522	-25.635711	-234.754035	52.435585	0.970774	0.100443	-0.219687	2.600855	1.045387	8.844841	11.661484	-4.506424	-2.505387	0.186121	-0.090059	-0.120078	10.583285	1.546681	0.110695	-22.285119	14.480911	-9.580336	-1.156847	0.076076	0.91409
6.802229	-3.495022	7.847603	-46.843677	-224.526491	77.997466	0.952645	0.081787	-0.23774	1.881143	1.103474	9.656616	10.69939	-4.040373	-2.316904	0.168109	-0.10807	-0.096063	10.757278	1.083694	0.226155	-22.189771	13.109666	-10.006813	-1.112365	0.062142	0.975237
6.167504	-2.275793	7.722335	-59.922133	-206.755164	82.462732	0.915743	0.065113	-0.311272	2.042179	1.046483	9.187976	9.221475	-4.060969	-1.924553	0.174113	-0.120078	-0.10807	9.800174	0.682719	0.718998	-20.372121	11.801729	-7.061035	-1.12121	0.08772	0.861094
6.55194	-0.943157	6.924143	-63.584176	-205.590436	85.532384	0.946865	0.108057	-0.365965	2.605201	1.044981	9.080842	7.937801	-3.833206	-1.677857	0.168109	-0.096063	-0.102066	9.395258	1.029579	0.427231	-17.292753	10.06754	-3.242232	-1.138152	0.070519	0.900761
7.252058	0.218567	7.576616	-63.293949	-219.053968	74.334092	0.880251	0.066825	-0.385908	2.382894	0.873481	9.2538	8.024352	-3.469716	-1.564975	0.180117	-0.096063	-0.102066	9.631813	1.14702	0.888999	-14.214738	8.916575	0.501809	-1.106541	0.076906	0.894411
6.978166	0.917034	8.266356	-56.273374	-242.079061	53.535575	0.925272	0.073268	-0.419234	2.441992	1.102176	9.431481	9.06514	-3.471047	-1.201135	0.180117	-0.084055	-0.102066	9.512978	0.798555	0.599708	-11.568918	8.312604	2.12045	-1.125236	0.082463	0.90774
6.256988	1.211045	9.52412	-42.183297	-264.016207	29.436785	0.907144	0.054612	-0.437288	2.047208	0.816907	9.424382	10.781592	-3.625202	-0.840753	0.168109	-0.102066	-0.114074	9.401458	0.741411	0.711377	-9.691487	7.582452	3.340276	-1.141232	0.102279	0.869799
4.579125	1.094896	8.796917	-37.071524	-277.49222	5.015239	0.889397	0.055468	-0.474606	2.271688	0.988204	9.369424	13.139897	-4.240149	-1.676717	0.180117	-0.102066	-0.10807	9.341693	1.030481	0.597381	-7.752896	7.058994	5.136735	-1.111893	0.080651	0.936433
2.984187	0.575468	9.341804	-46.439345	-282.539495	-15.596513	0.88978	0.07498	-0.49387	2.380039	1.102854	9.135394	13.413308	-4.869371	-1.757918	0.174113	-0.114074	-0.096063	9.278777	1.20297	0.311583	-5.720883	5.964746	6.243485	-1.124336	0.087216	0.89065
1.003979	-0.405957	10.686979	-59.193593	-280.945245	-28.978207	0.843851	0.129326	-0.554658	2.615833	0.757606	9.612351	10.91433	-4.716649	-1.471862	0.180117	-0.096063	-0.096063	9.106594	1.318841	0.251637	-3.411727	4.609829	6.562577	-1.155948	0.080829	0.897
-2.387901	0.822706	13.280814	-67.620136	-282.875165	-33.623804	0.850441	0.041047	-0.584457	1.20678	2.370351	6.987422	4.219883	-12.432514	-22.864283	0.162106	-0.102066	-0.096063	9.500464	1.432786	0.031678	-1.779044	3.306057	6.999183	-1.142604	0.079017	0.925693
-1.405687	-2.261126	10.576687	-57.347987	-279.685896	-23.225796	0.794339	0.107877	-0.574708	3.339913	1.787364	9.211649	33.883768	-2.153586	13.24702	0.186121	-0.114074	-0.102066	9.779561	0.851676	-0.307872	-0.669876	2.255991	6.417814	-1.141278	0.070015	0.930317
-3.073611	-2.252889	13.259692	-65.674329	-289.509265	-15.364456	0.761545	0.086698	-0.575599	2.270047	1.904781	9.4268	10.958642	-6.883602	-0.530812	0.180117	-0.090059	-0.090059	9.558659	0.795812	0.029913	-0.57569	1.348937	5.674749	-1.156374	0.094585	0.875286
-4.43144	-2.30722	14.214972	-64.722439	-290.999646	-7.014357	0.744564	0.126578	-0.651447	2.615492	0.87219	9.612148	11.286506	-7.034999	-1.448663	0.174113	-0.102066	-0.10807	9.553141	0.736601	-0.255811	-1.097332	0.778711	4.431211	-1.142131	0.097526	0.886889
-4.207268	-2.656398	13.929632	-58.736229	-288.22455	8.389809	0.74251	0.128831	-0.687767	1.859581	1.048212	8.476714	3.080279	-7.848925	0.497147	0.174113	-0.102066	-0.090059	9.555394	0.737127	-0.141626	-2.203732	0.421279	2.812573	-1.142604	0.079017	0.925693
-4.17409	-1.491352	15.666869	-65.296118	-273.598586	11.683409	0.680386	0.102606	-0.654334	2.323584	1.446677	9.192698	5.231857	-8.648697	0.954813	0.174113	-0.102066	-0.084055	9.435535	0.90973	-0.428551	-3.216926	-0.28124	1.814123	-1.193338	0.091943	0.923658
-3.888682	-1.085471	15.615748	-61.814037	-252.240305	9.391719	0.726818	0.127434	-0.688765	2.490053	1.389178	9.019059	7.145343	-9.330481	-0.023777	0.174113	-0.084055	-0.084055	10.071592	1.14243	0.098719	-4.87636	-0.744696	0.684312	-1.044644	0.098681	0.877088
-3.377205	-0.622189	15.395893	-76.259415	-232.342105	0.070896	0.662378	0.143613	-0.748342	2.660975	0.930327	9.023131	3.797083	-9.393151	0.310238	0.162106	-0.10807	-0.096063	9.611211	0.736751	-0.197592	-6.381613	-1.310446	0.38349	-1.121637	0.101475	0.839381
-3.350106	-0.270579	16.784286	-87.917176	-221.328691	-17.870379	0.69787	0.141901	-0.673705	2.884709	0.987141	8.909376	6.233792	-10.638306	0.728975	0.162106	-0.090059	-0.090059	9.386486	0.332457	-0.089753	-7.272799	-1.664325	-1.29527	-1.128362	0.081959	0.937296
-4.293589	-0.381806	18.38339	-87.476447	-218.094588	-35.134371	0.653996	0.193995	-0.698173	2.100702	1.103402	9.306961	0.727812	-9.947368	2.055053	0.168109	-0.090059	-0.096063	9.154425	0.795294	-0.263432	-8.534033	-1.507116	-2.620859	-1.11142	0.09916	0.897629
-6.452036	0.20353	19.497649	-77.993572	-215.602545	-49.404038	0.652969	0.195121	-0.716333	2.15362	1.218121	9.130844	3.861768	-11.858277	2.15851	0.162106	-0.096063	-0.084055	9.265729	0.389003	-0.434296	-9.97951	-1.336482	-2.938441	-1.124763	0.100971	0.868936
-9.626367	1.075135	18.56966	-68.610668	-211.767857	-57.963255	0.611148	0.244962	-0.704481	2.831279	1.0443	9.085188	2.946452	-13.037336	3.41409	0.174113	-0.090059	-0.084055	8.761123	0.391867	-0.044787	-11.055249	-1.391719	-2.178311	-1.110993	0.085404	0.919343
-13.02189	0.380648	17.980215	-64.241844	-206.274444	-58.544153	0.565864	0.27867	-0.727844	2.781749	1.616582	9.555088	1.152151	-14.342854	5.40425	0.168109	-0.10807	-0.090059	8.926208	0.448108	-0.326606	-11.791493	-2.021991	-1.61712	-1.111466	0.066895	0.958147
-15.928433	0.959385	16.07439	-70.456875	-204.720876	-54.14689	0.564072	0.240772	-0.707475	2.319472	1.733444	9.01519	0.852733	-15.742552	6.808664	0.180117	-0.084055	-0.090059	8.858787	0.619545	-0.840773	-12.528591	-2.231302	-0.515166	-1.140378	0.074768	0.913227
-19.741702	1.482367	14.728287	-76.265871	-216.215967	-46.078884	0.500015	0.276463	-0.786317	2.270942	0.873721	9.310627	0.287614	-16.748106	8.031685	0.156102	-0.090059	-0.090059	9.265956	0.273211	-0.434821	-13.265048	-2.688997	0.806641	-1.114545	0.098656	0.927185
-22.624828	1.483473	13.977361	-73.671534	-231.33497	-34.57053	0.546064	0.281779	-0.801483	2.941122	1.387916	8.968752	0.921451	-20.03538	9.682799	0.150098	-0.090059	-0.090059	9.161751	0.507389	0.077807	-13.510459	-2.72012	2.702298	-1.091398	0.0846	0.888924
-25.032512	1.137833	14.044147	-43.713112	-233.847064	-16.68569	0.465167	0.257537	-0.823528	2.561381	1.158518	9.787554	-4.712495	-24.843761	12.174857	0.162106	-0.096063	-0.084055	9.172103	0.973189	0.650832	-13.295119	-2.509866	5.237091	-1.140805	0.088524	0.891513
-28.077585	0.973277	16.699301	-33.399022	-183.375384	11.851454	0.447421	0.258393	-0.860846	2.950732	1.444295	9.499652	-7.648596	-31.564655	13.982657	0.144094	-0.10807	-0.078051	9.39437	0.334297	0.309892	-12.465755	-1.898552	8.102282	-1.139433	0.111786	0.83562
-30.45917	-3.221652	9.186558	64.336461	-142.84284	34.604235	0.416037	0.2556	-0.862842	2.911535	1.099188	10.384177	-12.672887	-39.042761	18.227875	0.162106	-0.096063	-0.078051	9.397749	0.335085	0.481168	-10.652229	-1.536028	9.96924	-1.1595	0.094081	0.904842
-27.543239	0.243008	3.06934	5.008026	-64.574209	50.661442	0.410519	0.241719	-0.934378	3.100546	1.497795	11.50773	-19.153552	-53.492683	21.986092	0.150098	-0.10807	-0.102066	9.450301	0.276024	0.253663	-8.28527	-1.141471	12.205418	-1.143931	0.08802	0.921069
-26.553796	1.063519	6.731914	-62.323079	14.130854	69.403916	0.381954	0.275697	-0.938583	3.196093	1.900024	10.62419	-19.647616	-66.966425	24.847674	0.156102	-0.090059	-0.084055	9.626762	0.276997	0.542503	-5.54985	-0.635918	13.462319	-1.1136	0.135673	0.849578
-21.700116	4.720005	8.686801	-64.868501	85.909017	81.95051	0.412191	0.219954	-0.878793	2.830371	2.070252	12.268284	-28.552314	-73.046725	25.801016	0.144094	-0.096063	-0.066043	9.399205	0.740886	0.597193	-3.214542	-0.003624	14.102459	-1.161253	0.116839	0.878505
-17.112554	6.928079	11.61533	-33.725914	133.798774	84.705404	0.474314	0.246179	-0.912226	3.62158	1.724213	12.225106	-7.706114	-83.992628	23.229176	0.132086	-0.102066	-0.096063	9.621927	-0.129592	0.255202	-1.863067	0.671503	15.16448	-1.16258	0.125841	0.873881
-7.903279	11.972803	13.429177	38.146728	162.05199	56.065088	0.457213	0.226397	-0.912119	2.41511	1.729619	11.140283	2.717966	-88.907107	20.804938	0.144094	-0.096063	-0.084055	9.684957	-0.359977	0.540738	-1.740874	1.224572	17.231954	-1.146584	0.106025	0.911821
3.514811	18.985454	13.904797	107.077662	173.504668	-25.783872	0.523827	0.267628	-0.892176	2.788212	2.355463	13.092692	-21.878634	-105.76427	28.09489	0.156102	-0.10807	-0.102066	9.961334	-0.130801	0.147775	-1.742718	2.234522	19.379897	-1.168358	0.143342	0.894189
12.064203	18.81698	19.796058	254.232641	114.39667	-148.521173	0.540546	0.267898	-0.873018	2.795648	2.412045	13.505591	-8.806067	-124.367411	28.898549	0.13809	-0.084055	-0.096063	10.124405	-0.770105	-0.308475	-2.850523	3.105803	23.757592	-1.113646	0.103409	0.910096
7.072604	-6.966151	12.641273	134.084837	182.202076	-150.034347	0.471878	0.228919	-0.929281	2.922174	1.894956	14.15768	-14.232075	-142.841738	32.638046	0.120078	-0.084055	-0.090059	11.305323	0.498335	-0.907054	-8.995154	2.48689	35.573887	-1.129642	0.123225	0.872155
-8.891631	6.675543	6.692803	127.758931	196.690813	-94.217988	0.531827	0.197734	-0.92308	4.6631	1.255565	16.551403	-22.476756	-169.116993	35.60896	0.120078	-0.084055	-0.096063	12.728894	1.074718	-0.819177	-10.985215	-0.309012	42.692038	-1.149237	0.124029	0.902574
-12.616273	6.570816	9.796899	61.426008	88.77616	-52.896544	0.505698	0.248972	-0.91023	5.365986	-1.555331	17.454419	-7.844768	-200.166956	22.520072	0.102066	-0.078051	-0.090059	14.391921	3.159369	0.022237	-9.351929	-2.479641	37.521957	-1.114073	0.117164	0.888382
-6.601215	1.27409	6.205193	90.056108	102.891275	9.552266	0.547901	0.218643	-0.941347	4.739946	-0.464799	17.381537	1.055114	-227.495083	9.505774	0.084055	-0.096063	-0.102066	14.918915	4.378113	0.894276	-3.694488	-3.7803	26.634517	-1.166132	0.139093	0.881723
0.497265	3.94238	8.491354	37.311048	94.937694	48.46861	0.557955	0.146496	-0.93593	4.71381	0.277128	19.149136	2.622902	-260.777774	0.824654	0.090059	-0.090059	-0.084055	13.453054	3.226034	1.48775	-0.873583	-2.701696	5.828249	-1.180375	0.136151	0.87012
-0.967875	0.870498	9.668341	13.328749	85.254661	23.273189	0.560774	0.183268	-0.938139	5.164411	-0.296856	18.981844	10.863199	-289.797712	-10.855195	0.078051	-0.102066	-0.072047	12.601612	2.996681	1.583989	0.410901	-0.797748	-3.720879	-1.114926	0.144676	0.844955
-3.527817	1.224053	10.77404	27.865645	76.444469	31.398391	0.610931	0.184079	-0.880665	4.096996	-0.637879	19.256808	16.843159	-322.60779	-24.892036	0.054035	-0.096063	-0.096063	11.687494	2.244796	1.334183	1.266898	0.515632	-10.995584	-1.128742	0.127979	0.855065
-7.278801	-3.360776	9.416783	-85.915405	-64.413638	-13.335676	0.604648	0.131174	-0.913672	4.184665	-1.614661	20.793624	15.369913	-351.717683	-42.905242	0.03002	-0.090059	-0.078051	9.970208	1.087652	0.724217	2.371891	0.652353	-17.232497	-1.165233	0.143846	0.864633
-3.320775	1.808645	12.571125	25.996654	-16.84686	-7.74756	0.611576	0.16344	-0.843241	3.128564	-2.47223	21.600503	31.900599	-379.288741	-63.827762	0.018012	-0.102066	-0.078051	8.763592	0.855827	0.128593	4.131665	-1.64258	-9.767854	-1.112273	0.126671	0.854202
-2.079635	0.520645	8.547305	61.635465	-2.087826	-14.924924	0.592802	0.165423	-0.898719	1.983345	-0.405482	21.103115	57.886638	-395.761854	-80.519869	0.024016	-0.084055	-0.048031	8.928005	0.680219	-0.21137	6.388042	-5.975642	-2.895792	-1.14701	0.11978	0.890108
-1.762611	1.336737	10.115975	39.546275	-0.45876	-14.516479	0.639496	0.1501	-0.87646	2.033977	1.948344	18.092117	104.153346	-406.907629	-88.423206	0	-0.090059	-0.054035	8.18987	1.319347	-0.051843	10.18075	-10.371996	-0.816003	-1.178149	0.131902	0.857654
-1.891771	2.031684	9.421589	58.372455	2.890083	-5.292187	0.591393	0.147037	-0.897614	3.07831	2.754846	13.569416	132.852072	-402.613783	-73.943125	-0.006004	-0.10807	-0.03002	8.029165	1.901281	0.518328	10.65248	-14.088969	6.398939	-1.163007	0.139597	0.852167
-1.270288	1.50743	8.912571	37.025038	1.931876	-3.99917	0.572882	0.108869	-0.896403	4.066066	1.379907	11.762407	124.978847	-382.838782	-49.010386	-0.024016	-0.084055	0	8.079226	2.536713	0.236885	9.675651	-16.969113	7.622667	-1.183928	0.149403	0.877962
-1.372435	1.451035	9.546108	27.161005	1.349918	-3.024675	0.602212	0.113915	-0.930727	2.472823	1.328402	11.14208	117.445323	-347.518945	-35.896728	-0.024016	-0.120078	0.012008	8.315121	1.843079	0.580789	7.098064	-18.905736	10.008674	-1.149663	0.137785	0.88086
-1.265351	2.320726	9.203601	18.80366	1.153972	-1.672851	0.603239	0.112788	-0.912567	3.025851	-0.791397	10.1537	112.248007	-318.744441	-13.893019	-0.048031	-0.114074	0.036023	8.939109	3.057652	0.598698	5.074033	-20.975695	11.513804	-1.201296	0.145958	0.895915
-1.317611	1.740914	9.43232	10.801384	0.662067	-1.93068	0.54988	0.055694	-0.948567	4.387198	-2.800621	10.124332	87.423565	-303.538219	-1.198522	-0.036023	-0.126082	0.042027	10.073481	2.475098	0.333133	3.879168	-22.984242	9.566013	-1.165705	0.125337	0.903437
-1.604385	1.567064	9.426186	5.599977	-0.05446	-2.478215	0.598748	0.097781	-0.965943	-13.15666	-5.661647	5.014722	46.778415	-240.940789	7.816094	-0.03002	-0.114074	0.060039	10.597551	3.461467	1.032844	6.095619	-24.418741	6.889217	-1.167932	0.129586	0.915903
-1.480464	1.56807	9.89099	2.526542	-0.340982	-2.569723	0.582673	0.076873	-0.947676	-19.212106	-11.016449	-2.523854	79.249824	-68.557448	10.028392	-0.060039	-0.114074	0.066043	11.67498	2.879028	0.766153	9.29007	-23.678318	0.955833	-1.1844	0.130894	0.916766
-1.363402	1.568239	10.008905	1.329892	0.013158	-1.334931	0.632831	0.077684	-0.890202	-9.705262	-6.187879	5.199922	25.885347	65.568332	37.252218	-0.054035	-0.120078	0.078051	12.193214	2.821422	1.061487	11.127724	-21.294214	-5.359541	-1.229355	0.126319	0.894422
-1.262453	1.682536	9.317694	-3.95939	-0.609536	-1.815399	0.5837	0.075747	-0.929516	-9.669424	-7.27948	6.971855	40.264857	204.042937	27.813638	-0.060039	-0.114074	0.060039	12.309126	2.937513	1.17845	12.563394	-17.881432	-11.119949	-1.169258	0.138589	0.911279
-1.594796	1.10384	9.887586	-2.904372	0.094863	-1.322601	0.603883	0.09215	-0.875142	-8.31787	-6.371797	9.945233	36.705994	217.522036	14.687137	-0.066043	-0.114074	0.072047	12.581135	1.949288	0.437414	13.691297	-14.321959	-16.702026	-1.163525	0.088824	0.951488
-1.363068	1.219983	10.008067	-2.482182	-0.286759	-1.256634	0.596311	0.080522	-0.982998	-6.531816	-6.08365	5.732572	35.726942	231.069914	-13.983327	-0.054035	-0.114074	0.060039	12.008448	1.312514	0.194892	13.744869	-11.541692	-22.302522	-1.184827	0.14465	0.895052
-1.257436	1.218753	9.547835	0.790172	0.363031	-1.093818	0.617521	0.095799	-0.910464	-5.991315	-5.453006	4.503318	6.972315	229.934577	-29.888018	-0.042027	-0.120078	0.060039	11.209775	1.487533	0.122821	14.26266	-9.908063	-26.650524	-1.185727	0.139897	0.912142
-1.370902	1.044876	9.602944	2.41275	0.279468	-0.37184	0.607085	0.148433	-0.896616	-5.416212	-4.768318	5.161968	-27.698744	236.435601	-42.58551	-0.048031	-0.114074	0.048031	10.463676	0.445037	-0.296197	14.721754	-9.066602	-27.218159	-1.197317	0.118951	0.909786
-1.372602	1.625163	9.546527	4.289686	0.23421	-0.723905	0.596956	0.059884	-0.945573	-4.819248	-3.398354	7.117404	-55.411359	248.328042	-48.203666	-0.048031	-0.13809	0.024016	9.730512	0.274403	0.030926	14.904404	-8.028195	-24.763621	-1.199116	0.109444	0.943966
-1.017819	1.451959	10.073298	5.791962	0.465628	-0.291722	0.57921	0.06074	-0.982892	-3.707046	-2.775132	9.31994	-61.724555	265.488501	-50.6449	-0.036023	-0.10807	0.024016	8.997576	-0.012023	0.357523	14.471692	-6.786884	-22.041831	-1.196463	0.091439	0.953214
-1.358719	1.452712	10.239885	6.128735	1.036647	0.090437	0.59311	0.024239	-0.961524	-2.120131	-1.692058	9.761439	-53.447038	285.632179	-50.642814	-0.048031	-0.126082	0.012008	8.815359	0.622813	-0.156793	13.979315	-6.206344	-18.203927	-1.211133	0.102254	0.919897
-1.024899	1.683291	9.726969	4.031421	1.027361	0.353824	0.613675	0.060154	-0.926415	-1.620085	-1.349127	9.357608	-45.571522	305.961103	-46.223756	-0.036023	-0.120078	0	8.720072	-0.241462	0.693393	14.163548	-5.573387	-13.201368	-1.230728	0.103058	0.950316
-0.845153	0.929408	10.07547	4.200933	1.498266	1.65263	0.595929	0.06101	-0.963733	-0.664729	-0.606918	9.197761	-54.642052	323.193679	-36.193301	-0.006004	-0.120078	-0.006004	8.66289	0.453671	0.752514	14.347968	-5.218857	-10.088788	-1.199589	0.090935	0.98277
-1.316357	1.624968	9.489855	2.039011	0.757336	1.490231	0.599775	0.096655	-0.947783	0.869352	-1.127761	9.582015	-76.041872	333.128567	-25.317999	0	-0.13809	-0.036023	8.439167	0.686763	0.977429	14.285496	-4.631046	-8.451106	-1.212932	0.092747	0.954077
-1.604496	1.683149	9.426465	0.087614	0.421927	0.514381	0.564283	0.098367	-1.022419	3.64746	-0.392326	10.223943	-98.891325	335.647265	-23.490589	0	-0.126082	-0.042027	9.1667	0.856082	0.364845	14.808377	-4.688176	-8.294041	-1.183974	0.117139	0.938479
-1.541393	1.683792	9.716682	1.025201	1.031807	1.403365	0.57921	0.06074	-0.982892	5.111605	-1.890555	12.790755	-120.474881	351.885556	-20.427175	0.006004	-0.120078	-0.060039	9.287799	0.625846	0.708599	15.9458	-4.716885	-9.541288	-1.198217	0.114197	0.926876
-1.836001	1.334836	9.305425	1.33763	0.958796	1.637416	0.579089	0.001077	-0.906938	5.89221	-2.698925	15.16631	-110.916461	341.981966	-33.558808	0.03002	-0.102066	-0.084055	9.166688	1.435309	0.424566	17.514534	-5.160808	-11.357734	-1.162626	0.093577	0.934398
-1.421655	1.277941	9.949249	1.660695	1.506711	1.468884	0.580237	0.059614	-0.964731	6.641978	-1.895563	13.056095	-110.442266	317.058856	-50.571796	0.036023	-0.120078	-0.078051	9.388614	0.970106	0.084415	19.297874	-5.38072	-13.637034	-1.216912	0.119754	0.940205
-0.912298	1.566815	9.613346	4.743174	1.613125	3.508592	0.599392	0.077143	-0.928518	5.422874	-1.65987	11.321865	-147.816613	305.61584	-48.894583	0.042027	-0.132086	-0.120078	9.044588	1.028159	-0.036264	20.835682	-5.733974	-15.394605	-1.201342	0.113693	0.956432
-1.025764	1.392938	9.668455	4.18731	1.909994	3.136723	0.606627	-0.031775	-0.920892	4.058572	-0.858286	14.066285	-187.40058	301.843386	-32.454022	0.054035	-0.126082	-0.126082	8.988202	1.318017	0.021016	22.495556	-5.660663	-16.886142	-1.186673	0.102879	0.989749
-1.025486	1.102725	9.667757	4.812036	2.687256	3.642752	0.60572	0.029014	-1.015006	2.51587	1.090165	16.510415	-201.361749	299.620713	-1.333906	0.066043	-0.114074	-0.162106	8.942419	0.799429	0.531354	23.110032	-5.52051	-17.559004	-1.213832	0.087994	0.971166
-0.961907	1.80002	10.017465	6.95034	3.236438	4.378474	0.59901	0.057631	-0.909253	1.984915	3.093348	18.679002	-191.284344	295.377613	43.26145	0.072047	-0.084055	-0.174113	8.48338	0.857447	0.35133	22.985577	-4.827454	-16.872243	-1.245397	0.113872	0.916999
-1.363513	1.684324	10.009185	5.330688	3.085087	2.791093	0.560698	0.022572	-0.98168	2.047593	5.040003	19.325639	-169.197364	280.591201	98.674013	0.084055	-0.084055	-0.198129	8.429031	0.684398	0.463599	22.768896	-4.055816	-15.361957	-1.249896	0.090106	1.002448
-1.135857	1.277523	9.897149	7.93571	3.982879	1.849261	0.595164	0.021986	-0.925204	4.533004	6.980041	19.606001	-154.390494	257.964516	158.13886	0.120078	-0.066043	-0.216141	8.256642	-0.242392	0.284738	21.690638	-2.938752	-13.069071	-1.182647	0.108136	0.943103
-1.367585	1.161381	9.776668	10.152911	4.524393	0.688102	0.529959	-0.00086	-0.946252	8.886839	7.081299	19.80747	-144.790359	231.027379	205.207879	0.13809	-0.054035	-0.240156	8.25406	-0.648455	0.111622	20.489116	-1.647458	-10.230357	-1.229447	0.061791	1.015457
-1.129166	1.45249	10.244457	15.498318	6.386019	0.515271	0.543214	-0.016722	-0.962309	15.110912	7.29101	20.339596	-117.022264	214.338078	216.701194	0.150098	-0.066043	-0.24616	7.462804	0.339216	0.499968	18.057974	-0.411947	-6.724103	-1.184447	0.09863	0.977283
-0.95912	1.277915	10.131837	21.29069	7.523996	0.607692	0.608157	0.046273	-0.997951	22.10284	6.24044	19.414164	-72.636254	213.609423	194.040225	0.168109	-0.048031	-0.264172	7.396737	0.395123	0.042367	15.719714	0.604247	-2.814705	-1.183074	0.121892	0.921389
-1.30002	1.278668	10.298423	21.740168	8.41201	0.083414	0.530342	0.018652	-0.965516	26.632214	4.34106	16.555524	-18.334971	222.421408	145.08951	0.174113	-0.042027	-0.282184	7.333946	-0.069511	-0.303415	13.905656	1.092219	2.027243	-1.213405	0.074238	0.99288
-1.366609	1.335649	9.834902	23.816129	10.168808	0.442381	0.544624	0.001663	-0.963414	30.403821	1.415069	12.26858	19.794195	221.628889	78.610967	0.186121	-0.072047	-0.282184	7.782848	-0.129895	-0.63722	12.429711	1.858692	9.035919	-1.166651	0.08832	0.981044
-1.192714	1.916188	9.955358	19.795621	10.295154	-1.015393	0.547705	-0.001716	-0.908934	32.506364	-0.185818	6.531785	18.388853	198.177657	7.684868	0.204133	-0.048031	-0.288188	7.782848	-0.129895	-0.63722	10.676955	2.62719	15.675867	-1.18312	0.089628	0.981907
-1.077715	1.683906	9.957085	16.592689	10.76812	-2.386676	0.576653	-0.016182	-0.923993	32.765474	0.04974	2.230887	-27.624424	150.054946	-57.437993	0.210137	-0.054035	-0.288188	8.63057	0.272359	-0.903947	9.262421	3.15798	20.029291	-1.181794	0.080625	0.98653
-0.85279	1.741167	9.730537	15.883487	12.117049	-2.833919	0.542187	-0.015596	-0.980469	31.53142	2.744609	3.146212	-96.428225	91.184788	-107.085698	0.234152	-0.036023	-0.282184	8.628761	0.619474	-0.959462	7.293598	3.808336	22.052647	-1.217384	0.101246	0.979009
-1.194889	1.799823	9.839449	12.213502	11.430344	-4.058365	0.555825	-0.011947	-1.015791	27.729962	5.845219	5.839846	-117.403238	35.519926	-145.232472	0.258168	-0.048031	-0.288188	9.205964	0.678073	-0.548292	4.586301	4.480863	21.961335	-1.198689	0.095689	0.96568
-1.192492	1.684017	9.954799	8.093026	11.675614	-7.311796	0.540133	-0.013344	-1.016789	23.41252	9.578087	8.227583	-92.571494	-4.147569	-166.38922	0.258168	-0.024016	-0.300195	9.375554	0.735366	-0.601742	0.74124	5.097554	20.550159	-1.197836	0.068177	1.009107
-1.363736	1.916495	10.009744	7.999625	15.106867	-8.115963	0.545389	0.040687	-1.001943	18.8436	10.163801	8.728552	-40.321014	-30.314129	-170.344961	0.252164	0	-0.288188	9.435876	0.73604	-0.42934	-3.411902	6.069191	19.74074	-1.214259	0.10175	0.949453
-1.587351	1.685245	10.293687	3.84901	17.055725	-9.7402	0.529959	-0.00086	-0.946252	14.997339	7.1349	11.07796	-4.273499	-48.585142	-153.795219	0.252164	0	-0.288188	9.441063	0.389714	-0.202548	-6.487791	6.537567	18.642953	-1.229401	0.094055	0.95494
-1.353226	1.685582	10.529518	-0.350383	24.353879	-12.91593	0.557879	-0.0142	-0.979471	7.010396	10.529679	16.639597	173.672485	-128.719897	-141.246121	0.240156	-0.018012	-0.288188	9.793542	0.044018	0.316461	-7.901374	6.244748	18.611561	-1.199589	0.090935	0.98277
-1.394136	2.384246	11.397273	-11.560974	40.459935	-15.991053	0.603426	-0.088058	-0.899419	-2.75298	6.45434	4.309228	194.811211	-133.226885	-69.54272	0.258168	-0.012008	-0.282184	9.726451	0.620993	-0.138773	-7.807157	5.416526	18.753604	-1.183547	0.103383	0.960193
-1.444611	2.327097	11.742879	-17.167152	57.105396	-22.171779	0.545006	0.021175	-0.982678	-8.568564	-1.708981	-2.925027	40.152582	-185.142979	47.257364	0.24616	-0.024016	-0.288188	10.072172	0.273721	0.037683	-5.312499	3.551886	18.473845	-1.19779	0.100442	0.94859
-1.106041	0.939943	14.28909	-25.634921	55.104447	-19.180319	0.59029	-0.012533	-0.959315	-24.276364	-2.238835	33.753866	-15.370171	-197.193285	86.241728	0.222145	-0.012008	-0.306199	10.195626	0.565341	0.55508	-0.324789	0.823893	20.64353	-1.217811	0.115001	0.957295
-1.5765	4.196843	16.772664	-18.702283	76.417493	-28.553538	0.602519	-0.027269	-0.993533	-9.938236	-11.606311	25.434569	257.880958	-210.535153	49.154713	0.216141	-0.03002	-0.288188	11.450381	1.837611	0.814009	7.983992	-1.134135	31.528958	-1.217384	0.101246	0.979009
-1.043628	3.566872	20.480416	-33.54821	131.735252	-33.782108	0.56237	0.000807	-0.926096	4.472308	12.124197	-7.416418	200.716807	-204.490213	46.457871	0.198129	-0.048031	-0.27618	12.910645	1.250694	-0.244088	9.800813	-1.850001	35.86722	-1.216912	0.119754	0.940205
-3.07058	0.308731	16.44451	41.913288	155.891473	-18.633605	0.609829	0.024509	-0.942366	9.109991	9.564219	7.775763	65.880364	-147.04523	69.891328	0.180117	-0.042027	-0.288188	14.218395	2.811544	-0.153995	12.632278	-3.842489	27.946984	-1.217811	0.115001	0.957295
0.149855	2.860611	16.977183	4.165477	178.980922	-23.205481	0.675678	0.026716	-0.883894	13.194805	-2.94088	9.76305	63.689447	-120.558632	32.28605	0.180117	-0.048031	-0.282184	14.892465	3.503095	-0.536971	16.383577	-5.122853	16.161502	-1.236506	0.120558	0.970624
-0.542833	2.055165	19.619848	0.957506	221.461052	-26.06045	0.640065	-0.031234	-0.882576	6.237429	0.746292	9.917897	67.694775	-86.709729	-44.405394	0.168109	-0.048031	-0.270176	14.307379	3.442656	-1.347786	16.194346	-4.983112	-1.703854	-1.188426	0.125637	0.963411
-1.793331	1.419317	20.171313	15.084908	259.413594	-19.429806	0.657549	0.00806	-0.901947	1.952976	2.538896	7.650245	42.031793	-80.678001	-57.215447	0.150098	-0.072047	-0.270176	13.517272	3.272137	-1.021789	13.359437	-3.644471	-13.770397	-1.219611	0.105495	0.991475
-0.206647	1.008945	19.161672	19.347596	293.801465	-14.391617	0.690605	-0.010911	-0.844367	4.444762	-2.056294	10.3011	30.236956	-36.000853	-40.655484	0.162106	-0.054035	-0.27618	12.269047	2.117237	-0.93764	9.846958	-1.285039	-20.848439	-1.284587	0.11548	0.977837
-0.37608	0.54505	19.272755	22.157672	327.598432	-5.859501	0.692277	-0.032676	-0.788782	2.39643	-2.225824	12.562205	25.583855	-4.643694	8.228524	0.168109	-0.072047	-0.252164	10.686012	2.065155	-0.398516	8.331098	2.004907	-27.019879	-1.236979	0.10205	1.009428
0.663851	1.647837	19.700687	17.573631	349.96561	1.248734	0.779839	0.063983	-0.752995	5.347768	0.58093	7.600895	44.323318	-15.074062	-3.47408	0.156102	-0.054035	-0.264172	9.604544	1.835731	-0.420967	7.398339	6.56705	-25.509533	-1.220037	0.11925	0.969761
2.017974	1.991963	18.572661	34.592574	374.710506	13.472721	0.81084	0.047264	-0.731734	1.154827	-0.269734	9.880926	24.742762	-11.047541	-6.274622	0.13809	-0.048031	-0.252164	9.097242	1.490428	-0.204311	5.26594	11.17077	-25.750128	-1.190652	0.129886	0.975878
1.506789	1.463596	15.90278	43.443891	388.98171	16.354106	0.82615	0.029148	-0.711471	3.310963	-0.907037	10.277336	46.054848	-8.787355	0.883792	0.150098	-0.066043	-0.264172	8.012851	1.028629	-0.39909	5.042819	14.510171	-25.920548	-1.188899	0.107128	1.002215
0.286907	3.95202	12.359229	49.150439	399.152433	18.744659	0.843131	-0.010732	-0.635624	3.049857	0.643383	8.618244	53.344692	-10.391043	-5.139531	0.144094	-0.066043	-0.252164	7.381515	1.260415	-0.638795	4.514917	17.356233	-19.933023	-1.218711	0.110248	0.974385
-0.923206	4.358929	12.104945	41.010284	386.762172	2.75202	0.892644	0.010717	-0.615574	2.60388	0.758722	8.963349	40.918615	-8.28129	-6.839638	0.150098	-0.060039	-0.252164	6.30511	1.321787	-0.374471	4.63362	19.945541	-12.620988	-1.187999	0.111882	0.985125
-2.193611	3.024053	11.614068	44.746438	380.888302	1.322018	0.895343	-0.012173	-0.54183	3.00267	1.15817	9.206246	37.494102	-7.337612	-6.654645	0.150098	-0.060039	-0.252164	5.897054	0.972839	-0.897761	4.753966	21.911453	-4.591233	-1.248523	0.113368	0.946555
-2.77239	1.217405	8.361822	37.758186	365.109537	-3.132186	0.979703	0.028202	-0.484568	2.365742	1.161466	8.36829	27.301156	-5.519697	-5.827603	0.13809	-0.060039	-0.252164	6.692678	1.202569	-0.938034	4.320659	24.043983	4.134867	-1.201342	0.113693	0.956432
-5.227022	0.473823	11.836415	-32.831986	347.364427	-8.080383	1.012377	-0.010282	-0.407723	2.441523	0.529455	9.314496	18.83379	-5.277014	-4.824346	0.144094	-0.072047	-0.252164	6.805223	0.738645	-1.052069	3.734437	25.836578	12.928891	-1.248096	0.099612	0.968268
-5.167737	0.880345	11.954166	-18.341607	345.3075	8.665018	1.031915	0.02676	-0.390774	2.717494	0.930157	9.024218	17.811431	-6.130007	-4.347413	0.13809	-0.078051	-0.234152	8.215153	1.948996	-1.589314	2.31963	26.759643	19.75046	-1.168404	0.111078	0.954706
2.711489	-1.163998	9.967859	-49.219943	325.761104	20.332311	1.047869	-0.011994	-0.333087	2.720413	1.044437	9.201015	15.388342	-5.407947	-3.71854	0.13809	-0.066043	-0.228148	9.182848	2.120752	-1.569379	0.536607	26.915502	22.214435	-1.235607	0.125312	0.953534
10.428084	-3.613355	8.439664	-24.402222	210.503698	58.716647	1.002847	-0.018436	-0.299761	2.777508	1.216043	9.260798	14.930757	-5.198624	-3.781197	0.144094	-0.054035	-0.240156	11.068506	2.234368	-1.189134	-0.938512	26.246375	18.582711	-1.219564	0.137759	0.930958
14.872399	-9.861184	-5.01022	103.959088	44.652203	37.453293	1.069724	-0.017355	-0.223128	2.544335	1.045558	8.843755	14.283169	-4.729366	-2.7386	0.156102	-0.060039	-0.234152	11.347921	2.638022	-1.410031	-3.551125	25.104311	10.765864	-1.202669	0.122696	0.951808
10.837292	0.023075	0.308015	-54.727596	-55.063795	12.984941	1.037695	0.00049	-0.262549	2.088684	0.760865	8.599568	12.484742	-4.598563	-2.015842	0.13809	-0.072047	-0.240156	12.145241	2.578533	-1.394527	-6.193115	23.220159	1.314253	-1.208447	0.140197	0.972117
6.843615	-3.497034	7.039339	7.471503	-216.493285	41.089879	1.098026	-0.011183	-0.275613	2.768581	0.930494	8.730304	10.08162	-3.179287	-1.064848	0.13809	-0.066043	-0.234152	11.427753	1.311023	-0.387292	-8.957042	21.066643	-6.602831	-1.170158	0.133836	0.928369
6.645995	-4.370721	5.704075	2.333158	-188.491792	49.698343	1.031794	-0.032902	-0.31482	2.603369	0.930599	8.963045	10.158883	-3.718861	-1.504021	0.144094	-0.072047	-0.240156	11.418288	1.540505	-0.842978	-11.627814	18.894141	-11.093535	-1.169685	0.152344	0.889565
4.532783	-3.032283	6.243146	-38.359188	-193.102311	68.113294	1.124919	-0.023397	-0.326992	2.610294	1.159059	9.37564	7.401899	-3.518468	-0.741964	0.13809	-0.090059	-0.24616	10.516206	1.544429	-0.404261	-12.792657	17.277625	-12.561038	-1.155488	0.123021	0.961686
4.713145	-2.044606	6.711469	-56.947176	-168.206353	75.692187	1.091481	-0.023937	-0.365308	2.326439	1.217305	9.311105	5.832302	-3.470091	-0.40367	0.13809	-0.072047	-0.234152	10.526808	0.735982	0.048796	-12.728248	16.211891	-10.884308	-1.187099	0.116635	0.968035
4.540146	-1.173799	6.710136	-62.700341	-158.779412	79.701298	1.033631	-0.096038	-0.454684	2.89174	0.814655	9.263682	4.749313	-2.902898	-0.266116	0.132086	-0.084055	-0.234152	10.357321	1.20002	0.161705	-11.249901	15.3384	-8.592726	-1.182647	0.108136	0.943103
5.905896	0.15859	6.220448	-70.287767	-163.373974	72.325949	1.051115	-0.056744	-0.474056	2.717835	0.815572	9.024421	4.842162	-2.235271	1.133099	0.150098	-0.072047	-0.222145	10.077235	0.564517	0.324458	-8.942313	14.761387	-7.007055	-1.183974	0.117139	0.938479
5.395537	0.914484	6.558867	-70.59067	-182.132697	57.654172	1.051115	-0.056744	-0.474056	2.493419	0.987928	9.13777	5.290451	-2.497971	1.038147	0.126082	-0.078051	-0.234152	9.562709	1.028449	0.259333	-5.711938	13.957796	-5.900549	-1.235607	0.125312	0.953534
4.486025	1.380833	7.004215	-63.615842	-206.327786	39.16352	1.09511	-0.049175	-0.525542	2.613553	1.158754	9.55264	6.897791	-3.082984	0.818586	0.132086	-0.072047	-0.234152	9.617638	0.33279	0.086028	-3.06455	12.685465	-4.663969	-1.214213	0.134014	0.888936
3.796057	1.55549	6.933104	-61.033742	-229.944368	18.449175	1.037643	-0.101765	-0.634182	2.101042	0.988817	9.307164	9.766225	-4.03005	-0.026307	0.126082	-0.078051	-0.228148	9.501715	0.795926	0.028787	-0.386289	11.43509	-2.816032	-1.200869	0.132202	0.917629
2.362495	1.55702	6.962344	-67.509928	-249.453337	-1.329255	1.045718	-0.010962	-0.621545	2.944084	0.757598	9.028869	9.617023	-4.490585	-0.019518	0.13809	-0.060039	-0.240156	8.932738	0.565478	0.016473	1.492809	10.084723	-1.092427	-1.187953	0.144146	0.924608
0.948223	0.516019	7.914106	-78.155011	-264.026592	-15.884527	0.931383	-0.035745	-0.681907	2.712807	1.045148	8.788014	11.540851	-5.645913	-0.874343	0.13809	-0.072047	-0.210137	9.268095	0.331633	-0.320374	3.279746	8.649416	0.082112	-1.236506	0.120558	0.970624
-0.51273	0.231025	9.444688	-85.030128	-274.238689	-23.382641	0.958658	-0.028447	-0.752551	2.323008	1.274902	9.134003	11.192514	-6.112953	-1.169776	0.126082	-0.066043	-0.222145	9.268527	1.258501	-0.201984	3.744212	7.354681	1.001598	-1.155915	0.136777	0.939972
-1.692123	-0.403202	10.691074	-86.200643	-280.041156	-24.418258	0.943349	-0.010331	-0.772814	2.205282	1.390233	8.895626	10.514104	-7.096579	-2.011723	0.13809	-0.084055	-0.228148	9.498223	0.853034	-0.142227	3.623982	6.21505	1.302644	-1.180421	0.103887	0.930637
-2.702138	-0.515491	11.826516	-76.786771	-283.234602	-20.648214	0.862452	-0.034573	-0.794859	2.659207	1.159599	8.963725	8.883696	-7.438782	-1.881694	0.13809	-0.072047	-0.222145	9.551901	0.794235	-0.31264	2.702774	5.606095	0.271929	-1.1844	0.130894	0.916766
-3.146663	-0.223016	12.569663	-70.404471	-282.797034	-15.403955	0.814469	0.022026	-0.891967	2.100361	1.217986	9.306758	7.707653	-7.784457	-2.046545	0.132086	-0.066043	-0.234152	9.547396	0.793184	-0.541009	1.043686	4.934449	-1.28125	-1.17371	0.147087	0.936211
-3.271615	-0.340248	12.046764	-70.973941	-281.340567	-12.702613	0.823999	0.03018	-0.99993	2.374265	1.217946	8.84019	5.484746	-8.343559	-3.20689	0.13809	-0.090059	-0.234152	9.953314	1.083709	-0.132165	-0.432615	4.944812	-3.216296	-1.169258	0.138589	0.911279
-2.515448	-0.165585	12.582375	-78.629661	-274.690045	-16.128076	0.716591	0.037664	-0.98986	2.8326	1.330559	9.202681	2.434648	-7.797325	-1.701174	0.126082	-0.078051	-0.222145	9.65407	1.022964	-0.880258	-2.676633	4.522947	-5.57366	-1.203096	0.136451	0.930095
-2.425357	0.302753	14.261264	-87.009748	-265.253078	-23.974702	0.65036	0.015944	-1.029068	2.380955	1.160045	9.194293	3.550471	-8.156526	-2.846437	0.120078	-0.084055	-0.228148	10.00441	0.618847	-0.475695	-4.521215	4.280845	-7.321349	-1.167885	0.161851	0.855386
-3.083265	0.423279	15.808827	-82.699881	-250.610406	-34.383933	0.654206	0.051589	-1.013117	2.436495	0.75903	9.078089	1.074696	-7.970746	-2.033716	0.132086	-0.072047	-0.240156	9.546395	0.155797	-0.658085	-6.826687	4.019468	-8.153501	-1.200869	0.132202	0.917629
-3.536124	1.063032	16.148109	-75.029939	-233.141286	-46.467527	0.57061	0.050238	-1.108907	2.432212	1.10309	8.90048	4.751724	-9.547476	-2.793892	0.13809	-0.066043	-0.216141	9.595	0.385429	-1.055552	-8.85533	3.755609	-8.586492	-1.1844	0.130894	0.916766
-4.108529	0.715472	16.193655	-83.639276	-215.550995	-58.189079	0.543455	0.102602	-1.114217	2.648745	1.389682	8.432318	2.281446	-9.570933	-1.562129	0.126082	-0.084055	-0.222145	9.492489	0.330389	-0.487146	-10.760255	3.213335	-8.737088	-1.173283	0.133332	0.957925
-5.121918	0.544721	17.155514	-93.953957	-205.812626	-68.542344	0.504454	0.189215	-1.104574	2.608866	1.273745	9.316436	1.577692	-9.610422	0.315169	0.144094	-0.060039	-0.216141	9.601188	0.676488	-0.711685	-11.834054	2.304418	-8.262992	-1.200869	0.132202	0.917629
-7.741898	0.085315	18.08467	-87.326001	-203.142202	-74.3032	0.374689	0.122885	-1.109244	2.773737	1.388225	9.083493	0.227441	-10.445866	1.886752	0.132086	-0.078051	-0.222145	9.489111	0.3296	-0.658422	-12.261873	1.223172	-8.026115	-1.187953	0.144146	0.924608
-10.351188	-0.554004	16.644144	-90.590313	-205.367495	-69.398359	0.389092	0.165558	-1.183096	2.319109	0.759777	8.839916	-0.894002	-10.905432	3.226877	0.126082	-0.078051	-0.228148	9.147451	0.330283	-0.66518	-12.443649	0.139966	-7.451425	-1.167932	0.129586	0.915903
-12.535535	-0.378181	16.427686	-101.443647	-213.133363	-56.230444	0.315123	0.173583	-1.13471	3.063877	1.043009	9.443536	-0.052493	-12.83543	4.33952	0.132086	-0.078051	-0.234152	9.095456	0.679089	-0.379268	-12.841012	-0.818311	-7.217237	-1.216912	0.119754	0.940205
-15.801003	-0.316268	16.65175	-106.253611	-219.230539	-39.439933	0.241536	0.201119	-1.105589	2.050297	0.873895	9.601281	-1.333878	-13.180754	5.414634	0.126082	-0.066043	-0.216141	8.811764	0.158591	-0.387265	-13.761738	-1.503094	-7.267478	-1.199543	0.1232	0.922252
-18.84369	0.847535	16.593967	-100.101463	-220.462393	-19.286765	0.2113	0.256862	-1.165379	2.669732	1.273168	9.553524	-0.320275	-14.751006	7.223912	0.13809	-0.060039	-0.210137	9.041118	-0.073187	-0.326719	-14.159474	-2.200017	-6.060609	-1.203522	0.150207	0.908381
-23.304894	-3.427801	22.851812	-109.842282	-204.550702	7.267878	0.182997	0.25069	-1.112895	2.89564	1.329779	9.557769	0.364354	-16.90646	8.605867	0.126082	-0.084055	-0.222145	8.937015	0.682322	0.245367	-14.188039	-2.851939	-3.445874	-1.236033	0.139067	0.93182
-26.479865	-1.409428	16.147427	77.294117	-179.169198	34.362355	0.132457	0.230367	-1.151105	2.667218	1.387956	9.43532	-2.731795	-18.784357	10.699239	0.126082	-0.078051	-0.210137	8.9359	0.102833	0.128554	-13.755865	-3.36923	-1.260002	-1.172384	0.138085	0.940835
-25.960259	0.833167	7.725636	28.318847	-156.986087	59.056013	0.11741	0.208332	-1.114678	2.341886	1.502244	10.1956	-7.976324	-22.671587	15.43007	0.132086	-0.060039	-0.228148	8.759098	0.275549	-0.159497	-13.230693	-4.140569	1.605108	-1.203522	0.150207	0.908381
-28.274106	-0.327837	6.694271	9.721377	-114.652534	81.993408	0.087435	0.223925	-1.117779	3.129495	1.271094	9.975218	-9.966266	-32.147933	19.745781	0.120078	-0.072047	-0.210137	9.283191	0.103464	0.420772	-11.938105	-4.438133	4.157479	-1.187053	0.148899	0.907518
-26.463554	0.421863	5.460738	-1.835358	-48.342644	96.365192	0.087435	0.223925	-1.117779	2.973359	0.411204	10.563483	-14.157738	-39.441574	25.115493	0.114074	-0.060039	-0.222145	9.570376	0.566855	0.599783	-9.261446	-4.991798	6.539699	-1.201342	0.113693	0.956432
-24.520129	2.566852	5.215696	-21.246335	28.088508	104.705922	0.065843	0.189136	-1.171048	2.530792	2.301797	11.377442	-22.983899	-59.017189	32.368301	0.10807	-0.066043	-0.222145	9.396953	0.74036	0.483009	-5.971094	-5.097888	8.180803	-1.168785	0.157098	0.872475
-20.167861	5.993486	7.911329	-28.101548	80.716572	102.384261	0.068279	0.206395	-1.153992	2.208209	2.587657	12.314417	-28.112483	-77.428165	38.757706	0.114074	-0.060039	-0.222145	9.685059	0.161353	0.600195	-2.896544	-5.065897	8.594181	-1.203995	0.131698	0.947184
-11.633189	13.072328	10.525758	-7.453267	132.475178	80.694184	0.117792	0.227844	-1.133943	4.125675	1.436724	11.940392	-24.200577	-87.839153	37.268396	0.090059	-0.072047	-0.210137	9.627558	-0.128278	0.540663	-1.728706	-4.812631	9.02276	-1.200869	0.132202	0.917629
0.893931	21.609632	17.846585	35.426661	151.483819	24.673124	0.15123	0.228385	-1.095627	4.020157	2.925552	12.584581	-8.848985	-90.118708	31.683154	0.096063	-0.072047	-0.210137	9.566554	0.218425	0.369837	-1.546587	-3.800664	9.122608	-1.159041	0.136273	0.969528
15.001627	27.762134	23.748316	361.061296	84.999206	-126.849655	0.164868	0.232034	-1.130949	3.35769	2.0097	13.281168	-18.689684	-112.36065	34.352826	0.084055	-0.060039	-0.222145	10.301754	-0.07385	0.097703	-2.96446	-2.01661	11.612062	-1.189279	0.153148	0.919984
8.156643	-10.130942	0.576729	155.193126	166.284491	-174.276386	0.126819	0.156824	-1.146686	3.439479	1.548957	14.58107	-10.428795	-129.447654	33.296854	0.084055	-0.066043	-0.228148	10.742545	-0.020281	-0.635222	-7.820747	-1.446727	22.857812	-1.208874	0.153952	0.950403
-4.770093	6.561236	9.14408	51.972576	176.430664	-121.62708	0.155766	0.142358	-1.161746	4.145092	0.742483	15.952535	-10.322802	-152.734708	29.606336	0.078051	-0.078051	-0.216141	11.779105	0.965065	0.074625	-10.460884	-2.244414	31.058001	-1.203096	0.136451	0.930095
-11.059781	6.170896	13.063266	79.613211	98.478119	-73.09433	0.203869	0.145421	-1.140592	4.427604	-0.690274	15.724506	-1.870355	-179.967417	21.559028	0.048031	-0.048031	-0.210137	12.965779	1.597696	-0.298477	-9.503548	-4.122643	30.40333	-1.158141	0.141026	0.952438
-8.948361	1.219027	6.447265	102.803933	91.22686	-16.562839	0.153329	0.125098	-1.178801	4.152847	-0.403772	16.190566	8.267969	-205.844706	11.837247	0.048031	-0.054035	-0.210137	13.83027	2.641016	0.351162	-4.9216	-5.19757	24.061325	-1.175936	0.151337	0.948677
-0.796137	3.939831	6.90521	31.362187	95.010192	47.971127	0.183304	0.109506	-1.175701	3.535842	0.571364	16.589888	12.464462	-232.709581	2.607119	0.042027	-0.060039	-0.192125	13.043086	2.702871	0.849487	-1.915168	-3.985042	8.849648	-1.221791	0.142008	0.943424
-0.775247	0.988932	10.712715	10.087652	86.097461	38.177337	0.166585	0.109235	-1.194859	3.336589	0.684092	18.060343	14.563211	-263.134441	-2.943664	0.03002	-0.042027	-0.198129	11.633702	2.361491	1.504859	-1.583326	-2.358263	-1.401516	-1.205748	0.154456	0.920847
-3.075544	0.003734	10.375546	14.670608	77.717866	31.51984	0.232434	0.111443	-1.136387	4.417086	0.279299	18.376701	17.374229	-288.624155	-8.296794	0.006004	-0.054035	-0.192125	10.769086	1.955294	0.915204	-0.356013	-1.40726	-2.518039	-1.205322	0.140701	0.942561
-7.638096	-0.866144	8.779971	-71.869014	-47.780098	-39.692486	0.211224	0.096166	-1.20892	3.969766	-0.979872	18.429241	19.312737	-324.046059	-22.632108	-0.024016	-0.066043	-0.186121	9.905153	1.201719	0.323971	1.39635	-1.541483	-4.401799	-1.18838	0.157902	0.902894
-4.200109	2.039415	11.629503	37.897259	-7.735651	-12.789913	0.24428	0.077194	-1.151339	4.330765	-2.128469	19.440794	23.705928	-344.766505	-39.918004	-0.036023	-0.072047	-0.174113	9.156563	0.853716	-0.148984	2.078574	-3.477647	0.693324	-1.206648	0.149703	0.937937
-1.745062	1.157662	8.093182	59.420773	1.760878	-10.466711	0.255481	0.063584	-1.203717	3.314436	-2.469156	19.421844	41.580316	-366.929666	-61.840422	-0.048031	-0.048031	-0.168109	9.163662	0.681604	0.19278	3.903625	-7.555434	6.517	-1.193305	0.147891	0.96663
-1.994227	1.104509	9.995215	35.073447	-0.905285	-15.986953	0.239789	0.062187	-1.204715	2.514108	-0.518522	19.226179	72.432344	-376.599095	-78.179592	-0.054035	-0.066043	-0.150098	9.162183	1.434257	0.196197	6.743983	-12.408871	7.623503	-1.208401	0.172461	0.911599
-2.113267	1.974842	9.82158	55.848108	2.731619	-4.535863	0.196177	0.074131	-1.172494	1.254521	0.179164	15.36713	116.130886	-378.688733	-86.49044	-0.078051	-0.072047	-0.150098	9.499565	1.316731	-0.02594	8.843748	-16.10805	8.791003	-1.220891	0.146762	0.926334
-1.09829	1.681391	8.916419	37.413088	2.16261	-3.601651	0.243897	0.057682	-1.132075	1.91353	1.90232	11.5432	136.135495	-366.67931	-72.745632	-0.078051	-0.078051	-0.114074	9.448128	1.955282	0.318379	7.835744	-18.777652	10.254339	-1.243565	0.179326	0.925791
-1.604496	1.683149	9.426465	26.613992	1.439649	-4.046989	0.224359	0.02064	-1.149024	2.628724	1.901931	10.495323	131.24508	-353.106147	-53.42125	-0.102066	-0.084055	-0.096063	9.049514	2.535305	0.370216	6.395139	-20.640622	10.687379	-1.191079	0.143642	0.954164
-0.925205	1.913534	8.978222	20.119649	1.422283	-1.3264	0.256508	0.062458	-1.185557	3.098948	1.669774	11.448425	125.433382	-328.620357	-33.89242	-0.120078	-0.096063	-0.084055	9.564813	2.824552	0.552943	4.491713	-21.778107	11.406944	-1.246691	0.178822	0.955347
-1.146478	1.624522	9.377654	9.996673	0.245039	-1.378618	0.240434	0.041549	-1.16729	5.326086	0.921505	9.546205	130.668063	-311.579405	-13.577146	-0.120078	-0.090059	-0.054035	10.196468	3.577531	0.911302	4.894701	-23.316198	10.068509	-1.208874	0.153952	0.950403
-1.037361	1.565669	9.090727	3.464291	-0.30935	-2.193447	0.254716	0.02456	-1.165188	4.892778	-1.021184	7.182043	93.253463	-303.237278	7.169128	-0.114074	-0.084055	-0.042027	10.822514	3.170742	0.864758	7.108455	-23.775911	5.717558	-1.225343	0.15526	0.951266
-1.196841	1.451288	9.722981	-0.244742	-0.492527	-1.837775	0.254071	0.045198	-1.202612	-5.993893	-5.681871	4.326724	27.550167	-248.708654	25.814391	-0.132086	-0.096063	-0.018012	11.733721	3.111025	0.882515	8.703554	-22.89104	-0.961842	-1.289892	0.151489	0.959341
-1.546997	1.567008	9.427329	-5.143293	-0.370712	-1.196825	0.23697	0.025416	-1.202506	-15.701034	-8.221108	-1.635454	64.935192	-88.29175	25.751825	-0.132086	-0.096063	0.012008	11.901172	3.109895	0.714618	10.264219	-20.630549	-9.508664	-1.241339	0.175077	0.913325
-1.431998	1.334726	9.429056	-6.498931	-0.821004	-1.672039	0.225124	0.059664	-1.187553	-14.522035	-7.775956	4.166396	57.396421	92.960854	58.930288	-0.144094	-0.102066	-0.006004	11.663274	2.528758	0.136562	12.317175	-18.328095	-16.341229	-1.261407	0.157372	0.982548
-1.598503	1.393634	9.71484	-5.829703	-0.411383	-1.396092	0.247789	-0.007706	-1.235619	-9.665361	-4.98369	4.490874	52.130202	135.390255	55.355227	-0.156102	-0.096063	-0.012008	11.212813	1.662011	0.294886	13.354695	-15.458178	-20.959702	-1.226243	0.150507	0.968356
-1.367918	1.509637	9.777506	-2.428738	-0.40883	-1.446273	0.203149	0.005363	-1.221557	-7.40338	-7.229513	7.310221	49.570482	237.015312	38.919664	-0.144094	-0.102066	-0.012008	10.919427	1.486787	-0.168271	14.210428	-13.430165	-22.684452	-1.231122	0.172761	0.971574
-1.646302	0.930467	10.175098	-0.683865	0.006957	-1.470672	0.190276	0.040738	-1.224765	-4.025355	-6.837575	6.725707	38.555257	231.725784	15.129136	-0.144094	-0.078051	-0.018012	10.395004	1.253334	-0.807473	14.883946	-12.248397	-23.289404	-1.228042	0.141001	1.002535
-1.485623	0.986945	9.600519	1.521984	-0.089903	-0.915902	0.142435	-0.002475	-1.189229	-2.769141	-5.296054	7.690875	22.58864	234.651889	-15.315932	-0.126082	-0.096063	-0.036023	10.117955	0.792309	-0.472654	14.235686	-11.127173	-22.982426	-1.193778	0.129382	1.005433
-1.482639	1.451706	9.775081	2.359584	0.04278	-0.991481	0.203794	-0.015275	-1.184133	-2.528688	-5.006586	5.453794	-4.889466	222.501651	-37.940386	-0.126082	-0.090059	-0.048031	10.064505	0.735315	-0.302767	12.511642	-10.010313	-21.212924	-1.210247	0.13069	1.006296
-1.428903	1.683402	9.603338	3.488405	0.285634	-0.672188	0.202767	-0.014149	-1.202293	-2.345557	-4.091941	6.340432	-36.074321	224.837766	-53.444618	-0.120078	-0.096063	-0.060039	9.661522	0.097936	-0.599003	9.863775	-8.264748	-19.218283	-1.261407	0.157372	0.982548
-1.262342	1.566451	9.317414	3.213574	-0.022619	-0.097691	0.204176	0.004237	-1.203397	-2.208079	-3.178141	7.815986	-53.052304	233.452204	-64.426366	-0.090059	-0.10807	-0.078051	9.381526	0.562991	-0.31707	6.907959	-6.334545	-17.535466	-1.224063	0.113993	1.016407
-1.130698	1.858649	10.18762	3.269237	0.181197	0.67334	0.253044	0.046324	-1.220773	-1.858414	-1.977342	8.587376	-53.751053	250.885843	-70.6111	-0.078051	-0.102066	-0.102066	9.158133	1.20162	-0.033223	4.505624	-4.345305	-15.239318	-1.22359	0.132502	0.977603
-1.256682	1.625192	9.606628	1.92301	0.101589	0.090884	0.20033	-0.031408	-1.219348	-1.005742	-1.063931	9.015053	-53.238123	270.334931	-71.824555	-0.072047	-0.102066	-0.114074	9.103442	1.20226	0.079835	2.658003	-2.926663	-13.263429	-1.239632	0.120054	1.00018
-1.368252	1.857893	9.778345	1.464991	0.141964	0.286786	0.219868	0.005634	-1.202399	-0.085748	-0.495358	9.975426	-53.68048	283.680939	-66.900701	-0.054035	-0.084055	-0.120078	8.762682	1.318998	0.130696	2.47152	-2.017551	-12.734957	-1.228515	0.122492	1.041339
-1.25777	1.567009	9.548673	1.23514	0.514471	0.521464	0.199685	-0.01077	-1.256773	1.382396	-0.04145	10.002867	-57.754177	289.875186	-59.118948	-0.024016	-0.084055	-0.162106	9.338644	1.435231	0.485037	2.440635	-1.930054	-12.461874	-1.211573	0.139693	1.001673
-1.597249	1.277689	9.772376	1.602658	0.86519	1.199439	0.185283	-0.053443	-1.182921	0.160579	1.11603	5.20009	-82.75455	294.94056	-41.558956	-0.012008	-0.102066	-0.156102	8.879606	1.493248	0.305013	3.916672	-2.167343	-13.824831	-1.240486	0.147566	0.956753
-1.42907	1.85753	9.603758	1.20816	0.481561	0.734669	0.20033	-0.031408	-1.219348	3.119806	-2.055147	11.986025	-109.700772	322.281319	-30.755507	-0.006004	-0.096063	-0.168109	9.44781	0.970518	0.199725	5.978458	-3.151486	-15.993171	-1.22269	0.137255	0.960513
-1.822118	1.162385	9.998783	1.336569	0.883147	0.381399	0.186692	-0.035057	-1.184026	4.786337	-1.432614	13.609426	-101.830326	321.674341	-32.039129	0.018012	-0.084055	-0.186121	9.112123	0.798825	0.47764	8.501662	-4.114255	-17.15017	-1.277022	0.131169	1.026838
-1.363513	1.684324	10.009185	2.32507	1.013895	0.149357	0.184638	-0.032805	-1.220346	5.323855	-1.259903	12.144983	-93.69366	299.632698	-38.633921	0.060039	-0.066043	-0.198129	9.388955	0.796416	0.083626	10.747848	-4.848364	-17.426941	-1.21072	0.112182	1.0451
-1.594042	1.510279	9.946379	3.131059	1.255486	1.209698	0.219103	-0.03339	-1.16387	4.608099	-1.426183	10.067242	-111.599896	284.688309	-36.344379	0.078051	-0.054035	-0.210137	8.706546	0.33461	0.068008	12.31771	-5.46066	-16.150234	-1.190225	0.116131	0.997591
-1.661328	1.102778	9.423925	1.324765	1.154755	0.820666	0.188102	-0.016672	-1.185131	4.574592	-0.397185	11.480332	-145.566434	277.478127	-25.215015	0.10807	-0.066043	-0.228148	9.054747	-0.127929	0.358124	13.487052	-5.712324	-14.731116	-1.244984	0.1238	1.042202
-1.420735	1.510252	10.007623	2.665674	1.268933	1.129635	0.200713	-0.011896	-1.238613	3.234551	0.292689	12.456038	-171.902164	272.028632	-0.71445	0.120078	-0.054035	-0.216141	8.942316	0.278099	0.471896	13.578957	-5.425059	-13.360884	-1.236979	0.10205	1.009428
-1.136944	1.219341	9.839194	3.023915	1.750716	1.232585	0.213585	-0.047271	-1.235406	1.869397	1.380735	15.199951	-176.376766	274.696065	32.619688	0.150098	-0.036023	-0.222145	8.816052	-0.303792	-0.218091	13.116967	-4.905741	-11.570808	-1.174229	0.096314	1.035532
-1.196897	1.50933	9.723121	4.420915	2.274474	0.73194	0.168946	-0.034201	-1.221344	2.578995	2.52129	17.098966	-163.56145	273.831707	71.171846	0.150098	-0.024016	-0.204133	8.588951	-0.071488	-0.164453	12.255336	-4.475149	-10.331388	-1.208067	0.094177	1.054347
-1.136833	1.103255	9.838915	7.00848	3.102236	0.459957	0.218459	-0.012752	-1.201295	3.942857	3.31838	17.654625	-144.276736	267.834321	112.170775	0.162106	-0.006004	-0.198129	8.652083	0.219457	0.180541	11.608662	-3.866606	-8.51381	-1.255247	0.093851	1.04447
-1.023812	1.741474	9.784923	7.881313	3.406149	-0.984591	0.22825	-0.044748	-1.252568	5.514389	4.460167	17.27002	-127.069796	258.552245	149.932588	0.174113	0.012008	-0.204133	8.307044	0.219351	0.002507	10.930292	-2.832494	-6.492185	-1.192924	0.101871	1.048861
-1.466581	1.395619	10.584348	13.18699	5.242504	-1.493666	0.174202	0.01983	-1.206498	7.989657	5.427451	16.844105	-127.567605	245.844057	180.885509	0.222145	0.024016	-0.198129	8.144326	0.105739	0.398247	10.282717	-1.827302	-4.561497	-1.208067	0.094177	1.054347
-1.706477	1.452627	10.059583	20.274054	6.831975	-0.89397	0.206231	0.001984	-1.167077	12.42117	5.354733	18.167969	-119.97308	231.060402	187.282739	0.264172	0.024016	-0.204133	8.026162	-0.010877	0.1671	9.142592	-0.419906	-1.23588	-1.241005	0.096792	1.056073
-1.251498	0.987281	9.83635	21.850556	8.120839	-1.398009	0.185283	-0.053443	-1.182921	18.699524	5.220824	18.52479	-91.546938	219.424616	166.625148	0.258168	0.018012	-0.216141	8.024023	-0.069299	0.052653	7.511031	0.794342	2.305622	-1.242758	0.11955	1.029736
-1.133515	1.21976	10.012639	22.116818	9.01245	-1.826104	0.245997	-0.045604	-1.21525	23.375004	3.890779	17.555313	-47.974866	215.780189	120.648126	0.264172	0.018012	-0.210137	7.962575	-0.070237	-0.176842	5.756955	1.848829	6.186547	-1.204514	0.080925	1.046505
-1.541337	1.62575	9.716542	24.799864	10.539895	-1.643784	0.232359	-0.049253	-1.179927	27.786246	1.877663	14.399702	-1.033063	211.113559	54.48059	0.24616	0.012008	-0.216141	8.116727	0.388913	-0.97065	3.941914	2.768169	10.865394	-1.224063	0.113993	1.016407
-1.539719	2.322541	9.833849	17.737785	10.158559	-2.836194	0.243942	-0.043352	-1.25157	29.968575	-0.241056	9.844911	12.573075	192.688293	-18.818362	0.264172	-0.024016	-0.204133	8.638124	-0.131339	-0.563235	2.834593	3.478493	15.766885	-1.256147	0.089098	1.06156
-1.430966	1.450951	9.48715	16.247981	11.577772	-2.375788	0.225431	-0.08152	-1.250359	30.559494	0.624203	5.254414	0.886397	131.459868	-89.388803	0.270176	-0.012008	-0.198129	8.567996	0.271158	-1.190534	1.9733	4.027426	19.358297	-1.241431	0.110548	1.03436
-1.248626	1.568127	10.011191	11.892896	11.6473	-3.522334	0.229922	-0.066513	-1.196983	27.288791	2.528628	2.829119	-76.232766	84.290564	-134.934553	0.270176	-0.012008	-0.186121	9.310954	0.617846	-1.00304	0.49664	4.620274	21.538548	-1.2588	0.107103	1.052312
-1.314126	1.68329	9.605624	11.067107	12.668063	-4.53034	0.212176	-0.065657	-1.234301	25.529301	5.736977	5.974671	-118.15924	35.386292	-156.107756	0.270176	-0.006004	-0.204133	9.605693	0.67754	-0.483316	-1.535361	5.764957	21.164675	-1.260126	0.116105	1.047689
-1.370427	1.741528	9.662436	7.838692	14.312843	-5.975101	0.180027	-0.107474	-1.197768	22.019751	8.263099	9.087755	-103.882329	-10.910386	-168.795137	0.258168	0.006004	-0.192125	10.279889	0.731968	-0.926275	-4.858931	6.85689	19.133626	-1.240578	0.083037	1.077787
-1.236917	1.279311	10.58864	6.92939	17.271092	-6.626513	0.179382	-0.086836	-1.235193	18.659922	8.327674	10.733459	-22.379001	-44.711374	-174.70943	0.288188	0.018012	-0.180117	9.778889	0.619828	-0.366016	-8.089946	7.827807	17.075281	-1.208493	0.107932	1.032634
-1.185912	1.975069	10.302386	1.265536	22.217574	-8.336147	0.223639	-0.119417	-1.229989	14.308239	10.059062	10.941743	20.327054	-69.301742	-162.738166	0.264172	0.018012	-0.186121	10.122927	-0.017452	-0.305058	-11.412336	8.593751	16.366834	-1.231641	0.121988	1.070895
-1.460279	1.976885	10.932634	-2.981152	27.707174	-9.72101	0.210001	-0.123066	-1.194667	8.014353	11.397229	9.933788	68.696153	-93.972442	-129.285747	0.27618	0.036023	-0.186121	9.668507	-0.016279	-0.256976	-13.657292	8.817185	15.952006	-1.24811	0.123296	1.071758
-1.619704	1.804461	11.564748	-10.126616	44.354075	-12.962267	0.226458	-0.082646	-1.232198	-2.294763	12.804992	8.730579	118.51045	-117.948077	-65.170774	0.27618	0.012008	-0.192125	9.279016	0.50795	0.251336	-13.841243	8.573342	15.712007	-1.191125	0.111378	1.014681
-1.566412	2.500498	11.394124	-12.226937	61.333068	-16.493134	0.197129	-0.087692	-1.197874	-9.156058	2.127223	-0.465774	111.764604	-160.9899	50.097111	0.252164	0.018012	-0.186121	9.910352	0.276165	0.491042	-12.363222	7.716576	16.871391	-1.193824	0.097118	1.065951
-1.71912	1.284004	12.312797	-15.752246	71.463715	-18.590684	0.231976	-0.068765	-1.160663	-11.612941	7.287879	35.691326	34.893634	-143.254212	89.23155	0.252164	0.006004	-0.180117	10.198436	0.855612	0.72767	-7.3467	5.996239	21.372732	-1.212046	0.121184	1.040476
-1.243323	3.904898	16.200675	-46.480799	75.99281	-33.655048	0.259897	-0.082105	-1.193882	-4.835406	-6.385442	11.899523	240.872471	-173.565066	52.265385	0.252164	0.018012	-0.192125	11.568658	1.896331	1.044893	-0.607887	4.674386	31.439833	-1.2597	0.10235	1.069402
-2.045754	3.571646	22.020841	-40.812183	126.233255	-33.988091	0.243177	-0.082376	-1.21304	4.569176	12.052761	0.90162	140.539669	-167.27218	59.892723	0.24616	0.006004	-0.198129	12.964653	1.597433	-0.355569	1.422541	3.988703	29.78468	-1.245883	0.119046	1.059292
-2.655258	0.426104	17.146567	41.251042	165.169358	-20.100926	0.260924	-0.083232	-1.175722	8.231267	4.982435	8.4155	63.656953	-130.321325	72.371924	0.228148	-0.018012	-0.186121	13.988483	2.753576	-0.272947	5.761353	1.85962	24.077437	-1.262352	0.120354	1.060155
-0.555226	2.104628	16.094429	13.576369	184.625247	-24.05301	0.296919	-0.005769	-1.196305	10.773585	-1.617043	10.421992	60.120733	-86.158877	26.897682	0.204133	-0.012008	-0.174113	14.495558	3.214672	-0.489077	10.129009	-0.084725	12.126984	-1.245411	0.137555	1.020488
-0.975104	2.922561	18.110759	-3.624286	227.465332	-30.563453	0.293717	-0.062053	-1.174831	3.758489	1.388202	7.333047	68.251126	-72.964341	-31.455726	0.204133	-0.006004	-0.174113	13.859489	3.561199	-0.956625	11.143364	-1.535104	-2.881449	-1.166192	0.130512	1.04573
-1.856434	1.418674	19.881096	4.603487	266.434376	-23.659344	0.384668	-0.109957	-1.147369	1.11313	2.426157	8.04715	42.286767	-69.9033	-36.15829	0.204133	-0.012008	-0.180117	12.222684	2.467358	-0.366267	9.819265	-1.794896	-13.342937	-1.196903	0.128878	1.034989
-0.985324	1.419097	20.418573	6.128262	301.058745	-16.988073	0.417844	-0.069266	-1.165742	3.245943	0.124905	9.979422	33.34347	-47.144307	-29.550373	0.216141	-0.012008	-0.180117	11.196931	1.716227	-0.504142	7.108967	-0.482725	-19.382983	-1.167991	0.121006	1.079909
-0.584472	1.128354	20.368061	10.520065	339.182917	-10.271781	0.4568	-0.054845	-1.05589	1.299463	-1.762216	11.360743	17.514587	-17.919505	-5.80366	0.204133	-0.018012	-0.180117	10.18276	1.952489	0.047559	5.873795	1.447785	-22.493148	-1.23472	0.153748	1.039934
0.694405	0.78083	21.201775	11.777358	367.20786	4.630636	0.469028	-0.069582	-1.090108	5.476979	-0.10824	8.371289	40.967114	-13.730077	-6.758222	0.192125	-0.012008	-0.150098	9.552664	2.126641	-0.135318	5.435945	4.624683	-22.202131	-1.209393	0.103179	1.049724
1.590231	1.473797	20.123259	33.251719	391.814092	18.424028	0.58298	-0.064311	-1.010482	1.252951	0.36136	9.173981	33.830753	-12.994659	-11.953082	0.210137	-0.012008	-0.162106	8.535477	1.029971	0.124876	4.719775	8.366112	-23.026863	-1.238778	0.092543	1.043607
1.479398	1.177072	17.404123	51.287848	405.381394	23.442105	0.614627	-0.101668	-0.951796	3.927543	-0.27839	10.111172	40.277292	-7.205454	-2.606	0.198129	0	-0.162106	8.074846	1.898539	-0.051467	5.173955	11.290709	-23.581658	-1.260172	0.083841	1.108206
0.195022	5.11592	13.573848	59.457023	413.070765	22.127142	0.669778	-0.006676	-0.936165	1.921875	0.932949	8.773004	48.366489	-11.427075	-11.484522	0.204133	-0.012008	-0.150098	6.994061	1.321736	-0.075495	5.353316	14.032006	-18.199699	-1.232114	0.103479	1.109698
-1.076945	3.02621	12.965524	63.664571	398.78653	0.995833	0.709041	-0.133439	-0.889119	1.920383	0.703983	8.65541	37.357366	-7.447844	-6.811276	0.192125	-0.012008	-0.144094	6.412911	1.55183	-0.656627	4.45657	16.948711	-11.084284	-1.194251	0.110874	1.044237
-2.096815	3.892486	10.751228	59.890863	382.410615	2.522028	0.766891	-0.061338	-0.799743	2.487773	1.790327	8.959349	32.624355	-7.403135	-8.552574	0.204133	-0.006004	-0.144094	6.871278	1.261964	-0.534747	4.083529	19.36122	-4.65803	-1.246356	0.100538	1.098095
-3.620892	0.290954	8.920589	23.126087	366.797686	-8.093469	0.814229	-0.097299	-0.740059	2.429826	1.905184	8.899059	20.078118	-6.173206	-5.916039	0.210137	-0.024016	-0.13809	6.345501	1.144041	-1.230515	2.665317	21.9936	4.662874	-1.243231	0.101042	1.068539
-4.167522	0.243864	13.186169	-32.856743	347.119745	-3.536612	0.830565	-0.116541	-0.701637	2.383299	1.102549	9.312394	16.75345	-5.186667	-4.866556	0.192125	-0.036023	-0.13809	7.703346	1.602642	-1.601027	1.00178	24.106609	11.608652	-1.177782	0.109566	1.043374
-1.467434	-0.338898	13.354122	-21.800861	333.833705	14.113384	0.868877	-0.081481	-0.62921	2.038855	0.703134	8.952584	16.620274	-4.888144	-3.946314	0.192125	-0.024016	-0.126082	8.325433	2.063773	-1.757812	-1.490884	25.406542	14.837521	-1.226335	0.085978	1.08939
13.054125	-4.94567	10.627031	-13.90181	231.764246	42.009412	0.887268	-0.102976	-0.554467	2.157392	1.045939	9.308149	16.43112	-5.63589	-3.771064	0.198129	-0.03002	-0.126082	9.175646	1.771533	-1.970601	-5.119294	25.793908	16.674597	-1.208067	0.094177	1.054347
19.886491	-7.30217	-0.800927	91.291001	93.413581	43.51648	0.886885	-0.122488	-0.535202	2.826869	0.701053	8.790797	15.052458	-5.133303	-3.935956	0.192125	-0.012008	-0.144094	10.882693	2.404981	-1.933922	-8.40715	24.721083	13.959909	-1.179154	0.086304	1.099267
7.369978	-9.49664	-1.460109	-32.769227	-59.527965	24.595714	0.935371	-0.099912	-0.533313	2.328378	0.930741	9.370613	14.664389	-4.94849	-3.01375	0.198129	-0.018012	-0.13809	11.499388	2.169778	-2.436415	-12.277339	22.636217	8.757667	-1.211619	0.107428	1.06219
7.873952	-4.311052	6.884512	11.040392	-252.987009	47.146341	0.908095	-0.107211	-0.462668	2.433576	0.64475	8.901292	13.346831	-4.290404	-2.645505	0.192125	-0.012008	-0.144094	11.742133	2.578278	-1.630779	-16.02335	19.928731	2.255285	-1.173329	0.101067	1.018442
11.13492	-3.495701	9.378696	-15.434252	-217.181216	62.268516	0.87363	-0.106625	-0.519145	2.597083	1.217569	8.667536	12.358035	-4.097573	-1.979102	0.198129	-0.024016	-0.120078	12.152794	2.174836	-1.053814	-19.985103	17.652893	-2.545657	-1.208966	0.089424	1.071437
7.790274	-4.31421	5.55363	-41.808629	-221.726447	72.612764	0.885476	-0.140873	-0.534097	2.32695	1.045427	9.311409	9.705708	-3.605689	-2.09838	0.168109	-0.012008	-0.132086	11.302934	1.714159	-0.901534	-23.454562	15.17625	-7.859348	-1.159986	0.099256	1.047135
7.229218	-3.383294	6.238213	-64.024429	-202.998951	79.015846	0.882777	-0.117983	-0.607842	2.545997	1.217232	8.96145	8.333152	-3.346649	-1.784637	0.198129	-0.036023	-0.132086	10.700676	0.910118	0.22424	-24.373062	13.195107	-11.396915	-1.195623	0.087612	1.10013
6.200778	-2.162697	6.509648	-78.910173	-193.685423	77.368387	0.84652	-0.155295	-0.643949	2.379698	1.217439	9.135191	5.640408	-3.107667	-1.795047	0.186121	-0.024016	-0.144094	10.921577	0.965983	-0.113545	-24.924344	12.354434	-10.952173	-1.211619	0.107428	1.06219
6.668501	-0.420604	7.043317	-88.159989	-198.986377	68.597512	0.816928	-0.12019	-0.666315	2.212484	1.160455	9.250033	4.334516	-2.790971	-1.449124	0.180117	-0.024016	-0.132086	9.966169	0.275788	0.435076	-25.3238	12.500781	-8.755511	-1.160886	0.094502	1.064225
6.29366	0.163566	8.424268	-84.33829	-216.353954	49.942	0.830828	-0.156691	-0.644947	2.043841	1.218157	9.305672	3.532058	-2.662386	-1.473516	0.204133	-0.018012	-0.126082	9.793872	0.449556	0.375394	-24.369429	12.279246	-5.411387	-1.160413	0.113011	1.025421
5.897688	1.325648	8.76595	-74.293293	-236.247227	25.962618	0.800591	-0.100948	-0.704737	2.319642	1.676152	9.015292	2.345605	-2.668364	-1.585294	0.192125	-0.006004	-0.132086	9.388625	0.390879	0.024694	-21.662338	11.92334	-1.871257	-1.147497	0.124955	1.032401
4.17228	1.675154	8.559055	-71.790167	-252.634769	1.147655	0.782725	-0.159754	-0.666101	2.435131	1.21737	9.077277	2.816745	-2.987383	-1.808309	0.174113	-0.018012	-0.126082	9.441848	0.563666	-0.144668	-18.892912	11.014858	-0.275459	-1.193397	0.083362	1.087664
2.518532	1.445854	9.045682	-73.878387	-262.200516	-20.586417	0.687283	-0.126857	-0.746939	2.269344	1.045699	9.251322	2.867334	-2.950492	-1.375119	0.186121	-0.03002	-0.13809	9.166597	0.334752	0.305387	-16.400177	10.104775	1.19654	-1.176455	0.100563	1.047998
1.155265	1.10061	9.71119	-78.587143	-267.000154	-36.744003	0.687283	-0.126857	-0.746939	2.100233	0.53068	9.189976	4.435321	-3.7901	-1.455064	0.186121	-0.018012	-0.132086	9.329873	0.738108	-0.031947	-14.675438	8.967954	2.853167	-1.162685	0.084996	1.098405
-0.608074	0.233512	10.425253	-82.126926	-271.218061	-43.432887	0.670564	-0.127127	-0.766097	2.391247	0.987254	9.725599	6.813913	-4.703221	-1.383763	0.204133	-0.018012	-0.126082	9.556406	0.795286	-0.084271	-13.35117	7.949866	2.363958	-1.163112	0.098752	1.076691
