1812_acc_x	1812_acc_y	1812_acc_z	1812_gyro_x	1812_gyro_y	1812_gyro_z	1812_mag_x	1812_mag_y	1812_mag_z	1813_acc_x	1813_acc_y	1813_acc_z	1813_gyro_x	1813_gyro_y	1813_gyro_z	1813_mag_x	1813_mag_y	1813_mag_z	1814_acc_x	1814_acc_y	1814_acc_z	1814_gyro_x	1814_gyro_y	1814_gyro_z	1814_mag_x	1814_mag_y	1814_mag_z
-1.135382	1.974175	9.956641	-1.085295	-0.045264	-1.371598	0.413619	-1.126308	-0.862708	2.437816	1.04529	9.195582	-1.578019	-1.977505	-0.34761	0.036023	0.288188	-0.24616	10.015911	-0.073544	0.03498	6.001781	0.192884	-14.204812	-1.186681	-0.050574	2.013047
-1.315603	2.031407	9.548648	-1.194233	0.13738	-0.994797	0.632134	-0.003933	-1.29926	2.781003	1.502099	9.496291	-1.244235	-2.047991	-0.456977	0.132086	-0.144094	-0.204133	10.065881	-0.538669	-0.365642	6.401704	0.078377	-14.414113	-1.204409	0.12177	0.821981
-1.60129	1.915739	9.600468	-1.955061	0.495907	-0.961986	0.615032	-0.023715	-1.299153	2.668986	1.158685	9.494727	-1.37236	-2.204384	-0.338734	0.13809	-0.150098	-0.210137	10.011293	-0.016699	-0.193126	6.432941	-0.161921	-14.71424	-1.201756	0.103765	0.831229
-1.368753	2.380277	9.779603	-1.706135	0.394195	-0.758167	0.623107	0.067087	-1.286516	2.432553	0.988505	8.900683	-1.007062	-2.310426	-0.389719	0.13809	-0.13809	-0.192125	9.501624	-0.304631	-0.090392	6.46474	-0.646521	-15.069871	-1.17327	0.109648	0.854435
-0.919434	1.85619	9.267156	-2.506105	0.570314	-0.823595	0.618616	0.05208	-1.339892	2.492908	1.159805	9.137466	-1.627843	-2.350709	-0.307928	0.144094	-0.144094	-0.192125	9.846219	-0.652166	0.028972	6.649546	-0.769118	-14.913101	-1.137206	0.107536	0.823154
-1.258326	2.147436	9.550071	-2.590753	0.662023	-0.603902	0.640209	0.086869	-1.286623	2.326034	0.988236	9.252511	-1.341995	-2.238247	-0.311106	0.132086	-0.156102	-0.204133	9.839905	-0.306102	-0.254911	6.804082	-1.131865	-15.117965	-1.184387	0.107211	0.813276
-1.313762	2.496028	9.665396	-3.202537	0.768802	-0.462736	0.603951	0.049558	-1.32273	2.554626	0.872767	9.375061	-1.529777	-2.395533	-0.128944	0.13809	-0.126082	-0.198129	10.068577	-0.190502	-0.192788	6.804741	-1.408179	-15.080966	-1.137206	0.107536	0.823154
-1.599059	1.974061	9.716238	-3.075929	0.857803	-0.462091	0.637772	0.06961	-1.303678	2.716067	1.044843	8.965015	-0.859452	-2.641122	-0.138159	0.120078	-0.156102	-0.204133	10.288694	-0.30859	-0.588454	7.174098	-1.586181	-15.166613	-1.139433	0.111786	0.83562
-1.254452	1.683514	9.722397	-3.192548	0.982347	-0.331966	0.632134	-0.003933	-1.29926	2.4369	0.988099	9.136684	-1.192059	-2.963712	-0.239471	0.144094	-0.132086	-0.204133	10.065312	-0.249187	-0.364328	7.635956	-1.884292	-15.340737	-1.186186	0.097704	0.847456
-1.42472	2.090259	9.835576	-3.125274	1.10287	-0.267497	0.603831	-0.010105	-1.246775	2.203279	1.333144	8.777727	-1.127959	-3.103441	-0.003531	0.120078	-0.144094	-0.198129	9.61856	-0.709608	0.024205	8.06743	-2.33604	-15.511462	-1.12121	0.08772	0.861094
-1.771614	2.380527	9.713787	-3.060563	0.974005	0.031265	0.6639	0.018372	-1.316528	2.608397	0.701024	9.199451	-1.005859	-3.597657	-0.163285	0.13809	-0.144094	-0.198129	10.235129	-0.307687	-0.418304	8.098468	-2.485293	-15.752529	-1.167964	0.073639	0.872931
-1.202081	2.147241	9.493399	-3.585265	1.018975	0.015025	0.617851	0.013056	-1.301362	2.096525	1.046515	9.071062	-1.26885	-3.766438	-0.288166	0.13809	-0.144094	-0.186121	9.728044	-0.189556	-0.142454	8.682705	-2.508294	-15.779441	-1.186186	0.097704	0.847456
-1.493483	2.030875	9.256145	-3.618519	0.927115	0.042602	0.607415	0.065691	-1.287514	2.710975	0.930766	8.670217	-2.162809	-4.32919	-0.106341	0.13809	-0.150098	-0.198129	10.066097	-0.075235	-0.306447	8.345029	-2.78198	-16.203126	-1.151922	0.086086	0.850354
-1.423243	1.742143	9.892552	-3.590772	0.896828	-0.050979	0.684083	0.034776	-1.262155	2.722928	0.929649	9.319219	-2.497943	-4.849164	-0.003893	0.132086	-0.13809	-0.180117	9.959867	0.042626	0.091472	8.59137	-2.959687	-16.411789	-1.149269	0.068081	0.859602
-1.260501	2.031071	9.434161	-4.421617	1.073758	-0.11564	0.634953	0.032839	-1.301469	2.553305	0.586508	9.257568	-3.49039	-5.657242	-0.390495	0.132086	-0.13809	-0.210137	9.838995	0.157069	-0.252808	8.007429	-3.113345	-16.87017	-1.235593	0.101628	0.850045
-1.310697	1.683709	9.779069	-4.633061	1.264782	-0.163886	0.653847	0.090519	-1.321945	2.264763	0.759745	8.956829	-3.045984	-5.8581	0.105836	0.132086	-0.144094	-0.186121	10.28271	0.443012	-0.813405	7.761998	-3.439949	-17.781527	-1.17237	0.114401	0.837346
-0.973449	1.914708	9.439597	-4.659273	1.168676	0.168941	0.602542	0.031172	-1.321625	2.722587	1.044234	9.319016	-3.45594	-6.557726	0.137672	0.132086	-0.156102	-0.192125	10.005434	0.09778	-0.478061	7.085721	-3.616333	-18.851624	-1.198676	0.072005	0.86219
-1.66102	1.973558	9.483836	-4.126698	1.338525	0.224376	0.602542	0.031172	-1.321625	2.828467	0.529074	8.850101	-4.115784	-7.54599	0.530926	0.132086	-0.13809	-0.222145	9.54594	0.387383	-0.657033	5.70279	-3.988512	-19.706872	-1.137253	0.075272	0.883671
-1.426728	1.799766	9.719247	-4.372998	1.281821	0.350139	0.63598	0.031712	-1.283309	2.778126	0.64322	9.202813	-3.727532	-8.535583	0.700571	0.13809	-0.150098	-0.186121	10.006549	0.677269	-0.361248	4.965365	-4.263953	-20.346784	-1.137679	0.089028	0.861957
-1.198763	2.263746	9.667123	-4.330397	1.524878	0.511906	0.620288	0.030316	-1.284307	2.607886	0.872901	9.199147	-4.958783	-9.592469	1.666457	0.132086	-0.150098	-0.204133	9.66275	0.61953	-0.482453	4.074145	-4.591264	-21.751011	-1.131474	0.057771	0.863363
-0.971274	2.031073	9.555506	-4.199885	1.580158	0.724989	0.604334	0.06907	-1.341994	2.783048	0.81459	9.497509	-5.341054	-10.65719	2.106518	0.120078	-0.156102	-0.210137	10.005309	0.734903	-0.418077	2.905824	-4.766914	-23.282605	-1.135453	0.084778	0.849491
-1.317778	1.915042	9.432739	-3.821405	1.785238	0.754975	0.634953	0.032839	-1.301469	2.728638	0.470904	9.556032	-5.883982	-11.315826	2.640268	0.120078	-0.150098	-0.198129	9.781142	0.620354	-0.251831	1.768102	-4.826827	-24.327319	-1.1346	0.057267	0.892918
-1.428094	2.031797	9.661992	-4.368922	1.857522	1.045993	0.635598	0.0122	-1.264044	2.552453	0.87297	9.25706	-5.911384	-13.041048	3.51951	0.126082	-0.144094	-0.192125	9.490453	0.793297	-0.542135	0.200228	-5.013746	-25.432582	-1.187086	0.092951	0.864546
-1.317555	1.682871	9.43218	-4.467463	1.769408	0.922479	0.634953	0.032839	-1.301469	2.386836	0.644007	9.431207	-7.465973	-13.975765	4.783081	0.126082	-0.13809	-0.192125	10.006094	0.908855	-0.360196	-0.782908	-5.358054	-25.766351	-1.115905	0.05171	0.879589
-1.31223	2.089869	9.722232	-4.609458	2.01691	1.119376	0.606388	0.066817	-1.305674	3.346816	0.927572	9.449172	-5.080208	-14.76476	7.179734	0.126082	-0.132086	-0.192125	9.610744	1.547563	-0.13682	-1.398251	-5.20784	-26.079025	-1.131947	0.039262	0.902166
-1.138644	1.799628	9.782777	-4.668151	2.110781	1.124627	0.649235	0.015849	-1.299366	3.366716	0.81116	10.511378	-10.508444	-19.586957	10.930432	0.126082	-0.132086	-0.216141	10.122904	1.141002	-0.185616	-2.197777	-5.209079	-26.66447	-1.146616	0.050077	0.868849
-1.081311	1.857615	9.78406	-4.860687	1.963178	1.031463	0.612978	-0.021463	-1.335473	3.280907	1.152616	12.0426	-18.062654	-29.98582	11.897742	0.120078	-0.144094	-0.204133	9.958615	0.679486	0.094363	-3.182679	-4.761877	-26.649549	-1.117231	0.060713	0.874966
-1.255762	1.857502	9.665001	-4.816723	1.47042	0.949061	0.629053	-0.000554	-1.35374	3.421325	0.347846	13.403199	8.448728	-35.063588	-0.794547	0.120078	-0.144094	-0.204133	9.95973	1.258976	0.211176	-3.860601	-4.125165	-26.759725	-1.098109	0.0414	0.88335
-1.650566	1.800688	10.003749	-4.69277	-0.159898	0.573559	0.651027	0.053747	-1.319735	2.897053	1.209984	12.683894	38.945781	-38.031068	-10.159745	0.120078	-0.132086	-0.210137	10.29486	1.140923	-0.125145	-4.693284	-3.032842	-26.728359	-1.1346	0.057267	0.892918
-1.36368	1.858452	10.009604	-5.167928	-0.203278	0.155243	0.634953	0.032839	-1.301469	3.247093	0.468456	10.096813	44.72367	-45.43922	-11.123114	0.120078	-0.132086	-0.204133	10.182885	1.315366	-0.012425	-6.202618	-1.880308	-27.19144	-1.150596	0.077084	0.854978
-0.903432	1.858147	10.076563	-5.410318	0.051329	0.018665	0.620671	0.049828	-1.303571	2.650116	2.014486	11.675124	19.914381	-54.859924	-8.971246	0.114074	-0.144094	-0.192125	10.178494	1.256418	-0.241056	-7.127787	-0.748517	-27.83443	-1.113252	0.033705	0.888837
-1.13739	1.683682	9.840312	-5.254751	-0.047523	0.194263	0.63739	0.050098	-1.284413	3.27948	1.267302	11.983397	41.847823	-60.065192	-10.998669	0.114074	-0.150098	-0.198129	10.065733	1.256908	-0.186217	-8.760632	0.619308	-28.456113	-1.119457	0.064962	0.887432
-1.368085	1.683765	9.777926	-5.032036	0.099691	0.256134	0.619643	0.050954	-1.321731	3.315523	1.211768	10.863582	42.546139	-66.970158	-12.116038	0.114074	-0.156102	-0.186121	10.295759	1.256979	-0.067527	-10.086392	2.090564	-29.598551	-1.151495	0.072331	0.872068
-1.140763	1.62522	9.666728	-4.654137	0.179652	0.433791	0.602542	0.031172	-1.321625	3.274856	1.725946	11.805585	45.05965	-69.815944	-13.811707	0.10807	-0.156102	-0.180117	10.074527	0.795577	0.211326	-11.379679	2.988278	-29.228674	-1.117704	0.042204	0.913769
-1.080978	1.509359	9.783221	-4.315764	0.108803	0.453396	0.652055	0.052621	-1.301575	3.605088	0.694776	11.16493	54.752516	-74.99402	-17.123402	0.10807	-0.150098	-0.198129	10.003284	0.618584	-0.532787	-12.733841	3.638668	-28.761624	-1.101708	0.022387	0.95171
-1.203922	1.68262	9.376651	-4.535022	0.022237	0.455053	0.6639	0.018372	-1.316528	3.831273	0.293149	11.110987	54.243298	-80.197566	-18.860539	0.102066	-0.156102	-0.168109	9.67085	1.084804	-0.023612	-14.026591	4.320917	-28.325572	-1.131047	0.044016	0.885076
-1.023923	1.857559	9.785203	-4.137441	0.045408	0.232639	0.620933	0.009677	-1.246882	4.222392	0.349655	10.882491	58.155849	-85.286389	-22.172941	0.102066	-0.162106	-0.174113	9.561253	0.622649	0.143309	-15.657113	4.924556	-27.002453	-1.131947	0.039262	0.902166
-1.199573	1.91535	9.608469	-4.166086	-0.080598	0.503178	0.685231	0.093312	-1.319949	4.713746	0.693398	10.006659	61.092366	-89.430536	-25.513012	0.090059	-0.156102	-0.168109	9.223415	0.971761	0.366497	-16.826088	5.325216	-26.069797	-1.135499	0.052514	0.910008
-1.48618	1.567372	9.601916	-4.222793	0.137542	0.421807	0.611261	0.101336	-1.271563	4.878318	0.177864	9.656832	65.38543	-89.260018	-30.3568	0.102066	-0.180117	-0.156102	9.397851	0.856416	0.540626	-17.502417	5.423624	-25.005133	-1.062046	0.039288	0.852069
-0.967789	1.973449	9.72881	-3.669259	0.030263	0.434802	0.653082	0.051495	-1.283415	4.548917	-0.16568	10.122922	73.876187	-83.041132	-36.480141	0.090059	-0.174113	-0.144094	9.114705	1.204889	0.650757	-17.655178	5.130023	-23.928566	-1.100762	0.059405	0.874103
-1.597638	1.683988	9.773354	-3.327232	0.176779	0.310453	0.63598	0.031712	-1.283309	4.706118	-0.394143	9.418586	82.299244	-83.227121	-42.579514	0.10807	-0.162106	-0.156102	9.401116	0.915101	0.712166	-17.069654	4.660252	-22.752186	-1.085666	0.034835	0.929133
-1.251524	2.206317	9.897099	-2.978547	0.350647	0.431542	0.669156	0.072403	-1.301682	5.305141	0.29342	8.308318	84.301172	-83.101969	-49.41527	0.090059	-0.180117	-0.150098	9.454465	0.450764	0.48282	-16.514877	4.244152	-21.08782	-1.099009	0.036647	0.90044
-1.369395	1.857753	9.72053	-2.912618	0.409248	0.52406	0.634188	-0.006185	-1.26294	5.295808	-0.221197	7.71923	81.296306	-83.532918	-54.682806	0.084055	-0.162106	-0.132086	9.565189	0.913182	0.372992	-15.406552	3.745184	-19.571504	-1.067398	0.043033	0.894091
-1.312285	2.147911	9.722372	-2.785368	0.560596	0.466133	0.669801	0.051765	-1.264257	4.851387	0.466762	8.24032	78.049156	-72.939318	-57.71912	0.090059	-0.180117	-0.132086	9.524684	1.148825	1.229299	-14.237377	3.522371	-18.030687	-1.083394	0.06285	0.85615
-1.197286	1.915629	9.724099	-3.006036	0.474879	0.406739	0.638799	0.068484	-1.285518	4.735557	1.040129	8.178132	96.952813	-60.943113	-62.645836	0.096063	-0.198129	-0.13809	8.957174	0.74495	1.273289	-12.545011	3.08918	-16.329253	-1.113725	0.015197	0.927641
-1.540639	2.090231	9.775475	-2.817213	0.467887	0.55476	0.668391	0.033379	-1.263153	4.935321	0.755523	6.707982	107.021864	-57.396179	-65.412703	0.090059	-0.192125	-0.132086	9.580513	0.569221	1.113612	-10.72948	2.59439	-14.503393	-1.112352	0.038459	0.871747
-1.371737	1.915517	9.60504	-2.639913	0.373743	0.332763	0.621698	0.048701	-1.285411	4.627453	1.216948	5.403733	95.260982	-52.991424	-65.197252	0.090059	-0.198129	-0.114074	9.305136	0.97743	1.623651	-7.930834	2.390293	-12.862521	-1.063845	0.029782	0.886248
-1.019629	2.148332	10.017161	-2.574431	0.526714	0.276371	0.606388	0.066817	-1.305674	4.163174	1.27672	4.745936	78.95002	-49.516862	-63.175263	0.102066	-0.222145	-0.096063	9.076464	0.86183	1.561528	-5.962005	2.055632	-11.376026	-1.096737	0.064662	0.827457
-1.365799	1.684045	9.893555	-2.326399	0.613742	0.182372	0.635335	0.052351	-1.320733	3.802963	1.795202	3.676499	53.996399	-46.802762	-59.279866	0.090059	-0.204133	-0.114074	9.352284	0.801262	1.110159	-3.931767	1.726711	-10.22579	-1.096783	0.032397	0.887974
-0.968821	1.857224	9.670716	-1.99295	0.545865	-0.011698	0.619643	0.050954	-1.321731	4.253137	-0.096101	3.275541	20.433727	-43.29588	-56.411979	0.102066	-0.210137	-0.078051	9.41272	0.74404	1.282299	-1.992879	1.028845	-9.067495	-1.080741	0.044845	0.865398
-1.314405	1.973504	9.606323	-1.654956	0.506614	-0.051904	0.633926	0.033965	-1.319629	2.509171	0.824846	3.830233	-7.133211	-29.247299	-54.19864	0.10807	-0.204133	-0.120078	9.066328	0.859464	1.047698	0.222734	0.360959	-7.63314	-1.110553	0.047965	0.837567
-1.363569	1.742367	10.009325	-1.123396	0.645713	0.002292	0.654491	0.06988	-1.28452	-2.227794	-0.192811	4.153783	-16.80005	14.006503	-47.020966	0.10807	-0.204133	-0.096063	9.06891	1.265527	1.220815	1.515459	-0.074446	-6.117388	-1.115005	0.056463	0.8625
-0.956025	1.626591	10.30612	-0.819615	0.421081	0.077522	0.634571	0.013327	-1.282204	-4.756527	0.724804	8.114185	-23.748648	50.620463	-16.689627	0.10807	-0.228148	-0.084055	9.293532	1.148491	1.053518	2.56199	-0.446597	-4.940878	-1.064745	0.025029	0.903338
-1.142184	1.915294	9.609612	-1.188238	0.555089	0.000111	0.636363	0.051224	-1.302573	-5.152739	0.554222	8.047883	6.067057	65.640103	16.133575	0.120078	-0.204133	-0.102066	9.743675	1.030474	0.776541	2.993231	-0.671709	-3.862847	-1.078561	0.008332	0.913449
-1.194778	1.683738	9.839169	-1.218292	0.429933	0.2096	0.6361	0.091375	-1.359263	-3.935347	-0.19169	6.539104	8.167266	57.385657	55.411052	0.096063	-0.210137	-0.102066	9.811323	0.743244	1.290183	3.178393	-0.920536	-3.45847	-1.099909	0.031893	0.91753
-1.092575	1.682089	9.205493	-1.438831	0.563705	-0.146374	0.640209	0.086869	-1.286623	-2.836533	-0.535808	4.791441	-12.535028	47.222738	88.524729	0.126082	-0.210137	-0.10807	10.256506	0.855761	0.785889	2.747904	-0.896094	-3.400181	-1.096783	0.032397	0.887974
-1.419981	1.91669	10.066416	-1.314144	0.465664	0.02999	0.63739	0.050098	-1.284413	-1.777911	-1.630985	6.877935	-44.278751	50.918306	109.673834	0.120078	-0.198129	-0.102066	10.079817	0.970581	0.497575	2.225465	-1.102592	-4.376934	-1.081214	0.026336	0.904201
-1.421989	1.626197	9.950087	-1.183435	0.677661	0.035591	0.638417	0.048972	-1.266253	-1.238745	-1.291708	8.598111	-50.22394	52.120192	116.325935	0.114074	-0.192125	-0.114074	10.303188	1.490404	0.333169	1.056341	-0.940169	-5.977437	-1.069197	0.033527	0.92827
-1.18792	1.684576	10.186058	-1.037212	0.427611	0.021845	0.646154	0.019228	-1.353846	-0.439396	-0.722084	9.14331	-46.875133	55.834881	113.417118	0.10807	-0.192125	-0.114074	10.473801	1.026629	0.277353	-0.051552	-0.655744	-7.488692	-1.162659	0.037629	0.891426
-1.265882	1.682117	9.144249	-0.781558	0.635512	0.085425	0.621698	0.048701	-1.285411	-0.160634	-0.894407	8.913047	-44.760279	59.758281	105.843117	0.084055	-0.192125	-0.126082	10.365205	1.20186	0.56135	-1.127669	-0.773936	-8.684588	-1.130194	0.016504	0.928504
-1.422156	1.800325	9.950507	-0.375388	0.873077	-0.067269	0.654491	0.06988	-1.28452	-0.168006	-0.607336	8.558539	-50.050688	65.203495	98.357199	0.090059	-0.180117	-0.126082	9.794316	0.797197	0.434063	-1.927316	-0.768832	-9.698347	-1.110172	0.001945	0.919798
-1.489943	1.915209	9.42931	-0.039439	0.772328	-0.109952	0.634308	0.053477	-1.338894	0.286686	0.364765	8.860507	-56.556707	72.217536	88.668801	0.102066	-0.168109	-0.13809	9.842238	1.374207	0.038173	-2.573025	-0.826761	-10.465129	-1.066971	0.029278	0.915804
-1.203644	1.392407	9.375953	-0.032524	0.893625	0.017103	0.637127	0.090248	-1.341103	0.474888	0.305235	9.866871	-60.084943	80.715489	81.436769	0.096063	-0.198129	-0.132086	9.502842	0.796189	0.085879	-2.849535	-0.920764	-10.556195	-1.147089	0.031568	0.907653
-1.199573	1.91535	9.608469	0.086788	0.892927	-0.169118	0.588904	0.027523	-1.286303	-0.089902	0.536008	9.914599	-60.132238	90.687561	75.283948	0.096063	-0.180117	-0.132086	9.503957	1.375679	0.202692	-3.587068	-1.081752	-10.648185	-1.129294	0.021258	0.911414
-1.482053	2.032272	9.834293	0.462329	0.880216	0.035348	0.621698	0.048701	-1.285411	0.083896	0.936036	10.212149	-58.523783	98.773036	71.111458	0.078051	-0.192125	-0.156102	9.902787	1.259089	0.21005	-4.355641	-1.120061	-10.773774	-1.078088	0.02684	0.874645
-1.084852	1.973281	9.610895	0.59099	1.030715	0.038471	0.638417	0.048972	-1.266253	0.309676	0.30534	10.099612	-61.058254	104.568107	68.270529	0.096063	-0.180117	-0.144094	9.900648	1.200667	0.095603	-4.724487	-1.129137	-10.469684	-1.059866	0.002774	0.90012
-1.136944	1.219341	9.839194	0.836657	1.025072	-0.028719	0.608825	0.084076	-1.288619	0.998031	0.187797	10.643856	-66.31147	108.228023	65.638538	0.090059	-0.162106	-0.168109	9.741536	0.972052	0.662094	-5.246115	-1.538573	-10.157131	-1.04425	0.028978	0.855829
-1.02844	1.798958	9.553804	0.746116	1.026233	0.065159	0.63739	0.050098	-1.284413	1.513567	0.071069	11.00784	-70.951342	110.798547	61.956927	0.102066	-0.180117	-0.168109	9.566304	1.492672	0.489805	-5.645007	-1.853182	-9.937876	-1.096356	0.018642	0.909688
-1.543902	1.915684	9.601611	0.775593	1.02627	0.003341	0.617207	0.033695	-1.338787	2.031	0.412376	11.548013	-73.768595	111.803646	57.027566	0.102066	-0.150098	-0.192125	9.396839	0.798256	0.483271	-5.582667	-2.165734	-9.4715	-1.060292	0.01653	0.878406
-1.711216	1.626196	9.828743	0.809614	1.054934	0.095388	0.621435	0.088852	-1.342101	2.367198	0.297073	11.377735	-77.345906	112.170696	51.837586	0.102066	-0.162106	-0.174113	9.614362	0.853332	-0.02579	-5.642985	-2.630793	-9.155178	-1.058966	0.007528	0.88303
-1.199294	1.625136	9.607771	1.180228	1.045196	0.086178	0.620671	0.049828	-1.303571	2.771592	0.638721	11.915734	-80.083614	112.063136	47.296862	0.10807	-0.156102	-0.186121	9.335607	1.260753	0.312972	-5.918964	-2.91369	-8.905413	-1.08164	0.040092	0.882487
-1.427648	1.567456	9.660874	1.14896	1.077605	0.027134	0.63598	0.031712	-1.283309	2.999503	0.752421	12.037878	-81.4085	111.30096	43.990914	0.114074	-0.156102	-0.204133	9.800391	1.146153	0.778193	-5.79568	-3.035687	-8.840749	-1.09413	0.014393	0.897222
-0.964638	2.264082	9.902953	1.365855	1.0715	0.052287	0.633926	0.033965	-1.319629	3.508882	1.609969	12.223135	-80.608748	110.090558	41.567412	0.13809	-0.132086	-0.210137	9.678393	1.260333	0.376821	-6.071595	-3.348783	-8.620869	-1.009559	0.003604	0.880441
-1.309832	1.974063	9.837582	1.647978	1.12442	0.139432	0.638799	0.068484	-1.285518	3.666722	1.896935	11.635886	-78.566781	108.020403	40.27925	0.132086	-0.132086	-0.210137	9.632712	1.263075	0.946617	-6.071173	-3.505213	-8.403137	-1.08036	-0.001175	0.947628
-1.138477	1.6255	9.782358	1.645802	1.188466	-0.041241	0.635598	0.0122	-1.264044	4.007906	2.296655	11.818696	-77.651083	105.833767	39.735064	0.13809	-0.120078	-0.222145	9.91157	1.376985	0.667313	-6.162614	-3.81649	-8.151722	-1.077188	0.031594	0.857555
-1.309832	1.974063	9.837582	2.112272	1.142996	0.129158	0.634953	0.032839	-1.301469	4.736374	2.581409	11.537314	-73.824925	103.787413	39.495664	0.144094	-0.132086	-0.210137	9.562822	0.970553	0.25907	-6.19251	-4.103156	-7.441759	-1.079841	0.049598	0.848308
-0.966145	1.451205	9.785368	2.366906	1.320149	0.1915	0.623107	0.067087	-1.286516	5.415248	3.094792	11.66744	-67.514144	101.574347	38.660984	0.150098	-0.114074	-0.210137	9.341136	0.740737	0.538974	-6.683663	-4.309892	-6.307931	-1.077661	0.013085	0.896359
-1.029583	1.798818	9.495989	2.737586	1.247638	0.271389	0.623872	0.106111	-1.325045	6.482492	3.493109	11.392375	-57.830135	98.703476	37.568835	0.150098	-0.114074	-0.234152	9.339316	1.667079	0.54318	-7.052533	-4.236982	-5.332863	-1.061619	0.025532	0.873782
-1.144582	2.0311	9.494262	3.011324	1.242882	0.081331	0.606006	0.047305	-1.286409	6.921438	3.550256	10.692965	-47.666444	94.830365	35.066594	0.162106	-0.114074	-0.228148	9.688199	0.857161	0.831719	-7.422005	-3.9175	-4.455278	-1.030907	0.027166	0.884522
-1.370371	1.683486	9.662296	3.510285	1.352469	0.104531	0.670183	0.071277	-1.283522	8.482827	3.71929	9.602083	-37.773613	90.207736	29.930961	0.168109	-0.10807	-0.228148	9.284522	1.146388	0.59678	-7.883802	-3.54057	-3.396011	-1.109273	0.006698	0.902709
-1.365966	1.858173	9.893974	4.171293	1.578871	0.281473	0.62208	0.068214	-1.304676	9.719098	3.20072	9.154901	-28.373573	84.102639	21.504656	0.168109	-0.102066	-0.234152	9.510942	1.261463	0.544719	-8.222903	-3.039973	-2.308372	-1.082113	0.021583	0.921291
-1.25211	1.625751	9.837887	4.326743	1.605562	0.278874	0.622845	0.107238	-1.343205	10.315691	2.513874	7.693068	-24.998307	78.374193	9.643673	0.186121	-0.090059	-0.24616	8.95144	0.222305	0.92837	-8.069253	-2.819601	-0.508134	-1.09323	0.019146	0.880132
-1.24988	1.684073	9.953656	5.266104	1.793062	0.508721	0.616442	-0.005329	-1.300258	10.812478	2.85711	7.112238	-26.961306	71.824639	-4.735102	0.180117	-0.102066	-0.24616	8.93375	0.623637	0.073828	-7.916495	-2.230054	1.191771	-1.096356	0.018642	0.909688
-1.371515	1.683346	9.604481	5.921679	2.179579	0.23398	0.666719	0.055144	-1.318737	11.598318	2.855231	6.83245	-26.357391	62.404348	-20.96982	0.180117	-0.090059	-0.258168	8.998122	0.856949	0.475651	-7.885856	-1.928759	3.631722	-1.064745	0.025029	0.903338
-1.253476	1.857782	9.780631	6.436529	2.59326	0.513766	0.609207	0.103588	-1.307883	11.259478	2.398016	6.767742	-25.154667	51.08988	-35.990169	0.198129	-0.096063	-0.252164	8.614616	0.629577	1.208913	-7.732819	-1.380741	6.066585	-1.107519	-0.01606	0.929046
-1.191126	1.451986	10.012055	7.099535	2.943933	0.604088	0.623107	0.067087	-1.286516	10.382326	6.397342	15.0011	-69.562453	17.043113	-47.473011	0.198129	-0.090059	-0.222145	8.824141	0.740709	0.30047	-7.672068	-0.804116	8.561433	-1.064745	0.025029	0.903338
-1.546466	2.205617	9.486681	7.493726	3.29639	1.098144	0.617207	0.033695	-1.338787	9.078483	1.887001	7.90628	21.838773	-10.281262	-60.776033	0.204133	-0.10807	-0.252164	8.545283	0.626799	0.579773	-7.364141	-0.718503	11.31364	-1.062565	-0.011485	0.951389
-1.315659	2.089449	9.548788	6.922654	3.741448	1.191117	0.585058	-0.008122	-1.302254	5.3976	6.480864	8.181528	32.255079	-38.781337	-38.526738	0.210137	-0.078051	-0.24616	8.261591	0.106301	0.571776	-6.224842	-1.14645	14.265694	-1.079887	0.017334	0.908825
-1.59036	2.439521	10.179874	5.415737	3.996882	1.206868	0.604596	0.028919	-1.285305	1.144765	7.869579	7.566591	64.572783	-54.64196	-0.13428	0.204133	-0.084055	-0.228148	8.673709	0.108659	1.264766	-4.284663	-2.181652	17.511345	-1.075862	0.022591	0.862179
-1.480743	1.858284	9.891689	5.885531	4.935348	1.478721	0.653847	0.090519	-1.321945	-3.757685	0.390026	0.938506	-10.835296	-81.82992	56.782966	0.198129	-0.090059	-0.24616	8.329467	-0.296722	1.084892	-2.25274	-3.001164	20.752445	-1.082113	0.021583	0.921291
-1.357045	2.091461	10.357052	5.140105	5.692345	1.61921	0.604596	0.028919	-1.285305	-1.731759	0.354053	18.907157	-50.323351	-89.965115	64.552907	0.180117	-0.084055	-0.234152	8.618677	0.282987	1.378613	0.30083	-3.276558	24.931732	-1.081214	0.026336	0.904201
-1.366078	1.974258	9.894254	5.288433	6.5838	1.438382	0.606771	0.086329	-1.324939	-0.12832	-5.203383	16.116508	86.056866	-105.575343	25.173933	0.180117	-0.096063	-0.240156	8.894599	0.74375	0.986702	3.130812	-3.370525	29.505785	-1.082113	0.021583	0.921291
-1.429181	1.973615	9.604037	4.809391	7.654152	0.638067	0.622725	0.047575	-1.267251	1.384329	4.431047	7.754029	87.385867	-114.003527	5.520274	0.150098	-0.090059	-0.240156	9.87119	0.975504	1.463637	5.83466	-1.875465	36.335781	-1.094084	0.046657	0.836705
-1.077715	1.683906	9.957085	4.86686	8.860636	0.105627	0.604979	0.048431	-1.304569	4.64727	5.510834	7.166124	40.560637	-93.397787	-0.20228	0.150098	-0.096063	-0.234152	10.611214	1.669045	1.538525	6.536518	0.452306	36.988931	-1.081686	0.007828	0.943005
-1.478512	1.916606	10.007458	7.653771	10.082859	-0.124334	0.63739	0.050098	-1.284413	4.982664	0.178335	9.187004	6.6168	-69.636866	0.48487	0.168109	-0.114074	-0.228148	10.983902	2.24143	0.293009	6.192814	2.348348	32.814727	-1.100762	0.059405	0.874103
-1.49103	1.857026	9.371356	5.449192	10.586683	-1.181928	0.650645	0.034235	-1.300471	3.523618	-0.047317	9.690159	17.032652	-57.551386	-15.097035	0.168109	-0.096063	-0.228148	11.313059	2.295752	-0.327984	4.463967	4.875052	28.343149	-1.143964	0.032072	0.878097
-1.479377	1.626253	9.948944	4.134036	11.353061	-2.922173	0.587877	0.028649	-1.304463	1.590406	0.188663	9.062805	14.191495	-50.808983	-12.150409	0.156102	-0.114074	-0.210137	11.199184	1.716753	-0.389957	2.088834	7.427745	21.573751	-1.13062	0.03026	0.90679
-1.427927	1.857669	9.661572	4.472516	11.111763	-3.97913	0.613361	-0.00195	-1.354738	1.766655	0.13025	9.420167	11.01462	-46.203706	-1.540535	0.150098	-0.120078	-0.222145	11.077527	1.657244	-0.792118	-1.021587	9.030991	16.229055	-1.099909	0.031893	0.91753
-1.365213	2.264611	9.952767	-0.799122	9.747605	-6.629567	0.6639	0.018372	-1.316528	2.743829	-0.618769	10.206962	25.461374	-35.832251	-0.473275	0.150098	-0.102066	-0.228148	10.783915	1.597813	-1.254749	-3.791683	9.803162	11.425267	-1.131947	0.039262	0.902166
-1.300632	1.917138	10.299961	-3.599032	11.603056	-8.564776	0.635335	0.052351	-1.320733	3.75628	0.295045	10.106897	34.259086	-26.985708	-4.799506	0.132086	-0.096063	-0.240156	9.818928	1.194998	-1.161551	-6.713328	9.95078	9.357031	-1.116331	0.065466	0.857876
-1.127325	1.917111	10.361204	-4.955365	12.878377	-11.444289	0.648208	0.016976	-1.317526	2.449854	-0.445024	9.611223	42.9624	-17.953281	-7.874287	0.150098	-0.114074	-0.240156	8.914479	1.256292	-0.836755	-9.202546	9.462627	9.20205	-1.131047	0.044016	0.885076
-1.628959	1.919428	11.102509	-12.908956	18.170114	-13.696423	0.664927	0.017246	-1.298368	2.337284	0.128038	9.726035	38.212958	-12.974789	-3.580937	0.132086	-0.10807	-0.216141	9.491465	0.851457	-0.48478	-11.446534	9.446143	10.505471	-1.080268	0.063354	0.826594
-1.550298	2.386369	12.203251	-19.769364	35.91682	-16.86866	0.669156	0.072403	-1.301682	3.118074	-0.732516	9.034768	44.825702	-9.949297	-0.258605	0.126082	-0.120078	-0.222145	9.437218	1.199737	-0.313052	-13.013253	9.256655	13.712707	-1.129248	0.053522	0.850896
-1.550243	2.328326	12.203111	-15.476646	47.546091	-19.976637	0.68511	0.033649	-1.243995	3.009339	0.012017	9.385276	42.906015	-6.621047	0.086439	0.144094	-0.126082	-0.216141	10.07149	0.621099	0.039261	-14.211506	9.20337	16.307066	-1.101662	0.054651	0.891193
-1.839873	2.509496	14.971782	9.149066	46.947376	-5.704973	0.635598	0.0122	-1.264044	2.095204	0.760256	8.953569	40.656528	-5.788305	0.252504	0.13809	-0.114074	-0.222145	10.417415	1.316488	0.334633	-14.117482	8.68059	18.582824	-1.117231	0.060713	0.874966
-2.263577	0.642542	10.855603	55.879724	57.829361	-2.76273	0.668774	0.052891	-1.282417	2.779724	0.471241	9.262117	38.986971	-5.63665	1.064596	0.132086	-0.126082	-0.216141	10.63933	1.430511	0.054203	-13.714861	7.455912	18.85805	-1.112352	0.038459	0.871747
-1.147772	2.734375	12.269905	0.672293	80.331872	-9.66358	0.699775	0.036172	-1.261157	2.993913	0.815329	8.675853	33.966935	-5.635785	-0.792567	0.13809	-0.114074	-0.222145	11.442269	1.951563	0.414889	-12.973234	5.68159	17.221131	-1.134173	0.043512	0.914632
-2.449609	1.751026	13.108463	24.829925	86.731975	-6.613535	0.695547	-0.018985	-1.257843	2.546232	1.503593	9.019943	26.019519	-5.740897	-1.839352	0.13809	-0.120078	-0.198129	11.891957	2.065132	0.138964	-11.277425	3.268699	13.983232	-1.111925	0.024703	0.893461
-0.96928	2.096438	12.560871	30.955482	98.161424	-5.220229	0.701829	0.03392	-1.224837	3.051178	0.929642	8.735737	19.894846	-4.233781	-0.747468	0.132086	-0.126082	-0.198129	12.069874	2.471905	0.543828	-8.259714	0.662198	8.371351	-1.098109	0.0414	0.88335
-1.148773	3.779144	12.27242	29.879385	107.725031	-8.896773	0.74365	-0.015922	-1.236689	2.201958	1.046885	8.660234	16.91242	-4.58294	-1.743113	0.132086	-0.120078	-0.210137	11.553221	2.298188	0.304535	-5.304265	-1.634058	2.445967	-1.151023	0.090839	0.833264
-1.836708	3.025256	12.256888	19.848351	120.15371	-13.220652	0.766007	0.057892	-1.221949	2.038685	0.760427	8.952483	11.200766	-4.527102	-2.335443	0.13809	-0.120078	-0.210137	11.555587	2.240818	0.418456	-2.503106	-3.632068	-3.059109	-1.104315	0.072656	0.881945
-1.532622	3.027074	13.129824	23.297143	131.307193	-13.455809	0.747113	0.000212	-1.201473	2.382489	0.644413	9.195206	8.157673	-4.137167	-1.983486	0.13809	-0.132086	-0.210137	10.926401	1.951799	0.233477	-0.256641	-4.950051	-7.359621	-1.098963	0.068911	0.839923
-2.398158	1.982442	12.821091	27.05223	144.054577	-16.016292	0.749168	-0.002041	-1.165153	2.088578	1.161811	8.657858	5.311341	-3.759793	-2.133959	0.13809	-0.114074	-0.216141	10.879378	1.490844	0.686985	2.1122	-5.696535	-8.767114	-1.118131	0.055959	0.892056
-2.101962	1.867196	13.289044	27.404974	156.778133	-14.585554	0.799063	0.03892	-1.164368	1.926115	1.333489	9.067295	2.207651	-3.693514	-2.078696	0.144094	-0.126082	-0.204133	10.256381	1.492884	0.845873	4.357931	-6.19495	-8.407037	-1.11903	0.051206	0.909145
-2.509227	1.692759	12.99155	28.619549	171.565604	-14.862906	0.812198	-0.036605	-1.104472	2.49376	0.873343	9.137973	-0.04104	-3.554158	-1.740779	0.132086	-0.13809	-0.210137	9.902901	1.201193	0.209787	6.296051	-6.526835	-7.134899	-1.099863	0.064158	0.857013
-2.15935	1.867252	13.287901	30.096159	185.522186	-13.37772	0.832118	0.019949	-1.106787	2.256645	0.932333	8.543523	-0.447736	-3.498554	-1.876952	0.13809	-0.126082	-0.222145	9.609959	1.373611	-0.194701	7.403396	-6.59308	-5.873394	-1.147943	0.059079	0.864225
-2.203022	1.868984	13.980535	34.533928	200.717501	-11.331458	0.849482	-0.00042	-1.050205	2.71807	1.101933	9.082914	-0.552956	-3.252961	-1.733756	0.132086	-0.126082	-0.204133	9.097015	1.60622	-0.203786	8.63259	-6.221884	-5.080167	-1.114578	0.042708	0.884213
-2.723921	1.694798	13.73857	39.711355	213.810255	-7.830621	0.910458	-0.032731	-1.025843	2.268875	0.472978	9.134337	1.131734	-3.002632	-1.933463	0.132086	-0.120078	-0.216141	8.985608	1.491181	-0.09238	9.093343	-6.005262	-4.838029	-1.100335	0.045649	0.895816
-3.186066	1.288525	13.555004	45.675864	223.050042	-1.084027	0.881773	-0.058415	-0.954095	2.896875	0.184134	9.441799	1.952702	-3.371372	-2.66686	0.126082	-0.126082	-0.204133	8.6409	1.896612	-0.211481	9.46078	-5.303424	-4.332376	-1.095883	0.037151	0.870884
-3.184589	0.940409	13.61198	53.592179	233.993022	3.424861	0.946978	-0.035569	-0.933047	2.610464	1.101766	9.375741	2.937653	-3.435437	-2.830392	0.126082	-0.126082	-0.210137	8.694806	1.722021	-0.38242	9.643786	-4.686755	-4.437449	-1.079841	0.049598	0.848308
-3.824306	1.404384	13.195822	63.575307	235.28039	11.736214	0.964342	-0.055937	-0.876464	2.323285	0.816664	9.075815	5.046276	-3.22164	-3.264188	0.144094	-0.114074	-0.192125	8.527013	1.89684	-0.213734	9.45625	-3.346698	-4.041337	-1.094557	0.028148	0.875508
-3.966181	1.052886	11.805143	79.045617	235.417756	16.783546	0.979006	-0.053415	-0.893626	2.318768	0.874362	8.839712	6.182158	-3.252554	-3.585605	0.13809	-0.126082	-0.198129	8.925741	1.25892	-0.265834	8.684215	-1.943032	-4.292137	-1.111452	0.043212	0.854657
-4.739241	1.80495	10.462361	86.771473	231.640976	18.92039	1.043829	-0.050081	-0.853314	2.26928	0.702046	9.192931	7.337046	-3.277944	-3.443784	0.126082	-0.126082	-0.198129	8.628397	1.951617	-0.839232	7.912099	-0.347022	-3.048713	-1.100335	0.045649	0.895816
-5.262036	1.224185	10.103789	79.26093	231.221126	23.818697	1.078174	-0.110329	-0.720884	2.264763	0.759745	8.956829	8.777606	-3.280249	-3.959873	0.13809	-0.120078	-0.204133	8.345262	1.720863	-0.788823	6.524591	1.454591	-1.721616	-1.062945	0.034535	0.869158
-5.101666	0.409884	9.469299	80.442038	213.552835	27.31337	1.079201	-0.111455	-0.702724	2.441481	1.274053	9.431177	9.308502	-3.531453	-4.335241	0.120078	-0.13809	-0.198129	8.628409	1.37239	-0.898953	5.321808	3.218746	0.219034	-1.101235	0.040896	0.912906
-5.273578	1.338873	9.52592	81.502577	207.84797	30.263018	1.099001	-0.114564	-0.629086	2.492503	0.930737	9.078872	8.086174	-3.3388	-4.062116	0.144094	-0.144094	-0.192125	8.913125	1.371822	-0.893322	4.150549	4.620444	1.831812	-1.102089	0.068407	0.869479
-5.308233	0.521944	7.731706	69.354437	202.852643	27.137492	1.116747	-0.11542	-0.591768	2.382617	1.331719	9.311988	8.625111	-3.601856	-4.2222	0.13809	-0.126082	-0.210137	9.078107	0.906732	-1.234599	2.119139	5.732504	3.660763	-1.083866	0.044341	0.894953
-5.59612	1.508948	7.728367	59.759944	199.688984	24.790602	1.063651	-0.212665	-0.571079	2.092648	1.619642	8.952047	8.593365	-3.767072	-4.015307	0.126082	-0.132086	-0.210137	9.366646	1.254593	-0.999022	0.488693	6.192405	4.344776	-1.133273	0.048265	0.897542
-6.270102	0.749695	5.517016	39.271262	189.569966	25.22879	1.145574	-0.189549	-0.530873	2.154473	0.931658	9.131352	7.750119	-3.309399	-3.182672	0.13809	-0.144094	-0.186121	9.361118	1.774609	-1.225025	-1.264572	6.535439	4.541486	-1.094984	0.041904	0.853794
-6.641544	0.173291	7.010802	1.923113	177.540717	38.611963	1.117272	-0.195721	-0.478389	2.726997	1.387481	9.613408	6.350555	-2.697118	-2.474429	0.132086	-0.13809	-0.180117	9.875313	0.905139	-1.218831	-3.324758	6.686709	5.016253	-1.114151	0.028952	0.905927
8.914264	-0.501106	-1.234145	70.099245	126.515875	58.64506	1.169221	-0.157012	-0.441284	2.323754	1.389385	9.1928	7.381891	-3.232586	-3.16436	0.132086	-0.132086	-0.198129	10.217531	1.194202	-1.153667	-5.63106	6.898061	5.365965	-1.099009	0.036647	0.90044
10.768028	-6.428886	-3.523271	1.808323	-18.152168	13.768219	1.139126	-0.201082	-0.36843	2.43479	1.331955	9.077074	6.331354	-3.294795	-2.913829	0.126082	-0.126082	-0.186121	10.384652	0.787534	-1.380497	-7.967476	6.96967	6.85037	-1.117277	0.028448	0.935483
2.394419	2.838012	8.642047	-33.186196	-41.07285	-26.434061	1.162556	-0.229429	-0.455026	2.32026	1.103329	8.957307	4.486912	-2.883199	-2.171383	0.132086	-0.132086	-0.198129	10.220807	0.67366	-1.041849	-9.412037	6.904	8.006321	-1.097636	0.059909	0.844547
4.940426	-1.81998	3.711375	-8.893458	-115.974647	-29.11027	1.167047	-0.214422	-0.40165	2.385643	1.045054	9.430496	4.073339	-3.208816	-2.73352	0.144094	-0.13809	-0.198129	10.228349	0.849189	-0.641415	-10.18018	6.790348	8.830593	-1.116378	0.033201	0.918393
4.986203	-1.872433	6.023826	-24.490724	-125.995784	-49.958748	1.146864	-0.230825	-0.456024	1.641855	1.162667	8.944166	2.421945	-3.005474	-2.320496	0.132086	-0.132086	-0.198129	10.970182	1.195614	-0.511012	-10.086788	6.408283	9.879805	-1.099436	0.050402	0.878727
3.115784	-1.229193	7.201755	-21.156248	-130.438466	-55.903312	1.147891	-0.231952	-0.437863	2.272093	1.217272	9.428018	1.525307	-2.546997	-2.042163	0.120078	-0.126082	-0.198129	11.09466	0.966167	0.004018	-9.870807	6.021096	9.308853	-1.098109	0.0414	0.88335
3.261993	-1.58083	5.874605	-25.072915	-110.795071	-57.5087	1.181067	-0.191261	-0.456237	2.162995	0.988139	9.603252	0.081592	-2.33884	-1.883618	0.126082	-0.120078	-0.198129	10.75548	0.851583	0.110919	-9.378187	5.667061	8.799786	-1.11903	0.051206	0.909145
2.944524	-1.932581	4.307053	-43.079401	-108.45548	-58.512206	1.118299	-0.196847	-0.460229	2.099615	1.103503	9.247961	-0.543943	-2.506198	-1.747995	0.132086	-0.132086	-0.192125	10.915275	0.73282	-0.457149	-8.639726	5.241323	7.13151	-1.08382	0.076606	0.834436
2.95562	-1.582927	4.886039	-64.456169	-114.737744	-59.575787	1.099526	-0.194865	-0.515707	2.654583	1.618243	8.785913	-0.46498	-2.232088	-1.702379	0.114074	-0.114074	-0.198129	10.759416	1.142116	0.340602	-8.23988	4.995318	5.457234	-1.066071	0.034031	0.898714
2.408868	-0.069768	6.323612	-73.537802	-128.528641	-59.987405	1.101318	-0.156967	-0.536076	2.214422	0.873891	9.309541	-0.486457	-1.976691	-1.808835	0.120078	-0.126082	-0.192125	10.296658	1.373034	-0.009909	-8.208947	4.770886	4.086308	-1.128348	0.058275	0.833807
1.450636	-0.298896	7.170844	-77.708038	-148.363597	-60.153018	1.089089	-0.14223	-0.501859	2.215573	1.217443	9.426932	-1.472538	-1.910933	-1.676059	0.13809	-0.13809	-0.192125	10.356536	1.026068	0.103824	-7.869857	4.297791	3.212152	-1.147989	0.026815	0.924743
0.558381	0.053464	8.483135	-73.370623	-170.264115	-58.528246	1.033676	-0.197072	-0.574179	2.60714	0.758418	9.14035	-1.695204	-1.960659	-1.732963	0.144094	-0.126082	-0.198129	9.841123	0.794718	-0.07864	-7.900435	4.127557	2.267812	-1.082967	0.049094	0.877864
-0.752792	0.462161	8.920342	-66.829038	-188.792334	-53.273275	1.006259	-0.104558	-0.636178	2.605606	1.274049	9.139436	-1.421537	-1.930803	-1.926423	0.132086	-0.120078	-0.210137	10.454871	1.485594	-0.634019	-7.623088	3.774491	1.512873	-1.1337	0.06202	0.875829
-2.1851	0.347746	9.007118	-60.360934	-200.107304	-43.992591	1.02336	-0.084775	-0.636285	2.549087	1.27422	9.138349	-1.794954	-1.879833	-2.002293	0.126082	-0.120078	-0.204133	9.956807	1.026601	0.038848	-7.683647	3.241511	0.209759	-1.069151	0.065791	0.867753
-2.919605	0.233781	9.570128	-60.200717	-206.376406	-31.176542	1.008816	-0.027636	-0.695077	2.375352	1.217845	8.89919	-1.503439	-1.842761	-1.763276	0.126082	-0.126082	-0.192125	10.057064	1.081116	-0.643742	-7.775128	2.771265	-1.217323	-1.1337	0.06202	0.875829
-3.374892	-0.171653	9.73345	-62.90291	-208.919667	-15.052419	1.003942	-0.062155	-0.729188	2.379975	0.759201	9.077003	-1.022963	-2.041479	-1.917106	0.120078	-0.120078	-0.186121	9.957705	1.142657	0.096466	-7.743353	2.180383	-2.671539	-1.115432	0.070219	0.840786
-3.947964	0.177299	9.780673	-67.59107	-209.15164	0.206476	1.001888	-0.059902	-0.765508	2.436047	1.274561	9.136176	-0.219913	-2.137448	-1.921549	0.126082	-0.132086	-0.198129	9.776626	1.198529	-0.420479	-8.20394	1.768701	-4.224322	-1.084293	0.058097	0.87324
-3.925827	0.934649	10.938785	-70.714073	-208.286328	10.828916	0.956222	-0.045706	-0.769607	2.49131	1.331784	9.078161	-0.412906	-2.320575	-1.833566	0.120078	-0.132086	-0.198129	9.66589	1.315338	-0.25093	-8.234324	1.480846	-5.502403	-1.087419	0.057593	0.902796
-3.571934	1.690127	11.467793	-70.074644	-207.554031	14.663901	0.938093	-0.064362	-0.78766	1.991945	0.759683	9.482398	0.523205	-2.39061	-2.42837	0.144094	-0.13809	-0.198129	9.151376	1.200043	-0.375776	-8.664595	1.280019	-6.784658	-1.035786	0.04942	0.887741
-2.473557	1.690048	11.894213	-67.5053	-207.133218	10.28046	0.857579	-0.069092	-0.82897	2.155794	1.217917	9.248845	0.917339	-2.86344	-2.04036	0.132086	-0.13809	-0.210137	9.22172	1.26098	0.310719	-9.00345	1.526041	-7.12863	-1.115478	0.037955	0.901303
-2.296122	2.154922	12.187833	-64.275004	-204.457492	-0.657396	0.839833	-0.068236	-0.866288	2.100361	1.217986	9.306758	1.90213	-3.061352	-2.027043	0.132086	-0.120078	-0.198129	9.273942	0.796381	0.024282	-9.310432	1.364016	-6.790079	-1.132374	0.053018	0.880452
-2.222287	1.692481	12.997265	-59.845716	-197.61308	-14.996696	0.830544	0.042934	-0.910234	2.54719	0.816185	8.962161	2.114534	-3.432238	-1.656794	0.132086	-0.132086	-0.204133	9.37916	0.620361	-0.430992	-9.095576	1.573066	-6.243228	-1.127495	0.030764	0.877234
-2.120948	1.400479	12.305075	-55.939742	-185.559217	-31.155943	0.810623	-0.013619	-0.907918	2.101724	0.759647	9.30757	3.315597	-4.062879	-1.864521	0.132086	-0.132086	-0.210137	9.270234	0.390055	-0.205927	-8.941951	1.714167	-5.297519	-1.113206	0.06597	0.82832
-2.870424	1.400783	12.116772	-59.666048	-169.940627	-45.458595	0.716209	0.018152	-0.970596	2.269621	0.587461	9.193134	3.078598	-4.560753	-1.671508	0.144094	-0.132086	-0.192125	9.449732	0.565506	0.254978	-8.572965	1.796165	-4.318699	-1.136399	0.047761	0.927098
-3.309653	0.939263	13.089361	-66.805434	-153.150743	-55.323326	0.812153	0.064429	-0.984977	2.382447	1.389012	9.311887	4.126382	-5.288083	-1.694438	0.126082	-0.114074	-0.180117	9.61302	0.389635	-0.142077	-8.204638	2.154472	-3.37688	-1.115905	0.05171	0.879589
-3.535832	0.997947	13.258374	-69.901215	-139.162898	-61.610518	0.717618	0.036537	-0.9717	2.656756	1.61804	8.903913	4.005712	-5.880326	-1.573516	0.114074	-0.132086	-0.198129	9.389194	0.101397	0.02338	-8.112881	2.395375	-3.01495	-1.117231	0.060713	0.874966
-3.926119	0.999734	13.82852	-62.052091	-129.9339	-65.267556	0.690081	0.069389	-0.957745	2.612637	1.101563	9.493742	2.80559	-5.843531	-1.311201	0.126082	-0.126082	-0.198129	10.015911	-0.073544	0.03498	-7.651997	2.549778	-2.7102	-1.100335	0.045649	0.895816
-4.160021	0.767227	13.592131	-54.870082	-122.57552	-65.808197	0.640688	0.107603	-1.053749	2.495657	1.331378	9.314162	2.896609	-6.012043	-1.139891	0.13809	-0.13809	-0.210137	9.43971	0.505243	-0.259115	-7.621755	2.737684	-2.959077	-1.163085	0.051385	0.869712
-4.794442	0.477206	13.405415	-54.307444	-115.869049	-64.26297	0.659079	0.086108	-0.979006	2.325928	1.389182	9.3108	3.344739	-6.408591	-1.057999	0.120078	-0.144094	-0.198129	9.959184	0.390004	0.093049	-7.468378	2.8113	-3.663423	-1.067351	0.075298	0.833573
-6.209716	0.480973	14.359691	-58.711997	-121.175966	-61.504374	0.676563	0.125403	-0.998377	2.834774	1.330356	9.320682	3.311154	-6.671653	-0.764608	0.13809	-0.126082	-0.204133	9.953439	0.446586	-0.192149	-7.56111	2.970666	-4.156984	-1.083394	0.06285	0.85615
-4.554294	1.349021	13.99023	-25.15704	-128.499545	-52.489994	0.632568	0.117834	-0.946891	2.492226	1.388975	9.13706	3.737912	-7.137262	-1.119028	0.126082	-0.120078	-0.192125	9.387385	0.448512	-0.032135	-7.315062	2.888088	-4.581943	-1.118558	0.069715	0.870342
-6.419364	0.469486	9.55878	-41.255587	-131.533201	-49.115514	0.601567	0.134553	-0.968152	2.490394	1.274593	9.019262	2.831872	-7.257392	-1.062894	0.114074	-0.13809	-0.204133	9.625522	0.33463	0.485673	-7.531342	3.317713	-4.807168	-1.063372	0.048291	0.847445
-6.584153	0.883972	12.850628	-77.368434	-152.241471	-37.741482	0.608997	0.245994	-0.992939	2.48805	1.332089	8.90116	2.783731	-7.666597	-0.932869	0.126082	-0.120078	-0.180117	8.986655	-0.18834	-0.214187	-7.593798	3.743794	-4.664458	-1.04515	0.024225	0.872919
-6.385523	-2.400565	22.728988	-92.993909	-175.89216	-14.996681	0.588432	0.210078	-1.028048	2.0935	1.33318	8.952554	1.132379	-7.854636	-0.761286	0.114074	-0.132086	-0.198129	9.84474	0.100487	0.03239	-7.748152	4.097469	-3.847682	-1.116804	0.046957	0.896679
-10.894567	7.932578	21.508414	27.947658	-48.390082	-3.680671	0.542001	0.18525	-0.993618	2.607779	1.273846	9.257436	0.366733	-8.171617	-0.042991	0.144094	-0.132086	-0.180117	9.325266	0.215726	-0.319774	-8.087077	4.561956	-2.39218	-1.068251	0.070545	0.850663
-11.671045	-5.631307	4.758243	57.964035	-101.017757	20.45933	0.516637	0.275512	-1.019297	2.665492	0.872629	9.259234	-1.618716	-8.165485	0.833074	0.13809	-0.132086	-0.192125	9.665685	0.272677	-0.369846	-8.331563	4.132835	-0.517849	-1.09631	0.050906	0.849171
-12.192748	3.141101	7.832096	-40.735586	-89.56576	7.262032	0.483461	0.234821	-1.000923	2.329464	0.93064	9.429613	-2.790427	-8.394246	1.386356	0.120078	-0.132086	-0.186121	10.282596	0.500908	-0.813143	-8.606843	3.62543	0.409987	-1.115859	0.083975	0.819072
-13.504538	1.808237	8.149482	-30.365346	-89.645819	24.951601	0.465333	0.216165	-1.018977	2.374436	1.160654	8.840292	-0.055246	-9.478641	2.051773	0.120078	-0.132086	-0.186121	10.070477	0.56294	-0.018094	-8.298052	3.074794	0.607926	-1.09631	0.050906	0.849171
-14.17814	2.797587	8.947549	-55.216715	-80.23945	29.474255	0.451815	0.272178	-1.059609	2.336048	1.273683	9.842005	-1.036582	-9.788584	2.809243	0.13809	-0.126082	-0.192125	9.843944	0.505761	0.03423	-7.651253	2.56441	0.43973	-1.116331	0.065466	0.857876
-13.987434	3.728479	9.936065	-30.244033	-70.513898	35.331486	0.471233	0.249558	-0.966706	2.661039	1.273981	9.081522	-0.837284	-10.542388	3.371712	0.120078	-0.126082	-0.186121	9.671988	0.50584	-0.026241	-7.435539	2.352508	0.445804	-1.114532	0.074972	0.823696
-16.263435	2.681129	7.923271	-3.376804	-44.947489	43.231216	0.514583	0.277765	-1.055617	2.160886	1.331995	9.543642	-0.888978	-11.124832	4.417833	0.120078	-0.114074	-0.198129	9.503866	0.275121	0.083513	-6.604646	2.025127	0.488448	-1.115432	0.070219	0.840786
-15.770495	4.593382	6.839689	-4.097194	-9.506852	49.289052	0.466742	0.234551	-1.020082	2.546849	0.93077	8.961958	-1.988783	-11.705946	5.687539	0.126082	-0.120078	-0.192125	9.675037	0.101091	0.086103	-5.805019	1.993451	1.227518	-1.095883	0.037151	0.870884
-14.934383	6.280033	8.594186	-16.673941	23.149507	54.75032	0.468152	0.252937	-1.021186	2.554861	1.159127	9.433553	-2.856311	-12.307643	6.576644	0.10807	-0.13809	-0.198129	8.945581	0.336784	0.643435	-4.851269	1.862202	2.612001	-1.102988	0.063654	0.886569
-14.582245	7.673842	9.066916	17.456416	68.201922	32.866009	0.481407	0.237074	-1.037244	2.600855	1.045387	8.844841	-4.980514	-13.560047	7.253374	0.102066	-0.132086	-0.192125	9.39156	0.044026	0.137301	-3.621087	1.775434	3.293488	-1.079841	0.049598	0.848308
-10.904555	11.915557	12.502381	67.189575	102.978072	18.65623	0.48038	0.2382	-1.055404	2.782942	1.215535	9.555799	-8.601354	-14.927511	9.52219	0.102066	-0.126082	-0.198129	9.455591	0.451027	0.539913	-2.852788	2.043088	4.484206	-1.101189	0.07316	0.852389
-2.553393	6.266198	8.089477	149.88507	111.141588	-24.1053	0.53104	0.318185	-1.093148	2.555372	0.98725	9.433858	-8.09626	-17.051333	11.036269	0.114074	-0.150098	-0.192125	9.739864	0.102817	0.486875	-1.960998	2.070677	5.436475	-1.102089	0.068407	0.869479
4.932063	-1.922959	9.085583	82.938969	117.689826	-21.329635	0.479997	0.218688	-1.036139	3.009936	1.272044	9.619044	-9.689769	-20.152644	12.718419	0.102066	-0.132086	-0.192125	9.964258	0.101574	0.320103	-0.791579	1.757723	6.856892	-1.113679	0.047461	0.867123
2.165031	0.994814	14.35438	81.772009	96.95669	-37.125489	0.510999	0.201969	-1.014878	2.890718	1.158409	9.263073	-14.816434	-24.39347	16.989623	0.114074	-0.132086	-0.186121	10.18458	1.026146	0.043353	-0.235687	0.855282	8.25709	-1.101189	0.07316	0.852389
-6.084984	2.499668	9.165825	96.750013	67.179828	-21.103863	0.610024	0.244867	-0.974779	3.008849	1.272146	9.560044	-16.436263	-30.752477	20.873769	0.102066	-0.13809	-0.186121	10.177151	0.792721	-0.357343	1.152168	-0.859076	9.313574	-1.100335	0.045649	0.895816
-5.188935	2.960464	8.08675	76.077282	50.482928	4.431639	0.588432	0.210078	-1.028048	2.681515	1.329344	10.202424	-24.114818	-40.27208	25.269652	0.096063	-0.126082	-0.204133	10.872177	1.141626	0.285763	3.586177	-2.925217	10.169748	-1.164412	0.060387	0.865088
-1.431411	1.915293	9.488268	67.051553	51.203565	26.190732	0.584586	0.174433	-1.043999	2.804845	1.156212	10.735903	-23.794831	-50.202879	28.112467	0.10807	-0.120078	-0.210137	10.936321	1.49073	0.688111	7.28069	-5.185725	8.651669	-1.132374	0.053018	0.880452
0.499386	-2.087436	11.192972	29.733821	1.770502	1.882042	0.62987	0.140725	-1.020636	3.484166	1.154066	10.807943	-24.281718	-64.615683	29.337766	0.096063	-0.10807	-0.192125	11.285421	1.144247	1.035844	10.480855	-6.570953	5.550833	-1.091871	0.066091	0.927728
-2.935955	0.354953	11.650596	41.685791	-4.548841	-19.196653	0.601687	0.194215	-1.044106	3.261113	0.868082	10.922105	-25.654802	-67.966322	29.111035	0.090059	-0.132086	-0.192125	11.33977	1.317296	0.923575	13.71029	-7.312115	2.43518	-1.116758	0.079221	0.836162
-2.481322	1.682028	8.599914	65.539717	2.966621	-4.542588	0.611096	0.142707	-1.076114	4.27561	1.094387	10.823258	-15.955651	-75.250392	25.047387	0.090059	-0.114074	-0.186121	11.161739	0.968419	0.518974	16.293876	-7.862528	0.382066	-1.1346	0.057267	0.892918
-1.382667	1.391735	9.025635	26.65175	-2.455569	-7.599868	0.536745	0.131219	-1.008464	3.627865	1.437243	12.520614	-21.291224	-81.50932	20.699757	0.084055	-0.096063	-0.192125	10.871494	1.489004	0.28734	19.400827	-8.547238	-0.441733	-1.099436	0.050402	0.878727
-1.357965	1.859151	10.298678	20.118947	-1.513005	-5.205681	0.550383	0.134868	-1.043786	3.679399	0.92205	12.168613	-4.755749	-94.599645	15.118878	0.072047	-0.114074	-0.192125	10.873644	0.968199	0.342066	22.445407	-8.754954	-0.42055	-1.105214	0.067903	0.899035
-1.206962	1.275902	9.202229	24.030489	-2.299336	-4.842005	0.565047	0.137391	-1.060948	3.956222	1.03629	11.878843	-5.364705	-104.696362	13.659215	0.060039	-0.120078	-0.180117	10.469967	1.257426	0.107128	24.29137	-9.004633	1.430256	-1.087419	0.057593	0.902796
-1.540892	1.161408	9.715424	21.317691	-1.635202	-5.361426	0.580357	0.119276	-1.040685	3.791522	0.864518	12.111888	-1.920352	-114.46939	10.497035	0.060039	-0.126082	-0.186121	10.297351	0.446429	-0.071207	24.659227	-8.323627	3.343275	-1.119457	0.064962	0.887432
-1.26	1.508687	9.432904	23.866602	-0.980696	-1.789182	0.57933	0.120402	-1.058846	4.077379	0.863361	12.294322	2.894906	-126.365163	8.724769	0.060039	-0.114074	-0.192125	10.288683	0.270637	-0.528733	23.520716	-7.917572	3.93943	-1.08344	0.030586	0.916667
-1.489943	1.915209	9.42931	19.541649	-0.194465	-1.317948	0.598486	0.137932	-1.022632	4.021648	0.233417	12.235351	4.684495	-137.237761	5.335751	0.048031	-0.102066	-0.186121	10.454439	0.558726	-0.752409	21.951094	-7.321579	3.76425	-1.068297	0.03828	0.91118
-1.092909	2.030346	9.206331	16.273575	-0.8335	0.016967	0.591176	0.086154	-1.073798	4.473932	0.919359	12.360827	9.9627	-150.166701	3.325795	0.042027	-0.114074	-0.186121	10.57068	1.080355	-0.576514	20.011569	-6.358231	3.303301	-1.101662	0.054651	0.891193
-1.369006	1.451455	9.719552	11.40234	-1.302346	-1.292229	0.578303	0.121528	-1.077006	4.53793	0.231172	12.658132	11.301066	-161.375526	0.76584	0.03002	-0.132086	-0.156102	10.463904	0.329244	-0.296723	18.164793	-5.500208	3.823999	-1.137253	0.075272	0.883671
-1.43169	2.205506	9.488967	8.451317	-1.622862	-1.388046	0.580739	0.138788	-1.05995	4.202648	0.403666	12.887309	16.379511	-174.2771	-3.923894	0.012008	-0.114074	-0.174113	10.738689	1.36897	-0.686005	16.747235	-4.275701	2.717524	-1.13152	0.025507	0.92388
-1.430491	2.147603	9.546642	4.397955	-1.888509	-1.088696	0.591176	0.086154	-1.073798	5.063992	0.228014	13.611915	20.096878	-188.244559	-8.540017	0.018012	-0.132086	-0.162106	10.343692	1.254762	-0.523138	15.268764	-3.24312	2.104522	-1.084339	0.025832	0.933757
-1.366497	1.219563	9.834623	2.939	-1.877295	-1.328588	0.591558	0.105666	-1.093063	4.900719	-0.058444	13.904163	25.078252	-204.110806	-17.033122	0	-0.114074	-0.156102	10.124019	1.720491	-0.068803	13.914661	-2.791406	1.505658	-1.135499	0.052514	0.910008
-1.372546	1.567121	9.546387	1.410132	-1.720517	-0.796862	0.559409	0.063848	-1.05653	5.923205	-0.692034	14.10184	28.230258	-216.872819	-28.043355	-0.012008	-0.114074	-0.162106	10.346832	1.95057	-0.291615	13.666991	-2.302495	-0.678539	-1.119457	0.064962	0.887432
-1.090956	2.378881	9.322799	-3.292833	-1.811556	-0.749926	0.528025	0.061055	-1.058526	5.0301	-0.804907	14.674659	38.329197	-234.116074	-40.429612	-0.012008	-0.126082	-0.144094	10.064698	2.357202	-0.12413	13.204095	-1.735611	-2.10109	-1.11993	0.046453	0.926235
-1.481719	1.684016	9.833455	-7.180352	-1.617481	-0.618985	0.558382	0.064975	-1.07469	5.993552	-1.323537	14.753045	43.676655	-244.958501	-51.275322	-0.036023	-0.126082	-0.126082	10.070454	1.721394	0.101347	12.434206	-1.385262	-3.642619	-1.11993	0.046453	0.926235
-1.308189	1.451818	9.894139	-6.340047	-1.768757	-0.186785	0.559792	0.08336	-1.075794	5.373436	-1.493641	14.800397	57.60691	-256.984717	-65.973654	-0.03002	-0.132086	-0.144094	9.442053	1.606326	-0.025752	11.203567	-1.224956	-5.151641	-1.139098	0.033501	0.978368
-1.427481	1.393328	9.660454	-8.418419	-1.646093	-0.621288	0.543073	0.08309	-1.094953	5.475864	-0.118355	14.446133	77.424114	-263.351372	-76.597016	-0.054035	-0.120078	-0.10807	8.983686	1.896193	-0.147632	10.066586	-1.621125	-6.249649	-1.117277	0.028448	0.935483
-1.363458	1.626281	10.009045	-8.691882	-1.547392	-0.549615	0.572282	0.028474	-1.053323	4.16066	0.631585	13.711818	104.140787	-265.232693	-83.503683	-0.042027	-0.13809	-0.102066	9.212244	2.06969	-0.085246	9.637991	-2.475603	-6.843853	-1.097256	0.013889	0.926778
-1.595241	1.568182	9.888704	-7.194205	-1.407373	-0.182197	0.544482	0.101476	-1.096057	5.233885	1.950876	10.840208	123.854253	-266.747321	-77.173149	-0.054035	-0.13809	-0.084055	8.528925	2.071055	-0.098761	8.472413	-3.656113	-6.730985	-1.100335	0.045649	0.895816
-1.19188	1.045548	9.953262	-6.564114	-0.490098	-0.954039	0.575866	0.104269	-1.094061	5.543023	1.437166	9.136637	116.730106	-258.573467	-67.359201	-0.072047	-0.13809	-0.060039	8.073708	2.477502	-0.048839	7.768057	-4.778709	-6.005266	-1.100762	0.059405	0.874103
-1.363179	1.336068	10.008346	-4.256638	-0.577041	-1.348612	0.563255	0.099494	-1.040579	5.365922	1.782041	8.778767	114.419472	-246.75076	-62.712817	-0.072047	-0.150098	-0.036023	7.442838	1.898476	-0.349317	7.617577	-5.998684	-4.448504	-1.102608	0.017634	0.9688
-0.84925	1.625501	9.903702	-3.362423	-0.599726	-1.431919	0.562228	0.10062	-1.058739	4.831018	2.931555	7.527953	120.170939	-231.955673	-51.984786	-0.084055	-0.168109	-0.042027	7.556941	2.361682	-0.287869	7.620077	-6.828263	-2.227106	-1.149788	0.017308	0.958922
-1.022279	1.335315	9.84176	-3.474429	-0.164297	-1.533608	0.576893	0.103143	-1.075901	4.777332	1.614101	7.470201	112.535127	-219.778996	-36.36388	-0.084055	-0.156102	-0.012008	7.902776	1.956513	-0.111675	8.145602	-7.803762	-0.060703	-1.186279	0.033176	0.96849
-1.474582	1.394641	10.179644	-3.23818	-0.258366	-1.879237	0.57792	0.102016	-1.057741	6.569401	0.235558	6.386407	105.629583	-209.79207	-22.828819	-0.066043	-0.162106	0.012008	8.362827	1.956655	0.125703	9.255007	-8.676034	1.831164	-1.117704	0.042204	0.913769
-1.249657	1.451902	9.953097	-1.683232	-0.148595	-1.667219	0.561463	0.061596	-1.02021	4.057868	-0.957445	4.806722	76.546624	-199.078487	-9.401223	-0.084055	-0.162106	0.03002	8.472436	1.839583	-0.100939	10.362917	-8.905511	3.769271	-1.135499	0.052514	0.910008
-1.366664	1.393691	9.835042	0.230281	0.1291	-0.906762	0.542308	0.044066	-1.056423	-4.475011	-3.275083	1.284878	58.367633	-144.443049	-18.742702	-0.090059	-0.156102	0.042027	9.279107	1.608508	0.370515	11.408049	-8.745712	4.199367	-1.166257	0.018616	0.959785
-1.480353	1.451985	9.89071	0.510673	0.151696	-0.851381	0.528025	0.061055	-1.058526	-8.327742	-5.204906	-2.678487	33.64826	-42.07762	-8.805055	-0.096063	-0.174113	0.048031	9.559876	1.896632	0.206184	12.943677	-7.912749	5.105838	-1.118604	0.037451	0.930859
-1.205986	1.45017	9.260463	0.731346	0.237413	-0.791987	0.50746	0.02514	-1.093635	-1.700497	-4.262717	4.524771	-5.253746	40.231162	-0.47353	-0.084055	-0.162106	0.054035	10.007539	1.893882	-0.184451	14.29385	-6.73492	5.330458	-1.168483	0.022865	0.972251
-1.306014	1.568183	10.010048	4.335811	0.475144	-0.409514	0.563638	0.119006	-1.059844	-3.657956	-3.909919	2.599211	3.731183	89.07444	-3.261022	-0.066043	-0.162106	0.03002	9.913606	0.914077	0.722302	15.427806	-5.185131	5.086525	-1.100808	0.02714	0.93462
-1.260112	1.624773	9.433183	2.332518	0.525346	-0.176478	0.524561	0.044922	-1.093741	-4.071753	-4.031802	7.722649	-9.375935	155.526299	-5.537672	-0.072047	-0.162106	0.054035	11.108277	1.490652	0.748582	16.253908	-3.4575	4.989734	-1.104788	0.054148	0.920749
-0.908757	1.451149	9.786511	1.483845	0.556174	-0.796782	0.53679	0.030186	-1.127959	-1.935325	-3.521733	7.232026	5.565562	172.344822	-15.510454	-0.072047	-0.150098	0.042027	10.298796	1.431457	0.104538	15.880148	-1.491295	4.330442	-1.136445	0.015496	0.987615
-1.145168	1.450533	9.43505	2.413842	0.592477	-0.756279	0.559409	0.063848	-1.05653	-1.255194	-3.065743	7.421254	6.138393	174.464318	-26.523028	-0.078051	-0.162106	0.024016	10.533441	1.374682	0.451333	15.199573	0.248839	4.194677	-1.103034	0.03139	0.947086
-0.851703	1.79935	9.788492	1.771945	0.184167	-1.185619	0.509897	0.042399	-1.076579	-1.572458	-3.462588	5.469526	0.887769	166.209556	-36.073936	-0.060039	-0.168109	0.024016	10.702712	0.44721	0.279229	13.750275	2.036256	4.359527	-1.152014	0.021558	0.971388
-1.252166	1.683794	9.838026	1.453602	0.619333	-0.854588	0.529817	0.098953	-1.078895	-0.895247	-3.120879	5.481957	-13.188557	160.811497	-43.204569	-0.054035	-0.174113	0	10.3545	1.488976	0.048835	11.809911	3.369167	3.767665	-1.152487	0.003049	1.010192
-1.36803	1.625722	9.777786	0.587492	0.580133	-0.805051	0.525971	0.063308	-1.094846	-0.948847	-3.006428	5.657668	-27.590732	158.560345	-47.277344	-0.048031	-0.162106	0.012008	10.176241	1.255892	-0.355241	9.65494	4.47988	3.516231	-1.116378	0.033201	0.918393
-1.195921	1.683598	9.781355	0.694765	0.304393	-1.124517	0.525971	0.063308	-1.094846	-1.292247	-2.661346	5.473538	-43.44002	164.250082	-48.654601	-0.042027	-0.168109	-0.012008	10.183783	1.431421	0.045193	7.624074	5.050824	2.574536	-1.084339	0.025832	0.933757
-1.137	1.277383	9.839334	-0.349027	0.390935	-0.912797	0.539871	0.026807	-1.073479	-0.724068	-2.205117	5.719593	-58.238799	179.607807	-45.553927	-0.048031	-0.174113	-0.006004	10.123245	0.967312	-0.186405	5.993293	5.499559	1.943669	-1.130666	-0.002004	0.967307
-1.377508	1.972861	9.316106	-0.184553	0.53765	-0.696766	0.537434	0.009547	-1.090534	0.136423	-2.094307	6.443692	-70.194632	203.067651	-39.192552	-0.018012	-0.192125	-0.018012	10.513396	1.254158	-0.576852	4.886767	5.281341	1.269917	-1.119077	0.018942	0.969663
-0.580598	1.622987	8.984381	-0.747831	0.52533	-0.958915	0.539226	0.047445	-1.110903	0.03798	-1.522564	7.325506	-77.551894	229.003781	-31.603408	0	-0.186121	-0.03002	10.002942	0.792273	-0.531999	4.180671	4.814691	1.154604	-1.15424	0.025807	0.983854
-1.765119	1.568628	10.000904	-1.089222	0.441161	-0.893139	0.458974	0.002565	-1.095524	1.353717	-1.35613	8.235197	-83.229419	251.340398	-23.750443	-0.012008	-0.162106	-0.048031	9.952529	0.909757	-0.190046	3.535458	4.568786	0.66748	-1.153341	0.03056	0.966765
-1.087082	1.914959	9.495126	-0.73957	0.70855	-0.859909	0.523152	0.026536	-1.092637	1.543623	-1.988584	9.242576	-84.472757	264.914967	-16.652359	0	-0.174113	-0.066043	9.728021	0.968897	-0.023012	3.197596	4.332105	-0.185225	-1.10616	0.030886	0.976642
-1.483727	1.393523	9.717126	-0.790902	0.829348	-0.578695	0.523796	0.005898	-1.055212	2.382851	-1.303022	8.903657	-88.829041	265.984623	-10.521844	0.006004	-0.162106	-0.066043	9.728135	0.911001	-0.023275	2.645266	3.784911	-0.94013	-1.136445	0.015496	0.987615
-1.425418	1.625778	9.776643	-1.350914	0.720959	-0.569835	0.510279	0.061911	-1.095844	3.422915	-0.907276	10.22051	-97.304827	256.200966	-4.04176	0.018012	-0.168109	-0.084055	10.299251	1.199871	0.103486	2.430646	3.374904	-2.399863	-1.150261	-0.0012	0.997726
-1.140986	1.857391	9.667287	-0.735367	1.158707	0.014138	0.540253	0.046319	-1.092743	4.153898	-0.73731	10.057331	-109.875946	241.029795	5.238918	0.054035	-0.150098	-0.096063	10.124599	0.851782	-0.129838	2.431487	2.874237	-3.764587	-1.151542	0.040066	0.932585
-1.08516	1.102501	9.550984	-2.26994	0.991722	-0.567427	0.538844	0.027933	-1.091639	4.331149	0.693373	10.707055	-120.474891	226.555216	18.539493	0.048031	-0.150098	-0.102066	9.737486	0.739415	0.432674	2.616628	2.438502	-5.221591	-1.150688	0.012555	0.976012
-1.13739	1.683682	9.840312	-2.108925	1.077788	-0.414923	0.504641	-0.011632	-1.091426	4.336859	0.234627	10.943868	-131.25596	219.127906	36.282122	0.072047	-0.156102	-0.126082	9.278914	-0.01338	0.191878	2.80206	1.933762	-6.157044	-1.151115	0.026311	0.954299
-1.306934	1.335873	9.951675	-1.543282	1.182779	-0.179583	0.543335	0.04294	-1.038263	3.975548	0.748102	12.882353	-133.400225	217.669752	58.260045	0.060039	-0.132086	-0.13809	9.673683	0.216621	0.029537	3.418273	1.335575	-6.62923	-1.152914	0.016804	0.988478
-1.371292	1.451175	9.603922	-1.418722	1.210282	-0.181415	0.554153	0.009818	-1.071376	5.06966	0.513867	13.965408	-123.103654	212.918805	77.284842	0.084055	-0.132086	-0.13809	9.563391	0.681071	0.257756	4.095989	0.79129	-6.551793	-1.117277	0.028448	0.935483
-1.198207	1.683319	9.665725	-0.934309	1.077699	-0.442849	0.524944	0.064434	-1.113006	3.876465	0.804416	13.64708	-113.114524	196.083564	98.04378	0.084055	-0.132086	-0.156102	9.280586	0.855855	0.367097	5.050295	0.33738	-6.138521	-1.11993	0.046453	0.926235
-1.366497	1.219563	9.834623	-0.356217	0.973429	-0.705346	0.528025	0.061055	-1.058526	5.604834	0.744073	12.382864	-115.120775	181.260956	114.516896	0.102066	-0.120078	-0.150098	8.934763	0.681796	0.131183	5.542732	0.182483	-5.612325	-1.154667	0.039562	0.962141
-1.474638	1.452684	10.179784	-0.531854	1.160669	-0.540685	0.558382	0.064975	-1.07469	6.682604	1.255959	12.697598	-132.564696	170.490018	130.26453	0.102066	-0.102066	-0.168109	9.39685	0.21903	0.423551	5.573852	0.136353	-4.540593	-1.101281	0.008632	0.973423
-1.187697	1.452406	10.185499	1.627282	1.840526	-0.41129	0.539871	0.026807	-1.073479	7.108795	1.93923	14.473991	-141.354246	170.276319	140.631498	0.120078	-0.102066	-0.180117	9.28285	0.277154	0.421561	5.881151	0.309547	-3.564223	-1.103034	0.03139	0.947086
-1.367752	1.335509	9.777087	2.025518	1.926045	-0.692276	0.540636	0.065831	-1.112008	8.531115	2.449586	15.090245	-129.62979	174.956317	141.523736	0.132086	-0.090059	-0.180117	9.398989	0.277452	0.537998	5.942444	0.535574	-2.223382	-1.134646	0.025003	0.953436
-1.018041	1.68413	10.073857	2.835757	2.057416	-0.614462	0.534615	-0.027224	-1.088325	9.676378	2.559341	15.937778	-107.389059	181.235546	132.106143	0.120078	-0.078051	-0.198129	9.455921	0.856565	0.598845	5.204224	0.812148	-0.826848	-1.135545	0.02025	0.970526
-1.257881	1.683095	9.548953	2.728377	2.005996	-1.164087	0.523534	0.046048	-1.111901	10.902826	2.786284	15.076275	-90.404918	183.649065	115.407995	0.132086	-0.072047	-0.234152	9.044827	0.333139	-0.096511	5.542941	0.73553	0.491904	-1.138198	0.038254	0.961278
-0.900979	1.684298	10.191773	2.833455	2.247006	-0.973331	0.540898	0.02568	-1.055319	11.721556	2.32823	13.441382	-82.714237	181.52502	93.227459	0.13809	-0.096063	-0.216141	9.222983	0.044893	0.248107	5.235628	0.751066	1.254513	-1.135119	0.006494	0.992239
-1.601988	1.451258	9.541536	3.668502	2.475333	-1.289393	0.52136	-0.011361	-1.072268	12.730896	2.096805	12.989347	-82.113211	178.354047	67.742885	0.174113	-0.060039	-0.210137	9.161751	0.507389	0.077807	5.05225	0.342176	1.813535	-1.136872	0.029252	0.965902
-1.078636	1.451596	9.898711	3.600972	2.605897	-1.710253	0.491385	0.004231	-1.075368	13.952934	1.9805	11.833452	-83.802584	177.017093	40.012359	0.180117	-0.060039	-0.216141	8.989567	0.623261	0.017862	5.114468	0.143623	2.858353	-1.118177	0.023695	0.952573
-1.133961	1.684101	10.013757	4.191696	2.90179	-1.987173	0.55518	0.008691	-1.053216	15.587411	-3.074565	16.94574	-90.76683	174.343597	11.206184	0.204133	-0.072047	-0.234152	9.284431	0.045831	0.477602	5.423598	-0.450816	3.944259	-1.133746	0.029756	0.936346
-1.196841	1.451288	9.722981	4.252446	3.214452	-2.464719	0.523152	0.026536	-1.092637	15.806912	-1.575224	10.695602	11.373733	121.978799	-37.840185	0.216141	-0.042027	-0.234152	9.170658	-0.011838	0.475086	6.501963	-1.254876	5.344999	-1.170709	0.027115	0.984717
-1.027185	1.683012	9.611339	4.692461	3.668998	-2.792657	0.521742	0.008151	-1.091532	15.831188	1.239276	6.326789	-76.536238	126.009635	-52.316156	0.210137	-0.054035	-0.228148	9.276877	0.449528	0.136889	7.764333	-1.816894	7.108117	-1.138198	0.038254	0.961278
-1.303616	1.452377	10.125398	4.177368	3.851439	-3.903598	0.495997	0.078901	-1.097947	13.789648	8.291061	7.042186	-130.010565	102.046337	-63.71994	0.240156	-0.048031	-0.24616	9.16265	0.623445	0.135425	8.134598	-2.257325	8.190762	-1.167584	0.027619	0.955161
-1.243077	1.742954	10.300684	5.828056	4.45883	-4.254034	0.554153	0.009818	-1.071376	14.606318	5.594306	8.006172	-130.057606	82.770734	-81.253386	0.240156	-0.060039	-0.222145	9.054508	0.567091	0.41837	8.22661	-2.163781	8.158503	-1.136872	0.029252	0.965902
-1.136191	1.625779	9.897987	6.418851	4.691952	-4.441855	0.503614	-0.010505	-1.109586	13.938361	5.418452	11.591361	-118.618781	70.544433	-93.156616	0.234152	-0.03002	-0.24616	9.284875	0.393472	0.536271	7.550432	-2.318575	7.699698	-1.119503	0.032697	0.947949
-1.253476	1.857782	9.780631	6.344345	5.109026	-5.553625	0.519306	-0.009109	-1.108588	13.016507	8.406306	8.029772	-69.204295	37.732021	-97.371393	0.252164	-0.018012	-0.228148	9.333252	0.738897	0.139329	6.842456	-2.042364	7.077806	-1.180973	-0.002834	0.986986
-0.789409	1.451597	10.020056	7.299603	5.945658	-5.541969	0.53538	0.0118	-1.126854	13.399637	9.322705	7.504753	-38.762906	17.132096	-103.235668	0.252164	-0.012008	-0.252164	9.558101	0.506067	-0.028494	5.550958	-1.995158	6.947432	-1.119503	0.032697	0.947949
-1.31053	1.509581	9.778649	5.221535	5.86628	-6.993202	0.523796	0.005898	-1.055212	13.212231	9.835263	9.682499	-11.970077	-8.15904	-99.307279	0.264172	-0.036023	-0.240156	9.383438	0.737206	-0.202097	4.351461	-1.853504	6.72361	-1.099955	-0.000371	0.978047
-1.263763	1.856524	9.260298	6.301155	6.228662	-6.301135	0.551717	-0.007442	-1.088432	12.165654	10.523269	11.253639	29.286278	-36.20857	-92.463052	0.264172	-0.024016	-0.228148	9.83821	-0.016883	-0.310689	3.214351	-2.133866	6.081731	-1.15424	0.025807	0.983854
-1.253309	1.683654	9.780212	6.717847	6.867669	-6.559822	0.540253	0.046319	-1.092743	9.549712	11.907244	10.552216	81.371869	-68.157735	-71.263068	0.258168	-0.024016	-0.240156	9.61021	0.099365	-0.314668	2.446206	-2.410589	5.502918	-1.185425	0.005664	1.011918
-1.256794	1.741277	9.606907	5.649117	7.220164	-7.772836	0.489976	-0.014154	-1.074264	1.624505	5.178752	5.575137	160.830967	-83.432218	-34.007607	0.258168	-0.024016	-0.228148	10.129457	0.099918	0.038021	1.617073	-2.929204	4.654126	-1.135545	0.02025	0.970526
-1.139787	1.799488	9.724962	5.099448	8.781546	-8.30681	0.50605	0.006754	-1.09253	-2.058463	-2.317642	6.87372	26.081199	-104.821293	20.171303	0.258168	-0.024016	-0.234152	9.839666	0.388917	-0.194665	1.556563	-3.384297	4.297341	-1.121775	0.004682	1.020932
-1.422156	1.800325	9.950507	3.807411	10.004493	-9.692665	0.508487	0.024014	-1.075475	-5.495592	-2.620162	22.673555	39.123573	-124.932442	9.075969	0.258168	-0.042027	-0.24616	10.469308	0.446351	-0.010736	1.280175	-3.458071	4.909254	-1.137345	0.010743	1.004705
-1.088058	1.740691	9.436892	0.46394	10.975209	-11.162341	0.553126	0.010944	-1.089536	-1.129079	-2.733866	14.323665	132.397873	-121.777752	1.872329	0.24616	-0.048031	-0.240156	10.182782	0.794035	-0.071883	1.033359	-2.90591	6.730178	-1.137299	0.043008	0.944188
-1.695633	0.873458	10.578518	-5.40483	16.754021	-14.849683	0.519688	0.010403	-1.127852	1.418817	3.802893	6.458229	121.418653	-119.674945	1.478891	0.234152	-0.054035	-0.216141	10.698764	0.735904	0.109267	0.076829	-1.367576	7.576301	-1.118223	-0.008569	1.01309
-1.345225	1.68656	10.934221	-3.901358	24.746932	-14.526608	0.503614	-0.010505	-1.109586	4.511077	3.789934	8.699914	77.680153	-107.182079	-4.444094	0.24616	-0.042027	-0.240156	11.321864	1.255194	0.009837	-2.110984	0.422255	4.892794	-1.186279	0.033176	0.96849
-1.411702	1.627455	10.47042	-9.029225	37.094939	-18.114525	0.524179	0.02541	-1.074477	3.627389	-0.218621	9.161635	77.823635	-91.333656	-10.726601	0.234152	-0.036023	-0.222145	11.377226	1.486403	-0.045077	-4.483838	2.37528	1.378689	-1.124855	0.036443	0.989971
-1.189341	1.97465	10.128942	-16.766562	45.527567	-20.762229	0.50605	0.006754	-1.09253	4.541609	0.465044	9.826805	71.038432	-73.86483	-24.381298	0.228148	-0.066043	-0.222145	11.707407	1.019658	-0.668436	-7.316536	3.959169	-0.35544	-1.167157	0.013863	0.976875
-1.151398	1.747091	12.03627	-18.477309	43.370193	-19.526769	0.551717	-0.007442	-1.088432	2.443462	0.242891	9.374004	66.376146	-61.084579	-32.29471	0.204133	-0.054035	-0.222145	11.245786	0.671612	-1.021576	-10.333108	5.269904	-2.420673	-1.152914	0.016804	0.988478
-1.431759	2.038421	12.378143	-4.712434	62.384634	-17.973088	0.542308	0.044066	-1.056423	2.268065	0.014842	9.017149	61.041402	-49.403934	-28.414641	0.228148	-0.060039	-0.198129	11.533983	1.193162	-0.785211	-13.501605	5.81521	-4.652502	-1.151115	0.026311	0.954299
-0.967606	2.735187	12.678037	-15.472879	92.812875	-24.259807	0.541925	0.024554	-1.037159	2.511636	-0.38841	9.907209	61.609057	-32.560598	-26.303643	0.210137	-0.060039	-0.204133	11.414477	0.612849	-1.132645	-16.608129	6.203491	-6.574519	-1.135119	0.006494	0.992239
-2.287453	1.459388	12.59086	12.032982	98.929073	-11.186774	0.509514	0.022887	-1.057315	2.678829	-1.419677	9.617295	58.604479	-19.715008	-11.73919	0.210137	-0.066043	-0.210137	11.293378	0.843085	-1.476399	-19.035023	5.328057	-7.423667	-1.186752	0.014667	1.007294
-2.211858	2.738647	13.577928	-25.705427	93.200175	-25.956262	0.576511	0.083631	-1.056636	3.525898	-0.448465	9.749869	68.000565	-18.00051	-11.692507	0.204133	-0.066043	-0.204133	11.131888	1.251067	-0.964108	-21.245925	4.092453	-8.59975	-1.174735	0.021857	1.031363
-1.986907	1.576872	13.290631	8.622188	110.958345	-14.950954	0.554153	0.009818	-1.071376	3.393022	0.011941	8.743881	62.192118	-13.354928	-13.130608	0.192125	-0.078051	-0.192125	11.01733	1.019446	-1.024504	-22.164365	2.403024	-9.08547	-1.155567	0.034809	0.979231
-1.876814	1.692287	13.061938	-6.309879	121.086103	-19.405466	0.637487	0.051319	-1.032275	2.827274	0.930121	8.849391	55.017676	-11.846483	-11.814969	0.204133	-0.078051	-0.180117	11.594647	1.020148	-0.613597	-22.529127	0.650032	-8.955018	-1.153341	0.03056	0.966765
-2.045439	1.576787	13.231674	-3.577193	138.035268	-18.591169	0.640306	0.088091	-1.034484	2.891612	0.127349	9.146899	48.045303	-8.00821	-4.794103	0.216141	-0.084055	-0.198129	11.707521	0.961761	-0.668699	-21.632765	-1.365573	-8.658767	-1.136872	0.029252	0.965902
-1.535272	2.214058	12.954424	-1.502245	153.429489	-19.93353	0.629487	0.121213	-1.001371	2.477695	1.161227	8.311463	45.250864	-9.879571	-10.622966	0.204133	-0.090059	-0.180117	10.752989	1.546076	0.056981	-20.030433	-3.072611	-9.986938	-1.120403	0.027944	0.965039
-2.159072	1.577038	13.287202	-8.834827	171.45858	-19.87463	0.624614	0.086694	-1.035482	2.936136	0.872893	8.615665	35.009972	-6.894737	-7.154072	0.210137	-0.096063	-0.174113	11.090598	1.312757	-0.165681	-19.228568	-4.325208	-11.635823	-1.184952	0.024173	0.973114
-2.674898	0.881027	13.275239	-5.997913	188.131153	-16.874128	0.652796	0.033204	-1.012012	2.993231	1.044499	8.675447	26.755379	-6.309232	-7.496426	0.216141	-0.078051	-0.192125	11.092953	1.834613	0.007961	-18.090516	-4.744234	-13.42459	-1.141324	0.037751	0.990834
-2.720911	0.940523	13.852383	-1.636981	200.920472	-12.113567	0.74062	0.089712	-0.919536	2.431126	1.103191	8.84148	17.865814	-5.216331	-5.774248	0.216141	-0.090059	-0.186121	10.525204	2.125758	0.112197	-16.923911	-4.376197	-16.607879	-1.117277	0.028448	0.935483
-2.672278	0.53305	13.39003	4.781066	215.272827	-6.206993	0.757984	0.069344	-0.862953	2.088408	1.219103	8.657756	12.739046	-4.988503	-5.975055	0.216141	-0.078051	-0.174113	10.301379	1.83752	0.277654	-16.311316	-3.658942	-19.007016	-1.152868	0.049069	0.927961
-3.520305	0.303251	14.008289	4.446205	226.608781	-3.166723	0.737036	0.013917	-0.878797	2.431978	0.816729	8.841987	9.588094	-4.617284	-5.187688	0.198129	-0.084055	-0.186121	9.668245	1.837194	-0.077287	-16.130022	-2.577363	-21.539294	-1.135119	0.006494	0.992239
-2.422095	0.4773	14.435128	12.710865	240.926564	6.331342	0.787576	0.034239	-0.840588	2.268364	0.644855	9.134033	7.255668	-4.309414	-5.60855	0.192125	-0.090059	-0.198129	9.046147	1.95529	0.139218	-15.271988	-1.561899	-23.179379	-1.136399	0.047761	0.927098
-3.188048	-0.221004	13.377927	17.287082	251.18823	13.183784	0.79245	0.068758	-0.806477	2.554051	0.700991	9.316365	6.348537	-4.360927	-5.671596	0.204133	-0.078051	-0.180117	9.38577	2.417515	0.090987	-15.029179	-0.293112	-23.819257	-1.122202	0.018438	0.999219
-2.050319	0.705448	12.940504	20.751972	262.357747	18.877629	0.840553	0.071822	-0.785323	2.494676	0.930534	9.196872	5.362234	-4.037635	-5.120516	0.216141	-0.084055	-0.186121	8.244219	1.492397	-0.164113	-15.186195	1.1406	-23.516886	-1.104834	0.021883	0.981266
-2.2309	2.329972	12.594099	21.225021	271.594347	18.389858	0.876045	0.07011	-0.710686	2.603646	0.472362	8.904856	5.096372	-3.777339	-5.125061	0.222145	-0.084055	-0.186121	7.957012	2.187459	-0.223682	-15.804708	2.855638	-21.90825	-1.087038	0.011573	0.985027
-3.343271	2.618588	11.4746	27.168153	275.026487	12.521758	0.8893	0.054247	-0.726744	2.499193	0.872836	9.432974	4.413782	-3.334369	-4.144674	0.198129	-0.084055	-0.168109	7.671624	1.95618	-0.287457	-16.761603	4.765637	-19.265996	-1.101281	0.008632	0.973423
-3.293101	4.184986	11.190442	26.958534	271.234211	6.197861	0.923383	0.034149	-0.651003	2.271283	0.759136	9.31083	3.983145	-3.153829	-4.271966	0.198129	-0.090059	-0.174113	7.56371	1.784032	-0.005037	-17.749532	6.771263	-16.901438	-1.151115	0.026311	0.954299
-3.901749	3.484698	9.385078	32.67129	278.061646	0.322105	0.929928	0.046903	-0.561307	2.668517	0.585964	9.377741	5.366084	-3.361184	-4.397348	0.204133	-0.078051	-0.186121	7.268289	2.071717	-0.523183	-18.860828	9.118674	-12.893814	-1.120403	0.027944	0.965039
-4.897255	2.786617	8.323305	8.174963	272.486959	-6.383622	0.964131	0.086468	-0.561521	2.494911	1.216895	9.255365	4.725946	-3.283305	-4.183651	0.198129	-0.102066	-0.174113	7.043223	1.841113	-0.414556	-20.342294	11.930753	-9.541331	-1.167111	0.046127	0.916358
-5.218668	2.731703	9.472602	-14.341297	272.411753	-8.937881	1.029981	0.088675	-0.503048	2.327291	0.930843	9.311612	4.643168	-3.037268	-3.484948	0.210137	-0.078051	-0.186121	7.957467	1.955874	-0.224733	-21.945388	14.214812	-5.810273	-1.086565	0.030082	0.946223
-5.711466	1.864358	10.616515	-27.305862	267.427188	-8.956522	1.029216	0.049651	-0.464519	2.098422	1.50455	9.24725	4.08938	-3.188052	-3.134534	0.204133	-0.078051	-0.192125	7.95014	2.243779	-0.565972	-23.547478	16.070675	-2.130505	-1.151542	0.040066	0.932585
-5.199378	1.68917	10.395123	-17.777355	262.736491	-8.917219	1.01725	0.024237	-0.373612	2.048635	0.70222	9.483586	2.963202	-2.075319	-0.951618	0.204133	-0.10807	-0.180117	8.240363	2.881647	-0.214896	-24.471774	17.106164	-0.416139	-1.102608	0.017634	0.9688
-6.056296	2.387076	10.610915	-16.117408	250.075538	-7.704034	1.042426	0.134822	-0.361082	2.272199	0.816327	9.369729	4.114946	-1.481022	-0.182763	0.210137	-0.084055	-0.168109	8.574025	2.937021	-0.607521	-25.210204	17.452161	0.428245	-1.134646	0.025003	0.953436
-3.429741	0.757504	9.907987	-25.258119	236.847223	-4.729456	1.042044	0.11531	-0.341817	2.436154	0.873615	9.077886	4.242844	-1.5254	-0.035738	0.210137	-0.090059	-0.162106	8.923364	1.895518	-0.320034	-25.239227	16.770735	0.902666	-1.137725	0.056763	0.922474
3.122643	-1.228355	7.548643	-14.259731	199.855626	16.777074	1.079591	0.111345	-0.230861	2.718986	1.159124	9.141812	4.146019	-1.068435	0.800591	0.198129	-0.078051	-0.180117	9.372596	2.240672	-0.594908	-25.88298	15.995677	0.97835	-1.131947	0.039262	0.902166
9.795935	-3.169669	-0.298392	26.566887	121.368741	11.666957	1.063899	0.109949	-0.231859	2.837053	0.929207	9.380392	8.240893	-2.505075	-0.583845	0.198129	-0.084055	-0.174113	9.147644	1.952171	-0.486543	-25.603422	14.907827	2.259058	-1.100381	0.013385	0.956334
-0.667554	-6.405545	1.276876	8.585257	-38.822262	5.545814	1.049878	0.086787	-0.177272	1.876392	0.874812	9.362021	7.291392	-2.862866	-1.283078	0.210137	-0.090059	-0.156102	9.215634	1.491251	0.02631	-25.353366	13.35171	4.100981	-1.119503	0.032697	0.947949
3.211771	-0.709156	6.280262	12.832461	-144.134724	19.454889	1.077416	0.053935	-0.191227	2.671266	0.757537	9.554437	8.513455	-2.864908	-1.049491	0.198129	-0.090059	-0.168109	9.449937	1.608166	0.373893	-24.735759	12.488733	7.029822	-1.136826	0.061516	0.905384
3.875492	-1.170197	7.91053	2.25001	-191.946495	27.246682	1.073308	0.058441	-0.263867	2.096525	1.046515	9.071062	8.857247	-3.173858	-1.359943	0.192125	-0.090059	-0.162106	9.670509	1.258493	-0.022824	-23.657258	11.75131	10.141696	-1.100335	0.045649	0.895816
1.67497	-3.202231	6.763726	2.37759	-198.487478	35.104627	1.090409	0.078223	-0.263973	1.8125	1.162054	9.006426	6.556669	-2.789713	-0.324553	0.216141	-0.096063	-0.174113	9.55933	1.027661	0.088057	-22.086227	10.744104	13.262436	-1.1346	0.057267	0.892918
1.010179	-1.863508	8.025149	-5.993891	-188.35602	49.198902	1.068817	0.043434	-0.317242	2.21357	1.160353	9.309033	6.945074	-2.751301	-0.768865	0.210137	-0.090059	-0.174113	9.853273	1.492629	0.60962	-19.592881	9.692847	15.991539	-1.119457	0.064962	0.887432
0.646615	-0.878684	7.09563	-6.941921	-161.930947	59.293754	1.066763	0.045686	-0.353563	2.20345	1.275852	8.777828	5.639431	-2.625215	-0.929648	0.204133	-0.072047	-0.156102	10.259304	1.725258	1.0182	-17.069346	8.752939	17.433715	-1.155475	0.099338	0.858196
1.49361	-0.76511	6.419277	-15.589578	-151.19723	63.425087	1.054534	0.060423	-0.319345	2.100574	0.416095	9.190179	1.810029	-2.085931	-1.003094	0.198129	-0.096063	-0.168109	10.772818	1.203167	1.025971	-14.116396	8.059607	17.068092	-1.124336	0.087216	0.89065
2.637556	-0.360343	6.269671	-27.95156	-156.283834	56.296314	1.047224	0.008645	-0.370511	2.831791	0.872422	9.085493	3.574776	-2.132884	-0.359458	0.216141	-0.102066	-0.162106	10.030075	1.319913	0.897671	-10.948448	7.38161	15.846944	-1.141278	0.070015	0.930317
2.88958	0.048528	7.431516	-29.856556	-174.738463	42.77639	1.045935	0.049921	-0.445361	2.319408	1.389791	8.956799	1.394076	-1.736793	-0.22388	0.210137	-0.090059	-0.162106	10.481332	1.781385	0.737508	-7.781259	6.933563	13.580624	-1.152822	0.081333	0.867444
2.445809	0.747441	8.233456	-21.265018	-197.512261	25.254281	1.013906	0.067766	-0.484782	2.154025	1.447189	9.189438	1.183128	-1.60268	-0.238514	0.198129	-0.090059	-0.180117	10.763683	1.838187	0.629217	-4.706684	6.640799	11.096098	-1.140378	0.074768	0.913227
1.703191	0.748584	8.392041	-12.34517	-216.443142	9.808767	1.011852	0.070019	-0.521102	2.211674	0.702318	9.132845	0.255823	-1.378036	0.365873	0.216141	-0.084055	-0.150098	10.430828	0.798312	0.960281	-2.0932	6.420709	9.5249	-1.139052	0.065766	0.917851
0.031099	0.575091	7.953772	-14.680792	-223.485021	-2.221119	0.946003	0.067812	-0.579574	2.038514	0.817719	8.952381	-0.56569	-1.321899	-0.033319	0.180117	-0.090059	-0.174113	10.253912	1.028924	0.672493	0.305307	6.160068	8.442819	-1.139052	0.065766	0.917851
-1.620949	-0.234495	8.496817	-25.155991	-223.197504	-7.521956	0.992052	0.073128	-0.59474	2.550514	1.159534	9.197553	-0.439558	-1.397199	0.111786	0.204133	-0.078051	-0.162106	10.254583	1.260773	0.730637	2.181266	5.860978	7.450568	-1.087419	0.057593	0.902796
-2.634338	-0.405246	9.458676	-31.567275	-220.719886	-7.420522	0.909101	0.051138	-0.653106	2.379229	0.644718	9.018206	-0.43205	-1.374743	0.267473	0.198129	-0.096063	-0.174113	10.073833	1.722182	0.272624	3.749939	5.496347	6.488766	-1.105214	0.067903	0.899035
-3.204457	-0.752527	9.619852	-33.740368	-219.285075	-4.498517	0.911537	0.068397	-0.63605	2.660293	1.159497	9.022725	-0.628798	-1.820486	0.616882	0.210137	-0.102066	-0.162106	9.851475	1.260518	0.494384	4.82704	4.946285	5.222774	-1.072276	0.065287	0.897309
-4.285799	-0.634266	10.060933	-34.640598	-220.221324	0.587773	0.928639	0.08818	-0.636157	1.8674	0.245611	8.773136	-1.868573	-2.764288	1.219487	0.198129	-0.084055	-0.186121	10.128535	1.142316	0.099845	6.088425	4.51611	4.291415	-1.106541	0.076906	0.894411
-3.901005	-0.868922	9.201153	-35.439925	-221.16924	8.66618	0.845808	0.125852	-0.770476	2.213272	0.530339	9.192149	1.774774	-2.468854	0.951482	0.186121	-0.084055	-0.180117	9.618184	1.201762	0.204156	6.457621	4.319698	3.38042	-1.120784	0.073964	0.882808
-3.883273	-0.28626	10.127587	-48.467404	-222.024049	13.372103	0.84889	0.122474	-0.715996	2.327461	0.87355	9.311714	0.032701	-3.070373	0.203631	0.222145	-0.096063	-0.162106	10.072161	0.852948	0.097404	6.088185	4.448174	2.672009	-1.12301	0.078213	0.895274
-3.996375	0.352601	10.242468	-58.246665	-222.152181	17.113912	0.835372	0.178487	-0.756628	2.440841	0.758624	9.31409	4.439014	-3.750272	0.123469	0.186121	-0.084055	-0.174113	9.323343	0.620738	-0.375026	5.688999	4.282296	3.193648	-1.139479	0.079521	0.896137
-3.689082	0.587008	11.289407	-60.6038	-220.75367	16.188352	0.765294	0.121122	-0.811787	2.15607	0.75968	9.190657	3.159311	-4.020203	0.368999	0.204133	-0.090059	-0.174113	9.502955	0.738292	0.085616	5.013518	3.95704	3.901004	-1.165311	0.055634	0.882178
-2.935116	1.864342	11.769858	-59.990688	-215.750768	9.075323	0.748958	0.140364	-0.850209	2.661273	1.560341	9.140015	2.925733	-3.629	0.217158	0.192125	-0.096063	-0.174113	9.268436	0.157943	-0.321163	4.245406	3.78571	4.481953	-1.091825	0.098356	0.867211
-2.686773	1.343971	12.698209	-57.341068	-207.64749	-3.795338	0.700472	0.117789	-0.852099	2.716237	0.987551	8.965116	3.537107	-3.775943	0.154606	0.198129	-0.090059	-0.174113	9.435774	0.21471	-0.488798	3.846452	3.500403	4.792268	-1.140805	0.088524	0.891513
-2.645443	1.400002	11.890085	-55.857186	-196.337394	-19.378238	0.673961	0.149514	-0.819984	2.659207	1.159599	8.963725	2.812266	-3.963708	0.168911	0.198129	-0.096063	-0.180117	9.613577	0.67938	-0.083671	2.893653	3.365153	4.851451	-1.152822	0.081333	0.867444
-3.911357	1.342764	11.691355	-64.093813	-178.896466	-32.0939	0.645396	0.183493	-0.824189	2.662019	1.674825	9.198812	3.899898	-4.817662	-1.00704	0.210137	-0.096063	-0.162106	9.27789	0.507688	0.194244	2.124879	3.33636	4.083376	-1.125236	0.082463	0.90774
-5.092172	0.998611	12.880625	-79.073367	-160.906354	-37.843004	0.62765	0.184349	-0.861507	2.43707	0.930806	9.136785	3.404077	-3.690483	-0.175021	0.204133	-0.078051	-0.150098	9.502512	0.390651	0.026947	1.787287	3.005008	3.416386	-1.088745	0.066595	0.898172
-6.507556	1.118463	13.835181	-80.374658	-146.371512	-35.626136	0.619268	0.234731	-0.811339	2.662637	1.102002	9.140827	4.200941	-4.179529	0.197302	0.198129	-0.102066	-0.168109	10.065073	0.445833	-0.304081	1.419041	2.641719	2.81114	-1.154621	0.071827	0.901624
-7.476075	0.888077	14.16208	-72.038805	-138.732248	-29.521698	0.590321	0.249197	-0.796279	2.43788	1.388943	9.253973	2.942923	-3.609929	-0.153091	0.198129	-0.084055	-0.156102	9.606148	0.445954	-0.484367	0.558458	2.455366	2.260312	-1.102515	0.082163	0.847765
-7.469773	1.469342	14.510366	-51.486069	-135.494316	-22.452233	0.589294	0.250323	-0.814439	2.04235	0.98919	9.188077	3.019667	-3.265508	-0.257406	0.198129	-0.084055	-0.156102	9.839439	0.50471	-0.194139	0.035783	2.395781	1.708359	-1.12121	0.08772	0.861094
-7.537893	1.932481	13.990008	-36.965581	-136.861498	-15.825528	0.544655	0.263393	-0.800378	2.610294	1.159059	9.37564	4.908147	-5.150672	-0.230637	0.210137	-0.084055	-0.150098	9.724199	0.620467	-0.252958	-0.7325	2.207393	1.372165	-1.090545	0.057089	0.932352
-7.496705	0.943604	13.121554	-30.624064	-145.457287	-11.776341	0.531782	0.298768	-0.803585	2.106582	0.587364	9.543876	4.053819	-6.08529	-0.105008	0.198129	-0.096063	-0.162106	9.837744	0.793929	-0.249917	-0.947748	2.125929	0.485937	-1.103034	0.03139	0.947086
-8.004919	0.654869	13.515272	-18.743669	-154.514134	-9.588966	0.60045	0.337747	-0.747322	2.556459	0.987149	9.492858	4.184751	-6.077985	0.817817	0.204133	-0.084055	-0.162106	9.840679	0.447076	-0.13731	-1.47069	2.107416	-0.770429	-1.104741	0.086412	0.860231
-8.033829	0.999632	12.070741	-14.17028	-157.391156	-8.410208	0.520318	0.352529	-0.807897	2.387241	0.873075	9.489801	4.056037	-6.658376	0.723462	0.186121	-0.102066	-0.168109	9.676163	0.101354	0.143195	-2.239193	1.930808	-1.902114	-1.126135	0.077709	0.92483
-8.78994	0.766927	11.53499	-18.971637	-154.236932	-9.144344	0.486498	0.332476	-0.826948	2.54817	1.217029	9.079451	4.514285	-9.014778	1.390067	0.186121	-0.078051	-0.168109	9.161421	0.101852	0.018875	-2.793624	2.273379	-2.738841	-1.122537	0.096722	0.85647
-9.775715	0.65053	10.994947	-21.98513	-146.463987	-11.22857	0.490989	0.347483	-0.773573	2.218087	1.102655	9.545135	2.554516	-10.735109	1.381867	0.198129	-0.096063	-0.162106	9.269676	0.10031	-0.264334	-3.285048	2.053671	-2.797558	-1.090026	0.107862	0.833031
-10.431657	1.34472	9.769941	-31.887821	-137.831726	-15.527744	0.455114	0.329683	-0.828944	2.044353	1.04628	9.305976	5.361059	-11.310315	2.355481	0.198129	-0.078051	-0.156102	9.393244	0.334034	0.2528	-3.960578	1.759061	-2.090897	-1.121637	0.101475	0.839381
-10.803308	1.225614	8.375249	-55.979761	-132.58409	-21.645264	0.42373	0.32689	-0.83094	2.212824	1.04587	9.250236	5.020792	-11.945072	4.026803	0.198129	-0.090059	-0.186121	9.09805	0.505926	-0.265872	-4.144337	1.504786	-1.62721	-1.089599	0.094106	0.854745
-12.103162	1.751794	9.390884	-71.00794	-128.430022	-26.159087	0.426166	0.344149	-0.813885	2.332383	1.04492	9.60641	4.372837	-12.660119	5.116987	0.198129	-0.078051	-0.168109	9.047307	0.217872	0.017148	-4.050856	1.037553	-1.034755	-1.137679	0.089028	0.861957
-13.283056	1.639951	10.638527	-62.731004	-119.966439	-26.34434	0.428221	0.341897	-0.777565	2.375352	1.217845	8.89919	3.853959	-13.812619	6.14351	0.186121	-0.090059	-0.156102	9.276434	0.101887	0.078219	-3.403637	0.478842	-0.009013	-1.171044	0.105399	0.841969
-14.874459	-1.375173	11.23522	-40.204959	-105.684276	-20.304174	0.448524	0.417962	-0.799145	2.265296	1.676119	9.132206	2.001113	-14.226565	7.791204	0.186121	-0.084055	-0.162106	8.992718	0.739842	0.189664	-3.187089	0.062189	1.408717	-1.140805	0.088524	0.891513
-17.930786	3.044805	13.554525	58.509951	-38.474738	2.264945	0.397601	0.378128	-0.81809	2.158649	0.988545	9.367251	1.708847	-15.827032	8.873437	0.186121	-0.096063	-0.174113	9.496323	0.099592	-0.316921	-2.693423	-0.534055	2.770925	-1.073603	0.07429	0.892685
-16.004099	0.471596	6.420492	29.032069	1.023392	17.790031	0.413938	0.358886	-0.779667	2.446744	1.330838	9.726076	0.302923	-16.199981	9.982159	0.180117	-0.090059	-0.156102	9.099074	-0.015142	-0.268238	-2.630555	-0.95487	4.340832	-1.116758	0.079221	0.836162
-16.272104	3.376663	7.520245	-11.545979	40.691451	19.833825	0.430013	0.379794	-0.797934	2.883793	0.92995	8.850477	-1.530038	-18.118861	11.841559	0.186121	-0.102066	-0.174113	9.61922	0.101467	0.142069	-2.137604	-1.298658	5.207817	-1.153675	0.108844	0.824017
-15.570578	4.023185	11.11887	7.860758	73.611748	34.3249	0.442885	0.34442	-0.794727	2.487944	1.733034	8.95945	-1.800694	-19.449496	13.094769	0.180117	-0.096063	-0.162106	9.341261	0.103613	0.478991	-1.983272	-1.51676	5.580716	-1.140332	0.107032	0.85271
-13.313049	4.306561	9.257401	49.109049	103.161986	27.100713	0.443268	0.363932	-0.813992	2.613788	1.445115	9.611133	-5.799041	-23.431525	15.70389	0.186121	-0.090059	-0.162106	9.384689	0.100345	-0.204989	-2.01388	-1.577988	5.551387	-1.123436	0.091969	0.87356
-9.604047	10.467738	14.374106	68.7401	108.370954	15.326301	0.424757	0.325764	-0.81278	2.44766	1.388029	9.784975	-9.313113	-29.204894	18.860235	0.198129	-0.102066	-0.150098	9.835048	0.445762	-0.42277	-2.197089	-2.076118	5.928965	-1.127416	0.118976	0.859689
1.884299	4.297601	11.929552	217.546521	112.498767	-41.391935	0.411884	0.361138	-0.815988	2.95919	1.157122	9.913161	-16.203324	-36.172309	23.17492	0.186121	-0.090059	-0.150098	10.232524	0.444703	-0.471979	-2.657744	-2.296813	5.96219	-1.138579	0.084274	0.879047
8.569573	-0.602773	4.537909	116.161974	137.11344	-68.374202	0.410857	0.362265	-0.834148	2.743808	1.214081	10.498715	-21.123246	-49.673091	28.883513	0.168109	-0.072047	-0.150098	10.46131	0.502407	-0.410119	-3.423882	-3.215111	7.325069	-1.138106	0.102783	0.840243
3.02204	3.779889	14.320417	70.489405	128.159004	-79.571642	0.480215	0.279571	-0.859955	2.646792	1.671137	11.439732	-29.181732	-64.452035	34.809268	0.180117	-0.090059	-0.168109	11.261667	0.617396	-0.222549	-4.341392	-4.98375	10.113699	-1.152822	0.081333	0.867444
-6.092454	3.137299	8.820473	91.698062	104.85659	-62.762722	0.449213	0.29629	-0.881215	3.212946	0.982025	11.392816	-25.968785	-79.726979	36.431712	0.174113	-0.078051	-0.168109	12.006094	0.790658	0.02125	-3.013741	-7.385349	9.931856	-1.107394	0.104417	0.850984
-7.848126	2.619434	9.940079	57.876242	67.87994	-23.787796	0.448448	0.257266	-0.842686	3.799533	1.092876	12.583483	-15.787583	-79.958665	28.632248	0.150098	-0.078051	-0.174113	12.180279	1.949559	0.315346	0.095696	-9.717271	4.466928	-1.158128	0.117343	0.848949
-4.337356	1.630432	10.469943	82.812507	58.464262	11.414325	0.416802	0.294624	-0.901372	3.390793	0.751634	11.809484	6.699654	-86.073386	19.327955	0.156102	-0.078051	-0.156102	12.304757	1.720111	0.830377	4.002402	-11.201322	-1.716954	-1.187086	0.092951	0.864546
-0.768846	2.898276	8.232434	75.005703	52.241624	24.852422	0.481242	0.278445	-0.841795	4.248365	0.748164	12.356785	-3.226326	-96.968788	16.919801	0.150098	-0.084055	-0.162106	11.56991	1.259471	1.042001	7.105505	-10.80562	-7.214838	-1.140332	0.107032	0.85271
0.296951	0.869554	9.809116	39.013861	43.469114	15.476014	0.507108	0.267358	-0.911334	4.260489	0.689755	13.005888	5.173437	-108.639074	12.745247	0.144094	-0.078051	-0.162106	11.395929	1.14323	0.86682	8.70004	-9.30038	-10.269188	-1.158128	0.117343	0.848949
-1.337926	-1.156973	11.158633	29.651408	3.625123	-14.694201	0.489624	0.228063	-0.891963	4.132024	1.493408	12.294292	7.627055	-121.525254	9.264892	0.132086	-0.072047	-0.174113	10.829761	1.203053	1.027097	8.879195	-7.031187	-10.22909	-1.153721	0.07658	0.884534
-4.44533	1.689425	10.814686	44.458352	-2.824277	-15.494293	0.462469	0.280427	-0.897273	4.026187	1.26397	12.646525	7.272024	-135.799035	8.949487	0.13809	-0.096063	-0.162106	10.142619	0.855988	0.783636	8.137158	-5.023749	-7.771575	-1.138579	0.084274	0.879047
-0.494923	3.360803	7.603305	46.201606	7.655425	3.413162	0.473287	0.247305	-0.930386	4.149453	0.747185	13.121614	6.263905	-149.741231	8.184661	0.102066	-0.084055	-0.156102	10.592307	0.969557	0.507711	8.444023	-4.424757	-4.511146	-1.193764	0.105699	0.901944
-2.274896	0.525059	10.277176	-5.279279	3.507469	-3.11232	0.486422	0.17178	-0.870489	4.149623	0.689892	13.121715	11.864495	-167.452479	5.207381	0.102066	-0.078051	-0.144094	10.593876	1.317461	0.623473	11.152351	-5.417884	-3.464236	-1.138152	0.070519	0.900761
-1.341573	1.454808	11.107106	12.776749	-3.037674	-10.166478	0.472905	0.227793	-0.911121	4.441766	0.401766	13.599657	13.931097	-181.98876	2.067653	0.10807	-0.096063	-0.150098	10.534237	0.969408	0.449493	14.106959	-6.503116	-2.199775	-1.155048	0.085582	0.87991
-1.726662	1.043813	9.017939	26.774076	-2.041007	-4.285426	0.539519	0.269024	-0.891178	4.288571	0.744408	14.539791	18.939853	-198.162902	-3.014822	0.096063	-0.084055	-0.150098	9.904823	0.796181	0.265039	15.892149	-7.197473	-1.409447	-1.140805	0.088524	0.891513
-1.782487	1.798703	9.134242	13.013015	-2.718927	-4.505703	0.436647	0.190481	-0.947228	4.862715	-0.804598	14.789399	24.522451	-214.529779	-11.345085	0.072047	-0.096063	-0.144094	10.472573	0.505036	0.160803	16.261512	-7.240798	-0.244224	-1.155048	0.085582	0.87991
-1.48841	1.50905	9.486147	10.382347	-1.665072	-2.077419	0.486805	0.191292	-0.889754	5.952779	-0.408414	15.753337	31.059991	-233.911771	-20.460541	0.066043	-0.078051	-0.144094	9.900307	1.374356	0.096391	16.139413	-7.288985	2.90647	-1.12301	0.078213	0.895274
-1.490054	2.031294	9.42959	7.370858	-1.514241	-2.763617	0.502879	0.212201	-0.908021	5.750692	-1.899162	16.813633	37.844722	-251.281221	-35.423028	0.054035	-0.096063	-0.13809	10.350791	1.08265	-0.181374	16.20308	-7.966364	5.246939	-1.191112	0.087694	0.911192
-1.146812	1.972778	9.378493	5.889415	-1.399638	-1.470778	0.454394	0.189625	-0.90991	5.356248	-2.299016	16.806737	50.676989	-273.664182	-53.310119	0.036023	-0.102066	-0.132086	9.947672	1.661622	-0.357905	15.005063	-8.442283	5.343288	-1.146584	0.106025	0.911821
-1.377397	1.856775	9.315827	0.435218	-1.012553	-1.141879	0.426856	0.222477	-0.895955	5.974809	-2.701532	16.5834	61.117171	-289.59246	-73.698841	0.054035	-0.102066	-0.120078	10.401523	1.949931	-0.404673	14.08472	-9.528594	3.436712	-1.175069	0.100142	0.888615
-0.855997	1.508577	9.556534	-2.777492	-0.864958	-1.181685	0.469703	0.17151	-0.889647	5.022799	-2.012141	17.153711	84.75637	-297.748812	-88.195677	0.018012	-0.102066	-0.120078	10.63875	2.29922	0.115238	12.702107	-10.376117	-0.496503	-1.192865	0.110452	0.884854
-1.600036	1.799794	9.658004	-3.075577	-1.051526	-0.448842	0.518189	0.194085	-0.887758	3.522504	-0.057432	15.765003	118.621447	-299.821308	-98.93261	0.006004	-0.114074	-0.102066	9.673751	2.475632	0.268157	11.042739	-11.19776	-4.340112	-1.124809	0.068707	0.929454
-1.776772	1.799402	9.423316	-4.167666	-0.689169	-0.041288	0.438057	0.208867	-0.948333	2.890533	1.210594	12.329893	152.150262	-298.932376	-96.722762	0.006004	-0.114074	-0.090059	9.269631	2.417217	-0.02545	9.261653	-12.409151	-6.799032	-1.12211	0.082967	0.878184
-1.596495	1.684127	9.831169	-5.135808	-0.814359	-0.26789	0.490006	0.247575	-0.911228	5.494579	2.009347	9.665537	154.23062	-289.726103	-83.83486	0.012008	-0.126082	-0.072047	9.265228	2.937496	-0.194361	7.695905	-13.70397	-9.652504	-1.123909	0.07346	0.912364
-1.256293	1.218893	9.605649	-6.039809	-0.848501	-0.522836	0.518189	0.194085	-0.887758	4.3984	1.84284	8.406191	141.966249	-275.009	-78.33089	-0.018012	-0.120078	-0.042027	8.240261	2.360317	-0.274354	7.206593	-14.841493	-9.812273	-1.138152	0.070519	0.900761
-1.26566	1.449946	9.14369	-6.418794	-0.896438	-0.790828	0.470468	0.210534	-0.928177	3.373336	2.247563	8.03192	138.096098	-269.445688	-65.308236	-0.012008	-0.126082	-0.018012	8.29461	2.533367	-0.386624	6.809314	-15.832776	-9.424388	-1.17109	0.073135	0.902487
-1.482862	1.683876	9.77564	-7.498863	-0.648971	-1.030022	0.502497	0.192689	-0.888756	3.770144	0.757072	7.865165	134.16323	-251.759786	-48.631548	-0.024016	-0.144094	-0.006004	8.358311	2.53483	-0.042945	7.089404	-17.188563	-8.687964	-1.157274	0.089832	0.892376
-1.086162	2.147269	9.553499	-5.800895	-0.366021	-0.233665	0.467267	0.15425	-0.906703	6.309005	0.807101	7.677962	135.726674	-241.541996	-36.809885	-0.024016	-0.150098	0.012008	8.246791	2.477687	0.068724	8.259912	-17.932524	-7.135124	-1.191158	0.05543	0.971709
-1.359528	1.104316	10.181232	-7.750878	-0.186803	-0.546661	0.451575	0.152854	-0.907701	5.662127	0.868603	6.308904	116.845187	-218.674381	-22.044253	-0.012008	-0.156102	0.03002	8.830091	1.726788	0.704583	10.106546	-18.572113	-5.85635	-1.144404	0.069511	0.959873
-1.143272	1.857112	9.551658	-5.560867	-0.023235	-1.019831	0.470468	0.210534	-0.928177	-4.05044	-3.508085	2.826895	98.199174	-192.981418	-16.102082	-0.03002	-0.156102	0.03002	9.047159	2.013449	0.196573	12.01285	-18.335564	-3.680014	-1.172889	0.063628	0.936666
-1.366553	1.277606	9.834762	-3.980392	0.572999	-0.39117	0.517544	0.214723	-0.925183	-11.939737	-6.220357	-5.695127	99.010083	-86.199718	-17.657845	-0.03002	-0.168109	0.048031	9.108732	1.377263	0.366085	13.732613	-17.240253	-1.708123	-1.205827	0.066244	0.938392
-0.913441	1.566676	9.555531	-2.923239	0.823421	-0.497691	0.452984	0.171239	-0.908805	-1.725839	-5.22894	-0.074429	11.372582	27.422762	25.818177	-0.036023	-0.144094	0.060039	9.27888	1.724301	0.37104	14.866798	-15.541336	0.399532	-1.141751	0.051506	0.96912
-1.083152	1.392994	9.667312	-0.738929	0.770897	-0.918482	0.451192	0.133342	-0.888436	-4.052677	-3.851535	2.650503	2.780075	119.137322	29.663289	-0.042027	-0.168109	0.054035	10.072252	1.953505	0.216583	15.477026	-13.379559	1.85134	-1.153721	0.07658	0.884534
-1.37723	1.682647	9.315408	1.374332	0.958732	-0.747086	0.469059	0.192148	-0.927072	-3.443583	-4.377939	8.030212	-3.484089	169.411374	28.480291	-0.018012	-0.144094	0.060039	10.410203	1.546496	-0.006868	15.502479	-11.059961	2.501137	-1.170663	0.059379	0.9242
-1.476813	1.336319	10.063875	2.80489	1.26049	-0.829815	0.469321	0.151998	-0.870383	-2.475656	-4.209669	8.461382	15.197386	192.017864	20.13652	-0.018012	-0.132086	0.048031	10.75052	1.082117	-0.116398	14.605828	-8.955453	2.416932	-1.157747	0.071323	0.93118
-1.083431	1.683207	9.668011	3.094761	1.308739	-0.406895	0.486805	0.191292	-0.889754	-1.525775	-2.722354	8.123214	19.615644	191.304862	7.292201	-0.024016	-0.144094	0.042027	10.522963	1.546006	-0.061708	12.971474	-6.978594	2.056458	-1.188032	0.055934	0.942153
-1.253253	1.625611	9.780072	3.084645	1.220738	-0.715861	0.463803	0.138117	-0.941918	-1.06048	-4.209025	5.539626	11.096244	186.445093	-3.835087	-0.024016	-0.168109	0.024016	10.519926	1.371528	-0.233773	10.35207	-4.60272	0.82506	-1.173316	0.077384	0.914953
-1.193635	1.683878	9.896984	2.388961	1.701063	-0.710156	0.480904	0.157899	-0.942025	-0.727755	-3.522132	5.308927	-9.325957	187.174287	-12.348733	-0.012008	-0.13809	0.036023	10.524658	1.256787	-0.00593	7.548807	-2.421216	0.147704	-1.151069	0.058575	0.893781
-1.374888	1.624884	9.430897	2.828521	1.904945	-0.71223	0.453367	0.190751	-0.92807	-0.489212	-3.695808	5.96258	-25.280912	191.618609	-20.014358	-0.018012	-0.168109	0.03002	9.833785	1.661849	-0.360158	5.207655	-0.630257	-0.671039	-1.139952	0.061012	0.93494
-0.911266	1.68304	9.67144	3.714175	2.465605	-0.649137	0.423654	0.166194	-0.874481	-1.113889	-3.063615	5.89051	-40.697347	200.341843	-25.539936	0.012008	-0.156102	0.006004	9.951505	1.430825	-0.18768	2.80526	0.986896	-2.220128	-1.155521	0.067074	0.918713
-1.363736	1.916495	10.009744	4.02377	2.846999	0.153709	0.436527	0.130819	-0.871274	-0.645603	-3.009209	6.784104	-58.940596	215.488545	-27.397718	0.024016	-0.162106	0.012008	10.163511	1.42669	-0.982466	0.404769	1.860718	-3.232027	-1.143931	0.08802	0.921069
-1.311562	1.393356	9.720555	2.305742	2.979597	0.566705	0.451957	0.172366	-0.926966	0.384575	-2.211604	7.628245	-68.588939	235.621238	-28.691795	0.018012	-0.180117	-0.006004	9.431928	1.024734	-0.599302	-0.702896	2.133358	-3.947769	-1.15642	0.06232	0.935803
-1.253532	1.915825	9.780771	0.895042	3.230473	0.732779	0.482576	0.136135	-0.88644	1.008463	-2.213682	7.758198	-73.611032	255.12545	-30.039916	0.036023	-0.144094	-0.012008	9.996401	1.25413	-0.815357	-1.594309	2.005208	-4.316614	-1.15732	0.057567	0.952893
-1.247649	1.742395	10.069425	0.29861	3.453456	1.367303	0.469441	0.21166	-0.946337	1.578815	-1.757656	8.122254	-77.320651	271.295879	-30.567721	0.042027	-0.162106	-0.012008	9.604453	0.735173	-0.540145	-2.363194	2.090408	-4.506237	-1.159546	0.061816	0.965359
-1.603131	1.451118	9.483721	-0.108456	3.404631	1.222176	0.452602	0.151727	-0.889541	1.76039	-1.415631	8.832907	-84.984475	279.083817	-29.974737	0.078051	-0.13809	-0.024016	9.769083	1.023	-0.820913	-3.162076	1.894391	-4.353058	-1.143504	0.074264	0.942783
-1.484925	1.451426	9.659451	-0.753566	3.482322	1.301821	0.484751	0.193545	-0.926074	2.379016	-1.474493	8.667961	-96.800368	277.509823	-27.234671	0.090059	-0.150098	-0.024016	9.548067	1.025032	-0.482865	-3.284504	1.595431	-4.958494	-1.156847	0.076076	0.91409
-1.14093	1.799348	9.667148	-0.415953	3.474669	1.201803	0.44952	0.155106	-0.944021	3.126298	-1.30605	9.389785	-110.721033	268.799598	-25.463217	0.078051	-0.156102	-0.060039	9.834809	1.140782	-0.362524	-3.561137	1.454174	-5.996617	-1.188032	0.055934	0.942153
-1.546663	1.218752	9.42649	0.541203	3.355565	1.296397	0.433828	0.15371	-0.945019	4.034211	-1.423666	9.584374	-127.656882	257.548215	-22.632272	0.096063	-0.144094	-0.066043	9.381526	0.562991	-0.31707	-3.65286	1.130833	-6.998941	-1.171563	0.054626	0.94129
-0.960375	1.393861	10.074302	0.204675	3.331195	1.486752	0.436527	0.130819	-0.871274	3.939368	-0.966813	10.643392	-143.157271	247.588969	-18.348837	0.10807	-0.13809	-0.060039	9.66804	0.794533	-0.196203	-3.190532	0.538452	-7.992051	-1.173789	0.058875	0.953756
-1.257881	1.683095	9.548953	0.085385	2.879187	0.982072	0.403471	0.14979	-0.928855	4.071349	-0.396158	11.765553	-153.27358	238.691881	-11.442517	0.120078	-0.144094	-0.072047	9.332797	0.970482	0.140381	-2.851142	-0.030686	-8.588747	-1.174216	0.072631	0.932042
-1.309387	1.509721	9.836464	0.602353	2.838888	0.662534	0.451312	0.193004	-0.96439	4.025355	-0.282418	12.354265	-160.774308	231.087825	-2.292812	0.132086	-0.13809	-0.078051	9.05552	0.62525	0.475725	-2.450477	-0.453516	-8.668545	-1.192011	0.082941	0.928282
-1.369284	1.741668	9.720251	1.373891	3.038514	0.316241	0.448755	0.116082	-0.905492	4.549606	0.688293	13.365322	-165.364733	221.655725	9.074182	0.13809	-0.132086	-0.084055	9.16298	1.028983	0.194357	-1.589192	-0.626815	-8.659896	-1.205827	0.066244	0.938392
-0.961685	1.567849	10.016906	0.60507	2.855061	-0.559237	0.452602	0.151727	-0.889541	4.99829	1.489125	13.313594	-169.310407	210.204957	22.202655	0.13809	-0.132086	-0.096063	9.114716	0.625662	0.591036	-0.605022	-0.71299	-8.224402	-1.151968	0.053822	0.910871
-1.4221	1.742283	9.950367	2.265008	3.676421	-0.809432	0.413908	0.097156	-0.942703	5.351022	1.65866	14.086812	-177.250286	200.3506	38.882609	0.156102	-0.10807	-0.090059	8.717797	0.916466	0.698651	0.317085	-0.554715	-7.794912	-1.141278	0.070015	0.930317
-1.138366	1.509414	9.782078	3.627853	4.297061	-1.580314	0.450165	0.134468	-0.906596	5.63379	1.600516	14.092346	-184.295027	195.506945	59.431339	0.13809	-0.10807	-0.120078	8.712393	0.799359	0.412664	1.208861	-0.472166	-6.41567	-1.170663	0.059379	0.9242
-1.193746	1.799963	9.897264	5.645507	4.677347	-1.796009	0.482576	0.136135	-0.88644	5.768072	2.858274	15.44929	-183.316361	197.136024	82.260579	0.150098	-0.10807	-0.144094	8.363749	0.914257	0.06388	2.376883	-0.227516	-5.405737	-1.190258	0.060183	0.954619
-0.854743	1.392632	9.61407	6.670301	5.054977	-2.141007	0.432419	0.135324	-0.943914	6.177047	3.485876	16.281783	-171.712975	202.268009	105.015548	0.174113	-0.066043	-0.13809	8.76788	0.393444	0.297766	3.730697	-0.425566	-3.314053	-1.208053	0.070493	0.950858
-1.424973	1.161437	9.775525	6.508384	5.157651	-2.591326	0.449782	0.114956	-0.887332	6.851851	3.541428	16.11772	-156.76082	207.367769	124.555132	0.156102	-0.078051	-0.150098	8.818737	0.623602	0.014483	4.776613	-0.388992	-0.770706	-1.172463	0.049873	0.95838
-1.486736	2.147799	9.603313	7.225604	5.323057	-2.571022	0.419928	0.190211	-0.966386	8.603744	4.338035	16.267985	-142.706027	206.834572	135.584492	0.180117	-0.066043	-0.144094	8.992502	0.276408	0.130469	5.791523	-0.285152	1.342701	-1.17199	0.068381	0.919576
-1.479711	1.974509	9.949783	7.634895	5.545198	-3.885658	0.455038	0.168987	-0.872485	11.310076	5.81966	16.199505	-129.440599	199.109316	135.194099	0.180117	-0.066043	-0.150098	9.11111	0.740666	0.420285	6.344651	0.032547	3.112219	-1.158647	0.06657	0.948269
-1.428625	1.393188	9.60264	7.440472	6.29056	-3.972659	0.480139	0.118875	-0.903496	13.548037	5.814975	15.003967	-114.284465	187.869343	121.700881	0.204133	-0.072047	-0.162106	8.774752	0.337125	0.640056	6.590181	0.380732	4.634688	-1.176015	0.063124	0.966222
-1.487378	1.625275	9.544241	7.28538	6.68498	-3.219361	0.481287	0.177411	-0.96129	16.141415	5.807744	14.699952	-94.064842	181.496149	96.941682	0.198129	-0.078051	-0.162106	8.882097	0.798755	0.358951	6.990148	0.398183	5.859806	-1.176015	0.063124	0.966222
-1.424386	1.742003	9.834737	7.666774	7.515664	-3.927721	0.446439	0.158485	-0.998501	23.536712	15.283916	22.021298	-103.717502	132.931676	57.277614	0.186121	-0.060039	-0.168109	8.699675	0.390929	-0.274282	8.035991	0.305064	6.815697	-1.139952	0.061012	0.93494
-1.192492	1.684017	9.954799	7.634485	7.862362	-4.462772	0.449138	0.135594	-0.924756	19.469972	4.954439	5.092819	-4.479385	140.853293	3.850636	0.198129	-0.066043	-0.168109	8.759655	0.565294	-0.10109	9.728115	-9.4e-05	8.146984	-1.157747	0.071323	0.93118
-1.477091	1.626532	10.064574	5.419275	8.090289	-5.592545	0.462011	0.100219	-0.921549	21.450776	4.43274	5.190765	-44.391348	113.993181	-22.87742	0.210137	-0.078051	-0.180117	8.702826	0.507511	-0.10248	11.48184	-0.175256	11.096516	-1.141278	0.070015	0.930317
-1.600956	1.567483	9.59963	7.384208	8.592226	-5.588076	0.46483	0.136991	-0.923758	21.78951	5.290901	5.313763	-74.190705	85.560753	-52.05982	0.234152	-0.078051	-0.180117	8.989795	0.507468	0.017336	13.265883	-0.32693	12.485881	-1.17199	0.068381	0.919576
-1.250355	0.987421	9.894164	4.766307	10.521002	-6.455066	0.451957	0.172366	-0.926966	19.942988	7.070357	6.57276	-67.30958	49.081932	-70.329045	0.228148	-0.054035	-0.198129	9.511852	0.798292	0.542616	13.511451	0.046471	14.374708	-1.193384	0.059679	0.984175
-1.588216	1.394892	10.235173	2.33744	14.540069	-7.424047	0.495187	0.14091	-0.939922	18.631137	10.33504	9.490903	-37.625838	15.706436	-90.840578	0.216141	-0.048031	-0.198129	9.498337	0.795137	-0.14249	13.972138	0.320761	14.860154	-1.170663	0.059379	0.9242
-1.294639	1.627623	10.588336	-2.343033	25.047923	-7.859107	0.42678	0.061781	-0.939496	17.663318	12.686927	9.468268	3.511445	-25.514172	-90.591374	0.228148	-0.066043	-0.186121	9.441166	0.911044	-0.14309	13.940958	0.423662	14.093021	-1.194237	0.08719	0.940748
-1.524804	2.266315	10.585301	-1.156796	34.586981	-7.373315	0.447346	0.097697	-0.904387	14.591776	14.124754	11.647971	50.22139	-74.599607	-74.440516	0.216141	-0.072047	-0.198129	9.158486	0.448704	-0.093732	13.541008	0.458451	13.478399	-1.155521	0.067074	0.918713
-1.421933	1.568155	9.949948	-5.056268	37.248588	-9.829881	0.466884	0.134738	-0.887438	10.338197	18.320087	11.441062	130.620934	-119.693204	-33.381719	0.216141	-0.072047	-0.180117	9.891763	0.561441	-0.421118	13.07959	0.491122	12.955244	-1.159073	0.080325	0.926556
-1.057029	1.570336	10.997471	-9.402878	38.267972	-10.631994	0.459574	0.08296	-0.938605	-3.021214	-3.101107	-2.580099	75.524096	-145.785358	14.295658	0.204133	-0.072047	-0.174113	10.012191	0.099357	-0.135508	12.987737	0.415997	13.812825	-1.208053	0.070493	0.950858
-1.384572	3.140058	11.919423	-4.529152	47.308941	-7.840232	0.529652	0.140324	-0.883446	-4.164122	-1.543883	27.651546	-6.282365	-152.917622	27.501364	0.210137	-0.078051	-0.174113	10.237928	0.56181	-0.185992	13.203469	0.418942	15.862987	-1.173789	0.058875	0.953756
-1.468487	3.143943	13.478135	-24.750192	63.213152	-21.649041	0.460601	0.081834	-0.920445	-2.689085	-8.115191	14.656782	185.61303	-151.810878	-7.827699	0.204133	-0.072047	-0.186121	10.460286	1.023475	-0.407753	14.309757	0.920113	18.120445	-1.14445	0.037247	1.02039
-2.453928	2.679289	12.937254	-2.29457	78.424479	-20.091475	0.490958	0.085753	-0.936609	4.10231	7.1195	5.442497	124.193323	-136.284453	6.307963	0.192125	-0.072047	-0.180117	11.543107	1.137369	-0.328736	14.307771	1.96434	20.022925	-1.190258	0.060183	0.954619
-1.510142	1.281266	11.276703	-4.315191	88.458011	-22.503777	0.514343	0.15844	-0.903709	2.628419	3.109876	7.60327	94.252228	-118.553902	-0.892655	0.180117	-0.078051	-0.180117	11.816891	1.539709	-0.835094	12.920958	2.814437	15.255424	-1.195564	0.096193	0.936124
-1.713319	2.387654	12.66234	-14.893879	96.275981	-24.131373	0.466502	0.115226	-0.868174	5.549862	0.23372	9.315769	71.213864	-105.160159	-3.986729	0.168109	-0.102066	-0.156102	12.500552	1.364655	-0.822368	11.164232	4.059797	10.384926	-1.192911	0.078188	0.945371
-1.761451	2.272742	13.123436	-6.997609	108.315336	-25.810886	0.547781	0.15898	-0.865393	5.723597	0.290095	9.554928	77.57028	-81.34236	-35.114247	0.156102	-0.078051	-0.150098	12.778397	1.420405	-1.159027	7.993214	5.260244	5.293682	-1.179994	0.090131	0.952351
-2.000902	1.865408	12.597553	-5.166594	122.493877	-27.961184	0.466884	0.134738	-0.887438	3.622212	1.156498	9.100198	62.10511	-65.822135	-46.170071	0.162106	-0.084055	-0.168109	11.627143	1.419789	-1.809566	5.316148	5.449569	-1.453738	-1.1595	0.094081	0.904842
-2.057592	2.329945	12.655343	-12.34217	135.432729	-30.009412	0.501349	0.134153	-0.830962	3.41337	-0.620002	9.748001	60.725302	-38.946265	-41.118148	0.168109	-0.090059	-0.156102	11.686122	0.956767	-1.75345	2.027226	4.828208	-3.628563	-1.238765	0.06886	0.940118
-1.768476	2.446032	12.776967	-10.715049	150.721998	-31.834262	0.514605	0.11829	-0.847019	1.560967	-1.245609	10.30326	45.45995	-18.003514	-10.657171	0.162106	-0.096063	-0.144094	10.72688	0.49737	-1.375054	-0.430222	3.932905	-3.162231	-1.190212	0.092447	0.894102
-2.914849	0.996077	12.750613	-10.862901	167.344818	-30.751089	0.580192	0.160647	-0.845237	5.051967	-1.197666	9.662528	61.928809	-14.806242	-6.136457	0.156102	-0.102066	-0.144094	10.732056	0.73027	-1.088542	-3.134918	3.774998	-0.970974	-1.208953	0.06574	0.967948
-3.497066	1.343912	12.335319	-11.008365	180.546529	-24.858374	0.618121	0.176195	-0.753545	2.601195	0.930802	8.845044	54.753968	-14.721062	-16.007847	0.156102	-0.102066	-0.13809	10.509118	1.137314	-0.805746	-5.687542	4.324845	1.143498	-1.243644	0.091114	0.943336
-2.691457	1.459498	12.467229	-11.003643	194.284774	-22.522217	0.584038	0.196292	-0.829286	2.678744	0.06952	9.850656	50.047301	-10.809896	-4.582985	0.168109	-0.096063	-0.132086	10.750406	1.140013	-0.116135	-7.409554	4.294731	-0.333137	-1.212033	0.0975	0.936987
-2.300027	1.45785	11.954897	-6.359668	205.907	-18.580339	0.583535	0.117118	-0.734067	3.230154	-0.04545	9.094724	51.585929	-9.527454	-8.265351	0.162106	-0.102066	-0.126082	10.335592	0.789488	-0.981978	-9.068636	3.626251	-2.10049	-1.178668	0.081129	0.956975
-3.002821	0.702147	11.187773	-11.378258	210.491091	-17.356146	0.661733	0.164251	-0.785766	2.544165	1.10285	8.843653	50.339688	-10.418756	-10.96613	0.150098	-0.10807	-0.126082	9.898737	1.026452	-0.01937	-9.528057	2.804338	-2.84853	-1.175115	0.067877	0.949132
-3.440153	0.647204	12.27697	-16.830075	219.13607	-12.532496	0.620175	0.173942	-0.717225	3.048664	1.04443	8.617534	39.523804	-7.465287	-9.363647	0.168109	-0.10807	-0.132086	9.832443	1.198152	-0.476445	-10.695347	2.497325	-1.716032	-1.192911	0.078188	0.945371
-4.293784	0.300621	12.605876	-7.126626	229.288707	-3.148317	0.667251	0.178132	-0.714231	2.59915	1.618312	8.843826	31.710252	-5.398203	-6.938147	0.168109	-0.10807	-0.120078	9.26673	1.026389	-0.31722	-10.848758	2.506145	-0.371318	-1.20938	0.079496	0.946234
-4.244873	-0.397065	12.142824	-1.003857	241.584038	7.509462	0.697608	0.182051	-0.730395	2.432148	0.759436	8.842089	23.62133	-5.527559	-6.837873	0.162106	-0.114074	-0.120078	9.667801	1.489553	-0.135957	-11.711135	3.195061	-0.024911	-1.226275	0.094559	0.925384
-3.423539	0.010691	13.08484	0.83954	249.903933	15.264004	0.699924	0.139648	-0.637385	1.804148	1.048281	8.534627	21.742176	-5.523471	-7.171086	0.174113	-0.114074	-0.120078	9.492569	2.010173	-0.308246	-11.806429	4.294775	-1.947201	-1.193338	0.091943	0.923658
-4.066963	0.76446	12.495936	9.379723	259.180794	21.065157	0.717026	0.15943	-0.637492	2.377866	1.103057	9.017394	17.865894	-4.646632	-6.54126	0.168109	-0.126082	-0.120078	9.265023	1.894835	-0.313277	-12.024687	5.526733	-2.558065	-1.160827	0.103083	0.900218
-4.12906	2.099079	12.324563	16.024169	262.01243	19.556502	0.768975	0.198139	-0.600387	2.041433	0.931999	9.129179	15.301442	-4.486336	-6.345045	0.162106	-0.114074	-0.126082	8.975245	1.604608	-0.605683	-11.782275	6.843333	-4.361247	-1.192438	0.096697	0.906568
-4.786478	3.141385	11.04258	24.714358	264.32414	13.668765	0.832388	0.183087	-0.55897	2.26619	0.645058	9.016032	11.008008	-4.2422	-5.184337	0.168109	-0.10807	-0.126082	8.910861	1.950523	-0.947785	-11.786031	8.356487	-5.160999	-1.179095	0.094885	0.935261
-3.595154	3.254625	10.373085	24.372173	264.733201	9.079034	0.803058	0.178041	-0.524646	2.72459	1.101324	9.436915	10.301828	-4.189361	-5.031656	0.156102	-0.114074	-0.114074	9.02204	2.181355	-1.058666	-12.036917	10.358341	-6.065173	-1.176869	0.090635	0.922795
-3.930436	3.59729	7.939988	26.051235	270.564957	2.738694	0.852833	0.15934	-0.447907	2.207732	0.931792	8.955438	8.795791	-3.396719	-4.12253	0.168109	-0.114074	-0.120078	9.025533	2.124247	-0.887652	-13.087405	12.499036	-6.671012	-1.177768	0.085882	0.939885
-5.93964	1.857678	7.780162	-12.924982	272.292118	-5.095543	0.869935	0.179122	-0.448014	2.550109	0.930465	9.138958	10.052935	-3.763854	-4.068155	0.168109	-0.120078	-0.120078	8.681962	1.950715	-1.009382	-14.967988	14.711906	-6.640688	-1.162199	0.079821	0.956112
-6.328172	1.221135	8.406587	-36.873238	269.922774	-3.706702	0.874043	0.174617	-0.375373	2.154707	1.218019	9.189844	7.167719	-2.892622	-3.536534	0.156102	-0.10807	-0.114074	8.456783	1.778006	-0.900492	-16.570984	16.532453	-6.783288	-1.166178	0.106828	0.94224
-6.447979	1.4599	11.063196	-51.809167	274.014949	1.125244	0.854505	0.137575	-0.392322	2.090176	0.989832	8.717163	7.532804	-3.199435	-3.322244	0.156102	-0.114074	-0.126082	8.628397	1.951617	-0.839232	-18.817187	17.602526	-4.373332	-1.157701	0.103587	0.870662
-6.862604	1.807009	10.420071	-38.450176	255.573404	8.148901	0.907099	0.155645	-0.317793	1.805916	0.81901	8.594034	7.083283	-3.001965	-3.169618	0.150098	-0.10807	-0.126082	8.745094	2.24166	-0.664389	-20.66286	18.229583	-2.746188	-1.193338	0.091943	0.923658
-8.46833	1.808707	10.445883	-38.902298	231.505789	4.940707	0.927282	0.172049	-0.263419	2.614406	0.872292	9.553148	5.785883	-2.798354	-2.460397	0.156102	-0.102066	-0.120078	9.423908	2.239244	-0.879242	-22.353442	18.249659	-1.379408	-1.197317	0.118951	0.909786
-7.703216	0.997621	11.383821	-43.18835	222.558816	9.870526	0.915053	0.186785	-0.229202	2.603262	1.331545	9.021334	5.103627	-2.479069	-2.075166	0.156102	-0.120078	-0.10807	9.25466	2.008262	-0.826581	-23.766555	17.85631	-0.827351	-1.179948	0.122396	0.891834
-1.510091	-1.156806	11.155204	-38.158001	212.261587	32.830192	0.912234	0.150014	-0.226992	2.497595	1.044815	9.373669	4.602297	-2.383722	-2.298064	0.168109	-0.120078	-0.10807	9.83986	2.010805	-0.016028	-24.041533	17.119168	-0.934073	-1.163479	0.121088	0.890971
13.059592	-2.535209	-0.578594	49.824939	151.201285	61.118913	0.91596	0.125997	-0.135087	1.479093	0.704331	9.236719	2.870402	-2.28464	-2.197849	0.162106	-0.114074	-0.114074	9.716952	2.588156	-0.415297	-24.070569	16.331007	-1.527652	-1.177295	0.104391	0.901081
-2.585239	-10.832531	-5.996023	-18.504939	-34.206422	32.173392	0.948754	0.147176	-0.134196	2.040688	0.817516	9.070381	3.036067	-2.015967	-1.537643	0.150098	-0.096063	-0.126082	9.787979	2.301715	0.269621	-23.699396	15.276463	-2.418755	-1.160827	0.103083	0.900218
5.33376	1.675718	9.275692	-36.799588	-199.990006	50.553647	0.994803	0.152492	-0.149362	2.502794	0.757946	9.610178	2.656051	-2.189918	-1.473178	0.168109	-0.126082	-0.120078	9.776728	1.719859	-0.361021	-23.235962	14.301855	-2.424244	-1.127889	0.100467	0.898492
4.786775	-1.339011	10.471106	-29.112489	-203.486699	66.671843	0.964446	0.148572	-0.133198	2.661145	0.873035	9.023233	2.099511	-2.236082	-1.33229	0.150098	-0.10807	-0.126082	9.667574	1.605346	-0.135431	-22.40279	13.046436	-1.778944	-1.148337	0.128783	0.885484
3.141321	-1.632418	8.472701	-22.699436	-207.895801	70.617583	0.959573	0.114053	-0.167309	2.673546	0.356388	9.614148	1.906747	-2.218438	-1.509578	0.162106	-0.114074	-0.10807	9.674002	1.201385	0.14819	-21.231737	11.971364	-0.616066	-1.191538	0.10145	0.889478
3.660631	-0.99403	8.65797	-27.926537	-196.083247	79.297447	0.892314	0.09346	-0.224677	2.444272	0.701027	9.491192	4.147389	-2.457336	-1.142784	0.144094	-0.102066	-0.120078	9.794418	1.318528	0.493521	-20.398916	10.842147	-0.21838	-1.192819	0.142716	0.824337
3.292829	-0.358021	7.496353	-25.894141	-187.012604	78.276896	0.981975	0.086833	-0.272064	2.493078	1.102513	9.137567	2.65266	-2.967601	-2.048312	0.168109	-0.102066	-0.114074	10.528367	1.663113	0.224279	-18.490213	9.785666	0.305743	-1.190212	0.092447	0.894102
4.132521	0.219056	6.47423	-30.925729	-192.764148	69.47879	0.949181	0.065654	-0.272956	1.982293	1.447903	9.068178	2.357305	-3.334212	-1.937472	0.150098	-0.102066	-0.096063	9.900535	1.258564	0.095866	-16.95059	8.734148	0.185482	-1.176823	0.1229	0.862278
4.888688	0.393718	7.009841	-37.809126	-208.9954	51.583002	0.944308	0.031135	-0.307067	1.977542	1.219241	8.773583	1.54007	-3.552543	-1.85996	0.150098	-0.10807	-0.10807	10.189073	1.606425	0.331443	-14.920017	8.08758	0.027884	-1.21066	0.120762	0.881093
4.73158	1.382567	7.818194	-34.102207	-231.394693	29.668402	0.993821	0.052584	-0.287017	2.434151	0.816526	8.959988	1.208379	-3.574822	-2.343805	0.168109	-0.102066	-0.10807	9.96593	0.970808	0.495323	-13.78141	7.559872	-0.626626	-1.192865	0.110452	0.884854
4.020047	1.155312	9.537219	-27.027806	-248.76709	7.270979	0.925535	0.033117	-0.362545	2.600791	0.701734	8.78645	0.09942	-3.18131	-1.845589	0.168109	-0.10807	-0.120078	10.11907	1.371799	-0.355841	-12.766489	7.444337	-0.25147	-1.164379	0.116335	0.90806
2.234211	1.098156	9.154759	-15.953908	-255.748907	-10.606174	0.939555	0.056279	-0.417131	2.271112	0.816428	9.310729	0.021732	-2.931885	-1.795862	0.162106	-0.114074	-0.114074	9.957262	0.795016	0.037797	-12.274092	7.262875	6.5e-05	-1.175923	0.127653	0.845188
0.68523	0.577274	9.122641	-14.740414	-253.874424	-22.07809	0.93891	0.076917	-0.454556	2.43381	0.931111	8.959785	-0.149168	-2.835019	-2.308814	0.156102	-0.10807	-0.132086	10.188175	1.490369	0.273825	-11.720619	7.291734	0.583485	-1.15009	0.151541	0.859146
-0.858035	0.057091	9.379596	-21.490874	-247.828096	-28.147107	0.935829	0.080296	-0.509036	2.723098	0.872357	9.31932	-0.018208	-2.71632	-2.305961	0.156102	-0.102066	-0.102066	10.007777	1.198863	-0.244698	-11.166565	6.994775	0.409841	-1.148764	0.142538	0.86377
-1.42651	-0.812434	9.59733	-29.832007	-242.178039	-29.00002	0.874088	0.073583	-0.494868	1.928629	1.218701	9.185498	-0.472613	-2.779772	-1.922658	0.162106	-0.120078	-0.102066	9.830531	1.023937	-0.591418	-10.643281	6.645199	-0.374447	-1.129642	0.123225	0.872155
-2.682582	-0.404073	9.920051	-35.701994	-239.916432	-25.314727	0.889135	0.095618	-0.531295	2.432788	1.274865	8.959176	0.130524	-2.657328	-1.782206	0.156102	-0.10807	-0.084055	9.954895	0.852387	-0.076125	-10.550254	6.228566	-1.128911	-1.16476	0.162355	0.82583
-3.027275	-1.216476	9.853422	-35.400499	-242.230884	-18.5112	0.85467	0.096204	-0.587771	2.040006	1.046686	9.069975	0.10981	-2.738244	-1.41579	0.156102	-0.096063	-0.10807	9.61087	0.91044	-0.196804	-9.965093	5.778734	-1.298843	-1.165659	0.157602	0.842919
-3.415888	-0.57594	10.540735	-38.017387	-247.79204	-11.679842	0.837568	0.076422	-0.587665	2.268129	0.358495	9.07554	-0.11235	-2.430897	-1.17167	0.162106	-0.102066	-0.114074	9.382425	0.679046	-0.259452	-10.179608	5.524993	-0.896506	-1.193718	0.137963	0.841427
-2.838688	-0.459992	10.725889	-39.032936	-253.82738	-7.106073	0.823024	0.133561	-0.646457	2.607779	1.273846	9.257436	0.681894	-2.681476	-1.18571	0.162106	-0.10807	-0.126082	9.67424	0.506366	0.087943	-10.732147	5.178307	-0.707926	-1.199497	0.155464	0.861735
-2.479555	-0.400467	11.484479	-43.212393	-255.43123	-7.744892	0.835634	0.138336	-0.699939	2.49148	1.274492	9.078263	-0.341379	-3.007548	-0.674959	0.150098	-0.096063	-0.102066	9.497552	0.621185	-0.200371	-11.285104	5.04164	-0.218369	-1.177722	0.118147	0.879367
-2.413356	-0.051148	11.948978	-46.680276	-249.319354	-13.736792	0.82097	0.135814	-0.682777	2.218258	1.045362	9.545237	1.203952	-3.590066	-0.892112	0.162106	-0.10807	-0.10807	8.823129	0.68255	0.243115	-12.176325	4.985959	0.726263	-1.130495	0.150737	0.828728
-2.500533	-0.221811	13.333827	-43.08637	-236.328645	-23.433385	0.796176	0.044741	-0.714572	2.439925	0.701433	9.255192	3.101932	-4.371393	-0.57856	0.144094	-0.090059	-0.10807	9.380173	0.678521	-0.373637	-13.005701	4.751213	1.400115	-1.161207	0.149103	0.817987
-2.732205	-0.395996	13.213207	-41.29842	-217.946351	-34.515149	0.74781	0.081828	-0.792415	2.88814	0.929544	9.086478	4.212747	-5.169834	-0.484725	0.144094	-0.10807	-0.114074	9.336414	0.276251	0.251411	-13.312302	4.46206	2.047452	-1.146111	0.124533	0.873018
-2.62635	-0.629396	12.752416	-53.330063	-196.640818	-45.606137	0.766584	0.079846	-0.736937	2.554285	0.987352	9.374858	6.650919	-6.148987	-0.388921	0.13809	-0.084055	-0.10807	8.642948	0.854477	-0.216213	-13.587568	3.954202	3.005873	-1.165233	0.143846	0.864633
-3.423402	-1.324431	13.023811	-68.614028	-178.530281	-55.222948	0.745756	0.084081	-0.828736	1.983252	0.760495	9.010396	5.36254	-6.942457	0.348713	0.150098	-0.114074	-0.102066	9.391105	0.275612	0.138353	-14.232942	3.934014	3.828655	-1.160354	0.121592	0.861415
-4.031867	-1.262981	14.167673	-78.567435	-170.318863	-62.531445	0.767731	0.138382	-0.794731	2.558802	0.929653	9.61096	6.125371	-7.090556	0.18787	0.144094	-0.10807	-0.10807	9.21453	0.332535	-0.150224	-14.66268	3.732576	4.656795	-1.181702	0.145154	0.865496
-4.996901	-1.550991	14.667877	-84.69033	-173.288123	-67.732112	0.751777	0.177136	-0.852419	2.607545	0.987486	9.198944	5.344506	-7.194915	1.013059	0.144094	-0.10807	-0.114074	9.050674	0.797888	0.248145	-14.817003	4.004268	4.802587	-1.164333	0.148599	0.847543
-5.952649	-0.792975	15.690929	-83.903465	-185.296946	-69.007868	0.752159	0.196648	-0.871683	2.835115	1.215771	9.320885	6.005435	-7.62773	1.023082	0.144094	-0.090059	-0.096063	9.328872	0.100722	-0.149023	-15.586062	4.235016	5.129529	-1.181275	0.131398	0.88721
-7.643266	-0.961661	17.217219	-74.115772	-198.90472	-65.247428	0.737615	0.253787	-0.930475	2.148592	1.447696	8.894438	4.84864	-7.76711	1.05619	0.156102	-0.102066	-0.10807	8.993071	-0.013074	0.129155	-16.263136	4.587234	5.60707	-1.146964	0.152045	0.82959
