1812_acc_x	1812_acc_y	1812_acc_z	1812_gyro_x	1812_gyro_y	1812_gyro_z	1812_mag_x	1812_mag_y	1812_mag_z	1813_acc_x	1813_acc_y	1813_acc_z	1813_gyro_x	1813_gyro_y	1813_gyro_z	1813_mag_x	1813_mag_y	1813_mag_z	1814_acc_x	1814_acc_y	1814_acc_z	1814_gyro_x	1814_gyro_y	1814_gyro_z	1814_mag_x	1814_mag_y	1814_mag_z
-0.566603	1.33445	9.677459	-0.379807	0.718908	-0.042937	0.584665	-0.666755	-0.700738	0.298746	-0.037298	9.451219	-0.720349	-1.11489	-0.292555	-1.260821	0.456297	0.120078	9.8516	0.623394	0.434401	-1.436257	0.087886	-5.066524	-0.771232	0.106357	0.571803
-1.024899	1.683291	9.726969	-0.337398	0.805248	0.326313	0.437502	0.027438	-1.224747	0.302282	-0.49584	9.570032	-0.795788	-1.327157	-0.334332	-1.074699	0.036023	0	10.195512	0.623238	0.555342	-1.098773	0.424682	-4.766665	-0.637541	0.482645	-0.320689
-1.030726	1.798678	9.438174	-0.559479	0.72038	0.205869	0.473759	0.06475	-1.18864	0.473737	-0.038316	9.74948	-0.591228	-1.094038	-0.203199	-1.074699	0.042027	-0.006004	10.076324	1.027688	0.326561	-0.391793	0.548748	-4.276373	-0.586808	0.469719	-0.318654
-1.257659	1.450924	9.548394	-0.350651	0.687772	-0.075468	0.48778	0.087911	-1.243227	0.29067	-0.609308	8.921233	-0.175617	-1.319489	-0.387288	-1.080703	0.042027	-0.012008	9.500703	0.737767	-0.028568	-0.176568	0.604545	-3.725972	-0.583682	0.470223	-0.34821
-0.965002	1.451345	9.843182	-0.444586	0.565512	0.043981	0.471323	0.04749	-1.205696	0.475229	0.19065	9.867074	-0.380895	-1.260766	-0.159731	-1.092711	0.048031	-0.012008	10.189654	0.737716	0.270407	-0.053648	0.743456	-2.658045	-0.583728	0.437959	-0.287693
-1.032789	1.566228	9.321986	-0.375965	0.747958	0.080402	0.454604	0.04722	-1.224854	0.643978	-0.267998	9.753146	-0.189741	-1.175484	-0.16121	-1.068696	0.048031	0	9.618184	1.201762	0.204156	0.100093	0.825068	-1.83331	-0.587708	0.464966	-0.301564
-0.85937	1.450115	9.38295	-0.288626	0.780094	-0.195387	0.439294	0.065336	-1.245116	0.48064	-0.898109	9.987004	-0.223171	-1.304698	-0.044666	-1.068696	0.042027	0.012008	9.784964	0.968784	-0.021886	0.161536	0.855118	-1.741921	-0.605503	0.475276	-0.305325
-0.736704	1.567068	9.790219	-0.16048	0.742702	0.044505	0.458067	0.063353	-1.189638	0.075246	0.192249	9.623467	-0.25637	-1.23314	-0.19339	-1.074699	0.024016	0	9.85193	1.028932	0.493333	0.008092	0.731074	-1.770455	-0.570339	0.468411	-0.319517
-0.684808	1.334143	9.501729	-0.449515	0.568484	-0.169695	0.493298	0.101791	-1.171691	0.529788	-0.611208	9.633582	-0.407277	-1.266291	-0.035511	-1.080703	0.048031	0	9.562936	0.912656	0.258807	-0.1767	0.772592	-2.659383	-0.60285	0.457271	-0.296078
-0.958144	1.452183	10.190071	-0.347961	0.811617	-0.131564	0.487397	0.068399	-1.223962	0.81571	-0.268712	9.874406	-0.503657	-1.25747	-0.124153	-1.080703	0.042027	-0.006004	9.622803	1.144917	0.432261	-0.576604	0.752422	-3.700967	-0.589034	0.473968	-0.306188
-0.859537	1.624243	9.383369	-0.568186	0.63153	-0.042048	0.443785	0.080342	-1.191741	0.416067	-0.381698	9.631002	-0.48892	-1.368859	-0.379066	-1.074699	0.024016	0	9.850133	0.796821	0.378097	-0.515128	0.646435	-4.76867	-0.614394	0.468589	-0.35895
-1.196619	1.219117	9.722422	-0.327771	0.597686	-0.293626	0.437502	0.027438	-1.224747	1.036014	-0.154301	9.583549	-0.65441	-1.156773	-0.143119	-1.074699	0.042027	0.006004	9.954668	0.968179	-0.075599	-0.791706	0.529031	-5.34856	-0.61752	0.468085	-0.329394
-0.966368	1.683376	9.785927	-0.422983	0.695764	-0.531809	0.499243	0.03415	-1.238915	0.583687	-0.095645	9.574754	-0.4808	-1.313788	-0.252212	-1.074699	0.048031	0	9.675458	1.607186	0.264214	-0.545238	0.29048	-5.586388	-0.604177	0.466274	-0.300701
-0.852401	1.334868	9.729559	-0.64513	0.328636	-0.266574	0.520835	0.068939	-1.185646	0.246956	-0.896717	9.569656	-0.946004	-1.260769	-0.293709	-1.074699	0.042027	0	9.959287	0.911334	0.152507	-0.329634	0.111492	-5.734006	-0.572138	0.458905	-0.285337
-0.856164	1.682705	9.556953	-0.493526	0.326277	-0.392511	0.488424	0.067273	-1.205802	0.526827	0.01911	9.573465	-0.994553	-1.110437	-0.158686	-1.080703	0.048031	0.012008	9.619652	1.028336	0.260459	0.192986	0.120197	-5.884326	-0.570812	0.449902	-0.280714
-0.911155	1.566955	9.671161	0.208104	0.218761	-0.658079	0.440704	0.083721	-1.246221	0.47493	-0.439363	9.750191	-1.148752	-1.004661	-0.269913	-1.080703	0.048031	0.006004	9.840451	0.562869	-0.136784	0.162366	0.086448	-5.700194	-0.605503	0.475276	-0.305325
-0.798386	1.276351	9.557118	-0.37556	0.263656	-0.550683	0.426683	0.06056	-1.191634	0.525782	-0.725387	9.397784	-0.875392	-1.242501	-0.10968	-1.074699	0.042027	-0.006004	9.562936	0.912656	0.258807	-0.144875	-0.008839	-5.730222	-0.585954	0.442208	-0.275227
-1.02713	1.624969	9.6112	0.121342	0.311744	-0.529961	0.439939	0.044697	-1.207692	0.353198	-0.438211	9.276016	-0.717515	-1.152585	-0.17146	-1.074699	0.042027	-0.006004	9.678848	1.028747	0.37577	-0.145216	0.116483	-5.916644	-0.601478	0.480533	-0.351971
-0.744483	1.333919	9.384957	-0.09632	0.381046	-0.674736	0.455631	0.046094	-1.206694	0.69255	-0.152872	9.341029	-0.985869	-1.481056	-0.213677	-1.098715	0.054035	-0.012008	9.845503	1.432892	0.209712	0.224258	-0.121913	-6.062058	-0.601951	0.462024	-0.313167
-0.682467	1.276379	9.617219	-0.287836	0.264193	-0.766661	0.439939	0.044697	-1.207692	0.471905	-0.152698	9.631683	-1.003286	-1.198123	-0.256705	-1.080703	0.048031	0	9.794191	1.43432	0.494047	0.624391	-0.3554	-6.513278	-0.589034	0.473968	-0.306188
-1.029193	1.392519	9.495011	-0.476067	-0.401431	-1.278471	0.426421	0.10071	-1.248324	0.305777	-0.209784	9.805525	-1.795224	-0.950931	-0.181158	-1.074699	0.054035	0.012008	9.561924	0.854497	0.201452	1.024991	-0.828205	-7.356562	-0.604177	0.466274	-0.300701
-0.729456	1.161607	10.136129	0.404721	-0.698309	-1.556074	0.472732	0.065876	-1.2068	0.41464	-0.267011	9.571799	-2.070958	-0.776628	-0.314476	-1.068696	0.048031	-0.018012	9.331671	0.970219	0.083289	1.762642	-0.75328	-7.660192	-0.601051	0.466778	-0.330257
-1.372379	1.392993	9.545968	0.20168	-0.902313	-2.018012	0.503734	0.049157	-1.18554	0.699176	-0.554427	9.63674	-2.351441	-0.7294	-0.393963	-1.062692	0.048031	0.012008	10.182999	1.257469	-0.012688	2.254386	-0.684105	-7.781497	-0.60593	0.489032	-0.327039
-0.686174	1.566174	9.444473	0.414796	-1.00024	-2.0271	0.45845	0.082865	-1.208903	0.586478	-0.668671	9.63477	-2.101476	-0.876613	-0.165259	-1.080703	0.042027	0	9.908998	0.391695	0.434475	2.530139	-0.308353	-8.094587	-0.634888	0.46464	-0.311442
-0.9094	0.928625	9.727438	0.424082	-0.786272	-1.926856	0.441731	0.082595	-1.228061	0.360357	0.076609	9.747104	-2.066515	-0.917249	-0.014616	-1.080703	0.048031	0.012008	9.952415	0.967654	-0.189783	2.468657	-0.309563	-8.064304	-0.590833	0.464462	-0.272008
-0.969742	1.624914	9.612343	0.341098	-0.601467	-1.764498	0.502062	0.070922	-1.241124	0.247595	-0.381288	9.686742	-1.791777	-0.956011	-0.088898	-1.074699	0.048031	0.018012	9.495402	1.14199	-0.255097	2.499487	-0.367315	-8.276901	-0.604649	0.447765	-0.261898
-1.135857	1.277523	9.897149	-0.150424	-0.401866	-1.897411	0.441348	0.063083	-1.208796	0.238902	-0.380476	9.214741	-1.496096	-1.215861	-0.116313	-1.062692	0.060039	0	10.066416	0.90953	-0.187794	2.161764	-0.611252	-8.640091	-0.606403	0.470523	-0.288235
-0.920299	1.565837	9.208642	-0.427168	-0.552128	-1.621973	0.470678	0.068129	-1.24312	0.189073	-0.438207	9.567757	-1.337453	-0.959482	-0.383772	-1.062692	0.042027	0.006004	10.073276	1.432437	0.214217	1.578066	-0.803715	-8.547008	-0.585482	0.460717	-0.31403
-0.965114	1.56743	9.843462	-0.634885	-1.004246	-1.941195	0.47235	0.046364	-1.187536	0.526528	-0.610904	9.456581	-1.340518	-1.122558	-0.2396	-1.068696	0.054035	0	10.015661	1.200703	0.154947	2.039399	-0.886815	-8.756702	-0.554343	0.448594	-0.281576
-0.563285	1.450955	9.851183	-1.165616	-1.269312	-1.786671	0.423602	0.063939	-1.246115	0.530875	-0.61131	9.692582	-1.647307	-1.013932	-0.283288	-1.074699	0.042027	-0.006004	9.50531	1.260149	0.259258	2.193529	-1.040442	-8.599381	-0.619792	0.44007	-0.256411
-1.251665	1.161409	9.836769	-0.210744	-1.651529	-2.741837	0.438912	0.045824	-1.225852	0.531514	-0.095881	9.809668	-1.424182	-1.065438	-0.078375	-1.074699	0.060039	0.006004	9.494048	1.25752	-0.311663	2.716291	-1.092586	-8.778877	-0.584155	0.451714	-0.309407
-0.795877	1.04446	9.672189	-0.619091	-1.825048	-2.769816	0.456658	0.044967	-1.188534	0.923656	-0.38313	9.581782	-1.315898	-1.147955	-0.36574	-1.068696	0.048031	0.012008	9.960857	1.259239	0.268268	3.300573	-1.172358	-9.110333	-0.572138	0.458905	-0.285337
-1.307046	1.451958	9.951954	-0.549744	-2.095729	-3.39376	0.422193	0.045553	-1.24501	0.581279	-0.381803	9.398261	-1.958309	-1.066689	-0.213559	-1.080703	0.048031	-0.012008	9.549421	0.909502	-0.426299	3.699926	-1.149762	-10.301569	-0.615294	0.463836	-0.34186
-0.506342	1.915241	9.853444	0.53552	-2.297123	-4.314033	0.486753	0.089037	-1.261387	0.413319	-0.55327	9.454306	-1.691337	-0.937297	0.063172	-1.056688	0.042027	0.024016	9.555382	1.316354	-0.081906	3.852674	-0.774164	-10.70708	-0.587281	0.45121	-0.279851
-0.919909	1.159538	9.207664	0.636114	-2.147513	-4.188045	0.405091	0.025771	-1.244903	0.585221	-0.611277	9.575668	-1.825743	-1.050916	-0.031942	-1.080703	0.054035	0.024016	9.949037	0.966865	-0.36106	3.79077	-0.618948	-10.89453	-0.55477	0.46235	-0.30329
-0.79649	1.682929	9.673726	0.568305	-1.658192	-3.79963	0.485988	0.050013	-1.222858	0.642145	-0.382379	9.635349	-1.225599	-1.024624	0.164256	-1.062692	0.042027	0.006004	9.892992	1.083034	-0.304568	3.605928	-0.467513	-10.929622	-0.569486	0.4409	-0.27609
-0.908646	1.335064	9.786231	0.559724	-1.872585	-3.86935	0.454986	0.066732	-1.244118	0.304797	-0.610628	9.688235	-1.28809	-0.987821	0.10708	-1.080703	0.054035	0.006004	9.837175	1.083411	-0.248602	3.51357	-0.38168	-10.59566	-0.60285	0.457271	-0.296078
-1.025708	1.334896	9.668316	0.83252	-2.423563	-4.662432	0.488807	0.086785	-1.225067	0.593403	-0.440212	10.047365	-1.240767	-1.203384	0.029726	-1.074699	0.060039	0	9.845844	1.259203	0.208924	3.574951	-0.321433	-10.474382	-0.61354	0.441078	-0.315523
-1.021303	1.509583	9.899994	1.001711	-3.279169	-5.49612	0.471705	0.067002	-1.22496	0.247766	-0.43858	9.686844	-1.36238	-1.201781	0.096058	-1.068696	0.042027	0	9.668712	1.026382	-0.13806	3.790154	-0.344901	-10.778544	-0.581075	0.419954	-0.278445
-0.846908	1.567738	10.019192	0.560427	-3.513373	-5.525808	0.437885	0.04695	-1.244012	0.307716	-0.496348	9.865033	-1.480469	-1.138334	0.166228	-1.074699	0.066043	0.018012	9.609959	1.373611	-0.194701	4.25124	-0.334235	-11.112761	-0.583728	0.437959	-0.287693
-1.022224	1.277272	9.84162	1.040323	-4.127281	-6.631978	0.455369	0.086244	-1.263383	0.467153	-0.38136	9.337088	-1.749232	-0.907266	0.12901	-1.080703	0.036023	0.012008	9.267629	1.142445	-0.259602	4.466305	-0.269828	-11.143685	-0.569958	0.422391	-0.237286
-0.680125	1.218616	9.732709	2.620778	-4.31091	-7.56328	0.475169	0.083135	-1.189745	0.467324	-0.438653	9.33719	-1.513745	-1.1337	0.105927	-1.062692	0.048031	0	9.613452	1.316503	-0.023687	4.557796	0.092776	-10.723394	-0.60375	0.452518	-0.278988
-0.743451	1.450144	9.443051	-0.139174	-4.186991	-6.728627	0.424629	0.062813	-1.227954	0.304967	-0.66792	9.688337	-1.573248	-1.000744	-0.006999	-1.062692	0.054035	0.012008	9.559546	1.491095	0.147252	4.434021	0.482019	-10.213121	-0.600624	0.453022	-0.308544
-0.621872	1.508914	9.792365	0.689349	-4.564261	-7.802801	0.423985	0.083451	-1.265379	0.805248	-0.038629	9.342999	-1.933872	-0.834552	0.078578	-1.080703	0.054035	0	9.895472	0.967767	-0.19091	3.572282	0.839222	-10.226038	-0.585482	0.460717	-0.31403
-1.526564	0.524615	10.407664	-3.00569	-5.280557	-11.380803	0.465498	0.174794	-1.214426	0.523843	-0.438823	9.338276	-2.102779	-1.008767	-0.019168	-1.086707	0.060039	0.006004	9.671965	1.664293	0.093201	2.649026	1.089829	-11.368505	-0.598444	0.416508	-0.260492
-0.338304	1.450174	9.624496	-3.128086	-4.766834	-8.08708	0.421165	0.04668	-1.26317	0.251366	-0.55347	9.864048	-0.954001	-1.293387	0.322569	-1.056688	0.060039	0	9.270211	1.548508	-0.086485	1.725259	1.555443	-12.546554	-0.56546	0.446157	-0.322736
-0.789409	1.451597	10.020056	1.800102	-6.201807	-9.607719	0.438529	0.026311	-1.206587	0.811299	-0.611959	9.580015	-1.516964	-1.430624	0.426942	-1.062692	0.042027	-0.006004	9.387033	1.201428	0.028374	1.446916	2.121415	-13.754052	-0.618892	0.444824	-0.273501
-1.132706	1.568156	10.071292	-0.090642	-6.744169	-9.035006	0.443403	0.06083	-1.172476	0.696768	-0.840585	9.460247	2.305389	-2.529448	1.082826	-1.068696	0.042027	-0.018012	9.785852	1.664066	0.095453	0.709178	1.916801	-15.037915	-0.570385	0.436147	-0.259
-0.743395	1.392101	9.442911	2.928311	-6.32143	-7.500374	0.440583	0.024059	-1.170267	0.644595	-0.84082	9.695161	4.061972	-3.089777	1.44659	-1.080703	0.060039	-0.006004	9.666334	1.662979	-0.19226	-0.30531	1.684469	-16.750848	-0.582829	0.442712	-0.304783
-0.973282	1.74058	9.439178	3.467763	-5.967517	-7.406985	0.460887	0.100125	-1.191847	0.703757	-0.268472	9.931233	6.760539	-4.164459	1.959449	-1.074699	0.054035	-0.006004	9.55594	1.606099	-0.023499	-2.027361	1.520132	-19.50914	-0.554343	0.448594	-0.281576
-1.030448	1.508465	9.437476	5.146093	-5.910038	-5.824919	0.427066	0.080072	-1.210899	0.595171	-0.669483	10.106771	11.082233	-5.679702	2.446859	-1.092711	0.048031	0	9.610517	1.663356	-0.136294	-3.872539	1.416487	-22.330708	-0.585482	0.460717	-0.31403
-1.309387	1.509721	9.836464	4.242123	-4.819295	-4.994668	0.469651	0.069255	-1.261281	0.313319	-0.554148	10.160135	13.512706	-6.602095	3.813607	-1.074699	0.042027	-0.012008	9.615363	1.490718	0.091286	-6.82309	0.903303	-23.252302	-0.565933	0.427648	-0.283932
-0.969575	1.450786	9.611923	5.63996	-4.76654	-4.811817	0.408937	0.061416	-1.228952	0.208228	-0.669102	10.571166	16.404429	-8.499199	5.595498	-1.074699	0.054035	0.006004	9.949128	2.067422	-0.241881	-10.664982	0.503389	-22.2237	-0.615294	0.463836	-0.34186
-1.13477	1.335706	9.955103	5.782114	-3.951924	-3.834417	0.413166	0.116573	-1.232266	1.14499	-2.450432	12.066703	5.105389	-18.282432	13.13491	-1.062692	0.036023	0	9.265365	1.721146	-0.314065	-15.087584	-1.395656	-21.836384	-0.549464	0.42634	-0.284795
-0.855021	1.682845	9.614768	6.44123	-2.724904	-2.485656	0.423985	0.083451	-1.265379	0.556251	-1.472828	10.933108	25.673391	-39.662362	14.569784	-1.098715	0.036023	-0.006004	9.609948	1.952838	-0.13498	-19.324696	-3.6112	-20.614869	-0.595318	0.417012	-0.290048
-0.734084	1.219091	9.90501	5.876947	-2.378042	-1.969053	0.440704	0.083721	-1.246221	0.789829	-1.073275	11.408745	13.156063	-40.174575	14.86823	-1.092711	0.054035	0.006004	9.216305	1.7231	0.084453	-23.068192	-6.391933	-18.062347	-0.561954	0.400641	-0.270061
-1.76866	1.684294	9.82774	4.867853	-1.918231	-2.109536	0.409702	0.10044	-1.267482	1.50751	1.722434	17.07974	-0.687239	-38.371016	-13.129735	-1.122731	0.048031	-0.018012	9.330533	1.549183	0.085917	-23.737291	-9.116412	-14.668784	-0.582829	0.442712	-0.304783
-0.509604	1.740694	9.679581	3.164732	-1.920093	-0.877325	0.413166	0.116573	-1.232266	0.655817	-1.711235	16.302529	25.082632	-74.703793	-18.251808	-1.110723	0.066043	0	9.621779	1.665984	0.434627	-22.809939	-11.091295	-12.966321	-0.603323	0.438762	-0.257274
-0.623015	1.508774	9.73455	1.912419	-1.424739	-0.88833	0.459859	0.101251	-1.210008	1.040281	-3.42457	12.361257	-1.439566	-79.136203	-30.678334	-1.122731	0.048031	-0.006004	9.792382	1.781436	0.438532	-21.852762	-12.829498	-12.737347	-0.618938	0.412559	-0.212984
-0.569112	1.566342	9.562389	2.036766	-1.10125	0.008217	0.422575	0.065065	-1.264275	1.0046	-2.395369	13.656347	1.577113	-91.296434	-43.532449	-1.134739	0.060039	0.024016	10.18863	1.258784	0.272773	-21.205054	-13.846085	-13.903167	-0.566833	0.422895	-0.266842
-0.268287	1.393612	10.261462	2.091408	-0.583152	0.303232	0.40932	0.080928	-1.248217	0.847868	-1.594185	14.477668	10.917068	-102.662744	-49.486516	-1.128735	0.054035	0.018012	10.242877	0.910503	0.101046	-19.30031	-13.45958	-15.645334	-0.580603	0.438463	-0.317249
-0.613704	1.335764	10.196649	2.533914	-0.161482	0.126676	0.440321	0.064209	-1.226956	0.824814	-1.878414	13.180172	24.388794	-113.204206	-54.363248	-1.140742	0.048031	0.006004	10.295304	1.488564	-0.066476	-16.812953	-12.368557	-16.880739	-0.520552	0.418468	-0.239875
-0.844066	0.987591	10.133424	1.995685	-0.327933	-0.172959	0.393365	0.119682	-1.305904	0.477963	-2.563987	12.643868	33.292173	-121.248767	-58.697356	-1.128735	0.066043	0.006004	10.295873	1.199082	-0.06779	-14.788319	-10.447145	-16.639128	-0.534794	0.415526	-0.251478
-0.7961	1.27663	9.672748	4.231365	-0.393582	0.29071	0.41522	0.114321	-1.195946	0.985211	-2.450835	12.594445	37.832549	-123.971032	-59.655606	-1.140742	0.060039	0.012008	10.479887	0.796358	0.561762	-14.148144	-7.897902	-14.431377	-0.565887	0.459913	-0.344449
-0.450572	1.218394	9.737281	2.209296	0.214734	0.272082	0.45845	0.082865	-1.208903	1.0769	-3.308329	11.300137	41.072466	-121.020127	-62.738132	-1.15275	0.048031	0.012008	10.417427	0.737261	0.274912	-14.707739	-4.946127	-11.444185	-0.568586	0.445653	-0.29318
-1.135968	1.393609	9.897428	2.815228	0.860043	1.475999	0.443905	0.140005	-1.267695	-1.924416	-4.267346	7.705347	45.563789	-117.111049	-73.103057	-1.146746	0.048031	0.024016	10.596368	0.622967	0.677411	-16.774994	-1.463509	-8.324517	-0.584201	0.41945	-0.248889
-0.504754	1.451039	9.910141	1.53679	0.743817	1.19602	0.396064	0.096791	-1.23216	-5.771216	-3.453561	7.571034	27.21593	-88.779946	-81.256226	-1.140742	0.036023	0.024016	10.483608	0.623457	0.73225	-18.808509	0.681207	-5.877151	-0.618892	0.444824	-0.273501
0.585399	1.682153	9.932416	1.288441	1.31568	0.369749	0.484961	0.051139	-1.241018	-10.468494	-2.465139	7.302116	36.758116	-64.916789	-82.020011	-1.146746	0.048031	0.018012	10.156487	0.106227	1.408233	-20.010964	2.085427	-6.527896	-0.597971	0.435017	-0.299296
-0.616379	1.741783	10.081998	1.45298	1.399624	0.674879	0.392601	0.080658	-1.267375	-12.026715	-2.228424	5.561366	34.666326	-31.796727	-74.529368	-1.158754	0.036023	0.042027	10.31255	0.739591	0.729397	-20.443976	2.9696	-8.661155	-0.56546	0.446157	-0.322736
-0.678061	1.451066	9.848897	2.050864	1.565726	0.881404	0.396064	0.096791	-1.23216	-12.242105	-3.254608	2.904926	16.595554	22.267076	-65.113947	-1.15275	0.042027	0.012008	9.803098	0.915093	0.891326	-20.568388	3.339221	-10.964358	-0.567686	0.450406	-0.310269
-0.271883	1.567321	10.088437	1.1035	2.08669	0.650287	0.441731	0.082595	-1.228061	-11.59071	-3.373809	4.510086	-6.015862	61.250862	-53.904594	-1.140742	0.036023	0.024016	10.087143	0.682676	0.838814	-20.9386	3.698561	-12.77928	-0.548564	0.431094	-0.301885
-0.571984	0.985496	9.387547	1.142157	1.973535	-0.180381	0.408937	0.061416	-1.228952	-10.830601	-2.404693	6.056491	-21.783395	78.457638	-43.322376	-1.140742	0.036023	0.018012	10.087246	1.204006	0.898272	-21.370483	4.25493	-13.46741	-0.600624	0.453022	-0.308544
-1.248626	1.568127	10.011191	2.387851	2.185792	-0.109596	0.473497	0.1049	-1.24533	-10.375504	-1.203524	6.417054	-26.32389	85.836709	-31.739752	-1.134739	0.036023	0.006004	9.742776	0.914418	0.718923	-21.956002	4.912973	-12.874088	-0.580176	0.424707	-0.295535
-0.741054	1.334338	9.558401	1.573195	1.900251	-0.163077	0.411112	0.118826	-1.268586	-10.160228	-0.859538	5.88979	-32.307328	99.572514	-17.503586	-1.15275	0.042027	0.018012	9.685833	0.914532	0.717797	-22.296127	5.81743	-12.162818	-0.569486	0.4409	-0.27609
-0.272859	1.393053	10.030203	3.295996	2.34293	0.150305	0.425012	0.082325	-1.247219	-9.982424	-0.345331	6.423138	-39.091913	117.460419	-1.768662	-1.116727	0.048031	0.024016	9.746371	1.378641	0.949395	-22.451294	6.590229	-10.682844	-0.515627	0.428478	-0.303611
-0.847298	1.974037	10.02017	4.288157	2.346012	0.249085	0.427831	0.119096	-1.249428	-8.775997	0.393861	7.624641	-45.150742	134.528407	13.019683	-1.122731	0.060039	0.03002	9.631028	0.973068	0.831118	-23.1596	7.183636	-9.966345	-0.585528	0.428452	-0.253513
-0.622317	1.973255	9.793483	2.354236	3.313204	0.854288	0.410729	0.099314	-1.249322	-7.744455	0.733127	8.469594	-47.709609	147.93301	25.497316	-1.104719	0.048031	0.006004	9.458958	1.031043	0.77091	-22.085453	8.071684	-9.032996	-0.56546	0.446157	-0.322736
-0.447533	1.625112	9.911703	3.325753	3.624589	0.966221	0.426421	0.10071	-1.248324	-6.037023	1.127843	9.209484	-51.052601	158.151315	33.627057	-1.104719	0.048031	0.012008	9.340681	0.972322	0.540026	-21.257515	9.105413	-7.798494	-0.587754	0.432701	-0.241047
-0.515431	1.85608	9.390786	7.140095	5.110913	1.975622	0.414958	0.154471	-1.252635	-3.990537	1.177883	9.897504	-53.268538	164.381677	38.092288	-1.086707	0.060039	0.018012	9.234337	1.148079	0.938207	-20.890126	9.834211	-7.048774	-0.550318	0.453852	-0.328222
-0.73807	1.799099	9.732963	4.926125	6.023916	2.585259	0.426421	0.10071	-1.248324	-2.9558	1.173191	10.861066	-54.721649	167.097371	38.473686	-1.074699	0.066043	0.006004	9.282952	0.798484	0.481019	-22.273936	10.080322	-6.205521	-0.551644	0.462854	-0.332846
-0.563619	1.799211	9.852022	4.726004	6.490412	2.639736	0.442758	0.081469	-1.209901	-1.469481	0.995359	11.774626	-52.247008	165.055916	36.306609	-1.080703	0.060039	-0.006004	9.061709	0.916309	0.819593	-23.13325	9.64364	-4.334292	-0.534322	0.434035	-0.290282
-1.026907	1.392799	9.610641	4.511429	7.49461	3.969587	0.43065	0.155868	-1.251637	0.120842	0.932584	12.218155	-46.588507	158.009391	32.745131	-1.074699	0.066043	-0.012008	9.231527	0.857808	0.765616	-21.870005	8.54447	-3.537372	-0.563707	0.423399	-0.296398
-0.912131	1.392687	9.612927	3.865664	7.854991	3.633022	0.430267	0.136356	-1.232373	0.863544	0.815073	12.645486	-41.79189	145.769652	28.696497	-1.062692	0.072047	-0.018012	9.173571	0.799763	0.707135	-19.038858	7.355605	-3.647506	-0.55079	0.435343	-0.289419
-0.801284	1.914541	9.443026	2.321075	7.972069	4.866378	0.395682	0.077279	-1.212895	2.562389	0.809656	12.855085	-37.497432	128.350952	25.353447	-1.038676	0.066043	-0.006004	9.522318	1.206195	1.115378	-16.852599	5.854544	-3.906794	-0.565933	0.427648	-0.283932
-0.678562	1.973451	9.850155	0.891568	7.248346	4.259437	0.377936	0.078135	-1.250213	3.404685	0.463954	12.517993	-36.486246	109.724304	23.936896	-1.032672	0.096063	0	9.746712	1.204952	0.948606	-16.111213	4.441503	-3.044232	-0.533849	0.452544	-0.329085
-0.91383	1.972974	9.556509	0.257315	7.803554	5.458592	0.425394	0.101837	-1.266484	4.248642	0.289926	12.298597	-37.520995	94.413959	24.352195	-1.050684	0.078051	0	9.519497	1.495151	1.002508	-16.600259	3.480595	-0.638933	-0.552544	0.458101	-0.315756
-0.741777	2.088893	9.560218	-1.380489	8.595693	7.058061	0.429503	0.097332	-1.193843	5.267251	0.229464	12.377258	-38.462024	82.206776	25.98265	-1.050684	0.072047	-0.024016	9.170078	0.856871	0.536121	-17.337099	3.312202	1.838387	-0.605503	0.475276	-0.305325
-0.982649	1.971633	8.977218	-6.455787	8.99955	7.68426	0.42181	0.026041	-1.225745	5.763398	0.057271	11.67934	-39.626342	71.941082	28.703446	-1.020664	0.102066	-0.018012	9.531453	0.571175	1.512131	-18.475257	3.95149	5.304077	-0.60285	0.457271	-0.296078
-0.732021	1.451541	10.021199	-13.188147	8.378718	7.635446	0.392983	0.10017	-1.28664	6.258224	-0.401181	10.86393	-42.975638	64.012706	31.900613	-1.026668	0.102066	-0.012008	9.695525	0.569256	1.172957	-18.231066	5.040092	8.552645	-0.536974	0.45204	-0.299529
-0.737847	1.566928	9.732404	-13.17092	7.449378	5.702142	0.442758	0.081469	-1.209901	6.82148	-0.116322	10.815289	-46.99474	58.732839	34.952017	-1.038676	0.090059	-0.012008	9.578715	0.33711	0.998377	-15.065216	5.624303	11.063985	-0.549418	0.458605	-0.345312
-0.96174	1.625892	10.017046	-17.819016	6.921977	6.035461	0.424629	0.062813	-1.227954	7.596348	0.28376	10.003789	-49.102809	53.109194	36.521659	-1.01466	0.102066	-0.024016	9.237852	-0.067482	0.989779	-10.822803	5.84643	12.02973	-0.548092	0.449602	-0.340688
-0.679538	1.799183	9.791921	-15.472081	6.815399	4.722332	0.428858	0.11797	-1.231268	8.382998	0.740018	9.841189	-52.247001	49.11212	36.410559	-1.020664	0.114074	-0.006004	9.641176	0.396207	1.285227	-8.08634	5.919693	13.510745	-0.504463	0.46318	-0.322969
-0.61337	0.987508	10.195811	-16.293181	6.376957	4.601605	0.468886	0.030231	-1.222751	9.281728	1.883343	9.738545	-53.453686	45.52481	32.918809	-1.032672	0.114074	-0.012008	9.41272	0.74404	1.282299	-6.118124	5.83205	14.86902	-0.55079	0.435343	-0.289419
-0.734251	1.393219	9.905429	-11.331973	6.440985	3.752858	0.459859	0.101251	-1.210008	9.507124	2.111831	9.742485	-50.596093	41.885491	27.761992	-1.01466	0.10807	-0.018012	9.131838	0.513812	1.446893	-3.781376	5.851323	15.52338	-0.585482	0.460717	-0.31403
-0.907392	1.219118	9.843766	-10.217968	6.629987	3.52022	0.427066	0.080072	-1.210899	9.737783	2.397104	10.041325	-41.670422	37.970329	20.049325	-0.990645	0.120078	-0.018012	9.310551	0.515311	1.849916	-0.121722	5.465942	15.643739	-0.536548	0.438284	-0.277816
-0.956556	0.987981	10.246768	-8.955111	6.755556	3.12864	0.459477	0.081739	-1.190743	9.675596	2.111421	9.686745	-29.902096	33.380433	10.489951	-0.996649	0.126082	-0.03002	9.482962	0.283647	1.909336	3.906275	5.334382	15.484944	-0.567213	0.468915	-0.349073
-1.079779	1.451456	9.840896	-6.80755	6.940458	3.451899	0.436857	0.048076	-1.262172	9.449689	2.05481	9.6825	-18.994513	26.223466	0.76545	-1.026668	0.126082	-0.024016	9.378757	0.517826	2.421964	6.950457	5.218179	15.534586	-0.585482	0.460717	-0.31403
-0.56111	1.56732	9.967092	-6.70056	7.023478	3.941721	0.427711	0.059434	-1.173474	8.759778	1.599734	8.96227	-10.778931	18.366417	-10.019635	-1.01466	0.13809	-0.024016	8.983203	0.113873	2.526425	9.164986	4.960541	16.164125	-0.533849	0.452544	-0.329085
-0.849837	1.044934	9.84449	-5.751272	7.424527	4.302343	0.427066	0.080072	-1.210899	2.811362	-16.489599	45.092127	-5.251513	9.814806	-20.227192	-1.01466	0.13809	-0.024016	8.357942	0.694614	2.630849	10.733508	4.928367	17.580115	-0.553443	0.453348	-0.298666
-0.728258	1.103704	10.193804	-3.191272	7.516011	3.878528	0.393245	0.06002	-1.22995	2.836995	-3.413583	2.546261	192.883077	-138.953566	-37.09578	-1.01466	0.132086	-0.03002	8.413872	0.636341	2.57462	14.976829	4.803536	17.147077	-0.603277	0.471027	-0.317791
-1.082009	1.393134	9.725127	-3.674564	7.508899	3.064613	0.392218	0.061146	-1.248111	-5.765043	0.659551	14.700572	-23.921116	-88.226955	-40.027601	-1.008656	0.120078	-0.012008	8.764883	0.464072	3.037326	16.914132	4.81426	18.044143	-0.567259	0.436651	-0.288556
-0.900756	1.452127	10.191214	-6.798576	7.81333	2.631867	0.440321	0.064209	-1.226956	-5.299948	-2.941222	8.699817	11.350111	-93.630523	-35.535709	-1.008656	0.126082	-0.024016	8.871444	0.751749	2.69834	17.650769	5.374598	18.065691	-0.571239	0.463658	-0.302427
-0.684641	1.160014	9.50131	-4.133127	8.804303	1.509064	0.427448	0.099584	-1.230164	1.530797	0.131845	8.884819	54.417514	-125.802628	-36.197881	-1.002653	0.126082	-0.048031	9.207347	1.386876	2.479621	18.478157	6.444137	16.883189	-0.60285	0.457271	-0.296078
-0.782217	1.104179	10.366106	-8.345045	10.674114	1.319271	0.44314	0.100981	-1.229166	-1.87188	-0.372342	8.112532	33.142133	-136.265205	-35.97208	-1.026668	0.120078	-0.024016	9.659856	1.211488	2.316566	18.349903	8.598964	16.098539	-0.551644	0.462854	-0.332846
-0.666297	1.104208	10.426207	-11.417279	15.097197	1.360052	0.461914	0.098998	-1.173687	-2.040622	-1.751653	11.00163	12.320538	-144.071566	-21.21791	-1.020664	0.126082	-0.024016	8.972589	1.501546	2.133088	20.405286	10.454844	14.567978	-0.586808	0.469719	-0.318654
-0.3735	2.149536	10.781325	-17.521131	22.50247	-1.429984	0.455631	0.046094	-1.206694	1.240046	-0.788075	11.357931	15.082955	-146.387187	-7.434504	-1.01466	0.120078	-0.024016	9.128095	1.845166	1.395846	21.874756	12.877383	11.522527	-0.585482	0.460717	-0.31403
-0.358974	2.499609	11.533756	-29.886122	38.570059	-6.251752	0.458067	0.063353	-1.189638	0.559426	0.016065	11.34347	21.762771	-135.155777	-1.177608	-1.056688	0.120078	-0.03002	9.847846	2.533975	0.443075	20.546813	15.179656	10.116316	-0.55387	0.467103	-0.32038
-0.717898	1.982785	13.663644	-56.228685	59.174055	-6.91837	0.442758	0.081469	-1.209901	3.521155	3.327117	13.164093	46.167401	-111.484299	-0.237227	-1.038676	0.13809	-0.036023	10.247439	3.749792	0.627756	15.529197	17.572469	9.850349	-0.567213	0.468915	-0.349073
-0.488067	1.692349	13.667517	-56.502438	83.444762	-11.201745	0.456275	0.025455	-1.169269	2.305138	-2.222405	10.673113	42.689352	-55.236758	-22.866786	-1.062692	0.114074	-0.042027	11.60079	3.628115	-0.030846	8.575468	19.792519	11.351833	-0.581075	0.419954	-0.278445
-0.924676	0.882851	14.754897	-64.849333	107.324589	-4.583306	0.473377	0.045238	-1.169376	0.132255	-1.06805	9.449787	6.479233	-25.51914	-17.789399	-1.04468	0.102066	-0.018012	12.778682	4.14285	-0.861211	-1.019594	21.175285	15.458099	-0.588181	0.446457	-0.262761
0.379642	1.184053	19.809484	-61.453619	118.637419	29.600726	0.510399	0.121574	-1.171798	0.141864	-1.011671	9.980687	10.923757	-23.906191	-13.087575	-1.038676	0.10807	-0.024016	13.069052	2.985142	-0.689561	-6.001457	22.227156	20.942398	-0.551217	0.449098	-0.311132
-0.238682	-0.155961	17.482249	27.604145	140.594274	25.359311	0.529555	0.139103	-1.135584	0.194506	-0.438714	9.862758	8.92479	-19.630869	-8.290025	-1.038676	0.114074	-0.018012	12.608796	1.94234	-1.045855	-8.187028	23.203613	19.378879	-0.55297	0.471856	-0.33747
0.490878	1.299608	19.638605	11.229806	159.146749	29.597209	0.576249	0.123781	-1.113326	0.300855	-0.381154	9.510829	-0.97873	-14.003566	-8.558052	-1.020664	0.120078	-0.018012	11.082817	1.832247	-0.505868	-4.799149	19.599085	9.082394	-0.564088	0.469419	-0.378629
0.267207	1.126402	19.922687	46.352128	182.672847	20.101312	0.590149	0.08728	-1.091958	0.253028	-0.381795	9.981743	1.132958	-13.168387	-8.983033	-1.032672	0.096063	-0.018012	10.391034	2.700481	-0.857993	4.280869	14.364406	-0.167387	-0.548518	0.463358	-0.362402
0.725893	0.371262	19.8722	67.273184	204.441269	11.451827	0.611741	0.122069	-1.038689	-0.031061	-0.60991	9.858716	6.865071	-11.991182	-6.457955	-1.01466	0.096063	-0.012008	9.489623	2.936252	-0.361132	8.506464	7.695477	-9.746797	-0.569866	0.48692	-0.358321
1.23695	0.079849	19.592714	75.812243	229.330517	6.097597	0.623849	0.04767	-0.996953	0.476294	-0.897703	9.751003	5.203563	-7.893095	-3.847686	-1.038676	0.102066	-0.024016	9.609027	2.995236	-0.073156	11.565295	1.361383	-9.828143	-0.534275	0.466299	-0.350799
0.28553	-2.2453	17.776579	103.812229	249.903159	3.862714	0.668488	0.0346	-1.011014	-0.036388	-1.010348	9.505425	1.935432	-3.960143	-1.529621	-1.038676	0.096063	-0.006004	9.337495	2.593421	0.547386	17.143139	-3.265136	-3.114929	-0.55297	0.471856	-0.33747
-1.557836	-3.347309	17.332645	98.270797	269.007844	7.742965	0.687644	0.05213	-0.974801	0.249364	-0.610559	9.746149	1.416808	-2.318341	-0.416527	-1.026668	0.096063	-0.012008	10.141015	2.245765	0.847037	25.853999	-6.788604	0.010949	-0.586808	0.469719	-0.318654
-4.88493	-3.634155	17.323469	110.480989	279.904313	11.873066	0.782441	0.039871	-0.931388	0.294782	-0.896075	9.098741	0.610104	-2.30667	-1.15906	-1.01466	0.102066	-0.018012	10.202247	1.783268	1.017337	34.559669	-8.546499	-2.287129	-0.56636	0.441404	-0.305646
-6.075865	-4.153694	17.991986	123.573602	271.729458	16.574623	0.818316	0.057671	-0.876016	0.195358	-0.725176	9.863265	-1.598698	-1.444251	-1.57973	-1.020664	0.090059	-0.012008	10.941827	2.129168	1.033556	40.307105	-7.84915	-7.319021	-0.549891	0.440096	-0.306509
-3.548746	-2.704656	18.219215	166.293303	254.034975	19.937292	0.815114	0.001387	-0.854543	0.24393	-0.610051	9.451148	-2.048423	-0.944778	-1.840391	-1.01466	0.102066	-0.024016	10.658123	2.187896	1.085279	38.974964	-3.53189	-6.141697	-0.572138	0.458905	-0.285337
-1.481336	-2.771605	15.428441	199.285426	240.343676	19.783644	0.862452	-0.034573	-0.794859	0.641506	-0.897808	9.518262	-5.38966	0.267932	-1.517529	-1.032672	0.10807	0	10.433058	1.957291	1.193907	31.676829	1.498401	-0.180512	-0.55387	0.467103	-0.32038
-1.611417	-2.308969	14.675681	196.213122	224.487508	22.903574	0.865151	-0.057464	-0.721114	0.474696	-0.725724	9.691698	-8.7248	0.890184	-1.789039	-1.038676	0.090059	-0.012008	10.315008	1.782778	0.962497	24.717241	6.151184	2.579733	-0.569013	0.459409	-0.314893
-0.033068	-2.372063	13.262176	226.738033	216.61401	28.090264	0.895125	-0.073057	-0.718014	0.133001	-0.953567	9.508584	-9.547216	1.540167	-2.242829	-1.026668	0.10807	-0.012008	9.971334	1.087915	0.781309	20.404089	9.416615	-0.149475	-0.547238	0.422091	-0.297261
18.109553	-5.196264	5.179122	205.793708	170.535956	46.378546	0.914543	-0.095677	-0.625111	-0.098958	-0.436847	9.267323	-9.589023	1.546492	-1.74643	-1.020664	0.090059	-0.018012	9.953974	1.894785	-0.014301	19.692264	10.886627	-4.836353	-0.582783	0.474976	-0.3653
17.502479	1.287635	-1.983403	141.184992	108.651326	-41.784107	0.912751	-0.133575	-0.604742	0.309249	-1.011979	9.865946	-9.252421	1.438311	-1.734701	-1.020664	0.078051	-0.024016	9.379365	1.663022	-0.312076	19.598881	11.106537	-7.349983	-0.550318	0.453852	-0.328222
16.204062	-4.455355	-1.214119	3.483811	-1.8559	-78.123956	0.910315	-0.150835	-0.621797	0.413319	-0.55327	9.454306	-9.48698	1.46228	-1.415592	-1.020664	0.096063	-0.006004	9.089586	1.372795	-0.604482	17.942355	9.649949	-5.551133	-0.561054	0.405394	-0.28715
14.596729	-6.594613	1.522674	-33.726264	-40.201693	-116.326394	0.93088	-0.114919	-0.586688	0.136218	-0.209273	9.802265	-10.367287	1.639518	-1.124987	-1.01466	0.114074	-0.006004	9.944748	1.429248	-0.530233	15.765624	7.51955	-0.069243	-0.521405	0.445979	-0.283302
12.298906	-4.437766	4.37172	-56.417883	-47.231229	-141.976681	0.893213	-0.170617	-0.621691	0.13283	-0.896274	9.508482	-12.064939	2.358734	-1.017141	-1.01466	0.10807	-0.018012	9.666561	1.547186	-0.192786	13.433223	6.188205	5.117899	-0.578423	0.401949	-0.269198
10.028205	-3.859082	2.709728	-68.534341	-49.61691	-158.278821	0.852803	-0.10239	-0.610943	0.246679	-0.438479	9.627844	-11.640441	1.963435	-1.521493	-1.01466	0.102066	-0.024016	9.949025	1.546092	-0.301339	11.992116	4.672473	6.949772	-0.571665	0.477414	-0.324141
8.931391	-3.104168	2.400754	-87.220895	-60.349458	-161.207112	0.903725	-0.062555	-0.591998	0.249364	-0.610559	9.746149	-11.374682	1.636215	-1.428525	-1.008656	0.10807	-0.012008	10.008335	1.488607	-0.186291	12.025935	3.141861	4.813969	-0.562807	0.428152	-0.313488
8.311192	-1.534866	3.027917	-109.327849	-79.143689	-155.314635	0.881825	0.04384	-0.582461	0.2405	-0.552454	9.274046	-11.515543	1.822905	-1.318717	-1.008656	0.10807	0	10.188288	1.432473	0.273562	12.767987	1.107495	2.112527	-0.535221	0.429282	-0.273192
7.869151	-0.255246	3.946884	-117.06883	-97.331277	-142.714067	0.878744	0.047219	-0.636942	-0.029697	-1.068249	9.859528	-9.786804	0.777984	-1.757628	-1.002653	0.102066	-0.018012	9.212141	1.548359	-0.144704	15.139568	-0.877528	-0.489573	-0.566833	0.422895	-0.266842
6.811255	0.446376	5.603472	-133.592463	-113.215312	-128.282299	0.832695	0.041903	-0.621776	0.195699	-0.839761	9.863468	-8.532912	-0.210533	-1.712093	-1.002653	0.114074	-0.018012	9.38387	1.664074	-0.083707	17.635153	-3.12802	-1.616787	-0.548138	0.417338	-0.280171
6.163999	1.380897	7.731139	-113.565251	-129.210104	-111.516078	0.772102	0.093726	-0.665402	0.312914	-0.783216	10.101541	-5.958979	-1.984209	-2.568424	-1.020664	0.102066	-0.036023	8.705067	1.087263	0.071426	20.190959	-4.987307	-4.282024	-0.550318	0.453852	-0.328222
5.263464	2.022492	8.639425	-82.7722	-147.927694	-92.061685	0.789203	0.113509	-0.665508	0.197702	-0.782672	9.981367	-3.268577	-4.176712	-3.826721	-1.01466	0.102066	-0.006004	9.10086	0.796197	-0.093281	20.837175	-5.38265	-6.012761	-0.567259	0.436651	-0.288556
3.641513	2.254405	7.856388	-58.685896	-169.112596	-68.026086	0.810151	0.168936	-0.649664	0.187283	-1.297187	9.333279	-0.596765	-4.563534	-3.361462	-0.996649	0.114074	-0.03002	8.924831	1.722092	-0.263731	19.083761	-4.904911	-4.565157	-0.565506	0.413893	-0.262218
2.79293	2.605032	8.476044	-47.737385	-190.554129	-42.31144	0.761021	0.166999	-0.688978	0.125053	-0.838271	9.09538	3.559661	-5.923453	-3.321637	-1.01466	0.102066	-0.018012	8.700005	0.796467	-0.215349	16.777216	-4.39625	-1.530819	-0.563707	0.423399	-0.296398
2.024706	2.842314	10.25286	-36.621351	-207.938823	-16.400929	0.745711	0.185114	-0.709241	0.416344	-0.839935	9.572814	6.37528	-8.122639	-4.554012	-1.008656	0.114074	-0.024016	8.816701	1.08651	-0.040506	14.070475	-3.704527	1.221823	-0.598444	0.416508	-0.260492
1.618584	2.668017	10.01318	-24.899207	-221.26441	8.625578	0.732456	0.200977	-0.693183	0.306501	-1.183552	9.68925	9.6451	-8.088401	-3.712613	-1.008656	0.102066	-0.03002	9.032654	0.793682	-0.665329	9.948946	-2.870178	3.504753	-0.583728	0.437959	-0.287693
0.666569	1.917202	11.148229	-20.428415	-231.235404	29.686013	0.673196	0.11049	-0.781455	-0.092843	-0.666524	9.56273	9.402625	-7.918732	-3.785631	-1.026668	0.102066	-0.024016	9.498564	0.679345	-0.143016	7.212429	-2.709269	4.832027	-0.598871	0.430264	-0.282206
0.614061	2.788597	11.438256	-17.971299	-239.734465	45.935597	0.658914	0.12748	-0.783557	0.032021	-1.355288	10.097123	8.907133	-8.156308	-4.184626	-1.01466	0.096063	0	9.326722	0.621527	-0.203749	5.307837	-3.32918	5.784278	-0.561527	0.386885	-0.248347
0.315731	2.504307	13.74329	-21.173142	-246.10086	56.631381	0.677808	0.18516	-0.804033	0.022305	-1.010721	9.624512	10.788272	-8.644541	-4.686091	-1.008656	0.084055	-0.018012	9.727919	0.447567	-0.08247	2.848993	-3.723225	5.504939	-0.597118	0.407506	-0.255869
-0.694618	2.740274	14.87957	-20.495256	-247.626929	61.259765	0.637322	0.092691	-0.836826	0.469369	-1.126162	9.338408	11.920482	-8.98254	-3.914484	-1.020664	0.090059	-0.006004	9.616615	0.853858	0.088394	-0.039994	-4.37805	3.853036	-0.549464	0.42634	-0.284795
-2.128933	2.335366	14.850018	-24.667771	-241.181402	61.685046	0.560271	0.104094	-0.842921	0.248213	-0.954111	9.628757	12.608357	-9.444139	-3.969096	-1.01466	0.102066	-0.006004	9.780914	0.736146	-0.251306	-1.207969	-4.705146	2.202775	-0.596218	0.412259	-0.272959
-3.544459	1.41031	15.744244	-34.186696	-228.285868	59.934972	0.54988	0.055694	-0.948567	0.528467	-0.897467	9.516089	13.38588	-10.273327	-3.617872	-1.008656	0.102066	-0.012008	10.014774	0.50542	0.037609	-1.668257	-5.213785	0.988705	-0.566879	0.390631	-0.206325
-5.014359	2.111064	16.872499	-44.032309	-211.473635	55.969489	0.47142	0.048711	-0.953558	0.36057	-0.725282	9.630525	15.955254	-10.217171	-3.213183	-1.020664	0.096063	-0.006004	9.84011	0.736558	-0.135995	-0.375106	-5.994372	0.983174	-0.548138	0.417338	-0.280171
-7.020048	1.474821	16.946587	-44.512108	-195.100823	52.466267	0.44362	0.121714	-0.996292	0.753799	-1.012632	9.461638	17.423772	-10.495194	-2.666296	-1.01466	0.096063	-0.012008	9.605705	0.098313	-0.543037	0.889573	-7.512063	3.135511	-0.598917	0.398	-0.221689
-9.933574	1.943678	17.58319	-51.123368	-179.778789	50.013232	0.366187	0.113605	-0.983122	0.644084	-0.668943	9.694857	16.391685	-10.059265	-1.859109	-1.020664	0.096063	-0.018012	9.039981	0.505777	-0.324091	1.723744	-8.923335	6.01707	-0.56328	0.409643	-0.274684
-12.349983	2.351615	17.247089	-52.987396	-162.609661	49.662769	0.380087	0.077104	-0.961755	0.303539	-0.553234	9.629133	12.131833	-8.199606	-1.275949	-1.020664	0.084055	-0.006004	8.576664	0.44695	-0.733009	3.38763	-10.114806	9.234381	-0.547711	0.403582	-0.258457
-14.946892	3.106997	16.503695	-53.701708	-142.660703	50.988567	0.350233	0.152359	-1.040809	0.249129	-0.89692	9.687656	12.806168	-8.093202	-0.891879	-1.032672	0.084055	0.006004	8.460184	0.620341	-0.848657	5.175152	-11.44596	13.709472	-0.635407	0.413867	-0.212121
-16.515471	2.757867	15.489145	-47.292246	-120.236324	53.377564	0.349468	0.113335	-1.00228	0.305414	-1.183451	9.63025	14.475608	-7.875493	0.112144	-1.026668	0.090059	0	8.975381	0.388258	-0.725388	6.099505	-11.968546	16.662535	-0.584628	0.433205	-0.270603
-17.860015	3.394682	14.250283	-39.871343	-99.66552	56.61388	0.39449	0.119777	-1.035606	0.251878	-0.725347	9.864352	15.403341	-8.379688	0.664162	-1.032672	0.096063	-0.006004	8.858901	0.561649	-0.841036	6.131105	-12.308524	16.884669	-0.579749	0.410951	-0.273821
-18.565986	3.567382	13.369765	-23.200331	-83.961893	60.133285	0.33595	0.169348	-1.042912	0.305713	-0.553437	9.747134	17.008574	-8.547479	1.367647	-1.020664	0.072047	0	8.634961	0.331307	-0.675316	5.945372	-11.814909	16.50523	-0.586001	0.409943	-0.21471
-19.759446	2.343869	10.973566	-7.077393	-80.309331	63.445729	0.319876	0.148439	-1.024645	0.758039	-0.612093	9.755928	19.595373	-9.23256	1.662336	-1.038676	0.072047	0	8.865214	0.215585	-0.557152	5.205452	-11.019319	15.962894	-0.602469	0.411251	-0.213847
-19.694295	1.641097	8.430325	-14.444703	-93.529218	72.156245	0.355106	0.186877	-1.006698	0.531109	-0.324949	9.751074	20.335713	-9.559421	1.954401	-1.04468	0.096063	0.006004	8.920815	-0.248226	-0.672313	3.206038	-10.53689	16.889032	-0.616712	0.40831	-0.22545
-23.785876	-1.123671	39.260655	-91.988971	-82.78698	86.302837	0.353314	0.14898	-0.986329	0.756612	-0.497407	9.696725	21.329503	-10.038575	2.567422	-1.050684	0.078051	0.012008	9.266741	0.447163	-0.376941	0.715736	-10.463089	18.097247	-0.584201	0.41945	-0.248889
-19.454233	-5.505	5.701558	147.306574	-33.470983	75.945513	0.307003	0.183814	-1.027853	0.471266	-0.668127	9.514596	22.762132	-11.034579	3.193146	-1.04468	0.084055	-0.006004	9.890637	0.561178	-0.47821	-1.096178	-11.371203	17.894484	-0.584628	0.433205	-0.270603
-20.164926	2.692095	10.792959	112.749142	-25.112787	46.726617	0.313593	0.095535	-1.057652	0.198959	-0.840066	10.040469	21.653107	-11.076918	4.281434	-1.04468	0.078051	0	10.354295	0.446316	-0.070081	0.136096	-12.372587	18.260737	-0.607348	0.433505	-0.210628
-19.452152	10.451793	3.717612	46.540103	20.419763	1.545724	0.364133	0.115857	-1.019442	0.309314	-0.668326	9.924337	21.766581	-11.747762	5.6867	-1.04468	0.072047	0.006004	10.00284	0.270943	-0.591457	2.506786	-13.780045	18.030871	-0.571285	0.431394	-0.24191
-19.030528	11.150431	4.767956	39.585249	52.556349	-43.751597	0.315003	0.11392	-1.058756	0.195358	-0.725176	9.863265	24.69505	-13.677033	6.87803	-1.038676	0.066043	0.012008	9.433976	-0.017401	-0.604033	4.323139	-14.930072	16.507575	-0.601097	0.434513	-0.26974
-19.313298	13.001731	2.166191	36.451154	99.272596	-122.897837	0.296491	0.075752	-1.057545	-0.242395	-1.183371	10.563386	26.555577	-18.303569	7.595253	-1.056688	0.084055	0.006004	10.004638	0.503054	-0.476221	2.786481	-15.464529	14.06506	-0.604223	0.434009	-0.240184
-1.959542	3.082432	11.850038	-14.371613	119.367001	-121.782003	0.303419	0.108019	-0.987114	-0.691113	-0.156461	13.973789	12.544416	-31.241928	12.311534	-1.04468	0.072047	0.024016	9.556292	0.853183	-0.084009	-0.351504	-15.076417	10.06334	-0.621591	0.430564	-0.222231
-10.412844	-2.063757	16.350294	191.124683	65.884106	-59.08566	0.301365	0.110271	-1.023434	0.412793	-0.386501	12.520924	14.313394	-49.781543	20.297125	-1.074699	0.090059	0	10.803379	2.587046	-0.165529	-2.534905	-15.881545	0.527967	-0.635407	0.413867	-0.212121
-6.313507	8.820339	6.633778	136.322081	41.957756	34.098121	0.344977	0.098328	-1.055656	0.294363	-1.130251	12.107069	-7.732484	-67.183175	29.931062	-1.062692	0.072047	0.012008	11.651875	3.742479	-0.314655	-2.896661	-19.351957	-3.400158	-0.607348	0.433505	-0.210628
1.32868	-1.395532	9.650795	-25.660229	20.784852	37.506019	0.378415	0.098868	-1.01734	1.837265	-0.9646	13.080107	-26.034534	-84.75448	22.33253	-1.098715	0.084055	0	12.734263	2.929505	-0.354028	-3.865817	-24.861774	3.634586	-0.637633	0.418116	-0.199655
0.804071	-2.949216	14.953408	50.448486	11.809176	-16.410726	0.366569	0.133117	-1.002387	2.324038	-1.666735	20.993867	-49.969203	-87.674958	1.694133	-1.110723	0.090059	-0.006004	13.139078	2.061315	-0.121719	-1.490827	-27.920838	5.247502	-0.622491	0.425811	-0.205142
-3.43736	4.174421	6.795377	95.028617	7.843714	-29.671966	0.299955	0.091885	-1.02233	0.208902	-2.741339	16.413664	43.1343	-140.72036	-25.121448	-1.134739	0.084055	-0.006004	13.421883	1.886531	-0.231061	-5.148441	-29.011377	-0.741473	-0.621165	0.416808	-0.200518
-1.921516	3.247086	7.979154	-11.936718	3.025383	2.465681	0.358877	0.061826	-1.034288	0.50981	-1.603481	20.663992	-14.033183	-149.669547	-38.733855	-1.116727	0.096063	0	14.317424	2.344465	-0.953136	-10.895584	-30.233412	-3.741388	-0.650977	0.419928	-0.228348
-0.075219	-1.332325	11.183359	-1.375037	1.613777	-2.82452	0.328903	0.077419	-1.037389	0.774595	-2.920029	19.491757	17.875344	-191.749402	-48.839648	-1.128735	0.090059	0.006004	13.90889	3.385556	-1.355933	-15.571804	-28.643422	-1.203648	-0.684814	0.417791	-0.209532
-1.201358	1.392686	9.491582	28.633583	-1.933105	-16.120583	0.361314	0.079086	-1.017233	-0.624991	-1.943319	20.347868	-29.653474	-220.67881	-61.088358	-1.15275	0.090059	0.012008	13.849921	3.269351	-1.471769	-11.918976	-26.020226	0.620852	-0.654575	0.400915	-0.159988
-0.572232	2.436703	9.448855	5.871938	-2.272412	-7.587393	0.321975	0.045153	-1.10782	-0.70835	-2.060304	21.938902	-39.321978	-256.873143	-71.56371	-1.15275	0.102066	0.006004	12.205119	2.231567	-1.280793	-9.685508	-22.093874	-6.034018	-0.691965	0.412029	-0.13333
-0.72586	0.987898	10.309155	3.778098	-3.36381	-7.00184	0.329285	0.096931	-1.056654	-2.49782	-2.285745	22.907538	-25.755718	-294.8387	-82.442555	-1.170762	0.10807	0	10.274121	1.947004	-1.092032	-13.907092	-18.653382	-12.192536	-0.62429	0.416304	-0.170962
-0.740523	1.972947	9.617753	9.48091	-3.068176	-8.225348	0.324029	0.0429	-1.0715	-0.727462	-2.574007	20.818812	16.5445	-335.814051	-85.374618	-1.176766	0.102066	0.024016	9.48142	1.949648	-0.879431	-23.937332	-15.31343	-12.293329	-0.670098	0.439241	-0.236732
-1.027853	2.379524	9.613016	5.604562	-1.276272	-3.231361	0.324029	0.0429	-1.0715	-2.892539	0.69374	23.425655	-11.56175	-361.377046	-89.302638	-1.206785	0.084055	0.018012	8.809932	1.66416	-0.323338	-33.16578	-12.639585	-10.202738	-0.653676	0.405668	-0.177078
-0.683079	1.914849	9.618756	0.875151	-1.185302	-0.609366	0.291618	0.041233	-1.091656	-0.410603	-2.40623	22.711946	62.505654	-392.922591	-85.516105	-1.212789	0.102066	0.036023	8.535682	2.072632	0.243792	-37.011463	-11.07336	-7.44582	-0.675023	0.42923	-0.172997
-0.169847	1.739801	9.455179	1.729012	-0.780126	-0.368548	0.283881	0.070977	-1.004063	5.496197	-3.676507	18.05035	91.686998	-398.222744	-79.865652	-1.236805	0.090059	0.054035	8.03243	1.959966	0.689867	-35.844407	-10.626199	-7.694602	-0.657701	0.400411	-0.130432
-0.68057	1.682958	9.733827	-0.418383	-0.028446	0.660708	0.345622	0.077689	-1.018231	4.780726	-3.217881	19.156415	93.585532	-381.085752	-83.721381	-1.254817	0.102066	0.060039	8.033215	2.133918	0.747748	-34.89111	-11.008251	-10.066327	-0.656801	0.405165	-0.147522
-0.516073	1.333556	9.331714	-2.308952	0.49131	2.407766	0.344595	0.078816	-1.036391	-0.856652	-3.717687	19.756666	115.786392	-364.90679	-80.489902	-1.272828	0.090059	0.084055	8.318386	1.901764	0.752328	-34.888352	-12.28118	-11.015554	-0.67327	0.406472	-0.146659
-0.444913	1.277135	10.026494	-2.416178	1.502017	3.032459	0.338694	0.045423	-1.088662	-0.471854	-4.467572	22.124513	157.223851	-352.348486	-87.004762	-1.278832	0.096063	0.096063	8.03772	2.134969	0.976117	-32.396073	-13.363821	-12.384021	-0.655002	0.414671	-0.181702
-0.281417	1.972502	9.626897	-1.168845	1.80737	3.04591	0.34395	0.099454	-1.073816	-13.585911	-7.151613	6.011671	196.55183	-313.227024	-85.520626	-1.272828	0.072047	0.120078	9.055043	2.015289	0.596218	-27.904249	-15.082631	-14.644592	-0.63896	0.427119	-0.204279
-0.731156	1.741894	10.079712	-2.143075	1.93252	4.846674	0.324291	0.00275	-1.014811	-34.332625	-8.619822	-4.057154	123.856599	-160.60445	-60.89767	-1.296844	0.066043	0.144094	8.87667	1.840101	0.192406	-19.663046	-16.339973	-18.02745	-0.63806	0.431872	-0.221368
-0.967066	1.218894	9.726994	-1.475107	2.562481	4.76499	0.344212	0.059304	-1.017126	-26.448295	-10.416601	-5.730882	61.273957	-32.284643	-19.566093	-1.29084	0.048031	0.156102	9.678381	1.83956	0.436542	-10.658834	-14.621543	-16.856578	-0.67725	0.43348	-0.160531
-0.860291	1.217805	9.324576	-2.049846	2.055204	4.696698	0.357467	0.043441	-1.033184	-20.760929	-7.760286	5.933784	10.03075	92.587263	6.315393	-1.296844	0.060039	0.144094	10.023534	1.78177	0.614313	-2.216088	-8.521336	-7.868469	-0.691965	0.412029	-0.13333
-1.13438	0.929407	9.954125	-0.041929	2.253117	4.320938	0.345239	0.058177	-0.998966	-19.433225	-7.58986	4.425555	-12.372105	111.388033	19.088618	-1.284836	0.054035	0.162106	10.645746	1.605778	0.397545	3.420778	1.257774	2.762241	-0.637161	0.436625	-0.238458
-0.5035	1.335094	9.967676	-0.719332	2.332469	4.3403	0.280799	0.074356	-1.058543	-16.465815	-6.908947	3.065925	-2.523642	114.810781	30.44366	-1.278832	0.048031	0.162106	10.475599	1.25874	0.392589	6.686173	12.273128	8.580025	-0.672797	0.424981	-0.185463
-1.138811	1.973756	9.783196	0.429258	3.190731	4.653846	0.325701	0.021136	-1.015915	-14.632119	-6.567975	1.44917	-10.610592	129.784738	34.817961	-1.284836	0.060039	0.156102	10.307135	1.201711	0.503132	9.767673	22.290476	7.110323	-0.674597	0.415475	-0.151283
-1.019882	1.219509	9.95711	2.538909	3.053527	3.803508	0.308982	0.020865	-1.035073	-13.735861	-6.054461	1.111642	-31.541712	157.937741	36.704084	-1.278832	0.054035	0.120078	9.452428	0.913673	0.427831	6.919287	30.247787	3.20975	-0.675923	0.424477	-0.155907
-0.736648	1.509025	9.790079	3.882501	4.089293	4.272508	0.359259	0.081338	-1.053553	-13.379336	-4.968856	2.237236	-57.53085	191.801754	38.738681	-1.272828	0.066043	0.13809	8.72005	0.916991	0.812835	-1.639707	34.52204	-2.960636	-0.692865	0.407276	-0.116241
-0.628675	1.450033	9.445337	4.922113	4.847941	5.348551	0.340748	0.043171	-1.052342	-12.539994	-3.601096	5.082021	-73.777806	223.105003	41.398034	-1.266825	0.072047	0.126082	8.211951	0.976963	1.03133	-11.881488	35.304123	-10.557941	-0.723577	0.405643	-0.126981
-0.509493	1.624608	9.679301	4.40552	5.201677	5.25312	0.338574	-0.014239	-1.012708	-11.252225	-2.807117	7.641513	-77.495522	249.215829	45.740242	-1.254817	0.066043	0.102066	7.702511	0.573238	1.133538	-19.133379	33.099839	-16.724298	-0.628696	0.457067	-0.206547
-0.22718	1.681814	9.453897	3.483882	6.020796	5.70595	0.339339	0.024785	-1.051237	-10.382443	-1.437092	9.071381	-77.479661	271.305119	50.213851	-1.242809	0.084055	0.114074	7.423323	0.053791	1.35391	-22.076918	29.435439	-19.989129	-0.642086	0.426615	-0.174723
-0.340924	1.79815	9.509705	3.771687	6.805293	6.34253	0.369313	0.009192	-1.048137	-8.71197	-1.044033	10.872188	-73.984769	289.113024	53.483273	-1.236805	0.078051	0.090059	7.933776	0.515675	1.309057	-20.438426	25.564846	-19.982299	-0.606022	0.424503	-0.206004
-0.453025	1.392242	9.62207	0.703943	7.703056	7.49137	0.369958	-0.011446	-1.010712	-6.321446	-0.823645	11.861424	-73.88225	303.292163	54.604721	-1.230801	0.084055	0.084055	8.050928	0.574133	1.482849	-20.211069	20.739954	-16.71868	-0.675023	0.42923	-0.172997
-0.802093	1.566145	9.384373	-2.575081	8.168688	6.824439	0.367904	-0.009194	-1.047032	-4.545541	-0.430217	13.251403	-76.050232	314.949323	52.92891	-1.212789	0.078051	0.066043	8.150037	1.786838	0.862608	-20.34979	15.036667	-10.316889	-0.67545	0.442986	-0.194711
-0.911433	1.857169	9.671859	-5.053534	8.690994	7.24097	0.412925	-0.002751	-1.080358	-2.81725	-0.839321	14.995718	-76.251352	321.539921	49.065222	-1.194778	0.096063	0.066043	8.943306	1.494712	0.648692	-19.320078	9.524063	-1.344243	-0.704409	0.418595	-0.179113
-0.520058	1.913564	9.159667	-10.491258	8.63348	6.237153	0.402872	0.069395	-1.085775	-0.981629	-0.79002	16.505393	-76.84005	324.401519	43.709893	-1.164758	0.096063	0.054035	8.670205	0.744993	1.153473	-13.77583	5.924084	6.384629	-0.641186	0.431368	-0.191813
-1.320398	2.263018	9.317948	-20.346576	8.379427	5.697013	0.410564	0.140685	-1.053873	0.408483	-0.052659	18.477159	-75.904561	321.915835	39.438858	-1.164758	0.096063	0.048031	9.017155	0.919314	1.44648	-6.054991	4.484237	8.692162	-0.658555	0.427923	-0.17386
-0.794203	1.683209	9.789355	-29.318313	7.921165	4.852454	0.394227	0.159927	-1.092296	1.461651	0.685522	20.560404	-72.847591	315.824214	38.690028	-1.134739	0.114074	0.03002	9.353866	0.569939	1.1662	4.89384	3.3523	11.529804	-0.65273	0.442686	-0.254685
-0.960319	1.335818	10.074162	-33.69417	7.784363	3.056169	0.364898	0.154881	-1.057971	2.820122	0.738521	20.704383	-64.937118	304.107019	43.335289	-1.122731	0.114074	0.024016	9.681897	0.623998	0.488114	15.59783	1.99507	14.891233	-0.640286	0.436121	-0.208902
-0.679149	1.392884	9.790943	-34.116747	7.417713	1.370383	0.351642	0.170744	-1.041914	4.213942	0.960047	22.795062	-60.503435	293.931157	54.475884	-1.086707	0.126082	0.03002	9.109654	0.334865	0.304261	22.859213	0.504649	20.225069	-0.622918	0.439566	-0.226855
-0.957477	0.755671	10.188394	-34.78495	7.661992	2.86316	0.34985	0.132847	-1.021545	6.037715	0.609519	23.597446	-53.774068	283.827378	72.330744	-1.086707	0.144094	0.012008	8.47156	0.565074	-0.277998	26.366689	0.351212	27.311932	-0.674124	0.433984	-0.190087
-1.080254	0.754804	9.781405	-18.055856	7.728561	1.429143	0.380852	0.116128	-1.000284	9.251615	1.00146	23.304673	-43.525835	276.025836	92.610537	-1.056688	0.126082	0.024016	8.825722	0.509386	0.35651	25.87425	1.041191	32.033392	-0.656801	0.405165	-0.147522
-0.735647	0.464257	9.787564	-19.549774	7.958482	3.338235	0.347031	0.096075	-1.019336	13.689299	-0.040425	21.740341	-47.077805	273.445405	110.511551	-1.032672	0.13809	0.018012	8.471003	0.275329	-0.336405	22.334232	2.631625	31.335284	-0.625144	0.443816	-0.214389
-0.673798	0.580845	10.020245	-13.628086	8.699032	2.952836	0.379825	0.117254	-1.018444	17.403841	-0.966627	20.810681	-50.25105	273.21687	118.452962	-1.038676	0.120078	0.024016	8.311447	-0.300928	0.171417	17.376636	5.154639	26.479432	-0.692819	0.439541	-0.176758
-1.251331	0.813153	9.83593	-11.598854	9.605459	2.51399	0.377388	0.099994	-1.0355	20.948015	-2.350454	19.760572	-38.458694	265.273196	116.342769	-0.996649	0.156102	0.03002	8.482049	-0.185476	0.175322	10.48268	7.194621	19.514088	-0.657655	0.432676	-0.19095
-0.60679	1.27856	10.543398	-12.673483	11.633359	2.683946	0.343185	0.06043	-1.035286	25.342603	-4.252571	18.786678	-24.389341	243.160593	103.486813	-0.996649	0.13809	0.024016	8.425891	-0.011411	0.232076	3.928143	8.942967	13.902804	-0.658555	0.427923	-0.17386
-0.726558	0.523417	10.250222	-7.716478	14.393344	0.570861	0.409417	0.082149	-0.996079	29.061165	-5.059486	15.025893	-17.964632	203.335172	78.408564	-0.984641	0.13809	0.036023	8.368379	0.278185	0.232264	-1.946666	9.75417	12.139743	-0.690593	0.435291	-0.189224
-0.538614	0.757377	11.063616	-11.118287	20.983663	-1.919605	0.36516	0.114731	-1.001282	30.128871	-5.171591	11.625819	-38.368297	152.88158	50.003752	-0.972633	0.150098	0.048031	8.558116	0.977332	1.266457	-5.848692	8.875657	14.402306	-0.662961	0.468685	-0.209445
-0.665822	1.80086	10.485698	-13.107407	29.562667	-6.256592	0.36516	0.114731	-1.001282	29.482313	-3.391824	10.548716	-73.878308	96.997006	23.460514	-0.966629	0.144094	0.036023	8.84678	0.68807	1.44205	-9.593628	6.912094	19.718546	-0.671898	0.429734	-0.202553
-1.341517	1.396766	11.106967	-37.494706	41.129993	-9.846632	0.375979	0.081609	-1.034395	27.834896	-0.579553	10.512229	-103.139367	41.395468	4.118416	-0.960625	0.156102	0.060039	8.623512	0.689576	1.665914	-10.911474	5.685193	24.908308	-0.706589	0.455108	-0.227164
-0.574365	2.037167	12.221843	-49.269973	54.707783	-13.83721	0.395396	0.058988	-0.941492	24.349223	2.694043	11.973075	-115.553681	-4.342304	-5.409792	-0.942613	0.168109	0.060039	9.066794	0.048652	0.986926	-9.157069	5.278724	28.994526	-0.657182	0.451185	-0.229753
-0.945348	1.221549	10.825474	-46.847647	70.058394	-17.420236	0.4157	0.135054	-0.963072	20.38295	4.940683	11.716051	-99.369778	-36.227999	-6.436645	-0.942613	0.174113	0.054035	8.970245	0.400463	1.899725	-3.406891	5.107822	30.864276	-0.660735	0.464436	-0.221911
-0.726275	2.613233	10.370882	-77.1287	84.280103	-16.513472	0.368624	0.130864	-0.966067	16.122082	5.012788	10.454447	-71.671001	-48.065373	0.480957	-0.960625	0.168109	0.048031	9.529098	0.049319	1.338489	4.588857	4.266124	30.253986	-0.66566	0.454426	-0.158175
-0.521494	1.97851	11.991587	-89.284131	99.199071	-16.28406	0.412881	0.098282	-0.960863	12.640748	4.281733	8.442476	-47.358816	-38.370507	7.542675	-0.966629	0.192125	0.048031	9.877402	0.10811	1.688062	14.093638	2.495086	29.520447	-0.643793	0.481637	-0.261577
-1.387151	3.204864	14.693528	-94.619991	112.610279	-6.622457	0.464185	0.157629	-0.961183	10.769316	13.655744	24.904583	343.490107	-209.93783	-16.885249	-0.960625	0.168109	0.048031	9.603948	0.111307	2.253353	24.061896	-0.363592	26.06227	-0.681229	0.460487	-0.174402
-0.251687	0.531971	13.958368	-33.26942	122.603999	3.788679	0.433828	0.15371	-0.945019	-0.983662	-2.258581	3.886343	92.946212	-162.518757	52.288602	-0.960625	0.156102	0.054035	10.293444	0.980228	2.670456	29.601062	-2.679537	21.558437	-0.67545	0.442986	-0.194711
-0.420199	0.300386	14.127824	-68.605908	141.343361	11.05205	0.438702	0.188229	-0.910908	-14.772457	0.42776	-1.986311	215.633862	-265.13392	59.079097	-0.966629	0.144094	0.054035	10.524824	0.864769	2.845712	30.006536	-5.661845	16.369557	-0.675877	0.456742	-0.216424
-0.708576	0.36561	16.95403	-61.561432	162.260714	17.580589	0.495569	0.160422	-0.959187	3.93322	7.692733	5.556222	62.563134	-277.373711	101.986188	-0.972633	0.168109	0.060039	11.413949	1.147436	1.780295	23.592567	-11.549268	11.272443	-0.696844	0.434284	-0.130112
-0.81711	-1.375	17.178811	-50.470306	185.82429	25.558122	0.504168	0.170924	-0.833171	7.1181	6.124655	12.579662	-23.933915	-261.782657	64.47121	-1.01466	0.150098	0.054035	11.483178	0.628884	2.349977	21.759388	-16.912644	7.716897	-0.694999	0.476054	-0.224809
-0.27505	-0.617732	18.520654	-47.531401	214.065289	34.105177	0.50737	0.227207	-0.854645	8.023436	7.939352	22.148567	66.069414	-233.670054	6.623493	-1.032672	0.144094	0.048031	12.048288	2.827809	2.371228	24.099984	-19.203578	0.901103	-0.695472	0.457545	-0.186005
0.16202	0.663289	20.381802	-39.460442	249.163126	35.812789	0.633168	0.198229	-0.789972	10.183808	-6.142996	11.421061	99.001388	-119.113783	-93.670519	-1.020664	0.13809	0.042027	12.723258	3.635416	2.045871	22.801029	-17.345897	-11.811404	-0.692819	0.439541	-0.176758
2.085494	0.723129	21.922844	-23.694756	284.671294	26.198663	0.589556	0.210173	-0.75775	-1.782989	-2.499877	12.600301	23.14154	-56.39696	-45.601788	-1.01466	0.150098	0.054035	12.976985	4.496459	0.571049	14.576928	-11.926649	-18.373928	-0.679902	0.451484	-0.169778
1.784386	-1.193958	21.103111	3.870925	317.803983	16.542984	0.640478	0.250008	-0.738805	0.55135	-0.555946	10.813483	76.843713	-37.190009	5.174677	-1.026668	0.126082	0.066043	13.92253	2.751587	-0.730811	7.149457	-3.384304	-7.570217	-0.67725	0.43348	-0.160531
0.617186	-3.57525	19.976041	21.910837	346.858758	17.642983	0.674944	0.249422	-0.682329	1.59106	0.7092	6.11297	49.981822	-35.318237	-8.563325	-0.996649	0.126082	0.078051	14.054749	1.757544	-2.787218	3.69794	2.982968	20.982077	-0.643839	0.449373	-0.20106
-2.548557	-2.122101	19.511967	45.511074	365.360893	15.732776	0.722664	0.232973	-0.64191	0.525441	-0.610802	9.397581	-10.51258	-25.709476	-26.364272	-1.026668	0.114074	0.072047	13.402241	1.868542	-4.112201	6.213347	8.524684	50.255054	-0.696371	0.452792	-0.168915
-5.176872	-2.234229	20.037259	76.837921	360.914003	9.366011	0.737974	0.214858	-0.621648	0.685653	-1.131038	11.878675	2.284363	-10.862426	-5.909978	-1.026668	0.102066	0.072047	11.107719	2.39048	-4.954176	10.585754	18.956422	50.862294	-0.713267	0.467856	-0.189766
-2.909433	-2.987461	21.525387	90.47055	351.0577	2.617246	0.760593	0.248521	-0.550218	0.794893	-0.209491	8.753302	15.595257	-11.806677	-2.282192	-1.002653	0.120078	0.072047	8.723962	3.555552	-4.482391	8.874172	24.257132	18.375766	-0.692392	0.425785	-0.155044
-2.552987	-1.077752	19.341038	125.243259	344.243176	-1.727776	0.823624	0.213956	-0.489537	0.284449	0.021314	8.684116	0.775398	-9.507296	-7.375311	-1.002653	0.120078	0.066043	8.175928	3.561684	-3.408903	11.749631	27.104327	-14.247523	-0.727083	0.451159	-0.179656
-2.745114	-1.71857	18.295407	152.511998	327.776906	-15.977358	0.775138	0.191381	-0.491426	0.467558	-0.152292	9.395682	-6.990296	-3.997801	-3.06185	-1.020664	0.10807	0.066043	7.408357	2.817195	-2.000784	17.650306	27.426025	-22.757097	-0.727083	0.451159	-0.179656
-2.883702	-3.114557	17.017842	188.724742	306.562879	-29.319361	0.877245	0.2309	-0.396847	0.69255	-0.152872	9.341029	-8.19818	-3.357001	-3.038648	-1.020664	0.096063	0.066043	8.397462	2.414718	-0.955819	24.540171	27.329971	-14.642797	-0.692773	0.471805	-0.237275
-1.174048	-4.917227	16.354022	202.554074	283.514022	-33.618655	0.860023	0.151456	-0.320787	0.477104	-0.439567	9.868191	-6.990916	-2.789349	-2.397125	-1.002653	0.114074	0.066043	9.512739	1.493574	0.659955	32.785052	27.340066	1.917585	-0.694618	0.430034	-0.142578
4.026701	-3.880037	15.419883	206.341799	246.80619	-7.683699	0.875715	0.152852	-0.319789	0.584774	-0.095747	9.633755	-2.668123	-2.797521	-1.59675	-1.008656	0.10807	0.078051	10.896158	1.552683	1.54363	37.556256	27.078798	19.412555	-0.661207	0.445927	-0.183107
30.725423	-23.878914	-10.507626	258.016524	133.091294	6.070444	0.894488	0.15087	-0.26431	0.595171	-0.669483	10.106771	-2.35694	-3.002298	-2.084765	-1.008656	0.114074	0.066043	12.946002	1.606485	1.584438	32.762696	26.066648	23.752953	-0.692346	0.458049	-0.215561
10.009569	-3.738189	4.674567	32.163153	3.836356	43.137286	0.863749	0.127439	-0.228882	0.478062	-1.126974	9.810409	1.317726	-2.987663	-1.197557	-0.996649	0.114074	0.072047	14.772123	1.893378	1.850161	15.088403	21.708338	7.427683	-0.660735	0.464436	-0.221911
13.948761	-6.349702	6.480444	88.341777	-78.758287	49.992982	0.922408	0.13753	-0.29753	-0.096785	-0.43705	9.385323	1.380754	-3.058775	-1.080792	-1.002653	0.102066	0.066043	13.866799	0.680162	1.997897	-7.225024	16.274253	-10.489132	-0.660262	0.482945	-0.260714
12.477783	-7.862032	4.540349	47.95688	-115.945808	68.03971	0.876742	0.151726	-0.301629	1.039039	-0.440966	9.702057	0.472888	-3.27675	-0.938154	-1.002653	0.10807	0.066043	12.109327	0.743425	2.362891	-12.044547	12.289726	-18.558699	-0.708815	0.459357	-0.214698
10.243719	-4.956889	4.849648	56.061948	-127.710149	77.634487	0.851303	0.081292	-0.370849	0.804332	-0.095819	9.2841	-1.269488	-2.904896	-0.696446	-1.002653	0.10807	0.072047	10.32222	1.55277	1.303999	-5.552409	10.136812	-18.779732	-0.696798	0.466548	-0.190629
9.55293	-3.686465	1.891597	39.796145	-132.658909	79.499056	0.86776	0.121712	-0.40838	0.299299	-0.953773	9.334843	-0.990226	-2.514579	-1.237839	-0.996649	0.114074	0.066043	9.853944	1.724477	0.667764	7.397752	8.18236	-12.516818	-0.648718	0.471627	-0.197842
9.319169	-2.874064	1.715537	0.397848	-143.73414	76.740318	0.85374	0.098551	-0.353793	0.310358	0.076171	10.100018	-1.415815	-3.291732	-1.488546	-1.008656	0.090059	0.072047	9.606251	0.967285	-0.42491	20.074713	4.78545	-8.393676	-0.696371	0.452792	-0.168915
9.733045	-1.247581	2.421228	-35.815527	-160.710268	64.615536	0.851686	0.100804	-0.390113	0.811704	-0.382891	9.638609	-0.052228	-4.275081	-1.044908	-1.002653	0.10807	0.072047	9.37668	0.735628	-0.54465	26.756992	0.636077	-8.139181	-0.711041	0.463607	-0.202232
9.18961	0.382083	4.032524	-57.763229	-183.178537	45.813453	0.831885	0.103912	-0.463751	0.014997	-0.379997	9.328395	0.514372	-3.897682	-2.153858	-0.990645	0.114074	0.060039	8.90581	1.0805	-1.294281	29.194783	-3.361214	-11.367265	-0.679902	0.451484	-0.169778
8.830549	1.20038	6.223441	-63.727901	-204.330615	21.124445	0.812729	0.086383	-0.499965	0.593104	-1.070226	9.930481	2.957469	-5.051764	-1.698599	-1.01466	0.102066	0.078051	8.682872	1.487544	-1.011485	28.462369	-5.890841	-12.903033	-0.657228	0.41892	-0.169236
7.481196	1.843679	7.642916	-49.335745	-222.126017	-5.00842	0.751753	0.118694	-0.524326	0.42052	-0.783049	9.808713	4.606412	-5.888343	-1.317726	-1.002653	0.102066	0.054035	8.392422	0.965468	-1.362035	25.84911	-5.914138	-11.448392	-0.691066	0.416783	-0.15042
5.58245	1.032219	7.314167	-32.361365	-237.221472	-26.352878	0.779674	0.105354	-0.557546	0.883074	-1.358149	10.290423	6.610117	-6.51372	-1.677908	-1.002653	0.114074	0.072047	8.050762	0.96615	-1.368793	19.603178	-3.732186	-6.761141	-0.712367	0.472609	-0.206856
4.507059	1.144135	5.154727	-34.787776	-246.326513	-38.096995	0.722162	0.153799	-0.546692	0.415598	-0.954419	9.514017	6.775508	-6.401349	-1.583999	-1.008656	0.102066	0.072047	7.476028	1.371511	-1.606584	12.711742	-1.693349	-3.297543	-0.691066	0.416783	-0.15042
3.316933	0.972992	5.881897	-78.089948	-249.735078	-44.632221	0.735417	0.137936	-0.562749	0.745617	-1.183698	8.989941	6.753725	-5.910872	-2.015315	-1.002653	0.114074	0.084055	7.885347	0.504372	-1.145906	5.298507	-0.099897	-1.233381	-0.642086	0.426615	-0.174723
3.187981	1.21064	8.075988	-104.409897	-252.906187	-47.436436	0.690515	0.191156	-0.605377	0.979089	-0.383199	9.523868	3.60996	-5.807346	-1.461736	-1.008656	0.114074	0.066043	8.112791	0.098379	-1.200333	-2.45191	0.991419	-0.719239	-0.69102	0.449047	-0.210937
2.721224	1.797716	10.610949	-116.314188	-256.782638	-51.498393	0.656695	0.171104	-0.624428	0.586478	-0.668671	9.63477	8.298889	-6.694161	-1.967199	-1.008656	0.084055	0.090059	8.163204	-0.019105	-1.542286	-8.969164	0.722677	-0.442193	-0.642512	0.44037	-0.196436
2.01789	2.558305	12.794868	-108.772463	-262.452278	-56.829664	0.641003	0.169707	-0.625426	0.579511	-0.152532	9.338855	6.931021	-5.872195	-2.297421	-1.020664	0.102066	0.072047	8.50847	-0.134791	-1.364777	-14.102873	0.366956	-1.409681	-0.67725	0.43348	-0.160531
0.813144	3.08904	15.719533	-92.258718	-268.369381	-61.498324	0.578235	0.164121	-0.629418	0.647749	-0.440179	9.930451	8.325723	-5.5488	-1.307526	-1.008656	0.102066	0.072047	8.962549	0.037725	-1.412071	-17.1429	-1.440442	-3.98386	-0.655856	0.442182	-0.225129
-1.263997	2.574304	17.988576	-65.852316	-274.306794	-63.592163	0.530132	0.161058	-0.650573	-0.085684	-0.151705	10.033818	8.389399	-5.475902	-2.139586	-0.996649	0.10807	0.090059	9.881855	0.443283	-0.935473	-21.230369	-2.176319	-5.303948	-0.657655	0.432676	-0.19095
-4.285472	1.883116	18.909172	-31.087932	-282.86431	-56.61279	0.516614	0.217071	-0.691204	0.532835	0.190378	9.927161	7.680595	-5.295991	-1.453287	-1.01466	0.090059	0.084055	9.603225	0.21358	-0.656695	-25.472559	-1.998043	-2.272349	-0.631395	0.442808	-0.155277
-6.984113	0.956769	18.737587	-11.267042	-291.353528	-41.056132	0.450765	0.214863	-0.749677	0.418581	-0.496485	9.749206	6.346591	-4.557438	-0.832052	-1.008656	0.10807	0.078051	10.062935	0.387411	-0.418528	-29.992246	-1.265725	2.427035	-0.713313	0.435591	-0.129249
-9.930094	-0.493976	17.635136	-3.659011	-295.07328	-14.897885	0.38556	0.192018	-0.770724	0.354796	-0.610189	9.335321	5.717712	-4.194487	-0.724105	-1.01466	0.096063	0.072047	9.271132	0.50611	-0.148309	-31.929357	-0.488611	8.331953	-0.695898	0.471301	-0.207719
-12.307601	-1.075195	16.314951	-22.619658	-289.964389	16.077672	0.375386	0.204502	-0.700187	0.52476	-0.381632	9.397175	5.077369	-4.70876	-0.486581	-1.01466	0.090059	0.090059	8.710163	-0.359621	0.179038	-31.098794	-0.319559	12.094295	-0.676777	0.451988	-0.199334
-14.814893	-0.548127	17.190954	-47.869481	-278.433113	44.169635	0.369223	0.21126	-0.809147	0.309079	-0.954687	9.865845	6.378534	-4.80562	0.294318	-1.026668	0.096063	0.084055	8.825506	0.045952	0.297315	-27.162841	-0.83713	11.02645	-0.706635	0.422844	-0.166647
-16.235407	0.151593	17.915649	-60.754663	-264.344815	65.870574	0.309919	0.221807	-0.777923	0.696726	-0.095986	9.576928	6.955723	-5.248239	0.553987	-1.008656	0.102066	0.066043	8.369175	-0.12709	0.230424	-21.168717	-0.922088	7.298834	-0.67545	0.442986	-0.194711
-18.077458	1.255626	17.65047	-59.650094	-247.517797	80.475053	0.244715	0.198961	-0.798971	0.47802	-0.382376	9.92709	10.011773	-5.277711	-0.733338	-1.020664	0.096063	0.084055	8.704293	0.334085	-0.046176	-14.311471	-2.023629	2.590086	-0.713267	0.467856	-0.189766
-19.052582	1.953224	17.690531	-52.956782	-224.226225	88.487658	0.229525	0.276739	-0.895188	0.078548	-0.552654	9.683787	10.455784	-5.768718	-0.62645	-1.026668	0.096063	0.084055	8.488909	0.337431	0.577333	-9.819861	-3.391721	1.48374	-0.709242	0.473113	-0.236412
-22.558977	1.955919	17.331735	-40.486312	-192.262143	94.854718	0.260789	0.21987	-0.817238	1.532182	0.761757	9.060703	9.13071	-6.832461	-1.20279	-1.01466	0.090059	0.084055	8.131584	0.855764	-0.169257	-9.724761	-4.508091	2.458266	-0.712794	0.486365	-0.22857
-24.44321	2.938696	14.92713	-23.772374	-155.625334	100.304149	0.246507	0.236859	-0.81934	1.08727	-0.211256	9.289736	9.929916	-6.977982	0.304031	-1.026668	0.090059	0.078051	7.964702	0.567412	-0.002674	-10.277181	-4.780514	3.837919	-0.695426	0.48981	-0.246523
-24.775816	2.875342	12.608684	-20.821058	-120.771121	105.487949	0.184766	0.230146	-0.805172	-0.580425	-1.182449	10.615867	16.38519	-7.544079	2.289053	-1.020664	0.084055	0.090059	8.364101	0.161341	0.00337	-9.814192	-5.274031	6.512688	-0.692346	0.458049	-0.215561
-24.459785	2.581301	11.169474	-17.23839	-90.567667	109.731864	0.239961	0.224104	-0.909036	0.860723	-0.783296	9.168405	13.189643	-9.935433	1.850079	-1.020664	0.090059	0.066043	8.357787	0.507405	-0.280513	-9.167957	-5.325274	8.444145	-0.646492	0.467377	-0.210308
-23.055077	2.86649	9.695563	-13.494374	-64.605367	110.89322	0.198021	0.214283	-0.82123	0.358866	-0.152357	9.62951	20.635388	-9.467278	2.320259	-1.032672	0.090059	0.096063	8.81446	0.506758	-0.214411	-6.124608	-4.895801	10.958416	-0.695898	0.471301	-0.207719
-25.927191	29.774141	22.475606	-155.137121	38.169155	91.736096	0.247534	0.235732	-0.80118	0.310933	0.247946	10.158714	17.20954	-15.953018	7.096815	-1.038676	0.090059	0.084055	8.98744	-0.014388	-0.156306	-1.326772	-5.355683	12.921633	-0.67763	0.4795	-0.242762
-22.015616	5.652656	10.185363	103.830428	54.751868	37.810061	0.278273	0.259164	-0.836609	0.235181	0.130251	12.162749	-1.478596	-21.33627	12.065955	-1.038676	0.090059	0.072047	9.619322	0.622798	0.201527	4.148765	-6.32741	14.839178	-0.681229	0.460487	-0.174402
-20.529523	9.764917	7.219777	162.741804	70.343076	16.665786	0.24266	0.201214	-0.835291	0.550221	0.188754	10.871164	-3.39605	-32.182374	19.257593	-1.038676	0.102066	0.078051	9.963689	0.391055	0.321417	7.720304	-8.240388	16.645968	-0.695898	0.471301	-0.207719
-19.069878	18.808153	3.167588	103.048118	106.049129	-77.861533	0.255271	0.205989	-0.888773	0.430087	0.017928	10.456294	-15.6387	-36.96523	23.597903	-1.068696	0.090059	0.090059	10.022987	0.912798	0.496186	11.290841	-9.883243	16.76442	-0.680329	0.46524	-0.191492
-7.009626	15.177252	-5.038578	78.974181	130.61217	-162.845243	0.2873	0.188144	-0.849353	0.251196	-0.496177	9.863946	-30.164117	-45.158325	21.40678	-1.056688	0.10807	0.084055	10.711267	0.680899	0.737018	12.765933	-9.880145	13.652802	-0.731962	0.473413	-0.176437
8.037353	4.351227	12.687953	-156.66774	150.98351	-157.570736	0.254124	0.147453	-0.830979	1.174301	-1.703466	10.709466	-68.09983	-56.131615	18.219962	-1.074699	0.10807	0.072047	11.115387	0.739313	1.030626	9.716546	-8.285784	6.901609	-0.711468	0.477362	-0.223946
-7.43688	-1.124721	21.844267	-37.144145	143.072493	-128.637041	0.248299	0.274756	-0.839709	0.221611	4.297375	21.297105	-95.753891	-68.296331	7.074167	-1.080703	0.120078	0.048031	11.274955	0.736343	0.463083	4.488289	-8.433957	0.117759	-0.679856	0.483749	-0.230296
-12.806513	8.491478	11.87827	218.342652	111.296362	-72.990184	0.278273	0.259164	-0.836609	1.701435	-1.711834	14.789171	-3.708847	-111.182184	1.038673	-1.092711	0.126082	0.060039	12.75333	1.25419	0.437639	3.202842	-11.846248	-8.496296	-0.713694	0.481611	-0.21148
-7.377474	4.884331	10.64845	62.582406	57.320785	29.023758	0.334376	0.192333	-0.846358	0.779893	-1.769884	16.894806	-78.062032	-118.062477	-10.297461	-1.092711	0.126082	0.072047	13.30596	2.349667	-0.288302	3.641628	-16.1472	-15.673771	-0.745732	0.48898	-0.226844
0.015844	-3.069749	12.799124	-10.800275	23.096109	19.215651	0.252069	0.149706	-0.867299	0.986802	-1.544778	18.962666	-32.267653	-156.900419	-19.337838	-1.122731	0.126082	0.072047	14.394537	1.827752	0.016191	1.24982	-18.254458	-9.887499	-0.681183	0.492751	-0.234919
-0.766608	-0.867595	11.055132	80.125688	11.032751	-24.328571	0.319328	0.170299	-0.809932	-0.155371	-1.597545	18.292032	-51.601891	-183.020195	-30.263897	-1.122731	0.132086	0.066043	14.670369	1.187957	-0.494898	1.840224	-19.43484	4.089948	-0.715493	0.472105	-0.1773
-3.32576	5.102714	6.684269	53.707557	12.831256	-9.479039	0.332201	0.134924	-0.806725	0.428787	-2.861104	19.131135	-62.416615	-217.312318	-46.322876	-1.110723	0.126082	0.072047	14.832314	0.54839	-1.00824	4.39533	-20.379678	7.948619	-0.729736	0.469164	-0.188903
-1.252864	1.219312	9.779094	-22.917893	5.355711	13.610223	0.300817	0.132131	-0.808721	-0.284383	-4.636477	20.005158	-82.575374	-258.71692	-65.62406	-1.134739	0.120078	0.066043	13.92311	1.882879	-0.791846	4.300283	-20.394354	-3.551394	-0.715493	0.472105	-0.1773
-0.762092	-0.808994	11.286531	7.682891	1.612405	-6.95139	0.301965	0.190667	-0.866515	-1.441058	-2.745597	21.925994	-120.510707	-304.334243	-88.60393	-1.146746	0.13809	0.060039	12.380226	2.34807	-1.04852	-1.793299	-18.99624	-14.076998	-0.699024	0.470797	-0.178163
-1.401203	2.840706	8.161907	17.790192	-1.409179	-8.354705	0.316892	0.153039	-0.826987	-2.606001	-2.457688	23.14167	-126.849033	-355.283775	-108.441213	-1.158754	0.144094	0.048031	10.734957	2.121097	-0.796772	-3.801522	-15.147417	-16.991037	-0.666086	0.468181	-0.179889
-0.742419	1.566369	9.501145	-3.676499	-0.46724	0.811812	0.266352	0.132716	-0.865197	-4.672805	0.295609	24.866597	-115.178549	-385.603148	-114.834911	-1.164758	0.156102	0.066043	9.374291	1.951453	-0.53913	-5.344917	-12.47837	-16.418903	-0.730636	0.46441	-0.171813
-0.73637	1.218812	9.789381	-0.835738	0.520648	1.884999	0.27046	0.128211	-0.792557	-4.537016	4.708544	23.741037	-12.645344	-411.379184	-85.637446	-1.176766	0.156102	0.060039	8.133928	1.956847	0.064106	-11.957905	-11.136795	-15.29268	-0.748477	0.442456	-0.115057
-0.738292	2.031269	9.733522	0.803237	0.131331	2.410679	0.3151	0.115141	-0.806618	5.236591	-0.813978	19.750846	28.536401	-418.229347	-62.246443	-1.212789	0.168109	0.072047	8.193909	2.131211	0.237297	-19.457096	-12.064565	-14.791509	-0.699497	0.452288	-0.13936
-1.032177	0.927758	9.320449	-6.7928	0.890496	4.517129	0.300173	0.152769	-0.846145	5.771976	-4.306764	17.584899	34.667824	-396.672983	-61.951798	-1.212789	0.144094	0.060039	7.621211	2.073664	0.054496	-25.011489	-15.905194	-10.480787	-0.733761	0.463906	-0.142258
-0.626611	1.682483	9.561525	-7.95086	0.911993	5.217858	0.288065	0.227168	-0.887882	0.194718	-4.92163	18.36344	66.24272	-379.052795	-68.67953	-1.248813	0.13809	0.090059	8.420897	1.956804	0.183922	-28.87063	-21.055328	-1.175827	-0.699024	0.470797	-0.178163
-0.904939	1.04527	9.958977	-6.92446	2.570389	5.811653	0.302992	0.18954	-0.848354	0.265229	-6.69357	15.772753	88.534658	-377.481936	-72.667307	-1.248813	0.132086	0.096063	8.930121	1.897095	0.022519	-27.629752	-25.255662	4.127649	-0.699924	0.466044	-0.161073
-0.842978	1.045773	10.191379	-10.042553	2.728004	7.145213	0.297736	0.135509	-0.863201	-1.547771	-5.938003	12.551738	63.987469	-370.386089	-66.123972	-1.272828	0.132086	0.126082	8.99157	1.898033	0.252014	-21.018582	-26.335629	-0.18538	-0.748431	0.474721	-0.175574
-0.492767	0.87201	10.486891	-7.274762	2.693358	6.527911	0.316892	0.153039	-0.826987	-12.660654	-6.526255	7.266945	-0.604741	-306.061242	-68.119686	-1.266825	0.126082	0.144094	8.934513	1.956043	0.25115	-13.428907	-25.747133	-10.802019	-0.697698	0.461795	-0.173539
-0.508658	0.753968	9.677205	-3.978033	2.911327	4.380419	0.301844	0.131004	-0.790561	-31.634339	-5.538812	-1.238556	-16.699473	-176.758311	-74.419417	-1.278832	0.132086	0.150098	9.838279	2.242128	-0.072068	-5.103497	-23.870788	-18.783913	-0.782741	0.454074	-0.117955
-0.734893	0.870695	9.846357	-4.259962	2.325057	5.035358	0.283071	0.132987	-0.846039	-29.512563	-7.781756	0.103613	-10.188513	-17.004203	-63.227669	-1.29084	0.120078	0.174113	10.699868	1.89462	0.285801	0.882516	-19.607317	-16.097757	-0.7649	0.476029	-0.174711
-0.613593	1.219678	10.19637	-3.22203	1.395127	5.736487	0.301844	0.131004	-0.790561	-22.357665	-5.176745	5.544789	30.910728	126.301573	-55.061701	-1.29084	0.120078	0.162106	11.103556	1.026166	0.461018	3.571521	-11.344324	-4.83566	-0.764	0.480782	-0.191801
-0.966788	0.928681	9.726295	0.82566	2.381269	6.842053	0.328475	0.158941	-0.898629	-20.274731	-4.953171	5.171588	42.564211	179.663844	-54.905668	-1.260821	0.120078	0.174113	11.277674	-0.073943	0.516495	4.531077	0.042047	5.090239	-0.737314	0.477158	-0.134415
-2.753934	1.045513	9.286439	-1.683348	0.129521	0.575028	0.253097	0.148579	-0.849139	-16.220603	-5.307674	4.365433	59.59729	201.561764	-56.253227	-1.248813	0.120078	0.156102	10.072161	0.852948	0.097404	11.083731	11.502363	4.309172	-0.71682	0.481107	-0.181924
0.941381	1.451046	10.516863	-1.277454	2.711255	2.443865	0.317919	0.151913	-0.808827	-13.63025	-5.02824	3.942909	64.371307	215.551674	-59.363247	-1.260821	0.114074	0.156102	9.46269	0.278915	0.881677	17.515051	21.459321	-4.756829	-0.748858	0.488476	-0.197288
0.823343	1.27661	10.340714	1.619566	4.480794	4.831337	0.311636	0.099008	-0.841834	-12.583481	-4.685287	2.546943	51.660354	230.156157	-59.540836	-1.248813	0.114074	0.168109	8.901357	0.745327	1.329255	12.856164	27.08204	-15.953918	-0.755536	0.501224	-0.15989
-0.043195	1.276745	10.034495	6.899633	4.56236	4.34246	0.285125	0.130734	-0.809719	-11.439518	-3.77354	3.452054	25.784502	251.448254	-55.130842	-1.242809	0.084055	0.150098	8.663777	1.148954	0.869852	2.268648	30.856005	-23.13347	-0.715066	0.458349	-0.155586
-0.568666	1.102	9.561271	8.172681	5.528773	3.221183	0.300052	0.093107	-0.770191	-10.787718	-3.663672	5.115809	1.978092	273.757658	-46.371342	-1.230801	0.102066	0.150098	8.040223	0.861249	0.970334	-9.142182	32.085947	-28.851569	-0.75023	0.465214	-0.141395
-0.336716	0.985972	9.681193	7.70995	6.118775	3.775929	0.313308	0.077244	-0.786249	-9.964463	-3.096281	6.959012	-14.602182	295.389307	-34.147143	-1.206785	0.084055	0.13809	7.30897	0.864831	1.41243	-17.718226	31.212502	-30.83509	-0.714167	0.463103	-0.172676
-0.846797	1.451653	10.018913	9.197256	7.00014	3.990694	0.312663	0.097882	-0.823673	-8.746999	-2.415396	8.750618	-28.062153	313.433123	-20.691554	-1.200782	0.090059	0.144094	7.535958	0.690423	1.359054	-19.003816	28.727454	-31.67143	-0.682982	0.483245	-0.20074
-0.67795	1.334981	9.848618	5.454782	7.132908	3.810068	0.31228	0.07837	-0.804409	-6.454301	-2.196089	10.563683	-42.384728	326.889424	-8.582319	-1.194778	0.102066	0.132086	7.697437	0.861668	0.906484	-19.94417	23.405325	-30.971843	-0.700824	0.461291	-0.143983
-0.634	1.043035	9.155285	3.966914	6.924169	3.959101	0.326301	0.101531	-0.858996	-3.770312	-1.97757	12.148354	-52.687189	335.665306	0.050616	-1.164758	0.090059	0.120078	8.375455	1.264527	0.69347	-20.728372	17.419865	-26.738365	-0.763101	0.485535	-0.208891
-0.905439	1.567654	9.960234	-3.163787	7.04674	4.378117	0.358067	0.123836	-0.876264	-2.908159	-1.695085	12.990148	-58.797949	339.035749	5.835216	-1.164758	0.096063	0.120078	8.202372	1.264342	0.575907	-18.624854	12.599106	-20.130621	-0.714594	0.476858	-0.19439
-0.623182	1.682902	9.73497	-7.321488	6.790742	4.160841	0.360504	0.141096	-0.859209	-1.523373	-1.358162	14.608623	-65.379747	337.381848	10.572786	-1.134739	0.096063	0.102066	8.830444	0.973872	0.644074	-13.049408	8.842248	-12.122082	-0.731535	0.459657	-0.154724
-0.739157	1.740916	9.675009	-15.663621	6.308607	3.850397	0.362296	0.178993	-0.879578	0.072447	-1.077792	15.405544	-73.82778	330.159115	15.082672	-1.158754	0.102066	0.096063	8.377264	0.917411	0.748985	-5.175225	7.801244	-7.651197	-0.682509	0.501754	-0.239543
-0.852401	1.334868	9.729559	-19.576377	5.563507	2.873785	0.352887	0.230501	-0.84757	0.78718	-0.567758	17.482676	-84.848081	320.78652	21.123829	-1.122731	0.096063	0.090059	8.884111	1.4943	0.533382	4.205047	6.814588	-5.58981	-0.682982	0.483245	-0.20074
-0.625245	1.450452	9.618781	-25.084447	5.150229	3.293356	0.351477	0.212116	-0.846465	0.892088	-0.400619	20.138466	-88.099683	311.666327	31.409056	-1.134739	0.102066	0.096063	8.994175	1.145642	0.305688	11.686136	3.516532	1.989675	-0.72841	0.460161	-0.184279
-1.074483	0.69746	10.070339	-22.664367	5.084279	1.093945	0.320093	0.209323	-0.848461	1.478633	0.45483	21.445813	-76.835795	301.122903	47.499543	-1.128735	0.114074	0.102066	9.387044	0.622201	-0.031347	18.095935	-1.005215	16.809216	-0.696798	0.466548	-0.190629
-1.139873	0.696537	9.664493	-18.615568	5.038617	1.056933	0.324322	0.26448	-0.851775	3.709272	1.07576	23.02108	-59.731975	289.94136	69.727337	-1.104719	0.120078	0.084055	8.808499	0.099906	-0.558804	21.091321	-4.761018	32.906746	-0.746205	0.470472	-0.18804
-1.136388	0.638914	9.837797	-9.426927	5.257977	0.908623	0.305166	0.24695	-0.887988	6.083645	0.152126	22.950343	-44.015965	278.140374	95.32651	-1.086707	0.132086	0.090059	8.588951	-0.071488	-0.164453	22.606829	-7.679351	40.872311	-0.750657	0.47897	-0.163108
-0.721177	0.872372	10.540134	-10.581705	5.183405	1.880354	0.291791	0.203151	-0.795977	8.83335	-0.885357	21.766412	-42.350937	273.822177	117.7418	-1.080703	0.132086	0.066043	8.74738	0.504506	-0.729367	22.458064	-10.332746	35.764966	-0.718573	0.503865	-0.208261
-0.784447	1.045857	10.250337	-7.307718	5.800755	2.164035	0.318301	0.171425	-0.828092	12.313633	-1.981943	20.360709	-44.058514	271.454481	132.529577	-1.086707	0.13809	0.084055	8.871858	0.275058	-0.214337	18.180748	-9.856415	26.923569	-0.732389	0.487168	-0.198151
-0.907503	1.335204	9.844046	-6.818532	6.933525	1.67942	0.305811	0.226312	-0.850564	15.397767	-2.905458	18.947094	-59.336474	265.055103	136.933578	-1.074699	0.120078	0.072047	8.98182	-0.594929	-0.501488	11.934092	-8.83491	16.865901	-0.734615	0.491418	-0.185685
-0.72405	0.291526	10.365292	-4.425216	7.395049	1.549804	0.307865	0.224059	-0.814244	19.867369	-3.721219	19.152361	-74.883424	255.743394	128.56852	-1.074699	0.150098	0.066043	8.425208	0.335968	0.233654	5.591871	-6.208106	7.993452	-0.731062	0.478166	-0.193527
-1.138229	0.174293	9.72105	-1.118938	8.481323	1.240791	0.309275	0.242445	-0.815348	23.307836	-4.590088	18.689167	-72.322615	239.146717	108.922304	-1.056688	0.126082	0.048031	8.093025	-0.472059	0.622861	0.816734	-2.377972	6.074503	-0.728836	0.473917	-0.205993
-0.376959	0.988124	10.547271	3.980739	9.537128	-0.365033	0.336692	0.14993	-0.753349	26.084913	-4.594042	16.088492	-67.015257	212.523589	81.520621	-1.062692	0.144094	0.042027	7.741331	0.047588	0.161732	-2.143093	1.433484	8.998025	-0.75241	0.501728	-0.189446
-0.730432	0.987339	10.077895	1.974056	11.641817	-1.789407	0.335785	0.210719	-0.847463	26.537744	-2.986617	13.322421	-79.722568	178.991542	52.192181	-1.062692	0.150098	0.042027	8.377047	0.453977	0.68979	-8.206109	4.487598	12.870478	-0.734615	0.491418	-0.185685
-0.618584	0.464425	9.905479	-5.519851	14.731832	-3.806841	0.286917	0.168632	-0.830088	26.637659	-1.496542	12.849954	-99.133108	137.863215	27.153751	-1.032672	0.144094	0.024016	8.668976	0.2234	1.036923	-11.039686	7.113529	17.320651	-0.763574	0.467026	-0.170088
0.21028	2.556536	11.314066	-13.909593	23.411463	-12.173959	0.332201	0.134924	-0.806725	26.06897	1.140208	13.070419	-107.137908	91.186262	7.271814	-1.008656	0.168109	0.018012	8.778904	1.091093	0.928934	-10.765609	8.838717	23.123372	-0.753783	0.478466	-0.133552
0.092965	1.627545	11.1361	-39.684163	34.238991	-10.627618	0.318301	0.171425	-0.828092	24.426687	3.321958	13.212049	-102.686693	44.285783	-5.50929	-1.020664	0.156102	0.03002	8.563303	0.631005	1.493248	-11.229348	10.445793	28.007287	-0.701204	0.507311	-0.226214
-1.31238	3.199862	12.672297	-43.987434	52.084025	-17.004062	0.33643	0.190081	-0.810038	22.21759	4.58914	13.108436	-88.147786	2.097977	-12.638524	-1.020664	0.162106	0	9.41553	1.034311	1.45489	-10.679074	12.012371	30.267521	-0.73864	0.486161	-0.139039
-0.213322	2.728399	10.208004	-37.727172	62.927195	-18.174368	0.305046	0.187288	-0.812034	19.666733	5.284826	12.763318	-58.154621	-34.184161	-16.829584	-1.002653	0.168109	0.018012	9.759112	0.628616	1.516899	-8.588422	12.248884	32.59744	-0.770206	0.512038	-0.193207
-0.771034	2.556783	11.005562	-70.155863	74.807175	-19.84896	0.366022	0.154976	-0.787673	16.979868	4.207427	10.885169	-28.02669	-55.074874	-19.327198	-0.996649	0.186121	0	10.670546	0.453107	1.534131	-3.724086	9.56376	33.847926	-0.735469	0.518929	-0.229112
-0.251515	2.737873	14.079308	-79.751501	91.049303	-17.731559	0.354176	0.189225	-0.77272	-3.248909	-12.257264	60.302955	-12.68084	-55.378895	-24.634043	-1.026668	0.168109	0.006004	10.782976	0.047079	1.420359	2.343006	5.173512	33.309561	-0.737695	0.523178	-0.216646
-0.737511	1.929409	15.570248	-53.459683	98.66278	-1.3594	0.340276	0.225726	-0.794087	9.979259	1.582893	16.888939	480.974114	-263.467354	4.334106	-1.038676	0.174113	0	10.618449	0.280583	1.760584	10.500329	0.78929	29.968825	-0.75459	0.538242	-0.237497
-0.723922	1.111306	13.314659	-58.857755	119.255577	1.081413	0.364305	0.277774	-0.723763	-5.780585	-5.061538	9.873796	-24.485607	-124.501089	51.948947	-1.020664	0.150098	0.024016	10.396535	0.16656	2.041014	16.416026	-5.158138	22.707167	-0.787528	0.540857	-0.235771
-0.810345	1.347081	14.758301	-71.318439	138.606311	13.846319	0.403689	0.210674	-0.752671	-9.714912	1.102468	-3.364735	304.209994	-275.164092	28.903738	-1.050684	0.168109	0.012008	10.789279	0.280242	1.763963	21.655363	-11.030764	16.021	-0.720799	0.508115	-0.195795
-0.560693	0.652722	15.744047	-61.788709	157.553062	22.282554	0.40818	0.225681	-0.699295	2.907687	7.524735	5.064966	61.098888	-262.181945	64.507138	-1.056688	0.144094	0.03002	10.83992	0.046965	1.421485	23.4802	-15.922605	12.657751	-0.771105	0.507285	-0.176117
-0.318708	-0.390871	16.324252	-53.819568	178.887143	28.103544	0.446229	0.30089	-0.683557	1.908068	2.652534	8.297958	-6.108705	-267.184611	58.906297	-1.074699	0.126082	0.03002	10.843856	0.337499	1.651168	24.315717	-18.851066	6.246379	-0.787574	0.508593	-0.175254
-0.190605	0.016993	17.021293	-47.143676	204.603293	35.999702	0.427718	0.262722	-0.682346	6.284767	4.16824	19.172659	-24.188089	-234.38942	28.149334	-1.074699	0.144094	0.024016	10.78375	0.800258	1.53796	27.326653	-19.226279	-7.277899	-0.771578	0.488776	-0.137313
0.825921	0.253248	19.122614	-44.765158	236.969492	41.337121	0.494594	0.263803	-0.605714	6.687939	2.73954	16.292882	77.298591	-186.913973	-40.332419	-1.110723	0.132086	0.03002	10.947459	2.130482	1.319016	27.961324	-16.65083	-27.521686	-0.755063	0.519733	-0.198693
1.60244	0.662597	20.69945	-34.221221	271.08721	37.780328	0.491393	0.20752	-0.58424	-0.333325	-3.127387	8.382745	63.836614	-97.799354	-71.847648	-1.110723	0.144094	0.018012	11.681396	3.054294	1.109495	20.066461	-8.508511	-43.873538	-0.772005	0.502532	-0.159027
2.134405	0.025443	21.459792	-15.542315	308.546194	30.988679	0.512723	0.282459	-0.58766	-0.090386	-2.962924	12.397712	48.429642	-46.769881	-19.997603	-1.098715	0.126082	0.036023	11.783338	3.398816	0.542403	4.449384	2.847805	-49.941367	-0.784921	0.490588	-0.166006
1.397862	-1.540008	21.845863	6.657829	340.875721	23.077707	0.558389	0.268263	-0.583562	1.197625	-0.039517	9.173605	83.257209	-39.659268	3.238157	-1.110723	0.10807	0.042027	12.547894	2.810374	-1.157223	-10.238138	13.751118	-35.039352	-0.750657	0.47897	-0.163108
-1.273999	-1.541361	20.174473	35.825836	367.288461	12.985974	0.579217	0.264028	-0.491763	1.105139	0.364949	7.283802	22.836282	-29.987764	-16.38342	-1.098715	0.120078	0.036023	12.855106	1.99073	-2.981095	-18.54521	21.182853	10.623287	-0.735515	0.486664	-0.168595
-3.110139	0.550236	20.258558	63.41158	370.209953	4.565759	0.597346	0.282684	-0.47371	0.099002	-1.585542	10.629617	-3.378298	-25.875632	-24.254145	-1.098715	0.102066	0.042027	12.664459	1.754754	-4.013184	-23.928125	27.450813	58.674787	-0.740347	0.541183	-0.225894
-2.921684	-1.89309	18.060299	86.607239	367.474315	-5.295969	0.675806	0.289667	-0.46872	1.113094	-1.588305	10.472176	9.317793	-12.700068	-3.2857	-1.092711	0.120078	0.03002	10.433967	2.683693	-4.452547	-19.108318	31.300618	67.539975	-0.740394	0.508919	-0.165377
-1.565624	-1.425556	19.937778	109.506782	362.409614	-6.261749	0.693169	0.269299	-0.412137	0.785518	0.020491	8.280894	15.96022	-12.482855	-3.884074	-1.086707	0.084055	0.036023	9.079034	3.036693	-3.849986	-14.970931	32.565803	26.954306	-0.756816	0.542491	-0.225031
-3.271896	-1.719326	17.764787	153.882689	344.614498	-15.104952	0.729689	0.266461	-0.319341	0.466813	-0.266776	9.336885	-0.205404	-9.348772	-7.236769	-1.092711	0.114074	0.03002	8.805364	2.576456	-3.343891	-7.576193	34.570513	-13.270555	-0.789374	0.499087	-0.141074
-3.859357	-3.055568	16.998551	172.008554	330.817451	-21.785226	0.712205	0.227166	-0.29997	0.24393	-0.610051	9.451148	-7.58811	-4.765772	-4.511012	-1.080703	0.10807	0.048031	8.886641	2.234484	-2.145406	-0.847349	34.684927	-29.846094	-0.722125	0.517117	-0.200419
-1.807796	-3.52373	16.286988	173.689827	320.845787	-35.281718	0.738715	0.195441	-0.332085	0.646385	0.01816	9.929639	-5.197466	-3.896913	-3.460508	-1.098715	0.096063	0.048031	9.594294	1.891261	-0.934533	5.583815	33.002969	-24.664255	-0.771105	0.507285	-0.176117
-2.581517	-5.899347	17.652812	183.856493	303.69856	-33.568548	0.729569	0.206798	-0.243387	0.752329	-0.153347	9.519116	-4.580335	-2.352948	-2.580383	-1.098715	0.102066	0.054035	11.226316	2.244392	1.039713	15.801837	30.897718	-4.28149	-0.770632	0.525794	-0.21492
4.189933	-2.669328	12.131947	189.150441	264.424451	-21.647736	0.788873	0.196251	-0.27461	0.818053	-0.326207	9.992508	-2.53114	-2.028212	-1.552386	-1.086707	0.090059	0.054035	12.040302	2.304639	1.912125	21.931779	28.315294	15.935789	-0.737222	0.541687	-0.25545
34.374874	-18.319656	-14.235692	233.91323	151.224818	-0.711145	0.763389	0.226851	-0.224335	0.584433	0.018838	9.633552	-1.245735	-1.766747	-1.644151	-1.086707	0.102066	0.036023	14.158932	1.492246	2.463946	14.47062	24.293898	20.576359	-0.702531	0.516313	-0.230838
7.84172	0.452137	8.398012	-26.381707	6.476395	17.314262	0.760953	0.209591	-0.241391	-0.374013	-0.780358	9.6165	-3.652385	-0.498693	-1.351714	-1.080703	0.102066	0.048031	14.743825	-0.069203	3.096125	-3.168445	19.499874	13.008163	-0.70561	0.548074	-0.261799
14.091986	-7.1661	4.978733	97.812619	-92.307514	26.624536	0.792981	0.191746	-0.20197	0.592316	-0.44011	9.988365	-8.007409	0.731035	-2.288895	-1.086707	0.096063	0.054035	12.526189	0.051815	3.224003	-12.691316	14.222379	-4.781955	-0.75639	0.528735	-0.203317
12.043854	-6.697519	5.86374	40.226818	-141.458469	38.901772	0.794511	0.269794	-0.279029	1.484505	-0.384428	9.356648	-8.433376	0.357556	-0.783047	-1.098715	0.10807	0.036023	11.039122	0.51663	2.911363	-8.41364	10.611159	-22.170738	-0.693594	0.555264	-0.23773
9.036225	-4.897957	4.710156	61.959025	-155.252274	55.851783	0.756462	0.194585	-0.294766	1.211368	0.818347	10.057085	-12.998262	1.127551	-1.680268	-1.086707	0.096063	0.054035	9.86656	1.611576	1.295252	-0.718746	6.698655	-24.638585	-0.721652	0.535626	-0.239223
8.400483	-3.569825	1.637758	41.590919	-161.15388	63.521045	0.804565	0.197648	-0.273612	0.073392	-1.010384	9.330598	-12.130694	1.640307	-0.90631	-1.080703	0.096063	0.048031	9.392994	1.60828	0.372767	10.391319	2.71619	-19.531288	-0.708736	0.54757	-0.232243
7.937533	-1.944465	1.516897	-6.647688	-173.004081	67.329303	0.799691	0.163129	-0.307723	1.089251	-1.242419	9.232563	-12.896662	1.491483	-0.424447	-1.080703	0.102066	0.060039	9.439801	1.605801	-0.139936	17.227807	-1.174377	-13.868059	-0.70433	0.506807	-0.196658
7.676467	-0.315637	2.902649	-41.374235	-189.248995	62.13823	0.787201	0.218016	-0.330195	-0.934222	-0.263631	9.958721	-12.208195	1.632199	-1.274864	-1.080703	0.10807	0.03002	9.100519	0.969886	-0.092493	19.605934	-5.192888	-9.510574	-0.720326	0.526623	-0.234599
7.604822	1.199034	5.158772	-56.394804	-208.078268	47.569602	0.759588	0.090172	-0.359781	0.580193	-0.381701	9.339261	-11.132286	1.008241	-1.50852	-1.080703	0.090059	0.036023	8.926538	0.853646	-0.267674	19.365666	-7.348974	-6.892645	-0.70433	0.506807	-0.196658
6.953439	1.668654	7.054062	-46.755055	-227.025913	27.337042	0.776045	0.130593	-0.397312	0.246679	-0.438479	9.627844	-7.86295	-0.332437	-1.126178	-1.086707	0.10807	0.042027	8.455895	1.082724	-1.01783	18.13886	-8.546589	-5.678624	-0.737695	0.523178	-0.216646
6.173062	2.659093	8.254546	-21.835205	-243.132552	5.973306	0.756507	0.093551	-0.414261	0.359335	0.420364	9.746495	-5.134712	-0.792503	-2.243809	-1.074699	0.102066	0.048031	7.99945	0.967578	-1.084458	15.061868	-7.523872	-4.89307	-0.723452	0.526119	-0.205043
4.388758	2.195778	7.928922	0.57959	-256.709001	-8.502319	0.784165	0.120361	-0.50417	0.251707	-0.668054	9.864251	-0.637923	-3.327996	-1.426436	-1.074699	0.114074	0.042027	8.229931	0.736064	-0.96682	9.431135	-5.764488	-4.260672	-0.740347	0.541183	-0.225894
3.371898	2.307779	5.828439	-5.659974	-265.11834	-16.30844	0.739908	0.152943	-0.509373	0.303539	-0.553234	9.629133	2.664127	-4.336995	-1.456664	-1.080703	0.10807	0.036023	7.942291	0.504258	-1.14478	3.184474	-3.656954	-4.893667	-0.70433	0.506807	-0.196658
2.298415	1.382109	6.613893	-34.575078	-269.647282	-20.60463	0.722806	0.133161	-0.509267	0.524525	-0.667993	9.338682	5.141818	-5.710468	-2.160201	-1.068696	0.10807	0.042027	7.656221	0.620357	-1.206977	-2.414988	-2.125678	-5.387479	-0.735895	0.532684	-0.250826
2.099446	1.676318	8.171019	-58.163189	-273.439995	-19.16073	0.718698	0.137666	-0.581907	0.308568	-0.78281	9.86554	7.703157	-6.358298	-2.542095	-1.092711	0.10807	0.054035	7.935874	0.328992	-1.488121	-6.477602	-0.442903	-6.54943	-0.722552	0.530873	-0.222133
1.456509	1.682576	10.469894	-71.024112	-278.753227	-19.714949	0.717671	0.138792	-0.600067	0.248576	0.019556	9.804032	9.252501	-6.432958	-4.117546	-1.092711	0.090059	0.054035	7.942404	0.446362	-1.145042	-10.691058	0.043032	-7.715027	-0.737695	0.523178	-0.216646
1.152662	2.384452	12.546045	-72.960033	-285.959261	-22.440118	0.663022	0.122974	-0.710917	-0.261762	-0.150584	9.676557	10.424044	-7.254655	-4.800038	-1.092711	0.096063	0.036023	8.056871	-0.422575	-1.203825	-13.796446	-0.113593	-10.083216	-0.738594	0.518425	-0.199556
0.793237	2.390012	14.67719	-61.492351	-292.799347	-26.263393	0.707662	0.109905	-0.724978	-0.252174	-1.182457	10.032385	16.111993	-8.381718	-3.348391	-1.110723	0.096063	0.036023	8.740179	0.155287	-1.130589	-16.808417	-0.705445	-11.951449	-0.771105	0.507285	-0.176117
-0.495663	2.220937	16.211481	-43.535568	-297.326533	-29.534715	0.672552	0.131129	-0.818879	0.237709	0.020571	9.214031	15.532732	-8.629098	-3.497728	-1.086707	0.084055	0.048031	9.24557	0.326375	-1.462217	-19.820882	-0.947157	-12.634942	-0.756816	0.542491	-0.225031
-2.833441	1.934822	16.915513	-30.408682	-298.112493	-29.08463	0.616876	0.116437	-0.947889	0.972335	-0.66895	9.111375	19.814536	-10.329882	-0.67199	-1.074699	0.090059	0.054035	9.42541	0.328137	-1.002101	-23.630867	-1.53167	-9.460895	-0.689614	0.528257	-0.223859
-5.858765	0.48852	17.603033	-28.732152	-296.199581	-23.545787	0.557955	0.146496	-0.93593	0.93595	-0.498831	10.230987	19.263843	-9.747889	-1.23273	-1.098715	0.090059	0.036023	9.718465	0.097823	-0.597876	-26.150516	-1.275732	-1.956307	-0.741247	0.53643	-0.208804
-9.231316	-0.319258	18.169604	-24.273512	-290.603066	-11.290614	0.458667	0.143749	-1.032719	0.581109	-0.32451	9.39816	17.394609	-8.919516	-0.122724	-1.092711	0.078051	0.060039	9.033462	-0.19082	-0.72689	-27.467576	-2.324543	7.756252	-0.755963	0.51498	-0.181604
-11.976026	-1.128066	18.575303	-25.400999	-279.39669	6.859817	0.393845	0.140415	-1.073031	-0.14018	-1.927295	9.858877	17.596126	-8.849473	0.152579	-1.110723	0.066043	0.060039	9.087925	-0.075667	-0.839422	-27.798812	-4.276709	17.219436	-0.755963	0.51498	-0.181604
-14.978667	-0.953281	17.591251	-31.93388	-264.580053	28.191886	0.345097	0.15799	-1.13161	1.319804	-0.5562	9.589693	13.910643	-8.79167	1.989942	-1.104719	0.090059	0.066043	8.938153	0.103358	0.242738	-25.055655	-6.740169	22.398589	-0.723452	0.526119	-0.205043
-17.379129	-0.485345	18.064696	-41.491102	-246.150107	50.051835	0.286558	0.207561	-1.138915	1.892648	-1.303214	9.89688	12.314272	-7.619582	1.690494	-1.116727	0.066043	0.048031	8.592671	-0.244389	0.006035	-21.638803	-8.786851	20.69064	-0.775558	0.515783	-0.151185
-19.232919	-0.253489	17.161459	-43.407279	-225.984562	69.663521	0.221353	0.184715	-1.159963	1.082306	0.361972	9.111721	12.370631	-6.318348	-1.751148	-1.098715	0.084055	0.054035	8.945832	-0.937462	0.523468	-15.457338	-10.222629	15.221683	-0.757716	0.537738	-0.207941
-20.288292	0.441369	16.044081	-44.528872	-204.750509	86.09188	0.19009	0.241585	-1.237913	-0.037623	0.135298	9.621395	13.752576	-7.618501	1.112925	-1.110723	0.090059	0.054035	8.38393	-0.181569	0.97236	-10.110247	-9.904214	8.545258	-0.679824	0.539697	-0.187323
-21.796079	1.31164	15.264868	-43.869501	-180.49739	96.51931	0.11022	0.216216	-1.241798	1.42006	0.819289	9.117429	12.653845	-7.431275	-0.936599	-1.086707	0.090059	0.060039	8.272512	0.282618	1.143487	-5.687164	-8.643468	3.676913	-0.730984	0.566378	-0.211072
-22.169986	2.353249	13.815156	-38.895103	-154.819785	107.025322	0.079098	0.173273	-1.187105	0.41219	0.19143	9.511987	16.239227	-8.601846	2.411934	-1.092711	0.096063	0.048031	8.389903	-0.353944	1.257032	-3.232206	-6.787456	2.484858	-0.721652	0.535626	-0.239223
-22.554878	2.929118	11.786179	-36.463312	-127.352407	110.817385	0.032787	0.208107	-1.228628	2.022115	-0.617771	10.900838	14.541929	-9.091083	1.855083	-1.098715	0.084055	0.066043	8.435697	-0.414583	0.686974	-0.560533	-5.301779	3.718736	-0.730984	0.566378	-0.211072
-22.280789	3.217517	11.15663	-36.745639	-103.79755	111.089031	0.027914	0.173588	-1.262739	0.475655	-1.413132	9.633916	14.279096	-9.517397	1.311934	-1.104719	0.084055	0.066043	8.429156	0.047274	0.403616	3.805173	-4.974093	5.936681	-0.775085	0.534292	-0.189988
-21.093116	3.562508	10.314249	-27.886705	-87.647308	110.533163	0.004484	0.201935	-1.176144	0.705632	-0.898689	9.93235	18.505404	-10.901826	2.336568	-1.104719	0.078051	0.060039	8.497487	-0.587334	0.91568	7.987869	-5.017116	10.272502	-0.793307	0.558358	-0.215463
-19.172471	4.427623	8.852023	-17.915703	-75.478116	106.179691	-0.046055	0.181612	-1.214354	0.652948	-0.727048	10.166959	21.559307	-12.894542	2.870344	-1.104719	0.072047	0.066043	8.998145	-0.301504	0.356209	11.832916	-5.30499	14.306279	-0.742574	0.545432	-0.213428
-15.644314	5.813704	7.480872	-4.255764	-69.848346	95.386165	-0.012235	0.201665	-1.195302	0.82142	-0.727457	10.111219	19.384761	-18.364473	5.68882	-1.122731	0.084055	0.054035	9.390206	0.159556	0.080735	15.12533	-5.98819	17.673366	-0.741247	0.53643	-0.208804
-17.388037	37.409857	63.060598	-188.885821	-14.626598	86.42673	-0.043619	0.198872	-1.197298	0.001944	-0.383887	11.687315	-1.967005	-28.69279	14.51652	-1.134739	0.090059	0.066043	9.728044	-0.189556	-0.142454	17.679239	-6.755515	17.827217	-0.732783	0.556872	-0.176892
-17.022512	4.588821	4.445281	320.200462	67.038269	-5.451816	-0.023818	0.195763	-1.12366	0.946476	-0.385262	10.820785	0.338025	-36.437734	17.365869	-1.128735	0.090059	0.054035	9.999916	0.038569	-0.763785	18.203726	-8.132026	11.898243	-0.72923	0.54362	-0.184735
-24.57055	23.444361	-2.074187	73.195545	148.347584	-88.33854	-0.015698	0.185532	-1.230518	1.901767	-2.907808	10.135723	-13.554132	-44.776016	22.619611	-1.146746	0.096063	0.036023	10.744331	0.791058	-0.460265	15.191031	-8.974697	6.274161	-0.779064	0.5613	-0.20386
8.705056	3.557996	-2.90442	-29.917878	186.94446	-136.812722	0.046305	0.152094	-1.187997	1.901554	-2.105917	10.252302	-36.450939	-50.237872	21.927523	-1.146746	0.10807	0.060039	11.02138	1.252083	-0.795084	10.240327	-9.196333	2.613143	-0.758616	0.532984	-0.190851
-1.776853	-4.797036	17.787098	-176.16925	186.086943	-124.574597	-0.015436	0.145381	-1.173829	0.401139	0.244629	11.988806	-73.816838	-62.705553	12.506169	-1.140742	0.114074	0.054035	11.770084	1.542189	-0.322391	5.350043	-9.114151	-2.889762	-0.777311	0.538542	-0.177522
-12.856143	4.450232	20.767391	80.34766	179.512825	-102.106008	0.05438	0.242896	-1.175359	-3.115549	2.58426	23.889959	-69.578553	-82.226551	-3.238755	-1.146746	0.114074	0.042027	11.988051	1.944906	-0.772783	0.066525	-10.901461	-0.429907	-0.761741	0.53248	-0.161295
-9.952463	9.009263	11.185085	116.342955	140.439421	-45.541571	0.067515	0.167371	-1.115463	0.821362	-2.909069	12.827998	-7.467285	-124.556368	-7.006992	-1.158754	0.10807	0.054035	12.391273	1.887264	-0.536794	0.692268	-15.895051	-4.133903	-0.794206	0.553605	-0.198373
-5.029462	-0.974477	13.050461	45.11081	71.764378	29.237576	0.075634	0.15714	-1.222321	0.661663	-0.399531	19.898118	-50.327972	-136.570317	-18.242323	-1.18277	0.114074	0.042027	13.179116	2.636485	-0.917254	0.607218	-19.980101	-13.91893	-0.743946	0.52217	-0.157534
0.335501	-2.376505	11.593548	58.062116	30.565932	14.43225	0.0962	0.193055	-1.187212	0.621606	-1.541319	17.540142	-23.57883	-173.126848	-24.033114	-1.188774	0.132086	0.03002	13.526316	1.536559	-0.744215	0.000152	-23.111918	-11.953207	-0.780436	0.538038	-0.147966
-0.022004	3.020821	11.194983	50.368542	18.1503	-11.442538	0.111389	0.115277	-1.090995	0.5303	-1.543009	18.717972	-54.071536	-201.34494	-35.152191	-1.200782	0.132086	0.042027	14.212001	1.477824	-0.616778	5.386746	-24.712976	-2.803123	-0.797378	0.520837	-0.1083
-1.923301	2.724423	7.862267	32.868321	21.17991	11.100431	0.127584	0.195848	-1.185216	0.372182	-4.292839	18.896585	-68.732686	-240.245456	-50.965764	-1.206785	0.126082	0.048031	14.153147	1.303722	-0.732877	12.891085	-25.03705	2.597102	-0.777357	0.506277	-0.117005
-0.771347	-0.694026	10.824292	-9.623451	15.032296	21.179149	0.120918	0.123432	-1.198957	0.374299	-3.553551	22.198188	-102.684858	-281.406331	-72.03861	-1.212789	0.126082	0.048031	13.074023	2.175381	-0.521965	12.55034	-24.290371	-0.511111	-0.775984	0.529539	-0.172898
-0.6622	0.408115	10.597974	20.365067	9.411954	-0.576255	0.119891	0.124558	-1.217117	-1.452117	-3.775541	21.160819	-95.259986	-335.238036	-89.589358	-1.218793	0.132086	0.042027	10.977588	2.587494	0.009126	8.455146	-22.49734	-7.05881	-0.784462	0.53278	-0.10132
-1.497777	1.740102	9.024187	7.96932	3.047926	-2.009845	0.140457	0.160473	-1.182009	-3.087624	-0.219788	21.890014	-108.527977	-371.004358	-107.549995	-1.212789	0.13809	0.066043	10.17904	2.125389	-0.122929	5.402854	-19.323931	-10.757958	-0.797378	0.520837	-0.1083
-1.137698	0.812902	9.780402	-7.03766	4.00603	6.912351	0.089534	0.120638	-1.200953	-6.058462	4.9991	24.006191	-51.596672	-402.142162	-99.587908	-1.248813	0.144094	0.060039	9.221151	1.550462	0.312033	-0.445454	-16.652731	-11.860691	-0.769746	0.554231	-0.128521
-0.782384	1.278307	10.366525	0.245071	3.400939	3.108312	0.107018	0.159933	-1.220325	1.05277	2.572967	23.203369	-9.788501	-413.218608	-66.282682	-1.260821	0.150098	0.048031	9.119187	2.364394	0.998567	-8.474606	-14.803651	-13.078437	-0.818253	0.562907	-0.143022
-0.799919	1.68251	9.500282	-2.847472	2.969161	2.400101	0.087098	0.103379	-1.218009	8.259731	-2.424222	17.983362	59.290722	-412.333306	-54.9467	-1.266825	0.144094	0.072047	8.715078	1.726752	0.645239	-16.987446	-16.117227	-12.206736	-0.798278	0.516083	-0.09121
-0.681045	0.986306	9.674335	-7.272145	2.727402	3.962216	0.074225	0.138754	-1.221216	2.772422	-4.417018	20.358431	61.621153	-378.770349	-65.648324	-1.284836	0.126082	0.090059	8.539857	1.668146	0.413229	-25.497122	-18.521837	-10.086273	-0.82899	0.51445	-0.10195
-0.509048	1.160267	9.678183	-6.347762	3.049363	3.372831	0.105226	0.122035	-1.199955	-1.136765	-6.003018	16.452371	109.913851	-381.226738	-75.973485	-1.29084	0.13809	0.102066	9.050549	1.435011	0.308129	-28.073085	-20.900786	-6.802845	-0.784035	0.519025	-0.079607
-0.502023	0.986977	10.024653	-7.670124	3.188535	4.815731	0.104844	0.102523	-1.180691	-2.144407	-4.506558	14.130252	90.039561	-371.050139	-72.587529	-1.314856	0.132086	0.10807	9.440245	1.953442	-0.081267	-23.428652	-21.938092	-7.365536	-0.799558	0.55735	-0.156351
-0.212963	1.161106	10.146416	-8.480506	2.900446	4.945402	0.119509	0.105046	-1.197853	-6.161371	-6.035433	10.516917	49.210079	-344.811792	-62.182662	-1.32086	0.126082	0.132086	9.837039	2.299761	-0.128898	-13.130387	-21.837139	-9.698217	-0.830743	0.537208	-0.128288
-0.442738	1.3935	10.142403	-5.350459	2.000645	3.825564	0.09479	0.174669	-1.186107	-20.984393	-6.437379	3.214182	-2.826377	-250.920714	-72.787722	-1.338871	0.114074	0.156102	10.515978	1.660221	-0.403735	-2.406255	-19.642736	-12.321867	-0.816973	0.521641	-0.077881
-0.734028	1.161048	9.90487	-3.314325	2.011129	3.594234	0.123355	0.140691	-1.181902	-31.351302	-7.138338	-4.533203	-11.056505	-73.133221	-73.694802	-1.344875	0.126082	0.156102	10.454075	1.890869	-0.632179	6.715907	-15.799313	-13.830105	-0.836141	0.508689	-0.025748
-0.903796	1.045409	10.016791	0.926378	2.942831	3.776173	0.109073	0.15768	-1.184005	-23.55317	-6.656443	1.749685	29.150459	72.893331	-65.104469	-1.32086	0.126082	0.150098	11.891297	1.254056	0.0211	9.899484	-9.25013	-8.520498	-0.784462	0.53278	-0.10132
-0.845907	0.52297	10.016677	-2.300946	1.683469	7.682279	0.117455	0.107298	-1.234173	-19.459275	-5.416028	6.426616	37.727095	164.089268	-58.172046	-1.338871	0.10807	0.156102	10.808931	0.908577	-0.058968	9.141485	0.014192	-1.582389	-0.830316	0.523452	-0.106574
-2.46624	1.451673	9.350947	1.974516	2.23059	1.980107	0.072433	0.100856	-1.200847	-16.029951	-5.825645	5.431609	45.999827	191.354839	-63.402257	-1.314856	0.120078	0.144094	10.349448	0.618953	-0.297661	12.068769	10.460215	-1.044281	-0.795198	0.484323	-0.060249
-1.414994	0.291914	10.235947	1.539657	1.822118	1.148562	0.103434	0.084137	-1.179586	-13.408071	-5.544046	3.653169	62.935414	198.965178	-67.92082	-1.314856	0.114074	0.126082	9.968638	0.739748	0.608455	14.200129	19.022497	-4.351104	-0.800504	0.520333	-0.078744
0.015837	0.754445	10.092195	8.238667	3.194146	2.665331	0.116045	0.088913	-1.233068	-11.293312	-4.688294	2.040934	48.939624	207.224848	-70.561824	-1.302848	0.114074	0.126082	9.282611	0.972173	0.481808	10.773046	24.372984	-10.610801	-0.781855	0.482511	-0.031556
-0.620926	0.522188	9.78999	5.636296	4.015683	3.983319	0.073842	0.119242	-1.201951	-10.735148	-4.517512	1.697495	19.904103	225.379278	-67.784015	-1.29084	0.096063	0.102066	8.951656	0.685739	0.987565	3.10805	27.398431	-18.582978	-0.814747	0.517391	-0.090347
-1.142827	1.39277	9.55054	10.181068	5.112691	5.0205	0.102407	0.085264	-1.197746	-10.377025	-3.603886	2.882394	-8.711343	248.453414	-59.04678	-1.284836	0.096063	0.102066	8.434889	0.569919	0.748535	-5.966176	28.652199	-23.952495	-0.783135	0.523778	-0.096697
-1.370093	1.393272	9.661597	5.742197	5.618539	3.649358	0.104199	0.123161	-1.218115	-10.331535	-2.462605	5.535371	-29.259157	270.564102	-45.656601	-1.260821	0.102066	0.090059	7.813246	0.456429	0.963989	-13.344049	27.803634	-28.683058	-0.767139	0.503961	-0.058756
-0.915616	1.450311	9.439622	4.79167	5.764995	3.800207	0.149866	0.108965	-1.214017	-8.983645	-1.783686	8.273154	-38.712073	288.152218	-30.921494	-1.242809	0.102066	0.066043	7.648389	0.284395	1.245282	-17.305792	25.740002	-31.256523	-0.794725	0.502832	-0.099052
-0.858116	1.33417	9.440485	3.829643	6.666946	5.051952	0.084923	0.045969	-1.178375	-7.113451	-0.930634	8.720491	-50.044287	303.89044	-17.907913	-1.242809	0.090059	0.048031	7.469664	0.862124	0.901979	-20.556315	22.154825	-31.863791	-0.780436	0.538038	-0.147966
-0.619196	1.102894	9.907017	1.291617	6.848707	3.408401	0.149483	0.089453	-1.194752	-4.589029	-1.514408	10.716324	-61.981436	316.434879	-8.663922	-1.206785	0.102066	0.042027	8.777107	0.858981	0.813698	-22.295965	16.849662	-30.92419	-0.778683	0.51528	-0.121629
-0.907392	1.219118	9.843766	-0.236956	6.646725	3.130844	0.131355	0.070797	-1.212806	-2.586811	-0.8353	12.169143	-69.591207	323.886575	-2.408002	-1.194778	0.102066	0.018012	8.665131	1.033424	0.926419	-22.868664	12.403587	-27.031168	-0.816073	0.526394	-0.094971
-0.678117	1.509109	9.849037	-2.190592	6.545804	3.0509	0.148074	0.071067	-1.193648	-1.707846	-0.726216	13.896244	-73.660713	324.485008	3.001127	-1.164758	0.10807	0.024016	8.431841	0.974668	0.63619	-19.079943	9.966232	-20.653163	-0.793826	0.507585	-0.116142
-0.979973	1.565613	9.09187	-2.381569	6.164133	2.031298	0.197707	0.152179	-1.249552	-0.117629	-0.388045	14.398063	-78.536334	318.533574	8.822653	-1.15275	0.120078	0.012008	8.718127	1.322003	0.757583	-13.203969	9.018973	-13.839858	-0.781382	0.50102	-0.070359
-1.030392	1.450422	9.437336	-11.460003	5.510186	2.22025	0.166705	0.168898	-1.270813	0.813913	-0.049657	15.948844	-88.417723	309.796354	16.037696	-1.128735	0.120078	-0.006004	8.780019	1.670582	1.045747	-5.422752	8.552216	-6.844126	-0.82899	0.51445	-0.10195
-0.625635	1.856751	9.619759	-17.525991	5.143964	2.532772	0.169786	0.165519	-1.216333	2.079438	0.91823	17.328029	-95.835472	302.411779	26.246361	-1.116727	0.144094	-0.012008	8.887159	1.089551	0.645726	2.731511	6.625006	1.838865	-0.783089	0.556042	-0.157214
-1.547917	1.334698	9.368955	-23.707458	5.748652	1.848898	0.161142	0.256051	-1.222854	2.163529	1.14459	18.862714	-86.971756	291.606888	40.987134	-1.092711	0.156102	-0.018012	9.337188	1.02943	0.369012	9.690268	3.595134	13.629628	-0.783135	0.523778	-0.096697
-0.854045	1.857113	9.673002	-24.610659	5.369049	2.099255	0.146095	0.234016	-1.186427	2.254821	1.141171	20.751806	-75.521704	280.397777	61.814	-1.080703	0.162106	-0.042027	9.49845	0.737241	-0.142753	12.991113	0.077584	24.249367	-0.782236	0.528531	-0.113786
-0.966231	0.348254	9.724898	-20.38923	5.608423	1.122503	0.144685	0.21563	-1.185322	3.615828	2.167633	21.189059	-54.811583	266.671191	87.480792	-1.062692	0.168109	-0.048031	9.041334	0.390247	-0.267524	15.274612	-2.959371	28.460595	-0.796052	0.511834	-0.103676
-1.131007	0.987869	10.127709	-9.923349	5.460553	0.562032	0.126557	0.196974	-1.203376	5.820409	0.95815	21.05657	-41.945232	255.601263	113.874117	-1.038676	0.198129	-0.03002	9.150727	-0.190259	-0.553361	17.462556	-5.285245	25.957429	-0.802257	0.543091	-0.105081
-1.013752	-0.405127	10.184456	-6.699979	5.853241	1.632232	0.139812	0.181111	-1.219433	9.244043	-0.825571	19.532997	-40.096891	250.575421	137.15922	-1.020664	0.186121	-0.03002	9.152866	-0.131837	-0.438914	15.588141	-6.604159	18.271209	-0.8174	0.535396	-0.099595
-0.216811	0.405993	9.913341	1.400583	6.558387	1.865907	0.108045	0.158806	-1.202165	11.715902	-1.63354	18.638228	-46.656858	248.098173	152.020756	-0.996649	0.198129	-0.03002	8.866921	-0.652861	-0.561095	11.034298	-6.510986	6.102934	-0.831216	0.518699	-0.089484
-1.181759	1.220934	10.474014	3.948721	6.657089	0.923168	0.141484	0.159347	-1.163848	14.870959	-3.016783	17.934515	-52.428192	241.67462	156.32407	-0.978637	0.210137	-0.024016	8.694965	-0.652783	-0.621566	3.894887	-4.894247	-3.515394	-0.816973	0.521641	-0.077881
-0.675917	0.406438	9.904197	8.128568	7.482325	-0.028513	0.157176	0.160743	-1.16285	17.847829	-4.055049	16.813931	-67.9972	229.824443	150.082358	-0.972633	0.216141	0.006004	7.688336	-0.240992	0.330568	-1.093342	-2.546184	-11.059611	-0.800031	0.538841	-0.117547
-1.011046	0.349847	10.359717	7.021473	8.776899	-0.22406	0.141484	0.159347	-1.163848	20.279063	-5.093439	16.744483	-76.004015	212.470941	133.769421	-0.942613	0.216141	-0.012008	7.734005	0.335493	-0.179507	-4.482535	0.507457	-11.118063	-0.799178	0.51133	-0.07412
-0.842422	0.465346	10.189981	8.297085	9.992713	-1.579608	0.107281	0.119782	-1.163635	22.448509	-4.352239	15.015538	-74.879009	191.095697	110.412772	-0.93661	0.198129	0.012008	7.920375	0.454624	0.623688	-5.933254	3.449751	-6.177992	-0.817446	0.503132	-0.039077
-0.09891	1.91555	10.150519	1.318168	12.711954	-2.218809	0.154094	0.164122	-1.217331	22.912249	-3.490427	12.722788	-90.867808	167.054716	87.069513	-0.924602	0.216141	0.006004	8.264617	0.860005	0.803562	-6.612452	5.496599	1.93714	-0.814747	0.517391	-0.090347
-0.675831	1.509389	9.964667	-16.00787	20.844277	-7.12631	0.17325	0.181652	-1.181117	23.882541	-2.291402	13.447131	-105.304857	137.71645	63.850039	-0.924602	0.222145	0.012008	8.499148	0.861127	1.15062	-7.475685	7.626141	12.587538	-0.799604	0.525086	-0.095834
-0.432395	1.336715	10.662596	-30.611831	27.335084	-9.812846	0.156149	0.16187	-1.181011	22.682124	0.061776	13.066149	-105.85915	101.799174	43.899949	-0.912594	0.228148	0.024016	8.553964	0.223365	0.977578	-8.122925	9.314428	22.178499	-0.835668	0.527198	-0.064552
-1.069531	2.446622	13.311015	-37.78874	35.817737	-15.038714	0.143538	0.157094	-1.127528	21.134279	1.557605	12.090167	-100.078619	64.449526	28.845174	-0.90659	0.222145	0.042027	9.072414	0.629193	1.332108	-8.649717	11.781467	28.938206	-0.813847	0.522144	-0.107437
-1.014753	0.639641	10.186972	-30.1046	46.827304	-17.702771	0.174277	0.180526	-1.162957	20.509731	2.877104	12.13488	-87.700468	30.385851	15.736562	-0.90659	0.234152	0.024016	9.5938	0.688168	1.799244	-8.283066	13.033385	31.602296	-0.818299	0.530643	-0.082505
-1.014111	1.162165	10.246044	-57.233845	56.52027	-18.40148	0.143538	0.157094	-1.127528	19.199385	3.454761	11.63687	-72.68483	2.79337	2.23466	-0.888578	0.240156	0.03002	10.507156	0.107647	1.871728	-4.499443	12.05695	30.360868	-0.818299	0.530643	-0.082505
-0.71047	1.628324	11.120098	-69.163304	67.391802	-20.024277	0.174277	0.180526	-1.162957	17.214234	3.976865	11.302923	-48.132671	-18.259609	-12.587136	-0.894582	0.234152	0.048031	10.728399	-0.010178	1.533154	2.026404	8.550569	28.458887	-0.787115	0.550785	-0.110568
-0.622275	1.690084	12.68238	-85.761884	81.641314	-18.494412	0.208098	0.200578	-1.143906	14.813567	2.783725	9.607411	-20.048954	-29.937566	-28.14349	-0.90659	0.24616	0.042027	10.334302	-0.00833	1.753639	10.585549	3.549134	27.825751	-0.782236	0.528531	-0.113786
-1.091348	1.115888	15.041101	-84.783381	96.399684	-11.647391	0.14533	0.194992	-1.147898	24.801286	53.711798	63.088152	-316.334275	-100.180782	-5.732448	-0.894582	0.24616	0.03002	9.817762	-0.239943	1.514082	20.097603	-1.196858	27.283551	-0.769792	0.521966	-0.068004
-0.834435	0.241196	13.483721	-57.117212	110.345566	0.582474	0.211179	0.197199	-1.089425	6.38601	-10.057081	-5.218354	343.611395	-229.102973	1.197478	-0.894582	0.240156	0.018012	9.411162	-0.183091	1.106816	28.348612	-6.189366	21.63309	-0.76444	0.518221	-0.110026
-0.487764	0.183099	13.606069	-83.31665	124.145227	11.245785	0.228281	0.216982	-1.089532	-5.789929	0.260941	13.285279	157.141574	-200.945088	-21.412557	-0.894582	0.228148	0.042027	9.135785	0.225119	1.616855	33.647844	-11.480514	12.976404	-0.823651	0.534388	-0.040483
-0.808924	1.057008	14.815417	-72.604132	140.458659	18.414897	0.228663	0.236494	-1.108797	-5.5292	2.172694	0.134671	149.653088	-257.285575	6.399001	-0.918598	0.222145	0.03002	9.417692	-0.065721	1.449895	34.670267	-15.632611	4.514688	-0.784462	0.53278	-0.10132
-0.552555	-0.681421	16.087722	-62.31981	157.660515	24.53063	0.280995	0.294714	-1.090956	6.131686	6.712927	5.128326	73.330431	-284.362182	22.977172	-0.942613	0.198129	0.03002	9.812449	0.743507	1.347275	28.71006	-18.819041	-4.649537	-0.8174	0.535396	-0.099595
-1.047139	-2.07143	17.114747	-47.957012	179.726439	34.325142	0.296305	0.276599	-1.070694	2.697588	2.124604	14.270928	-48.980294	-250.780087	12.921374	-0.966629	0.210137	0.012008	10.383327	1.727396	1.534282	25.882491	-20.31742	-13.438777	-0.786261	0.523274	-0.067141
-0.269057	-0.907247	18.809029	-36.628761	206.56363	41.270533	0.362536	0.298318	-1.031486	11.127195	7.357663	21.855347	36.983791	-219.949765	-18.141966	-0.966629	0.216141	0.024016	10.824778	2.592041	0.919222	24.493183	-19.285814	-26.316871	-0.756876	0.53391	-0.061024
0.493412	-0.151319	19.692926	-21.706811	238.681321	42.509572	0.380665	0.316974	-1.013433	2.113206	-5.656394	8.905939	111.599254	-115.927928	-93.429149	-0.972633	0.198129	0.012008	11.96022	4.905884	1.009354	20.510631	-14.057451	-41.264652	-0.79965	0.492821	-0.035316
1.737063	-0.960474	21.62286	-7.565707	273.189751	34.818332	0.411284	0.280743	-0.972907	0.634503	-1.475029	12.114198	63.644814	-59.895125	-31.439017	-0.954621	0.186121	0.024016	12.630024	4.901365	0.337763	8.060122	-2.381959	-45.517938	-0.788014	0.546032	-0.093478
1.047317	-1.017989	21.551189	18.378106	308.922295	27.477632	0.410257	0.281869	-0.991067	1.143896	-0.612372	9.232533	73.98226	-37.352728	0.014665	-0.966629	0.192125	0.018012	14.125275	4.019596	-1.862366	-10.908407	13.073873	-16.766138	-0.805856	0.524078	-0.036722
0.517522	-2.6445	20.785398	44.601389	338.247662	19.623001	0.496934	0.279842	-0.840797	1.335394	0.421153	7.524048	28.110715	-30.622937	-12.752345	-0.954621	0.180117	0.018012	15.106706	2.095927	-4.248639	-25.70801	24.014677	38.899137	-0.837467	0.517691	-0.030372
-4.669745	-2.003677	19.585586	68.898634	354.515793	8.191874	0.5367	0.232253	-0.888969	0.315493	-0.554351	10.278135	-13.491829	-15.292641	-14.089128	-0.954621	0.180117	0.024016	13.157586	1.285828	-5.032809	-28.759051	31.681317	81.330138	-0.804103	0.50132	-0.010384
-4.037691	-0.436857	19.717562	82.949775	351.975712	6.561908	0.591468	0.307733	-0.854073	0.823998	-0.498592	10.287814	16.867474	-13.369969	-2.552324	-0.954621	0.174113	0.024016	9.466272	2.511938	-4.472482	-19.361224	33.623461	61.491647	-0.755549	0.524908	-0.0564
-1.552327	-2.178574	20.571924	104.193702	351.099369	4.462671	0.636752	0.274025	-0.83071	0.463105	0.249059	9.217971	9.426885	-12.001952	-5.377351	-0.948617	0.180117	0.018012	7.371077	2.866417	-3.884562	-10.092075	34.163646	3.82267	-0.770265	0.503457	-0.0292
-3.689518	-2.062107	19.836136	131.668717	343.758165	1.033382	0.655143	0.252531	-0.755967	0.927257	-0.498019	9.758985	-2.305072	-6.511987	-4.536925	-0.954621	0.174113	0.03002	7.271274	2.580316	-3.203023	-0.168944	34.023447	-28.052969	-0.749771	0.507407	-0.076709
-3.760263	-3.63102	19.079628	166.678396	333.432412	-8.503316	0.683708	0.218552	-0.751762	0.750092	-0.496797	9.342724	-4.200053	-3.76654	-2.035879	-0.93661	0.174113	0.03002	7.751723	1.948066	-1.997969	6.636602	29.645038	-26.660691	-0.821425	0.530139	-0.052949
-2.797434	-4.620369	18.402906	189.989628	323.415286	-22.454836	0.700045	0.19931	-0.713339	0.469327	-0.381563	9.455088	-7.922972	-2.647309	-2.570464	-0.948617	0.174113	0.042027	9.548841	1.778211	-0.365263	10.743495	23.987632	-9.439747	-0.836568	0.522444	-0.047462
-1.691214	-6.600243	16.224053	201.611865	309.637331	-17.521011	0.730664	0.16308	-0.672814	0.583452	-0.382006	9.516262	-4.701851	-1.93751	-1.529468	-0.960625	0.180117	0.024016	10.941372	2.360753	1.034607	19.57977	21.052252	9.974921	-0.804956	0.528831	-0.053812
2.151891	-3.186356	13.477097	182.614052	267.550722	-5.046434	0.776975	0.128245	-0.631291	0.869992	-0.612332	9.699102	-3.533859	-1.513059	-1.66832	-0.954621	0.180117	0.048031	13.183013	1.49234	2.045155	24.134422	20.441425	19.861338	-0.780909	0.519529	-0.109163
35.533071	-14.894573	-13.510811	258.860343	164.409328	21.149942	0.793694	0.128515	-0.612133	0.532707	-0.496928	9.810379	-2.5067	-1.293299	-1.9388	-0.948617	0.156102	0.03002	15.302542	0.796003	2.654593	13.156241	19.763515	8.869264	-0.771119	0.530969	-0.072627
9.188912	-0.082398	3.973591	-60.61732	28.445762	22.300811	0.822259	0.094537	-0.607927	-0.149469	-0.265408	9.619933	-2.928156	-0.734924	-1.578619	-0.942613	0.180117	0.036023	14.905531	-0.013751	2.643029	-5.073215	17.013795	-4.836325	-0.771592	0.51246	-0.033824
13.836356	-5.24636	6.654257	97.779849	-77.535422	45.662109	0.807594	0.092014	-0.590765	0.294335	-0.380545	9.156828	-8.811417	0.962545	-2.492055	-0.954621	0.168109	0.036023	12.236842	0.688456	3.049987	-7.198271	17.101859	-18.766605	-0.801358	0.547844	-0.122171
12.587516	-6.179325	4.373243	17.555551	-117.533425	56.073081	0.807211	0.072502	-0.571501	1.43981	-1.072681	9.887781	-10.830292	1.163921	-1.169565	-0.960625	0.186121	0.03002	10.459769	0.978835	2.445466	-4.773353	17.388797	-31.974264	-0.751997	0.511656	-0.064243
9.740471	-3.271334	5.595006	43.914869	-129.002146	60.171476	0.758081	0.070565	-0.610815	1.604916	-0.67184	9.71333	-13.718879	1.381157	-0.617962	-0.960625	0.168109	0.042027	10.669625	1.495505	1.595954	-2.432517	15.958852	-28.624934	-0.783608	0.505269	-0.057893
9.041094	-2.582454	2.173039	35.883018	-131.963449	58.162191	0.752181	0.037173	-0.663086	0.293312	-0.03679	9.156218	-15.389322	1.88098	-1.081452	-0.948617	0.180117	0.03002	9.842238	1.374207	0.038173	4.621952	11.128967	-19.329201	-0.767566	0.517717	-0.08047
8.227236	-1.247811	1.697733	1.42766	-143.19595	52.712194	0.735844	0.056414	-0.701509	-0.161209	-1.066183	8.854352	-13.896375	2.650034	-2.106246	-0.942613	0.180117	0.042027	9.850235	1.318151	0.437555	13.339295	4.744953	-15.433234	-0.780909	0.519529	-0.109163
8.176179	0.494503	2.105486	-26.537958	-160.955168	41.307755	0.699204	-0.00041	-0.718351	0.469028	-1.011577	9.338205	-14.496582	2.445425	-1.294034	-0.948617	0.174113	0.03002	9.152502	1.200306	-0.318684	20.979099	-1.242158	-14.427467	-0.756449	0.520154	-0.039311
7.4074	1.312212	3.883698	-45.044671	-184.010655	25.060336	0.700996	0.037488	-0.73872	0.296444	-0.724401	9.216437	-13.965835	2.127298	-1.580968	-0.954621	0.186121	0.03002	8.809614	0.679395	-0.441991	22.58708	-4.735466	-11.00388	-0.770265	0.503457	-0.0292
