1757_acc_x	1757_acc_y	1757_acc_z	1757_gyro_x	1757_gyro_y	1757_gyro_z	1757_mag_x	1757_mag_y	1757_mag_z	1758_acc_x	1758_acc_y	1758_acc_z	1758_gyro_x	1758_gyro_y	1758_gyro_z	1758_mag_x	1758_mag_y	1758_mag_z	1759_acc_x	1759_acc_y	1759_acc_z	1759_gyro_x	1759_gyro_y	1759_gyro_z	1759_mag_x	1759_mag_y	1759_mag_z
1.37328	1.184308	9.764506	-0.374235	0.73858	-0.232263	0.144134	-0.065171	-0.971204	2.529711	1.449449	9.562359	-0.33751	0.17961	0.011791	-0.098477	0.181704	-0.863115	9.060336	4.24272	-0.589264	-0.351809	0.437925	-1.060324	-0.353958	-0.446956	-0.329407
1.088245	1.012432	9.815068	-0.159022	0.768923	-0.109718	0.176719	-0.338497	-0.811886	2.937504	1.448885	9.79738	-0.21327	0.241904	0.104994	-0.073121	0.1195	-0.845302	8.998984	4.300437	-0.709931	-0.412963	0.374632	-0.876424	-0.231685	-0.783841	-0.032533
1.31487	1.241549	9.706781	-0.345749	0.400673	-0.237837	0.204946	-0.321947	-0.830076	3.218963	1.6171	9.520369	-0.088329	0.336473	-0.048105	-0.111974	0.134595	-0.845478	8.818904	4.183948	-0.893448	-0.598398	0.467942	-1.090137	-0.216871	-0.719693	-0.020283
1.305589	1.756593	9.254128	-0.161108	0.461953	-0.145369	0.191211	-0.335344	-0.826311	2.865432	1.448423	9.116496	-0.274474	0.272791	-0.048888	-0.099808	0.146775	-0.803709	8.829504	4.360649	-0.293637	-0.59781	0.435777	-0.937172	-0.189331	-0.753323	0.012587
1.0894	0.955231	9.87168	-0.43789	0.369512	-0.238078	0.204575	-0.325475	-0.816	2.987493	1.617484	9.458894	-0.244125	0.241713	0.07414	-0.072455	0.136964	-0.875005	9.114566	4.88068	-0.765165	-0.69156	0.46887	-1.212054	-0.20394	-0.782607	-0.04792
0.914379	0.839749	9.697298	-0.314468	0.461585	-0.175601	0.220196	-0.329036	-0.855162	2.757555	1.448924	9.453916	-0.212296	0.30424	-0.048525	-0.06007	0.134896	-0.846581	9.238215	4.358714	-0.525562	-0.535179	0.558357	-0.937984	-0.217915	-0.800656	-0.016098
1.150901	1.243362	10.101412	-0.161228	0.4623	-0.176031	0.178205	-0.324384	-0.86819	3.329582	1.447703	9.296086	-0.242723	0.334916	-0.109901	-0.085732	0.075608	-0.870715	8.88962	4.360761	-0.23263	-0.691409	0.53068	-1.273475	-0.20366	-0.767241	-0.03323
1.304807	1.29682	9.195345	-0.253139	0.524378	-0.266761	0.206461	-0.342433	-0.851396	3.101738	1.448229	9.40453	-0.365948	0.363811	-0.078885	-0.086022	0.134745	-0.84603	9.120743	4.591536	-0.466867	-0.659159	0.497049	-0.967805	-0.203869	-0.783433	-0.032393
0.913141	1.011832	9.641168	-0.376474	0.369451	-0.207588	0.176676	-0.286599	-0.864361	2.92915	1.392222	9.400855	-0.08716	0.428468	-0.047189	-0.098702	0.135742	-0.860104	9.005161	4.011293	-0.411633	-0.442334	0.495934	-0.785209	-0.231756	-0.783015	-0.048061
1.834656	1.1847	9.943974	-0.099505	0.586557	-0.266193	0.220238	-0.380934	-0.802686	3.334179	0.940871	9.465578	-0.119536	0.305819	-0.110091	-0.07297	0.150141	-0.847309	8.951938	4.361367	-0.051809	-0.28761	0.588572	-0.816774	-0.231618	-0.765996	-0.064426
1.081274	1.413075	9.475639	-0.068737	0.586352	-0.235617	0.176319	-0.307427	-0.832794	3.334418	1.447893	9.522644	-0.274747	0.24273	-0.141672	-0.085576	0.166458	-0.862387	8.828943	4.128097	-0.354533	-0.32259	0.254814	-1.090118	-0.218124	-0.816848	-0.015261
1.032104	1.012714	9.870808	-0.161151	0.49338	-0.206194	0.162942	-0.299996	-0.860596	2.812918	1.33606	9.341751	-0.182181	0.243302	-0.049107	-0.098998	0.13467	-0.845754	8.998019	4.242114	-0.770086	-0.321293	0.376541	-1.029579	-0.21708	-0.735886	-0.019446
0.857042	0.954673	9.696667	-0.130099	0.461053	-0.053469	0.190826	-0.321573	-0.829727	3.330229	1.10972	9.295801	-0.180934	0.3357	-0.109844	-0.111678	0.135667	-0.859828	9.004351	4.359749	-0.41015	-0.443857	0.281492	-0.753617	-0.203243	-0.734856	-0.034904
1.315077	0.954342	9.705575	-0.344833	0.429319	-0.053366	0.206089	-0.345961	-0.837321	2.470936	1.44951	9.504511	-0.302952	0.456791	-0.108738	-0.099519	0.087637	-0.828393	8.768692	4.186061	-0.415293	-0.351056	0.405444	-0.876796	-0.217777	-0.783637	-0.032463
1.434082	0.897782	9.934973	-0.315221	0.401164	-0.268585	0.177434	-0.296842	-0.875021	2.353388	1.449631	9.388814	-0.179063	0.488621	-0.046665	-0.111013	0.153132	-0.889531	9.234374	4.590277	-0.704293	-0.534004	0.494025	-0.632054	-0.216942	-0.718867	-0.035811
0.911862	1.241357	9.58528	-0.161544	0.431916	-0.207192	0.177834	-0.327912	-0.854114	2.990234	1.448587	9.572031	-0.396024	0.42495	-0.109129	-0.098697	0.195952	-0.849769	8.658248	4.710993	0.063986	-0.321851	0.284457	-0.998575	-0.189615	-0.750018	-0.049524
0.909552	1.355758	9.472057	-0.223703	0.277623	-0.178852	0.163742	-0.362137	-0.818781	2.644303	1.730887	9.565014	-0.272408	0.42672	-0.13984	-0.085726	0.135817	-0.86038	8.658768	4.013834	0.001113	-0.352774	0.315566	-1.059736	-0.217431	-0.750426	-0.049665
1.439235	1.473404	10.221651	-0.192585	0.370309	-0.208103	0.177477	-0.34874	-0.822546	2.873979	0.772742	9.455764	-0.333652	0.457406	-0.262897	-0.098482	0.121494	-0.87345	9.010819	4.419308	-0.050461	-0.199138	0.099788	-0.845325	-0.217498	-0.768271	-0.017772
1.423113	0.665604	9.365476	-0.253172	0.461871	-0.175773	0.163313	-0.296467	-0.874672	3.165779	1.223037	9.688747	-0.181987	0.244309	-0.203237	-0.073561	0.147997	-0.81861	8.653981	4.651928	-0.175889	-0.504482	0.434533	-0.784691	-0.189756	-0.748365	-0.08058
1.143273	1.011908	9.702475	-0.222317	0.398812	-0.023547	0.177477	-0.34874	-0.822546	2.932776	1.392364	9.570774	-0.275098	0.212267	-0.172803	-0.112494	0.087562	-0.828118	9.126245	4.592772	-0.167332	-0.380894	0.403441	-0.693302	-0.20366	-0.767241	-0.03323
1.088986	1.529647	9.874093	-0.315768	0.277542	-0.209257	0.176719	-0.338497	-0.811886	2.987816	1.448492	9.458751	-0.366728	0.302482	-0.079495	-0.072675	0.151213	-0.861659	8.652611	4.767833	-0.235301	-0.352262	0.252496	-0.876061	-0.217915	-0.800656	-0.016098
1.082719	0.953784	9.530561	-0.28381	0.367794	-0.023874	0.190826	-0.321573	-0.829727	2.932669	1.448695	9.570822	-0.366183	0.333952	-0.202494	-0.098257	0.167455	-0.876461	8.950547	4.012417	-0.173106	-0.630001	0.220909	-0.874905	-0.203936	-0.801278	-0.0005
1.201392	1.356757	9.76189	-0.37773	0.15398	-0.180418	0.189711	-0.332158	-0.787499	2.579807	1.561718	9.223825	-0.333574	0.457808	-0.324549	-0.111829	0.105026	-0.857821	8.893752	4.477902	0.007492	-0.379943	0.587924	-0.785874	-0.21736	-0.751252	-0.034137
1.252048	1.240385	9.421402	-0.408368	0.059903	-0.028519	0.178591	-0.338155	-0.864774	3.170507	1.279557	9.915353	-0.241086	0.457978	-0.170332	-0.085946	0.150066	-0.847033	9.23779	4.068087	-0.586705	-0.660005	0.219222	-0.721975	-0.203168	-0.754353	0.028045
1.199289	1.183949	9.64746	-0.224043	0.090798	0.032788	0.177434	-0.296842	-0.875021	2.763383	1.561822	9.737209	-0.332911	0.518534	-0.23146	-0.111748	0.180557	-0.848489	9.009448	4.535213	-0.109874	-0.781753	0.526249	-0.875812	-0.217706	-0.784463	-0.016935
1.02967	1.299439	9.758308	-0.562809	0.062665	-0.33471	0.219052	-0.305022	-0.847917	2.991658	1.335974	9.628575	-0.365793	0.364617	-0.202189	-0.125465	0.147697	-0.817507	8.766626	4.127491	-0.535354	-0.564339	0.492969	-0.540251	-0.217289	-0.752078	-0.018609
1.146572	1.070073	9.873276	-0.31853	-0.05877	-0.368054	0.175205	-0.318012	-0.790566	2.644303	1.730887	9.565014	-0.334197	0.425936	-0.139898	-0.086317	0.133674	-0.83168	9.242887	4.243551	-0.286429	-0.688832	0.494732	-0.753748	-0.203731	-0.766414	-0.048758
1.249614	1.52711	9.308903	-0.439267	0.15439	-0.241571	0.161041	-0.265739	-0.842692	2.930251	1.4486	9.457542	-0.364975	0.426148	-0.232405	-0.073266	0.149069	-0.832959	8.592339	4.360941	-0.357946	-0.596213	0.339595	-0.508841	-0.217986	-0.79983	-0.031626
1.08375	1.068908	9.587897	-0.376814	0.182626	0.004052	0.190454	-0.325101	-0.815651	2.696363	1.448889	9.282788	-0.273578	0.334725	-0.140756	-0.111609	0.090778	-0.871167	8.710776	4.186443	-0.356487	-0.565741	0.464586	-0.75405	-0.19017	-0.799421	-0.031485
0.854401	1.528606	9.585374	-0.500203	0.15306	-0.149413	0.191197	-0.318044	-0.843803	3.097249	1.898731	9.23499	-0.210581	0.427705	-0.170609	-0.098922	0.149991	-0.846758	9.36339	4.127624	-0.164908	-0.442214	0.340464	-0.539966	-0.16187	-0.748783	-0.064912
0.967014	1.068508	9.471964	-0.255094	0.123126	-0.119937	0.206075	-0.328662	-0.854812	2.69878	1.448984	9.396067	-0.459567	0.271849	-0.264843	-0.098702	0.135742	-0.860104	9.002015	4.417331	-0.529716	-0.565034	0.276951	-0.355841	-0.204149	-0.798799	-0.047083
1.145292	1.299598	9.817388	-0.254821	0.184937	-0.149601	0.164842	-0.334252	-0.878501	3.159735	1.2228	9.405549	-0.518782	0.484914	-0.13946	-0.099148	0.10403	-0.843747	8.830469	4.418972	-0.233483	-0.318626	0.309373	-0.448577	-0.204357	-0.814992	-0.046246
1.430741	0.897059	9.764413	-0.223834	0.371905	-0.361327	0.148864	-0.351519	-0.807772	2.992867	1.336021	9.685215	-0.581701	0.392336	-0.171259	-0.099443	0.102958	-0.829397	8.463282	3.893884	-1.0211	-0.286467	0.306962	-0.204179	-0.190241	-0.798595	-0.047013
0.916358	1.18488	9.812452	-0.407472	0.276417	-0.147675	0.190454	-0.325101	-0.815651	2.931544	0.772634	9.456973	-0.363454	0.548606	-0.200358	-0.085726	0.135817	-0.86038	8.83292	3.838459	-0.176049	-0.129481	0.643686	-0.175792	-0.218124	-0.816848	-0.015261
1.08449	1.586123	9.646922	-0.3769	0.245481	-0.117598	0.16257	-0.303524	-0.84652	2.649677	1.449424	9.791336	-0.301548	0.578645	0.015788	-0.046428	0.152435	-0.87656	9.244413	4.534426	-0.165379	0.024655	0.76849	-0.360323	-0.218124	-0.816848	-0.015261
1.261122	1.012548	9.875262	-0.529431	0.336613	-0.08501	0.206461	-0.342433	-0.851396	3.099321	1.448135	9.29125	-0.516911	0.637835	-0.076281	-0.07319	0.16439	-0.833963	8.83184	4.303067	-0.174071	-0.160887	0.613616	-0.23666	-0.18982	-0.784881	-0.001267
0.854566	1.29884	9.584408	-0.223474	0.370862	-0.269342	0.14885	-0.33422	-0.825264	3.335842	1.33528	9.579189	-0.116807	0.520473	-0.107955	-0.111308	0.15206	-0.875181	8.705834	4.417758	-0.595125	-0.101573	0.400972	-0.358112	-0.161933	-0.785299	0.014401
1.366267	1.642392	9.425318	-0.410278	-0.028468	-0.367298	0.16257	-0.303524	-0.84652	3.160728	1.335508	9.462283	-0.240151	0.520112	-0.293026	-0.112194	0.148844	-0.832132	8.773789	4.361525	-0.115017	-0.131034	0.553494	-0.32817	-0.245455	-0.767027	-0.048968
1.318169	1.299715	9.877582	-0.623275	0.153879	-0.271717	0.162213	-0.324352	-0.814953	3.108884	1.504844	9.744415	-0.331507	0.640388	-0.106935	-0.07275	0.135892	-0.860655	8.591083	3.953915	-0.47949	-0.007009	0.428427	-0.022394	-0.189473	-0.75167	-0.018469
1.200569	0.954425	9.703348	-0.316631	0.123535	-0.181089	0.220196	-0.329036	-0.855162	2.652095	1.449518	9.904615	-0.242059	0.395642	-0.016812	-0.086537	0.147922	-0.818334	8.946436	4.360131	-0.351343	-0.070182	0.493167	-0.389228	-0.217635	-0.78529	-0.001407
0.912851	1.413923	9.642858	-0.285709	0.185489	-0.210839	0.190068	-0.31133	-0.819067	2.877736	1.336237	9.682797	-0.27237	0.426921	-0.170666	-0.085802	0.120497	-0.859376	8.711471	4.360919	-0.295838	-0.070045	0.617101	-0.542634	-0.24538	-0.786524	0.01398
1.027443	1.298957	9.644602	-0.286103	0.124025	-0.211837	0.190454	-0.325101	-0.815651	2.642855	1.223817	9.451308	-0.363064	0.57927	-0.200052	-0.112269	0.133524	-0.831129	8.894427	4.187522	0.006256	0.021564	0.52598	-0.573093	-0.189961	-0.783229	-0.032322
0.921925	1.186087	10.096717	-0.469358	0.183935	-0.149	0.191583	-0.331815	-0.840387	2.990342	1.392257	9.571983	-0.426763	0.425364	-0.232462	-0.073051	0.074611	-0.856641	8.753866	4.880007	-1.131209	-0.102809	0.372274	-0.541347	-0.20394	-0.782607	-0.04792
1.261863	1.529764	9.934287	-0.377807	0.122901	-0.150255	0.192312	-0.307459	-0.886031	2.877305	1.561559	9.682987	-0.272721	0.396457	-0.201797	-0.085946	0.150066	-0.847033	8.828403	4.360401	-0.353544	-0.348508	0.493745	-0.541037	-0.217986	-0.79983	-0.031626
1.026537	1.011508	9.586542	-0.376027	0.305554	0.006048	0.190468	-0.3424	-0.798159	2.869082	2.068249	9.343576	-0.42462	0.579694	-0.385066	-0.098853	0.105101	-0.858097	8.99995	4.35876	-0.649777	-0.224784	0.586587	-0.603053	-0.203727	-0.785086	-0.001337
1.430575	1.126825	9.765379	-0.499483	0.150974	0.034559	0.204918	-0.287348	-0.86506	2.582441	1.449152	9.33701	-0.20832	0.611291	-0.107125	-0.111974	0.134595	-0.845478	8.711046	4.070291	-0.356981	-0.255631	0.648601	-0.694926	-0.203865	-0.802104	0.015028
1.032021	1.127597	9.87129	-0.470134	-0.032926	0.000818	0.177077	-0.31767	-0.843454	2.652872	1.674888	9.961444	-0.361934	0.671064	-0.168311	-0.099368	0.118278	-0.830401	9.241111	4.533684	-0.345099	-0.350919	0.529378	-1.030201	-0.259083	-0.751865	-0.034348
0.915203	1.242081	9.75584	-0.562089	0.060579	-0.150738	0.203803	-0.297933	-0.822832	2.987924	1.392162	9.458704	-0.208516	0.581633	-0.261561	-0.099738	0.101886	-0.815047	8.821396	4.533146	-0.712244	-0.227965	0.375298	-0.877098	-0.20366	-0.767241	-0.03323
1.079172	1.240268	9.361209	-0.470101	0.029581	-0.09017	0.191969	-0.345586	-0.836971	2.878275	1.054584	9.68256	-0.207307	0.673828	-0.291471	-0.086317	0.133674	-0.83168	9.063367	4.359614	-0.409049	-0.413068	0.467977	-1.029683	-0.24601	-0.81643	-0.030929
1.198999	1.58604	9.649149	-0.500826	-0.001642	-0.059921	0.218324	-0.329378	-0.802274	2.759972	1.449018	9.567195	-0.236681	0.795894	-0.259453	-0.086392	0.118353	-0.830676	9.190473	4.24517	0.071912	-0.012857	0.284305	-0.877442	-0.20366	-0.767241	-0.03323
1.02765	1.011749	9.643395	-0.285862	0.12333	-0.150513	0.190054	-0.294031	-0.836559	2.937935	1.223563	9.79719	-0.239565	0.580436	-0.138285	-0.138661	0.161871	-0.803885	9.241516	4.359456	-0.345841	-0.07407	0.469512	-1.06148	-0.20359	-0.768067	-0.017702
1.088986	1.529647	9.874093	-0.561609	0.059188	-0.02809	0.15035	-0.337406	-0.864076	3.046591	1.448432	9.5166	-0.332248	0.57926	-0.138372	-0.113079	0.145628	-0.789083	8.944795	4.592188	-0.410261	-0.042333	0.498952	-0.939485	-0.259568	-0.802094	-0.000781
1.262976	1.530005	9.99114	-0.284083	0.305983	0.00579	0.164456	-0.320481	-0.881917	3.224661	1.166646	9.746548	-0.456916	0.4861	-0.201054	-0.099142	0.164239	-0.833412	8.892631	4.012799	-0.114299	0.078074	0.25657	-1.12214	-0.217706	-0.784463	-0.016935
1.260956	1.242315	9.876227	-0.530458	0.214381	-0.148329	0.164099	-0.341309	-0.850349	2.928719	1.617544	9.401045	-0.332403	0.578455	-0.015067	-0.073341	0.133749	-0.831956	9.001455	4.184779	-0.590612	0.079764	0.470697	-1.123168	-0.189611	-0.768689	-0.002104
1.312436	1.528275	9.594281	-0.499919	0.120938	-0.027264	0.205332	-0.335718	-0.82666	2.707242	1.449316	9.792544	-0.394192	0.577671	-0.015125	-0.072455	0.136964	-0.875005	9.187152	3.779573	-0.169693	0.14241	0.531152	-1.031996	-0.18989	-0.784055	-0.016795
1.433833	1.242431	9.93642	-0.438393	0.214463	-0.117925	0.191954	-0.328287	-0.854463	3.161614	1.504547	9.519065	-0.300378	0.67064	0.016703	-0.112199	0.088634	-0.842467	9.061842	4.068739	-0.530099	0.172112	0.40922	-1.062084	-0.232102	-0.816226	-0.030859
1.142201	0.954225	9.645381	-0.375951	0.336633	-0.024115	0.203431	-0.301462	-0.808756	2.584104	1.84356	9.450621	-0.210698	0.427101	-0.078131	-0.060215	0.164465	-0.834239	9.005296	3.953217	-0.41188	0.172685	0.439179	-1.001104	-0.218194	-0.816022	-0.030789
1.257699	1.126708	9.705185	-0.562089	0.060579	-0.150738	0.191583	-0.331815	-0.840387	2.762606	1.336452	9.680379	-0.301354	0.579652	-0.138343	-0.086166	0.164314	-0.833687	9.125955	4.244069	-0.228723	0.018068	0.594725	-1.306912	-0.203869	-0.783433	-0.032393
1.077193	0.895136	9.246055	-0.408488	0.060251	-0.059181	0.177091	-0.334969	-0.825962	2.931244	1.561309	9.514277	-0.36396	0.517337	-0.108185	-0.072235	0.122716	-0.888351	8.649674	3.663152	-0.539533	0.109858	0.441164	-1.214824	-0.175427	-0.734447	-0.034763
1.201558	1.12699	9.760925	-0.439923	-0.06282	-0.061091	0.190454	-0.325101	-0.815651	2.935972	1.617829	9.740883	-0.177387	0.611884	-0.137922	-0.08469	0.169674	-0.905436	8.950567	4.477272	-0.111221	0.201755	0.535787	-1.460109	-0.232173	-0.8154	-0.046387
0.91772	0.840472	9.867857	-0.31733	-0.062247	-0.061435	0.233559	-0.319168	-0.844851	2.527724	1.224033	9.44889	-0.081859	0.828318	-0.228178	-0.124874	0.149841	-0.846206	8.944775	4.127333	-0.472146	0.293908	0.598875	-1.613556	-0.231409	-0.749804	-0.065263
1.314953	1.126666	9.706298	-0.315747	0.089674	0.09437	0.203803	-0.297933	-0.822832	3.402432	1.673534	10.033799	-0.146103	0.642941	-0.137589	-0.086097	0.119425	-0.845026	9.006127	4.069616	-0.351479	-0.046643	0.507148	-1.734135	-0.203798	-0.784259	-0.016865
1.081233	1.470516	9.47588	-0.315387	0.088631	0.186355	0.190454	-0.325101	-0.815651	2.576527	2.012267	9.110926	-0.330338	0.732383	-0.106019	-0.11323	0.114987	-0.787076	8.829234	4.476801	-0.293143	0.352257	0.263873	-1.734419	-0.231614	-0.784668	-0.017005
0.918667	1.07048	9.925675	-0.409931	-0.279886	0.119302	0.190826	-0.321573	-0.829727	2.407327	1.44938	9.220104	-0.266951	0.856027	-0.135567	-0.06044	0.118503	-0.831228	8.654096	4.128997	-0.238021	0.445134	0.418729	-1.888306	-0.245731	-0.801064	-0.016238
1.139974	0.953742	9.531675	-0.47055	-0.250831	0.242621	0.176319	-0.307427	-0.832794	2.874541	1.110772	9.512689	-0.111076	0.979841	-0.010898	-0.073561	0.147997	-0.81861	9.482388	4.185677	-0.102553	0.168255	0.602845	-2.040994	-0.231264	-0.770128	0.013213
0.84673	1.354593	9.186678	-0.4098	-0.374167	0.301777	0.148078	-0.306678	-0.832095	2.707673	1.223994	9.792355	0.074483	0.983199	-0.164856	-0.098627	0.151063	-0.861107	8.83238	4.070763	-0.17506	0.230223	0.726686	-2.164059	-0.217568	-0.767445	-0.0333
1.140714	1.470957	9.5907	-0.74727	-0.562567	0.514362	0.178191	-0.307085	-0.885682	3.337051	1.335327	9.635829	0.109275	1.290238	-0.161775	-0.138365	0.162942	-0.818235	8.829929	4.651276	-0.232494	-0.046641	0.848677	-2.224763	-0.203798	-0.784259	-0.016865
1.081606	0.953542	9.473708	-0.963053	-0.872974	0.693945	0.191597	-0.349115	-0.822895	2.701868	1.730779	9.566223	0.359624	1.539093	-0.220755	-0.073046	0.134821	-0.846306	8.955239	4.362109	0.127912	-0.664311	0.910475	-2.497882	-0.203593	-0.749396	-0.065122
0.854774	1.011632	9.583202	-1.179296	-1.36986	1.054505	0.205303	-0.301119	-0.861644	3.045143	0.941363	9.402894	0.300759	1.753968	-0.372806	-0.046723	0.151363	-0.86221	9.181805	4.185116	-0.40759	-1.216998	0.966191	-2.159961	-0.190028	-0.801074	-0.00043
0.977077	1.013238	9.9834	-1.055404	-1.185243	1.087817	0.162213	-0.324352	-0.814953	2.819285	1.167305	9.624806	0.212637	2.091512	-0.585317	-0.086317	0.133674	-0.83168	9.189488	3.721991	-0.050127	-1.865015	1.089058	-2.433261	-0.176612	-0.813757	-0.061634
1.256337	1.471116	9.64978	-1.302655	-1.681229	1.356477	0.190425	-0.290502	-0.850635	2.758763	1.448971	9.510555	0.216223	2.367895	-0.644222	-0.073196	0.10418	-0.844298	8.714482	4.012957	-0.177508	-2.298771	0.843103	-2.461079	-0.190312	-0.797769	-0.062541
1.260009	1.012307	9.818409	-1.701237	-1.745249	1.417919	0.175962	-0.328255	-0.801226	3.044281	1.392007	9.403273	0.22546	3.074586	-0.852984	-0.085431	0.136889	-0.874729	9.128561	4.070335	-0.10965	-3.040083	0.842964	-2.702891	-0.190729	-0.830154	-0.060867
1.194587	1.527634	9.421495	-1.977389	-1.776921	1.387532	0.191569	-0.314516	-0.857879	2.98255	1.673625	9.232383	0.2615	3.474016	-0.910639	-0.086392	0.118353	-0.830676	8.656162	4.187567	-0.11796	-3.448913	0.35997	-3.463159	-0.203731	-0.766414	-0.048758
1.37431	1.299432	9.821842	-1.854326	-1.683805	1.358023	0.162213	-0.324352	-0.814953	2.973657	1.898615	8.836095	0.141624	3.720782	-1.370702	-0.086386	0.178563	-0.820341	9.007092	4.127939	-0.291325	-3.237804	-0.00286	-3.798374	-0.218194	-0.816022	-0.030789
1.196156	0.896018	9.475694	-1.456037	-1.493728	1.022621	0.219838	-0.349864	-0.823594	2.588138	0.998698	9.563189	-0.195599	3.930516	-1.276404	-0.085877	0.105177	-0.858372	8.947941	4.18615	-0.292178	-3.088709	-0.644683	-3.795851	-0.218057	-0.799003	-0.047154
1.139808	1.183508	9.53264	-1.056943	-1.368592	0.992838	0.191954	-0.328287	-0.854463	2.929581	1.1669	9.400666	-0.442169	3.959051	-1.430458	-0.112564	0.132452	-0.816779	9.249489	4.245035	0.073013	-2.51011	-1.280853	-4.192215	-0.19017	-0.799421	-0.031485
1.082802	0.838901	9.530079	-0.874113	-1.552473	1.019991	0.21981	-0.315265	-0.858577	2.930251	1.4486	9.457542	-0.688268	4.075955	-1.02873	-0.059775	0.135967	-0.860931	9.311247	4.01309	0.192938	-2.205114	-1.55284	-4.405954	-0.204424	-0.832837	-0.014354
1.313674	1.356191	9.650411	-0.628884	-1.582756	1.080129	0.177077	-0.31767	-0.843454	3.097573	1.72974	9.234848	-0.503993	4.015369	-0.782559	-0.073196	0.10418	-0.844298	8.773924	4.303449	-0.115264	-1.682992	-1.702325	-4.559941	-0.175912	-0.784677	-0.001197
1.196689	1.700441	9.535925	-0.59923	-1.642339	0.925736	0.148464	-0.320449	-0.828679	3.333209	1.447846	9.466005	-0.349054	4.048395	-0.843762	-0.099368	0.118278	-0.830401	9.061977	4.010663	-0.530346	-1.192154	-2.037346	-4.529558	-0.190099	-0.800248	-0.015957
1.204774	1.300039	9.932208	-0.753397	-1.577766	0.589884	0.190425	-0.290502	-0.850635	2.64143	1.336431	9.394763	-0.319094	4.015305	-0.412475	-0.112414	0.163093	-0.818786	8.663034	4.072899	0.240987	-0.667903	-2.066681	-4.470193	-0.231685	-0.783841	-0.032533
1.203868	1.01259	9.874148	-0.906311	-1.642031	0.773286	0.150722	-0.333878	-0.878152	2.700767	1.674401	9.509536	-0.068393	4.294619	-0.440323	-0.073046	0.134821	-0.846306	8.717379	4.187927	0.002955	-0.234176	-2.038007	-4.13572	-0.203936	-0.801278	-0.0005
0.908315	1.527841	9.415928	-0.814094	-1.57979	0.743365	0.191211	-0.335344	-0.826311	3.048338	1.166827	9.573002	-0.282235	4.504914	-0.19178	-0.099073	0.11935	-0.84475	8.657802	3.95551	-0.059042	0.444408	-2.067102	-4.046353	-0.203727	-0.785086	-0.001337
0.919864	0.955838	9.982046	-0.9976	-1.42525	0.593065	0.191197	-0.318044	-0.843803	2.934871	1.561451	9.684196	0.059202	4.689386	0.396063	-0.07238	0.152285	-0.876009	9.130762	4.070829	0.010163	0.84922	-1.731702	-3.804925	-0.217147	-0.753731	0.012446
1.251965	1.355268	9.421885	-1.242	-1.303467	0.595748	0.204189	-0.311704	-0.819416	2.990665	1.223265	9.571841	-0.033207	4.718271	0.48876	-0.047464	0.118578	-0.831504	8.952458	3.664208	-0.114682	1.005043	-1.7343	-3.499857	-0.218057	-0.799003	-0.047154
1.02633	1.298716	9.587749	-1.270605	-0.96521	0.57066	0.176705	-0.321198	-0.829378	2.882572	1.336426	9.909356	-0.127292	4.623895	0.672715	-0.124805	0.104951	-0.857545	8.719174	4.362649	0.12351	1.498375	-1.732525	-3.501652	-0.175912	-0.784677	-0.001197
0.855887	1.011874	9.640055	-0.809646	-0.559724	0.238577	0.205332	-0.335718	-0.82666	2.765239	1.223886	9.793564	-0.155534	4.8664	1.045042	-0.085431	0.136889	-0.874729	8.708865	4.534652	-0.41491	1.503034	-1.461951	-3.044529	-0.231823	-0.80086	-0.016168
1.43041	1.356591	9.766344	-0.562571	-0.282339	0.273041	0.176319	-0.307427	-0.832794	3.110739	1.166909	9.80077	-0.498995	4.585509	1.134456	-0.086317	0.133674	-0.83168	8.833615	4.012934	-0.1154	1.781391	-1.586778	-2.708757	-0.231823	-0.80086	-0.016168
1.202754	1.012349	9.817295	-0.531124	0.091106	-0.119663	0.19084	-0.338872	-0.812235	2.935517	1.223468	9.683911	-0.283242	4.556984	1.226831	-0.099218	0.148919	-0.832408	8.714057	3.72233	-0.238651	1.752879	-1.591302	-2.280761	-0.217848	-0.782811	-0.047991
1.260956	1.242315	9.876227	-0.498237	0.460379	-0.144424	0.188582	-0.325443	-0.762763	2.525545	1.73096	9.392678	-0.317175	4.340334	1.471275	-0.098702	0.135742	-0.860104	9.539338	4.126971	-0.221514	1.444907	-1.717289	-2.034545	-0.203798	-0.784259	-0.016865
1.191536	1.124819	9.249247	-0.221398	0.771766	-0.385504	0.162599	-0.338123	-0.811537	2.765909	1.505586	9.85044	-0.257959	4.155925	1.654458	-0.085431	0.136889	-0.874729	9.23835	4.300638	-0.525809	1.321633	-1.966228	-1.666162	-0.217635	-0.78529	-0.001407
0.915244	1.184639	9.755598	-0.587319	0.98378	-0.258333	0.189697	-0.314858	-0.804991	2.64903	1.787407	9.79162	-0.349978	4.215474	1.74746	-0.098847	0.165311	-0.847761	9.133098	4.013248	0.12973	1.105981	-2.029443	-1.542829	-0.203936	-0.801278	-0.0005
1.20032	1.299074	9.704795	-0.278806	1.417541	-0.436179	0.190425	-0.290502	-0.850635	2.81445	1.167116	9.398248	-0.28971	4.093802	1.715471	-0.098477	0.181704	-0.863115	9.066513	3.953576	-0.290966	0.549414	-2.40103	-1.29454	-0.189402	-0.752496	-0.002941
0.915368	1.012315	9.754875	-0.429708	1.973472	-0.73339	0.162956	-0.317295	-0.843105	2.878191	1.730598	9.739769	-0.287488	4.277183	1.809781	-0.085726	0.135817	-0.86038	8.890005	3.721677	-0.295256	0.240117	-2.524494	-1.29283	-0.204287	-0.815818	-0.030718
0.919532	1.41537	9.983976	-0.150456	2.528277	-0.755845	0.206089	-0.345961	-0.837321	2.583434	1.56186	9.393744	-0.502732	4.394278	2.242367	-0.072826	0.120572	-0.859652	9.128986	4.360962	-0.048507	0.117928	-2.806543	-0.679789	-0.203869	-0.783433	-0.032393
1.087215	0.897307	9.757732	-0.238719	3.237106	-0.958748	0.177477	-0.34874	-0.822546	2.642424	1.449139	9.451498	-0.379387	4.42329	2.736007	-0.12429	0.091775	-0.885241	8.944795	4.592188	-0.410261	-0.407894	-3.146798	-0.492884	-0.189753	-0.767036	-0.033159
1.602007	1.586233	9.77065	-0.78785	3.821904	-1.254344	0.12098	-0.329942	-0.838641	2.650994	1.393141	9.847928	-0.37459	4.849166	3.264326	-0.059624	0.166608	-0.862938	9.184681	3.89523	-0.289012	-0.746394	-3.149278	-0.369396	-0.176679	-0.831602	-0.029741
1.550859	0.84074	10.050664	-0.809455	5.235402	-1.231309	0.190797	-0.286974	-0.864711	2.701198	1.449079	9.509346	-0.31362	4.78842	3.294599	-0.072895	0.165461	-0.848313	8.836241	4.304056	0.065557	-1.268972	-3.18522	-0.03114	-0.175774	-0.767659	-0.017561
0.809933	0.784561	10.206507	1.066218	6.853969	-2.253122	0.162956	-0.317295	-0.843105	2.4729	1.055244	9.560818	-0.899556	4.901013	3.696016	-0.085802	0.120497	-0.859376	8.901705	3.898625	0.364461	-1.668125	-2.910415	-0.122695	-0.190099	-0.800248	-0.015957
0.928896	0.785443	10.436146	2.456793	9.143533	-3.017292	0.177477	-0.34874	-0.822546	2.642424	1.449139	9.451498	-0.928852	5.023478	3.666382	-0.071865	0.139108	-0.903705	8.823866	4.417488	-0.592924	-1.449248	-2.480763	-0.186664	-0.175982	-0.783851	-0.016724
0.86072	-1.055298	9.801927	3.976638	12.04026	-3.066592	0.177091	-0.334969	-0.825962	2.638689	1.505327	9.281627	-1.669964	5.044534	3.696823	-0.07319	0.16439	-0.833963	8.769657	4.244384	-0.355139	-1.665092	-2.419416	-0.277863	-0.217986	-0.79983	-0.031626
1.040971	1.072086	10.325874	7.68683	16.783261	-2.417482	0.204189	-0.311704	-0.819416	2.820949	1.561714	9.738417	-1.82623	4.890059	3.571848	-0.047539	0.103258	-0.8305	8.954253	3.83893	0.005873	-1.417869	-1.984923	-0.800399	-0.161933	-0.785299	0.014401
1.670687	1.186513	10.338605	1.371222	23.21294	-5.545673	0.205318	-0.318419	-0.844152	2.817538	1.448911	9.568404	-2.480004	4.454947	3.197056	-0.072531	0.121644	-0.874001	8.408127	4.127312	-0.781584	-0.923457	-2.01626	-0.557538	-0.19017	-0.799421	-0.031485
1.092492	1.300604	10.043687	0.478175	27.639149	-5.961861	0.178606	-0.355455	-0.847282	2.415442	0.999021	9.559562	-2.238698	3.940817	2.575572	-0.111383	0.136739	-0.874178	9.006552	4.360243	-0.290336	-0.218593	-2.067637	-1.262787	-0.189823	-0.76621	-0.048687
1.041137	0.84232	10.324908	1.427237	33.191192	-7.346466	0.219824	-0.332564	-0.841086	2.932022	1.786678	9.571106	-2.58244	3.543908	1.646502	-0.073266	0.149069	-0.832959	8.997904	4.765045	-0.707954	0.669869	-2.146732	-2.182501	-0.217919	-0.781985	-0.063518
0.812818	1.417142	10.379721	-0.499188	38.181925	-6.493065	0.233159	-0.288098	-0.865758	2.820733	1.674375	9.738512	-2.739993	3.268184	1.304523	-0.060365	0.133824	-0.832232	8.815353	4.764214	-1.010789	1.435214	-2.071434	-3.285871	-0.203519	-0.768893	-0.002174
0.494529	1.939913	11.682833	-0.489254	45.575314	-8.05972	0.22021	-0.346335	-0.83767	2.70042	1.223709	9.452517	-2.583923	3.393002	1.275062	-0.059555	0.121719	-0.874277	9.415398	4.300233	-0.522508	2.811635	-2.511095	-4.664044	-0.231685	-0.783841	-0.032533
0.500102	0.389957	11.90373	1.591424	53.929301	-6.795143	0.17822	-0.341683	-0.850698	2.637804	1.336288	9.224845	-2.559268	2.845461	0.653074	-0.06044	0.118503	-0.831228	9.178503	4.184374	-0.587311	3.89037	-2.41324	-4.882349	-0.203798	-0.784259	-0.016865
0.5086	-0.58486	12.297599	-4.828309	61.059307	1.343703	0.247293	-0.305772	-0.848616	2.706788	1.054955	9.735573	-2.596556	2.324981	0.4629	-0.086097	0.119425	-0.845026	8.70761	4.127626	-0.536455	4.999886	-2.066779	-5.468691	-0.218124	-0.816848	-0.015261
1.935527	1.838511	15.120259	5.612222	66.249073	5.906103	0.22021	-0.346335	-0.83767	2.589778	0.773423	9.619639	-2.172613	1.598544	-0.160545	-0.07216	0.138036	-0.889355	8.821375	4.068291	-0.774129	5.957421	-1.849218	-5.473197	-0.176049	-0.801696	0.015168
1.500767	1.084582	13.346882	14.845165	74.502599	2.640311	0.218681	-0.308551	-0.833841	2.762821	1.223791	9.680284	-2.491422	0.770099	-0.693116	-0.111823	0.165236	-0.847486	8.942574	4.126838	-0.59196	6.488698	-1.395115	-4.835494	-0.204354	-0.833663	0.001174
0.633996	-0.237882	12.869805	22.139223	79.233557	3.002898	0.235088	-0.356953	-0.848679	2.932884	1.336034	9.570727	-2.344163	0.190433	-0.852902	-0.072531	0.121644	-0.874001	8.648594	4.127761	-0.537555	7.203909	-0.969359	-4.351128	-0.18989	-0.784055	-0.016795
0.926291	-0.868739	13.156983	18.636803	84.165885	8.27587	0.233159	-0.288098	-0.865758	2.64441	1.674556	9.564967	-2.167645	-0.511905	-0.952228	-0.046133	0.153507	-0.89091	8.998424	4.067885	-0.770827	7.114289	-0.540496	-4.444536	-0.190237	-0.817266	0.000407
3.145748	1.724446	15.541132	28.344455	76.433283	11.311498	0.291198	-0.361979	-0.836	2.824791	1.449195	9.908241	-2.051788	-1.151889	-1.328435	-0.047094	0.134971	-0.846857	9.177808	4.009899	-0.647959	6.898559	-0.293089	-4.781114	-0.203798	-0.784259	-0.016865
4.744039	3.790457	15.410437	74.859104	65.031964	-7.46966	0.305333	-0.379653	-0.818857	2.535755	1.449687	9.845557	-1.78294	-1.912173	-1.76737	-0.086097	0.119425	-0.845026	8.873883	3.078885	-1.256486	6.809165	0.22849	-4.96665	-0.203936	-0.801278	-0.0005
6.024629	-0.884291	10.471396	97.433364	54.388563	-21.632168	0.263329	-0.357702	-0.849377	2.537095	2.013087	9.959311	-1.729456	-2.584618	-1.989809	-0.073046	0.134821	-0.846306	9.474259	3.893319	-0.583045	6.226926	0.747351	-5.058702	-0.190516	-0.832633	-0.014283
6.334472	-3.592012	8.647436	79.070391	50.386862	-42.073076	0.291198	-0.361979	-0.836	2.699989	1.449031	9.452707	-2.074206	-2.986775	-2.117397	-0.098627	0.151063	-0.861107	9.176012	3.835176	-0.768515	5.179046	0.866885	-5.147163	-0.217848	-0.782811	-0.047991
8.72301	-5.275763	4.879161	25.571209	25.395843	-49.871709	0.332817	-0.37016	-0.808896	2.413671	0.660943	9.445998	-2.262536	-3.233646	-2.243316	-0.111754	0.120347	-0.858824	9.3503	3.601725	-0.945923	4.437863	0.928555	-5.450389	-0.20359	-0.768067	-0.017702
10.152744	-3.65609	7.812149	2.378469	6.273178	-64.258582	0.319825	-0.3765	-0.833283	3.105257	1.504702	9.574496	-2.417008	-3.235606	-2.243459	-0.085211	0.122641	-0.888075	10.051911	4.063477	-1.230274	4.089649	0.634048	-6.670178	-0.190099	-0.800248	-0.015957
10.257931	-3.083688	7.361965	1.088385	-1.194035	-83.889742	0.304947	-0.365882	-0.822273	2.532991	0.9989	9.675259	-2.199188	-3.1102	-2.242037	-0.111383	0.136739	-0.874178	10.111872	3.65681	-1.230905	3.797566	-0.425918	-7.794823	-0.162421	-0.816858	0.000548
10.010523	-3.834363	6.387871	-3.755678	-7.800245	-96.901405	0.362573	-0.391394	-0.830914	2.76239	1.449113	9.680474	-2.784856	-2.996193	-2.056407	-0.034118	0.135046	-0.847133	10.052046	4.005401	-1.230522	3.132466	-1.69881	-9.161576	-0.148308	-0.78179	-0.04764
9.010147	-4.931079	4.94303	-16.601439	-17.063248	-98.487956	0.319825	-0.3765	-0.833283	2.595068	1.167974	9.903169	-2.781307	-2.69135	-1.775921	-0.059624	0.166608	-0.862938	10.114228	4.064084	-1.049453	3.242498	-3.256515	-9.337905	-0.190725	-0.848825	-0.013446
8.95223	-4.011973	4.945777	-29.835607	-30.367586	-90.872098	0.375936	-0.381526	-0.820603	2.876073	0.941828	9.569186	-2.162521	-2.592923	-1.558649	-0.085877	0.105177	-0.858372	9.874572	3.715179	-1.294966	2.73957	-4.388812	-9.452922	-0.176329	-0.817062	0.000478
8.271733	-3.837704	5.274258	-36.37321	-44.623361	-78.013893	0.36183	-0.398451	-0.802762	2.759841	0.885666	9.510081	-1.789333	-2.403624	-1.64895	-0.072675	0.151213	-0.861659	9.883916	3.484853	-0.8167	2.603375	-5.358317	-10.395176	-0.1764	-0.816236	-0.01505
7.983892	-3.205881	5.214492	-37.402437	-57.663715	-61.716654	0.376693	-0.391769	-0.831264	3.047237	1.110449	9.516315	-1.420862	-2.58251	-1.712088	-0.073121	0.1195	-0.845302	9.581267	3.425721	-1.241798	2.047123	-5.326888	-10.668355	-0.162071	-0.802318	0.030766
6.909378	-3.144757	5.875814	-38.126684	-67.875903	-42.615067	0.375564	-0.385054	-0.806527	2.585828	0.942272	9.449862	-0.9585	-2.668023	-1.805051	-0.098702	0.135742	-0.860104	9.112304	3.485619	-1.070633	1.437318	-4.907486	-10.026381	-0.175982	-0.783851	-0.016724
6.529297	-2.508026	6.950882	-39.534628	-74.960017	-23.125468	0.390442	-0.395672	-0.817537	2.81512	1.448816	9.455125	-0.529177	-2.908261	-1.745438	-0.099513	0.147847	-0.818058	8.814732	3.137096	-1.257339	0.79677	-4.519413	-9.323021	-0.231752	-0.801686	-0.00064
6.010128	-1.761637	6.773439	-39.879446	-81.259434	-7.339393	0.347352	-0.418904	-0.770845	2.990126	1.504918	9.572078	-0.409343	-3.212543	-1.871679	-0.046579	0.121794	-0.874553	9.05877	3.022135	-0.834084	0.495194	-4.005558	-8.835411	-0.176329	-0.817062	0.000478
6.198837	-0.551629	7.691496	-40.610381	-88.196722	4.878601	0.361058	-0.370909	-0.809594	2.536186	1.224365	9.845368	-0.073172	-3.513679	-2.059371	-0.05985	0.120647	-0.859927	8.712916	2.792371	-0.422327	0.256958	-3.215234	-8.44103	-0.190028	-0.801074	-0.00043
5.867476	-0.433843	8.310682	-40.591614	-95.082279	12.831927	0.375207	-0.405882	-0.77496	2.533337	1.449592	9.732278	0.261478	-3.937277	-2.279109	-0.085651	0.151138	-0.861383	8.530521	3.19832	-0.663525	-0.316598	-2.557624	-7.15853	-0.162909	-0.848417	-0.013306
5.651447	0.086191	8.990637	-41.102635	-100.473655	16.241657	0.346966	-0.405133	-0.774261	2.99848	1.56158	9.968603	0.966662	-4.357179	-2.344373	-0.112269	0.133524	-0.831129	8.409187	3.197848	-0.845447	-0.121151	-1.893771	-6.215007	-0.231543	-0.785494	-0.001477
4.914644	0.49051	9.375822	-41.729219	-102.75473	16.482391	0.375979	-0.433424	-0.768128	2.998457	0.941897	9.911441	1.238977	-4.813034	-2.44117	-0.0726	0.166533	-0.862663	8.594054	2.676242	-0.484929	0.01349	-1.014437	-5.425094	-0.148304	-0.800462	-0.000219
4.178871	1.009952	9.818343	-40.816599	-101.195615	12.242616	0.389728	-0.437327	-0.754401	2.880262	1.280001	9.796029	1.818907	-5.357773	-2.415292	-0.059624	0.166608	-0.862938	8.348375	3.023261	-0.967103	-0.095821	-0.048	-4.267966	-0.203586	-0.786738	0.029719
4.260374	1.359868	11.071673	-37.473825	-96.706055	5.467343	0.375236	-0.440481	-0.739976	2.988247	1.22317	9.458562	2.583302	-5.962098	-2.297374	-0.084766	0.154353	-0.904432	8.239552	2.85128	-0.49079	0.198249	1.349716	-3.267156	-0.203657	-0.785912	0.014191
3.392691	1.301118	10.599904	-34.462386	-90.10606	-3.1744	0.388585	-0.413313	-0.747157	2.705256	1.223899	9.679076	2.977165	-6.54147	-2.025367	-0.072895	0.165461	-0.848313	8.238431	2.386178	-0.612582	0.056582	2.101612	-2.078305	-0.1764	-0.816236	-0.01505
2.998259	1.762388	10.935159	-32.095301	-83.444977	-12.059102	0.446224	-0.456125	-0.738306	2.754144	1.33612	9.283902	3.281818	-6.817571	-1.411307	-0.034413	0.133974	-0.832783	8.585945	2.84874	-0.903536	0.071116	3.005439	-0.737919	-0.162071	-0.802318	0.030766
2.424435	1.992327	10.868136	-29.612258	-78.392486	-20.050596	0.390114	-0.451098	-0.750986	2.939036	1.279941	9.853877	2.932047	-7.589545	-1.265124	-0.099218	0.148919	-0.832408	8.888864	2.791719	-0.478933	-0.5659	3.542068	0.392652	-0.190379	-0.815614	-0.030648
1.969	1.476167	10.970763	-28.667251	-75.36698	-26.169261	0.446582	-0.435297	-0.769874	2.823259	1.618139	9.851744	3.481198	-8.076774	-0.714622	-0.085211	0.122641	-0.888075	8.705058	2.383861	-0.903313	-1.109482	3.984108	1.828979	-0.134676	-0.815624	-0.01484
1.615659	1.187037	10.451197	-30.201144	-73.366719	-29.659744	0.44661	-0.469896	-0.734891	2.356883	0.88642	9.501619	3.138759	-8.209187	0.116144	-0.073046	0.134821	-0.846306	8.937436	3.021663	-1.016005	-1.90369	4.370702	2.624659	-0.190867	-0.847173	-0.044502
0.700992	0.785851	10.488546	-34.909871	-71.513574	-29.616076	0.491215	-0.467149	-0.802902	2.8105	1.335965	9.228471	3.319798	-8.48706	0.760917	-0.072826	0.120572	-0.859652	8.645252	3.197308	-0.841045	-2.792593	4.947441	2.74738	-0.204287	-0.815818	-0.030718
-0.046159	0.096367	10.300615	-42.60699	-68.875431	-26.821144	0.563333	-0.489507	-0.825968	2.756346	1.448876	9.397276	2.481733	-8.718549	1.713614	-0.111748	0.180557	-0.848489	9.35219	2.788661	-0.949384	-4.111252	5.208529	3.66782	-0.148584	-0.815828	-0.01491
0.023919	0.845961	10.987103	-49.2609	-66.768245	-22.872344	0.536206	-0.478173	-0.867498	3.677847	1.841513	9.47359	2.680999	-9.949717	2.811349	-0.059039	0.108542	-0.901973	9.343791	2.612455	-1.429381	-5.768697	5.685053	4.343953	-0.204145	-0.81747	0.000337
-0.434697	1.650474	10.981573	-50.108533	-67.210476	-19.472518	0.537321	-0.467588	-0.909726	3.395047	1.109897	9.636848	-0.24618	-11.567484	5.38249	-0.06066	0.132752	-0.817882	9.233638	3.486091	-0.888712	-6.839263	6.254826	5.078648	-0.190725	-0.848825	-0.013446
-0.878547	2.056032	11.713445	-48.602382	-68.592546	-16.278833	0.523958	-0.477456	-0.920037	1.72401	1.338297	9.54534	-0.004752	-11.909133	6.51994	-0.085281	0.16753	-0.876737	9.528428	3.136712	-0.9446	-8.804272	6.759889	5.84746	-0.190166	-0.818093	0.015935
-1.391361	1.712239	11.815682	-43.094816	-72.230679	-13.133383	0.498689	-0.448481	-1.031946	1.331824	1.395809	10.046681	-2.827009	-12.745976	7.09509	-0.059919	0.165536	-0.848589	9.589875	2.091209	-0.947949	-10.274811	7.326649	6.73645	-0.218191	-0.834693	0.016632
-2.27179	2.340133	10.721425	-39.547123	-75.853196	-9.460712	0.485311	-0.44105	-1.059749	2.705579	1.054907	9.678933	-7.879318	-16.263373	9.984771	-0.112344	0.118203	-0.830125	9.465935	2.264471	-1.248943	-11.81216	7.623545	7.076811	-0.162212	-0.800666	-0.000289
-4.71736	2.805067	11.528272	-40.497036	-75.32155	-2.518139	0.472277	-0.395491	-1.136611	2.538088	2.125795	10.016045	-10.313853	-17.997602	12.555187	-0.111754	0.120347	-0.858824	9.998221	3.193214	-1.055363	-12.828304	7.741618	7.141058	-0.176609	-0.832428	-0.014213
-6.780622	2.633752	11.373756	-37.02192	-69.378544	6.216678	0.430301	-0.408139	-1.132147	2.997056	1.674194	9.912058	-15.377344	-22.345788	15.837409	-0.111829	0.105026	-0.857821	10.107295	2.784186	-1.594054	-13.385157	7.308513	7.420224	-0.190375	-0.834285	0.016772
-8.706034	2.524861	12.415623	-34.67303	-59.357856	18.179012	0.402017	-0.355492	-1.183924	3.062868	1.787079	10.309839	-16.815547	-28.271929	18.891077	-0.112784	0.1467	-0.803433	9.461709	3.135117	-1.365048	-14.090466	7.298712	8.125815	-0.176746	-0.849447	0.002152
-10.308376	2.985795	12.443229	-28.168718	-48.021904	32.388245	0.331771	-0.332791	-1.213746	3.512488	1.166107	9.752592	-20.456015	-32.563827	20.972701	-0.112489	0.147772	-0.817783	9.405974	2.671138	-1.248313	-15.074602	6.327937	9.967918	-0.190587	-0.831806	-0.029811
-11.853256	3.15948	12.470742	-16.833923	-37.59895	45.003909	0.304273	-0.324985	-1.241199	3.514128	0.940832	9.809042	-22.905531	-35.578571	22.328082	-0.086462	0.163243	-0.819338	9.229601	2.381163	-1.25285	-16.245997	5.174536	11.658769	-0.177026	-0.864813	-0.012539
-13.070774	2.582558	11.649002	-7.153548	-25.435175	55.199058	0.248148	-0.302659	-1.27137	3.35121	0.885204	10.258485	-29.469576	-41.639734	21.923418	-0.112564	0.132452	-0.816779	9.405434	2.903442	-1.247324	-16.714486	3.662917	12.737486	-0.218821	-0.864599	-0.028277
-13.937545	1.260094	11.171925	-4.378875	-8.952519	63.858852	0.276389	-0.303408	-1.272069	3.345728	1.222998	10.032211	-34.395459	-47.361448	24.359764	-0.137995	0.179335	-0.833588	9.644239	2.671092	-1.124097	-17.238046	2.666389	14.272448	-0.190658	-0.83098	-0.045339
-13.303831	2.007343	11.414723	-5.581065	11.933307	67.389829	0.220264	-0.281083	-1.30224	3.009252	1.618338	10.478406	-39.345177	-54.839678	27.981005	-0.112338	0.178413	-0.81979	8.818958	2.26645	-1.141234	-17.147339	1.459217	15.683942	-0.205051	-0.881414	-0.011842
-12.067907	2.403456	10.246994	-5.978108	34.826485	62.122215	0.191623	-0.249263	-1.322449	3.215342	1.224981	12.01097	-43.776864	-65.546	28.980888	-0.126275	0.159802	-0.775461	9.764182	2.322613	-1.063473	-17.940525	0.539919	18.53394	-0.204775	-0.847377	-0.044572
-9.569045	2.79938	9.274321	-9.251829	53.832294	48.736463	0.219121	-0.257069	-1.294995	3.784259	0.322283	11.625824	-49.929342	-80.585072	27.654919	-0.177068	0.208679	-0.820418	8.709034	2.094223	-0.724828	-18.845847	-0.028507	22.911148	-0.190934	-0.865018	-0.012609
6.531871	-29.586773	14.736223	471.628434	124.792989	-29.32665	0.234714	-0.226031	-1.36914	4.568865	2.465391	16.22994	-54.005918	-93.145709	21.761662	-0.152077	0.190293	-0.776917	9.004905	1.280236	-0.782694	-20.522938	-0.19416	26.525147	-0.19045	-0.814788	-0.046176
6.960811	-1.250193	5.657478	137.628499	161.944688	-50.673401	0.221393	-0.287797	-1.326976	4.326661	0.493637	15.48713	-19.665245	-114.69334	10.106739	-0.165278	0.144256	-0.77363	8.575616	2.555887	-1.503841	-19.843895	0.055201	26.307511	-0.218332	-0.833041	-0.014424
7.588314	-0.88155	11.411109	205.326787	170.46416	-124.156748	0.264155	-0.319991	-1.307116	4.239441	0.438613	16.787376	-33.414731	-139.71554	4.236259	-0.190634	0.20646	-0.791443	8.274979	4.472824	-1.561092	-17.926189	1.226773	20.150692	-0.204216	-0.816644	-0.015191
0.9101	6.136715	12.617892	81.378179	147.209413	-93.428552	0.321466	-0.418229	-1.231714	4.247762	2.018678	20.015952	-17.954545	-170.409876	2.001584	-0.204791	0.202097	-0.733769	9.504691	7.663675	-1.644198	-12.360556	1.240613	11.846866	-0.162634	-0.814379	-0.046036
-1.313728	3.427682	10.005849	36.722742	107.647091	-58.076414	0.364171	-0.381225	-1.281821	3.973856	1.062073	20.575497	-21.416534	-209.325828	3.492796	-0.256695	0.201797	-0.732666	11.221162	8.823011	-1.187993	-2.166205	-2.182336	9.167085	-0.204633	-0.849029	-0.013516
-2.782833	2.628679	10.940022	-11.423596	31.623491	-7.150942	0.335187	-0.387533	-1.252971	3.74612	1.006268	20.683893	-15.291012	-249.960519	3.310021	-0.243944	0.155911	-0.72993	14.453091	7.43129	1.14196	5.880195	-10.102757	14.769288	-0.190587	-0.831806	-0.029811
0.769309	1.522616	8.162933	-11.712043	15.253308	8.009743	0.376791	-0.378414	-1.243358	4.337559	2.864856	21.603781	-19.839186	-283.764631	11.941871	-0.283677	0.228	-0.676722	14.872341	6.21149	1.324192	2.220992	-12.032132	13.752495	-0.190796	-0.847999	-0.028974
1.750802	1.006627	8.577662	-10.691664	15.200879	10.336589	0.39204	-0.385503	-1.268443	4.678224	2.807689	21.384429	-36.709086	-315.155823	16.487685	-0.310075	0.196138	-0.659814	11.211234	5.23158	1.012134	-4.071991	-7.115887	0.517341	-0.204704	-0.848203	-0.029044
1.603825	0.609968	9.8234	-12.465792	22.735211	14.63467	0.376762	-0.343815	-1.278342	5.559651	3.147151	24.969933	-24.315263	-338.965783	17.155399	-0.37584	0.192547	-0.615386	9.028311	4.946196	0.970181	-9.733326	-3.401985	-2.688954	-0.18989	-0.784055	-0.016795
1.612609	0.784222	10.278949	-14.266879	25.370978	19.957027	0.406518	-0.36505	-1.30036	7.29693	2.806314	25.459032	13.882791	-349.264068	21.80082	-0.338238	0.218053	-0.546472	8.057082	4.709871	-0.546087	-12.324167	-1.136232	5.07266	-0.1764	-0.816236	-0.01505
1.151523	0.381739	10.097793	-6.186991	18.546982	12.524613	0.379049	-0.391843	-1.29283	7.759029	0.329151	28.01419	71.52222	-346.013184	22.095272	-0.364705	0.23108	-0.518225	8.817959	4.59048	-0.891717	-14.174917	-2.100376	11.89995	-0.218265	-0.815196	-0.046316
1.262733	0.323491	9.929219	7.181792	11.064393	2.980573	0.391654	-0.371732	-1.271859	5.708053	0.047464	23.554961	108.067868	-344.40062	25.161987	-0.41728	0.153106	-0.497754	8.166176	4.765699	-1.022894	-13.748887	-4.60638	8.884391	-0.176679	-0.831602	-0.029741
1.198424	0.839059	9.589159	8.58935	7.0659	1.10215	0.378277	-0.364301	-1.299662	2.603396	-1.582638	20.827452	131.26124	-349.290007	19.212882	-0.406371	0.145678	-0.397581	8.578478	5.11321	-1.013708	-11.509914	-7.156263	4.823367	-0.190241	-0.798595	-0.047013
1.031157	0.782707	9.812989	4.741011	7.729652	3.332077	0.39204	-0.385503	-1.268443	1.221672	-2.763087	20.684163	125.031438	-331.590358	20.832492	-0.484742	0.158404	-0.368231	9.235474	4.590524	-0.644387	-7.336213	-9.370635	4.482615	-0.218683	-0.847581	-0.044642
1.426204	1.010977	9.537484	2.642414	9.582538	4.410917	0.378291	-0.3816	-1.28217	-3.968239	-3.091749	20.12196	135.065314	-310.198738	15.349475	-0.485482	0.125619	-0.337524	9.255842	4.827526	0.494833	-4.907173	-10.404692	4.753828	-0.204149	-0.798799	-0.047083
1.484116	1.643033	9.598105	1.582246	10.824622	5.568835	0.406175	-0.403177	-1.251301	-6.913122	-2.685166	27.759997	132.626447	-315.971398	5.486679	-0.498974	0.138721	-0.309553	9.673877	4.13041	0.67929	-3.805234	-10.416473	3.313392	-0.191076	-0.863365	-0.043665
1.310416	1.240584	9.479369	-2.170071	12.227714	7.687775	0.41991	-0.38978	-1.255066	-16.35994	-10.564058	15.778895	235.396225	-315.875198	-6.545045	-0.514242	0.085181	-0.205818	9.628201	4.075436	1.396825	-1.608812	-7.628275	0.633117	-0.17675	-0.830776	-0.045269
1.426986	1.47075	9.596267	-3.252805	11.093676	6.967129	0.391654	-0.371732	-1.271859	-23.150717	-5.438998	0.015283	257.312838	-175.919597	-23.819081	-0.552429	0.117741	-0.235697	9.734554	4.363073	0.801194	0.734542	-3.300998	0.023282	-0.204428	-0.814165	-0.061774
1.658604	0.954093	9.712255	-6.449993	9.792282	6.587181	0.363785	-0.367454	-1.285237	-16.203717	-10.309381	-14.619409	204.406897	-7.801241	-9.058624	-0.567106	0.066345	-0.160662	9.916294	4.712361	1.105513	2.958784	0.086511	1.527213	-0.162842	-0.830572	-0.045199
0.917595	1.012797	9.868581	-6.060022	9.349173	5.168182	0.419524	-0.376009	-1.258482	-10.537833	-7.997428	0.334539	82.890712	143.318854	-22.820147	-0.553094	0.100277	-0.205994	10.196914	4.301692	0.270588	3.020632	2.477129	-1.876895	-0.190867	-0.847173	-0.044502
1.556592	0.61218	10.333965	-3.676893	8.724723	4.292496	0.379049	-0.391843	-1.29283	-10.39576	-6.186777	9.850301	12.889089	186.05234	-41.933253	-0.566221	0.069561	-0.203711	9.26148	4.770686	0.794121	2.20272	4.899267	-2.710674	-0.190938	-0.846346	-0.06003
1.32283	1.013472	10.103787	-0.867659	7.891677	3.013514	0.405046	-0.396462	-1.226565	-9.434218	-4.217562	9.249477	2.819548	182.368664	-55.571885	-0.604633	0.056159	-0.23058	8.727978	4.364627	0.602765	2.424782	5.540235	-2.500602	-0.218683	-0.847581	-0.044642
0.808245	0.037339	10.089664	1.514786	7.362892	1.832698	0.419896	-0.372481	-1.272558	-9.406912	-2.303476	8.006227	5.924992	187.445436	-67.201269	-0.591437	0.041986	-0.244202	8.77817	3.897659	0.062726	3.187592	6.493108	0.273286	-0.232173	-0.8154	-0.046387
1.436474	0.668499	10.047714	2.585999	8.248529	0.065278	0.419524	-0.376009	-1.258482	-9.268171	-2.248796	6.423992	10.499673	208.607557	-77.097097	-0.603453	0.060447	-0.287979	8.939637	3.022158	-0.896192	3.579771	7.663205	2.61965	-0.204354	-0.833663	0.001174
1.375589	1.069907	9.87773	5.439559	9.723218	-1.421703	0.405761	-0.354807	-1.2897	-8.881467	-1.968515	5.696377	5.27995	241.646605	-87.190563	-0.563645	0.003678	-0.342191	8.927958	3.310065	-1.494024	1.00058	8.533776	3.327799	-0.204704	-0.848203	-0.029044
1.376786	0.955265	9.9341	7.833875	11.350794	-3.027564	0.447779	-0.394058	-1.241688	-8.820575	-1.179806	5.924808	-11.400537	274.798186	-95.565818	-0.562609	0.037534	-0.387247	8.704113	2.790394	-0.901582	-3.328783	8.138852	1.572682	-0.204078	-0.799625	-0.031556
1.144801	0.437733	9.756915	6.980434	12.553964	-3.772266	0.405789	-0.389406	-1.254717	-6.795122	-1.07049	6.476971	-29.436826	298.792539	-101.968102	-0.573373	0.015393	-0.499762	8.051094	3.023441	-1.092419	-6.942872	7.70391	0.976583	-0.204704	-0.848203	-0.029044
1.030002	0.839907	9.756378	5.820014	13.256367	-3.849515	0.392412	-0.381975	-1.282519	-5.90038	0.281154	8.082152	-43.292002	311.688988	-107.182945	-0.572123	-0.025209	-0.5685	7.645954	2.909965	-0.681268	-8.859996	7.272861	0.588264	-0.190934	-0.865018	-0.012609
0.916482	1.012556	9.811728	7.146523	14.583221	-3.77043	0.406532	-0.382349	-1.282869	-4.327657	0.109963	8.964244	-51.8818	316.104006	-111.029372	-0.53246	-0.052409	-0.610369	8.117253	2.792486	-0.732866	-11.813525	6.442898	2.925733	-0.217844	-0.801482	-0.00057
1.030085	0.725024	9.755895	7.644286	15.878604	-3.965489	0.406547	-0.399649	-1.265377	-3.352456	-0.004672	8.814782	-59.356699	316.0542	-113.224183	-0.530688	-0.045977	-0.696467	8.185612	2.562024	-0.253499	-14.817671	4.998486	2.546181	-0.204562	-0.849855	0.002011
0.8042	1.013121	9.923207	8.664778	17.734762	-4.61297	0.406161	-0.385878	-1.268793	-2.373282	0.331526	8.892257	-70.621817	314.6245	-112.970093	-0.477013	-0.039246	-0.783669	8.001556	2.735174	-0.6155	-16.178228	1.923978	0.640296	-0.19017	-0.799421	-0.031485
0.746987	0.955721	9.921852	9.939958	21.348491	-5.661983	0.37792	-0.385128	-1.268094	-1.369908	1.288356	10.159686	-84.888711	313.138556	-109.914243	-0.424224	-0.03573	-0.827821	7.7736	2.563217	-0.201296	-17.106705	-0.901369	-1.543376	-0.204633	-0.849029	-0.013516
1.49476	0.783582	10.106163	10.023316	25.447553	-6.638344	0.432887	-0.366141	-1.248171	-0.934419	1.345212	11.697465	-96.892136	307.687445	-104.522786	-0.395835	-0.011685	-0.944174	8.013796	2.679818	0.043228	-16.425214	-3.205936	-3.246335	-0.204428	-0.814165	-0.061774
1.731981	1.761852	10.569544	2.793752	32.044919	-8.687817	0.448508	-0.369702	-1.287332	0.115511	1.738155	12.399233	-106.904304	301.057774	-97.600304	-0.317244	-0.03866	-0.98687	8.194436	3.028858	0.287641	-14.530815	-5.370857	-3.242864	-0.204495	-0.83201	-0.029881
1.374269	1.356874	9.822083	5.856092	39.112924	-12.814186	0.448122	-0.355931	-1.290748	1.407443	1.680449	13.615213	-120.386976	291.493714	-88.675449	-0.251774	-0.036141	-1.016948	8.665735	2.911378	0.236043	-13.906085	-8.057455	-3.507363	-0.231752	-0.801686	-0.00064
0.848093	1.010185	9.242083	-0.559056	41.213256	-10.952039	0.448908	-0.400772	-1.266424	3.48082	2.016984	16.43315	-134.65245	269.60642	-73.955695	-0.185638	-0.016157	-1.07673	9.19688	2.910163	0.245947	-12.05545	-11.160234	-4.5078	-0.246428	-0.848815	-0.029255
0.682969	1.069198	9.580103	-5.760196	42.195269	-10.246366	0.4634	-0.397619	-1.28085	5.110892	1.958347	17.316546	-146.66933	250.384035	-50.79199	-0.107632	0.014934	-1.080391	8.968924	2.738205	0.660152	-9.737707	-13.46288	-5.819354	-0.191005	-0.864191	-0.028137
0.854566	1.29884	9.584408	-9.727222	44.28568	-9.219534	0.518368	-0.378631	-1.260926	4.73928	2.636348	18.837922	-159.355048	252.166916	-20.112658	-0.08153	0.045725	-1.08295	9.149523	2.157535	0.780794	-5.396534	-15.080956	-4.604889	-0.24629	-0.831797	-0.04562
0.856545	1.643972	9.699562	-14.403128	46.196072	-8.868324	0.434788	-0.400398	-1.266075	6.624165	3.256626	23.633646	-154.163535	253.836377	25.164013	-0.028584	0.140091	-1.118774	8.913189	2.274227	0.776887	-2.372971	-16.036241	-2.869248	-0.232729	-0.864804	-0.028348
0.574525	0.381189	9.859245	-17.704509	46.467722	-7.075581	0.504233	-0.360957	-1.278069	9.914418	3.588845	24.155956	-116.030436	246.544151	81.481816	-0.001966	0.157705	-1.149029	9.15323	1.984048	0.959773	2.728428	-16.448036	0.262186	-0.204354	-0.833663	0.001174
-0.279014	0.785108	10.128498	-16.402612	48.403214	-6.49582	0.462257	-0.373605	-1.273605	14.068855	2.677745	21.921224	-85.43972	234.681954	138.401948	0.049937	0.158005	-1.150132	8.395883	1.058318	1.36086	6.488697	-14.969288	3.481223	-0.218679	-0.866252	0.002778
0.819955	0.786733	10.718185	-15.258507	48.942803	-4.834217	0.488998	-0.371168	-1.235492	19.156632	2.436687	14.951095	-78.129271	220.571031	180.145161	0.127868	0.173776	-1.15279	8.809847	1.638627	1.490849	7.693934	-12.824609	6.492467	-0.218124	-0.816848	-0.015261
0.592708	1.419238	10.830091	-15.563767	53.104965	-3.446925	0.490141	-0.395182	-1.242736	28.441726	4.778965	8.071397	-121.276277	208.433683	187.20598	0.1536	0.188175	-1.139995	8.473263	2.63118	2.566774	5.434479	-11.633281	8.817884	-0.204704	-0.848203	-0.029044
0.879312	0.959498	10.833728	-16.633662	57.978493	-2.78192	0.504619	-0.374728	-1.274653	37.664196	6.79734	17.098681	-174.182139	201.708138	134.116769	0.205799	0.189547	-1.155448	8.076076	1.938427	3.334893	6.377637	-9.922501	15.25569	-0.204287	-0.815818	-0.030718
0.608587	1.020525	11.624346	-15.880102	65.72708	-2.903472	0.547366	-0.389623	-1.272285	42.767089	9.49338	19.189728	-87.911176	193.229394	56.646796	0.257483	0.204095	-1.143205	7.836419	1.589522	3.089381	7.138839	-8.125017	22.122029	-0.218612	-0.848407	-0.029114
0.526618	0.682955	13.26941	-16.445871	76.388271	-0.305736	0.517596	-0.351089	-1.267758	44.395034	4.132096	11.406434	57.050649	179.295885	-33.087146	0.283736	0.265527	-1.147771	8.310365	2.22802	3.280625	8.833474	-6.43667	25.072989	-0.191005	-0.864191	-0.028137
0.903549	0.689944	14.981684	-10.482303	88.860811	-0.365472	0.560329	-0.348685	-1.282881	43.65828	-1.001975	0.686354	92.513961	133.960773	-114.883887	0.308872	0.217572	-1.116612	8.643438	2.745444	2.211128	14.987186	-3.560728	24.150473	-0.204704	-0.848203	-0.029044
0.276143	0.461116	15.082177	1.538108	109.820277	-1.347359	0.546595	-0.362081	-1.279116	56.733713	58.367263	25.583884	-460.131266	-156.689328	-157.635607	0.348465	0.235262	-1.147142	8.905796	3.086055	0.480814	20.092279	-0.222101	22.495911	-0.246148	-0.833449	-0.014564
0.98427	0.580085	16.17623	11.769685	132.807343	-0.51235	0.574093	-0.369887	-1.251663	25.541901	5.454793	1.670304	75.886356	-177.55762	-84.028057	0.308947	0.232893	-1.117615	9.708508	3.253201	-0.761083	25.213225	0.692543	21.586518	-0.217773	-0.802308	0.014958
1.582093	1.044752	17.496916	17.126992	161.596288	-1.531682	0.57335	-0.376944	-1.223511	15.840559	28.287282	2.109448	85.380913	-280.243768	2.196364	0.269869	0.202027	-1.114781	9.181629	3.313481	-0.531112	25.990125	0.276932	17.673025	-0.218124	-0.816848	-0.015261
1.822204	1.10444	18.070142	23.188471	190.980825	-3.616705	0.616469	-0.38831	-1.235219	-1.885298	3.427786	7.772954	-125.548444	-283.451611	73.428899	0.243841	0.186556	-1.113226	8.766781	4.53427	-0.473717	29.237947	-1.969248	17.121775	-0.218124	-0.816848	-0.015261
1.98624	1.919395	20.634137	10.182763	223.548155	-4.705633	0.658087	-0.39649	-1.208114	6.877181	-1.928075	21.539663	45.898491	-245.700434	100.304297	0.21819	0.247688	-1.116689	9.921243	7.79311	1.777592	19.474109	-3.708987	10.440866	-0.203097	-0.755179	0.043572
3.499874	2.108537	24.869827	6.400647	262.945623	-9.022213	0.713055	-0.377503	-1.188191	15.305585	9.650252	10.404057	111.312747	-176.783906	73.507214	0.178597	0.229999	-1.086158	12.390503	9.470407	1.531446	18.108712	-0.213351	15.044592	-0.231681	-0.802512	0.014888
2.532619	-0.130014	25.068899	16.646162	304.119487	-10.497958	0.740939	-0.39908	-1.157322	9.562126	4.476381	7.73123	49.837738	-125.526893	18.779618	0.165471	0.199283	-1.083875	15.689147	7.704854	-2.187381	14.947574	12.990819	26.761692	-0.245731	-0.801064	-0.016238
2.579054	0.339651	27.458659	28.785064	347.411585	-9.122954	0.768437	-0.406886	-1.129868	5.479645	2.289527	10.36104	17.548745	-91.265891	-18.978597	0.114012	0.230695	-1.09913	16.661528	5.836215	-4.093605	5.845764	27.414841	16.179815	-0.218191	-0.834693	0.016632
4.573201	3.967915	30.070109	63.850718	378.377675	-16.264776	0.852074	-0.454317	-1.054752	2.719004	-1.927942	12.733749	8.254563	-64.584507	-21.896065	0.126317	0.153096	-1.080037	11.80813	4.985923	-1.852281	9.718086	27.970934	-3.734286	-0.259359	-0.785902	-0.001618
1.315556	3.569393	30.289217	92.226078	393.022891	-29.603831	0.878029	-0.407038	-1.040962	2.970804	-1.422881	11.097672	41.064012	-47.94926	-6.691459	0.113636	0.154093	-1.094111	8.740256	5.051268	-1.84935	12.830434	25.342923	-5.902898	-0.231752	-0.801686	-0.00064
3.672723	7.328979	36.82958	132.05038	375.906979	-38.463295	0.920047	-0.446289	-0.99295	3.563447	0.827731	9.413679	33.683676	-28.215852	-4.281625	0.114157	0.201126	-1.111472	8.161909	4.706634	-1.262769	13.772649	26.248542	1.516017	-0.23189	-0.818705	0.015725
6.025781	1.431207	28.155437	230.940096	375.867194	-67.616691	0.931524	-0.419464	-0.947243	3.166295	0.321701	9.631348	33.038761	-18.226085	-4.39862	0.086428	0.134335	-1.035157	7.5108	4.591473	-1.395182	13.812219	27.505229	1.295935	-0.217702	-0.803135	0.030486
4.506954	-7.906137	20.357601	206.772104	374.125124	-61.899602	0.986163	-0.455903	-0.860768	2.935086	1.44879	9.684101	31.686907	-17.976247	-7.726617	0.087169	0.16712	-1.065864	7.919532	5.054394	-1.565222	9.737413	28.927894	-1.599567	-0.259359	-0.785902	-0.001618
5.659909	-4.917835	20.904097	152.579883	352.707712	-52.060256	0.970542	-0.452342	-0.821607	2.750409	1.392308	9.114031	27.693523	-19.016326	-11.192853	0.100365	0.152946	-1.079486	8.554019	5.688779	-2.26928	2.461391	27.782342	0.174324	-0.204287	-0.815818	-0.030718
12.666982	-3.953905	19.282712	142.438989	336.781879	-51.18591	1.069429	-0.506862	-0.771576	2.516544	2.01228	8.996438	20.734914	-14.673141	-8.904865	0.087389	0.152871	-1.07921	10.601977	5.680097	-3.189275	-7.067337	24.179607	5.085626	-0.218261	-0.833867	0.001104
15.327607	-6.04309	14.779225	149.171933	305.819452	-41.279319	1.080935	-0.514636	-0.690885	2.76306	1.730813	9.737351	8.113201	-11.511118	-10.517439	0.087239	0.12223	-1.077203	12.012262	4.513358	-3.647064	-13.924775	16.940783	7.559597	-0.231685	-0.783841	-0.032533
14.813753	-8.307869	8.906151	181.221879	281.831007	10.715603	1.039345	-0.541054	-0.683006	2.987708	1.504823	9.458799	4.584845	-12.133851	-11.2355	0.073898	0.165973	-1.051239	12.315181	4.456337	-3.222461	-18.59953	7.79066	0.407127	-0.260269	-0.831174	-0.061218
22.90187	-13.835223	-19.602353	229.678965	121.239497	35.868196	1.134416	-0.509762	-0.614658	2.930682	1.223278	9.457353	-0.626793	-11.492338	-11.603244	0.099699	0.135482	-1.049783	11.254956	4.517338	-3.122208	-21.717524	-1.292455	-9.684732	-0.245802	-0.800238	-0.031766
18.384786	-11.725088	-10.531624	79.542911	-41.813441	84.602877	1.094341	-0.556666	-0.628099	3.10953	1.166861	9.74413	-3.672748	-10.520545	-11.38024	0.086868	0.105838	-1.06185	10.503422	4.406403	-2.298312	-24.986806	-7.704273	-11.903751	-0.245802	-0.800238	-0.031766
13.056739	-5.56998	4.05293	22.460848	-135.845335	102.397037	1.066114	-0.573216	-0.609909	2.929042	1.448553	9.400903	-3.130525	-11.645349	-11.822571	0.086428	0.134335	-1.035157	9.862913	4.467942	-1.830914	-28.614826	-10.968372	-11.019353	-0.217777	-0.783637	-0.032463
13.33606	-2.744172	6.741304	18.114103	-154.100963	94.113583	1.053136	-0.596855	-0.616804	2.528586	0.773388	9.448511	0.360493	-11.629909	-12.097055	0.022209	0.091214	-1.073817	9.696444	4.180192	-1.29629	-29.320472	-11.47419	-9.669728	-0.245731	-0.801064	-0.016238
12.290275	-2.644266	3.027406	45.352591	-147.592169	60.237832	1.024495	-0.565036	-0.637013	2.491787	0.661641	10.41008	-1.142594	-10.619523	-10.084437	0.061287	0.12208	-1.076651	9.595188	4.068019	-0.400381	-27.698623	-9.672271	-8.859065	-0.24566	-0.80189	-0.00071
11.906751	-4.318748	0.910163	38.959445	-155.69594	37.314381	0.99624	-0.546987	-0.653806	1.908449	0.887757	10.058343	4.544043	-10.192479	-8.071825	0.073968	0.121083	-1.062577	9.607293	4.070738	0.258594	-23.795309	-7.303347	-8.853946	-0.204566	-0.831184	-0.045409
11.873062	-5.475057	-0.857109	20.014108	-179.725812	19.500964	0.969513	-0.566723	-0.674428	2.363598	1.168357	9.841693	5.257523	-9.853174	-6.988911	0.03482	0.135107	-1.048404	8.785043	3.78299	0.421673	-20.782491	-4.447557	-8.909047	-0.218053	-0.817675	0.000267
12.27508	-5.647431	-0.793185	-14.790838	-214.673584	8.30078	0.942001	-0.541618	-0.719374	2.876635	1.279859	9.62611	6.366537	-9.941328	-5.416682	0.048091	0.136254	-1.06303	8.023045	3.437278	0.645511	-15.736882	-1.145748	-9.982136	-0.217635	-0.78529	-0.001407
11.131545	-5.346566	2.197852	-42.983721	-248.956456	3.133248	0.957279	-0.583306	-0.709475	2.374154	1.337776	10.351592	5.344174	-10.083774	-4.370776	0.048461	0.152646	-1.078383	7.251703	3.321893	0.391083	-9.316172	-0.268074	-9.826215	-0.246148	-0.833449	-0.014564
9.291054	-3.668538	4.726494	-56.145171	-275.367237	4.153043	0.872141	-0.532689	-0.745779	3.221812	1.391873	9.633458	6.904146	-11.261804	-4.072955	0.047865	0.090292	-1.060019	7.020041	3.323422	0.626309	-5.655491	-0.049362	-6.05096	-0.231961	-0.817879	0.000197
6.857199	-4.005374	6.098493	-61.767652	-292.510195	12.968183	0.887391	-0.539778	-0.770865	3.109207	1.335853	9.744272	5.84547	-11.89109	-3.679302	0.047645	0.104541	-1.046673	7.666322	3.146967	0.457952	-2.839521	0.534594	0.568054	-0.246077	-0.834275	0.000964
4.587515	-3.080067	7.138023	-65.558764	-301.490468	29.882512	0.830494	-0.48991	-0.807867	2.875534	1.223481	9.569423	4.235385	-12.130773	-2.973939	0.062028	0.154865	-1.107358	6.778568	2.334939	0.198356	3.01015	1.255113	-2.023837	-0.189749	-0.785708	0.014261
3.276314	-3.192791	7.396196	-71.887049	-303.976868	53.80601	0.759891	-0.488037	-0.806121	3.046591	1.448432	9.5166	3.548596	-12.606047	-1.961895	0.048606	0.123077	-1.090725	6.834303	2.798917	0.081621	5.889599	1.705129	-6.101143	-0.203794	-0.80293	0.030556
2.033045	-2.671286	8.226667	-80.975926	-304.526098	82.148856	0.721274	-0.486229	-0.91085	2.823798	1.336487	9.851507	3.882307	-13.063154	-1.750375	0.04794	0.105613	-1.061022	7.009711	3.030569	0.026004	6.547659	1.594253	-4.024805	-0.231685	-0.783841	-0.032533
1.883096	-2.03448	9.363043	-90.047932	-303.62138	112.533148	0.636951	-0.515052	-0.887847	2.821811	1.11107	9.738038	3.015609	-13.168748	-1.351359	0.04794	0.105613	-1.061022	6.58766	3.087613	-0.460707	7.427499	1.938586	-1.523535	-0.25971	-0.800442	-0.031836
1.338798	-1.051287	10.83419	-95.826675	-299.885705	141.569467	0.635393	-0.442668	-0.919002	3.402085	1.222843	9.97678	4.900009	-13.059477	-0.331431	0.035485	0.152571	-1.078107	6.762777	2.970561	-0.577714	7.632897	2.24201	1.744504	-0.23252	-0.848611	-0.029185
1.819222	0.332045	12.042805	-98.434542	-295.142178	164.449895	0.567077	-0.488823	-0.931744	3.342664	1.560886	9.919216	7.546713	-13.651191	1.514503	0.04816	0.091364	-1.074368	7.475103	3.086082	-0.324386	7.215138	3.300704	2.749558	-0.231685	-0.783841	-0.032533
2.969298	1.136603	12.352718	-100.666107	-292.123405	176.790518	0.538078	-0.477831	-0.920386	1.910805	2.183548	10.285993	3.971801	-15.186229	4.24008	0.061507	0.107832	-1.089998	7.471241	2.852789	-0.565003	5.890778	3.976169	2.048171	-0.18954	-0.769515	0.013424
4.346786	1.078891	12.54976	-106.365506	-291.380163	176.757678	0.453683	-0.420157	-0.984842	3.05583	1.674133	9.969906	-2.263862	-19.340799	8.478915	0.061582	0.123152	-1.091001	7.81694	2.675772	-1.038397	4.71972	4.840146	0.917449	-0.287317	-0.784658	-0.032814
5.382146	2.17074	12.858653	-120.162507	-292.531646	164.156381	0.368189	-0.390368	-0.989578	2.991766	1.279643	9.628528	-1.967847	-24.994691	10.796749	0.061507	0.107832	-1.089998	7.76057	3.431885	-0.796656	2.1401	6.425634	0.521905	-0.259918	-0.816634	-0.030999
5.655869	1.950459	15.136266	-137.586208	-292.245654	140.036162	0.353311	-0.37975	-0.978569	3.218186	1.391731	9.46354	-2.633348	-26.20689	11.986484	0.03585	0.108753	-1.103796	8.402699	2.673433	-1.26702	-0.319737	7.366336	0.404072	-0.259918	-0.816634	-0.030999
5.522829	2.303676	17.124231	-151.856296	-286.981324	106.973797	0.268202	-0.363732	-0.97989	3.222482	1.673573	9.690335	-7.238587	-28.669649	13.869685	0.008937	0.090067	-1.059192	8.580828	2.20842	-1.265697	-3.913866	7.824846	2.157003	-0.231894	-0.800034	-0.031696
4.004506	2.712917	18.517183	-167.829238	-277.730181	71.675364	0.238789	-0.30437	-1.00693	3.225654	1.279354	9.803282	-11.037566	-33.357611	15.238154	0.021549	0.13396	-1.033779	8.582334	2.034439	-1.206532	-7.143384	8.108709	3.175941	-0.217911	-0.819327	0.031323
2.495548	2.492231	20.362306	-185.497964	-264.765231	36.465271	0.208661	-0.286664	-0.970836	3.159519	1.335461	9.405644	-12.959367	-33.786883	16.188041	0.048537	0.167966	-1.079387	8.582178	1.62766	-1.268169	-10.070185	7.379767	4.626521	-0.231543	-0.785494	-0.001477
0.471542	3.478432	22.259328	-203.125308	-249.549915	0.824149	0.167043	-0.278484	-0.99794	3.458788	1.673379	9.978369	-14.786395	-34.146793	16.090505	0.008717	0.104316	-1.045845	8.461385	1.394884	-1.45108	-12.634439	5.641725	6.172313	-0.232524	-0.82994	-0.076605
-2.010747	4.809614	24.148889	-220.517097	-235.752154	-34.602884	0.123152	-0.239575	-0.993064	3.286176	0.997689	9.917533	-16.731112	-36.442395	16.312751	-0.017159	0.119486	-1.046298	8.449165	1.915096	-2.047924	-12.892255	3.799114	6.79333	-0.259568	-0.802094	-0.000781
-5.190567	6.770978	25.516066	-225.509726	-230.116305	-64.223017	0.094511	-0.207756	-1.013273	3.283435	1.166585	9.804396	-17.599384	-39.150898	16.100151	0.009458	0.1371	-1.076552	8.400168	1.394525	-1.571994	-12.309675	2.348043	8.295817	-0.260127	-0.832827	-0.030162
-10.842557	9.019161	26.324891	-213.337882	-226.334351	-80.733781	0.108989	-0.187303	-1.04519	3.486161	1.899792	11.281269	-21.835163	-44.009081	19.162193	0.022139	0.136104	-1.062478	8.050628	1.803103	-1.277331	-11.094019	1.085276	12.515469	-0.273338	-0.78528	-0.017216
-22.765451	10.506021	22.518928	-183.948531	-198.919589	-71.904722	0.051749	-0.175562	-1.033133	3.372993	1.505741	11.335159	-27.598497	-57.315748	21.337475	0.008723	0.164526	-1.03551	8.284471	1.337213	-1.454628	-7.811708	-0.140725	16.849869	-0.217639	-0.766618	-0.048828
-31.850782	17.447939	32.316791	-211.908548	-156.122278	-3.184357	-0.019254	-0.142618	-1.052295	3.787801	0.998439	11.852951	-36.965951	-72.118282	24.635704	-0.017084	0.134807	-1.047301	8.800636	1.623164	-2.222278	-2.201662	-0.300698	22.424197	-0.245731	-0.801064	-0.016238
-30.306534	21.238203	32.419635	-66.773548	-126.936695	47.896873	-0.019639	-0.128847	-1.05571	4.667634	2.802542	15.496328	-39.291234	-83.230524	16.538579	-0.043551	0.147833	-1.019054	8.659612	1.283024	-0.310042	-0.975478	1.028045	30.422578	-0.260127	-0.832827	-0.030162
-31.803863	12.065421	22.804337	71.257265	-102.783728	62.454357	-0.007434	-0.077666	-1.055647	4.521195	0.210131	13.792541	-20.00296	-107.499727	7.310888	-0.0305	0.163229	-1.020333	9.080873	2.039292	0.240037	-0.52587	2.920492	30.962183	-0.259572	-0.783423	-0.048201
-33.313476	1.396264	12.500528	87.518982	-55.291886	78.199769	0.00783	-0.102054	-1.063241	4.38602	1.45129	15.659064	-22.971268	-130.056199	2.120995	-0.056081	0.179471	-1.035135	9.456324	2.798663	1.507899	0.909128	4.287733	26.426114	-0.245313	-0.768679	-0.017912
-30.290301	-0.184439	6.074002	14.860648	-2.750306	83.124566	-0.050181	-0.062771	-1.058015	4.157052	0.775755	15.653659	-8.411642	-156.532864	-3.586902	-0.069943	0.17618	-0.99181	9.528795	2.220487	2.165503	2.318165	5.055688	23.635566	-0.2732	-0.768261	-0.033581
-21.464176	9.934853	10.03914	-60.735568	45.654827	57.765186	-0.050153	-0.09737	-1.023032	4.457853	0.94473	16.282882	-10.157767	-184.518457	-3.311397	-0.134308	0.162628	-1.018127	9.09682	1.81045	1.077745	0.073918	8.360746	25.676036	-0.259572	-0.783423	-0.048201
-12.5644	16.483278	11.774274	-60.424669	74.371599	13.220071	-0.050195	-0.045472	-1.075507	4.136338	1.734999	17.465724	-15.730254	-214.671773	-3.64618	-0.134898	0.160485	-0.989428	8.969653	0.530328	0.411129	-8.682191	12.775525	30.577843	-0.245313	-0.768679	-0.017912
-4.694679	8.330012	27.521347	491.453811	299.457596	37.122266	-0.036461	-0.032075	-1.079272	3.875129	2.356265	18.762912	-22.0868	-250.125508	1.237423	-0.122808	0.157344	-0.946654	8.708818	0.292877	-0.97212	-21.041603	16.735909	36.779079	-0.245597	-0.765374	-0.080024
-13.949519	8.044325	-0.84776	481.881124	379.955186	-146.865489	0.036828	-0.113046	-1.074599	4.549365	3.032705	20.759165	-41.437105	-286.725485	9.397974	-0.200513	0.187535	-0.947007	8.790327	1.795167	-2.760698	-30.812082	17.002982	31.249246	-0.272991	-0.752069	-0.034418
6.014863	2.947448	33.503675	204.933569	286.028646	-168.377684	0.065855	-0.158637	-1.050974	4.711022	3.600028	25.688493	-71.275367	-331.521254	18.36301	-0.215631	0.164636	-0.84528	9.099798	6.781478	-4.53004	-40.523429	14.402301	1.310752	-0.258804	-0.736498	-0.019657
-1.261036	6.389186	4.052163	237.800701	184.197237	-138.268003	0.123881	-0.215219	-1.038708	6.00861	6.758357	32.851917	-77.864045	-377.277495	29.618908	-0.253742	0.212516	-0.876163	11.099823	17.918449	-6.600705	-43.980481	6.601979	-44.262044	-0.272853	-0.73505	-0.050783
-3.239186	1.205559	13.880329	-22.821753	45.61556	-20.723071	0.139502	-0.21878	-1.077869	7.901443	2.982471	34.92645	-47.236301	-414.946559	35.713336	-0.281981	0.219111	-0.761817	14.18564	19.510901	1.009261	14.034713	-10.552029	-9.983941	-0.259221	-0.768883	-0.017983
0.170621	0.713059	6.783945	23.256526	26.151052	-9.057217	0.180335	-0.182119	-1.075088	13.959475	0.495327	38.165268	9.420832	-431.579758	38.307007	-0.308818	0.215745	-0.718217	17.551159	5.933463	5.804485	23.731118	-21.213544	24.722742	-0.245246	-0.750834	-0.049805
2.862522	2.492281	6.957466	3.189028	41.751437	13.549406	0.194884	-0.248162	-1.019546	7.326034	-2.199239	34.456882	92.987718	-430.465779	25.899132	-0.387265	0.213152	-0.687863	18.246719	3.126505	1.553534	-6.785148	-41.21197	49.569776	-0.286899	-0.752273	-0.034488
1.668004	1.817887	10.227553	-49.440763	42.709317	34.904886	0.167371	-0.223057	-1.064491	1.884613	-3.037682	30.152411	121.289008	-429.686441	18.22228	-0.415433	0.174857	-0.584856	11.556365	1.509948	0.044403	-14.799382	-34.687372	1.32962	-0.272924	-0.734224	-0.066311
0.99873	0.328524	11.060713	-15.227311	30.382568	24.79413	0.181892	-0.254502	-1.043933	-1.400533	-4.386093	27.081675	136.667458	-415.170789	14.24754	-0.455172	0.186737	-0.541983	8.956569	3.316493	0.063555	-21.280254	-27.416916	-32.693824	-0.258875	-0.735672	-0.035185
2.015658	0.726973	10.400208	-2.752919	15.424056	10.164037	0.179963	-0.185647	-1.061012	-9.822222	-4.25836	26.112315	123.693967	-401.621566	8.66817	-0.443898	0.135491	-0.467499	9.845065	8.544772	0.941009	-18.445713	-28.582788	-31.354102	-0.258808	-0.717827	-0.067077
-0.523994	1.29887	9.330272	2.476326	11.752424	5.428005	0.180735	-0.213189	-1.05418	-7.180215	-6.570912	28.373716	109.069649	-421.068158	-26.125009	-0.484522	0.144155	-0.381577	11.202977	8.309362	0.96533	16.411124	-24.67974	-0.481585	-0.272574	-0.719684	-0.036092
0.975963	1.012997	9.926547	-3.646465	13.743448	11.641926	0.180735	-0.213189	-1.05418	-13.885607	-7.918632	18.720518	206.918929	-401.716217	-73.448141	-0.485482	0.125619	-0.337524	12.283138	4.882671	1.509713	23.72774	-14.225343	8.458354	-0.244758	-0.719275	-0.035952
1.774724	0.264953	9.76844	-6.936004	12.035886	11.807637	0.194855	-0.213564	-1.05453	-24.262803	-5.716978	1.803334	228.000255	-236.38172	-102.366668	-0.513136	0.074149	-0.262213	13.341857	4.995651	1.350295	23.301033	-5.857201	-8.267383	-0.25915	-0.76971	-0.002455
1.599164	0.89621	9.597195	-2.250826	9.873694	6.545751	0.252481	-0.239076	-1.063171	-20.946641	-11.146449	-15.852043	153.447616	26.131097	-116.523748	-0.475389	0.070086	-0.205642	13.341182	5.286031	1.351531	26.432522	0.355507	-25.299046	-0.27292	-0.752895	-0.01889
1.436226	1.013148	10.049161	-4.467693	9.172925	5.0994	0.166614	-0.212815	-1.053831	-15.710404	-6.015685	0.793793	35.710357	207.273059	-124.093485	-0.488295	0.025122	-0.216705	11.155789	5.116304	1.190259	26.78358	6.637128	-32.174798	-0.28662	-0.736907	-0.019797
1.383798	0.49718	10.273288	-5.450132	8.734986	5.371113	0.179963	-0.185647	-1.061012	-13.358013	-4.379604	8.714012	7.130952	272.003512	-123.965182	-0.500976	0.026119	-0.230779	9.634669	4.134995	1.756514	25.047427	11.96492	-30.330062	-0.245593	-0.784045	-0.032603
2.11536	1.183286	9.665276	-6.065037	8.39339	5.428666	0.181106	-0.209661	-1.068256	-12.678141	-2.857921	11.050814	-9.453737	278.117837	-112.698867	-0.473033	0.018451	-0.330775	9.161264	3.264193	1.564281	24.605016	13.325614	-23.031984	-0.203314	-0.734029	-0.050432
0.870487	0.842685	10.378421	-7.815555	7.894583	5.333596	0.18072	-0.19589	-1.071672	-10.815264	-1.961565	9.448918	11.930063	265.90503	-94.772584	-0.473183	-0.01219	-0.328767	8.90317	2.794933	0.299857	25.623782	12.523082	-16.064597	-0.301087	-0.767843	-0.049249
1.326212	0.956754	10.274105	-3.428709	9.499699	3.813702	0.195584	-0.189208	-1.100173	-9.324505	-1.628958	6.536584	21.480808	272.605675	-80.334799	-0.420174	-0.022922	-0.386266	8.52913	2.849369	-0.784823	28.67233	11.269085	-15.030644	-0.244896	-0.736294	-0.019587
1.317263	1.012266	9.819522	-1.44165	9.648957	2.307707	0.182221	-0.199076	-1.110484	-8.615723	-1.800916	4.683051	21.431006	291.36968	-71.024234	-0.431014	-0.060384	-0.497777	7.81829	2.095012	-1.040869	21.757483	10.544424	-15.368858	-0.259292	-0.768057	-0.033511
1.567851	0.442268	10.901772	1.230689	11.146556	1.434995	0.224211	-0.203728	-1.097456	-7.482763	-1.691122	3.85773	2.412681	312.107164	-63.62018	-0.405652	-0.062377	-0.469629	7.994103	2.152436	-1.097228	19.538386	10.223906	-14.71755	-0.28725	-0.766813	-0.064707
2.016979	0.440007	10.455855	9.488353	15.527605	-2.075057	0.208933	-0.16204	-1.107354	-5.662963	-1.805749	5.53766	-23.36048	323.752332	-59.795173	-0.37889	-0.074332	-0.512226	6.874997	2.155496	-0.998322	15.997422	9.704669	-13.052039	-0.272853	-0.73505	-0.050783
2.305105	0.957256	10.5773	13.914947	18.951774	-4.086934	0.180735	-0.213189	-1.05418	-4.190627	-1.469132	7.154076	-41.224037	325.435199	-61.611415	-0.39098	-0.071191	-0.554999	6.230491	2.041818	-0.771294	14.652303	9.615594	-10.815866	-0.245664	-0.783219	-0.048131
1.327492	0.727229	10.329993	16.797104	20.557108	-6.246629	0.208961	-0.196639	-1.072371	-2.793103	-0.96408	7.976471	-52.007059	322.400126	-67.661024	-0.326101	-0.070816	-0.556378	6.163657	2.563154	-1.129611	10.729658	9.617502	-6.431481	-0.245526	-0.7662	-0.064496
0.915368	1.012315	9.754875	13.992969	21.720485	-4.287506	0.210105	-0.220653	-1.079615	-1.057655	-0.347298	8.466377	-59.529859	320.289359	-77.736598	-0.299188	-0.05213	-0.600982	6.936889	1.865475	-0.878644	7.171388	9.879972	-3.455366	-0.272712	-0.736702	-0.019727
0.455396	0.610073	9.630571	16.857427	23.037762	-2.740912	0.208947	-0.17934	-1.089862	-0.196137	0.045351	8.428203	-70.016368	320.661167	-89.454046	-0.27191	-0.077261	-0.671275	6.587869	1.576894	-0.646856	2.462754	7.234494	-3.639623	-0.245522	-0.784872	-0.017075
1.280958	1.304099	10.899824	9.124362	25.790937	-2.060534	0.252466	-0.221776	-1.080662	0.73555	-0.462969	8.900235	-85.282539	321.829499	-101.19795	-0.258274	-0.119932	-0.711589	6.777043	2.044064	0.077306	-0.974179	5.32124	-9.119083	-0.258875	-0.735672	-0.035185
1.099996	1.704384	10.443348	10.252475	34.456154	-9.590182	0.223482	-0.228084	-1.051812	0.928173	0.49518	9.924181	-104.362449	322.062345	-112.984783	-0.205479	-0.056206	-0.745406	6.654494	2.566277	-0.10239	-0.554021	2.515845	-12.774442	-0.300874	-0.770322	-0.002666
1.51517	1.822113	11.190715	7.565352	43.777917	-14.276793	0.238331	-0.204103	-1.097805	1.485076	1.059081	11.804642	-120.568939	322.476163	-123.472766	-0.178271	-0.036448	-0.80436	6.954402	2.857218	0.203883	-0.11292	-1.26077	-11.23002	-0.273062	-0.751242	-0.049946
0.846689	1.412034	9.186919	13.195506	47.496116	-14.661945	0.224968	-0.213971	-1.108116	1.514328	1.567241	13.221059	-132.942543	323.429653	-129.483175	-0.138828	-0.0494	-0.832883	8.255248	3.203445	0.409296	0.0271	-4.86591	-8.615685	-0.315416	-0.781761	-0.095066
0.92077	1.243287	10.040105	6.102327	49.260808	-13.294005	0.210119	-0.237952	-1.062123	1.246404	1.906569	14.178172	-146.434959	322.323649	-126.854501	-0.125482	-0.032932	-0.848512	8.614132	2.56454	0.5929	1.227186	-8.648109	-9.213195	-0.244829	-0.718449	-0.051479
0.914995	1.529288	9.757046	-1.179304	50.129414	-11.572061	0.250937	-0.183992	-1.076834	1.116927	2.697274	16.270875	-161.519028	313.983986	-111.477677	-0.059641	-0.014021	-0.893944	8.44189	2.391706	0.828485	1.836567	-11.429581	-12.135913	-0.25978	-0.799616	-0.047364
0.393481	0.896357	9.403252	-6.093432	51.925237	-9.351162	0.236845	-0.218216	-1.041501	1.861032	3.26142	18.834638	-178.507825	303.080509	-82.133982	-0.04615	-0.027123	-0.921916	8.320961	2.217007	0.645822	4.423538	-12.877008	-16.202775	-0.245455	-0.767027	-0.048968
0.519041	1.01357	9.974492	-14.008621	54.262168	-7.296873	0.278835	-0.222868	-1.028473	1.860067	3.376418	21.495585	-193.804258	305.082478	-38.540672	-0.033024	0.003593	-0.924199	8.496909	2.216354	0.589216	7.939015	-13.237716	-15.602604	-0.258804	-0.736498	-0.019657
0.645799	1.016141	10.602103	-15.28056	55.400773	-5.250543	0.252095	-0.225305	-1.066587	3.161245	3.152437	25.825392	-197.997698	320.96512	19.354094	0.058179	0.020511	-0.941482	7.963968	2.042847	0.458757	11.202942	-13.151951	-10.939209	-0.245455	-0.767027	-0.048968
0.889002	1.421202	11.347337	-14.268209	59.319706	-3.564307	0.308948	-0.223275	-1.082059	6.435357	3.317384	28.272097	-174.47254	339.484036	87.910752	0.0716	0.052298	-0.958115	8.13783	1.518769	0.220205	13.555149	-12.473846	-4.716526	-0.273897	-0.816012	-0.046597
0.421525	0.615181	10.823373	-8.267272	63.314518	-3.823324	0.294428	-0.19183	-1.102618	12.003078	4.151318	27.710397	-151.535663	350.890488	157.176401	0.136775	0.053746	-0.973843	7.914795	0.650641	0.811164	15.501968	-12.502577	1.694687	-0.244967	-0.735468	-0.035114
0.275123	0.965503	12.129101	-12.378229	71.640406	-2.664077	0.295199	-0.219372	-1.095786	18.345707	5.541142	20.371762	-140.689254	345.911566	209.963399	0.137221	0.085458	-0.9902	7.92528	1.350273	1.473107	15.751106	-12.440917	7.653474	-0.231338	-0.75063	-0.049735
0.924219	2.003337	13.169049	-15.3529	79.776898	-0.621809	0.308205	-0.230331	-1.053907	32.213483	11.54277	20.951382	-186.841752	301.315903	229.59052	0.215302	0.13187	-0.994866	7.636512	1.003728	1.765655	10.387375	-10.814267	11.180132	-0.286761	-0.735254	-0.050853
0.929212	1.257562	13.393324	-9.457312	92.643696	-2.975056	0.336046	-0.20001	-1.075513	46.912248	11.63109	24.883474	-153.156922	237.964947	179.641275	0.253275	0.173769	-0.941305	7.658676	1.415452	3.025431	11.920144	-9.139524	18.349711	-0.287246	-0.785484	-0.017286
0.879627	1.431617	13.790906	-13.532972	101.737431	-1.864754	0.365816	-0.238544	-1.08004	57.80517	5.806387	22.502861	-4.026632	174.643337	87.485108	0.332462	0.209147	-1.002365	7.708368	2.110498	2.61015	7.388077	-7.414931	21.567508	-0.244896	-0.736294	-0.019587
0.117783	0.406694	15.760832	3.968534	122.423284	-3.664239	0.379165	-0.211377	-1.087221	61.725123	-1.935148	3.272928	133.946956	121.689666	-36.403709	0.357968	0.177585	-0.98656	8.102389	2.744434	1.662062	4.221913	-5.768283	20.959755	-0.258808	-0.717827	-0.067077
1.000641	1.043236	17.030957	14.473381	150.3025	-3.517144	0.379937	-0.238919	-1.08039	53.489816	-6.382147	-10.944269	69.885648	49.00658	-120.431878	0.358263	0.178656	-1.000909	8.657336	2.735172	-0.243954	9.210304	-3.033084	21.417719	-0.273547	-0.801472	-0.016379
1.35856	1.161007	17.77721	24.820301	178.252165	-4.503139	0.378051	-0.221962	-1.044993	41.743889	-0.102372	-5.354162	-108.711683	-35.070316	-152.231049	0.38377	0.147094	-0.985104	8.271597	2.612661	-1.988351	9.348119	-1.538821	21.899178	-0.28697	-0.751447	-0.050016
1.109116	1.054293	19.647312	21.56644	211.441695	-4.874	0.423042	-0.232986	-1.109589	32.613302	-49.287354	93.48549	-181.670129	-112.938676	-165.113361	0.345212	0.163261	-0.99963	8.204182	2.43659	-2.469448	19.643228	-3.63363	29.850449	-0.2732	-0.768261	-0.033581
2.34911	1.348833	21.604907	22.308501	245.485597	-3.524944	0.451297	-0.251034	-1.092796	3.431532	-13.535706	10.020995	551.985836	-327.552441	-221.290345	0.307251	0.241782	-1.032521	8.094643	1.625279	-2.115669	32.1492	-6.543391	31.592123	-0.258666	-0.71948	-0.036022
0.421193	-1.460775	22.408021	23.263796	280.530056	-4.092275	0.491372	-0.20413	-1.079355	-23.380549	27.780022	-18.529692	-57.587979	-372.245396	51.482378	0.253715	0.145272	-0.967997	8.609669	1.168985	0.167618	34.307259	-6.289577	25.530263	-0.244758	-0.719275	-0.035952
1.176376	-1.733763	25.888215	8.664011	324.509955	7.276382	0.49253	-0.245444	-1.069107	-10.659277	-8.201505	24.279603	-232.977723	-358.598501	34.211533	0.201961	0.175612	-0.968901	9.355845	4.720386	2.711994	30.306889	-8.879324	8.378446	-0.230571	-0.703705	-0.021191
5.90924	5.432275	36.978749	-1.43893	367.206362	11.18958	0.620029	-0.297184	-1.033851	15.342137	7.459363	17.309821	217.467608	-345.549621	117.98285	0.175865	0.205031	-0.956007	10.930222	12.440605	2.714681	34.002117	-12.874499	-9.220025	-0.258178	-0.687921	-0.022168
4.971367	1.693931	35.69448	100.489731	411.392022	-14.299314	0.619272	-0.286942	-1.023191	18.074028	12.802399	13.691989	91.76822	-236.147331	62.079717	0.110464	0.157623	-0.937268	13.4027	12.071508	-0.833897	23.991769	3.956484	19.068799	-0.272436	-0.702665	-0.052457
4.266543	4.99015	40.752571	102.302593	423.42472	-16.623637	0.673854	-0.254184	-1.006683	13.194712	4.753865	10.808318	86.991104	-136.942934	-2.822262	0.084292	0.171721	-0.92337	14.776663	7.584547	-3.702054	12.161269	20.212742	25.545113	-0.285994	-0.688329	-0.022309
8.601114	7.523637	43.007118	198.262199	418.090275	-31.955127	0.730379	-0.30758	-0.955604	0.80795	-1.023476	12.241497	35.232488	-77.903025	-20.249602	0.04625	0.174712	-0.965592	14.334361	7.069371	-2.155503	4.390639	36.026313	8.319128	-0.244341	-0.686891	-0.037626
4.901249	-3.906408	28.963522	286.184796	417.015638	-60.908642	0.787304	-0.392047	-0.883618	3.292998	1.223295	10.257561	68.998564	-55.676866	0.437107	0.045729	0.127679	-0.948232	11.785561	4.748427	-3.111315	15.007181	48.789433	8.525427	-0.258737	-0.718653	-0.05155
10.020864	-7.446724	21.376076	227.497204	395.462682	-48.757802	0.841528	-0.380116	-0.835543	4.463535	1.670206	8.5275	35.278607	-41.773945	-10.179898	0.019702	0.112208	-0.946677	9.613873	3.419653	-2.678463	12.477272	48.882997	19.324041	-0.258946	-0.734846	-0.050713
15.108952	-8.416262	23.971496	166.340611	367.158516	-48.674222	0.89731	-0.440569	-0.756313	3.976184	0.771026	9.875211	27.120517	-33.375208	-20.67668	0.031792	0.109068	-0.903903	9.51953	4.122521	-1.299838	9.526235	48.41694	16.035696	-0.258741	-0.699982	-0.09897
16.981767	-11.950596	17.173378	165.506844	335.59031	-23.296387	0.925194	-0.462146	-0.725443	2.816544	1.336202	9.511669	29.2862	-25.631487	-18.840822	0.032232	0.08057	-0.930595	10.913429	5.741206	-2.284922	-1.287863	43.562308	-3.463199	-0.272853	-0.73505	-0.050783
21.536237	-8.767184	10.228414	172.248864	313.072959	75.635656	0.994654	-0.440005	-0.719945	3.113049	1.223334	9.914096	31.85797	-16.513088	-6.047238	0.019922	0.09796	-0.960023	12.441962	6.375543	-2.493219	-14.836915	28.995943	-1.847079	-0.273066	-0.732571	-0.097366
26.753395	-22.859159	-33.716245	332.064438	100.584771	94.740546	1.007688	-0.485563	-0.643083	2.113048	2.294687	8.988212	11.923683	-15.279368	-8.332258	0.007461	0.084708	-0.987443	14.091768	5.615785	-2.705248	-25.439229	14.315562	3.05977	-0.286486	-0.701217	-0.083583
19.128656	-7.482048	1.321456	-86.508372	-85.81696	185.2432	0.980619	-0.543426	-0.614645	1.429708	1.563921	9.256287	4.043839	-15.991749	-13.185588	0.031642	0.078427	-0.901896	14.328913	5.150637	-2.702824	-27.613153	3.705385	-6.967315	-0.272578	-0.701012	-0.083513
18.512902	-5.972389	5.009819	2.458385	-147.560097	161.621195	0.978718	-0.50917	-0.596741	2.59265	1.167879	9.789889	1.475337	-11.229606	-10.180879	0.032232	0.08057	-0.930595	13.262625	4.97785	-2.963001	-27.283384	-2.464312	-16.596027	-0.272298	-0.685646	-0.068822
20.231093	-0.573163	5.293319	22.533494	-169.603734	120.390588	0.923779	-0.562756	-0.581681	2.681425	1.673642	8.603302	-2.63452	-8.319465	-3.619784	0.057964	0.094969	-0.917801	11.785561	4.748427	-3.111315	-31.926278	-5.153658	-27.292066	-0.272716	-0.718031	-0.067148
17.724489	-0.408707	2.97204	56.096424	-176.143368	49.197035	0.911531	-0.562039	-0.634219	2.774455	0.829904	10.189709	-5.440735	-10.521811	-5.216159	0.019036	0.094744	-0.916974	10.563269	4.522667	-2.23681	-35.369926	-7.204982	-28.278158	-0.273692	-0.781149	-0.094855
15.217362	-4.150998	0.463792	54.643642	-201.540968	1.720739	0.897039	-0.565193	-0.619794	2.988247	1.22317	9.458562	-11.135548	-14.329583	-10.776741	0.019482	0.126457	-0.933331	9.878144	3.599769	-1.11574	-39.075371	-7.358706	-23.558299	-0.286765	-0.716583	-0.098274
13.683845	-6.744922	-1.963848	28.229055	-231.938852	-27.680292	0.896624	-0.516823	-0.658194	3.016159	1.167931	10.761225	-10.135549	-13.427481	-10.797794	-0.006545	0.110986	-0.931775	10.065096	3.601589	-0.573276	-39.159614	-7.529946	-21.815409	-0.301299	-0.765364	-0.095832
11.586096	-7.600669	-0.985311	-17.827678	-260.096566	-43.250158	0.868026	-0.536901	-0.625927	3.075364	0.942548	10.818884	-10.482142	-13.953743	-10.710823	0.018741	0.093672	-0.902624	8.015437	2.447761	0.102146	-38.734108	-5.59189	-25.706945	-0.258599	-0.701635	-0.067915
9.934609	-6.665886	2.396331	-53.803084	-278.784102	-48.910466	0.840885	-0.508268	-0.684949	3.758765	0.377618	10.436439	-6.760916	-12.803885	-10.511432	-0.007356	0.123091	-0.88973	7.852134	2.218828	0.816739	-36.426704	-3.149516	-24.474129	-0.287395	-0.746489	-0.143183
7.811844	-4.354829	5.149472	-67.723046	-289.981768	-46.751478	0.813401	-0.517762	-0.69491	2.712355	0.041148	9.904638	-2.99499	-12.97335	-10.10933	0.045283	0.095966	-0.931875	7.145175	2.16262	0.863193	-32.211613	-2.0903	-21.927643	-0.259229	-0.731541	-0.112824
5.384131	-3.943477	6.865727	-65.279613	-299.626616	-33.786071	0.786275	-0.506428	-0.73644	2.37139	0.886989	10.181294	0.598129	-14.528636	-9.135423	-0.005879	0.12845	-0.961479	6.724514	2.568614	0.497779	-28.918453	-2.374955	-16.926678	-0.287112	-0.749794	-0.081072
2.931886	-5.031154	7.268087	-61.652844	-309.314508	-8.465508	0.785846	-0.440758	-0.792331	2.771714	0.998801	10.076572	7.330054	-16.881044	-6.77967	0.006211	0.12531	-0.918705	5.952187	1.93005	0.121313	-26.382999	-3.621886	-13.78232	-0.287321	-0.765987	-0.080234
1.522671	-4.852968	8.378035	-61.070894	-317.318376	27.159711	0.746543	-0.515204	-0.79894	2.71622	0.548312	10.131623	10.297508	-16.605315	-5.664743	0.006136	0.109989	-0.917701	5.293396	2.278013	-0.368564	-22.636545	-3.732072	-10.708815	-0.231693	-0.746499	-0.127374
0.321773	-5.311389	8.409574	-68.074699	-322.333442	70.174349	0.718287	-0.497156	-0.815734	2.942963	0.491408	9.966493	11.652937	-16.779925	-4.463105	0.032528	0.081642	-0.944945	4.820031	2.336922	-0.437027	-18.922084	-3.59167	-8.216971	-0.301374	-0.745867	-0.158781
-0.184034	-4.562105	8.914368	-77.87179	-324.026455	114.894741	0.703395	-0.469239	-0.822216	3.171238	0.26556	9.857859	13.34392	-17.430647	-4.838148	-0.00603	0.09781	-0.959471	5.113586	2.045372	-0.552575	-18.434896	-4.10274	-2.990279	-0.315211	-0.746897	-0.143323
0.932331	-2.431041	10.479486	-88.160051	-320.895226	151.961674	0.646884	-0.433142	-0.855803	3.11743	0.829163	10.083683	15.097375	-20.156117	-1.996842	-0.020482	0.092375	-0.887447	5.294226	2.394412	-0.308163	-16.63945	-5.693521	0.617195	-0.274043	-0.795689	-0.125073
1.919592	-1.68187	11.240643	-90.681061	-317.107202	175.039376	0.577396	-0.420684	-0.896285	3.628481	0.715247	9.754631	14.089457	-26.404195	-0.456715	-0.007506	0.09245	-0.887723	5.349266	2.683916	-0.485547	-15.871252	-5.996317	0.585295	-0.287813	-0.778874	-0.141509
4.708745	1.772042	13.525839	-93.552142	-313.826691	180.37008	0.520542	-0.422714	-0.880812	2.538604	1.224459	9.958647	15.035265	-32.331035	-2.087107	-0.007656	0.061809	-0.885715	5.651199	2.103717	-0.182982	-15.653772	-5.315661	-0.091126	-0.273554	-0.76413	-0.11122
3.863234	-2.143535	11.106011	-101.480388	-311.496846	172.526689	0.450683	-0.413785	-0.907218	2.830081	1.843746	10.191771	14.9841	-36.062987	1.051041	-0.006476	0.066097	-0.943114	5.637724	2.216902	-0.901371	-16.03366	-3.02831	0.418903	-0.231901	-0.762691	-0.126537
5.14737	-2.196581	12.381035	-137.743852	-312.327392	163.119935	0.407564	-0.402419	-0.89551	2.581517	3.195493	9.451759	32.129379	-35.383647	5.510866	0.00628	0.08042	-0.930044	6.641018	2.679462	-0.820778	-16.567644	-0.989979	1.297439	-0.273834	-0.779496	-0.125911
5.436759	-0.977205	15.517476	-164.03823	-308.245385	139.852671	0.336561	-0.369475	-0.914672	2.746375	2.237171	9.001463	11.447189	-36.530095	9.367223	0.00628	0.08042	-0.930044	7.41234	2.329992	-0.628235	-18.611213	0.481929	3.192748	-0.260135	-0.795484	-0.125003
5.200636	-1.023583	18.070057	-184.031559	-297.095746	109.231428	0.295685	-0.354238	-0.969928	3.431762	1.897658	8.732487	4.480424	-37.387846	14.470676	-0.007656	0.061809	-0.885715	7.948292	2.155538	-0.379446	-18.678973	0.993436	6.949939	-0.287533	-0.763508	-0.126818
3.51649	-1.129985	19.741762	-201.843026	-280.495056	79.054577	0.239932	-0.328384	-1.014175	3.386178	1.95457	9.297722	-8.200821	-36.06036	16.662533	-0.007356	0.123091	-0.88973	8.118312	1.863022	-0.796729	-20.842186	2.395857	9.610227	-0.287391	-0.76516	-0.095762
2.177513	1.119191	21.600601	-226.3833	-263.909434	47.358413	0.209376	-0.245009	-1.033971	3.10558	1.335711	9.574354	-22.429806	-39.72516	19.512596	-0.033313	0.062731	-0.899514	8.536077	1.282058	-0.611777	-22.738077	4.067021	10.037033	-0.259646	-0.763926	-0.11115
1.149227	1.937187	24.65289	-253.861211	-251.207759	9.591157	0.167371	-0.223057	-1.064491	3.053197	1.7867	9.856722	-27.366683	-43.912134	21.748372	-0.007286	0.078202	-0.901069	8.710925	1.281159	-0.72829	-24.015746	4.899032	11.96332	-0.301441	-0.763712	-0.126888
-0.339203	4.133871	27.64521	-264.125968	-251.620528	-31.36107	0.081105	-0.165726	-1.076059	3.291466	1.392239	10.201063	-41.76751	-53.684873	24.907564	-0.060075	0.074686	-0.856917	8.598239	0.875885	-0.492594	-22.148376	4.934396	15.104704	-0.301232	-0.747519	-0.127725
-4.843504	5.864734	28.587839	-263.331498	-263.229556	-59.988837	0.039872	-0.171316	-1.099748	3.652466	1.44854	10.944679	-50.453864	-63.650457	26.342996	-0.046654	0.106474	-0.873549	8.769225	0.641693	-0.849723	-20.123843	4.560978	19.378546	-0.301165	-0.729674	-0.159618
-16.505261	9.139354	26.499403	-241.240455	-255.575459	-66.585505	0.009359	-0.139839	-1.067069	3.095722	1.675698	11.839013	-56.155689	-79.465767	27.352737	-0.021072	0.090231	-0.858747	8.406865	0.408221	-1.336569	-16.317645	3.150775	23.956715	-0.315628	-0.779282	-0.141649
-30.556847	13.707737	31.019095	-294.437088	-203.167188	-11.163842	-0.020797	-0.087534	-1.065958	4.451588	1.44913	13.339258	-65.051194	-96.152004	28.443761	-0.059555	0.121719	-0.874277	8.975308	0.75063	-2.462312	-7.422649	1.131726	24.086974	-0.273696	-0.762477	-0.142275
-33.526297	26.630279	43.575326	-220.095484	-150.022636	65.652188	-0.05131	-0.056057	-1.033279	4.561987	3.143504	18.664803	-63.854661	-112.188315	19.838051	-0.085437	0.076679	-0.885065	9.350198	1.277448	-1.255347	-3.564188	0.360988	26.002523	-0.287324	-0.747315	-0.127655
-33.10211	22.965892	32.940844	10.836985	-119.99438	74.825487	-0.064673	-0.065925	-1.04359	4.927377	0.662547	16.688793	-36.289295	-143.832595	13.503291	-0.111603	0.150988	-0.860832	9.273598	1.926197	1.081541	0.093916	1.67146	27.725475	-0.31542	-0.76309	-0.142486
-38.263145	5.912721	20.038563	110.94216	-71.327929	78.546284	-0.022683	-0.070577	-1.030562	4.840373	0.494861	17.988944	-34.788837	-177.243527	5.157133	-0.112124	0.103955	-0.843471	9.822911	2.161488	2.110851	0.651978	2.723283	26.770777	-0.287884	-0.778048	-0.157036
-37.264077	-1.900458	6.442595	65.104795	0.325613	84.501264	-0.079165	-0.069079	-1.029165	4.214992	1.454045	18.429569	-25.744012	-214.815659	-1.096945	-0.125615	0.117056	-0.8155	9.664009	1.933545	3.065071	3.055632	4.566382	23.87978	-0.315558	-0.780108	-0.126121
-28.050202	7.756117	9.73136	-84.368233	60.815202	66.142176	-0.123056	-0.03017	-1.024289	4.402195	1.454291	19.112871	-37.017806	-250.927112	0.878343	-0.12598	0.160874	-0.789811	8.70583	1.293408	2.206048	1.967142	7.84378	23.073295	-0.287675	-0.761855	-0.157874
-22.388128	106.217991	39.865158	-370.590178	330.934691	-113.073054	-0.081109	0.017076	-1.063736	3.44351	2.414596	20.112638	-53.655204	-290.664013	5.49548	-0.178329	0.128861	-0.772351	7.816011	0.42281	1.826391	-7.802206	13.737165	26.626552	-0.301374	-0.745867	-0.158781
-4.984774	-7.621741	17.900958	768.416036	357.134546	-236.429829	-0.021954	-0.046221	-1.076205	4.276981	4.050241	24.26442	-67.759534	-332.460388	13.762984	-0.243429	0.142734	-0.757626	7.074689	0.939944	0.078111	-20.302217	16.301535	31.703647	-0.31514	-0.747724	-0.127795
4.842384	10.48369	9.018725	162.197284	384.079528	-170.463799	0.04982	-0.106706	-1.050212	4.35371	2.248174	25.000426	-69.742954	-378.384861	22.061181	-0.283092	0.169934	-0.715757	7.371394	3.366707	-2.720527	-29.771263	16.08253	20.030992	-0.314372	-0.700799	-0.099251
0.924552	13.530852	22.424171	331.296177	318.400508	-191.087289	0.10746	-0.149518	-1.041362	6.109587	6.816287	34.892199	-93.56939	-421.506036	32.034697	-0.271222	0.181042	-0.659638	9.065522	12.526307	-5.643795	-34.995092	8.210573	-10.354322	-0.245742	-0.74505	-0.1585
-8.390325	8.665791	11.25421	-45.69553	183.964457	-57.61002	0.151736	-0.202197	-1.042822	11.028699	3.543099	38.615931	-27.488916	-462.139632	46.452663	-0.311626	0.175458	-0.587062	13.906277	23.265234	-4.070056	4.438111	-8.278807	-20.166808	-0.287328	-0.728644	-0.175076
-0.334544	-0.695744	13.076357	-22.153177	78.892627	9.534201	0.181506	-0.240731	-1.047349	10.145155	3.773999	43.070098	38.222412	-461.385173	44.878983	-0.313027	0.185419	-0.516317	17.292191	10.76508	8.395499	26.733385	-22.779568	23.404888	-0.287187	-0.730297	-0.14402
0.597338	1.809948	8.160799	-5.829975	48.06541	16.744503	0.20859	-0.200167	-1.058295	2.998231	-1.569515	36.63111	130.97632	-465.585127	30.791658	-0.404078	0.199142	-0.50104	21.99426	5.100248	3.488381	25.544819	-54.048106	54.130855	-0.287395	-0.746489	-0.143183
0.666385	2.444417	8.789951	-43.415444	44.843661	28.023255	0.222353	-0.22137	-1.027076	-0.882988	-2.354301	32.642526	160.411865	-442.057342	35.241587	-0.391838	0.226642	-0.460274	13.873169	2.366293	-2.184333	4.653452	-50.881288	18.605874	-0.286557	-0.70039	-0.099111
0.939456	0.040875	10.944687	-44.061653	49.431749	43.185079	0.195641	-0.258405	-1.030206	-9.8198	-4.650242	28.886114	166.512468	-421.418875	31.319964	-0.484666	0.173724	-0.369235	10.40029	2.260085	-1.770498	-0.670907	-34.726097	-19.655398	-0.315002	-0.730705	-0.14416
1.645196	-1.162035	11.862631	-3.958503	38.268051	25.104497	0.237974	-0.22493	-1.066237	-2.965869	-7.589965	31.631721	118.489629	-433.273288	-2.871459	-0.472721	0.200153	-0.314119	11.346992	7.836684	-0.89046	-10.378723	-33.996671	-25.521296	-0.244695	-0.682759	-0.115265
0.926255	1.359376	10.324853	9.994302	13.35133	-2.3879	0.194455	-0.182493	-1.075437	-14.870675	-5.320923	24.023852	141.882062	-411.561578	-128.183684	-0.500149	0.194643	-0.241819	12.947786	9.403564	-0.255004	22.461241	-28.33994	-5.253723	-0.273413	-0.765782	-0.080164
0.60967	1.697719	8.7857	2.147484	11.50279	0.211435	0.250566	-0.18752	-1.062758	-21.256312	-10.47075	-16.820392	252.93025	-189.912539	-174.218769	-0.501115	0.115897	-0.208101	12.805135	6.448272	1.226758	34.538494	-16.276317	3.477571	-0.286627	-0.699564	-0.114638
1.262691	0.380933	9.92946	0.475789	8.538664	0.720093	0.221167	-0.145458	-1.072307	-17.947278	-7.757538	0.971734	121.642728	81.701472	-192.36519	-0.502007	0.052472	-0.175387	13.407246	6.042862	1.835101	37.799259	-8.2428	-15.123378	-0.272924	-0.734224	-0.066311
0.804324	0.840797	9.922483	0.86042	6.671152	0.228616	0.22271	-0.200542	-1.058644	-13.226839	-4.940172	12.113122	83.7386	191.864235	-218.078443	-0.48888	0.083188	-0.17767	12.995794	6.276606	1.9482	40.292745	-2.950798	-29.122421	-0.328906	-0.74958	-0.09681
1.483625	0.781169	9.537632	-0.163806	9.869944	-0.391142	0.223468	-0.210785	-1.069304	-13.490981	-3.417666	13.35443	108.179997	210.526591	-214.606699	-0.487335	0.043658	-0.260757	11.74597	5.57981	1.263149	37.089392	1.318485	-28.978415	-0.245738	-0.763722	-0.111079
0.522796	0.439878	10.142639	-2.392476	10.429127	0.881745	0.195598	-0.206507	-1.082681	-14.634241	-2.178196	11.123559	124.65385	195.088514	-186.704771	-0.500536	-0.002379	-0.257471	11.087679	4.765758	0.648514	31.959115	4.743615	-24.759414	-0.273763	-0.780322	-0.110383
2.687164	0.665657	9.617386	-0.597353	13.328866	0.678365	0.221953	-0.190299	-1.047984	-14.300239	-3.029043	5.128721	124.924528	205.775665	-143.668842	-0.4869	-0.045049	-0.297785	10.376974	3.953325	0.392219	30.013889	6.856103	-22.654012	-0.245321	-0.731337	-0.112754
1.291446	1.293925	8.513108	-3.969988	14.255891	-1.136939	0.22231	-0.169472	-1.079551	-13.748514	-4.667133	1.175872	106.601652	247.256417	-102.587595	-0.486756	-0.074618	-0.310127	10.067142	3.195304	-0.5151	30.643165	6.741329	-20.211132	-0.273554	-0.76413	-0.11122
1.823645	1.009963	9.374719	-5.015599	13.791812	-1.294813	0.26623	-0.242979	-1.049444	-13.282162	-4.555097	1.468836	72.506761	296.669043	-61.559858	-0.473264	-0.08772	-0.338099	9.474624	2.78938	-0.707556	29.311769	6.156915	-20.356312	-0.273416	-0.747111	-0.127585
0.633224	-0.078144	9.915281	-4.00225	12.914533	0.589428	0.250952	-0.201291	-1.059342	-10.048692	-4.389378	4.707286	34.053075	326.047559	-27.945139	-0.458888	-0.097606	-0.40912	8.301174	2.677412	-0.370618	28.714233	5.618049	-21.696118	-0.287112	-0.749794	-0.081072
1.668708	0.841381	10.223451	-4.883045	13.419239	1.796207	0.221953	-0.190299	-1.047984	-6.841277	-4.506354	6.699428	5.834613	333.641586	-8.378711	-0.458297	-0.095462	-0.437819	7.655277	2.214783	-0.264887	27.834467	7.046602	-21.119154	-0.273692	-0.781149	-0.094855
1.328315	1.129561	10.388536	-6.429714	17.088975	0.081573	0.250937	-0.183992	-1.076834	-3.64867	-3.835225	8.069198	-9.097992	330.722544	-2.685847	-0.379556	-0.091796	-0.482523	5.470444	2.277608	-0.365263	25.259331	9.337284	-21.670798	-0.30137	-0.764538	-0.11136
1.22391	1.016932	10.897504	-3.223014	22.83851	-4.219775	0.221953	-0.190299	-1.047984	-1.652313	-3.051034	7.319219	-22.468807	327.915212	-11.140527	-0.39039	-0.069048	-0.583699	5.999929	2.043594	-0.476161	24.183056	9.952076	-16.41382	-0.273204	-0.74959	-0.081001
1.347327	1.01878	11.354555	-0.956682	28.680319	-6.216829	0.22271	-0.200542	-1.058644	0.022613	-2.152587	7.694874	-37.924962	332.448672	-32.532384	-0.363703	-0.096323	-0.625292	5.948481	2.103536	-0.057666	21.269372	10.318651	-8.490022	-0.287324	-0.747315	-0.127655
1.563682	1.590375	10.736039	3.026521	36.061724	-10.494044	0.306648	-0.157948	-1.085062	1.415648	-1.197033	8.347729	-56.57725	342.501395	-61.916109	-0.33679	-0.077637	-0.669897	5.719289	1.989407	0.296879	19.199655	11.032478	-10.197327	-0.273621	-0.781975	-0.079327
1.554324	0.66914	10.2205	13.316138	44.273916	-17.720423	0.25208	-0.208005	-1.084078	2.182262	-0.63437	9.270153	-76.112254	353.305085	-95.668098	-0.270359	-0.056581	-0.744028	5.888094	2.219576	-0.118179	18.725685	11.052566	-12.304355	-0.287462	-0.764334	-0.11129
0.678391	1.240558	9.353414	12.366972	47.683214	-15.239261	0.252481	-0.239076	-1.063171	2.253279	0.549079	10.008673	-93.686237	360.406939	-130.439348	-0.296386	-0.072052	-0.742472	6.594357	2.101309	-0.225282	15.835286	9.377699	-14.027798	-0.286832	-0.734428	-0.066381
0.809768	1.014328	10.207472	5.183918	48.878073	-12.438815	0.278793	-0.17097	-1.080948	2.221146	1.789549	11.311218	-113.193959	361.622569	-162.463931	-0.21794	-0.069458	-0.772826	6.309045	2.162285	0.308625	16.211663	6.724349	-14.658247	-0.329257	-0.76412	-0.127029
0.755854	1.015093	10.376918	6.212809	51.58596	-12.336415	0.265815	-0.194609	-1.087843	1.599392	2.748875	11.921762	-129.443308	359.804806	-187.457122	-0.177831	-0.064945	-0.831053	6.362154	2.335142	0.010933	15.574055	6.140897	-17.61737	-0.287391	-0.76516	-0.095762
0.019838	0.328022	10.757519	-0.990561	54.971883	-10.359094	0.265044	-0.167067	-1.094675	0.859742	3.257631	12.35959	-148.108147	356.436805	-199.893768	-0.124822	-0.075678	-0.888551	6.473584	2.333389	-0.346308	14.58791	4.114698	-20.201583	-0.259367	-0.74856	-0.096459
0.472922	1.016024	10.54191	1.535023	59.865726	-7.311859	0.279936	-0.194984	-1.088193	0.532876	4.949046	13.373272	-173.74012	348.980994	-194.842376	-0.085523	-0.059061	-0.904731	6.595187	2.217708	-0.164881	12.189474	1.512947	-20.852757	-0.287183	-0.748968	-0.096599
0.744387	1.472212	9.810318	-0.834181	61.451331	-4.488383	0.308191	-0.213032	-1.071399	1.120154	6.697168	16.783998	-205.235436	334.91031	-167.488325	-0.071517	-0.085339	-0.960399	7.014228	2.508627	0.2035	13.079094	-1.17633	-17.817889	-0.287112	-0.749794	-0.081072
0.411213	1.0151	10.313384	-4.279479	63.730095	-3.613366	0.308948	-0.223275	-1.082059	1.883494	7.318403	20.254042	-224.439364	314.793817	-118.485733	-0.019237	-0.008437	-0.96652	7.655142	2.272859	-0.264639	18.780169	-6.023823	-11.459066	-0.273483	-0.764956	-0.095692
0.525764	0.957576	10.31537	-9.378956	66.24864	-2.883037	0.292942	-0.205943	-1.046314	2.562378	8.3354	25.19463	-223.419867	299.728907	-44.813735	0.033257	-0.005993	-0.996322	7.771358	1.633011	-0.444879	23.840862	-9.831319	-5.316495	-0.28725	-0.766813	-0.064707
0.24914	1.476928	10.823652	-12.75273	70.343799	-2.285389	0.30782	-0.21656	-1.057323	2.693632	7.490796	25.876012	-183.651961	302.528237	53.989411	0.098287	0.025023	-0.999708	7.773539	1.16865	-0.38695	26.749084	-11.608827	-1.009286	-0.245179	-0.732989	-0.081698
0.448906	1.253069	12.247354	-12.190251	75.92146	-0.754926	0.349424	-0.207441	-1.047711	8.636982	5.790206	26.508863	-154.500177	317.992169	165.974188	0.138402	0.089746	-1.047599	7.912054	0.88245	0.692339	26.634872	-11.688727	0.764154	-0.259643	-0.782597	-0.063729
0.439134	0.906248	11.734229	-7.46943	82.548816	-3.39025	0.406635	-0.184584	-1.094751	16.284696	5.155856	26.21601	-132.79907	326.705648	256.628006	0.151453	0.105141	-1.048879	7.571163	0.886227	1.404619	24.454346	-11.961786	2.759969	-0.273342	-0.766609	-0.064636
0.570878	1.714207	12.649483	-9.922038	92.092751	-3.350698	0.365016	-0.176403	-1.121855	26.913807	7.778114	20.327228	-103.296721	315.807737	305.217158	0.228793	0.118768	-1.022837	7.346123	1.354095	2.061171	20.441374	-12.368247	8.155743	-0.259434	-0.766405	-0.064566
0.297103	1.372419	13.267852	-4.000581	102.656999	-3.195981	0.336804	-0.210253	-1.086174	46.478999	9.77161	23.287538	-104.056194	262.247959	265.200286	0.255336	0.121062	-1.052088	6.95942	1.360974	3.491233	11.853063	-9.377828	17.709178	-0.244482	-0.685238	-0.068681
0.492415	1.147595	14.464142	-0.469071	118.906506	-4.199348	0.391786	-0.208565	-1.048758	64.296502	4.666981	21.902204	1.530222	199.00196	143.913899	0.29508	0.169392	-1.084626	7.428093	0.952373	3.258679	12.480263	-4.914752	30.004791	-0.259434	-0.766405	-0.064566
0.533905	0.75443	16.566017	7.650518	142.845438	-4.262811	0.406635	-0.184584	-1.094751	65.315072	-5.037056	6.742439	105.353681	137.631404	-18.35795	0.347059	0.185013	-1.086732	8.351889	1.700998	2.261083	12.663105	-0.059787	33.832858	-0.24525	-0.732163	-0.097226
0.423383	0.767824	19.689597	20.441183	173.620111	-4.105837	0.420398	-0.205786	-1.063533	57.899578	-11.062391	-6.949404	77.087848	62.731381	-161.772508	0.359219	0.136983	-1.055298	9.617271	2.620321	0.611855	17.417837	5.130745	27.493361	-0.287391	-0.76516	-0.095762
0.897215	0.483662	20.493242	36.344744	213.049717	-5.227748	0.477652	-0.234826	-1.058098	90.870478	33.750883	34.884476	-341.77788	-166.800376	-146.546235	0.373005	0.124953	-1.097619	10.156002	2.956054	-2.131374	22.360703	8.077384	19.330145	-0.272924	-0.734224	-0.066311
2.030951	0.148117	22.843927	29.734106	249.968071	-0.437238	0.477652	-0.234826	-1.058098	22.293454	-0.056217	5.333753	78.947813	-341.527372	-151.702161	0.308866	0.157362	-1.126947	10.089668	2.315375	-2.61445	22.689389	11.769221	23.315754	-0.258946	-0.734846	-0.050713
0.52394	-2.772321	24.677708	25.757758	290.714882	5.757277	0.521171	-0.277263	-1.048898	7.769437	25.17983	-25.860362	210.511144	-406.821146	18.705897	0.269423	0.170314	-1.098424	9.283175	3.774358	-1.36563	17.788306	11.368899	13.003662	-0.244758	-0.719275	-0.035952
1.747335	-0.170911	28.804259	8.795425	338.410536	10.44617	0.56389	-0.257559	-1.081513	-5.181715	4.466288	28.651881	-411.222834	-387.238263	120.239409	0.178811	0.15554	-1.10984	8.989877	6.796964	-0.879021	18.131311	7.999376	1.740134	-0.286974	-0.732775	-0.097436
5.550948	5.831478	36.234667	24.644333	384.584873	7.625403	0.66049	-0.264052	-1.016994	29.496159	-6.519517	37.57956	4.692837	-389.199655	77.201531	0.165621	0.229923	-1.085883	10.024724	11.494983	-1.737791	11.445194	6.96875	-1.470402	-0.286415	-0.702043	-0.068055
6.117423	4.348481	38.796804	83.346939	421.072153	-11.730726	0.658961	-0.226267	-1.013165	21.294785	12.566178	8.211235	143.078113	-267.857587	37.973654	0.112832	0.226408	-1.041731	12.173958	12.063331	-3.491809	2.800469	14.120739	19.800096	-0.286131	-0.705348	-0.005944
7.643066	10.412624	46.808298	119.028418	421.765153	-28.507591	0.758234	-0.294558	-0.959719	7.524253	2.739969	14.537213	72.643741	-183.214138	-13.713186	0.049277	0.200751	-1.110093	14.339766	7.87068	-4.966566	2.890678	25.124552	14.764816	-0.244691	-0.701431	-0.067844
7.130093	3.839247	40.803419	277.185185	423.522125	-64.703694	0.785346	-0.288593	-0.935681	5.53026	-7.736072	11.825228	36.185667	-83.907698	-29.032432	0.034825	0.195317	-1.038069	14.61332	6.425904	-3.111231	-4.779623	39.409551	12.3097	-0.272369	-0.68482	-0.08435
7.235289	-6.955886	28.200442	289.237597	421.231757	-76.986781	0.800624	-0.33028	-0.925783	3.512208	-0.972258	12.241724	68.982752	-54.653504	-1.309933	0.022805	0.153568	-1.092181	11.299959	5.050406	-0.603893	-2.715035	49.702368	2.900302	-0.258528	-0.702461	-0.052387
8.720497	-7.774455	25.100208	204.005385	384.116437	-80.781856	0.89801	-0.381614	-0.83694	4.643654	0.31814	8.756546	64.548771	-36.329668	2.074778	0.034895	0.150427	-1.049408	9.281285	4.587422	-1.362169	-2.977548	49.707288	11.214801	-0.286694	-0.717409	-0.082746
20.497006	-9.842644	27.252791	164.502271	367.336225	-56.979671	0.895424	-0.423612	-0.720916	3.971887	0.489184	9.648415	47.490635	-34.09263	-16.783227	-0.03072	0.177477	-1.006987	9.753049	5.690281	-1.228854	-10.683032	47.248827	9.603908	-0.28586	-0.652639	-0.086094
16.467042	-13.009103	11.305371	214.625955	344.738827	4.773664	0.96677	-0.418428	-0.750814	3.742834	0.489662	9.700219	50.510772	-29.644843	-15.750112	-0.03028	0.14898	-1.033679	11.696511	6.963251	-1.247007	-11.391439	40.837182	2.14881	-0.300673	-0.716787	-0.098344
28.061089	-21.331044	-25.330297	372.81001	275.278004	57.766224	0.993911	-0.447061	-0.691793	3.94711	2.065585	8.63023	39.268157	-21.626019	-6.986113	-0.004554	0.103169	-1.03122	13.794412	7.068608	-2.644663	-17.421156	30.252596	2.954678	-0.273204	-0.74959	-0.081001
23.848297	-22.861487	-21.326902	-58.699969	-16.348933	151.579232	0.979461	-0.502113	-0.624893	3.440309	1.221976	9.071756	19.685368	-16.876174	-6.985474	0.008793	0.119636	-1.046849	15.553312	6.364678	-3.333499	-21.557605	17.07107	4.16342	-0.272857	-0.716379	-0.098203
21.741131	-9.289631	8.979928	24.679523	-98.889404	139.060571	0.96687	-0.539523	-0.628372	2.922843	0.26528	9.00343	1.79108	-10.273733	-5.67029	-0.04237	0.152121	-1.076453	15.712598	5.953538	-4.350345	-21.270234	6.292981	-6.544218	-0.287045	-0.731949	-0.112964
23.838791	-3.046002	5.29624	-54.329208	-140.332344	122.189976	0.980247	-0.546955	-0.600569	3.269946	1.898408	9.238617	0.487217	-5.878438	-5.103565	-0.017455	0.118414	-1.031948	13.590177	5.029183	-4.393917	-24.852439	-0.400959	-25.99588	-0.314514	-0.699146	-0.130307
23.475376	-0.177536	4.391975	-8.856311	-150.208952	49.161224	1.009231	-0.540647	-0.62942	1.887383	1.788286	9.152869	-10.066824	-5.234372	-6.862832	-0.056238	0.08862	-1.043463	12.126763	5.558209	-3.70032	-30.316612	-4.045986	-33.292052	-0.27244	-0.683994	-0.099877
19.116397	-4.382376	0.822809	-2.341926	-173.944747	-16.559301	0.965355	-0.519038	-0.607052	3.208623	1.335021	9.010375	-15.619297	-4.858497	-9.483907	-0.004403	0.13381	-1.033227	11.270517	4.927579	-2.221874	-33.962331	-4.754815	-28.111611	-0.259162	-0.713696	-0.144717
16.853539	-6.110761	-0.819743	-18.913497	-213.931057	-50.595855	0.953107	-0.518321	-0.65959	2.248336	0.60522	9.782162	-19.161866	-6.555724	-10.027701	-0.056458	0.102869	-1.030117	10.944431	3.772555	-0.855563	-34.861915	-3.067553	-25.946909	-0.272999	-0.714726	-0.129259
14.183085	-8.28749	0.085256	-54.129607	-256.653016	-65.975492	0.968756	-0.556481	-0.663768	2.954381	0.210182	10.476012	-15.998375	-8.016588	-10.255473	-0.016789	0.135879	-1.061651	9.372693	2.967587	0.189588	-34.020397	-1.777929	-26.139449	-0.286974	-0.732775	-0.097436
11.143965	-7.124841	2.758902	-91.086291	-295.281549	-61.09685	0.925237	-0.514044	-0.672968	2.540436	0.266841	9.957841	-8.68466	-11.078341	-10.834925	-0.016494	0.13695	-1.076001	7.899895	2.797229	0.281149	-30.38676	-0.825417	-28.265532	-0.300606	-0.698942	-0.130236
8.645413	-5.497484	6.752121	-109.98513	-321.247622	-45.112875	0.871341	-0.470548	-0.787595	1.927528	-0.23819	10.850349	1.595073	-13.985887	-10.485634	-0.005069	0.116346	-1.003524	6.786541	2.220517	0.61721	-29.74589	0.186263	-25.308716	-0.287675	-0.761855	-0.157874
5.997916	-3.992406	8.980185	-106.116296	-334.406943	-23.037498	0.841971	-0.463084	-0.76216	2.829842	1.336724	10.134705	9.066786	-14.028992	-8.137159	-0.056238	0.08862	-1.043463	6.019197	2.280349	0.603152	-23.715531	0.576234	-22.490611	-0.27342	-0.72844	-0.175005
3.028853	-4.505536	9.318083	-98.216858	-337.165771	8.975005	0.843829	-0.445443	-0.83254	3.510609	0.884359	9.639076	8.146314	-13.435051	-6.960545	-0.017455	0.118414	-1.031948	5.127061	1.932187	0.165813	-17.438037	0.22128	-18.539128	-0.273141	-0.713074	-0.160315
1.150385	-4.214549	9.851075	-99.814397	-336.508102	53.327817	0.79991	-0.371936	-0.862647	2.535516	0.942664	9.788491	9.698826	-15.138683	-6.020576	-0.03043	0.118339	-1.031672	5.181926	1.350056	-0.135093	-13.305449	-1.780937	-9.835109	-0.273137	-0.731745	-0.112894
0.251301	-3.061195	10.747735	-103.543727	-336.781296	102.870276	0.717501	-0.452314	-0.840057	2.64605	1.449281	9.621417	16.418081	-16.22122	-5.625172	-0.018265	0.130519	-0.989902	4.519988	2.104057	-0.743053	-12.325348	-3.748722	-2.586225	-0.24588	-0.762069	-0.142135
1.180355	-0.990826	11.513328	-104.974081	-339.396579	148.186343	0.731536	-0.348893	-0.945357	3.455485	1.504245	9.808308	14.000842	-16.893006	-6.065384	-0.003668	0.106385	-1.074269	4.712288	1.700334	0.037308	-10.541453	-1.898857	-0.431577	-0.301232	-0.747519	-0.127725
1.61136	0.336794	13.11856	-99.264651	-341.43438	183.52312	0.704052	-0.358387	-0.955319	2.523666	1.449212	9.279161	17.437934	-18.514443	-4.660663	-0.030946	0.131516	-1.003976	4.597016	1.93365	0.215816	-6.949096	-0.922586	1.048338	-0.273349	-0.729266	-0.159477
2.578455	1.253948	12.857084	-94.482665	-341.799095	206.691923	0.605594	-0.369536	-0.949458	3.22885	1.504819	9.973391	17.871711	-18.330379	-3.826132	-0.056162	0.103941	-1.044467	4.414756	2.281522	-0.025629	-6.264531	-0.745752	1.931349	-0.230996	-0.698748	-0.114358
3.555903	1.713741	13.105357	-97.25593	-338.53489	213.521873	0.551341	-0.346867	-1.032517	3.28456	1.842647	9.918245	21.535323	-23.96795	-2.152871	-0.03021	0.104091	-1.045018	4.951269	2.339619	0.284056	-5.387064	0.689698	2.440898	-0.315002	-0.730705	-0.14416
4.597985	2.749596	13.755127	-105.497173	-331.356603	204.136132	0.48071	-0.310396	-1.065755	3.043957	1.560998	9.403416	13.81392	-28.273496	3.501315	-0.031467	0.084483	-0.986616	5.41502	2.627188	-0.125252	-6.75612	2.76103	2.802733	-0.288021	-0.795066	-0.140672
5.584015	2.119688	14.396786	-121.734792	-319.827289	182.345016	0.423856	-0.312426	-1.050282	2.759541	1.67434	9.567385	6.516818	-28.599629	6.39007	-0.03043	0.118339	-1.031672	5.945605	2.393422	-0.176244	-9.704124	4.745994	2.100977	-0.287045	-0.731949	-0.112964
5.215856	1.667443	16.035801	-144.942662	-304.491171	153.064959	0.352482	-0.283011	-1.055368	2.989911	1.617579	9.572173	2.727146	-30.187013	7.296095	-0.056973	0.116045	-1.002421	6.244932	1.986956	0.007248	-12.635169	6.978242	4.11814	-0.287257	-0.72947	-0.159548
4.669663	2.190621	17.391312	-173.034226	-285.505221	117.356097	0.26733	-0.215094	-1.109164	2.927186	1.786488	9.344548	1.373501	-31.910283	10.26825	-0.043777	0.101872	-1.016043	6.889147	1.75193	-0.28117	-16.851468	9.529125	7.422181	-0.259509	-0.746907	-0.127515
4.414977	3.174331	19.038586	-203.606069	-267.166451	69.773112	0.226126	-0.255284	-1.097869	2.811409	2.124687	9.342415	-6.741307	-33.408288	12.558988	-0.043412	0.058054	-1.041732	7.516877	1.978052	-1.406308	-20.122741	11.824553	9.13471	-0.273487	-0.746285	-0.143113
3.910884	5.545047	22.61909	-238.204235	-249.013968	7.036463	0.20969	-0.172283	-1.118014	3.270808	1.447764	9.238238	-14.110096	-36.865522	15.75573	-0.069654	0.117042	-1.016495	8.389163	1.392052	-2.171063	-23.707985	11.645707	13.366607	-0.287466	-0.745663	-0.158711
2.2391	8.3713	25.042192	-252.242718	-243.852773	-65.688503	0.140231	-0.194424	-1.123513	3.508862	1.165965	9.582674	-15.653701	-39.130225	16.718504	-0.069804	0.086401	-1.014488	9.039171	1.506966	-2.098557	-23.621977	10.978615	18.749236	-0.24588	-0.762069	-0.142135
-3.598848	9.594868	28.002637	-251.764859	-251.345332	-126.35424	0.082934	-0.113486	-1.181423	3.396148	1.166275	9.693535	-17.240807	-42.463457	16.838235	-0.08219	0.08847	-1.042912	8.795228	0.634141	-2.645829	-24.756156	7.857073	24.423353	-0.286907	-0.71493	-0.129329
-15.525348	12.357305	26.986671	-216.30368	-245.153992	-155.852448	0.026466	-0.129287	-1.162534	3.998374	0.546557	10.894534	-24.888786	-48.581144	18.251065	-0.107991	0.118961	-1.044367	9.095116	0.460227	-2.401441	-25.13299	5.043308	27.219945	-0.286702	-0.680067	-0.177587
-31.176458	13.480598	31.517559	-241.425337	-207.305543	-112.655869	-0.01671	-0.048723	-1.220793	3.206449	1.449971	11.614683	-26.765787	-59.507305	25.077562	-0.09597	0.16071	-0.990255	8.84324	0.631534	-3.243797	-17.742775	0.457568	26.573103	-0.287053	-0.694607	-0.207805
-39.696169	22.935977	38.154515	-156.442554	-175.736539	-27.340252	-0.074693	-0.044038	-1.180585	4.045004	1.449743	13.160877	-48.485232	-83.520189	28.952591	-0.109467	0.113602	-0.972619	8.865093	0.229699	-2.107297	-11.146505	-1.75108	29.463874	-0.286773	-0.67924	-0.193115
-38.702514	19.180501	33.213767	11.075156	-148.250323	25.679967	-0.090342	-0.005879	-1.176407	4.826715	2.578711	17.537582	-66.684276	-108.039582	27.430243	-0.109097	0.129994	-0.987972	9.194578	0.585391	-0.183291	-9.789	-1.775615	35.267523	-0.314935	-0.71286	-0.176053
-39.948968	5.678608	18.697686	133.779623	-92.186721	40.280352	-0.148325	-0.001195	-1.136198	4.256609	0.554322	20.297917	-32.103448	-147.836879	9.798247	-0.148024	0.129769	-0.987145	9.703602	1.289876	1.925221	-10.644418	-0.738056	35.204526	-0.272723	-0.680689	-0.161989
-38.820205	-4.659187	5.775563	71.835188	-30.400212	61.788937	-0.120455	-0.005472	-1.12282	4.368029	1.229978	20.187625	-42.299858	-192.535181	0.714074	-0.109311	0.204452	-0.964291	9.419796	1.176872	2.518293	-7.109402	-1.884857	34.922051	-0.300398	-0.68275	-0.131074
-31.769024	1.542297	6.620821	-61.612273	19.670717	56.027229	-0.177309	-0.007502	-1.107348	4.136371	1.570729	22.843926	-21.499318	-238.730628	-7.434917	-0.161956	0.171367	-0.932481	8.77527	0.598338	2.683437	-7.850427	-1.637131	34.373269	-0.314727	-0.696667	-0.17689
-23.670102	14.193657	11.548605	-101.15943	62.765222	20.170848	-0.135319	-0.012154	-1.094319	4.172393	1.457106	21.825527	-23.220733	-286.375398	-4.055845	-0.187908	0.171217	-0.93193	7.165982	-0.15696	1.692	-15.751717	2.607437	32.333372	-0.272586	-0.66367	-0.178354
-81.855159	40.857093	16.61008	-52.850854	310.818356	-39.450468	-0.162831	0.012951	-1.139265	4.553104	2.58454	23.589557	-30.424448	-332.434282	2.479184	-0.279405	0.153228	-0.900296	7.029688	0.59459	0.79441	-23.181735	5.999143	33.077801	-0.300606	-0.698942	-0.130236
22.924612	24.126282	32.785249	908.603877	495.194155	-160.864288	-0.03426	0.023693	-1.198711	2.57853	2.420886	25.416209	-57.908867	-381.73206	11.771389	-0.26739	0.134767	-0.856519	6.211763	1.57276	-1.851596	-26.927591	8.87164	26.138244	-0.328564	-0.697698	-0.161433
31.579178	-24.333672	25.588699	98.901683	281.16173	-175.119934	0.009316	-0.087941	-1.119544	4.619732	2.366547	32.082889	-77.299097	-436.68798	11.333972	-0.320104	0.146571	-0.813371	7.098366	7.426389	-4.205294	-35.092453	6.642686	2.214447	-0.300823	-0.677792	-0.22424
4.611631	7.6234	11.730041	440.846287	197.952939	-146.886957	0.042487	-0.163918	-1.180788	7.925953	7.328306	44.555207	-75.163647	-470.842864	33.841621	-0.372818	0.158376	-0.770222	9.458712	22.51518	-5.413848	-33.260977	-0.318732	-19.090415	-0.314101	-0.64809	-0.179401
-8.153217	2.992223	14.36058	-168.775448	32.489655	-58.339014	0.070357	-0.168195	-1.16741	15.766405	1.905965	44.771706	2.882484	-486.589375	40.376803	-0.426418	0.166965	-0.684025	14.55652	22.709712	2.347413	39.124981	-20.283183	2.135291	-0.258402	-0.629428	-0.211013
-1.761875	1.796648	4.591368	138.512555	30.242966	-19.198561	0.11309	-0.165791	-1.182534	7.377125	-0.615129	42.385336	117.935672	-476.984972	22.99151	-0.440575	0.162603	-0.62635	20.20361	6.766928	12.205396	33.489144	-29.437748	27.844732	-0.25854	-0.646447	-0.194648
0.122098	4.047122	7.365359	-40.741126	54.801847	37.100028	0.126853	-0.186993	-1.151315	-0.231386	-2.631707	38.883525	180.689615	-456.732727	10.448772	-0.520202	0.155721	-0.538597	22.387351	3.48122	5.405082	31.789254	-58.514448	80.183122	-0.28656	-0.681719	-0.146531
0.849745	0.263686	9.295799	-38.377354	54.370118	46.31495	0.100498	-0.203201	-1.186013	-9.504819	-7.85843	32.569821	226.480939	-441.796419	-2.961523	-0.521238	0.121865	-0.493541	12.126118	0.341886	-1.207582	5.874592	-49.050026	19.356895	-0.299775	-0.615501	-0.181005
1.100898	-0.178842	13.333779	-34.761736	14.042772	2.352348	0.127611	-0.197235	-1.161975	-13.442961	-7.229982	34.129476	193.799118	-434.369257	-3.592395	-0.574028	0.118349	-0.449388	12.234273	4.11631	-1.249218	-16.574384	-30.700189	-30.006338	-0.286005	-0.632315	-0.16457
0.198748	0.317	8.203583	18.569768	10.965222	0.124756	0.140588	-0.173596	-1.15508	-15.748128	-21.931506	29.93526	239.531528	-450.734512	-96.470308	-0.58804	0.084417	-0.404056	16.323276	12.755241	-2.333487	-2.281545	-36.869873	-34.703557	-0.314238	-0.665109	-0.163036
1.893681	1.816998	10.061448	-14.631018	13.601634	8.819293	0.141345	-0.183839	-1.16574	-24.75446	-10.052746	2.638397	372.699098	-327.477885	-116.746438	-0.590401	0.075842	-0.289258	15.99166	7.822062	-1.762036	27.231933	-23.194542	19.339506	-0.286352	-0.665527	-0.147368
0.847352	0.49297	9.183058	-0.64658	7.310318	5.579469	0.155094	-0.187742	-1.152014	-24.388842	-19.258824	-24.197162	253.555483	-38.512149	-146.395562	-0.630516	0.01112	-0.241367	15.026935	5.450657	0.006327	24.329909	-8.848801	9.286332	-0.299913	-0.63252	-0.16464
0.907574	1.010626	9.356903	0.10293	2.130048	1.935722	0.15548	-0.201513	-1.148598	-16.657581	-7.763729	-3.303862	-26.169772	171.394713	-162.500471	-0.604789	-0.034692	-0.238908	15.034118	6.149547	0.488549	25.259151	-7.479763	-31.124159	-0.314585	-0.69832	-0.145834
1.311696	1.011059	9.535257	-10.600509	3.513707	5.638417	0.128354	-0.190179	-1.190127	-17.088576	-7.303933	6.198673	-34.185525	238.317704	-160.669769	-0.617325	-0.063264	-0.265324	13.869492	6.504412	1.366627	23.069518	-3.171533	-37.369907	-0.272723	-0.680689	-0.161989
1.217602	0.498511	10.554213	-10.260148	4.131995	5.463485	0.100498	-0.203201	-1.186013	-15.949019	-4.712785	8.602687	-78.859711	252.638791	-138.281074	-0.603765	-0.121255	-0.304635	12.02632	5.285293	0.428718	18.650118	-1.361071	-30.579431	-0.286281	-0.666353	-0.13184
0.985363	1.876791	10.441845	-6.808856	3.400739	3.601641	0.126082	-0.159451	-1.158147	-14.794014	-2.855749	8.968267	-69.698858	256.51385	-109.017319	-0.563951	-0.117814	-0.348511	10.855685	3.488873	0.69858	12.561726	0.571857	-30.291611	-0.314026	-0.667587	-0.116453
1.316398	0.667375	9.761221	-14.818603	6.214653	4.253103	0.126853	-0.186993	-1.151315	-13.833897	-0.773921	8.310898	-53.919806	264.179144	-70.677511	-0.563216	-0.145239	-0.389553	9.679879	2.969631	0.854066	11.305631	2.663175	-31.824805	-0.286072	-0.65016	-0.132678
2.012525	0.439042	10.228442	-11.944428	5.997899	2.861281	0.168443	-0.160574	-1.159194	-11.747364	-0.216263	6.373716	-35.176753	281.778312	-29.05834	-0.562035	-0.140952	-0.446952	7.959161	2.216086	0.219871	12.395271	5.162198	-33.521192	-0.328426	-0.680679	-0.177797
1.785651	0.554573	10.338177	-5.516053	7.272002	-1.153993	0.112333	-0.155548	-1.171874	-8.814723	-0.447224	6.265262	-22.981729	310.229298	-3.147808	-0.548318	-0.108092	-0.477935	7.646858	1.573722	-0.806768	9.871395	6.886581	-29.578666	-0.272582	-0.682341	-0.130933
2.711702	0.613523	10.867912	0.351268	11.924095	-5.143514	0.127225	-0.183464	-1.165391	-6.211114	-1.014905	6.885585	-22.550416	330.572881	8.245873	-0.546622	-0.116981	-0.563029	7.348746	1.457503	-0.992486	4.796162	6.692862	-21.461856	-0.286281	-0.666353	-0.13184
0.752637	0.842044	10.205635	11.260581	15.045347	-10.307307	0.084463	-0.15127	-1.185251	-2.747757	-1.528015	7.35417	-28.858661	341.811763	4.036794	-0.467591	-0.172453	-0.632418	6.410416	1.751527	-0.649415	-1.030592	7.04309	-21.839677	-0.314168	-0.665935	-0.147509
1.784496	0.611773	10.281566	8.569536	16.267863	-10.801077	0.139802	-0.128755	-1.179404	0.129628	-1.702443	7.357833	-40.928475	345.495814	-16.652425	-0.466185	-0.122204	-0.692828	4.93196	1.173154	-0.919026	-3.457813	8.632622	-22.571851	-0.286214	-0.648508	-0.163733
1.092207	0.151532	9.982008	10.435949	18.074345	-6.728708	0.08372	-0.158327	-1.157099	3.167729	-1.933999	6.79868	-58.317061	342.859982	-49.861498	-0.41273	-0.101224	-0.766683	4.165581	1.291308	-0.87293	-5.263785	7.328033	-18.311542	-0.259091	-0.714522	-0.129189
