1827_acc_x	1827_acc_y	1827_acc_z	1827_gyro_x	1827_gyro_y	1827_gyro_z	1827_mag_x	1827_mag_y	1827_mag_z	1828_acc_x	1828_acc_y	1828_acc_z	1828_gyro_x	1828_gyro_y	1828_gyro_z	1828_mag_x	1828_mag_y	1828_mag_z	1829_acc_x	1829_acc_y	1829_acc_z	1829_gyro_x	1829_gyro_y	1829_gyro_z	1829_mag_x	1829_mag_y	1829_mag_z
-0.1818	-0.4747	9.4993	-0.3445	0.0927	0.143	0.5428	-0.7422	-1.8988	4.2753	2.6116	8.0099	-0.1026	0.1431	-0.0465	-0.2642	-0.7827	-1.5411	10.0998	0.9008	-0.4082	-0.8998	0.5869	0.0149	-1.0077	-0.1881	-0.3618
0.0512	-0.1841	9.7901	-0.4701	0.0938	0.0853	0.0108	0.3893	-0.6997	4.2875	2.6136	8.6411	-0.1641	0.1735	-0.077	-0.3273	-0.8005	-1.5628	9.8755	1.306	-0.069	-0.9943	0.773	-0.1671	-1.044	-0.1689	-0.416
0.3412	-0.0095	10.0817	-0.4765	0.0648	-0.0982	-0.0855	0.4141	-0.7194	4.2286	2.6137	8.64	-0.285	0.2057	0.0165	-0.3092	-0.8213	-1.5747	9.8145	1.1901	-0.2983	-0.8453	0.6229	-0.3241	-0.9554	-0.1521	-0.3612
0.6259	-0.1258	10.0869	-0.7833	0.0963	-0.0282	-0.0294	0.4248	-0.6859	4.17	2.4385	8.6383	-0.0428	0.1726	-0.1399	-0.2781	-0.8241	-1.5267	9.6462	1.3644	-0.0729	-0.8631	0.7385	0.168	-0.9912	-0.1693	-0.397
-0.3517	-0.1844	9.5539	-0.533	0.0944	0.0565	-0.0647	0.3732	-0.6792	4.2837	2.8467	8.4697	-0.0696	0.1147	0.1388	-0.3034	-0.8019	-1.5452	9.5854	0.9029	-0.3607	-0.9589	0.5847	0.1391	-1.0076	-0.2242	-0.361
0.0523	-0.1839	9.8472	-0.5937	0.0631	0.119	-0.0282	0.4134	-0.7377	4.0377	2.9041	7.949	-0.2558	0.0502	-0.1061	-0.3237	-0.8011	-1.5476	9.9817	1.3037	-0.5226	-0.8679	0.5556	0.0756	-1.0072	-0.2065	-0.3438
0.1683	-0.1257	9.9638	-0.4696	0.1559	0.0554	-0.0293	0.427	-0.7039	4.1691	2.8475	8.6396	-0.2851	0.2672	0.0161	-0.3309	-0.7998	-1.578	9.8157	1.1328	-0.2416	-0.9936	0.5248	0.0168	-1.0077	-0.1881	-0.3618
0.0514	-0.4161	9.7894	-0.374	0.1546	0.1444	-0.0474	0.4101	-0.7016	4.4633	2.1454	8.5282	-0.0124	0.419	-0.1112	-0.2831	-0.8027	-1.5427	9.9861	1.2471	-0.295	-1.1512	0.5254	-0.1027	-1.0091	-0.1689	-0.4151
-0.2323	-0.1836	9.8416	-0.5274	0.2482	0.1191	-0.0466	0.3901	-0.6815	4.3469	2.4381	8.6417	-0.4374	0.1443	0.0184	-0.3223	-0.8219	-1.5468	9.7595	1.4214	-0.1275	-1.2695	0.8618	-0.069	-0.9902	-0.2062	-0.361
0.0459	-0.591	9.5034	-0.476	0.1269	-0.1281	-0.0666	0.4089	-0.6835	4.2867	2.4965	8.5834	0.0794	0.1109	-0.1406	-0.2803	-0.8443	-1.5411	9.7037	1.3067	-0.0721	-1.2373	0.7993	0.0224	-1.0256	-0.1877	-0.3799
0.2163	-0.1271	9.5081	-0.4428	-0.0607	0.0829	-0.0293	0.427	-0.7039	4.1639	2.6714	8.3522	-0.2252	0.0502	-0.1064	-0.3042	-0.8428	-1.5587	9.9819	1.5342	-0.4647	-1.2982	0.6743	0.1464	-0.9728	-0.2062	-0.3605
-0.0604	-0.1836	9.902	-0.3756	0.124	0.1136	-0.0277	0.3848	-0.6455	4.5162	2.8456	8.302	-0.4365	0.2686	0.1101	-0.3187	-0.8226	-1.5317	9.7022	1.1335	-0.1867	-0.9791	0.8876	0.4164	-1.0068	-0.1527	-0.3273
-0.0625	-0.358	9.7873	-0.5656	0.0639	0.0265	-0.0103	0.4239	-0.686	3.9849	2.613	8.2339	-0.3138	-0.07	0.1115	-0.2781	-0.8241	-1.5267	9.8659	1.3615	-0.5814	-1.0778	0.5807	0.3566	-1.0251	-0.17	-0.3626
0.1115	-0.2416	9.9623	-0.5627	0.1875	0.0278	-0.0467	0.3879	-0.6635	4.2806	2.2617	8.2384	-0.619	0.2077	0.1432	-0.2831	-0.8027	-1.5427	9.6999	1.7668	-0.1841	-1.0157	0.643	0.3247	-0.9742	-0.1871	-0.4138
0.0572	-0.6473	10.0742	-0.6605	0.0961	-0.0622	-0.0285	0.407	-0.6837	4.523	2.3207	8.5873	-0.2536	0.1756	0.0782	-0.3028	-0.8636	-1.5579	9.4725	1.307	-0.1902	-1.1701	0.6726	0.328	-0.9908	-0.1516	-0.3798
0.1036	-0.1848	9.5628	-0.5946	0.0634	0.0884	-0.0273	0.3934	-0.7175	4.3387	2.1446	8.1817	-0.2881	0.3874	-0.201	-0.3468	-0.7588	-1.5518	9.9894	1.4783	-0.0662	-1.1387	0.7035	0.3274	-1.0783	-0.1873	-0.3989
0.0545	-0.1836	9.9614	-0.4987	-0.1247	0.3282	-0.0474	0.4101	-0.7016	4.281	2.554	8.2966	-0.4977	0.176	0.0805	-0.3237	-0.8011	-1.5476	9.8157	1.4209	-0.1835	-1.0512	0.6766	0.1104	-0.9898	-0.1704	-0.3441
0.043	0.1628	9.3914	-0.5321	-0.0304	0.1774	-0.0282	0.4134	-0.7377	4.6892	2.6108	8.0751	-0.042	0.3583	-0.0487	-0.2781	-0.8241	-1.5267	9.6987	1.536	-0.299	-1.2712	0.646	-0.0078	-0.955	-0.1344	-0.3439
0.1058	-0.1845	9.677	-0.6251	0.1256	0.0594	-0.0102	0.426	-0.704	4.5181	2.0277	8.2995	-0.2871	0.0802	-0.1678	-0.3658	-0.8813	-1.5796	9.4201	1.1355	0.0359	-1.178	0.7704	-0.0711	-0.9733	-0.1697	-0.3789
0.0556	-0.1834	10.0185	-0.4686	-0.0001	0.2065	-0.0293	0.427	-0.7039	4.5771	2.4951	8.3594	-0.1341	0.2346	-0.1086	-0.2809	-0.7826	-1.5284	9.7557	1.0172	-0.414	-1.179	0.8019	-0.1324	-1.0256	-0.1877	-0.3799
0.1684	-0.1837	9.9636	-0.5346	0.0638	0.0257	-0.0103	0.4239	-0.686	4.3976	2.6705	8.2418	-0.1933	0.144	0.0161	-0.3151	-0.8233	-1.5165	9.4671	1.3634	-0.4748	-1.0233	0.7097	-0.0437	-1.0073	-0.1343	-0.3453
0.216	0.163	9.509	-0.4703	0.125	0.0551	-0.0464	0.3943	-0.7175	4.0515	2.6725	8.6368	-0.4366	0.3301	0.1097	-0.2773	-0.7833	-1.5132	9.7637	1.4223	0.1003	-1.1872	0.776	-0.4702	-1.0082	-0.1336	-0.3806
-0.1196	-0.1839	9.7867	-0.5395	-0.1836	0.0537	-0.0303	0.4448	-0.706	4.3458	2.438	8.5843	-0.2548	0.1744	-0.0144	-0.305	-0.8837	-1.5722	9.9307	1.3053	-0.1818	-1.1418	0.7364	0.1739	-0.9733	-0.1517	-0.3793
0.3382	-0.416	9.9092	-0.171	-0.1842	-0.0482	-0.1039	0.3908	-0.6632	4.3464	2.6718	8.6424	-0.3171	0.2349	-0.1069	-0.3476	-0.7997	-1.5653	9.9902	1.248	-0.0671	-1.0874	0.5557	-0.0426	-0.9558	-0.1698	-0.3785
0.5072	0.2797	9.8575	-0.5644	0.0324	0.0873	-0.0646	0.3774	-0.7152	4.3517	2.2636	8.8707	-0.2233	0.0829	0.0478	-0.3179	-0.7817	-1.5181	9.8143	1.2477	-0.2981	-0.8633	0.6766	0.1986	-0.9901	-0.2423	-0.3602
-0.0685	0.0472	9.503	-0.5275	0.1237	0.2095	-0.1037	0.3972	-0.7172	4.0526	2.6727	8.6942	-0.5863	0.2716	0.3277	-0.3056	-0.822	-1.5595	9.6987	0.9598	-0.4153	-0.8557	0.8578	0.4137	-0.9724	-0.1705	-0.3436
0.2152	-0.1852	9.4509	-0.5667	0.0954	-0.0342	-0.0273	0.3934	-0.7175	4.5182	1.9692	8.2993	-0.3448	0.1762	0.11	-0.2737	-0.7839	-1.498	9.9286	1.3049	-0.2958	-0.8924	0.861	0.1688	-1.0261	-0.1512	-0.3983
0.2267	-0.5316	10.0208	-0.6519	0.2178	0.1223	-0.0666	0.4089	-0.6835	4.1596	2.6122	8.1224	-0.497	0.2075	0.142	-0.2831	-0.8027	-1.5427	9.5898	1.7106	0.0414	-0.8328	0.6461	0.1979	-1.0085	-0.2235	-0.3963
0.1776	-0.4724	10.4195	-0.4077	0.1557	0.0537	-0.0485	0.4258	-0.6858	3.9265	2.3794	8.2321	-0.407	0.1751	0.0179	-0.3106	-0.8006	-1.5755	9.5889	1.3647	-0.0739	-0.8328	0.8939	0.0447	-0.9737	-0.2236	-0.3954
0.2174	-0.1269	9.5652	-0.4751	0.0021	-0.0072	-0.0867	0.4277	-0.6856	4.345	2.3209	8.5265	-0.4078	0.1743	-0.0439	-0.2628	-0.8035	-1.5403	9.4729	1.1919	-0.1907	-0.6813	0.6183	0.0717	-0.9898	-0.1704	-0.3441
-0.066	-0.1845	9.6166	-0.7205	0.0957	0.0006	-0.0286	0.4027	-0.6477	4.224	2.6714	8.4106	-0.5001	0.1736	-0.1048	-0.297	-0.8441	-1.5284	9.7049	0.9612	-0.0735	-0.9862	0.8919	0.1094	-0.9912	-0.1874	-0.3966
-0.0025	-0.1255	9.9604	-0.7493	-0.0916	0.2133	0.0086	0.4186	-0.6501	4.5192	2.4954	8.4157	-0.3758	0.0216	0.0497	-0.2781	-0.8241	-1.5267	9.5829	1.3057	-0.416	-1.1145	0.8318	-0.0416	-0.9907	-0.1878	-0.379
-0.1798	-0.3004	9.614	-0.7801	0.033	0.1238	-0.0477	0.4037	-0.6476	4.4559	2.4364	8.1848	-0.3155	0.0207	-0.0127	-0.2795	-0.8034	-1.5275	9.7001	1.133	-0.3007	-1.0292	0.4965	-0.1668	-1.026	-0.2235	-0.3968
-0.008	-0.1843	9.6748	-0.5621	-0.0306	0.2088	-0.0295	0.4227	-0.6679	4.113	2.0883	8.6935	-0.1638	0.0505	-0.0761	-0.3259	-0.8212	-1.562	9.6949	1.1318	-0.5855	-0.9315	0.5871	-0.0151	-0.9713	-0.2254	-0.3072
-0.0082	0.0477	9.6754	-0.3775	0.1247	0.0525	-0.0295	0.4227	-0.6679	4.2845	2.9638	8.5274	-0.4065	0.1139	0.0492	-0.3287	-0.7797	-1.5636	9.4744	0.7889	-0.1923	-0.7844	0.7479	-0.4481	-0.9727	-0.2243	-0.3601
0.2193	0.1635	9.6803	-0.4082	0.0936	0.0836	-0.0847	0.3941	-0.6993	4.5743	2.2609	8.1865	-0.4995	0.2974	-0.0439	-0.2881	-0.7812	-1.5587	9.3599	1.3655	-0.0781	-0.6029	0.7518	-0.6363	-1.0077	-0.17	-0.3622
0.1683	-0.1257	9.9638	-0.4091	0.2184	-0.0372	-0.0464	0.3943	-0.7175	4.1638	2.7298	8.3523	-0.0408	0.1746	0.0145	-0.3273	-0.8005	-1.5628	10.1075	1.3635	0.1064	-0.5373	0.6572	-0.4228	-0.9733	-0.1697	-0.3789
0.3305	-0.5912	9.509	-0.3481	0.2184	-0.0695	-0.0485	0.4258	-0.6858	4.0371	2.6702	7.8909	-0.4043	0.0544	0.2041	-0.2678	-0.782	-1.5562	9.9399	1.365	0.3311	-0.2541	0.7803	-0.3058	-1.0255	-0.2058	-0.3795
0.0465	-0.0107	9.5622	-0.3177	0.1562	-0.0404	-0.0447	0.3543	-0.6771	4.5233	2.6714	8.6457	-0.2543	0.1133	0.0169	-0.3034	-0.8019	-1.5452	9.3638	1.1359	0.0918	0.0842	0.7223	-0.3745	-1.0086	-0.1693	-0.3975
0.5057	-0.5327	9.7409	-0.4008	0.2468	0.2073	-0.0656	0.3932	-0.6994	4.1589	2.9044	8.1233	-0.2858	0.2356	-0.0455	-0.3034	-0.8019	-1.5452	9.929	1.1897	-0.2963	0.2398	0.7848	-0.3778	-0.9733	-0.1336	-0.3797
0.161	-0.6489	9.5626	-0.531	0.2182	0.0272	-0.0678	0.4225	-0.6497	4.2785	2.6705	8.1822	-0.1919	0.2071	0.1392	-0.2475	-0.7828	-1.5538	9.9273	1.6503	-0.2944	0.3055	0.9997	-0.3481	-1.0067	-0.2069	-0.3261
0.1148	-0.2411	10.1336	-0.4301	0.2775	0.239	-0.0102	0.426	-0.704	3.9885	2.4967	8.4057	-0.2226	0.1145	0.1093	-0.297	-0.8441	-1.5284	9.4692	1.3639	-0.3609	0.2709	0.6921	-0.3171	-1.0416	-0.1707	-0.3278
0.337	-0.3582	9.8523	-0.4961	0.1857	0.1787	-0.0291	0.4312	-0.7399	4.6388	2.2616	8.4745	-0.3125	0.1162	0.2337	-0.344	-0.8003	-1.5501	9.6435	1.2486	-0.2443	0.3764	0.7779	0.1723	-0.9903	-0.1701	-0.3617
0.2732	-0.1851	9.5091	-0.3448	0.2796	-0.0078	-0.0675	0.4289	-0.7037	4.458	2.4952	8.2998	-0.0708	0.1135	0.0461	-0.3454	-0.7796	-1.5509	9.7016	0.73	-0.3023	0.2512	0.9326	0.0216	-1.025	-0.2242	-0.3615
0.276	-0.7069	9.6218	-0.4107	0.1878	-0.0681	-0.0485	0.4258	-0.6858	4.2854	2.0872	8.4673	-0.1652	-0.0434	-0.1989	-0.299	-0.7617	-1.5165	9.9409	1.0772	0.3299	0.1238	0.9339	-0.1293	-0.9894	-0.1527	-0.3268
0.3371	-0.4162	9.8521	-0.3178	0.0317	0.0499	-0.0857	0.4098	-0.6834	4.4038	2.3792	8.5278	-0.1921	0.1144	0.109	-0.2867	-0.802	-1.5579	9.1816	1.1342	-0.481	-0.2504	0.9947	-0.2748	-0.9723	-0.1885	-0.3433
0.225	0.0483	9.9654	-0.3416	0.2163	0.1442	-0.0658	0.3889	-0.6634	4.58	2.6709	8.5321	-0.3133	0.0846	0.1721	-0.2845	-0.7819	-1.5435	9.5281	1.1912	-0.3036	-0.0628	0.8711	-0.1254	-0.9916	-0.187	-0.4143
-0.1775	-0.3	9.7282	-0.5034	0.157	-0.0353	-0.0675	0.4289	-0.7037	4.2777	2.5535	8.1245	-0.0414	0.2357	-0.0168	-0.2606	-0.7834	-1.5259	9.928	1.1895	-0.3532	-0.2789	0.7143	0.0019	-1.0246	-0.1884	-0.3446
0.339	-0.0678	9.9673	-0.5289	0.1864	0.1185	-0.0264	0.3755	-0.7154	4.3463	2.2042	8.5836	-0.1907	0.2391	0.2316	-0.3201	-0.8018	-1.5325	9.3599	1.3655	-0.0781	-0.4323	0.7123	0.0666	-0.9911	-0.2055	-0.3963
0.3325	-0.3589	9.6239	-0.0662	0.1228	0.105	-0.0473	0.4143	-0.7376	4.3383	2.7874	8.2411	-0.4388	0.2354	-0.0749	-0.2817	-0.8235	-1.5419	10.0427	1.4196	-0.2932	-0.4332	0.7438	0.0052	-1.0246	-0.2246	-0.3439
-0.2892	-0.1836	9.8405	-0.1615	0.2174	-0.0441	-0.0694	0.4646	-0.708	4.4047	1.9702	8.5266	-0.5592	0.2064	0.05	-0.2773	-0.7833	-1.5132	9.7541	1.4777	-0.4121	-0.2096	0.927	0.185	-1.0076	-0.2242	-0.361
-0.4053	-0.1838	9.724	-0.3496	0.1566	-0.0701	0.0078	0.4408	-0.6882	4.3455	2.5548	8.5846	-0.4381	0.082	-0.0429	-0.312	-0.7798	-1.5763	9.9261	1.1314	-0.4674	-0.4053	0.684	-0.0877	-0.9893	-0.2069	-0.3257
0.2775	-0.0104	9.738	-0.5378	0.1271	-0.1263	-0.0132	0.4753	-0.6744	4.6394	2.4955	8.5326	-0.3461	0.0515	-0.0126	-0.2861	-0.8637	-1.5706	9.5877	1.422	-0.1307	-0.3121	0.8083	-0.1509	-0.9912	-0.1874	-0.3966
0.2757	-0.4168	9.6226	-0.4146	0.0645	-0.0999	-0.0475	0.4079	-0.6836	3.925	2.5545	8.1752	-0.4065	0.1139	0.0492	-0.3078	-0.8421	-1.5739	9.5789	1.5352	-0.5859	-0.4666	0.7761	-0.1169	-0.9917	-0.169	-0.4147
0.1162	-0.531	10.1899	-0.2204	0.1855	0.0794	-0.0492	0.4479	-0.7239	3.9272	2.5549	8.29	-0.4961	0.1776	0.204	-0.3042	-0.8428	-1.5587	9.6418	1.4211	-0.3005	-0.4953	0.8364	-0.0548	-1.0426	-0.17	-0.3631
0.567	-0.4161	9.9708	-0.4054	0.0927	0.1752	-0.0664	0.4153	-0.7375	4.6871	2.552	7.9601	-0.2841	0.3607	0.108	-0.3353	-0.8225	-1.5189	9.8209	1.134	0.0432	-0.4367	0.653	-0.087	-0.9205	-0.1883	-0.3595
-0.1207	-0.1841	9.7296	-0.4446	0.0644	-0.0685	-0.0664	0.4131	-0.7195	4.4005	2.8463	8.4145	-0.3442	0.3	0.1708	-0.2831	-0.8027	-1.5427	9.8134	0.9018	-0.4135	-0.5368	0.5949	-0.3615	-1.043	-0.2057	-0.38
-0.0682	-0.3008	9.502	-0.563	0.0942	0.0879	-0.0504	0.4615	-0.6901	4.8157	2.7288	8.5367	-0.4047	0.239	0.2027	-0.3476	-0.7997	-1.5653	9.934	1.2485	-0.0112	-0.3846	0.5666	-0.4569	-1.0082	-0.1697	-0.3798
0.0459	-0.533	9.5036	-0.5309	0.0626	0.1478	-0.0285	0.4048	-0.6657	4.5213	3.0218	8.5894	-0.2835	0.2688	0.1396	-0.2984	-0.8234	-1.5292	9.9298	0.9594	-0.2972	-0.3481	0.7493	-0.3346	-0.9903	-0.1339	-0.3625
-0.1185	-0.1257	9.844	-0.7227	0.0031	-0.0003	-0.0284	0.4091	-0.7017	4.464	2.7884	8.645	-0.319	0.3563	-0.2314	-0.3012	-0.7818	-1.5308	9.9305	1.3629	-0.1816	-0.1916	0.6255	-0.1845	-0.9907	-0.2058	-0.3786
-0.4062	-0.358	9.6664	-0.7154	0.0318	0.2137	-0.0493	0.4458	-0.7059	4.1706	2.6724	8.6964	-0.5609	0.4821	-0.0448	-0.3201	-0.8018	-1.5325	9.7553	1.1323	-0.4136	-0.1295	0.533	-0.1245	-1.0246	-0.2246	-0.3439
-0.0094	0.1635	9.6187	-0.6857	-0.0613	0.2424	-0.0483	0.43	-0.7218	4.3982	2.3783	8.2409	-0.3153	0.3291	0.0468	-0.2984	-0.8234	-1.5292	9.4182	1.0774	-0.0783	-0.2199	0.8095	-0.1836	-0.9715	-0.1351	-0.3091
-0.1761	-0.5899	9.7844	-0.4991	0.2178	0.0569	0.0106	0.385	-0.6637	4.3973	2.7873	8.2422	-0.5262	0.363	0.2647	-0.3223	-0.8219	-1.5468	9.3584	1.1923	-0.1928	0.0317	0.685	0.0566	-0.9907	-0.1697	-0.3794
-0.1724	0.2229	10.0152	-0.0703	0.1864	-0.0775	-0.0503	0.4636	-0.7081	4.3404	2.3786	8.2972	-0.3745	0.177	0.172	-0.3006	-0.8435	-1.5435	10.2659	1.3022	-0.6313	-0.0241	0.7118	0.3036	-1.0246	-0.2246	-0.3439
0.161	-0.7069	9.5624	-0.0738	0.0008	-0.0489	-0.0847	0.3941	-0.6993	4.5821	2.7297	8.647	-0.3449	0.0527	0.08	-0.2984	-0.8234	-1.5292	9.5814	1.1325	-0.5306	-0.3635	0.8943	0.2497	-1.0256	-0.1696	-0.3803
0.2197	-0.1846	9.6793	-0.2835	0.0928	0.1107	-0.0857	0.4098	-0.6834	4.4569	2.495	8.2424	-0.2529	0.238	0.1395	-0.3498	-0.8198	-1.5796	9.9275	1.0165	-0.4109	-0.2091	0.617	0.3996	-1.0077	-0.17	-0.3622
-0.2334	-0.2418	9.7843	-0.1975	0.0013	-0.0454	-0.0837	0.3762	-0.6971	4.1076	2.4966	8.4653	-0.1912	0.0537	0.1712	-0.3209	-0.8427	-1.546	9.9886	1.1324	-0.1815	-0.2132	0.7744	0.1234	-1.0604	-0.2238	-0.3801
0.2264	-0.2416	10.0217	-0.3745	0.0925	0.1743	-0.0465	0.3922	-0.6995	3.9268	2.2625	8.2317	-0.4047	0.054	0.1732	-0.3151	-0.8233	-1.5165	9.9346	1.3639	0.0463	0.1295	0.6826	0.2696	-0.9902	-0.1881	-0.3614
0.1718	-0.2992	10.1346	-0.2806	0.2163	0.112	-0.0093	0.4081	-0.7018	3.9827	2.6126	8.1191	-0.0397	0.3915	0.1364	-0.2903	-0.8013	-1.5731	9.9269	1.4774	-0.352	0.1318	0.7432	0.3311	-0.9902	-0.2062	-0.361
-0.1796	-0.4164	9.6137	-0.5325	0.032	0.1169	-0.0482	0.4322	-0.7398	4.407	2.4382	8.7002	-0.3762	0.4219	0.0775	-0.2904	-0.7838	-1.4853	9.8134	0.9018	-0.4135	0.2521	0.5914	0.2669	-1.0256	-0.1516	-0.3807
-0.2348	0.1061	9.7282	-0.409	0.0627	0.0833	-0.0293	0.427	-0.7039	4.348	1.9707	8.6402	-0.5579	0.3311	0.1725	-0.3187	-0.8226	-1.5317	9.8226	1.2496	0.1576	-0.0867	0.8665	0.1823	-0.9908	-0.1516	-0.3798
-0.0751	-0.0698	9.1601	-0.3747	0.1237	0.1441	-0.0292	0.4291	-0.7219	4.215	3.196	8.0106	-0.5289	0.2987	0.049	-0.2889	-0.8221	-1.5722	9.8094	1.7076	-0.4671	0.0264	0.8122	-0.2503	-0.9738	-0.1513	-0.3969
0.1094	-0.358	9.8478	-0.5372	0.0335	-0.0357	-0.0285	0.407	-0.6837	4.4526	2.4359	8.0127	-0.5579	0.3311	0.1725	-0.2984	-0.8234	-1.5292	9.9302	1.4205	-0.1814	-0.2243	0.7502	-0.3372	-0.9738	-0.1332	-0.3973
0.2732	-0.1851	9.5091	-0.5074	0.0649	-0.0973	-0.0656	0.3932	-0.6994	4.8728	3.0791	8.4815	-0.2527	0.2999	0.1699	-0.3433	-0.862	-1.5628	9.8149	1.075	-0.2988	-0.381	0.7193	-0.3953	-1.0421	-0.1704	-0.3455
0.2197	-0.1846	9.6793	-0.4961	0.1857	0.1787	0.0097	0.405	-0.6839	4.2783	2.2614	8.1236	-0.4046	0.2082	0.2029	-0.3504	-0.7581	-1.5669	9.6424	1.5365	-0.2431	-0.5396	0.7514	-0.5762	-0.9563	-0.1513	-0.3965
0.3282	-0.5336	9.395	-0.3779	0.187	-0.0079	-0.0271	0.3998	-0.7715	4.0512	2.3218	8.5784	-0.5913	0.3898	-0.0438	-0.3012	-0.7818	-1.5308	9.762	1.3067	-0.0141	-0.6983	0.474	-0.5733	-1.0082	-0.1697	-0.3798
0.5587	0.1048	9.5726	-0.2556	0.1248	-0.0119	-0.0474	0.4101	-0.7016	4.2857	2.4379	8.5258	-0.4068	0.1135	0.0184	-0.344	-0.8003	-1.5501	9.8757	1.2485	-0.0692	-0.539	0.6892	-0.5149	-0.9903	-0.1701	-0.3617
0.2197	-0.1846	9.6793	-0.5958	0.0949	0.0277	-0.0866	0.4298	-0.7036	4.1631	2.5543	8.2944	-0.1619	0.0832	0.0781	-0.26	-0.845	-1.5386	9.5875	0.9034	-0.2467	-0.6621	0.5948	-0.4203	-1.0255	-0.2058	-0.3795
0.2142	-0.3014	9.3934	-0.5084	0.0652	-0.1278	-0.0265	0.3734	-0.6974	4.6374	2.8459	8.4763	-0.6482	0.1167	0.2368	-0.3404	-0.801	-1.5349	9.8203	1.0186	-0.0142	-0.4078	0.6546	-0.1798	-0.9907	-0.2058	-0.3786
0.3257	-0.2439	9.2817	-0.6556	0.0634	0.1207	-0.0477	0.4037	-0.6476	4.0493	2.2046	8.4633	-0.3159	0.3903	0.0154	-0.3845	-0.7988	-1.555	9.6485	1.0192	-0.0173	-0.3488	0.6568	-0.304	-0.9737	-0.1874	-0.3962
-0.0715	-0.3013	9.3307	-0.5394	-0.0591	-0.0366	-0.0294	0.4248	-0.6859	3.991	2.3802	8.5201	-0.2548	0.3902	0.0149	-0.2889	-0.8221	-1.5722	9.3594	1.1925	-0.1358	-0.3493	0.4713	-0.212	-1.0256	-0.1516	-0.3807
0.0424	-0.4174	9.3326	-0.5076	0.0961	-0.1275	-0.0474	0.4101	-0.7016	4.1113	2.3218	8.6369	-0.4678	0.2986	0.0484	-0.2759	-0.804	-1.5124	9.4134	1.2492	-0.3054	-0.5095	0.5355	-0.485	-0.9558	-0.2059	-0.3777
0.1717	-0.1832	10.1349	-0.6217	0.1868	0.1211	-0.0294	0.4248	-0.6859	4.1614	2.7879	8.2377	-0.651	0.3603	0.0496	-0.2911	-0.8422	-1.5866	9.6506	0.7316	0.0384	-0.6606	0.594	-0.3588	-1.0076	-0.2062	-0.3614
-0.0058	-0.126	9.7891	-0.441	0.2188	-0.0669	-0.0455	0.3765	-0.7153	4.579	2.6123	8.4745	-0.6189	0.3311	0.1731	-0.297	-0.8441	-1.5284	9.7072	0.9041	0.0402	-0.878	0.4998	-0.3236	-1.0091	-0.187	-0.4147
-0.116	-0.4154	9.9573	-0.3132	0.1859	0.082	-0.0859	0.4056	-0.6474	4.2852	2.6716	8.5265	-0.6794	0.3009	0.2048	-0.3098	-0.7597	-1.562	9.6466	1.2493	-0.0734	-0.9329	0.7428	-0.1685	-0.9728	-0.152	-0.3617
-0.0129	0.221	9.4476	-0.1944	0.0936	-0.014	-0.0835	0.3805	-0.7331	4.2217	2.2034	8.2371	-0.4981	0.1756	0.0496	-0.3006	-0.8435	-1.5435	9.7112	1.2507	0.3264	-0.595	0.6541	-0.2373	-0.9723	-0.1885	-0.3433
0.049	-0.3004	9.6756	-0.2268	0.032	-0.0137	-0.0303	0.4427	-0.688	4.045	2.613	8.2924	-0.4683	0.1132	-0.0119	-0.2984	-0.8234	-1.5292	9.2491	1.1939	0.09	-0.714	0.9909	-0.2342	-0.9544	-0.1709	-0.3255
-0.4577	-0.2411	9.9511	-0.2561	0.0627	0.018	-0.0856	0.412	-0.7014	4.8153	2.9041	8.5372	-0.6781	0.2405	0.2979	-0.3259	-0.8212	-1.562	9.8746	1.5363	-0.068	-0.5324	0.6541	-0.2079	-0.9554	-0.1701	-0.3608
-0.1216	-0.4743	9.6717	-0.1274	0.0295	0.1974	-0.0485	0.4258	-0.6858	4.2846	2.4377	8.4684	-0.0731	0.0496	-0.1387	-0.3642	-0.7996	-1.5526	10.0991	1.0735	-0.4075	-0.4403	0.903	-0.3938	-1.0076	-0.2062	-0.3614
0.3369	-0.2422	9.8526	-0.1559	0.2155	0.1391	-0.0103	0.4239	-0.686	4.4057	2.4964	8.643	-0.6487	-0.0072	0.176	-0.2939	-0.8007	-1.5882	9.3592	0.962	-0.1937	-0.657	0.7466	-0.2973	-1.0251	-0.1881	-0.3623
0.105	-0.4747	9.6191	-0.346	0.1866	0.0218	-0.0654	0.3974	-0.7354	4.0487	2.4383	8.464	-0.4679	0.3293	0.0482	-0.3209	-0.8427	-1.546	9.646	0.8458	-0.189	-0.7157	0.7751	-0.1731	-0.9898	-0.1704	-0.3441
-0.0659	-0.3005	9.6162	-0.5062	0.1579	-0.1269	-0.0485	0.4258	-0.6858	4.4639	2.8469	8.6451	-0.4974	0.2379	0.1109	-0.2911	-0.8422	-1.5866	9.9313	1.1326	-0.1826	-0.595	0.8089	-0.3292	-0.9902	-0.1881	-0.3614
0.2811	-0.242	9.9086	-0.5653	0.1572	-0.0336	-0.1037	0.3972	-0.7172	4.2873	2.7304	8.6415	-0.5586	0.3303	0.1108	-0.3056	-0.822	-1.5595	10.16	0.9588	-0.2361	-0.5689	0.5644	-0.3916	-1.0247	-0.1523	-0.3454
0.3379	-0.126	9.91	-0.4717	0.1877	-0.0358	-0.1058	0.4265	-0.6675	3.6882	2.4964	8.1132	-0.589	0.2688	0.1115	-0.3187	-0.8226	-1.5317	9.6443	1.3064	-0.1871	-0.4489	0.5986	-0.5784	-0.9724	-0.1705	-0.3436
-0.1242	-0.0686	9.5587	-0.6529	0.2181	0.0917	-0.0848	0.392	-0.6813	3.9347	2.673	8.692	-0.772	0.3925	0.1432	-0.3187	-0.8226	-1.5317	9.3574	0.904	-0.3079	-0.4475	0.4429	-0.425	-0.9893	-0.1708	-0.3264
0.1094	-0.358	9.8478	-0.715	0.2495	0.0632	-0.0475	0.4079	-0.6836	4.5211	2.1451	8.472	-0.6796	0.3931	0.2041	-0.3012	-0.7818	-1.5308	9.3597	1.4231	-0.0779	-0.5154	0.3223	-0.6081	-1.0256	-0.1696	-0.3803
-0.0105	0.0474	9.5613	-0.4051	0.1859	0.1151	-0.0483	0.43	-0.7218	4.5829	2.3792	8.6459	-0.2549	0.236	-0.0149	-0.3006	-0.8435	-1.5435	9.6422	1.8821	-0.1847	-0.2336	0.4463	-0.5525	-1.0076	-0.2062	-0.3614
0.3937	-0.1262	9.8541	-0.1632	0.1868	-0.0749	-0.0476	0.4058	-0.6656	3.8137	2.5558	8.5173	-0.2835	0.053	0.1103	-0.2534	-0.7847	-1.4956	9.6458	1.4796	-0.0724	-0.5688	0.7192	-0.4835	-0.9907	-0.1697	-0.3794
0.338	-0.184	9.9099	-0.1597	0.0923	0.1073	-0.0855	0.4141	-0.7194	3.9341	2.4391	8.6339	-0.1026	0.1431	-0.0465	-0.3215	-0.781	-1.5333	9.5841	1.2483	-0.3592	-0.6285	0.6245	-0.3288	-1.025	-0.2242	-0.3615
-0.1226	-0.5325	9.6144	-0.0933	0.2462	0.1377	-0.0475	0.4079	-0.6836	4.2283	2.7305	8.6403	-0.0106	0.1126	-0.0162	-0.2917	-0.7806	-1.5739	9.4136	1.1916	-0.3056	-0.7834	0.8711	-0.4787	-1.0087	-0.1513	-0.3979
0.3347	-0.2425	9.7384	-0.1666	0.0012	-0.0463	-0.0667	0.4068	-0.6655	3.8085	2.9057	8.2888	-0.2515	0.3011	0.2626	-0.2311	-0.8679	-1.505	9.7681	1.0776	0.2698	-0.3452	0.6546	-0.1504	-1.077	-0.1703	-0.3464
-0.1252	-0.1267	9.5014	-0.2874	-0.0305	0.0789	-0.0864	0.4341	-0.7396	4.2817	2.7295	8.3546	-0.2266	0.1412	-0.1997	-0.3223	-0.8219	-1.5468	9.8203	1.0186	-0.0142	-0.3796	0.8114	-0.3952	-0.9912	-0.1874	-0.3966
-0.2949	-0.1264	9.5552	-0.35	-0.0611	0.0803	-0.0675	0.4289	-0.7037	4.3966	2.6118	8.1843	-0.588	0.3315	0.2037	-0.3062	-0.7604	-1.5468	9.8847	1.0776	0.3858	-0.2286	0.598	-0.4295	-1.0421	-0.1704	-0.3455
-0.0616	-0.1838	9.8449	-0.4364	0.0928	0.1761	-0.0677	0.4246	-0.6677	4.334	2.7283	8.0114	-0.5253	0.1173	0.2974	-0.3056	-0.822	-1.5595	9.4153	1.0191	-0.2494	-0.1639	0.8445	-0.4612	-0.9906	-0.2239	-0.3782
-0.2868	-0.3573	9.9542	-0.7529	0.0341	0.0008	-0.0084	0.3881	-0.6816	3.9905	2.6139	8.5208	-0.9231	0.3016	0.2379	-0.357	-0.8009	-1.5222	9.9284	1.3624	-0.2955	0.0904	0.8113	-0.1595	-0.9719	-0.1889	-0.3256
0.2746	-0.417	9.5655	-0.4959	0.1545	0.2089	-0.0483	0.43	-0.7218	4.4039	2.3208	8.5277	-0.5889	0.423	0.1413	-0.2439	-0.7835	-1.5386	9.9848	1.0163	-0.4098	-0.131	0.7816	-0.3391	-0.9912	-0.1874	-0.3966
-0.1241	-0.1266	9.5585	-0.3138	0.2795	-0.0087	-0.0867	0.4277	-0.6856	3.8148	2.556	8.5747	-0.4366	0.3301	0.1097	-0.2948	-0.824	-1.514	9.8734	0.7294	-0.2992	-0.07	0.8137	-0.4018	-0.9728	-0.1882	-0.3609
0.2731	-0.0691	9.5094	-0.3789	0.1874	-0.0384	-0.012	0.4639	-0.7263	4.2197	3.0799	8.2398	-0.5588	0.0218	0.0514	-0.318	-0.8842	-1.5443	9.8193	1.5946	0.0451	-0.3499	0.6265	-0.3347	-1.0081	-0.2239	-0.3787
0.2825	-0.4738	9.965	-0.223	0.1552	0.018	-0.01	0.4303	-0.74	4.0496	2.5553	8.5217	-0.6184	0.1158	0.1747	-0.3411	-0.8419	-1.5485	9.7564	1.1325	-0.3566	-0.227	0.659	-0.3987	-1.0072	-0.2065	-0.3438
0.1057	-0.0684	9.6774	-0.0666	0.1852	0.0446	-0.0476	0.4058	-0.6656	4.1667	2.9056	8.525	-0.1927	-0.1636	0.0185	-0.3048	-0.7811	-1.546	9.5892	1.019	-0.1323	-0.5681	0.8736	-0.5447	-1.0425	-0.2061	-0.3623
0.3324	-0.2429	9.6242	-0.0064	0.1544	0.012	-0.0657	0.391	-0.6814	4.5133	2.6698	8.1293	-0.4969	-0.0082	0.1128	-0.3048	-0.7811	-1.546	10.2095	1.0721	-0.6333	-0.6652	0.6277	-0.5737	-0.9893	-0.2069	-0.3257
0.4364	-0.4185	9.1121	-0.2804	0.1851	0.1422	-0.0655	0.3953	-0.7174	4.405	2.321	8.585	-0.3178	-0.0432	-0.1975	-0.2556	-0.8048	-1.5099	9.7522	0.8435	-0.6426	-0.7312	0.5369	-0.6954	-0.9902	-0.1881	-0.3614
-0.0036	-0.1257	9.9033	-0.6224	0.2804	0.0304	-0.0849	0.3898	-0.6633	4.3985	1.7939	8.1818	-0.3136	0.0535	0.1415	-0.3034	-0.8019	-1.5452	9.1826	1.1344	-0.424	-0.8602	0.4772	-0.877	-0.9902	-0.2062	-0.361
-0.1776	-0.242	9.7283	-0.5311	0.0938	0.1176	-0.0647	0.3732	-0.6792	4.5158	2.5533	8.2437	-0.3456	-0.0096	0.0187	-0.3295	-0.8206	-1.5772	10.0417	1.4194	-0.3502	-0.6687	0.6299	-0.7273	-0.9897	-0.2066	-0.3433
0.3355	0.0477	9.7964	-0.4983	0.093	0.1778	-0.0484	0.4279	-0.7038	4.8095	2.5525	8.1919	-0.3779	0.2969	-0.076	-0.2383	-0.8666	-1.5353	10.0506	1.8247	0.2211	-0.5108	0.8459	-0.7303	-0.9714	-0.1893	-0.308
0.0469	-0.4168	9.561	-0.4444	0.0332	-0.0383	-0.0295	0.4227	-0.6679	4.5158	2.5533	8.2437	-0.7404	0.4551	0.2351	-0.3056	-0.822	-1.5595	9.7005	1.306	-0.243	-0.3002	0.8203	-0.9806	-0.9714	-0.1893	-0.308
0.2189	-0.5328	9.6212	-0.5382	0.0338	-0.0662	-0.0285	0.407	-0.6837	4.3441	2.6715	8.5276	-0.7094	0.2398	0.2364	-0.2853	-0.8228	-1.5571	9.7568	1.0174	-0.3571	-0.3285	0.7565	-0.8265	-1.0077	-0.1881	-0.3618
0.1672	-0.1838	9.9065	-0.3147	0.1241	0.0814	-0.0666	0.4089	-0.6835	4.4654	2.6718	8.702	-0.4689	0.2359	-0.0438	-0.2898	-0.8455	-1.498	9.7033	1.1337	-0.1298	-0.2057	0.789	-0.8905	-0.9728	-0.2062	-0.3605
0.1094	-0.358	9.8478	-0.1283	0.1542	0.0765	-0.0663	0.4174	-0.7555	4.6254	2.7855	7.845	-0.4984	0.2986	0.0487	-0.3309	-0.7998	-1.578	9.817	1.0755	-0.1849	0.04	0.6992	-0.9266	-1.043	-0.2057	-0.38
0.1637	0.0477	9.7359	-0.2854	0.0934	0.0497	-0.0113	0.4417	-0.6881	4.1009	2.4955	8.121	-0.4064	0.2681	0.079	-0.3056	-0.822	-1.5595	9.8103	1.4773	-0.4681	-0.0816	0.8518	-0.9238	-0.9728	-0.1701	-0.3613
0.276	-0.7649	9.6216	-0.3436	0.2481	0.0529	0.0289	0.4062	-0.702	4.1659	2.7886	8.4673	-0.3745	0.2078	0.1718	-0.3012	-0.7818	-1.5308	9.8157	1.1328	-0.2416	-0.2684	0.7271	-0.8893	-1.0241	-0.2249	-0.3262
-0.1251	-0.3008	9.5009	-0.2893	0.1258	-0.1027	-0.0294	0.4248	-0.6859	4.3438	2.3207	8.4692	-0.4376	0.0516	-0.0118	-0.3295	-0.8206	-1.5772	10.1089	1.2486	0.1628	0.0063	0.6077	-0.9875	-1.0256	-0.1877	-0.3799
0.3301	-0.1852	9.5102	-0.0945	0.4333	-0.0436	-0.0284	0.4091	-0.7017	4.2229	2.6712	8.3533	-0.0702	-0.0092	0.0779	-0.3309	-0.7998	-1.578	9.5308	1.3071	-0.1322	-0.1141	0.6976	-0.8926	-0.9902	-0.2062	-0.361
0.1104	-0.2418	9.9052	-0.2847	0.1243	0.05	-0.0474	0.4101	-0.7016	4.526	2.4381	8.7598	-0.3749	0.2074	0.1409	-0.3281	-0.8413	-1.5763	10.1004	1.0161	-0.3508	-0.2388	0.8831	-1.0433	-1.0429	-0.2238	-0.3796
0.2183	0.1053	9.623	-0.3118	0.2476	0.0826	-0.0653	0.3995	-0.7534	4.3379	2.4951	8.1828	-0.5874	0.0239	0.206	-0.2845	-0.7819	-1.5435	10.0387	1.073	-0.5795	-0.3908	0.6324	-0.7639	-1.0086	-0.1874	-0.3971
-0.1738	0.5128	9.9589	-0.377	0.1867	0.0226	-0.1209	0.3624	-0.7128	4.2827	2.3205	8.3533	-0.1927	0.0521	0.0477	-0.3614	-0.8411	-1.5509	9.7607	1.364	-0.0708	-0.1719	0.7875	-0.7684	-1.0067	-0.1888	-0.3265
0.0491	-0.3584	9.6754	-0.3086	0.34	0.1141	-0.0063	0.3588	-0.7313	4.5777	2.203	8.3585	-0.5577	-0.1312	0.1143	-0.2564	-0.8457	-1.5234	9.9313	1.1326	-0.1826	-0.0199	0.7904	-0.8945	-1.0063	-0.1711	-0.3093
0.1561	-0.3015	9.3352	-0.3441	0.3105	-0.0075	-0.0477	0.4037	-0.6476	4.6345	2.6701	8.3037	-0.1003	-0.0087	0.1091	-0.3223	-0.8219	-1.5468	9.8105	0.5554	-0.6427	0.0759	0.9441	-0.8656	-0.9902	-0.1881	-0.3614
0.1113	-0.0096	9.963	-0.3129	0.2791	0.0219	-0.0865	0.432	-0.7216	3.9932	2.3805	8.6348	-0.0984	-0.1609	0.2338	-0.2403	-0.7842	-1.5234	9.6997	1.2481	-0.3002	-0.0217	0.9154	-1.0479	-0.9902	-0.1881	-0.3614
-0.1217	-0.3003	9.6722	-0.2491	0.2783	0.0812	-0.0476	0.4058	-0.6656	4.3472	2.7889	8.7001	-0.3158	-0.0412	-0.0431	-0.3137	-0.844	-1.5157	9.2422	1.3652	-0.2511	-0.0839	0.946	-1.0772	-0.9903	-0.1701	-0.3617
-0.0616	-0.1258	9.8451	-0.3503	0.1258	-0.0704	-0.0303	0.4427	-0.688	4.1617	2.671	8.2374	-0.0717	-0.0415	-0.0453	-0.3237	-0.8011	-1.5476	9.8186	1.1911	-0.0705	-0.2735	0.8232	-1.1655	-1.0072	-0.1885	-0.3442
-0.2412	-0.301	9.3845	-0.1887	0.2163	0.0789	-0.0112	0.4439	-0.7061	4.6398	2.3202	8.5321	-0.4075	-0.1645	-0.0722	-0.3158	-0.8641	-1.53	9.4184	1.0198	-0.0785	-0.487	0.6957	-0.9461	-1.0251	-0.1881	-0.3623
0.329	-0.1273	9.4533	-0.2513	0.1856	0.0803	-0.0646	0.3753	-0.6972	4.4059	2.438	8.6428	-0.0107	-0.0416	-0.0459	-0.2845	-0.7819	-1.5435	9.6514	1.0775	0.1538	-0.637	0.6297	-0.6972	-0.9553	-0.2063	-0.3601
0.0545	-0.1256	9.9615	-0.3479	0.1872	-0.0393	-0.0656	0.3932	-0.6994	3.6404	2.4399	8.6857	-0.0102	-0.072	-0.0148	-0.2853	-0.8228	-1.5571	9.869	1.3622	-0.4105	-0.8523	0.782	-0.7231	-0.9728	-0.2062	-0.3605
-0.1203	-0.5901	9.7285	-0.1603	0.3103	-0.0737	-0.1046	0.4151	-0.7193	4.3974	2.7289	8.242	-0.5286	0.1449	0.0501	-0.3048	-0.7811	-1.546	9.711	1.0202	0.2685	-0.887	0.5673	-0.7534	-0.9549	-0.1705	-0.3432
0.1096	-0.648	9.847	-0.2255	0.2494	-0.1337	-0.0857	0.4098	-0.6834	3.935	2.5561	8.6916	-0.2527	-0.1008	0.1112	-0.2809	-0.7826	-1.5284	9.9313	1.7088	-0.0663	-0.887	0.5673	-0.7534	-0.9908	-0.1516	-0.3798
0.3382	-0.416	9.9092	-0.4102	0.2499	-0.098	-0.0476	0.4058	-0.6656	4.1069	2.3211	8.4073	-0.0731	0.0496	-0.1387	-0.3295	-0.8206	-1.5772	9.7572	1.4785	-0.2412	-0.6993	0.7533	-0.7879	-0.9558	-0.1878	-0.3781
0.0455	-0.1269	9.5048	-0.2556	0.1248	-0.0119	-0.0301	0.4491	-0.742	4.4031	2.6714	8.5287	-0.2835	-0.1319	0.0808	-0.3418	-0.7802	-1.5358	9.6508	0.9621	0.0964	-0.5408	0.5664	-0.515	-0.9898	-0.1524	-0.3445
-0.0045	-0.2999	9.8457	-0.1936	0.249	-0.104	-0.0302	0.447	-0.724	3.9325	2.6726	8.5772	0.4158	0.0805	-0.0817	-0.3273	-0.8005	-1.5628	9.3561	0.9613	-0.3646	-0.2636	0.5693	-0.5824	-1.0247	-0.1704	-0.345
0.0556	-0.1254	10.0186	-0.3219	0.2198	-0.223	-0.0437	0.3386	-0.693	3.8139	2.4974	8.5171	0.2296	-0.1074	-0.3565	-0.3375	-0.8426	-1.5333	9.8625	1.1302	-0.8102	-0.3272	0.446	-0.5812	-0.9549	-0.1705	-0.3432
0.1023	0.0471	9.5064	-0.3754	0.373	-0.0671	-0.0664	0.4131	-0.7195	4.4023	2.5543	8.471	-0.1614	0.0221	0.1094	-0.3106	-0.8006	-1.5755	9.4734	1.0767	-0.1911	-0.3968	0.5122	-0.9483	-1.0072	-0.2065	-0.3438
0.0526	-0.532	9.8462	-0.1991	0.0952	-0.1666	-0.0665	0.411	-0.7015	4.4039	2.7884	8.5865	0.2334	-0.2269	-0.0777	-0.312	-0.7798	-1.5763	9.9852	1.1893	-0.3522	-0.4526	0.7867	-0.8545	-1.025	-0.2242	-0.3615
0.4562	-0.1254	10.1407	-0.2218	0.1237	0.0788	-0.0875	0.4477	-0.7057	3.9321	2.3803	8.519	0.1433	-0.1329	0.046	-0.2934	-0.8448	-1.5132	10.101	1.4196	-0.2352	-0.3306	0.7578	-0.9186	-0.9728	-0.1701	-0.3613
0.3937	-0.1262	9.8541	-0.2809	0.123	0.1721	-0.0294	0.4248	-0.6859	4.105	2.6715	8.351	-0.1315	-0.0402	0.0479	-0.2853	-0.8228	-1.5571	9.3601	1.3079	-0.0784	-0.2744	0.607	-1.0737	-0.9908	-0.1516	-0.3798
0.1606	-0.3009	9.5636	-0.4097	0.0318	0.083	-0.0469	0.3837	-0.6275	4.0468	2.3211	8.3489	-0.3447	0.1454	0.1102	-0.3084	-0.7805	-1.5612	9.3628	1.1357	0.0349	-0.2429	0.6997	-1.1049	-0.9729	-0.134	-0.362
-0.0593	-0.1835	9.9591	-0.4359	0.1549	0.1462	-0.0484	0.4279	-0.7038	4.5232	2.2038	8.5869	-0.3456	0.1754	0.0482	-0.2817	-0.8235	-1.5419	9.5285	1.3642	-0.2459	-0.2052	0.8197	-0.8905	-1.0077	-0.1881	-0.3618
0.0433	-0.1272	9.3906	-0.3782	0.0938	0.0522	-0.0475	0.4079	-0.6836	4.454	2.7868	8.1285	-0.3742	0.0232	0.1732	-0.2817	-0.8235	-1.5419	9.4169	1.4229	-0.0768	-0.0521	0.6051	-0.8326	-1.0077	-0.152	-0.3626
0.1733	-0.6471	10.1907	-0.4066	0.1242	0.1145	-0.0093	0.4081	-0.7018	4.5159	2.4949	8.2435	-0.557	0.1161	0.2051	-0.2717	-0.8664	-1.5099	9.693	1.9381	-0.5252	-0.0451	0.9415	-0.7401	-0.9728	-0.1701	-0.3613
-0.0601	-0.5897	9.9009	-0.2546	0.2489	-0.0717	-0.0301	0.4491	-0.742	4.4594	2.3785	8.3568	-0.3132	0.2696	0.2016	-0.2614	-0.8243	-1.5394	9.8182	1.3062	-0.07	-0.0207	0.636	-0.8332	-0.9723	-0.1885	-0.3433
-0.1195	-0.2999	9.7864	-0.2217	0.2482	-0.0115	-0.1049	0.4087	-0.6653	4.4021	2.6127	8.4712	-0.4961	0.1468	0.2043	-0.3375	-0.8426	-1.5333	10.0425	1.1891	-0.3511	-0.2661	0.6947	-0.7665	-0.9733	-0.1697	-0.3789
-0.01	-0.4747	9.5597	-0.3147	0.1241	0.0814	-0.0054	0.3388	-0.7112	3.984	2.5544	8.1763	-0.2854	-0.1954	-0.0731	-0.3209	-0.8427	-1.546	9.9315	1.0751	-0.1828	-0.2981	0.819	-0.8885	-1.06	-0.2061	-0.3628
0.2131	-0.3016	9.3363	-0.0966	0.185	0.076	-0.0273	0.3934	-0.7175	4.8149	2.1442	8.4201	-0.2833	-0.0392	0.111	-0.3056	-0.822	-1.5595	9.8155	1.4785	-0.1832	-0.2938	0.9712	-0.7962	-1.0077	-0.17	-0.3622
-0.0648	-0.3003	9.6733	-0.3142	0.1862	0.0515	-0.0465	0.3922	-0.6995	4.5278	2.1461	8.8162	-0.1029	-0.1038	-0.1064	-0.3411	-0.8419	-1.5485	9.5313	1.1919	-0.1327	-0.6437	0.6647	-1.0043	-1.009	-0.2051	-0.4144
0.0559	-0.4154	10.0178	-0.0343	0.1224	0.1347	-0.0292	0.4291	-0.7219	4.3379	2.9627	8.2416	0.2347	-0.1022	0.0449	-0.3418	-0.7802	-1.5358	9.4067	1.3629	-0.6467	-0.3637	0.9137	-1.102	-0.9557	-0.224	-0.3773
0.3306	-0.7073	9.5087	-0.0727	0.125	-0.1087	-0.0665	0.411	-0.7015	4.5153	2.261	8.1854	-0.0401	0.0212	0.0465	-0.3187	-0.8226	-1.5317	9.5273	1.1334	-0.3608	-0.464	0.6389	-1.2539	-1.0076	-0.2242	-0.361
0.2739	0.2791	9.5675	-0.227	0.0632	-0.044	-0.0677	0.4246	-0.6677	4.1672	2.6719	8.5243	-0.1019	-0.0103	-0.0144	-0.3397	-0.8627	-1.5476	9.6493	1.3652	0.098	-0.487	0.6957	-0.9461	-1.009	-0.2051	-0.4144
0.1025	-0.185	9.5057	-0.2901	0.0949	-0.103	-0.0504	0.4615	-0.6901	4.5228	2.3791	8.5874	-0.3123	0.1781	0.2641	-0.344	-0.8003	-1.5501	9.8753	1.0755	-0.1269	-0.7741	0.6059	-1.2473	-0.9907	-0.2058	-0.3786
0.3347	-0.2425	9.7384	-0.3808	0.0635	-0.0091	-0.0474	0.4122	-0.7196	4.1665	2.4964	8.4664	-0.3152	0.4526	0.0767	-0.3353	-0.8225	-1.5189	9.9334	1.1331	-0.0686	-0.6758	0.6343	-1.0343	-1.0266	-0.1509	-0.416
-0.1786	-0.3582	9.6709	-0.5619	0.2184	0.0281	-0.0864	0.4341	-0.7396	4.1015	2.7294	8.1791	-0.589	0.238	0.1118	-0.3584	-0.7801	-1.5231	9.4807	1.3665	0.2658	-0.5243	0.4516	-1.0686	-1.043	-0.2057	-0.38
-0.1241	-0.1266	9.5585	-0.5641	0.1257	0.0272	-0.0475	0.4079	-0.6836	4.1665	2.4964	8.4664	-0.1926	0.1756	0.0777	-0.307	-0.8012	-1.5604	9.2407	1.4801	-0.3076	-0.5795	0.5709	-0.8522	-1.0072	-0.2065	-0.3438
0.2188	-0.4168	9.6215	-0.3422	0.3098	0.0536	-0.0848	0.392	-0.6813	4.2759	2.3779	8.0092	-0.3448	0.1762	0.11	-0.3251	-0.7803	-1.5485	9.4096	1.4212	-0.4756	-0.739	0.2939	-0.8799	-0.92	-0.1706	-0.3423
-0.1796	-0.4164	9.6137	-0.3462	0.2178	-0.0084	-0.0455	0.3765	-0.7153	4.2225	2.8465	8.3538	-0.0413	0.02	-0.0461	-0.3259	-0.8212	-1.562	9.4238	1.2516	0.2643	-0.6762	0.3558	-0.8811	-1.0071	-0.2246	-0.3434
-0.4598	-0.3574	9.8366	-0.1916	0.0927	0.0776	-0.0682	0.451	-0.7418	4.5808	2.3204	8.531	-0.1935	0.0206	-0.0138	-0.2592	-0.8042	-1.5251	9.8209	1.4221	0.1014	-0.6458	0.4183	-0.9431	-0.9898	-0.1885	-0.3437
0.2199	-0.4746	9.6784	-0.224	0.0311	0.0778	-0.0472	0.4165	-0.7556	4.2299	2.497	8.697	-0.2525	-0.1623	0.1117	-0.2998	-0.8026	-1.53	9.9394	1.4802	0.3316	-0.4836	0.7865	-0.8539	-1.0077	-0.17	-0.3622
-0.1194	-0.4159	9.7861	-0.4053	0.2171	0.0849	-0.0311	0.4648	-0.7262	4.2215	2.7879	8.2962	-0.0719	-0.1342	-0.0755	-0.302	-0.8227	-1.5444	9.5841	1.2483	-0.3592	-0.6396	0.6003	-0.7894	-1.0076	-0.2242	-0.361
0.1123	0.1066	10.0204	-0.3145	0.0929	0.1116	-0.0465	0.3922	-0.6995	4.3432	2.6129	8.4701	-0.1002	-0.0702	0.1096	-0.2767	-0.8449	-1.5259	9.7563	1.7087	-0.2403	-0.4204	0.7243	-0.7632	-0.9903	-0.1339	-0.3625
0.107	-0.1843	9.7341	-0.3132	0.1859	0.082	-0.1047	0.4129	-0.7013	4.5192	2.4954	8.4157	0.0499	-0.0113	-0.0776	-0.3056	-0.822	-1.5595	9.8151	1.5936	-0.1828	-0.0209	0.6671	-0.8639	-1.0072	-0.1885	-0.3442
0.0581	-0.4151	10.132	-0.3086	0.34	0.1141	-0.0093	0.4081	-0.7018	4.1621	2.4957	8.2369	0.0828	-0.0397	0.1076	-0.2614	-0.8243	-1.5394	9.1293	1.1931	-0.1969	-0.2054	0.7579	-0.8599	-0.9728	-0.1882	-0.3609
-0.296	-0.1266	9.4981	-0.3453	0.2175	0.0221	-0.0492	0.4479	-0.7239	3.7478	2.6718	8.1722	-0.1613	-0.2244	0.0804	-0.2984	-0.8234	-1.5292	9.4107	1.4214	-0.4186	-0.2977	0.8497	-0.8885	-0.9902	-0.1881	-0.3614
0.0497	0.2218	9.7342	-0.0665	0.3097	-0.0457	-0.0083	0.3903	-0.6996	4.0441	3.022	8.2936	-0.224	0.0206	-0.0135	-0.3396	-0.7601	-1.5214	9.5823	1.4784	-0.4153	-0.1073	1.127	-0.8614	-0.9898	-0.1885	-0.3437
0.2154	-0.3593	9.4504	-0.034	0.2157	0.0746	-0.0858	0.4077	-0.6654	4.2194	2.2615	8.1225	-0.4341	0.0552	0.2661	-0.3339	-0.8433	-1.5181	9.9309	1.824	-0.0658	-0.2632	1.0956	-0.8889	-0.9893	-0.1889	-0.3261
-0.064	-0.0101	9.7313	0.1168	0.2475	-0.082	-0.0081	0.3945	-0.7356	4.4058	2.964	8.7018	-0.3425	-0.1606	0.236	-0.3106	-0.8006	-1.5755	9.3507	1.5939	-0.5329	-0.2931	0.9708	-0.7655	-1.0425	-0.188	-0.3627
0.0402	-0.4178	9.2185	-0.2232	0.1864	-0.0122	-0.0467	0.3879	-0.6635	4.4704	2.4388	8.9308	0.4476	0.0509	0.0109	-0.3137	-0.844	-1.5157	9.4194	1.8844	0.1529	-0.3563	0.8782	-0.7643	-1.025	-0.2242	-0.3615
-0.0627	-0.1259	9.788	-0.0329	0.3398	0.0148	-0.0283	0.4112	-0.7197	4.458	2.0276	8.241	-0.257	-0.1052	-0.2285	-0.3287	-0.7797	-1.5636	9.5887	1.1341	-0.1319	-0.639	0.9406	-0.9732	-0.9549	-0.2066	-0.3424
0.3357	-0.1263	9.7959	-0.3536	0.0646	-0.1321	-0.0265	0.3734	-0.6974	3.9237	2.6128	8.118	-0.2857	-0.0109	-0.0745	-0.3179	-0.7817	-1.5181	9.698	1.1325	-0.4146	-0.9547	0.6633	-1.0591	-1.0081	-0.2058	-0.3791
0.1581	-0.0112	9.4503	-0.3196	0.1568	-0.1015	-0.0666	0.4089	-0.6835	4.3361	2.3195	8.0675	-0.1908	0.0541	0.2021	-0.2781	-0.8241	-1.5267	9.6983	1.3631	-0.3567	-1.3267	0.4751	-0.9593	-0.9549	-0.1886	-0.3428
-0.1777	-0.126	9.7287	-0.377	0.1867	0.0226	-0.0285	0.4048	-0.6657	4.3493	2.3801	8.7563	-0.893	0.1162	0.1773	-0.3056	-0.822	-1.5595	9.5906	1.4803	0.0405	-1.0777	0.569	-0.9644	-0.9893	-0.2069	-0.3257
-0.0649	-0.1843	9.6737	-0.3779	0.187	-0.0079	-0.0102	0.426	-0.704	4.5119	2.7865	8.0723	-0.0727	0.05	-0.1078	-0.2998	-0.8026	-1.53	9.8143	1.2477	-0.2981	-1.2034	0.5383	-1.0232	-0.9558	-0.1878	-0.3781
-0.1234	0.2797	9.6168	-0.473	0.2504	-0.1268	-0.0475	0.4079	-0.6836	4.2183	2.7289	8.1239	-0.2554	0.0506	-0.0752	-0.3042	-0.8428	-1.5587	9.4711	1.4219	-0.2467	-1.2968	0.5998	-1.0826	-0.9733	-0.1878	-0.3785
0.1649	-0.1262	9.7925	-0.1623	0.062	0.0459	-0.0492	0.4479	-0.7239	4.0966	2.4363	7.8913	-0.4655	-0.0997	0.175	-0.2978	-0.885	-1.5419	9.8711	1.3627	-0.2966	-1.0491	0.5087	-1.0266	-1.0081	-0.2239	-0.3787
0.2711	-0.3015	9.3946	-0.1973	-0.0299	-0.0152	-0.0293	0.427	-0.7039	4.1123	2.848	8.7532	-0.2847	0.0518	0.0177	-0.3028	-0.8636	-1.5579	9.4146	1.48	-0.1905	-0.9859	0.6942	-1.0891	-1.026	-0.1873	-0.3976
0.0489	-0.1264	9.6761	-0.4403	0.1252	0.0237	-0.0665	0.411	-0.7015	3.9308	2.9061	8.5206	-0.2841	-0.04	0.0493	-0.3578	-0.8418	-1.5358	9.3509	1.2482	-0.5913	-1.0142	0.7852	-1.0269	-0.9723	-0.2066	-0.3429
-0.2287	-0.4732	10.012	-0.4083	0.2492	-0.0369	-0.0303	0.4427	-0.688	4.6351	2.904	8.3618	-0.1953	-0.043	-0.1677	-0.3173	-0.8434	-1.5308	10.0496	1.2483	0.0479	-0.9237	0.8184	-1.1517	-0.9718	-0.207	-0.3252
0.2732	-0.1851	9.5091	-0.2826	0.0925	0.1412	-0.0675	0.4289	-0.7037	4.459	2.5538	8.3573	0.4159	0.0497	-0.0815	-0.3389	-0.8218	-1.5341	9.8172	1.5941	-0.0688	-0.8879	0.7537	-0.9068	-1.026	-0.1873	-0.3976
-0.121	0.106	9.7305	-0.3449	0.1551	0.0825	-0.0667	0.4068	-0.6655	4.3418	2.7296	8.413	-0.2842	-0.0093	0.049	-0.2642	-0.7827	-1.5411	9.6968	1.478	-0.4132	-0.7596	0.9687	-0.8477	-1.0081	-0.2239	-0.3787
0.1047	-0.1846	9.6199	-0.2518	0.1235	0.1102	-0.0695	0.4625	-0.69	4.1098	2.4969	8.58	0.0188	-0.1351	-0.1381	-0.3301	-0.7589	-1.5645	9.8205	1.2491	0.0437	-0.4764	0.937	-0.6388	-1.0265	-0.205	-0.4148
0.3402	-0.1257	10.0242	-0.1615	0.2174	-0.0441	-0.0655	0.3953	-0.7174	4.3373	2.7288	8.1835	-0.1309	0.0221	0.1091	-0.2984	-0.8234	-1.5292	9.9355	1.7098	0.1616	-0.6306	0.7806	-0.5128	-0.9897	-0.2427	-0.3426
-0.0625	-0.358	9.7873	-0.2523	0.1859	0.0497	-0.0664	0.4131	-0.7195	4.2839	2.7299	8.4693	-0.223	0.1141	0.0784	-0.2528	-0.8464	-1.5083	9.5283	1.1336	-0.3038	-0.629	0.8415	-0.482	-1.0081	-0.2058	-0.3791
0.1618	-0.3587	9.6205	-0.3118	0.2476	0.0826	-0.0655	0.3953	-0.7174	4.3473	2.2629	8.6411	-0.2538	0.083	0.0481	-0.2809	-0.7826	-1.5284	9.8111	1.5351	-0.4109	-0.6357	0.7218	-0.6971	-1.0256	-0.1696	-0.3803
-0.123	-0.1264	9.6156	-0.4093	-0.0306	0.1434	-0.1027	0.3793	-0.715	4.2298	2.0878	8.6384	-0.2223	-0.0393	0.1105	-0.2592	-0.8042	-1.5251	9.5854	1.191	-0.3025	-0.4456	1.0302	-0.7007	-1.043	-0.1877	-0.3804
0.1684	-0.2417	9.9634	-0.4093	0.2496	-0.0675	-0.0095	0.4039	-0.6658	4.34	2.5539	8.2977	-0.4349	0.0852	0.2042	-0.3237	-0.8011	-1.5476	10.0462	1.3052	-0.1228	-0.7923	0.8456	-0.8472	-0.9722	-0.2608	-0.3417
-0.0663	0.1056	9.6174	-0.2311	-0.0289	-0.106	-0.0463	0.3965	-0.7355	4.1661	2.6717	8.4669	-0.1313	0.0524	0.078	-0.3148	-0.7382	-1.578	9.5852	1.2486	-0.3023	-0.818	0.8112	-0.6009	-0.9728	-0.1882	-0.3609
-0.0616	-0.1258	9.8451	-0.3794	0.1253	-0.0085	-0.0668	0.4046	-0.6475	3.8706	2.4969	8.4034	-0.4065	-0.0403	0.0195	-0.3303	-0.8439	-1.503	10.0458	1.7084	-0.0642	-0.852	0.7509	-0.6925	-1.0085	-0.2235	-0.3963
0.0018	0.1652	10.1896	-0.1918	0.1239	0.0474	-0.0856	0.412	-0.7014	4.0406	2.6123	8.0628	-0.2228	-0.1939	0.0499	-0.2853	-0.8228	-1.5571	9.5331	1.25	-0.0185	-0.7901	0.5965	-0.6019	-0.9907	-0.1697	-0.3794
0.1646	0.2219	9.7935	-0.1642	0.0626	-0.0151	-0.1046	0.4151	-0.7193	4.7534	2.7284	8.3634	0.2944	-0.0112	-0.049	-0.3078	-0.8421	-1.5739	9.4169	1.4229	-0.0768	-0.8794	0.7485	-0.5383	-0.9727	-0.2243	-0.3601
0.1048	-0.3006	9.6196	-0.2556	0.1248	-0.0119	-0.0674	0.431	-0.7217	4.2201	2.9046	8.2392	-0.1628	-0.0718	-0.0134	-0.3187	-0.8226	-1.5317	9.9886	1.4205	-0.1234	-0.8744	0.9002	-0.4153	-0.9728	-0.1701	-0.3613
0.1013	-0.1271	9.4488	-0.3779	0.187	-0.0079	-0.0074	0.3724	-0.6975	4.571	2.7279	8.0732	-0.01	0.0207	0.0154	-0.2845	-0.7819	-1.5435	9.7024	1.9402	-0.0125	-0.6552	0.7764	-0.2358	-0.9898	-0.1524	-0.3445
0.2185	-0.1267	9.6223	-0.3782	0.0938	0.0522	-0.0676	0.4267	-0.6857	3.7461	2.4377	8.0568	0.1102	0.142	-0.1102	-0.313	-0.9057	-1.5283	9.4121	1.3065	-0.3621	-0.6612	0.904	-0.5734	-1.0091	-0.1689	-0.4151
0.2254	-0.2997	9.9644	-0.253	0.155	0.0494	-0.0086	0.3839	-0.6456	4.2222	2.4958	8.2953	-0.1029	-0.1038	-0.1064	-0.2773	-0.7833	-1.5132	9.7005	1.5941	-0.1848	-0.5639	0.9639	-0.4218	-0.9893	-0.1889	-0.3261
0.1091	-0.1259	9.8485	-0.5319	0.2185	-0.0033	-0.0475	0.4079	-0.6836	4.6442	2.321	8.7616	-0.039	0.0531	0.1389	-0.3084	-0.7805	-1.5612	9.5916	1.4805	0.0974	-0.6012	0.7198	-0.5443	-1.0081	-0.2058	-0.3791
-0.0044	-0.4159	9.8454	-0.4981	0.342	-0.0029	-0.0857	0.4098	-0.6834	4.1676	2.029	8.4649	-0.0736	-0.105	-0.1993	-0.302	-0.8227	-1.5444	9.5296	1.0763	-0.2471	-0.9092	0.7785	-0.5069	-1.0435	-0.1873	-0.398
0.0445	-0.2431	9.4473	-0.3768	0.1555	0.0529	-0.0284	0.4091	-0.7017	4.286	2.3211	8.5254	-0.3768	0.1438	-0.013	-0.3628	-0.8203	-1.5518	9.9271	1.1317	-0.4104	-0.8896	0.5379	-0.8456	-1.008	-0.26	-0.3779
-0.2823	-0.4146	10.1824	-0.2865	0.1249	-0.0111	-0.0674	0.431	-0.7217	4.7624	2.6714	8.8223	0.3835	-0.0138	-0.2351	-0.2903	-0.8013	-1.5731	9.9873	1.4779	-0.1801	-0.8556	0.5983	-0.7541	-0.9718	-0.207	-0.3252
0.2765	-0.1266	9.6805	-0.1654	0.0941	-0.0759	-0.0485	0.4258	-0.6858	4.1086	2.5552	8.5228	0.0173	0.0175	-0.2319	-0.2876	-0.8254	-1.4837	9.7033	1.1337	-0.1298	-0.7335	0.6312	-0.8488	-1.0251	-0.2061	-0.3619
-0.1159	-0.5315	9.957	-0.2905	0.1573	-0.1634	-0.0274	0.3912	-0.6995	4.1647	2.3208	8.3511	-0.2556	0.1736	-0.0762	-0.3151	-0.8233	-1.5165	10.049	1.1329	-0.0096	-0.7983	0.7254	-1.0316	-0.9731	-0.26	-0.377
0.1105	-0.3578	9.9049	-0.2218	0.1237	0.0788	-0.0285	0.4048	-0.6657	4.5188	2.6707	8.4162	-0.3174	0.1729	-0.1373	-0.2556	-0.8048	-1.5099	9.8761	1.4214	-0.0115	-0.548	0.6637	-0.8834	-0.9544	-0.207	-0.3248
0.2196	-0.1266	9.6794	-0.3778	0.0314	0.1127	-0.0683	0.4489	-0.7238	4.4644	2.6131	8.6444	-0.2572	-0.0437	-0.2289	-0.3056	-0.822	-1.5595	9.8134	1.1899	-0.3553	-0.301	0.666	-0.9194	-0.9902	-0.2062	-0.361
0.1072	-0.4163	9.7334	-0.527	0.1858	0.1796	-0.0104	0.4217	-0.668	4.2839	2.2623	8.4105	-0.1943	0.0505	-0.0758	-0.3361	-0.8634	-1.5325	9.0219	1.829	0.3163	-0.4209	0.5388	-0.6712	-1.009	-0.2231	-0.414
0.2766	-0.2426	9.6802	-0.5033	0.0013	0.0852	-0.0686	0.4425	-0.6698	4.4555	2.6117	8.1854	-0.2527	-0.07	0.111	-0.3092	-0.8213	-1.5747	10.049	1.421	0.0486	-0.0444	0.5384	-0.4642	-1.0072	-0.1704	-0.3445
0.0449	-0.6492	9.4462	-0.4679	0.1865	0.0863	-0.0285	0.407	-0.6837	4.3398	2.6123	8.2979	-0.4335	-0.0059	0.2975	-0.2845	-0.7819	-1.5435	9.5877	1.1339	-0.1888	-0.1686	0.8165	-0.6455	-1.0081	-0.1877	-0.3795
0.2224	-0.7063	9.7919	-0.4064	0.093	0.1447	-0.0678	0.4225	-0.6497	4.1691	2.8475	8.6396	-0.1318	0.0828	0.0469	-0.3447	-0.8412	-1.5636	9.4677	1.7669	-0.3592	0.085	1.0314	-0.5277	-0.9898	-0.1704	-0.3441
0.3336	-0.3007	9.6812	-0.3521	-0.0293	-0.0109	-0.0493	0.4458	-0.7059	4.1622	2.4373	8.2367	-0.0121	0.0495	-0.1392	-0.3034	-0.8019	-1.5452	10.0389	1.5916	-0.4634	-0.0961	1.0582	-0.3395	-0.9733	-0.1878	-0.3785
0.0543	0.0485	9.962	-0.2613	0.0022	-0.1048	-0.0103	0.4239	-0.686	4.3998	2.6708	8.3566	0.2325	0.0188	-0.1104	-0.3273	-0.8005	-1.5628	9.3584	1.1923	-0.1928	-0.2857	0.9353	-0.4278	-0.9728	-0.1701	-0.3613
0.502	-0.1272	9.5708	-0.2198	0.0919	0.1701	-0.0474	0.4101	-0.7016	4.2809	2.6125	8.2968	0.2331	-0.0731	-0.0788	-0.3287	-0.7797	-1.5636	9.7043	1.422	-0.0146	-0.4096	0.7796	-0.3332	-0.9893	-0.1889	-0.3261
0.3391	-0.1838	9.967	-0.13	0.2793	-0.0749	-0.0275	0.3891	-0.6815	4.5214	2.4958	8.5304	0.1739	0.1755	0.1052	-0.3425	-0.8211	-1.5493	9.5277	1.5944	-0.2449	-0.5663	0.7486	-0.3913	-0.9917	-0.169	-0.4147
0.3355	0.1057	9.7965	-0.3796	0.1565	-0.0387	-0.0685	0.4446	-0.6878	4.3477	2.5552	8.6994	-0.01	0.2365	0.0446	-0.2664	-0.8028	-1.5554	9.7568	1.3055	-0.2989	-0.5965	0.7479	-0.36	-0.9897	-0.2246	-0.3429
-0.1833	-0.1268	9.4432	-0.3165	0.1247	0.0203	-0.0853	0.4184	-0.7554	4.2301	2.9062	8.7556	-0.224	0.2363	0.0157	-0.3295	-0.8206	-1.5772	9.8101	1.823	-0.4097	-0.689	0.6231	-0.266	-0.9916	-0.2051	-0.4139
0.049	-0.3004	9.6756	-0.6217	0.1868	0.1211	0.0097	0.405	-0.6839	4.051	2.4386	8.5787	-0.4372	0.052	0.0191	-0.3505	-0.8607	-1.5931	9.585	1.018	-0.3602	-0.8142	0.5301	-0.2635	-1.009	-0.2051	-0.4144
0.05	-0.1262	9.7332	-0.5992	0.1894	-0.1545	-0.0675	0.4289	-0.7037	4.1646	2.3792	8.3513	-0.1022	0.1435	-0.0156	-0.3173	-0.8434	-1.5308	10.0423	1.2466	-0.3509	-0.9377	0.6529	-0.3221	-0.9903	-0.152	-0.3621
0.2847	-0.4735	10.0792	-0.5011	0.0939	0.0862	-0.0303	0.4427	-0.688	4.1037	2.2621	8.235	-0.4065	-0.0403	0.0195	-0.3187	-0.8226	-1.5317	9.5864	1.4793	-0.1874	-0.903	0.7128	-0.1999	-1.0251	-0.1881	-0.3623
-0.0595	-0.0094	9.9596	-0.2196	0.3409	-0.0106	-0.0456	0.3743	-0.6973	4.0445	2.8467	8.2931	0.2331	-0.0731	-0.0788	-0.3396	-0.7601	-1.5214	9.5896	0.9038	-0.1328	-0.7452	0.774	-0.111	-1.0072	-0.1885	-0.3442
0.2139	-0.0114	9.3943	-0.1918	0.4041	-0.1635	-0.0673	0.4331	-0.7397	4.405	2.321	8.585	0.0212	-0.1327	0.0471	-0.3476	-0.7997	-1.5653	9.8211	1.6526	0.1593	-0.3747	0.8083	-0.1803	-0.9553	-0.2424	-0.3593
0.0512	-0.1841	9.7901	-0.2801	0.2784	0.0821	-0.0293	0.427	-0.7039	4.5153	2.261	8.1854	0.3552	-0.104	-0.0797	-0.354	-0.7574	-1.5821	9.5879	1.0763	-0.1891	-0.2465	0.7136	0.0626	-1.0086	-0.1874	-0.3971
0.1635	0.1637	9.7362	-0.2884	0.1255	-0.0721	-0.0485	0.4258	-0.6858	4.2792	2.3784	8.1813	0.0506	0.0202	-0.0161	-0.2845	-0.7819	-1.5435	9.6401	1.5936	-0.3568	-0.0575	0.9918	0.0283	-0.9912	-0.1693	-0.397
-0.1221	0.1058	9.6734	-0.344	0.1548	0.1131	-0.0472	0.4165	-0.7556	3.9239	2.0867	8.059	0.2951	-0.1647	-0.0169	-0.2728	-0.7606	-1.5722	9.586	1.0183	-0.3032	-0.2105	0.8656	0.185	-0.9907	-0.1697	-0.3794
-0.2901	-0.4158	9.7827	-0.3473	0.0936	0.0514	-0.0668	0.4046	-0.6475	3.9921	2.3803	8.5774	-0.1336	0.1735	-0.0773	-0.307	-0.8012	-1.5604	9.8755	1.5941	-0.0108	-0.2746	0.8665	0.0942	-0.9723	-0.2066	-0.3429
-0.2927	-0.0681	9.6695	-0.5003	0.1248	0.0865	-0.0466	0.3901	-0.6815	4.4601	2.0864	8.3559	-0.1005	0.0836	0.1084	-0.3259	-0.8212	-1.562	9.929	1.7659	-0.18	-0.1524	0.8994	-0.0006	-0.9898	-0.1885	-0.3437
0.2211	-0.5325	9.7353	-0.4395	0.0004	0.1446	-0.0474	0.4101	-0.7016	3.9923	2.3219	8.5773	-0.1943	0.0198	-0.0756	-0.3173	-0.8434	-1.5308	9.7045	1.0764	-0.073	-0.2489	0.7461	-0.0602	-0.9893	-0.1708	-0.3264
-0.3508	-0.0102	9.6115	-0.4335	0.2163	0.1773	-0.0104	0.4217	-0.668	4.8763	2.0276	8.5356	-0.3128	0.0543	0.2033	-0.36	-0.8619	-1.5501	9.7033	1.1337	-0.1298	-0.4019	0.8677	-0.0567	-0.9728	-0.2062	-0.3605
0.1069	-0.1263	9.7343	-0.5943	0.1567	0.0283	-0.0475	0.4079	-0.6836	4.1672	2.6719	8.5243	-0.2839	0.0834	0.0792	-0.3237	-0.8011	-1.5476	9.9246	1.2464	-0.5239	-0.2246	0.7814	-0.3679	-1.0255	-0.2419	-0.3788
-0.0593	-0.1835	9.9591	-0.2836	0.2484	-0.0098	-0.0475	0.4079	-0.6836	4.1099	2.4385	8.5798	-0.3426	-0.0991	0.2356	-0.2934	-0.8448	-1.5132	9.6966	1.5355	-0.4129	-0.4359	0.8074	-0.1483	-0.9554	-0.1701	-0.3608
-0.1237	-0.5326	9.5573	-0.3794	0.1253	-0.0085	-0.0465	0.3922	-0.6995	4.5185	2.7876	8.4166	-0.2855	0.051	-0.0441	-0.307	-0.8012	-1.5604	9.5323	1.1921	-0.0757	-0.3185	0.6574	-0.3353	-0.9902	-0.1881	-0.3614
-0.0683	-0.1268	9.5025	-0.3147	0.1241	0.0814	-0.0855	0.4141	-0.7194	4.455	2.8454	8.1861	-0.2221	0.0841	0.1404	-0.3209	-0.8427	-1.546	9.9942	1.5947	0.2191	-0.2183	0.8704	-0.1528	-0.9907	-0.2058	-0.3786
-0.4086	-0.2423	9.5526	-0.3456	0.1242	0.0822	-0.0285	0.4048	-0.6657	4.2883	1.7954	8.5812	-0.2561	0.019	-0.1367	-0.2831	-0.8027	-1.5427	10.1597	1.5926	-0.1195	-0.4726	0.9037	-0.4546	-1.0082	-0.1697	-0.3798
0.3411	0.1065	10.082	-0.1631	0.0311	0.0456	-0.0276	0.387	-0.6635	4.1103	2.2632	8.5793	-0.3453	0.0523	0.0491	-0.2962	-0.8033	-1.5148	9.6435	1.5367	-0.1861	-0.3814	0.6886	-0.3954	-0.9549	-0.2066	-0.3424
0.0526	-0.4739	9.8463	-0.1642	0.0626	-0.0151	-0.0454	0.3786	-0.7333	4.1581	2.7873	8.0656	0.0509	-0.1028	-0.0151	-0.3209	-0.8427	-1.546	9.6441	1.0759	-0.245	-0.2888	0.7204	-0.428	-0.9553	-0.2063	-0.3601
0.164	-0.3004	9.7349	-0.4116	0.0324	0.0219	-0.0674	0.431	-0.7217	4.1089	2.9059	8.5813	-0.1638	0.0197	-0.0758	-0.2586	-0.8658	-1.5378	9.6424	1.2484	-0.3012	-0.5293	0.869	-0.2076	-0.9723	-0.2247	-0.3425
0.3316	-0.5911	9.5661	-0.5939	0.0943	0.0888	-0.0695	0.4625	-0.69	4.1068	2.8471	8.4663	-0.1617	0.1759	0.1083	-0.3418	-0.7802	-1.5358	9.812	0.7286	-0.5281	-0.5694	0.6267	-0.4529	-0.9737	-0.1874	-0.3962
0.0514	-0.4161	9.7894	-0.5672	0.0333	-0.0043	-0.0487	0.4215	-0.6498	4.2111	2.9616	7.7804	-0.2829	0.1769	0.1712	-0.302	-0.8227	-1.5444	9.9931	1.5944	0.1622	-0.4422	0.7184	-0.3633	-1.0246	-0.1884	-0.3446
0.3312	-0.127	9.5675	-0.3458	0.1554	0.052	-0.0853	0.4184	-0.7554	4.523	2.7883	8.6461	-0.526	-0.13	0.2066	-0.3078	-0.8421	-1.5739	9.6957	1.4777	-0.4701	-0.3759	0.871	-0.2723	-1.0071	-0.2427	-0.343
0.0469	-0.4168	9.561	-0.4969	0.3105	0.0579	-0.0284	0.4091	-0.7017	4.0396	2.5537	8.0053	-0.0391	0.1146	0.1385	-0.3506	-0.8431	-1.5054	9.9338	1.5942	0.0472	-0.4312	0.9903	-0.0559	-0.9902	-0.2062	-0.361
0.2765	-0.0686	9.6807	-0.4114	0.0012	0.0521	-0.0848	0.392	-0.6813	3.9921	2.3803	8.5774	-0.3147	-0.0092	0.0493	-0.3209	-0.8427	-1.546	9.247	1.4815	0.0342	-0.3369	0.9901	0.0035	-0.9907	-0.1878	-0.379
0.45	-0.6485	9.7966	-0.4384	0.2491	-0.0055	-0.0105	0.4196	-0.65	4.2224	2.3789	8.295	0.3266	0.1138	0.1042	-0.2998	-0.8026	-1.53	9.8648	1.6493	-0.5802	-0.3094	0.9925	-0.1507	-1.0255	-0.2058	-0.3795
0.2241	-0.1839	9.9076	-0.3447	0.1239	0.1127	-0.0094	0.406	-0.6838	4.2809	2.6125	8.2968	-0.0718	-0.0108	-0.0456	-0.3056	-0.822	-1.5595	10.0488	0.9024	-0.0675	-0.1802	1.0211	0.0616	-1.0264	-0.2231	-0.4144
-0.0714	-0.4753	9.3302	-0.4079	0.1869	0.0235	-0.0485	0.4258	-0.6858	4.0446	2.7883	8.2929	-0.3766	0.0208	-0.0121	-0.2956	-0.8649	-1.5275	9.703	1.7675	-0.0132	-0.7113	0.8343	-0.0195	-0.9382	-0.2601	-0.3761
0.1662	-0.3	9.8491	-0.5604	0.1245	0.1493	-0.0256	0.3534	-0.6772	4.4594	2.8461	8.4156	-0.2246	0.1432	-0.0453	-0.3287	-0.7797	-1.5636	9.8216	1.5375	0.1588	-0.5912	0.6208	-0.0531	-1.0081	-0.2058	-0.3791
-0.0669	-0.4747	9.5586	-0.5011	0.0939	0.0862	-0.0285	0.4048	-0.6657	4.5117	2.8449	8.0724	-0.161	0.2075	0.1698	-0.2831	-0.8027	-1.5427	9.5327	1.3651	-0.018	-0.7117	0.8036	-0.0195	-1.0076	-0.2062	-0.3614
0.1699	-0.5896	10.0195	-0.3254	-0.0903	-0.104	-0.0666	0.4089	-0.6835	4.5194	2.437	8.4155	-0.2545	0.2364	0.016	-0.3657	-0.7788	-1.5534	10.2176	1.4197	-0.1192	-0.8961	0.8014	0.0459	-0.9902	-0.1881	-0.3614
-0.118	-0.7058	9.8423	-0.5625	0.0318	0.1483	-0.0683	0.4489	-0.7238	4.3353	2.6701	8.0686	-0.2246	0.1432	-0.0453	-0.3201	-0.8018	-1.5325	9.4723	1.3646	-0.19	-1.0532	0.7397	-0.0123	-1.0251	-0.17	-0.3626
-0.1262	-0.3009	9.4438	-0.6242	0.0009	0.1803	-0.0686	0.4425	-0.6698	4.1027	2.6711	8.2363	-0.3454	0.2988	0.0782	-0.26	-0.845	-1.5386	9.925	1.1312	-0.5244	-0.6737	0.7995	0.2869	-1.0077	-0.1881	-0.3618
0.0514	-0.4741	9.7892	-0.5922	0.1249	0.1196	-0.0667	0.4068	-0.6655	4.5225	2.0284	8.529	-0.1315	0.3297	0.1068	-0.3223	-0.8219	-1.5468	9.5854	1.4791	-0.2444	-0.9604	0.6785	0.0163	-1.025	-0.2423	-0.3611
0.2761	0.2795	9.6817	-0.7208	0.0025	0.0607	-0.0655	0.3953	-0.7174	4.0986	2.5536	8.0064	-0.253	0.2687	0.1393	-0.3237	-0.8011	-1.5476	9.5935	1.2505	0.1535	-0.4001	0.6498	0.158	-1.0081	-0.1877	-0.3795
-0.065	-0.1263	9.6738	-0.6878	-0.0295	0.1511	-0.0854	0.4162	-0.7374	4.4038	2.3792	8.5278	-0.1928	0.2986	0.0767	-0.3014	-0.8844	-1.557	9.4721	1.4222	-0.1897	-0.0919	0.6529	0.09	-1.026	-0.1873	-0.3976
-0.0595	-0.0094	9.9596	-0.6847	0.0629	0.1826	-0.0486	0.4237	-0.6678	4.5224	2.5544	8.588	-0.1645	0.1731	-0.1079	-0.2853	-0.8228	-1.5571	9.6397	1.4206	-0.4145	-0.3993	0.6494	0.1887	-0.9567	-0.2232	-0.4126
0.3348	-0.4165	9.7379	-0.5085	-0.0593	-0.0375	-0.0857	0.4098	-0.6834	4.6321	2.2606	8.1303	-0.498	0.114	0.0501	-0.2853	-0.8228	-1.5571	9.4192	1.3658	0.0369	-0.3684	0.6496	0.188	-1.0256	-0.1877	-0.3799
0.0545	-0.1836	9.9614	-0.5287	0.1552	0.1487	-0.0094	0.406	-0.6838	4.3961	2.3195	8.126	-0.4985	0.3601	0.0482	-0.3165	-0.8025	-1.5173	9.6953	1.3048	-0.5278	-0.5296	0.6524	-0.0851	-0.9718	-0.207	-0.3252
-0.007	-0.0682	9.7322	-0.4654	0.0923	0.238	-0.0275	0.3891	-0.6815	4.2777	2.5535	8.1245	-0.256	0.3582	-0.0775	-0.3295	-0.8206	-1.5772	9.4723	1.3646	-0.19	-0.5933	0.7769	-0.2371	-1.0246	-0.2246	-0.3439
0.1061	-0.4745	9.6762	-0.4442	0.002	-0.0081	-0.0445	0.3586	-0.7131	4.7522	2.7867	8.3062	-0.1018	0.1439	0.0153	-0.2759	-0.804	-1.5124	9.48	0.963	0.1502	-0.6814	0.7113	0.0104	-1.0416	-0.2068	-0.3271
0.0505	-0.6483	9.7316	-0.5004	0.0004	0.1768	-0.0275	0.3891	-0.6815	4.11	2.9061	8.6387	-0.2875	0.4497	-0.1397	-0.2795	-0.8034	-1.5275	9.8113	1.4775	-0.4111	-0.7496	0.467	-0.1114	-0.9379	-0.1882	-0.36
0.3311	-0.011	9.5678	-0.7169	-0.03	0.213	-0.0866	0.4298	-0.7036	4.8669	2.2598	8.0773	-0.2885	0.3563	-0.2317	-0.2781	-0.8241	-1.5267	9.4727	1.5376	-0.1323	-0.527	0.9295	-0.1461	-0.9549	-0.1524	-0.3436
-0.0116	0.1052	9.5043	-0.6247	-0.0612	0.2102	-0.0848	0.392	-0.6813	4.0444	2.3791	8.2343	-0.4973	0.3921	0.1406	-0.3084	-0.7805	-1.5612	9.4182	1.6536	0.038	-0.5251	0.8664	-0.0234	-0.9728	-0.1882	-0.3609
0.0545	-0.1836	9.9614	-0.6258	0.0947	0.0591	-0.0445	0.3586	-0.7131	4.4048	2.9054	8.6442	-0.3766	0.4523	0.0464	-0.2948	-0.824	-1.514	9.8749	1.4787	-0.0682	-0.428	0.7097	0.2508	-1.0265	-0.205	-0.4148
0.048	-0.3586	9.6183	-0.7871	-0.1826	0.0605	-0.0486	0.4237	-0.6678	4.641	2.262	8.5893	-0.8299	0.4265	0.3905	-0.2962	-0.8033	-1.5148	10.1008	1.4772	-0.235	-0.5921	0.5594	-0.0531	-0.9903	-0.152	-0.3621
-0.2894	-0.0095	9.841	-0.7825	-0.0285	0.0926	-0.0657	0.391	-0.6814	4.1743	2.4977	8.868	-0.4959	0.486	0.2635	-0.3165	-0.8025	-1.5173	9.7037	1.8829	0.0442	-0.5877	0.6186	0.1005	-1.0251	-0.2061	-0.3619
-0.0623	-0.59	9.7867	-0.626	0.1259	0.0289	-0.0294	0.4248	-0.6859	4.2262	2.6718	8.5254	-0.621	0.3907	0.0183	-0.3273	-0.8005	-1.5628	9.3525	1.94	-0.3606	-0.4966	0.5894	0.037	-0.9902	-0.2062	-0.361
0.1113	-0.0096	9.963	-0.5344	0.0326	0.0559	-0.0895	0.4813	-0.6921	4.4073	2.7889	8.7586	-0.7096	0.3321	0.2357	-0.3295	-0.8206	-1.5772	9.883	0.962	0.2714	-0.5192	0.677	0.3449	-1.0076	-0.2062	-0.3614
-0.1818	-0.4747	9.4993	-0.4731	-0.1542	0.1744	-0.0284	0.4091	-0.7017	4.0526	2.6727	8.6942	-0.4375	0.1751	0.0182	-0.297	-0.8441	-1.5284	9.4698	1.1912	-0.3616	-0.5752	0.6419	0.6225	-1.0091	-0.1689	-0.4151
-0.4598	-0.4154	9.8364	-0.4993	0.249	0.0267	-0.0294	0.4248	-0.6859	4.4654	2.6718	8.702	-0.3151	-0.0096	0.0184	-0.3237	-0.8011	-1.5476	9.5802	1.4779	-0.5292	-0.7018	0.5497	0.5636	-0.9567	-0.2052	-0.413
0.2264	-0.1836	10.0218	-0.3173	0.0938	0.02	-0.0484	0.4279	-0.7038	4.2741	2.6698	7.9527	-0.0417	0.0196	-0.077	-0.2773	-0.7833	-1.5132	9.7612	0.9608	-0.1294	-1.0093	0.7939	0.5091	-0.9732	-0.2059	-0.3782
-0.1235	0.3957	9.6171	-0.2583	-0.03	0.017	-0.0293	0.427	-0.7039	4.3472	2.3213	8.6413	-0.2271	0.2024	-0.2311	-0.2875	-0.8429	-1.5714	9.6425	0.9603	-0.3594	-0.9468	0.7321	0.5691	-0.9903	-0.1701	-0.3617
0.0489	-0.1264	9.6761	-0.3161	0.0623	0.0807	-0.0468	0.3858	-0.6455	3.9926	2.6727	8.6357	-0.3161	0.1126	-0.0442	-0.3259	-0.8212	-1.562	9.8184	1.2487	-0.0702	-0.7268	0.9175	0.5954	-0.9733	-0.1697	-0.3789
0.2163	-0.1271	9.5081	-0.4114	0.0012	0.0521	-0.0283	0.4112	-0.7197	4.5237	2.4962	8.6452	-0.1604	0.1156	0.2014	-0.2745	-0.8248	-1.5116	9.7572	1.4785	-0.2412	-0.5446	0.7662	0.5299	-0.9912	-0.1874	-0.3966
0.1662	-0.3	9.8491	-0.5339	0.0947	0.026	-0.0119	0.466	-0.7443	4.5163	2.7872	8.3018	-0.3151	-0.0096	0.0184	-0.3048	-0.7811	-1.546	9.4167	1.4804	-0.0766	-0.6369	0.7033	0.5932	-0.9911	-0.2055	-0.3963
0.271	-0.2435	9.3947	-0.6881	0.1574	0.0004	-0.012	0.4639	-0.7263	4.285	2.7301	8.5267	-0.3742	0.4547	0.2317	-0.3418	-0.7802	-1.5358	9.7601	1.2486	-0.1282	-0.4605	0.5555	0.282	-0.9723	-0.1885	-0.3433
-0.3393	-0.2985	10.1816	-0.6239	0.0941	0.1201	0.0117	0.3714	-0.6976	4.3978	2.086	8.1827	-0.4375	0.3908	0.0474	-0.3165	-0.8025	-1.5173	9.4767	1.5961	0.0958	-0.1199	0.558	0.2747	-0.9912	-0.1693	-0.397
0.1641	-0.4164	9.7346	-0.3567	-0.0277	-0.1636	-0.0494	0.4436	-0.6879	4.4056	2.0873	8.5843	-0.3738	0.2393	0.2333	-0.2889	-0.8221	-1.5722	9.9275	1.0165	-0.4109	0.1267	0.6844	0.1468	-0.9384	-0.1879	-0.3776
-0.0119	-0.7651	9.4447	-0.4405	0.1564	-0.0065	-0.0857	0.4098	-0.6834	4.0382	2.6704	7.9483	-0.4668	0.3613	0.1406	-0.2845	-0.7819	-1.5435	9.9298	1.2475	-0.239	-0.0344	0.5942	-0.065	-0.9724	-0.1705	-0.3436
0.3394	-0.4739	9.9661	-0.3801	0.0944	-0.0088	-0.0463	0.3965	-0.7355	4.2207	2.6709	8.2385	-0.4963	0.4548	0.2328	-0.3245	-0.842	-1.5612	9.4115	1.4792	-0.3614	-0.0928	0.6845	0.0286	-1.0072	-0.1704	-0.3445
-0.056	-0.1829	10.1304	-0.2169	0.091	0.2616	-0.0293	0.427	-0.7039	4.4571	2.4366	8.2422	-0.0094	0.2988	0.1059	-0.3201	-0.8018	-1.5325	9.878	1.4795	0.1027	-0.1478	0.7727	0.2757	-1.0086	-0.1693	-0.3975
-0.0641	0.1639	9.7318	-0.3241	0.0027	-0.1336	-0.0273	0.3934	-0.7175	4.0489	2.8474	8.5226	-0.6794	0.2701	0.205	-0.2781	-0.8241	-1.5267	9.7605	1.4216	-0.0706	-0.4024	0.6822	0.0352	-0.938	-0.1521	-0.3607
0.3324	-0.2429	9.6242	-0.2898	-0.0919	0.0478	-0.0665	0.411	-0.7015	4.3415	2.3788	8.3546	-0.5886	0.2384	0.1426	-0.3395	-0.7777	-1.6091	9.6466	1.5374	-0.0152	-0.4367	0.653	-0.087	-0.9897	-0.2246	-0.3429
0.1073	-0.5323	9.7331	-0.5938	-0.0614	0.2093	-0.0855	0.4141	-0.7194	4.4548	2.4363	8.1275	-0.2542	0.4833	0.0759	-0.2759	-0.804	-1.5124	9.4065	1.4205	-0.6465	-0.2556	0.3785	-0.122	-0.9719	-0.1708	-0.326
-0.1185	-0.1837	9.8438	-0.5016	0.0319	0.1161	-0.0856	0.412	-0.7014	4.1087	2.4967	8.5226	-0.4966	0.2387	0.1727	-0.31	-0.8622	-1.5882	9.5931	1.3656	0.1539	-0.3184	0.3167	-0.1208	-0.9892	-0.225	-0.3253
-0.1776	-0.184	9.7285	-0.7466	0.0631	0.1843	-0.0291	0.4312	-0.7399	3.7553	2.7899	8.5743	-0.3783	0.4814	-0.0773	-0.3158	-0.8641	-1.53	9.7001	1.4211	-0.2425	-0.0701	0.2562	-0.0647	-0.9903	-0.1701	-0.3617
-0.173	-0.2994	9.9566	-0.5631	-0.0303	0.1782	-0.0848	0.392	-0.6813	4.2881	2.3798	8.6404	-0.6488	0.455	0.2342	-0.3614	-0.8411	-1.5509	9.8216	1.2494	0.1007	0.1186	0.3177	0.0235	-0.9562	-0.2055	-0.3953
-0.1718	-0.4152	10.0133	-0.4662	0.0614	0.2377	-0.0664	0.4131	-0.7195	4.3957	2.4948	8.1265	-1.0148	0.579	0.2676	-0.3201	-0.8018	-1.5325	9.7632	1.2493	0.0427	0.3046	0.3809	-0.0111	-1.0261	-0.1693	-0.3979
-0.2335	-0.1258	9.7847	-0.5027	0.0634	0.0553	-0.0457	0.3722	-0.6793	4.4017	2.788	8.4717	-0.2522	0.4853	0.2303	-0.307	-0.8012	-1.5604	9.5329	1.5956	0.0399	0.1202	0.6265	-0.0989	-0.9921	-0.2047	-0.4315
-0.122	0.0478	9.6732	-0.4107	-0.0924	0.1428	-0.0465	0.3922	-0.6995	4.2809	2.6125	8.2968	-0.9538	0.3939	0.2375	-0.3295	-0.8206	-1.5772	9.9296	1.5932	-0.1807	0.2758	0.5342	-0.0102	-0.9737	-0.1694	-0.3966
-0.0662	-0.0104	9.6171	-0.3728	0.1231	0.2052	-0.0837	0.3762	-0.6971	3.9913	2.7309	8.5785	-0.8901	0.6124	0.4824	-0.2976	-0.7825	-1.5157	9.4228	1.5394	0.2654	-0.0055	0.7505	-0.2497	-0.9911	-0.2235	-0.3959
0.0459	-0.533	9.5036	-0.3445	0.0927	0.143	-0.0874	0.4498	-0.7237	4.3408	2.6709	8.3555	-0.7381	0.3033	0.3906	-0.2759	-0.804	-1.5124	9.6985	1.3055	-0.3569	-0.0328	0.6551	-0.0342	-0.9897	-0.2066	-0.3433
-0.0112	-0.3589	9.503	-0.1957	0.0007	0.0156	-0.0462	0.3986	-0.7535	3.929	2.7305	8.4053	-0.2814	-0.0065	0.2652	-0.2831	-0.8027	-1.5427	9.8774	1.3641	0.0452	0.0005	0.8707	-0.0653	-0.9907	-0.1878	-0.379
0.0489	-0.1844	9.6759	-0.2539	0.1554	0.0189	-0.0294	0.4248	-0.6859	3.9892	2.6721	8.4636	-0.4373	0.2985	0.0481	-0.304	-0.7402	-1.5325	9.3572	1.2496	-0.2495	-0.1056	0.6924	-0.5241	-0.9723	-0.1885	-0.3433
-0.0081	-0.1263	9.6749	-0.2925	0.0335	-0.1341	-0.0111	0.446	-0.7241	4.2755	2.5532	8.0097	-0.2229	0.2683	0.1081	-0.3042	-0.8428	-1.5587	9.9317	1.0175	-0.183	-0.4978	0.807	-0.1469	-1.0081	-0.1877	-0.3795
-0.1203	-0.6481	9.7283	-0.2868	0.0316	0.049	-0.0474	0.4122	-0.7196	4.2279	2.4382	8.5821	-0.4347	0.3629	0.2638	-0.3512	-0.799	-1.5804	9.4654	1.2478	-0.5892	-0.285	0.6871	-0.2438	-1.0072	-0.1885	-0.3442
0.2105	0.0461	9.2232	-0.5644	0.0324	0.0873	-0.0493	0.4458	-0.7059	4.1635	2.8466	8.3527	-0.6479	0.3943	0.2964	-0.2542	-0.8256	-1.5091	10.105	1.4781	-0.0071	-0.7157	0.7751	-0.1731	-1.0274	-0.1862	-0.4505
0.2761	-0.8229	9.6214	-0.3822	0.1262	-0.1001	-0.0112	0.4439	-0.7061	4.1652	2.6131	8.4094	-0.8021	0.4237	0.1741	-0.2948	-0.824	-1.514	10.0471	1.363	-0.0656	-0.7835	0.3137	-0.1416	-1.0067	-0.225	-0.3258
0.3325	-0.3589	9.6239	-0.5069	0.127	-0.1272	-0.0667	0.4068	-0.6655	3.9887	2.4382	8.4055	-0.6497	0.2693	0.143	-0.3237	-0.8011	-1.5476	9.3678	1.1944	0.3199	-0.6905	0.2214	-0.0822	-0.9733	-0.1697	-0.3789
0.0433	-0.1852	9.3904	-0.5045	0.1885	-0.096	-0.0303	0.4448	-0.706	4.2164	2.6117	8.0088	-0.6501	0.2996	0.1119	-0.3101	-0.8447	-1.5005	9.6976	1.2477	-0.4141	-0.844	0.1576	0.0131	-0.9902	-0.2062	-0.361
-0.0595	-0.0094	9.9596	-0.3481	0.2184	-0.0695	-0.0293	0.427	-0.7039	4.2841	2.6714	8.4691	-0.6788	0.1782	0.2366	-0.3642	-0.7996	-1.5526	9.6506	1.0197	0.0966	-0.9631	0.4943	0.0161	-0.9384	-0.1698	-0.378
0.2757	-0.4168	9.6226	-0.2873	0.3742	-0.2223	-0.0275	0.3891	-0.6815	4.4013	2.9633	8.4723	-0.6501	-0.1011	0.0531	-0.3273	-0.8005	-1.5628	9.9307	1.3053	-0.1818	-0.6537	0.5278	-0.0211	-1.0411	-0.2253	-0.309
0.2799	-0.1841	9.8517	-0.2005	0.1579	-0.2576	0.0105	0.3829	-0.6457	4.3962	2.7871	8.1848	-0.1613	-0.0086	0.1097	-0.2809	-0.7826	-1.5284	9.6955	0.9591	-0.5862	-0.497	0.7136	-0.0549	-0.9562	-0.2236	-0.395
0.2708	0.0466	9.3956	-0.1246	0.3087	0.0781	-0.0474	0.4101	-0.7016	4.0449	2.6714	8.2925	-0.2843	-0.1327	0.0191	-0.3187	-0.8226	-1.5317	9.6454	1.3066	-0.1301	-0.2493	0.8702	-0.1522	-1.0429	-0.2238	-0.3796
0.1047	-0.1846	9.6199	-0.0659	0.2161	0.0449	-0.0474	0.4122	-0.7196	4.281	2.554	8.2966	-0.0393	0.022	0.1083	-0.3137	-0.844	-1.5157	9.7566	1.075	-0.3568	0.0665	0.8067	0.1482	-1.0081	-0.2058	-0.3791
0.3368	-0.1262	9.853	0.1467	0.1232	-0.0231	-0.0483	0.43	-0.7218	3.5732	2.6725	8.2837	-0.5867	-0.0988	0.2378	-0.2976	-0.7825	-1.5157	9.7024	1.6521	-0.0707	0.2763	0.7197	-0.1021	-0.9558	-0.1878	-0.3781
-0.2917	0.1061	9.7271	-0.1315	0.2176	-0.0755	-0.0076	0.3681	-0.6615	4.1663	2.6133	8.4667	-0.4351	-0.0382	0.1742	-0.2853	-0.8228	-1.5571	9.5785	1.3623	-0.6436	0.4047	0.8417	0.0182	-1.0429	-0.2238	-0.3796
0.0455	-0.0689	9.5049	-0.1615	0.2174	-0.0441	-0.0276	0.387	-0.6635	4.2784	3.1966	8.2412	-0.4043	0.0544	0.2041	-0.3056	-0.822	-1.5595	9.6468	1.1917	-0.0736	0.2147	0.8429	-0.1621	-0.9723	-0.2066	-0.3429
0.1661	-0.126	9.8496	-0.1	0.2795	-0.1062	-0.0076	0.3681	-0.6615	4.2757	2.4363	8.0094	-0.4661	0.2387	0.1724	-0.3462	-0.8205	-1.5645	9.9275	1.0165	-0.4109	0.155	0.996	-0.1606	-1.0086	-0.2054	-0.3967
-0.2322	-0.2996	9.8413	-0.0985	0.1856	0.0149	-0.0874	0.4498	-0.7237	4.2195	2.6707	8.1811	-0.2814	0.0243	0.265	-0.265	-0.8236	-1.5546	9.3567	1.3648	-0.249	-0.1304	0.8742	-0.3697	-0.9893	-0.2069	-0.3257
-0.1766	-0.1258	9.7858	-0.1563	0.2779	0.0786	-0.0303	0.4427	-0.688	4.6366	2.7289	8.4186	-0.5864	-0.0676	0.2685	-0.3006	-0.8435	-1.5435	9.9327	1.5939	-0.0098	-0.4179	0.5988	-0.5791	-0.9898	-0.1524	-0.3445
-0.3414	-0.4149	10.0671	-0.1904	0.1857	0.048	-0.0457	0.3722	-0.6793	4.1642	2.5545	8.3518	-0.2827	-0.1619	0.1428	-0.2934	-0.8448	-1.5132	9.7022	1.4216	-0.1286	-0.4146	0.7826	-0.5481	-0.9888	-0.1892	-0.3084
-0.2992	-0.2431	9.3264	-0.3807	0.188	-0.0995	-0.0864	0.4341	-0.7396	4.4002	2.9631	8.4149	-0.7699	-0.222	0.2096	-0.3173	-0.8434	-1.5308	9.7112	1.2507	0.3264	-0.546	0.6005	-0.7607	-0.9553	-0.2243	-0.3597
0.1	0.1047	9.3924	-0.2584	0.1257	-0.1035	-0.0473	0.4143	-0.7376	4.2742	2.6114	7.9525	-0.4061	-0.0399	0.0504	-0.3092	-0.8213	-1.5747	9.7022	1.7097	-0.0704	-0.7	0.506	-0.6653	-0.9732	-0.2059	-0.3782
0.1099	0.2803	9.9067	-0.3164	0.2492	-0.07	-0.0474	0.4101	-0.7016	4.5776	2.729	8.4175	-0.7109	-0.0391	0.0841	-0.3187	-0.8226	-1.5317	9.8122	1.5353	-0.3539	-0.8579	0.5377	-0.8155	-0.9554	-0.1701	-0.3608
0.1672	-0.1258	9.9067	-0.2213	0.1858	0.0489	-0.0456	0.3743	-0.6973	4.7516	2.0852	8.1893	-0.2852	-0.072	-0.0431	-0.3048	-0.7811	-1.546	9.8782	0.5576	-0.072	-0.6733	0.5088	-0.8502	-1.0067	-0.1888	-0.3265
0.2802	-0.4742	9.8508	-0.3158	0.1556	0.0206	-0.0675	0.4289	-0.7037	4.5124	2.5528	8.0716	-0.4658	0.0541	0.1738	-0.3368	-0.8017	-1.5198	9.9821	1.7648	-0.4068	-0.7056	0.6643	-1.0029	-1.025	-0.2242	-0.3615
0.0423	-0.3014	9.333	-0.1003	0.1862	-0.0461	-0.0283	0.4112	-0.7197	4.2244	2.4961	8.4101	-0.3751	-0.1318	0.0817	-0.2817	-0.8235	-1.5419	9.9275	1.5927	-0.2946	-0.5145	0.9411	-0.9452	-1.0077	-0.17	-0.3622
-0.1152	-0.1252	10.0153	-0.0339	0.3401	-0.0157	0.0099	0.4093	-0.7199	4.6993	2.0864	8.5325	-0.3429	-0.161	0.2052	-0.3375	-0.8426	-1.5333	9.5256	1.594	-0.3589	-0.3312	0.8201	-0.98	-1.0251	-0.1881	-0.3623
-0.0061	0.164	9.79	-0.1646	0.125	-0.0756	-0.0294	0.4248	-0.6859	4.696	2.5535	8.4192	-0.1931	0.021	0.0171	-0.3201	-0.8018	-1.5325	9.3011	1.1925	-0.1938	-0.6384	1.0332	-1.0038	-0.9389	-0.1514	-0.396
0.3414	-0.2415	10.081	-0.1069	0.1884	-0.2598	-0.0859	0.4056	-0.6474	3.9938	2.6144	8.6929	0.0497	-0.104	-0.1078	-0.2962	-0.8033	-1.5148	9.3592	0.962	-0.1937	-0.3317	0.8824	-1.0413	-1.0082	-0.1516	-0.3802
0.1043	0.2214	9.6211	-0.2886	0.1567	-0.1024	-0.0465	0.3922	-0.6995	4.5241	2.3209	8.6446	-0.3743	-0.131	0.1435	-0.3194	-0.8635	-1.5452	9.2397	1.4799	-0.3646	-0.3003	0.9133	-1.0419	-1.026	-0.1873	-0.3976
0.6167	0.1049	9.6308	-0.2246	0.1247	-0.0128	-0.0086	0.3839	-0.6456	4.2804	2.3202	8.2385	-0.2543	-0.0716	-0.0125	-0.3389	-0.8218	-1.5341	9.5868	1.3642	-0.1879	-0.3015	0.883	-1.0727	-1.0077	-0.1881	-0.3618
0.05	-0.1842	9.733	-0.0396	0.2175	-0.1086	-0.0648	0.371	-0.6612	4.2188	2.4952	8.1232	-0.16	-0.069	0.2028	-0.3389	-0.8218	-1.5341	9.3605	1.4809	-0.0207	-0.358	0.9102	-0.8564	-0.9911	-0.2055	-0.3963
0.1649	-0.1262	9.7925	-0.133	0.1558	-0.0761	-0.1076	0.4644	-0.6898	4.2253	2.0871	8.4089	-0.039	0.0531	0.1389	-0.3714	-0.7982	-1.5829	9.53	1.8254	-0.0731	-0.5175	0.7262	-0.9454	-1.0247	-0.1523	-0.3454
0.0496	0.2798	9.7343	-0.1247	0.1842	0.1684	-0.0494	0.4436	-0.6879	4.3422	2.5543	8.4125	-0.4664	-0.039	0.1127	-0.3237	-0.8011	-1.5476	9.4161	1.365	-0.134	-0.3311	0.7271	-0.9187	-0.9736	-0.2416	-0.395
-0.0626	-0.3	9.7875	-0.2777	0.3399	0.1132	-0.1048	0.4108	-0.6833	4.1713	2.3803	8.6955	-0.1927	0.0214	0.048	-0.3273	-0.8005	-1.5628	9.8172	1.0179	-0.1851	-0.3927	0.6955	-0.8867	-1.0251	-0.17	-0.3626
-0.1244	0.1635	9.5594	-0.2555	0.2493	-0.1023	-0.0484	0.4279	-0.7038	4.4035	2.4961	8.5282	-0.2832	-0.07	0.1113	-0.3578	-0.8418	-1.5358	9.6427	1.4789	-0.2433	-0.5113	0.6604	-0.6384	-0.9544	-0.207	-0.3248
-0.287	-0.1832	9.9547	-0.4109	0.219	-0.0983	0.0108	0.3914	-0.7177	3.9397	1.9724	8.862	-0.1017	-0.1026	-0.0137	-0.3128	-0.8207	-1.5899	10.3855	1.6486	-0.286	-0.4412	1.0894	-0.5471	-0.9906	-0.2239	-0.3782
0.1661	-0.126	9.8496	-0.1594	0.1856	0.0472	-0.0858	0.4077	-0.6654	4.4625	2.4959	8.5293	0.0224	-0.3165	0.1103	-0.2656	-0.7619	-1.5419	9.363	1.3662	0.0928	-0.4202	0.7861	-0.7938	-1.0246	-0.1884	-0.3446
-0.2985	0.1051	9.3845	-0.1943	0.2181	-0.1043	-0.0093	0.4081	-0.7018	4.2804	2.3202	8.2385	-0.0714	-0.1953	-0.0442	-0.3173	-0.8434	-1.5308	9.7601	2.1129	0.0462	-0.5358	0.9659	-0.5453	-0.9723	-0.2247	-0.3425
0.0509	0.106	9.7909	-0.1304	0.1861	-0.0147	-0.0095	0.4039	-0.6658	4.4045	2.5547	8.5858	-0.0713	-0.2261	-0.044	-0.2695	-0.8463	-1.4956	9.701	1.4789	-0.1853	-0.599	0.8733	-0.5441	-0.9898	-0.1885	-0.3437
-0.3508	0.0479	9.6116	-0.1617	0.2486	-0.0743	-0.0466	0.3901	-0.6815	4.0555	2.3809	8.8081	0.0804	-0.2271	-0.1071	-0.2817	-0.8235	-1.5419	9.2353	1.2484	-0.6503	-0.4743	0.6879	-0.3934	-0.9907	-0.1697	-0.3794
0.1127	-0.2995	10.0193	-0.2279	0.188	-0.1648	-0.0304	0.4406	-0.67	3.7557	2.147	8.5149	-0.0088	-0.1938	0.0788	-0.2636	-0.8444	-1.5538	9.701	1.4789	-0.1853	-0.403	0.9923	-0.1794	-1.0256	-0.1696	-0.3803
0.1649	-0.1262	9.7925	-0.4059	0.3107	-0.0058	-0.0293	0.427	-0.7039	4.5191	2.5539	8.4158	-0.2547	-0.072	-0.0434	-0.3454	-0.7796	-1.5509	9.465	1.3629	-0.5887	-0.6541	0.6519	-0.1131	-0.9912	-0.1693	-0.397
0.1628	-0.1845	9.6781	-0.4107	0.1878	-0.0681	-0.0066	0.3503	-0.6593	4.1628	2.6712	8.2948	-0.0404	-0.2257	-0.0134	-0.3215	-0.781	-1.5333	9.5317	1.3649	-0.075	-0.5328	0.7782	-0.2999	-0.9908	-0.1516	-0.3798
-0.1721	-0.1252	10.0142	-0.5297	0.3112	-0.0023	-0.0664	0.4131	-0.7195	4.5832	2.2623	8.6456	0.204	-0.1949	0.015	-0.2934	-0.8448	-1.5132	9.7045	1.6526	0.0433	-0.5584	0.8986	-0.1455	-0.9902	-0.2062	-0.361
0.3346	-0.1845	9.7386	-0.7461	0.2809	0.0339	-0.1057	0.4308	-0.7035	4.3397	2.6708	8.2981	0.2338	-0.2573	-0.0466	-0.297	-0.8441	-1.5284	9.7022	1.1335	-0.1867	-0.533	0.8093	-0.3305	-1.025	-0.2242	-0.3615
-0.0025	-0.1255	9.9604	-0.4041	0.3101	0.0553	-0.0474	0.4122	-0.7196	4.3975	2.2029	8.183	0.0829	-0.0705	0.1079	-0.3245	-0.842	-1.5612	9.8132	1.5356	-0.2969	-0.8142	0.9327	-0.5087	-0.9558	-0.1878	-0.3781
-0.0133	-0.5332	9.3883	-0.3508	0.0637	-0.0405	-0.0646	0.3774	-0.7152	4.518	2.5537	8.3585	0.0215	-0.0708	0.0776	-0.2759	-0.804	-1.5124	9.5223	1.3627	-0.5877	-0.9093	0.6237	-0.4149	-1.0076	-0.2062	-0.3614
-0.0728	-0.1275	9.2742	-0.4674	0.2486	0.0564	-0.0474	0.4122	-0.7196	4.5198	2.2617	8.4149	0.0804	-0.0114	-0.0779	-0.3628	-0.8203	-1.5518	9.3607	1.4233	-0.0209	-0.9089	0.6544	-0.4149	-1.043	-0.1877	-0.3804
0.4504	0.1058	9.8559	-0.3424	0.341	0.0234	0.0089	0.425	-0.7041	4.1685	2.146	8.5227	-0.1005	-0.1014	0.0789	-0.3187	-0.8226	-1.5317	9.9327	1.882	0.0484	-1.0956	0.6846	-0.4723	-1.0081	-0.2058	-0.3791
-0.4076	-0.1261	9.61	-0.4063	0.2174	0.0543	-0.0464	0.3943	-0.7175	4.1002	2.7876	8.1219	0.0193	0.0195	-0.0775	-0.3048	-0.7811	-1.546	10.0379	1.3033	-0.5785	-0.8789	0.5314	-0.385	-0.9907	-0.1697	-0.3794
0.1607	-0.3589	9.5634	-0.6281	0.1578	-0.0624	-0.0494	0.4436	-0.6879	4.228	2.8474	8.6407	0.1741	-0.1018	0.0764	-0.3179	-0.7817	-1.5181	9.9365	1.1338	0.1023	-0.8127	0.8389	-0.386	-0.9548	-0.2247	-0.342
0.1011	0.0469	9.4493	-0.6555	0.1878	0.0304	-0.0092	0.4103	-0.7198	4.2843	2.5546	8.4688	0.4452	-0.1365	-0.2039	-0.3078	-0.8421	-1.5739	10.1597	1.0164	-0.2358	-0.8454	0.7158	-0.3854	-1.0081	-0.1877	-0.3795
0.0522	-0.1259	9.8474	-0.5638	0.219	-0.033	-0.0075	0.3703	-0.6795	4.3976	2.6705	8.2418	0.1425	-0.1337	-0.0158	-0.2795	-0.8034	-1.5275	9.6393	1.8238	-0.3558	-0.698	0.5977	-0.6345	-1.0082	-0.1516	-0.3802
0.1115	-0.2996	9.9622	-0.5931	0.2497	-0.0013	-0.0466	0.3901	-0.6815	4.6924	2.6698	8.2474	0.0797	-0.0429	-0.1394	-0.3447	-0.8412	-1.5636	9.652	1.481	0.2694	-0.5377	0.9361	-0.6067	-1.0076	-0.2062	-0.3614
0.1026	-0.301	9.5054	-0.6898	0.1268	-0.0305	-0.0274	0.3912	-0.6995	4.5749	2.4948	8.2446	0.2329	-0.1965	-0.1088	-0.3614	-0.8411	-1.5509	9.8134	1.478	-0.2972	-0.4495	0.5061	-0.5478	-1.0081	-0.2239	-0.3787
-0.0706	-0.1271	9.3883	-0.4068	0.1554	0.0842	-0.0113	0.4417	-0.6881	4.1041	3.0221	8.3521	-0.133	-0.1034	-0.0752	-0.3056	-0.822	-1.5595	9.5877	1.422	-0.1307	-0.4123	0.5954	-0.3334	-0.9902	-0.2243	-0.3606
0.1641	-0.4164	9.7346	-0.3489	0.0631	0.0205	-0.0484	0.4279	-0.7038	3.8713	2.6724	8.4614	0.2638	0.0196	-0.0489	-0.2984	-0.8234	-1.5292	9.817	1.6517	-0.0686	-0.5649	0.9955	-0.4832	-0.9888	-0.1892	-0.3084
-0.064	-0.0101	9.7313	-0.4987	0.1554	0.1173	-0.0293	0.427	-0.7039	4.2224	2.3789	8.295	0.1701	0.11	-0.2032	-0.2962	-0.8033	-1.5148	9.3553	2.0559	-0.1892	-0.3502	0.6577	-0.3654	-1.0077	-0.17	-0.3622
-0.0044	-0.4159	9.8454	-0.4633	0.1849	0.2389	-0.0845	0.3984	-0.7353	4.2882	2.789	8.699	-0.1938	0.1744	-0.015	-0.3084	-0.7805	-1.5612	9.6991	1.709	-0.2413	-0.5368	0.5949	-0.3615	-1.0425	-0.188	-0.3627
0.2711	-0.3015	9.3946	-0.6241	0.1253	0.0899	-0.0492	0.4479	-0.7239	4.3379	2.4951	8.1828	0.0806	0.2663	-0.0182	-0.3281	-0.8413	-1.5763	9.7049	1.2493	-0.0154	-0.499	0.7767	-0.1777	-0.9728	-0.1701	-0.3613
0.0458	-0.4169	9.5039	-0.711	0.2171	0.2156	-0.0492	0.4479	-0.7239	3.9848	2.6714	8.2341	0.0206	0.1749	0.0448	-0.3237	-0.8011	-1.5476	9.3609	1.0776	-0.0793	-0.4351	0.9618	-0.2095	-1.0067	-0.1888	-0.3265
0.1027	-0.417	9.5051	-0.6884	0.0641	0.0605	-0.0675	0.4289	-0.7037	4.3989	2.5538	8.2989	-0.1317	0.0213	0.0474	-0.3281	-0.8413	-1.5763	9.6351	1.8229	-0.5837	-0.4373	0.8083	-0.2097	-1.0072	-0.1704	-0.3445
-0.2965	0.4535	9.4997	-0.838	0.2809	0.067	-0.0093	0.4081	-0.7018	4.2867	2.0289	8.5245	-0.4373	0.0828	0.0189	-0.2803	-0.8443	-1.5411	9.6976	1.2477	-0.4141	-0.6542	0.7449	-0.1744	-0.9728	-0.2062	-0.3605
0.0525	-0.4159	9.8465	-0.6253	0.1568	0.0292	-0.0486	0.4237	-0.6678	3.9314	2.6724	8.5199	0.1404	0.1108	-0.1411	-0.2419	-0.8659	-1.5505	9.8111	1.247	-0.469	-0.3428	0.777	-0.1196	-0.9921	-0.1686	-0.4323
0.1061	-0.4165	9.6763	-0.3447	0.1239	0.1127	-0.0473	0.4143	-0.7376	4.1665	2.4964	8.4664	0.1381	0.0776	-0.3262	-0.3309	-0.7998	-1.578	9.8213	1.3069	0.1009	-0.467	0.7454	-0.117	-0.9898	-0.1704	-0.3441
0.2745	-0.359	9.5657	-0.288	0.0631	-0.0117	-0.0092	0.4103	-0.7198	4.4559	2.4364	8.1848	-0.0128	0.2337	-0.1715	-0.3397	-0.8627	-1.5476	9.8176	1.479	-0.0693	-0.494	0.7736	0.0373	-0.9714	-0.2073	-0.3076
0.1024	-0.0689	9.5061	-0.4981	0.0618	0.208	-0.0094	0.406	-0.6838	4.3967	2.5534	8.1841	0.2608	0.109	-0.2658	-0.302	-0.8227	-1.5444	9.9246	1.5345	-0.4657	-0.5865	0.6489	0.1312	-1.0425	-0.2242	-0.362
-0.0046	-0.2419	9.8459	-0.4432	0.0017	0.0225	-0.0674	0.431	-0.7217	4.5212	2.6127	8.5308	-0.0095	0.1753	0.076	-0.2962	-0.8033	-1.5148	9.8172	1.8822	-0.0107	-1.019	0.8619	0.0486	-0.9737	-0.1874	-0.3962
0.1024	-0.127	9.5059	-0.3784	0.125	0.022	-0.1046	0.4151	-0.7193	3.8675	2.3795	8.2309	-0.1958	0.2031	-0.1696	-0.265	-0.8236	-1.5546	9.7053	1.4223	0.0423	-0.8326	0.708	0.1673	-1.0081	-0.1877	-0.3795
0.2742	-0.0689	9.5665	-0.6843	0.1561	0.1225	-0.0664	0.4131	-0.7195	3.9313	2.7309	8.52	0.0176	0.2951	-0.1723	-0.3397	-0.8627	-1.5476	9.8136	1.4204	-0.2974	-0.8428	0.4974	-0.14	-0.9727	-0.2243	-0.3601
0.1636	0.1057	9.7361	-0.6841	0.125	0.1527	-0.07	0.4889	-0.7641	4.1638	2.7298	8.3523	-0.2225	0.2687	0.139	-0.2817	-0.8235	-1.5419	10.1029	1.1896	-0.1792	-0.8361	0.6172	0.075	-1.0425	-0.188	-0.3627
-0.2422	-0.3592	9.3272	-0.6284	0.0645	-0.0023	-0.0685	0.4446	-0.6878	4.5808	2.3204	8.531	-0.1632	0.1436	-0.015	-0.2628	-0.8035	-1.5403	9.6458	1.1915	-0.1306	-1.0281	0.5268	-0.1361	-1.0085	-0.2235	-0.3963
-0.1194	-0.3579	9.7862	-0.6829	0.2179	0.1231	-0.0667	0.4068	-0.6655	4.0417	2.6125	8.1202	-0.2537	0.2372	0.0778	-0.3042	-0.8428	-1.5587	9.8182	1.3062	-0.07	-0.5572	0.6811	0.0385	-0.9898	-0.1885	-0.3437
-0.1252	-0.1267	9.5014	-0.4121	-0.0297	0.0518	-0.0103	0.4239	-0.686	4.2852	2.6716	8.5265	-0.7127	0.2981	-0.0111	-0.2775	-0.8858	-1.5394	9.7072	1.1922	0.0983	-0.6249	0.5293	-0.1139	-0.9906	-0.2239	-0.3782
-0.0112	-0.3589	9.503	-0.6483	0.0921	0.3347	-0.0483	0.43	-0.7218	4.2881	2.8474	8.6992	0.1123	0.0825	0.0447	-0.3173	-0.8434	-1.5308	9.5354	1.481	0.1534	-0.3088	0.8373	-0.028	-1.009	-0.2051	-0.4144
-0.1252	-0.1847	9.5012	-0.5889	0.186	0.1813	-0.0655	0.3953	-0.7174	3.924	2.4959	8.1176	-0.1658	0.2335	-0.201	-0.3137	-0.844	-1.5157	9.989	1.0173	-0.182	-0.2774	0.8682	-0.0287	-0.9903	-0.152	-0.3621
-0.2933	-0.5903	9.6109	-0.7174	0.1881	0.0321	-0.0827	0.3605	-0.7129	4.5167	2.6119	8.3013	-0.0118	0.1422	-0.1091	-0.2845	-0.7819	-1.5435	9.5223	1.3627	-0.5877	-0.3399	0.93	-0.0887	-1.0255	-0.2238	-0.3791
-0.1796	-0.4744	9.6135	-0.528	0.1861	0.149	-0.0665	0.411	-0.7015	4.167	2.7887	8.5247	-0.0433	0.2337	-0.1712	-0.3042	-0.8428	-1.5587	9.3013	1.1349	-0.194	-0.3717	0.8684	-0.0881	-0.9902	-0.1881	-0.3614
0.3322	0.0472	9.6251	-0.4675	0.1241	0.1467	-0.0875	0.4477	-0.7057	4.2791	2.9044	8.2403	-0.1621	0.1755	0.0774	-0.2586	-0.8658	-1.5378	9.8176	1.7671	-0.0111	-0.2805	0.9011	-0.1822	-1.0072	-0.2065	-0.3438
0.1569	0.0467	9.3933	-0.472	0.0944	0.0243	-0.0666	0.4089	-0.6835	4.3422	2.0867	8.3537	0.1106	0.1424	-0.0793	-0.3251	-0.7803	-1.5485	9.8199	1.9981	0.1607	-0.3823	0.8749	-0.5487	-0.9907	-0.2058	-0.3786
0.3348	-0.4165	9.7379	-0.4387	0.1558	0.0546	-0.0646	0.3753	-0.6972	4.1044	2.4376	8.2929	-0.1023	0.1742	-0.0158	-0.2817	-0.8235	-1.5419	9.7597	1.3638	-0.1278	-0.3766	1.0263	-0.395	-1.0426	-0.17	-0.3631
0.1059	-0.2425	9.6768	-0.6934	-0.0276	-0.032	-0.0274	0.3912	-0.6995	4.2256	2.4379	8.4673	-0.1056	0.2326	-0.2633	-0.3404	-0.801	-1.5349	9.9234	1.3037	-0.5806	-0.4407	0.8723	-0.3938	-1.0076	-0.2062	-0.3614
0.5045	-0.4169	9.6842	-0.7461	0.0007	0.2447	-0.0292	0.4291	-0.7219	4.3389	3.0213	8.2992	-0.1016	0.4215	0.075	-0.3447	-0.8412	-1.5636	9.7102	1.2505	0.2695	-0.3756	0.7469	-0.1804	-1.0435	-0.1873	-0.398
-0.0607	0.0484	9.9027	-0.7829	0.0339	0.0322	-0.0285	0.407	-0.6837	4.5839	2.9054	8.7623	-0.0717	0.3592	0.0134	-0.3209	-0.8427	-1.546	9.7026	1.5945	-0.0709	-0.6227	0.6828	-0.1137	-0.9733	-0.1878	-0.3785
-0.1159	-0.5315	9.957	-0.9065	0.0032	0.0659	-0.0487	0.4215	-0.6498	4.3928	2.7866	8.0127	-0.562	0.4193	-0.1369	-0.3758	-0.8384	-1.6116	9.7066	1.3649	0.099	-0.6829	0.6503	-0.0203	-1.0269	-0.2047	-0.4325
-0.1731	-0.1833	9.9569	-0.6221	-0.031	0.2715	-0.0835	0.3805	-0.7331	4.3435	2.9636	8.5285	-0.3147	0.4222	0.1078	-0.3636	-0.8612	-1.5653	9.9357	1.076	0.0451	-0.9393	0.4371	-0.261	-0.9907	-0.1878	-0.379
0.1587	-0.5913	9.4486	-0.5968	-0.0292	0.0875	-0.0074	0.3724	-0.6975	4.5248	2.4963	8.7026	-0.651	0.3603	0.0496	-0.299	-0.7617	-1.5165	9.7051	1.1917	-0.0156	-0.6797	0.6793	0.1025	-0.9897	-0.2066	-0.3433
0.4496	-0.2425	9.7978	-0.4735	0.0327	0.0236	-0.0666	0.4089	-0.6835	4.2231	2.0868	8.2941	-0.5286	0.3606	0.0794	-0.3137	-0.844	-1.5157	9.7037	1.8829	0.0442	-0.5908	0.6515	-0.053	-0.9916	-0.2051	-0.4139
-0.1854	-0.2432	9.3287	-0.4683	0.0932	0.1464	-0.0081	0.3967	-0.7536	4.5775	2.7874	8.4177	-0.0401	0.2061	0.076	-0.2962	-0.8033	-1.5148	9.8136	1.4204	-0.2974	-0.5903	0.6822	-0.053	-1.0265	-0.1689	-0.4156
-0.0634	-0.6482	9.7294	-0.319	-0.0612	0.0795	-0.0303	0.4427	-0.688	3.9873	2.5549	8.3485	-0.2866	0.2041	-0.107	-0.3323	-0.779	-1.5788	9.591	1.3651	0.04	-0.2784	0.745	0.0019	-0.9722	-0.2788	-0.3413
0.5054	-0.1847	9.7419	-0.2212	0.0301	0.1694	-0.0464	0.3943	-0.7175	3.9235	2.7296	8.1184	0.0501	-0.1036	-0.0769	-0.2745	-0.8248	-1.5116	9.6393	1.5357	-0.414	-0.1513	0.9297	0.0302	-0.9722	-0.2427	-0.3421
-0.1204	-0.4741	9.7288	-0.4053	0.2171	0.0849	-0.0456	0.3743	-0.6973	4.4078	2.5552	8.7579	-0.2845	0.1445	0.0479	-0.2984	-0.8234	-1.5292	9.3578	1.365	-0.192	-0.1845	0.8689	-0.0306	-0.9732	-0.2059	-0.3782
0.0581	-0.4151	10.132	-0.4112	0.2502	-0.1285	-0.0294	0.4248	-0.6859	4.3433	2.5545	8.4699	-0.1322	0.0824	0.016	-0.3006	-0.8435	-1.5435	9.4157	1.4802	-0.1336	-0.178	0.9268	0.2151	-0.9912	-0.1874	-0.3966
0.2745	-0.359	9.5657	-0.348	0.0628	0.0511	-0.0474	0.4101	-0.7016	3.9349	2.6145	8.6918	-0.0718	0.205	-0.0163	-0.3476	-0.7997	-1.5653	9.9294	1.3627	-0.2386	-0.1128	0.9562	0.3366	-0.9901	-0.2423	-0.3602
-0.4096	-0.3585	9.4951	-0.348	0.0628	0.0511	-0.0291	0.4312	-0.7399	3.9894	2.6137	8.4634	-0.3128	0.2393	0.2327	-0.3042	-0.8428	-1.5587	9.6995	1.8819	-0.1837	-0.0542	1.0207	0.1511	-0.9926	-0.1682	-0.4499
-0.1205	-0.4161	9.729	-0.3804	0.2812	-0.1596	0.0099	0.4093	-0.7199	3.8135	2.6727	8.5176	-0.4661	0.2079	0.1726	-0.3686	-0.8398	-1.5813	9.0714	1.3661	-0.1973	-0.3712	0.8061	-0.0268	-0.9545	-0.1347	-0.3263
0.333	0.3374	9.683	-0.4118	0.0636	-0.0083	-0.0467	0.3879	-0.6635	4.165	2.2039	8.3507	-0.3753	-0.0088	0.0808	-0.3266	-0.8621	-1.5755	9.5296	1.0763	-0.2471	-0.4013	0.7125	0.0659	-0.9737	-0.1874	-0.3962
-0.0116	0.0472	9.5042	-0.3501	0.0946	-0.0402	-0.0093	0.4081	-0.7018	3.9244	2.3206	8.1171	-0.4059	0.2378	0.1101	-0.2578	-0.8249	-1.5243	9.3599	1.3655	-0.0781	-0.5906	0.7133	-0.0837	-1.0085	-0.2235	-0.3963
-0.0663	0.0476	9.6172	-0.4073	0.0933	0.1141	-0.0474	0.4101	-0.7016	4.515	2.3779	8.1858	-0.1933	0.1132	0.0164	-0.3237	-0.8011	-1.5476	9.7607	1.9402	0.0455	-0.7437	0.6802	0.0117	-0.9724	-0.1705	-0.3436
0.3348	-0.3585	9.7381	-0.3804	0.0011	0.0513	-0.0495	0.4415	-0.6699	3.9316	3.0816	8.5785	-0.2254	0.1117	-0.1069	-0.2984	-0.8234	-1.5292	9.7099	1.3081	0.2697	-0.4957	0.8057	-0.0548	-0.9897	-0.2066	-0.3433
0.2108	-0.2439	9.2223	-0.4701	0.0938	0.0853	-0.0275	0.3891	-0.6815	4.4063	2.2627	8.6422	-0.2218	0.1153	0.1711	-0.3636	-0.8612	-1.5653	9.9858	1.3047	-0.2947	-0.2222	0.7489	-0.2451	-0.9727	-0.2424	-0.3598
0.3867	0.1628	9.5123	-0.4422	0.1258	-0.0373	-0.0446	0.3565	-0.6951	4.049	2.789	8.5224	-0.2827	0.2388	0.2016	-0.3592	-0.821	-1.5366	9.5866	1.1337	-0.2458	-0.3788	0.4702	-0.15	-0.9738	-0.1513	-0.3969
0.2867	-0.2411	10.1941	-0.2822	0.0301	0.2017	-0.0867	0.4277	-0.6856	3.9916	2.1464	8.5193	-0.3146	0.3299	0.1085	-0.3323	-0.779	-1.5788	9.5891	1.5952	-0.016	-0.1252	0.84	-0.1241	-0.9912	-0.1874	-0.3966
0.3892	-0.1269	9.6257	-0.532	0.0941	0.087	-0.0283	0.4112	-0.7197	4.4493	2.4354	7.8406	-0.4361	0.269	0.141	-0.302	-0.8227	-1.5444	9.6447	1.1913	-0.1875	-0.1237	0.8391	-0.0627	-0.9911	-0.2055	-0.3963
-0.3973	-0.3566	10.1232	-0.2162	0.1219	0.262	-0.0304	0.4406	-0.67	4.6324	2.6113	8.1887	-0.496	0.301	0.234	-0.3462	-0.8205	-1.5645	9.1304	1.4815	-0.0818	0.0001	0.84	-0.0653	-0.9736	-0.2416	-0.395
-0.0062	0.2801	9.7903	-0.3397	0.2156	0.2053	-0.0274	0.3912	-0.6995	4.2247	2.3793	8.4097	-0.283	0.2077	0.1709	-0.3237	-0.8011	-1.5476	9.8143	1.2477	-0.2981	0.0004	0.8089	-0.0347	-0.9911	-0.2055	-0.3963
-0.0617	-0.0098	9.8454	-0.415	0.1269	-0.1603	-0.0694	0.4646	-0.708	4.3992	2.4369	8.2985	-0.7701	0.271	0.2676	-0.3454	-0.7796	-1.5509	9.5279	1.2488	-0.3033	-0.0637	0.6549	-0.0335	-1.0237	-0.2072	-0.309
0.3339	-0.5907	9.6803	-0.4714	0.0009	0.1149	-0.0664	0.4131	-0.7195	4.0486	2.9643	8.523	-0.3456	0.4219	0.0772	-0.3144	-0.8849	-1.5292	9.5925	1.5383	0.1546	0.054	0.6286	-0.2819	-0.9728	-0.2062	-0.3605
0.1129	-0.5895	10.0184	-0.6487	0.1545	0.2743	-0.0667	0.4068	-0.6655	4.3988	2.6122	8.299	-0.1336	0.3892	-0.048	-0.3173	-0.8434	-1.5308	9.5873	1.249	-0.1883	-0.0088	0.5668	-0.2806	-1.0071	-0.2246	-0.3434
0.0456	-0.2429	9.5044	-0.5314	0.0005	0.1777	-0.0493	0.4458	-0.7059	4.2817	2.2619	8.2957	-0.3172	0.4813	-0.0779	-0.323	-0.8628	-1.5603	9.5898	1.7106	0.0414	-0.172	0.3231	-0.4925	-1.0071	-0.2246	-0.3434
-0.1786	-0.3582	9.6709	-0.7522	0.065	0.0011	-0.0466	0.3901	-0.6815	4.4663	2.2628	8.7007	0.1413	0.4508	-0.0202	-0.3432	-0.7595	-1.5366	9.8734	1.3056	-0.1829	-0.2909	0.4739	-0.3669	-0.9898	-0.1704	-0.3441
0.2844	-0.1834	10.08	-0.5358	0.0953	-0.0351	-0.0844	0.4005	-0.7533	4.3401	2.4955	8.2976	-0.8914	0.4877	0.3598	-0.2984	-0.8234	-1.5292	9.6464	1.8831	0.0432	-0.0728	0.5676	-0.3714	-1.0077	-0.17	-0.3622
-0.288	-0.2414	9.8974	-0.4964	0.0924	0.2388	-0.0284	0.4091	-0.7017	4.1123	2.3804	8.6944	0.0491	0.3886	-0.0806	-0.3397	-0.8627	-1.5476	9.6495	1.8838	0.2141	0.0525	0.4747	-0.2513	-1.025	-0.2242	-0.3615
0.1631	-0.5906	9.677	-0.3745	0.0925	0.1743	-0.0284	0.4091	-0.7017	4.401	2.6126	8.4138	-0.1634	0.4516	0.0135	-0.3084	-0.7805	-1.5612	9.8174	1.5365	-0.0691	0.1149	0.5058	-0.2526	-0.9907	-0.2058	-0.3786
0.0528	-0.706	9.8457	-0.4371	0.0619	0.1757	-0.0284	0.4091	-0.7017	4.3377	2.5536	8.183	-0.8011	0.5172	0.2661	-0.3592	-0.821	-1.5366	10.1641	1.2479	0.05	0.2732	0.5048	-0.1024	-1.0082	-0.1516	-0.3802
0.2267	-0.5316	10.0208	-0.4722	0.1256	-0.0059	-0.0665	0.411	-0.7015	4.1671	2.7303	8.5245	-0.6494	0.3619	0.1732	-0.3578	-0.8418	-1.5358	9.8703	1.5929	-0.2956	0	0.6852	0.0266	-1.0077	-0.1881	-0.3618
0.1061	-0.4165	9.6763	-0.3801	0.0944	-0.0088	-0.0101	0.4281	-0.722	4.5795	2.9047	8.5328	-0.6782	0.2713	0.2977	-0.3028	-0.8636	-1.5579	9.5904	1.5378	0.0407	0.1867	0.748	0.0227	-1.025	-0.2242	-0.3615
-0.0061	0.2221	9.7901	-0.2847	0.1243	0.05	-0.0092	0.4103	-0.7198	4.3448	2.847	8.5855	-0.7076	0.3033	0.3903	-0.297	-0.8441	-1.5284	9.817	1.3636	-0.1267	-0.1783	0.8031	0.2763	-0.9737	-0.1694	-0.3966
-0.0661	-0.0684	9.6169	-0.468	0.062	0.1766	-0.0635	0.3617	-0.731	4.402	2.6712	8.4714	-0.4666	0.269	0.1413	-0.3187	-0.8226	-1.5317	9.3597	1.135	-0.136	-0.2087	0.7406	0.3383	-1.0072	-0.2065	-0.3438
-0.0044	-0.4739	9.8452	-0.622	0.0935	0.1812	-0.0103	0.4239	-0.686	3.9305	2.5554	8.4621	-0.4961	0.1468	0.2043	-0.3504	-0.7581	-1.5669	9.9325	1.3634	-0.0677	-0.2687	1.0796	0.2172	-0.9732	-0.2059	-0.3782
0.339	-0.1258	9.9671	-0.5636	0.1878	-0.0027	-0.0676	0.4267	-0.6857	4.1653	2.5547	8.4092	-0.3766	0.2673	0.0169	-0.3209	-0.8427	-1.546	9.8253	1.0774	0.2709	-0.217	0.5599	0.0925	-1.0256	-0.1696	-0.3803
0.1055	0.1636	9.678	-0.3787	0.0317	0.0821	-0.0686	0.4425	-0.6698	4.0483	2.6136	8.4645	-0.3782	0.2349	-0.1064	-0.344	-0.8003	-1.5501	9.9355	1.1336	0.0453	-0.3435	0.7774	-0.1503	-1.0256	-0.1696	-0.3803
0.1114	-0.1836	9.9625	-0.4347	0.1234	0.2069	-0.0285	0.407	-0.6837	4.4622	2.1452	8.4709	-0.4066	0.3912	0.078	-0.297	-0.8441	-1.5284	9.8168	1.4211	-0.1265	-0.1495	0.8047	0.1836	-1.0082	-0.1697	-0.3798
0.1582	-0.1272	9.4499	-0.3449	0.1551	0.0825	-0.012	0.4639	-0.7263	4.283	2.6713	8.4118	-0.5283	0.3917	0.11	-0.307	-0.8012	-1.5604	9.591	1.3651	0.04	-0.0858	0.6802	0.3356	-1.0238	-0.153	-0.3101
0.4485	-0.1846	9.7408	-0.3782	0.0938	0.0522	-0.0483	0.43	-0.7218	4.1646	2.8468	8.4101	-0.6794	0.3009	0.2048	-0.3671	-0.758	-1.5542	9.9321	0.9023	-0.1835	-0.2657	0.7371	0.5546	-0.9903	-0.152	-0.3621
0.1123	0.0486	10.0203	-0.3788	0.3118	-0.1287	-0.0477	0.4037	-0.6476	4.4593	2.437	8.357	-0.6798	0.3005	0.1739	-0.3411	-0.8419	-1.5485	9.7012	1.4213	-0.1855	-0.4298	0.432	0.3426	-1.0063	-0.1892	-0.3089
0.2803	-0.5902	9.8505	-0.1279	0.0919	0.137	-0.0474	0.4122	-0.7196	4.2798	2.6123	8.2394	-0.5587	0.1761	0.0811	-0.3034	-0.8019	-1.5452	9.7003	1.6516	-0.1846	-0.4586	0.5853	0.3434	-1.0076	-0.2062	-0.3614
0.3983	-0.1836	10.0823	-0.3163	0.0935	0.0505	-0.0685	0.4446	-0.6878	4.5159	2.4949	8.2435	-0.4973	0.3921	0.1406	-0.3151	-0.8233	-1.5165	9.7536	1.5929	-0.4117	-0.6818	0.4328	0.1636	-0.9902	-0.2243	-0.3606
-0.0644	-0.7064	9.6721	-0.3182	0.0941	-0.0105	-0.0684	0.4467	-0.7058	4.0479	2.7888	8.4651	-0.6493	0.0847	0.1444	-0.2956	-0.8649	-1.5275	9.8128	1.3626	-0.3546	-0.9857	0.6748	0.2626	-1.026	-0.2235	-0.3968
0.3284	-0.7076	9.3945	-0.3168	0.1559	-0.0099	-0.0694	0.4646	-0.708	3.9912	2.7893	8.5787	-0.4965	0.1464	0.1734	-0.3462	-0.8205	-1.5645	9.3519	1.2485	-0.5343	-0.8936	0.5211	0.3219	-0.9898	-0.1885	-0.3437
0.2789	-0.3003	9.7942	-0.3783	0.2494	-0.0683	-0.0667	0.4068	-0.6655	4.3382	2.3783	8.1824	-0.434	0.2095	0.2959	-0.2558	-0.9074	-1.5361	9.9319	1.248	-0.1251	-0.623	0.5591	-0.0525	-0.9558	-0.1698	-0.3785
0.2242	-0.2419	9.9075	-0.3182	0.0941	-0.0105	-0.0475	0.4079	-0.6836	4.5114	2.4942	8.014	-0.2532	0.176	0.1091	-0.2542	-0.8256	-1.5091	9.4125	1.4795	-0.3045	-0.4384	0.5302	-0.0872	-0.9553	-0.1882	-0.3604
0.2826	-0.5898	9.9647	-0.253	0.155	0.0494	-0.0474	0.4122	-0.7196	4.2243	3.0221	8.4691	-0.2546	0.0822	-0.0137	-0.3325	-0.864	-1.5173	9.4675	1.5364	-0.4171	-0.1866	0.6224	0.0305	-1.0081	-0.2058	-0.3791
0.0023	-0.4149	10.188	-0.4088	0.0315	0.1135	-0.0486	0.4237	-0.6678	4.097	2.2611	7.8907	-0.2212	0.2084	0.2321	-0.3281	-0.8413	-1.5763	9.5321	1.8259	0.0408	0.1232	0.8414	-0.0987	-0.9897	-0.2246	-0.3429
-0.1147	-0.5893	10.0139	-0.3136	0.2483	0.0216	-0.0474	0.4122	-0.7196	4.454	2.7868	8.1285	-0.4364	0.2071	0.1106	-0.3476	-0.7997	-1.5653	9.5816	1.6511	-0.4146	0.1584	0.839	0.0849	-0.9728	-0.1882	-0.3609
0.1583	-0.1852	9.4498	-0.1332	0.187	-0.1063	-0.0463	0.3965	-0.7355	4.401	2.6126	8.4138	-0.5236	0.0574	0.4214	-0.3187	-0.8226	-1.5317	9.3057	1.0783	0.0336	0.0965	0.8385	0.0862	-1.0081	-0.2058	-0.3791
0.0511	-0.1261	9.7903	-0.0052	0.1229	0.0728	-0.0685	0.4446	-0.6878	4.4077	2.146	8.6993	-0.6165	0.1486	0.3289	-0.3389	-0.8218	-1.5341	9.8153	1.248	-0.2411	0.0052	0.744	0.2109	-1.027	-0.1866	-0.4328
0.1075	-0.7064	9.7326	-0.1557	0.1843	0.1693	-0.0474	0.4101	-0.7016	4.639	2.6708	8.5332	-0.8002	0.2407	0.299	-0.2948	-0.824	-1.514	9.8128	1.3626	-0.3546	-0.3372	0.8665	0.0648	-0.9907	-0.2058	-0.3786
0.2735	-0.4752	9.5082	-0.2575	0.1254	-0.073	-0.0856	0.412	-0.7014	3.6894	2.4382	8.1704	-0.7409	0.1463	0.1448	-0.3151	-0.8233	-1.5165	9.5306	1.3646	-0.132	-0.4333	0.9916	-0.1481	-1.0251	-0.1881	-0.3623
0.1641	-0.4164	9.7346	-0.3177	0.1562	-0.0404	-0.0285	0.4048	-0.6657	4.4597	2.7293	8.4153	-0.4962	0.2391	0.2036	-0.3173	-0.8434	-1.5308	9.8759	1.479	-0.0113	-0.8765	0.6538	-0.3542	-0.9893	-0.1889	-0.3261
0.1695	-0.2415	10.0205	-0.2608	0.0642	-0.1347	-0.0304	0.4406	-0.67	4.4608	2.7295	8.4726	-0.6793	0.0544	0.1758	-0.302	-0.8227	-1.5444	9.4698	1.4793	-0.3034	-0.9664	0.5584	-0.168	-0.9727	-0.2424	-0.3598
0.1076	0.28	9.7926	-0.1989	0.064	-0.1364	-0.0472	0.4165	-0.7556	4.5785	2.3784	8.4164	-0.438	0.0512	-0.0426	-0.3209	-0.8427	-1.546	9.8803	1.7105	0.2745	-0.8731	0.7446	-0.2619	-0.9908	-0.1336	-0.3801
-0.1754	-0.1257	9.8429	-0.3198	0.188	-0.1317	-0.0453	0.3807	-0.7513	4.2837	2.8467	8.4697	-0.346	0.2057	0.0171	-0.3686	-0.8398	-1.5813	9.8207	0.9035	-0.0147	-1.0943	0.5289	-0.319	-1.0077	-0.1881	-0.3618
0.1072	-0.4163	9.7334	-0.3802	-0.0301	0.0815	-0.0665	0.411	-0.7015	4.4013	2.9633	8.4723	-0.7115	0.0836	0.0523	-0.3251	-0.7803	-1.5485	9.7632	1.2493	0.0427	-0.7484	0.6521	-0.1726	-1.0252	-0.152	-0.363
0.2779	-0.3585	9.737	-0.3789	0.1874	-0.0384	-0.0655	0.3953	-0.7174	4.1671	2.7303	8.5245	-0.4644	-0.037	0.2671	-0.3142	-0.7999	-1.5907	9.9346	1.3639	0.0463	-0.4671	0.5905	-0.025	-0.9911	-0.2235	-0.3959
0.2197	-0.2426	9.6791	-0.3483	0.2496	-0.0997	-0.0484	0.4279	-0.7038	4.4056	2.5549	8.6431	-0.6169	0.1174	0.2983	-0.3056	-0.822	-1.5595	10.1089	1.2486	0.1628	-0.281	0.7156	-0.0903	-0.9732	-0.2059	-0.3782
0.2781	-0.6485	9.7361	-0.1595	0.3412	-0.0734	-0.0666	0.4089	-0.6835	4.1641	2.6129	8.352	-0.5266	0.1469	0.2045	-0.3606	-0.8002	-1.5374	9.5873	1.5371	-0.1302	-0.3134	0.7162	-0.151	-1.008	-0.2419	-0.3783
-0.4087	-0.1263	9.5529	-0.163	0.1556	-0.0447	-0.0483	0.43	-0.7218	4.224	2.6714	8.4106	-0.6478	0.1171	0.2677	-0.3194	-0.8635	-1.5452	10.1054	1.0749	-0.0657	-0.2827	0.7476	-0.1823	-0.9727	-0.2243	-0.3601
0.0433	-0.1852	9.3904	-0.0116	0.0938	-0.1107	-0.0474	0.4101	-0.7016	4.5178	2.6121	8.3586	-0.4962	-0.0074	0.1745	-0.2759	-0.804	-1.5124	9.4146	1.1919	-0.2487	-0.6217	0.806	-0.1443	-0.9916	-0.2051	-0.4139
-0.0117	0.1632	9.5045	-0.347	0.1869	-0.0087	-0.0474	0.4122	-0.7196	4.3366	2.5534	8.1256	-0.6782	0.0556	0.2684	-0.3404	-0.801	-1.5349	9.5871	1.3066	-0.1881	-0.594	0.7773	-0.2678	-1.0421	-0.1884	-0.3451
0.3424	-0.1253	10.1384	-0.0959	0.2159	0.0763	-0.0665	0.411	-0.7015	4.5767	2.6704	8.3599	-0.4967	0.0537	0.1432	-0.3397	-0.8627	-1.5476	9.933	1.5363	-0.01	-0.8138	0.8086	-0.4167	-1.0081	-0.1877	-0.3795
0.1575	-0.5334	9.3916	0.0282	0.3087	0.0127	-0.0865	0.432	-0.7216	3.9233	2.788	8.1185	-0.6502	0.1454	0.0822	-0.2831	-0.8027	-1.5427	9.7087	1.3654	0.213	-0.8134	0.6845	-0.3247	-1.0095	-0.2047	-0.432
-0.0079	-0.2424	9.6746	-0.4687	0.1556	0.086	-0.0276	0.387	-0.6635	4.0994	2.6706	8.0641	-0.8012	0.1472	0.2071	-0.265	-0.8236	-1.5546	9.6999	1.4787	-0.2423	-0.7272	0.5654	-0.5418	-0.9902	-0.2062	-0.361
-0.1222	0.2218	9.6737	-0.2787	0.2157	0.173	-0.1068	0.4444	-0.6696	4.4552	2.261	8.1269	-0.4342	0.1475	0.2654	-0.3201	-0.8018	-1.5325	9.5346	1.7112	0.1543	-0.5748	0.599	-0.6679	-0.9898	-0.1885	-0.3437
0.1116	-0.3576	9.962	-0.3803	0.1256	-0.039	-0.0103	0.4239	-0.686	4.521	2.2035	8.4721	-0.3765	0.2058	0.0174	-0.297	-0.8441	-1.5284	9.5843	2.0551	-0.185	-0.4218	0.8799	-0.9165	-0.9907	-0.1878	-0.379
-0.0104	-0.0107	9.5611	-0.3095	0.1846	0.2041	-0.0686	0.4425	-0.6698	4.3973	2.7873	8.2422	-0.5889	-0.0085	0.0828	-0.3092	-0.8213	-1.5747	9.8201	1.3643	0.0442	-0.352	0.7826	-0.5188	-1.0068	-0.1708	-0.3269
0.1717	-0.1832	10.1349	-0.3453	0.2175	0.0221	-0.0647	0.3732	-0.6792	4.4597	2.7293	8.4153	-0.5564	0.1785	0.2663	-0.3201	-0.8018	-1.5325	9.7564	1.4206	-0.2984	-0.2939	0.6616	-0.6123	-0.9911	-0.2055	-0.3963
0.3323	-0.1268	9.6246	-0.222	0.1549	0.0486	-0.0473	0.4143	-0.7376	3.7525	2.5556	8.4014	-0.5884	0.1461	0.1433	-0.2709	-0.8255	-1.4964	9.8151	1.0174	-0.299	-0.2621	0.7232	-0.6129	-0.9544	-0.207	-0.3248
0.0444	-0.1851	9.4475	-0.2598	0.1884	-0.1945	-0.0274	0.3912	-0.6995	4.4578	2.6121	8.3001	-0.5899	0.083	0.0203	-0.2998	-0.8026	-1.53	9.5879	1.3644	-0.1309	-0.1649	0.7213	-0.4307	-0.9898	-0.1524	-0.3445
0.6784	-0.2425	9.8593	-0.3492	0.0943	-0.0097	-0.0285	0.407	-0.6837	4.2814	2.8464	8.3549	-0.6187	0.2389	0.1738	-0.2528	-0.8464	-1.5083	9.6955	1.2472	-0.5281	-0.2583	0.6899	-0.4287	-0.9728	-0.2062	-0.3605
0.1585	-0.4172	9.4491	-0.474	-0.0294	0.0535	-0.0675	0.4289	-0.7037	4.4049	2.847	8.644	-0.313	0.1466	0.2026	-0.3245	-0.842	-1.5612	9.8692	1.5927	-0.3526	-0.5651	0.7789	-0.3606	-1.0255	-0.2238	-0.3791
0.1617	-0.2427	9.6209	-0.5084	0.0652	-0.1278	-0.0501	0.4679	-0.7441	4.3437	2.8468	8.5282	-0.5	0.1428	-0.1045	-0.3353	-0.8225	-1.5189	9.4111	1.3063	-0.4191	-0.4418	0.5943	-0.2713	-0.9892	-0.2431	-0.3249
-0.2258	-0.0086	10.1847	-0.5037	0.0637	0.0248	-0.0274	0.3912	-0.6995	4.0399	2.9044	8.0637	-0.4961	0.1776	0.204	-0.2962	-0.8033	-1.5148	9.6335	1.7073	-0.6981	-0.5956	0.5615	-0.2067	-1.0067	-0.2069	-0.3261
-0.0616	-0.1258	9.8451	-0.5636	0.1878	-0.0027	-0.0274	0.3912	-0.6995	4.5151	2.8455	8.2446	-0.4043	0.2086	0.2338	-0.3462	-0.8205	-1.5645	9.4694	1.3063	-0.3611	-0.6491	0.6488	0.1018	-0.9902	-0.2062	-0.361
0.2241	-0.1839	9.9076	-0.4043	0.0611	0.2359	-0.0677	0.4246	-0.6677	4.2268	2.9056	8.5835	-0.131	0.2686	0.1382	-0.2759	-0.804	-1.5124	9.9371	1.2492	0.1597	-0.3102	0.5904	0.0638	-0.9907	-0.1697	-0.3794
-0.0116	0.0472	9.5042	-0.5925	0.1561	0.0894	-0.0665	0.411	-0.7015	4.4014	2.4373	8.4133	-0.3148	0.2373	0.0783	-0.3389	-0.8218	-1.5341	9.7049	1.2493	-0.0154	-0.3058	0.4948	0.3093	-0.9908	-0.1516	-0.3798
0.3328	-0.5909	9.6232	-0.3128	0.1235	0.1424	-0.0845	0.3984	-0.7353	4.7531	2.3777	8.305	-0.4669	0.2379	0.1106	-0.3404	-0.801	-1.5349	9.9328	1.3058	-0.0679	-0.3402	0.5586	0.1258	-0.9902	-0.2243	-0.3606
-0.0595	-0.0094	9.9596	-0.2492	0.1538	0.1715	-0.0664	0.4153	-0.7375	4.6387	2.7877	8.5335	-0.4054	-0.0391	0.1122	-0.3455	-0.8821	-1.5771	9.9305	1.3629	-0.1816	-0.2453	0.4961	0.2466	-0.9907	-0.2058	-0.3786
0.0476	0.0475	9.6195	-0.1323	0.0622	0.0145	-0.0875	0.4477	-0.7057	4.5171	2.4367	8.3007	-0.5603	0.3594	-0.013	-0.3006	-0.8435	-1.5435	9.8113	1.4775	-0.4111	-0.1554	0.5915	0.0605	-1.0077	-0.152	-0.3626
0.1137	-0.1833	10.0767	-0.3775	0.1247	0.0525	-0.0486	0.4237	-0.6678	4.461	2.671	8.4725	-0.1038	0.1419	-0.1391	-0.294	-0.7832	-1.5005	9.415	1.3648	-0.191	0.0615	0.655	0.0252	-1.0435	-0.1873	-0.398
-0.0091	-0.1845	9.6177	-0.255	0.0312	0.0787	-0.0657	0.391	-0.6814	4.2745	2.4945	7.9522	-0.4674	0.2682	0.0795	-0.3056	-0.822	-1.5595	9.5906	1.4803	0.0405	-0.1905	0.5009	-0.0618	-1.0257	-0.1335	-0.381
0.328	-0.2435	9.3958	-0.3446	0.2484	0.0224	-0.0291	0.4312	-0.7399	4.4016	2.3789	8.4131	-0.466	0.3929	0.2021	-0.3295	-0.8206	-1.5772	9.865	1.5918	-0.5805	-0.0279	0.7451	0.1194	-1.0082	-0.1336	-0.3806
0.2775	0.0476	9.7381	-0.5282	0.2173	0.1188	-0.0465	0.3922	-0.6995	4.168	2.8474	8.5822	-0.2524	0.1768	0.1709	-0.3165	-0.8025	-1.5173	9.6439	1.4215	-0.1866	-0.0327	0.81	-0.1261	-0.9893	-0.2069	-0.3257
0.2243	-0.2999	9.9073	-0.4402	-0.0305	0.1443	-0.0266	0.3712	-0.6794	4.4644	2.6131	8.6444	-0.6168	0.3024	0.3277	-0.3173	-0.8434	-1.5308	9.2478	1.2512	0.0333	0.0011	0.8084	-0.004	-0.9907	-0.1878	-0.379
0.0448	-0.5331	9.4465	-0.747	0.1255	0.1239	-0.1057	0.4287	-0.6855	4.4017	2.788	8.4717	-0.1936	0.2978	0.015	-0.2962	-0.8033	-1.5148	9.934	1.5366	0.047	-0.1548	0.6841	0.0299	-0.9384	-0.1698	-0.378
-0.0522	-0.5885	10.3005	-0.5628	0.063	0.1181	-0.0475	0.4079	-0.6836	4.0496	2.5553	8.5217	-0.1643	0.2966	-0.0779	-0.2948	-0.824	-1.514	9.8082	1.4768	-0.582	-0.2821	0.6853	-0.121	-1.0076	-0.2242	-0.361
0.051	-0.01	9.7906	-0.4402	-0.0305	0.1443	-0.0666	0.4089	-0.6835	4.4601	2.554	8.4147	-0.2259	0.3578	-0.1087	-0.2953	-0.7799	-1.5891	9.8145	1.1901	-0.2983	-0.4382	0.4991	-0.0565	-0.9902	-0.1881	-0.3614
-0.1174	-0.1836	9.9009	-0.5255	0.0919	0.3007	-0.0274	0.3912	-0.6995	4.5155	2.6702	8.2441	0.0226	0.1769	0.1992	-0.2992	-0.8642	-1.5427	9.5212	1.3625	-0.6446	-0.7745	0.7418	-0.0183	-1.0071	-0.2427	-0.343
0.2222	-0.5323	9.7924	-0.6239	0.0941	0.1201	-0.0673	0.4331	-0.7397	4.6887	1.8509	7.958	-0.1034	0.173	-0.1084	-0.3209	-0.8427	-1.546	9.4686	1.2485	-0.4183	-0.4384	0.5302	-0.0872	-0.9897	-0.2066	-0.3433
0.0535	-0.2998	9.9039	-0.6234	0.1562	0.0902	-0.0283	0.4112	-0.7197	4.5835	2.6131	8.704	-0.1335	-0.0422	-0.1065	-0.3411	-0.8419	-1.5485	9.9342	1.479	0.0467	-0.222	0.563	-0.1225	-1.0086	-0.1693	-0.3975
0.1015	-0.3592	9.4481	-0.5301	0.0935	0.1481	-0.0095	0.4039	-0.6658	4.5246	2.5548	8.7027	-0.2522	0.0538	0.1718	-0.3201	-0.8018	-1.5325	10.1533	1.3607	-0.5192	0.0564	0.3484	-0.0058	-0.9903	-0.1701	-0.3617
0.1046	-0.0106	9.6204	-0.5898	0.1864	0.1508	-0.0684	0.4467	-0.7058	4.0452	3.0222	8.351	-0.3722	0.2102	0.357	-0.3143	-0.7824	-1.503	9.4121	1.5946	-0.304	0.1289	0.8379	0.147	-1.0251	-0.1881	-0.3623
0.2801	-0.3581	9.8512	-0.4668	0.155	0.147	-0.0265	0.3734	-0.6974	4.1678	2.9058	8.5824	-0.4962	0.2391	0.2036	-0.3287	-0.7797	-1.5636	9.1914	1.3093	0.0894	0.4655	0.8119	-0.0139	-1.0241	-0.2069	-0.3266
-0.0059	-0.068	9.7893	-0.5006	0.156	0.0563	-0.0474	0.4122	-0.7196	4.6355	2.2611	8.3024	-0.1924	0.299	0.1076	-0.3187	-0.8226	-1.5317	9.6435	0.9605	-0.3024	0.1288	0.9309	0.0857	-0.9911	-0.2235	-0.3959
0.3333	0.0474	9.6822	-0.5958	0.0949	0.0277	-0.0674	0.431	-0.7217	4.3389	2.5537	8.2404	-0.4074	0.2054	-0.0132	-0.2956	-0.8649	-1.5275	9.8161	1.882	-0.0676	0.0667	0.8686	0.1176	-0.9379	-0.1882	-0.36
0.273	0.0469	9.5098	-0.5285	0.124	0.1789	-0.0285	0.4048	-0.6657	3.9862	2.5547	8.2911	-0.4043	0.0544	0.2041	-0.2948	-0.824	-1.514	9.7524	1.3621	-0.5265	-0.3416	0.8072	-0.0888	-0.9911	-0.2235	-0.3959
-0.0079	-0.3004	9.6744	-0.5833	0.1842	0.3645	-0.0309	0.4691	-0.7622	3.987	2.2042	8.29	-0.1649	0.1727	-0.1388	-0.3469	-0.8613	-1.578	10.0414	1.765	-0.2918	-0.2764	0.9915	-0.0592	-0.9553	-0.1882	-0.3604
0.05	-0.1262	9.7332	-0.5015	-0.1238	0.2366	-0.0512	0.4815	-0.7102	4.2775	2.6119	8.1247	-0.0733	0.1726	-0.1396	-0.3042	-0.8428	-1.5587	9.8134	1.478	-0.2972	-0.5894	0.6506	0.0084	-0.9728	-0.1701	-0.3613
0.1058	-0.1264	9.6772	-0.5044	0.0328	0.0245	-0.0839	0.372	-0.6611	4.16	2.4369	8.1219	-0.0729	0.358	-0.0792	-0.2717	-0.8664	-1.5099	10.05	1.4213	0.1055	-0.5868	0.68	0.1005	-0.9898	-0.1885	-0.3437
0.1069	-0.1263	9.7343	-0.6929	0.0345	-0.0619	-0.0283	0.4112	-0.7197	4.0483	2.146	8.4057	-0.1644	0.3581	-0.0784	-0.2998	-0.8026	-1.53	9.9315	1.6513	-0.0665	-0.6253	0.4986	-0.114	-0.9907	-0.1878	-0.379
0.2742	-0.0109	9.5667	-0.6885	-0.0604	0.1508	-0.0466	0.3901	-0.6815	4.2828	2.2621	8.3531	-0.2858	0.2356	-0.0455	-0.3194	-0.8635	-1.5452	9.8653	1.2461	-0.6389	-0.6807	0.7109	0.0411	-1.0076	-0.2242	-0.361
0.2208	-0.1844	9.7364	-0.905	0.065	0.0665	-0.0668	0.4046	-0.6475	4.3967	2.5534	8.1841	-0.224	0.4213	0.0452	-0.2737	-0.7839	-1.498	9.8239	0.9042	0.1562	-0.7502	0.3745	-0.0808	-0.9897	-0.2427	-0.3426
-0.1788	-0.1262	9.6716	-1.2108	-0.0595	0.2875	-0.0103	0.4239	-0.686	3.988	2.2628	8.3476	-0.2864	0.5125	-0.0476	-0.2745	-0.8248	-1.5116	9.9865	1.7081	-0.1791	-0.533	0.3138	-0.024	-1.0081	-0.2058	-0.3791
-0.0592	-0.3575	9.9586	-1.0887	-0.0906	0.2532	-0.0282	0.4134	-0.7377	4.4583	2.846	8.3582	-0.2827	0.4545	0.2308	-0.3628	-0.8203	-1.5518	9.8134	0.9018	-0.4135	-0.5643	0.2829	-0.0234	-1.0251	-0.1881	-0.3623
-0.2881	-0.1834	9.8976	-1.0284	-0.2771	0.3412	-0.0295	0.4227	-0.6679	4.5209	2.2619	8.4723	-0.4675	0.6997	0.138	-0.3237	-0.8011	-1.5476	9.8166	1.1906	-0.1844	-0.4085	0.655	-0.2105	-0.9897	-0.2066	-0.3433
-0.0033	-0.4157	9.9025	-1.0841	-0.2166	0.4962	-0.0267	0.3691	-0.6614	3.9853	2.4377	8.2333	-0.1021	0.8834	0.1024	-0.2889	-0.8221	-1.5722	9.7562	0.902	-0.4145	-0.288	0.627	-0.336	-0.9902	-0.2062	-0.361
-0.0057	-0.242	9.7888	-1.0569	-0.2155	0.3732	-0.0493	0.4458	-0.7059	4.1678	2.4382	8.5236	-0.5012	0.7273	-0.109	-0.2984	-0.8234	-1.5292	9.1312	1.2512	-0.0828	-0.1294	0.5948	-0.1551	-1.0073	-0.1523	-0.3449
0.5555	-0.1277	9.4007	-1.1154	-0.5899	0.768	-0.0103	0.4239	-0.686	4.1649	2.73	8.4097	-0.1957	1.128	-0.0222	-0.2803	-0.8443	-1.5411	9.4153	1.3072	-0.1912	0.0291	0.5008	0.0564	-0.9892	-0.225	-0.3253
-0.0659	-0.3005	9.6162	-1.6146	-0.3998	0.5089	-0.0687	0.4403	-0.6518	4.3355	2.5532	8.0682	-0.6803	0.9165	0.231	-0.3526	-0.7782	-1.5813	9.3565	1.4224	-0.2488	0.0128	0.6774	0.5793	-0.9733	-0.1697	-0.3789
0.327	-0.4177	9.3382	-1.5595	-0.4912	0.3536	-0.0473	0.4143	-0.7376	4.1	2.9045	8.1222	-0.4704	1.0049	-0.0496	-0.3048	-0.7811	-1.546	9.5256	1.594	-0.3589	0.0241	0.9182	0.9174	-0.9898	-0.1704	-0.3441
-0.0066	-0.4742	9.731	-1.4612	-0.6179	0.6245	-0.0494	0.4436	-0.6879	4.337	2.3781	8.1251	-0.6802	1.0707	0.2607	-0.344	-0.8003	-1.5501	9.7014	1.3638	-0.1858	-0.3827	1.1656	0.5884	-0.9553	-0.1882	-0.3604
0.0978	-0.0116	9.2778	-1.9828	-0.8663	0.9724	-0.0456	0.3743	-0.6973	4.3931	2.6697	8.0123	-1.1335	1.2914	0.6339	-0.3317	-0.8407	-1.5915	9.5894	1.2495	-0.0744	-0.9405	0.976	0.6922	-1.0068	-0.1708	-0.3269
0.3379	-0.126	9.91	-2.4824	-1.1741	1.0746	-0.0494	0.4436	-0.6879	4.2854	2.0872	8.4673	-1.257	1.5984	0.5709	-0.3287	-0.7797	-1.5636	9.526	1.1907	-0.4175	-1.1253	1.3456	0.5124	-1.043	-0.1696	-0.3807
-0.1194	-0.3579	9.7862	-3.163	-1.4828	1.3345	-0.0682	0.451	-0.7418	4.2752	2.67	8.0101	-0.9193	2.1856	0.8104	-0.2859	-0.7611	-1.5444	9.5898	1.1344	-0.0749	-1.2209	1.2537	0.4528	-1.0086	-0.1874	-0.3971
0.1172	-0.3568	10.2475	-2.4934	-0.8071	1.4455	-0.0295	0.4227	-0.6679	3.9808	2.4954	8.004	-1.8342	2.3722	0.8793	-0.3223	-0.8219	-1.5468	9.4738	0.9616	-0.1916	-1.2981	0.9956	1.2836	-0.9727	-0.2424	-0.3598
0.0554	0.0486	10.0191	-1.2096	0.0335	0.2579	-0.0292	0.4291	-0.7219	4.5169	2.5535	8.3011	-2.8729	2.4339	0.7958	-0.2998	-0.8026	-1.53	9.3613	1.2506	-0.0216	-1.3227	0.0933	2.1123	-1.025	-0.2242	-0.3615
0.1057	-0.0684	9.6774	-1.363	-0.0286	0.3532	-0.0876	0.4456	-0.6877	4.6968	2.2029	8.4181	-4.0886	2.0396	1.119	-0.2853	-0.8228	-1.5571	9.7616	1.4218	-0.0136	-1.8555	-0.8666	2.4295	-0.9728	-0.2062	-0.3605
-0.0672	-0.1266	9.5596	-1.7061	0.0981	0.1807	-0.0664	0.4131	-0.7195	4.4	2.0864	8.2974	-3.1759	1.7583	0.8655	-0.2536	-0.8873	-1.5218	9.8161	1.0177	-0.2421	-2.7411	-1.7906	2.2012	-1.0082	-0.1697	-0.3798
-0.0659	-0.3585	9.6161	-1.8523	-0.4543	-0.1268	-0.0512	0.4815	-0.7102	3.8083	2.0289	8.1714	0.6243	1.4621	-0.2794	-0.3462	-0.8205	-1.5645	9.9294	1.0746	-0.2967	-3.2866	-1.7827	1.3834	-0.9549	-0.1886	-0.3428
0.1002	-0.1273	9.3917	-3.0185	-0.6295	-0.6465	-0.0082	0.3924	-0.7176	4.2864	2.6134	8.5837	0.4756	1.5278	0.0303	-0.2889	-0.8221	-1.5722	9.5315	1.4224	-0.0747	-4.3314	-1.3114	0.116	-0.9737	-0.2236	-0.3954
0.2165	-0.3591	9.5075	-2.658	-0.9698	-0.7518	0.0125	0.3514	-0.6774	4.3982	2.3783	8.2409	1.3049	1.9638	0.5135	-0.2795	-0.8034	-1.5275	9.5881	1.0187	-0.1893	-5.364	-1.2813	-0.3535	-0.9898	-0.1524	-0.3445
0.2178	-0.533	9.5641	-3.7845	-1.2204	0.0711	-0.0283	0.4112	-0.7197	4.5706	2.9032	8.0737	-0.1233	2.2181	1.019	-0.2817	-0.8235	-1.5419	9.8209	0.8459	-0.0149	-5.1817	-2.0211	-0.0512	-1.0076	-0.2062	-0.3614
0.2788	-0.1263	9.7947	-4.7735	-1.1235	0.069	-0.0457	0.3722	-0.6793	4.5803	2.5541	8.5317	1.1879	2.4313	0.9743	-0.349	-0.7789	-1.5661	9.8222	1.0767	0.1	-4.7453	-2.6817	-0.8603	-0.9728	-0.1882	-0.3609
0.0492	-0.4745	9.6751	-4.9321	-1.2461	0.0415	-0.0302	0.447	-0.724	3.9827	3.0802	8.1779	2.3752	2.7354	0.8065	-0.2839	-0.8436	-1.5562	9.4773	1.1353	0.037	-4.5511	-3.4095	-1.3877	-0.9728	-0.1701	-0.3613
0.159	0.2791	9.5082	-5.8076	-1.4264	-0.089	-0.0474	0.4101	-0.7016	4.1535	2.845	7.8363	2.6889	3.4525	1.5703	-0.3223	-0.8219	-1.5468	9.4707	0.9609	-0.3625	-4.4761	-4.2649	-1.6364	-1.0077	-0.17	-0.3622
0.1616	-0.1267	9.6212	-6.7702	-1.7639	0.0867	-0.1067	0.4465	-0.6876	4.1027	2.6711	8.2363	0.4182	3.9357	3.0394	-0.2962	-0.8033	-1.5148	9.6025	1.6558	0.7248	-4.3856	-4.4796	-1.6079	-0.9902	-0.1881	-0.3614
-0.6979	-0.0107	9.3193	-7.0021	-2.4017	-0.9222	-0.0473	0.4143	-0.7376	4.1062	2.6132	8.4082	2.2186	4.6425	3.1408	-0.3483	-0.8406	-1.5788	8.9617	1.4828	0.0859	-4.608	-5.128	-1.4505	-1.0251	-0.2061	-0.3619
0.0473	-0.8809	9.5597	-7.3331	-2.5691	0.5214	-0.0294	0.4248	-0.6859	4.5799	2.7294	8.5322	0.7639	4.6852	3.9261	-0.3295	-0.8206	-1.5772	9.1322	1.5395	0.0324	-4.9189	-5.8728	-1.0455	-1.059	-0.2068	-0.3275
0.331	0.047	9.568	-7.9476	-2.5471	1.6693	-0.0294	0.4248	-0.6859	4.1692	2.3215	8.5806	1.7118	4.6552	4.072	-0.2831	-0.8027	-1.5427	9.2476	1.0207	-0.0247	-5.3181	-6.4971	-0.5157	-1.0246	-0.1884	-0.3446
0.3282	-0.4756	9.3952	-8.1813	-3.1942	1.6076	-0.0456	0.3743	-0.6973	4.2854	2.5548	8.5262	4.2923	4.0529	2.9407	-0.2889	-0.8221	-1.5722	9.1929	0.6182	0.0296	-5.3397	-6.9986	0.1907	-1.043	-0.2057	-0.38
0.2789	-0.2423	9.7944	-8.2513	-3.2636	2.4033	-0.0495	0.4415	-0.6699	4.2331	2.556	8.8693	5.9981	3.8936	2.679	-0.2556	-0.8048	-1.5099	9.479	0.6747	0.0351	-5.9194	-7.9062	1.1234	-1.0425	-0.188	-0.3627
0.3895	-0.3589	9.625	-7.8183	-2.6739	1.9393	-0.0665	0.411	-0.7015	3.8734	2.2636	8.5175	6.4569	3.74	2.7376	-0.2853	-0.8228	-1.5571	9.1306	0.5596	-0.2565	-5.9291	-9.3867	1.613	-0.9903	-0.152	-0.3621
-0.1845	-0.011	9.3864	-7.7852	-2.1455	1.608	-0.0696	0.4582	-0.654	3.9366	2.3226	8.7483	6.4353	3.8723	3.4472	-0.2948	-0.824	-1.514	9.7593	0.9027	-0.2436	-5.8435	-10.899	2.2234	-0.9902	-0.1881	-0.3614
0.1007	-0.6494	9.3902	-6.7324	-1.5686	2.1657	-0.0303	0.4427	-0.688	3.9841	2.4959	8.1761	5.4969	3.8811	4.0427	-0.2934	-0.8448	-1.5132	9.5309	0.4428	-0.3066	-5.6179	-12.6486	2.3389	-0.9916	-0.187	-0.4143
-0.1229	-0.2424	9.6153	-6.343	-1.3169	1.5465	-0.0294	0.4248	-0.6859	4.275	2.7284	8.0103	5.2288	4.0421	4.569	-0.2948	-0.824	-1.514	10.1641	0.6717	-0.0663	-5.7639	-14.9584	2.7995	-0.9902	-0.2243	-0.3606
0.3336	-0.2427	9.6813	-5.9938	-0.8232	1.4505	-0.0493	0.4458	-0.7059	4.4016	2.8465	8.4719	0.9308	3.713	4.8894	-0.3418	-0.7802	-1.5358	10.3343	0.5554	-0.1776	-6.7087	-17.1037	2.1099	-0.9894	-0.1527	-0.3268
0.0502	-0.3583	9.7325	-6.8985	-0.5782	2.0588	-0.0874	0.4498	-0.7237	4.2265	2.5549	8.525	-0.2236	3.1341	5.2134	-0.2992	-0.8642	-1.5427	9.8153	0.3837	-0.4156	-8.4457	-18.21	1.3465	-1.0073	-0.1523	-0.3449
2.0415	-3.0291	9.5927	-7.3893	-1.3458	1.7891	-0.0696	0.4582	-0.654	3.9356	1.7964	8.6319	2.2694	2.8751	4.4509	-0.292	-0.8656	-1.5124	9.9342	0.3266	-0.1859	-10.4832	-18.4263	0.4373	-1.0238	-0.153	-0.3101
-0.0636	-0.3582	9.7302	-6.8508	-0.3138	3.4049	-0.0704	0.4803	-0.6921	4.46	2.1448	8.3561	5.9484	2.7955	3.3981	-0.2926	-0.8039	-1.4997	10.2195	0.0372	-0.2958	-11.9074	-17.384	-0.176	-0.9554	-0.1521	-0.3612
0.1679	-0.938	9.9043	-5.9673	-0.1983	3.8401	-0.0483	0.43	-0.7218	4.4647	2.0287	8.5853	6.5231	2.728	2.9918	-0.2992	-0.8642	-1.5427	9.8145	0.6139	-0.4146	-12.6857	-16.013	0.1498	-1.0246	-0.2065	-0.3442
0.5154	-1.2855	10.1955	-4.9187	0.3177	4.3056	-0.0084	0.3881	-0.6816	4.4039	2.3208	8.5277	6.4872	2.6609	2.5602	-0.2853	-0.8228	-1.5571	9.9817	0.7275	-0.6389	-11.8087	-14.4837	0.9628	-1.0053	-0.1899	-0.2736
-0.2398	-0.5329	9.4409	-2.0084	0.9182	4.8122	-0.0678	0.4225	-0.6497	4.0445	2.8467	8.2931	7.9357	3.1667	1.3693	-0.2948	-0.824	-1.514	9.939	0.731	0.1576	-9.912	-12.4812	1.3861	-1.0081	-0.2058	-0.3791
1.1392	-1.2865	10.0936	-1.3768	2.1044	3.3102	-0.0295	0.4227	-0.6679	5.1718	2.2024	8.5991	5.5972	5.4003	2.5786	-0.2723	-0.8047	-1.4972	10.0019	0.6169	0.443	-7.3621	-10.166	1.7345	-1.0237	-0.1892	-0.3093
0.3403	-0.2997	10.0237	0.5371	2.9388	2.4718	-0.0297	0.4184	-0.6319	3.6298	3.1981	8.229	4.0994	2.7795	1.9947	-0.2767	-0.8449	-1.5259	10.1077	0.4416	-0.0683	-5.1352	-7.3804	1.2303	-1.0421	-0.1523	-0.3458
-1.0296	-0.8791	9.7668	5.0663	2.4585	-3.9537	-0.0314	0.4584	-0.6722	4.3376	3.0796	8.242	0.9512	2.7165	1.592	-0.2934	-0.8448	-1.5132	10.169	0.2118	0.1027	-3.062	-4.4726	0.6988	-1.042	-0.2065	-0.3447
-0.054	-2.2133	10.1245	10.3627	3.8183	3.0345	-0.0676	0.4267	-0.6857	4.6284	2.9029	8.0175	-0.9443	2.7769	1.3312	-0.26	-0.845	-1.5386	10.0542	-0.0183	0.0427	-3.9535	-1.8082	0.6909	-0.9724	-0.1705	-0.3436
-1.2087	0.8603	9.4259	11.7942	3.0492	-7.1892	-0.0457	0.3722	-0.6793	4.157	3.2547	8.067	-3.8828	2.9254	0.6471	-0.2767	-0.8449	-1.5259	10.1556	0.4393	-0.58	-4.232	-0.1999	-0.2839	-1.0049	-0.1542	-0.2567
0.0508	-0.9384	9.7308	10.8621	3.8973	1.0964	-0.0666	0.4089	-0.6835	4.1013	2.7878	8.1793	-7.8457	2.4101	0.8731	-0.3034	-0.8019	-1.5452	10.2149	0.1514	-0.5231	-6.9239	1.2038	-1.0232	-1.0407	-0.1534	-0.2929
0.2224	-0.7063	9.7919	10.823	4.1592	-0.3665	-0.0647	0.3732	-0.6792	4.2195	2.2031	8.1223	-9.6409	1.8008	1.1724	-0.2678	-0.782	-1.5562	10.1535	0.4388	-0.6939	-7.9255	1.6367	-1.7386	-0.9898	-0.1885	-0.3437
0.6665	-1.8108	9.1696	10.5599	3.3368	4.7656	-0.0493	0.4458	-0.7059	3.7513	3.0815	8.403	-11.1129	0.778	0.4526	-0.2717	-0.8664	-1.5099	9.7029	0.9608	-0.1874	-10.8315	1.7557	-2.9054	-1.0068	-0.1708	-0.3269
-0.0632	-0.7642	9.7291	13.224	5.0565	-1.5233	-0.1066	0.4487	-0.7056	4.4627	2.3791	8.5289	-12.2151	-0.2416	0.0073	-0.2867	-0.802	-1.5579	9.6356	0.8435	-0.7586	-13.1161	0.9798	-3.4415	-0.9724	-0.1705	-0.3436
0.3189	1.0895	9	19.0157	6.8994	-2.9164	-0.0647	0.3732	-0.6792	3.6393	2.4398	8.6283	-13.1119	-1.393	-1.0875	-0.2992	-0.8642	-1.5427	9.7562	0.902	-0.4145	-15.2868	0.2108	-4.4102	-1.0237	-0.1892	-0.3093
0.0578	-0.1251	10.1328	18.0353	5.7273	-2.6881	-0.0675	0.4289	-0.7037	3.9938	2.6144	8.6929	-12.9467	-2.6441	-2.6547	-0.3006	-0.8435	-1.5435	9.2959	0.9032	-0.5368	-15.9941	-0.6762	-4.9801	-1.0243	-0.1346	-0.3281
0.3447	-0.183	10.2525	16.1092	6.0588	-4.1285	-0.0096	0.4017	-0.6478	4.2914	2.848	8.8713	-11.3289	-2.6762	-2.6078	-0.2347	-0.8673	-1.5201	9.6945	0.6708	-0.7013	-17.6657	-0.9675	-4.7606	-0.9898	-0.1704	-0.3441
0.2219	-0.1842	9.7934	16.7824	5.9542	-6.3179	-0.0477	0.4037	-0.6476	4.3459	2.3795	8.5841	-9.6923	-2.9976	-3.5162	-0.3309	-0.7998	-1.578	9.9848	1.0163	-0.4098	-18.1546	-1.0681	-4.4124	-1.0252	-0.152	-0.363
0.2177	-0.4169	9.5644	18.3475	6.0767	-6.8794	-0.0488	0.4194	-0.6318	4.0521	2.4388	8.6361	-7.5404	-3.1999	-4.6775	-0.3194	-0.8635	-1.5452	9.5929	0.5589	-0.0203	-18.7603	-1.0191	-3.8464	-1.0063	-0.1892	-0.3089
-0.8625	-0.5898	9.5997	20.6783	7.5903	-4.7579	-0.0476	0.4058	-0.6656	3.8698	2.3799	8.3457	-10.0443	-4.1234	-4.956	-0.2889	-0.8221	-1.5722	9.9921	0.4418	-0.1274	-18.8211	-1.5467	-3.4772	-1.026	-0.2235	-0.3968
0.1117	-0.4157	9.9618	23.4418	6.1545	-4.4526	-0.0284	0.4091	-0.7017	4.173	2.0883	8.752	-6.8213	-3.9847	-5.821	-0.2717	-0.8664	-1.5099	9.8212	0.7883	-0.0152	-18.4629	-2.6816	-3.3636	-1.0247	-0.1704	-0.345
0.2857	-0.2993	10.1368	25.2248	6.8882	-4.4329	-0.0485	0.4258	-0.6858	4.2258	2.3794	8.4671	-4.2514	-3.3644	-5.201	-0.3301	-0.7589	-1.5645	10.0509	0.9029	0.0465	-17.2441	-4.3752	-4.5288	-1.0073	-0.1343	-0.3453
-0.3352	0.0502	10.411	24.8826	8.115	-3.4017	-0.0284	0.4091	-0.7017	4.5191	2.5539	8.4158	-5.8857	-2.7941	-4.0782	-0.2809	-0.7826	-1.5284	10.0987	0.9005	-0.4652	-15.9582	-5.2975	-5.94	-1.0077	-0.17	-0.3622
6.66	-4.5322	12.9323	13.9497	22.6283	-4.2866	-0.0482	0.4322	-0.7398	4.465	2.3794	8.6437	-6.6752	-2.6968	-3.7628	-0.3237	-0.8011	-1.5476	9.5308	1.019	-0.1903	-12.5921	-5.8053	-7.395	-0.9903	-0.1339	-0.3625
0.119	0.2903	13.2743	8.5301	16.8827	1.0571	-0.0285	0.407	-0.6837	4.523	2.3207	8.5873	-3.6186	-2.1096	-3.2706	-0.3114	-0.8414	-1.589	9.5892	0.7309	-0.1905	-8.3298	-5.9531	-7.824	-1.0246	-0.1884	-0.3446
-0.3765	-0.9917	11.1491	26.9623	23.9015	1.9066	-0.0627	0.3417	-0.7109	4.1587	3.0212	8.1237	-3.6143	-1.6429	-2.8726	-0.2931	-0.7598	-1.5747	9.7047	1.595	0.043	-3.2309	-6.1882	-8.1787	-1.0242	-0.1888	-0.327
0.3075	-0.8762	11.22	31.102	31.7027	4.7184	-0.0263	0.3776	-0.7334	4.1043	3.4312	8.4108	-2.935	-1.1117	-2.1726	-0.3129	-0.8031	-1.5021	10.1664	1.767	0.28	2.0096	-5.8758	-8.1056	-1.0233	-0.1715	-0.2921
0.8231	0.5248	14.3732	27.7371	48.3499	6.5808	-0.0282	0.4134	-0.7377	4.5185	2.32	8.3577	-3.781	-1.2563	-1.5459	-0.3223	-0.8219	-1.5468	10.4536	1.8237	0.3424	8.0609	-5.8517	-8.9412	-1.0068	-0.1527	-0.3273
-0.2642	0.7571	14.0671	32.1901	62.1249	5.0178	-0.0282	0.4134	-0.7377	4.2774	2.6704	8.1248	-5.3344	-2.4228	-1.4918	-0.2019	-0.8058	-1.5329	10.6298	2.0546	0.6313	14.9397	-7.0549	-9.3968	-1.0241	-0.2069	-0.3266
0.144	-0.1121	14.5292	30.614	76.1523	8.6053	-0.0454	0.3786	-0.7333	4.4038	2.3792	8.5278	-4.056	-2.8592	-1.8092	-0.3201	-0.8018	-1.5325	10.9153	2.2838	0.6374	19.9291	-8.7479	-10.888	-1.0411	-0.1891	-0.3098
0.0942	-0.5171	14.8695	35.4379	91.1518	11.1095	0.0112	0.4	-0.7897	4.2767	2.4949	8.0669	-3.4048	-2.9112	-1.0118	-0.2895	-0.7605	-1.5595	10.5177	2.5165	0.859	24.6609	-10.0456	-14.3702	-1.0416	-0.1888	-0.3274
0.3338	-0.1094	15.5032	33.7373	108.5004	13.1779	-0.0631	0.3702	-0.803	4.0505	2.1463	8.5205	-4.7453	-3.3081	-0.9037	-0.2817	-0.8235	-1.5419	11.1947	2.4541	0.3016	27.6555	-9.8986	-18.8578	-0.9888	-0.2073	-0.308
0.3423	0.414	15.9615	33.5174	128.2934	14.2235	-0.0252	0.364	-0.7672	4.345	2.3209	8.5265	-4.129	-3.3952	-0.4455	-0.3048	-0.7811	-1.546	10.2745	2.3989	0.0568	31.0673	-7.3113	-24.2109	-0.9893	-0.1889	-0.3261
0.6483	-0.9175	16.991	33.7159	150.1138	16.2572	0.0114	0.4042	-0.8257	4.4517	2.8449	8.014	0.9104	-2.318	0.0554	-0.2453	-0.7627	-1.5394	10.4475	2.629	0.1748	35.7828	-3.8377	-28.6382	-1.0246	-0.2065	-0.3442
0.9202	-1.5492	19.2203	35.2488	174.2419	18.6458	0.0133	0.3685	-0.8214	4.0984	2.612	8.0066	-2.7555	-1.5472	2.2148	-0.2831	-0.8027	-1.5427	9.985	2.3993	-0.1193	40.3522	0.4037	-33.1533	-0.9893	-0.2069	-0.3257
1.1987	-1.0283	18.942	43.073	198.0918	18.382	0.0334	0.3518	-0.8374	4.5116	3.371	8.1314	-6.5205	-1.5853	3.6708	-0.2911	-0.8422	-1.5866	9.6995	1.8819	-0.1837	41.1871	5.292	-37.5265	-1.0595	-0.1703	-0.3459
1.6057	-1.8396	19.3471	52.0083	223.0907	20.1473	0.1079	0.3837	-0.8421	4.2146	2.9037	7.9523	-7.2143	-1.3299	4.3239	-0.3034	-0.8019	-1.5452	9.4612	1.2469	-0.8171	41.516	10.5978	-41.2739	-1.0062	-0.2434	-0.3077
0.8974	-3.5253	17.9585	77.5032	248.6948	19.2302	0.1098	0.348	-0.8377	3.7454	3.2559	8.1166	-9.9739	-1.186	5.6765	-0.3034	-0.8019	-1.5452	8.9049	0.7917	-0.0319	39.6476	16.1585	-42.4549	-0.9718	-0.2431	-0.3245
-0.6911	-5.5622	15.1818	82.9991	268.8749	28.5862	0.1664	0.3715	-0.9122	4.4574	2.7874	8.3007	-12.4583	-1.8742	6.9402	-0.2859	-0.7611	-1.5444	8.4409	0.6768	-0.3825	34.9476	20.1395	-41.9188	-0.97	-0.2084	-0.2547
-2.3631	-6.7908	11.0931	65.3012	283.8227	45.8614	0.1855	0.3705	-0.9123	4.291	2.0881	8.7542	-13.5215	-2.5771	7.2025	-0.2881	-0.7812	-1.5587	8.6748	-0.072	-0.2674	29.0479	24.3782	-38.5304	-0.9882	-0.2799	-0.2889
-5.2718	-9.0021	7.7192	17.325	294.2682	65.912	0.2237	0.3686	-0.9125	3.8187	2.3229	8.7461	-11.1266	-3.1197	5.9181	-0.3048	-0.7811	-1.546	8.6806	-0.2435	0.0167	25.7829	28.7079	-33.754	-1.0411	-0.2433	-0.3087
-6.1462	-9.6426	6.6157	-62.5174	289.0487	90.4327	0.2808	0.3614	-0.8767	4.4063	2.2627	8.6422	-13.6308	-4.0744	5.6089	-0.3237	-0.8011	-1.5476	8.9538	-0.3628	-0.7191	22.7633	30.5394	-30.2154	-0.9891	-0.2972	-0.3238
0.9523	-6.925	6.0784	-120.1781	260.984	128.6986	0.3019	0.329	-0.9085	4.1182	1.7384	8.922	-14.9995	-5.5171	5.7252	-0.3281	-0.8413	-1.5763	9.0096	-0.2481	-0.7746	19.4718	29.1624	-25.754	-0.9717	-0.2973	-0.3233
11.9903	-3.0577	3.3961	-112.5167	174.5439	134.8232	0.3963	0.3399	-0.8932	4.2998	1.6219	9.1545	-9.9558	-5.9453	4.0137	-0.3373	-0.7576	-1.5948	8.9446	-0.7106	-1.2902	15.0201	25.1028	-18.9369	-0.9548	-0.2608	-0.3413
19.4279	-2.2468	5.5423	-41.3389	79.3721	100.4406	0.4323	0.3674	-0.8437	4.3993	1.9109	8.2395	-8.6464	-6.6586	3.6981	-0.3006	-0.8435	-1.5435	10.768	0.6635	-1.479	11.6559	18.2261	-14.2362	-1.007	-0.2788	-0.3423
19.9982	-3.5902	2.6389	8.556	8.9717	53.9275	0.3951	0.3514	-0.8413	4.8885	2.0295	9.1668	-11.0227	-7.7924	3.8215	-0.3389	-0.8218	-1.5341	11.5599	1.0616	-1.9185	11.4062	10.2613	-13.4437	-1.0235	-0.3156	-0.3067
19.7906	-6.0903	0.6299	17.0946	-36.925	8.9769	0.4363	0.3002	-0.871	4.5448	1.5059	9.6176	-7.1306	-8.1807	2.7072	-0.3259	-0.8212	-1.562	12.4319	1.2343	-1.1615	14.7599	2.215	-20.1321	-0.9726	-0.2785	-0.359
20.3287	-8.947	-3.9907	-11.3839	-95.7036	-23.3854	0.396	0.3335	-0.8392	4.2924	1.9714	8.8113	-3.9032	-8.4075	2.123	-0.3757	-0.7359	-1.5854	11.7323	1.1764	-1.8579	12.4538	-0.4449	-28.4432	-0.973	-0.3504	-0.3751
18.5478	-9.0552	-1.9715	-47.1323	-155.263	-48.7102	0.4155	0.3411	-0.9113	4.5726	2.4944	8.1299	-5.6217	-8.9701	3.6566	-0.349	-0.7789	-1.5661	10.8192	1.4686	-1.6456	10.597	-1.2064	-31.907	-0.9726	-0.2785	-0.359
16.8872	-8.7478	3.3046	-70.0408	-196.6968	-60.0457	0.3933	0.3893	-0.8636	4.9911	2.4359	8.4244	-9.1457	-8.3645	4.9511	-0.3568	-0.7159	-1.5838	10.0734	1.8167	-1.6577	12.0773	-1.5016	-32.0005	-0.9362	-0.3519	-0.3036
14.0617	-8.9741	4.2757	-76.2374	-214.5728	-61.6263	0.3183	0.3838	-0.9331	4.5829	1.9116	8.5871	-8.2694	-9.2373	6.5247	-0.3568	-0.7159	-1.5838	10.1884	1.4131	-1.7143	13.3045	-1.9075	-30.9212	-0.9896	-0.2788	-0.3418
11.8956	-9.0885	4.0615	-84.3066	-221.3709	-54.9374	0.278	0.4172	-0.9012	4.46	2.1448	8.3561	-6.7352	-9.1998	7.1896	-0.3315	-0.7381	-1.5653	10.2344	1.6408	-2.2819	10.2863	-1.4015	-29.1665	-0.9896	-0.2788	-0.3418
9.7102	-8.6751	5.789	-103.6384	-221.7938	-41.4813	0.2387	0.4327	-0.8672	4.396	2.8456	8.185	-9.1119	-10.0874	9.6892	-0.3765	-0.7768	-1.5989	9.6807	1.0134	-1.3835	10.694	-2.5592	-29.5762	-0.99	-0.2965	-0.3591
7.8502	-7.8583	6.725	-126.8892	-217.4628	-26.0014	0.2172	0.4958	-0.9456	4.5246	2.5548	8.7027	-11.284	-9.8133	11.6531	-0.3148	-0.7382	-1.578	8.9285	1.1296	-1.7954	9.6151	-3.8398	-28.572	-1.0234	-0.3879	-0.3052
6.6404	-7.6767	8.8706	-144.9213	-212.3293	-12.6739	0.1578	0.528	-0.8956	4.7851	1.5061	9.8516	-11.7601	-10.8793	12.4377	-0.375	-0.7975	-1.5981	8.9885	0.9571	-1.6811	8.1283	-4.3265	-29.6163	-0.9711	-0.3518	-0.3045
6.5789	-6.1023	11.6135	-154.7461	-212.2644	-5.7094	0.0994	0.5445	-0.8615	4.1544	3.8973	8.0116	-13.9606	-15.1341	16.2583	-0.3009	-0.6968	-1.5924	8.9442	0.845	-0.999	6.081	-3.9676	-29.9715	-0.9376	-0.3869	-0.3558
5.7583	-4.53	13.3712	-157.3657	-217.935	-5.9734	-0.003	0.6679	-0.8221	4.7613	1.7361	8.6473	-16.5177	-15.3098	11.9596	-0.3967	-0.776	-1.6014	8.653	0.7298	-1.2895	4.5478	-3.814	-30.7374	-0.9546	-0.3331	-0.3397
4.7783	-4.2322	15.6357	-153.6819	-226.6996	-11.5484	0.0188	0.6091	-0.7797	5.1715	1.8516	8.5407	-8.3406	-16.1828	9.4503	-0.3273	-0.8005	-1.5628	8.5471	0.0983	-0.9524	5.358	-3.3701	-33.4575	-0.989	-0.3695	-0.3223
3.2793	-3.819	17.5479	-147.7168	-232.4406	-20.7901	-0.0626	0.6959	-0.7361	4.4688	1.6787	8.7563	-9.7295	-18.5089	7.8748	-0.3337	-0.7582	-1.5796	8.4875	1.0199	-0.8927	4.0413	-3.2767	-34.1974	-0.972	-0.3692	-0.3394
1.3849	-3.1148	19.6244	-139.1783	-231.6454	-32.9046	-0.027	0.7126	-0.5966	4.9515	1.7378	9.3392	-4.3348	-20.5251	7.0987	-0.4112	-0.7558	-1.5743	8.4846	1.2497	-1.0057	4.5368	-3.2112	-34.2386	-0.9376	-0.3508	-0.3566
-0.8739	-3.0519	20.4933	-127.0851	-225.3109	-47.4715	-0.1052	0.7522	-0.6006	4.1514	3.7799	7.8391	-1.7294	-26.4347	9.4974	-0.3799	-0.6735	-1.5879	8.8836	0.9021	-1.1707	3.4588	-2.6419	-31.6648	-0.9546	-0.3331	-0.3397
-3.448	-2.5872	19.8163	-113.4004	-215.272	-62.4395	-0.0296	0.7313	-0.457	4.6963	3.3718	8.5364	-2.5935	-28.4777	10.8181	-0.4212	-0.7129	-1.6063	8.6461	0.9011	-1.6306	1.0355	-1.6787	-27.2493	-0.972	-0.3872	-0.3391
-6.8187	-1.0774	19.1836	-108.0585	-201.4483	-75.4552	-0.0511	0.7573	-0.3712	4.5364	1.7968	9.2168	-2.848	-35.2692	13.7442	-0.4098	-0.7765	-1.5735	7.9637	0.4437	-1.4741	-0.7296	-0.9015	-22.3872	-1.0069	-0.3691	-0.3404
-10.2426	-1.1334	18.6595	-103.082	-181.5425	-84.8196	0.0089	0.6987	-0.347	4.7733	2.3225	9.3377	2.0077	-42.3299	15.3586	-0.4184	-0.7544	-1.6047	7.9619	-0.1905	-1.7046	-1.307	0.1988	-15.9217	-0.9724	-0.3869	-0.3567
-15.7023	-0.9535	18.7809	-110.2725	-160.3726	-88.7612	0.0484	0.6483	-0.2349	5.1336	2.3812	9.6888	-1.2981	-49.0865	18.3128	-0.4373	-0.7744	-1.6063	8.1899	-0.1916	-1.7574	-3.827	1.3653	-6.4653	-0.9375	-0.423	-0.355
-20.4734	0.4451	19.2618	-121.4459	-138.3675	-81.8273	0.1082	0.5854	-0.1747	4.7232	2.3241	9.7956	2.9206	-55.6186	20.2997	-0.4329	-0.7342	-1.5776	8.6499	-0.7115	-1.7512	-0.5835	1.2781	1.2073	-0.9536	-0.388	-0.3033
-27.3598	10.9702	25.4922	162.9982	-76.2069	-88.5968	0.2438	0.5451	-0.189	5.1579	2.4435	10.9513	0.3392	-61.7368	20.3701	-0.3938	-0.715	-1.5735	8.7617	-0.2515	-1.8042	5.4213	0.2902	10.9704	-0.9201	-0.4231	-0.3546
-25.8634	17.2458	29.5921	-23.276	-57.1582	-79.3238	0.224	0.5682	-0.2271	6.0329	2.6738	10.5097	12.5502	-69.1448	19.6024	-0.4858	-0.6923	-1.5412	9.6749	-0.2556	-1.9584	4.214	-1.5028	24.0811	-0.9541	-0.3876	-0.321
-32.6745	10.7228	18.481	88.7795	-37.3385	-76.0678	0.3619	0.5028	-0.3271	5.4081	1.9777	11.6429	18.2266	-78.368	18.2298	-0.5199	-0.7505	-1.617	10.9106	-1.5778	-0.4038	7.3806	-2.4758	24.9953	-0.9361	-0.4061	-0.3025
-33.0781	8.8573	15.2145	110.2654	-9.4899	-68.0185	0.303	0.5478	-0.3852	5.6445	1.7435	11.6466	26.0852	-87.517	15.6627	-0.5069	-0.7324	-1.5572	11.3747	-0.9443	0.0629	14.1035	-1.3032	15.0534	-0.9537	-0.3519	-0.3041
-29.6267	11.8183	17.2886	133.8319	29.0154	-60.706	0.3081	0.467	-0.4464	5.6914	1.6829	11.0164	31.6368	-96.096	14.1319	-0.5113	-0.7726	-1.5858	11.2991	-1.6397	-1.0803	15.1171	2.7044	12.2419	-0.9372	-0.3331	-0.3393
-14.8544	23.1888	22.6348	194.666	67.2158	-85.1394	0.3044	0.5406	-0.473	5.5257	2.6204	11.7045	31.7966	-106.0141	15.5954	-0.593	-0.7078	-1.583	11.6187	-0.494	-2.1517	14.5291	8.8363	12.5091	-0.9196	-0.4054	-0.3373
